SpectraSuite Data File
++++++++++++++++++++++++++++++++++++
Date: Mon Jun 06 14:23:37 CEST 2016
User: root
Dark Spectrum Present: No
Reference Spectrum Present: No
Number of Sampled Component Spectra: 1
Spectrometers: USB4C02835
Integration Time (usec): 100000 (USB4C02835)
Spectra Averaged: 1 (USB4C02835)
Boxcar Smoothing: 0 (USB4C02835)
Correct for Electrical Dark: No (USB4C02835)
Strobe/Lamp Enabled: No (USB4C02835)
Correct for Detector Non-linearity: No (USB4C02835)
Correct for Stray Light: No (USB4C02835)
Number of Pixels in Processed Spectrum: 3648
>>>>>Begin Processed Spectral Data<<<<<
177.47	1468.39
177.69	1468.39
177.91	1468.39
178.13	1427.43
178.36	1486.83
178.58	1665.00
178.80	1716.20
179.02	1617.90
179.24	1665.00
179.46	1791.97
179.68	1804.26
179.90	1705.96
180.13	1714.15
180.35	1644.52
180.57	1646.57
180.79	1763.30
181.01	1738.73
181.23	1796.07
181.45	1746.92
181.67	1718.25
181.90	1705.96
182.12	1656.81
182.34	1632.23
182.56	1705.96
182.78	1648.61
183.00	1671.14
183.22	1730.53
183.44	1589.22
183.66	1818.60
183.89	1740.77
184.11	1738.73
184.33	1718.25
184.55	1673.19
184.77	1841.12
184.99	1656.81
185.21	1699.81
185.43	1898.47
185.65	1705.96
185.87	1746.92
186.10	1808.36
186.32	1830.88
186.54	1712.10
186.76	1712.10
186.98	1716.20
187.20	1726.44
187.42	1648.61
187.64	1726.44
187.86	1753.06
188.08	1773.54
188.30	1603.56
188.52	1630.18
188.75	1798.12
188.97	1877.99
189.19	1675.24
189.41	1703.91
189.63	1771.49
189.85	1705.96
190.07	1640.42
190.29	1677.29
190.51	1734.63
190.73	1658.85
190.95	1798.12
191.17	1656.81
191.39	1646.57
191.61	1720.29
191.84	1736.68
192.06	1705.96
192.28	1675.24
192.50	1832.93
192.72	1728.49
192.94	1685.48
193.16	1730.53
193.38	1732.58
193.60	1624.04
193.82	1683.43
194.04	1783.78
194.26	1812.45
194.48	1724.39
194.70	1599.46
194.92	1679.33
195.14	1753.06
195.36	1658.85
195.58	1695.72
195.80	1726.44
196.02	1726.44
196.24	1693.67
196.46	1708.01
196.69	1630.18
196.91	1761.25
197.13	1683.43
197.35	1722.34
197.57	1724.39
197.79	1662.95
198.01	1759.21
198.23	1763.30
198.45	1687.53
198.67	1665.00
198.89	1660.90
199.11	1652.71
199.33	1669.09
199.55	1560.55
199.77	1710.05
199.99	1771.49
200.21	1683.43
200.43	1751.01
200.65	1597.42
200.87	1540.07
201.09	1650.66
201.31	1617.90
201.53	1734.63
201.75	1697.77
201.97	1712.10
202.19	1708.01
202.41	1730.53
202.63	1822.69
202.85	1660.90
203.07	1665.00
203.29	1632.23
203.51	1665.00
203.73	1681.38
203.95	1847.27
204.17	1732.58
204.39	1748.97
204.61	1695.72
204.83	1689.57
205.05	1787.88
205.27	1724.39
205.49	1880.04
205.71	1734.63
205.93	1624.04
206.15	1705.96
206.37	1681.38
206.59	1691.62
206.81	1630.18
207.03	1583.08
207.25	1671.14
207.47	1730.53
207.69	1736.68
207.91	1785.83
208.13	1744.87
208.34	1636.33
208.56	1667.05
208.78	1722.34
209.00	1628.14
209.22	1708.01
209.44	1628.14
209.66	1691.62
209.88	1681.38
210.10	1710.05
210.32	1646.57
210.54	1775.59
210.76	1695.72
210.98	1697.77
211.20	1615.85
211.42	1652.71
211.64	1787.88
211.86	1685.48
212.08	1771.49
212.30	1673.19
212.52	1736.68
212.74	1669.09
212.96	1695.72
213.17	1736.68
213.39	1771.49
213.61	1767.40
213.83	1671.14
214.05	1597.42
214.27	1746.92
214.49	1646.57
214.71	1650.66
214.93	1734.63
215.15	1677.29
215.37	1791.97
215.59	1626.09
215.81	1822.69
216.03	1695.72
216.24	1697.77
216.46	1615.85
216.68	1705.96
216.90	1746.92
217.12	1759.21
217.34	1705.96
217.56	1716.20
217.78	1820.64
218.00	1687.53
218.22	1703.91
218.44	1738.73
218.66	1687.53
218.87	1794.02
219.09	1665.00
219.31	1765.35
219.53	1751.01
219.75	1667.05
219.97	1771.49
220.19	1714.15
220.41	1667.05
220.63	1802.21
220.85	1796.07
221.06	1667.05
221.28	1781.73
221.50	1763.30
221.72	1718.25
221.94	1751.01
222.16	1673.19
222.38	1703.91
222.60	1736.68
222.82	1675.24
223.03	1740.77
223.25	1710.05
223.47	1712.10
223.69	1791.97
223.91	1755.11
224.13	1624.04
224.35	1628.14
224.57	1683.43
224.78	1726.44
225.00	1679.33
225.22	1726.44
225.44	1730.53
225.66	1728.49
225.88	1675.24
226.10	1798.12
226.32	1718.25
226.53	1898.47
226.75	1654.76
226.97	1660.90
227.19	1662.95
227.41	1701.86
227.63	1701.86
227.85	1626.09
228.06	1728.49
228.28	1742.82
228.50	1769.44
228.72	1644.52
228.94	1726.44
229.16	1535.98
229.37	1675.24
229.59	1691.62
229.81	1759.21
230.03	1634.28
230.25	1644.52
230.47	1628.14
230.69	1679.33
230.90	1718.25
231.12	1650.66
231.34	1695.72
231.56	1744.87
231.78	1648.61
232.00	1769.44
232.21	1732.58
232.43	1697.77
232.65	1558.50
232.87	1771.49
233.09	1689.57
233.30	1693.67
233.52	1775.59
233.74	1644.52
233.96	1699.81
234.18	1722.34
234.40	1671.14
234.61	1814.50
234.83	1615.85
235.05	1566.70
235.27	1869.80
235.49	1804.26
235.70	1744.87
235.92	1787.88
236.14	1718.25
236.36	1783.78
236.58	1599.46
236.79	1771.49
237.01	1656.81
237.23	1714.15
237.45	1794.02
237.67	1671.14
237.88	1705.96
238.10	1814.50
238.32	1652.71
238.54	1783.78
238.76	1691.62
238.97	1671.14
239.19	1652.71
239.41	1763.30
239.63	1746.92
239.85	1773.54
240.06	1716.20
240.28	1683.43
240.50	1726.44
240.72	1712.10
240.93	1660.90
241.15	1769.44
241.37	1732.58
241.59	1789.92
241.81	1665.00
242.02	1689.57
242.24	1634.28
242.46	1697.77
242.68	1718.25
242.89	1712.10
243.11	1775.59
243.33	1730.53
243.55	1738.73
243.76	1730.53
243.98	1642.47
244.20	1712.10
244.42	1677.29
244.64	1779.68
244.85	1650.66
245.07	1646.57
245.29	1791.97
245.51	1601.51
245.72	1683.43
245.94	1740.77
246.16	1724.39
246.38	1779.68
246.59	1708.01
246.81	1679.33
247.03	1777.64
247.24	1669.09
247.46	1732.58
247.68	1722.34
247.90	1675.24
248.11	1699.81
248.33	1695.72
248.55	1808.36
248.77	1652.71
248.98	1662.95
249.20	1892.32
249.42	1689.57
249.64	1714.15
249.85	1718.25
250.07	1652.71
250.29	1724.39
250.50	1810.40
250.72	1681.38
250.94	1738.73
251.16	1785.83
251.37	1755.11
251.59	1765.35
251.81	1691.62
252.02	1759.21
252.24	1617.90
252.46	1798.12
252.68	1632.23
252.89	1654.76
253.11	1589.22
253.33	1730.53
253.54	1746.92
253.76	1609.70
253.98	1687.53
254.20	1671.14
254.41	1611.75
254.63	1703.91
254.85	1693.67
255.06	1675.24
255.28	1728.49
255.50	1689.57
255.71	1683.43
255.93	1708.01
256.15	1654.76
256.36	1675.24
256.58	1697.77
256.80	1742.82
257.02	1628.14
257.23	1638.38
257.45	1775.59
257.67	1767.40
257.88	1636.33
258.10	1755.11
258.32	1746.92
258.53	1740.77
258.75	1763.30
258.97	1701.86
259.18	1775.59
259.40	1720.29
259.62	1843.17
259.83	1785.83
260.05	1779.68
260.27	1998.82
260.48	1798.12
260.70	1630.18
260.92	1650.66
261.13	1703.91
261.35	1714.15
261.57	1705.96
261.78	1681.38
262.00	1683.43
262.22	1734.63
262.43	1687.53
262.65	1660.90
262.86	1689.57
263.08	1826.79
263.30	1728.49
263.51	1654.76
263.73	1675.24
263.95	1759.21
264.16	1619.94
264.38	1703.91
264.60	1740.77
264.81	1751.01
265.03	1724.39
265.25	1791.97
265.46	1724.39
265.68	1794.02
265.89	1724.39
266.11	1619.94
266.33	1783.78
266.54	1714.15
266.76	1802.21
266.98	1738.73
267.19	1808.36
267.41	1701.86
267.62	1751.01
267.84	1574.89
268.06	1726.44
268.27	1656.81
268.49	1765.35
268.70	1693.67
268.92	1761.25
269.14	1646.57
269.35	1595.37
269.57	1626.09
269.79	1761.25
270.00	1683.43
270.22	1699.81
270.43	1650.66
270.65	1585.13
270.87	1665.00
271.08	1705.96
271.30	1705.96
271.51	1730.53
271.73	1724.39
271.95	1771.49
272.16	1669.09
272.38	1751.01
272.59	1712.10
272.81	1785.83
273.02	1693.67
273.24	1732.58
273.46	1785.83
273.67	1581.03
273.89	1746.92
274.10	1648.61
274.32	1779.68
274.54	1714.15
274.75	1718.25
274.97	1619.94
275.18	1763.30
275.40	1689.57
275.61	1669.09
275.83	1724.39
276.05	1646.57
276.26	1710.05
276.48	1753.06
276.69	1648.61
276.91	1767.40
277.12	1777.64
277.34	1730.53
277.55	1703.91
277.77	1800.16
277.99	1734.63
278.20	1644.52
278.42	1642.47
278.63	1613.80
278.85	1642.47
279.06	1726.44
279.28	1757.16
279.49	1660.90
279.71	1777.64
279.93	1673.19
280.14	1669.09
280.36	1607.66
280.57	1773.54
280.79	1740.77
281.00	1669.09
281.22	1626.09
281.43	1765.35
281.65	1564.65
281.86	1621.99
282.08	1718.25
282.29	1828.84
282.51	1611.75
282.73	1683.43
282.94	1658.85
283.16	1775.59
283.37	1775.59
283.59	1640.42
283.80	1800.16
284.02	1673.19
284.23	1708.01
284.45	1644.52
284.66	1703.91
284.88	1593.32
285.09	1742.82
285.31	1722.34
285.52	1673.19
285.74	1605.61
285.95	1802.21
286.17	1726.44
286.38	1751.01
286.60	1628.14
286.81	1665.00
287.03	1689.57
287.24	1619.94
287.46	1822.69
287.67	1708.01
287.89	1771.49
288.10	1679.33
288.32	1695.72
288.53	1771.49
288.75	1714.15
288.96	1681.38
289.18	1681.38
289.39	1605.61
289.61	1800.16
289.82	1804.26
290.04	1722.34
290.25	1646.57
290.47	1701.86
290.68	1699.81
290.90	1726.44
291.11	1621.99
291.33	1757.16
291.54	1619.94
291.76	1671.14
291.97	1757.16
292.18	1828.84
292.40	1691.62
292.61	1658.85
292.83	1775.59
293.04	1689.57
293.26	1740.77
293.47	1685.48
293.69	1650.66
293.90	1652.71
294.12	1757.16
294.33	1718.25
294.55	1701.86
294.76	1748.97
294.97	1732.58
295.19	1783.78
295.40	1644.52
295.62	1710.05
295.83	1656.81
296.05	1675.24
296.26	1761.25
296.48	1714.15
296.69	1699.81
296.90	1708.01
297.12	1769.44
297.33	1675.24
297.55	1697.77
297.76	1695.72
297.98	1736.68
298.19	1755.11
298.41	1708.01
298.62	1701.86
298.83	1869.80
299.05	1699.81
299.26	1742.82
299.48	1589.22
299.69	1783.78
299.90	1783.78
300.12	1632.23
300.33	1677.29
300.55	1720.29
300.76	1732.58
300.98	1593.32
301.19	1757.16
301.40	1642.47
301.62	1699.81
301.83	1687.53
302.05	1798.12
302.26	1703.91
302.47	1681.38
302.69	1624.04
302.90	1695.72
303.12	1589.22
303.33	1689.57
303.54	1761.25
303.76	1667.05
303.97	1744.87
304.19	1804.26
304.40	1630.18
304.61	1738.73
304.83	1818.60
305.04	1759.21
305.26	1677.29
305.47	1634.28
305.68	1615.85
305.90	1685.48
306.11	1755.11
306.33	1697.77
306.54	1624.04
306.75	1628.14
306.97	1587.18
307.18	1671.14
307.39	1687.53
307.61	1763.30
307.82	1697.77
308.04	1740.77
308.25	1691.62
308.46	1738.73
308.68	1710.05
308.89	1742.82
309.10	1837.03
309.32	1761.25
309.53	1722.34
309.74	1740.77
309.96	1726.44
310.17	1869.80
310.39	1685.48
310.60	1744.87
310.81	1681.38
311.03	1665.00
311.24	1665.00
311.45	1757.16
311.67	1808.36
311.88	1681.38
312.09	1718.25
312.31	1667.05
312.52	1740.77
312.73	1740.77
312.95	1603.56
313.16	1722.34
313.37	1796.07
313.59	1718.25
313.80	1748.97
314.01	1865.70
314.23	1650.66
314.44	1654.76
314.65	1619.94
314.87	1673.19
315.08	1699.81
315.29	1621.99
315.51	1720.29
315.72	1632.23
315.93	1810.40
316.15	1798.12
316.36	1677.29
316.57	1746.92
316.79	1738.73
317.00	1654.76
317.21	1683.43
317.43	1763.30
317.64	1705.96
317.85	1681.38
318.07	1701.86
318.28	1771.49
318.49	1695.72
318.70	1869.80
318.92	1834.98
319.13	1816.55
319.34	1957.86
319.56	1814.50
319.77	1816.55
319.98	1804.26
320.20	1834.98
320.41	1738.73
320.62	1759.21
320.83	1693.67
321.05	1877.99
321.26	1738.73
321.47	1730.53
321.69	1775.59
321.90	1665.00
322.11	1656.81
322.32	1681.38
322.54	1802.21
322.75	1642.47
322.96	1837.03
323.18	1667.05
323.39	1560.55
323.60	1683.43
323.81	1839.08
324.03	1681.38
324.24	1660.90
324.45	1767.40
324.66	1693.67
324.88	1796.07
325.09	1783.78
325.30	1669.09
325.52	1675.24
325.73	1839.08
325.94	1593.32
326.15	1548.26
326.37	1673.19
326.58	1697.77
326.79	1798.12
327.00	1677.29
327.22	1701.86
327.43	1650.66
327.64	1662.95
327.85	1665.00
328.07	1720.29
328.28	1726.44
328.49	1660.90
328.70	1675.24
328.92	1773.54
329.13	1689.57
329.34	1693.67
329.55	1871.84
329.76	1667.05
329.98	1673.19
330.19	1771.49
330.40	1722.34
330.61	1755.11
330.83	1732.58
331.04	1716.20
331.25	1746.92
331.46	1677.29
331.68	1726.44
331.89	1732.58
332.10	1740.77
332.31	1597.42
332.52	1710.05
332.74	1755.11
332.95	1617.90
333.16	1697.77
333.37	1624.04
333.58	1650.66
333.80	1755.11
334.01	1587.18
334.22	1738.73
334.43	1771.49
334.64	1662.95
334.86	1640.42
335.07	1587.18
335.28	1777.64
335.49	1650.66
335.70	1732.58
335.92	1621.99
336.13	1804.26
336.34	1714.15
336.55	1681.38
336.76	1691.62
336.98	1632.23
337.19	1705.96
337.40	1744.87
337.61	1849.32
337.82	1701.86
338.04	1730.53
338.25	1558.50
338.46	1712.10
338.67	1665.00
338.88	1683.43
339.09	1644.52
339.31	1619.94
339.52	1695.72
339.73	1693.67
339.94	1673.19
340.15	1669.09
340.36	1693.67
340.58	1769.44
340.79	1660.90
341.00	1669.09
341.21	1644.52
341.42	1851.36
341.63	1679.33
341.85	1708.01
342.06	1705.96
342.27	1638.38
342.48	1742.82
342.69	1636.33
342.90	1679.33
343.12	1740.77
343.33	1669.09
343.54	1712.10
343.75	1769.44
343.96	1640.42
344.17	1585.13
344.38	1667.05
344.60	1611.75
344.81	1652.71
345.02	1697.77
345.23	1771.49
345.44	1832.93
345.65	1746.92
345.86	1687.53
346.07	1703.91
346.29	1703.91
346.50	1665.00
346.71	1748.97
346.92	1837.03
347.13	1882.08
347.34	1677.29
347.55	1685.48
347.76	1726.44
347.98	1632.23
348.19	1624.04
348.40	1644.52
348.61	1722.34
348.82	1812.45
349.03	1740.77
349.24	1619.94
349.45	1789.92
349.66	1681.38
349.88	1740.77
350.09	1640.42
350.30	1802.21
350.51	1841.12
350.72	1781.73
350.93	1744.87
351.14	1634.28
351.35	1751.01
351.56	1679.33
351.77	1675.24
351.99	1710.05
352.20	1808.36
352.41	1757.16
352.62	1583.08
352.83	1716.20
353.04	1740.77
353.25	1679.33
353.46	1761.25
353.67	1687.53
353.88	1624.04
354.09	1726.44
354.30	1697.77
354.52	1720.29
354.73	1691.62
354.94	1673.19
355.15	1689.57
355.36	1830.88
355.57	1642.47
355.78	1746.92
355.99	1669.09
356.20	1685.48
356.41	1728.49
356.62	1734.63
356.83	1697.77
357.04	1802.21
357.25	1634.28
357.46	1636.33
357.68	1578.98
357.89	1654.76
358.10	1718.25
358.31	1714.15
358.52	1636.33
358.73	1634.28
358.94	1714.15
359.15	1689.57
359.36	1720.29
359.57	1714.15
359.78	1757.16
359.99	1675.24
360.20	1589.22
360.41	1712.10
360.62	1777.64
360.83	1650.66
361.04	1736.68
361.25	1689.57
361.46	1787.88
361.67	1734.63
361.88	1722.34
362.09	1789.92
362.30	1697.77
362.51	1665.00
362.72	1722.34
362.93	1810.40
363.14	1738.73
363.35	1785.83
363.56	1615.85
363.78	1697.77
363.99	1787.88
364.20	1753.06
364.41	1755.11
364.62	1779.68
364.83	1773.54
365.04	1716.20
365.25	1679.33
365.46	1806.31
365.67	1689.57
365.88	1611.75
366.09	1755.11
366.30	1712.10
366.51	1726.44
366.72	1599.46
366.93	1669.09
367.14	1751.01
367.35	1765.35
367.56	1703.91
367.77	1753.06
367.98	1712.10
368.18	1626.09
368.39	1695.72
368.60	1599.46
368.81	1718.25
369.02	1767.40
369.23	1665.00
369.44	1665.00
369.65	1757.16
369.86	1699.81
370.07	1716.20
370.28	1648.61
370.49	1775.59
370.70	1681.38
370.91	1640.42
371.12	1609.70
371.33	1777.64
371.54	1656.81
371.75	1789.92
371.96	1640.42
372.17	1632.23
372.38	1722.34
372.59	1785.83
372.80	1763.30
373.01	1695.72
373.22	1705.96
373.43	1736.68
373.64	1693.67
373.85	1796.07
374.06	1740.77
374.26	1730.53
374.47	1626.09
374.68	1755.11
374.89	1748.97
375.10	1685.48
375.31	1695.72
375.52	1708.01
375.73	1685.48
375.94	1626.09
376.15	1662.95
376.36	1578.98
376.57	1689.57
376.78	1689.57
376.99	1701.86
377.20	1777.64
377.40	1638.38
377.61	1785.83
377.82	1607.66
378.03	1691.62
378.24	1708.01
378.45	1685.48
378.66	1736.68
378.87	1591.27
379.08	1679.33
379.29	1773.54
379.50	1783.78
379.71	1658.85
379.91	1759.21
380.12	1667.05
380.33	1699.81
380.54	1701.86
380.75	1648.61
380.96	1665.00
381.17	1759.21
381.38	1695.72
381.59	1695.72
381.80	1751.01
382.00	1824.74
382.21	1775.59
382.42	1851.36
382.63	1816.55
382.84	1771.49
383.05	1820.64
383.26	1753.06
383.47	1742.82
383.68	1779.68
383.88	1710.05
384.09	1691.62
384.30	1765.35
384.51	1746.92
384.72	1712.10
384.93	1591.27
385.14	1734.63
385.35	1751.01
385.55	1681.38
385.76	1732.58
385.97	1761.25
386.18	1673.19
386.39	1705.96
386.60	1636.33
386.81	1677.29
387.02	1636.33
387.22	1595.37
387.43	1812.45
387.64	1849.32
387.85	1865.70
388.06	2197.47
388.27	4288.45
388.48	6852.50
388.68	8112.00
388.89	9586.54
389.10	9781.10
389.31	8601.47
389.52	7726.99
389.73	6703.00
389.93	6246.30
390.14	5791.66
390.35	5263.28
390.56	4601.79
390.77	3825.61
390.98	3092.43
391.18	2590.68
391.39	2146.27
391.60	1894.37
391.81	1877.99
392.02	1781.73
392.23	1923.04
392.43	1683.43
392.64	1740.77
392.85	1703.91
393.06	1771.49
393.27	1722.34
393.47	1683.43
393.68	1708.01
393.89	1689.57
394.10	1767.40
394.31	1716.20
394.52	1693.67
394.72	1662.95
394.93	1753.06
395.14	1689.57
395.35	1722.34
395.56	1638.38
395.76	1728.49
395.97	1777.64
396.18	1841.12
396.39	1777.64
396.60	2011.11
396.80	1865.70
397.01	1810.40
397.22	1837.03
397.43	1900.52
397.64	1736.68
397.84	1777.64
398.05	1832.93
398.26	1738.73
398.47	1734.63
398.67	1742.82
398.88	1738.73
399.09	1763.30
399.30	1695.72
399.51	1740.77
399.71	1597.42
399.92	1703.91
400.13	1847.27
400.34	1660.90
400.54	1734.63
400.75	1769.44
400.96	1712.10
401.17	1888.23
401.37	1708.01
401.58	1781.73
401.79	1769.44
402.00	1820.64
402.21	1972.19
402.41	1982.43
402.62	1908.71
402.83	2052.06
403.04	2054.11
403.24	2019.30
403.45	1855.46
403.66	1898.47
403.87	1892.32
404.07	1939.43
404.28	1916.90
404.49	1896.42
404.70	1734.63
404.90	1722.34
405.11	1755.11
405.32	1761.25
405.52	1662.95
405.73	1646.57
405.94	1632.23
406.15	1722.34
406.35	1685.48
406.56	1751.01
406.77	1685.48
406.98	1677.29
407.18	1634.28
407.39	1834.98
407.60	1689.57
407.80	1818.60
408.01	1695.72
408.22	1781.73
408.43	1656.81
408.63	1642.47
408.84	1757.16
409.05	1728.49
409.25	1603.56
409.46	1652.71
409.67	1695.72
409.88	1673.19
410.08	1746.92
410.29	1716.20
410.50	1769.44
410.70	1726.44
410.91	1640.42
411.12	1748.97
411.32	1734.63
411.53	1695.72
411.74	1847.27
411.95	1824.74
412.15	1640.42
412.36	1730.53
412.57	1736.68
412.77	1773.54
412.98	1679.33
413.19	1689.57
413.39	1761.25
413.60	1714.15
413.81	1722.34
414.01	1705.96
414.22	1800.16
414.43	1748.97
414.63	1611.75
414.84	1755.11
415.05	1681.38
415.25	1587.18
415.46	1705.96
415.67	1734.63
415.87	1695.72
416.08	1710.05
416.29	1759.21
416.49	1722.34
416.70	1751.01
416.91	1697.77
417.11	1703.91
417.32	1705.96
417.53	1759.21
417.73	1689.57
417.94	1708.01
418.15	1738.73
418.35	1705.96
418.56	1673.19
418.77	1865.70
418.97	1771.49
419.18	1730.53
419.38	1533.93
419.59	1685.48
419.80	1804.26
420.00	1683.43
420.21	1736.68
420.42	1787.88
420.62	1791.97
420.83	1642.47
421.04	1671.14
421.24	1726.44
421.45	1771.49
421.65	1658.85
421.86	1662.95
422.07	1742.82
422.27	1720.29
422.48	1703.91
422.69	1667.05
422.89	1632.23
423.10	1773.54
423.30	1607.66
423.51	1646.57
423.72	1656.81
423.92	1697.77
424.13	1703.91
424.33	1759.21
424.54	1722.34
424.75	1693.67
424.95	1845.22
425.16	1767.40
425.36	1669.09
425.57	1759.21
425.78	1718.25
425.98	1816.55
426.19	1701.86
426.39	1685.48
426.60	1660.90
426.81	1759.21
427.01	1675.24
427.22	1673.19
427.42	1650.66
427.63	1718.25
427.83	1791.97
428.04	1755.11
428.25	1804.26
428.45	1796.07
428.66	1759.21
428.86	1751.01
429.07	1734.63
429.28	1712.10
429.48	1697.77
429.69	1619.94
429.89	1693.67
430.10	1632.23
430.30	1763.30
430.51	1783.78
430.71	1697.77
430.92	1740.77
431.13	1587.18
431.33	1757.16
431.54	1652.71
431.74	1804.26
431.95	1806.31
432.15	1703.91
432.36	1665.00
432.56	1646.57
432.77	1796.07
432.98	1794.02
433.18	1695.72
433.39	1675.24
433.59	1730.53
433.80	1761.25
434.00	1843.17
434.21	1714.15
434.41	1656.81
434.62	1839.08
434.82	1656.81
435.03	1738.73
435.23	1685.48
435.44	1601.51
435.64	1710.05
435.85	1740.77
436.06	1800.16
436.26	1755.11
436.47	1705.96
436.67	1667.05
436.88	1591.27
437.08	1720.29
437.29	1812.45
437.49	1763.30
437.70	1779.68
437.90	1724.39
438.11	1804.26
438.31	1785.83
438.52	1853.41
438.72	1820.64
438.93	1843.17
439.13	1732.58
439.34	1769.44
439.54	1730.53
439.75	1828.84
439.95	1759.21
440.16	1640.42
440.36	1695.72
440.57	1763.30
440.77	1644.52
440.98	1730.53
441.18	1693.67
441.39	1669.09
441.59	1665.00
441.80	1900.52
442.00	1738.73
442.21	1757.16
442.41	1677.29
442.62	1802.21
442.82	1742.82
443.02	1640.42
443.23	1740.77
443.43	1753.06
443.64	1820.64
443.84	1634.28
444.05	1800.16
444.25	1673.19
444.46	1673.19
444.66	1708.01
444.87	1863.65
445.07	1748.97
445.28	1724.39
445.48	1804.26
445.69	1722.34
445.89	1884.13
446.09	1832.93
446.30	2123.74
446.50	2672.60
446.71	3729.35
446.91	4241.34
447.12	4634.55
447.32	4898.74
447.53	4349.89
447.73	3946.44
447.93	3524.55
448.14	3356.62
448.34	3200.98
448.55	2981.84
448.75	2877.40
448.96	2736.09
449.16	2426.84
449.36	2346.97
449.57	2066.40
449.77	1888.23
449.98	1847.27
450.18	1806.31
450.39	1791.97
450.59	1740.77
450.79	1685.48
451.00	1665.00
451.20	1804.26
451.41	1712.10
451.61	1714.15
451.81	1738.73
452.02	1697.77
452.22	1681.38
452.43	1757.16
452.63	1697.77
452.84	1718.25
453.04	1665.00
453.24	1826.79
453.45	1697.77
453.65	1814.50
453.86	1746.92
454.06	1744.87
454.26	1777.64
454.47	1742.82
454.67	1806.31
454.87	1722.34
455.08	1755.11
455.28	1824.74
455.49	1791.97
455.69	1669.09
455.89	1845.22
456.10	1767.40
456.30	1757.16
456.51	1832.93
456.71	1712.10
456.91	1740.77
457.12	1734.63
457.32	1716.20
457.52	1683.43
457.73	1779.68
457.93	1812.45
458.14	1679.33
458.34	1638.38
458.54	1628.14
458.75	1703.91
458.95	1796.07
459.15	1767.40
459.36	1783.78
459.56	1751.01
459.76	1751.01
459.97	1699.81
460.17	1697.77
460.37	1775.59
460.58	1658.85
460.78	1736.68
460.99	1705.96
461.19	1718.25
461.39	1705.96
461.60	1689.57
461.80	1744.87
462.00	1675.24
462.21	1656.81
462.41	1697.77
462.61	1695.72
462.82	1587.18
463.02	1718.25
463.22	1751.01
463.43	1740.77
463.63	1826.79
463.83	1787.88
464.04	1730.53
464.24	1642.47
464.44	1640.42
464.64	1740.77
464.85	1748.97
465.05	1791.97
465.25	1683.43
465.46	1718.25
465.66	1730.53
465.86	1730.53
466.07	1716.20
466.27	1705.96
466.47	1683.43
466.68	1644.52
466.88	1787.88
467.08	1724.39
467.29	1789.92
467.49	1787.88
467.69	1789.92
467.89	1730.53
468.10	1603.56
468.30	1712.10
468.50	1767.40
468.71	1687.53
468.91	1687.53
469.11	1826.79
469.31	1755.11
469.52	1697.77
469.72	1777.64
469.92	1839.08
470.13	1671.14
470.33	1701.86
470.53	1787.88
470.73	2062.30
470.94	2250.72
471.14	2303.96
471.34	2478.04
471.54	2418.65
471.75	2232.29
471.95	2131.94
472.15	2009.06
472.36	2076.64
472.56	2082.78
472.76	2097.12
472.96	2027.49
473.17	1849.32
473.37	1863.65
473.57	1794.02
473.77	1810.40
473.98	1728.49
474.18	1642.47
474.38	1953.76
474.58	1724.39
474.79	1716.20
474.99	1839.08
475.19	1802.21
475.39	1705.96
475.60	1714.15
475.80	1603.56
476.00	1767.40
476.20	1769.44
476.41	1748.97
476.61	1755.11
476.81	1812.45
477.01	1701.86
477.21	1814.50
477.42	1791.97
477.62	1683.43
477.82	1757.16
478.02	1714.15
478.23	1765.35
478.43	1597.42
478.63	1640.42
478.83	1708.01
479.03	1708.01
479.24	1841.12
479.44	1826.79
479.64	1660.90
479.84	1671.14
480.04	1716.20
480.25	1662.95
480.45	1677.29
480.65	1744.87
480.85	1744.87
481.06	1621.99
481.26	1736.68
481.46	1732.58
481.66	1755.11
481.86	1691.62
482.06	1816.55
482.27	1662.95
482.47	1673.19
482.67	1705.96
482.87	1681.38
483.07	1787.88
483.28	1673.19
483.48	1679.33
483.68	1699.81
483.88	1656.81
484.08	1628.14
484.29	1617.90
484.49	1681.38
484.69	1708.01
484.89	1841.12
485.09	1765.35
485.29	1804.26
485.50	1738.73
485.70	1642.47
485.90	1757.16
486.10	1710.05
486.30	1726.44
486.50	1744.87
486.71	1726.44
486.91	1804.26
487.11	1834.98
487.31	1630.18
487.51	1693.67
487.71	1685.48
487.91	1681.38
488.12	1673.19
488.32	1589.22
488.52	1685.48
488.72	1636.33
488.92	1691.62
489.12	1804.26
489.32	1742.82
489.53	1740.77
489.73	1624.04
489.93	1763.30
490.13	1720.29
490.33	1595.37
490.53	1718.25
490.73	1771.49
490.94	1642.47
491.14	1781.73
491.34	1830.88
491.54	2187.23
491.74	2615.26
491.94	2873.30
492.14	3053.52
492.34	3121.10
492.54	2709.46
492.75	2416.60
492.95	2471.90
493.15	2240.48
493.35	2330.59
493.55	2252.77
493.75	2160.61
493.95	2246.62
494.15	2037.73
494.35	1947.62
494.56	1837.03
494.76	1785.83
494.96	1685.48
495.16	1781.73
495.36	1726.44
495.56	1740.77
495.76	1683.43
495.96	1724.39
496.16	1683.43
496.36	1853.41
496.56	1785.83
496.77	1779.68
496.97	1722.34
497.17	1769.44
497.37	1742.82
497.57	1738.73
497.77	1769.44
497.97	1697.77
498.17	1791.97
498.37	1673.19
498.57	1742.82
498.77	1773.54
498.97	1763.30
499.17	1857.51
499.38	1794.02
499.58	1830.88
499.78	1791.97
499.98	1757.16
500.18	1736.68
500.38	1687.53
500.58	1925.09
500.78	2559.96
500.98	4511.68
501.18	5722.02
501.38	6846.36
501.58	7163.79
501.78	6576.03
501.98	5515.18
502.18	4982.71
502.38	4388.80
502.58	4140.99
502.78	3852.23
502.98	3620.81
503.18	3438.54
503.38	3225.55
503.59	2957.27
503.79	2553.82
503.99	2465.75
504.19	2312.16
504.39	2168.80
504.59	2160.61
504.79	2101.22
504.99	1937.38
505.19	1949.67
505.39	1898.47
505.59	1933.28
505.79	1964.00
505.99	1828.84
506.19	1812.45
506.39	1871.84
506.59	1753.06
506.79	1771.49
506.99	1773.54
507.19	1732.58
507.39	1773.54
507.59	1642.47
507.79	1650.66
507.99	1591.27
508.19	1734.63
508.39	1738.73
508.59	1693.67
508.79	1847.27
508.99	1855.46
509.19	1617.90
509.39	1716.20
509.59	1738.73
509.79	1738.73
509.99	1710.05
510.19	1861.60
510.39	1853.41
510.59	1695.72
510.79	1787.88
510.99	1646.57
511.19	1789.92
511.39	1839.08
511.59	1812.45
511.79	1804.26
511.99	1669.09
512.19	1824.74
512.38	1718.25
512.58	1703.91
512.78	1710.05
512.98	1734.63
513.18	1824.74
513.38	1634.28
513.58	1787.88
513.78	1742.82
513.98	1681.38
514.18	1746.92
514.38	1660.90
514.58	1730.53
514.78	1595.37
514.98	1716.20
515.18	1757.16
515.38	1615.85
515.58	1894.37
515.78	1656.81
515.98	1708.01
516.18	1746.92
516.38	1730.53
516.57	1718.25
516.77	1765.35
516.97	1714.15
517.17	1718.25
517.37	1595.37
517.57	1753.06
517.77	1716.20
517.97	1738.73
518.17	1822.69
518.37	1665.00
518.57	1701.86
518.77	1771.49
518.97	1726.44
519.16	1685.48
519.36	1798.12
519.56	1755.11
519.76	1742.82
519.96	1757.16
520.16	1818.60
520.36	1646.57
520.56	1830.88
520.76	1683.43
520.96	1753.06
521.16	1796.07
521.35	1769.44
521.55	1789.92
521.75	1814.50
521.95	1648.61
522.15	1724.39
522.35	1611.75
522.55	1726.44
522.75	1808.36
522.95	1724.39
523.14	1742.82
523.34	1884.13
523.54	1773.54
523.74	1726.44
523.94	1722.34
524.14	1708.01
524.34	1722.34
524.54	1789.92
524.73	1800.16
524.93	1746.92
525.13	1849.32
525.33	1763.30
525.53	1865.70
525.73	1785.83
525.93	1718.25
526.13	1763.30
526.32	1708.01
526.52	1828.84
526.72	1779.68
526.92	1716.20
527.12	1705.96
527.32	1695.72
527.52	1751.01
527.71	1748.97
527.91	1673.19
528.11	1697.77
528.31	1703.91
528.51	1630.18
528.71	1740.77
528.90	1695.72
529.10	1798.12
529.30	1771.49
529.50	1671.14
529.70	1730.53
529.90	1705.96
530.09	1730.53
530.29	1658.85
530.49	1740.77
530.69	1834.98
530.89	1742.82
531.09	1822.69
531.28	1640.42
531.48	1755.11
531.68	1761.25
531.88	1783.78
532.08	1828.84
532.28	1751.01
532.47	1804.26
532.67	1773.54
532.87	1720.29
533.07	1705.96
533.27	1789.92
533.46	1767.40
533.66	1736.68
533.86	1742.82
534.06	1791.97
534.26	1683.43
534.45	1681.38
534.65	1839.08
534.85	1820.64
535.05	1669.09
535.25	1816.55
535.44	1689.57
535.64	1736.68
535.84	1763.30
536.04	1753.06
536.24	1662.95
536.43	1734.63
536.63	1705.96
536.83	1777.64
537.03	1746.92
537.22	1599.46
537.42	1677.29
537.62	1636.33
537.82	1656.81
538.02	1875.94
538.21	1873.89
538.41	1908.71
538.61	1746.92
538.81	1665.00
539.00	1837.03
539.20	1683.43
539.40	1660.90
539.60	1785.83
539.79	1763.30
539.99	1675.24
540.19	1722.34
540.39	1708.01
540.58	1791.97
540.78	1787.88
540.98	1763.30
541.18	1804.26
541.37	1810.40
541.57	1734.63
541.77	1695.72
541.97	1652.71
542.16	1714.15
542.36	1609.70
542.56	1697.77
542.76	1757.16
542.95	1763.30
543.15	1759.21
543.35	1789.92
543.54	1648.61
543.74	1738.73
543.94	1769.44
544.14	1695.72
544.33	1804.26
544.53	1716.20
544.73	1660.90
544.93	1656.81
545.12	1755.11
545.32	1722.34
545.52	1685.48
545.71	1665.00
545.91	1669.09
546.11	1699.81
546.30	1671.14
546.50	1691.62
546.70	1728.49
546.90	1798.12
547.09	1597.42
547.29	1732.58
547.49	1806.31
547.68	1689.57
547.88	1742.82
548.08	1718.25
548.27	2197.47
548.47	1718.25
548.67	1699.81
548.87	1753.06
549.06	1701.86
549.26	1732.58
549.46	1769.44
549.65	1736.68
549.85	1722.34
550.05	1771.49
550.24	1748.97
550.44	1722.34
550.64	1738.73
550.83	1748.97
551.03	1785.83
551.23	1763.30
551.42	1863.65
551.62	1742.82
551.82	1742.82
552.01	1767.40
552.21	1740.77
552.41	1705.96
552.60	1763.30
552.80	1755.11
553.00	1699.81
553.19	1796.07
553.39	1763.30
553.59	1677.29
553.78	1744.87
553.98	1679.33
554.17	1701.86
554.37	1695.72
554.57	1804.26
554.76	1665.00
554.96	1660.90
555.16	1796.07
555.35	1753.06
555.55	1730.53
555.75	1751.01
555.94	1789.92
556.14	1732.58
556.33	1767.40
556.53	1716.20
556.73	1781.73
556.92	1802.21
557.12	1814.50
557.32	1812.45
557.51	1820.64
557.71	1705.96
557.90	1808.36
558.10	1806.31
558.30	1662.95
558.49	1748.97
558.69	1751.01
558.88	1789.92
559.08	1767.40
559.28	1738.73
559.47	1691.62
559.67	1814.50
559.86	1818.60
560.06	1728.49
560.26	1740.77
560.45	1728.49
560.65	1724.39
560.84	1812.45
561.04	1695.72
561.24	1740.77
561.43	1656.81
561.63	1853.41
561.82	1796.07
562.02	1701.86
562.22	1699.81
562.41	1662.95
562.61	1746.92
562.80	1665.00
563.00	1849.32
563.19	1787.88
563.39	1734.63
563.59	1742.82
563.78	1640.42
563.98	1613.80
564.17	1683.43
564.37	1687.53
564.56	1665.00
564.76	1636.33
564.96	1824.74
565.15	1695.72
565.35	1808.36
565.54	1728.49
565.74	1824.74
565.93	1796.07
566.13	1699.81
566.32	1787.88
566.52	1757.16
566.71	1720.29
566.91	1796.07
567.11	1718.25
567.30	1716.20
567.50	1763.30
567.69	1759.21
567.89	1705.96
568.08	1757.16
568.28	1722.34
568.47	1732.58
568.67	1773.54
568.86	1718.25
569.06	1798.12
569.25	1728.49
569.45	1751.01
569.64	1820.64
569.84	1724.39
570.04	1777.64
570.23	1730.53
570.43	1697.77
570.62	1703.91
570.82	1837.03
571.01	1693.67
571.21	1740.77
571.40	1665.00
571.60	1841.12
571.79	1759.21
571.99	1781.73
572.18	1681.38
572.38	1783.78
572.57	1755.11
572.77	1802.21
572.96	1751.01
573.16	1804.26
573.35	1677.29
573.55	1853.41
573.74	1802.21
573.94	1724.39
574.13	1755.11
574.33	1757.16
574.52	1890.28
574.71	1759.21
574.91	1746.92
575.10	1697.77
575.30	1720.29
575.49	1738.73
575.69	1671.14
575.88	1673.19
576.08	1751.01
576.27	1816.55
576.47	1755.11
576.66	1812.45
576.86	1714.15
577.05	1718.25
577.25	1816.55
577.44	1804.26
577.64	1730.53
577.83	1771.49
578.02	1716.20
578.22	1787.88
578.41	1857.51
578.61	1773.54
578.80	1677.29
579.00	1708.01
579.19	1753.06
579.39	1800.16
579.58	1787.88
579.77	1746.92
579.97	1785.83
580.16	1822.69
580.36	1742.82
580.55	1767.40
580.75	1773.54
580.94	1712.10
581.13	1865.70
581.33	1855.46
581.52	1673.19
581.72	1892.32
581.91	1837.03
582.11	1771.49
582.30	1812.45
582.49	1660.90
582.69	1839.08
582.88	1703.91
583.08	1859.56
583.27	1779.68
583.47	1763.30
583.66	1714.15
583.85	1714.15
584.05	1822.69
584.24	1763.30
584.44	1814.50
584.63	1877.99
584.82	1796.07
585.02	1794.02
585.21	1845.22
585.41	1906.66
585.60	1839.08
585.79	1968.10
585.99	1964.00
586.18	1834.98
586.37	2236.38
586.57	3383.24
586.76	9994.09
586.96	24641.16
587.15	34743.79
587.34	40697.24
587.54	42702.20
587.73	36994.51
587.93	26611.31
588.12	21601.97
588.31	18321.13
588.51	16480.00
588.70	14980.89
588.89	14325.54
589.09	12820.28
589.28	11048.79
589.47	9625.45
589.67	8165.25
589.86	6492.06
590.06	4882.36
590.25	3979.20
590.44	3166.16
590.64	2539.48
590.83	2183.13
591.02	2117.60
591.22	1978.34
591.41	1918.95
591.60	1812.45
591.80	1859.56
591.99	1748.97
592.18	1826.79
592.38	1834.98
592.57	1791.97
592.76	1820.64
592.96	1898.47
593.15	1705.96
593.34	1861.60
593.54	1751.01
593.73	1753.06
593.92	1738.73
594.12	1781.73
594.31	1818.60
594.50	1841.12
594.70	1908.71
594.89	1990.63
595.08	1650.66
595.28	1808.36
595.47	1894.37
595.66	1763.30
595.86	1746.92
596.05	1732.58
596.24	1712.10
596.43	1882.08
596.63	1806.31
596.82	1796.07
597.01	1759.21
597.21	1783.78
597.40	1779.68
597.59	1763.30
597.79	1761.25
597.98	1738.73
598.17	1720.29
598.36	1787.88
598.56	1734.63
598.75	1718.25
598.94	1771.49
599.14	1751.01
599.33	1720.29
599.52	1628.14
599.71	1705.96
599.91	1785.83
600.10	1708.01
600.29	1718.25
600.48	1755.11
600.68	1693.67
600.87	1746.92
601.06	1714.15
601.26	1806.31
601.45	1765.35
601.64	1718.25
601.83	1789.92
602.03	1740.77
602.22	1689.57
602.41	1794.02
602.60	1845.22
602.80	1843.17
602.99	1769.44
603.18	1697.77
603.37	1705.96
603.57	1742.82
603.76	1794.02
603.95	1798.12
604.14	1712.10
604.34	1703.91
604.53	1730.53
604.72	1730.53
604.91	1763.30
605.10	1861.60
605.30	1662.95
605.49	1820.64
605.68	1775.59
605.87	1687.53
606.07	1669.09
606.26	1765.35
606.45	1716.20
606.64	1720.29
606.84	1669.09
607.03	1802.21
607.22	1781.73
607.41	1648.61
607.60	1636.33
607.80	1771.49
607.99	1775.59
608.18	1753.06
608.37	1800.16
608.56	1708.01
608.76	1755.11
608.95	1785.83
609.14	1775.59
609.33	1783.78
609.52	1830.88
609.72	1691.62
609.91	1789.92
610.10	1714.15
610.29	1783.78
610.48	1751.01
610.68	1834.98
610.87	1708.01
611.06	1796.07
611.25	1718.25
611.44	1718.25
611.63	1697.77
611.83	1810.40
612.02	1718.25
612.21	1789.92
612.40	1681.38
612.59	1671.14
612.79	1638.38
612.98	1718.25
613.17	1845.22
613.36	1669.09
613.55	1849.32
613.74	1644.52
613.93	1765.35
614.13	1777.64
614.32	1740.77
614.51	1691.62
614.70	1716.20
614.89	1681.38
615.08	1748.97
615.28	2078.69
615.47	1736.68
615.66	1765.35
615.85	1667.05
616.04	1777.64
616.23	1642.47
616.42	1759.21
616.62	1712.10
616.81	1763.30
617.00	1726.44
617.19	1728.49
617.38	1648.61
617.57	1730.53
617.76	1744.87
617.95	1748.97
618.15	1677.29
618.34	1730.53
618.53	1634.28
618.72	1738.73
618.91	1796.07
619.10	1834.98
619.29	1730.53
619.48	1726.44
619.68	1769.44
619.87	1724.39
620.06	1648.61
620.25	1759.21
620.44	1650.66
620.63	1730.53
620.82	1708.01
621.01	1779.68
621.20	1689.57
621.39	1730.53
621.59	1722.34
621.78	1714.15
621.97	1755.11
622.16	1742.82
622.35	1738.73
622.54	1810.40
622.73	1777.64
622.92	1691.62
623.11	1753.06
623.30	1705.96
623.49	1783.78
623.68	1665.00
623.88	1787.88
624.07	1691.62
624.26	1693.67
624.45	1716.20
624.64	1665.00
624.83	1697.77
625.02	1685.48
625.21	1685.48
625.40	1837.03
625.59	1746.92
625.78	1671.14
625.97	1755.11
626.16	1796.07
626.35	1724.39
626.54	1685.48
626.74	1787.88
626.93	1677.29
627.12	1673.19
627.31	1761.25
627.50	1781.73
627.69	1748.97
627.88	1748.97
628.07	1660.90
628.26	1665.00
628.45	1675.24
628.64	1673.19
628.83	1746.92
629.02	1691.62
629.21	1806.31
629.40	1703.91
629.59	1574.89
629.78	1658.85
629.97	1755.11
630.16	1736.68
630.35	1714.15
630.54	1738.73
630.73	1681.38
630.92	1781.73
631.11	1646.57
631.30	1650.66
631.49	1746.92
631.68	1708.01
631.87	1748.97
632.06	1693.67
632.25	1769.44
632.44	1716.20
632.63	1718.25
632.82	1624.04
633.01	1626.09
633.20	1701.86
633.39	1603.56
633.58	1642.47
633.77	1689.57
633.96	1724.39
634.15	1845.22
634.34	1746.92
634.53	1732.58
634.72	1677.29
634.91	1591.27
635.10	1718.25
635.29	1722.34
635.48	1759.21
635.67	1642.47
635.86	1605.61
636.05	1787.88
636.24	1755.11
636.43	1714.15
636.62	1789.92
636.81	1607.66
637.00	1751.01
637.19	1667.05
637.38	1742.82
637.57	1740.77
637.76	1724.39
637.95	1681.38
638.14	1712.10
638.33	1656.81
638.52	1712.10
638.71	1683.43
638.89	1673.19
639.08	1923.04
639.27	1751.01
639.46	1695.72
639.65	1822.69
639.84	1757.16
640.03	1751.01
640.22	1673.19
640.41	1812.45
640.60	1681.38
640.79	1677.29
640.98	1722.34
641.17	1685.48
641.36	1761.25
641.55	1794.02
641.74	1722.34
641.92	1716.20
642.11	1652.71
642.30	1685.48
642.49	1632.23
642.68	1722.34
642.87	1800.16
643.06	1687.53
643.25	1744.87
643.44	1689.57
643.63	1685.48
643.82	1810.40
644.00	1585.13
644.19	1697.77
644.38	1619.94
644.57	1718.25
644.76	1732.58
644.95	1673.19
645.14	1673.19
645.33	1695.72
645.52	1687.53
645.71	1626.09
645.89	1615.85
646.08	1638.38
646.27	1724.39
646.46	1783.78
646.65	1701.86
646.84	1650.66
647.03	1652.71
647.22	1851.36
647.40	1728.49
647.59	1751.01
647.78	1665.00
647.97	1710.05
648.16	1671.14
648.35	1828.84
648.54	1722.34
648.73	1712.10
648.91	1759.21
649.10	1699.81
649.29	1705.96
649.48	1658.85
649.67	1650.66
649.86	1667.05
650.05	1593.32
650.23	1767.40
650.42	1662.95
650.61	1693.67
650.80	1728.49
650.99	1810.40
651.18	1736.68
651.36	1804.26
651.55	1681.38
651.74	1755.11
651.93	1697.77
652.12	1705.96
652.31	1677.29
652.49	1781.73
652.68	1697.77
652.87	1744.87
653.06	1679.33
653.25	1738.73
653.44	1621.99
653.62	1703.91
653.81	1665.00
654.00	1675.24
654.19	1728.49
654.38	1896.42
654.56	1757.16
654.75	1769.44
654.94	1841.12
655.13	1718.25
655.32	1738.73
655.51	1789.92
655.69	1683.43
655.88	1755.11
656.07	1581.03
656.26	1771.49
656.45	1652.71
656.63	1738.73
656.82	1755.11
657.01	1783.78
657.20	1755.11
657.38	1757.16
657.57	1703.91
657.76	1685.48
657.95	1740.77
658.14	1673.19
658.32	1708.01
658.51	1599.46
658.70	1748.97
658.89	1716.20
659.08	1673.19
659.26	1812.45
659.45	1646.57
659.64	1720.29
659.83	1660.90
660.01	1906.66
660.20	1787.88
660.39	1802.21
660.58	1644.52
660.76	1824.74
660.95	1630.18
661.14	1751.01
661.33	1638.38
661.51	1669.09
661.70	1689.57
661.89	1730.53
662.08	1751.01
662.26	1673.19
662.45	1654.76
662.64	1812.45
662.83	1730.53
663.01	1611.75
663.20	1712.10
663.39	1746.92
663.58	1597.42
663.76	1675.24
663.95	1691.62
664.14	1798.12
664.32	1681.38
664.51	1689.57
664.70	1652.71
664.89	1722.34
665.07	1695.72
665.26	1830.88
665.45	1685.48
665.64	1759.21
665.82	1683.43
666.01	1751.01
666.20	1689.57
666.38	1814.50
666.57	1781.73
666.76	2164.70
666.95	4425.66
667.13	10332.00
667.32	15226.65
667.51	17977.07
667.69	18755.30
667.88	17633.01
668.07	12588.86
668.25	9553.77
668.44	8224.64
668.63	7384.98
668.81	6862.74
669.00	6260.64
669.19	5703.59
669.38	5087.15
669.56	4628.41
669.75	4114.37
669.94	3420.11
670.12	2987.99
670.31	2492.38
670.50	2263.01
670.68	2054.11
670.87	2000.87
671.06	1824.74
671.24	1777.64
671.43	1808.36
671.62	1722.34
671.80	1720.29
671.99	1777.64
672.18	1732.58
672.36	1705.96
672.55	1791.97
672.74	1681.38
672.92	1699.81
673.11	1705.96
673.29	1679.33
673.48	1759.21
673.67	1658.85
673.85	1806.31
674.04	1740.77
674.23	1761.25
674.41	1785.83
674.60	1679.33
674.79	1587.18
674.97	1644.52
675.16	1763.30
675.34	1730.53
675.53	1714.15
675.72	1808.36
675.90	1738.73
676.09	1703.91
676.28	1665.00
676.46	1607.66
676.65	1730.53
676.83	1636.33
677.02	1724.39
677.21	1722.34
677.39	1691.62
677.58	1640.42
677.77	1716.20
677.95	1624.04
678.14	1638.38
678.32	1685.48
678.51	1693.67
678.70	1808.36
678.88	1722.34
679.07	1736.68
679.25	1779.68
679.44	1679.33
679.63	1693.67
679.81	1695.72
680.00	1824.74
680.18	1722.34
680.37	1853.41
680.55	1677.29
680.74	1669.09
680.93	1595.37
681.11	1714.15
681.30	1609.70
681.48	1746.92
681.67	1677.29
681.85	1650.66
682.04	1675.24
682.23	1757.16
682.41	1751.01
682.60	1699.81
682.78	1732.58
682.97	1744.87
683.15	1697.77
683.34	1783.78
683.53	1767.40
683.71	1636.33
683.90	1826.79
684.08	1834.98
684.27	1683.43
684.45	1777.64
684.64	1822.69
684.82	1718.25
685.01	1712.10
685.19	1650.66
685.38	1748.97
685.57	1777.64
685.75	1640.42
685.94	1734.63
686.12	1675.24
686.31	1677.29
686.49	1761.25
686.68	1648.61
686.86	1751.01
687.05	1716.20
687.23	1769.44
687.42	1681.38
687.60	1644.52
687.79	1841.12
687.97	1712.10
688.16	1804.26
688.34	1742.82
688.53	1667.05
688.71	1771.49
688.90	1703.91
689.08	1683.43
689.27	1697.77
689.45	1748.97
689.64	1804.26
689.82	1744.87
690.01	1710.05
690.19	1675.24
690.38	1660.90
690.56	1832.93
690.75	1710.05
690.93	1605.61
691.12	1699.81
691.30	1714.15
691.49	1705.96
691.67	1648.61
691.86	1703.91
692.04	1677.29
692.23	1619.94
692.41	1787.88
692.60	1783.78
692.78	1769.44
692.97	1687.53
693.15	1673.19
693.34	1791.97
693.52	1755.11
693.71	1652.71
693.89	1689.57
694.08	1613.80
694.26	1759.21
694.44	1716.20
694.63	1724.39
694.81	1642.47
695.00	1720.29
695.18	1730.53
695.37	1791.97
695.55	1673.19
695.74	1677.29
695.92	1683.43
696.10	1726.44
696.29	1634.28
696.47	1648.61
696.66	1581.03
696.84	1626.09
697.03	1736.68
697.21	1789.92
697.40	2408.41
697.58	1753.06
697.76	1638.38
697.95	1763.30
698.13	1718.25
698.32	1603.56
698.50	1730.53
698.68	1744.87
698.87	1746.92
699.05	1779.68
699.24	1703.91
699.42	1574.89
699.61	1677.29
699.79	1740.77
699.97	1716.20
700.16	1628.14
700.34	1626.09
700.53	1708.01
700.71	1818.60
700.89	1738.73
701.08	1691.62
701.26	1812.45
701.45	2168.80
701.63	1722.34
701.81	1740.77
702.00	1722.34
702.18	1722.34
702.37	1665.00
702.55	1763.30
702.73	1722.34
702.92	1640.42
703.10	1787.88
703.28	1761.25
703.47	1679.33
703.65	1710.05
703.84	1695.72
704.02	1767.40
704.20	1837.03
704.39	1699.81
704.57	1687.53
704.75	1779.68
704.94	1818.60
705.12	1691.62
705.30	1751.01
705.49	2220.00
705.67	4378.56
705.86	9564.01
706.04	12611.39
706.22	14534.43
706.41	15628.05
706.59	13823.79
706.77	9629.55
706.96	7374.74
707.14	6780.82
707.32	6053.80
707.51	5728.17
707.69	4931.51
707.87	4116.42
708.06	3622.86
708.24	2934.74
708.42	2469.85
708.61	2295.77
708.79	1951.71
708.97	1853.41
709.16	1802.21
709.34	1771.49
709.52	1654.76
709.71	1669.09
709.89	1728.49
710.07	1652.71
710.26	1718.25
710.44	1771.49
710.62	1763.30
710.80	1710.05
710.99	1769.44
711.17	1787.88
711.35	1640.42
711.54	1703.91
711.72	1841.12
711.90	1693.67
712.09	1802.21
712.27	1728.49
712.45	1716.20
712.63	1685.48
712.82	1775.59
713.00	1679.33
713.18	1767.40
713.37	1718.25
713.55	1753.06
713.73	1740.77
713.91	1791.97
714.10	1685.48
714.28	1697.77
714.46	1714.15
714.65	1699.81
714.83	1779.68
715.01	1648.61
715.19	1658.85
715.38	1677.29
715.56	1714.15
715.74	1638.38
715.92	1667.05
716.11	1863.65
716.29	1587.18
716.47	1728.49
716.65	1650.66
716.84	1667.05
717.02	1757.16
717.20	1603.56
717.38	1597.42
717.57	1787.88
717.75	1669.09
717.93	1662.95
718.11	1695.72
718.30	1636.33
718.48	1687.53
718.66	1726.44
718.84	1732.58
719.03	1708.01
719.21	1675.24
719.39	1787.88
719.57	1759.21
719.75	1705.96
719.94	1572.84
720.12	1748.97
720.30	1675.24
720.48	1759.21
720.67	1681.38
720.85	1593.32
721.03	1640.42
721.21	1617.90
721.39	1695.72
721.58	1744.87
721.76	1695.72
721.94	1724.39
722.12	1746.92
722.30	1802.21
722.49	1624.04
722.67	1685.48
722.85	1738.73
723.03	1705.96
723.21	1693.67
723.40	1662.95
723.58	1697.77
723.76	1734.63
723.94	1810.40
724.12	1730.53
724.30	1779.68
724.49	1734.63
724.67	1578.98
724.85	1845.22
725.03	1691.62
725.21	1767.40
725.40	1757.16
725.58	1673.19
725.76	1710.05
725.94	1761.25
726.12	1652.71
726.30	1703.91
726.49	1699.81
726.67	1685.48
726.85	1791.97
727.03	1720.29
727.21	2125.79
727.39	2895.83
727.57	3688.39
727.76	4186.05
727.94	4501.44
728.12	4536.25
728.30	3743.69
728.48	2990.03
728.66	2805.72
728.84	2553.82
729.03	2289.63
729.21	2189.28
729.39	1986.53
729.57	1945.57
729.75	1726.44
729.93	1828.84
730.11	1714.15
730.30	1605.61
730.48	1685.48
730.66	1804.26
730.84	1705.96
731.02	1755.11
731.20	1746.92
731.38	1791.97
731.56	1607.66
731.74	1642.47
731.93	1736.68
732.11	1697.77
732.29	1681.38
732.47	1701.86
732.65	1744.87
732.83	1759.21
733.01	1734.63
733.19	1619.94
733.37	1775.59
733.56	1777.64
733.74	1675.24
733.92	1759.21
734.10	1708.01
734.28	1697.77
734.46	1628.14
734.64	1673.19
734.82	1683.43
735.00	1640.42
735.18	1675.24
735.36	1658.85
735.54	1697.77
735.73	1699.81
735.91	1734.63
736.09	1732.58
736.27	1671.14
736.45	1728.49
736.63	1607.66
736.81	1593.32
736.99	1671.14
737.17	1771.49
737.35	1755.11
737.53	1714.15
737.71	1732.58
737.89	1740.77
738.07	1691.62
738.25	1675.24
738.43	1665.00
738.61	1722.34
738.80	1601.51
738.98	1611.75
739.16	1691.62
739.34	1644.52
739.52	1804.26
739.70	1714.15
739.88	1728.49
740.06	1732.58
740.24	1574.89
740.42	1724.39
740.60	1644.52
740.78	1687.53
740.96	1603.56
741.14	1673.19
741.32	1669.09
741.50	1630.18
741.68	1888.23
741.86	1769.44
742.04	1595.37
742.22	1693.67
742.40	1714.15
742.58	1691.62
742.76	1611.75
742.94	1728.49
743.12	1693.67
743.30	1703.91
743.48	1771.49
743.66	1650.66
743.84	1693.67
744.02	1699.81
744.20	1601.51
744.38	1660.90
744.56	1642.47
744.74	1787.88
744.92	1765.35
745.10	1779.68
745.28	1806.31
745.46	1843.17
745.64	1701.86
745.82	1693.67
746.00	1652.71
746.18	1708.01
746.36	1669.09
746.54	1720.29
746.72	1652.71
746.90	1583.08
747.08	1714.15
747.26	1763.30
747.44	1740.77
747.62	1771.49
747.80	1642.47
747.98	1746.92
748.15	1656.81
748.33	1791.97
748.51	1726.44
748.69	1732.58
748.87	1640.42
749.05	1671.14
749.23	1675.24
749.41	1722.34
749.59	1716.20
749.77	1740.77
749.95	1689.57
750.13	1685.48
750.31	1783.78
750.49	1720.29
750.67	1718.25
750.85	1734.63
751.03	1705.96
751.20	1763.30
751.38	1748.97
751.56	1689.57
751.74	1642.47
751.92	1703.91
752.10	1611.75
752.28	1740.77
752.46	1681.38
752.64	1660.90
752.82	1638.38
753.00	1738.73
753.18	1689.57
753.35	1658.85
753.53	1730.53
753.71	1636.33
753.89	1697.77
754.07	1761.25
754.25	1740.77
754.43	1693.67
754.61	1753.06
754.79	1755.11
754.97	1751.01
755.14	1804.26
755.32	1640.42
755.50	1722.34
755.68	1712.10
755.86	1712.10
756.04	1611.75
756.22	1611.75
756.40	1685.48
756.57	1800.16
756.75	1677.29
756.93	1703.91
757.11	1748.97
757.29	1621.99
757.47	1716.20
757.65	1613.80
757.82	1605.61
758.00	1613.80
758.18	1656.81
758.36	1671.14
758.54	1769.44
758.72	1714.15
758.90	1794.02
759.07	1748.97
759.25	1691.62
759.43	1708.01
759.61	1630.18
759.79	2121.70
759.97	1746.92
760.15	1667.05
760.32	1632.23
760.50	1773.54
760.68	1744.87
760.86	1609.70
761.04	1791.97
761.22	1718.25
761.39	1789.92
761.57	1742.82
761.75	1734.63
761.93	1724.39
762.11	1617.90
762.28	1716.20
762.46	1632.23
762.64	1693.67
762.82	1578.98
763.00	1671.14
763.18	1685.48
763.35	1642.47
763.53	1781.73
763.71	1740.77
763.89	1697.77
764.07	1679.33
764.24	1697.77
764.42	1683.43
764.60	1628.14
764.78	1742.82
764.96	1730.53
765.13	1796.07
765.31	1697.77
765.49	1734.63
765.67	1748.97
765.84	1677.29
766.02	1689.57
766.20	1634.28
766.38	1640.42
766.56	1738.73
766.73	1693.67
766.91	1644.52
767.09	1699.81
767.27	1746.92
767.44	1681.38
767.62	1769.44
767.80	1697.77
767.98	1658.85
768.15	1656.81
768.33	1826.79
768.51	1671.14
768.69	1744.87
768.87	1697.77
769.04	1626.09
769.22	1818.60
769.40	1767.40
769.58	1861.60
769.75	1785.83
769.93	1642.47
770.11	1648.61
770.28	1730.53
770.46	1697.77
770.64	1699.81
770.82	1699.81
770.99	1679.33
771.17	1656.81
771.35	1681.38
771.53	1660.90
771.70	1642.47
771.88	1671.14
772.06	1652.71
772.23	1634.28
772.41	1675.24
772.59	1785.83
772.77	1634.28
772.94	1667.05
773.12	1679.33
773.30	1654.76
773.47	1720.29
773.65	1628.14
773.83	1810.40
774.01	1644.52
774.18	1669.09
774.36	1724.39
774.54	1552.36
774.71	1665.00
774.89	1611.75
775.07	1734.63
775.24	1650.66
775.42	1621.99
775.60	1763.30
775.78	1753.06
775.95	1619.94
776.13	1599.46
776.31	1630.18
776.48	1765.35
776.66	1794.02
776.84	1691.62
777.01	1617.90
777.19	1673.19
777.37	1636.33
777.54	1724.39
777.72	1816.55
777.90	1691.62
778.07	1677.29
778.25	1847.27
778.43	1650.66
778.60	1570.79
778.78	1757.16
778.96	1783.78
779.13	1601.51
779.31	1746.92
779.49	1617.90
779.66	1611.75
779.84	1652.71
780.01	1703.91
780.19	1656.81
780.37	1701.86
780.54	1779.68
780.72	1679.33
780.90	1732.58
781.07	1681.38
781.25	1636.33
781.43	1798.12
781.60	1763.30
781.78	1697.77
781.95	1685.48
782.13	1669.09
782.31	1771.49
782.48	1538.02
782.66	1677.29
782.83	1834.98
783.01	1660.90
783.19	1763.30
783.36	1640.42
783.54	1605.61
783.72	1718.25
783.89	1634.28
784.07	1677.29
784.24	1726.44
784.42	1798.12
784.60	1718.25
784.77	1761.25
784.95	1556.46
785.12	1699.81
785.30	1740.77
785.47	1640.42
785.65	1626.09
785.83	1771.49
786.00	1693.67
786.18	1742.82
786.35	1564.65
786.53	1617.90
786.71	1771.49
786.88	1800.16
787.06	1671.14
787.23	1656.81
787.41	1626.09
787.58	1689.57
787.76	1648.61
787.94	1724.39
788.11	1691.62
788.29	1740.77
788.46	1703.91
788.64	1572.84
788.81	1683.43
788.99	1630.18
789.16	1615.85
789.34	1761.25
789.52	1601.51
789.69	1597.42
789.87	1591.27
790.04	1720.29
790.22	1748.97
790.39	1802.21
790.57	1544.17
790.74	1652.71
790.92	1757.16
791.09	1589.22
791.27	1720.29
791.44	1828.84
791.62	1673.19
791.79	1757.16
791.97	1746.92
792.15	1906.66
792.32	1748.97
792.50	1720.29
792.67	1802.21
792.85	1789.92
793.02	1673.19
793.20	1660.90
793.37	1576.94
793.55	1681.38
793.72	1644.52
793.90	1685.48
794.07	1722.34
794.25	1624.04
794.42	1646.57
794.60	1669.09
794.77	1720.29
794.95	1746.92
795.12	1775.59
795.30	1673.19
795.47	1593.32
795.65	1869.80
795.82	1691.62
796.00	1701.86
796.17	1708.01
796.34	1665.00
796.52	1689.57
796.69	1744.87
796.87	1697.77
797.04	1732.58
797.22	1785.83
797.39	1697.77
797.57	1738.73
797.74	1720.29
797.92	1785.83
798.09	1640.42
798.27	1703.91
798.44	1718.25
798.62	1640.42
798.79	1734.63
798.96	1798.12
799.14	1755.11
799.31	1849.32
799.49	1615.85
799.66	1628.14
799.84	1699.81
800.01	1619.94
800.19	1669.09
800.36	1619.94
800.53	1724.39
800.71	1746.92
800.88	1783.78
801.06	1656.81
801.23	1675.24
801.41	1654.76
801.58	1687.53
801.75	1638.38
801.93	1691.62
802.10	1763.30
802.28	1652.71
802.45	1619.94
802.63	1714.15
802.80	1859.56
802.97	1734.63
803.15	1705.96
803.32	1609.70
803.50	1576.94
803.67	1691.62
803.84	1585.13
804.02	1677.29
804.19	1716.20
804.37	1640.42
804.54	1681.38
804.71	1779.68
804.89	1732.58
805.06	1632.23
805.24	1630.18
805.41	1660.90
805.58	1585.13
805.76	1861.60
805.93	1730.53
806.10	1853.41
806.28	1724.39
806.45	1675.24
806.63	1697.77
806.80	1751.01
806.97	1740.77
807.15	1703.91
807.32	1689.57
807.49	1699.81
807.67	1673.19
807.84	1734.63
808.01	1570.79
808.19	1865.70
808.36	1845.22
808.54	1624.04
808.71	1640.42
808.88	1681.38
809.06	1673.19
809.23	1806.31
809.40	1665.00
809.58	1714.15
809.75	1712.10
809.92	1654.76
810.10	1775.59
810.27	1734.63
810.44	1675.24
810.62	1677.29
810.79	1693.67
810.96	1642.47
811.14	1652.71
811.31	1761.25
811.48	1775.59
811.66	1714.15
811.83	1757.16
812.00	1730.53
812.18	1726.44
812.35	1816.55
812.52	1578.98
812.69	1736.68
812.87	1718.25
813.04	1603.56
813.21	1730.53
813.39	1646.57
813.56	1638.38
813.73	1755.11
813.91	1636.33
814.08	1679.33
814.25	1716.20
814.42	1609.70
814.60	1648.61
814.77	1677.29
814.94	1789.92
815.12	1787.88
815.29	1796.07
815.46	1636.33
815.63	1724.39
815.81	1685.48
815.98	1687.53
816.15	1650.66
816.33	1624.04
816.50	1634.28
816.67	1681.38
816.84	1648.61
817.02	1646.57
817.19	1671.14
817.36	1775.59
817.53	1693.67
817.71	1697.77
817.88	1742.82
818.05	1705.96
818.22	1716.20
818.40	1804.26
818.57	1689.57
818.74	1652.71
818.91	1636.33
819.09	1728.49
819.26	1738.73
819.43	1669.09
819.60	1634.28
819.78	1769.44
819.95	1798.12
820.12	1626.09
820.29	1755.11
820.47	1720.29
820.64	1677.29
820.81	1652.71
820.98	1650.66
821.15	1689.57
821.33	1787.88
821.50	1613.80
821.67	1634.28
821.84	1656.81
822.02	1765.35
822.19	1757.16
822.36	1648.61
822.53	1693.67
822.70	1576.94
822.88	1646.57
823.05	1800.16
823.22	1753.06
823.39	1730.53
823.56	1724.39
823.74	1802.21
823.91	1640.42
824.08	1595.37
824.25	1673.19
824.42	1767.40
824.60	1566.70
824.77	1705.96
824.94	1705.96
825.11	1755.11
825.28	1642.47
825.45	1730.53
825.63	1738.73
825.80	1574.89
825.97	1710.05
826.14	1652.71
826.31	1632.23
826.48	1708.01
826.66	1548.26
826.83	1662.95
827.00	1703.91
827.17	1773.54
827.34	1691.62
827.51	1718.25
827.69	1689.57
827.86	1583.08
828.03	1705.96
828.20	1716.20
828.37	1652.71
828.54	1683.43
828.71	1644.52
828.89	1683.43
829.06	1689.57
829.23	1771.49
829.40	1628.14
829.57	1656.81
829.74	1736.68
829.91	1634.28
830.09	1734.63
830.26	1744.87
830.43	1767.40
830.60	1738.73
830.77	1740.77
830.94	1740.77
831.11	1742.82
831.28	1705.96
831.46	1695.72
831.63	1634.28
831.80	1703.91
831.97	1662.95
832.14	1740.77
832.31	1689.57
832.48	1726.44
832.65	1834.98
832.82	1781.73
832.99	1771.49
833.17	1621.99
833.34	1746.92
833.51	1744.87
833.68	1607.66
833.85	1726.44
834.02	1619.94
834.19	1691.62
834.36	1636.33
834.53	1746.92
834.70	1730.53
834.87	1691.62
835.04	1675.24
835.22	1648.61
835.39	1734.63
835.56	1683.43
835.73	1701.86
835.90	1705.96
836.07	1613.80
836.24	1769.44
836.41	1697.77
836.58	1644.52
836.75	1701.86
836.92	1718.25
837.09	1724.39
837.26	1697.77
837.43	1730.53
837.60	1800.16
837.77	1691.62
837.94	1710.05
838.12	1759.21
838.29	1695.72
838.46	1624.04
838.63	1636.33
838.80	1736.68
838.97	1791.97
839.14	1755.11
839.31	1679.33
839.48	1695.72
839.65	1660.90
839.82	1699.81
839.99	1710.05
840.16	1716.20
840.33	1578.98
840.50	1724.39
840.67	1611.75
840.84	1599.46
841.01	1665.00
841.18	1720.29
841.35	1662.95
841.52	1720.29
841.69	1701.86
841.86	1685.48
842.03	1662.95
842.20	1753.06
842.37	1708.01
842.54	1671.14
842.71	1796.07
842.88	1656.81
843.05	1720.29
843.22	1665.00
843.39	1693.67
843.56	1642.47
843.73	1742.82
843.90	1746.92
844.07	1654.76
844.24	1705.96
844.41	1783.78
844.58	1689.57
844.75	1626.09
844.92	1681.38
845.09	1671.14
845.26	1636.33
845.43	1714.15
845.60	1697.77
845.77	1742.82
845.94	1662.95
846.10	1683.43
846.27	1621.99
846.44	1617.90
846.61	1640.42
846.78	1710.05
846.95	1693.67
847.12	1683.43
847.29	1714.15
847.46	1712.10
847.63	1730.53
847.80	1681.38
847.97	1695.72
848.14	1869.80
848.31	1728.49
848.48	1603.56
848.65	1718.25
848.82	1632.23
848.98	1812.45
849.15	1705.96
849.32	1689.57
849.49	1724.39
849.66	1679.33
849.83	1636.33
850.00	1533.93
850.17	1744.87
850.34	1665.00
850.51	1626.09
850.68	1687.53
850.85	1857.51
851.01	1724.39
851.18	1716.20
851.35	1677.29
851.52	1746.92
851.69	1748.97
851.86	1595.37
852.03	1703.91
852.20	1738.73
852.37	1746.92
852.53	1609.70
852.70	1728.49
852.87	1665.00
853.04	1730.53
853.21	1695.72
853.38	1693.67
853.55	1785.83
853.72	1773.54
853.89	1673.19
854.05	1626.09
854.22	1703.91
854.39	1648.61
854.56	1759.21
854.73	1726.44
854.90	1638.38
855.07	1660.90
855.23	1683.43
855.40	1624.04
855.57	1705.96
855.74	1595.37
855.91	1890.28
856.08	1593.32
856.25	1658.85
856.41	1714.15
856.58	1687.53
856.75	1710.05
856.92	1665.00
857.09	1718.25
857.26	1601.51
857.42	1654.76
857.59	1685.48
857.76	1648.61
857.93	1662.95
858.10	1683.43
858.27	1587.18
858.43	1720.29
858.60	1656.81
858.77	1609.70
858.94	1640.42
859.11	1730.53
859.27	1691.62
859.44	1769.44
859.61	1834.98
859.78	1724.39
859.95	1677.29
860.12	1648.61
860.28	1834.98
860.45	1773.54
860.62	1671.14
860.79	1675.24
860.95	1708.01
861.12	1634.28
861.29	1658.85
861.46	1599.46
861.63	1705.96
861.79	1703.91
861.96	1675.24
862.13	1705.96
862.30	1769.44
862.47	1705.96
862.63	1638.38
862.80	1812.45
862.97	1816.55
863.14	1763.30
863.30	1722.34
863.47	1626.09
863.64	1755.11
863.81	1681.38
863.97	1710.05
864.14	1708.01
864.31	1701.86
864.48	1699.81
864.65	1695.72
864.81	1755.11
864.98	1722.34
865.15	1787.88
865.32	1732.58
865.48	1734.63
865.65	1763.30
865.82	1652.71
865.98	1660.90
866.15	1804.26
866.32	1665.00
866.49	1689.57
866.65	1767.40
866.82	1648.61
866.99	1710.05
867.16	1705.96
867.32	1654.76
867.49	1624.04
867.66	1697.77
867.83	1693.67
867.99	1628.14
868.16	1681.38
868.33	1599.46
868.49	1718.25
868.66	1660.90
868.83	1753.06
868.99	1705.96
869.16	1703.91
869.33	1791.97
869.50	1714.15
869.66	1728.49
869.83	1767.40
870.00	1636.33
870.16	1746.92
870.33	1634.28
870.50	1773.54
870.66	1703.91
870.83	1802.21
871.00	1581.03
871.17	1732.58
871.33	1767.40
871.50	1658.85
871.67	1640.42
871.83	1568.74
872.00	1785.83
872.17	1630.18
872.33	1798.12
872.50	1777.64
872.67	1675.24
872.83	1675.24
873.00	1775.59
873.17	1656.81
873.33	1783.78
873.50	1779.68
873.67	1658.85
873.83	1640.42
874.00	1714.15
874.16	1699.81
874.33	1646.57
874.50	1607.66
874.66	1738.73
874.83	1650.66
875.00	1720.29
875.16	1761.25
875.33	1826.79
875.50	1554.41
875.66	1691.62
875.83	1734.63
875.99	1781.73
876.16	1691.62
876.33	1572.84
876.49	1705.96
876.66	1761.25
876.83	1691.62
876.99	1654.76
877.16	1693.67
877.32	1687.53
877.49	1632.23
877.66	1669.09
877.82	1673.19
877.99	1785.83
878.15	1730.53
878.32	1673.19
878.49	1697.77
878.65	1675.24
878.82	1806.31
878.98	1669.09
879.15	1789.92
879.32	1699.81
879.48	1673.19
879.65	1640.42
879.81	1734.63
879.98	1712.10
880.15	1697.77
880.31	1703.91
880.48	1726.44
880.64	1740.77
880.81	1722.34
880.97	1746.92
881.14	1779.68
881.31	1681.38
881.47	1769.44
881.64	1681.38
881.80	1615.85
881.97	1734.63
882.13	1771.49
882.30	1662.95
882.47	1603.56
882.63	1677.29
882.80	1681.38
882.96	1673.19
883.13	1798.12
883.29	1652.71
883.46	1808.36
883.62	1804.26
883.79	1669.09
883.95	1726.44
884.12	1730.53
884.29	1726.44
884.45	1642.47
884.62	1724.39
884.78	1613.80
884.95	1800.16
885.11	1638.38
885.28	1681.38
885.44	1615.85
885.61	1781.73
885.77	1746.92
885.94	1779.68
886.10	1677.29
886.27	1675.24
886.43	1767.40
886.60	1765.35
886.76	1675.24
886.93	1599.46
887.09	1755.11
887.26	1667.05
887.42	1705.96
887.59	1722.34
887.75	1777.64
887.92	1789.92
888.08	1738.73
888.25	1806.31
888.41	1798.12
888.58	1761.25
888.74	1636.33
888.91	1638.38
>>>>>End Processed Spectral Data<<<<<
