SpectraSuite Data File
++++++++++++++++++++++++++++++++++++
Date: Mon Jun 06 16:47:37 CEST 2016
User: root
Dark Spectrum Present: No
Reference Spectrum Present: No
Number of Sampled Component Spectra: 1
Spectrometers: USB4C02835
Integration Time (usec): 100000 (USB4C02835)
Spectra Averaged: 1 (USB4C02835)
Boxcar Smoothing: 0 (USB4C02835)
Correct for Electrical Dark: No (USB4C02835)
Strobe/Lamp Enabled: No (USB4C02835)
Correct for Detector Non-linearity: No (USB4C02835)
Correct for Stray Light: No (USB4C02835)
Number of Pixels in Processed Spectrum: 3648
>>>>>Begin Processed Spectral Data<<<<<
177.47	1472.49
177.69	1472.49
177.91	1472.49
178.13	1468.39
178.36	1492.97
178.58	1634.28
178.80	1783.78
179.02	1550.31
179.24	1636.33
179.46	1689.57
179.68	1755.11
179.90	1662.95
180.13	1746.92
180.35	1714.15
180.57	1746.92
180.79	1763.30
181.01	1687.53
181.23	1740.77
181.45	1794.02
181.67	1691.62
181.90	1757.16
182.12	1675.24
182.34	1581.03
182.56	1769.44
182.78	1740.77
183.00	1777.64
183.22	1708.01
183.44	1611.75
183.66	1808.36
183.89	1859.56
184.11	1646.57
184.33	1724.39
184.55	1724.39
184.77	1703.91
184.99	1794.02
185.21	1646.57
185.43	1796.07
185.65	1751.01
185.87	1644.52
186.10	1834.98
186.32	1902.56
186.54	1724.39
186.76	1718.25
186.98	1740.77
187.20	1761.25
187.42	1644.52
187.64	1724.39
187.86	1798.12
188.08	1722.34
188.30	1683.43
188.52	1714.15
188.75	1732.58
188.97	1751.01
189.19	1675.24
189.41	1740.77
189.63	1722.34
189.85	1699.81
190.07	1658.85
190.29	1615.85
190.51	1751.01
190.73	1646.57
190.95	1738.73
191.17	1732.58
191.39	1613.80
191.61	1669.09
191.84	1712.10
192.06	1777.64
192.28	1652.71
192.50	1902.56
192.72	1679.33
192.94	1652.71
193.16	1751.01
193.38	1734.63
193.60	1591.27
193.82	1644.52
194.04	1789.92
194.26	1775.59
194.48	1777.64
194.70	1677.29
194.92	1642.47
195.14	1787.88
195.36	1693.67
195.58	1753.06
195.80	1693.67
196.02	1683.43
196.24	1736.68
196.46	1693.67
196.69	1691.62
196.91	1871.84
197.13	1677.29
197.35	1710.05
197.57	1824.74
197.79	1667.05
198.01	1757.16
198.23	1742.82
198.45	1656.81
198.67	1644.52
198.89	1689.57
199.11	1689.57
199.33	1710.05
199.55	1595.37
199.77	1722.34
199.99	1763.30
200.21	1724.39
200.43	1736.68
200.65	1642.47
200.87	1605.61
201.09	1687.53
201.31	1718.25
201.53	1755.11
201.75	1708.01
201.97	1738.73
202.19	1689.57
202.41	1787.88
202.63	1781.73
202.85	1726.44
203.07	1742.82
203.29	1746.92
203.51	1705.96
203.73	1626.09
203.95	1828.84
204.17	1693.67
204.39	1730.53
204.61	1648.61
204.83	1656.81
205.05	1773.54
205.27	1722.34
205.49	1814.50
205.71	1695.72
205.93	1638.38
206.15	1648.61
206.37	1769.44
206.59	1730.53
206.81	1701.86
207.03	1572.84
207.25	1611.75
207.47	1810.40
207.69	1703.91
207.91	1798.12
208.13	1837.03
208.34	1660.90
208.56	1751.01
208.78	1742.82
209.00	1607.66
209.22	1687.53
209.44	1681.38
209.66	1650.66
209.88	1806.31
210.10	1640.42
210.32	1710.05
210.54	1787.88
210.76	1732.58
210.98	1748.97
211.20	1628.14
211.42	1667.05
211.64	1818.60
211.86	1732.58
212.08	1695.72
212.30	1662.95
212.52	1710.05
212.74	1683.43
212.96	1720.29
213.17	1769.44
213.39	1816.55
213.61	1849.32
213.83	1683.43
214.05	1679.33
214.27	1820.64
214.49	1665.00
214.71	1636.33
214.93	1781.73
215.15	1667.05
215.37	1759.21
215.59	1650.66
215.81	1724.39
216.03	1761.25
216.24	1650.66
216.46	1662.95
216.68	1751.01
216.90	1751.01
217.12	1738.73
217.34	1716.20
217.56	1742.82
217.78	1794.02
218.00	1730.53
218.22	1683.43
218.44	1701.86
218.66	1746.92
218.87	1798.12
219.09	1736.68
219.31	1794.02
219.53	1839.08
219.75	1599.46
219.97	1677.29
220.19	1734.63
220.41	1665.00
220.63	1802.21
220.85	1679.33
221.06	1691.62
221.28	1716.20
221.50	1738.73
221.72	1679.33
221.94	1746.92
222.16	1673.19
222.38	1759.21
222.60	1748.97
222.82	1708.01
223.03	1783.78
223.25	1685.48
223.47	1724.39
223.69	1798.12
223.91	1753.06
224.13	1609.70
224.35	1691.62
224.57	1806.31
224.78	1746.92
225.00	1656.81
225.22	1617.90
225.44	1724.39
225.66	1705.96
225.88	1646.57
226.10	1810.40
226.32	1650.66
226.53	1732.58
226.75	1681.38
226.97	1705.96
227.19	1677.29
227.41	1673.19
227.63	1597.42
227.85	1697.77
228.06	1726.44
228.28	1703.91
228.50	1695.72
228.72	1673.19
228.94	1665.00
229.16	1544.17
229.37	1615.85
229.59	1673.19
229.81	1785.83
230.03	1695.72
230.25	1673.19
230.47	1642.47
230.69	1642.47
230.90	1681.38
231.12	1675.24
231.34	1685.48
231.56	1724.39
231.78	1658.85
232.00	1669.09
232.21	1601.51
232.43	1697.77
232.65	1556.46
232.87	1703.91
233.09	1681.38
233.30	1652.71
233.52	1736.68
233.74	1677.29
233.96	1632.23
234.18	1650.66
234.40	1640.42
234.61	1830.88
234.83	1648.61
235.05	1681.38
235.27	1867.75
235.49	1761.25
235.70	1679.33
235.92	1816.55
236.14	1662.95
236.36	1859.56
236.58	1640.42
236.79	1730.53
237.01	1642.47
237.23	1675.24
237.45	1865.70
237.67	1689.57
237.88	1705.96
238.10	1812.45
238.32	1691.62
238.54	1732.58
238.76	1734.63
238.97	1662.95
239.19	1617.90
239.41	1767.40
239.63	1800.16
239.85	1656.81
240.06	1779.68
240.28	1712.10
240.50	1691.62
240.72	1716.20
240.93	1660.90
241.15	1787.88
241.37	1671.14
241.59	1816.55
241.81	1703.91
242.02	1734.63
242.24	1681.38
242.46	1761.25
242.68	1708.01
242.89	1714.15
243.11	1791.97
243.33	1726.44
243.55	1734.63
243.76	1734.63
243.98	1665.00
244.20	1726.44
244.42	1763.30
244.64	1679.33
244.85	1648.61
245.07	1705.96
245.29	1660.90
245.51	1701.86
245.72	1716.20
245.94	1716.20
246.16	1767.40
246.38	1773.54
246.59	1734.63
246.81	1687.53
247.03	1705.96
247.24	1615.85
247.46	1705.96
247.68	1763.30
247.90	1789.92
248.11	1652.71
248.33	1767.40
248.55	1732.58
248.77	1734.63
248.98	1787.88
249.20	1759.21
249.42	1675.24
249.64	1767.40
249.85	1718.25
250.07	1660.90
250.29	1708.01
250.50	1744.87
250.72	1744.87
250.94	1683.43
251.16	1808.36
251.37	1800.16
251.59	1773.54
251.81	1767.40
252.02	1818.60
252.24	1679.33
252.46	1800.16
252.68	1720.29
252.89	1689.57
253.11	1677.29
253.33	1787.88
253.54	1814.50
253.76	1572.84
253.98	1656.81
254.20	1593.32
254.41	1591.27
254.63	1642.47
254.85	1669.09
255.06	1714.15
255.28	1724.39
255.50	1636.33
255.71	1644.52
255.93	1611.75
256.15	1669.09
256.36	1826.79
256.58	1624.04
256.80	1765.35
257.02	1665.00
257.23	1753.06
257.45	1693.67
257.67	1763.30
257.88	1667.05
258.10	1693.67
258.32	1705.96
258.53	1736.68
258.75	1787.88
258.97	1624.04
259.18	1738.73
259.40	1695.72
259.62	1773.54
259.83	1771.49
260.05	1685.48
260.27	1923.04
260.48	1785.83
260.70	1628.14
260.92	1720.29
261.13	1742.82
261.35	1722.34
261.57	1718.25
261.78	1607.66
262.00	1667.05
262.22	1865.70
262.43	1691.62
262.65	1658.85
262.86	1732.58
263.08	1767.40
263.30	1722.34
263.51	1591.27
263.73	1615.85
263.95	1763.30
264.16	1687.53
264.38	1607.66
264.60	1746.92
264.81	1714.15
265.03	1755.11
265.25	1640.42
265.46	1689.57
265.68	1765.35
265.89	1798.12
266.11	1617.90
266.33	1837.03
266.54	1738.73
266.76	1746.92
266.98	1679.33
267.19	1757.16
267.41	1845.22
267.62	1665.00
267.84	1578.98
268.06	1722.34
268.27	1716.20
268.49	1763.30
268.70	1789.92
268.92	1728.49
269.14	1716.20
269.35	1624.04
269.57	1708.01
269.79	1724.39
270.00	1609.70
270.22	1783.78
270.43	1689.57
270.65	1648.61
270.87	1736.68
271.08	1720.29
271.30	1701.86
271.51	1724.39
271.73	1712.10
271.95	1751.01
272.16	1726.44
272.38	1689.57
272.59	1685.48
272.81	1779.68
273.02	1761.25
273.24	1697.77
273.46	1675.24
273.67	1646.57
273.89	1662.95
274.10	1718.25
274.32	1763.30
274.54	1744.87
274.75	1665.00
274.97	1726.44
275.18	1748.97
275.40	1734.63
275.61	1732.58
275.83	1722.34
276.05	1603.56
276.26	1779.68
276.48	1708.01
276.69	1742.82
276.91	1656.81
277.12	1726.44
277.34	1724.39
277.55	1744.87
277.77	1800.16
277.99	1705.96
278.20	1601.51
278.42	1675.24
278.63	1675.24
278.85	1560.55
279.06	1605.61
279.28	1607.66
279.49	1738.73
279.71	1736.68
279.93	1832.93
280.14	1705.96
280.36	1656.81
280.57	1814.50
280.79	1662.95
281.00	1693.67
281.22	1591.27
281.43	1779.68
281.65	1638.38
281.86	1609.70
282.08	1646.57
282.29	1863.65
282.51	1679.33
282.73	1642.47
282.94	1642.47
283.16	1714.15
283.37	1816.55
283.59	1689.57
283.80	1654.76
284.02	1685.48
284.23	1728.49
284.45	1701.86
284.66	1613.80
284.88	1699.81
285.09	1648.61
285.31	1705.96
285.52	1775.59
285.74	1544.17
285.95	1685.48
286.17	1718.25
286.38	1812.45
286.60	1673.19
286.81	1687.53
287.03	1656.81
287.24	1611.75
287.46	1681.38
287.67	1748.97
287.89	1804.26
288.10	1751.01
288.32	1722.34
288.53	1767.40
288.75	1744.87
288.96	1800.16
289.18	1652.71
289.39	1695.72
289.61	1822.69
289.82	1808.36
290.04	1808.36
290.25	1595.37
290.47	1691.62
290.68	1673.19
290.90	1791.97
291.11	1648.61
291.33	1787.88
291.54	1667.05
291.76	1652.71
291.97	1808.36
292.18	1716.20
292.40	1669.09
292.61	1673.19
292.83	1818.60
293.04	1691.62
293.26	1697.77
293.47	1687.53
293.69	1626.09
293.90	1662.95
294.12	1751.01
294.33	1714.15
294.55	1726.44
294.76	1751.01
294.97	1812.45
295.19	1853.41
295.40	1730.53
295.62	1671.14
295.83	1742.82
296.05	1603.56
296.26	1765.35
296.48	1587.18
296.69	1681.38
296.90	1644.52
297.12	1882.08
297.33	1824.74
297.55	1693.67
297.76	1734.63
297.98	1796.07
298.19	1791.97
298.41	1701.86
298.62	1632.23
298.83	1796.07
299.05	1736.68
299.26	1722.34
299.48	1675.24
299.69	1820.64
299.90	1650.66
300.12	1724.39
300.33	1722.34
300.55	1751.01
300.76	1763.30
300.98	1646.57
301.19	1691.62
301.40	1689.57
301.62	1642.47
301.83	1699.81
302.05	1644.52
302.26	1748.97
302.47	1753.06
302.69	1650.66
302.90	1714.15
303.12	1556.46
303.33	1757.16
303.54	1787.88
303.76	1667.05
303.97	1781.73
304.19	1824.74
304.40	1703.91
304.61	1736.68
304.83	1816.55
305.04	1726.44
305.26	1708.01
305.47	1667.05
305.68	1732.58
305.90	1642.47
306.11	1708.01
306.33	1710.05
306.54	1730.53
306.75	1671.14
306.97	1669.09
307.18	1646.57
307.39	1681.38
307.61	1722.34
307.82	1738.73
308.04	1794.02
308.25	1728.49
308.46	1658.85
308.68	1654.76
308.89	1730.53
309.10	1796.07
309.32	1757.16
309.53	1742.82
309.74	1644.52
309.96	1767.40
310.17	1740.77
310.39	1654.76
310.60	1738.73
310.81	1654.76
311.03	1714.15
311.24	1744.87
311.45	1705.96
311.67	1759.21
311.88	1751.01
312.09	1734.63
312.31	1703.91
312.52	1712.10
312.73	1736.68
312.95	1611.75
313.16	1716.20
313.37	1753.06
313.59	1765.35
313.80	1732.58
314.01	1808.36
314.23	1708.01
314.44	1718.25
314.65	1583.08
314.87	1648.61
315.08	1697.77
315.29	1714.15
315.51	1640.42
315.72	1566.70
315.93	1824.74
316.15	1697.77
316.36	1638.38
316.57	1734.63
316.79	1746.92
317.00	1697.77
317.21	1691.62
317.43	1673.19
317.64	1699.81
317.85	1742.82
318.07	1681.38
318.28	1716.20
318.49	1796.07
318.70	1923.04
318.92	1847.27
319.13	1814.50
319.34	1865.70
319.56	1796.07
319.77	1773.54
319.98	1779.68
320.20	1730.53
320.41	1808.36
320.62	1767.40
320.83	1740.77
321.05	1859.56
321.26	1728.49
321.47	1724.39
321.69	1779.68
321.90	1513.45
322.11	1677.29
322.32	1738.73
322.54	1796.07
322.75	1656.81
322.96	1824.74
323.18	1578.98
323.39	1570.79
323.60	1693.67
323.81	1773.54
324.03	1642.47
324.24	1722.34
324.45	1720.29
324.66	1701.86
324.88	1802.21
325.09	1814.50
325.30	1751.01
325.52	1667.05
325.73	1669.09
325.94	1628.14
326.15	1660.90
326.37	1767.40
326.58	1830.88
326.79	1767.40
327.00	1662.95
327.22	1751.01
327.43	1681.38
327.64	1619.94
327.85	1765.35
328.07	1734.63
328.28	1806.31
328.49	1630.18
328.70	1695.72
328.92	1705.96
329.13	1691.62
329.34	1746.92
329.55	1798.12
329.76	1722.34
329.98	1703.91
330.19	1765.35
330.40	1761.25
330.61	1708.01
330.83	1736.68
331.04	1636.33
331.25	1701.86
331.46	1724.39
331.68	1640.42
331.89	1785.83
332.10	1716.20
332.31	1634.28
332.52	1646.57
332.74	1699.81
332.95	1642.47
333.16	1652.71
333.37	1705.96
333.58	1705.96
333.80	1673.19
334.01	1665.00
334.22	1708.01
334.43	1628.14
334.64	1695.72
334.86	1591.27
335.07	1687.53
335.28	1746.92
335.49	1695.72
335.70	1720.29
335.92	1757.16
336.13	1871.84
336.34	1697.77
336.55	1755.11
336.76	1742.82
336.98	1542.12
337.19	1679.33
337.40	1761.25
337.61	1843.17
337.82	1736.68
338.04	1740.77
338.25	1605.61
338.46	1615.85
338.67	1751.01
338.88	1642.47
339.09	1593.32
339.31	1716.20
339.52	1599.46
339.73	1581.03
339.94	1691.62
340.15	1767.40
340.36	1763.30
340.58	1720.29
340.79	1775.59
341.00	1779.68
341.21	1687.53
341.42	1853.41
341.63	1660.90
341.85	1789.92
342.06	1773.54
342.27	1714.15
342.48	1746.92
342.69	1609.70
342.90	1818.60
343.12	1734.63
343.33	1712.10
343.54	1808.36
343.75	1822.69
343.96	1751.01
344.17	1691.62
344.38	1689.57
344.60	1613.80
344.81	1677.29
345.02	1738.73
345.23	1800.16
345.44	1880.04
345.65	1767.40
345.86	1712.10
346.07	1660.90
346.29	1640.42
346.50	1757.16
346.71	1703.91
346.92	1730.53
347.13	1828.84
347.34	1646.57
347.55	1679.33
347.76	1697.77
347.98	1613.80
348.19	1681.38
348.40	1771.49
348.61	1638.38
348.82	1839.08
349.03	1755.11
349.24	1697.77
349.45	1820.64
349.66	1615.85
349.88	1738.73
350.09	1712.10
350.30	1818.60
350.51	1789.92
350.72	1693.67
350.93	1787.88
351.14	1689.57
351.35	1730.53
351.56	1744.87
351.77	1710.05
351.99	1767.40
352.20	1746.92
352.41	1761.25
352.62	1552.36
352.83	1697.77
353.04	1724.39
353.25	1607.66
353.46	1791.97
353.67	1730.53
353.88	1605.61
354.09	1722.34
354.30	1726.44
354.52	1798.12
354.73	1650.66
354.94	1628.14
355.15	1763.30
355.36	1755.11
355.57	1644.52
355.78	1759.21
355.99	1734.63
356.20	1665.00
356.41	1789.92
356.62	1697.77
356.83	1748.97
357.04	1769.44
357.25	1634.28
357.46	1683.43
357.68	1611.75
357.89	1634.28
358.10	1759.21
358.31	1734.63
358.52	1617.90
358.73	1628.14
358.94	1677.29
359.15	1644.52
359.36	1789.92
359.57	1640.42
359.78	1767.40
359.99	1724.39
360.20	1708.01
360.41	1751.01
360.62	1738.73
360.83	1720.29
361.04	1769.44
361.25	1755.11
361.46	1806.31
361.67	1816.55
361.88	1740.77
362.09	1800.16
362.30	1816.55
362.51	1646.57
362.72	1732.58
362.93	1697.77
363.14	1814.50
363.35	1714.15
363.56	1673.19
363.78	1826.79
363.99	1689.57
364.20	1701.86
364.41	1748.97
364.62	1847.27
364.83	1689.57
365.04	1714.15
365.25	1660.90
365.46	1855.46
365.67	1648.61
365.88	1665.00
366.09	1714.15
366.30	1693.67
366.51	1718.25
366.72	1716.20
366.93	1732.58
367.14	1802.21
367.35	1804.26
367.56	1714.15
367.77	1759.21
367.98	1748.97
368.18	1705.96
368.39	1746.92
368.60	1665.00
368.81	1730.53
369.02	1691.62
369.23	1771.49
369.44	1574.89
369.65	1673.19
369.86	1771.49
370.07	1781.73
370.28	1652.71
370.49	1662.95
370.70	1751.01
370.91	1638.38
371.12	1693.67
371.33	1781.73
371.54	1669.09
371.75	1777.64
371.96	1667.05
372.17	1650.66
372.38	1624.04
372.59	1787.88
372.80	1642.47
373.01	1683.43
373.22	1695.72
373.43	1699.81
373.64	1683.43
373.85	1810.40
374.06	1822.69
374.26	1748.97
374.47	1771.49
374.68	1775.59
374.89	1695.72
375.10	1701.86
375.31	1804.26
375.52	1697.77
375.73	1757.16
375.94	1644.52
376.15	1787.88
376.36	1648.61
376.57	1671.14
376.78	1669.09
376.99	1728.49
377.20	1777.64
377.40	1640.42
377.61	1779.68
377.82	1671.14
378.03	1798.12
378.24	1728.49
378.45	1705.96
378.66	1734.63
378.87	1509.35
379.08	1660.90
379.29	1656.81
379.50	1769.44
379.71	1677.29
379.91	1775.59
380.12	1677.29
380.33	1748.97
380.54	1671.14
380.75	1732.58
380.96	1716.20
381.17	1744.87
381.38	1789.92
381.59	1748.97
381.80	1759.21
382.00	1849.32
382.21	1722.34
382.42	1832.93
382.63	1769.44
382.84	1751.01
383.05	1771.49
383.26	1828.84
383.47	1804.26
383.68	1746.92
383.88	1779.68
384.09	1740.77
384.30	1832.93
384.51	1722.34
384.72	1656.81
384.93	1619.94
385.14	1660.90
385.35	1787.88
385.55	1591.27
385.76	1777.64
385.97	1808.36
386.18	1621.99
386.39	1691.62
386.60	1658.85
386.81	1763.30
387.02	1665.00
387.22	1585.13
387.43	1800.16
387.64	1814.50
387.85	1853.41
388.06	2260.96
388.27	4083.65
388.48	6739.87
388.68	8101.76
388.89	9420.66
389.10	9670.51
389.31	8515.45
389.52	7325.58
389.73	6678.43
389.93	6176.67
390.14	5949.35
390.35	5183.41
390.56	4456.38
390.77	3669.96
390.98	3057.62
391.18	2570.20
391.39	2127.84
391.60	1832.93
391.81	1929.19
392.02	1755.11
392.23	1920.99
392.43	1708.01
392.64	1816.55
392.85	1679.33
393.06	1843.17
393.27	1738.73
393.47	1687.53
393.68	1734.63
393.89	1722.34
394.10	1841.12
394.31	1761.25
394.52	1656.81
394.72	1658.85
394.93	1783.78
395.14	1705.96
395.35	1755.11
395.56	1679.33
395.76	1710.05
395.97	1785.83
396.18	1920.99
396.39	1820.64
396.60	2025.44
396.80	1820.64
397.01	1810.40
397.22	1796.07
397.43	1822.69
397.64	1712.10
397.84	1851.36
398.05	1837.03
398.26	1718.25
398.47	1728.49
398.67	1683.43
398.88	1695.72
399.09	1769.44
399.30	1619.94
399.51	1812.45
399.71	1611.75
399.92	1632.23
400.13	1732.58
400.34	1685.48
400.54	1656.81
400.75	1822.69
400.96	1681.38
401.17	1800.16
401.37	1699.81
401.58	1755.11
401.79	1763.30
402.00	1918.95
402.21	2090.98
402.41	1959.91
402.62	1982.43
402.83	1984.48
403.04	1970.15
403.24	2023.39
403.45	1927.14
403.66	1890.28
403.87	1931.23
404.07	1875.94
404.28	1865.70
404.49	1927.14
404.70	1785.83
404.90	1732.58
405.11	1726.44
405.32	1734.63
405.52	1681.38
405.73	1673.19
405.94	1673.19
406.15	1718.25
406.35	1746.92
406.56	1826.79
406.77	1671.14
406.98	1757.16
407.18	1687.53
407.39	1787.88
407.60	1636.33
407.80	1691.62
408.01	1615.85
408.22	1777.64
408.43	1714.15
408.63	1746.92
408.84	1771.49
409.05	1796.07
409.25	1677.29
409.46	1769.44
409.67	1710.05
409.88	1740.77
410.08	1744.87
410.29	1716.20
410.50	1732.58
410.70	1761.25
410.91	1646.57
411.12	1755.11
411.32	1730.53
411.53	1685.48
411.74	1763.30
411.95	1736.68
412.15	1761.25
412.36	1697.77
412.57	1837.03
412.77	1818.60
412.98	1693.67
413.19	1673.19
413.39	1740.77
413.60	1714.15
413.81	1796.07
414.01	1724.39
414.22	1710.05
414.43	1789.92
414.63	1742.82
414.84	1740.77
415.05	1697.77
415.25	1656.81
415.46	1767.40
415.67	1714.15
415.87	1658.85
416.08	1728.49
416.29	1677.29
416.49	1705.96
416.70	1740.77
416.91	1724.39
417.11	1732.58
417.32	1746.92
417.53	1724.39
417.73	1767.40
417.94	1718.25
418.15	1732.58
418.35	1761.25
418.56	1695.72
418.77	1832.93
418.97	1691.62
419.18	1675.24
419.38	1558.50
419.59	1726.44
419.80	1701.86
420.00	1658.85
420.21	1673.19
420.42	1812.45
420.62	1734.63
420.83	1652.71
421.04	1730.53
421.24	1689.57
421.45	1806.31
421.65	1738.73
421.86	1738.73
422.07	1734.63
422.27	1689.57
422.48	1734.63
422.69	1687.53
422.89	1763.30
423.10	1679.33
423.30	1703.91
423.51	1720.29
423.72	1787.88
423.92	1804.26
424.13	1685.48
424.33	1646.57
424.54	1796.07
424.75	1744.87
424.95	1814.50
425.16	1763.30
425.36	1662.95
425.57	1787.88
425.78	1726.44
425.98	1748.97
426.19	1705.96
426.39	1644.52
426.60	1736.68
426.81	1818.60
427.01	1748.97
427.22	1689.57
427.42	1578.98
427.63	1673.19
427.83	1810.40
428.04	1828.84
428.25	1810.40
428.45	1812.45
428.66	1785.83
428.86	1689.57
429.07	1703.91
429.28	1773.54
429.48	1675.24
429.69	1718.25
429.89	1732.58
430.10	1634.28
430.30	1791.97
430.51	1861.60
430.71	1652.71
430.92	1728.49
431.13	1734.63
431.33	1755.11
431.54	1746.92
431.74	1789.92
431.95	1820.64
432.15	1675.24
432.36	1681.38
432.56	1705.96
432.77	1851.36
432.98	1814.50
433.18	1767.40
433.39	1728.49
433.59	1701.86
433.80	1779.68
434.00	1927.14
434.21	1679.33
434.41	1689.57
434.62	1785.83
434.82	1736.68
435.03	1724.39
435.23	1683.43
435.44	1652.71
435.64	1703.91
435.85	1718.25
436.06	1738.73
436.26	1845.22
436.47	1740.77
436.67	1648.61
436.88	1720.29
437.08	1783.78
437.29	1738.73
437.49	1669.09
437.70	1796.07
437.90	1652.71
438.11	1869.80
438.31	1777.64
438.52	1851.36
438.72	1855.46
438.93	1920.99
439.13	1761.25
439.34	1783.78
439.54	1779.68
439.75	1783.78
439.95	1816.55
440.16	1671.14
440.36	1726.44
440.57	1736.68
440.77	1691.62
440.98	1789.92
441.18	1791.97
441.39	1652.71
441.59	1689.57
441.80	1800.16
442.00	1728.49
442.21	1814.50
442.41	1681.38
442.62	1679.33
442.82	1708.01
443.02	1693.67
443.23	1757.16
443.43	1601.51
443.64	1779.68
443.84	1710.05
444.05	1791.97
444.25	1818.60
444.46	1767.40
444.66	1757.16
444.87	1771.49
445.07	1748.97
445.28	1693.67
445.48	1742.82
445.69	1837.03
445.89	1830.88
446.09	1757.16
446.30	2095.07
446.50	2684.89
446.71	3643.34
446.91	4327.36
447.12	4710.33
447.32	4820.92
447.53	4159.42
447.73	3864.52
447.93	3512.27
448.14	3235.79
448.34	3229.65
448.55	2947.03
448.75	2772.95
448.96	2725.85
449.16	2428.89
449.36	2293.72
449.57	2088.93
449.77	1841.12
449.98	1751.01
450.18	1779.68
450.39	1812.45
450.59	1748.97
450.79	1751.01
451.00	1681.38
451.20	1816.55
451.41	1691.62
451.61	1804.26
451.81	1699.81
452.02	1669.09
452.22	1703.91
452.43	1710.05
452.63	1699.81
452.84	1699.81
453.04	1730.53
453.24	1820.64
453.45	1669.09
453.65	1738.73
453.86	1751.01
454.06	1820.64
454.26	1771.49
454.47	1699.81
454.67	1849.32
454.87	1796.07
455.08	1708.01
455.28	1806.31
455.49	1789.92
455.69	1656.81
455.89	1830.88
456.10	1828.84
456.30	1701.86
456.51	1718.25
456.71	1748.97
456.91	1716.20
457.12	1720.29
457.32	1722.34
457.52	1769.44
457.73	1787.88
457.93	1816.55
458.14	1703.91
458.34	1640.42
458.54	1777.64
458.75	1693.67
458.95	1748.97
459.15	1728.49
459.36	1708.01
459.56	1746.92
459.76	1884.13
459.97	1751.01
460.17	1738.73
460.37	1822.69
460.58	1722.34
460.78	1667.05
460.99	1697.77
461.19	1765.35
461.39	1755.11
461.60	1724.39
461.80	1800.16
462.00	1691.62
462.21	1681.38
462.41	1726.44
462.61	1679.33
462.82	1638.38
463.02	1748.97
463.22	1755.11
463.43	1789.92
463.63	1804.26
463.83	1789.92
464.04	1753.06
464.24	1759.21
464.44	1681.38
464.64	1734.63
464.85	1816.55
465.05	1736.68
465.25	1804.26
465.46	1689.57
465.66	1767.40
465.86	1775.59
466.07	1720.29
466.27	1730.53
466.47	1679.33
466.68	1665.00
466.88	1877.99
467.08	1730.53
467.29	1751.01
467.49	1722.34
467.69	1671.14
467.89	1718.25
468.10	1755.11
468.30	1751.01
468.50	1843.17
468.71	1791.97
468.91	1597.42
469.11	1851.36
469.31	1751.01
469.52	1642.47
469.72	1759.21
469.92	1933.28
470.13	1693.67
470.33	1742.82
470.53	1882.08
470.73	2142.18
470.94	2293.72
471.14	2340.83
471.34	2506.71
471.54	2281.44
471.75	2258.91
471.95	2150.37
472.15	2064.35
472.36	2027.49
472.56	2093.02
472.76	2088.93
472.96	2027.49
473.17	1974.24
473.37	1869.80
473.57	1791.97
473.77	1875.94
473.98	1734.63
474.18	1699.81
474.38	1896.42
474.58	1714.15
474.79	1734.63
474.99	1761.25
475.19	1796.07
475.39	1689.57
475.60	1695.72
475.80	1714.15
476.00	1671.14
476.20	1675.24
476.41	1720.29
476.61	1822.69
476.81	1771.49
477.01	1693.67
477.21	1816.55
477.42	1798.12
477.62	1724.39
477.82	1675.24
478.02	1667.05
478.23	1726.44
478.43	1722.34
478.63	1675.24
478.83	1775.59
479.03	1710.05
479.24	1757.16
479.44	1841.12
479.64	1656.81
479.84	1603.56
480.04	1716.20
480.25	1800.16
480.45	1689.57
480.65	1701.86
480.85	1804.26
481.06	1691.62
481.26	1830.88
481.46	1695.72
481.66	1734.63
481.86	1673.19
482.06	1753.06
482.27	1665.00
482.47	1621.99
482.67	1703.91
482.87	1658.85
483.07	1787.88
483.28	1658.85
483.48	1626.09
483.68	1632.23
483.88	1679.33
484.08	1617.90
484.29	1665.00
484.49	1744.87
484.69	1550.31
484.89	1834.98
485.09	1773.54
485.29	1738.73
485.50	1716.20
485.70	1722.34
485.90	1832.93
486.10	1794.02
486.30	1722.34
486.50	1708.01
486.71	1800.16
486.91	1812.45
487.11	1808.36
487.31	1751.01
487.51	1773.54
487.71	1730.53
487.91	1669.09
488.12	1589.22
488.32	1638.38
488.52	1691.62
488.72	1642.47
488.92	1738.73
489.12	1767.40
489.32	1699.81
489.53	1732.58
489.73	1726.44
489.93	1802.21
490.13	1667.05
490.33	1640.42
490.53	1718.25
490.73	1826.79
490.94	1570.79
491.14	1789.92
491.34	1843.17
491.54	2127.84
491.74	2680.79
491.94	2838.48
492.14	3026.90
492.34	3002.32
492.54	2717.65
492.75	2475.99
492.95	2426.84
493.15	2338.78
493.35	2295.77
493.55	2191.33
493.75	2140.13
493.95	2144.22
494.15	1996.77
494.35	1925.09
494.56	1875.94
494.76	1781.73
494.96	1794.02
495.16	1824.74
495.36	1736.68
495.56	1755.11
495.76	1746.92
495.96	1736.68
496.16	1716.20
496.36	1781.73
496.56	1705.96
496.77	1710.05
496.97	1716.20
497.17	1767.40
497.37	1652.71
497.57	1765.35
497.77	1734.63
497.97	1665.00
498.17	1777.64
498.37	1718.25
498.57	1718.25
498.77	1779.68
498.97	1759.21
499.17	1820.64
499.38	1652.71
499.58	1787.88
499.78	1787.88
499.98	1800.16
500.18	1722.34
500.38	1667.05
500.58	1920.99
500.78	2611.16
500.98	4413.37
501.18	5894.05
501.38	6766.49
501.58	7165.84
501.78	6436.77
501.98	5554.09
502.18	4878.26
502.38	4390.84
502.58	4102.08
502.78	3839.94
502.98	3790.79
503.18	3450.83
503.38	3139.54
503.59	2861.01
503.79	2666.46
503.99	2379.74
504.19	2373.60
504.39	2238.43
504.59	2191.33
504.79	2146.27
504.99	2093.02
505.19	1902.56
505.39	1927.14
505.59	1966.05
505.79	1959.91
505.99	1894.37
506.19	1861.60
506.39	1935.33
506.59	1777.64
506.79	1708.01
506.99	1740.77
507.19	1783.78
507.39	1738.73
507.59	1701.86
507.79	1720.29
507.99	1644.52
508.19	1640.42
508.39	1728.49
508.59	1732.58
508.79	1875.94
508.99	1722.34
509.19	1617.90
509.39	1728.49
509.59	1718.25
509.79	1642.47
509.99	1789.92
510.19	1839.08
510.39	1802.21
510.59	1812.45
510.79	1720.29
510.99	1701.86
511.19	1683.43
511.39	1759.21
511.59	1798.12
511.79	1769.44
511.99	1693.67
512.19	1865.70
512.38	1769.44
512.58	1843.17
512.78	1761.25
512.98	1759.21
513.18	1769.44
513.38	1669.09
513.58	1791.97
513.78	1718.25
513.98	1810.40
514.18	1712.10
514.38	1738.73
514.58	1822.69
514.78	1660.90
514.98	1773.54
515.18	1783.78
515.38	1621.99
515.58	1884.13
515.78	1736.68
515.98	1791.97
516.18	1730.53
516.38	1722.34
516.57	1714.15
516.77	1810.40
516.97	1701.86
517.17	1761.25
517.37	1587.18
517.57	1808.36
517.77	1691.62
517.97	1738.73
518.17	1779.68
518.37	1662.95
518.57	1677.29
518.77	1665.00
518.97	1728.49
519.16	1726.44
519.36	1738.73
519.56	1697.77
519.76	1716.20
519.96	1769.44
520.16	1822.69
520.36	1687.53
520.56	1722.34
520.76	1734.63
520.96	1734.63
521.16	1808.36
521.35	1894.37
521.55	1722.34
521.75	1742.82
521.95	1773.54
522.15	1744.87
522.35	1634.28
522.55	1773.54
522.75	1708.01
522.95	1734.63
523.14	1632.23
523.34	1834.98
523.54	1677.29
523.74	1753.06
523.94	1785.83
524.14	1652.71
524.34	1746.92
524.54	1824.74
524.73	1779.68
524.93	1773.54
525.13	1726.44
525.33	1681.38
525.53	1916.90
525.73	1824.74
525.93	1726.44
526.13	1734.63
526.32	1763.30
526.52	1789.92
526.72	1744.87
526.92	1800.16
527.12	1708.01
527.32	1656.81
527.52	1720.29
527.71	1740.77
527.91	1677.29
528.11	1714.15
528.31	1689.57
528.51	1669.09
528.71	1726.44
528.90	1757.16
529.10	1751.01
529.30	1865.70
529.50	1701.86
529.70	1736.68
529.90	1730.53
530.09	1769.44
530.29	1710.05
530.49	1722.34
530.69	1837.03
530.89	1753.06
531.09	1734.63
531.28	1748.97
531.48	1802.21
531.68	1769.44
531.88	1755.11
532.08	1869.80
532.28	1675.24
532.47	1767.40
532.67	1796.07
532.87	1767.40
533.07	1726.44
533.27	1810.40
533.46	1757.16
533.66	1718.25
533.86	1703.91
534.06	1755.11
534.26	1779.68
534.45	1720.29
534.65	1796.07
534.85	1718.25
535.05	1718.25
535.25	1767.40
535.44	1656.81
535.64	1796.07
535.84	1714.15
536.04	1769.44
536.24	1742.82
536.43	1703.91
536.63	1783.78
536.83	1681.38
537.03	1808.36
537.22	1658.85
537.42	1652.71
537.62	1687.53
537.82	1730.53
538.02	1814.50
538.21	1783.78
538.41	1839.08
538.61	1783.78
538.81	1660.90
539.00	1783.78
539.20	1789.92
539.40	1777.64
539.60	1777.64
539.79	1832.93
539.99	1705.96
540.19	1740.77
540.39	1748.97
540.58	1796.07
540.78	1822.69
540.98	1818.60
541.18	1785.83
541.37	1820.64
541.57	1753.06
541.77	1767.40
541.97	1640.42
542.16	1662.95
542.36	1718.25
542.56	1669.09
542.76	1828.84
542.95	1804.26
543.15	1761.25
543.35	1877.99
543.54	1640.42
543.74	1689.57
543.94	1759.21
544.14	1744.87
544.33	1742.82
544.53	1779.68
544.73	1761.25
544.93	1650.66
545.12	1640.42
545.32	1814.50
545.52	1761.25
545.71	1644.52
545.91	1701.86
546.11	1738.73
546.30	1658.85
546.50	1791.97
546.70	1744.87
546.90	1718.25
547.09	1615.85
547.29	1781.73
547.49	1742.82
547.68	1746.92
547.88	1681.38
548.08	1667.05
548.27	2209.76
548.47	1638.38
548.67	1761.25
548.87	1740.77
549.06	1660.90
549.26	1691.62
549.46	1695.72
549.65	1665.00
549.85	1726.44
550.05	1777.64
550.24	1611.75
550.44	1755.11
550.64	1785.83
550.83	1679.33
551.03	1775.59
551.23	1779.68
551.42	1738.73
551.62	1753.06
551.82	1728.49
552.01	1787.88
552.21	1763.30
552.41	1714.15
552.60	1832.93
552.80	1738.73
553.00	1730.53
553.19	1769.44
553.39	1761.25
553.59	1748.97
553.78	1791.97
553.98	1849.32
554.17	1687.53
554.37	1796.07
554.57	1791.97
554.76	1724.39
554.96	1746.92
555.16	1775.59
555.35	1804.26
555.55	1812.45
555.75	1718.25
555.94	1796.07
556.14	1669.09
556.33	1796.07
556.53	1740.77
556.73	1812.45
556.92	1783.78
557.12	1775.59
557.32	1818.60
557.51	1800.16
557.71	1859.56
557.90	1808.36
558.10	1746.92
558.30	1689.57
558.49	1714.15
558.69	1748.97
558.88	1771.49
559.08	1789.92
559.28	1814.50
559.47	1730.53
559.67	1685.48
559.86	1865.70
560.06	1789.92
560.26	1724.39
560.45	1806.31
560.65	1740.77
560.84	1814.50
561.04	1718.25
561.24	1689.57
561.43	1591.27
561.63	1855.46
561.82	1800.16
562.02	1783.78
562.22	1757.16
562.41	1726.44
562.61	1689.57
562.80	1683.43
563.00	1968.10
563.19	1748.97
563.39	1810.40
563.59	1828.84
563.78	1734.63
563.98	1611.75
564.17	1662.95
564.37	1570.79
564.56	1714.15
564.76	1689.57
564.96	1794.02
565.15	1699.81
565.35	1857.51
565.54	1671.14
565.74	1834.98
565.93	1783.78
566.13	1787.88
566.32	1710.05
566.52	1777.64
566.71	1771.49
566.91	1824.74
567.11	1685.48
567.30	1669.09
567.50	1722.34
567.69	1732.58
567.89	1755.11
568.08	1744.87
568.28	1757.16
568.47	1638.38
568.67	1798.12
568.86	1656.81
569.06	1812.45
569.25	1660.90
569.45	1740.77
569.64	1708.01
569.84	1755.11
570.04	1730.53
570.23	1617.90
570.43	1722.34
570.62	1814.50
570.82	1847.27
571.01	1744.87
571.21	1783.78
571.40	1640.42
571.60	1802.21
571.79	1746.92
571.99	1718.25
572.18	1671.14
572.38	1742.82
572.57	1716.20
572.77	1748.97
572.96	1861.60
573.16	1771.49
573.35	1767.40
573.55	1861.60
573.74	1726.44
573.94	1695.72
574.13	1769.44
574.33	1808.36
574.52	1832.93
574.71	1730.53
574.91	1775.59
575.10	1677.29
575.30	1722.34
575.49	1660.90
575.69	1689.57
575.88	1701.86
576.08	1728.49
576.27	1757.16
576.47	1816.55
576.66	1820.64
576.86	1820.64
577.05	1787.88
577.25	1826.79
577.44	1877.99
577.64	1681.38
577.83	1898.47
578.02	1746.92
578.22	1886.18
578.41	1910.75
578.61	1740.77
578.80	1689.57
579.00	1751.01
579.19	1755.11
579.39	1839.08
579.58	1824.74
579.77	1753.06
579.97	1804.26
580.16	1877.99
580.36	1810.40
580.55	1789.92
580.75	1794.02
580.94	1775.59
581.13	1812.45
581.33	1839.08
581.52	1771.49
581.72	1912.80
581.91	1806.31
582.11	1667.05
582.30	1822.69
582.49	1773.54
582.69	1843.17
582.88	1746.92
583.08	1787.88
583.27	1822.69
583.47	1800.16
583.66	1767.40
583.85	1695.72
584.05	1810.40
584.24	1732.58
584.44	1824.74
584.63	1839.08
584.82	1857.51
585.02	1863.65
585.21	1884.13
585.41	1832.93
585.60	1800.16
585.79	1837.03
585.99	1931.23
586.18	1849.32
586.37	2209.76
586.57	3327.95
586.76	9813.87
586.96	24039.06
587.15	33625.60
587.34	39810.46
587.54	41508.23
587.73	35902.94
587.93	25777.78
588.12	20807.36
588.31	18038.51
588.51	15847.18
588.70	14772.00
588.89	13782.83
589.09	12375.88
589.28	10719.07
589.47	9400.18
589.67	8021.89
589.86	6358.94
590.06	4886.45
590.25	3987.40
590.44	3094.48
590.64	2598.87
590.83	2203.61
591.02	2222.05
591.22	1982.43
591.41	1894.37
591.60	1828.84
591.80	1896.42
591.99	1726.44
592.18	1722.34
592.38	1808.36
592.57	1796.07
592.76	1806.31
592.96	1849.32
593.15	1806.31
593.34	1806.31
593.54	1791.97
593.73	1796.07
593.92	1800.16
594.12	1810.40
594.31	1789.92
594.50	1787.88
594.70	1779.68
594.89	1869.80
595.08	1683.43
595.28	1824.74
595.47	1910.75
595.66	1761.25
595.86	1660.90
596.05	1681.38
596.24	1718.25
596.43	1832.93
596.63	1802.21
596.82	1748.97
597.01	1802.21
597.21	1839.08
597.40	1769.44
597.59	1744.87
597.79	1746.92
597.98	1845.22
598.17	1781.73
598.36	1771.49
598.56	1726.44
598.75	1699.81
598.94	1789.92
599.14	1746.92
599.33	1787.88
599.52	1771.49
599.71	1746.92
599.91	1789.92
600.10	1826.79
600.29	1734.63
600.48	1781.73
600.68	1753.06
600.87	1767.40
601.06	1681.38
601.26	1783.78
601.45	1845.22
601.64	1761.25
601.83	1814.50
602.03	1691.62
602.22	1685.48
602.41	1759.21
602.60	1849.32
602.80	1843.17
602.99	1785.83
603.18	1697.77
603.37	1753.06
603.57	1746.92
603.76	1865.70
603.95	1839.08
604.14	1757.16
604.34	1765.35
604.53	1755.11
604.72	1755.11
604.91	1748.97
605.10	1806.31
605.30	1765.35
605.49	1955.81
605.68	1728.49
605.87	1740.77
606.07	1740.77
606.26	1785.83
606.45	1701.86
606.64	1767.40
606.84	1742.82
607.03	1748.97
607.22	1708.01
607.41	1783.78
607.60	1757.16
607.80	1796.07
607.99	1765.35
608.18	1826.79
608.37	1757.16
608.56	1691.62
608.76	1802.21
608.95	1832.93
609.14	1667.05
609.33	1771.49
609.52	1773.54
609.72	1695.72
609.91	1789.92
610.10	1781.73
610.29	1800.16
610.48	1751.01
610.68	1751.01
610.87	1755.11
611.06	1757.16
611.25	1720.29
611.44	1789.92
611.63	1726.44
611.83	1771.49
612.02	1630.18
612.21	1800.16
612.40	1638.38
612.59	1681.38
612.79	1701.86
612.98	1705.96
613.17	1865.70
613.36	1736.68
613.55	1861.60
613.74	1687.53
613.93	1718.25
614.13	1705.96
614.32	1742.82
614.51	1808.36
614.70	1751.01
614.89	1732.58
615.08	1763.30
615.28	1986.53
615.47	1638.38
615.66	1742.82
615.85	1773.54
616.04	1894.37
616.23	1746.92
616.42	1705.96
616.62	1791.97
616.81	1662.95
617.00	1736.68
617.19	1742.82
617.38	1736.68
617.57	1769.44
617.76	1787.88
617.95	1828.84
618.15	1697.77
618.34	1832.93
618.53	1587.18
618.72	1777.64
618.91	1800.16
619.10	1814.50
619.29	1712.10
619.48	1740.77
619.68	1728.49
619.87	1714.15
620.06	1671.14
620.25	1796.07
620.44	1730.53
620.63	1771.49
620.82	1783.78
621.01	1757.16
621.20	1718.25
621.39	1695.72
621.59	1746.92
621.78	1755.11
621.97	1695.72
622.16	1757.16
622.35	1789.92
622.54	1789.92
622.73	1787.88
622.92	1656.81
623.11	1773.54
623.30	1730.53
623.49	1808.36
623.68	1681.38
623.88	1769.44
624.07	1708.01
624.26	1744.87
624.45	1722.34
624.64	1652.71
624.83	1726.44
625.02	1695.72
625.21	1740.77
625.40	1751.01
625.59	1742.82
625.78	1722.34
625.97	1798.12
626.16	1736.68
626.35	1802.21
626.54	1746.92
626.74	1875.94
626.93	1687.53
627.12	1658.85
627.31	1779.68
627.50	1726.44
627.69	1806.31
627.88	1691.62
628.07	1644.52
628.26	1638.38
628.45	1736.68
628.64	1599.46
628.83	1757.16
629.02	1578.98
629.21	1755.11
629.40	1763.30
629.59	1624.04
629.78	1652.71
629.97	1626.09
630.16	1787.88
630.35	1708.01
630.54	1714.15
630.73	1662.95
630.92	1681.38
631.11	1789.92
631.30	1662.95
631.49	1718.25
631.68	1693.67
631.87	1699.81
632.06	1636.33
632.25	1869.80
632.44	1724.39
632.63	1775.59
632.82	1722.34
633.01	1705.96
633.20	1734.63
633.39	1607.66
633.58	1665.00
633.77	1746.92
633.96	1673.19
634.15	1697.77
634.34	1789.92
634.53	1708.01
634.72	1714.15
634.91	1673.19
635.10	1769.44
635.29	1767.40
635.48	1787.88
635.67	1687.53
635.86	1583.08
636.05	1779.68
636.24	1730.53
636.43	1744.87
636.62	1738.73
636.81	1624.04
637.00	1691.62
637.19	1783.78
637.38	1820.64
637.57	1662.95
637.76	1673.19
637.95	1757.16
638.14	1681.38
638.33	1751.01
638.52	1730.53
638.71	1689.57
638.89	1728.49
639.08	1865.70
639.27	1839.08
639.46	1724.39
639.65	1787.88
639.84	1689.57
640.03	1724.39
640.22	1726.44
640.41	1822.69
640.60	1683.43
640.79	1669.09
640.98	1673.19
641.17	1800.16
641.36	1705.96
641.55	1734.63
641.74	1669.09
641.92	1738.73
642.11	1697.77
642.30	1689.57
642.49	1705.96
642.68	1628.14
642.87	1738.73
643.06	1779.68
643.25	1658.85
643.44	1755.11
643.63	1710.05
643.82	1714.15
644.00	1679.33
644.19	1699.81
644.38	1740.77
644.57	1802.21
644.76	1687.53
644.95	1708.01
645.14	1763.30
645.33	1714.15
645.52	1800.16
645.71	1691.62
645.89	1705.96
646.08	1722.34
646.27	1681.38
646.46	1839.08
646.65	1638.38
646.84	1748.97
647.03	1683.43
647.22	1779.68
647.40	1650.66
647.59	1777.64
647.78	1574.89
647.97	1679.33
648.16	1652.71
648.35	1763.30
648.54	1845.22
648.73	1662.95
648.91	1724.39
649.10	1847.27
649.29	1662.95
649.48	1673.19
649.67	1718.25
649.86	1740.77
650.05	1705.96
650.23	1777.64
650.42	1636.33
650.61	1730.53
650.80	1728.49
650.99	1861.60
651.18	1763.30
651.36	1738.73
651.55	1710.05
651.74	1822.69
651.93	1740.77
652.12	1740.77
652.31	1714.15
652.49	1693.67
652.68	1701.86
652.87	1738.73
653.06	1734.63
653.25	1839.08
653.44	1632.23
653.62	1837.03
653.81	1714.15
654.00	1730.53
654.19	1767.40
654.38	1865.70
654.56	1753.06
654.75	1705.96
654.94	1773.54
655.13	1644.52
655.32	1730.53
655.51	1767.40
655.69	1671.14
655.88	1753.06
656.07	1658.85
656.26	1814.50
656.45	1656.81
656.63	1740.77
656.82	1724.39
657.01	1695.72
657.20	1736.68
657.38	1781.73
657.57	1710.05
657.76	1589.22
657.95	1765.35
658.14	1685.48
658.32	1755.11
658.51	1648.61
658.70	1695.72
658.89	1710.05
659.08	1685.48
659.26	1779.68
659.45	1726.44
659.64	1714.15
659.83	1675.24
660.01	1918.95
660.20	1728.49
660.39	1808.36
660.58	1632.23
660.76	1761.25
660.95	1710.05
661.14	1724.39
661.33	1626.09
661.51	1691.62
661.70	1701.86
661.89	1837.03
662.08	1767.40
662.26	1730.53
662.45	1689.57
662.64	1734.63
662.83	1742.82
663.01	1683.43
663.20	1730.53
663.39	1796.07
663.58	1648.61
663.76	1640.42
663.95	1771.49
664.14	1726.44
664.32	1634.28
664.51	1632.23
664.70	1671.14
664.89	1712.10
665.07	1685.48
665.26	1755.11
665.45	1679.33
665.64	1701.86
665.82	1800.16
666.01	1734.63
666.20	1681.38
666.38	1734.63
666.57	1787.88
666.76	2240.48
666.95	4405.18
667.13	10215.27
667.32	15019.80
667.51	17667.83
667.69	18927.33
667.88	17506.04
668.07	12453.70
668.25	9525.10
668.44	7849.86
668.63	7284.62
668.81	6842.26
669.00	6090.66
669.19	5715.88
669.38	4976.56
669.56	4571.07
669.75	3895.24
669.94	3362.76
670.12	2918.36
670.31	2566.10
670.50	2207.71
670.68	2062.30
670.87	1920.99
671.06	1851.36
671.24	1865.70
671.43	1886.18
671.62	1859.56
671.80	1730.53
671.99	1730.53
672.18	1687.53
672.36	1796.07
672.55	1746.92
672.74	1789.92
672.92	1728.49
673.11	1732.58
673.29	1648.61
673.48	1769.44
673.67	1755.11
673.85	1779.68
674.04	1685.48
674.23	1728.49
674.41	1810.40
674.60	1652.71
674.79	1626.09
674.97	1769.44
675.16	1761.25
675.34	1828.84
675.53	1662.95
675.72	1697.77
675.90	1783.78
676.09	1632.23
676.28	1736.68
676.46	1593.32
676.65	1773.54
676.83	1652.71
677.02	1744.87
677.21	1728.49
677.39	1673.19
677.58	1705.96
677.77	1742.82
677.95	1689.57
678.14	1679.33
678.32	1687.53
678.51	1681.38
678.70	1894.37
678.88	1562.60
679.07	1710.05
679.25	1777.64
679.44	1742.82
679.63	1681.38
679.81	1724.39
680.00	1851.36
680.18	1783.78
680.37	1751.01
680.55	1732.58
680.74	1621.99
680.93	1636.33
681.11	1818.60
681.30	1718.25
681.48	1716.20
681.67	1748.97
681.85	1701.86
682.04	1689.57
682.23	1748.97
682.41	1716.20
682.60	1744.87
682.78	1767.40
682.97	1669.09
683.15	1697.77
683.34	1650.66
683.53	1832.93
683.71	1683.43
683.90	1865.70
684.08	1796.07
684.27	1667.05
684.45	1730.53
684.64	1740.77
684.82	1667.05
685.01	1796.07
685.19	1773.54
685.38	1832.93
685.57	1720.29
685.75	1652.71
685.94	1656.81
686.12	1675.24
686.31	1621.99
686.49	1871.84
686.68	1669.09
686.86	1699.81
687.05	1703.91
687.23	1843.17
687.42	1617.90
687.60	1632.23
687.79	1691.62
687.97	1834.98
688.16	1832.93
688.34	1796.07
688.53	1601.51
688.71	1777.64
688.90	1812.45
689.08	1759.21
689.27	1695.72
689.45	1742.82
689.64	1708.01
689.82	1755.11
690.01	1693.67
690.19	1757.16
690.38	1746.92
690.56	1777.64
690.75	1642.47
690.93	1710.05
691.12	1724.39
691.30	1689.57
691.49	1742.82
691.67	1714.15
691.86	1830.88
692.04	1669.09
692.23	1673.19
692.41	1585.13
692.60	1822.69
692.78	1820.64
692.97	1695.72
693.15	1759.21
693.34	1753.06
693.52	1746.92
693.71	1761.25
693.89	1677.29
694.08	1630.18
694.26	1830.88
694.44	1861.60
694.63	1740.77
694.81	1687.53
695.00	1650.66
695.18	1748.97
695.37	1875.94
695.55	1701.86
695.74	1626.09
695.92	1603.56
696.10	1714.15
696.29	1591.27
696.47	1644.52
696.66	1665.00
696.84	1638.38
697.03	1695.72
697.21	1802.21
697.40	2283.49
697.58	1771.49
697.76	1748.97
697.95	1595.37
698.13	1656.81
698.32	1763.30
698.50	1660.90
698.68	1738.73
698.87	1755.11
699.05	1759.21
699.24	1703.91
699.42	1646.57
699.61	1767.40
699.79	1708.01
699.97	1726.44
700.16	1560.55
700.34	1677.29
700.53	1775.59
700.71	1810.40
700.89	1699.81
701.08	1673.19
701.26	1697.77
701.45	2131.94
701.63	1695.72
701.81	1689.57
702.00	1699.81
702.18	1669.09
702.37	1675.24
702.55	1724.39
702.73	1634.28
702.92	1685.48
703.10	1687.53
703.28	1777.64
703.47	1695.72
703.65	1810.40
703.84	1834.98
704.02	1613.80
704.20	1828.84
704.39	1675.24
704.57	1697.77
704.75	1693.67
704.94	1751.01
705.12	1730.53
705.30	1695.72
705.49	2238.43
705.67	4427.71
705.86	9146.23
706.04	12367.68
706.22	14063.40
706.41	14944.03
706.59	13643.57
706.77	9422.70
706.96	7286.67
707.14	6490.01
707.32	5949.35
707.51	5408.69
707.69	4913.08
707.87	4149.18
708.06	3512.27
708.24	2938.84
708.42	2424.80
708.61	2207.71
708.79	1882.08
708.97	1912.80
709.16	1847.27
709.34	1877.99
709.52	1699.81
709.71	1648.61
709.89	1841.12
710.07	1716.20
710.26	1703.91
710.44	1689.57
710.62	1779.68
710.80	1767.40
710.99	1732.58
711.17	1746.92
711.35	1677.29
711.54	1705.96
711.72	1767.40
711.90	1767.40
712.09	1757.16
712.27	1669.09
712.45	1755.11
712.63	1722.34
712.82	1732.58
713.00	1699.81
713.18	1763.30
713.37	1751.01
713.55	1794.02
713.73	1697.77
713.91	1734.63
714.10	1685.48
714.28	1685.48
714.46	1730.53
714.65	1671.14
714.83	1777.64
715.01	1669.09
715.19	1685.48
715.38	1640.42
715.56	1816.55
715.74	1679.33
715.92	1716.20
716.11	1859.56
716.29	1650.66
716.47	1712.10
716.65	1667.05
716.84	1701.86
717.02	1718.25
717.20	1644.52
717.38	1667.05
717.57	1734.63
717.75	1648.61
717.93	1644.52
718.11	1662.95
718.30	1677.29
718.48	1722.34
718.66	1765.35
718.84	1785.83
719.03	1738.73
719.21	1613.80
719.39	1738.73
719.57	1753.06
719.75	1744.87
719.94	1667.05
720.12	1763.30
720.30	1718.25
720.48	1693.67
720.67	1699.81
720.85	1644.52
721.03	1697.77
721.21	1667.05
721.39	1763.30
721.58	1718.25
721.76	1767.40
721.94	1841.12
722.12	1730.53
722.30	1814.50
722.49	1683.43
722.67	1671.14
722.85	1687.53
723.03	1646.57
723.21	1652.71
723.40	1818.60
723.58	1779.68
723.76	1671.14
723.94	1771.49
724.12	1753.06
724.30	1746.92
724.49	1800.16
724.67	1613.80
724.85	1726.44
725.03	1695.72
725.21	1748.97
725.40	1740.77
725.58	1683.43
725.76	1730.53
725.94	1751.01
726.12	1646.57
726.30	1705.96
726.49	1646.57
726.67	1730.53
726.85	1714.15
727.03	1781.73
727.21	2000.87
727.39	2944.98
727.57	3768.26
727.76	4024.26
727.94	4427.71
728.12	4331.45
728.30	3694.54
728.48	2990.03
728.66	2701.27
728.84	2598.87
729.03	2338.78
729.21	2193.37
729.39	2047.97
729.57	1822.69
729.75	1822.69
729.93	1867.75
730.11	1734.63
730.30	1693.67
730.48	1720.29
730.66	1810.40
730.84	1746.92
731.02	1685.48
731.20	1724.39
731.38	1658.85
731.56	1578.98
731.74	1697.77
731.93	1665.00
732.11	1660.90
732.29	1710.05
732.47	1716.20
732.65	1699.81
732.83	1789.92
733.01	1705.96
733.19	1640.42
733.37	1728.49
733.56	1818.60
733.74	1683.43
733.92	1808.36
734.10	1662.95
734.28	1730.53
734.46	1638.38
734.64	1630.18
734.82	1667.05
735.00	1662.95
735.18	1691.62
735.36	1687.53
735.54	1685.48
735.73	1718.25
735.91	1753.06
736.09	1755.11
736.27	1695.72
736.45	1777.64
736.63	1632.23
736.81	1697.77
736.99	1693.67
737.17	1796.07
737.35	1613.80
737.53	1671.14
737.71	1708.01
737.89	1796.07
738.07	1656.81
738.25	1693.67
738.43	1673.19
738.61	1720.29
738.80	1615.85
738.98	1673.19
739.16	1699.81
739.34	1683.43
739.52	1755.11
739.70	1693.67
739.88	1671.14
740.06	1708.01
740.24	1609.70
740.42	1751.01
740.60	1585.13
740.78	1660.90
740.96	1632.23
741.14	1662.95
741.32	1683.43
741.50	1687.53
741.68	1861.60
741.86	1789.92
742.04	1658.85
742.22	1626.09
742.40	1716.20
742.58	1712.10
742.76	1679.33
742.94	1714.15
743.12	1654.76
743.30	1724.39
743.48	1658.85
743.66	1669.09
743.84	1779.68
744.02	1732.58
744.20	1667.05
744.38	1669.09
744.56	1751.01
744.74	1839.08
744.92	1781.73
745.10	1812.45
745.28	1777.64
745.46	1806.31
745.64	1697.77
745.82	1710.05
746.00	1753.06
746.18	1742.82
746.36	1656.81
746.54	1708.01
746.72	1761.25
746.90	1658.85
747.08	1767.40
747.26	1701.86
747.44	1708.01
747.62	1730.53
747.80	1757.16
747.98	1701.86
748.15	1671.14
748.33	1767.40
748.51	1675.24
748.69	1734.63
748.87	1609.70
749.05	1662.95
749.23	1691.62
749.41	1685.48
749.59	1695.72
749.77	1769.44
749.95	1714.15
750.13	1665.00
750.31	1718.25
750.49	1751.01
750.67	1740.77
750.85	1800.16
751.03	1742.82
751.20	1853.41
751.38	1736.68
751.56	1726.44
751.74	1728.49
751.92	1681.38
752.10	1667.05
752.28	1718.25
752.46	1605.61
752.64	1673.19
752.82	1593.32
753.00	1787.88
753.18	1679.33
753.35	1667.05
753.53	1787.88
753.71	1677.29
753.89	1716.20
754.07	1701.86
754.25	1742.82
754.43	1755.11
754.61	1591.27
754.79	1726.44
754.97	1685.48
755.14	1779.68
755.32	1642.47
755.50	1665.00
755.68	1789.92
755.86	1695.72
756.04	1734.63
756.22	1685.48
756.40	1771.49
756.57	1753.06
756.75	1699.81
756.93	1714.15
757.11	1791.97
757.29	1665.00
757.47	1703.91
757.65	1609.70
757.82	1560.55
758.00	1695.72
758.18	1671.14
758.36	1636.33
758.54	1742.82
758.72	1609.70
758.90	1763.30
759.07	1708.01
759.25	1585.13
759.43	1701.86
759.61	1619.94
759.79	2189.28
759.97	1849.32
760.15	1621.99
760.32	1716.20
760.50	1748.97
760.68	1828.84
760.86	1669.09
761.04	1751.01
761.22	1775.59
761.39	1744.87
761.57	1742.82
761.75	1658.85
761.93	1755.11
762.11	1734.63
762.28	1652.71
762.46	1677.29
762.64	1746.92
762.82	1576.94
763.00	1728.49
763.18	1767.40
763.35	1615.85
763.53	1738.73
763.71	1730.53
763.89	1728.49
764.07	1703.91
764.24	1773.54
764.42	1763.30
764.60	1724.39
764.78	1656.81
764.96	1787.88
765.13	1753.06
765.31	1705.96
765.49	1771.49
765.67	1665.00
765.84	1603.56
766.02	1718.25
766.20	1652.71
766.38	1683.43
766.56	1689.57
766.73	1871.84
766.91	1855.46
767.09	1742.82
767.27	1791.97
767.44	1611.75
767.62	1824.74
767.80	1703.91
767.98	1720.29
768.15	1638.38
768.33	1755.11
768.51	1753.06
768.69	1746.92
768.87	1783.78
769.04	1708.01
769.22	1892.32
769.40	1771.49
769.58	1910.75
769.75	1671.14
769.93	1820.64
770.11	1689.57
770.28	1607.66
770.46	1710.05
770.64	1714.15
770.82	1687.53
770.99	1636.33
771.17	1697.77
771.35	1771.49
771.53	1812.45
771.70	1644.52
771.88	1691.62
772.06	1705.96
772.23	1730.53
772.41	1775.59
772.59	1644.52
772.77	1650.66
772.94	1624.04
773.12	1714.15
773.30	1701.86
773.47	1681.38
773.65	1759.21
773.83	1771.49
774.01	1791.97
774.18	1619.94
774.36	1685.48
774.54	1599.46
774.71	1691.62
774.89	1689.57
775.07	1697.77
775.24	1689.57
775.42	1603.56
775.60	1839.08
775.78	1677.29
775.95	1646.57
776.13	1578.98
776.31	1564.65
776.48	1640.42
776.66	1740.77
776.84	1665.00
777.01	1652.71
777.19	1605.61
777.37	1753.06
777.54	1781.73
777.72	1822.69
777.90	1761.25
778.07	1671.14
778.25	1789.92
778.43	1765.35
778.60	1658.85
778.78	1757.16
778.96	1744.87
779.13	1722.34
779.31	1857.51
779.49	1736.68
779.66	1718.25
779.84	1681.38
780.01	1662.95
780.19	1656.81
780.37	1775.59
780.54	1740.77
780.72	1716.20
780.90	1681.38
781.07	1556.46
781.25	1648.61
781.43	1767.40
781.60	1765.35
781.78	1724.39
781.95	1708.01
782.13	1607.66
782.31	1640.42
782.48	1656.81
782.66	1691.62
782.83	1800.16
783.01	1724.39
783.19	1744.87
783.36	1644.52
783.54	1554.41
783.72	1744.87
783.89	1656.81
784.07	1728.49
784.24	1755.11
784.42	1816.55
784.60	1734.63
784.77	1816.55
784.95	1632.23
785.12	1691.62
785.30	1626.09
785.47	1613.80
785.65	1681.38
785.83	1699.81
786.00	1675.24
786.18	1708.01
786.35	1640.42
786.53	1675.24
786.71	1705.96
786.88	1765.35
787.06	1763.30
787.23	1705.96
787.41	1607.66
787.58	1804.26
787.76	1751.01
787.94	1687.53
788.11	1751.01
788.29	1603.56
788.46	1755.11
788.64	1605.61
788.81	1687.53
788.99	1763.30
789.16	1671.14
789.34	1675.24
789.52	1697.77
789.69	1689.57
789.87	1621.99
790.04	1691.62
790.22	1660.90
790.39	1787.88
790.57	1662.95
790.74	1669.09
790.92	1804.26
791.09	1615.85
791.27	1689.57
791.44	1785.83
791.62	1748.97
791.79	1779.68
791.97	1724.39
792.15	1892.32
792.32	1714.15
792.50	1677.29
792.67	1781.73
792.85	1769.44
793.02	1755.11
793.20	1751.01
793.37	1636.33
793.55	1701.86
793.72	1640.42
793.90	1689.57
794.07	1640.42
794.25	1595.37
794.42	1753.06
794.60	1665.00
794.77	1665.00
794.95	1746.92
795.12	1699.81
795.30	1722.34
795.47	1677.29
795.65	1824.74
795.82	1691.62
796.00	1644.52
796.17	1665.00
796.34	1681.38
796.52	1734.63
796.69	1763.30
796.87	1777.64
797.04	1722.34
797.22	1757.16
797.39	1775.59
797.57	1804.26
797.74	1765.35
797.92	1724.39
798.09	1710.05
798.27	1822.69
798.44	1748.97
798.62	1679.33
798.79	1689.57
798.96	1687.53
799.14	1693.67
799.31	1769.44
799.49	1624.04
799.66	1759.21
799.84	1681.38
800.01	1687.53
800.19	1660.90
800.36	1585.13
800.53	1740.77
800.71	1755.11
800.88	1767.40
801.06	1652.71
801.23	1675.24
801.41	1710.05
801.58	1714.15
801.75	1617.90
801.93	1753.06
802.10	1732.58
802.28	1732.58
802.45	1650.66
802.63	1742.82
802.80	1834.98
802.97	1662.95
803.15	1708.01
803.32	1652.71
803.50	1669.09
803.67	1695.72
803.84	1619.94
804.02	1695.72
804.19	1677.29
804.37	1642.47
804.54	1626.09
804.71	1644.52
804.89	1677.29
805.06	1624.04
805.24	1656.81
805.41	1673.19
805.58	1689.57
805.76	1820.64
805.93	1726.44
806.10	1828.84
806.28	1759.21
806.45	1730.53
806.63	1701.86
806.80	1705.96
806.97	1765.35
807.15	1722.34
807.32	1753.06
807.49	1718.25
807.67	1710.05
807.84	1712.10
808.01	1619.94
808.19	1728.49
808.36	1867.75
808.54	1730.53
808.71	1734.63
808.88	1716.20
809.06	1734.63
809.23	1826.79
809.40	1609.70
809.58	1769.44
809.75	1714.15
809.92	1640.42
810.10	1912.80
810.27	1738.73
810.44	1734.63
810.62	1855.46
810.79	1656.81
810.96	1652.71
811.14	1732.58
811.31	1775.59
811.48	1695.72
811.66	1677.29
811.83	1718.25
812.00	1703.91
812.18	1744.87
812.35	1691.62
812.52	1712.10
812.69	1581.03
812.87	1658.85
813.04	1611.75
813.21	1716.20
813.39	1644.52
813.56	1703.91
813.73	1710.05
813.91	1611.75
814.08	1744.87
814.25	1763.30
814.42	1617.90
814.60	1712.10
814.77	1748.97
814.94	1683.43
815.12	1689.57
815.29	1740.77
815.46	1621.99
815.63	1697.77
815.81	1667.05
815.98	1658.85
816.15	1720.29
816.33	1740.77
816.50	1730.53
816.67	1638.38
816.84	1695.72
817.02	1689.57
817.19	1757.16
817.36	1726.44
817.53	1722.34
817.71	1742.82
817.88	1679.33
818.05	1722.34
818.22	1708.01
818.40	1806.31
818.57	1681.38
818.74	1705.96
818.91	1701.86
819.09	1736.68
819.26	1800.16
819.43	1718.25
819.60	1607.66
819.78	1722.34
819.95	1853.41
820.12	1687.53
820.29	1781.73
820.47	1806.31
820.64	1697.77
820.81	1585.13
820.98	1568.74
821.15	1738.73
821.33	1722.34
821.50	1636.33
821.67	1681.38
821.84	1669.09
822.02	1759.21
822.19	1763.30
822.36	1734.63
822.53	1679.33
822.70	1667.05
822.88	1785.83
823.05	1820.64
823.22	1724.39
823.39	1794.02
823.56	1677.29
823.74	1808.36
823.91	1624.04
824.08	1656.81
824.25	1652.71
824.42	1746.92
824.60	1640.42
824.77	1716.20
824.94	1652.71
825.11	1779.68
825.28	1716.20
825.45	1656.81
825.63	1681.38
825.80	1669.09
825.97	1673.19
826.14	1685.48
826.31	1624.04
826.48	1681.38
826.66	1619.94
826.83	1705.96
827.00	1718.25
827.17	1619.94
827.34	1705.96
827.51	1669.09
827.69	1769.44
827.86	1652.71
828.03	1624.04
828.20	1714.15
828.37	1636.33
828.54	1714.15
828.71	1681.38
828.89	1687.53
829.06	1748.97
829.23	1757.16
829.40	1605.61
829.57	1658.85
829.74	1763.30
829.91	1742.82
830.09	1732.58
830.26	1654.76
830.43	1771.49
830.60	1708.01
830.77	1734.63
830.94	1738.73
831.11	1763.30
831.28	1652.71
831.46	1710.05
831.63	1683.43
831.80	1724.39
831.97	1687.53
832.14	1710.05
832.31	1740.77
832.48	1673.19
832.65	1822.69
832.82	1658.85
832.99	1683.43
833.17	1601.51
833.34	1773.54
833.51	1730.53
833.68	1601.51
833.85	1722.34
834.02	1667.05
834.19	1613.80
834.36	1648.61
834.53	1689.57
834.70	1791.97
834.87	1769.44
835.04	1751.01
835.22	1722.34
835.39	1732.58
835.56	1644.52
835.73	1708.01
835.90	1689.57
836.07	1679.33
836.24	1748.97
836.41	1607.66
836.58	1638.38
836.75	1742.82
836.92	1722.34
837.09	1654.76
837.26	1720.29
837.43	1710.05
837.60	1693.67
837.77	1693.67
837.94	1753.06
838.12	1791.97
838.29	1689.57
838.46	1636.33
838.63	1656.81
838.80	1789.92
838.97	1785.83
839.14	1708.01
839.31	1703.91
839.48	1710.05
839.65	1687.53
839.82	1736.68
839.99	1783.78
840.16	1730.53
840.33	1689.57
840.50	1638.38
840.67	1656.81
840.84	1656.81
841.01	1726.44
841.18	1722.34
841.35	1734.63
841.52	1755.11
841.69	1781.73
841.86	1724.39
842.03	1687.53
842.20	1730.53
842.37	1621.99
842.54	1642.47
842.71	1689.57
842.88	1697.77
843.05	1714.15
843.22	1685.48
843.39	1718.25
843.56	1701.86
843.73	1693.67
843.90	1687.53
844.07	1748.97
844.24	1701.86
844.41	1683.43
844.58	1718.25
844.75	1640.42
844.92	1728.49
845.09	1759.21
845.26	1611.75
845.43	1642.47
845.60	1718.25
845.77	1708.01
845.94	1658.85
846.10	1716.20
846.27	1626.09
846.44	1677.29
846.61	1656.81
846.78	1791.97
846.95	1716.20
847.12	1705.96
847.29	1716.20
847.46	1648.61
847.63	1804.26
847.80	1652.71
847.97	1699.81
848.14	1839.08
848.31	1738.73
848.48	1644.52
848.65	1705.96
848.82	1603.56
848.98	1806.31
849.15	1722.34
849.32	1710.05
849.49	1824.74
849.66	1683.43
849.83	1716.20
850.00	1597.42
850.17	1814.50
850.34	1646.57
850.51	1677.29
850.68	1720.29
850.85	1837.03
851.01	1701.86
851.18	1746.92
851.35	1710.05
851.52	1763.30
851.69	1843.17
851.86	1634.28
852.03	1751.01
852.20	1742.82
852.37	1742.82
852.53	1675.24
852.70	1751.01
852.87	1681.38
853.04	1714.15
853.21	1777.64
853.38	1824.74
853.55	1765.35
853.72	1800.16
853.89	1687.53
854.05	1697.77
854.22	1724.39
854.39	1736.68
854.56	1748.97
854.73	1789.92
854.90	1665.00
855.07	1783.78
855.23	1617.90
855.40	1677.29
855.57	1724.39
855.74	1619.94
855.91	1871.84
856.08	1642.47
856.25	1617.90
856.41	1621.99
856.58	1626.09
856.75	1767.40
856.92	1650.66
857.09	1746.92
857.26	1632.23
857.42	1703.91
857.59	1746.92
857.76	1748.97
857.93	1669.09
858.10	1632.23
858.27	1607.66
858.43	1732.58
858.60	1611.75
858.77	1671.14
858.94	1681.38
859.11	1722.34
859.27	1710.05
859.44	1736.68
859.61	1863.65
859.78	1742.82
859.95	1681.38
860.12	1728.49
860.28	1802.21
860.45	1798.12
860.62	1660.90
860.79	1791.97
860.95	1654.76
861.12	1695.72
861.29	1701.86
861.46	1673.19
861.63	1695.72
861.79	1724.39
861.96	1642.47
862.13	1642.47
862.30	1779.68
862.47	1724.39
862.63	1689.57
862.80	1671.14
862.97	1705.96
863.14	1787.88
863.30	1691.62
863.47	1615.85
863.64	1816.55
863.81	1769.44
863.97	1660.90
864.14	1699.81
864.31	1761.25
864.48	1691.62
864.65	1716.20
864.81	1765.35
864.98	1658.85
865.15	1705.96
865.32	1787.88
865.48	1748.97
865.65	1761.25
865.82	1648.61
865.98	1779.68
866.15	1740.77
866.32	1646.57
866.49	1722.34
866.65	1724.39
866.82	1632.23
866.99	1691.62
867.16	1681.38
867.32	1644.52
867.49	1697.77
867.66	1689.57
867.83	1689.57
867.99	1615.85
868.16	1693.67
868.33	1607.66
868.49	1718.25
868.66	1705.96
868.83	1730.53
868.99	1726.44
869.16	1695.72
869.33	1798.12
869.50	1681.38
869.66	1761.25
869.83	1675.24
870.00	1669.09
870.16	1708.01
870.33	1689.57
870.50	1705.96
870.66	1697.77
870.83	1832.93
871.00	1660.90
871.17	1730.53
871.33	1703.91
871.50	1724.39
871.67	1650.66
871.83	1644.52
872.00	1798.12
872.17	1611.75
872.33	1759.21
872.50	1791.97
872.67	1718.25
872.83	1677.29
873.00	1689.57
873.17	1742.82
873.33	1783.78
873.50	1722.34
873.67	1621.99
873.83	1660.90
874.00	1679.33
874.16	1757.16
874.33	1689.57
874.50	1677.29
874.66	1683.43
874.83	1767.40
875.00	1722.34
875.16	1730.53
875.33	1834.98
875.50	1617.90
875.66	1697.77
875.83	1767.40
875.99	1714.15
876.16	1703.91
876.33	1660.90
876.49	1689.57
876.66	1791.97
876.83	1650.66
876.99	1667.05
877.16	1675.24
877.32	1720.29
877.49	1564.65
877.66	1691.62
877.82	1783.78
877.99	1687.53
878.15	1734.63
878.32	1708.01
878.49	1724.39
878.65	1609.70
878.82	1751.01
878.98	1701.86
879.15	1837.03
879.32	1796.07
879.48	1669.09
879.65	1660.90
879.81	1665.00
879.98	1718.25
880.15	1638.38
880.31	1705.96
880.48	1671.14
880.64	1669.09
880.81	1716.20
880.97	1775.59
881.14	1744.87
881.31	1701.86
881.47	1839.08
881.64	1699.81
881.80	1636.33
881.97	1708.01
882.13	1767.40
882.30	1693.67
882.47	1640.42
882.63	1667.05
882.80	1650.66
882.96	1630.18
883.13	1791.97
883.29	1712.10
883.46	1753.06
883.62	1841.12
883.79	1742.82
883.95	1789.92
884.12	1751.01
884.29	1695.72
884.45	1632.23
884.62	1822.69
884.78	1644.52
884.95	1806.31
885.11	1558.50
885.28	1738.73
885.44	1644.52
885.61	1699.81
885.77	1716.20
885.94	1767.40
886.10	1722.34
886.27	1730.53
886.43	1785.83
886.60	1710.05
886.76	1730.53
886.93	1591.27
887.09	1791.97
887.26	1689.57
887.42	1755.11
887.59	1798.12
887.75	1832.93
887.92	1720.29
888.08	1773.54
888.25	1791.97
888.41	1802.21
888.58	1767.40
888.74	1662.95
888.91	1624.04
>>>>>End Processed Spectral Data<<<<<
