SpectraSuite Data File
++++++++++++++++++++++++++++++++++++
Date: Mon Jun 06 14:07:57 CEST 2016
User: root
Dark Spectrum Present: No
Reference Spectrum Present: No
Number of Sampled Component Spectra: 1
Spectrometers: USB4C02835
Integration Time (usec): 100000 (USB4C02835)
Spectra Averaged: 1 (USB4C02835)
Boxcar Smoothing: 0 (USB4C02835)
Correct for Electrical Dark: No (USB4C02835)
Strobe/Lamp Enabled: No (USB4C02835)
Correct for Detector Non-linearity: No (USB4C02835)
Correct for Stray Light: No (USB4C02835)
Number of Pixels in Processed Spectrum: 3648
>>>>>Begin Processed Spectral Data<<<<<
177.47	1464.30
177.69	1464.30
177.91	1464.30
178.13	1535.98
178.36	1447.91
178.58	1667.05
178.80	1732.58
179.02	1589.22
179.24	1615.85
179.46	1714.15
179.68	1703.91
179.90	1679.33
180.13	1732.58
180.35	1615.85
180.57	1671.14
180.79	1734.63
181.01	1771.49
181.23	1722.34
181.45	1763.30
181.67	1738.73
181.90	1771.49
182.12	1640.42
182.34	1658.85
182.56	1724.39
182.78	1691.62
183.00	1720.29
183.22	1714.15
183.44	1642.47
183.66	1787.88
183.89	1748.97
184.11	1681.38
184.33	1787.88
184.55	1740.77
184.77	1611.75
184.99	1720.29
185.21	1708.01
185.43	1841.12
185.65	1628.14
185.87	1683.43
186.10	1798.12
186.32	1865.70
186.54	1765.35
186.76	1732.58
186.98	1708.01
187.20	1656.81
187.42	1611.75
187.64	1794.02
187.86	1773.54
188.08	1724.39
188.30	1705.96
188.52	1669.09
188.75	1798.12
188.97	1738.73
189.19	1634.28
189.41	1665.00
189.63	1751.01
189.85	1689.57
190.07	1652.71
190.29	1665.00
190.51	1644.52
190.73	1609.70
190.95	1820.64
191.17	1632.23
191.39	1636.33
191.61	1701.86
191.84	1687.53
192.06	1705.96
192.28	1640.42
192.50	1834.98
192.72	1705.96
192.94	1648.61
193.16	1738.73
193.38	1703.91
193.60	1675.24
193.82	1705.96
194.04	1718.25
194.26	1693.67
194.48	1716.20
194.70	1644.52
194.92	1617.90
195.14	1730.53
195.36	1695.72
195.58	1695.72
195.80	1716.20
196.02	1628.14
196.24	1691.62
196.46	1779.68
196.69	1660.90
196.91	1847.27
197.13	1701.86
197.35	1660.90
197.57	1783.78
197.79	1714.15
198.01	1683.43
198.23	1689.57
198.45	1673.19
198.67	1701.86
198.89	1669.09
199.11	1757.16
199.33	1673.19
199.55	1601.51
199.77	1708.01
199.99	1787.88
200.21	1658.85
200.43	1802.21
200.65	1558.50
200.87	1578.98
201.09	1738.73
201.31	1742.82
201.53	1777.64
201.75	1712.10
201.97	1757.16
202.19	1697.77
202.41	1722.34
202.63	1869.80
202.85	1701.86
203.07	1681.38
203.29	1650.66
203.51	1660.90
203.73	1693.67
203.95	1877.99
204.17	1751.01
204.39	1708.01
204.61	1685.48
204.83	1734.63
205.05	1746.92
205.27	1705.96
205.49	1814.50
205.71	1730.53
205.93	1675.24
206.15	1718.25
206.37	1705.96
206.59	1675.24
206.81	1628.14
207.03	1621.99
207.25	1605.61
207.47	1726.44
207.69	1714.15
207.91	1730.53
208.13	1742.82
208.34	1679.33
208.56	1693.67
208.78	1771.49
209.00	1652.71
209.22	1626.09
209.44	1712.10
209.66	1714.15
209.88	1712.10
210.10	1642.47
210.32	1665.00
210.54	1691.62
210.76	1695.72
210.98	1710.05
211.20	1607.66
211.42	1699.81
211.64	1703.91
211.86	1742.82
212.08	1665.00
212.30	1681.38
212.52	1685.48
212.74	1695.72
212.96	1732.58
213.17	1757.16
213.39	1726.44
213.61	1816.55
213.83	1789.92
214.05	1644.52
214.27	1777.64
214.49	1621.99
214.71	1628.14
214.93	1751.01
215.15	1646.57
215.37	1791.97
215.59	1710.05
215.81	1730.53
216.03	1781.73
216.24	1652.71
216.46	1748.97
216.68	1751.01
216.90	1834.98
217.12	1757.16
217.34	1634.28
217.56	1765.35
217.78	1753.06
218.00	1744.87
218.22	1687.53
218.44	1718.25
218.66	1742.82
218.87	1761.25
219.09	1685.48
219.31	1675.24
219.53	1728.49
219.75	1665.00
219.97	1667.05
220.19	1763.30
220.41	1648.61
220.63	1685.48
220.85	1748.97
221.06	1720.29
221.28	1710.05
221.50	1710.05
221.72	1660.90
221.94	1722.34
222.16	1742.82
222.38	1761.25
222.60	1746.92
222.82	1634.28
223.03	1751.01
223.25	1619.94
223.47	1728.49
223.69	1783.78
223.91	1679.33
224.13	1744.87
224.35	1646.57
224.57	1720.29
224.78	1818.60
225.00	1638.38
225.22	1587.18
225.44	1665.00
225.66	1699.81
225.88	1689.57
226.10	1738.73
226.32	1746.92
226.53	1828.84
226.75	1710.05
226.97	1669.09
227.19	1732.58
227.41	1646.57
227.63	1716.20
227.85	1607.66
228.06	1710.05
228.28	1652.71
228.50	1718.25
228.72	1593.32
228.94	1665.00
229.16	1554.41
229.37	1595.37
229.59	1701.86
229.81	1822.69
230.03	1656.81
230.25	1558.50
230.47	1613.80
230.69	1689.57
230.90	1746.92
231.12	1632.23
231.34	1662.95
231.56	1697.77
231.78	1669.09
232.00	1779.68
232.21	1738.73
232.43	1693.67
232.65	1578.98
232.87	1675.24
233.09	1703.91
233.30	1671.14
233.52	1718.25
233.74	1724.39
233.96	1673.19
234.18	1751.01
234.40	1703.91
234.61	1775.59
234.83	1695.72
235.05	1650.66
235.27	1785.83
235.49	1812.45
235.70	1732.58
235.92	1794.02
236.14	1738.73
236.36	1818.60
236.58	1638.38
236.79	1718.25
237.01	1665.00
237.23	1671.14
237.45	1732.58
237.67	1673.19
237.88	1732.58
238.10	1808.36
238.32	1624.04
238.54	1656.81
238.76	1675.24
238.97	1679.33
239.19	1652.71
239.41	1691.62
239.63	1759.21
239.85	1595.37
240.06	1722.34
240.28	1667.05
240.50	1740.77
240.72	1740.77
240.93	1724.39
241.15	1652.71
241.37	1689.57
241.59	1779.68
241.81	1677.29
242.02	1693.67
242.24	1732.58
242.46	1718.25
242.68	1611.75
242.89	1738.73
243.11	1763.30
243.33	1699.81
243.55	1732.58
243.76	1751.01
243.98	1681.38
244.20	1671.14
244.42	1652.71
244.64	1693.67
244.85	1650.66
245.07	1624.04
245.29	1726.44
245.51	1693.67
245.72	1669.09
245.94	1773.54
246.16	1701.86
246.38	1722.34
246.59	1701.86
246.81	1642.47
247.03	1726.44
247.24	1599.46
247.46	1722.34
247.68	1732.58
247.90	1665.00
248.11	1640.42
248.33	1718.25
248.55	1650.66
248.77	1722.34
248.98	1708.01
249.20	1742.82
249.42	1753.06
249.64	1699.81
249.85	1722.34
250.07	1681.38
250.29	1720.29
250.50	1681.38
250.72	1607.66
250.94	1718.25
251.16	1837.03
251.37	1753.06
251.59	1757.16
251.81	1718.25
252.02	1726.44
252.24	1669.09
252.46	1714.15
252.68	1791.97
252.89	1601.51
253.11	1566.70
253.33	1798.12
253.54	1751.01
253.76	1718.25
253.98	1734.63
254.20	1685.48
254.41	1626.09
254.63	1763.30
254.85	1648.61
255.06	1744.87
255.28	1783.78
255.50	1624.04
255.71	1638.38
255.93	1574.89
256.15	1636.33
256.36	1769.44
256.58	1640.42
256.80	1718.25
257.02	1673.19
257.23	1656.81
257.45	1730.53
257.67	1742.82
257.88	1593.32
258.10	1708.01
258.32	1669.09
258.53	1705.96
258.75	1808.36
258.97	1669.09
259.18	1693.67
259.40	1630.18
259.62	1798.12
259.83	1763.30
260.05	1687.53
260.27	1988.58
260.48	1748.97
260.70	1646.57
260.92	1785.83
261.13	1734.63
261.35	1703.91
261.57	1667.05
261.78	1605.61
262.00	1626.09
262.22	1671.14
262.43	1714.15
262.65	1640.42
262.86	1609.70
263.08	1783.78
263.30	1701.86
263.51	1587.18
263.73	1681.38
263.95	1810.40
264.16	1648.61
264.38	1740.77
264.60	1798.12
264.81	1652.71
265.03	1699.81
265.25	1767.40
265.46	1621.99
265.68	1802.21
265.89	1722.34
266.11	1638.38
266.33	1740.77
266.54	1755.11
266.76	1714.15
266.98	1710.05
267.19	1765.35
267.41	1775.59
267.62	1695.72
267.84	1599.46
268.06	1787.88
268.27	1667.05
268.49	1757.16
268.70	1773.54
268.92	1730.53
269.14	1708.01
269.35	1634.28
269.57	1603.56
269.79	1763.30
270.00	1738.73
270.22	1769.44
270.43	1708.01
270.65	1535.98
270.87	1628.14
271.08	1755.11
271.30	1724.39
271.51	1685.48
271.73	1765.35
271.95	1738.73
272.16	1705.96
272.38	1656.81
272.59	1708.01
272.81	1689.57
273.02	1798.12
273.24	1697.77
273.46	1779.68
273.67	1607.66
273.89	1714.15
274.10	1697.77
274.32	1730.53
274.54	1705.96
274.75	1710.05
274.97	1667.05
275.18	1705.96
275.40	1783.78
275.61	1753.06
275.83	1701.86
276.05	1636.33
276.26	1705.96
276.48	1763.30
276.69	1652.71
276.91	1650.66
277.12	1746.92
277.34	1781.73
277.55	1755.11
277.77	1710.05
277.99	1712.10
278.20	1568.74
278.42	1716.20
278.63	1665.00
278.85	1740.77
279.06	1685.48
279.28	1736.68
279.49	1728.49
279.71	1787.88
279.93	1656.81
280.14	1636.33
280.36	1669.09
280.57	1771.49
280.79	1695.72
281.00	1667.05
281.22	1665.00
281.43	1791.97
281.65	1562.60
281.86	1736.68
282.08	1763.30
282.29	1816.55
282.51	1662.95
282.73	1689.57
282.94	1607.66
283.16	1705.96
283.37	1779.68
283.59	1718.25
283.80	1705.96
284.02	1728.49
284.23	1730.53
284.45	1632.23
284.66	1673.19
284.88	1634.28
285.09	1669.09
285.31	1748.97
285.52	1726.44
285.74	1656.81
285.95	1734.63
286.17	1736.68
286.38	1720.29
286.60	1732.58
286.81	1796.07
287.03	1734.63
287.24	1763.30
287.46	1714.15
287.67	1716.20
287.89	1798.12
288.10	1779.68
288.32	1767.40
288.53	1800.16
288.75	1708.01
288.96	1685.48
289.18	1640.42
289.39	1740.77
289.61	1796.07
289.82	1775.59
290.04	1830.88
290.25	1656.81
290.47	1755.11
290.68	1705.96
290.90	1783.78
291.11	1570.79
291.33	1722.34
291.54	1624.04
291.76	1683.43
291.97	1724.39
292.18	1759.21
292.40	1656.81
292.61	1642.47
292.83	1826.79
293.04	1830.88
293.26	1728.49
293.47	1703.91
293.69	1652.71
293.90	1681.38
294.12	1755.11
294.33	1804.26
294.55	1624.04
294.76	1748.97
294.97	1761.25
295.19	1845.22
295.40	1681.38
295.62	1697.77
295.83	1738.73
296.05	1597.42
296.26	1714.15
296.48	1656.81
296.69	1728.49
296.90	1636.33
297.12	1722.34
297.33	1810.40
297.55	1630.18
297.76	1705.96
297.98	1769.44
298.19	1724.39
298.41	1667.05
298.62	1689.57
298.83	1769.44
299.05	1677.29
299.26	1722.34
299.48	1695.72
299.69	1759.21
299.90	1665.00
300.12	1656.81
300.33	1791.97
300.55	1746.92
300.76	1665.00
300.98	1615.85
301.19	1718.25
301.40	1591.27
301.62	1656.81
301.83	1761.25
302.05	1677.29
302.26	1650.66
302.47	1710.05
302.69	1595.37
302.90	1677.29
303.12	1599.46
303.33	1716.20
303.54	1820.64
303.76	1669.09
303.97	1677.29
304.19	1748.97
304.40	1681.38
304.61	1687.53
304.83	1845.22
305.04	1759.21
305.26	1781.73
305.47	1683.43
305.68	1685.48
305.90	1619.94
306.11	1744.87
306.33	1681.38
306.54	1628.14
306.75	1697.77
306.97	1601.51
307.18	1658.85
307.39	1677.29
307.61	1765.35
307.82	1656.81
308.04	1751.01
308.25	1656.81
308.46	1679.33
308.68	1779.68
308.89	1771.49
309.10	1703.91
309.32	1681.38
309.53	1718.25
309.74	1742.82
309.96	1654.76
310.17	1763.30
310.39	1648.61
310.60	1746.92
310.81	1748.97
311.03	1601.51
311.24	1759.21
311.45	1693.67
311.67	1759.21
311.88	1787.88
312.09	1703.91
312.31	1652.71
312.52	1736.68
312.73	1724.39
312.95	1648.61
313.16	1722.34
313.37	1693.67
313.59	1755.11
313.80	1779.68
314.01	1804.26
314.23	1634.28
314.44	1673.19
314.65	1564.65
314.87	1673.19
315.08	1644.52
315.29	1656.81
315.51	1654.76
315.72	1628.14
315.93	1751.01
316.15	1708.01
316.36	1691.62
316.57	1652.71
316.79	1705.96
317.00	1576.94
317.21	1703.91
317.43	1662.95
317.64	1718.25
317.85	1634.28
318.07	1636.33
318.28	1804.26
318.49	1783.78
318.70	1888.23
318.92	1771.49
319.13	1863.65
319.34	1818.60
319.56	1783.78
319.77	1798.12
319.98	1718.25
320.20	1734.63
320.41	1718.25
320.62	1761.25
320.83	1636.33
321.05	1814.50
321.26	1789.92
321.47	1693.67
321.69	1757.16
321.90	1601.51
322.11	1648.61
322.32	1751.01
322.54	1781.73
322.75	1628.14
322.96	1767.40
323.18	1673.19
323.39	1576.94
323.60	1628.14
323.81	1685.48
324.03	1628.14
324.24	1648.61
324.45	1708.01
324.66	1724.39
324.88	1769.44
325.09	1853.41
325.30	1699.81
325.52	1716.20
325.73	1679.33
325.94	1738.73
326.15	1632.23
326.37	1611.75
326.58	1744.87
326.79	1791.97
327.00	1708.01
327.22	1855.46
327.43	1701.86
327.64	1665.00
327.85	1714.15
328.07	1677.29
328.28	1812.45
328.49	1660.90
328.70	1677.29
328.92	1720.29
329.13	1769.44
329.34	1675.24
329.55	1818.60
329.76	1685.48
329.98	1669.09
330.19	1804.26
330.40	1748.97
330.61	1687.53
330.83	1755.11
331.04	1617.90
331.25	1673.19
331.46	1679.33
331.68	1660.90
331.89	1748.97
332.10	1685.48
332.31	1638.38
332.52	1693.67
332.74	1785.83
332.95	1683.43
333.16	1640.42
333.37	1783.78
333.58	1669.09
333.80	1681.38
334.01	1640.42
334.22	1724.39
334.43	1628.14
334.64	1611.75
334.86	1638.38
335.07	1591.27
335.28	1755.11
335.49	1583.08
335.70	1738.73
335.92	1820.64
336.13	1812.45
336.34	1734.63
336.55	1738.73
336.76	1763.30
336.98	1554.41
337.19	1662.95
337.40	1822.69
337.61	1857.51
337.82	1621.99
338.04	1705.96
338.25	1599.46
338.46	1679.33
338.67	1683.43
338.88	1558.50
339.09	1654.76
339.31	1714.15
339.52	1626.09
339.73	1611.75
339.94	1732.58
340.15	1712.10
340.36	1683.43
340.58	1677.29
340.79	1650.66
341.00	1722.34
341.21	1697.77
341.42	1818.60
341.63	1654.76
341.85	1650.66
342.06	1728.49
342.27	1665.00
342.48	1687.53
342.69	1566.70
342.90	1697.77
343.12	1726.44
343.33	1681.38
343.54	1669.09
343.75	1869.80
343.96	1710.05
344.17	1642.47
344.38	1634.28
344.60	1599.46
344.81	1611.75
345.02	1691.62
345.23	1746.92
345.44	1822.69
345.65	1757.16
345.86	1718.25
346.07	1685.48
346.29	1613.80
346.50	1769.44
346.71	1695.72
346.92	1804.26
347.13	1800.16
347.34	1753.06
347.55	1652.71
347.76	1697.77
347.98	1619.94
348.19	1593.32
348.40	1783.78
348.61	1570.79
348.82	1748.97
349.03	1746.92
349.24	1667.05
349.45	1824.74
349.66	1578.98
349.88	1767.40
350.09	1705.96
350.30	1755.11
350.51	1832.93
350.72	1748.97
350.93	1757.16
351.14	1656.81
351.35	1783.78
351.56	1640.42
351.77	1648.61
351.99	1736.68
352.20	1832.93
352.41	1775.59
352.62	1646.57
352.83	1724.39
353.04	1648.61
353.25	1638.38
353.46	1728.49
353.67	1791.97
353.88	1656.81
354.09	1744.87
354.30	1697.77
354.52	1769.44
354.73	1708.01
354.94	1697.77
355.15	1708.01
355.36	1767.40
355.57	1714.15
355.78	1767.40
355.99	1658.85
356.20	1671.14
356.41	1775.59
356.62	1732.58
356.83	1722.34
357.04	1812.45
357.25	1615.85
357.46	1660.90
357.68	1554.41
357.89	1679.33
358.10	1738.73
358.31	1726.44
358.52	1679.33
358.73	1740.77
358.94	1642.47
359.15	1640.42
359.36	1716.20
359.57	1634.28
359.78	1705.96
359.99	1710.05
360.20	1697.77
360.41	1730.53
360.62	1794.02
360.83	1697.77
361.04	1746.92
361.25	1789.92
361.46	1816.55
361.67	1746.92
361.88	1791.97
362.09	1687.53
362.30	1656.81
362.51	1687.53
362.72	1740.77
362.93	1716.20
363.14	1693.67
363.35	1689.57
363.56	1716.20
363.78	1759.21
363.99	1724.39
364.20	1701.86
364.41	1773.54
364.62	1794.02
364.83	1681.38
365.04	1703.91
365.25	1677.29
365.46	1851.36
365.67	1585.13
365.88	1632.23
366.09	1724.39
366.30	1644.52
366.51	1746.92
366.72	1648.61
366.93	1724.39
367.14	1613.80
367.35	1783.78
367.56	1675.24
367.77	1789.92
367.98	1701.86
368.18	1648.61
368.39	1687.53
368.60	1677.29
368.81	1675.24
369.02	1779.68
369.23	1642.47
369.44	1544.17
369.65	1734.63
369.86	1724.39
370.07	1810.40
370.28	1669.09
370.49	1753.06
370.70	1806.31
370.91	1685.48
371.12	1615.85
371.33	1769.44
371.54	1660.90
371.75	1787.88
371.96	1566.70
372.17	1705.96
372.38	1718.25
372.59	1701.86
372.80	1697.77
373.01	1773.54
373.22	1675.24
373.43	1748.97
373.64	1701.86
373.85	1791.97
374.06	1779.68
374.26	1697.77
374.47	1708.01
374.68	1804.26
374.89	1656.81
375.10	1699.81
375.31	1757.16
375.52	1695.72
375.73	1710.05
375.94	1613.80
376.15	1828.84
376.36	1615.85
376.57	1628.14
376.78	1679.33
376.99	1695.72
377.20	1818.60
377.40	1683.43
377.61	1806.31
377.82	1685.48
378.03	1757.16
378.24	1652.71
378.45	1734.63
378.66	1728.49
378.87	1642.47
379.08	1626.09
379.29	1722.34
379.50	1734.63
379.71	1644.52
379.91	1726.44
380.12	1615.85
380.33	1746.92
380.54	1683.43
380.75	1619.94
380.96	1691.62
381.17	1708.01
381.38	1660.90
381.59	1724.39
381.80	1716.20
382.00	1828.84
382.21	1779.68
382.42	1818.60
382.63	1800.16
382.84	1820.64
383.05	1705.96
383.26	1773.54
383.47	1726.44
383.68	1744.87
383.88	1771.49
384.09	1681.38
384.30	1810.40
384.51	1665.00
384.72	1613.80
384.93	1603.56
385.14	1708.01
385.35	1753.06
385.55	1619.94
385.76	1767.40
385.97	1714.15
386.18	1669.09
386.39	1728.49
386.60	1740.77
386.81	1773.54
387.02	1632.23
387.22	1644.52
387.43	1787.88
387.64	1789.92
387.85	1939.43
388.06	2226.14
388.27	4343.74
388.48	6924.18
388.68	8419.20
388.89	9811.82
389.10	10092.39
389.31	8726.39
389.52	7780.23
389.73	6780.82
389.93	6365.09
390.14	5949.35
390.35	5259.18
390.56	4655.03
390.77	3827.65
390.98	3178.45
391.18	2562.01
391.39	2095.07
391.60	1849.32
391.81	1767.40
392.02	1652.71
392.23	1800.16
392.43	1697.77
392.64	1765.35
392.85	1712.10
393.06	1814.50
393.27	1648.61
393.47	1710.05
393.68	1744.87
393.89	1679.33
394.10	1796.07
394.31	1603.56
394.52	1671.14
394.72	1689.57
394.93	1861.60
395.14	1669.09
395.35	1781.73
395.56	1691.62
395.76	1708.01
395.97	1837.03
396.18	1863.65
396.39	1867.75
396.60	2052.06
396.80	1908.71
397.01	1806.31
397.22	1818.60
397.43	1828.84
397.64	1718.25
397.84	1830.88
398.05	1837.03
398.26	1777.64
398.47	1789.92
398.67	1722.34
398.88	1738.73
399.09	1742.82
399.30	1650.66
399.51	1757.16
399.71	1615.85
399.92	1759.21
400.13	1720.29
400.34	1705.96
400.54	1695.72
400.75	1783.78
400.96	1710.05
401.17	1751.01
401.37	1763.30
401.58	1718.25
401.79	1759.21
402.00	1902.56
402.21	2045.92
402.41	1992.67
402.62	1914.85
402.83	2019.30
403.04	2093.02
403.24	2050.02
403.45	1871.84
403.66	1902.56
403.87	1886.18
404.07	1902.56
404.28	1890.28
404.49	1882.08
404.70	1847.27
404.90	1691.62
405.11	1761.25
405.32	1777.64
405.52	1716.20
405.73	1708.01
405.94	1701.86
406.15	1677.29
406.35	1771.49
406.56	1714.15
406.77	1759.21
406.98	1732.58
407.18	1669.09
407.39	1765.35
407.60	1648.61
407.80	1751.01
408.01	1656.81
408.22	1765.35
408.43	1697.77
408.63	1757.16
408.84	1724.39
409.05	1751.01
409.25	1675.24
409.46	1640.42
409.67	1652.71
409.88	1693.67
410.08	1753.06
410.29	1677.29
410.50	1693.67
410.70	1732.58
410.91	1644.52
411.12	1765.35
411.32	1742.82
411.53	1605.61
411.74	1843.17
411.95	1787.88
412.15	1710.05
412.36	1812.45
412.57	1720.29
412.77	1775.59
412.98	1691.62
413.19	1699.81
413.39	1761.25
413.60	1693.67
413.81	1785.83
414.01	1654.76
414.22	1738.73
414.43	1787.88
414.63	1712.10
414.84	1808.36
415.05	1742.82
415.25	1636.33
415.46	1722.34
415.67	1675.24
415.87	1724.39
416.08	1712.10
416.29	1722.34
416.49	1740.77
416.70	1687.53
416.91	1679.33
417.11	1646.57
417.32	1791.97
417.53	1832.93
417.73	1742.82
417.94	1683.43
418.15	1748.97
418.35	1642.47
418.56	1732.58
418.77	1865.70
418.97	1714.15
419.18	1708.01
419.38	1607.66
419.59	1665.00
419.80	1738.73
420.00	1634.28
420.21	1701.86
420.42	1744.87
420.62	1691.62
420.83	1656.81
421.04	1693.67
421.24	1705.96
421.45	1687.53
421.65	1787.88
421.86	1624.04
422.07	1781.73
422.27	1722.34
422.48	1718.25
422.69	1654.76
422.89	1691.62
423.10	1718.25
423.30	1665.00
423.51	1687.53
423.72	1687.53
423.92	1716.20
424.13	1695.72
424.33	1740.77
424.54	1806.31
424.75	1650.66
424.95	1748.97
425.16	1775.59
425.36	1695.72
425.57	1718.25
425.78	1759.21
425.98	1800.16
426.19	1777.64
426.39	1636.33
426.60	1781.73
426.81	1744.87
427.01	1701.86
427.22	1687.53
427.42	1636.33
427.63	1710.05
427.83	1708.01
428.04	1818.60
428.25	1800.16
428.45	1769.44
428.66	1832.93
428.86	1621.99
429.07	1697.77
429.28	1804.26
429.48	1730.53
429.69	1697.77
429.89	1732.58
430.10	1787.88
430.30	1736.68
430.51	1755.11
430.71	1699.81
430.92	1708.01
431.13	1609.70
431.33	1687.53
431.54	1701.86
431.74	1730.53
431.95	1851.36
432.15	1703.91
432.36	1703.91
432.56	1800.16
432.77	1789.92
432.98	1853.41
433.18	1773.54
433.39	1632.23
433.59	1724.39
433.80	1808.36
434.00	1865.70
434.21	1738.73
434.41	1734.63
434.62	1867.75
434.82	1597.42
435.03	1703.91
435.23	1751.01
435.44	1599.46
435.64	1728.49
435.85	1753.06
436.06	1779.68
436.26	1755.11
436.47	1603.56
436.67	1703.91
436.88	1693.67
437.08	1763.30
437.29	1779.68
437.49	1742.82
437.70	1804.26
437.90	1681.38
438.11	1851.36
438.31	1714.15
438.52	1886.18
438.72	1877.99
438.93	1871.84
439.13	1810.40
439.34	1763.30
439.54	1748.97
439.75	1763.30
439.95	1781.73
440.16	1677.29
440.36	1714.15
440.57	1732.58
440.77	1761.25
440.98	1685.48
441.18	1800.16
441.39	1726.44
441.59	1683.43
441.80	1867.75
442.00	1660.90
442.21	1783.78
442.41	1650.66
442.62	1751.01
442.82	1677.29
443.02	1658.85
443.23	1746.92
443.43	1695.72
443.64	1861.60
443.84	1726.44
444.05	1796.07
444.25	1763.30
444.46	1621.99
444.66	1681.38
444.87	1779.68
445.07	1669.09
445.28	1658.85
445.48	1822.69
445.69	1748.97
445.89	1853.41
446.09	1751.01
446.30	2023.39
446.50	2664.41
446.71	3811.27
446.91	4356.03
447.12	4765.62
447.32	4902.84
447.53	4296.64
447.73	3919.81
447.93	3516.36
448.14	3325.90
448.34	3174.35
448.55	2869.20
448.75	2846.68
448.96	2664.41
449.16	2480.09
449.36	2303.96
449.57	2013.15
449.77	1888.23
449.98	1773.54
450.18	1763.30
450.39	1810.40
450.59	1789.92
450.79	1726.44
451.00	1746.92
451.20	1755.11
451.41	1769.44
451.61	1767.40
451.81	1724.39
452.02	1755.11
452.22	1671.14
452.43	1730.53
452.63	1751.01
452.84	1697.77
453.04	1701.86
453.24	1759.21
453.45	1675.24
453.65	1712.10
453.86	1753.06
454.06	1779.68
454.26	1767.40
454.47	1769.44
454.67	1763.30
454.87	1769.44
455.08	1689.57
455.28	1779.68
455.49	1767.40
455.69	1701.86
455.89	1800.16
456.10	1738.73
456.30	1691.62
456.51	1744.87
456.71	1828.84
456.91	1751.01
457.12	1697.77
457.32	1738.73
457.52	1689.57
457.73	1796.07
457.93	1828.84
458.14	1755.11
458.34	1667.05
458.54	1665.00
458.75	1806.31
458.95	1777.64
459.15	1779.68
459.36	1751.01
459.56	1812.45
459.76	1882.08
459.97	1734.63
460.17	1646.57
460.37	1804.26
460.58	1740.77
460.78	1791.97
460.99	1681.38
461.19	1734.63
461.39	1742.82
461.60	1736.68
461.80	1751.01
462.00	1642.47
462.21	1718.25
462.41	1703.91
462.61	1734.63
462.82	1654.76
463.02	1769.44
463.22	1648.61
463.43	1781.73
463.63	1732.58
463.83	1775.59
464.04	1732.58
464.24	1728.49
464.44	1804.26
464.64	1753.06
464.85	1699.81
465.05	1791.97
465.25	1677.29
465.46	1687.53
465.66	1757.16
465.86	1765.35
466.07	1699.81
466.27	1626.09
466.47	1650.66
466.68	1574.89
466.88	1740.77
467.08	1726.44
467.29	1787.88
467.49	1689.57
467.69	1675.24
467.89	1738.73
468.10	1671.14
468.30	1796.07
468.50	1771.49
468.71	1761.25
468.91	1632.23
469.11	1804.26
469.31	1689.57
469.52	1687.53
469.72	1785.83
469.92	1900.52
470.13	1703.91
470.33	1716.20
470.53	1853.41
470.73	2142.18
470.94	2299.87
471.14	2330.59
471.34	2519.00
471.54	2449.37
471.75	2256.86
471.95	2164.70
472.15	2115.55
472.36	2084.83
472.56	2084.83
472.76	2064.35
472.96	1961.95
473.17	1906.66
473.37	1916.90
473.57	1763.30
473.77	1845.22
473.98	1771.49
474.18	1730.53
474.38	1912.80
474.58	1708.01
474.79	1720.29
474.99	1748.97
475.19	1808.36
475.39	1675.24
475.60	1757.16
475.80	1751.01
476.00	1695.72
476.20	1695.72
476.41	1671.14
476.61	1802.21
476.81	1843.17
477.01	1726.44
477.21	1763.30
477.42	1812.45
477.62	1642.47
477.82	1767.40
478.02	1695.72
478.23	1734.63
478.43	1660.90
478.63	1615.85
478.83	1673.19
479.03	1718.25
479.24	1822.69
479.44	1796.07
479.64	1675.24
479.84	1609.70
480.04	1654.76
480.25	1820.64
480.45	1677.29
480.65	1675.24
480.85	1820.64
481.06	1656.81
481.26	1740.77
481.46	1722.34
481.66	1728.49
481.86	1687.53
482.06	1757.16
482.27	1662.95
482.47	1742.82
482.67	1722.34
482.87	1691.62
483.07	1851.36
483.28	1677.29
483.48	1656.81
483.68	1654.76
483.88	1607.66
484.08	1646.57
484.29	1660.90
484.49	1755.11
484.69	1636.33
484.89	1761.25
485.09	1714.15
485.29	1746.92
485.50	1769.44
485.70	1712.10
485.90	1824.74
486.10	1761.25
486.30	1755.11
486.50	1796.07
486.71	1730.53
486.91	1732.58
487.11	1771.49
487.31	1595.37
487.51	1722.34
487.71	1656.81
487.91	1648.61
488.12	1642.47
488.32	1675.24
488.52	1613.80
488.72	1603.56
488.92	1763.30
489.12	1705.96
489.32	1849.32
489.53	1753.06
489.73	1675.24
489.93	1800.16
490.13	1746.92
490.33	1615.85
490.53	1683.43
490.73	1767.40
490.94	1628.14
491.14	1779.68
491.34	1789.92
491.54	2123.74
491.74	2549.72
491.94	2865.11
492.14	3121.10
492.34	3041.23
492.54	2783.19
492.75	2562.01
492.95	2445.27
493.15	2387.93
493.35	2211.81
493.55	2197.47
493.75	2066.40
493.95	2119.65
494.15	2095.07
494.35	1949.67
494.56	1869.80
494.76	1740.77
494.96	1771.49
495.16	1716.20
495.36	1726.44
495.56	1640.42
495.76	1744.87
495.96	1720.29
496.16	1638.38
496.36	1789.92
496.56	1796.07
496.77	1808.36
496.97	1773.54
497.17	1693.67
497.37	1636.33
497.57	1755.11
497.77	1718.25
497.97	1765.35
498.17	1728.49
498.37	1646.57
498.57	1771.49
498.77	1703.91
498.97	1791.97
499.17	1851.36
499.38	1675.24
499.58	1736.68
499.78	1755.11
499.98	1796.07
500.18	1738.73
500.38	1785.83
500.58	1953.76
500.78	2658.26
500.98	4630.46
501.18	5900.20
501.38	6944.66
501.58	7110.55
501.78	6711.19
501.98	5480.36
502.18	5064.63
502.38	4536.25
502.58	4267.97
502.78	3782.60
502.98	3739.59
503.18	3600.33
503.38	3246.03
503.59	2838.48
503.79	2688.98
503.99	2500.57
504.19	2392.03
504.39	2277.34
504.59	2191.33
504.79	2133.98
504.99	1992.67
505.19	1937.38
505.39	1882.08
505.59	1896.42
505.79	1927.14
505.99	1837.03
506.19	1810.40
506.39	1826.79
506.59	1822.69
506.79	1759.21
506.99	1773.54
507.19	1765.35
507.39	1775.59
507.59	1646.57
507.79	1642.47
507.99	1697.77
508.19	1734.63
508.39	1736.68
508.59	1763.30
508.79	1882.08
508.99	1861.60
509.19	1732.58
509.39	1755.11
509.59	1669.09
509.79	1701.86
509.99	1665.00
510.19	1724.39
510.39	1818.60
510.59	1734.63
510.79	1576.94
510.99	1722.34
511.19	1769.44
511.39	1779.68
511.59	1748.97
511.79	1796.07
511.99	1720.29
512.19	1841.12
512.38	1675.24
512.58	1701.86
512.78	1783.78
512.98	1791.97
513.18	1873.89
513.38	1640.42
513.58	1775.59
513.78	1724.39
513.98	1755.11
514.18	1703.91
514.38	1740.77
514.58	1716.20
514.78	1628.14
514.98	1685.48
515.18	1673.19
515.38	1679.33
515.58	1783.78
515.78	1638.38
515.98	1773.54
516.18	1800.16
516.38	1667.05
516.57	1777.64
516.77	1691.62
516.97	1796.07
517.17	1734.63
517.37	1673.19
517.57	1726.44
517.77	1728.49
517.97	1677.29
518.17	1820.64
518.37	1636.33
518.57	1615.85
518.77	1708.01
518.97	1740.77
519.16	1810.40
519.36	1826.79
519.56	1748.97
519.76	1691.62
519.96	1732.58
520.16	1847.27
520.36	1619.94
520.56	1849.32
520.76	1728.49
520.96	1703.91
521.16	1812.45
521.35	1818.60
521.55	1804.26
521.75	1771.49
521.95	1679.33
522.15	1771.49
522.35	1581.03
522.55	1714.15
522.75	1806.31
522.95	1767.40
523.14	1636.33
523.34	1732.58
523.54	1660.90
523.74	1832.93
523.94	1746.92
524.14	1601.51
524.34	1718.25
524.54	1787.88
524.73	1648.61
524.93	1814.50
525.13	1781.73
525.33	1705.96
525.53	1808.36
525.73	1726.44
525.93	1634.28
526.13	1791.97
526.32	1775.59
526.52	1746.92
526.72	1724.39
526.92	1683.43
527.12	1658.85
527.32	1648.61
527.52	1757.16
527.71	1746.92
527.91	1708.01
528.11	1693.67
528.31	1708.01
528.51	1656.81
528.71	1816.55
528.90	1734.63
529.10	1775.59
529.30	1853.41
529.50	1677.29
529.70	1734.63
529.90	1673.19
530.09	1796.07
530.29	1640.42
530.49	1746.92
530.69	1904.61
530.89	1763.30
531.09	1761.25
531.28	1644.52
531.48	1820.64
531.68	1757.16
531.88	1679.33
532.08	1757.16
532.28	1671.14
532.47	1765.35
532.67	1857.51
532.87	1691.62
533.07	1708.01
533.27	1695.72
533.46	1738.73
533.66	1697.77
533.86	1755.11
534.06	1753.06
534.26	1789.92
534.45	1753.06
534.65	1773.54
534.85	1761.25
535.05	1710.05
535.25	1695.72
535.44	1761.25
535.64	1697.77
535.84	1654.76
536.04	1716.20
536.24	1656.81
536.43	1722.34
536.63	1796.07
536.83	1781.73
537.03	1695.72
537.22	1656.81
537.42	1662.95
537.62	1787.88
537.82	1673.19
538.02	1802.21
538.21	1781.73
538.41	1947.62
538.61	1810.40
538.81	1687.53
539.00	1789.92
539.20	1669.09
539.40	1699.81
539.60	1767.40
539.79	1802.21
539.99	1789.92
540.19	1714.15
540.39	1751.01
540.58	1751.01
540.78	1804.26
540.98	1757.16
541.18	1761.25
541.37	1759.21
541.57	1746.92
541.77	1734.63
541.97	1667.05
542.16	1662.95
542.36	1675.24
542.56	1736.68
542.76	1820.64
542.95	1697.77
543.15	1738.73
543.35	1740.77
543.54	1779.68
543.74	1789.92
543.94	1845.22
544.14	1742.82
544.33	1763.30
544.53	1775.59
544.73	1720.29
544.93	1757.16
545.12	1693.67
545.32	1757.16
545.52	1691.62
545.71	1691.62
545.91	1753.06
546.11	1722.34
546.30	1695.72
546.50	1734.63
546.70	1763.30
546.90	1732.58
547.09	1642.47
547.29	1765.35
547.49	1787.88
547.68	1755.11
547.88	1728.49
548.08	1783.78
548.27	2148.32
548.47	1753.06
548.67	1728.49
548.87	1701.86
549.06	1708.01
549.26	1755.11
549.46	1798.12
549.65	1667.05
549.85	1724.39
550.05	1728.49
550.24	1683.43
550.44	1771.49
550.64	1716.20
550.83	1732.58
551.03	1759.21
551.23	1773.54
551.42	1853.41
551.62	1718.25
551.82	1716.20
552.01	1726.44
552.21	1775.59
552.41	1757.16
552.60	1769.44
552.80	1787.88
553.00	1730.53
553.19	1734.63
553.39	1787.88
553.59	1675.24
553.78	1777.64
553.98	1687.53
554.17	1730.53
554.37	1791.97
554.57	1714.15
554.76	1685.48
554.96	1691.62
555.16	1753.06
555.35	1683.43
555.55	1697.77
555.75	1804.26
555.94	1779.68
556.14	1705.96
556.33	1839.08
556.53	1703.91
556.73	1726.44
556.92	1716.20
557.12	1882.08
557.32	1886.18
557.51	1832.93
557.71	1726.44
557.90	1830.88
558.10	1882.08
558.30	1708.01
558.49	1761.25
558.69	1705.96
558.88	1738.73
559.08	1677.29
559.28	1744.87
559.47	1701.86
559.67	1763.30
559.86	1824.74
560.06	1716.20
560.26	1722.34
560.45	1705.96
560.65	1714.15
560.84	1789.92
561.04	1708.01
561.24	1796.07
561.43	1708.01
561.63	1773.54
561.82	1716.20
562.02	1769.44
562.22	1738.73
562.41	1714.15
562.61	1728.49
562.80	1738.73
563.00	1896.42
563.19	1794.02
563.39	1759.21
563.59	1824.74
563.78	1648.61
563.98	1621.99
564.17	1669.09
564.37	1667.05
564.56	1773.54
564.76	1691.62
564.96	1802.21
565.15	1777.64
565.35	1861.60
565.54	1693.67
565.74	1789.92
565.93	1746.92
566.13	1789.92
566.32	1751.01
566.52	1818.60
566.71	1658.85
566.91	1820.64
567.11	1621.99
567.30	1761.25
567.50	1722.34
567.69	1765.35
567.89	1751.01
568.08	1716.20
568.28	1703.91
568.47	1652.71
568.67	1763.30
568.86	1746.92
569.06	1785.83
569.25	1714.15
569.45	1730.53
569.64	1701.86
569.84	1720.29
570.04	1787.88
570.23	1613.80
570.43	1734.63
570.62	1701.86
570.82	1875.94
571.01	1665.00
571.21	1787.88
571.40	1652.71
571.60	1908.71
571.79	1730.53
571.99	1710.05
572.18	1675.24
572.38	1783.78
572.57	1710.05
572.77	1757.16
572.96	1906.66
573.16	1667.05
573.35	1773.54
573.55	1832.93
573.74	1701.86
573.94	1755.11
574.13	1798.12
574.33	1738.73
574.52	1849.32
574.71	1701.86
574.91	1744.87
575.10	1710.05
575.30	1699.81
575.49	1718.25
575.69	1720.29
575.88	1681.38
576.08	1740.77
576.27	1806.31
576.47	1796.07
576.66	1796.07
576.86	1880.04
577.05	1714.15
577.25	1818.60
577.44	1853.41
577.64	1718.25
577.83	1767.40
578.02	1744.87
578.22	1722.34
578.41	1875.94
578.61	1701.86
578.80	1595.37
579.00	1755.11
579.19	1769.44
579.39	1822.69
579.58	1814.50
579.77	1775.59
579.97	1837.03
580.16	1777.64
580.36	1834.98
580.55	1720.29
580.75	1771.49
580.94	1816.55
581.13	1816.55
581.33	1806.31
581.52	1714.15
581.72	1822.69
581.91	1902.56
582.11	1730.53
582.30	1826.79
582.49	1779.68
582.69	1779.68
582.88	1843.17
583.08	1710.05
583.27	1767.40
583.47	1806.31
583.66	1677.29
583.85	1638.38
584.05	1732.58
584.24	1837.03
584.44	1804.26
584.63	1826.79
584.82	1849.32
585.02	1841.12
585.21	1822.69
585.41	1863.65
585.60	1822.69
585.79	1925.09
585.99	1937.38
586.18	1886.18
586.37	2230.24
586.57	3407.82
586.76	10076.01
586.96	25142.91
587.15	35372.52
587.34	41684.36
587.54	43550.06
587.73	37801.41
587.93	26957.41
588.12	22185.65
588.31	18865.89
588.51	16940.80
588.70	15474.45
588.89	14565.15
589.09	13035.32
589.28	11175.77
589.47	9744.24
589.67	8234.88
589.86	6606.75
590.06	4990.90
590.25	3848.13
590.44	3192.78
590.64	2461.66
590.83	2238.43
591.02	2146.27
591.22	1961.95
591.41	1886.18
591.60	1841.12
591.80	1853.41
591.99	1748.97
592.18	1701.86
592.38	1816.55
592.57	1771.49
592.76	1734.63
592.96	1722.34
593.15	1771.49
593.34	1761.25
593.54	1769.44
593.73	1787.88
593.92	1753.06
594.12	1787.88
594.31	1761.25
594.50	1882.08
594.70	1808.36
594.89	1927.14
595.08	1570.79
595.28	1785.83
595.47	2000.87
595.66	1812.45
595.86	1650.66
596.05	1800.16
596.24	1695.72
596.43	1824.74
596.63	1775.59
596.82	1751.01
597.01	1753.06
597.21	1800.16
597.40	1847.27
597.59	1804.26
597.79	1757.16
597.98	1832.93
598.17	1789.92
598.36	1695.72
598.56	1800.16
598.75	1718.25
598.94	1812.45
599.14	1765.35
599.33	1736.68
599.52	1699.81
599.71	1726.44
599.91	1894.37
600.10	1810.40
600.29	1761.25
600.48	1794.02
600.68	1771.49
600.87	1759.21
601.06	1673.19
601.26	1773.54
601.45	1759.21
601.64	1794.02
601.83	1787.88
602.03	1703.91
602.22	1669.09
602.41	1806.31
602.60	1929.19
602.80	1734.63
602.99	1708.01
603.18	1730.53
603.37	1722.34
603.57	1769.44
603.76	1796.07
603.95	1826.79
604.14	1689.57
604.34	1644.52
604.53	1802.21
604.72	1810.40
604.91	1738.73
605.10	1767.40
605.30	1619.94
605.49	1857.51
605.68	1654.76
605.87	1767.40
606.07	1687.53
606.26	1730.53
606.45	1722.34
606.64	1716.20
606.84	1759.21
607.03	1730.53
607.22	1796.07
607.41	1705.96
607.60	1730.53
607.80	1787.88
607.99	1652.71
608.18	1753.06
608.37	1816.55
608.56	1732.58
608.76	1728.49
608.95	1861.60
609.14	1751.01
609.33	1742.82
609.52	1798.12
609.72	1732.58
609.91	1755.11
610.10	1767.40
610.29	1814.50
610.48	1763.30
610.68	1718.25
610.87	1697.77
611.06	1738.73
611.25	1683.43
611.44	1757.16
611.63	1726.44
611.83	1808.36
612.02	1685.48
612.21	1767.40
612.40	1587.18
612.59	1703.91
612.79	1693.67
612.98	1724.39
613.17	1779.68
613.36	1828.84
613.55	1800.16
613.74	1714.15
613.93	1701.86
614.13	1652.71
614.32	1683.43
614.51	1693.67
614.70	1789.92
614.89	1708.01
615.08	1761.25
615.28	2127.84
615.47	1675.24
615.66	1718.25
615.85	1804.26
616.04	1839.08
616.23	1724.39
616.42	1718.25
616.62	1791.97
616.81	1759.21
617.00	1679.33
617.19	1742.82
617.38	1683.43
617.57	1681.38
617.76	1781.73
617.95	1705.96
618.15	1740.77
618.34	1824.74
618.53	1634.28
618.72	1759.21
618.91	1785.83
619.10	1810.40
619.29	1738.73
619.48	1865.70
619.68	1712.10
619.87	1724.39
620.06	1650.66
620.25	1753.06
620.44	1693.67
620.63	1748.97
620.82	1724.39
621.01	1697.77
621.20	1656.81
621.39	1726.44
621.59	1742.82
621.78	1720.29
621.97	1638.38
622.16	1722.34
622.35	1708.01
622.54	1689.57
622.73	1822.69
622.92	1738.73
623.11	1755.11
623.30	1773.54
623.49	1806.31
623.68	1675.24
623.88	1822.69
624.07	1689.57
624.26	1720.29
624.45	1765.35
624.64	1630.18
624.83	1746.92
625.02	1691.62
625.21	1714.15
625.40	1724.39
625.59	1779.68
625.78	1783.78
625.97	1802.21
626.16	1742.82
626.35	1742.82
626.54	1705.96
626.74	1738.73
626.93	1724.39
627.12	1705.96
627.31	1804.26
627.50	1830.88
627.69	1763.30
627.88	1673.19
628.07	1724.39
628.26	1679.33
628.45	1667.05
628.64	1630.18
628.83	1724.39
629.02	1703.91
629.21	1697.77
629.40	1742.82
629.59	1742.82
629.78	1714.15
629.97	1777.64
630.16	1732.58
630.35	1714.15
630.54	1724.39
630.73	1669.09
630.92	1734.63
631.11	1736.68
631.30	1718.25
631.49	1765.35
631.68	1716.20
631.87	1687.53
632.06	1687.53
632.25	1890.28
632.44	1689.57
632.63	1759.21
632.82	1722.34
633.01	1705.96
633.20	1658.85
633.39	1656.81
633.58	1652.71
633.77	1689.57
633.96	1785.83
634.15	1771.49
634.34	1699.81
634.53	1763.30
634.72	1671.14
634.91	1640.42
635.10	1681.38
635.29	1767.40
635.48	1699.81
635.67	1744.87
635.86	1671.14
636.05	1802.21
636.24	1710.05
636.43	1775.59
636.62	1796.07
636.81	1556.46
637.00	1785.83
637.19	1724.39
637.38	1660.90
637.57	1652.71
637.76	1751.01
637.95	1783.78
638.14	1673.19
638.33	1736.68
638.52	1689.57
638.71	1691.62
638.89	1675.24
639.08	1826.79
639.27	1683.43
639.46	1634.28
639.65	1761.25
639.84	1808.36
640.03	1849.32
640.22	1695.72
640.41	1871.84
640.60	1714.15
640.79	1685.48
640.98	1714.15
641.17	1773.54
641.36	1673.19
641.55	1789.92
641.74	1611.75
641.92	1593.32
642.11	1673.19
642.30	1628.14
642.49	1718.25
642.68	1632.23
642.87	1761.25
643.06	1681.38
643.25	1746.92
643.44	1679.33
643.63	1691.62
643.82	1656.81
644.00	1667.05
644.19	1697.77
644.38	1708.01
644.57	1699.81
644.76	1767.40
644.95	1669.09
645.14	1755.11
645.33	1732.58
645.52	1724.39
645.71	1755.11
645.89	1650.66
646.08	1667.05
646.27	1689.57
646.46	1863.65
646.65	1621.99
646.84	1722.34
647.03	1665.00
647.22	1798.12
647.40	1652.71
647.59	1685.48
647.78	1546.22
647.97	1689.57
648.16	1617.90
648.35	1755.11
648.54	1812.45
648.73	1681.38
648.91	1734.63
649.10	1771.49
649.29	1689.57
649.48	1726.44
649.67	1753.06
649.86	1718.25
650.05	1578.98
650.23	1708.01
650.42	1605.61
650.61	1767.40
650.80	1771.49
650.99	1828.84
651.18	1781.73
651.36	1724.39
651.55	1689.57
651.74	1789.92
651.93	1634.28
652.12	1689.57
652.31	1746.92
652.49	1716.20
652.68	1648.61
652.87	1802.21
653.06	1681.38
653.25	1804.26
653.44	1742.82
653.62	1757.16
653.81	1669.09
654.00	1619.94
654.19	1808.36
654.38	1910.75
654.56	1732.58
654.75	1722.34
654.94	1701.86
655.13	1730.53
655.32	1695.72
655.51	1771.49
655.69	1667.05
655.88	1732.58
656.07	1593.32
656.26	1761.25
656.45	1595.37
656.63	1689.57
656.82	1759.21
657.01	1738.73
657.20	1742.82
657.38	1765.35
657.57	1712.10
657.76	1568.74
657.95	1740.77
658.14	1697.77
658.32	1740.77
658.51	1572.84
658.70	1722.34
658.89	1732.58
659.08	1732.58
659.26	1748.97
659.45	1691.62
659.64	1714.15
659.83	1658.85
660.01	1912.80
660.20	1679.33
660.39	1718.25
660.58	1636.33
660.76	1837.03
660.95	1681.38
661.14	1734.63
661.33	1673.19
661.51	1703.91
661.70	1669.09
661.89	1759.21
662.08	1695.72
662.26	1716.20
662.45	1732.58
662.64	1683.43
662.83	1818.60
663.01	1650.66
663.20	1648.61
663.39	1849.32
663.58	1675.24
663.76	1740.77
663.95	1740.77
664.14	1693.67
664.32	1728.49
664.51	1724.39
664.70	1626.09
664.89	1699.81
665.07	1669.09
665.26	1779.68
665.45	1681.38
665.64	1775.59
665.82	1658.85
666.01	1787.88
666.20	1617.90
666.38	1806.31
666.57	1746.92
666.76	2074.59
666.95	4495.29
667.13	10475.36
667.32	15877.90
667.51	18276.07
667.69	19545.81
667.88	18108.14
668.07	12672.83
668.25	9641.84
668.44	8247.17
668.63	7475.09
668.81	6977.43
669.00	6360.99
669.19	5877.67
669.38	5285.81
669.56	4706.23
669.75	4067.27
669.94	3518.41
670.12	3002.32
670.31	2541.53
670.50	2289.63
670.68	2039.78
670.87	1910.75
671.06	1830.88
671.24	1826.79
671.43	1845.22
671.62	1740.77
671.80	1699.81
671.99	1775.59
672.18	1767.40
672.36	1740.77
672.55	1773.54
672.74	1740.77
672.92	1695.72
673.11	1726.44
673.29	1716.20
673.48	1826.79
673.67	1615.85
673.85	1843.17
674.04	1722.34
674.23	1763.30
674.41	1757.16
674.60	1654.76
674.79	1636.33
674.97	1738.73
675.16	1714.15
675.34	1812.45
675.53	1705.96
675.72	1742.82
675.90	1906.66
676.09	1703.91
676.28	1759.21
676.46	1607.66
676.65	1705.96
676.83	1640.42
677.02	1701.86
677.21	1710.05
677.39	1751.01
677.58	1689.57
677.77	1638.38
677.95	1667.05
678.14	1785.83
678.32	1710.05
678.51	1738.73
678.70	1822.69
678.88	1697.77
679.07	1665.00
679.25	1759.21
679.44	1742.82
679.63	1597.42
679.81	1714.15
680.00	1847.27
680.18	1656.81
680.37	1753.06
680.55	1703.91
680.74	1632.23
680.93	1640.42
681.11	1689.57
681.30	1724.39
681.48	1757.16
681.67	1642.47
681.85	1703.91
682.04	1697.77
682.23	1798.12
682.41	1705.96
682.60	1648.61
682.78	1658.85
682.97	1652.71
683.15	1785.83
683.34	1658.85
683.53	1734.63
683.71	1669.09
683.90	1830.88
684.08	1816.55
684.27	1685.48
684.45	1744.87
684.64	1826.79
684.82	1687.53
685.01	1689.57
685.19	1687.53
685.38	1785.83
685.57	1699.81
685.75	1656.81
685.94	1697.77
686.12	1691.62
686.31	1705.96
686.49	1759.21
686.68	1599.46
686.86	1710.05
687.05	1753.06
687.23	1863.65
687.42	1679.33
687.60	1644.52
687.79	1761.25
687.97	1722.34
688.16	1763.30
688.34	1763.30
688.53	1650.66
688.71	1718.25
688.90	1775.59
689.08	1650.66
689.27	1587.18
689.45	1746.92
689.64	1767.40
689.82	1658.85
690.01	1724.39
690.19	1716.20
690.38	1632.23
690.56	1769.44
690.75	1691.62
690.93	1673.19
691.12	1701.86
691.30	1767.40
691.49	1667.05
691.67	1730.53
691.86	1824.74
692.04	1681.38
692.23	1609.70
692.41	1693.67
692.60	1824.74
692.78	1714.15
692.97	1638.38
693.15	1738.73
693.34	1822.69
693.52	1759.21
693.71	1662.95
693.89	1681.38
694.08	1646.57
694.26	1673.19
694.44	1789.92
694.63	1722.34
694.81	1650.66
695.00	1607.66
695.18	1675.24
695.37	1796.07
695.55	1689.57
695.74	1722.34
695.92	1601.51
696.10	1775.59
696.29	1648.61
696.47	1705.96
696.66	1652.71
696.84	1683.43
697.03	1769.44
697.21	1923.04
697.40	2275.29
697.58	1779.68
697.76	1630.18
697.95	1615.85
698.13	1615.85
698.32	1615.85
698.50	1714.15
698.68	1685.48
698.87	1773.54
699.05	1794.02
699.24	1751.01
699.42	1712.10
699.61	1681.38
699.79	1732.58
699.97	1693.67
700.16	1607.66
700.34	1605.61
700.53	1767.40
700.71	1783.78
700.89	1705.96
701.08	1689.57
701.26	1718.25
701.45	2101.22
701.63	1701.86
701.81	1734.63
702.00	1624.04
702.18	1757.16
702.37	1718.25
702.55	1716.20
702.73	1699.81
702.92	1611.75
703.10	1820.64
703.28	1748.97
703.47	1683.43
703.65	1687.53
703.84	1685.48
704.02	1708.01
704.20	1802.21
704.39	1644.52
704.57	1716.20
704.75	1781.73
704.94	1796.07
705.12	1732.58
705.30	1628.14
705.49	2154.46
705.67	4442.04
705.86	9518.96
706.04	12998.46
706.22	14972.70
706.41	15601.43
706.59	14192.42
706.77	9869.16
706.96	7563.15
707.14	6713.24
707.32	6088.61
707.51	5793.70
707.69	5095.35
707.87	4370.37
708.06	3551.18
708.24	3028.95
708.42	2469.85
708.61	2271.20
708.79	1908.71
708.97	1892.32
709.16	1818.60
709.34	1796.07
709.52	1769.44
709.71	1769.44
709.89	1748.97
710.07	1640.42
710.26	1671.14
710.44	1628.14
710.62	1751.01
710.80	1722.34
710.99	1740.77
711.17	1767.40
711.35	1673.19
711.54	1617.90
711.72	1843.17
711.90	1734.63
712.09	1722.34
712.27	1681.38
712.45	1783.78
712.63	1646.57
712.82	1681.38
713.00	1724.39
713.18	1783.78
713.37	1765.35
713.55	1701.86
713.73	1714.15
713.91	1804.26
714.10	1683.43
714.28	1691.62
714.46	1730.53
714.65	1742.82
714.83	1761.25
715.01	1710.05
715.19	1624.04
715.38	1662.95
715.56	1705.96
715.74	1691.62
715.92	1671.14
716.11	1755.11
716.29	1591.27
716.47	1734.63
716.65	1732.58
716.84	1630.18
717.02	1783.78
717.20	1683.43
717.38	1665.00
717.57	1650.66
717.75	1724.39
717.93	1728.49
718.11	1742.82
718.30	1644.52
718.48	1800.16
718.66	1626.09
718.84	1718.25
719.03	1626.09
719.21	1673.19
719.39	1785.83
719.57	1765.35
719.75	1738.73
719.94	1662.95
720.12	1703.91
720.30	1757.16
720.48	1763.30
720.67	1630.18
720.85	1548.26
721.03	1701.86
721.21	1685.48
721.39	1728.49
721.58	1734.63
721.76	1728.49
721.94	1804.26
722.12	1701.86
722.30	1748.97
722.49	1734.63
722.67	1724.39
722.85	1722.34
723.03	1656.81
723.21	1675.24
723.40	1740.77
723.58	1771.49
723.76	1689.57
723.94	1781.73
724.12	1726.44
724.30	1703.91
724.49	1734.63
724.67	1675.24
724.85	1794.02
725.03	1587.18
725.21	1716.20
725.40	1765.35
725.58	1634.28
725.76	1832.93
725.94	1677.29
726.12	1626.09
726.30	1665.00
726.49	1667.05
726.67	1759.21
726.85	1703.91
727.03	1748.97
727.21	2131.94
727.39	3026.90
727.57	3844.04
727.76	4233.15
727.94	4579.26
728.12	4399.04
728.30	3676.10
728.48	3088.34
728.66	2822.10
728.84	2559.96
729.03	2351.07
729.21	2174.94
729.39	2047.97
729.57	1875.94
729.75	1773.54
729.93	1849.32
730.11	1783.78
730.30	1722.34
730.48	1740.77
730.66	1724.39
730.84	1767.40
731.02	1705.96
731.20	1699.81
731.38	1693.67
731.56	1656.81
731.74	1597.42
731.93	1763.30
732.11	1708.01
732.29	1660.90
732.47	1789.92
732.65	1726.44
732.83	1767.40
733.01	1689.57
733.19	1646.57
733.37	1730.53
733.56	1738.73
733.74	1685.48
733.92	1783.78
734.10	1675.24
734.28	1724.39
734.46	1624.04
734.64	1667.05
734.82	1697.77
735.00	1679.33
735.18	1665.00
735.36	1728.49
735.54	1730.53
735.73	1691.62
735.91	1699.81
736.09	1714.15
736.27	1689.57
736.45	1656.81
736.63	1576.94
736.81	1677.29
736.99	1796.07
737.17	1765.35
737.35	1738.73
737.53	1689.57
737.71	1722.34
737.89	1732.58
738.07	1722.34
738.25	1660.90
738.43	1603.56
738.61	1699.81
738.80	1656.81
738.98	1601.51
739.16	1685.48
739.34	1654.76
739.52	1781.73
739.70	1662.95
739.88	1804.26
740.06	1701.86
740.24	1568.74
740.42	1816.55
740.60	1697.77
740.78	1726.44
740.96	1595.37
741.14	1675.24
741.32	1781.73
741.50	1619.94
741.68	1763.30
741.86	1767.40
742.04	1593.32
742.22	1699.81
742.40	1718.25
742.58	1742.82
742.76	1681.38
742.94	1794.02
743.12	1566.70
743.30	1650.66
743.48	1814.50
743.66	1611.75
743.84	1759.21
744.02	1697.77
744.20	1673.19
744.38	1634.28
744.56	1658.85
744.74	1820.64
744.92	1689.57
745.10	1736.68
745.28	1812.45
745.46	1824.74
745.64	1611.75
745.82	1683.43
746.00	1732.58
746.18	1693.67
746.36	1658.85
746.54	1736.68
746.72	1724.39
746.90	1718.25
747.08	1742.82
747.26	1740.77
747.44	1726.44
747.62	1722.34
747.80	1724.39
747.98	1865.70
748.15	1720.29
748.33	1740.77
748.51	1675.24
748.69	1722.34
748.87	1705.96
749.05	1685.48
749.23	1675.24
749.41	1728.49
749.59	1615.85
749.77	1730.53
749.95	1677.29
750.13	1658.85
750.31	1751.01
750.49	1660.90
750.67	1781.73
750.85	1746.92
751.03	1751.01
751.20	1861.60
751.38	1669.09
751.56	1759.21
751.74	1730.53
751.92	1695.72
752.10	1652.71
752.28	1787.88
752.46	1636.33
752.64	1687.53
752.82	1728.49
753.00	1771.49
753.18	1789.92
753.35	1617.90
753.53	1615.85
753.71	1718.25
753.89	1732.58
754.07	1662.95
754.25	1759.21
754.43	1757.16
754.61	1689.57
754.79	1759.21
754.97	1662.95
755.14	1738.73
755.32	1667.05
755.50	1621.99
755.68	1714.15
755.86	1630.18
756.04	1634.28
756.22	1609.70
756.40	1738.73
756.57	1796.07
756.75	1609.70
756.93	1816.55
757.11	1830.88
757.29	1718.25
757.47	1619.94
757.65	1593.32
757.82	1574.89
758.00	1722.34
758.18	1644.52
758.36	1591.27
758.54	1806.31
758.72	1642.47
758.90	1746.92
759.07	1703.91
759.25	1693.67
759.43	1765.35
759.61	1621.99
759.79	2154.46
759.97	1728.49
760.15	1695.72
760.32	1705.96
760.50	1718.25
760.68	1740.77
760.86	1638.38
761.04	1773.54
761.22	1734.63
761.39	1767.40
761.57	1714.15
761.75	1753.06
761.93	1712.10
762.11	1628.14
762.28	1691.62
762.46	1636.33
762.64	1767.40
762.82	1679.33
763.00	1726.44
763.18	1791.97
763.35	1626.09
763.53	1726.44
763.71	1689.57
763.89	1691.62
764.07	1683.43
764.24	1677.29
764.42	1755.11
764.60	1697.77
764.78	1667.05
764.96	1714.15
765.13	1738.73
765.31	1689.57
765.49	1757.16
765.67	1683.43
765.84	1626.09
766.02	1693.67
766.20	1648.61
766.38	1665.00
766.56	1761.25
766.73	1724.39
766.91	1728.49
767.09	1722.34
767.27	1691.62
767.44	1671.14
767.62	1755.11
767.80	1744.87
767.98	1650.66
768.15	1656.81
768.33	1779.68
768.51	1695.72
768.69	1697.77
768.87	1761.25
769.04	1701.86
769.22	1814.50
769.40	1820.64
769.58	1853.41
769.75	1761.25
769.93	1738.73
770.11	1720.29
770.28	1681.38
770.46	1763.30
770.64	1767.40
770.82	1695.72
770.99	1720.29
771.17	1740.77
771.35	1669.09
771.53	1642.47
771.70	1660.90
771.88	1738.73
772.06	1658.85
772.23	1638.38
772.41	1710.05
772.59	1550.31
772.77	1656.81
772.94	1687.53
773.12	1689.57
773.30	1656.81
773.47	1708.01
773.65	1652.71
773.83	1724.39
774.01	1701.86
774.18	1533.93
774.36	1746.92
774.54	1667.05
774.71	1648.61
774.89	1648.61
775.07	1687.53
775.24	1654.76
775.42	1603.56
775.60	1740.77
775.78	1640.42
775.95	1667.05
776.13	1617.90
776.31	1566.70
776.48	1802.21
776.66	1820.64
776.84	1656.81
777.01	1667.05
777.19	1628.14
777.37	1701.86
777.54	1708.01
777.72	1771.49
777.90	1701.86
778.07	1658.85
778.25	1849.32
778.43	1714.15
778.60	1667.05
778.78	1701.86
778.96	1771.49
779.13	1583.08
779.31	1728.49
779.49	1742.82
779.66	1765.35
779.84	1705.96
780.01	1695.72
780.19	1593.32
780.37	1734.63
780.54	1742.82
780.72	1642.47
780.90	1744.87
781.07	1632.23
781.25	1665.00
781.43	1714.15
781.60	1699.81
781.78	1855.46
781.95	1732.58
782.13	1574.89
782.31	1695.72
782.48	1615.85
782.66	1705.96
782.83	1740.77
783.01	1759.21
783.19	1728.49
783.36	1716.20
783.54	1607.66
783.72	1771.49
783.89	1636.33
784.07	1652.71
784.24	1744.87
784.42	1800.16
784.60	1738.73
784.77	1736.68
784.95	1556.46
785.12	1689.57
785.30	1726.44
785.47	1615.85
785.65	1687.53
785.83	1691.62
786.00	1603.56
786.18	1761.25
786.35	1609.70
786.53	1662.95
786.71	1796.07
786.88	1783.78
787.06	1748.97
787.23	1740.77
787.41	1677.29
787.58	1699.81
787.76	1662.95
787.94	1665.00
788.11	1757.16
788.29	1656.81
788.46	1705.96
788.64	1634.28
788.81	1681.38
788.99	1652.71
789.16	1601.51
789.34	1722.34
789.52	1576.94
789.69	1675.24
789.87	1533.93
790.04	1695.72
790.22	1681.38
790.39	1894.37
790.57	1595.37
790.74	1701.86
790.92	1699.81
791.09	1544.17
791.27	1662.95
791.44	1763.30
791.62	1677.29
791.79	1722.34
791.97	1683.43
792.15	1910.75
792.32	1765.35
792.50	1789.92
792.67	1841.12
792.85	1781.73
793.02	1685.48
793.20	1669.09
793.37	1626.09
793.55	1685.48
793.72	1695.72
793.90	1693.67
794.07	1697.77
794.25	1652.71
794.42	1691.62
794.60	1697.77
794.77	1736.68
794.95	1722.34
795.12	1771.49
795.30	1714.15
795.47	1587.18
795.65	1912.80
795.82	1730.53
796.00	1675.24
796.17	1716.20
796.34	1628.14
796.52	1654.76
796.69	1693.67
796.87	1783.78
797.04	1722.34
797.22	1705.96
797.39	1705.96
797.57	1740.77
797.74	1724.39
797.92	1726.44
798.09	1669.09
798.27	1757.16
798.44	1757.16
798.62	1642.47
798.79	1710.05
798.96	1683.43
799.14	1685.48
799.31	1767.40
799.49	1751.01
799.66	1679.33
799.84	1667.05
800.01	1578.98
800.19	1689.57
800.36	1601.51
800.53	1640.42
800.71	1697.77
800.88	1806.31
801.06	1708.01
801.23	1574.89
801.41	1701.86
801.58	1640.42
801.75	1701.86
801.93	1624.04
802.10	1771.49
802.28	1730.53
802.45	1634.28
802.63	1755.11
802.80	1779.68
802.97	1716.20
803.15	1687.53
803.32	1693.67
803.50	1648.61
803.67	1662.95
803.84	1572.84
804.02	1626.09
804.19	1648.61
804.37	1601.51
804.54	1673.19
804.71	1718.25
804.89	1742.82
805.06	1540.07
805.24	1636.33
805.41	1656.81
805.58	1617.90
805.76	1830.88
805.93	1705.96
806.10	1718.25
806.28	1691.62
806.45	1710.05
806.63	1757.16
806.80	1695.72
806.97	1671.14
807.15	1796.07
807.32	1734.63
807.49	1673.19
807.67	1662.95
807.84	1660.90
808.01	1656.81
808.19	1806.31
808.36	1751.01
808.54	1658.85
808.71	1710.05
808.88	1789.92
809.06	1800.16
809.23	1697.77
809.40	1658.85
809.58	1732.58
809.75	1697.77
809.92	1576.94
810.10	1849.32
810.27	1619.94
810.44	1708.01
810.62	1746.92
810.79	1708.01
810.96	1685.48
811.14	1642.47
811.31	1783.78
811.48	1773.54
811.66	1705.96
811.83	1740.77
812.00	1673.19
812.18	1699.81
812.35	1796.07
812.52	1564.65
812.69	1738.73
812.87	1646.57
813.04	1681.38
813.21	1689.57
813.39	1609.70
813.56	1644.52
813.73	1669.09
813.91	1673.19
814.08	1718.25
814.25	1689.57
814.42	1605.61
814.60	1669.09
814.77	1699.81
814.94	1679.33
815.12	1740.77
815.29	1746.92
815.46	1665.00
815.63	1710.05
815.81	1669.09
815.98	1632.23
816.15	1689.57
816.33	1738.73
816.50	1708.01
816.67	1730.53
816.84	1771.49
817.02	1656.81
817.19	1679.33
817.36	1662.95
817.53	1759.21
817.71	1714.15
817.88	1730.53
818.05	1669.09
818.22	1708.01
818.40	1851.36
818.57	1656.81
818.74	1779.68
818.91	1757.16
819.09	1810.40
819.26	1728.49
819.43	1718.25
819.60	1722.34
819.78	1658.85
819.95	1806.31
820.12	1648.61
820.29	1732.58
820.47	1832.93
820.64	1587.18
820.81	1638.38
820.98	1650.66
821.15	1693.67
821.33	1787.88
821.50	1652.71
821.67	1759.21
821.84	1705.96
822.02	1697.77
822.19	1746.92
822.36	1720.29
822.53	1705.96
822.70	1654.76
822.88	1654.76
823.05	1820.64
823.22	1695.72
823.39	1769.44
823.56	1683.43
823.74	1814.50
823.91	1734.63
824.08	1671.14
824.25	1630.18
824.42	1779.68
824.60	1621.99
824.77	1746.92
824.94	1718.25
825.11	1683.43
825.28	1621.99
825.45	1695.72
825.63	1716.20
825.80	1632.23
825.97	1714.15
826.14	1712.10
826.31	1609.70
826.48	1779.68
826.66	1607.66
826.83	1589.22
827.00	1689.57
827.17	1695.72
827.34	1703.91
827.51	1611.75
827.69	1710.05
827.86	1624.04
828.03	1689.57
828.20	1656.81
828.37	1607.66
828.54	1667.05
828.71	1660.90
828.89	1791.97
829.06	1675.24
829.23	1746.92
829.40	1650.66
829.57	1740.77
829.74	1837.03
829.91	1693.67
830.09	1697.77
830.26	1697.77
830.43	1738.73
830.60	1652.71
830.77	1740.77
830.94	1755.11
831.11	1708.01
831.28	1624.04
831.46	1689.57
831.63	1740.77
831.80	1746.92
831.97	1662.95
832.14	1654.76
832.31	1740.77
832.48	1599.46
832.65	1771.49
832.82	1716.20
832.99	1722.34
833.17	1656.81
833.34	1771.49
833.51	1757.16
833.68	1665.00
833.85	1818.60
834.02	1650.66
834.19	1697.77
834.36	1662.95
834.53	1732.58
834.70	1789.92
834.87	1722.34
835.04	1697.77
835.22	1677.29
835.39	1646.57
835.56	1669.09
835.73	1636.33
835.90	1763.30
836.07	1677.29
836.24	1728.49
836.41	1652.71
836.58	1667.05
836.75	1699.81
836.92	1718.25
837.09	1626.09
837.26	1734.63
837.43	1689.57
837.60	1744.87
837.77	1636.33
837.94	1781.73
838.12	1789.92
838.29	1744.87
838.46	1640.42
838.63	1609.70
838.80	1796.07
838.97	1808.36
839.14	1746.92
839.31	1728.49
839.48	1738.73
839.65	1669.09
839.82	1794.02
839.99	1669.09
840.16	1753.06
840.33	1677.29
840.50	1757.16
840.67	1685.48
840.84	1607.66
841.01	1730.53
841.18	1644.52
841.35	1718.25
841.52	1744.87
841.69	1855.46
841.86	1773.54
842.03	1748.97
842.20	1687.53
842.37	1687.53
842.54	1626.09
842.71	1718.25
842.88	1687.53
843.05	1794.02
843.22	1681.38
843.39	1714.15
843.56	1632.23
843.73	1753.06
843.90	1703.91
844.07	1726.44
844.24	1714.15
844.41	1751.01
844.58	1648.61
844.75	1705.96
844.92	1761.25
845.09	1748.97
845.26	1712.10
845.43	1730.53
845.60	1724.39
845.77	1812.45
845.94	1751.01
846.10	1714.15
846.27	1660.90
846.44	1638.38
846.61	1644.52
846.78	1767.40
846.95	1705.96
847.12	1724.39
847.29	1683.43
847.46	1673.19
847.63	1763.30
847.80	1667.05
847.97	1648.61
848.14	1761.25
848.31	1687.53
848.48	1615.85
848.65	1685.48
848.82	1634.28
848.98	1771.49
849.15	1708.01
849.32	1710.05
849.49	1767.40
849.66	1673.19
849.83	1734.63
850.00	1599.46
850.17	1728.49
850.34	1718.25
850.51	1697.77
850.68	1640.42
850.85	1730.53
851.01	1658.85
851.18	1738.73
851.35	1681.38
851.52	1677.29
851.69	1738.73
851.86	1630.18
852.03	1656.81
852.20	1753.06
852.37	1722.34
852.53	1611.75
852.70	1701.86
852.87	1697.77
853.04	1724.39
853.21	1738.73
853.38	1730.53
853.55	1791.97
853.72	1724.39
853.89	1648.61
854.05	1624.04
854.22	1673.19
854.39	1673.19
854.56	1732.58
854.73	1818.60
854.90	1746.92
855.07	1740.77
855.23	1710.05
855.40	1689.57
855.57	1615.85
855.74	1601.51
855.91	1837.03
856.08	1572.84
856.25	1601.51
856.41	1673.19
856.58	1689.57
856.75	1794.02
856.92	1671.14
857.09	1691.62
857.26	1646.57
857.42	1667.05
857.59	1763.30
857.76	1662.95
857.93	1689.57
858.10	1726.44
858.27	1681.38
858.43	1660.90
858.60	1644.52
858.77	1578.98
858.94	1689.57
859.11	1708.01
859.27	1693.67
859.44	1710.05
859.61	1798.12
859.78	1734.63
859.95	1685.48
860.12	1652.71
860.28	1775.59
860.45	1736.68
860.62	1656.81
860.79	1675.24
860.95	1732.58
861.12	1665.00
861.29	1685.48
861.46	1675.24
861.63	1652.71
861.79	1716.20
861.96	1597.42
862.13	1689.57
862.30	1708.01
862.47	1710.05
862.63	1621.99
862.80	1744.87
862.97	1816.55
863.14	1814.50
863.30	1751.01
863.47	1691.62
863.64	1839.08
863.81	1794.02
863.97	1654.76
864.14	1708.01
864.31	1638.38
864.48	1767.40
864.65	1667.05
864.81	1703.91
864.98	1748.97
865.15	1724.39
865.32	1751.01
865.48	1794.02
865.65	1818.60
865.82	1701.86
865.98	1656.81
866.15	1787.88
866.32	1728.49
866.49	1677.29
866.65	1740.77
866.82	1685.48
866.99	1671.14
867.16	1701.86
867.32	1669.09
867.49	1705.96
867.66	1632.23
867.83	1624.04
867.99	1662.95
868.16	1632.23
868.33	1601.51
868.49	1708.01
868.66	1679.33
868.83	1730.53
868.99	1742.82
869.16	1718.25
869.33	1748.97
869.50	1669.09
869.66	1740.77
869.83	1675.24
870.00	1607.66
870.16	1765.35
870.33	1683.43
870.50	1705.96
870.66	1646.57
870.83	1783.78
871.00	1646.57
871.17	1742.82
871.33	1753.06
871.50	1665.00
871.67	1738.73
871.83	1673.19
872.00	1779.68
872.17	1646.57
872.33	1828.84
872.50	1742.82
872.67	1599.46
872.83	1744.87
873.00	1685.48
873.17	1697.77
873.33	1677.29
873.50	1757.16
873.67	1611.75
873.83	1628.14
874.00	1669.09
874.16	1718.25
874.33	1712.10
874.50	1630.18
874.66	1708.01
874.83	1595.37
875.00	1730.53
875.16	1796.07
875.33	1800.16
875.50	1650.66
875.66	1601.51
875.83	1697.77
875.99	1763.30
876.16	1714.15
876.33	1642.47
876.49	1701.86
876.66	1806.31
876.83	1689.57
876.99	1617.90
877.16	1751.01
877.32	1697.77
877.49	1642.47
877.66	1640.42
877.82	1808.36
877.99	1667.05
878.15	1722.34
878.32	1718.25
878.49	1730.53
878.65	1656.81
878.82	1781.73
878.98	1656.81
879.15	1705.96
879.32	1738.73
879.48	1667.05
879.65	1628.14
879.81	1671.14
879.98	1611.75
880.15	1648.61
880.31	1783.78
880.48	1550.31
880.64	1816.55
880.81	1720.29
880.97	1779.68
881.14	1703.91
881.31	1605.61
881.47	1873.89
881.64	1675.24
881.80	1542.12
881.97	1685.48
882.13	1822.69
882.30	1683.43
882.47	1648.61
882.63	1605.61
882.80	1628.14
882.96	1720.29
883.13	1837.03
883.29	1699.81
883.46	1665.00
883.62	1734.63
883.79	1679.33
883.95	1650.66
884.12	1675.24
884.29	1779.68
884.45	1632.23
884.62	1691.62
884.78	1597.42
884.95	1814.50
885.11	1648.61
885.28	1824.74
885.44	1624.04
885.61	1732.58
885.77	1691.62
885.94	1718.25
886.10	1667.05
886.27	1716.20
886.43	1789.92
886.60	1765.35
886.76	1701.86
886.93	1679.33
887.09	1677.29
887.26	1656.81
887.42	1675.24
887.59	1716.20
887.75	1789.92
887.92	1720.29
888.08	1789.92
888.25	1796.07
888.41	1650.66
888.58	1722.34
888.74	1656.81
888.91	1617.90
>>>>>End Processed Spectral Data<<<<<
