SpectraSuite Data File
++++++++++++++++++++++++++++++++++++
Date: Mon Jun 06 14:57:37 CEST 2016
User: root
Dark Spectrum Present: No
Reference Spectrum Present: No
Number of Sampled Component Spectra: 1
Spectrometers: USB4C02835
Integration Time (usec): 100000 (USB4C02835)
Spectra Averaged: 1 (USB4C02835)
Boxcar Smoothing: 0 (USB4C02835)
Correct for Electrical Dark: No (USB4C02835)
Strobe/Lamp Enabled: No (USB4C02835)
Correct for Detector Non-linearity: No (USB4C02835)
Correct for Stray Light: No (USB4C02835)
Number of Pixels in Processed Spectrum: 3648
>>>>>Begin Processed Spectral Data<<<<<
177.47	1495.02
177.69	1495.02
177.91	1495.02
178.13	1529.83
178.36	1495.02
178.58	1660.90
178.80	1714.15
179.02	1593.32
179.24	1656.81
179.46	1662.95
179.68	1716.20
179.90	1716.20
180.13	1695.72
180.35	1615.85
180.57	1648.61
180.79	1710.05
181.01	1648.61
181.23	1761.25
181.45	1697.77
181.67	1791.97
181.90	1660.90
182.12	1628.14
182.34	1652.71
182.56	1718.25
182.78	1673.19
183.00	1701.86
183.22	1695.72
183.44	1589.22
183.66	1845.22
183.89	1812.45
184.11	1726.44
184.33	1716.20
184.55	1734.63
184.77	1708.01
184.99	1732.58
185.21	1628.14
185.43	1802.21
185.65	1699.81
185.87	1640.42
186.10	1888.23
186.32	1839.08
186.54	1767.40
186.76	1714.15
186.98	1767.40
187.20	1689.57
187.42	1609.70
187.64	1726.44
187.86	1746.92
188.08	1787.88
188.30	1681.38
188.52	1671.14
188.75	1738.73
188.97	1689.57
189.19	1656.81
189.41	1726.44
189.63	1705.96
189.85	1626.09
190.07	1609.70
190.29	1648.61
190.51	1693.67
190.73	1587.18
190.95	1816.55
191.17	1665.00
191.39	1589.22
191.61	1597.42
191.84	1718.25
192.06	1714.15
192.28	1669.09
192.50	1914.85
192.72	1738.73
192.94	1712.10
193.16	1736.68
193.38	1650.66
193.60	1621.99
193.82	1734.63
194.04	1669.09
194.26	1708.01
194.48	1669.09
194.70	1675.24
194.92	1714.15
195.14	1769.44
195.36	1669.09
195.58	1796.07
195.80	1701.86
196.02	1687.53
196.24	1636.33
196.46	1738.73
196.69	1638.38
196.91	1873.89
197.13	1650.66
197.35	1681.38
197.57	1724.39
197.79	1703.91
198.01	1693.67
198.23	1722.34
198.45	1697.77
198.67	1697.77
198.89	1648.61
199.11	1699.81
199.33	1712.10
199.55	1490.92
199.77	1718.25
199.99	1744.87
200.21	1726.44
200.43	1695.72
200.65	1628.14
200.87	1546.22
201.09	1748.97
201.31	1685.48
201.53	1734.63
201.75	1724.39
201.97	1617.90
202.19	1669.09
202.41	1730.53
202.63	1837.03
202.85	1746.92
203.07	1804.26
203.29	1656.81
203.51	1681.38
203.73	1642.47
203.95	1886.18
204.17	1681.38
204.39	1722.34
204.61	1734.63
204.83	1689.57
205.05	1742.82
205.27	1738.73
205.49	1812.45
205.71	1699.81
205.93	1615.85
206.15	1689.57
206.37	1742.82
206.59	1732.58
206.81	1617.90
207.03	1656.81
207.25	1669.09
207.47	1699.81
207.69	1697.77
207.91	1757.16
208.13	1718.25
208.34	1634.28
208.56	1660.90
208.78	1652.71
209.00	1714.15
209.22	1632.23
209.44	1667.05
209.66	1646.57
209.88	1621.99
210.10	1667.05
210.32	1722.34
210.54	1712.10
210.76	1662.95
210.98	1722.34
211.20	1619.94
211.42	1681.38
211.64	1726.44
211.86	1773.54
212.08	1685.48
212.30	1689.57
212.52	1648.61
212.74	1673.19
212.96	1648.61
213.17	1785.83
213.39	1681.38
213.61	1818.60
213.83	1665.00
214.05	1560.55
214.27	1828.84
214.49	1556.46
214.71	1691.62
214.93	1771.49
215.15	1660.90
215.37	1763.30
215.59	1607.66
215.81	1705.96
216.03	1669.09
216.24	1650.66
216.46	1759.21
216.68	1587.18
216.90	1710.05
217.12	1824.74
217.34	1740.77
217.56	1673.19
217.78	1834.98
218.00	1697.77
218.22	1708.01
218.44	1681.38
218.66	1789.92
218.87	1849.32
219.09	1687.53
219.31	1677.29
219.53	1685.48
219.75	1693.67
219.97	1699.81
220.19	1724.39
220.41	1691.62
220.63	1794.02
220.85	1714.15
221.06	1638.38
221.28	1791.97
221.50	1818.60
221.72	1693.67
221.94	1693.67
222.16	1685.48
222.38	1712.10
222.60	1757.16
222.82	1697.77
223.03	1722.34
223.25	1683.43
223.47	1755.11
223.69	1875.94
223.91	1665.00
224.13	1673.19
224.35	1665.00
224.57	1740.77
224.78	1693.67
225.00	1591.27
225.22	1656.81
225.44	1724.39
225.66	1708.01
225.88	1697.77
226.10	1820.64
226.32	1777.64
226.53	1751.01
226.75	1644.52
226.97	1687.53
227.19	1693.67
227.41	1679.33
227.63	1716.20
227.85	1533.93
228.06	1681.38
228.28	1755.11
228.50	1732.58
228.72	1701.86
228.94	1677.29
229.16	1558.50
229.37	1652.71
229.59	1697.77
229.81	1757.16
230.03	1632.23
230.25	1644.52
230.47	1589.22
230.69	1558.50
230.90	1783.78
231.12	1662.95
231.34	1685.48
231.56	1691.62
231.78	1693.67
232.00	1734.63
232.21	1724.39
232.43	1736.68
232.65	1578.98
232.87	1773.54
233.09	1636.33
233.30	1660.90
233.52	1738.73
233.74	1607.66
233.96	1617.90
234.18	1669.09
234.40	1775.59
234.61	1724.39
234.83	1597.42
235.05	1667.05
235.27	1822.69
235.49	1732.58
235.70	1703.91
235.92	1722.34
236.14	1767.40
236.36	1873.89
236.58	1671.14
236.79	1689.57
237.01	1746.92
237.23	1705.96
237.45	1851.36
237.67	1636.33
237.88	1699.81
238.10	1814.50
238.32	1605.61
238.54	1681.38
238.76	1742.82
238.97	1599.46
239.19	1673.19
239.41	1761.25
239.63	1734.63
239.85	1701.86
240.06	1751.01
240.28	1699.81
240.50	1828.84
240.72	1726.44
240.93	1693.67
241.15	1736.68
241.37	1677.29
241.59	1777.64
241.81	1695.72
242.02	1712.10
242.24	1755.11
242.46	1722.34
242.68	1693.67
242.89	1708.01
243.11	1759.21
243.33	1662.95
243.55	1687.53
243.76	1738.73
243.98	1724.39
244.20	1738.73
244.42	1734.63
244.64	1683.43
244.85	1677.29
245.07	1673.19
245.29	1718.25
245.51	1712.10
245.72	1720.29
245.94	1775.59
246.16	1744.87
246.38	1771.49
246.59	1697.77
246.81	1695.72
247.03	1626.09
247.24	1621.99
247.46	1699.81
247.68	1718.25
247.90	1714.15
248.11	1720.29
248.33	1728.49
248.55	1693.67
248.77	1759.21
248.98	1738.73
249.20	1763.30
249.42	1683.43
249.64	1710.05
249.85	1701.86
250.07	1636.33
250.29	1738.73
250.50	1767.40
250.72	1621.99
250.94	1665.00
251.16	1834.98
251.37	1701.86
251.59	1722.34
251.81	1701.86
252.02	1820.64
252.24	1742.82
252.46	1755.11
252.68	1675.24
252.89	1634.28
253.11	1673.19
253.33	1845.22
253.54	1820.64
253.76	1615.85
253.98	1714.15
254.20	1724.39
254.41	1665.00
254.63	1605.61
254.85	1640.42
255.06	1648.61
255.28	1667.05
255.50	1722.34
255.71	1689.57
255.93	1638.38
256.15	1650.66
256.36	1665.00
256.58	1669.09
256.80	1806.31
257.02	1624.04
257.23	1662.95
257.45	1648.61
257.67	1734.63
257.88	1636.33
258.10	1742.82
258.32	1691.62
258.53	1710.05
258.75	1841.12
258.97	1574.89
259.18	1675.24
259.40	1744.87
259.62	1773.54
259.83	1796.07
260.05	1691.62
260.27	1894.37
260.48	1777.64
260.70	1642.47
260.92	1748.97
261.13	1642.47
261.35	1646.57
261.57	1734.63
261.78	1615.85
262.00	1665.00
262.22	1699.81
262.43	1656.81
262.65	1609.70
262.86	1746.92
263.08	1812.45
263.30	1734.63
263.51	1673.19
263.73	1683.43
263.95	1742.82
264.16	1652.71
264.38	1660.90
264.60	1753.06
264.81	1693.67
265.03	1738.73
265.25	1638.38
265.46	1693.67
265.68	1665.00
265.89	1763.30
266.11	1593.32
266.33	1730.53
266.54	1765.35
266.76	1667.05
266.98	1726.44
267.19	1771.49
267.41	1785.83
267.62	1677.29
267.84	1595.37
268.06	1765.35
268.27	1734.63
268.49	1785.83
268.70	1748.97
268.92	1759.21
269.14	1701.86
269.35	1585.13
269.57	1755.11
269.79	1757.16
270.00	1669.09
270.22	1896.42
270.43	1703.91
270.65	1486.83
270.87	1681.38
271.08	1691.62
271.30	1748.97
271.51	1730.53
271.73	1818.60
271.95	1751.01
272.16	1708.01
272.38	1794.02
272.59	1624.04
272.81	1767.40
273.02	1775.59
273.24	1830.88
273.46	1775.59
273.67	1656.81
273.89	1619.94
274.10	1656.81
274.32	1701.86
274.54	1744.87
274.75	1759.21
274.97	1648.61
275.18	1675.24
275.40	1763.30
275.61	1669.09
275.83	1685.48
276.05	1660.90
276.26	1740.77
276.48	1648.61
276.69	1669.09
276.91	1642.47
277.12	1767.40
277.34	1775.59
277.55	1767.40
277.77	1658.85
277.99	1585.13
278.20	1630.18
278.42	1652.71
278.63	1681.38
278.85	1642.47
279.06	1669.09
279.28	1730.53
279.49	1718.25
279.71	1732.58
279.93	1699.81
280.14	1718.25
280.36	1638.38
280.57	1742.82
280.79	1783.78
281.00	1689.57
281.22	1656.81
281.43	1767.40
281.65	1597.42
281.86	1621.99
282.08	1679.33
282.29	1771.49
282.51	1578.98
282.73	1624.04
282.94	1640.42
283.16	1785.83
283.37	1761.25
283.59	1691.62
283.80	1671.14
284.02	1708.01
284.23	1798.12
284.45	1652.71
284.66	1683.43
284.88	1615.85
285.09	1677.29
285.31	1693.67
285.52	1728.49
285.74	1609.70
285.95	1742.82
286.17	1738.73
286.38	1744.87
286.60	1712.10
286.81	1679.33
287.03	1697.77
287.24	1632.23
287.46	1763.30
287.67	1716.20
287.89	1748.97
288.10	1689.57
288.32	1742.82
288.53	1755.11
288.75	1751.01
288.96	1710.05
289.18	1718.25
289.39	1708.01
289.61	1714.15
289.82	1789.92
290.04	1781.73
290.25	1591.27
290.47	1636.33
290.68	1665.00
290.90	1843.17
291.11	1591.27
291.33	1789.92
291.54	1667.05
291.76	1689.57
291.97	1660.90
292.18	1697.77
292.40	1652.71
292.61	1646.57
292.83	1830.88
293.04	1740.77
293.26	1650.66
293.47	1683.43
293.69	1738.73
293.90	1714.15
294.12	1732.58
294.33	1683.43
294.55	1677.29
294.76	1683.43
294.97	1740.77
295.19	1841.12
295.40	1632.23
295.62	1746.92
295.83	1777.64
296.05	1595.37
296.26	1701.86
296.48	1689.57
296.69	1779.68
296.90	1708.01
297.12	1724.39
297.33	1767.40
297.55	1740.77
297.76	1671.14
297.98	1798.12
298.19	1724.39
298.41	1714.15
298.62	1652.71
298.83	1771.49
299.05	1689.57
299.26	1767.40
299.48	1710.05
299.69	1718.25
299.90	1740.77
300.12	1624.04
300.33	1773.54
300.55	1753.06
300.76	1765.35
300.98	1636.33
301.19	1656.81
301.40	1640.42
301.62	1722.34
301.83	1679.33
302.05	1730.53
302.26	1689.57
302.47	1677.29
302.69	1587.18
302.90	1744.87
303.12	1605.61
303.33	1771.49
303.54	1867.75
303.76	1755.11
303.97	1761.25
304.19	1753.06
304.40	1638.38
304.61	1796.07
304.83	1841.12
305.04	1724.39
305.26	1673.19
305.47	1640.42
305.68	1685.48
305.90	1589.22
306.11	1773.54
306.33	1621.99
306.54	1724.39
306.75	1677.29
306.97	1595.37
307.18	1687.53
307.39	1689.57
307.61	1755.11
307.82	1656.81
308.04	1689.57
308.25	1611.75
308.46	1708.01
308.68	1710.05
308.89	1724.39
309.10	1759.21
309.32	1703.91
309.53	1673.19
309.74	1716.20
309.96	1675.24
310.17	1740.77
310.39	1628.14
310.60	1783.78
310.81	1736.68
311.03	1628.14
311.24	1691.62
311.45	1736.68
311.67	1818.60
311.88	1708.01
312.09	1648.61
312.31	1628.14
312.52	1687.53
312.73	1724.39
312.95	1574.89
313.16	1650.66
313.37	1781.73
313.59	1685.48
313.80	1748.97
314.01	1734.63
314.23	1669.09
314.44	1660.90
314.65	1626.09
314.87	1724.39
315.08	1667.05
315.29	1656.81
315.51	1646.57
315.72	1658.85
315.93	1800.16
316.15	1734.63
316.36	1589.22
316.57	1689.57
316.79	1671.14
317.00	1677.29
317.21	1708.01
317.43	1626.09
317.64	1632.23
317.85	1689.57
318.07	1642.47
318.28	1775.59
318.49	1800.16
318.70	1818.60
318.92	1771.49
319.13	1796.07
319.34	1859.56
319.56	1755.11
319.77	1785.83
319.98	1753.06
320.20	1773.54
320.41	1753.06
320.62	1734.63
320.83	1638.38
321.05	1931.23
321.26	1773.54
321.47	1734.63
321.69	1771.49
321.90	1628.14
322.11	1689.57
322.32	1679.33
322.54	1757.16
322.75	1609.70
322.96	1865.70
323.18	1658.85
323.39	1646.57
323.60	1638.38
323.81	1714.15
324.03	1646.57
324.24	1724.39
324.45	1693.67
324.66	1687.53
324.88	1732.58
325.09	1816.55
325.30	1751.01
325.52	1646.57
325.73	1763.30
325.94	1701.86
326.15	1560.55
326.37	1748.97
326.58	1779.68
326.79	1849.32
327.00	1665.00
327.22	1687.53
327.43	1656.81
327.64	1665.00
327.85	1705.96
328.07	1675.24
328.28	1806.31
328.49	1710.05
328.70	1675.24
328.92	1789.92
329.13	1679.33
329.34	1738.73
329.55	1798.12
329.76	1705.96
329.98	1654.76
330.19	1787.88
330.40	1697.77
330.61	1675.24
330.83	1732.58
331.04	1736.68
331.25	1710.05
331.46	1648.61
331.68	1628.14
331.89	1775.59
332.10	1701.86
332.31	1593.32
332.52	1654.76
332.74	1705.96
332.95	1560.55
333.16	1656.81
333.37	1773.54
333.58	1607.66
333.80	1732.58
334.01	1619.94
334.22	1617.90
334.43	1675.24
334.64	1716.20
334.86	1599.46
335.07	1642.47
335.28	1785.83
335.49	1554.41
335.70	1740.77
335.92	1759.21
336.13	1841.12
336.34	1697.77
336.55	1701.86
336.76	1693.67
336.98	1542.12
337.19	1708.01
337.40	1783.78
337.61	1871.84
337.82	1632.23
338.04	1695.72
338.25	1650.66
338.46	1724.39
338.67	1722.34
338.88	1650.66
339.09	1724.39
339.31	1656.81
339.52	1615.85
339.73	1648.61
339.94	1654.76
340.15	1751.01
340.36	1607.66
340.58	1689.57
340.79	1669.09
341.00	1765.35
341.21	1624.04
341.42	1812.45
341.63	1736.68
341.85	1724.39
342.06	1794.02
342.27	1619.94
342.48	1798.12
342.69	1570.79
342.90	1652.71
343.12	1697.77
343.33	1714.15
343.54	1773.54
343.75	1724.39
343.96	1708.01
344.17	1642.47
344.38	1695.72
344.60	1640.42
344.81	1691.62
345.02	1652.71
345.23	1738.73
345.44	1751.01
345.65	1791.97
345.86	1765.35
346.07	1701.86
346.29	1675.24
346.50	1677.29
346.71	1712.10
346.92	1724.39
347.13	1837.03
347.34	1652.71
347.55	1662.95
347.76	1720.29
347.98	1687.53
348.19	1634.28
348.40	1787.88
348.61	1705.96
348.82	1798.12
349.03	1734.63
349.24	1640.42
349.45	1773.54
349.66	1558.50
349.88	1703.91
350.09	1671.14
350.30	1718.25
350.51	1740.77
350.72	1708.01
350.93	1787.88
351.14	1708.01
351.35	1728.49
351.56	1753.06
351.77	1675.24
351.99	1789.92
352.20	1808.36
352.41	1773.54
352.62	1550.31
352.83	1634.28
353.04	1794.02
353.25	1677.29
353.46	1777.64
353.67	1849.32
353.88	1636.33
354.09	1732.58
354.30	1683.43
354.52	1679.33
354.73	1605.61
354.94	1689.57
355.15	1656.81
355.36	1814.50
355.57	1712.10
355.78	1748.97
355.99	1632.23
356.20	1714.15
356.41	1746.92
356.62	1759.21
356.83	1671.14
357.04	1783.78
357.25	1603.56
357.46	1671.14
357.68	1576.94
357.89	1652.71
358.10	1662.95
358.31	1732.58
358.52	1708.01
358.73	1683.43
358.94	1703.91
359.15	1703.91
359.36	1771.49
359.57	1669.09
359.78	1765.35
359.99	1728.49
360.20	1599.46
360.41	1740.77
360.62	1722.34
360.83	1667.05
361.04	1748.97
361.25	1689.57
361.46	1781.73
361.67	1687.53
361.88	1736.68
362.09	1736.68
362.30	1724.39
362.51	1644.52
362.72	1728.49
362.93	1806.31
363.14	1712.10
363.35	1673.19
363.56	1677.29
363.78	1730.53
363.99	1806.31
364.20	1636.33
364.41	1753.06
364.62	1789.92
364.83	1673.19
365.04	1671.14
365.25	1611.75
365.46	1771.49
365.67	1619.94
365.88	1642.47
366.09	1695.72
366.30	1673.19
366.51	1675.24
366.72	1648.61
366.93	1689.57
367.14	1744.87
367.35	1771.49
367.56	1660.90
367.77	1810.40
367.98	1718.25
368.18	1708.01
368.39	1748.97
368.60	1685.48
368.81	1777.64
369.02	1716.20
369.23	1628.14
369.44	1597.42
369.65	1736.68
369.86	1683.43
370.07	1767.40
370.28	1660.90
370.49	1769.44
370.70	1742.82
370.91	1636.33
371.12	1671.14
371.33	1697.77
371.54	1714.15
371.75	1814.50
371.96	1544.17
372.17	1681.38
372.38	1689.57
372.59	1744.87
372.80	1673.19
373.01	1738.73
373.22	1796.07
373.43	1744.87
373.64	1621.99
373.85	1779.68
374.06	1746.92
374.26	1738.73
374.47	1724.39
374.68	1847.27
374.89	1687.53
375.10	1646.57
375.31	1808.36
375.52	1771.49
375.73	1771.49
375.94	1675.24
376.15	1757.16
376.36	1669.09
376.57	1619.94
376.78	1673.19
376.99	1714.15
377.20	1796.07
377.40	1712.10
377.61	1859.56
377.82	1656.81
378.03	1787.88
378.24	1734.63
378.45	1724.39
378.66	1763.30
378.87	1538.02
379.08	1669.09
379.29	1712.10
379.50	1763.30
379.71	1675.24
379.91	1746.92
380.12	1689.57
380.33	1665.00
380.54	1693.67
380.75	1699.81
380.96	1644.52
381.17	1767.40
381.38	1726.44
381.59	1705.96
381.80	1736.68
382.00	1839.08
382.21	1773.54
382.42	1873.89
382.63	1908.71
382.84	1804.26
383.05	1867.75
383.26	1822.69
383.47	1722.34
383.68	1769.44
383.88	1718.25
384.09	1701.86
384.30	1820.64
384.51	1736.68
384.72	1687.53
384.93	1587.18
385.14	1656.81
385.35	1740.77
385.55	1642.47
385.76	1734.63
385.97	1710.05
386.18	1744.87
386.39	1630.18
386.60	1738.73
386.81	1654.76
387.02	1581.03
387.22	1595.37
387.43	1691.62
387.64	1851.36
387.85	1890.28
388.06	2209.76
388.27	4128.70
388.48	6563.74
388.68	7808.90
388.89	9095.03
389.10	9340.79
389.31	7980.93
389.52	7292.82
389.73	6434.72
389.93	6078.37
390.14	5627.82
390.35	5031.86
390.56	4396.99
390.77	3741.64
390.98	2904.02
391.18	2412.51
391.39	2123.74
391.60	1865.70
391.81	1918.95
392.02	1722.34
392.23	1912.80
392.43	1777.64
392.64	1751.01
392.85	1734.63
393.06	1730.53
393.27	1755.11
393.47	1630.18
393.68	1781.73
393.89	1648.61
394.10	1775.59
394.31	1728.49
394.52	1677.29
394.72	1660.90
394.93	1740.77
395.14	1693.67
395.35	1771.49
395.56	1703.91
395.76	1773.54
395.97	1748.97
396.18	1841.12
396.39	1880.04
396.60	2027.49
396.80	1968.10
397.01	1794.02
397.22	1873.89
397.43	1832.93
397.64	1769.44
397.84	1869.80
398.05	1906.66
398.26	1744.87
398.47	1734.63
398.67	1779.68
398.88	1703.91
399.09	1738.73
399.30	1632.23
399.51	1753.06
399.71	1673.19
399.92	1757.16
400.13	1718.25
400.34	1654.76
400.54	1699.81
400.75	1798.12
400.96	1773.54
401.17	1718.25
401.37	1757.16
401.58	1701.86
401.79	1728.49
402.00	1849.32
402.21	1953.76
402.41	1925.09
402.62	1945.57
402.83	2072.54
403.04	1927.14
403.24	2097.12
403.45	1818.60
403.66	1845.22
403.87	1845.22
404.07	1935.33
404.28	1859.56
404.49	1918.95
404.70	1757.16
404.90	1726.44
405.11	1761.25
405.32	1746.92
405.52	1734.63
405.73	1726.44
405.94	1730.53
406.15	1695.72
406.35	1748.97
406.56	1771.49
406.77	1724.39
406.98	1681.38
407.18	1683.43
407.39	1843.17
407.60	1646.57
407.80	1751.01
408.01	1714.15
408.22	1697.77
408.43	1636.33
408.63	1824.74
408.84	1779.68
409.05	1693.67
409.25	1681.38
409.46	1681.38
409.67	1636.33
409.88	1689.57
410.08	1714.15
410.29	1708.01
410.50	1693.67
410.70	1757.16
410.91	1677.29
411.12	1710.05
411.32	1714.15
411.53	1716.20
411.74	1779.68
411.95	1693.67
412.15	1814.50
412.36	1791.97
412.57	1726.44
412.77	1779.68
412.98	1738.73
413.19	1681.38
413.39	1800.16
413.60	1746.92
413.81	1841.12
414.01	1697.77
414.22	1662.95
414.43	1708.01
414.63	1755.11
414.84	1781.73
415.05	1728.49
415.25	1650.66
415.46	1710.05
415.67	1642.47
415.87	1703.91
416.08	1804.26
416.29	1646.57
416.49	1705.96
416.70	1714.15
416.91	1677.29
417.11	1665.00
417.32	1687.53
417.53	1712.10
417.73	1701.86
417.94	1632.23
418.15	1732.58
418.35	1693.67
418.56	1720.29
418.77	1902.56
418.97	1662.95
419.18	1681.38
419.38	1564.65
419.59	1703.91
419.80	1771.49
420.00	1626.09
420.21	1667.05
420.42	1808.36
420.62	1804.26
420.83	1578.98
421.04	1740.77
421.24	1720.29
421.45	1708.01
421.65	1703.91
421.86	1708.01
422.07	1742.82
422.27	1773.54
422.48	1748.97
422.69	1626.09
422.89	1722.34
423.10	1652.71
423.30	1628.14
423.51	1703.91
423.72	1722.34
423.92	1724.39
424.13	1603.56
424.33	1771.49
424.54	1798.12
424.75	1728.49
424.95	1755.11
425.16	1667.05
425.36	1751.01
425.57	1781.73
425.78	1734.63
425.98	1767.40
426.19	1669.09
426.39	1652.71
426.60	1720.29
426.81	1753.06
427.01	1703.91
427.22	1603.56
427.42	1603.56
427.63	1658.85
427.83	1824.74
428.04	1794.02
428.25	1779.68
428.45	1757.16
428.66	1730.53
428.86	1722.34
429.07	1767.40
429.28	1722.34
429.48	1662.95
429.69	1699.81
429.89	1640.42
430.10	1642.47
430.30	1736.68
430.51	1773.54
430.71	1705.96
430.92	1703.91
431.13	1734.63
431.33	1798.12
431.54	1742.82
431.74	1812.45
431.95	1759.21
432.15	1656.81
432.36	1710.05
432.56	1710.05
432.77	1853.41
432.98	1769.44
433.18	1716.20
433.39	1796.07
433.59	1656.81
433.80	1886.18
434.00	1822.69
434.21	1624.04
434.41	1648.61
434.62	1822.69
434.82	1658.85
435.03	1689.57
435.23	1726.44
435.44	1648.61
435.64	1691.62
435.85	1726.44
436.06	1736.68
436.26	1765.35
436.47	1654.76
436.67	1636.33
436.88	1718.25
437.08	1740.77
437.29	1847.27
437.49	1689.57
437.70	1832.93
437.90	1681.38
438.11	1859.56
438.31	1732.58
438.52	1822.69
438.72	1804.26
438.93	1861.60
439.13	1779.68
439.34	1779.68
439.54	1718.25
439.75	1798.12
439.95	1771.49
440.16	1648.61
440.36	1726.44
440.57	1675.24
440.77	1877.99
440.98	1755.11
441.18	1693.67
441.39	1669.09
441.59	1660.90
441.80	1847.27
442.00	1712.10
442.21	1808.36
442.41	1673.19
442.62	1746.92
442.82	1708.01
443.02	1695.72
443.23	1794.02
443.43	1683.43
443.64	1865.70
443.84	1677.29
444.05	1779.68
444.25	1734.63
444.46	1691.62
444.66	1621.99
444.87	1855.46
445.07	1675.24
445.28	1712.10
445.48	1822.69
445.69	1761.25
445.89	1867.75
446.09	1759.21
446.30	2070.50
446.50	2541.53
446.71	3657.67
446.91	4235.20
447.12	4448.19
447.32	4728.76
447.53	4126.66
447.73	3782.60
447.93	3397.58
448.14	3196.88
448.34	3100.62
448.55	2770.90
448.75	2699.22
448.96	2760.66
449.16	2363.36
449.36	2234.33
449.57	2062.30
449.77	1875.94
449.98	1820.64
450.18	1824.74
450.39	1802.21
450.59	1802.21
450.79	1683.43
451.00	1708.01
451.20	1832.93
451.41	1671.14
451.61	1781.73
451.81	1730.53
452.02	1744.87
452.22	1658.85
452.43	1683.43
452.63	1632.23
452.84	1736.68
453.04	1724.39
453.24	1658.85
453.45	1689.57
453.65	1808.36
453.86	1771.49
454.06	1708.01
454.26	1773.54
454.47	1730.53
454.67	1800.16
454.87	1675.24
455.08	1722.34
455.28	1834.98
455.49	1740.77
455.69	1673.19
455.89	1894.37
456.10	1771.49
456.30	1753.06
456.51	1726.44
456.71	1765.35
456.91	1734.63
457.12	1687.53
457.32	1773.54
457.52	1660.90
457.73	1742.82
457.93	1757.16
458.14	1755.11
458.34	1691.62
458.54	1705.96
458.75	1726.44
458.95	1785.83
459.15	1724.39
459.36	1708.01
459.56	1783.78
459.76	1859.56
459.97	1705.96
460.17	1697.77
460.37	1734.63
460.58	1744.87
460.78	1789.92
460.99	1673.19
461.19	1720.29
461.39	1775.59
461.60	1703.91
461.80	1830.88
462.00	1699.81
462.21	1742.82
462.41	1697.77
462.61	1619.94
462.82	1667.05
463.02	1699.81
463.22	1687.53
463.43	1882.08
463.63	1748.97
463.83	1767.40
464.04	1779.68
464.24	1730.53
464.44	1662.95
464.64	1718.25
464.85	1769.44
465.05	1755.11
465.25	1757.16
465.46	1738.73
465.66	1761.25
465.86	1724.39
466.07	1759.21
466.27	1775.59
466.47	1650.66
466.68	1681.38
466.88	1861.60
467.08	1800.16
467.29	1746.92
467.49	1787.88
467.69	1695.72
467.89	1759.21
468.10	1769.44
468.30	1763.30
468.50	1884.13
468.71	1794.02
468.91	1591.27
469.11	1873.89
469.31	1744.87
469.52	1681.38
469.72	1832.93
469.92	1779.68
470.13	1728.49
470.33	1845.22
470.53	1886.18
470.73	2156.51
470.94	2254.81
471.14	2287.58
471.34	2484.19
471.54	2353.12
471.75	2152.42
471.95	2129.89
472.15	2095.07
472.36	2017.25
472.56	2070.50
472.76	2099.17
472.96	2043.87
473.17	1826.79
473.37	1871.84
473.57	1824.74
473.77	1839.08
473.98	1785.83
474.18	1628.14
474.38	1898.47
474.58	1734.63
474.79	1697.77
474.99	1716.20
475.19	1845.22
475.39	1677.29
475.60	1693.67
475.80	1755.11
476.00	1691.62
476.20	1667.05
476.41	1804.26
476.61	1824.74
476.81	1761.25
477.01	1714.15
477.21	1849.32
477.42	1730.53
477.62	1660.90
477.82	1804.26
478.02	1710.05
478.23	1736.68
478.43	1708.01
478.63	1755.11
478.83	1748.97
479.03	1681.38
479.24	1726.44
479.44	1812.45
479.64	1736.68
479.84	1626.09
480.04	1683.43
480.25	1714.15
480.45	1650.66
480.65	1607.66
480.85	1810.40
481.06	1644.52
481.26	1687.53
481.46	1732.58
481.66	1710.05
481.86	1591.27
482.06	1724.39
482.27	1679.33
482.47	1701.86
482.67	1763.30
482.87	1714.15
483.07	1824.74
483.28	1710.05
483.48	1677.29
483.68	1691.62
483.88	1628.14
484.08	1683.43
484.29	1673.19
484.49	1724.39
484.69	1689.57
484.89	1808.36
485.09	1732.58
485.29	1660.90
485.50	1710.05
485.70	1673.19
485.90	1822.69
486.10	1634.28
486.30	1773.54
486.50	1783.78
486.71	1716.20
486.91	1773.54
487.11	1746.92
487.31	1705.96
487.51	1814.50
487.71	1677.29
487.91	1570.79
488.12	1683.43
488.32	1634.28
488.52	1728.49
488.72	1630.18
488.92	1689.57
489.12	1771.49
489.32	1726.44
489.53	1746.92
489.73	1699.81
489.93	1775.59
490.13	1708.01
490.33	1533.93
490.53	1726.44
490.73	1708.01
490.94	1660.90
491.14	1759.21
491.34	1898.47
491.54	2052.06
491.74	2549.72
491.94	2822.10
492.14	2965.46
492.34	2877.40
492.54	2787.29
492.75	2496.47
492.95	2504.67
493.15	2260.96
493.35	2332.64
493.55	2195.42
493.75	2084.83
493.95	2199.52
494.15	2023.39
494.35	1910.75
494.56	1830.88
494.76	1787.88
494.96	1785.83
495.16	1746.92
495.36	1746.92
495.56	1765.35
495.76	1685.48
495.96	1726.44
496.16	1716.20
496.36	1847.27
496.56	1734.63
496.77	1718.25
496.97	1740.77
497.17	1875.94
497.37	1667.05
497.57	1714.15
497.77	1724.39
497.97	1732.58
498.17	1705.96
498.37	1755.11
498.57	1734.63
498.77	1787.88
498.97	1740.77
499.17	1869.80
499.38	1712.10
499.58	1791.97
499.78	1822.69
499.98	1757.16
500.18	1648.61
500.38	1675.24
500.58	1873.89
500.78	2465.75
500.98	4343.74
501.18	5521.32
501.38	6481.82
501.58	6924.18
501.78	6236.06
501.98	5375.92
502.18	4769.72
502.38	4239.30
502.58	3973.06
502.78	3717.06
502.98	3495.88
503.18	3338.19
503.38	3074.00
503.59	2721.75
503.79	2682.84
503.99	2410.46
504.19	2263.01
504.39	2172.89
504.59	2213.85
504.79	2056.16
504.99	1978.34
505.19	1951.71
505.39	1945.57
505.59	1970.15
505.79	1849.32
505.99	1841.12
506.19	1847.27
506.39	1855.46
506.59	1746.92
506.79	1748.97
506.99	1783.78
507.19	1773.54
507.39	1730.53
507.59	1667.05
507.79	1632.23
507.99	1689.57
508.19	1695.72
508.39	1710.05
508.59	1701.86
508.79	1814.50
508.99	1916.90
509.19	1722.34
509.39	1753.06
509.59	1759.21
509.79	1699.81
509.99	1757.16
510.19	1705.96
510.39	1830.88
510.59	1773.54
510.79	1773.54
510.99	1740.77
511.19	1710.05
511.39	1785.83
511.59	1773.54
511.79	1820.64
511.99	1767.40
512.19	1791.97
512.38	1779.68
512.58	1742.82
512.78	1740.77
512.98	1773.54
513.18	1869.80
513.38	1648.61
513.58	1787.88
513.78	1662.95
513.98	1697.77
514.18	1738.73
514.38	1724.39
514.58	1683.43
514.78	1789.92
514.98	1689.57
515.18	1763.30
515.38	1710.05
515.58	1843.17
515.78	1636.33
515.98	1681.38
516.18	1740.77
516.38	1689.57
516.57	1642.47
516.77	1673.19
516.97	1818.60
517.17	1634.28
517.37	1624.04
517.57	1779.68
517.77	1728.49
517.97	1738.73
518.17	1800.16
518.37	1654.76
518.57	1683.43
518.77	1812.45
518.97	1726.44
519.16	1658.85
519.36	1814.50
519.56	1714.15
519.76	1775.59
519.96	1730.53
520.16	1769.44
520.36	1697.77
520.56	1744.87
520.76	1665.00
520.96	1712.10
521.16	1804.26
521.35	1855.46
521.55	1755.11
521.75	1773.54
521.95	1712.10
522.15	1751.01
522.35	1662.95
522.55	1730.53
522.75	1798.12
522.95	1708.01
523.14	1685.48
523.34	1824.74
523.54	1652.71
523.74	1824.74
523.94	1818.60
524.14	1650.66
524.34	1705.96
524.54	1740.77
524.73	1669.09
524.93	1742.82
525.13	1791.97
525.33	1712.10
525.53	1839.08
525.73	1736.68
525.93	1679.33
526.13	1775.59
526.32	1746.92
526.52	1748.97
526.72	1834.98
526.92	1701.86
527.12	1759.21
527.32	1619.94
527.52	1751.01
527.71	1732.58
527.91	1771.49
528.11	1705.96
528.31	1714.15
528.51	1695.72
528.71	1734.63
528.90	1771.49
529.10	1798.12
529.30	1832.93
529.50	1617.90
529.70	1773.54
529.90	1699.81
530.09	1763.30
530.29	1597.42
530.49	1712.10
530.69	1886.18
530.89	1746.92
531.09	1771.49
531.28	1765.35
531.48	1796.07
531.68	1753.06
531.88	1689.57
532.08	1714.15
532.28	1708.01
532.47	1746.92
532.67	1806.31
532.87	1802.21
533.07	1673.19
533.27	1773.54
533.46	1812.45
533.66	1705.96
533.86	1703.91
534.06	1755.11
534.26	1718.25
534.45	1689.57
534.65	1781.73
534.85	1730.53
535.05	1679.33
535.25	1734.63
535.44	1617.90
535.64	1773.54
535.84	1746.92
536.04	1626.09
536.24	1753.06
536.43	1699.81
536.63	1693.67
536.83	1695.72
537.03	1757.16
537.22	1611.75
537.42	1658.85
537.62	1802.21
537.82	1710.05
538.02	1806.31
538.21	1806.31
538.41	1826.79
538.61	1791.97
538.81	1763.30
539.00	1789.92
539.20	1642.47
539.40	1763.30
539.60	1779.68
539.79	1751.01
539.99	1753.06
540.19	1710.05
540.39	1777.64
540.58	1779.68
540.78	1759.21
540.98	1693.67
541.18	1755.11
541.37	1804.26
541.57	1763.30
541.77	1765.35
541.97	1640.42
542.16	1621.99
542.36	1755.11
542.56	1646.57
542.76	1882.08
542.95	1767.40
543.15	1718.25
543.35	1746.92
543.54	1695.72
543.74	1640.42
543.94	1738.73
544.14	1742.82
544.33	1785.83
544.53	1732.58
544.73	1734.63
544.93	1779.68
545.12	1718.25
545.32	1761.25
545.52	1732.58
545.71	1718.25
545.91	1681.38
546.11	1728.49
546.30	1638.38
546.50	1757.16
546.70	1771.49
546.90	1744.87
547.09	1581.03
547.29	1681.38
547.49	1794.02
547.68	1759.21
547.88	1730.53
548.08	1849.32
548.27	2054.11
548.47	1730.53
548.67	1636.33
548.87	1767.40
549.06	1748.97
549.26	1732.58
549.46	1736.68
549.65	1689.57
549.85	1646.57
550.05	1681.38
550.24	1718.25
550.44	1722.34
550.64	1728.49
550.83	1744.87
551.03	1771.49
551.23	1812.45
551.42	1804.26
551.62	1742.82
551.82	1689.57
552.01	1679.33
552.21	1794.02
552.41	1746.92
552.60	1912.80
552.80	1667.05
553.00	1703.91
553.19	1789.92
553.39	1806.31
553.59	1730.53
553.78	1708.01
553.98	1802.21
554.17	1632.23
554.37	1720.29
554.57	1800.16
554.76	1669.09
554.96	1724.39
555.16	1728.49
555.35	1671.14
555.55	1791.97
555.75	1898.47
555.94	1808.36
556.14	1648.61
556.33	1767.40
556.53	1820.64
556.73	1650.66
556.92	1755.11
557.12	1847.27
557.32	1785.83
557.51	1804.26
557.71	1810.40
557.90	1832.93
558.10	1806.31
558.30	1705.96
558.49	1607.66
558.69	1722.34
558.88	1748.97
559.08	1753.06
559.28	1683.43
559.47	1771.49
559.67	1773.54
559.86	1808.36
560.06	1703.91
560.26	1785.83
560.45	1742.82
560.65	1748.97
560.84	1810.40
561.04	1693.67
561.24	1814.50
561.43	1677.29
561.63	1845.22
561.82	1845.22
562.02	1789.92
562.22	1673.19
562.41	1699.81
562.61	1703.91
562.80	1581.03
563.00	1841.12
563.19	1769.44
563.39	1734.63
563.59	1699.81
563.78	1673.19
563.98	1703.91
564.17	1748.97
564.37	1671.14
564.56	1662.95
564.76	1740.77
564.96	1814.50
565.15	1697.77
565.35	1843.17
565.54	1791.97
565.74	1841.12
565.93	1814.50
566.13	1736.68
566.32	1662.95
566.52	1759.21
566.71	1695.72
566.91	1732.58
567.11	1720.29
567.30	1697.77
567.50	1814.50
567.69	1769.44
567.89	1734.63
568.08	1673.19
568.28	1802.21
568.47	1667.05
568.67	1798.12
568.86	1705.96
569.06	1751.01
569.25	1738.73
569.45	1755.11
569.64	1695.72
569.84	1761.25
570.04	1736.68
570.23	1810.40
570.43	1675.24
570.62	1761.25
570.82	1796.07
571.01	1697.77
571.21	1746.92
571.40	1769.44
571.60	1832.93
571.79	1816.55
571.99	1789.92
572.18	1667.05
572.38	1806.31
572.57	1740.77
572.77	1695.72
572.96	1875.94
573.16	1744.87
573.35	1746.92
573.55	1820.64
573.74	1742.82
573.94	1775.59
574.13	1765.35
574.33	1761.25
574.52	1781.73
574.71	1675.24
574.91	1744.87
575.10	1732.58
575.30	1708.01
575.49	1619.94
575.69	1738.73
575.88	1765.35
576.08	1669.09
576.27	1841.12
576.47	1665.00
576.66	1791.97
576.86	1763.30
577.05	1708.01
577.25	1800.16
577.44	1875.94
577.64	1736.68
577.83	1832.93
578.02	1761.25
578.22	1765.35
578.41	1824.74
578.61	1609.70
578.80	1624.04
579.00	1740.77
579.19	1718.25
579.39	1757.16
579.58	1787.88
579.77	1783.78
579.97	1787.88
580.16	1816.55
580.36	1814.50
580.55	1789.92
580.75	1791.97
580.94	1740.77
581.13	1886.18
581.33	1845.22
581.52	1740.77
581.72	1830.88
581.91	1775.59
582.11	1687.53
582.30	1775.59
582.49	1748.97
582.69	1869.80
582.88	1781.73
583.08	1800.16
583.27	1748.97
583.47	1763.30
583.66	1730.53
583.85	1705.96
584.05	1794.02
584.24	1818.60
584.44	1787.88
584.63	1800.16
584.82	1849.32
585.02	1796.07
585.21	1796.07
585.41	1863.65
585.60	1804.26
585.79	1961.95
585.99	1839.08
586.18	1927.14
586.37	2170.85
586.57	3387.34
586.76	9406.32
586.96	23492.25
587.15	32376.34
587.34	38194.62
587.54	40289.69
587.73	34807.28
587.93	24970.88
588.12	20557.51
588.31	17528.56
588.51	15460.12
588.70	14409.51
588.89	13487.92
589.09	12199.75
589.28	10563.42
589.47	9015.16
589.67	7647.12
589.86	6236.06
590.06	4775.86
590.25	3712.97
590.44	3020.75
590.64	2623.45
590.83	2240.48
591.02	2017.25
591.22	1925.09
591.41	1910.75
591.60	1857.51
591.80	1929.19
591.99	1757.16
592.18	1705.96
592.38	1871.84
592.57	1740.77
592.76	1765.35
592.96	1781.73
593.15	1773.54
593.34	1834.98
593.54	1777.64
593.73	1849.32
593.92	1777.64
594.12	1697.77
594.31	1769.44
594.50	1810.40
594.70	1834.98
594.89	1824.74
595.08	1703.91
595.28	1751.01
595.47	1900.52
595.66	1820.64
595.86	1619.94
596.05	1763.30
596.24	1673.19
596.43	1882.08
596.63	1808.36
596.82	1738.73
597.01	1738.73
597.21	1822.69
597.40	1806.31
597.59	1714.15
597.79	1789.92
597.98	1796.07
598.17	1740.77
598.36	1798.12
598.56	1804.26
598.75	1677.29
598.94	1757.16
599.14	1726.44
599.33	1691.62
599.52	1828.84
599.71	1689.57
599.91	1757.16
600.10	1712.10
600.29	1796.07
600.48	1804.26
600.68	1777.64
600.87	1753.06
601.06	1732.58
601.26	1765.35
601.45	1789.92
601.64	1716.20
601.83	1785.83
602.03	1787.88
602.22	1689.57
602.41	1781.73
602.60	1830.88
602.80	1775.59
602.99	1779.68
603.18	1675.24
603.37	1722.34
603.57	1720.29
603.76	1763.30
603.95	1832.93
604.14	1703.91
604.34	1665.00
604.53	1736.68
604.72	1791.97
604.91	1787.88
605.10	1818.60
605.30	1603.56
605.49	1800.16
605.68	1740.77
605.87	1753.06
606.07	1701.86
606.26	1738.73
606.45	1751.01
606.64	1751.01
606.84	1697.77
607.03	1683.43
607.22	1779.68
607.41	1687.53
607.60	1654.76
607.80	1861.60
607.99	1726.44
608.18	1699.81
608.37	1660.90
608.56	1669.09
608.76	1624.04
608.95	1898.47
609.14	1724.39
609.33	1777.64
609.52	1816.55
609.72	1697.77
609.91	1730.53
610.10	1748.97
610.29	1830.88
610.48	1765.35
610.68	1718.25
610.87	1751.01
611.06	1742.82
611.25	1658.85
611.44	1802.21
611.63	1708.01
611.83	1884.13
612.02	1667.05
612.21	1738.73
612.40	1660.90
612.59	1650.66
612.79	1611.75
612.98	1730.53
613.17	1796.07
613.36	1708.01
613.55	1800.16
613.74	1701.86
613.93	1716.20
614.13	1742.82
614.32	1693.67
614.51	1779.68
614.70	1689.57
614.89	1724.39
615.08	1781.73
615.28	2000.87
615.47	1619.94
615.66	1800.16
615.85	1722.34
616.04	1781.73
616.23	1775.59
616.42	1726.44
616.62	1679.33
616.81	1759.21
617.00	1671.14
617.19	1771.49
617.38	1681.38
617.57	1710.05
617.76	1720.29
617.95	1716.20
618.15	1800.16
618.34	1892.32
618.53	1652.71
618.72	1787.88
618.91	1849.32
619.10	1886.18
619.29	1736.68
619.48	1746.92
619.68	1701.86
619.87	1800.16
620.06	1687.53
620.25	1732.58
620.44	1697.77
620.63	1701.86
620.82	1769.44
621.01	1693.67
621.20	1746.92
621.39	1787.88
621.59	1716.20
621.78	1701.86
621.97	1681.38
622.16	1785.83
622.35	1773.54
622.54	1849.32
622.73	1775.59
622.92	1654.76
623.11	1757.16
623.30	1726.44
623.49	1708.01
623.68	1683.43
623.88	1812.45
624.07	1734.63
624.26	1634.28
624.45	1755.11
624.64	1660.90
624.83	1699.81
625.02	1751.01
625.21	1687.53
625.40	1656.81
625.59	1796.07
625.78	1712.10
625.97	1800.16
626.16	1808.36
626.35	1740.77
626.54	1669.09
626.74	1767.40
626.93	1671.14
627.12	1705.96
627.31	1759.21
627.50	1718.25
627.69	1820.64
627.88	1665.00
628.07	1693.67
628.26	1634.28
628.45	1548.26
628.64	1648.61
628.83	1705.96
629.02	1687.53
629.21	1812.45
629.40	1710.05
629.59	1642.47
629.78	1708.01
629.97	1753.06
630.16	1808.36
630.35	1714.15
630.54	1687.53
630.73	1626.09
630.92	1705.96
631.11	1693.67
631.30	1714.15
631.49	1746.92
631.68	1738.73
631.87	1695.72
632.06	1644.52
632.25	1908.71
632.44	1697.77
632.63	1679.33
632.82	1679.33
633.01	1632.23
633.20	1660.90
633.39	1630.18
633.58	1636.33
633.77	1710.05
633.96	1740.77
634.15	1751.01
634.34	1755.11
634.53	1705.96
634.72	1656.81
634.91	1607.66
635.10	1730.53
635.29	1746.92
635.48	1697.77
635.67	1568.74
635.86	1652.71
636.05	1783.78
636.24	1775.59
636.43	1656.81
636.62	1796.07
636.81	1640.42
637.00	1730.53
637.19	1853.41
637.38	1722.34
637.57	1609.70
637.76	1785.83
637.95	1728.49
638.14	1699.81
638.33	1734.63
638.52	1683.43
638.71	1667.05
638.89	1685.48
639.08	1886.18
639.27	1705.96
639.46	1710.05
639.65	1789.92
639.84	1687.53
640.03	1718.25
640.22	1660.90
640.41	1818.60
640.60	1689.57
640.79	1669.09
640.98	1732.58
641.17	1742.82
641.36	1732.58
641.55	1738.73
641.74	1619.94
641.92	1630.18
642.11	1697.77
642.30	1640.42
642.49	1644.52
642.68	1724.39
642.87	1662.95
643.06	1751.01
643.25	1662.95
643.44	1624.04
643.63	1814.50
643.82	1755.11
644.00	1658.85
644.19	1697.77
644.38	1675.24
644.57	1742.82
644.76	1679.33
644.95	1667.05
645.14	1708.01
645.33	1671.14
645.52	1705.96
645.71	1685.48
645.89	1687.53
646.08	1796.07
646.27	1687.53
646.46	1845.22
646.65	1626.09
646.84	1724.39
647.03	1703.91
647.22	1751.01
647.40	1761.25
647.59	1732.58
647.78	1644.52
647.97	1689.57
648.16	1691.62
648.35	1804.26
648.54	1718.25
648.73	1718.25
648.91	1728.49
649.10	1705.96
649.29	1648.61
649.48	1634.28
649.67	1726.44
649.86	1751.01
650.05	1685.48
650.23	1718.25
650.42	1634.28
650.61	1726.44
650.80	1812.45
650.99	1816.55
651.18	1714.15
651.36	1787.88
651.55	1658.85
651.74	1665.00
651.93	1695.72
652.12	1634.28
652.31	1689.57
652.49	1624.04
652.68	1683.43
652.87	1736.68
653.06	1693.67
653.25	1816.55
653.44	1722.34
653.62	1804.26
653.81	1699.81
654.00	1699.81
654.19	1812.45
654.38	1808.36
654.56	1714.15
654.75	1640.42
654.94	1679.33
655.13	1681.38
655.32	1648.61
655.51	1853.41
655.69	1722.34
655.88	1724.39
656.07	1636.33
656.26	1751.01
656.45	1687.53
656.63	1714.15
656.82	1730.53
657.01	1742.82
657.20	1720.29
657.38	1779.68
657.57	1734.63
657.76	1628.14
657.95	1726.44
658.14	1681.38
658.32	1681.38
658.51	1634.28
658.70	1757.16
658.89	1724.39
659.08	1677.29
659.26	1839.08
659.45	1626.09
659.64	1687.53
659.83	1710.05
660.01	1871.84
660.20	1716.20
660.39	1816.55
660.58	1669.09
660.76	1703.91
660.95	1636.33
661.14	1669.09
661.33	1599.46
661.51	1722.34
661.70	1759.21
661.89	1769.44
662.08	1812.45
662.26	1624.04
662.45	1642.47
662.64	1781.73
662.83	1773.54
663.01	1683.43
663.20	1636.33
663.39	1804.26
663.58	1755.11
663.76	1736.68
663.95	1695.72
664.14	1619.94
664.32	1669.09
664.51	1689.57
664.70	1533.93
664.89	1738.73
665.07	1675.24
665.26	1673.19
665.45	1671.14
665.64	1691.62
665.82	1726.44
666.01	1804.26
666.20	1669.09
666.38	1732.58
666.57	1822.69
666.76	2117.60
666.95	4323.26
667.13	9783.15
667.32	14440.23
667.51	16879.36
667.69	18263.79
667.88	17026.81
668.07	11794.25
668.25	9109.36
668.44	7856.01
668.63	7018.39
668.81	6680.47
669.00	6000.55
669.19	5498.80
669.38	5005.24
669.56	4501.44
669.75	3887.04
669.94	3164.11
670.12	2809.81
670.31	2418.65
670.50	2265.05
670.68	1949.67
670.87	1933.28
671.06	1726.44
671.24	1828.84
671.43	1808.36
671.62	1673.19
671.80	1710.05
671.99	1656.81
672.18	1646.57
672.36	1755.11
672.55	1728.49
672.74	1689.57
672.92	1726.44
673.11	1732.58
673.29	1703.91
673.48	1785.83
673.67	1632.23
673.85	1779.68
674.04	1724.39
674.23	1720.29
674.41	1796.07
674.60	1675.24
674.79	1634.28
674.97	1710.05
675.16	1722.34
675.34	1763.30
675.53	1687.53
675.72	1671.14
675.90	1820.64
676.09	1679.33
676.28	1730.53
676.46	1587.18
676.65	1763.30
676.83	1708.01
677.02	1697.77
677.21	1705.96
677.39	1726.44
677.58	1714.15
677.77	1669.09
677.95	1738.73
678.14	1757.16
678.32	1685.48
678.51	1697.77
678.70	1826.79
678.88	1695.72
679.07	1701.86
679.25	1730.53
679.44	1687.53
679.63	1673.19
679.81	1691.62
680.00	1806.31
680.18	1722.34
680.37	1804.26
680.55	1761.25
680.74	1593.32
680.93	1611.75
681.11	1744.87
681.30	1699.81
681.48	1652.71
681.67	1658.85
681.85	1714.15
682.04	1744.87
682.23	1796.07
682.41	1701.86
682.60	1701.86
682.78	1697.77
682.97	1677.29
683.15	1671.14
683.34	1773.54
683.53	1777.64
683.71	1646.57
683.90	1767.40
684.08	1796.07
684.27	1648.61
684.45	1746.92
684.64	1789.92
684.82	1650.66
685.01	1816.55
685.19	1716.20
685.38	1861.60
685.57	1728.49
685.75	1697.77
685.94	1716.20
686.12	1679.33
686.31	1665.00
686.49	1859.56
686.68	1597.42
686.86	1708.01
687.05	1722.34
687.23	1828.84
687.42	1652.71
687.60	1544.17
687.79	1734.63
687.97	1777.64
688.16	1751.01
688.34	1789.92
688.53	1574.89
688.71	1705.96
688.90	1687.53
689.08	1628.14
689.27	1671.14
689.45	1724.39
689.64	1730.53
689.82	1703.91
690.01	1736.68
690.19	1771.49
690.38	1691.62
690.56	1820.64
690.75	1619.94
690.93	1667.05
691.12	1689.57
691.30	1716.20
691.49	1681.38
691.67	1621.99
691.86	1800.16
692.04	1652.71
692.23	1697.77
692.41	1685.48
692.60	1822.69
692.78	1697.77
692.97	1718.25
693.15	1665.00
693.34	1794.02
693.52	1738.73
693.71	1722.34
693.89	1679.33
694.08	1615.85
694.26	1722.34
694.44	1818.60
694.63	1806.31
694.81	1642.47
695.00	1619.94
695.18	1785.83
695.37	1857.51
695.55	1714.15
695.74	1753.06
695.92	1578.98
696.10	1726.44
696.29	1660.90
696.47	1708.01
696.66	1542.12
696.84	1658.85
697.03	1720.29
697.21	1882.08
697.40	2330.59
697.58	1828.84
697.76	1619.94
697.95	1593.32
698.13	1673.19
698.32	1609.70
698.50	1746.92
698.68	1685.48
698.87	1724.39
699.05	1806.31
699.24	1753.06
699.42	1658.85
699.61	1683.43
699.79	1724.39
699.97	1675.24
700.16	1587.18
700.34	1683.43
700.53	1718.25
700.71	1757.16
700.89	1720.29
701.08	1710.05
701.26	1761.25
701.45	2082.78
701.63	1683.43
701.81	1681.38
702.00	1660.90
702.18	1681.38
702.37	1597.42
702.55	1716.20
702.73	1689.57
702.92	1609.70
703.10	1681.38
703.28	1701.86
703.47	1654.76
703.65	1812.45
703.84	1748.97
704.02	1644.52
704.20	1738.73
704.39	1685.48
704.57	1730.53
704.75	1787.88
704.94	1705.96
705.12	1695.72
705.30	1806.31
705.49	2193.37
705.67	4222.91
705.86	8994.68
706.04	11921.23
706.22	14071.59
706.41	14731.04
706.59	13233.97
706.77	9129.84
706.96	7165.84
707.14	6309.79
707.32	5666.73
707.51	5302.19
707.69	4669.37
707.87	4036.55
708.06	3481.55
708.24	3024.85
708.42	2461.66
708.61	2224.09
708.79	1839.08
708.97	1839.08
709.16	1759.21
709.34	1808.36
709.52	1710.05
709.71	1746.92
709.89	1767.40
710.07	1673.19
710.26	1726.44
710.44	1683.43
710.62	1796.07
710.80	1656.81
710.99	1714.15
711.17	1732.58
711.35	1603.56
711.54	1697.77
711.72	1804.26
711.90	1724.39
712.09	1667.05
712.27	1617.90
712.45	1753.06
712.63	1705.96
712.82	1699.81
713.00	1630.18
713.18	1722.34
713.37	1738.73
713.55	1740.77
713.73	1769.44
713.91	1742.82
714.10	1724.39
714.28	1689.57
714.46	1712.10
714.65	1734.63
714.83	1658.85
715.01	1703.91
715.19	1636.33
715.38	1724.39
715.56	1708.01
715.74	1648.61
715.92	1675.24
716.11	1785.83
716.29	1521.64
716.47	1685.48
716.65	1626.09
716.84	1597.42
717.02	1783.78
717.20	1599.46
717.38	1648.61
717.57	1701.86
717.75	1744.87
717.93	1691.62
718.11	1755.11
718.30	1578.98
718.48	1650.66
718.66	1828.84
718.84	1732.58
719.03	1751.01
719.21	1687.53
719.39	1796.07
719.57	1767.40
719.75	1742.82
719.94	1742.82
720.12	1673.19
720.30	1691.62
720.48	1708.01
720.67	1708.01
720.85	1695.72
721.03	1705.96
721.21	1734.63
721.39	1781.73
721.58	1761.25
721.76	1730.53
721.94	1759.21
722.12	1742.82
722.30	1779.68
722.49	1658.85
722.67	1738.73
722.85	1796.07
723.03	1603.56
723.21	1638.38
723.40	1712.10
723.58	1665.00
723.76	1673.19
723.94	1744.87
724.12	1646.57
724.30	1763.30
724.49	1775.59
724.67	1638.38
724.85	1730.53
725.03	1673.19
725.21	1722.34
725.40	1814.50
725.58	1685.48
725.76	1701.86
725.94	1701.86
726.12	1687.53
726.30	1738.73
726.49	1656.81
726.67	1685.48
726.85	1724.39
727.03	1789.92
727.21	2146.27
727.39	2863.06
727.57	3680.20
727.76	4020.16
727.94	4243.39
728.12	4257.73
728.30	3602.38
728.48	2904.02
728.66	2686.94
728.84	2420.70
729.03	2291.68
729.21	2101.22
729.39	1994.72
729.57	1898.47
729.75	1796.07
729.93	1822.69
730.11	1683.43
730.30	1705.96
730.48	1767.40
730.66	1767.40
730.84	1759.21
731.02	1679.33
731.20	1765.35
731.38	1681.38
731.56	1654.76
731.74	1644.52
731.93	1769.44
732.11	1746.92
732.29	1722.34
732.47	1701.86
732.65	1716.20
732.83	1800.16
733.01	1763.30
733.19	1665.00
733.37	1734.63
733.56	1742.82
733.74	1634.28
733.92	1779.68
734.10	1656.81
734.28	1724.39
734.46	1603.56
734.64	1658.85
734.82	1624.04
735.00	1683.43
735.18	1736.68
735.36	1667.05
735.54	1642.47
735.73	1691.62
735.91	1755.11
736.09	1728.49
736.27	1648.61
736.45	1732.58
736.63	1642.47
736.81	1687.53
736.99	1751.01
737.17	1794.02
737.35	1734.63
737.53	1673.19
737.71	1773.54
737.89	1773.54
738.07	1644.52
738.25	1646.57
738.43	1583.08
738.61	1632.23
738.80	1640.42
738.98	1607.66
739.16	1693.67
739.34	1693.67
739.52	1839.08
739.70	1712.10
739.88	1759.21
740.06	1822.69
740.24	1638.38
740.42	1818.60
740.60	1601.51
740.78	1624.04
740.96	1613.80
741.14	1665.00
741.32	1759.21
741.50	1634.28
741.68	1804.26
741.86	1806.31
742.04	1658.85
742.22	1581.03
742.40	1724.39
742.58	1734.63
742.76	1658.85
742.94	1759.21
743.12	1593.32
743.30	1697.77
743.48	1740.77
743.66	1642.47
743.84	1736.68
744.02	1613.80
744.20	1705.96
744.38	1638.38
744.56	1642.47
744.74	1804.26
744.92	1751.01
745.10	1875.94
745.28	1753.06
745.46	1744.87
745.64	1640.42
745.82	1701.86
746.00	1722.34
746.18	1718.25
746.36	1648.61
746.54	1779.68
746.72	1722.34
746.90	1687.53
747.08	1769.44
747.26	1667.05
747.44	1712.10
747.62	1697.77
747.80	1675.24
747.98	1789.92
748.15	1738.73
748.33	1806.31
748.51	1710.05
748.69	1710.05
748.87	1644.52
749.05	1632.23
749.23	1685.48
749.41	1708.01
749.59	1705.96
749.77	1736.68
749.95	1671.14
750.13	1632.23
750.31	1742.82
750.49	1703.91
750.67	1775.59
750.85	1804.26
751.03	1794.02
751.20	1832.93
751.38	1630.18
751.56	1718.25
751.74	1746.92
751.92	1685.48
752.10	1574.89
752.28	1738.73
752.46	1656.81
752.64	1691.62
752.82	1681.38
753.00	1777.64
753.18	1636.33
753.35	1652.71
753.53	1705.96
753.71	1726.44
753.89	1789.92
754.07	1624.04
754.25	1751.01
754.43	1675.24
754.61	1656.81
754.79	1703.91
754.97	1679.33
755.14	1761.25
755.32	1591.27
755.50	1662.95
755.68	1738.73
755.86	1679.33
756.04	1609.70
756.22	1636.33
756.40	1791.97
756.57	1812.45
756.75	1738.73
756.93	1814.50
757.11	1693.67
757.29	1671.14
757.47	1662.95
757.65	1533.93
757.82	1585.13
758.00	1621.99
758.18	1691.62
758.36	1673.19
758.54	1765.35
758.72	1562.60
758.90	1753.06
759.07	1675.24
759.25	1640.42
759.43	1669.09
759.61	1626.09
759.79	2246.62
759.97	1740.77
760.15	1636.33
760.32	1677.29
760.50	1667.05
760.68	1775.59
760.86	1615.85
761.04	1757.16
761.22	1742.82
761.39	1652.71
761.57	1742.82
761.75	1724.39
761.93	1726.44
762.11	1679.33
762.28	1683.43
762.46	1619.94
762.64	1857.51
762.82	1650.66
763.00	1759.21
763.18	1796.07
763.35	1634.28
763.53	1705.96
763.71	1658.85
763.89	1759.21
764.07	1689.57
764.24	1652.71
764.42	1810.40
764.60	1662.95
764.78	1757.16
764.96	1710.05
765.13	1763.30
765.31	1744.87
765.49	1740.77
765.67	1615.85
765.84	1669.09
766.02	1681.38
766.20	1603.56
766.38	1726.44
766.56	1685.48
766.73	1710.05
766.91	1724.39
767.09	1740.77
767.27	1701.86
767.44	1601.51
767.62	1710.05
767.80	1636.33
767.98	1652.71
768.15	1658.85
768.33	1734.63
768.51	1763.30
768.69	1703.91
768.87	1734.63
769.04	1701.86
769.22	1859.56
769.40	1800.16
769.58	1873.89
769.75	1722.34
769.93	1800.16
770.11	1720.29
770.28	1570.79
770.46	1751.01
770.64	1757.16
770.82	1728.49
770.99	1722.34
771.17	1685.48
771.35	1687.53
771.53	1712.10
771.70	1626.09
771.88	1710.05
772.06	1699.81
772.23	1658.85
772.41	1734.63
772.59	1701.86
772.77	1675.24
772.94	1708.01
773.12	1738.73
773.30	1667.05
773.47	1714.15
773.65	1675.24
773.83	1765.35
774.01	1689.57
774.18	1566.70
774.36	1763.30
774.54	1660.90
774.71	1675.24
774.89	1628.14
775.07	1646.57
775.24	1689.57
775.42	1644.52
775.60	1824.74
775.78	1693.67
775.95	1560.55
776.13	1650.66
776.31	1658.85
776.48	1769.44
776.66	1693.67
776.84	1640.42
777.01	1683.43
777.19	1660.90
777.37	1691.62
777.54	1710.05
777.72	1884.13
777.90	1669.09
778.07	1619.94
778.25	1804.26
778.43	1814.50
778.60	1644.52
778.78	1730.53
778.96	1726.44
779.13	1683.43
779.31	1808.36
779.49	1675.24
779.66	1675.24
779.84	1681.38
780.01	1656.81
780.19	1601.51
780.37	1740.77
780.54	1689.57
780.72	1697.77
780.90	1691.62
781.07	1689.57
781.25	1673.19
781.43	1740.77
781.60	1640.42
781.78	1771.49
781.95	1701.86
782.13	1720.29
782.31	1724.39
782.48	1568.74
782.66	1693.67
782.83	1771.49
783.01	1783.78
783.19	1769.44
783.36	1736.68
783.54	1673.19
783.72	1710.05
783.89	1746.92
784.07	1783.78
784.24	1697.77
784.42	1832.93
784.60	1775.59
784.77	1675.24
784.95	1507.30
785.12	1636.33
785.30	1660.90
785.47	1701.86
785.65	1624.04
785.83	1708.01
786.00	1703.91
786.18	1619.94
786.35	1624.04
786.53	1646.57
786.71	1755.11
786.88	1728.49
787.06	1734.63
787.23	1712.10
787.41	1615.85
787.58	1705.96
787.76	1744.87
787.94	1708.01
788.11	1658.85
788.29	1648.61
788.46	1755.11
788.64	1673.19
788.81	1636.33
788.99	1658.85
789.16	1656.81
789.34	1787.88
789.52	1636.33
789.69	1689.57
789.87	1656.81
790.04	1679.33
790.22	1656.81
790.39	1751.01
790.57	1675.24
790.74	1591.27
790.92	1681.38
791.09	1665.00
791.27	1720.29
791.44	1738.73
791.62	1783.78
791.79	1734.63
791.97	1656.81
792.15	1871.84
792.32	1691.62
792.50	1816.55
792.67	1789.92
792.85	1820.64
793.02	1728.49
793.20	1617.90
793.37	1652.71
793.55	1677.29
793.72	1617.90
793.90	1708.01
794.07	1558.50
794.25	1683.43
794.42	1703.91
794.60	1697.77
794.77	1800.16
794.95	1695.72
795.12	1693.67
795.30	1667.05
795.47	1652.71
795.65	1861.60
795.82	1662.95
796.00	1626.09
796.17	1665.00
796.34	1626.09
796.52	1677.29
796.69	1665.00
796.87	1742.82
797.04	1654.76
797.22	1675.24
797.39	1695.72
797.57	1744.87
797.74	1746.92
797.92	1687.53
798.09	1632.23
798.27	1705.96
798.44	1697.77
798.62	1636.33
798.79	1675.24
798.96	1812.45
799.14	1730.53
799.31	1785.83
799.49	1642.47
799.66	1681.38
799.84	1720.29
800.01	1578.98
800.19	1693.67
800.36	1638.38
800.53	1718.25
800.71	1669.09
800.88	1783.78
801.06	1708.01
801.23	1660.90
801.41	1677.29
801.58	1615.85
801.75	1638.38
801.93	1693.67
802.10	1736.68
802.28	1671.14
802.45	1660.90
802.63	1746.92
802.80	1763.30
802.97	1730.53
803.15	1740.77
803.32	1773.54
803.50	1632.23
803.67	1642.47
803.84	1656.81
804.02	1712.10
804.19	1634.28
804.37	1613.80
804.54	1630.18
804.71	1638.38
804.89	1714.15
805.06	1615.85
805.24	1720.29
805.41	1665.00
805.58	1624.04
805.76	1783.78
805.93	1714.15
806.10	1722.34
806.28	1818.60
806.45	1744.87
806.63	1726.44
806.80	1609.70
806.97	1703.91
807.15	1703.91
807.32	1689.57
807.49	1748.97
807.67	1644.52
807.84	1763.30
808.01	1574.89
808.19	1765.35
808.36	1800.16
808.54	1671.14
808.71	1638.38
808.88	1687.53
809.06	1677.29
809.23	1855.46
809.40	1714.15
809.58	1730.53
809.75	1734.63
809.92	1675.24
810.10	1779.68
810.27	1716.20
810.44	1742.82
810.62	1736.68
810.79	1716.20
810.96	1671.14
811.14	1630.18
811.31	1726.44
811.48	1701.86
811.66	1732.58
811.83	1681.38
812.00	1652.71
812.18	1746.92
812.35	1927.14
812.52	1703.91
812.69	1675.24
812.87	1689.57
813.04	1708.01
813.21	1677.29
813.39	1644.52
813.56	1617.90
813.73	1665.00
813.91	1656.81
814.08	1779.68
814.25	1648.61
814.42	1626.09
814.60	1617.90
814.77	1687.53
814.94	1679.33
815.12	1736.68
815.29	1673.19
815.46	1636.33
815.63	1710.05
815.81	1675.24
815.98	1693.67
816.15	1701.86
816.33	1705.96
816.50	1757.16
816.67	1673.19
816.84	1669.09
817.02	1654.76
817.19	1640.42
817.36	1665.00
817.53	1767.40
817.71	1646.57
817.88	1732.58
818.05	1677.29
818.22	1658.85
818.40	1734.63
818.57	1679.33
818.74	1724.39
818.91	1650.66
819.09	1753.06
819.26	1755.11
819.43	1619.94
819.60	1693.67
819.78	1699.81
819.95	1859.56
820.12	1607.66
820.29	1712.10
820.47	1765.35
820.64	1648.61
820.81	1626.09
820.98	1669.09
821.15	1693.67
821.33	1746.92
821.50	1597.42
821.67	1722.34
821.84	1624.04
822.02	1693.67
822.19	1777.64
822.36	1710.05
822.53	1734.63
822.70	1660.90
822.88	1714.15
823.05	1726.44
823.22	1677.29
823.39	1708.01
823.56	1724.39
823.74	1843.17
823.91	1673.19
824.08	1673.19
824.25	1648.61
824.42	1710.05
824.60	1640.42
824.77	1712.10
824.94	1683.43
825.11	1675.24
825.28	1593.32
825.45	1781.73
825.63	1718.25
825.80	1732.58
825.97	1763.30
826.14	1683.43
826.31	1624.04
826.48	1757.16
826.66	1574.89
826.83	1578.98
827.00	1687.53
827.17	1652.71
827.34	1730.53
827.51	1675.24
827.69	1654.76
827.86	1601.51
828.03	1675.24
828.20	1718.25
828.37	1728.49
828.54	1708.01
828.71	1701.86
828.89	1746.92
829.06	1648.61
829.23	1849.32
829.40	1703.91
829.57	1585.13
829.74	1669.09
829.91	1628.14
830.09	1626.09
830.26	1712.10
830.43	1759.21
830.60	1757.16
830.77	1689.57
830.94	1763.30
831.11	1730.53
831.28	1755.11
831.46	1724.39
831.63	1673.19
831.80	1759.21
831.97	1675.24
832.14	1724.39
832.31	1738.73
832.48	1705.96
832.65	1806.31
832.82	1722.34
832.99	1710.05
833.17	1644.52
833.34	1746.92
833.51	1767.40
833.68	1607.66
833.85	1728.49
834.02	1626.09
834.19	1609.70
834.36	1615.85
834.53	1708.01
834.70	1787.88
834.87	1800.16
835.04	1671.14
835.22	1667.05
835.39	1648.61
835.56	1628.14
835.73	1669.09
835.90	1787.88
836.07	1693.67
836.24	1808.36
836.41	1615.85
836.58	1642.47
836.75	1783.78
836.92	1677.29
837.09	1656.81
837.26	1724.39
837.43	1636.33
837.60	1724.39
837.77	1654.76
837.94	1742.82
838.12	1710.05
838.29	1677.29
838.46	1630.18
838.63	1630.18
838.80	1710.05
838.97	1779.68
839.14	1656.81
839.31	1751.01
839.48	1724.39
839.65	1689.57
839.82	1820.64
839.99	1705.96
840.16	1650.66
840.33	1636.33
840.50	1683.43
840.67	1660.90
840.84	1607.66
841.01	1679.33
841.18	1644.52
841.35	1708.01
841.52	1701.86
841.69	1853.41
841.86	1654.76
842.03	1679.33
842.20	1740.77
842.37	1630.18
842.54	1619.94
842.71	1755.11
842.88	1687.53
843.05	1765.35
843.22	1714.15
843.39	1687.53
843.56	1697.77
843.73	1658.85
843.90	1765.35
844.07	1712.10
844.24	1736.68
844.41	1789.92
844.58	1763.30
844.75	1693.67
844.92	1802.21
845.09	1697.77
845.26	1736.68
845.43	1720.29
845.60	1685.48
845.77	1650.66
845.94	1720.29
846.10	1728.49
846.27	1609.70
846.44	1695.72
846.61	1581.03
846.78	1714.15
846.95	1730.53
847.12	1652.71
847.29	1617.90
847.46	1673.19
847.63	1681.38
847.80	1632.23
847.97	1654.76
848.14	1775.59
848.31	1693.67
848.48	1566.70
848.65	1697.77
848.82	1683.43
848.98	1798.12
849.15	1736.68
849.32	1757.16
849.49	1726.44
849.66	1662.95
849.83	1736.68
850.00	1636.33
850.17	1671.14
850.34	1703.91
850.51	1638.38
850.68	1648.61
850.85	1888.23
851.01	1689.57
851.18	1736.68
851.35	1658.85
851.52	1759.21
851.69	1769.44
851.86	1556.46
852.03	1746.92
852.20	1691.62
852.37	1638.38
852.53	1564.65
852.70	1662.95
852.87	1603.56
853.04	1689.57
853.21	1632.23
853.38	1800.16
853.55	1751.01
853.72	1859.56
853.89	1636.33
854.05	1613.80
854.22	1726.44
854.39	1648.61
854.56	1681.38
854.73	1857.51
854.90	1632.23
855.07	1730.53
855.23	1714.15
855.40	1660.90
855.57	1722.34
855.74	1685.48
855.91	1820.64
856.08	1673.19
856.25	1697.77
856.41	1624.04
856.58	1738.73
856.75	1593.32
856.92	1615.85
857.09	1705.96
857.26	1591.27
857.42	1712.10
857.59	1722.34
857.76	1685.48
857.93	1691.62
858.10	1705.96
858.27	1669.09
858.43	1677.29
858.60	1615.85
858.77	1576.94
858.94	1726.44
859.11	1759.21
859.27	1656.81
859.44	1669.09
859.61	1773.54
859.78	1734.63
859.95	1701.86
860.12	1650.66
860.28	1787.88
860.45	1767.40
860.62	1693.67
860.79	1755.11
860.95	1642.47
861.12	1634.28
861.29	1671.14
861.46	1632.23
861.63	1656.81
861.79	1703.91
861.96	1667.05
862.13	1619.94
862.30	1720.29
862.47	1632.23
862.63	1646.57
862.80	1810.40
862.97	1804.26
863.14	1716.20
863.30	1744.87
863.47	1689.57
863.64	1673.19
863.81	1726.44
863.97	1734.63
864.14	1734.63
864.31	1697.77
864.48	1769.44
864.65	1597.42
864.81	1748.97
864.98	1701.86
865.15	1720.29
865.32	1751.01
865.48	1740.77
865.65	1710.05
865.82	1761.25
865.98	1761.25
866.15	1746.92
866.32	1695.72
866.49	1642.47
866.65	1755.11
866.82	1726.44
866.99	1644.52
867.16	1648.61
867.32	1679.33
867.49	1691.62
867.66	1665.00
867.83	1640.42
867.99	1679.33
868.16	1708.01
868.33	1656.81
868.49	1615.85
868.66	1685.48
868.83	1775.59
868.99	1755.11
869.16	1810.40
869.33	1763.30
869.50	1759.21
869.66	1685.48
869.83	1658.85
870.00	1669.09
870.16	1716.20
870.33	1660.90
870.50	1746.92
870.66	1667.05
870.83	1859.56
871.00	1677.29
871.17	1781.73
871.33	1716.20
871.50	1691.62
871.67	1746.92
871.83	1574.89
872.00	1830.88
872.17	1667.05
872.33	1767.40
872.50	1689.57
872.67	1671.14
872.83	1636.33
873.00	1685.48
873.17	1720.29
873.33	1779.68
873.50	1685.48
873.67	1626.09
873.83	1630.18
874.00	1617.90
874.16	1751.01
874.33	1669.09
874.50	1654.76
874.66	1703.91
874.83	1665.00
875.00	1771.49
875.16	1800.16
875.33	1710.05
875.50	1611.75
875.66	1710.05
875.83	1744.87
875.99	1763.30
876.16	1667.05
876.33	1617.90
876.49	1722.34
876.66	1677.29
876.83	1705.96
876.99	1570.79
877.16	1632.23
877.32	1748.97
877.49	1646.57
877.66	1671.14
877.82	1691.62
877.99	1671.14
878.15	1822.69
878.32	1658.85
878.49	1718.25
878.65	1726.44
878.82	1748.97
878.98	1605.61
879.15	1675.24
879.32	1742.82
879.48	1685.48
879.65	1691.62
879.81	1607.66
879.98	1648.61
880.15	1679.33
880.31	1693.67
880.48	1632.23
880.64	1853.41
880.81	1640.42
880.97	1828.84
881.14	1722.34
881.31	1636.33
881.47	1779.68
881.64	1677.29
881.80	1617.90
881.97	1714.15
882.13	1722.34
882.30	1734.63
882.47	1673.19
882.63	1695.72
882.80	1652.71
882.96	1634.28
883.13	1751.01
883.29	1705.96
883.46	1705.96
883.62	1767.40
883.79	1787.88
883.95	1808.36
884.12	1669.09
884.29	1757.16
884.45	1699.81
884.62	1695.72
884.78	1667.05
884.95	1810.40
885.11	1609.70
885.28	1718.25
885.44	1722.34
885.61	1757.16
885.77	1740.77
885.94	1751.01
886.10	1732.58
886.27	1669.09
886.43	1689.57
886.60	1763.30
886.76	1685.48
886.93	1675.24
887.09	1726.44
887.26	1640.42
887.42	1677.29
887.59	1742.82
887.75	1755.11
887.92	1734.63
888.08	1724.39
888.25	1771.49
888.41	1736.68
888.58	1701.86
888.74	1683.43
888.91	1615.85
>>>>>End Processed Spectral Data<<<<<
