SpectraSuite Data File
++++++++++++++++++++++++++++++++++++
Date: Mon Jun 06 16:43:17 CEST 2016
User: root
Dark Spectrum Present: No
Reference Spectrum Present: No
Number of Sampled Component Spectra: 1
Spectrometers: USB4C02835
Integration Time (usec): 100000 (USB4C02835)
Spectra Averaged: 1 (USB4C02835)
Boxcar Smoothing: 0 (USB4C02835)
Correct for Electrical Dark: No (USB4C02835)
Strobe/Lamp Enabled: No (USB4C02835)
Correct for Detector Non-linearity: No (USB4C02835)
Correct for Stray Light: No (USB4C02835)
Number of Pixels in Processed Spectrum: 3648
>>>>>Begin Processed Spectral Data<<<<<
177.47	1495.02
177.69	1495.02
177.91	1495.02
178.13	1452.01
178.36	1452.01
178.58	1755.11
178.80	1726.44
179.02	1607.66
179.24	1642.47
179.46	1603.56
179.68	1654.76
179.90	1646.57
180.13	1681.38
180.35	1652.71
180.57	1691.62
180.79	1732.58
181.01	1703.91
181.23	1759.21
181.45	1714.15
181.67	1677.29
181.90	1718.25
182.12	1724.39
182.34	1687.53
182.56	1748.97
182.78	1677.29
183.00	1665.00
183.22	1697.77
183.44	1609.70
183.66	1839.08
183.89	1861.60
184.11	1738.73
184.33	1736.68
184.55	1742.82
184.77	1710.05
184.99	1855.46
185.21	1656.81
185.43	1796.07
185.65	1658.85
185.87	1595.37
186.10	1791.97
186.32	1818.60
186.54	1718.25
186.76	1718.25
186.98	1738.73
187.20	1630.18
187.42	1695.72
187.64	1673.19
187.86	1726.44
188.08	1718.25
188.30	1632.23
188.52	1665.00
188.75	1759.21
188.97	1785.83
189.19	1673.19
189.41	1691.62
189.63	1724.39
189.85	1634.28
190.07	1652.71
190.29	1636.33
190.51	1730.53
190.73	1662.95
190.95	1755.11
191.17	1697.77
191.39	1757.16
191.61	1673.19
191.84	1681.38
192.06	1751.01
192.28	1595.37
192.50	1886.18
192.72	1746.92
192.94	1685.48
193.16	1708.01
193.38	1771.49
193.60	1630.18
193.82	1791.97
194.04	1877.99
194.26	1669.09
194.48	1732.58
194.70	1665.00
194.92	1581.03
195.14	1726.44
195.36	1710.05
195.58	1665.00
195.80	1701.86
196.02	1685.48
196.24	1736.68
196.46	1804.26
196.69	1662.95
196.91	1888.23
197.13	1572.84
197.35	1695.72
197.57	1771.49
197.79	1724.39
198.01	1779.68
198.23	1759.21
198.45	1685.48
198.67	1632.23
198.89	1611.75
199.11	1791.97
199.33	1714.15
199.55	1566.70
199.77	1751.01
199.99	1789.92
200.21	1619.94
200.43	1738.73
200.65	1574.89
200.87	1538.02
201.09	1669.09
201.31	1681.38
201.53	1734.63
201.75	1705.96
201.97	1710.05
202.19	1775.59
202.41	1701.86
202.63	1787.88
202.85	1738.73
203.07	1744.87
203.29	1632.23
203.51	1693.67
203.73	1642.47
203.95	1814.50
204.17	1736.68
204.39	1718.25
204.61	1726.44
204.83	1685.48
205.05	1759.21
205.27	1746.92
205.49	1779.68
205.71	1681.38
205.93	1640.42
206.15	1689.57
206.37	1607.66
206.59	1669.09
206.81	1587.18
207.03	1607.66
207.25	1599.46
207.47	1652.71
207.69	1693.67
207.91	1806.31
208.13	1794.02
208.34	1656.81
208.56	1689.57
208.78	1722.34
209.00	1705.96
209.22	1660.90
209.44	1673.19
209.66	1632.23
209.88	1628.14
210.10	1771.49
210.32	1677.29
210.54	1755.11
210.76	1765.35
210.98	1751.01
211.20	1628.14
211.42	1736.68
211.64	1794.02
211.86	1683.43
212.08	1730.53
212.30	1740.77
212.52	1701.86
212.74	1689.57
212.96	1691.62
213.17	1724.39
213.39	1765.35
213.61	1812.45
213.83	1722.34
214.05	1679.33
214.27	1650.66
214.49	1693.67
214.71	1658.85
214.93	1759.21
215.15	1677.29
215.37	1769.44
215.59	1568.74
215.81	1679.33
216.03	1794.02
216.24	1730.53
216.46	1718.25
216.68	1765.35
216.90	1683.43
217.12	1841.12
217.34	1716.20
217.56	1665.00
217.78	1738.73
218.00	1753.06
218.22	1775.59
218.44	1767.40
218.66	1755.11
218.87	1839.08
219.09	1708.01
219.31	1757.16
219.53	1691.62
219.75	1574.89
219.97	1777.64
220.19	1722.34
220.41	1648.61
220.63	1740.77
220.85	1605.61
221.06	1714.15
221.28	1794.02
221.50	1730.53
221.72	1673.19
221.94	1687.53
222.16	1714.15
222.38	1699.81
222.60	1703.91
222.82	1695.72
223.03	1691.62
223.25	1736.68
223.47	1718.25
223.69	1902.56
223.91	1716.20
224.13	1703.91
224.35	1644.52
224.57	1748.97
224.78	1785.83
225.00	1667.05
225.22	1714.15
225.44	1726.44
225.66	1804.26
225.88	1601.51
226.10	1779.68
226.32	1703.91
226.53	1775.59
226.75	1744.87
226.97	1695.72
227.19	1683.43
227.41	1687.53
227.63	1656.81
227.85	1609.70
228.06	1757.16
228.28	1652.71
228.50	1660.90
228.72	1605.61
228.94	1617.90
229.16	1572.84
229.37	1685.48
229.59	1644.52
229.81	1761.25
230.03	1685.48
230.25	1587.18
230.47	1599.46
230.69	1648.61
230.90	1681.38
231.12	1644.52
231.34	1718.25
231.56	1824.74
231.78	1624.04
232.00	1685.48
232.21	1738.73
232.43	1691.62
232.65	1638.38
232.87	1730.53
233.09	1662.95
233.30	1578.98
233.52	1724.39
233.74	1761.25
233.96	1683.43
234.18	1695.72
234.40	1728.49
234.61	1806.31
234.83	1718.25
235.05	1703.91
235.27	1886.18
235.49	1771.49
235.70	1744.87
235.92	1849.32
236.14	1695.72
236.36	1820.64
236.58	1650.66
236.79	1665.00
237.01	1759.21
237.23	1675.24
237.45	1808.36
237.67	1681.38
237.88	1802.21
238.10	1796.07
238.32	1648.61
238.54	1683.43
238.76	1742.82
238.97	1687.53
239.19	1632.23
239.41	1791.97
239.63	1761.25
239.85	1695.72
240.06	1763.30
240.28	1726.44
240.50	1726.44
240.72	1730.53
240.93	1632.23
241.15	1759.21
241.37	1697.77
241.59	1763.30
241.81	1744.87
242.02	1679.33
242.24	1683.43
242.46	1691.62
242.68	1654.76
242.89	1722.34
243.11	1751.01
243.33	1671.14
243.55	1738.73
243.76	1763.30
243.98	1683.43
244.20	1656.81
244.42	1665.00
244.64	1701.86
244.85	1703.91
245.07	1656.81
245.29	1763.30
245.51	1689.57
245.72	1703.91
245.94	1740.77
246.16	1689.57
246.38	1794.02
246.59	1734.63
246.81	1705.96
247.03	1667.05
247.24	1648.61
247.46	1685.48
247.68	1765.35
247.90	1744.87
248.11	1673.19
248.33	1705.96
248.55	1583.08
248.77	1783.78
248.98	1820.64
249.20	1824.74
249.42	1652.71
249.64	1722.34
249.85	1589.22
250.07	1613.80
250.29	1773.54
250.50	1789.92
250.72	1626.09
250.94	1705.96
251.16	1855.46
251.37	1789.92
251.59	1693.67
251.81	1689.57
252.02	1806.31
252.24	1699.81
252.46	1773.54
252.68	1626.09
252.89	1736.68
253.11	1619.94
253.33	1771.49
253.54	1763.30
253.76	1648.61
253.98	1693.67
254.20	1619.94
254.41	1640.42
254.63	1773.54
254.85	1617.90
255.06	1734.63
255.28	1761.25
255.50	1720.29
255.71	1712.10
255.93	1552.36
256.15	1697.77
256.36	1662.95
256.58	1669.09
256.80	1708.01
257.02	1683.43
257.23	1687.53
257.45	1644.52
257.67	1732.58
257.88	1724.39
258.10	1665.00
258.32	1693.67
258.53	1724.39
258.75	1757.16
258.97	1665.00
259.18	1705.96
259.40	1740.77
259.62	1773.54
259.83	1787.88
260.05	1728.49
260.27	1957.86
260.48	1787.88
260.70	1632.23
260.92	1724.39
261.13	1685.48
261.35	1757.16
261.57	1802.21
261.78	1607.66
262.00	1699.81
262.22	1822.69
262.43	1642.47
262.65	1689.57
262.86	1761.25
263.08	1927.14
263.30	1736.68
263.51	1603.56
263.73	1714.15
263.95	1757.16
264.16	1748.97
264.38	1734.63
264.60	1742.82
264.81	1728.49
265.03	1820.64
265.25	1740.77
265.46	1650.66
265.68	1806.31
265.89	1740.77
266.11	1617.90
266.33	1728.49
266.54	1781.73
266.76	1740.77
266.98	1759.21
267.19	1826.79
267.41	1705.96
267.62	1708.01
267.84	1607.66
268.06	1748.97
268.27	1697.77
268.49	1796.07
268.70	1726.44
268.92	1626.09
269.14	1595.37
269.35	1685.48
269.57	1738.73
269.79	1632.23
270.00	1718.25
270.22	1822.69
270.43	1652.71
270.65	1689.57
270.87	1716.20
271.08	1738.73
271.30	1744.87
271.51	1724.39
271.73	1732.58
271.95	1751.01
272.16	1689.57
272.38	1648.61
272.59	1712.10
272.81	1734.63
273.02	1714.15
273.24	1699.81
273.46	1783.78
273.67	1650.66
273.89	1667.05
274.10	1634.28
274.32	1798.12
274.54	1738.73
274.75	1691.62
274.97	1701.86
275.18	1744.87
275.40	1765.35
275.61	1677.29
275.83	1740.77
276.05	1640.42
276.26	1716.20
276.48	1777.64
276.69	1681.38
276.91	1695.72
277.12	1738.73
277.34	1785.83
277.55	1796.07
277.77	1757.16
277.99	1734.63
278.20	1695.72
278.42	1677.29
278.63	1597.42
278.85	1662.95
279.06	1574.89
279.28	1693.67
279.49	1751.01
279.71	1693.67
279.93	1695.72
280.14	1705.96
280.36	1718.25
280.57	1730.53
280.79	1708.01
281.00	1687.53
281.22	1724.39
281.43	1679.33
281.65	1554.41
281.86	1724.39
282.08	1685.48
282.29	1867.75
282.51	1624.04
282.73	1660.90
282.94	1669.09
283.16	1746.92
283.37	1689.57
283.59	1658.85
283.80	1767.40
284.02	1724.39
284.23	1740.77
284.45	1646.57
284.66	1648.61
284.88	1644.52
285.09	1683.43
285.31	1783.78
285.52	1761.25
285.74	1593.32
285.95	1748.97
286.17	1736.68
286.38	1845.22
286.60	1671.14
286.81	1679.33
287.03	1746.92
287.24	1648.61
287.46	1757.16
287.67	1665.00
287.89	1851.36
288.10	1695.72
288.32	1669.09
288.53	1808.36
288.75	1691.62
288.96	1662.95
289.18	1638.38
289.39	1734.63
289.61	1761.25
289.82	1773.54
290.04	1845.22
290.25	1667.05
290.47	1716.20
290.68	1658.85
290.90	1761.25
291.11	1642.47
291.33	1746.92
291.54	1705.96
291.76	1638.38
291.97	1753.06
292.18	1722.34
292.40	1654.76
292.61	1650.66
292.83	1738.73
293.04	1734.63
293.26	1744.87
293.47	1703.91
293.69	1636.33
293.90	1763.30
294.12	1781.73
294.33	1675.24
294.55	1652.71
294.76	1757.16
294.97	1796.07
295.19	1794.02
295.40	1722.34
295.62	1724.39
295.83	1787.88
296.05	1658.85
296.26	1773.54
296.48	1667.05
296.69	1671.14
296.90	1736.68
297.12	1761.25
297.33	1734.63
297.55	1689.57
297.76	1775.59
297.98	1722.34
298.19	1722.34
298.41	1732.58
298.62	1669.09
298.83	1828.84
299.05	1771.49
299.26	1732.58
299.48	1667.05
299.69	1755.11
299.90	1722.34
300.12	1652.71
300.33	1689.57
300.55	1701.86
300.76	1781.73
300.98	1611.75
301.19	1839.08
301.40	1679.33
301.62	1734.63
301.83	1746.92
302.05	1738.73
302.26	1691.62
302.47	1738.73
302.69	1693.67
302.90	1751.01
303.12	1609.70
303.33	1822.69
303.54	1837.03
303.76	1740.77
303.97	1728.49
304.19	1789.92
304.40	1669.09
304.61	1722.34
304.83	1826.79
305.04	1806.31
305.26	1728.49
305.47	1636.33
305.68	1734.63
305.90	1691.62
306.11	1763.30
306.33	1689.57
306.54	1710.05
306.75	1599.46
306.97	1611.75
307.18	1667.05
307.39	1710.05
307.61	1734.63
307.82	1734.63
308.04	1656.81
308.25	1665.00
308.46	1730.53
308.68	1734.63
308.89	1746.92
309.10	1808.36
309.32	1665.00
309.53	1728.49
309.74	1771.49
309.96	1710.05
310.17	1748.97
310.39	1722.34
310.60	1718.25
310.81	1693.67
311.03	1669.09
311.24	1789.92
311.45	1748.97
311.67	1812.45
311.88	1753.06
312.09	1681.38
312.31	1710.05
312.52	1687.53
312.73	1714.15
312.95	1662.95
313.16	1701.86
313.37	1824.74
313.59	1753.06
313.80	1779.68
314.01	1740.77
314.23	1710.05
314.44	1667.05
314.65	1673.19
314.87	1771.49
315.08	1751.01
315.29	1732.58
315.51	1669.09
315.72	1607.66
315.93	1822.69
316.15	1783.78
316.36	1658.85
316.57	1726.44
316.79	1781.73
317.00	1658.85
317.21	1742.82
317.43	1693.67
317.64	1794.02
317.85	1667.05
318.07	1619.94
318.28	1689.57
318.49	1728.49
318.70	1986.53
318.92	1810.40
319.13	1806.31
319.34	1855.46
319.56	1800.16
319.77	1800.16
319.98	1853.41
320.20	1757.16
320.41	1677.29
320.62	1701.86
320.83	1675.24
321.05	1935.33
321.26	1777.64
321.47	1693.67
321.69	1798.12
321.90	1708.01
322.11	1638.38
322.32	1720.29
322.54	1765.35
322.75	1697.77
322.96	1843.17
323.18	1683.43
323.39	1617.90
323.60	1615.85
323.81	1763.30
324.03	1714.15
324.24	1730.53
324.45	1722.34
324.66	1746.92
324.88	1828.84
325.09	1771.49
325.30	1740.77
325.52	1708.01
325.73	1734.63
325.94	1683.43
326.15	1628.14
326.37	1632.23
326.58	1777.64
326.79	1822.69
327.00	1638.38
327.22	1718.25
327.43	1619.94
327.64	1667.05
327.85	1667.05
328.07	1746.92
328.28	1791.97
328.49	1617.90
328.70	1724.39
328.92	1736.68
329.13	1710.05
329.34	1724.39
329.55	1730.53
329.76	1718.25
329.98	1669.09
330.19	1791.97
330.40	1751.01
330.61	1710.05
330.83	1742.82
331.04	1632.23
331.25	1708.01
331.46	1605.61
331.68	1601.51
331.89	1763.30
332.10	1779.68
332.31	1681.38
332.52	1697.77
332.74	1771.49
332.95	1607.66
333.16	1615.85
333.37	1689.57
333.58	1648.61
333.80	1699.81
334.01	1656.81
334.22	1757.16
334.43	1705.96
334.64	1638.38
334.86	1673.19
335.07	1724.39
335.28	1763.30
335.49	1656.81
335.70	1699.81
335.92	1738.73
336.13	1869.80
336.34	1812.45
336.55	1656.81
336.76	1699.81
336.98	1548.26
337.19	1767.40
337.40	1810.40
337.61	1800.16
337.82	1683.43
338.04	1753.06
338.25	1665.00
338.46	1677.29
338.67	1730.53
338.88	1595.37
339.09	1626.09
339.31	1738.73
339.52	1621.99
339.73	1634.28
339.94	1734.63
340.15	1701.86
340.36	1611.75
340.58	1718.25
340.79	1685.48
341.00	1665.00
341.21	1662.95
341.42	1806.31
341.63	1722.34
341.85	1742.82
342.06	1718.25
342.27	1716.20
342.48	1687.53
342.69	1628.14
342.90	1738.73
343.12	1761.25
343.33	1722.34
343.54	1722.34
343.75	1708.01
343.96	1771.49
344.17	1648.61
344.38	1660.90
344.60	1699.81
344.81	1714.15
345.02	1716.20
345.23	1714.15
345.44	1810.40
345.65	1687.53
345.86	1687.53
346.07	1669.09
346.29	1607.66
346.50	1734.63
346.71	1697.77
346.92	1800.16
347.13	1806.31
347.34	1722.34
347.55	1730.53
347.76	1701.86
347.98	1552.36
348.19	1652.71
348.40	1802.21
348.61	1660.90
348.82	1771.49
349.03	1742.82
349.24	1638.38
349.45	1791.97
349.66	1583.08
349.88	1718.25
350.09	1679.33
350.30	1783.78
350.51	1812.45
350.72	1619.94
350.93	1710.05
351.14	1689.57
351.35	1714.15
351.56	1675.24
351.77	1728.49
351.99	1771.49
352.20	1841.12
352.41	1753.06
352.62	1572.84
352.83	1656.81
353.04	1708.01
353.25	1634.28
353.46	1775.59
353.67	1785.83
353.88	1576.94
354.09	1744.87
354.30	1697.77
354.52	1683.43
354.73	1710.05
354.94	1662.95
355.15	1738.73
355.36	1757.16
355.57	1679.33
355.78	1705.96
355.99	1624.04
356.20	1667.05
356.41	1787.88
356.62	1785.83
356.83	1779.68
357.04	1708.01
357.25	1648.61
357.46	1644.52
357.68	1662.95
357.89	1642.47
358.10	1693.67
358.31	1705.96
358.52	1757.16
358.73	1662.95
358.94	1683.43
359.15	1671.14
359.36	1718.25
359.57	1728.49
359.78	1665.00
359.99	1701.86
360.20	1650.66
360.41	1675.24
360.62	1753.06
360.83	1687.53
361.04	1781.73
361.25	1734.63
361.46	1824.74
361.67	1742.82
361.88	1789.92
362.09	1814.50
362.30	1779.68
362.51	1687.53
362.72	1660.90
362.93	1673.19
363.14	1714.15
363.35	1691.62
363.56	1705.96
363.78	1746.92
363.99	1748.97
364.20	1650.66
364.41	1730.53
364.62	1812.45
364.83	1751.01
365.04	1689.57
365.25	1693.67
365.46	1863.65
365.67	1574.89
365.88	1626.09
366.09	1736.68
366.30	1658.85
366.51	1759.21
366.72	1691.62
366.93	1599.46
367.14	1718.25
367.35	1808.36
367.56	1761.25
367.77	1761.25
367.98	1617.90
368.18	1724.39
368.39	1755.11
368.60	1611.75
368.81	1757.16
369.02	1771.49
369.23	1669.09
369.44	1660.90
369.65	1669.09
369.86	1734.63
370.07	1730.53
370.28	1697.77
370.49	1761.25
370.70	1834.98
370.91	1703.91
371.12	1708.01
371.33	1732.58
371.54	1656.81
371.75	1753.06
371.96	1593.32
372.17	1740.77
372.38	1703.91
372.59	1796.07
372.80	1759.21
373.01	1683.43
373.22	1738.73
373.43	1701.86
373.64	1615.85
373.85	1757.16
374.06	1814.50
374.26	1767.40
374.47	1746.92
374.68	1722.34
374.89	1748.97
375.10	1667.05
375.31	1699.81
375.52	1656.81
375.73	1734.63
375.94	1634.28
376.15	1832.93
376.36	1669.09
376.57	1671.14
376.78	1691.62
376.99	1742.82
377.20	1759.21
377.40	1687.53
377.61	1865.70
377.82	1587.18
378.03	1732.58
378.24	1665.00
378.45	1624.04
378.66	1695.72
378.87	1624.04
379.08	1603.56
379.29	1740.77
379.50	1839.08
379.71	1730.53
379.91	1738.73
380.12	1667.05
380.33	1730.53
380.54	1677.29
380.75	1748.97
380.96	1685.48
381.17	1775.59
381.38	1697.77
381.59	1814.50
381.80	1740.77
382.00	1902.56
382.21	1730.53
382.42	1861.60
382.63	1880.04
382.84	1722.34
383.05	1742.82
383.26	1826.79
383.47	1812.45
383.68	1746.92
383.88	1714.15
384.09	1722.34
384.30	1914.85
384.51	1716.20
384.72	1640.42
384.93	1677.29
385.14	1626.09
385.35	1861.60
385.55	1648.61
385.76	1787.88
385.97	1716.20
386.18	1669.09
386.39	1646.57
386.60	1742.82
386.81	1714.15
387.02	1703.91
387.22	1679.33
387.43	1794.02
387.64	1845.22
387.85	1884.13
388.06	2226.14
388.27	4290.49
388.48	6635.42
388.68	8118.15
388.89	9455.47
389.10	9598.83
389.31	8470.40
389.52	7604.11
389.73	6647.71
389.93	6281.12
390.14	5810.09
390.35	5193.65
390.56	4462.52
390.77	3782.60
390.98	3166.16
391.18	2533.34
391.39	2131.94
391.60	1779.68
391.81	1742.82
392.02	1689.57
392.23	1789.92
392.43	1748.97
392.64	1812.45
392.85	1697.77
393.06	1841.12
393.27	1783.78
393.47	1716.20
393.68	1718.25
393.89	1660.90
394.10	1804.26
394.31	1724.39
394.52	1619.94
394.72	1738.73
394.93	1822.69
395.14	1607.66
395.35	1744.87
395.56	1740.77
395.76	1730.53
395.97	1800.16
396.18	1863.65
396.39	1853.41
396.60	1990.63
396.80	1931.23
397.01	1861.60
397.22	1824.74
397.43	1875.94
397.64	1746.92
397.84	1738.73
398.05	1886.18
398.26	1732.58
398.47	1806.31
398.67	1783.78
398.88	1767.40
399.09	1720.29
399.30	1703.91
399.51	1765.35
399.71	1724.39
399.92	1703.91
400.13	1800.16
400.34	1724.39
400.54	1718.25
400.75	1884.13
400.96	1675.24
401.17	1857.51
401.37	1761.25
401.58	1642.47
401.79	1765.35
402.00	1875.94
402.21	1984.48
402.41	1904.61
402.62	1935.33
402.83	2033.63
403.04	2000.87
403.24	2074.59
403.45	1898.47
403.66	1880.04
403.87	1830.88
404.07	1931.23
404.28	1964.00
404.49	1826.79
404.70	1810.40
404.90	1785.83
405.11	1781.73
405.32	1816.55
405.52	1605.61
405.73	1724.39
405.94	1693.67
406.15	1787.88
406.35	1714.15
406.56	1816.55
406.77	1681.38
406.98	1689.57
407.18	1673.19
407.39	1820.64
407.60	1650.66
407.80	1742.82
408.01	1699.81
408.22	1775.59
408.43	1691.62
408.63	1779.68
408.84	1773.54
409.05	1744.87
409.25	1751.01
409.46	1705.96
409.67	1726.44
409.88	1685.48
410.08	1689.57
410.29	1740.77
410.50	1734.63
410.70	1693.67
410.91	1677.29
411.12	1755.11
411.32	1671.14
411.53	1697.77
411.74	1779.68
411.95	1820.64
412.15	1796.07
412.36	1822.69
412.57	1748.97
412.77	1839.08
412.98	1677.29
413.19	1699.81
413.39	1783.78
413.60	1734.63
413.81	1773.54
414.01	1669.09
414.22	1779.68
414.43	1685.48
414.63	1732.58
414.84	1773.54
415.05	1783.78
415.25	1607.66
415.46	1794.02
415.67	1669.09
415.87	1824.74
416.08	1697.77
416.29	1619.94
416.49	1744.87
416.70	1669.09
416.91	1656.81
417.11	1677.29
417.32	1779.68
417.53	1753.06
417.73	1789.92
417.94	1642.47
418.15	1734.63
418.35	1681.38
418.56	1699.81
418.77	1884.13
418.97	1746.92
419.18	1712.10
419.38	1581.03
419.59	1621.99
419.80	1742.82
420.00	1718.25
420.21	1726.44
420.42	1828.84
420.62	1755.11
420.83	1681.38
421.04	1724.39
421.24	1689.57
421.45	1740.77
421.65	1718.25
421.86	1658.85
422.07	1751.01
422.27	1757.16
422.48	1683.43
422.69	1621.99
422.89	1660.90
423.10	1738.73
423.30	1587.18
423.51	1779.68
423.72	1812.45
423.92	1814.50
424.13	1695.72
424.33	1722.34
424.54	1769.44
424.75	1701.86
424.95	1763.30
425.16	1730.53
425.36	1728.49
425.57	1822.69
425.78	1736.68
425.98	1804.26
426.19	1769.44
426.39	1638.38
426.60	1775.59
426.81	1818.60
427.01	1701.86
427.22	1646.57
427.42	1599.46
427.63	1681.38
427.83	1775.59
428.04	1855.46
428.25	1734.63
428.45	1814.50
428.66	1740.77
428.86	1724.39
429.07	1701.86
429.28	1740.77
429.48	1642.47
429.69	1701.86
429.89	1720.29
430.10	1691.62
430.30	1771.49
430.51	1734.63
430.71	1648.61
430.92	1730.53
431.13	1650.66
431.33	1796.07
431.54	1763.30
431.74	1843.17
431.95	1841.12
432.15	1607.66
432.36	1679.33
432.56	1673.19
432.77	1779.68
432.98	1773.54
433.18	1759.21
433.39	1740.77
433.59	1662.95
433.80	1914.85
434.00	1869.80
434.21	1652.71
434.41	1748.97
434.62	1865.70
434.82	1634.28
435.03	1697.77
435.23	1730.53
435.44	1578.98
435.64	1722.34
435.85	1771.49
436.06	1777.64
436.26	1759.21
436.47	1705.96
436.67	1628.14
436.88	1705.96
437.08	1761.25
437.29	1746.92
437.49	1740.77
437.70	1718.25
437.90	1748.97
438.11	1875.94
438.31	1834.98
438.52	1908.71
438.72	1877.99
438.93	1964.00
439.13	1757.16
439.34	1837.03
439.54	1755.11
439.75	1812.45
439.95	1734.63
440.16	1662.95
440.36	1701.86
440.57	1761.25
440.77	1765.35
440.98	1812.45
441.18	1832.93
441.39	1720.29
441.59	1693.67
441.80	1871.84
442.00	1730.53
442.21	1781.73
442.41	1650.66
442.62	1751.01
442.82	1636.33
443.02	1728.49
443.23	1779.68
443.43	1732.58
443.64	1851.36
443.84	1681.38
444.05	1816.55
444.25	1785.83
444.46	1691.62
444.66	1718.25
444.87	1816.55
445.07	1607.66
445.28	1734.63
445.48	1841.12
445.69	1732.58
445.89	1783.78
446.09	1783.78
446.30	2027.49
446.50	2662.36
446.71	3618.76
446.91	4372.41
447.12	4749.24
447.32	4683.70
447.53	4476.86
447.73	3805.13
447.93	3571.66
448.14	3190.74
448.34	3114.96
448.55	2914.26
448.75	2785.24
448.96	2705.37
449.16	2389.98
449.36	2281.44
449.57	2015.20
449.77	1892.32
449.98	1746.92
450.18	1789.92
450.39	1910.75
450.59	1773.54
450.79	1732.58
451.00	1708.01
451.20	1753.06
451.41	1718.25
451.61	1775.59
451.81	1798.12
452.02	1689.57
452.22	1800.16
452.43	1681.38
452.63	1757.16
452.84	1697.77
453.04	1785.83
453.24	1757.16
453.45	1746.92
453.65	1728.49
453.86	1685.48
454.06	1814.50
454.26	1705.96
454.47	1685.48
454.67	1882.08
454.87	1724.39
455.08	1785.83
455.28	1832.93
455.49	1791.97
455.69	1687.53
455.89	1837.03
456.10	1796.07
456.30	1667.05
456.51	1783.78
456.71	1734.63
456.91	1759.21
457.12	1757.16
457.32	1763.30
457.52	1708.01
457.73	1826.79
457.93	1785.83
458.14	1740.77
458.34	1697.77
458.54	1767.40
458.75	1710.05
458.95	1708.01
459.15	1732.58
459.36	1800.16
459.56	1730.53
459.76	1802.21
459.97	1761.25
460.17	1734.63
460.37	1791.97
460.58	1748.97
460.78	1783.78
460.99	1802.21
461.19	1710.05
461.39	1689.57
461.60	1611.75
461.80	1779.68
462.00	1703.91
462.21	1736.68
462.41	1695.72
462.61	1714.15
462.82	1609.70
463.02	1775.59
463.22	1775.59
463.43	1800.16
463.63	1738.73
463.83	1781.73
464.04	1777.64
464.24	1761.25
464.44	1714.15
464.64	1755.11
464.85	1751.01
465.05	1824.74
465.25	1693.67
465.46	1730.53
465.66	1705.96
465.86	1763.30
466.07	1765.35
466.27	1697.77
466.47	1609.70
466.68	1650.66
466.88	1896.42
467.08	1800.16
467.29	1763.30
467.49	1726.44
467.69	1708.01
467.89	1818.60
468.10	1740.77
468.30	1687.53
468.50	1798.12
468.71	1777.64
468.91	1626.09
469.11	1794.02
469.31	1730.53
469.52	1640.42
469.72	1849.32
469.92	1861.60
470.13	1665.00
470.33	1777.64
470.53	1802.21
470.73	2105.31
470.94	2281.44
471.14	2299.87
471.34	2467.80
471.54	2471.90
471.75	2117.60
471.95	2127.84
472.15	2125.79
472.36	2129.89
472.56	2050.02
472.76	2029.54
472.96	2029.54
473.17	1988.58
473.37	1920.99
473.57	1767.40
473.77	1826.79
473.98	1810.40
474.18	1742.82
474.38	1914.85
474.58	1708.01
474.79	1654.76
474.99	1701.86
475.19	1753.06
475.39	1691.62
475.60	1746.92
475.80	1724.39
476.00	1753.06
476.20	1718.25
476.41	1746.92
476.61	1816.55
476.81	1830.88
477.01	1662.95
477.21	1841.12
477.42	1773.54
477.62	1726.44
477.82	1734.63
478.02	1716.20
478.23	1759.21
478.43	1667.05
478.63	1705.96
478.83	1656.81
479.03	1703.91
479.24	1699.81
479.44	1880.04
479.64	1648.61
479.84	1628.14
480.04	1615.85
480.25	1820.64
480.45	1703.91
480.65	1628.14
480.85	1849.32
481.06	1626.09
481.26	1753.06
481.46	1773.54
481.66	1652.71
481.86	1619.94
482.06	1761.25
482.27	1703.91
482.47	1708.01
482.67	1771.49
482.87	1687.53
483.07	1847.27
483.28	1675.24
483.48	1644.52
483.68	1687.53
483.88	1624.04
484.08	1658.85
484.29	1640.42
484.49	1724.39
484.69	1654.76
484.89	1787.88
485.09	1789.92
485.29	1787.88
485.50	1804.26
485.70	1759.21
485.90	1781.73
486.10	1673.19
486.30	1773.54
486.50	1863.65
486.71	1796.07
486.91	1757.16
487.11	1757.16
487.31	1646.57
487.51	1804.26
487.71	1691.62
487.91	1630.18
488.12	1685.48
488.32	1632.23
488.52	1675.24
488.72	1587.18
488.92	1794.02
489.12	1773.54
489.32	1794.02
489.53	1701.86
489.73	1658.85
489.93	1734.63
490.13	1746.92
490.33	1720.29
490.53	1757.16
490.73	1800.16
490.94	1621.99
491.14	1757.16
491.34	1859.56
491.54	2129.89
491.74	2590.68
491.94	2830.29
492.14	3039.19
492.34	3012.56
492.54	2766.81
492.75	2498.52
492.95	2523.10
493.15	2312.16
493.35	2330.59
493.55	2248.67
493.75	2031.58
493.95	2199.52
494.15	2043.87
494.35	2004.96
494.56	1884.13
494.76	1742.82
494.96	1763.30
495.16	1888.23
495.36	1779.68
495.56	1794.02
495.76	1665.00
495.96	1732.58
496.16	1732.58
496.36	1816.55
496.56	1724.39
496.77	1785.83
496.97	1718.25
497.17	1798.12
497.37	1601.51
497.57	1804.26
497.77	1783.78
497.97	1681.38
498.17	1839.08
498.37	1716.20
498.57	1796.07
498.77	1662.95
498.97	1742.82
499.17	1789.92
499.38	1791.97
499.58	1730.53
499.78	1783.78
499.98	1849.32
500.18	1685.48
500.38	1699.81
500.58	1906.66
500.78	2521.05
500.98	4587.45
501.18	5748.65
501.38	6780.82
501.58	7221.14
501.78	6641.56
501.98	5590.95
502.18	4868.02
502.38	4300.73
502.58	4204.48
502.78	3706.82
502.98	3727.30
503.18	3477.45
503.38	3162.06
503.59	2924.50
503.79	2742.23
503.99	2572.25
504.19	2267.10
504.39	2193.37
504.59	2193.37
504.79	2017.25
504.99	1996.77
505.19	1935.33
505.39	1892.32
505.59	1972.19
505.79	1884.13
505.99	1877.99
506.19	1771.49
506.39	1884.13
506.59	1771.49
506.79	1722.34
506.99	1847.27
507.19	1789.92
507.39	1763.30
507.59	1699.81
507.79	1669.09
507.99	1781.73
508.19	1783.78
508.39	1726.44
508.59	1748.97
508.79	1796.07
508.99	1800.16
509.19	1642.47
509.39	1757.16
509.59	1693.67
509.79	1636.33
509.99	1824.74
510.19	1773.54
510.39	1779.68
510.59	1794.02
510.79	1736.68
510.99	1669.09
511.19	1746.92
511.39	1818.60
511.59	1722.34
511.79	1783.78
511.99	1755.11
512.19	1857.51
512.38	1826.79
512.58	1746.92
512.78	1748.97
512.98	1785.83
513.18	1804.26
513.38	1708.01
513.58	1796.07
513.78	1585.13
513.98	1775.59
514.18	1718.25
514.38	1726.44
514.58	1746.92
514.78	1763.30
514.98	1714.15
515.18	1699.81
515.38	1636.33
515.58	1902.56
515.78	1679.33
515.98	1712.10
516.18	1757.16
516.38	1748.97
516.57	1742.82
516.77	1683.43
516.97	1759.21
517.17	1703.91
517.37	1648.61
517.57	1787.88
517.77	1712.10
517.97	1712.10
518.17	1775.59
518.37	1691.62
518.57	1748.97
518.77	1689.57
518.97	1853.41
519.16	1765.35
519.36	1787.88
519.56	1728.49
519.76	1789.92
519.96	1783.78
520.16	1789.92
520.36	1734.63
520.56	1783.78
520.76	1720.29
520.96	1708.01
521.16	1734.63
521.35	1763.30
521.55	1812.45
521.75	1716.20
521.95	1685.48
522.15	1718.25
522.35	1738.73
522.55	1673.19
522.75	1763.30
522.95	1738.73
523.14	1697.77
523.34	1789.92
523.54	1730.53
523.74	1740.77
523.94	1791.97
524.14	1736.68
524.34	1777.64
524.54	1884.13
524.73	1761.25
524.93	1785.83
525.13	1730.53
525.33	1763.30
525.53	1906.66
525.73	1748.97
525.93	1714.15
526.13	1710.05
526.32	1814.50
526.52	1798.12
526.72	1755.11
526.92	1734.63
527.12	1753.06
527.32	1695.72
527.52	1796.07
527.71	1796.07
527.91	1871.84
528.11	1802.21
528.31	1771.49
528.51	1617.90
528.71	1746.92
528.90	1728.49
529.10	1849.32
529.30	1812.45
529.50	1609.70
529.70	1748.97
529.90	1681.38
530.09	1771.49
530.29	1603.56
530.49	1636.33
530.69	1816.55
530.89	1783.78
531.09	1791.97
531.28	1708.01
531.48	1816.55
531.68	1779.68
531.88	1746.92
532.08	1769.44
532.28	1726.44
532.47	1693.67
532.67	1783.78
532.87	1753.06
533.07	1708.01
533.27	1726.44
533.46	1736.68
533.66	1771.49
533.86	1771.49
534.06	1714.15
534.26	1757.16
534.45	1695.72
534.65	1677.29
534.85	1718.25
535.05	1726.44
535.25	1787.88
535.44	1640.42
535.64	1796.07
535.84	1699.81
536.04	1722.34
536.24	1640.42
536.43	1617.90
536.63	1681.38
536.83	1720.29
537.03	1730.53
537.22	1681.38
537.42	1705.96
537.62	1695.72
537.82	1714.15
538.02	1744.87
538.21	1802.21
538.41	1910.75
538.61	1773.54
538.81	1847.27
539.00	1791.97
539.20	1673.19
539.40	1675.24
539.60	1748.97
539.79	1724.39
539.99	1673.19
540.19	1673.19
540.39	1761.25
540.58	1748.97
540.78	1765.35
540.98	1716.20
541.18	1806.31
541.37	1775.59
541.57	1716.20
541.77	1705.96
541.97	1687.53
542.16	1652.71
542.36	1767.40
542.56	1814.50
542.76	1888.23
542.95	1773.54
543.15	1779.68
543.35	1794.02
543.54	1742.82
543.74	1665.00
543.94	1785.83
544.14	1722.34
544.33	1703.91
544.53	1738.73
544.73	1738.73
544.93	1703.91
545.12	1718.25
545.32	1697.77
545.52	1789.92
545.71	1626.09
545.91	1705.96
546.11	1771.49
546.30	1615.85
546.50	1802.21
546.70	1800.16
546.90	1744.87
547.09	1595.37
547.29	1708.01
547.49	1794.02
547.68	1789.92
547.88	1683.43
548.08	1796.07
548.27	2150.37
548.47	1689.57
548.67	1791.97
548.87	1769.44
549.06	1753.06
549.26	1742.82
549.46	1779.68
549.65	1757.16
549.85	1724.39
550.05	1771.49
550.24	1683.43
550.44	1714.15
550.64	1734.63
550.83	1791.97
551.03	1853.41
551.23	1732.58
551.42	1855.46
551.62	1761.25
551.82	1728.49
552.01	1742.82
552.21	1748.97
552.41	1720.29
552.60	1849.32
552.80	1759.21
553.00	1744.87
553.19	1748.97
553.39	1830.88
553.59	1685.48
553.78	1771.49
553.98	1746.92
554.17	1691.62
554.37	1775.59
554.57	1740.77
554.76	1716.20
554.96	1712.10
555.16	1736.68
555.35	1773.54
555.55	1769.44
555.75	1736.68
555.94	1796.07
556.14	1599.46
556.33	1660.90
556.53	1773.54
556.73	1761.25
556.92	1771.49
557.12	1884.13
557.32	1861.60
557.51	1871.84
557.71	1841.12
557.90	1871.84
558.10	1742.82
558.30	1783.78
558.49	1732.58
558.69	1773.54
558.88	1775.59
559.08	1820.64
559.28	1720.29
559.47	1738.73
559.67	1812.45
559.86	1877.99
560.06	1861.60
560.26	1757.16
560.45	1775.59
560.65	1677.29
560.84	1804.26
561.04	1755.11
561.24	1820.64
561.43	1619.94
561.63	1839.08
561.82	1861.60
562.02	1779.68
562.22	1751.01
562.41	1738.73
562.61	1730.53
562.80	1738.73
563.00	1884.13
563.19	1763.30
563.39	1755.11
563.59	1826.79
563.78	1746.92
563.98	1669.09
564.17	1705.96
564.37	1669.09
564.56	1697.77
564.76	1687.53
564.96	1718.25
565.15	1765.35
565.35	1886.18
565.54	1732.58
565.74	1789.92
565.93	1753.06
566.13	1771.49
566.32	1722.34
566.52	1837.03
566.71	1720.29
566.91	1843.17
567.11	1681.38
567.30	1697.77
567.50	1755.11
567.69	1773.54
567.89	1742.82
568.08	1685.48
568.28	1759.21
568.47	1662.95
568.67	1744.87
568.86	1636.33
569.06	1830.88
569.25	1630.18
569.45	1738.73
569.64	1714.15
569.84	1757.16
570.04	1785.83
570.23	1730.53
570.43	1746.92
570.62	1722.34
570.82	1775.59
571.01	1714.15
571.21	1697.77
571.40	1630.18
571.60	1785.83
571.79	1699.81
571.99	1763.30
572.18	1660.90
572.38	1734.63
572.57	1814.50
572.77	1773.54
572.96	1877.99
573.16	1724.39
573.35	1757.16
573.55	1794.02
573.74	1841.12
573.94	1783.78
574.13	1742.82
574.33	1781.73
574.52	1820.64
574.71	1708.01
574.91	1781.73
575.10	1673.19
575.30	1705.96
575.49	1642.47
575.69	1730.53
575.88	1757.16
576.08	1763.30
576.27	1832.93
576.47	1767.40
576.66	1865.70
576.86	1822.69
577.05	1751.01
577.25	1875.94
577.44	1834.98
577.64	1751.01
577.83	1761.25
578.02	1665.00
578.22	1822.69
578.41	1857.51
578.61	1742.82
578.80	1607.66
579.00	1777.64
579.19	1769.44
579.39	1787.88
579.58	1824.74
579.77	1763.30
579.97	1832.93
580.16	1773.54
580.36	1812.45
580.55	1828.84
580.75	1775.59
580.94	1765.35
581.13	1810.40
581.33	1863.65
581.52	1839.08
581.72	1914.85
581.91	1824.74
582.11	1724.39
582.30	1867.75
582.49	1751.01
582.69	1775.59
582.88	1753.06
583.08	1755.11
583.27	1822.69
583.47	1765.35
583.66	1732.58
583.85	1763.30
584.05	1734.63
584.24	1847.27
584.44	1798.12
584.63	1847.27
584.82	1796.07
585.02	1865.70
585.21	1871.84
585.41	1873.89
585.60	1818.60
585.79	1910.75
585.99	1918.95
586.18	1892.32
586.37	2197.47
586.57	3346.38
586.76	9709.42
586.96	24084.11
587.15	33916.41
587.34	39841.18
587.54	41483.66
587.73	36361.69
587.93	26195.57
588.12	21239.48
588.31	18151.15
588.51	16101.13
588.70	15208.22
588.89	13963.05
589.09	12646.21
589.28	10921.82
589.47	9334.64
589.67	7870.34
589.86	6324.13
590.06	4884.41
590.25	3989.44
590.44	3061.71
590.64	2602.97
590.83	2232.29
591.02	2105.31
591.22	1998.82
591.41	1920.99
591.60	1791.97
591.80	1961.95
591.99	1789.92
592.18	1798.12
592.38	1816.55
592.57	1726.44
592.76	1781.73
592.96	1800.16
593.15	1767.40
593.34	1812.45
593.54	1695.72
593.73	1828.84
593.92	1767.40
594.12	1714.15
594.31	1804.26
594.50	1841.12
594.70	1773.54
594.89	1851.36
595.08	1761.25
595.28	1777.64
595.47	1916.90
595.66	1796.07
595.86	1734.63
596.05	1761.25
596.24	1681.38
596.43	1822.69
596.63	1822.69
596.82	1738.73
597.01	1794.02
597.21	1787.88
597.40	1775.59
597.59	1785.83
597.79	1767.40
597.98	1822.69
598.17	1767.40
598.36	1771.49
598.56	1789.92
598.75	1615.85
598.94	1771.49
599.14	1808.36
599.33	1722.34
599.52	1757.16
599.71	1777.64
599.91	1757.16
600.10	1761.25
600.29	1828.84
600.48	1755.11
600.68	1746.92
600.87	1712.10
601.06	1703.91
601.26	1804.26
601.45	1812.45
601.64	1755.11
601.83	1877.99
602.03	1703.91
602.22	1701.86
602.41	1847.27
602.60	1869.80
602.80	1824.74
602.99	1769.44
603.18	1699.81
603.37	1714.15
603.57	1785.83
603.76	1806.31
603.95	1746.92
604.14	1687.53
604.34	1634.28
604.53	1773.54
604.72	1789.92
604.91	1767.40
605.10	1812.45
605.30	1681.38
605.49	1869.80
605.68	1845.22
605.87	1785.83
606.07	1755.11
606.26	1757.16
606.45	1779.68
606.64	1701.86
606.84	1710.05
607.03	1685.48
607.22	1785.83
607.41	1744.87
607.60	1714.15
607.80	1800.16
607.99	1722.34
608.18	1816.55
608.37	1767.40
608.56	1726.44
608.76	1751.01
608.95	1830.88
609.14	1716.20
609.33	1800.16
609.52	1796.07
609.72	1763.30
609.91	1744.87
610.10	1726.44
610.29	1769.44
610.48	1773.54
610.68	1796.07
610.87	1728.49
611.06	1738.73
611.25	1755.11
611.44	1837.03
611.63	1769.44
611.83	1810.40
612.02	1701.86
612.21	1798.12
612.40	1624.04
612.59	1724.39
612.79	1714.15
612.98	1804.26
613.17	1843.17
613.36	1783.78
613.55	1834.98
613.74	1677.29
613.93	1611.75
614.13	1710.05
614.32	1712.10
614.51	1839.08
614.70	1734.63
614.89	1718.25
615.08	1822.69
615.28	2084.83
615.47	1648.61
615.66	1759.21
615.85	1728.49
616.04	1845.22
616.23	1732.58
616.42	1820.64
616.62	1824.74
616.81	1777.64
617.00	1757.16
617.19	1710.05
617.38	1691.62
617.57	1705.96
617.76	1669.09
617.95	1826.79
618.15	1716.20
618.34	1832.93
618.53	1691.62
618.72	1775.59
618.91	1867.75
619.10	1822.69
619.29	1748.97
619.48	1691.62
619.68	1679.33
619.87	1804.26
620.06	1693.67
620.25	1701.86
620.44	1720.29
620.63	1677.29
620.82	1722.34
621.01	1697.77
621.20	1703.91
621.39	1734.63
621.59	1726.44
621.78	1714.15
621.97	1757.16
622.16	1751.01
622.35	1806.31
622.54	1769.44
622.73	1814.50
622.92	1621.99
623.11	1687.53
623.30	1710.05
623.49	1783.78
623.68	1708.01
623.88	1740.77
624.07	1689.57
624.26	1789.92
624.45	1757.16
624.64	1718.25
624.83	1671.14
625.02	1681.38
625.21	1722.34
625.40	1746.92
625.59	1830.88
625.78	1705.96
625.97	1665.00
626.16	1718.25
626.35	1724.39
626.54	1683.43
626.74	1800.16
626.93	1708.01
627.12	1603.56
627.31	1769.44
627.50	1742.82
627.69	1712.10
627.88	1714.15
628.07	1699.81
628.26	1667.05
628.45	1677.29
628.64	1677.29
628.83	1757.16
629.02	1669.09
629.21	1791.97
629.40	1789.92
629.59	1718.25
629.78	1779.68
629.97	1681.38
630.16	1734.63
630.35	1701.86
630.54	1722.34
630.73	1738.73
630.92	1667.05
631.11	1662.95
631.30	1728.49
631.49	1716.20
631.68	1757.16
631.87	1726.44
632.06	1585.13
632.25	1826.79
632.44	1685.48
632.63	1710.05
632.82	1759.21
633.01	1652.71
633.20	1726.44
633.39	1708.01
633.58	1632.23
633.77	1824.74
633.96	1732.58
634.15	1738.73
634.34	1740.77
634.53	1714.15
634.72	1738.73
634.91	1665.00
635.10	1802.21
635.29	1759.21
635.48	1779.68
635.67	1662.95
635.86	1640.42
636.05	1814.50
636.24	1705.96
636.43	1783.78
636.62	1775.59
636.81	1640.42
637.00	1712.10
637.19	1785.83
637.38	1734.63
637.57	1730.53
637.76	1724.39
637.95	1744.87
638.14	1619.94
638.33	1660.90
638.52	1712.10
638.71	1701.86
638.89	1609.70
639.08	1880.04
639.27	1794.02
639.46	1644.52
639.65	1814.50
639.84	1724.39
640.03	1767.40
640.22	1693.67
640.41	1779.68
640.60	1728.49
640.79	1722.34
640.98	1814.50
641.17	1734.63
641.36	1708.01
641.55	1785.83
641.74	1654.76
641.92	1607.66
642.11	1724.39
642.30	1751.01
642.49	1697.77
642.68	1722.34
642.87	1716.20
643.06	1763.30
643.25	1742.82
643.44	1740.77
643.63	1738.73
643.82	1748.97
644.00	1642.47
644.19	1679.33
644.38	1701.86
644.57	1779.68
644.76	1773.54
644.95	1751.01
645.14	1689.57
645.33	1775.59
645.52	1716.20
645.71	1716.20
645.89	1681.38
646.08	1673.19
646.27	1671.14
646.46	1802.21
646.65	1624.04
646.84	1681.38
647.03	1634.28
647.22	1841.12
647.40	1791.97
647.59	1769.44
647.78	1644.52
647.97	1705.96
648.16	1677.29
648.35	1789.92
648.54	1853.41
648.73	1738.73
648.91	1771.49
649.10	1757.16
649.29	1681.38
649.48	1781.73
649.67	1693.67
649.86	1689.57
650.05	1656.81
650.23	1806.31
650.42	1667.05
650.61	1773.54
650.80	1787.88
650.99	1849.32
651.18	1841.12
651.36	1791.97
651.55	1687.53
651.74	1804.26
651.93	1648.61
652.12	1716.20
652.31	1644.52
652.49	1658.85
652.68	1648.61
652.87	1734.63
653.06	1701.86
653.25	1812.45
653.44	1705.96
653.62	1841.12
653.81	1722.34
654.00	1767.40
654.19	1746.92
654.38	1912.80
654.56	1810.40
654.75	1763.30
654.94	1800.16
655.13	1699.81
655.32	1734.63
655.51	1775.59
655.69	1658.85
655.88	1746.92
656.07	1714.15
656.26	1746.92
656.45	1658.85
656.63	1769.44
656.82	1705.96
657.01	1830.88
657.20	1624.04
657.38	1755.11
657.57	1681.38
657.76	1595.37
657.95	1789.92
658.14	1722.34
658.32	1765.35
658.51	1675.24
658.70	1650.66
658.89	1808.36
659.08	1759.21
659.26	1857.51
659.45	1638.38
659.64	1732.58
659.83	1701.86
660.01	1816.55
660.20	1667.05
660.39	1828.84
660.58	1605.61
660.76	1808.36
660.95	1603.56
661.14	1724.39
661.33	1619.94
661.51	1648.61
661.70	1703.91
661.89	1677.29
662.08	1693.67
662.26	1697.77
662.45	1652.71
662.64	1779.68
662.83	1712.10
663.01	1656.81
663.20	1603.56
663.39	1857.51
663.58	1740.77
663.76	1710.05
663.95	1705.96
664.14	1648.61
664.32	1687.53
664.51	1703.91
664.70	1652.71
664.89	1732.58
665.07	1665.00
665.26	1814.50
665.45	1630.18
665.64	1804.26
665.82	1755.11
666.01	1812.45
666.20	1687.53
666.38	1748.97
666.57	1843.17
666.76	2254.81
666.95	4413.37
667.13	10346.34
667.32	15148.82
667.51	17540.85
667.69	18609.89
667.88	17708.79
668.07	12095.30
668.25	9480.05
668.44	7925.64
668.63	7403.41
668.81	6707.10
669.00	6281.12
669.19	5621.67
669.38	5064.63
669.56	4689.85
669.75	3985.35
669.94	3477.45
670.12	2969.55
670.31	2475.99
670.50	2299.87
670.68	2039.78
670.87	1972.19
671.06	1787.88
671.24	1802.21
671.43	1791.97
671.62	1771.49
671.80	1722.34
671.99	1775.59
672.18	1675.24
672.36	1763.30
672.55	1759.21
672.74	1689.57
672.92	1703.91
673.11	1746.92
673.29	1656.81
673.48	1804.26
673.67	1748.97
673.85	1744.87
674.04	1658.85
674.23	1689.57
674.41	1806.31
674.60	1689.57
674.79	1634.28
674.97	1636.33
675.16	1738.73
675.34	1822.69
675.53	1689.57
675.72	1742.82
675.90	1839.08
676.09	1687.53
676.28	1746.92
676.46	1632.23
676.65	1697.77
676.83	1703.91
677.02	1712.10
677.21	1757.16
677.39	1665.00
677.58	1662.95
677.77	1675.24
677.95	1734.63
678.14	1728.49
678.32	1685.48
678.51	1671.14
678.70	1783.78
678.88	1714.15
679.07	1730.53
679.25	1708.01
679.44	1697.77
679.63	1652.71
679.81	1765.35
680.00	1806.31
680.18	1757.16
680.37	1804.26
680.55	1724.39
680.74	1607.66
680.93	1607.66
681.11	1769.44
681.30	1695.72
681.48	1744.87
681.67	1703.91
681.85	1671.14
682.04	1660.90
682.23	1761.25
682.41	1765.35
682.60	1693.67
682.78	1701.86
682.97	1624.04
683.15	1718.25
683.34	1738.73
683.53	1796.07
683.71	1617.90
683.90	1755.11
684.08	1753.06
684.27	1736.68
684.45	1753.06
684.64	1830.88
684.82	1636.33
685.01	1716.20
685.19	1681.38
685.38	1814.50
685.57	1726.44
685.75	1748.97
685.94	1662.95
686.12	1621.99
686.31	1679.33
686.49	1816.55
686.68	1550.31
686.86	1742.82
687.05	1769.44
687.23	1808.36
687.42	1658.85
687.60	1591.27
687.79	1773.54
687.97	1834.98
688.16	1755.11
688.34	1748.97
688.53	1624.04
688.71	1689.57
688.90	1777.64
689.08	1683.43
689.27	1703.91
689.45	1830.88
689.64	1826.79
689.82	1757.16
690.01	1701.86
690.19	1736.68
690.38	1646.57
690.56	1736.68
690.75	1626.09
690.93	1650.66
691.12	1755.11
691.30	1800.16
691.49	1724.39
691.67	1751.01
691.86	1767.40
692.04	1654.76
692.23	1677.29
692.41	1697.77
692.60	1814.50
692.78	1742.82
692.97	1718.25
693.15	1708.01
693.34	1818.60
693.52	1779.68
693.71	1617.90
693.89	1654.76
694.08	1644.52
694.26	1781.73
694.44	1800.16
694.63	1701.86
694.81	1554.41
695.00	1667.05
695.18	1732.58
695.37	1800.16
695.55	1716.20
695.74	1720.29
695.92	1677.29
696.10	1744.87
696.29	1650.66
696.47	1697.77
696.66	1611.75
696.84	1628.14
697.03	1652.71
697.21	1785.83
697.40	2299.87
697.58	1744.87
697.76	1677.29
697.95	1708.01
698.13	1648.61
698.32	1699.81
698.50	1763.30
698.68	1748.97
698.87	1742.82
699.05	1748.97
699.24	1810.40
699.42	1751.01
699.61	1783.78
699.79	1769.44
699.97	1712.10
700.16	1648.61
700.34	1671.14
700.53	1656.81
700.71	1765.35
700.89	1798.12
701.08	1755.11
701.26	1755.11
701.45	2125.79
701.63	1708.01
701.81	1675.24
702.00	1638.38
702.18	1665.00
702.37	1712.10
702.55	1728.49
702.73	1634.28
702.92	1607.66
703.10	1722.34
703.28	1681.38
703.47	1636.33
703.65	1796.07
703.84	1755.11
704.02	1710.05
704.20	1751.01
704.39	1685.48
704.57	1722.34
704.75	1771.49
704.94	1763.30
705.12	1662.95
705.30	1830.88
705.49	2332.64
705.67	4331.45
705.86	9291.63
706.04	12433.22
706.22	14274.34
706.41	15349.53
706.59	13594.42
706.77	9713.52
706.96	7239.57
707.14	6483.87
707.32	5803.94
707.51	5459.88
707.69	4960.18
707.87	4179.90
708.06	3510.22
708.24	2969.55
708.42	2480.09
708.61	2224.09
708.79	1927.14
708.97	1912.80
709.16	1855.46
709.34	1802.21
709.52	1642.47
709.71	1726.44
709.89	1787.88
710.07	1714.15
710.26	1689.57
710.44	1726.44
710.62	1865.70
710.80	1783.78
710.99	1763.30
711.17	1822.69
711.35	1712.10
711.54	1685.48
711.72	1787.88
711.90	1693.67
712.09	1665.00
712.27	1650.66
712.45	1710.05
712.63	1675.24
712.82	1738.73
713.00	1646.57
713.18	1685.48
713.37	1718.25
713.55	1757.16
713.73	1726.44
713.91	1759.21
714.10	1665.00
714.28	1695.72
714.46	1693.67
714.65	1683.43
714.83	1685.48
715.01	1654.76
715.19	1685.48
715.38	1705.96
715.56	1658.85
715.74	1636.33
715.92	1607.66
716.11	1730.53
716.29	1652.71
716.47	1703.91
716.65	1722.34
716.84	1650.66
717.02	1757.16
717.20	1624.04
717.38	1578.98
717.57	1669.09
717.75	1685.48
717.93	1681.38
718.11	1720.29
718.30	1718.25
718.48	1726.44
718.66	1714.15
718.84	1771.49
719.03	1701.86
719.21	1728.49
719.39	1884.13
719.57	1794.02
719.75	1744.87
719.94	1654.76
720.12	1703.91
720.30	1742.82
720.48	1751.01
720.67	1665.00
720.85	1599.46
721.03	1673.19
721.21	1632.23
721.39	1777.64
721.58	1730.53
721.76	1742.82
721.94	1660.90
722.12	1654.76
722.30	1787.88
722.49	1648.61
722.67	1740.77
722.85	1671.14
723.03	1634.28
723.21	1652.71
723.40	1660.90
723.58	1738.73
723.76	1712.10
723.94	1794.02
724.12	1701.86
724.30	1800.16
724.49	1804.26
724.67	1587.18
724.85	1761.25
725.03	1568.74
725.21	1755.11
725.40	1773.54
725.58	1677.29
725.76	1736.68
725.94	1738.73
726.12	1638.38
726.30	1722.34
726.49	1740.77
726.67	1669.09
726.85	1755.11
727.03	1746.92
727.21	2140.13
727.39	2936.79
727.57	3702.73
727.76	4167.62
727.94	4419.52
728.12	4407.23
728.30	3637.19
728.48	2987.99
728.66	2731.99
728.84	2553.82
729.03	2312.16
729.21	2154.46
729.39	1970.15
729.57	1867.75
729.75	1888.23
729.93	1767.40
730.11	1763.30
730.30	1697.77
730.48	1726.44
730.66	1832.93
730.84	1794.02
731.02	1693.67
731.20	1646.57
731.38	1787.88
731.56	1611.75
731.74	1726.44
731.93	1658.85
732.11	1673.19
732.29	1705.96
732.47	1748.97
732.65	1759.21
732.83	1751.01
733.01	1632.23
733.19	1656.81
733.37	1740.77
733.56	1853.41
733.74	1738.73
733.92	1853.41
734.10	1681.38
734.28	1763.30
734.46	1560.55
734.64	1708.01
734.82	1671.14
735.00	1634.28
735.18	1558.50
735.36	1769.44
735.54	1662.95
735.73	1730.53
735.91	1738.73
736.09	1679.33
736.27	1693.67
736.45	1748.97
736.63	1630.18
736.81	1648.61
736.99	1806.31
737.17	1828.84
737.35	1638.38
737.53	1705.96
737.71	1714.15
737.89	1826.79
738.07	1712.10
738.25	1642.47
738.43	1691.62
738.61	1667.05
738.80	1716.20
738.98	1669.09
739.16	1716.20
739.34	1611.75
739.52	1818.60
739.70	1705.96
739.88	1759.21
740.06	1779.68
740.24	1619.94
740.42	1765.35
740.60	1644.52
740.78	1681.38
740.96	1685.48
741.14	1701.86
741.32	1710.05
741.50	1603.56
741.68	1830.88
741.86	1769.44
742.04	1679.33
742.22	1732.58
742.40	1765.35
742.58	1687.53
742.76	1703.91
742.94	1718.25
743.12	1652.71
743.30	1705.96
743.48	1751.01
743.66	1697.77
743.84	1744.87
744.02	1695.72
744.20	1703.91
744.38	1673.19
744.56	1656.81
744.74	1789.92
744.92	1751.01
745.10	1779.68
745.28	1843.17
745.46	1875.94
745.64	1611.75
745.82	1794.02
746.00	1642.47
746.18	1740.77
746.36	1673.19
746.54	1691.62
746.72	1703.91
746.90	1708.01
747.08	1789.92
747.26	1665.00
747.44	1714.15
747.62	1800.16
747.80	1714.15
747.98	1804.26
748.15	1681.38
748.33	1816.55
748.51	1732.58
748.69	1785.83
748.87	1697.77
749.05	1669.09
749.23	1777.64
749.41	1740.77
749.59	1724.39
749.77	1779.68
749.95	1701.86
750.13	1736.68
750.31	1757.16
750.49	1712.10
750.67	1765.35
750.85	1816.55
751.03	1687.53
751.20	1855.46
751.38	1660.90
751.56	1730.53
751.74	1757.16
751.92	1714.15
752.10	1624.04
752.28	1695.72
752.46	1615.85
752.64	1695.72
752.82	1773.54
753.00	1751.01
753.18	1714.15
753.35	1648.61
753.53	1619.94
753.71	1697.77
753.89	1701.86
754.07	1589.22
754.25	1820.64
754.43	1785.83
754.61	1703.91
754.79	1734.63
754.97	1708.01
755.14	1687.53
755.32	1599.46
755.50	1769.44
755.68	1675.24
755.86	1644.52
756.04	1683.43
756.22	1644.52
756.40	1730.53
756.57	1796.07
756.75	1660.90
756.93	1794.02
757.11	1757.16
757.29	1726.44
757.47	1634.28
757.65	1599.46
757.82	1566.70
758.00	1632.23
758.18	1675.24
758.36	1665.00
758.54	1746.92
758.72	1689.57
758.90	1744.87
759.07	1697.77
759.25	1646.57
759.43	1761.25
759.61	1656.81
759.79	2174.94
759.97	1689.57
760.15	1728.49
760.32	1736.68
760.50	1628.14
760.68	1744.87
760.86	1632.23
761.04	1794.02
761.22	1660.90
761.39	1689.57
761.57	1660.90
761.75	1673.19
761.93	1808.36
762.11	1691.62
762.28	1730.53
762.46	1615.85
762.64	1783.78
762.82	1640.42
763.00	1691.62
763.18	1767.40
763.35	1773.54
763.53	1708.01
763.71	1701.86
763.89	1693.67
764.07	1783.78
764.24	1742.82
764.42	1710.05
764.60	1714.15
764.78	1730.53
764.96	1755.11
765.13	1769.44
765.31	1728.49
765.49	1777.64
765.67	1556.46
765.84	1615.85
766.02	1656.81
766.20	1669.09
766.38	1732.58
766.56	1753.06
766.73	1789.92
766.91	1724.39
767.09	1683.43
767.27	1738.73
767.44	1677.29
767.62	1781.73
767.80	1656.81
767.98	1677.29
768.15	1732.58
768.33	1638.38
768.51	1773.54
768.69	1755.11
768.87	1755.11
769.04	1675.24
769.22	1794.02
769.40	1753.06
769.58	1873.89
769.75	1732.58
769.93	1789.92
770.11	1742.82
770.28	1642.47
770.46	1683.43
770.64	1693.67
770.82	1689.57
770.99	1671.14
771.17	1751.01
771.35	1632.23
771.53	1667.05
771.70	1669.09
771.88	1755.11
772.06	1640.42
772.23	1615.85
772.41	1699.81
772.59	1710.05
772.77	1656.81
772.94	1648.61
773.12	1722.34
773.30	1728.49
773.47	1740.77
773.65	1660.90
773.83	1822.69
774.01	1677.29
774.18	1658.85
774.36	1699.81
774.54	1679.33
774.71	1730.53
774.89	1644.52
775.07	1652.71
775.24	1683.43
775.42	1681.38
775.60	1781.73
775.78	1646.57
775.95	1660.90
776.13	1617.90
776.31	1599.46
776.48	1771.49
776.66	1812.45
776.84	1710.05
777.01	1671.14
777.19	1695.72
777.37	1736.68
777.54	1722.34
777.72	1826.79
777.90	1710.05
778.07	1667.05
778.25	1935.33
778.43	1767.40
778.60	1757.16
778.78	1767.40
778.96	1771.49
779.13	1724.39
779.31	1902.56
779.49	1701.86
779.66	1732.58
779.84	1667.05
780.01	1718.25
780.19	1640.42
780.37	1869.80
780.54	1683.43
780.72	1687.53
780.90	1765.35
781.07	1695.72
781.25	1650.66
781.43	1705.96
781.60	1697.77
781.78	1728.49
781.95	1695.72
782.13	1677.29
782.31	1693.67
782.48	1656.81
782.66	1693.67
782.83	1814.50
783.01	1621.99
783.19	1761.25
783.36	1703.91
783.54	1681.38
783.72	1781.73
783.89	1673.19
784.07	1785.83
784.24	1681.38
784.42	1726.44
784.60	1662.95
784.77	1746.92
784.95	1597.42
785.12	1658.85
785.30	1689.57
785.47	1593.32
785.65	1691.62
785.83	1703.91
786.00	1570.79
786.18	1730.53
786.35	1701.86
786.53	1693.67
786.71	1744.87
786.88	1746.92
787.06	1675.24
787.23	1685.48
787.41	1699.81
787.58	1640.42
787.76	1667.05
787.94	1648.61
788.11	1708.01
788.29	1691.62
788.46	1611.75
788.64	1636.33
788.81	1695.72
788.99	1671.14
789.16	1652.71
789.34	1726.44
789.52	1683.43
789.69	1675.24
789.87	1621.99
790.04	1701.86
790.22	1710.05
790.39	1839.08
790.57	1722.34
790.74	1644.52
790.92	1738.73
791.09	1720.29
791.27	1632.23
791.44	1791.97
791.62	1708.01
791.79	1685.48
791.97	1742.82
792.15	1861.60
792.32	1753.06
792.50	1677.29
792.67	1771.49
792.85	1837.03
793.02	1722.34
793.20	1642.47
793.37	1693.67
793.55	1755.11
793.72	1656.81
793.90	1710.05
794.07	1695.72
794.25	1617.90
794.42	1722.34
794.60	1761.25
794.77	1740.77
794.95	1738.73
795.12	1755.11
795.30	1728.49
795.47	1656.81
795.65	1857.51
795.82	1744.87
796.00	1689.57
796.17	1650.66
796.34	1605.61
796.52	1712.10
796.69	1755.11
796.87	1818.60
797.04	1644.52
797.22	1683.43
797.39	1771.49
797.57	1734.63
797.74	1646.57
797.92	1791.97
798.09	1656.81
798.27	1785.83
798.44	1757.16
798.62	1736.68
798.79	1732.58
798.96	1728.49
799.14	1660.90
799.31	1886.18
799.49	1689.57
799.66	1691.62
799.84	1726.44
800.01	1572.84
800.19	1720.29
800.36	1628.14
800.53	1775.59
800.71	1732.58
800.88	1781.73
801.06	1730.53
801.23	1757.16
801.41	1695.72
801.58	1656.81
801.75	1710.05
801.93	1714.15
802.10	1730.53
802.28	1701.86
802.45	1687.53
802.63	1740.77
802.80	1759.21
802.97	1691.62
803.15	1679.33
803.32	1712.10
803.50	1685.48
803.67	1675.24
803.84	1732.58
804.02	1662.95
804.19	1736.68
804.37	1634.28
804.54	1613.80
804.71	1705.96
804.89	1767.40
805.06	1636.33
805.24	1683.43
805.41	1675.24
805.58	1636.33
805.76	1839.08
805.93	1685.48
806.10	1804.26
806.28	1783.78
806.45	1685.48
806.63	1705.96
806.80	1765.35
806.97	1697.77
807.15	1685.48
807.32	1732.58
807.49	1693.67
807.67	1634.28
807.84	1820.64
808.01	1642.47
808.19	1832.93
808.36	1820.64
808.54	1683.43
808.71	1613.80
808.88	1705.96
809.06	1679.33
809.23	1722.34
809.40	1607.66
809.58	1767.40
809.75	1712.10
809.92	1658.85
810.10	1898.47
810.27	1720.29
810.44	1689.57
810.62	1726.44
810.79	1720.29
810.96	1697.77
811.14	1679.33
811.31	1636.33
811.48	1751.01
811.66	1781.73
811.83	1742.82
812.00	1751.01
812.18	1730.53
812.35	1830.88
812.52	1683.43
812.69	1644.52
812.87	1693.67
813.04	1640.42
813.21	1691.62
813.39	1644.52
813.56	1595.37
813.73	1755.11
813.91	1681.38
814.08	1728.49
814.25	1794.02
814.42	1607.66
814.60	1708.01
814.77	1673.19
814.94	1722.34
815.12	1781.73
815.29	1779.68
815.46	1632.23
815.63	1714.15
815.81	1759.21
815.98	1650.66
816.15	1722.34
816.33	1751.01
816.50	1730.53
816.67	1746.92
816.84	1679.33
817.02	1626.09
817.19	1681.38
817.36	1726.44
817.53	1695.72
817.71	1730.53
817.88	1767.40
818.05	1712.10
818.22	1722.34
818.40	1779.68
818.57	1675.24
818.74	1746.92
818.91	1789.92
819.09	1714.15
819.26	1746.92
819.43	1628.14
819.60	1794.02
819.78	1705.96
819.95	1796.07
820.12	1640.42
820.29	1804.26
820.47	1775.59
820.64	1730.53
820.81	1642.47
820.98	1636.33
821.15	1687.53
821.33	1781.73
821.50	1605.61
821.67	1734.63
821.84	1636.33
822.02	1810.40
822.19	1767.40
822.36	1710.05
822.53	1697.77
822.70	1617.90
822.88	1681.38
823.05	1771.49
823.22	1705.96
823.39	1699.81
823.56	1763.30
823.74	1863.65
823.91	1712.10
824.08	1685.48
824.25	1660.90
824.42	1816.55
824.60	1613.80
824.77	1718.25
824.94	1683.43
825.11	1748.97
825.28	1671.14
825.45	1648.61
825.63	1705.96
825.80	1660.90
825.97	1751.01
826.14	1675.24
826.31	1662.95
826.48	1759.21
826.66	1630.18
826.83	1689.57
827.00	1775.59
827.17	1710.05
827.34	1630.18
827.51	1685.48
827.69	1714.15
827.86	1658.85
828.03	1660.90
828.20	1720.29
828.37	1681.38
828.54	1757.16
828.71	1724.39
828.89	1781.73
829.06	1728.49
829.23	1828.84
829.40	1648.61
829.57	1693.67
829.74	1753.06
829.91	1677.29
830.09	1673.19
830.26	1757.16
830.43	1820.64
830.60	1642.47
830.77	1660.90
830.94	1710.05
831.11	1724.39
831.28	1665.00
831.46	1726.44
831.63	1648.61
831.80	1710.05
831.97	1660.90
832.14	1697.77
832.31	1683.43
832.48	1646.57
832.65	1689.57
832.82	1748.97
832.99	1767.40
833.17	1652.71
833.34	1740.77
833.51	1742.82
833.68	1667.05
833.85	1738.73
834.02	1703.91
834.19	1593.32
834.36	1671.14
834.53	1732.58
834.70	1730.53
834.87	1781.73
835.04	1726.44
835.22	1699.81
835.39	1703.91
835.56	1624.04
835.73	1755.11
835.90	1710.05
836.07	1671.14
836.24	1769.44
836.41	1640.42
836.58	1712.10
836.75	1771.49
836.92	1722.34
837.09	1740.77
837.26	1742.82
837.43	1683.43
837.60	1667.05
837.77	1667.05
837.94	1726.44
838.12	1787.88
838.29	1734.63
838.46	1583.08
838.63	1632.23
838.80	1765.35
838.97	1791.97
839.14	1693.67
839.31	1777.64
839.48	1796.07
839.65	1681.38
839.82	1771.49
839.99	1808.36
840.16	1722.34
840.33	1710.05
840.50	1677.29
840.67	1624.04
840.84	1601.51
841.01	1718.25
841.18	1693.67
841.35	1703.91
841.52	1689.57
841.69	1734.63
841.86	1673.19
842.03	1671.14
842.20	1748.97
842.37	1714.15
842.54	1677.29
842.71	1734.63
842.88	1609.70
843.05	1771.49
843.22	1673.19
843.39	1798.12
843.56	1722.34
843.73	1705.96
843.90	1712.10
844.07	1712.10
844.24	1734.63
844.41	1742.82
844.58	1714.15
844.75	1703.91
844.92	1728.49
845.09	1822.69
845.26	1632.23
845.43	1800.16
845.60	1640.42
845.77	1712.10
845.94	1677.29
846.10	1665.00
846.27	1581.03
846.44	1746.92
846.61	1621.99
846.78	1728.49
846.95	1779.68
847.12	1685.48
847.29	1701.86
847.46	1621.99
847.63	1814.50
847.80	1724.39
847.97	1681.38
848.14	1859.56
848.31	1687.53
848.48	1628.14
848.65	1693.67
848.82	1646.57
848.98	1867.75
849.15	1714.15
849.32	1742.82
849.49	1742.82
849.66	1718.25
849.83	1761.25
850.00	1646.57
850.17	1624.04
850.34	1687.53
850.51	1683.43
850.68	1662.95
850.85	1781.73
851.01	1638.38
851.18	1734.63
851.35	1744.87
851.52	1726.44
851.69	1861.60
851.86	1716.20
852.03	1714.15
852.20	1726.44
852.37	1730.53
852.53	1640.42
852.70	1677.29
852.87	1697.77
853.04	1765.35
853.21	1699.81
853.38	1757.16
853.55	1689.57
853.72	1765.35
853.89	1697.77
854.05	1677.29
854.22	1701.86
854.39	1665.00
854.56	1617.90
854.73	1724.39
854.90	1636.33
855.07	1656.81
855.23	1650.66
855.40	1603.56
855.57	1632.23
855.74	1632.23
855.91	1886.18
856.08	1654.76
856.25	1656.81
856.41	1714.15
856.58	1716.20
856.75	1675.24
856.92	1638.38
857.09	1787.88
857.26	1648.61
857.42	1650.66
857.59	1697.77
857.76	1740.77
857.93	1679.33
858.10	1708.01
858.27	1599.46
858.43	1732.58
858.60	1673.19
858.77	1626.09
858.94	1701.86
859.11	1742.82
859.27	1650.66
859.44	1718.25
859.61	1791.97
859.78	1697.77
859.95	1669.09
860.12	1601.51
860.28	1869.80
860.45	1861.60
860.62	1654.76
860.79	1724.39
860.95	1607.66
861.12	1603.56
861.29	1683.43
861.46	1648.61
861.63	1654.76
861.79	1736.68
861.96	1677.29
862.13	1660.90
862.30	1828.84
862.47	1632.23
862.63	1619.94
862.80	1755.11
862.97	1769.44
863.14	1693.67
863.30	1738.73
863.47	1656.81
863.64	1726.44
863.81	1730.53
863.97	1665.00
864.14	1734.63
864.31	1722.34
864.48	1716.20
864.65	1671.14
864.81	1763.30
864.98	1722.34
865.15	1705.96
865.32	1759.21
865.48	1802.21
865.65	1753.06
865.82	1658.85
865.98	1689.57
866.15	1804.26
866.32	1662.95
866.49	1685.48
866.65	1755.11
866.82	1626.09
866.99	1671.14
867.16	1654.76
867.32	1722.34
867.49	1759.21
867.66	1730.53
867.83	1705.96
867.99	1619.94
868.16	1730.53
868.33	1656.81
868.49	1699.81
868.66	1679.33
868.83	1732.58
868.99	1703.91
869.16	1755.11
869.33	1837.03
869.50	1783.78
869.66	1630.18
869.83	1681.38
870.00	1595.37
870.16	1691.62
870.33	1726.44
870.50	1697.77
870.66	1753.06
870.83	1871.84
871.00	1714.15
871.17	1781.73
871.33	1738.73
871.50	1677.29
871.67	1675.24
871.83	1611.75
872.00	1906.66
872.17	1697.77
872.33	1732.58
872.50	1783.78
872.67	1665.00
872.83	1685.48
873.00	1701.86
873.17	1675.24
873.33	1710.05
873.50	1751.01
873.67	1685.48
873.83	1695.72
874.00	1675.24
874.16	1757.16
874.33	1656.81
874.50	1687.53
874.66	1722.34
874.83	1804.26
875.00	1824.74
875.16	1808.36
875.33	1722.34
875.50	1628.14
875.66	1703.91
875.83	1703.91
875.99	1732.58
876.16	1701.86
876.33	1687.53
876.49	1675.24
876.66	1695.72
876.83	1720.29
876.99	1531.88
877.16	1681.38
877.32	1660.90
877.49	1669.09
877.66	1730.53
877.82	1775.59
877.99	1716.20
878.15	1751.01
878.32	1701.86
878.49	1689.57
878.65	1685.48
878.82	1761.25
878.98	1617.90
879.15	1753.06
879.32	1783.78
879.48	1697.77
879.65	1636.33
879.81	1679.33
879.98	1679.33
880.15	1662.95
880.31	1746.92
880.48	1738.73
880.64	1714.15
880.81	1697.77
880.97	1849.32
881.14	1837.03
881.31	1607.66
881.47	1853.41
881.64	1675.24
881.80	1673.19
881.97	1751.01
882.13	1730.53
882.30	1583.08
882.47	1611.75
882.63	1568.74
882.80	1751.01
882.96	1755.11
883.13	1742.82
883.29	1689.57
883.46	1689.57
883.62	1828.84
883.79	1728.49
883.95	1712.10
884.12	1660.90
884.29	1730.53
884.45	1667.05
884.62	1734.63
884.78	1632.23
884.95	1738.73
885.11	1708.01
885.28	1748.97
885.44	1687.53
885.61	1679.33
885.77	1761.25
885.94	1671.14
886.10	1722.34
886.27	1748.97
886.43	1710.05
886.60	1775.59
886.76	1705.96
886.93	1755.11
887.09	1722.34
887.26	1591.27
887.42	1714.15
887.59	1769.44
887.75	1843.17
887.92	1812.45
888.08	1720.29
888.25	1761.25
888.41	1820.64
888.58	1691.62
888.74	1632.23
888.91	1660.90
>>>>>End Processed Spectral Data<<<<<
