SpectraSuite Data File
++++++++++++++++++++++++++++++++++++
Date: Mon Jun 06 15:55:37 CEST 2016
User: root
Dark Spectrum Present: No
Reference Spectrum Present: No
Number of Sampled Component Spectra: 1
Spectrometers: USB4C02835
Integration Time (usec): 100000 (USB4C02835)
Spectra Averaged: 1 (USB4C02835)
Boxcar Smoothing: 0 (USB4C02835)
Correct for Electrical Dark: No (USB4C02835)
Strobe/Lamp Enabled: No (USB4C02835)
Correct for Detector Non-linearity: No (USB4C02835)
Correct for Stray Light: No (USB4C02835)
Number of Pixels in Processed Spectrum: 3648
>>>>>Begin Processed Spectral Data<<<<<
177.47	1505.26
177.69	1505.26
177.91	1505.26
178.13	1460.20
178.36	1511.40
178.58	1685.48
178.80	1730.53
179.02	1685.48
179.24	1671.14
179.46	1728.49
179.68	1853.41
179.90	1783.78
180.13	1726.44
180.35	1724.39
180.57	1685.48
180.79	1730.53
181.01	1697.77
181.23	1839.08
181.45	1798.12
181.67	1714.15
181.90	1822.69
182.12	1681.38
182.34	1589.22
182.56	1744.87
182.78	1812.45
183.00	1710.05
183.22	1812.45
183.44	1621.99
183.66	1845.22
183.89	1816.55
184.11	1746.92
184.33	1738.73
184.55	1748.97
184.77	1740.77
184.99	1730.53
185.21	1689.57
185.43	1806.31
185.65	1720.29
185.87	1705.96
186.10	1865.70
186.32	1937.38
186.54	1699.81
186.76	1710.05
186.98	1751.01
187.20	1673.19
187.42	1624.04
187.64	1738.73
187.86	1775.59
188.08	1691.62
188.30	1644.52
188.52	1677.29
188.75	1746.92
188.97	1783.78
189.19	1656.81
189.41	1607.66
189.63	1761.25
189.85	1710.05
190.07	1665.00
190.29	1605.61
190.51	1718.25
190.73	1669.09
190.95	1783.78
191.17	1748.97
191.39	1628.14
191.61	1652.71
191.84	1687.53
192.06	1648.61
192.28	1572.84
192.50	1951.71
192.72	1722.34
192.94	1710.05
193.16	1755.11
193.38	1765.35
193.60	1671.14
193.82	1638.38
194.04	1787.88
194.26	1734.63
194.48	1656.81
194.70	1667.05
194.92	1658.85
195.14	1742.82
195.36	1681.38
195.58	1765.35
195.80	1765.35
196.02	1697.77
196.24	1658.85
196.46	1710.05
196.69	1765.35
196.91	1871.84
197.13	1800.16
197.35	1667.05
197.57	1839.08
197.79	1714.15
198.01	1720.29
198.23	1824.74
198.45	1699.81
198.67	1763.30
198.89	1736.68
199.11	1695.72
199.33	1736.68
199.55	1646.57
199.77	1681.38
199.99	1773.54
200.21	1628.14
200.43	1644.52
200.65	1644.52
200.87	1611.75
201.09	1753.06
201.31	1744.87
201.53	1714.15
201.75	1648.61
201.97	1722.34
202.19	1609.70
202.41	1777.64
202.63	1832.93
202.85	1732.58
203.07	1742.82
203.29	1665.00
203.51	1673.19
203.73	1699.81
203.95	1906.66
204.17	1726.44
204.39	1787.88
204.61	1687.53
204.83	1699.81
205.05	1675.24
205.27	1716.20
205.49	1867.75
205.71	1712.10
205.93	1570.79
206.15	1673.19
206.37	1726.44
206.59	1720.29
206.81	1660.90
207.03	1642.47
207.25	1587.18
207.47	1683.43
207.69	1775.59
207.91	1767.40
208.13	1853.41
208.34	1703.91
208.56	1648.61
208.78	1665.00
209.00	1673.19
209.22	1718.25
209.44	1705.96
209.66	1650.66
209.88	1658.85
210.10	1656.81
210.32	1720.29
210.54	1781.73
210.76	1683.43
210.98	1763.30
211.20	1619.94
211.42	1748.97
211.64	1693.67
211.86	1779.68
212.08	1736.68
212.30	1714.15
212.52	1699.81
212.74	1722.34
212.96	1685.48
213.17	1779.68
213.39	1757.16
213.61	1773.54
213.83	1746.92
214.05	1685.48
214.27	1845.22
214.49	1681.38
214.71	1583.08
214.93	1789.92
215.15	1740.77
215.37	1777.64
215.59	1595.37
215.81	1845.22
216.03	1703.91
216.24	1785.83
216.46	1744.87
216.68	1765.35
216.90	1781.73
217.12	1808.36
217.34	1746.92
217.56	1806.31
217.78	1812.45
218.00	1751.01
218.22	1751.01
218.44	1732.58
218.66	1681.38
218.87	1830.88
219.09	1724.39
219.31	1673.19
219.53	1642.47
219.75	1689.57
219.97	1703.91
220.19	1757.16
220.41	1736.68
220.63	1748.97
220.85	1734.63
221.06	1644.52
221.28	1769.44
221.50	1789.92
221.72	1669.09
221.94	1624.04
222.16	1783.78
222.38	1687.53
222.60	1746.92
222.82	1708.01
223.03	1781.73
223.25	1671.14
223.47	1740.77
223.69	1798.12
223.91	1738.73
224.13	1710.05
224.35	1697.77
224.57	1736.68
224.78	1781.73
225.00	1595.37
225.22	1763.30
225.44	1699.81
225.66	1744.87
225.88	1650.66
226.10	1851.36
226.32	1777.64
226.53	1787.88
226.75	1712.10
226.97	1746.92
227.19	1732.58
227.41	1691.62
227.63	1636.33
227.85	1554.41
228.06	1714.15
228.28	1734.63
228.50	1755.11
228.72	1654.76
228.94	1619.94
229.16	1621.99
229.37	1583.08
229.59	1642.47
229.81	1814.50
230.03	1763.30
230.25	1695.72
230.47	1728.49
230.69	1599.46
230.90	1724.39
231.12	1689.57
231.34	1716.20
231.56	1726.44
231.78	1621.99
232.00	1742.82
232.21	1656.81
232.43	1654.76
232.65	1628.14
232.87	1699.81
233.09	1650.66
233.30	1712.10
233.52	1861.60
233.74	1759.21
233.96	1712.10
234.18	1710.05
234.40	1638.38
234.61	1824.74
234.83	1716.20
235.05	1677.29
235.27	1791.97
235.49	1761.25
235.70	1763.30
235.92	1705.96
236.14	1763.30
236.36	1894.37
236.58	1617.90
236.79	1730.53
237.01	1742.82
237.23	1722.34
237.45	1802.21
237.67	1658.85
237.88	1730.53
238.10	1818.60
238.32	1599.46
238.54	1644.52
238.76	1669.09
238.97	1705.96
239.19	1697.77
239.41	1746.92
239.63	1769.44
239.85	1732.58
240.06	1656.81
240.28	1746.92
240.50	1646.57
240.72	1689.57
240.93	1656.81
241.15	1824.74
241.37	1644.52
241.59	1847.27
241.81	1673.19
242.02	1732.58
242.24	1667.05
242.46	1748.97
242.68	1708.01
242.89	1738.73
243.11	1730.53
243.33	1726.44
243.55	1722.34
243.76	1720.29
243.98	1683.43
244.20	1736.68
244.42	1816.55
244.64	1667.05
244.85	1687.53
245.07	1687.53
245.29	1699.81
245.51	1712.10
245.72	1714.15
245.94	1687.53
246.16	1669.09
246.38	1849.32
246.59	1708.01
246.81	1656.81
247.03	1736.68
247.24	1589.22
247.46	1716.20
247.68	1695.72
247.90	1742.82
248.11	1712.10
248.33	1759.21
248.55	1658.85
248.77	1714.15
248.98	1744.87
249.20	1767.40
249.42	1691.62
249.64	1660.90
249.85	1691.62
250.07	1667.05
250.29	1773.54
250.50	1662.95
250.72	1693.67
250.94	1777.64
251.16	1851.36
251.37	1773.54
251.59	1839.08
251.81	1816.55
252.02	1798.12
252.24	1652.71
252.46	1753.06
252.68	1697.77
252.89	1656.81
253.11	1658.85
253.33	1791.97
253.54	1765.35
253.76	1665.00
253.98	1724.39
254.20	1595.37
254.41	1630.18
254.63	1730.53
254.85	1626.09
255.06	1746.92
255.28	1667.05
255.50	1658.85
255.71	1701.86
255.93	1589.22
256.15	1720.29
256.36	1763.30
256.58	1566.70
256.80	1714.15
257.02	1775.59
257.23	1697.77
257.45	1689.57
257.67	1787.88
257.88	1671.14
258.10	1720.29
258.32	1683.43
258.53	1675.24
258.75	1775.59
258.97	1693.67
259.18	1689.57
259.40	1705.96
259.62	1853.41
259.83	1775.59
260.05	1769.44
260.27	1953.76
260.48	1771.49
260.70	1652.71
260.92	1665.00
261.13	1722.34
261.35	1708.01
261.57	1787.88
261.78	1603.56
262.00	1691.62
262.22	1695.72
262.43	1667.05
262.65	1687.53
262.86	1736.68
263.08	1847.27
263.30	1710.05
263.51	1656.81
263.73	1665.00
263.95	1775.59
264.16	1665.00
264.38	1656.81
264.60	1769.44
264.81	1669.09
265.03	1773.54
265.25	1796.07
265.46	1710.05
265.68	1777.64
265.89	1763.30
266.11	1632.23
266.33	1742.82
266.54	1722.34
266.76	1761.25
266.98	1742.82
267.19	1822.69
267.41	1800.16
267.62	1634.28
267.84	1697.77
268.06	1660.90
268.27	1777.64
268.49	1781.73
268.70	1679.33
268.92	1730.53
269.14	1648.61
269.35	1634.28
269.57	1736.68
269.79	1755.11
270.00	1665.00
270.22	1798.12
270.43	1671.14
270.65	1509.35
270.87	1742.82
271.08	1763.30
271.30	1742.82
271.51	1722.34
271.73	1783.78
271.95	1712.10
272.16	1687.53
272.38	1701.86
272.59	1716.20
272.81	1728.49
273.02	1728.49
273.24	1779.68
273.46	1718.25
273.67	1630.18
273.89	1746.92
274.10	1722.34
274.32	1796.07
274.54	1753.06
274.75	1720.29
274.97	1710.05
275.18	1734.63
275.40	1703.91
275.61	1724.39
275.83	1650.66
276.05	1716.20
276.26	1689.57
276.48	1763.30
276.69	1652.71
276.91	1589.22
277.12	1828.84
277.34	1746.92
277.55	1796.07
277.77	1650.66
277.99	1658.85
278.20	1574.89
278.42	1621.99
278.63	1671.14
278.85	1718.25
279.06	1609.70
279.28	1708.01
279.49	1773.54
279.71	1732.58
279.93	1660.90
280.14	1732.58
280.36	1677.29
280.57	1767.40
280.79	1693.67
281.00	1712.10
281.22	1701.86
281.43	1785.83
281.65	1558.50
281.86	1703.91
282.08	1748.97
282.29	1853.41
282.51	1681.38
282.73	1714.15
282.94	1630.18
283.16	1644.52
283.37	1777.64
283.59	1701.86
283.80	1759.21
284.02	1693.67
284.23	1636.33
284.45	1658.85
284.66	1642.47
284.88	1601.51
285.09	1708.01
285.31	1783.78
285.52	1771.49
285.74	1615.85
285.95	1726.44
286.17	1740.77
286.38	1705.96
286.60	1673.19
286.81	1681.38
287.03	1746.92
287.24	1656.81
287.46	1753.06
287.67	1675.24
287.89	1783.78
288.10	1777.64
288.32	1751.01
288.53	1763.30
288.75	1732.58
288.96	1757.16
289.18	1615.85
289.39	1701.86
289.61	1765.35
289.82	1818.60
290.04	1839.08
290.25	1648.61
290.47	1687.53
290.68	1662.95
290.90	1871.84
291.11	1587.18
291.33	1779.68
291.54	1572.84
291.76	1738.73
291.97	1740.77
292.18	1765.35
292.40	1720.29
292.61	1718.25
292.83	1830.88
293.04	1650.66
293.26	1769.44
293.47	1646.57
293.69	1693.67
293.90	1689.57
294.12	1769.44
294.33	1701.86
294.55	1693.67
294.76	1802.21
294.97	1767.40
295.19	1875.94
295.40	1693.67
295.62	1730.53
295.83	1812.45
296.05	1605.61
296.26	1796.07
296.48	1708.01
296.69	1691.62
296.90	1669.09
297.12	1779.68
297.33	1816.55
297.55	1761.25
297.76	1710.05
297.98	1779.68
298.19	1689.57
298.41	1748.97
298.62	1660.90
298.83	1810.40
299.05	1744.87
299.26	1679.33
299.48	1630.18
299.69	1751.01
299.90	1669.09
300.12	1601.51
300.33	1720.29
300.55	1785.83
300.76	1751.01
300.98	1613.80
301.19	1734.63
301.40	1738.73
301.62	1753.06
301.83	1785.83
302.05	1710.05
302.26	1804.26
302.47	1730.53
302.69	1595.37
302.90	1718.25
303.12	1669.09
303.33	1681.38
303.54	1929.19
303.76	1693.67
303.97	1800.16
304.19	1740.77
304.40	1759.21
304.61	1732.58
304.83	1857.51
305.04	1808.36
305.26	1736.68
305.47	1705.96
305.68	1703.91
305.90	1626.09
306.11	1832.93
306.33	1734.63
306.54	1732.58
306.75	1671.14
306.97	1630.18
307.18	1646.57
307.39	1689.57
307.61	1824.74
307.82	1708.01
308.04	1714.15
308.25	1701.86
308.46	1748.97
308.68	1705.96
308.89	1626.09
309.10	1744.87
309.32	1724.39
309.53	1748.97
309.74	1746.92
309.96	1669.09
310.17	1798.12
310.39	1632.23
310.60	1759.21
310.81	1726.44
311.03	1609.70
311.24	1794.02
311.45	1738.73
311.67	1867.75
311.88	1742.82
312.09	1716.20
312.31	1693.67
312.52	1705.96
312.73	1683.43
312.95	1542.12
313.16	1652.71
313.37	1785.83
313.59	1722.34
313.80	1783.78
314.01	1794.02
314.23	1613.80
314.44	1689.57
314.65	1728.49
314.87	1738.73
315.08	1646.57
315.29	1697.77
315.51	1679.33
315.72	1669.09
315.93	1814.50
316.15	1718.25
316.36	1757.16
316.57	1677.29
316.79	1791.97
317.00	1751.01
317.21	1718.25
317.43	1685.48
317.64	1689.57
317.85	1673.19
318.07	1644.52
318.28	1744.87
318.49	1808.36
318.70	1920.99
318.92	1841.12
319.13	1740.77
319.34	1970.15
319.56	1853.41
319.77	1861.60
319.98	1769.44
320.20	1806.31
320.41	1794.02
320.62	1755.11
320.83	1724.39
321.05	1839.08
321.26	1699.81
321.47	1728.49
321.69	1771.49
321.90	1736.68
322.11	1800.16
322.32	1808.36
322.54	1814.50
322.75	1662.95
322.96	1834.98
323.18	1642.47
323.39	1646.57
323.60	1712.10
323.81	1728.49
324.03	1718.25
324.24	1665.00
324.45	1648.61
324.66	1708.01
324.88	1814.50
325.09	1783.78
325.30	1748.97
325.52	1785.83
325.73	1748.97
325.94	1710.05
326.15	1675.24
326.37	1759.21
326.58	1744.87
326.79	1765.35
327.00	1630.18
327.22	1691.62
327.43	1738.73
327.64	1648.61
327.85	1669.09
328.07	1665.00
328.28	1794.02
328.49	1624.04
328.70	1703.91
328.92	1740.77
329.13	1832.93
329.34	1746.92
329.55	1839.08
329.76	1791.97
329.98	1738.73
330.19	1771.49
330.40	1710.05
330.61	1775.59
330.83	1775.59
331.04	1656.81
331.25	1748.97
331.46	1761.25
331.68	1630.18
331.89	1773.54
332.10	1767.40
332.31	1634.28
332.52	1665.00
332.74	1755.11
332.95	1710.05
333.16	1656.81
333.37	1634.28
333.58	1689.57
333.80	1734.63
334.01	1624.04
334.22	1660.90
334.43	1605.61
334.64	1759.21
334.86	1673.19
335.07	1685.48
335.28	1785.83
335.49	1648.61
335.70	1802.21
335.92	1724.39
336.13	1796.07
336.34	1734.63
336.55	1697.77
336.76	1673.19
336.98	1609.70
337.19	1732.58
337.40	1871.84
337.61	1855.46
337.82	1640.42
338.04	1753.06
338.25	1632.23
338.46	1732.58
338.67	1673.19
338.88	1656.81
339.09	1693.67
339.31	1673.19
339.52	1656.81
339.73	1634.28
339.94	1751.01
340.15	1841.12
340.36	1640.42
340.58	1755.11
340.79	1689.57
341.00	1763.30
341.21	1615.85
341.42	1839.08
341.63	1718.25
341.85	1796.07
342.06	1751.01
342.27	1636.33
342.48	1808.36
342.69	1742.82
342.90	1775.59
343.12	1796.07
343.33	1705.96
343.54	1771.49
343.75	1765.35
343.96	1759.21
344.17	1751.01
344.38	1675.24
344.60	1603.56
344.81	1732.58
345.02	1734.63
345.23	1791.97
345.44	1789.92
345.65	1738.73
345.86	1710.05
346.07	1716.20
346.29	1681.38
346.50	1654.76
346.71	1744.87
346.92	1812.45
347.13	1822.69
347.34	1755.11
347.55	1652.71
347.76	1767.40
347.98	1591.27
348.19	1630.18
348.40	1808.36
348.61	1757.16
348.82	1806.31
349.03	1761.25
349.24	1673.19
349.45	1824.74
349.66	1626.09
349.88	1791.97
350.09	1601.51
350.30	1787.88
350.51	1781.73
350.72	1716.20
350.93	1722.34
351.14	1617.90
351.35	1755.11
351.56	1675.24
351.77	1697.77
351.99	1693.67
352.20	1826.79
352.41	1781.73
352.62	1626.09
352.83	1726.44
353.04	1697.77
353.25	1703.91
353.46	1822.69
353.67	1716.20
353.88	1601.51
354.09	1800.16
354.30	1763.30
354.52	1755.11
354.73	1697.77
354.94	1679.33
355.15	1744.87
355.36	1720.29
355.57	1691.62
355.78	1767.40
355.99	1701.86
356.20	1662.95
356.41	1757.16
356.62	1744.87
356.83	1720.29
357.04	1816.55
357.25	1687.53
357.46	1683.43
357.68	1572.84
357.89	1722.34
358.10	1710.05
358.31	1753.06
358.52	1677.29
358.73	1564.65
358.94	1660.90
359.15	1714.15
359.36	1789.92
359.57	1800.16
359.78	1718.25
359.99	1765.35
360.20	1630.18
360.41	1757.16
360.62	1736.68
360.83	1742.82
361.04	1679.33
361.25	1744.87
361.46	1802.21
361.67	1800.16
361.88	1763.30
362.09	1763.30
362.30	1736.68
362.51	1732.58
362.72	1771.49
362.93	1753.06
363.14	1830.88
363.35	1673.19
363.56	1652.71
363.78	1712.10
363.99	1804.26
364.20	1630.18
364.41	1695.72
364.62	1824.74
364.83	1710.05
365.04	1667.05
365.25	1722.34
365.46	1767.40
365.67	1669.09
365.88	1628.14
366.09	1726.44
366.30	1689.57
366.51	1658.85
366.72	1619.94
366.93	1683.43
367.14	1683.43
367.35	1767.40
367.56	1716.20
367.77	1775.59
367.98	1757.16
368.18	1673.19
368.39	1748.97
368.60	1640.42
368.81	1712.10
369.02	1689.57
369.23	1744.87
369.44	1658.85
369.65	1658.85
369.86	1767.40
370.07	1746.92
370.28	1751.01
370.49	1812.45
370.70	1826.79
370.91	1630.18
371.12	1665.00
371.33	1804.26
371.54	1648.61
371.75	1771.49
371.96	1593.32
372.17	1712.10
372.38	1681.38
372.59	1779.68
372.80	1697.77
373.01	1804.26
373.22	1730.53
373.43	1718.25
373.64	1650.66
373.85	1755.11
374.06	1845.22
374.26	1710.05
374.47	1726.44
374.68	1751.01
374.89	1691.62
375.10	1667.05
375.31	1779.68
375.52	1744.87
375.73	1691.62
375.94	1675.24
376.15	1765.35
376.36	1632.23
376.57	1624.04
376.78	1656.81
376.99	1736.68
377.20	1773.54
377.40	1679.33
377.61	1834.98
377.82	1652.71
378.03	1798.12
378.24	1796.07
378.45	1806.31
378.66	1730.53
378.87	1685.48
379.08	1632.23
379.29	1691.62
379.50	1718.25
379.71	1718.25
379.91	1763.30
380.12	1687.53
380.33	1697.77
380.54	1681.38
380.75	1640.42
380.96	1824.74
381.17	1728.49
381.38	1712.10
381.59	1777.64
381.80	1781.73
382.00	1853.41
382.21	1763.30
382.42	1855.46
382.63	1894.37
382.84	1781.73
383.05	1826.79
383.26	1783.78
383.47	1775.59
383.68	1771.49
383.88	1804.26
384.09	1751.01
384.30	1814.50
384.51	1775.59
384.72	1730.53
384.93	1648.61
385.14	1734.63
385.35	1851.36
385.55	1611.75
385.76	1783.78
385.97	1621.99
386.18	1714.15
386.39	1701.86
386.60	1722.34
386.81	1755.11
387.02	1611.75
387.22	1646.57
387.43	1845.22
387.64	1826.79
387.85	1920.99
388.06	2174.94
388.27	4171.71
388.48	6797.21
388.68	8107.91
388.89	9586.54
389.10	9518.96
389.31	8550.27
389.52	7370.64
389.73	6623.13
389.93	6096.80
390.14	5789.61
390.35	5144.50
390.56	4558.78
390.77	3794.89
390.98	3028.95
391.18	2521.05
391.39	2179.04
391.60	1822.69
391.81	1814.50
392.02	1746.92
392.23	1869.80
392.43	1691.62
392.64	1832.93
392.85	1742.82
393.06	1828.84
393.27	1683.43
393.47	1662.95
393.68	1755.11
393.89	1773.54
394.10	1777.64
394.31	1671.14
394.52	1685.48
394.72	1671.14
394.93	1847.27
395.14	1617.90
395.35	1796.07
395.56	1689.57
395.76	1748.97
395.97	1826.79
396.18	1894.37
396.39	1843.17
396.60	2107.36
396.80	1853.41
397.01	1832.93
397.22	1785.83
397.43	1857.51
397.64	1744.87
397.84	1796.07
398.05	1824.74
398.26	1812.45
398.47	1751.01
398.67	1771.49
398.88	1738.73
399.09	1769.44
399.30	1681.38
399.51	1775.59
399.71	1681.38
399.92	1779.68
400.13	1789.92
400.34	1748.97
400.54	1726.44
400.75	1837.03
400.96	1742.82
401.17	1791.97
401.37	1751.01
401.58	1714.15
401.79	1746.92
402.00	1867.75
402.21	2086.88
402.41	1970.15
402.62	2019.30
402.83	2050.02
403.04	2060.26
403.24	2162.66
403.45	1804.26
403.66	1851.36
403.87	1828.84
404.07	1964.00
404.28	1980.39
404.49	1839.08
404.70	1806.31
404.90	1847.27
405.11	1781.73
405.32	1708.01
405.52	1701.86
405.73	1722.34
405.94	1710.05
406.15	1755.11
406.35	1742.82
406.56	1855.46
406.77	1746.92
406.98	1724.39
407.18	1691.62
407.39	1724.39
407.60	1726.44
407.80	1779.68
408.01	1763.30
408.22	1736.68
408.43	1611.75
408.63	1714.15
408.84	1765.35
409.05	1794.02
409.25	1705.96
409.46	1724.39
409.67	1683.43
409.88	1701.86
410.08	1724.39
410.29	1687.53
410.50	1769.44
410.70	1697.77
410.91	1675.24
411.12	1744.87
411.32	1648.61
411.53	1679.33
411.74	1787.88
411.95	1796.07
412.15	1761.25
412.36	1742.82
412.57	1857.51
412.77	1814.50
412.98	1759.21
413.19	1765.35
413.39	1734.63
413.60	1740.77
413.81	1761.25
414.01	1652.71
414.22	1777.64
414.43	1736.68
414.63	1763.30
414.84	1738.73
415.05	1669.09
415.25	1646.57
415.46	1744.87
415.67	1691.62
415.87	1783.78
416.08	1675.24
416.29	1685.48
416.49	1791.97
416.70	1675.24
416.91	1691.62
417.11	1761.25
417.32	1789.92
417.53	1730.53
417.73	1660.90
417.94	1746.92
418.15	1724.39
418.35	1669.09
418.56	1693.67
418.77	1865.70
418.97	1691.62
419.18	1746.92
419.38	1648.61
419.59	1681.38
419.80	1818.60
420.00	1701.86
420.21	1736.68
420.42	1812.45
420.62	1773.54
420.83	1671.14
421.04	1740.77
421.24	1667.05
421.45	1736.68
421.65	1703.91
421.86	1679.33
422.07	1785.83
422.27	1804.26
422.48	1710.05
422.69	1701.86
422.89	1730.53
423.10	1710.05
423.30	1605.61
423.51	1742.82
423.72	1681.38
423.92	1755.11
424.13	1701.86
424.33	1753.06
424.54	1773.54
424.75	1726.44
424.95	1798.12
425.16	1767.40
425.36	1712.10
425.57	1734.63
425.78	1800.16
425.98	1791.97
426.19	1773.54
426.39	1705.96
426.60	1689.57
426.81	1818.60
427.01	1734.63
427.22	1673.19
427.42	1667.05
427.63	1550.31
427.83	1761.25
428.04	1779.68
428.25	1877.99
428.45	1804.26
428.66	1748.97
428.86	1693.67
429.07	1701.86
429.28	1773.54
429.48	1734.63
429.69	1574.89
429.89	1724.39
430.10	1681.38
430.30	1834.98
430.51	1730.53
430.71	1720.29
430.92	1757.16
431.13	1720.29
431.33	1791.97
431.54	1712.10
431.74	1816.55
431.95	1843.17
432.15	1640.42
432.36	1708.01
432.56	1853.41
432.77	1832.93
432.98	1820.64
433.18	1800.16
433.39	1746.92
433.59	1689.57
433.80	1804.26
434.00	1892.32
434.21	1734.63
434.41	1701.86
434.62	1882.08
434.82	1665.00
435.03	1685.48
435.23	1658.85
435.44	1578.98
435.64	1669.09
435.85	1740.77
436.06	1738.73
436.26	1703.91
436.47	1701.86
436.67	1718.25
436.88	1738.73
437.08	1816.55
437.29	1830.88
437.49	1753.06
437.70	1773.54
437.90	1689.57
438.11	1855.46
438.31	1761.25
438.52	1830.88
438.72	1812.45
438.93	1902.56
439.13	1779.68
439.34	1798.12
439.54	1746.92
439.75	1738.73
439.95	1822.69
440.16	1742.82
440.36	1781.73
440.57	1783.78
440.77	1722.34
440.98	1732.58
441.18	1787.88
441.39	1730.53
441.59	1650.66
441.80	1820.64
442.00	1708.01
442.21	1880.04
442.41	1699.81
442.62	1775.59
442.82	1671.14
443.02	1783.78
443.23	1728.49
443.43	1738.73
443.64	1753.06
443.84	1763.30
444.05	1837.03
444.25	1781.73
444.46	1740.77
444.66	1767.40
444.87	1818.60
445.07	1671.14
445.28	1699.81
445.48	1779.68
445.69	1757.16
445.89	1871.84
446.09	1775.59
446.30	2103.26
446.50	2686.94
446.71	3841.99
446.91	4296.64
447.12	4622.27
447.32	4794.29
447.53	4300.73
447.73	3895.24
447.93	3499.98
448.14	3336.14
448.34	3284.94
448.55	2865.11
448.75	2856.92
448.96	2639.83
449.16	2439.13
449.36	2306.01
449.57	1996.77
449.77	1937.38
449.98	1787.88
450.18	1816.55
450.39	1855.46
450.59	1804.26
450.79	1683.43
451.00	1689.57
451.20	1755.11
451.41	1738.73
451.61	1738.73
451.81	1810.40
452.02	1718.25
452.22	1751.01
452.43	1769.44
452.63	1746.92
452.84	1665.00
453.04	1738.73
453.24	1718.25
453.45	1695.72
453.65	1765.35
453.86	1775.59
454.06	1771.49
454.26	1783.78
454.47	1703.91
454.67	1839.08
454.87	1701.86
455.08	1755.11
455.28	1849.32
455.49	1804.26
455.69	1681.38
455.89	1877.99
456.10	1744.87
456.30	1701.86
456.51	1832.93
456.71	1755.11
456.91	1773.54
457.12	1712.10
457.32	1757.16
457.52	1632.23
457.73	1806.31
457.93	1755.11
458.14	1773.54
458.34	1667.05
458.54	1757.16
458.75	1691.62
458.95	1761.25
459.15	1781.73
459.36	1718.25
459.56	1720.29
459.76	1951.71
459.97	1642.47
460.17	1746.92
460.37	1779.68
460.58	1748.97
460.78	1724.39
460.99	1722.34
461.19	1744.87
461.39	1675.24
461.60	1714.15
461.80	1810.40
462.00	1667.05
462.21	1783.78
462.41	1689.57
462.61	1703.91
462.82	1671.14
463.02	1730.53
463.22	1794.02
463.43	1816.55
463.63	1773.54
463.83	1810.40
464.04	1779.68
464.24	1703.91
464.44	1718.25
464.64	1753.06
464.85	1826.79
465.05	1779.68
465.25	1740.77
465.46	1740.77
465.66	1796.07
465.86	1701.86
466.07	1763.30
466.27	1734.63
466.47	1685.48
466.68	1615.85
466.88	1806.31
467.08	1779.68
467.29	1853.41
467.49	1828.84
467.69	1728.49
467.89	1810.40
468.10	1671.14
468.30	1787.88
468.50	1804.26
468.71	1742.82
468.91	1658.85
469.11	1851.36
469.31	1691.62
469.52	1650.66
469.72	1849.32
469.92	1869.80
470.13	1759.21
470.33	1724.39
470.53	1775.59
470.73	2107.36
470.94	2338.78
471.14	2326.49
471.34	2533.34
471.54	2463.71
471.75	2222.05
471.95	2107.36
472.15	2086.88
472.36	2043.87
472.56	1998.82
472.76	1986.53
472.96	2095.07
473.17	1990.63
473.37	1951.71
473.57	1802.21
473.77	1822.69
473.98	1771.49
474.18	1718.25
474.38	1953.76
474.58	1687.53
474.79	1669.09
474.99	1804.26
475.19	1744.87
475.39	1662.95
475.60	1779.68
475.80	1722.34
476.00	1712.10
476.20	1681.38
476.41	1781.73
476.61	1705.96
476.81	1783.78
477.01	1640.42
477.21	1791.97
477.42	1828.84
477.62	1595.37
477.82	1808.36
478.02	1703.91
478.23	1734.63
478.43	1726.44
478.63	1710.05
478.83	1732.58
479.03	1665.00
479.24	1703.91
479.44	1853.41
479.64	1605.61
479.84	1650.66
480.04	1658.85
480.25	1796.07
480.45	1660.90
480.65	1738.73
480.85	1824.74
481.06	1638.38
481.26	1714.15
481.46	1834.98
481.66	1667.05
481.86	1708.01
482.06	1849.32
482.27	1656.81
482.47	1703.91
482.67	1726.44
482.87	1691.62
483.07	1796.07
483.28	1677.29
483.48	1662.95
483.68	1771.49
483.88	1650.66
484.08	1634.28
484.29	1695.72
484.49	1724.39
484.69	1724.39
484.89	1839.08
485.09	1818.60
485.29	1755.11
485.50	1736.68
485.70	1648.61
485.90	1787.88
486.10	1832.93
486.30	1691.62
486.50	1759.21
486.71	1775.59
486.91	1738.73
487.11	1816.55
487.31	1630.18
487.51	1691.62
487.71	1710.05
487.91	1697.77
488.12	1751.01
488.32	1628.14
488.52	1665.00
488.72	1628.14
488.92	1759.21
489.12	1787.88
489.32	1777.64
489.53	1814.50
489.73	1636.33
489.93	1824.74
490.13	1757.16
490.33	1626.09
490.53	1693.67
490.73	1761.25
490.94	1677.29
491.14	1814.50
491.34	1816.55
491.54	2172.89
491.74	2553.82
491.94	2916.31
492.14	3018.71
492.34	3006.42
492.54	2801.62
492.75	2461.66
492.95	2529.24
493.15	2308.06
493.35	2363.36
493.55	2240.48
493.75	2146.27
493.95	2090.98
494.15	2090.98
494.35	1920.99
494.56	1767.40
494.76	1755.11
494.96	1767.40
495.16	1798.12
495.36	1783.78
495.56	1763.30
495.76	1718.25
495.96	1744.87
496.16	1662.95
496.36	1851.36
496.56	1763.30
496.77	1818.60
496.97	1763.30
497.17	1861.60
497.37	1619.94
497.57	1755.11
497.77	1701.86
497.97	1665.00
498.17	1746.92
498.37	1742.82
498.57	1767.40
498.77	1646.57
498.97	1818.60
499.17	1834.98
499.38	1759.21
499.58	1734.63
499.78	1748.97
499.98	1806.31
500.18	1705.96
500.38	1800.16
500.58	1902.56
500.78	2492.38
500.98	4521.92
501.18	5781.42
501.38	6659.99
501.58	7008.15
501.78	6690.71
501.98	5437.36
502.18	4949.94
502.38	4353.98
502.58	4192.19
502.78	3735.50
502.98	3661.77
503.18	3426.25
503.38	3063.76
503.59	2791.38
503.79	2688.98
503.99	2451.42
504.19	2299.87
504.39	2224.09
504.59	2205.66
504.79	2164.70
504.99	2115.55
505.19	1953.76
505.39	1904.61
505.59	1992.67
505.79	1906.66
505.99	1863.65
506.19	1740.77
506.39	1873.89
506.59	1818.60
506.79	1753.06
506.99	1832.93
507.19	1775.59
507.39	1730.53
507.59	1736.68
507.79	1730.53
507.99	1662.95
508.19	1742.82
508.39	1736.68
508.59	1724.39
508.79	1810.40
508.99	1912.80
509.19	1693.67
509.39	1796.07
509.59	1730.53
509.79	1669.09
509.99	1777.64
510.19	1810.40
510.39	1763.30
510.59	1837.03
510.79	1716.20
510.99	1681.38
511.19	1761.25
511.39	1789.92
511.59	1808.36
511.79	1834.98
511.99	1746.92
512.19	1853.41
512.38	1845.22
512.58	1685.48
512.78	1759.21
512.98	1787.88
513.18	1867.75
513.38	1624.04
513.58	1832.93
513.78	1769.44
513.98	1757.16
514.18	1722.34
514.38	1701.86
514.58	1855.46
514.78	1738.73
514.98	1673.19
515.18	1714.15
515.38	1621.99
515.58	1877.99
515.78	1730.53
515.98	1738.73
516.18	1744.87
516.38	1775.59
516.57	1718.25
516.77	1722.34
516.97	1779.68
517.17	1740.77
517.37	1585.13
517.57	1787.88
517.77	1751.01
517.97	1763.30
518.17	1800.16
518.37	1740.77
518.57	1763.30
518.77	1685.48
518.97	1751.01
519.16	1773.54
519.36	1775.59
519.56	1640.42
519.76	1716.20
519.96	1800.16
520.16	1769.44
520.36	1619.94
520.56	1775.59
520.76	1734.63
520.96	1802.21
521.16	1798.12
521.35	1822.69
521.55	1738.73
521.75	1716.20
521.95	1751.01
522.15	1714.15
522.35	1640.42
522.55	1726.44
522.75	1783.78
522.95	1714.15
523.14	1744.87
523.34	1779.68
523.54	1767.40
523.74	1841.12
523.94	1763.30
524.14	1611.75
524.34	1767.40
524.54	1832.93
524.73	1705.96
524.93	1839.08
525.13	1697.77
525.33	1675.24
525.53	1941.47
525.73	1816.55
525.93	1781.73
526.13	1632.23
526.32	1687.53
526.52	1789.92
526.72	1705.96
526.92	1785.83
527.12	1775.59
527.32	1650.66
527.52	1767.40
527.71	1767.40
527.91	1685.48
528.11	1685.48
528.31	1732.58
528.51	1712.10
528.71	1740.77
528.90	1773.54
529.10	1787.88
529.30	1744.87
529.50	1654.76
529.70	1761.25
529.90	1718.25
530.09	1720.29
530.29	1703.91
530.49	1681.38
530.69	1806.31
530.89	1673.19
531.09	1738.73
531.28	1791.97
531.48	1818.60
531.68	1697.77
531.88	1789.92
532.08	1832.93
532.28	1699.81
532.47	1777.64
532.67	1763.30
532.87	1720.29
533.07	1708.01
533.27	1742.82
533.46	1822.69
533.66	1785.83
533.86	1742.82
534.06	1697.77
534.26	1806.31
534.45	1775.59
534.65	1755.11
534.85	1724.39
535.05	1652.71
535.25	1789.92
535.44	1605.61
535.64	1769.44
535.84	1685.48
536.04	1679.33
536.24	1712.10
536.43	1738.73
536.63	1783.78
536.83	1751.01
537.03	1771.49
537.22	1687.53
537.42	1701.86
537.62	1814.50
537.82	1742.82
538.02	1847.27
538.21	1781.73
538.41	1933.28
538.61	1767.40
538.81	1751.01
539.00	1822.69
539.20	1734.63
539.40	1746.92
539.60	1779.68
539.79	1736.68
539.99	1685.48
540.19	1669.09
540.39	1841.12
540.58	1769.44
540.78	1804.26
540.98	1820.64
541.18	1738.73
541.37	1763.30
541.57	1783.78
541.77	1841.12
541.97	1660.90
542.16	1726.44
542.36	1701.86
542.56	1648.61
542.76	1910.75
542.95	1773.54
543.15	1724.39
543.35	1777.64
543.54	1714.15
543.74	1662.95
543.94	1775.59
544.14	1671.14
544.33	1755.11
544.53	1699.81
544.73	1773.54
544.93	1708.01
545.12	1701.86
545.32	1755.11
545.52	1705.96
545.71	1683.43
545.91	1656.81
546.11	1718.25
546.30	1714.15
546.50	1755.11
546.70	1810.40
546.90	1800.16
547.09	1701.86
547.29	1720.29
547.49	1783.78
547.68	1738.73
547.88	1697.77
548.08	1759.21
548.27	2189.28
548.47	1755.11
548.67	1740.77
548.87	1720.29
549.06	1705.96
549.26	1755.11
549.46	1730.53
549.65	1736.68
549.85	1812.45
550.05	1689.57
550.24	1724.39
550.44	1779.68
550.64	1798.12
550.83	1808.36
551.03	1810.40
551.23	1771.49
551.42	1769.44
551.62	1787.88
551.82	1824.74
552.01	1708.01
552.21	1791.97
552.41	1794.02
552.60	1781.73
552.80	1742.82
553.00	1695.72
553.19	1828.84
553.39	1800.16
553.59	1699.81
553.78	1853.41
553.98	1734.63
554.17	1703.91
554.37	1759.21
554.57	1843.17
554.76	1599.46
554.96	1687.53
555.16	1691.62
555.35	1775.59
555.55	1724.39
555.75	1763.30
555.94	1759.21
556.14	1626.09
556.33	1806.31
556.53	1738.73
556.73	1724.39
556.92	1796.07
557.12	1826.79
557.32	1787.88
557.51	1812.45
557.71	1857.51
557.90	1804.26
558.10	1802.21
558.30	1755.11
558.49	1798.12
558.69	1791.97
558.88	1779.68
559.08	1761.25
559.28	1734.63
559.47	1783.78
559.67	1748.97
559.86	1894.37
560.06	1720.29
560.26	1712.10
560.45	1824.74
560.65	1730.53
560.84	1863.65
561.04	1746.92
561.24	1724.39
561.43	1714.15
561.63	1824.74
561.82	1746.92
562.02	1806.31
562.22	1736.68
562.41	1671.14
562.61	1746.92
562.80	1748.97
563.00	1902.56
563.19	1701.86
563.39	1689.57
563.59	1763.30
563.78	1714.15
563.98	1644.52
564.17	1757.16
564.37	1646.57
564.56	1677.29
564.76	1681.38
564.96	1804.26
565.15	1763.30
565.35	1882.08
565.54	1787.88
565.74	1718.25
565.93	1748.97
566.13	1710.05
566.32	1787.88
566.52	1789.92
566.71	1773.54
566.91	1841.12
567.11	1781.73
567.30	1714.15
567.50	1775.59
567.69	1730.53
567.89	1775.59
568.08	1734.63
568.28	1800.16
568.47	1689.57
568.67	1734.63
568.86	1755.11
569.06	1818.60
569.25	1761.25
569.45	1761.25
569.64	1740.77
569.84	1714.15
570.04	1736.68
570.23	1683.43
570.43	1708.01
570.62	1722.34
570.82	1837.03
571.01	1689.57
571.21	1763.30
571.40	1642.47
571.60	1843.17
571.79	1757.16
571.99	1751.01
572.18	1746.92
572.38	1800.16
572.57	1720.29
572.77	1869.80
572.96	1841.12
573.16	1853.41
573.35	1818.60
573.55	1806.31
573.74	1767.40
573.94	1683.43
574.13	1769.44
574.33	1755.11
574.52	1812.45
574.71	1691.62
574.91	1787.88
575.10	1722.34
575.30	1652.71
575.49	1755.11
575.69	1705.96
575.88	1734.63
576.08	1779.68
576.27	1794.02
576.47	1716.20
576.66	1902.56
576.86	1857.51
577.05	1796.07
577.25	1841.12
577.44	1865.70
577.64	1732.58
577.83	1796.07
578.02	1748.97
578.22	1853.41
578.41	1888.23
578.61	1710.05
578.80	1697.77
579.00	1845.22
579.19	1765.35
579.39	1820.64
579.58	1781.73
579.77	1710.05
579.97	1849.32
580.16	1851.36
580.36	1808.36
580.55	1783.78
580.75	1794.02
580.94	1794.02
581.13	1742.82
581.33	1941.47
581.52	1732.58
581.72	1849.32
581.91	1892.32
582.11	1726.44
582.30	1867.75
582.49	1804.26
582.69	1886.18
582.88	1820.64
583.08	1789.92
583.27	1773.54
583.47	1802.21
583.66	1794.02
583.85	1726.44
584.05	1732.58
584.24	1767.40
584.44	1771.49
584.63	1865.70
584.82	1734.63
585.02	1845.22
585.21	1873.89
585.41	1861.60
585.60	1812.45
585.79	1945.57
585.99	1951.71
586.18	1849.32
586.37	2205.66
586.57	3338.19
586.76	9914.22
586.96	24368.78
587.15	33807.87
587.34	39939.49
587.54	41667.97
587.73	36021.72
587.93	25962.10
588.12	21534.39
588.31	17925.87
588.51	16097.03
588.70	15128.35
588.89	13780.78
589.09	12281.67
589.28	10757.98
589.47	9170.80
589.67	7907.21
589.86	6295.46
590.06	4880.31
590.25	3784.65
590.44	3149.78
590.64	2609.11
590.83	2318.30
591.02	2082.78
591.22	1982.43
591.41	1943.52
591.60	1818.60
591.80	1959.91
591.99	1748.97
592.18	1808.36
592.38	1859.56
592.57	1822.69
592.76	1839.08
592.96	1796.07
593.15	1734.63
593.34	1814.50
593.54	1728.49
593.73	1845.22
593.92	1779.68
594.12	1773.54
594.31	1742.82
594.50	1802.21
594.70	1783.78
594.89	1894.37
595.08	1705.96
595.28	1834.98
595.47	1994.72
595.66	1849.32
595.86	1652.71
596.05	1734.63
596.24	1718.25
596.43	1822.69
596.63	1822.69
596.82	1732.58
597.01	1697.77
597.21	1791.97
597.40	1742.82
597.59	1734.63
597.79	1732.58
597.98	1740.77
598.17	1746.92
598.36	1794.02
598.56	1734.63
598.75	1712.10
598.94	1769.44
599.14	1771.49
599.33	1710.05
599.52	1853.41
599.71	1787.88
599.91	1798.12
600.10	1712.10
600.29	1732.58
600.48	1816.55
600.68	1847.27
600.87	1771.49
601.06	1755.11
601.26	1744.87
601.45	1720.29
601.64	1826.79
601.83	1826.79
602.03	1746.92
602.22	1677.29
602.41	1748.97
602.60	1890.28
602.80	1824.74
602.99	1791.97
603.18	1761.25
603.37	1691.62
603.57	1789.92
603.76	1820.64
603.95	1839.08
604.14	1732.58
604.34	1738.73
604.53	1753.06
604.72	1787.88
604.91	1701.86
605.10	1740.77
605.30	1644.52
605.49	1804.26
605.68	1800.16
605.87	1755.11
606.07	1720.29
606.26	1755.11
606.45	1771.49
606.64	1753.06
606.84	1683.43
607.03	1718.25
607.22	1734.63
607.41	1748.97
607.60	1693.67
607.80	1859.56
607.99	1736.68
608.18	1771.49
608.37	1740.77
608.56	1746.92
608.76	1779.68
608.95	1767.40
609.14	1710.05
609.33	1773.54
609.52	1789.92
609.72	1712.10
609.91	1785.83
610.10	1783.78
610.29	1871.84
610.48	1855.46
610.68	1757.16
610.87	1683.43
611.06	1798.12
611.25	1708.01
611.44	1837.03
611.63	1705.96
611.83	1714.15
612.02	1656.81
612.21	1771.49
612.40	1689.57
612.59	1617.90
612.79	1673.19
612.98	1681.38
613.17	1855.46
613.36	1689.57
613.55	1841.12
613.74	1673.19
613.93	1802.21
614.13	1757.16
614.32	1691.62
614.51	1816.55
614.70	1724.39
614.89	1673.19
615.08	1791.97
615.28	2109.41
615.47	1712.10
615.66	1736.68
615.85	1660.90
616.04	1783.78
616.23	1687.53
616.42	1730.53
616.62	1722.34
616.81	1781.73
617.00	1773.54
617.19	1726.44
617.38	1716.20
617.57	1814.50
617.76	1742.82
617.95	1746.92
618.15	1720.29
618.34	1877.99
618.53	1628.14
618.72	1806.31
618.91	1794.02
619.10	1826.79
619.29	1763.30
619.48	1689.57
619.68	1722.34
619.87	1730.53
620.06	1687.53
620.25	1767.40
620.44	1714.15
620.63	1738.73
620.82	1746.92
621.01	1730.53
621.20	1726.44
621.39	1748.97
621.59	1705.96
621.78	1699.81
621.97	1705.96
622.16	1800.16
622.35	1796.07
622.54	1726.44
622.73	1748.97
622.92	1632.23
623.11	1855.46
623.30	1734.63
623.49	1798.12
623.68	1710.05
623.88	1861.60
624.07	1677.29
624.26	1761.25
624.45	1697.77
624.64	1722.34
624.83	1783.78
625.02	1753.06
625.21	1724.39
625.40	1734.63
625.59	1789.92
625.78	1705.96
625.97	1826.79
626.16	1714.15
626.35	1830.88
626.54	1718.25
626.74	1855.46
626.93	1708.01
627.12	1734.63
627.31	1775.59
627.50	1757.16
627.69	1742.82
627.88	1683.43
628.07	1632.23
628.26	1669.09
628.45	1796.07
628.64	1689.57
628.83	1746.92
629.02	1769.44
629.21	1773.54
629.40	1675.24
629.59	1638.38
629.78	1779.68
629.97	1705.96
630.16	1753.06
630.35	1712.10
630.54	1714.15
630.73	1732.58
630.92	1703.91
631.11	1812.45
631.30	1783.78
631.49	1693.67
631.68	1734.63
631.87	1800.16
632.06	1632.23
632.25	1947.62
632.44	1804.26
632.63	1626.09
632.82	1609.70
633.01	1632.23
633.20	1710.05
633.39	1681.38
633.58	1640.42
633.77	1765.35
633.96	1777.64
634.15	1791.97
634.34	1763.30
634.53	1722.34
634.72	1695.72
634.91	1687.53
635.10	1742.82
635.29	1779.68
635.48	1720.29
635.67	1689.57
635.86	1703.91
636.05	1779.68
636.24	1677.29
636.43	1783.78
636.62	1742.82
636.81	1583.08
637.00	1705.96
637.19	1789.92
637.38	1791.97
637.57	1705.96
637.76	1708.01
637.95	1718.25
638.14	1677.29
638.33	1730.53
638.52	1734.63
638.71	1660.90
638.89	1718.25
639.08	1814.50
639.27	1748.97
639.46	1712.10
639.65	1822.69
639.84	1683.43
640.03	1732.58
640.22	1728.49
640.41	1847.27
640.60	1701.86
640.79	1779.68
640.98	1646.57
641.17	1812.45
641.36	1757.16
641.55	1761.25
641.74	1650.66
641.92	1744.87
642.11	1724.39
642.30	1691.62
642.49	1708.01
642.68	1593.32
642.87	1787.88
643.06	1837.03
643.25	1701.86
643.44	1697.77
643.63	1775.59
643.82	1705.96
644.00	1640.42
644.19	1757.16
644.38	1689.57
644.57	1832.93
644.76	1693.67
644.95	1753.06
645.14	1742.82
645.33	1767.40
645.52	1757.16
645.71	1656.81
645.89	1603.56
646.08	1775.59
646.27	1673.19
646.46	1802.21
646.65	1656.81
646.84	1675.24
647.03	1644.52
647.22	1826.79
647.40	1658.85
647.59	1681.38
647.78	1650.66
647.97	1718.25
648.16	1669.09
648.35	1726.44
648.54	1861.60
648.73	1755.11
648.91	1765.35
649.10	1667.05
649.29	1695.72
649.48	1757.16
649.67	1816.55
649.86	1755.11
650.05	1689.57
650.23	1746.92
650.42	1683.43
650.61	1728.49
650.80	1742.82
650.99	1812.45
651.18	1759.21
651.36	1837.03
651.55	1759.21
651.74	1796.07
651.93	1665.00
652.12	1693.67
652.31	1740.77
652.49	1757.16
652.68	1701.86
652.87	1861.60
653.06	1703.91
653.25	1828.84
653.44	1658.85
653.62	1841.12
653.81	1671.14
654.00	1730.53
654.19	1734.63
654.38	1861.60
654.56	1712.10
654.75	1675.24
654.94	1808.36
655.13	1761.25
655.32	1730.53
655.51	1773.54
655.69	1691.62
655.88	1705.96
656.07	1736.68
656.26	1730.53
656.45	1689.57
656.63	1701.86
656.82	1746.92
657.01	1796.07
657.20	1660.90
657.38	1808.36
657.57	1724.39
657.76	1626.09
657.95	1755.11
658.14	1695.72
658.32	1755.11
658.51	1687.53
658.70	1714.15
658.89	1669.09
659.08	1703.91
659.26	1722.34
659.45	1636.33
659.64	1789.92
659.83	1740.77
660.01	1900.52
660.20	1761.25
660.39	1755.11
660.58	1669.09
660.76	1820.64
660.95	1677.29
661.14	1734.63
661.33	1595.37
661.51	1685.48
661.70	1716.20
661.89	1738.73
662.08	1730.53
662.26	1697.77
662.45	1693.67
662.64	1841.12
662.83	1812.45
663.01	1624.04
663.20	1673.19
663.39	1812.45
663.58	1681.38
663.76	1699.81
663.95	1720.29
664.14	1683.43
664.32	1718.25
664.51	1665.00
664.70	1671.14
664.89	1734.63
665.07	1701.86
665.26	1845.22
665.45	1693.67
665.64	1853.41
665.82	1736.68
666.01	1796.07
666.20	1681.38
666.38	1814.50
666.57	1759.21
666.76	2172.89
666.95	4419.52
667.13	10211.17
667.32	15087.39
667.51	17614.58
667.69	19009.25
667.88	17471.22
668.07	12152.65
668.25	9387.89
668.44	7888.78
668.63	7317.39
668.81	6645.66
669.00	6180.77
669.19	5521.32
669.38	4911.03
669.56	4579.26
669.75	4020.16
669.94	3467.21
670.12	2803.67
670.31	2537.43
670.50	2209.76
670.68	2129.89
670.87	1945.57
671.06	1791.97
671.24	1832.93
671.43	1847.27
671.62	1759.21
671.80	1679.33
671.99	1822.69
672.18	1734.63
672.36	1775.59
672.55	1746.92
672.74	1656.81
672.92	1689.57
673.11	1789.92
673.29	1779.68
673.48	1763.30
673.67	1710.05
673.85	1796.07
674.04	1677.29
674.23	1785.83
674.41	1828.84
674.60	1720.29
674.79	1595.37
674.97	1671.14
675.16	1800.16
675.34	1787.88
675.53	1693.67
675.72	1740.77
675.90	1880.04
676.09	1673.19
676.28	1744.87
676.46	1671.14
676.65	1734.63
676.83	1697.77
677.02	1738.73
677.21	1748.97
677.39	1714.15
677.58	1685.48
677.77	1687.53
677.95	1665.00
678.14	1654.76
678.32	1689.57
678.51	1746.92
678.70	1912.80
678.88	1693.67
679.07	1744.87
679.25	1703.91
679.44	1730.53
679.63	1675.24
679.81	1775.59
680.00	1771.49
680.18	1740.77
680.37	1755.11
680.55	1724.39
680.74	1673.19
680.93	1609.70
681.11	1720.29
681.30	1714.15
681.48	1783.78
681.67	1689.57
681.85	1683.43
682.04	1632.23
682.23	1800.16
682.41	1634.28
682.60	1673.19
682.78	1771.49
682.97	1705.96
683.15	1710.05
683.34	1720.29
683.53	1765.35
683.71	1562.60
683.90	1746.92
684.08	1767.40
684.27	1681.38
684.45	1738.73
684.64	1814.50
684.82	1693.67
685.01	1791.97
685.19	1730.53
685.38	1794.02
685.57	1687.53
685.75	1708.01
685.94	1669.09
686.12	1660.90
686.31	1726.44
686.49	1773.54
686.68	1552.36
686.86	1746.92
687.05	1636.33
687.23	1816.55
687.42	1736.68
687.60	1669.09
687.79	1718.25
687.97	1742.82
688.16	1759.21
688.34	1798.12
688.53	1673.19
688.71	1718.25
688.90	1837.03
689.08	1759.21
689.27	1593.32
689.45	1755.11
689.64	1720.29
689.82	1658.85
690.01	1673.19
690.19	1755.11
690.38	1726.44
690.56	1857.51
690.75	1710.05
690.93	1628.14
691.12	1728.49
691.30	1740.77
691.49	1669.09
691.67	1716.20
691.86	1812.45
692.04	1626.09
692.23	1658.85
692.41	1705.96
692.60	1843.17
692.78	1695.72
692.97	1710.05
693.15	1671.14
693.34	1800.16
693.52	1855.46
693.71	1603.56
693.89	1710.05
694.08	1624.04
694.26	1718.25
694.44	1726.44
694.63	1714.15
694.81	1578.98
695.00	1710.05
695.18	1863.65
695.37	1904.61
695.55	1689.57
695.74	1714.15
695.92	1642.47
696.10	1779.68
696.29	1609.70
696.47	1673.19
696.66	1619.94
696.84	1634.28
697.03	1767.40
697.21	1877.99
697.40	2271.20
697.58	1806.31
697.76	1611.75
697.95	1710.05
698.13	1656.81
698.32	1646.57
698.50	1751.01
698.68	1748.97
698.87	1673.19
699.05	1787.88
699.24	1728.49
699.42	1673.19
699.61	1775.59
699.79	1769.44
699.97	1695.72
700.16	1673.19
700.34	1669.09
700.53	1748.97
700.71	1824.74
700.89	1783.78
701.08	1705.96
701.26	1714.15
701.45	2070.50
701.63	1775.59
701.81	1697.77
702.00	1595.37
702.18	1751.01
702.37	1628.14
702.55	1732.58
702.73	1773.54
702.92	1660.90
703.10	1767.40
703.28	1742.82
703.47	1673.19
703.65	1679.33
703.84	1794.02
704.02	1624.04
704.20	1789.92
704.39	1675.24
704.57	1779.68
704.75	1738.73
704.94	1802.21
705.12	1734.63
705.30	1796.07
705.49	2215.90
705.67	4343.74
705.86	9469.81
706.04	12488.51
706.22	14542.63
706.41	14991.13
706.59	13500.21
706.77	9351.03
706.96	7344.02
707.14	6404.00
707.32	6008.74
707.51	5394.35
707.69	4798.39
707.87	4208.58
708.06	3481.55
708.24	2936.79
708.42	2484.19
708.61	2260.96
708.79	1929.19
708.97	1902.56
709.16	1783.78
709.34	1816.55
709.52	1794.02
709.71	1708.01
709.89	1693.67
710.07	1689.57
710.26	1683.43
710.44	1714.15
710.62	1841.12
710.80	1730.53
710.99	1779.68
711.17	1751.01
711.35	1662.95
711.54	1689.57
711.72	1787.88
711.90	1740.77
712.09	1738.73
712.27	1626.09
712.45	1781.73
712.63	1679.33
712.82	1710.05
713.00	1675.24
713.18	1763.30
713.37	1724.39
713.55	1753.06
713.73	1689.57
713.91	1779.68
714.10	1669.09
714.28	1714.15
714.46	1732.58
714.65	1820.64
714.83	1718.25
715.01	1689.57
715.19	1728.49
715.38	1705.96
715.56	1740.77
715.74	1675.24
715.92	1640.42
716.11	1775.59
716.29	1617.90
716.47	1763.30
716.65	1714.15
716.84	1611.75
717.02	1759.21
717.20	1624.04
717.38	1683.43
717.57	1722.34
717.75	1708.01
717.93	1699.81
718.11	1716.20
718.30	1648.61
718.48	1726.44
718.66	1855.46
718.84	1824.74
719.03	1677.29
719.21	1628.14
719.39	1804.26
719.57	1695.72
719.75	1720.29
719.94	1710.05
720.12	1662.95
720.30	1761.25
720.48	1808.36
720.67	1705.96
720.85	1619.94
721.03	1693.67
721.21	1673.19
721.39	1775.59
721.58	1695.72
721.76	1638.38
721.94	1708.01
722.12	1701.86
722.30	1755.11
722.49	1730.53
722.67	1732.58
722.85	1685.48
723.03	1599.46
723.21	1671.14
723.40	1787.88
723.58	1722.34
723.76	1738.73
723.94	1791.97
724.12	1667.05
724.30	1808.36
724.49	1757.16
724.67	1658.85
724.85	1810.40
725.03	1665.00
725.21	1736.68
725.40	1796.07
725.58	1724.39
725.76	1781.73
725.94	1728.49
726.12	1658.85
726.30	1734.63
726.49	1689.57
726.67	1671.14
726.85	1714.15
727.03	1843.17
727.21	2136.03
727.39	2987.99
727.57	3686.34
727.76	4173.76
727.94	4399.04
728.12	4310.97
728.30	3649.48
728.48	2922.45
728.66	2670.55
728.84	2596.82
729.03	2361.31
729.21	2222.05
729.39	1972.19
729.57	1826.79
729.75	1789.92
729.93	1865.70
730.11	1794.02
730.30	1738.73
730.48	1689.57
730.66	1853.41
730.84	1736.68
731.02	1722.34
731.20	1732.58
731.38	1755.11
731.56	1705.96
731.74	1665.00
731.93	1736.68
732.11	1724.39
732.29	1746.92
732.47	1724.39
732.65	1730.53
732.83	1746.92
733.01	1701.86
733.19	1656.81
733.37	1724.39
733.56	1695.72
733.74	1591.27
733.92	1806.31
734.10	1669.09
734.28	1716.20
734.46	1642.47
734.64	1695.72
734.82	1712.10
735.00	1693.67
735.18	1705.96
735.36	1746.92
735.54	1644.52
735.73	1728.49
735.91	1765.35
736.09	1710.05
736.27	1687.53
736.45	1808.36
736.63	1675.24
736.81	1751.01
736.99	1853.41
737.17	1806.31
737.35	1738.73
737.53	1785.83
737.71	1679.33
737.89	1699.81
738.07	1705.96
738.25	1660.90
738.43	1665.00
738.61	1695.72
738.80	1636.33
738.98	1693.67
739.16	1722.34
739.34	1697.77
739.52	1769.44
739.70	1636.33
739.88	1783.78
740.06	1734.63
740.24	1585.13
740.42	1763.30
740.60	1566.70
740.78	1632.23
740.96	1619.94
741.14	1726.44
741.32	1730.53
741.50	1701.86
741.68	1861.60
741.86	1736.68
742.04	1607.66
742.22	1644.52
742.40	1695.72
742.58	1705.96
742.76	1628.14
742.94	1724.39
743.12	1615.85
743.30	1730.53
743.48	1783.78
743.66	1660.90
743.84	1800.16
744.02	1757.16
744.20	1748.97
744.38	1636.33
744.56	1646.57
744.74	1712.10
744.92	1794.02
745.10	1804.26
745.28	1751.01
745.46	1787.88
745.64	1695.72
745.82	1734.63
746.00	1714.15
746.18	1695.72
746.36	1669.09
746.54	1761.25
746.72	1714.15
746.90	1662.95
747.08	1818.60
747.26	1689.57
747.44	1761.25
747.62	1810.40
747.80	1724.39
747.98	1734.63
748.15	1716.20
748.33	1771.49
748.51	1738.73
748.69	1708.01
748.87	1671.14
749.05	1644.52
749.23	1667.05
749.41	1714.15
749.59	1708.01
749.77	1767.40
749.95	1685.48
750.13	1671.14
750.31	1806.31
750.49	1724.39
750.67	1726.44
750.85	1845.22
751.03	1718.25
751.20	1847.27
751.38	1755.11
751.56	1738.73
751.74	1701.86
751.92	1753.06
752.10	1708.01
752.28	1755.11
752.46	1665.00
752.64	1695.72
752.82	1671.14
753.00	1818.60
753.18	1636.33
753.35	1658.85
753.53	1660.90
753.71	1755.11
753.89	1769.44
754.07	1718.25
754.25	1763.30
754.43	1746.92
754.61	1703.91
754.79	1746.92
754.97	1734.63
755.14	1857.51
755.32	1626.09
755.50	1716.20
755.68	1800.16
755.86	1689.57
756.04	1656.81
756.22	1681.38
756.40	1765.35
756.57	1810.40
756.75	1632.23
756.93	1720.29
757.11	1771.49
757.29	1699.81
757.47	1687.53
757.65	1730.53
757.82	1562.60
758.00	1701.86
758.18	1714.15
758.36	1613.80
758.54	1820.64
758.72	1712.10
758.90	1812.45
759.07	1632.23
759.25	1730.53
759.43	1736.68
759.61	1636.33
759.79	2170.85
759.97	1837.03
760.15	1738.73
760.32	1607.66
760.50	1705.96
760.68	1761.25
760.86	1587.18
761.04	1804.26
761.22	1742.82
761.39	1736.68
761.57	1693.67
761.75	1708.01
761.93	1779.68
762.11	1708.01
762.28	1726.44
762.46	1644.52
762.64	1736.68
762.82	1660.90
763.00	1667.05
763.18	1822.69
763.35	1703.91
763.53	1746.92
763.71	1697.77
763.89	1722.34
764.07	1763.30
764.24	1779.68
764.42	1748.97
764.60	1734.63
764.78	1730.53
764.96	1746.92
765.13	1677.29
765.31	1724.39
765.49	1789.92
765.67	1740.77
765.84	1738.73
766.02	1744.87
766.20	1662.95
766.38	1656.81
766.56	1718.25
766.73	1791.97
766.91	1759.21
767.09	1771.49
767.27	1730.53
767.44	1632.23
767.62	1640.42
767.80	1699.81
767.98	1751.01
768.15	1720.29
768.33	1808.36
768.51	1751.01
768.69	1744.87
768.87	1787.88
769.04	1742.82
769.22	1888.23
769.40	1800.16
769.58	1826.79
769.75	1744.87
769.93	1742.82
770.11	1687.53
770.28	1712.10
770.46	1748.97
770.64	1732.58
770.82	1675.24
770.99	1681.38
771.17	1755.11
771.35	1708.01
771.53	1705.96
771.70	1648.61
771.88	1757.16
772.06	1763.30
772.23	1691.62
772.41	1726.44
772.59	1699.81
772.77	1681.38
772.94	1705.96
773.12	1710.05
773.30	1712.10
773.47	1773.54
773.65	1648.61
773.83	1781.73
774.01	1718.25
774.18	1683.43
774.36	1708.01
774.54	1701.86
774.71	1703.91
774.89	1624.04
775.07	1675.24
775.24	1599.46
775.42	1697.77
775.60	1796.07
775.78	1630.18
775.95	1658.85
776.13	1667.05
776.31	1605.61
776.48	1716.20
776.66	1806.31
776.84	1640.42
777.01	1665.00
777.19	1689.57
777.37	1669.09
777.54	1771.49
777.72	1798.12
777.90	1726.44
778.07	1728.49
778.25	1867.75
778.43	1710.05
778.60	1595.37
778.78	1744.87
778.96	1773.54
779.13	1675.24
779.31	1791.97
779.49	1691.62
779.66	1783.78
779.84	1691.62
780.01	1732.58
780.19	1714.15
780.37	1763.30
780.54	1759.21
780.72	1665.00
780.90	1697.77
781.07	1734.63
781.25	1648.61
781.43	1746.92
781.60	1767.40
781.78	1746.92
781.95	1667.05
782.13	1648.61
782.31	1757.16
782.48	1660.90
782.66	1662.95
782.83	1763.30
783.01	1722.34
783.19	1726.44
783.36	1650.66
783.54	1603.56
783.72	1722.34
783.89	1765.35
784.07	1669.09
784.24	1722.34
784.42	1781.73
784.60	1712.10
784.77	1812.45
784.95	1644.52
785.12	1746.92
785.30	1605.61
785.47	1538.02
785.65	1736.68
785.83	1759.21
786.00	1681.38
786.18	1714.15
786.35	1669.09
786.53	1683.43
786.71	1746.92
786.88	1748.97
787.06	1773.54
787.23	1712.10
787.41	1607.66
787.58	1710.05
787.76	1660.90
787.94	1724.39
788.11	1703.91
788.29	1689.57
788.46	1751.01
788.64	1624.04
788.81	1691.62
788.99	1656.81
789.16	1646.57
789.34	1763.30
789.52	1638.38
789.69	1693.67
789.87	1519.59
790.04	1746.92
790.22	1667.05
790.39	1849.32
790.57	1630.18
790.74	1708.01
790.92	1763.30
791.09	1636.33
791.27	1740.77
791.44	1800.16
791.62	1656.81
791.79	1714.15
791.97	1660.90
792.15	1869.80
792.32	1744.87
792.50	1722.34
792.67	1816.55
792.85	1796.07
793.02	1738.73
793.20	1689.57
793.37	1542.12
793.55	1685.48
793.72	1572.84
793.90	1808.36
794.07	1679.33
794.25	1697.77
794.42	1789.92
794.60	1675.24
794.77	1736.68
794.95	1763.30
795.12	1699.81
795.30	1708.01
795.47	1550.31
795.65	1947.62
795.82	1716.20
796.00	1628.14
796.17	1665.00
796.34	1675.24
796.52	1705.96
796.69	1755.11
796.87	1722.34
797.04	1867.75
797.22	1738.73
797.39	1798.12
797.57	1804.26
797.74	1728.49
797.92	1744.87
798.09	1689.57
798.27	1812.45
798.44	1669.09
798.62	1677.29
798.79	1705.96
798.96	1777.64
799.14	1724.39
799.31	1775.59
799.49	1652.71
799.66	1644.52
799.84	1753.06
800.01	1632.23
800.19	1785.83
800.36	1650.66
800.53	1687.53
800.71	1697.77
800.88	1742.82
801.06	1683.43
801.23	1787.88
801.41	1783.78
801.58	1632.23
801.75	1732.58
801.93	1738.73
802.10	1806.31
802.28	1671.14
802.45	1652.71
802.63	1730.53
802.80	1761.25
802.97	1683.43
803.15	1734.63
803.32	1734.63
803.50	1673.19
803.67	1669.09
803.84	1628.14
804.02	1769.44
804.19	1701.86
804.37	1642.47
804.54	1681.38
804.71	1736.68
804.89	1714.15
805.06	1669.09
805.24	1667.05
805.41	1691.62
805.58	1732.58
805.76	1865.70
805.93	1615.85
806.10	1839.08
806.28	1720.29
806.45	1734.63
806.63	1703.91
806.80	1701.86
806.97	1689.57
807.15	1753.06
807.32	1710.05
807.49	1710.05
807.67	1640.42
807.84	1738.73
808.01	1646.57
808.19	1904.61
808.36	1882.08
808.54	1638.38
808.71	1636.33
808.88	1742.82
809.06	1714.15
809.23	1822.69
809.40	1632.23
809.58	1763.30
809.75	1726.44
809.92	1675.24
810.10	1841.12
810.27	1730.53
810.44	1687.53
810.62	1746.92
810.79	1738.73
810.96	1691.62
811.14	1675.24
811.31	1724.39
811.48	1734.63
811.66	1751.01
811.83	1652.71
812.00	1730.53
812.18	1796.07
812.35	1863.65
812.52	1744.87
812.69	1665.00
812.87	1740.77
813.04	1701.86
813.21	1746.92
813.39	1673.19
813.56	1685.48
813.73	1781.73
813.91	1611.75
814.08	1611.75
814.25	1732.58
814.42	1669.09
814.60	1632.23
814.77	1771.49
814.94	1744.87
815.12	1718.25
815.29	1748.97
815.46	1628.14
815.63	1738.73
815.81	1734.63
815.98	1748.97
816.15	1708.01
816.33	1710.05
816.50	1615.85
816.67	1712.10
816.84	1740.77
817.02	1640.42
817.19	1705.96
817.36	1744.87
817.53	1767.40
817.71	1646.57
817.88	1730.53
818.05	1730.53
818.22	1726.44
818.40	1849.32
818.57	1658.85
818.74	1765.35
818.91	1699.81
819.09	1751.01
819.26	1751.01
819.43	1748.97
819.60	1658.85
819.78	1777.64
819.95	1771.49
820.12	1691.62
820.29	1763.30
820.47	1763.30
820.64	1650.66
820.81	1628.14
820.98	1681.38
821.15	1714.15
821.33	1779.68
821.50	1585.13
821.67	1757.16
821.84	1644.52
822.02	1722.34
822.19	1763.30
822.36	1644.52
822.53	1695.72
822.70	1708.01
822.88	1667.05
823.05	1763.30
823.22	1687.53
823.39	1712.10
823.56	1769.44
823.74	1791.97
823.91	1630.18
824.08	1714.15
824.25	1738.73
824.42	1757.16
824.60	1615.85
824.77	1730.53
824.94	1773.54
825.11	1693.67
825.28	1667.05
825.45	1738.73
825.63	1714.15
825.80	1589.22
825.97	1748.97
826.14	1710.05
826.31	1665.00
826.48	1830.88
826.66	1665.00
826.83	1714.15
827.00	1759.21
827.17	1660.90
827.34	1691.62
827.51	1712.10
827.69	1681.38
827.86	1617.90
828.03	1660.90
828.20	1714.15
828.37	1726.44
828.54	1685.48
828.71	1667.05
828.89	1755.11
829.06	1701.86
829.23	1783.78
829.40	1617.90
829.57	1601.51
829.74	1785.83
829.91	1720.29
830.09	1638.38
830.26	1751.01
830.43	1769.44
830.60	1718.25
830.77	1734.63
830.94	1775.59
831.11	1742.82
831.28	1687.53
831.46	1779.68
831.63	1619.94
831.80	1714.15
831.97	1712.10
832.14	1679.33
832.31	1714.15
832.48	1683.43
832.65	1812.45
832.82	1753.06
832.99	1748.97
833.17	1669.09
833.34	1802.21
833.51	1765.35
833.68	1601.51
833.85	1773.54
834.02	1703.91
834.19	1621.99
834.36	1658.85
834.53	1722.34
834.70	1738.73
834.87	1728.49
835.04	1703.91
835.22	1701.86
835.39	1611.75
835.56	1681.38
835.73	1703.91
835.90	1777.64
836.07	1689.57
836.24	1742.82
836.41	1599.46
836.58	1648.61
836.75	1757.16
836.92	1748.97
837.09	1701.86
837.26	1728.49
837.43	1701.86
837.60	1675.24
837.77	1675.24
837.94	1789.92
838.12	1705.96
838.29	1765.35
838.46	1570.79
838.63	1595.37
838.80	1796.07
838.97	1798.12
839.14	1685.48
839.31	1767.40
839.48	1724.39
839.65	1689.57
839.82	1701.86
839.99	1781.73
840.16	1794.02
840.33	1636.33
840.50	1660.90
840.67	1689.57
840.84	1574.89
841.01	1759.21
841.18	1673.19
841.35	1656.81
841.52	1748.97
841.69	1804.26
841.86	1683.43
842.03	1665.00
842.20	1806.31
842.37	1662.95
842.54	1671.14
842.71	1710.05
842.88	1624.04
843.05	1724.39
843.22	1654.76
843.39	1640.42
843.56	1660.90
843.73	1667.05
843.90	1748.97
844.07	1718.25
844.24	1798.12
844.41	1761.25
844.58	1689.57
844.75	1683.43
844.92	1744.87
845.09	1683.43
845.26	1695.72
845.43	1746.92
845.60	1763.30
845.77	1742.82
845.94	1716.20
846.10	1804.26
846.27	1648.61
846.44	1665.00
846.61	1665.00
846.78	1742.82
846.95	1767.40
847.12	1648.61
847.29	1667.05
847.46	1736.68
847.63	1771.49
847.80	1697.77
847.97	1738.73
848.14	1787.88
848.31	1613.80
848.48	1689.57
848.65	1757.16
848.82	1675.24
848.98	1908.71
849.15	1761.25
849.32	1787.88
849.49	1810.40
849.66	1650.66
849.83	1685.48
850.00	1667.05
850.17	1722.34
850.34	1705.96
850.51	1675.24
850.68	1687.53
850.85	1755.11
851.01	1685.48
851.18	1728.49
851.35	1640.42
851.52	1755.11
851.69	1763.30
851.86	1746.92
852.03	1642.47
852.20	1779.68
852.37	1748.97
852.53	1689.57
852.70	1656.81
852.87	1742.82
853.04	1718.25
853.21	1691.62
853.38	1769.44
853.55	1759.21
853.72	1744.87
853.89	1603.56
854.05	1701.86
854.22	1607.66
854.39	1669.09
854.56	1650.66
854.73	1728.49
854.90	1632.23
855.07	1742.82
855.23	1708.01
855.40	1730.53
855.57	1753.06
855.74	1558.50
855.91	1875.94
856.08	1677.29
856.25	1640.42
856.41	1695.72
856.58	1757.16
856.75	1722.34
856.92	1728.49
857.09	1697.77
857.26	1589.22
857.42	1703.91
857.59	1722.34
857.76	1767.40
857.93	1728.49
858.10	1777.64
858.27	1636.33
858.43	1738.73
858.60	1683.43
858.77	1619.94
858.94	1685.48
859.11	1787.88
859.27	1636.33
859.44	1708.01
859.61	1843.17
859.78	1667.05
859.95	1667.05
860.12	1665.00
860.28	1877.99
860.45	1873.89
860.62	1687.53
860.79	1763.30
860.95	1791.97
861.12	1708.01
861.29	1669.09
861.46	1714.15
861.63	1658.85
861.79	1699.81
861.96	1658.85
862.13	1632.23
862.30	1820.64
862.47	1720.29
862.63	1703.91
862.80	1763.30
862.97	1759.21
863.14	1714.15
863.30	1742.82
863.47	1636.33
863.64	1853.41
863.81	1716.20
863.97	1671.14
864.14	1701.86
864.31	1716.20
864.48	1839.08
864.65	1814.50
864.81	1765.35
864.98	1775.59
865.15	1736.68
865.32	1757.16
865.48	1667.05
865.65	1759.21
865.82	1607.66
865.98	1746.92
866.15	1763.30
866.32	1720.29
866.49	1671.14
866.65	1773.54
866.82	1626.09
866.99	1751.01
867.16	1724.39
867.32	1677.29
867.49	1722.34
867.66	1751.01
867.83	1703.91
867.99	1617.90
868.16	1687.53
868.33	1617.90
868.49	1740.77
868.66	1687.53
868.83	1847.27
868.99	1732.58
869.16	1728.49
869.33	1781.73
869.50	1755.11
869.66	1673.19
869.83	1644.52
870.00	1642.47
870.16	1765.35
870.33	1669.09
870.50	1845.22
870.66	1683.43
870.83	1791.97
871.00	1673.19
871.17	1806.31
871.33	1748.97
871.50	1720.29
871.67	1681.38
871.83	1656.81
872.00	1847.27
872.17	1728.49
872.33	1826.79
872.50	1812.45
872.67	1722.34
872.83	1722.34
873.00	1744.87
873.17	1798.12
873.33	1806.31
873.50	1761.25
873.67	1693.67
873.83	1689.57
874.00	1742.82
874.16	1658.85
874.33	1728.49
874.50	1728.49
874.66	1765.35
874.83	1712.10
875.00	1761.25
875.16	1781.73
875.33	1783.78
875.50	1662.95
875.66	1654.76
875.83	1654.76
875.99	1759.21
876.16	1673.19
876.33	1568.74
876.49	1716.20
876.66	1755.11
876.83	1677.29
876.99	1660.90
877.16	1714.15
877.32	1693.67
877.49	1650.66
877.66	1732.58
877.82	1800.16
877.99	1744.87
878.15	1798.12
878.32	1757.16
878.49	1710.05
878.65	1703.91
878.82	1871.84
878.98	1660.90
879.15	1746.92
879.32	1718.25
879.48	1697.77
879.65	1662.95
879.81	1619.94
879.98	1654.76
880.15	1693.67
880.31	1695.72
880.48	1654.76
880.64	1800.16
880.81	1742.82
880.97	1769.44
881.14	1746.92
881.31	1632.23
881.47	1882.08
881.64	1705.96
881.80	1593.32
881.97	1681.38
882.13	1746.92
882.30	1667.05
882.47	1656.81
882.63	1669.09
882.80	1736.68
882.96	1691.62
883.13	1759.21
883.29	1685.48
883.46	1779.68
883.62	1785.83
883.79	1636.33
883.95	1767.40
884.12	1689.57
884.29	1753.06
884.45	1665.00
884.62	1734.63
884.78	1671.14
884.95	1812.45
885.11	1720.29
885.28	1753.06
885.44	1630.18
885.61	1757.16
885.77	1744.87
885.94	1705.96
886.10	1728.49
886.27	1683.43
886.43	1781.73
886.60	1830.88
886.76	1728.49
886.93	1630.18
887.09	1798.12
887.26	1607.66
887.42	1732.58
887.59	1726.44
887.75	1908.71
887.92	1757.16
888.08	1830.88
888.25	1820.64
888.41	1714.15
888.58	1748.97
888.74	1689.57
888.91	1728.49
>>>>>End Processed Spectral Data<<<<<
