SpectraSuite Data File
++++++++++++++++++++++++++++++++++++
Date: Mon Jun 06 17:38:37 CEST 2016
User: root
Dark Spectrum Present: No
Reference Spectrum Present: No
Number of Sampled Component Spectra: 1
Spectrometers: USB4C02835
Integration Time (usec): 100000 (USB4C02835)
Spectra Averaged: 1 (USB4C02835)
Boxcar Smoothing: 0 (USB4C02835)
Correct for Electrical Dark: No (USB4C02835)
Strobe/Lamp Enabled: No (USB4C02835)
Correct for Detector Non-linearity: No (USB4C02835)
Correct for Stray Light: No (USB4C02835)
Number of Pixels in Processed Spectrum: 3648
>>>>>Begin Processed Spectral Data<<<<<
177.47	1472.49
177.69	1472.49
177.91	1472.49
178.13	1431.53
178.36	1509.35
178.58	1656.81
178.80	1822.69
179.02	1640.42
179.24	1628.14
179.46	1669.09
179.68	1810.40
179.90	1701.86
180.13	1791.97
180.35	1673.19
180.57	1722.34
180.79	1751.01
181.01	1632.23
181.23	1726.44
181.45	1755.11
181.67	1712.10
181.90	1769.44
182.12	1679.33
182.34	1693.67
182.56	1798.12
182.78	1779.68
183.00	1687.53
183.22	1658.85
183.44	1621.99
183.66	1886.18
183.89	1722.34
184.11	1613.80
184.33	1759.21
184.55	1765.35
184.77	1794.02
184.99	1712.10
185.21	1697.77
185.43	1824.74
185.65	1628.14
185.87	1746.92
186.10	1863.65
186.32	1798.12
186.54	1755.11
186.76	1701.86
186.98	1714.15
187.20	1656.81
187.42	1689.57
187.64	1755.11
187.86	1681.38
188.08	1755.11
188.30	1765.35
188.52	1701.86
188.75	1777.64
188.97	1822.69
189.19	1683.43
189.41	1687.53
189.63	1718.25
189.85	1728.49
190.07	1703.91
190.29	1634.28
190.51	1748.97
190.73	1679.33
190.95	1751.01
191.17	1689.57
191.39	1587.18
191.61	1656.81
191.84	1683.43
192.06	1681.38
192.28	1712.10
192.50	1871.84
192.72	1667.05
192.94	1699.81
193.16	1771.49
193.38	1738.73
193.60	1650.66
193.82	1755.11
194.04	1740.77
194.26	1740.77
194.48	1740.77
194.70	1640.42
194.92	1640.42
195.14	1779.68
195.36	1644.52
195.58	1771.49
195.80	1681.38
196.02	1665.00
196.24	1685.48
196.46	1728.49
196.69	1681.38
196.91	1849.32
197.13	1669.09
197.35	1669.09
197.57	1841.12
197.79	1753.06
198.01	1777.64
198.23	1656.81
198.45	1759.21
198.67	1640.42
198.89	1699.81
199.11	1757.16
199.33	1708.01
199.55	1632.23
199.77	1701.86
199.99	1724.39
200.21	1640.42
200.43	1693.67
200.65	1687.53
200.87	1617.90
201.09	1720.29
201.31	1718.25
201.53	1744.87
201.75	1650.66
201.97	1693.67
202.19	1730.53
202.41	1755.11
202.63	1890.28
202.85	1759.21
203.07	1740.77
203.29	1705.96
203.51	1675.24
203.73	1669.09
203.95	1841.12
204.17	1724.39
204.39	1804.26
204.61	1736.68
204.83	1716.20
205.05	1802.21
205.27	1722.34
205.49	1783.78
205.71	1732.58
205.93	1615.85
206.15	1656.81
206.37	1746.92
206.59	1742.82
206.81	1599.46
207.03	1632.23
207.25	1722.34
207.47	1841.12
207.69	1693.67
207.91	1828.84
208.13	1787.88
208.34	1763.30
208.56	1753.06
208.78	1751.01
209.00	1730.53
209.22	1722.34
209.44	1742.82
209.66	1687.53
209.88	1697.77
210.10	1732.58
210.32	1697.77
210.54	1871.84
210.76	1677.29
210.98	1736.68
211.20	1648.61
211.42	1724.39
211.64	1751.01
211.86	1785.83
212.08	1703.91
212.30	1738.73
212.52	1673.19
212.74	1798.12
212.96	1761.25
213.17	1734.63
213.39	1732.58
213.61	1847.27
213.83	1818.60
214.05	1628.14
214.27	1771.49
214.49	1640.42
214.71	1667.05
214.93	1742.82
215.15	1728.49
215.37	1816.55
215.59	1636.33
215.81	1800.16
216.03	1781.73
216.24	1722.34
216.46	1648.61
216.68	1734.63
216.90	1679.33
217.12	1839.08
217.34	1685.48
217.56	1697.77
217.78	1839.08
218.00	1804.26
218.22	1746.92
218.44	1812.45
218.66	1765.35
218.87	1863.65
219.09	1673.19
219.31	1695.72
219.53	1673.19
219.75	1738.73
219.97	1734.63
220.19	1755.11
220.41	1705.96
220.63	1787.88
220.85	1728.49
221.06	1681.38
221.28	1771.49
221.50	1703.91
221.72	1714.15
221.94	1724.39
222.16	1726.44
222.38	1744.87
222.60	1689.57
222.82	1681.38
223.03	1724.39
223.25	1699.81
223.47	1744.87
223.69	1853.41
223.91	1744.87
224.13	1712.10
224.35	1669.09
224.57	1771.49
224.78	1658.85
225.00	1693.67
225.22	1710.05
225.44	1740.77
225.66	1703.91
225.88	1728.49
226.10	1763.30
226.32	1683.43
226.53	1796.07
226.75	1679.33
226.97	1677.29
227.19	1673.19
227.41	1720.29
227.63	1705.96
227.85	1673.19
228.06	1728.49
228.28	1691.62
228.50	1861.60
228.72	1574.89
228.94	1681.38
229.16	1644.52
229.37	1687.53
229.59	1763.30
229.81	1787.88
230.03	1685.48
230.25	1660.90
230.47	1632.23
230.69	1654.76
230.90	1837.03
231.12	1648.61
231.34	1714.15
231.56	1703.91
231.78	1665.00
232.00	1742.82
232.21	1757.16
232.43	1730.53
232.65	1585.13
232.87	1748.97
233.09	1656.81
233.30	1677.29
233.52	1794.02
233.74	1732.58
233.96	1701.86
234.18	1740.77
234.40	1687.53
234.61	1861.60
234.83	1728.49
235.05	1695.72
235.27	1832.93
235.49	1828.84
235.70	1677.29
235.92	1779.68
236.14	1732.58
236.36	1849.32
236.58	1615.85
236.79	1740.77
237.01	1705.96
237.23	1701.86
237.45	1722.34
237.67	1679.33
237.88	1755.11
238.10	1800.16
238.32	1671.14
238.54	1748.97
238.76	1710.05
238.97	1699.81
239.19	1728.49
239.41	1767.40
239.63	1771.49
239.85	1759.21
240.06	1648.61
240.28	1744.87
240.50	1742.82
240.72	1744.87
240.93	1691.62
241.15	1738.73
241.37	1703.91
241.59	1744.87
241.81	1734.63
242.02	1734.63
242.24	1789.92
242.46	1746.92
242.68	1718.25
242.89	1804.26
243.11	1746.92
243.33	1691.62
243.55	1714.15
243.76	1763.30
243.98	1716.20
244.20	1660.90
244.42	1785.83
244.64	1746.92
244.85	1683.43
245.07	1677.29
245.29	1751.01
245.51	1722.34
245.72	1726.44
245.94	1834.98
246.16	1736.68
246.38	1712.10
246.59	1665.00
246.81	1726.44
247.03	1681.38
247.24	1646.57
247.46	1693.67
247.68	1695.72
247.90	1626.09
248.11	1626.09
248.33	1787.88
248.55	1705.96
248.77	1755.11
248.98	1755.11
249.20	1828.84
249.42	1693.67
249.64	1779.68
249.85	1742.82
250.07	1683.43
250.29	1751.01
250.50	1796.07
250.72	1669.09
250.94	1783.78
251.16	1849.32
251.37	1742.82
251.59	1771.49
251.81	1757.16
252.02	1849.32
252.24	1710.05
252.46	1714.15
252.68	1652.71
252.89	1644.52
253.11	1603.56
253.33	1781.73
253.54	1830.88
253.76	1673.19
253.98	1732.58
254.20	1714.15
254.41	1650.66
254.63	1685.48
254.85	1675.24
255.06	1738.73
255.28	1775.59
255.50	1718.25
255.71	1695.72
255.93	1667.05
256.15	1667.05
256.36	1738.73
256.58	1738.73
256.80	1789.92
257.02	1791.97
257.23	1746.92
257.45	1746.92
257.67	1712.10
257.88	1687.53
258.10	1665.00
258.32	1710.05
258.53	1753.06
258.75	1824.74
258.97	1632.23
259.18	1732.58
259.40	1685.48
259.62	1806.31
259.83	1730.53
260.05	1767.40
260.27	2035.68
260.48	1787.88
260.70	1669.09
260.92	1738.73
261.13	1710.05
261.35	1714.15
261.57	1708.01
261.78	1695.72
262.00	1660.90
262.22	1714.15
262.43	1648.61
262.65	1712.10
262.86	1738.73
263.08	1902.56
263.30	1687.53
263.51	1632.23
263.73	1619.94
263.95	1740.77
264.16	1691.62
264.38	1714.15
264.60	1712.10
264.81	1789.92
265.03	1804.26
265.25	1769.44
265.46	1632.23
265.68	1796.07
265.89	1757.16
266.11	1546.22
266.33	1785.83
266.54	1849.32
266.76	1763.30
266.98	1779.68
267.19	1847.27
267.41	1822.69
267.62	1681.38
267.84	1667.05
268.06	1785.83
268.27	1810.40
268.49	1740.77
268.70	1839.08
268.92	1716.20
269.14	1636.33
269.35	1632.23
269.57	1720.29
269.79	1742.82
270.00	1710.05
270.22	1806.31
270.43	1712.10
270.65	1566.70
270.87	1769.44
271.08	1779.68
271.30	1744.87
271.51	1744.87
271.73	1761.25
271.95	1781.73
272.16	1808.36
272.38	1712.10
272.59	1685.48
272.81	1740.77
273.02	1769.44
273.24	1728.49
273.46	1753.06
273.67	1689.57
273.89	1722.34
274.10	1689.57
274.32	1779.68
274.54	1751.01
274.75	1730.53
274.97	1621.99
275.18	1748.97
275.40	1820.64
275.61	1673.19
275.83	1753.06
276.05	1671.14
276.26	1742.82
276.48	1849.32
276.69	1718.25
276.91	1654.76
277.12	1853.41
277.34	1716.20
277.55	1802.21
277.77	1699.81
277.99	1665.00
278.20	1714.15
278.42	1667.05
278.63	1708.01
278.85	1738.73
279.06	1626.09
279.28	1748.97
279.49	1802.21
279.71	1812.45
279.93	1705.96
280.14	1644.52
280.36	1660.90
280.57	1759.21
280.79	1718.25
281.00	1755.11
281.22	1613.80
281.43	1814.50
281.65	1632.23
281.86	1636.33
282.08	1765.35
282.29	1845.22
282.51	1599.46
282.73	1656.81
282.94	1689.57
283.16	1755.11
283.37	1884.13
283.59	1738.73
283.80	1759.21
284.02	1701.86
284.23	1781.73
284.45	1691.62
284.66	1626.09
284.88	1687.53
285.09	1794.02
285.31	1712.10
285.52	1697.77
285.74	1662.95
285.95	1718.25
286.17	1689.57
286.38	1789.92
286.60	1683.43
286.81	1652.71
287.03	1701.86
287.24	1736.68
287.46	1814.50
287.67	1726.44
287.89	1832.93
288.10	1794.02
288.32	1734.63
288.53	1820.64
288.75	1734.63
288.96	1757.16
289.18	1755.11
289.39	1667.05
289.61	1742.82
289.82	1812.45
290.04	1796.07
290.25	1583.08
290.47	1830.88
290.68	1697.77
290.90	1777.64
291.11	1665.00
291.33	1812.45
291.54	1691.62
291.76	1665.00
291.97	1669.09
292.18	1716.20
292.40	1642.47
292.61	1654.76
292.83	1816.55
293.04	1753.06
293.26	1775.59
293.47	1738.73
293.69	1685.48
293.90	1710.05
294.12	1771.49
294.33	1802.21
294.55	1679.33
294.76	1755.11
294.97	1796.07
295.19	1837.03
295.40	1665.00
295.62	1681.38
295.83	1703.91
296.05	1716.20
296.26	1810.40
296.48	1687.53
296.69	1671.14
296.90	1697.77
297.12	1787.88
297.33	1767.40
297.55	1722.34
297.76	1714.15
297.98	1814.50
298.19	1748.97
298.41	1734.63
298.62	1607.66
298.83	1773.54
299.05	1789.92
299.26	1673.19
299.48	1720.29
299.69	1744.87
299.90	1685.48
300.12	1636.33
300.33	1773.54
300.55	1771.49
300.76	1789.92
300.98	1634.28
301.19	1648.61
301.40	1671.14
301.62	1744.87
301.83	1722.34
302.05	1724.39
302.26	1746.92
302.47	1742.82
302.69	1644.52
302.90	1732.58
303.12	1599.46
303.33	1839.08
303.54	1865.70
303.76	1716.20
303.97	1722.34
304.19	1812.45
304.40	1718.25
304.61	1791.97
304.83	1837.03
305.04	1773.54
305.26	1705.96
305.47	1667.05
305.68	1710.05
305.90	1675.24
306.11	1773.54
306.33	1660.90
306.54	1722.34
306.75	1714.15
306.97	1626.09
307.18	1687.53
307.39	1652.71
307.61	1695.72
307.82	1708.01
308.04	1781.73
308.25	1697.77
308.46	1849.32
308.68	1626.09
308.89	1712.10
309.10	1765.35
309.32	1691.62
309.53	1685.48
309.74	1724.39
309.96	1681.38
310.17	1779.68
310.39	1660.90
310.60	1777.64
310.81	1753.06
311.03	1722.34
311.24	1779.68
311.45	1751.01
311.67	1834.98
311.88	1726.44
312.09	1755.11
312.31	1755.11
312.52	1701.86
312.73	1615.85
312.95	1722.34
313.16	1673.19
313.37	1890.28
313.59	1767.40
313.80	1716.20
314.01	1935.33
314.23	1763.30
314.44	1703.91
314.65	1585.13
314.87	1701.86
315.08	1720.29
315.29	1671.14
315.51	1642.47
315.72	1744.87
315.93	1789.92
316.15	1763.30
316.36	1714.15
316.57	1767.40
316.79	1769.44
317.00	1718.25
317.21	1638.38
317.43	1630.18
317.64	1685.48
317.85	1652.71
318.07	1728.49
318.28	1771.49
318.49	1843.17
318.70	1935.33
318.92	1812.45
319.13	1837.03
319.34	1826.79
319.56	1783.78
319.77	1826.79
319.98	1746.92
320.20	1808.36
320.41	1765.35
320.62	1791.97
320.83	1675.24
321.05	1877.99
321.26	1701.86
321.47	1728.49
321.69	1712.10
321.90	1658.85
322.11	1673.19
322.32	1808.36
322.54	1828.84
322.75	1679.33
322.96	1834.98
323.18	1583.08
323.39	1615.85
323.60	1595.37
323.81	1757.16
324.03	1738.73
324.24	1742.82
324.45	1736.68
324.66	1691.62
324.88	1796.07
325.09	1804.26
325.30	1683.43
325.52	1800.16
325.73	1755.11
325.94	1574.89
326.15	1597.42
326.37	1701.86
326.58	1740.77
326.79	1816.55
327.00	1667.05
327.22	1710.05
327.43	1726.44
327.64	1615.85
327.85	1708.01
328.07	1767.40
328.28	1822.69
328.49	1695.72
328.70	1669.09
328.92	1714.15
329.13	1640.42
329.34	1789.92
329.55	1884.13
329.76	1832.93
329.98	1742.82
330.19	1824.74
330.40	1771.49
330.61	1669.09
330.83	1779.68
331.04	1730.53
331.25	1771.49
331.46	1681.38
331.68	1652.71
331.89	1732.58
332.10	1738.73
332.31	1630.18
332.52	1708.01
332.74	1708.01
332.95	1705.96
333.16	1710.05
333.37	1753.06
333.58	1746.92
333.80	1775.59
334.01	1568.74
334.22	1728.49
334.43	1640.42
334.64	1779.68
334.86	1593.32
335.07	1593.32
335.28	1765.35
335.49	1632.23
335.70	1714.15
335.92	1765.35
336.13	1843.17
336.34	1775.59
336.55	1701.86
336.76	1603.56
336.98	1599.46
337.19	1716.20
337.40	1847.27
337.61	1832.93
337.82	1732.58
338.04	1787.88
338.25	1603.56
338.46	1677.29
338.67	1658.85
338.88	1710.05
339.09	1710.05
339.31	1665.00
339.52	1658.85
339.73	1695.72
339.94	1681.38
340.15	1816.55
340.36	1646.57
340.58	1822.69
340.79	1636.33
341.00	1818.60
341.21	1646.57
341.42	1796.07
341.63	1742.82
341.85	1761.25
342.06	1730.53
342.27	1705.96
342.48	1904.61
342.69	1624.04
342.90	1783.78
343.12	1773.54
343.33	1648.61
343.54	1773.54
343.75	1794.02
343.96	1742.82
344.17	1646.57
344.38	1740.77
344.60	1644.52
344.81	1619.94
345.02	1746.92
345.23	1802.21
345.44	1779.68
345.65	1800.16
345.86	1734.63
346.07	1685.48
346.29	1708.01
346.50	1779.68
346.71	1714.15
346.92	1839.08
347.13	1857.51
347.34	1732.58
347.55	1726.44
347.76	1697.77
347.98	1648.61
348.19	1681.38
348.40	1763.30
348.61	1624.04
348.82	1734.63
349.03	1810.40
349.24	1701.86
349.45	1843.17
349.66	1589.22
349.88	1761.25
350.09	1714.15
350.30	1777.64
350.51	1722.34
350.72	1730.53
350.93	1773.54
351.14	1617.90
351.35	1796.07
351.56	1675.24
351.77	1650.66
351.99	1773.54
352.20	1802.21
352.41	1814.50
352.62	1587.18
352.83	1689.57
353.04	1783.78
353.25	1701.86
353.46	1746.92
353.67	1800.16
353.88	1572.84
354.09	1691.62
354.30	1759.21
354.52	1701.86
354.73	1710.05
354.94	1703.91
355.15	1728.49
355.36	1820.64
355.57	1675.24
355.78	1710.05
355.99	1693.67
356.20	1658.85
356.41	1714.15
356.62	1779.68
356.83	1794.02
357.04	1800.16
357.25	1576.94
357.46	1744.87
357.68	1675.24
357.89	1628.14
358.10	1703.91
358.31	1677.29
358.52	1693.67
358.73	1650.66
358.94	1691.62
359.15	1701.86
359.36	1755.11
359.57	1701.86
359.78	1726.44
359.99	1818.60
360.20	1714.15
360.41	1697.77
360.62	1742.82
360.83	1665.00
361.04	1705.96
361.25	1748.97
361.46	1791.97
361.67	1773.54
361.88	1755.11
362.09	1755.11
362.30	1804.26
362.51	1796.07
362.72	1730.53
362.93	1691.62
363.14	1724.39
363.35	1798.12
363.56	1658.85
363.78	1767.40
363.99	1787.88
364.20	1720.29
364.41	1808.36
364.62	1849.32
364.83	1812.45
365.04	1771.49
365.25	1708.01
365.46	1820.64
365.67	1650.66
365.88	1648.61
366.09	1761.25
366.30	1677.29
366.51	1730.53
366.72	1609.70
366.93	1665.00
367.14	1751.01
367.35	1759.21
367.56	1771.49
367.77	1806.31
367.98	1761.25
368.18	1751.01
368.39	1654.76
368.60	1665.00
368.81	1742.82
369.02	1714.15
369.23	1646.57
369.44	1632.23
369.65	1712.10
369.86	1738.73
370.07	1820.64
370.28	1693.67
370.49	1761.25
370.70	1703.91
370.91	1626.09
371.12	1617.90
371.33	1699.81
371.54	1714.15
371.75	1714.15
371.96	1619.94
372.17	1785.83
372.38	1624.04
372.59	1773.54
372.80	1673.19
373.01	1757.16
373.22	1765.35
373.43	1660.90
373.64	1660.90
373.85	1767.40
374.06	1849.32
374.26	1802.21
374.47	1724.39
374.68	1806.31
374.89	1710.05
375.10	1724.39
375.31	1845.22
375.52	1689.57
375.73	1804.26
375.94	1734.63
376.15	1830.88
376.36	1699.81
376.57	1673.19
376.78	1703.91
376.99	1716.20
377.20	1814.50
377.40	1687.53
377.61	1871.84
377.82	1660.90
378.03	1757.16
378.24	1718.25
378.45	1753.06
378.66	1761.25
378.87	1611.75
379.08	1642.47
379.29	1697.77
379.50	1859.56
379.71	1826.79
379.91	1691.62
380.12	1701.86
380.33	1658.85
380.54	1716.20
380.75	1718.25
380.96	1740.77
381.17	1787.88
381.38	1755.11
381.59	1691.62
381.80	1753.06
382.00	1847.27
382.21	1738.73
382.42	1839.08
382.63	1859.56
382.84	1763.30
383.05	1794.02
383.26	1781.73
383.47	1736.68
383.68	1726.44
383.88	1763.30
384.09	1785.83
384.30	1798.12
384.51	1744.87
384.72	1619.94
384.93	1650.66
385.14	1708.01
385.35	1755.11
385.55	1654.76
385.76	1783.78
385.97	1673.19
386.18	1656.81
386.39	1673.19
386.60	1673.19
386.81	1744.87
387.02	1716.20
387.22	1675.24
387.43	1783.78
387.64	1814.50
387.85	1859.56
388.06	2209.76
388.27	4147.14
388.48	6684.57
388.68	8169.35
388.89	9406.32
389.10	9688.94
389.31	8652.67
389.52	7702.41
389.73	6737.82
389.93	6440.86
390.14	5810.09
390.35	5167.03
390.56	4573.11
390.77	3899.33
390.98	3045.33
391.18	2504.67
391.39	2123.74
391.60	1843.17
391.81	1841.12
392.02	1753.06
392.23	1906.66
392.43	1722.34
392.64	1771.49
392.85	1681.38
393.06	1771.49
393.27	1730.53
393.47	1701.86
393.68	1755.11
393.89	1660.90
394.10	1757.16
394.31	1714.15
394.52	1691.62
394.72	1757.16
394.93	1798.12
395.14	1603.56
395.35	1675.24
395.56	1744.87
395.76	1757.16
395.97	1785.83
396.18	1896.42
396.39	1857.51
396.60	2062.30
396.80	1937.38
397.01	1892.32
397.22	1853.41
397.43	1806.31
397.64	1730.53
397.84	1822.69
398.05	1843.17
398.26	1753.06
398.47	1834.98
398.67	1796.07
398.88	1800.16
399.09	1712.10
399.30	1738.73
399.51	1730.53
399.71	1636.33
399.92	1728.49
400.13	1714.15
400.34	1722.34
400.54	1708.01
400.75	1859.56
400.96	1636.33
401.17	1822.69
401.37	1783.78
401.58	1679.33
401.79	1771.49
402.00	1804.26
402.21	2041.82
402.41	1949.67
402.62	2019.30
402.83	2041.82
403.04	1990.63
403.24	2050.02
403.45	1894.37
403.66	1945.57
403.87	1884.13
404.07	1972.19
404.28	1837.03
404.49	1994.72
404.70	1730.53
404.90	1777.64
405.11	1759.21
405.32	1757.16
405.52	1685.48
405.73	1703.91
405.94	1703.91
406.15	1763.30
406.35	1798.12
406.56	1796.07
406.77	1720.29
406.98	1802.21
407.18	1609.70
407.39	1783.78
407.60	1701.86
407.80	1705.96
408.01	1681.38
408.22	1738.73
408.43	1755.11
408.63	1701.86
408.84	1802.21
409.05	1755.11
409.25	1652.71
409.46	1675.24
409.67	1742.82
409.88	1660.90
410.08	1771.49
410.29	1681.38
410.50	1736.68
410.70	1730.53
410.91	1644.52
411.12	1910.75
411.32	1689.57
411.53	1665.00
411.74	1828.84
411.95	1839.08
412.15	1785.83
412.36	1753.06
412.57	1857.51
412.77	1814.50
412.98	1761.25
413.19	1669.09
413.39	1859.56
413.60	1755.11
413.81	1757.16
414.01	1712.10
414.22	1759.21
414.43	1761.25
414.63	1695.72
414.84	1761.25
415.05	1705.96
415.25	1644.52
415.46	1775.59
415.67	1736.68
415.87	1763.30
416.08	1783.78
416.29	1720.29
416.49	1755.11
416.70	1685.48
416.91	1654.76
417.11	1689.57
417.32	1726.44
417.53	1773.54
417.73	1765.35
417.94	1671.14
418.15	1691.62
418.35	1710.05
418.56	1751.01
418.77	1849.32
418.97	1699.81
419.18	1757.16
419.38	1591.27
419.59	1677.29
419.80	1779.68
420.00	1685.48
420.21	1681.38
420.42	1789.92
420.62	1787.88
420.83	1658.85
421.04	1693.67
421.24	1677.29
421.45	1738.73
421.65	1748.97
421.86	1636.33
422.07	1744.87
422.27	1748.97
422.48	1787.88
422.69	1665.00
422.89	1712.10
423.10	1656.81
423.30	1662.95
423.51	1779.68
423.72	1726.44
423.92	1683.43
424.13	1615.85
424.33	1738.73
424.54	1810.40
424.75	1681.38
424.95	1867.75
425.16	1767.40
425.36	1742.82
425.57	1789.92
425.78	1705.96
425.98	1759.21
426.19	1748.97
426.39	1603.56
426.60	1796.07
426.81	1843.17
427.01	1775.59
427.22	1699.81
427.42	1595.37
427.63	1671.14
427.83	1796.07
428.04	1804.26
428.25	1777.64
428.45	1824.74
428.66	1796.07
428.86	1767.40
429.07	1738.73
429.28	1689.57
429.48	1632.23
429.69	1650.66
429.89	1701.86
430.10	1642.47
430.30	1736.68
430.51	1806.31
430.71	1646.57
430.92	1742.82
431.13	1642.47
431.33	1718.25
431.54	1687.53
431.74	1857.51
431.95	1933.28
432.15	1697.77
432.36	1769.44
432.56	1785.83
432.77	1816.55
432.98	1837.03
433.18	1779.68
433.39	1751.01
433.59	1662.95
433.80	1865.70
434.00	1916.90
434.21	1718.25
434.41	1640.42
434.62	1761.25
434.82	1642.47
435.03	1648.61
435.23	1728.49
435.44	1675.24
435.64	1787.88
435.85	1779.68
436.06	1794.02
436.26	1824.74
436.47	1744.87
436.67	1716.20
436.88	1734.63
437.08	1826.79
437.29	1859.56
437.49	1746.92
437.70	1796.07
437.90	1751.01
438.11	1877.99
438.31	1841.12
438.52	1918.95
438.72	1873.89
438.93	1906.66
439.13	1824.74
439.34	1929.19
439.54	1789.92
439.75	1771.49
439.95	1820.64
440.16	1716.20
440.36	1783.78
440.57	1740.77
440.77	1828.84
440.98	1779.68
441.18	1781.73
441.39	1716.20
441.59	1734.63
441.80	1869.80
442.00	1726.44
442.21	1886.18
442.41	1652.71
442.62	1787.88
442.82	1732.58
443.02	1673.19
443.23	1726.44
443.43	1648.61
443.64	1822.69
443.84	1662.95
444.05	1812.45
444.25	1769.44
444.46	1736.68
444.66	1728.49
444.87	1871.84
445.07	1609.70
445.28	1759.21
445.48	1855.46
445.69	1755.11
445.89	1982.43
446.09	1732.58
446.30	2062.30
446.50	2697.17
446.71	3712.97
446.91	4458.43
447.12	4841.40
447.32	4884.41
447.53	4261.82
447.73	3919.81
447.93	3561.42
448.14	3448.78
448.34	3174.35
448.55	2998.23
448.75	2877.40
448.96	2785.24
449.16	2467.80
449.36	2260.96
449.57	2119.65
449.77	2019.30
449.98	1894.37
450.18	1808.36
450.39	1880.04
450.59	1837.03
450.79	1695.72
451.00	1759.21
451.20	1746.92
451.41	1673.19
451.61	1726.44
451.81	1693.67
452.02	1708.01
452.22	1755.11
452.43	1757.16
452.63	1640.42
452.84	1697.77
453.04	1712.10
453.24	1802.21
453.45	1730.53
453.65	1791.97
453.86	1843.17
454.06	1771.49
454.26	1732.58
454.47	1726.44
454.67	1832.93
454.87	1779.68
455.08	1826.79
455.28	1837.03
455.49	1714.15
455.69	1755.11
455.89	1943.52
456.10	1804.26
456.30	1798.12
456.51	1834.98
456.71	1886.18
456.91	1734.63
457.12	1746.92
457.32	1800.16
457.52	1636.33
457.73	1806.31
457.93	1837.03
458.14	1738.73
458.34	1697.77
458.54	1742.82
458.75	1716.20
458.95	1808.36
459.15	1820.64
459.36	1800.16
459.56	1832.93
459.76	1804.26
459.97	1785.83
460.17	1767.40
460.37	1789.92
460.58	1812.45
460.78	1738.73
460.99	1763.30
461.19	1763.30
461.39	1648.61
461.60	1734.63
461.80	1763.30
462.00	1697.77
462.21	1738.73
462.41	1650.66
462.61	1761.25
462.82	1652.71
463.02	1748.97
463.22	1701.86
463.43	1791.97
463.63	1787.88
463.83	1824.74
464.04	1806.31
464.24	1757.16
464.44	1763.30
464.64	1736.68
464.85	1867.75
465.05	1818.60
465.25	1740.77
465.46	1710.05
465.66	1773.54
465.86	1812.45
466.07	1814.50
466.27	1777.64
466.47	1673.19
466.68	1708.01
466.88	1820.64
467.08	1789.92
467.29	1769.44
467.49	1759.21
467.69	1675.24
467.89	1763.30
468.10	1705.96
468.30	1718.25
468.50	1761.25
468.71	1742.82
468.91	1726.44
469.11	1880.04
469.31	1677.29
469.52	1679.33
469.72	1820.64
469.92	1898.47
470.13	1761.25
470.33	1726.44
470.53	1867.75
470.73	2090.98
470.94	2258.91
471.14	2361.31
471.34	2584.54
471.54	2385.88
471.75	2242.53
471.95	2181.09
472.15	2117.60
472.36	2146.27
472.56	2131.94
472.76	2043.87
472.96	2037.73
473.17	1929.19
473.37	1970.15
473.57	1830.88
473.77	1832.93
473.98	1779.68
474.18	1736.68
474.38	1906.66
474.58	1705.96
474.79	1695.72
474.99	1822.69
475.19	1787.88
475.39	1681.38
475.60	1773.54
475.80	1673.19
476.00	1730.53
476.20	1738.73
476.41	1728.49
476.61	1828.84
476.81	1779.68
477.01	1665.00
477.21	1882.08
477.42	1808.36
477.62	1720.29
477.82	1845.22
478.02	1671.14
478.23	1843.17
478.43	1699.81
478.63	1746.92
478.83	1681.38
479.03	1718.25
479.24	1832.93
479.44	1873.89
479.64	1656.81
479.84	1732.58
480.04	1675.24
480.25	1720.29
480.45	1619.94
480.65	1736.68
480.85	1738.73
481.06	1734.63
481.26	1812.45
481.46	1763.30
481.66	1775.59
481.86	1728.49
482.06	1748.97
482.27	1718.25
482.47	1763.30
482.67	1808.36
482.87	1654.76
483.07	1812.45
483.28	1671.14
483.48	1644.52
483.68	1724.39
483.88	1718.25
484.08	1636.33
484.29	1679.33
484.49	1728.49
484.69	1648.61
484.89	1761.25
485.09	1775.59
485.29	1767.40
485.50	1802.21
485.70	1669.09
485.90	1859.56
486.10	1724.39
486.30	1779.68
486.50	1843.17
486.71	1794.02
486.91	1849.32
487.11	1802.21
487.31	1722.34
487.51	1695.72
487.71	1697.77
487.91	1751.01
488.12	1748.97
488.32	1591.27
488.52	1734.63
488.72	1632.23
488.92	1834.98
489.12	1794.02
489.32	1826.79
489.53	1732.58
489.73	1703.91
489.93	1853.41
490.13	1724.39
490.33	1644.52
490.53	1744.87
490.73	1814.50
490.94	1673.19
491.14	1744.87
491.34	1822.69
491.54	2185.18
491.74	2643.93
491.94	2983.89
492.14	3084.24
492.34	2963.41
492.54	2811.86
492.75	2592.73
492.95	2488.28
493.15	2346.97
493.35	2285.53
493.55	2252.77
493.75	2222.05
493.95	2158.56
494.15	1992.67
494.35	1908.71
494.56	1896.42
494.76	1789.92
494.96	1812.45
495.16	1769.44
495.36	1736.68
495.56	1759.21
495.76	1693.67
495.96	1757.16
496.16	1703.91
496.36	1822.69
496.56	1771.49
496.77	1826.79
496.97	1759.21
497.17	1732.58
497.37	1703.91
497.57	1791.97
497.77	1683.43
497.97	1681.38
498.17	1683.43
498.37	1710.05
498.57	1781.73
498.77	1703.91
498.97	1746.92
499.17	1855.46
499.38	1753.06
499.58	1763.30
499.78	1767.40
499.98	1804.26
500.18	1718.25
500.38	1785.83
500.58	1925.09
500.78	2535.39
500.98	4562.87
501.18	5984.16
501.38	6866.84
501.58	7307.15
501.78	6627.23
501.98	5547.95
502.18	4958.13
502.38	4458.43
502.58	4196.29
502.78	3798.98
502.98	3739.59
503.18	3440.59
503.38	3209.17
503.59	2916.31
503.79	2803.67
503.99	2557.91
504.19	2355.16
504.39	2279.39
504.59	2115.55
504.79	2131.94
504.99	2086.88
505.19	1914.85
505.39	1839.08
505.59	2043.87
505.79	1869.80
505.99	1937.38
506.19	1818.60
506.39	1828.84
506.59	1787.88
506.79	1783.78
506.99	1806.31
507.19	1818.60
507.39	1794.02
507.59	1705.96
507.79	1644.52
507.99	1673.19
508.19	1736.68
508.39	1624.04
508.59	1806.31
508.79	1826.79
508.99	1933.28
509.19	1718.25
509.39	1732.58
509.59	1677.29
509.79	1746.92
509.99	1800.16
510.19	1732.58
510.39	1796.07
510.59	1724.39
510.79	1791.97
510.99	1724.39
511.19	1769.44
511.39	1857.51
511.59	1775.59
511.79	1853.41
511.99	1736.68
512.19	1869.80
512.38	1816.55
512.58	1693.67
512.78	1716.20
512.98	1841.12
513.18	1777.64
513.38	1675.24
513.58	1837.03
513.78	1701.86
513.98	1736.68
514.18	1757.16
514.38	1697.77
514.58	1773.54
514.78	1708.01
514.98	1714.15
515.18	1773.54
515.38	1732.58
515.58	1828.84
515.78	1724.39
515.98	1742.82
516.18	1804.26
516.38	1781.73
516.57	1734.63
516.77	1771.49
516.97	1808.36
517.17	1701.86
517.37	1705.96
517.57	1798.12
517.77	1775.59
517.97	1742.82
518.17	1800.16
518.37	1708.01
518.57	1714.15
518.77	1753.06
518.97	1716.20
519.16	1751.01
519.36	1837.03
519.56	1734.63
519.76	1773.54
519.96	1787.88
520.16	1806.31
520.36	1736.68
520.56	1779.68
520.76	1628.14
520.96	1681.38
521.16	1779.68
521.35	1808.36
521.55	1855.46
521.75	1796.07
521.95	1673.19
522.15	1742.82
522.35	1656.81
522.55	1714.15
522.75	1755.11
522.95	1789.92
523.14	1642.47
523.34	1710.05
523.54	1734.63
523.74	1828.84
523.94	1773.54
524.14	1720.29
524.34	1773.54
524.54	1794.02
524.73	1695.72
524.93	1736.68
525.13	1845.22
525.33	1695.72
525.53	1896.42
525.73	1839.08
525.93	1705.96
526.13	1718.25
526.32	1740.77
526.52	1775.59
526.72	1748.97
526.92	1779.68
527.12	1785.83
527.32	1650.66
527.52	1742.82
527.71	1771.49
527.91	1697.77
528.11	1705.96
528.31	1763.30
528.51	1785.83
528.71	1820.64
528.90	1781.73
529.10	1796.07
529.30	1753.06
529.50	1701.86
529.70	1728.49
529.90	1767.40
530.09	1722.34
530.29	1755.11
530.49	1773.54
530.69	1943.52
530.89	1708.01
531.09	1863.65
531.28	1757.16
531.48	1789.92
531.68	1755.11
531.88	1740.77
532.08	1818.60
532.28	1708.01
532.47	1769.44
532.67	1826.79
532.87	1736.68
533.07	1673.19
533.27	1751.01
533.46	1767.40
533.66	1746.92
533.86	1765.35
534.06	1753.06
534.26	1839.08
534.45	1755.11
534.65	1845.22
534.85	1746.92
535.05	1812.45
535.25	1810.40
535.44	1634.28
535.64	1738.73
535.84	1789.92
536.04	1679.33
536.24	1773.54
536.43	1708.01
536.63	1703.91
536.83	1734.63
537.03	1779.68
537.22	1687.53
537.42	1566.70
537.62	1783.78
537.82	1722.34
538.02	1810.40
538.21	1826.79
538.41	1877.99
538.61	1734.63
538.81	1804.26
539.00	1841.12
539.20	1667.05
539.40	1718.25
539.60	1751.01
539.79	1744.87
539.99	1759.21
540.19	1744.87
540.39	1710.05
540.58	1761.25
540.78	1847.27
540.98	1785.83
541.18	1728.49
541.37	1728.49
541.57	1765.35
541.77	1789.92
541.97	1665.00
542.16	1665.00
542.36	1763.30
542.56	1738.73
542.76	1906.66
542.95	1839.08
543.15	1828.84
543.35	1732.58
543.54	1753.06
543.74	1656.81
543.94	1816.55
544.14	1773.54
544.33	1800.16
544.53	1697.77
544.73	1775.59
544.93	1687.53
545.12	1748.97
545.32	1834.98
545.52	1681.38
545.71	1730.53
545.91	1714.15
546.11	1746.92
546.30	1693.67
546.50	1726.44
546.70	1769.44
546.90	1699.81
547.09	1615.85
547.29	1736.68
547.49	1832.93
547.68	1763.30
547.88	1703.91
548.08	1781.73
548.27	2197.47
548.47	1773.54
548.67	1726.44
548.87	1800.16
549.06	1705.96
549.26	1796.07
549.46	1755.11
549.65	1742.82
549.85	1769.44
550.05	1812.45
550.24	1671.14
550.44	1759.21
550.64	1708.01
550.83	1738.73
551.03	1816.55
551.23	1798.12
551.42	1832.93
551.62	1767.40
551.82	1718.25
552.01	1773.54
552.21	1800.16
552.41	1771.49
552.60	1847.27
552.80	1839.08
553.00	1769.44
553.19	1806.31
553.39	1796.07
553.59	1691.62
553.78	1738.73
553.98	1753.06
554.17	1669.09
554.37	1773.54
554.57	1808.36
554.76	1658.85
554.96	1755.11
555.16	1730.53
555.35	1779.68
555.55	1783.78
555.75	1748.97
555.94	1841.12
556.14	1710.05
556.33	1826.79
556.53	1740.77
556.73	1740.77
556.92	1736.68
557.12	1673.19
557.32	1877.99
557.51	1804.26
557.71	1802.21
557.90	1916.90
558.10	1869.80
558.30	1771.49
558.49	1763.30
558.69	1736.68
558.88	1847.27
559.08	1742.82
559.28	1705.96
559.47	1738.73
559.67	1748.97
559.86	1888.23
560.06	1775.59
560.26	1763.30
560.45	1781.73
560.65	1759.21
560.84	1826.79
561.04	1744.87
561.24	1818.60
561.43	1714.15
561.63	1742.82
561.82	1783.78
562.02	1824.74
562.22	1683.43
562.41	1740.77
562.61	1679.33
562.80	1765.35
563.00	1920.99
563.19	1810.40
563.39	1810.40
563.59	1783.78
563.78	1722.34
563.98	1656.81
564.17	1740.77
564.37	1624.04
564.56	1714.15
564.76	1679.33
564.96	1837.03
565.15	1736.68
565.35	1871.84
565.54	1767.40
565.74	1820.64
565.93	1804.26
566.13	1730.53
566.32	1802.21
566.52	1820.64
566.71	1763.30
566.91	1722.34
567.11	1683.43
567.30	1730.53
567.50	1732.58
567.69	1804.26
567.89	1734.63
568.08	1630.18
568.28	1791.97
568.47	1693.67
568.67	1791.97
568.86	1667.05
569.06	1753.06
569.25	1828.84
569.45	1685.48
569.64	1716.20
569.84	1722.34
570.04	1787.88
570.23	1724.39
570.43	1808.36
570.62	1777.64
570.82	1855.46
571.01	1679.33
571.21	1689.57
571.40	1675.24
571.60	1791.97
571.79	1859.56
571.99	1730.53
572.18	1763.30
572.38	1791.97
572.57	1789.92
572.77	1775.59
572.96	1920.99
573.16	1798.12
573.35	1767.40
573.55	1865.70
573.74	1751.01
573.94	1761.25
574.13	1779.68
574.33	1847.27
574.52	1828.84
574.71	1746.92
574.91	1812.45
575.10	1673.19
575.30	1769.44
575.49	1722.34
575.69	1658.85
575.88	1828.84
576.08	1759.21
576.27	1800.16
576.47	1771.49
576.66	1898.47
576.86	1806.31
577.05	1755.11
577.25	1791.97
577.44	1781.73
577.64	1777.64
577.83	1787.88
578.02	1751.01
578.22	1794.02
578.41	1896.42
578.61	1710.05
578.80	1648.61
579.00	1771.49
579.19	1847.27
579.39	1794.02
579.58	1785.83
579.77	1763.30
579.97	1882.08
580.16	1937.38
580.36	1812.45
580.55	1845.22
580.75	1820.64
580.94	1763.30
581.13	1855.46
581.33	1818.60
581.52	1880.04
581.72	1798.12
581.91	1869.80
582.11	1798.12
582.30	1796.07
582.49	1820.64
582.69	1789.92
582.88	1859.56
583.08	1837.03
583.27	1931.23
583.47	1771.49
583.66	1820.64
583.85	1724.39
584.05	1726.44
584.24	1757.16
584.44	1841.12
584.63	1800.16
584.82	1927.14
585.02	1884.13
585.21	1882.08
585.41	1853.41
585.60	1787.88
585.79	1843.17
585.99	1912.80
586.18	1939.43
586.37	2236.38
586.57	3362.76
586.76	9957.22
586.96	24682.12
587.15	34565.62
587.34	40373.66
587.54	41700.74
587.73	36425.17
587.93	26009.20
588.12	21632.69
588.31	18153.20
588.51	16291.59
588.70	15314.71
588.89	14241.57
589.09	12488.51
589.28	10964.82
589.47	9365.36
589.67	7917.45
589.86	6352.80
590.06	4900.79
590.25	3889.09
590.44	3045.33
590.64	2631.64
590.83	2316.25
591.02	2123.74
591.22	2039.78
591.41	1980.39
591.60	1812.45
591.80	1996.77
591.99	1787.88
592.18	1816.55
592.38	1867.75
592.57	1755.11
592.76	1767.40
592.96	1771.49
593.15	1703.91
593.34	1830.88
593.54	1777.64
593.73	1781.73
593.92	1755.11
594.12	1699.81
594.31	1886.18
594.50	1808.36
594.70	1787.88
594.89	1910.75
595.08	1703.91
595.28	1863.65
595.47	1910.75
595.66	1800.16
595.86	1722.34
596.05	1736.68
596.24	1710.05
596.43	1886.18
596.63	1826.79
596.82	1779.68
597.01	1724.39
597.21	1820.64
597.40	1789.92
597.59	1765.35
597.79	1771.49
597.98	1826.79
598.17	1808.36
598.36	1665.00
598.56	1740.77
598.75	1658.85
598.94	1738.73
599.14	1669.09
599.33	1720.29
599.52	1714.15
599.71	1773.54
599.91	1783.78
600.10	1796.07
600.29	1722.34
600.48	1794.02
600.68	1757.16
600.87	1789.92
601.06	1755.11
601.26	1757.16
601.45	1832.93
601.64	1742.82
601.83	1779.68
602.03	1763.30
602.22	1718.25
602.41	1728.49
602.60	1888.23
602.80	1812.45
602.99	1777.64
603.18	1693.67
603.37	1734.63
603.57	1751.01
603.76	1789.92
603.95	1896.42
604.14	1720.29
604.34	1763.30
604.53	1781.73
604.72	1757.16
604.91	1775.59
605.10	1746.92
605.30	1734.63
605.49	1929.19
605.68	1726.44
605.87	1769.44
606.07	1753.06
606.26	1748.97
606.45	1791.97
606.64	1804.26
606.84	1695.72
607.03	1748.97
607.22	1789.92
607.41	1763.30
607.60	1636.33
607.80	1771.49
607.99	1724.39
608.18	1738.73
608.37	1820.64
608.56	1681.38
608.76	1822.69
608.95	1894.37
609.14	1738.73
609.33	1828.84
609.52	1763.30
609.72	1738.73
609.91	1787.88
610.10	1726.44
610.29	1806.31
610.48	1765.35
610.68	1837.03
610.87	1738.73
611.06	1855.46
611.25	1710.05
611.44	1812.45
611.63	1691.62
611.83	1746.92
612.02	1759.21
612.21	1839.08
612.40	1671.14
612.59	1648.61
612.79	1683.43
612.98	1837.03
613.17	1857.51
613.36	1773.54
613.55	1820.64
613.74	1665.00
613.93	1771.49
614.13	1720.29
614.32	1830.88
614.51	1796.07
614.70	1697.77
614.89	1697.77
615.08	1865.70
615.28	2113.50
615.47	1660.90
615.66	1773.54
615.85	1650.66
616.04	1832.93
616.23	1771.49
616.42	1769.44
616.62	1763.30
616.81	1787.88
617.00	1710.05
617.19	1804.26
617.38	1673.19
617.57	1804.26
617.76	1755.11
617.95	1779.68
618.15	1802.21
618.34	1849.32
618.53	1685.48
618.72	1925.09
618.91	1812.45
619.10	1808.36
619.29	1812.45
619.48	1757.16
619.68	1675.24
619.87	1722.34
620.06	1640.42
620.25	1759.21
620.44	1763.30
620.63	1722.34
620.82	1781.73
621.01	1767.40
621.20	1730.53
621.39	1708.01
621.59	1753.06
621.78	1705.96
621.97	1789.92
622.16	1841.12
622.35	1777.64
622.54	1763.30
622.73	1751.01
622.92	1615.85
623.11	1841.12
623.30	1685.48
623.49	1806.31
623.68	1716.20
623.88	1820.64
624.07	1730.53
624.26	1748.97
624.45	1738.73
624.64	1728.49
624.83	1691.62
625.02	1734.63
625.21	1763.30
625.40	1712.10
625.59	1837.03
625.78	1759.21
625.97	1732.58
626.16	1744.87
626.35	1800.16
626.54	1806.31
626.74	1820.64
626.93	1789.92
627.12	1755.11
627.31	1794.02
627.50	1771.49
627.69	1769.44
627.88	1703.91
628.07	1685.48
628.26	1652.71
628.45	1677.29
628.64	1675.24
628.83	1779.68
629.02	1662.95
629.21	1781.73
629.40	1757.16
629.59	1679.33
629.78	1722.34
629.97	1697.77
630.16	1804.26
630.35	1669.09
630.54	1708.01
630.73	1767.40
630.92	1726.44
631.11	1669.09
631.30	1722.34
631.49	1779.68
631.68	1759.21
631.87	1810.40
632.06	1619.94
632.25	1908.71
632.44	1705.96
632.63	1679.33
632.82	1677.29
633.01	1744.87
633.20	1652.71
633.39	1722.34
633.58	1705.96
633.77	1738.73
633.96	1693.67
634.15	1753.06
634.34	1853.41
634.53	1726.44
634.72	1789.92
634.91	1665.00
635.10	1759.21
635.29	1771.49
635.48	1775.59
635.67	1691.62
635.86	1689.57
636.05	1767.40
636.24	1785.83
636.43	1783.78
636.62	1736.68
636.81	1593.32
637.00	1718.25
637.19	1746.92
637.38	1740.77
637.57	1665.00
637.76	1613.80
637.95	1708.01
638.14	1734.63
638.33	1736.68
638.52	1681.38
638.71	1777.64
638.89	1685.48
639.08	1849.32
639.27	1798.12
639.46	1628.14
639.65	1800.16
639.84	1701.86
640.03	1777.64
640.22	1642.47
640.41	1867.75
640.60	1677.29
640.79	1744.87
640.98	1734.63
641.17	1736.68
641.36	1736.68
641.55	1800.16
641.74	1683.43
641.92	1699.81
642.11	1697.77
642.30	1677.29
642.49	1689.57
642.68	1732.58
642.87	1771.49
643.06	1796.07
643.25	1753.06
643.44	1701.86
643.63	1701.86
643.82	1755.11
644.00	1671.14
644.19	1730.53
644.38	1714.15
644.57	1785.83
644.76	1753.06
644.95	1759.21
645.14	1767.40
645.33	1693.67
645.52	1732.58
645.71	1673.19
645.89	1660.90
646.08	1861.60
646.27	1695.72
646.46	1937.38
646.65	1738.73
646.84	1783.78
647.03	1705.96
647.22	1720.29
647.40	1855.46
647.59	1726.44
647.78	1695.72
647.97	1683.43
648.16	1755.11
648.35	1798.12
648.54	1832.93
648.73	1748.97
648.91	1849.32
649.10	1714.15
649.29	1804.26
649.48	1755.11
649.67	1748.97
649.86	1722.34
650.05	1701.86
650.23	1812.45
650.42	1708.01
650.61	1724.39
650.80	1796.07
650.99	1806.31
651.18	1748.97
651.36	1789.92
651.55	1695.72
651.74	1800.16
651.93	1648.61
652.12	1718.25
652.31	1726.44
652.49	1697.77
652.68	1712.10
652.87	1779.68
653.06	1771.49
653.25	1859.56
653.44	1820.64
653.62	1806.31
653.81	1714.15
654.00	1685.48
654.19	1779.68
654.38	1884.13
654.56	1748.97
654.75	1697.77
654.94	1851.36
655.13	1800.16
655.32	1710.05
655.51	1726.44
655.69	1742.82
655.88	1763.30
656.07	1693.67
656.26	1802.21
656.45	1681.38
656.63	1705.96
656.82	1746.92
657.01	1746.92
657.20	1728.49
657.38	1767.40
657.57	1712.10
657.76	1624.04
657.95	1730.53
658.14	1701.86
658.32	1722.34
658.51	1722.34
658.70	1681.38
658.89	1705.96
659.08	1691.62
659.26	1822.69
659.45	1644.52
659.64	1703.91
659.83	1628.14
660.01	1898.47
660.20	1699.81
660.39	1814.50
660.58	1626.09
660.76	1759.21
660.95	1660.90
661.14	1771.49
661.33	1632.23
661.51	1746.92
661.70	1708.01
661.89	1791.97
662.08	1716.20
662.26	1712.10
662.45	1638.38
662.64	1832.93
662.83	1701.86
663.01	1642.47
663.20	1734.63
663.39	1839.08
663.58	1703.91
663.76	1724.39
663.95	1685.48
664.14	1705.96
664.32	1691.62
664.51	1699.81
664.70	1646.57
664.89	1757.16
665.07	1628.14
665.26	1816.55
665.45	1662.95
665.64	1720.29
665.82	1720.29
666.01	1796.07
666.20	1675.24
666.38	1818.60
666.57	1796.07
666.76	2127.84
666.95	4739.00
667.13	10751.84
667.32	15490.84
667.51	17860.34
667.69	19322.59
667.88	17671.92
668.07	12330.82
668.25	9637.74
668.44	8214.40
668.63	7432.08
668.81	6807.45
669.00	6270.88
669.19	5666.73
669.38	5015.48
669.56	4521.92
669.75	3973.06
669.94	3397.58
670.12	3016.66
670.31	2537.43
670.50	2250.72
670.68	2123.74
670.87	1890.28
671.06	1843.17
671.24	1816.55
671.43	1888.23
671.62	1740.77
671.80	1746.92
671.99	1796.07
672.18	1763.30
672.36	1847.27
672.55	1730.53
672.74	1705.96
672.92	1779.68
673.11	1794.02
673.29	1658.85
673.48	1779.68
673.67	1654.76
673.85	1806.31
674.04	1708.01
674.23	1796.07
674.41	1748.97
674.60	1712.10
674.79	1591.27
674.97	1689.57
675.16	1742.82
675.34	1812.45
675.53	1740.77
675.72	1783.78
675.90	1781.73
676.09	1691.62
676.28	1724.39
676.46	1671.14
676.65	1708.01
676.83	1687.53
677.02	1755.11
677.21	1755.11
677.39	1755.11
677.58	1689.57
677.77	1708.01
677.95	1679.33
678.14	1681.38
678.32	1675.24
678.51	1693.67
678.70	1763.30
678.88	1705.96
679.07	1767.40
679.25	1759.21
679.44	1722.34
679.63	1685.48
679.81	1701.86
680.00	1794.02
680.18	1796.07
680.37	1744.87
680.55	1748.97
680.74	1609.70
680.93	1669.09
681.11	1810.40
681.30	1806.31
681.48	1818.60
681.67	1697.77
681.85	1781.73
682.04	1779.68
682.23	1791.97
682.41	1785.83
682.60	1761.25
682.78	1718.25
682.97	1652.71
683.15	1804.26
683.34	1720.29
683.53	1775.59
683.71	1712.10
683.90	1742.82
684.08	1742.82
684.27	1800.16
684.45	1740.77
684.64	1771.49
684.82	1650.66
685.01	1822.69
685.19	1677.29
685.38	1759.21
685.57	1806.31
685.75	1732.58
685.94	1697.77
686.12	1699.81
686.31	1677.29
686.49	1849.32
686.68	1648.61
686.86	1798.12
687.05	1703.91
687.23	1826.79
687.42	1669.09
687.60	1650.66
687.79	1791.97
687.97	1791.97
688.16	1808.36
688.34	1830.88
688.53	1732.58
688.71	1742.82
688.90	1751.01
689.08	1677.29
689.27	1642.47
689.45	1763.30
689.64	1732.58
689.82	1632.23
690.01	1773.54
690.19	1746.92
690.38	1689.57
690.56	1814.50
690.75	1681.38
690.93	1636.33
691.12	1650.66
691.30	1796.07
691.49	1628.14
691.67	1701.86
691.86	1785.83
692.04	1685.48
692.23	1730.53
692.41	1677.29
692.60	1820.64
692.78	1771.49
692.97	1654.76
693.15	1693.67
693.34	1900.52
693.52	1732.58
693.71	1720.29
693.89	1630.18
694.08	1617.90
694.26	1751.01
694.44	1779.68
694.63	1755.11
694.81	1722.34
695.00	1708.01
695.18	1740.77
695.37	1892.32
695.55	1714.15
695.74	1652.71
695.92	1656.81
696.10	1839.08
696.29	1587.18
696.47	1718.25
696.66	1660.90
696.84	1626.09
697.03	1675.24
697.21	1824.74
697.40	2385.88
697.58	1828.84
697.76	1714.15
697.95	1705.96
698.13	1665.00
698.32	1656.81
698.50	1742.82
698.68	1746.92
698.87	1679.33
699.05	1800.16
699.24	1757.16
699.42	1726.44
699.61	1798.12
699.79	1796.07
699.97	1671.14
700.16	1701.86
700.34	1677.29
700.53	1685.48
700.71	1859.56
700.89	1812.45
701.08	1665.00
701.26	1697.77
701.45	2162.66
701.63	1681.38
701.81	1742.82
702.00	1703.91
702.18	1712.10
702.37	1685.48
702.55	1757.16
702.73	1722.34
702.92	1701.86
703.10	1724.39
703.28	1740.77
703.47	1697.77
703.65	1810.40
703.84	1675.24
704.02	1724.39
704.20	1765.35
704.39	1726.44
704.57	1703.91
704.75	1740.77
704.94	1751.01
705.12	1734.63
705.30	1804.26
705.49	2244.57
705.67	4624.31
705.86	9738.09
706.04	12644.16
706.22	14501.67
706.41	15458.07
706.59	13788.97
706.77	9447.28
706.96	7362.45
707.14	6559.64
707.32	5965.73
707.51	5640.11
707.69	4939.70
707.87	4134.85
708.06	3487.69
708.24	3035.09
708.42	2498.52
708.61	2199.52
708.79	1923.04
708.97	1900.52
709.16	1912.80
709.34	1728.49
709.52	1730.53
709.71	1722.34
709.89	1751.01
710.07	1744.87
710.26	1632.23
710.44	1697.77
710.62	1769.44
710.80	1716.20
710.99	1751.01
711.17	1728.49
711.35	1699.81
711.54	1740.77
711.72	1800.16
711.90	1753.06
712.09	1689.57
712.27	1763.30
712.45	1755.11
712.63	1738.73
712.82	1685.48
713.00	1701.86
713.18	1804.26
713.37	1679.33
713.55	1791.97
713.73	1724.39
713.91	1771.49
714.10	1744.87
714.28	1712.10
714.46	1791.97
714.65	1785.83
714.83	1722.34
715.01	1601.51
715.19	1796.07
715.38	1701.86
715.56	1746.92
715.74	1683.43
715.92	1683.43
716.11	1757.16
716.29	1646.57
716.47	1689.57
716.65	1665.00
716.84	1722.34
717.02	1796.07
717.20	1595.37
717.38	1613.80
717.57	1708.01
717.75	1708.01
717.93	1642.47
718.11	1703.91
718.30	1662.95
718.48	1734.63
718.66	1751.01
718.84	1796.07
719.03	1716.20
719.21	1646.57
719.39	1892.32
719.57	1695.72
719.75	1773.54
719.94	1712.10
720.12	1718.25
720.30	1726.44
720.48	1769.44
720.67	1714.15
720.85	1648.61
721.03	1662.95
721.21	1705.96
721.39	1832.93
721.58	1691.62
721.76	1785.83
721.94	1734.63
722.12	1767.40
722.30	1779.68
722.49	1675.24
722.67	1640.42
722.85	1789.92
723.03	1599.46
723.21	1650.66
723.40	1787.88
723.58	1724.39
723.76	1736.68
723.94	1740.77
724.12	1720.29
724.30	1757.16
724.49	1748.97
724.67	1632.23
724.85	1806.31
725.03	1619.94
725.21	1802.21
725.40	1828.84
725.58	1648.61
725.76	1814.50
725.94	1767.40
726.12	1722.34
726.30	1765.35
726.49	1744.87
726.67	1705.96
726.85	1714.15
727.03	1804.26
727.21	2160.61
727.39	3055.57
727.57	4024.26
727.76	4216.77
727.94	4605.88
728.12	4411.32
728.30	3758.02
728.48	3055.57
728.66	2723.80
728.84	2574.30
729.03	2371.55
729.21	2226.14
729.39	2007.01
729.57	1914.85
729.75	1791.97
729.93	1861.60
730.11	1683.43
730.30	1738.73
730.48	1722.34
730.66	1787.88
730.84	1726.44
731.02	1765.35
731.20	1751.01
731.38	1812.45
731.56	1689.57
731.74	1708.01
731.93	1763.30
732.11	1671.14
732.29	1703.91
732.47	1705.96
732.65	1773.54
732.83	1748.97
733.01	1783.78
733.19	1611.75
733.37	1734.63
733.56	1677.29
733.74	1679.33
733.92	1783.78
734.10	1705.96
734.28	1683.43
734.46	1558.50
734.64	1744.87
734.82	1720.29
735.00	1681.38
735.18	1718.25
735.36	1673.19
735.54	1726.44
735.73	1826.79
735.91	1730.53
736.09	1771.49
736.27	1796.07
736.45	1751.01
736.63	1673.19
736.81	1703.91
736.99	1794.02
737.17	1800.16
737.35	1724.39
737.53	1785.83
737.71	1738.73
737.89	1867.75
738.07	1691.62
738.25	1712.10
738.43	1669.09
738.61	1720.29
738.80	1660.90
738.98	1599.46
739.16	1738.73
739.34	1705.96
739.52	1832.93
739.70	1718.25
739.88	1783.78
740.06	1824.74
740.24	1662.95
740.42	1806.31
740.60	1605.61
740.78	1646.57
740.96	1673.19
741.14	1738.73
741.32	1746.92
741.50	1605.61
741.68	1849.32
741.86	1802.21
742.04	1673.19
742.22	1624.04
742.40	1767.40
742.58	1724.39
742.76	1613.80
742.94	1814.50
743.12	1675.24
743.30	1763.30
743.48	1791.97
743.66	1632.23
743.84	1759.21
744.02	1644.52
744.20	1808.36
744.38	1669.09
744.56	1673.19
744.74	1824.74
744.92	1718.25
745.10	1834.98
745.28	1726.44
745.46	1908.71
745.64	1722.34
745.82	1755.11
746.00	1746.92
746.18	1726.44
746.36	1718.25
746.54	1697.77
746.72	1660.90
746.90	1710.05
747.08	1802.21
747.26	1685.48
747.44	1746.92
747.62	1794.02
747.80	1687.53
747.98	1843.17
748.15	1783.78
748.33	1890.28
748.51	1705.96
748.69	1751.01
748.87	1697.77
749.05	1652.71
749.23	1607.66
749.41	1783.78
749.59	1689.57
749.77	1728.49
749.95	1740.77
750.13	1654.76
750.31	1773.54
750.49	1751.01
750.67	1734.63
750.85	1830.88
751.03	1767.40
751.20	1877.99
751.38	1757.16
751.56	1683.43
751.74	1710.05
751.92	1724.39
752.10	1689.57
752.28	1728.49
752.46	1652.71
752.64	1755.11
752.82	1695.72
753.00	1777.64
753.18	1693.67
753.35	1730.53
753.53	1675.24
753.71	1705.96
753.89	1740.77
754.07	1769.44
754.25	1751.01
754.43	1728.49
754.61	1665.00
754.79	1761.25
754.97	1701.86
755.14	1730.53
755.32	1613.80
755.50	1812.45
755.68	1697.77
755.86	1695.72
756.04	1667.05
756.22	1603.56
756.40	1787.88
756.57	1789.92
756.75	1677.29
756.93	1777.64
757.11	1777.64
757.29	1662.95
757.47	1644.52
757.65	1640.42
757.82	1533.93
758.00	1626.09
758.18	1705.96
758.36	1660.90
758.54	1808.36
758.72	1603.56
758.90	1804.26
759.07	1746.92
759.25	1691.62
759.43	1714.15
759.61	1689.57
759.79	2160.61
759.97	1714.15
760.15	1728.49
760.32	1687.53
760.50	1761.25
760.68	1796.07
760.86	1671.14
761.04	1779.68
761.22	1755.11
761.39	1714.15
761.57	1791.97
761.75	1751.01
761.93	1751.01
762.11	1683.43
762.28	1718.25
762.46	1660.90
762.64	1773.54
762.82	1634.28
763.00	1728.49
763.18	1849.32
763.35	1578.98
763.53	1767.40
763.71	1714.15
763.89	1671.14
764.07	1718.25
764.24	1755.11
764.42	1753.06
764.60	1718.25
764.78	1701.86
764.96	1775.59
765.13	1796.07
765.31	1703.91
765.49	1736.68
765.67	1701.86
765.84	1632.23
766.02	1722.34
766.20	1699.81
766.38	1771.49
766.56	1748.97
766.73	1710.05
766.91	1669.09
767.09	1773.54
767.27	1800.16
767.44	1665.00
767.62	1763.30
767.80	1718.25
767.98	1703.91
768.15	1691.62
768.33	1748.97
768.51	1808.36
768.69	1814.50
768.87	1775.59
769.04	1691.62
769.22	1918.95
769.40	1724.39
769.58	1853.41
769.75	1697.77
769.93	1767.40
770.11	1769.44
770.28	1677.29
770.46	1701.86
770.64	1730.53
770.82	1642.47
770.99	1628.14
771.17	1656.81
771.35	1722.34
771.53	1693.67
771.70	1775.59
771.88	1796.07
772.06	1710.05
772.23	1679.33
772.41	1701.86
772.59	1699.81
772.77	1691.62
772.94	1755.11
773.12	1720.29
773.30	1708.01
773.47	1701.86
773.65	1628.14
773.83	1798.12
774.01	1789.92
774.18	1667.05
774.36	1693.67
774.54	1705.96
774.71	1628.14
774.89	1675.24
775.07	1669.09
775.24	1656.81
775.42	1726.44
775.60	1861.60
775.78	1669.09
775.95	1583.08
776.13	1624.04
776.31	1607.66
776.48	1757.16
776.66	1849.32
776.84	1658.85
777.01	1632.23
777.19	1648.61
777.37	1642.47
777.54	1740.77
777.72	1777.64
777.90	1734.63
778.07	1697.77
778.25	1849.32
778.43	1742.82
778.60	1755.11
778.78	1812.45
778.96	1791.97
779.13	1605.61
779.31	1765.35
779.49	1753.06
779.66	1714.15
779.84	1712.10
780.01	1722.34
780.19	1724.39
780.37	1710.05
780.54	1845.22
780.72	1654.76
780.90	1720.29
781.07	1650.66
781.25	1671.14
781.43	1687.53
781.60	1714.15
781.78	1877.99
781.95	1779.68
782.13	1722.34
782.31	1755.11
782.48	1570.79
782.66	1683.43
782.83	1828.84
783.01	1722.34
783.19	1767.40
783.36	1699.81
783.54	1714.15
783.72	1751.01
783.89	1759.21
784.07	1800.16
784.24	1689.57
784.42	1794.02
784.60	1740.77
784.77	1789.92
784.95	1677.29
785.12	1656.81
785.30	1630.18
785.47	1712.10
785.65	1617.90
785.83	1652.71
786.00	1681.38
786.18	1650.66
786.35	1689.57
786.53	1691.62
786.71	1742.82
786.88	1732.58
787.06	1728.49
787.23	1697.77
787.41	1685.48
787.58	1748.97
787.76	1718.25
787.94	1685.48
788.11	1710.05
788.29	1685.48
788.46	1744.87
788.64	1634.28
788.81	1656.81
788.99	1679.33
789.16	1656.81
789.34	1802.21
789.52	1658.85
789.69	1681.38
789.87	1642.47
790.04	1767.40
790.22	1748.97
790.39	1845.22
790.57	1746.92
790.74	1689.57
790.92	1789.92
791.09	1585.13
791.27	1710.05
791.44	1785.83
791.62	1703.91
791.79	1730.53
791.97	1789.92
792.15	1888.23
792.32	1701.86
792.50	1763.30
792.67	1853.41
792.85	1806.31
793.02	1714.15
793.20	1615.85
793.37	1632.23
793.55	1673.19
793.72	1601.51
793.90	1771.49
794.07	1722.34
794.25	1689.57
794.42	1699.81
794.60	1722.34
794.77	1765.35
794.95	1732.58
795.12	1826.79
795.30	1726.44
795.47	1685.48
795.65	1875.94
795.82	1705.96
796.00	1693.67
796.17	1650.66
796.34	1685.48
796.52	1673.19
796.69	1751.01
796.87	1796.07
797.04	1714.15
797.22	1775.59
797.39	1691.62
797.57	1724.39
797.74	1734.63
797.92	1683.43
798.09	1685.48
798.27	1761.25
798.44	1755.11
798.62	1681.38
798.79	1695.72
798.96	1804.26
799.14	1654.76
799.31	1865.70
799.49	1734.63
799.66	1669.09
799.84	1665.00
800.01	1595.37
800.19	1773.54
800.36	1652.71
800.53	1681.38
800.71	1779.68
800.88	1804.26
801.06	1693.67
801.23	1722.34
801.41	1732.58
801.58	1654.76
801.75	1705.96
801.93	1751.01
802.10	1796.07
802.28	1689.57
802.45	1642.47
802.63	1742.82
802.80	1812.45
802.97	1716.20
803.15	1685.48
803.32	1720.29
803.50	1595.37
803.67	1660.90
803.84	1599.46
804.02	1726.44
804.19	1716.20
804.37	1599.46
804.54	1742.82
804.71	1734.63
804.89	1751.01
805.06	1693.67
805.24	1763.30
805.41	1675.24
805.58	1650.66
805.76	1820.64
805.93	1806.31
806.10	1828.84
806.28	1710.05
806.45	1771.49
806.63	1806.31
806.80	1718.25
806.97	1730.53
807.15	1714.15
807.32	1722.34
807.49	1708.01
807.67	1646.57
807.84	1708.01
808.01	1597.42
808.19	1845.22
808.36	1789.92
808.54	1669.09
808.71	1712.10
808.88	1693.67
809.06	1683.43
809.23	1789.92
809.40	1660.90
809.58	1724.39
809.75	1669.09
809.92	1605.61
810.10	1931.23
810.27	1798.12
810.44	1734.63
810.62	1832.93
810.79	1736.68
810.96	1634.28
811.14	1716.20
811.31	1679.33
811.48	1789.92
811.66	1714.15
811.83	1773.54
812.00	1802.21
812.18	1746.92
812.35	1802.21
812.52	1638.38
812.69	1665.00
812.87	1718.25
813.04	1708.01
813.21	1751.01
813.39	1652.71
813.56	1640.42
813.73	1804.26
813.91	1605.61
814.08	1734.63
814.25	1681.38
814.42	1679.33
814.60	1630.18
814.77	1808.36
814.94	1738.73
815.12	1732.58
815.29	1755.11
815.46	1691.62
815.63	1638.38
815.81	1759.21
815.98	1675.24
816.15	1705.96
816.33	1781.73
816.50	1667.05
816.67	1759.21
816.84	1710.05
817.02	1732.58
817.19	1781.73
817.36	1697.77
817.53	1685.48
817.71	1683.43
817.88	1777.64
818.05	1722.34
818.22	1775.59
818.40	1806.31
818.57	1646.57
818.74	1675.24
818.91	1765.35
819.09	1708.01
819.26	1802.21
819.43	1705.96
819.60	1660.90
819.78	1783.78
819.95	1820.64
820.12	1624.04
820.29	1812.45
820.47	1787.88
820.64	1621.99
820.81	1624.04
820.98	1611.75
821.15	1759.21
821.33	1804.26
821.50	1634.28
821.67	1675.24
821.84	1665.00
822.02	1748.97
822.19	1738.73
822.36	1720.29
822.53	1648.61
822.70	1591.27
822.88	1705.96
823.05	1796.07
823.22	1699.81
823.39	1724.39
823.56	1744.87
823.74	1863.65
823.91	1732.58
824.08	1609.70
824.25	1703.91
824.42	1802.21
824.60	1613.80
824.77	1730.53
824.94	1720.29
825.11	1728.49
825.28	1597.42
825.45	1683.43
825.63	1714.15
825.80	1748.97
825.97	1701.86
826.14	1740.77
826.31	1685.48
826.48	1796.07
826.66	1658.85
826.83	1607.66
827.00	1730.53
827.17	1689.57
827.34	1798.12
827.51	1708.01
827.69	1703.91
827.86	1660.90
828.03	1769.44
828.20	1720.29
828.37	1660.90
828.54	1734.63
828.71	1744.87
828.89	1812.45
829.06	1710.05
829.23	1822.69
829.40	1628.14
829.57	1751.01
829.74	1708.01
829.91	1740.77
830.09	1669.09
830.26	1802.21
830.43	1832.93
830.60	1748.97
830.77	1867.75
830.94	1697.77
831.11	1773.54
831.28	1685.48
831.46	1763.30
831.63	1699.81
831.80	1712.10
831.97	1703.91
832.14	1728.49
832.31	1794.02
832.48	1699.81
832.65	1824.74
832.82	1660.90
832.99	1767.40
833.17	1617.90
833.34	1832.93
833.51	1751.01
833.68	1632.23
833.85	1777.64
834.02	1626.09
834.19	1679.33
834.36	1609.70
834.53	1738.73
834.70	1781.73
834.87	1794.02
835.04	1689.57
835.22	1718.25
835.39	1687.53
835.56	1644.52
835.73	1771.49
835.90	1683.43
836.07	1619.94
836.24	1695.72
836.41	1708.01
836.58	1693.67
836.75	1734.63
836.92	1771.49
837.09	1662.95
837.26	1787.88
837.43	1710.05
837.60	1781.73
837.77	1746.92
837.94	1744.87
838.12	1757.16
838.29	1728.49
838.46	1652.71
838.63	1714.15
838.80	1806.31
838.97	1746.92
839.14	1748.97
839.31	1632.23
839.48	1689.57
839.65	1671.14
839.82	1763.30
839.99	1757.16
840.16	1732.58
840.33	1669.09
840.50	1773.54
840.67	1693.67
840.84	1628.14
841.01	1689.57
841.18	1662.95
841.35	1691.62
841.52	1720.29
841.69	1837.03
841.86	1675.24
842.03	1769.44
842.20	1728.49
842.37	1720.29
842.54	1697.77
842.71	1720.29
842.88	1683.43
843.05	1718.25
843.22	1689.57
843.39	1730.53
843.56	1761.25
843.73	1708.01
843.90	1726.44
844.07	1693.67
844.24	1744.87
844.41	1714.15
844.58	1736.68
844.75	1695.72
844.92	1724.39
845.09	1732.58
845.26	1658.85
845.43	1695.72
845.60	1689.57
845.77	1763.30
845.94	1701.86
846.10	1769.44
846.27	1701.86
846.44	1685.48
846.61	1640.42
846.78	1671.14
846.95	1816.55
847.12	1599.46
847.29	1689.57
847.46	1652.71
847.63	1722.34
847.80	1638.38
847.97	1736.68
848.14	1857.51
848.31	1746.92
848.48	1636.33
848.65	1751.01
848.82	1695.72
848.98	1824.74
849.15	1732.58
849.32	1806.31
849.49	1716.20
849.66	1705.96
849.83	1609.70
850.00	1566.70
850.17	1759.21
850.34	1665.00
850.51	1654.76
850.68	1746.92
850.85	1865.70
851.01	1736.68
851.18	1755.11
851.35	1722.34
851.52	1802.21
851.69	1861.60
851.86	1593.32
852.03	1697.77
852.20	1734.63
852.37	1802.21
852.53	1589.22
852.70	1722.34
852.87	1736.68
853.04	1732.58
853.21	1714.15
853.38	1722.34
853.55	1734.63
853.72	1830.88
853.89	1669.09
854.05	1722.34
854.22	1744.87
854.39	1785.83
854.56	1753.06
854.73	1816.55
854.90	1640.42
855.07	1632.23
855.23	1679.33
855.40	1697.77
855.57	1660.90
855.74	1638.38
855.91	1853.41
856.08	1685.48
856.25	1628.14
856.41	1695.72
856.58	1656.81
856.75	1685.48
856.92	1607.66
857.09	1828.84
857.26	1548.26
857.42	1757.16
857.59	1765.35
857.76	1673.19
857.93	1761.25
858.10	1724.39
858.27	1669.09
858.43	1724.39
858.60	1634.28
858.77	1595.37
858.94	1722.34
859.11	1751.01
859.27	1708.01
859.44	1683.43
859.61	1871.84
859.78	1775.59
859.95	1722.34
860.12	1665.00
860.28	1847.27
860.45	1834.98
860.62	1669.09
860.79	1673.19
860.95	1746.92
861.12	1648.61
861.29	1683.43
861.46	1597.42
861.63	1697.77
861.79	1699.81
861.96	1636.33
862.13	1689.57
862.30	1826.79
862.47	1615.85
862.63	1597.42
862.80	1796.07
862.97	1732.58
863.14	1740.77
863.30	1689.57
863.47	1722.34
863.64	1783.78
863.81	1683.43
863.97	1718.25
864.14	1767.40
864.31	1718.25
864.48	1812.45
864.65	1677.29
864.81	1730.53
864.98	1832.93
865.15	1726.44
865.32	1730.53
865.48	1794.02
865.65	1828.84
865.82	1718.25
865.98	1736.68
866.15	1806.31
866.32	1734.63
866.49	1679.33
866.65	1777.64
866.82	1621.99
866.99	1769.44
867.16	1740.77
867.32	1644.52
867.49	1734.63
867.66	1685.48
867.83	1708.01
867.99	1595.37
868.16	1689.57
868.33	1662.95
868.49	1710.05
868.66	1701.86
868.83	1787.88
868.99	1685.48
869.16	1720.29
869.33	1800.16
869.50	1697.77
869.66	1761.25
869.83	1767.40
870.00	1650.66
870.16	1757.16
870.33	1775.59
870.50	1841.12
870.66	1759.21
870.83	1785.83
871.00	1648.61
871.17	1765.35
871.33	1783.78
871.50	1703.91
871.67	1740.77
871.83	1660.90
872.00	1781.73
872.17	1683.43
872.33	1800.16
872.50	1769.44
872.67	1632.23
872.83	1757.16
873.00	1701.86
873.17	1730.53
873.33	1753.06
873.50	1759.21
873.67	1626.09
873.83	1730.53
874.00	1667.05
874.16	1716.20
874.33	1691.62
874.50	1626.09
874.66	1685.48
874.83	1714.15
875.00	1648.61
875.16	1824.74
875.33	1775.59
875.50	1652.71
875.66	1644.52
875.83	1753.06
875.99	1779.68
876.16	1718.25
876.33	1699.81
876.49	1640.42
876.66	1728.49
876.83	1677.29
876.99	1640.42
877.16	1751.01
877.32	1652.71
877.49	1665.00
877.66	1779.68
877.82	1828.84
877.99	1773.54
878.15	1796.07
878.32	1720.29
878.49	1755.11
878.65	1662.95
878.82	1800.16
878.98	1730.53
879.15	1761.25
879.32	1742.82
879.48	1787.88
879.65	1665.00
879.81	1667.05
879.98	1654.76
880.15	1724.39
880.31	1665.00
880.48	1667.05
880.64	1781.73
880.81	1767.40
880.97	1800.16
881.14	1789.92
881.31	1673.19
881.47	1873.89
881.64	1695.72
881.80	1589.22
881.97	1738.73
882.13	1763.30
882.30	1626.09
882.47	1636.33
882.63	1652.71
882.80	1730.53
882.96	1658.85
883.13	1822.69
883.29	1640.42
883.46	1726.44
883.62	1888.23
883.79	1742.82
883.95	1681.38
884.12	1699.81
884.29	1740.77
884.45	1714.15
884.62	1773.54
884.78	1714.15
884.95	1828.84
885.11	1708.01
885.28	1744.87
885.44	1683.43
885.61	1703.91
885.77	1806.31
885.94	1728.49
886.10	1714.15
886.27	1738.73
886.43	1845.22
886.60	1654.76
886.76	1634.28
886.93	1701.86
887.09	1691.62
887.26	1599.46
887.42	1697.77
887.59	1779.68
887.75	1882.08
887.92	1787.88
888.08	1757.16
888.25	1843.17
888.41	1714.15
888.58	1734.63
888.74	1640.42
888.91	1632.23
>>>>>End Processed Spectral Data<<<<<
