SpectraSuite Data File
++++++++++++++++++++++++++++++++++++
Date: Mon Jun 06 17:10:17 CEST 2016
User: root
Dark Spectrum Present: No
Reference Spectrum Present: No
Number of Sampled Component Spectra: 1
Spectrometers: USB4C02835
Integration Time (usec): 100000 (USB4C02835)
Spectra Averaged: 1 (USB4C02835)
Boxcar Smoothing: 0 (USB4C02835)
Correct for Electrical Dark: No (USB4C02835)
Strobe/Lamp Enabled: No (USB4C02835)
Correct for Detector Non-linearity: No (USB4C02835)
Correct for Stray Light: No (USB4C02835)
Number of Pixels in Processed Spectrum: 3648
>>>>>Begin Processed Spectral Data<<<<<
177.47	1441.77
177.69	1441.77
177.91	1441.77
178.13	1484.78
178.36	1470.44
178.58	1621.99
178.80	1699.81
179.02	1681.38
179.24	1650.66
179.46	1671.14
179.68	1730.53
179.90	1632.23
180.13	1656.81
180.35	1777.64
180.57	1695.72
180.79	1763.30
181.01	1759.21
181.23	1693.67
181.45	1791.97
181.67	1673.19
181.90	1722.34
182.12	1732.58
182.34	1665.00
182.56	1726.44
182.78	1738.73
183.00	1699.81
183.22	1720.29
183.44	1693.67
183.66	1810.40
183.89	1841.12
184.11	1712.10
184.33	1662.95
184.55	1701.86
184.77	1683.43
184.99	1765.35
185.21	1640.42
185.43	1880.04
185.65	1652.71
185.87	1699.81
186.10	1837.03
186.32	1816.55
186.54	1765.35
186.76	1685.48
186.98	1771.49
187.20	1660.90
187.42	1669.09
187.64	1765.35
187.86	1687.53
188.08	1791.97
188.30	1701.86
188.52	1796.07
188.75	1734.63
188.97	1810.40
189.19	1624.04
189.41	1652.71
189.63	1753.06
189.85	1701.86
190.07	1556.46
190.29	1619.94
190.51	1748.97
190.73	1673.19
190.95	1804.26
191.17	1716.20
191.39	1662.95
191.61	1591.27
191.84	1732.58
192.06	1748.97
192.28	1564.65
192.50	1916.90
192.72	1773.54
192.94	1722.34
193.16	1787.88
193.38	1693.67
193.60	1671.14
193.82	1656.81
194.04	1759.21
194.26	1667.05
194.48	1800.16
194.70	1689.57
194.92	1626.09
195.14	1804.26
195.36	1697.77
195.58	1636.33
195.80	1755.11
196.02	1677.29
196.24	1761.25
196.46	1726.44
196.69	1697.77
196.91	1847.27
197.13	1757.16
197.35	1675.24
197.57	1779.68
197.79	1677.29
198.01	1662.95
198.23	1720.29
198.45	1806.31
198.67	1624.04
198.89	1650.66
199.11	1740.77
199.33	1714.15
199.55	1630.18
199.77	1732.58
199.99	1751.01
200.21	1667.05
200.43	1697.77
200.65	1626.09
200.87	1621.99
201.09	1728.49
201.31	1646.57
201.53	1746.92
201.75	1636.33
201.97	1818.60
202.19	1751.01
202.41	1800.16
202.63	1839.08
202.85	1658.85
203.07	1699.81
203.29	1740.77
203.51	1701.86
203.73	1597.42
203.95	1906.66
204.17	1751.01
204.39	1705.96
204.61	1689.57
204.83	1712.10
205.05	1771.49
205.27	1785.83
205.49	1775.59
205.71	1753.06
205.93	1652.71
206.15	1630.18
206.37	1714.15
206.59	1681.38
206.81	1650.66
207.03	1648.61
207.25	1574.89
207.47	1720.29
207.69	1759.21
207.91	1746.92
208.13	1824.74
208.34	1640.42
208.56	1675.24
208.78	1806.31
209.00	1650.66
209.22	1705.96
209.44	1800.16
209.66	1744.87
209.88	1671.14
210.10	1665.00
210.32	1681.38
210.54	1828.84
210.76	1705.96
210.98	1687.53
211.20	1605.61
211.42	1755.11
211.64	1718.25
211.86	1738.73
212.08	1798.12
212.30	1718.25
212.52	1722.34
212.74	1798.12
212.96	1730.53
213.17	1681.38
213.39	1761.25
213.61	1798.12
213.83	1839.08
214.05	1615.85
214.27	1832.93
214.49	1738.73
214.71	1671.14
214.93	1798.12
215.15	1730.53
215.37	1812.45
215.59	1669.09
215.81	1763.30
216.03	1738.73
216.24	1699.81
216.46	1722.34
216.68	1767.40
216.90	1767.40
217.12	1828.84
217.34	1701.86
217.56	1812.45
217.78	1728.49
218.00	1701.86
218.22	1683.43
218.44	1767.40
218.66	1710.05
218.87	1779.68
219.09	1714.15
219.31	1763.30
219.53	1660.90
219.75	1714.15
219.97	1660.90
220.19	1691.62
220.41	1697.77
220.63	1828.84
220.85	1787.88
221.06	1691.62
221.28	1789.92
221.50	1738.73
221.72	1734.63
221.94	1658.85
222.16	1746.92
222.38	1761.25
222.60	1769.44
222.82	1771.49
223.03	1812.45
223.25	1646.57
223.47	1728.49
223.69	1824.74
223.91	1742.82
224.13	1732.58
224.35	1595.37
224.57	1779.68
224.78	1843.17
225.00	1611.75
225.22	1714.15
225.44	1683.43
225.66	1761.25
225.88	1720.29
226.10	1753.06
226.32	1738.73
226.53	1826.79
226.75	1716.20
226.97	1638.38
227.19	1724.39
227.41	1742.82
227.63	1685.48
227.85	1699.81
228.06	1769.44
228.28	1708.01
228.50	1732.58
228.72	1624.04
228.94	1714.15
229.16	1603.56
229.37	1640.42
229.59	1763.30
229.81	1744.87
230.03	1714.15
230.25	1574.89
230.47	1632.23
230.69	1656.81
230.90	1710.05
231.12	1714.15
231.34	1730.53
231.56	1781.73
231.78	1640.42
232.00	1708.01
232.21	1685.48
232.43	1736.68
232.65	1705.96
232.87	1722.34
233.09	1636.33
233.30	1738.73
233.52	1826.79
233.74	1697.77
233.96	1775.59
234.18	1730.53
234.40	1730.53
234.61	1837.03
234.83	1675.24
235.05	1703.91
235.27	1847.27
235.49	1714.15
235.70	1660.90
235.92	1755.11
236.14	1734.63
236.36	1830.88
236.58	1638.38
236.79	1761.25
237.01	1759.21
237.23	1787.88
237.45	1767.40
237.67	1701.86
237.88	1736.68
238.10	1773.54
238.32	1624.04
238.54	1703.91
238.76	1740.77
238.97	1636.33
239.19	1652.71
239.41	1740.77
239.63	1763.30
239.85	1689.57
240.06	1679.33
240.28	1603.56
240.50	1757.16
240.72	1681.38
240.93	1654.76
241.15	1759.21
241.37	1687.53
241.59	1777.64
241.81	1759.21
242.02	1722.34
242.24	1765.35
242.46	1755.11
242.68	1656.81
242.89	1732.58
243.11	1806.31
243.33	1673.19
243.55	1753.06
243.76	1767.40
243.98	1652.71
244.20	1638.38
244.42	1691.62
244.64	1671.14
244.85	1648.61
245.07	1705.96
245.29	1841.12
245.51	1734.63
245.72	1644.52
245.94	1742.82
246.16	1644.52
246.38	1765.35
246.59	1763.30
246.81	1648.61
247.03	1675.24
247.24	1597.42
247.46	1632.23
247.68	1746.92
247.90	1738.73
248.11	1714.15
248.33	1806.31
248.55	1679.33
248.77	1687.53
248.98	1695.72
249.20	1822.69
249.42	1736.68
249.64	1759.21
249.85	1632.23
250.07	1681.38
250.29	1732.58
250.50	1738.73
250.72	1652.71
250.94	1773.54
251.16	1873.89
251.37	1777.64
251.59	1738.73
251.81	1748.97
252.02	1771.49
252.24	1691.62
252.46	1720.29
252.68	1634.28
252.89	1662.95
253.11	1673.19
253.33	1849.32
253.54	1769.44
253.76	1691.62
253.98	1626.09
254.20	1687.53
254.41	1689.57
254.63	1691.62
254.85	1691.62
255.06	1781.73
255.28	1767.40
255.50	1689.57
255.71	1673.19
255.93	1638.38
256.15	1683.43
256.36	1771.49
256.58	1636.33
256.80	1712.10
257.02	1740.77
257.23	1744.87
257.45	1710.05
257.67	1812.45
257.88	1650.66
258.10	1816.55
258.32	1660.90
258.53	1736.68
258.75	1791.97
258.97	1693.67
259.18	1777.64
259.40	1699.81
259.62	1820.64
259.83	1798.12
260.05	1761.25
260.27	1968.10
260.48	1857.51
260.70	1669.09
260.92	1720.29
261.13	1718.25
261.35	1685.48
261.57	1734.63
261.78	1640.42
262.00	1710.05
262.22	1720.29
262.43	1755.11
262.65	1757.16
262.86	1687.53
263.08	1804.26
263.30	1716.20
263.51	1632.23
263.73	1728.49
263.95	1851.36
264.16	1632.23
264.38	1671.14
264.60	1716.20
264.81	1646.57
265.03	1724.39
265.25	1716.20
265.46	1667.05
265.68	1812.45
265.89	1679.33
266.11	1652.71
266.33	1759.21
266.54	1794.02
266.76	1708.01
266.98	1822.69
267.19	1783.78
267.41	1742.82
267.62	1738.73
267.84	1624.04
268.06	1740.77
268.27	1708.01
268.49	1730.53
268.70	1794.02
268.92	1695.72
269.14	1740.77
269.35	1652.71
269.57	1734.63
269.79	1779.68
270.00	1673.19
270.22	1787.88
270.43	1652.71
270.65	1652.71
270.87	1734.63
271.08	1751.01
271.30	1763.30
271.51	1771.49
271.73	1714.15
271.95	1830.88
272.16	1679.33
272.38	1738.73
272.59	1710.05
272.81	1656.81
273.02	1728.49
273.24	1660.90
273.46	1734.63
273.67	1714.15
273.89	1685.48
274.10	1734.63
274.32	1746.92
274.54	1609.70
274.75	1734.63
274.97	1734.63
275.18	1800.16
275.40	1794.02
275.61	1775.59
275.83	1677.29
276.05	1695.72
276.26	1779.68
276.48	1724.39
276.69	1669.09
276.91	1705.96
277.12	1767.40
277.34	1789.92
277.55	1701.86
277.77	1718.25
277.99	1720.29
278.20	1636.33
278.42	1699.81
278.63	1669.09
278.85	1701.86
279.06	1671.14
279.28	1755.11
279.49	1753.06
279.71	1783.78
279.93	1753.06
280.14	1665.00
280.36	1675.24
280.57	1767.40
280.79	1769.44
281.00	1667.05
281.22	1683.43
281.43	1718.25
281.65	1595.37
281.86	1658.85
282.08	1789.92
282.29	1818.60
282.51	1681.38
282.73	1669.09
282.94	1628.14
283.16	1718.25
283.37	1843.17
283.59	1710.05
283.80	1685.48
284.02	1755.11
284.23	1734.63
284.45	1603.56
284.66	1630.18
284.88	1681.38
285.09	1710.05
285.31	1740.77
285.52	1710.05
285.74	1615.85
285.95	1804.26
286.17	1689.57
286.38	1773.54
286.60	1689.57
286.81	1617.90
287.03	1679.33
287.24	1705.96
287.46	1732.58
287.67	1763.30
287.89	1804.26
288.10	1710.05
288.32	1718.25
288.53	1789.92
288.75	1693.67
288.96	1771.49
289.18	1609.70
289.39	1705.96
289.61	1773.54
289.82	1798.12
290.04	1841.12
290.25	1617.90
290.47	1660.90
290.68	1738.73
290.90	1708.01
291.11	1634.28
291.33	1759.21
291.54	1648.61
291.76	1654.76
291.97	1710.05
292.18	1701.86
292.40	1662.95
292.61	1685.48
292.83	1867.75
293.04	1800.16
293.26	1714.15
293.47	1691.62
293.69	1689.57
293.90	1712.10
294.12	1730.53
294.33	1732.58
294.55	1671.14
294.76	1769.44
294.97	1798.12
295.19	1810.40
295.40	1697.77
295.62	1732.58
295.83	1644.52
296.05	1648.61
296.26	1757.16
296.48	1679.33
296.69	1621.99
296.90	1740.77
297.12	1746.92
297.33	1751.01
297.55	1761.25
297.76	1773.54
297.98	1738.73
298.19	1701.86
298.41	1740.77
298.62	1716.20
298.83	1765.35
299.05	1757.16
299.26	1632.23
299.48	1656.81
299.69	1701.86
299.90	1697.77
300.12	1632.23
300.33	1763.30
300.55	1660.90
300.76	1710.05
300.98	1681.38
301.19	1667.05
301.40	1607.66
301.62	1667.05
301.83	1744.87
302.05	1796.07
302.26	1650.66
302.47	1732.58
302.69	1683.43
302.90	1759.21
303.12	1576.94
303.33	1771.49
303.54	1808.36
303.76	1617.90
303.97	1767.40
304.19	1789.92
304.40	1732.58
304.61	1705.96
304.83	1853.41
305.04	1689.57
305.26	1746.92
305.47	1650.66
305.68	1730.53
305.90	1685.48
306.11	1767.40
306.33	1634.28
306.54	1714.15
306.75	1628.14
306.97	1726.44
307.18	1642.47
307.39	1763.30
307.61	1789.92
307.82	1708.01
308.04	1796.07
308.25	1619.94
308.46	1757.16
308.68	1683.43
308.89	1683.43
309.10	1755.11
309.32	1685.48
309.53	1703.91
309.74	1765.35
309.96	1726.44
310.17	1708.01
310.39	1652.71
310.60	1712.10
310.81	1716.20
311.03	1722.34
311.24	1761.25
311.45	1693.67
311.67	1892.32
311.88	1665.00
312.09	1742.82
312.31	1728.49
312.52	1673.19
312.73	1685.48
312.95	1656.81
313.16	1615.85
313.37	1820.64
313.59	1724.39
313.80	1804.26
314.01	1832.93
314.23	1691.62
314.44	1681.38
314.65	1644.52
314.87	1630.18
315.08	1722.34
315.29	1689.57
315.51	1662.95
315.72	1607.66
315.93	1830.88
316.15	1761.25
316.36	1681.38
316.57	1718.25
316.79	1722.34
317.00	1726.44
317.21	1755.11
317.43	1681.38
317.64	1685.48
317.85	1691.62
318.07	1683.43
318.28	1681.38
318.49	1837.03
318.70	1867.75
318.92	1832.93
319.13	1832.93
319.34	1914.85
319.56	1791.97
319.77	1839.08
319.98	1783.78
320.20	1800.16
320.41	1732.58
320.62	1802.21
320.83	1681.38
321.05	1892.32
321.26	1751.01
321.47	1779.68
321.69	1755.11
321.90	1621.99
322.11	1697.77
322.32	1722.34
322.54	1920.99
322.75	1705.96
322.96	1791.97
323.18	1619.94
323.39	1578.98
323.60	1675.24
323.81	1701.86
324.03	1632.23
324.24	1734.63
324.45	1763.30
324.66	1755.11
324.88	1744.87
325.09	1812.45
325.30	1769.44
325.52	1691.62
325.73	1697.77
325.94	1642.47
326.15	1621.99
326.37	1632.23
326.58	1808.36
326.79	1867.75
327.00	1646.57
327.22	1697.77
327.43	1673.19
327.64	1603.56
327.85	1705.96
328.07	1820.64
328.28	1869.80
328.49	1755.11
328.70	1720.29
328.92	1751.01
329.13	1701.86
329.34	1730.53
329.55	1834.98
329.76	1705.96
329.98	1767.40
330.19	1791.97
330.40	1798.12
330.61	1712.10
330.83	1667.05
331.04	1591.27
331.25	1697.77
331.46	1656.81
331.68	1660.90
331.89	1740.77
332.10	1714.15
332.31	1673.19
332.52	1687.53
332.74	1744.87
332.95	1677.29
333.16	1681.38
333.37	1695.72
333.58	1697.77
333.80	1734.63
334.01	1587.18
334.22	1662.95
334.43	1718.25
334.64	1650.66
334.86	1665.00
335.07	1607.66
335.28	1806.31
335.49	1691.62
335.70	1832.93
335.92	1728.49
336.13	1810.40
336.34	1701.86
336.55	1691.62
336.76	1681.38
336.98	1550.31
337.19	1714.15
337.40	1830.88
337.61	1863.65
337.82	1681.38
338.04	1755.11
338.25	1642.47
338.46	1708.01
338.67	1757.16
338.88	1646.57
339.09	1671.14
339.31	1705.96
339.52	1626.09
339.73	1638.38
339.94	1732.58
340.15	1691.62
340.36	1662.95
340.58	1683.43
340.79	1794.02
341.00	1751.01
341.21	1603.56
341.42	1832.93
341.63	1751.01
341.85	1710.05
342.06	1705.96
342.27	1652.71
342.48	1695.72
342.69	1621.99
342.90	1687.53
343.12	1849.32
343.33	1728.49
343.54	1777.64
343.75	1753.06
343.96	1722.34
344.17	1648.61
344.38	1601.51
344.60	1791.97
344.81	1628.14
345.02	1662.95
345.23	1740.77
345.44	1867.75
345.65	1810.40
345.86	1742.82
346.07	1644.52
346.29	1621.99
346.50	1804.26
346.71	1751.01
346.92	1742.82
347.13	1841.12
347.34	1757.16
347.55	1738.73
347.76	1718.25
347.98	1613.80
348.19	1710.05
348.40	1789.92
348.61	1701.86
348.82	1814.50
349.03	1779.68
349.24	1642.47
349.45	1755.11
349.66	1587.18
349.88	1636.33
350.09	1710.05
350.30	1789.92
350.51	1794.02
350.72	1712.10
350.93	1810.40
351.14	1724.39
351.35	1738.73
351.56	1728.49
351.77	1658.85
351.99	1773.54
352.20	1849.32
352.41	1785.83
352.62	1607.66
352.83	1738.73
353.04	1710.05
353.25	1699.81
353.46	1800.16
353.67	1714.15
353.88	1648.61
354.09	1761.25
354.30	1626.09
354.52	1777.64
354.73	1705.96
354.94	1685.48
355.15	1705.96
355.36	1834.98
355.57	1691.62
355.78	1734.63
355.99	1585.13
356.20	1703.91
356.41	1812.45
356.62	1798.12
356.83	1660.90
357.04	1812.45
357.25	1593.32
357.46	1732.58
357.68	1644.52
357.89	1671.14
358.10	1763.30
358.31	1718.25
358.52	1660.90
358.73	1617.90
358.94	1617.90
359.15	1722.34
359.36	1744.87
359.57	1734.63
359.78	1730.53
359.99	1746.92
360.20	1638.38
360.41	1683.43
360.62	1685.48
360.83	1615.85
361.04	1744.87
361.25	1763.30
361.46	1808.36
361.67	1720.29
361.88	1716.20
362.09	1734.63
362.30	1697.77
362.51	1673.19
362.72	1771.49
362.93	1791.97
363.14	1787.88
363.35	1789.92
363.56	1683.43
363.78	1759.21
363.99	1697.77
364.20	1675.24
364.41	1740.77
364.62	1769.44
364.83	1767.40
365.04	1714.15
365.25	1763.30
365.46	1787.88
365.67	1705.96
365.88	1609.70
366.09	1728.49
366.30	1665.00
366.51	1708.01
366.72	1697.77
366.93	1718.25
367.14	1689.57
367.35	1789.92
367.56	1730.53
367.77	1808.36
367.98	1697.77
368.18	1810.40
368.39	1681.38
368.60	1712.10
368.81	1802.21
369.02	1751.01
369.23	1728.49
369.44	1675.24
369.65	1761.25
369.86	1783.78
370.07	1710.05
370.28	1652.71
370.49	1720.29
370.70	1765.35
370.91	1621.99
371.12	1650.66
371.33	1714.15
371.54	1671.14
371.75	1796.07
371.96	1581.03
372.17	1714.15
372.38	1716.20
372.59	1806.31
372.80	1701.86
373.01	1701.86
373.22	1716.20
373.43	1753.06
373.64	1675.24
373.85	1814.50
374.06	1808.36
374.26	1781.73
374.47	1767.40
374.68	1800.16
374.89	1794.02
375.10	1783.78
375.31	1677.29
375.52	1703.91
375.73	1708.01
375.94	1679.33
376.15	1783.78
376.36	1718.25
376.57	1656.81
376.78	1732.58
376.99	1708.01
377.20	1808.36
377.40	1736.68
377.61	1828.84
377.82	1605.61
378.03	1726.44
378.24	1718.25
378.45	1656.81
378.66	1802.21
378.87	1669.09
379.08	1619.94
379.29	1669.09
379.50	1863.65
379.71	1656.81
379.91	1687.53
380.12	1683.43
380.33	1701.86
380.54	1685.48
380.75	1697.77
380.96	1669.09
381.17	1734.63
381.38	1687.53
381.59	1689.57
381.80	1787.88
382.00	1765.35
382.21	1775.59
382.42	1857.51
382.63	1853.41
382.84	1748.97
383.05	1763.30
383.26	1789.92
383.47	1691.62
383.68	1755.11
383.88	1771.49
384.09	1718.25
384.30	1841.12
384.51	1769.44
384.72	1740.77
384.93	1599.46
385.14	1736.68
385.35	1826.79
385.55	1581.03
385.76	1748.97
385.97	1714.15
386.18	1644.52
386.39	1703.91
386.60	1675.24
386.81	1673.19
387.02	1701.86
387.22	1648.61
387.43	1779.68
387.64	1753.06
387.85	1888.23
388.06	2179.04
388.27	4155.33
388.48	6666.14
388.68	8193.92
388.89	9541.49
389.10	9703.28
389.31	8472.45
389.52	7548.81
389.73	6668.19
389.93	6172.58
390.14	5953.45
390.35	5214.13
390.56	4499.39
390.77	3794.89
390.98	3024.85
391.18	2588.63
391.39	2185.18
391.60	1802.21
391.81	1871.84
392.02	1777.64
392.23	1839.08
392.43	1763.30
392.64	1802.21
392.85	1726.44
393.06	1800.16
393.27	1718.25
393.47	1675.24
393.68	1728.49
393.89	1660.90
394.10	1804.26
394.31	1673.19
394.52	1714.15
394.72	1683.43
394.93	1834.98
395.14	1734.63
395.35	1615.85
395.56	1724.39
395.76	1787.88
395.97	1800.16
396.18	1800.16
396.39	1865.70
396.60	1947.62
396.80	1898.47
397.01	1910.75
397.22	1845.22
397.43	1826.79
397.64	1753.06
397.84	1812.45
398.05	1890.28
398.26	1812.45
398.47	1837.03
398.67	1869.80
398.88	1759.21
399.09	1740.77
399.30	1773.54
399.51	1734.63
399.71	1689.57
399.92	1681.38
400.13	1712.10
400.34	1738.73
400.54	1683.43
400.75	1738.73
400.96	1703.91
401.17	1789.92
401.37	1708.01
401.58	1816.55
401.79	1691.62
402.00	1861.60
402.21	2045.92
402.41	1998.82
402.62	1947.62
402.83	2099.17
403.04	1955.81
403.24	2166.75
403.45	1765.35
403.66	1896.42
403.87	1855.46
404.07	1935.33
404.28	1929.19
404.49	1937.38
404.70	1742.82
404.90	1787.88
405.11	1818.60
405.32	1818.60
405.52	1650.66
405.73	1634.28
405.94	1705.96
406.15	1695.72
406.35	1644.52
406.56	1753.06
406.77	1742.82
406.98	1734.63
407.18	1687.53
407.39	1828.84
407.60	1658.85
407.80	1763.30
408.01	1693.67
408.22	1726.44
408.43	1724.39
408.63	1814.50
408.84	1718.25
409.05	1732.58
409.25	1667.05
409.46	1699.81
409.67	1685.48
409.88	1652.71
410.08	1765.35
410.29	1656.81
410.50	1783.78
410.70	1763.30
410.91	1656.81
411.12	1781.73
411.32	1726.44
411.53	1697.77
411.74	1736.68
411.95	1785.83
412.15	1779.68
412.36	1755.11
412.57	1767.40
412.77	1783.78
412.98	1691.62
413.19	1665.00
413.39	1775.59
413.60	1763.30
413.81	1820.64
414.01	1708.01
414.22	1804.26
414.43	1699.81
414.63	1716.20
414.84	1814.50
415.05	1673.19
415.25	1646.57
415.46	1742.82
415.67	1593.32
415.87	1708.01
416.08	1738.73
416.29	1658.85
416.49	1804.26
416.70	1681.38
416.91	1646.57
417.11	1640.42
417.32	1763.30
417.53	1738.73
417.73	1689.57
417.94	1667.05
418.15	1759.21
418.35	1783.78
418.56	1748.97
418.77	1902.56
418.97	1681.38
419.18	1730.53
419.38	1574.89
419.59	1681.38
419.80	1787.88
420.00	1673.19
420.21	1740.77
420.42	1798.12
420.62	1759.21
420.83	1767.40
421.04	1624.04
421.24	1746.92
421.45	1820.64
421.65	1744.87
421.86	1675.24
422.07	1796.07
422.27	1746.92
422.48	1662.95
422.69	1705.96
422.89	1757.16
423.10	1712.10
423.30	1671.14
423.51	1697.77
423.72	1714.15
423.92	1761.25
424.13	1667.05
424.33	1695.72
424.54	1746.92
424.75	1773.54
424.95	1867.75
425.16	1738.73
425.36	1714.15
425.57	1748.97
425.78	1783.78
425.98	1736.68
426.19	1654.76
426.39	1718.25
426.60	1722.34
426.81	1781.73
427.01	1660.90
427.22	1677.29
427.42	1671.14
427.63	1685.48
427.83	1742.82
428.04	1867.75
428.25	1794.02
428.45	1804.26
428.66	1775.59
428.86	1728.49
429.07	1677.29
429.28	1732.58
429.48	1759.21
429.69	1767.40
429.89	1689.57
430.10	1667.05
430.30	1767.40
430.51	1728.49
430.71	1675.24
430.92	1701.86
431.13	1687.53
431.33	1849.32
431.54	1751.01
431.74	1873.89
431.95	1886.18
432.15	1630.18
432.36	1669.09
432.56	1761.25
432.77	1757.16
432.98	1798.12
433.18	1771.49
433.39	1648.61
433.59	1679.33
433.80	1798.12
434.00	1863.65
434.21	1669.09
434.41	1718.25
434.62	1886.18
434.82	1714.15
435.03	1658.85
435.23	1726.44
435.44	1652.71
435.64	1755.11
435.85	1697.77
436.06	1783.78
436.26	1687.53
436.47	1636.33
436.67	1689.57
436.88	1673.19
437.08	1783.78
437.29	1828.84
437.49	1724.39
437.70	1806.31
437.90	1652.71
438.11	1822.69
438.31	1785.83
438.52	1908.71
438.72	1861.60
438.93	1871.84
439.13	1820.64
439.34	1845.22
439.54	1783.78
439.75	1738.73
439.95	1816.55
440.16	1665.00
440.36	1808.36
440.57	1701.86
440.77	1757.16
440.98	1767.40
441.18	1687.53
441.39	1734.63
441.59	1632.23
441.80	1890.28
442.00	1787.88
442.21	1843.17
442.41	1560.55
442.62	1703.91
442.82	1769.44
443.02	1751.01
443.23	1785.83
443.43	1757.16
443.64	1761.25
443.84	1689.57
444.05	1837.03
444.25	1787.88
444.46	1744.87
444.66	1742.82
444.87	1769.44
445.07	1636.33
445.28	1648.61
445.48	1832.93
445.69	1791.97
445.89	1855.46
446.09	1771.49
446.30	2035.68
446.50	2635.74
446.71	3760.07
446.91	4378.56
447.12	4759.48
447.32	4728.76
447.53	4388.80
447.73	3772.36
447.93	3573.71
448.14	3286.99
448.34	3117.01
448.55	2811.86
448.75	2803.67
448.96	2715.61
449.16	2445.27
449.36	2256.86
449.57	2121.70
449.77	1894.37
449.98	1810.40
450.18	1771.49
450.39	1808.36
450.59	1812.45
450.79	1761.25
451.00	1740.77
451.20	1724.39
451.41	1658.85
451.61	1742.82
451.81	1808.36
452.02	1689.57
452.22	1734.63
452.43	1734.63
452.63	1740.77
452.84	1755.11
453.04	1722.34
453.24	1769.44
453.45	1746.92
453.65	1761.25
453.86	1736.68
454.06	1816.55
454.26	1775.59
454.47	1697.77
454.67	1830.88
454.87	1748.97
455.08	1714.15
455.28	1847.27
455.49	1720.29
455.69	1697.77
455.89	1873.89
456.10	1726.44
456.30	1755.11
456.51	1787.88
456.71	1773.54
456.91	1738.73
457.12	1755.11
457.32	1714.15
457.52	1652.71
457.73	1832.93
457.93	1665.00
458.14	1732.58
458.34	1691.62
458.54	1800.16
458.75	1751.01
458.95	1877.99
459.15	1753.06
459.36	1722.34
459.56	1742.82
459.76	1902.56
459.97	1705.96
460.17	1677.29
460.37	1796.07
460.58	1724.39
460.78	1763.30
460.99	1644.52
461.19	1734.63
461.39	1716.20
461.60	1673.19
461.80	1783.78
462.00	1634.28
462.21	1660.90
462.41	1751.01
462.61	1699.81
462.82	1714.15
463.02	1740.77
463.22	1736.68
463.43	1849.32
463.63	1751.01
463.83	1710.05
464.04	1832.93
464.24	1751.01
464.44	1648.61
464.64	1775.59
464.85	1798.12
465.05	1843.17
465.25	1751.01
465.46	1714.15
465.66	1710.05
465.86	1738.73
466.07	1634.28
466.27	1787.88
466.47	1605.61
466.68	1705.96
466.88	1779.68
467.08	1744.87
467.29	1863.65
467.49	1791.97
467.69	1773.54
467.89	1834.98
468.10	1652.71
468.30	1746.92
468.50	1859.56
468.71	1785.83
468.91	1658.85
469.11	1779.68
469.31	1722.34
469.52	1697.77
469.72	1748.97
469.92	1867.75
470.13	1755.11
470.33	1744.87
470.53	1765.35
470.73	2107.36
470.94	2316.25
471.14	2410.46
471.34	2525.15
471.54	2408.41
471.75	2285.53
471.95	2148.32
472.15	2097.12
472.36	2086.88
472.56	2101.22
472.76	2017.25
472.96	2052.06
473.17	1947.62
473.37	1863.65
473.57	1771.49
473.77	1804.26
473.98	1818.60
474.18	1652.71
474.38	1849.32
474.58	1658.85
474.79	1638.38
474.99	1724.39
475.19	1748.97
475.39	1779.68
475.60	1740.77
475.80	1724.39
476.00	1726.44
476.20	1665.00
476.41	1726.44
476.61	1853.41
476.81	1802.21
477.01	1658.85
477.21	1837.03
477.42	1783.78
477.62	1648.61
477.82	1837.03
478.02	1738.73
478.23	1712.10
478.43	1644.52
478.63	1667.05
478.83	1665.00
479.03	1703.91
479.24	1771.49
479.44	1804.26
479.64	1708.01
479.84	1646.57
480.04	1662.95
480.25	1812.45
480.45	1591.27
480.65	1763.30
480.85	1761.25
481.06	1656.81
481.26	1785.83
481.46	1806.31
481.66	1724.39
481.86	1683.43
482.06	1832.93
482.27	1703.91
482.47	1718.25
482.67	1746.92
482.87	1677.29
483.07	1810.40
483.28	1689.57
483.48	1636.33
483.68	1710.05
483.88	1634.28
484.08	1611.75
484.29	1660.90
484.49	1722.34
484.69	1650.66
484.89	1859.56
485.09	1775.59
485.29	1726.44
485.50	1800.16
485.70	1720.29
485.90	1781.73
486.10	1708.01
486.30	1816.55
486.50	1763.30
486.71	1781.73
486.91	1767.40
487.11	1824.74
487.31	1697.77
487.51	1771.49
487.71	1624.04
487.91	1642.47
488.12	1646.57
488.32	1638.38
488.52	1628.14
488.72	1587.18
488.92	1693.67
489.12	1861.60
489.32	1861.60
489.53	1830.88
489.73	1662.95
489.93	1808.36
490.13	1728.49
490.33	1669.09
490.53	1681.38
490.73	1869.80
490.94	1642.47
491.14	1785.83
491.34	1867.75
491.54	2099.17
491.74	2492.38
491.94	2926.55
492.14	3012.56
492.34	3004.37
492.54	2729.94
492.75	2547.67
492.95	2439.13
493.15	2346.97
493.35	2330.59
493.55	2279.39
493.75	2138.08
493.95	2045.92
494.15	2039.78
494.35	1941.47
494.56	1865.70
494.76	1779.68
494.96	1818.60
495.16	1843.17
495.36	1662.95
495.56	1822.69
495.76	1730.53
495.96	1740.77
496.16	1722.34
496.36	1839.08
496.56	1753.06
496.77	1763.30
496.97	1675.24
497.17	1847.27
497.37	1654.76
497.57	1730.53
497.77	1714.15
497.97	1667.05
498.17	1744.87
498.37	1656.81
498.57	1781.73
498.77	1777.64
498.97	1800.16
499.17	1892.32
499.38	1755.11
499.58	1837.03
499.78	1830.88
499.98	1826.79
500.18	1695.72
500.38	1718.25
500.58	1916.90
500.78	2635.74
500.98	4528.06
501.18	5867.43
501.38	6760.34
501.58	7073.68
501.78	6688.67
501.98	5582.76
502.18	5078.96
502.38	4556.73
502.58	4122.56
502.78	3684.30
502.98	3649.48
503.18	3452.88
503.38	3151.82
503.59	2818.00
503.79	2744.28
503.99	2537.43
504.19	2273.25
504.39	2191.33
504.59	2230.24
504.79	2183.13
504.99	2133.98
505.19	1939.43
505.39	1914.85
505.59	1984.48
505.79	1914.85
505.99	1783.78
506.19	1779.68
506.39	1894.37
506.59	1765.35
506.79	1816.55
506.99	1869.80
507.19	1732.58
507.39	1791.97
507.59	1708.01
507.79	1753.06
507.99	1771.49
508.19	1777.64
508.39	1714.15
508.59	1673.19
508.79	1802.21
508.99	1933.28
509.19	1730.53
509.39	1800.16
509.59	1710.05
509.79	1695.72
509.99	1619.94
510.19	1886.18
510.39	1761.25
510.59	1779.68
510.79	1685.48
510.99	1671.14
511.19	1724.39
511.39	1865.70
511.59	1771.49
511.79	1785.83
511.99	1763.30
512.19	1832.93
512.38	1703.91
512.58	1673.19
512.78	1673.19
512.98	1806.31
513.18	1705.96
513.38	1656.81
513.58	1839.08
513.78	1800.16
513.98	1755.11
514.18	1728.49
514.38	1740.77
514.58	1789.92
514.78	1718.25
514.98	1718.25
515.18	1718.25
515.38	1675.24
515.58	1839.08
515.78	1716.20
515.98	1806.31
516.18	1794.02
516.38	1734.63
516.57	1718.25
516.77	1665.00
516.97	1818.60
517.17	1751.01
517.37	1626.09
517.57	1748.97
517.77	1726.44
517.97	1681.38
518.17	1800.16
518.37	1681.38
518.57	1736.68
518.77	1677.29
518.97	1769.44
519.16	1744.87
519.36	1806.31
519.56	1779.68
519.76	1681.38
519.96	1693.67
520.16	1826.79
520.36	1732.58
520.56	1875.94
520.76	1677.29
520.96	1642.47
521.16	1820.64
521.35	1787.88
521.55	1806.31
521.75	1705.96
521.95	1705.96
522.15	1734.63
522.35	1642.47
522.55	1785.83
522.75	1828.84
522.95	1753.06
523.14	1683.43
523.34	1714.15
523.54	1640.42
523.74	1783.78
523.94	1773.54
524.14	1748.97
524.34	1800.16
524.54	1849.32
524.73	1724.39
524.93	1718.25
525.13	1746.92
525.33	1695.72
525.53	1890.28
525.73	1841.12
525.93	1763.30
526.13	1751.01
526.32	1816.55
526.52	1851.36
526.72	1769.44
526.92	1714.15
527.12	1714.15
527.32	1677.29
527.52	1796.07
527.71	1828.84
527.91	1796.07
528.11	1722.34
528.31	1787.88
528.51	1624.04
528.71	1787.88
528.90	1794.02
529.10	1812.45
529.30	1810.40
529.50	1644.52
529.70	1796.07
529.90	1689.57
530.09	1656.81
530.29	1656.81
530.49	1701.86
530.69	1820.64
530.89	1740.77
531.09	1761.25
531.28	1697.77
531.48	1828.84
531.68	1757.16
531.88	1779.68
532.08	1742.82
532.28	1746.92
532.47	1830.88
532.67	1777.64
532.87	1751.01
533.07	1765.35
533.27	1765.35
533.46	1738.73
533.66	1742.82
533.86	1730.53
534.06	1740.77
534.26	1732.58
534.45	1748.97
534.65	1814.50
534.85	1755.11
535.05	1703.91
535.25	1740.77
535.44	1656.81
535.64	1783.78
535.84	1669.09
536.04	1681.38
536.24	1699.81
536.43	1767.40
536.63	1744.87
536.83	1615.85
537.03	1687.53
537.22	1675.24
537.42	1624.04
537.62	1773.54
537.82	1669.09
538.02	1785.83
538.21	1851.36
538.41	1877.99
538.61	1753.06
538.81	1736.68
539.00	1826.79
539.20	1691.62
539.40	1714.15
539.60	1763.30
539.79	1732.58
539.99	1726.44
540.19	1701.86
540.39	1734.63
540.58	1781.73
540.78	1826.79
540.98	1753.06
541.18	1773.54
541.37	1736.68
541.57	1767.40
541.77	1789.92
541.97	1718.25
542.16	1621.99
542.36	1765.35
542.56	1718.25
542.76	1927.14
542.95	1753.06
543.15	1804.26
543.35	1783.78
543.54	1705.96
543.74	1705.96
543.94	1800.16
544.14	1667.05
544.33	1861.60
544.53	1771.49
544.73	1779.68
544.93	1697.77
545.12	1755.11
545.32	1761.25
545.52	1726.44
545.71	1673.19
545.91	1736.68
546.11	1699.81
546.30	1667.05
546.50	1738.73
546.70	1791.97
546.90	1697.77
547.09	1644.52
547.29	1744.87
547.49	1783.78
547.68	1671.14
547.88	1654.76
548.08	1742.82
548.27	2179.04
548.47	1675.24
548.67	1765.35
548.87	1769.44
549.06	1767.40
549.26	1705.96
549.46	1828.84
549.65	1642.47
549.85	1771.49
550.05	1785.83
550.24	1570.79
550.44	1779.68
550.64	1689.57
550.83	1693.67
551.03	1828.84
551.23	1775.59
551.42	1820.64
551.62	1742.82
551.82	1673.19
552.01	1781.73
552.21	1855.46
552.41	1800.16
552.60	1746.92
552.80	1701.86
553.00	1726.44
553.19	1746.92
553.39	1882.08
553.59	1699.81
553.78	1791.97
553.98	1773.54
554.17	1687.53
554.37	1652.71
554.57	1708.01
554.76	1726.44
554.96	1705.96
555.16	1787.88
555.35	1757.16
555.55	1726.44
555.75	1724.39
555.94	1757.16
556.14	1656.81
556.33	1802.21
556.53	1683.43
556.73	1746.92
556.92	1800.16
557.12	1892.32
557.32	1861.60
557.51	1814.50
557.71	1781.73
557.90	1796.07
558.10	1847.27
558.30	1755.11
558.49	1689.57
558.69	1734.63
558.88	1722.34
559.08	1759.21
559.28	1779.68
559.47	1712.10
559.67	1794.02
559.86	1882.08
560.06	1695.72
560.26	1753.06
560.45	1843.17
560.65	1699.81
560.84	1757.16
561.04	1722.34
561.24	1738.73
561.43	1736.68
561.63	1847.27
561.82	1796.07
562.02	1742.82
562.22	1726.44
562.41	1748.97
562.61	1738.73
562.80	1738.73
563.00	1902.56
563.19	1810.40
563.39	1767.40
563.59	1746.92
563.78	1718.25
563.98	1740.77
564.17	1771.49
564.37	1656.81
564.56	1751.01
564.76	1673.19
564.96	1777.64
565.15	1789.92
565.35	1867.75
565.54	1724.39
565.74	1779.68
565.93	1769.44
566.13	1798.12
566.32	1730.53
566.52	1759.21
566.71	1775.59
566.91	1744.87
567.11	1732.58
567.30	1732.58
567.50	1724.39
567.69	1740.77
567.89	1746.92
568.08	1740.77
568.28	1761.25
568.47	1722.34
568.67	1806.31
568.86	1751.01
569.06	1785.83
569.25	1781.73
569.45	1730.53
569.64	1748.97
569.84	1691.62
570.04	1775.59
570.23	1687.53
570.43	1705.96
570.62	1789.92
570.82	1841.12
571.01	1701.86
571.21	1714.15
571.40	1656.81
571.60	1781.73
571.79	1781.73
571.99	1787.88
572.18	1681.38
572.38	1746.92
572.57	1746.92
572.77	1783.78
572.96	1925.09
573.16	1783.78
573.35	1691.62
573.55	1834.98
573.74	1714.15
573.94	1716.20
574.13	1673.19
574.33	1794.02
574.52	1800.16
574.71	1718.25
574.91	1710.05
575.10	1703.91
575.30	1724.39
575.49	1669.09
575.69	1773.54
575.88	1742.82
576.08	1697.77
576.27	1794.02
576.47	1785.83
576.66	1865.70
576.86	1806.31
577.05	1769.44
577.25	1816.55
577.44	1902.56
577.64	1769.44
577.83	1779.68
578.02	1771.49
578.22	1884.13
578.41	1804.26
578.61	1679.33
578.80	1712.10
579.00	1789.92
579.19	1777.64
579.39	1849.32
579.58	1853.41
579.77	1863.65
579.97	1855.46
580.16	1863.65
580.36	1822.69
580.55	1771.49
580.75	1767.40
580.94	1755.11
581.13	1832.93
581.33	1898.47
581.52	1771.49
581.72	1880.04
581.91	1806.31
582.11	1726.44
582.30	1822.69
582.49	1761.25
582.69	1882.08
582.88	1781.73
583.08	1722.34
583.27	1748.97
583.47	1808.36
583.66	1658.85
583.85	1697.77
584.05	1724.39
584.24	1845.22
584.44	1824.74
584.63	1802.21
584.82	1748.97
585.02	1798.12
585.21	1884.13
585.41	1820.64
585.60	1820.64
585.79	1873.89
585.99	1945.57
586.18	1888.23
586.37	2199.52
586.57	3254.22
586.76	9729.90
586.96	24549.00
587.15	33684.99
587.34	40332.70
587.54	42102.14
587.73	36083.16
587.93	26392.17
588.12	21483.19
588.31	18171.63
588.51	16283.40
588.70	14925.60
588.89	14143.27
589.09	12482.37
589.28	10901.34
589.47	9283.44
589.67	8034.18
589.86	6401.95
590.06	4906.93
590.25	4036.55
590.44	3135.44
590.64	2557.91
590.83	2248.67
591.02	2238.43
591.22	1953.76
591.41	1943.52
591.60	1796.07
591.80	1908.71
591.99	1767.40
592.18	1718.25
592.38	1906.66
592.57	1794.02
592.76	1869.80
592.96	1798.12
593.15	1798.12
593.34	1824.74
593.54	1804.26
593.73	1785.83
593.92	1755.11
594.12	1771.49
594.31	1746.92
594.50	1789.92
594.70	1810.40
594.89	1863.65
595.08	1761.25
595.28	1779.68
595.47	1877.99
595.66	1806.31
595.86	1722.34
596.05	1718.25
596.24	1730.53
596.43	1791.97
596.63	1824.74
596.82	1726.44
597.01	1804.26
597.21	1822.69
597.40	1710.05
597.59	1748.97
597.79	1695.72
597.98	1708.01
598.17	1785.83
598.36	1710.05
598.56	1734.63
598.75	1703.91
598.94	1728.49
599.14	1773.54
599.33	1746.92
599.52	1789.92
599.71	1787.88
599.91	1822.69
600.10	1849.32
600.29	1755.11
600.48	1798.12
600.68	1712.10
600.87	1734.63
601.06	1662.95
601.26	1726.44
601.45	1822.69
601.64	1828.84
601.83	1783.78
602.03	1781.73
602.22	1621.99
602.41	1730.53
602.60	1904.61
602.80	1828.84
602.99	1771.49
603.18	1701.86
603.37	1808.36
603.57	1736.68
603.76	1839.08
603.95	1806.31
604.14	1775.59
604.34	1724.39
604.53	1761.25
604.72	1701.86
604.91	1877.99
605.10	1779.68
605.30	1646.57
605.49	1789.92
605.68	1720.29
605.87	1773.54
606.07	1755.11
606.26	1732.58
606.45	1828.84
606.64	1742.82
606.84	1689.57
607.03	1771.49
607.22	1771.49
607.41	1714.15
607.60	1724.39
607.80	1740.77
607.99	1738.73
608.18	1757.16
608.37	1814.50
608.56	1695.72
608.76	1777.64
608.95	1802.21
609.14	1740.77
609.33	1781.73
609.52	1832.93
609.72	1779.68
609.91	1824.74
610.10	1687.53
610.29	1877.99
610.48	1810.40
610.68	1857.51
610.87	1689.57
611.06	1869.80
611.25	1667.05
611.44	1814.50
611.63	1730.53
611.83	1796.07
612.02	1705.96
612.21	1802.21
612.40	1759.21
612.59	1656.81
612.79	1652.71
612.98	1771.49
613.17	1845.22
613.36	1724.39
613.55	1830.88
613.74	1632.23
613.93	1693.67
614.13	1738.73
614.32	1734.63
614.51	1810.40
614.70	1638.38
614.89	1781.73
615.08	1773.54
615.28	1992.67
615.47	1658.85
615.66	1746.92
615.85	1701.86
616.04	1888.23
616.23	1718.25
616.42	1710.05
616.62	1765.35
616.81	1679.33
617.00	1695.72
617.19	1771.49
617.38	1763.30
617.57	1783.78
617.76	1728.49
617.95	1765.35
618.15	1677.29
618.34	1853.41
618.53	1619.94
618.72	1800.16
618.91	1771.49
619.10	1796.07
619.29	1808.36
619.48	1744.87
619.68	1732.58
619.87	1757.16
620.06	1654.76
620.25	1748.97
620.44	1785.83
620.63	1701.86
620.82	1724.39
621.01	1771.49
621.20	1650.66
621.39	1779.68
621.59	1812.45
621.78	1646.57
621.97	1656.81
622.16	1798.12
622.35	1724.39
622.54	1765.35
622.73	1828.84
622.92	1712.10
623.11	1796.07
623.30	1773.54
623.49	1869.80
623.68	1652.71
623.88	1834.98
624.07	1718.25
624.26	1705.96
624.45	1736.68
624.64	1675.24
624.83	1718.25
625.02	1779.68
625.21	1708.01
625.40	1732.58
625.59	1839.08
625.78	1751.01
625.97	1755.11
626.16	1759.21
626.35	1769.44
626.54	1660.90
626.74	1779.68
626.93	1710.05
627.12	1726.44
627.31	1837.03
627.50	1656.81
627.69	1789.92
627.88	1638.38
628.07	1667.05
628.26	1650.66
628.45	1634.28
628.64	1660.90
628.83	1769.44
629.02	1734.63
629.21	1753.06
629.40	1806.31
629.59	1665.00
629.78	1724.39
629.97	1765.35
630.16	1757.16
630.35	1726.44
630.54	1751.01
630.73	1699.81
630.92	1734.63
631.11	1757.16
631.30	1687.53
631.49	1728.49
631.68	1763.30
631.87	1757.16
632.06	1638.38
632.25	1900.52
632.44	1708.01
632.63	1751.01
632.82	1652.71
633.01	1662.95
633.20	1761.25
633.39	1722.34
633.58	1677.29
633.77	1730.53
633.96	1746.92
634.15	1755.11
634.34	1787.88
634.53	1785.83
634.72	1619.94
634.91	1619.94
635.10	1751.01
635.29	1710.05
635.48	1759.21
635.67	1703.91
635.86	1658.85
636.05	1834.98
636.24	1728.49
636.43	1751.01
636.62	1767.40
636.81	1609.70
637.00	1675.24
637.19	1714.15
637.38	1744.87
637.57	1677.29
637.76	1708.01
637.95	1701.86
638.14	1658.85
638.33	1681.38
638.52	1730.53
638.71	1636.33
638.89	1712.10
639.08	1798.12
639.27	1783.78
639.46	1650.66
639.65	1828.84
639.84	1787.88
640.03	1777.64
640.22	1691.62
640.41	1767.40
640.60	1685.48
640.79	1769.44
640.98	1730.53
641.17	1777.64
641.36	1732.58
641.55	1759.21
641.74	1689.57
641.92	1701.86
642.11	1693.67
642.30	1716.20
642.49	1732.58
642.68	1746.92
642.87	1767.40
643.06	1742.82
643.25	1677.29
643.44	1718.25
643.63	1705.96
643.82	1765.35
644.00	1638.38
644.19	1705.96
644.38	1767.40
644.57	1798.12
644.76	1763.30
644.95	1669.09
645.14	1660.90
645.33	1740.77
645.52	1693.67
645.71	1630.18
645.89	1697.77
646.08	1765.35
646.27	1695.72
646.46	1839.08
646.65	1652.71
646.84	1722.34
647.03	1652.71
647.22	1773.54
647.40	1748.97
647.59	1640.42
647.78	1619.94
647.97	1681.38
648.16	1689.57
648.35	1773.54
648.54	1771.49
648.73	1665.00
648.91	1769.44
649.10	1771.49
649.29	1607.66
649.48	1724.39
649.67	1712.10
649.86	1710.05
650.05	1669.09
650.23	1640.42
650.42	1675.24
650.61	1771.49
650.80	1710.05
650.99	1843.17
651.18	1771.49
651.36	1773.54
651.55	1742.82
651.74	1806.31
651.93	1660.90
652.12	1705.96
652.31	1738.73
652.49	1607.66
652.68	1753.06
652.87	1779.68
653.06	1738.73
653.25	1796.07
653.44	1656.81
653.62	1744.87
653.81	1660.90
654.00	1710.05
654.19	1769.44
654.38	1869.80
654.56	1765.35
654.75	1665.00
654.94	1806.31
655.13	1677.29
655.32	1628.14
655.51	1861.60
655.69	1748.97
655.88	1800.16
656.07	1679.33
656.26	1705.96
656.45	1617.90
656.63	1701.86
656.82	1808.36
657.01	1726.44
657.20	1642.47
657.38	1804.26
657.57	1716.20
657.76	1587.18
657.95	1843.17
658.14	1669.09
658.32	1687.53
658.51	1695.72
658.70	1669.09
658.89	1705.96
659.08	1763.30
659.26	1892.32
659.45	1634.28
659.64	1652.71
659.83	1699.81
660.01	1933.28
660.20	1738.73
660.39	1865.70
660.58	1583.08
660.76	1720.29
660.95	1687.53
661.14	1679.33
661.33	1644.52
661.51	1689.57
661.70	1703.91
661.89	1710.05
662.08	1714.15
662.26	1632.23
662.45	1669.09
662.64	1820.64
662.83	1757.16
663.01	1667.05
663.20	1703.91
663.39	1834.98
663.58	1703.91
663.76	1720.29
663.95	1802.21
664.14	1675.24
664.32	1660.90
664.51	1660.90
664.70	1665.00
664.89	1740.77
665.07	1720.29
665.26	1796.07
665.45	1677.29
665.64	1746.92
665.82	1769.44
666.01	1738.73
666.20	1656.81
666.38	1773.54
666.57	1877.99
666.76	2136.03
666.95	4435.90
667.13	10454.88
667.32	15038.23
667.51	17958.64
667.69	19062.49
667.88	17538.80
668.07	12099.40
668.25	9510.77
668.44	8226.69
668.63	7415.69
668.81	6705.05
669.00	6365.09
669.19	5724.07
669.38	5191.60
669.56	4448.19
669.75	3874.76
669.94	3432.40
670.12	2987.99
670.31	2578.39
670.50	2310.11
670.68	2103.26
670.87	1929.19
671.06	1816.55
671.24	1839.08
671.43	1814.50
671.62	1767.40
671.80	1656.81
671.99	1685.48
672.18	1765.35
672.36	1744.87
672.55	1724.39
672.74	1740.77
672.92	1800.16
673.11	1759.21
673.29	1710.05
673.48	1765.35
673.67	1724.39
673.85	1773.54
674.04	1667.05
674.23	1738.73
674.41	1828.84
674.60	1605.61
674.79	1599.46
674.97	1605.61
675.16	1812.45
675.34	1740.77
675.53	1703.91
675.72	1740.77
675.90	1902.56
676.09	1748.97
676.28	1728.49
676.46	1558.50
676.65	1755.11
676.83	1732.58
677.02	1771.49
677.21	1775.59
677.39	1677.29
677.58	1681.38
677.77	1695.72
677.95	1757.16
678.14	1603.56
678.32	1667.05
678.51	1730.53
678.70	1777.64
678.88	1740.77
679.07	1781.73
679.25	1710.05
679.44	1699.81
679.63	1697.77
679.81	1697.77
680.00	1802.21
680.18	1755.11
680.37	1859.56
680.55	1710.05
680.74	1646.57
680.93	1658.85
681.11	1693.67
681.30	1775.59
681.48	1656.81
681.67	1755.11
681.85	1726.44
682.04	1710.05
682.23	1837.03
682.41	1746.92
682.60	1748.97
682.78	1736.68
682.97	1728.49
683.15	1648.61
683.34	1734.63
683.53	1755.11
683.71	1640.42
683.90	1791.97
684.08	1755.11
684.27	1693.67
684.45	1744.87
684.64	1789.92
684.82	1665.00
685.01	1697.77
685.19	1691.62
685.38	1775.59
685.57	1748.97
685.75	1640.42
685.94	1718.25
686.12	1675.24
686.31	1652.71
686.49	1802.21
686.68	1617.90
686.86	1751.01
687.05	1673.19
687.23	1839.08
687.42	1683.43
687.60	1638.38
687.79	1697.77
687.97	1822.69
688.16	1755.11
688.34	1734.63
688.53	1554.41
688.71	1830.88
688.90	1693.67
689.08	1716.20
689.27	1669.09
689.45	1724.39
689.64	1722.34
689.82	1753.06
690.01	1734.63
690.19	1722.34
690.38	1748.97
690.56	1773.54
690.75	1638.38
690.93	1755.11
691.12	1693.67
691.30	1751.01
691.49	1675.24
691.67	1740.77
691.86	1755.11
692.04	1675.24
692.23	1648.61
692.41	1716.20
692.60	1816.55
692.78	1839.08
692.97	1626.09
693.15	1722.34
693.34	1853.41
693.52	1837.03
693.71	1730.53
693.89	1683.43
694.08	1546.22
694.26	1820.64
694.44	1791.97
694.63	1783.78
694.81	1613.80
695.00	1648.61
695.18	1765.35
695.37	1785.83
695.55	1734.63
695.74	1685.48
695.92	1705.96
696.10	1787.88
696.29	1650.66
696.47	1677.29
696.66	1652.71
696.84	1634.28
697.03	1689.57
697.21	1791.97
697.40	2281.44
697.58	1697.77
697.76	1714.15
697.95	1757.16
698.13	1656.81
698.32	1712.10
698.50	1708.01
698.68	1742.82
698.87	1800.16
699.05	1804.26
699.24	1693.67
699.42	1697.77
699.61	1777.64
699.79	1720.29
699.97	1716.20
700.16	1736.68
700.34	1722.34
700.53	1736.68
700.71	1759.21
700.89	1705.96
701.08	1685.48
701.26	1738.73
701.45	2154.46
701.63	1720.29
701.81	1630.18
702.00	1718.25
702.18	1703.91
702.37	1654.76
702.55	1699.81
702.73	1665.00
702.92	1683.43
703.10	1806.31
703.28	1695.72
703.47	1705.96
703.65	1775.59
703.84	1744.87
704.02	1822.69
704.20	1783.78
704.39	1744.87
704.57	1701.86
704.75	1746.92
704.94	1773.54
705.12	1718.25
705.30	1800.16
705.49	2207.71
705.67	4333.50
705.86	9443.18
706.04	12457.79
706.22	14276.39
706.41	14968.60
706.59	13432.63
706.77	9480.05
706.96	7122.84
707.14	6506.40
707.32	5883.81
707.51	5631.91
707.69	4882.36
707.87	4173.76
708.06	3542.99
708.24	2955.22
708.42	2514.91
708.61	2297.82
708.79	1863.65
708.97	1857.51
709.16	1847.27
709.34	1732.58
709.52	1742.82
709.71	1785.83
709.89	1779.68
710.07	1703.91
710.26	1611.75
710.44	1800.16
710.62	1744.87
710.80	1671.14
710.99	1837.03
711.17	1779.68
711.35	1800.16
711.54	1689.57
711.72	1824.74
711.90	1791.97
712.09	1734.63
712.27	1757.16
712.45	1796.07
712.63	1753.06
712.82	1757.16
713.00	1722.34
713.18	1804.26
713.37	1724.39
713.55	1759.21
713.73	1683.43
713.91	1789.92
714.10	1728.49
714.28	1689.57
714.46	1802.21
714.65	1744.87
714.83	1708.01
715.01	1714.15
715.19	1716.20
715.38	1712.10
715.56	1751.01
715.74	1716.20
715.92	1650.66
716.11	1771.49
716.29	1689.57
716.47	1720.29
716.65	1699.81
716.84	1699.81
717.02	1783.78
717.20	1632.23
717.38	1695.72
717.57	1699.81
717.75	1714.15
717.93	1763.30
718.11	1742.82
718.30	1734.63
718.48	1755.11
718.66	1730.53
718.84	1724.39
719.03	1703.91
719.21	1679.33
719.39	1857.51
719.57	1740.77
719.75	1853.41
719.94	1763.30
720.12	1703.91
720.30	1671.14
720.48	1810.40
720.67	1683.43
720.85	1712.10
721.03	1665.00
721.21	1648.61
721.39	1845.22
721.58	1736.68
721.76	1755.11
721.94	1787.88
722.12	1701.86
722.30	1820.64
722.49	1720.29
722.67	1728.49
722.85	1705.96
723.03	1583.08
723.21	1654.76
723.40	1789.92
723.58	1746.92
723.76	1705.96
723.94	1810.40
724.12	1751.01
724.30	1757.16
724.49	1703.91
724.67	1667.05
724.85	1806.31
725.03	1617.90
725.21	1755.11
725.40	1765.35
725.58	1673.19
725.76	1798.12
725.94	1677.29
726.12	1593.32
726.30	1736.68
726.49	1689.57
726.67	1740.77
726.85	1757.16
727.03	1794.02
727.21	2144.22
727.39	2975.70
727.57	3817.41
727.76	4247.49
727.94	4542.39
728.12	4337.60
728.30	3686.34
728.48	2977.75
728.66	2789.33
728.84	2598.87
729.03	2385.88
729.21	2213.85
729.39	2019.30
729.57	1855.46
729.75	1875.94
729.93	1886.18
730.11	1779.68
730.30	1718.25
730.48	1771.49
730.66	1808.36
730.84	1763.30
731.02	1746.92
731.20	1683.43
731.38	1755.11
731.56	1681.38
731.74	1736.68
731.93	1734.63
732.11	1705.96
732.29	1687.53
732.47	1708.01
732.65	1728.49
732.83	1781.73
733.01	1794.02
733.19	1621.99
733.37	1710.05
733.56	1687.53
733.74	1701.86
733.92	1765.35
734.10	1642.47
734.28	1634.28
734.46	1677.29
734.64	1708.01
734.82	1712.10
735.00	1632.23
735.18	1648.61
735.36	1662.95
735.54	1714.15
735.73	1689.57
735.91	1714.15
736.09	1767.40
736.27	1624.04
736.45	1742.82
736.63	1675.24
736.81	1660.90
736.99	1791.97
737.17	1884.13
737.35	1800.16
737.53	1763.30
737.71	1705.96
737.89	1804.26
738.07	1699.81
738.25	1630.18
738.43	1693.67
738.61	1695.72
738.80	1662.95
738.98	1679.33
739.16	1667.05
739.34	1642.47
739.52	1783.78
739.70	1796.07
739.88	1746.92
740.06	1738.73
740.24	1675.24
740.42	1779.68
740.60	1638.38
740.78	1701.86
740.96	1634.28
741.14	1699.81
741.32	1726.44
741.50	1671.14
741.68	1736.68
741.86	1812.45
742.04	1681.38
742.22	1687.53
742.40	1638.38
742.58	1777.64
742.76	1654.76
742.94	1759.21
743.12	1679.33
743.30	1693.67
743.48	1740.77
743.66	1701.86
743.84	1757.16
744.02	1724.39
744.20	1716.20
744.38	1673.19
744.56	1624.04
744.74	1804.26
744.92	1742.82
745.10	1701.86
745.28	1849.32
745.46	1810.40
745.64	1720.29
745.82	1814.50
746.00	1705.96
746.18	1726.44
746.36	1718.25
746.54	1751.01
746.72	1710.05
746.90	1656.81
747.08	1779.68
747.26	1642.47
747.44	1804.26
747.62	1828.84
747.80	1724.39
747.98	1703.91
748.15	1701.86
748.33	1806.31
748.51	1654.76
748.69	1689.57
748.87	1689.57
749.05	1710.05
749.23	1736.68
749.41	1824.74
749.59	1673.19
749.77	1726.44
749.95	1658.85
750.13	1642.47
750.31	1722.34
750.49	1630.18
750.67	1746.92
750.85	1787.88
751.03	1716.20
751.20	1834.98
751.38	1755.11
751.56	1654.76
751.74	1746.92
751.92	1740.77
752.10	1658.85
752.28	1753.06
752.46	1746.92
752.64	1660.90
752.82	1695.72
753.00	1763.30
753.18	1671.14
753.35	1685.48
753.53	1710.05
753.71	1673.19
753.89	1722.34
754.07	1736.68
754.25	1755.11
754.43	1826.79
754.61	1697.77
754.79	1748.97
754.97	1665.00
755.14	1841.12
755.32	1654.76
755.50	1699.81
755.68	1689.57
755.86	1634.28
756.04	1669.09
756.22	1619.94
756.40	1730.53
756.57	1818.60
756.75	1615.85
756.93	1791.97
757.11	1773.54
757.29	1697.77
757.47	1656.81
757.65	1603.56
757.82	1617.90
758.00	1660.90
758.18	1714.15
758.36	1578.98
758.54	1773.54
758.72	1621.99
758.90	1796.07
759.07	1722.34
759.25	1705.96
759.43	1722.34
759.61	1642.47
759.79	2156.51
759.97	1769.44
760.15	1714.15
760.32	1671.14
760.50	1699.81
760.68	1759.21
760.86	1671.14
761.04	1767.40
761.22	1751.01
761.39	1624.04
761.57	1705.96
761.75	1734.63
761.93	1728.49
762.11	1689.57
762.28	1695.72
762.46	1636.33
762.64	1738.73
762.82	1607.66
763.00	1732.58
763.18	1740.77
763.35	1599.46
763.53	1728.49
763.71	1730.53
763.89	1734.63
764.07	1716.20
764.24	1710.05
764.42	1791.97
764.60	1665.00
764.78	1712.10
764.96	1828.84
765.13	1748.97
765.31	1728.49
765.49	1695.72
765.67	1691.62
765.84	1660.90
766.02	1722.34
766.20	1642.47
766.38	1703.91
766.56	1773.54
766.73	1834.98
766.91	1654.76
767.09	1732.58
767.27	1757.16
767.44	1665.00
767.62	1736.68
767.80	1740.77
767.98	1783.78
768.15	1775.59
768.33	1783.78
768.51	1724.39
768.69	1736.68
768.87	1724.39
769.04	1710.05
769.22	1771.49
769.40	1759.21
769.58	1843.17
769.75	1683.43
769.93	1779.68
770.11	1681.38
770.28	1681.38
770.46	1777.64
770.64	1755.11
770.82	1677.29
770.99	1640.42
771.17	1761.25
771.35	1763.30
771.53	1716.20
771.70	1687.53
771.88	1720.29
772.06	1718.25
772.23	1679.33
772.41	1794.02
772.59	1716.20
772.77	1673.19
772.94	1693.67
773.12	1773.54
773.30	1667.05
773.47	1693.67
773.65	1654.76
773.83	1787.88
774.01	1724.39
774.18	1636.33
774.36	1734.63
774.54	1669.09
774.71	1763.30
774.89	1621.99
775.07	1634.28
775.24	1716.20
775.42	1685.48
775.60	1865.70
775.78	1646.57
775.95	1732.58
776.13	1603.56
776.31	1671.14
776.48	1787.88
776.66	1808.36
776.84	1640.42
777.01	1689.57
777.19	1638.38
777.37	1699.81
777.54	1773.54
777.72	1822.69
777.90	1759.21
778.07	1685.48
778.25	1849.32
778.43	1783.78
778.60	1701.86
778.78	1804.26
778.96	1755.11
779.13	1769.44
779.31	1755.11
779.49	1736.68
779.66	1730.53
779.84	1724.39
780.01	1691.62
780.19	1636.33
780.37	1841.12
780.54	1705.96
780.72	1669.09
780.90	1712.10
781.07	1662.95
781.25	1681.38
781.43	1757.16
781.60	1673.19
781.78	1824.74
781.95	1734.63
782.13	1677.29
782.31	1636.33
782.48	1621.99
782.66	1742.82
782.83	1894.37
783.01	1697.77
783.19	1820.64
783.36	1730.53
783.54	1697.77
783.72	1781.73
783.89	1714.15
784.07	1722.34
784.24	1687.53
784.42	1871.84
784.60	1742.82
784.77	1724.39
784.95	1601.51
785.12	1728.49
785.30	1742.82
785.47	1736.68
785.65	1671.14
785.83	1685.48
786.00	1644.52
786.18	1644.52
786.35	1710.05
786.53	1665.00
786.71	1781.73
786.88	1681.38
787.06	1712.10
787.23	1728.49
787.41	1654.76
787.58	1665.00
787.76	1708.01
787.94	1697.77
788.11	1675.24
788.29	1581.03
788.46	1685.48
788.64	1708.01
788.81	1722.34
788.99	1712.10
789.16	1615.85
789.34	1656.81
789.52	1654.76
789.69	1714.15
789.87	1644.52
790.04	1665.00
790.22	1660.90
790.39	1771.49
790.57	1658.85
790.74	1679.33
790.92	1730.53
791.09	1636.33
791.27	1683.43
791.44	1779.68
791.62	1669.09
791.79	1746.92
791.97	1695.72
792.15	1918.95
792.32	1763.30
792.50	1820.64
792.67	1718.25
792.85	1787.88
793.02	1769.44
793.20	1699.81
793.37	1595.37
793.55	1703.91
793.72	1615.85
793.90	1734.63
794.07	1595.37
794.25	1605.61
794.42	1677.29
794.60	1685.48
794.77	1675.24
794.95	1693.67
795.12	1841.12
795.30	1724.39
795.47	1656.81
795.65	1886.18
795.82	1701.86
796.00	1621.99
796.17	1738.73
796.34	1665.00
796.52	1671.14
796.69	1720.29
796.87	1845.22
797.04	1705.96
797.22	1765.35
797.39	1710.05
797.57	1744.87
797.74	1691.62
797.92	1714.15
798.09	1681.38
798.27	1767.40
798.44	1779.68
798.62	1591.27
798.79	1714.15
798.96	1662.95
799.14	1757.16
799.31	1834.98
799.49	1699.81
799.66	1746.92
799.84	1734.63
800.01	1611.75
800.19	1763.30
800.36	1630.18
800.53	1681.38
800.71	1734.63
800.88	1808.36
801.06	1638.38
801.23	1667.05
801.41	1642.47
801.58	1689.57
801.75	1705.96
801.93	1783.78
802.10	1718.25
802.28	1710.05
802.45	1695.72
802.63	1738.73
802.80	1824.74
802.97	1656.81
803.15	1726.44
803.32	1671.14
803.50	1681.38
803.67	1652.71
803.84	1566.70
804.02	1732.58
804.19	1691.62
804.37	1599.46
804.54	1578.98
804.71	1769.44
804.89	1708.01
805.06	1699.81
805.24	1679.33
805.41	1708.01
805.58	1624.04
805.76	1773.54
805.93	1728.49
806.10	1789.92
806.28	1728.49
806.45	1634.28
806.63	1777.64
806.80	1757.16
806.97	1685.48
807.15	1753.06
807.32	1689.57
807.49	1763.30
807.67	1662.95
807.84	1722.34
808.01	1617.90
808.19	1906.66
808.36	1814.50
808.54	1591.27
808.71	1685.48
808.88	1732.58
809.06	1695.72
809.23	1771.49
809.40	1652.71
809.58	1718.25
809.75	1781.73
809.92	1650.66
810.10	1871.84
810.27	1701.86
810.44	1759.21
810.62	1755.11
810.79	1783.78
810.96	1701.86
811.14	1665.00
811.31	1640.42
811.48	1773.54
811.66	1763.30
811.83	1779.68
812.00	1796.07
812.18	1687.53
812.35	1824.74
812.52	1642.47
812.69	1755.11
812.87	1734.63
813.04	1689.57
813.21	1703.91
813.39	1718.25
813.56	1613.80
813.73	1767.40
813.91	1578.98
814.08	1730.53
814.25	1681.38
814.42	1673.19
814.60	1685.48
814.77	1701.86
814.94	1677.29
815.12	1726.44
815.29	1716.20
815.46	1697.77
815.63	1673.19
815.81	1728.49
815.98	1691.62
816.15	1671.14
816.33	1742.82
816.50	1638.38
816.67	1671.14
816.84	1695.72
817.02	1648.61
817.19	1681.38
817.36	1699.81
817.53	1675.24
817.71	1636.33
817.88	1751.01
818.05	1681.38
818.22	1718.25
818.40	1759.21
818.57	1642.47
818.74	1779.68
818.91	1683.43
819.09	1773.54
819.26	1757.16
819.43	1701.86
819.60	1611.75
819.78	1808.36
819.95	1867.75
820.12	1660.90
820.29	1779.68
820.47	1710.05
820.64	1658.85
820.81	1671.14
820.98	1632.23
821.15	1708.01
821.33	1783.78
821.50	1570.79
821.67	1734.63
821.84	1665.00
822.02	1736.68
822.19	1775.59
822.36	1722.34
822.53	1722.34
822.70	1636.33
822.88	1751.01
823.05	1796.07
823.22	1667.05
823.39	1779.68
823.56	1722.34
823.74	1847.27
823.91	1677.29
824.08	1728.49
824.25	1681.38
824.42	1781.73
824.60	1665.00
824.77	1736.68
824.94	1726.44
825.11	1705.96
825.28	1683.43
825.45	1722.34
825.63	1710.05
825.80	1636.33
825.97	1759.21
826.14	1697.77
826.31	1611.75
826.48	1806.31
826.66	1695.72
826.83	1699.81
827.00	1767.40
827.17	1669.09
827.34	1681.38
827.51	1621.99
827.69	1746.92
827.86	1667.05
828.03	1681.38
828.20	1746.92
828.37	1708.01
828.54	1724.39
828.71	1652.71
828.89	1812.45
829.06	1693.67
829.23	1716.20
829.40	1669.09
829.57	1648.61
829.74	1781.73
829.91	1597.42
830.09	1636.33
830.26	1685.48
830.43	1779.68
830.60	1673.19
830.77	1769.44
830.94	1734.63
831.11	1736.68
831.28	1714.15
831.46	1728.49
831.63	1722.34
831.80	1810.40
831.97	1687.53
832.14	1669.09
832.31	1837.03
832.48	1656.81
832.65	1759.21
832.82	1689.57
832.99	1710.05
833.17	1699.81
833.34	1767.40
833.51	1718.25
833.68	1640.42
833.85	1765.35
834.02	1677.29
834.19	1697.77
834.36	1681.38
834.53	1763.30
834.70	1755.11
834.87	1818.60
835.04	1689.57
835.22	1667.05
835.39	1738.73
835.56	1665.00
835.73	1597.42
835.90	1730.53
836.07	1658.85
836.24	1765.35
836.41	1621.99
836.58	1673.19
836.75	1773.54
836.92	1726.44
837.09	1689.57
837.26	1775.59
837.43	1656.81
837.60	1730.53
837.77	1751.01
837.94	1777.64
838.12	1802.21
838.29	1748.97
838.46	1667.05
838.63	1621.99
838.80	1767.40
838.97	1708.01
839.14	1665.00
839.31	1720.29
839.48	1658.85
839.65	1619.94
839.82	1746.92
839.99	1656.81
840.16	1779.68
840.33	1681.38
840.50	1794.02
840.67	1701.86
840.84	1540.07
841.01	1624.04
841.18	1693.67
841.35	1712.10
841.52	1699.81
841.69	1794.02
841.86	1771.49
842.03	1779.68
842.20	1771.49
842.37	1695.72
842.54	1689.57
842.71	1746.92
842.88	1673.19
843.05	1748.97
843.22	1701.86
843.39	1710.05
843.56	1675.24
843.73	1748.97
843.90	1691.62
844.07	1759.21
844.24	1658.85
844.41	1765.35
844.58	1728.49
844.75	1718.25
844.92	1712.10
845.09	1652.71
845.26	1681.38
845.43	1769.44
845.60	1624.04
845.77	1705.96
845.94	1673.19
846.10	1787.88
846.27	1624.04
846.44	1681.38
846.61	1642.47
846.78	1728.49
846.95	1740.77
847.12	1685.48
847.29	1640.42
847.46	1669.09
847.63	1763.30
847.80	1695.72
847.97	1665.00
848.14	1787.88
848.31	1581.03
848.48	1652.71
848.65	1736.68
848.82	1665.00
848.98	1847.27
849.15	1693.67
849.32	1767.40
849.49	1816.55
849.66	1716.20
849.83	1701.86
850.00	1656.81
850.17	1703.91
850.34	1642.47
850.51	1640.42
850.68	1712.10
850.85	1824.74
851.01	1767.40
851.18	1701.86
851.35	1642.47
851.52	1730.53
851.69	1789.92
851.86	1648.61
852.03	1697.77
852.20	1697.77
852.37	1722.34
852.53	1644.52
852.70	1691.62
852.87	1677.29
853.04	1816.55
853.21	1701.86
853.38	1687.53
853.55	1744.87
853.72	1849.32
853.89	1652.71
854.05	1677.29
854.22	1617.90
854.39	1658.85
854.56	1736.68
854.73	1806.31
854.90	1652.71
855.07	1798.12
855.23	1705.96
855.40	1669.09
855.57	1667.05
855.74	1624.04
855.91	1933.28
856.08	1683.43
856.25	1675.24
856.41	1656.81
856.58	1701.86
856.75	1632.23
856.92	1677.29
857.09	1787.88
857.26	1669.09
857.42	1705.96
857.59	1740.77
857.76	1642.47
857.93	1697.77
858.10	1728.49
858.27	1638.38
858.43	1687.53
858.60	1634.28
858.77	1748.97
858.94	1724.39
859.11	1777.64
859.27	1701.86
859.44	1693.67
859.61	1830.88
859.78	1742.82
859.95	1701.86
860.12	1593.32
860.28	1839.08
860.45	1851.36
860.62	1701.86
860.79	1699.81
860.95	1691.62
861.12	1734.63
861.29	1685.48
861.46	1646.57
861.63	1812.45
861.79	1728.49
861.96	1650.66
862.13	1685.48
862.30	1822.69
862.47	1757.16
862.63	1665.00
862.80	1746.92
862.97	1738.73
863.14	1802.21
863.30	1712.10
863.47	1691.62
863.64	1794.02
863.81	1734.63
863.97	1763.30
864.14	1738.73
864.31	1742.82
864.48	1734.63
864.65	1748.97
864.81	1744.87
864.98	1617.90
865.15	1734.63
865.32	1697.77
865.48	1810.40
865.65	1748.97
865.82	1724.39
865.98	1718.25
866.15	1794.02
866.32	1703.91
866.49	1697.77
866.65	1734.63
866.82	1656.81
866.99	1662.95
867.16	1652.71
867.32	1630.18
867.49	1724.39
867.66	1677.29
867.83	1730.53
867.99	1601.51
868.16	1691.62
868.33	1630.18
868.49	1708.01
868.66	1665.00
868.83	1818.60
868.99	1787.88
869.16	1671.14
869.33	1683.43
869.50	1724.39
869.66	1697.77
869.83	1716.20
870.00	1593.32
870.16	1787.88
870.33	1751.01
870.50	1734.63
870.66	1732.58
870.83	1804.26
871.00	1767.40
871.17	1703.91
871.33	1687.53
871.50	1667.05
871.67	1679.33
871.83	1656.81
872.00	1851.36
872.17	1746.92
872.33	1796.07
872.50	1779.68
872.67	1710.05
872.83	1675.24
873.00	1740.77
873.17	1689.57
873.33	1763.30
873.50	1718.25
873.67	1730.53
873.83	1599.46
874.00	1730.53
874.16	1703.91
874.33	1718.25
874.50	1619.94
874.66	1744.87
874.83	1771.49
875.00	1744.87
875.16	1736.68
875.33	1826.79
875.50	1597.42
875.66	1751.01
875.83	1705.96
875.99	1804.26
876.16	1660.90
876.33	1593.32
876.49	1767.40
876.66	1693.67
876.83	1705.96
876.99	1640.42
877.16	1755.11
877.32	1669.09
877.49	1699.81
877.66	1708.01
877.82	1789.92
877.99	1755.11
878.15	1730.53
878.32	1652.71
878.49	1660.90
878.65	1681.38
878.82	1720.29
878.98	1669.09
879.15	1773.54
879.32	1751.01
879.48	1677.29
879.65	1703.91
879.81	1640.42
879.98	1740.77
880.15	1685.48
880.31	1775.59
880.48	1726.44
880.64	1855.46
880.81	1730.53
880.97	1834.98
881.14	1744.87
881.31	1646.57
881.47	1886.18
881.64	1718.25
881.80	1638.38
881.97	1748.97
882.13	1775.59
882.30	1628.14
882.47	1689.57
882.63	1689.57
882.80	1640.42
882.96	1691.62
883.13	1732.58
883.29	1714.15
883.46	1761.25
883.62	1777.64
883.79	1662.95
883.95	1802.21
884.12	1671.14
884.29	1746.92
884.45	1718.25
884.62	1681.38
884.78	1708.01
884.95	1769.44
885.11	1679.33
885.28	1781.73
885.44	1603.56
885.61	1763.30
885.77	1841.12
885.94	1744.87
886.10	1728.49
886.27	1767.40
886.43	1718.25
886.60	1748.97
886.76	1646.57
886.93	1677.29
887.09	1728.49
887.26	1611.75
887.42	1726.44
887.59	1802.21
887.75	1785.83
887.92	1769.44
888.08	1763.30
888.25	1701.86
888.41	1746.92
888.58	1730.53
888.74	1632.23
888.91	1673.19
>>>>>End Processed Spectral Data<<<<<
