SpectraSuite Data File
++++++++++++++++++++++++++++++++++++
Date: Mon Jun 06 13:29:17 CEST 2016
User: root
Dark Spectrum Present: No
Reference Spectrum Present: No
Number of Sampled Component Spectra: 1
Spectrometers: USB4C02835
Integration Time (usec): 100000 (USB4C02835)
Spectra Averaged: 1 (USB4C02835)
Boxcar Smoothing: 0 (USB4C02835)
Correct for Electrical Dark: No (USB4C02835)
Strobe/Lamp Enabled: No (USB4C02835)
Correct for Detector Non-linearity: No (USB4C02835)
Correct for Stray Light: No (USB4C02835)
Number of Pixels in Processed Spectrum: 3648
>>>>>Begin Processed Spectral Data<<<<<
177.47	1456.11
177.69	1456.11
177.91	1456.11
178.13	1376.24
178.36	1343.47
178.58	1552.36
178.80	1705.96
179.02	1609.70
179.24	1650.66
179.46	1638.38
179.68	1732.58
179.90	1681.38
180.13	1740.77
180.35	1701.86
180.57	1658.85
180.79	1744.87
181.01	1724.39
181.23	1648.61
181.45	1755.11
181.67	1751.01
181.90	1738.73
182.12	1568.74
182.34	1574.89
182.56	1714.15
182.78	1740.77
183.00	1677.29
183.22	1679.33
183.44	1587.18
183.66	1820.64
183.89	1734.63
184.11	1703.91
184.33	1767.40
184.55	1785.83
184.77	1722.34
184.99	1662.95
185.21	1660.90
185.43	1853.41
185.65	1638.38
185.87	1681.38
186.10	1798.12
186.32	1832.93
186.54	1720.29
186.76	1699.81
186.98	1671.14
187.20	1720.29
187.42	1712.10
187.64	1697.77
187.86	1763.30
188.08	1771.49
188.30	1718.25
188.52	1701.86
188.75	1744.87
188.97	1751.01
189.19	1646.57
189.41	1669.09
189.63	1708.01
189.85	1683.43
190.07	1589.22
190.29	1609.70
190.51	1708.01
190.73	1718.25
190.95	1748.97
191.17	1660.90
191.39	1607.66
191.61	1671.14
191.84	1789.92
192.06	1738.73
192.28	1621.99
192.50	1877.99
192.72	1628.14
192.94	1730.53
193.16	1794.02
193.38	1755.11
193.60	1636.33
193.82	1716.20
194.04	1613.80
194.26	1722.34
194.48	1763.30
194.70	1718.25
194.92	1626.09
195.14	1724.39
195.36	1626.09
195.58	1662.95
195.80	1683.43
196.02	1593.32
196.24	1708.01
196.46	1705.96
196.69	1669.09
196.91	1828.84
197.13	1673.19
197.35	1665.00
197.57	1736.68
197.79	1763.30
198.01	1644.52
198.23	1746.92
198.45	1753.06
198.67	1552.36
198.89	1767.40
199.11	1751.01
199.33	1587.18
199.55	1587.18
199.77	1677.29
199.99	1740.77
200.21	1652.71
200.43	1714.15
200.65	1681.38
200.87	1562.60
201.09	1640.42
201.31	1689.57
201.53	1720.29
201.75	1804.26
201.97	1660.90
202.19	1708.01
202.41	1697.77
202.63	1796.07
202.85	1783.78
203.07	1734.63
203.29	1619.94
203.51	1671.14
203.73	1665.00
203.95	1816.55
204.17	1740.77
204.39	1738.73
204.61	1699.81
204.83	1648.61
205.05	1712.10
205.27	1687.53
205.49	1841.12
205.71	1609.70
205.93	1603.56
206.15	1640.42
206.37	1673.19
206.59	1624.04
206.81	1634.28
207.03	1599.46
207.25	1685.48
207.47	1701.86
207.69	1599.46
207.91	1789.92
208.13	1763.30
208.34	1683.43
208.56	1671.14
208.78	1728.49
209.00	1681.38
209.22	1691.62
209.44	1775.59
209.66	1751.01
209.88	1681.38
210.10	1656.81
210.32	1687.53
210.54	1785.83
210.76	1716.20
210.98	1777.64
211.20	1572.84
211.42	1667.05
211.64	1683.43
211.86	1769.44
212.08	1732.58
212.30	1716.20
212.52	1679.33
212.74	1746.92
212.96	1705.96
213.17	1722.34
213.39	1718.25
213.61	1791.97
213.83	1773.54
214.05	1591.27
214.27	1781.73
214.49	1644.52
214.71	1654.76
214.93	1814.50
215.15	1685.48
215.37	1785.83
215.59	1640.42
215.81	1773.54
216.03	1791.97
216.24	1757.16
216.46	1656.81
216.68	1718.25
216.90	1710.05
217.12	1771.49
217.34	1818.60
217.56	1685.48
217.78	1804.26
218.00	1779.68
218.22	1716.20
218.44	1677.29
218.66	1722.34
218.87	1845.22
219.09	1693.67
219.31	1763.30
219.53	1716.20
219.75	1714.15
219.97	1687.53
220.19	1722.34
220.41	1689.57
220.63	1722.34
220.85	1748.97
221.06	1691.62
221.28	1740.77
221.50	1691.62
221.72	1724.39
221.94	1734.63
222.16	1730.53
222.38	1746.92
222.60	1699.81
222.82	1675.24
223.03	1669.09
223.25	1650.66
223.47	1734.63
223.69	1837.03
223.91	1718.25
224.13	1714.15
224.35	1650.66
224.57	1726.44
224.78	1722.34
225.00	1632.23
225.22	1658.85
225.44	1695.72
225.66	1695.72
225.88	1609.70
226.10	1699.81
226.32	1708.01
226.53	1824.74
226.75	1607.66
226.97	1677.29
227.19	1681.38
227.41	1642.47
227.63	1632.23
227.85	1650.66
228.06	1703.91
228.28	1779.68
228.50	1718.25
228.72	1564.65
228.94	1628.14
229.16	1603.56
229.37	1619.94
229.59	1617.90
229.81	1791.97
230.03	1662.95
230.25	1603.56
230.47	1695.72
230.69	1658.85
230.90	1783.78
231.12	1673.19
231.34	1705.96
231.56	1732.58
231.78	1646.57
232.00	1773.54
232.21	1644.52
232.43	1712.10
232.65	1589.22
232.87	1634.28
233.09	1656.81
233.30	1687.53
233.52	1796.07
233.74	1689.57
233.96	1712.10
234.18	1665.00
234.40	1683.43
234.61	1804.26
234.83	1591.27
235.05	1634.28
235.27	1769.44
235.49	1673.19
235.70	1726.44
235.92	1755.11
236.14	1675.24
236.36	1890.28
236.58	1679.33
236.79	1767.40
237.01	1726.44
237.23	1748.97
237.45	1818.60
237.67	1701.86
237.88	1626.09
238.10	1789.92
238.32	1628.14
238.54	1656.81
238.76	1693.67
238.97	1683.43
239.19	1679.33
239.41	1781.73
239.63	1763.30
239.85	1634.28
240.06	1656.81
240.28	1607.66
240.50	1757.16
240.72	1703.91
240.93	1683.43
241.15	1755.11
241.37	1679.33
241.59	1736.68
241.81	1644.52
242.02	1615.85
242.24	1740.77
242.46	1736.68
242.68	1669.09
242.89	1656.81
243.11	1753.06
243.33	1675.24
243.55	1736.68
243.76	1722.34
243.98	1728.49
244.20	1705.96
244.42	1771.49
244.64	1632.23
244.85	1646.57
245.07	1665.00
245.29	1753.06
245.51	1630.18
245.72	1665.00
245.94	1738.73
246.16	1665.00
246.38	1763.30
246.59	1583.08
246.81	1671.14
247.03	1636.33
247.24	1695.72
247.46	1669.09
247.68	1708.01
247.90	1617.90
248.11	1636.33
248.33	1751.01
248.55	1677.29
248.77	1718.25
248.98	1763.30
249.20	1808.36
249.42	1646.57
249.64	1757.16
249.85	1656.81
250.07	1671.14
250.29	1677.29
250.50	1724.39
250.72	1581.03
250.94	1652.71
251.16	1789.92
251.37	1712.10
251.59	1738.73
251.81	1697.77
252.02	1843.17
252.24	1658.85
252.46	1753.06
252.68	1660.90
252.89	1722.34
253.11	1630.18
253.33	1828.84
253.54	1718.25
253.76	1601.51
253.98	1630.18
254.20	1705.96
254.41	1646.57
254.63	1673.19
254.85	1636.33
255.06	1640.42
255.28	1689.57
255.50	1720.29
255.71	1675.24
255.93	1603.56
256.15	1640.42
256.36	1742.82
256.58	1714.15
256.80	1691.62
257.02	1646.57
257.23	1675.24
257.45	1710.05
257.67	1734.63
257.88	1695.72
258.10	1732.58
258.32	1708.01
258.53	1683.43
258.75	1781.73
258.97	1646.57
259.18	1640.42
259.40	1742.82
259.62	1798.12
259.83	1785.83
260.05	1796.07
260.27	1968.10
260.48	1710.05
260.70	1675.24
260.92	1560.55
261.13	1679.33
261.35	1675.24
261.57	1740.77
261.78	1535.98
262.00	1609.70
262.22	1759.21
262.43	1675.24
262.65	1660.90
262.86	1685.48
263.08	1849.32
263.30	1650.66
263.51	1638.38
263.73	1748.97
263.95	1779.68
264.16	1695.72
264.38	1710.05
264.60	1691.62
264.81	1673.19
265.03	1703.91
265.25	1765.35
265.46	1693.67
265.68	1744.87
265.89	1712.10
266.11	1603.56
266.33	1816.55
266.54	1716.20
266.76	1665.00
266.98	1742.82
267.19	1697.77
267.41	1746.92
267.62	1648.61
267.84	1595.37
268.06	1691.62
268.27	1732.58
268.49	1693.67
268.70	1820.64
268.92	1693.67
269.14	1665.00
269.35	1599.46
269.57	1763.30
269.79	1697.77
270.00	1679.33
270.22	1787.88
270.43	1648.61
270.65	1609.70
270.87	1773.54
271.08	1738.73
271.30	1679.33
271.51	1626.09
271.73	1738.73
271.95	1697.77
272.16	1746.92
272.38	1634.28
272.59	1611.75
272.81	1724.39
273.02	1689.57
273.24	1691.62
273.46	1710.05
273.67	1599.46
273.89	1615.85
274.10	1673.19
274.32	1740.77
274.54	1693.67
274.75	1759.21
274.97	1693.67
275.18	1783.78
275.40	1697.77
275.61	1732.58
275.83	1644.52
276.05	1658.85
276.26	1652.71
276.48	1751.01
276.69	1597.42
276.91	1662.95
277.12	1841.12
277.34	1775.59
277.55	1701.86
277.77	1677.29
277.99	1730.53
278.20	1652.71
278.42	1603.56
278.63	1671.14
278.85	1699.81
279.06	1632.23
279.28	1822.69
279.49	1736.68
279.71	1689.57
279.93	1761.25
280.14	1708.01
280.36	1624.04
280.57	1720.29
280.79	1791.97
281.00	1654.76
281.22	1607.66
281.43	1777.64
281.65	1576.94
281.86	1593.32
282.08	1734.63
282.29	1789.92
282.51	1611.75
282.73	1650.66
282.94	1652.71
283.16	1746.92
283.37	1734.63
283.59	1779.68
283.80	1695.72
284.02	1683.43
284.23	1710.05
284.45	1722.34
284.66	1687.53
284.88	1656.81
285.09	1697.77
285.31	1730.53
285.52	1689.57
285.74	1636.33
285.95	1742.82
286.17	1751.01
286.38	1718.25
286.60	1689.57
286.81	1689.57
287.03	1578.98
287.24	1718.25
287.46	1697.77
287.67	1710.05
287.89	1839.08
288.10	1701.86
288.32	1683.43
288.53	1730.53
288.75	1769.44
288.96	1687.53
289.18	1689.57
289.39	1734.63
289.61	1783.78
289.82	1791.97
290.04	1810.40
290.25	1603.56
290.47	1634.28
290.68	1740.77
290.90	1822.69
291.11	1615.85
291.33	1732.58
291.54	1673.19
291.76	1718.25
291.97	1755.11
292.18	1701.86
292.40	1619.94
292.61	1689.57
292.83	1843.17
293.04	1656.81
293.26	1724.39
293.47	1705.96
293.69	1617.90
293.90	1695.72
294.12	1753.06
294.33	1695.72
294.55	1662.95
294.76	1722.34
294.97	1777.64
295.19	1853.41
295.40	1714.15
295.62	1767.40
295.83	1742.82
296.05	1665.00
296.26	1771.49
296.48	1642.47
296.69	1804.26
296.90	1660.90
297.12	1761.25
297.33	1777.64
297.55	1773.54
297.76	1724.39
297.98	1669.09
298.19	1736.68
298.41	1689.57
298.62	1624.04
298.83	1757.16
299.05	1730.53
299.26	1687.53
299.48	1609.70
299.69	1716.20
299.90	1644.52
300.12	1671.14
300.33	1724.39
300.55	1726.44
300.76	1667.05
300.98	1677.29
301.19	1720.29
301.40	1712.10
301.62	1710.05
301.83	1726.44
302.05	1652.71
302.26	1693.67
302.47	1689.57
302.69	1595.37
302.90	1675.24
303.12	1599.46
303.33	1773.54
303.54	1765.35
303.76	1644.52
303.97	1669.09
304.19	1824.74
304.40	1650.66
304.61	1765.35
304.83	1804.26
305.04	1712.10
305.26	1681.38
305.47	1677.29
305.68	1781.73
305.90	1589.22
306.11	1738.73
306.33	1652.71
306.54	1656.81
306.75	1650.66
306.97	1665.00
307.18	1570.79
307.39	1673.19
307.61	1796.07
307.82	1730.53
308.04	1816.55
308.25	1626.09
308.46	1685.48
308.68	1701.86
308.89	1712.10
309.10	1679.33
309.32	1708.01
309.53	1714.15
309.74	1681.38
309.96	1669.09
310.17	1679.33
310.39	1751.01
310.60	1705.96
310.81	1771.49
311.03	1648.61
311.24	1771.49
311.45	1710.05
311.67	1748.97
311.88	1677.29
312.09	1728.49
312.31	1693.67
312.52	1730.53
312.73	1697.77
312.95	1642.47
313.16	1626.09
313.37	1779.68
313.59	1746.92
313.80	1730.53
314.01	1716.20
314.23	1605.61
314.44	1626.09
314.65	1632.23
314.87	1638.38
315.08	1609.70
315.29	1683.43
315.51	1658.85
315.72	1656.81
315.93	1834.98
316.15	1767.40
316.36	1644.52
316.57	1722.34
316.79	1685.48
317.00	1732.58
317.21	1617.90
317.43	1669.09
317.64	1693.67
317.85	1695.72
318.07	1667.05
318.28	1730.53
318.49	1796.07
318.70	1820.64
318.92	1777.64
319.13	1736.68
319.34	1826.79
319.56	1787.88
319.77	1855.46
319.98	1695.72
320.20	1726.44
320.41	1726.44
320.62	1730.53
320.83	1681.38
321.05	1816.55
321.26	1718.25
321.47	1685.48
321.69	1828.84
321.90	1589.22
322.11	1718.25
322.32	1658.85
322.54	1798.12
322.75	1681.38
322.96	1804.26
323.18	1705.96
323.39	1611.75
323.60	1665.00
323.81	1763.30
324.03	1728.49
324.24	1726.44
324.45	1681.38
324.66	1718.25
324.88	1802.21
325.09	1808.36
325.30	1718.25
325.52	1751.01
325.73	1757.16
325.94	1619.94
326.15	1634.28
326.37	1642.47
326.58	1708.01
326.79	1763.30
327.00	1718.25
327.22	1736.68
327.43	1687.53
327.64	1597.42
327.85	1693.67
328.07	1687.53
328.28	1781.73
328.49	1730.53
328.70	1759.21
328.92	1720.29
329.13	1667.05
329.34	1767.40
329.55	1732.58
329.76	1671.14
329.98	1675.24
330.19	1863.65
330.40	1742.82
330.61	1732.58
330.83	1755.11
331.04	1667.05
331.25	1710.05
331.46	1722.34
331.68	1538.02
331.89	1736.68
332.10	1677.29
332.31	1646.57
332.52	1691.62
332.74	1779.68
332.95	1583.08
333.16	1726.44
333.37	1699.81
333.58	1677.29
333.80	1677.29
334.01	1671.14
334.22	1634.28
334.43	1685.48
334.64	1710.05
334.86	1677.29
335.07	1632.23
335.28	1722.34
335.49	1593.32
335.70	1675.24
335.92	1705.96
336.13	1804.26
336.34	1695.72
336.55	1695.72
336.76	1656.81
336.98	1615.85
337.19	1693.67
337.40	1837.03
337.61	1834.98
337.82	1593.32
338.04	1746.92
338.25	1632.23
338.46	1763.30
338.67	1714.15
338.88	1650.66
339.09	1636.33
339.31	1671.14
339.52	1574.89
339.73	1632.23
339.94	1763.30
340.15	1761.25
340.36	1658.85
340.58	1757.16
340.79	1699.81
341.00	1742.82
341.21	1574.89
341.42	1765.35
341.63	1650.66
341.85	1732.58
342.06	1712.10
342.27	1673.19
342.48	1775.59
342.69	1636.33
342.90	1703.91
343.12	1765.35
343.33	1740.77
343.54	1660.90
343.75	1759.21
343.96	1765.35
344.17	1601.51
344.38	1685.48
344.60	1644.52
344.81	1636.33
345.02	1697.77
345.23	1708.01
345.44	1783.78
345.65	1738.73
345.86	1738.73
346.07	1763.30
346.29	1718.25
346.50	1699.81
346.71	1681.38
346.92	1669.09
347.13	1816.55
347.34	1716.20
347.55	1703.91
347.76	1740.77
347.98	1675.24
348.19	1695.72
348.40	1746.92
348.61	1605.61
348.82	1798.12
349.03	1781.73
349.24	1585.13
349.45	1777.64
349.66	1691.62
349.88	1697.77
350.09	1685.48
350.30	1796.07
350.51	1761.25
350.72	1689.57
350.93	1710.05
351.14	1650.66
351.35	1695.72
351.56	1718.25
351.77	1636.33
351.99	1710.05
352.20	1767.40
352.41	1771.49
352.62	1595.37
352.83	1621.99
353.04	1677.29
353.25	1634.28
353.46	1779.68
353.67	1699.81
353.88	1556.46
354.09	1740.77
354.30	1751.01
354.52	1849.32
354.73	1722.34
354.94	1648.61
355.15	1779.68
355.36	1824.74
355.57	1728.49
355.78	1746.92
355.99	1654.76
356.20	1681.38
356.41	1855.46
356.62	1677.29
356.83	1730.53
357.04	1742.82
357.25	1593.32
357.46	1660.90
357.68	1607.66
357.89	1673.19
358.10	1695.72
358.31	1720.29
358.52	1722.34
358.73	1648.61
358.94	1656.81
359.15	1636.33
359.36	1679.33
359.57	1636.33
359.78	1734.63
359.99	1720.29
360.20	1636.33
360.41	1652.71
360.62	1697.77
360.83	1673.19
361.04	1726.44
361.25	1708.01
361.46	1796.07
361.67	1642.47
361.88	1755.11
362.09	1738.73
362.30	1708.01
362.51	1677.29
362.72	1648.61
362.93	1710.05
363.14	1753.06
363.35	1673.19
363.56	1669.09
363.78	1716.20
363.99	1693.67
364.20	1683.43
364.41	1726.44
364.62	1845.22
364.83	1759.21
365.04	1779.68
365.25	1656.81
365.46	1787.88
365.67	1648.61
365.88	1632.23
366.09	1697.77
366.30	1683.43
366.51	1755.11
366.72	1648.61
366.93	1681.38
367.14	1644.52
367.35	1748.97
367.56	1689.57
367.77	1773.54
367.98	1656.81
368.18	1734.63
368.39	1681.38
368.60	1662.95
368.81	1759.21
369.02	1775.59
369.23	1636.33
369.44	1595.37
369.65	1695.72
369.86	1769.44
370.07	1736.68
370.28	1681.38
370.49	1697.77
370.70	1751.01
370.91	1632.23
371.12	1650.66
371.33	1714.15
371.54	1687.53
371.75	1820.64
371.96	1535.98
372.17	1714.15
372.38	1701.86
372.59	1728.49
372.80	1665.00
373.01	1718.25
373.22	1718.25
373.43	1681.38
373.64	1671.14
373.85	1748.97
374.06	1800.16
374.26	1718.25
374.47	1693.67
374.68	1820.64
374.89	1652.71
375.10	1742.82
375.31	1740.77
375.52	1705.96
375.73	1640.42
375.94	1615.85
376.15	1757.16
376.36	1660.90
376.57	1615.85
376.78	1691.62
376.99	1710.05
377.20	1767.40
377.40	1632.23
377.61	1767.40
377.82	1615.85
378.03	1712.10
378.24	1708.01
378.45	1673.19
378.66	1777.64
378.87	1650.66
379.08	1671.14
379.29	1753.06
379.50	1777.64
379.71	1689.57
379.91	1816.55
380.12	1736.68
380.33	1665.00
380.54	1642.47
380.75	1681.38
380.96	1660.90
381.17	1748.97
381.38	1703.91
381.59	1697.77
381.80	1701.86
382.00	1900.52
382.21	1763.30
382.42	1759.21
382.63	1832.93
382.84	1755.11
383.05	1773.54
383.26	1820.64
383.47	1755.11
383.68	1757.16
383.88	1787.88
384.09	1718.25
384.30	1816.55
384.51	1732.58
384.72	1609.70
384.93	1648.61
385.14	1728.49
385.35	1726.44
385.55	1683.43
385.76	1777.64
385.97	1658.85
386.18	1578.98
386.39	1720.29
386.60	1734.63
386.81	1667.05
387.02	1730.53
387.22	1636.33
387.43	1834.98
387.64	1757.16
387.85	1832.93
388.06	2220.00
388.27	4278.21
388.48	6748.06
388.68	8284.03
388.89	9719.66
389.10	9930.60
389.31	8742.78
389.52	7643.02
389.73	6686.62
389.93	6227.87
390.14	5910.44
390.35	5324.72
390.56	4526.01
390.77	3880.90
390.98	3080.14
391.18	2643.93
391.39	2127.84
391.60	1834.98
391.81	1837.03
392.02	1765.35
392.23	1814.50
392.43	1783.78
392.64	1798.12
392.85	1734.63
393.06	1828.84
393.27	1691.62
393.47	1708.01
393.68	1714.15
393.89	1716.20
394.10	1716.20
394.31	1619.94
394.52	1589.22
394.72	1671.14
394.93	1763.30
395.14	1644.52
395.35	1617.90
395.56	1695.72
395.76	1812.45
395.97	1800.16
396.18	1863.65
396.39	1724.39
396.60	2025.44
396.80	1918.95
397.01	1794.02
397.22	1773.54
397.43	1912.80
397.64	1712.10
397.84	1787.88
398.05	1857.51
398.26	1695.72
398.47	1800.16
398.67	1791.97
398.88	1746.92
399.09	1722.34
399.30	1673.19
399.51	1703.91
399.71	1660.90
399.92	1667.05
400.13	1767.40
400.34	1675.24
400.54	1736.68
400.75	1810.40
400.96	1685.48
401.17	1802.21
401.37	1642.47
401.58	1703.91
401.79	1710.05
402.00	1761.25
402.21	1964.00
402.41	1961.95
402.62	2023.39
402.83	2052.06
403.04	2021.35
403.24	2062.30
403.45	1837.03
403.66	1886.18
403.87	1904.61
404.07	1867.75
404.28	1927.14
404.49	1859.56
404.70	1802.21
404.90	1742.82
405.11	1806.31
405.32	1777.64
405.52	1671.14
405.73	1701.86
405.94	1679.33
406.15	1746.92
406.35	1744.87
406.56	1765.35
406.77	1740.77
406.98	1697.77
407.18	1705.96
407.39	1679.33
407.60	1699.81
407.80	1724.39
408.01	1601.51
408.22	1632.23
408.43	1697.77
408.63	1693.67
408.84	1681.38
409.05	1658.85
409.25	1712.10
409.46	1689.57
409.67	1626.09
409.88	1626.09
410.08	1779.68
410.29	1699.81
410.50	1787.88
410.70	1787.88
410.91	1673.19
411.12	1755.11
411.32	1689.57
411.53	1705.96
411.74	1787.88
411.95	1861.60
412.15	1667.05
412.36	1820.64
412.57	1775.59
412.77	1798.12
412.98	1738.73
413.19	1718.25
413.39	1736.68
413.60	1759.21
413.81	1761.25
414.01	1667.05
414.22	1789.92
414.43	1759.21
414.63	1632.23
414.84	1767.40
415.05	1730.53
415.25	1626.09
415.46	1767.40
415.67	1701.86
415.87	1748.97
416.08	1722.34
416.29	1783.78
416.49	1712.10
416.70	1681.38
416.91	1644.52
417.11	1722.34
417.32	1714.15
417.53	1767.40
417.73	1763.30
417.94	1699.81
418.15	1742.82
418.35	1746.92
418.56	1722.34
418.77	1806.31
418.97	1718.25
419.18	1703.91
419.38	1552.36
419.59	1759.21
419.80	1791.97
420.00	1761.25
420.21	1732.58
420.42	1802.21
420.62	1736.68
420.83	1669.09
421.04	1726.44
421.24	1667.05
421.45	1794.02
421.65	1763.30
421.86	1654.76
422.07	1746.92
422.27	1689.57
422.48	1751.01
422.69	1624.04
422.89	1654.76
423.10	1740.77
423.30	1615.85
423.51	1689.57
423.72	1689.57
423.92	1640.42
424.13	1660.90
424.33	1640.42
424.54	1744.87
424.75	1722.34
424.95	1804.26
425.16	1718.25
425.36	1648.61
425.57	1685.48
425.78	1828.84
425.98	1744.87
426.19	1665.00
426.39	1667.05
426.60	1681.38
426.81	1816.55
427.01	1716.20
427.22	1628.14
427.42	1636.33
427.63	1628.14
427.83	1787.88
428.04	1886.18
428.25	1701.86
428.45	1765.35
428.66	1791.97
428.86	1693.67
429.07	1646.57
429.28	1751.01
429.48	1675.24
429.69	1710.05
429.89	1740.77
430.10	1677.29
430.30	1742.82
430.51	1841.12
430.71	1652.71
430.92	1710.05
431.13	1667.05
431.33	1724.39
431.54	1712.10
431.74	1757.16
431.95	1789.92
432.15	1525.74
432.36	1738.73
432.56	1773.54
432.77	1779.68
432.98	1710.05
433.18	1699.81
433.39	1644.52
433.59	1658.85
433.80	1902.56
434.00	1779.68
434.21	1662.95
434.41	1726.44
434.62	1877.99
434.82	1544.17
435.03	1601.51
435.23	1689.57
435.44	1642.47
435.64	1746.92
435.85	1681.38
436.06	1705.96
436.26	1730.53
436.47	1753.06
436.67	1646.57
436.88	1705.96
437.08	1767.40
437.29	1771.49
437.49	1681.38
437.70	1804.26
437.90	1820.64
438.11	1853.41
438.31	1777.64
438.52	1884.13
438.72	1882.08
438.93	1884.13
439.13	1730.53
439.34	1851.36
439.54	1693.67
439.75	1773.54
439.95	1816.55
440.16	1683.43
440.36	1746.92
440.57	1677.29
440.77	1820.64
440.98	1656.81
441.18	1726.44
441.39	1699.81
441.59	1673.19
441.80	1765.35
442.00	1732.58
442.21	1777.64
442.41	1640.42
442.62	1771.49
442.82	1712.10
443.02	1693.67
443.23	1779.68
443.43	1763.30
443.64	1751.01
443.84	1665.00
444.05	1845.22
444.25	1656.81
444.46	1736.68
444.66	1740.77
444.87	1800.16
445.07	1652.71
445.28	1767.40
445.48	1693.67
445.69	1734.63
445.89	1798.12
446.09	1703.91
446.30	2013.15
446.50	2713.56
446.71	3653.58
446.91	4360.13
447.12	4661.18
447.32	4861.88
447.53	4237.25
447.73	3973.06
447.93	3542.99
448.14	3332.05
448.34	3104.72
448.55	2922.45
448.75	2738.13
448.96	2592.73
449.16	2375.64
449.36	2289.63
449.57	2101.22
449.77	1873.89
449.98	1812.45
450.18	1828.84
450.39	1814.50
450.59	1800.16
450.79	1763.30
451.00	1730.53
451.20	1746.92
451.41	1730.53
451.61	1726.44
451.81	1718.25
452.02	1701.86
452.22	1779.68
452.43	1687.53
452.63	1693.67
452.84	1773.54
453.04	1734.63
453.24	1714.15
453.45	1681.38
453.65	1744.87
453.86	1871.84
454.06	1783.78
454.26	1740.77
454.47	1679.33
454.67	1863.65
454.87	1757.16
455.08	1722.34
455.28	1828.84
455.49	1779.68
455.69	1665.00
455.89	1857.51
456.10	1875.94
456.30	1744.87
456.51	1787.88
456.71	1742.82
456.91	1705.96
457.12	1693.67
457.32	1785.83
457.52	1658.85
457.73	1763.30
457.93	1802.21
458.14	1611.75
458.34	1624.04
458.54	1738.73
458.75	1628.14
458.95	1728.49
459.15	1773.54
459.36	1853.41
459.56	1796.07
459.76	1779.68
459.97	1691.62
460.17	1697.77
460.37	1787.88
460.58	1669.09
460.78	1802.21
460.99	1705.96
461.19	1796.07
461.39	1712.10
461.60	1697.77
461.80	1708.01
462.00	1736.68
462.21	1767.40
462.41	1722.34
462.61	1667.05
462.82	1679.33
463.02	1769.44
463.22	1718.25
463.43	1816.55
463.63	1773.54
463.83	1859.56
464.04	1730.53
464.24	1667.05
464.44	1656.81
464.64	1720.29
464.85	1767.40
465.05	1832.93
465.25	1777.64
465.46	1734.63
465.66	1808.36
465.86	1787.88
466.07	1720.29
466.27	1697.77
466.47	1628.14
466.68	1638.38
466.88	1779.68
467.08	1716.20
467.29	1697.77
467.49	1783.78
467.69	1726.44
467.89	1765.35
468.10	1714.15
468.30	1759.21
468.50	1763.30
468.71	1777.64
468.91	1652.71
469.11	1853.41
469.31	1708.01
469.52	1593.32
469.72	1757.16
469.92	1898.47
470.13	1716.20
470.33	1681.38
470.53	1884.13
470.73	2117.60
470.94	2324.44
471.14	2322.40
471.34	2498.52
471.54	2324.44
471.75	2220.00
471.95	2131.94
472.15	2090.98
472.36	2039.78
472.56	2109.41
472.76	2074.59
472.96	1955.81
473.17	1996.77
473.37	1902.56
473.57	1726.44
473.77	1832.93
473.98	1802.21
474.18	1685.48
474.38	1894.37
474.58	1730.53
474.79	1648.61
474.99	1828.84
475.19	1789.92
475.39	1677.29
475.60	1703.91
475.80	1771.49
476.00	1705.96
476.20	1685.48
476.41	1718.25
476.61	1783.78
476.81	1742.82
477.01	1693.67
477.21	1859.56
477.42	1699.81
477.62	1624.04
477.82	1734.63
478.02	1726.44
478.23	1716.20
478.43	1726.44
478.63	1607.66
478.83	1693.67
479.03	1714.15
479.24	1832.93
479.44	1832.93
479.64	1665.00
479.84	1558.50
480.04	1658.85
480.25	1675.24
480.45	1652.71
480.65	1693.67
480.85	1826.79
481.06	1656.81
481.26	1689.57
481.46	1679.33
481.66	1716.20
481.86	1619.94
482.06	1710.05
482.27	1632.23
482.47	1673.19
482.67	1771.49
482.87	1644.52
483.07	1751.01
483.28	1597.42
483.48	1675.24
483.68	1722.34
483.88	1679.33
484.08	1624.04
484.29	1591.27
484.49	1689.57
484.69	1609.70
484.89	1748.97
485.09	1843.17
485.29	1720.29
485.50	1679.33
485.70	1742.82
485.90	1830.88
486.10	1728.49
486.30	1820.64
486.50	1787.88
486.71	1703.91
486.91	1677.29
487.11	1761.25
487.31	1679.33
487.51	1738.73
487.71	1701.86
487.91	1671.14
488.12	1697.77
488.32	1675.24
488.52	1638.38
488.72	1566.70
488.92	1720.29
489.12	1761.25
489.32	1775.59
489.53	1701.86
489.73	1611.75
489.93	1822.69
490.13	1630.18
490.33	1662.95
490.53	1716.20
490.73	1722.34
490.94	1634.28
491.14	1783.78
491.34	1828.84
491.54	2121.70
491.74	2459.61
491.94	3002.32
492.14	3033.04
492.34	2975.70
492.54	2793.43
492.75	2451.42
492.95	2392.03
493.15	2353.12
493.35	2256.86
493.55	2260.96
493.75	2119.65
493.95	2111.46
494.15	1968.10
494.35	1857.51
494.56	1839.08
494.76	1740.77
494.96	1742.82
495.16	1755.11
495.36	1714.15
495.56	1728.49
495.76	1701.86
495.96	1748.97
496.16	1673.19
496.36	1841.12
496.56	1730.53
496.77	1761.25
496.97	1728.49
497.17	1701.86
497.37	1660.90
497.57	1677.29
497.77	1683.43
497.97	1669.09
498.17	1722.34
498.37	1714.15
498.57	1714.15
498.77	1734.63
498.97	1746.92
499.17	1851.36
499.38	1691.62
499.58	1785.83
499.78	1759.21
499.98	1802.21
500.18	1665.00
500.38	1791.97
500.58	1857.51
500.78	2576.34
500.98	4489.15
501.18	5930.92
501.38	6797.21
501.58	7163.79
501.78	6655.90
501.98	5668.78
502.18	5212.08
502.38	4374.46
502.58	4138.94
502.78	3780.55
502.98	3700.68
503.18	3454.92
503.38	3149.78
503.59	2838.48
503.79	2672.60
503.99	2422.75
504.19	2238.43
504.39	2213.85
504.59	2201.57
504.79	2103.26
504.99	2072.54
505.19	1867.75
505.39	1941.47
505.59	1900.52
505.79	1884.13
505.99	1882.08
506.19	1794.02
506.39	1863.65
506.59	1693.67
506.79	1757.16
506.99	1781.73
507.19	1714.15
507.39	1708.01
507.59	1628.14
507.79	1720.29
507.99	1648.61
508.19	1757.16
508.39	1642.47
508.59	1834.98
508.79	1742.82
508.99	1867.75
509.19	1685.48
509.39	1775.59
509.59	1669.09
509.79	1617.90
509.99	1701.86
510.19	1894.37
510.39	1796.07
510.59	1779.68
510.79	1665.00
510.99	1642.47
511.19	1675.24
511.39	1824.74
511.59	1771.49
511.79	1781.73
511.99	1746.92
512.19	1873.89
512.38	1751.01
512.58	1656.81
512.78	1712.10
512.98	1730.53
513.18	1822.69
513.38	1660.90
513.58	1757.16
513.78	1697.77
513.98	1744.87
514.18	1718.25
514.38	1681.38
514.58	1814.50
514.78	1726.44
514.98	1697.77
515.18	1759.21
515.38	1691.62
515.58	1871.84
515.78	1736.68
515.98	1701.86
516.18	1808.36
516.38	1665.00
516.57	1619.94
516.77	1753.06
516.97	1744.87
517.17	1626.09
517.37	1599.46
517.57	1720.29
517.77	1703.91
517.97	1685.48
518.17	1681.38
518.37	1611.75
518.57	1650.66
518.77	1773.54
518.97	1673.19
519.16	1820.64
519.36	1845.22
519.56	1695.72
519.76	1662.95
519.96	1673.19
520.16	1824.74
520.36	1728.49
520.56	1708.01
520.76	1683.43
520.96	1712.10
521.16	1773.54
521.35	1800.16
521.55	1796.07
521.75	1732.58
521.95	1695.72
522.15	1724.39
522.35	1615.85
522.55	1634.28
522.75	1740.77
522.95	1699.81
523.14	1683.43
523.34	1767.40
523.54	1728.49
523.74	1787.88
523.94	1781.73
524.14	1669.09
524.34	1677.29
524.54	1800.16
524.73	1732.58
524.93	1746.92
525.13	1738.73
525.33	1685.48
525.53	1900.52
525.73	1779.68
525.93	1695.72
526.13	1619.94
526.32	1691.62
526.52	1755.11
526.72	1894.37
526.92	1794.02
527.12	1675.24
527.32	1714.15
527.52	1728.49
527.71	1746.92
527.91	1708.01
528.11	1714.15
528.31	1673.19
528.51	1679.33
528.71	1757.16
528.90	1816.55
529.10	1785.83
529.30	1824.74
529.50	1597.42
529.70	1705.96
529.90	1718.25
530.09	1742.82
530.29	1615.85
530.49	1683.43
530.69	1888.23
530.89	1691.62
531.09	1794.02
531.28	1673.19
531.48	1820.64
531.68	1671.14
531.88	1746.92
532.08	1779.68
532.28	1685.48
532.47	1718.25
532.67	1791.97
532.87	1779.68
533.07	1685.48
533.27	1728.49
533.46	1810.40
533.66	1703.91
533.86	1705.96
534.06	1685.48
534.26	1755.11
534.45	1677.29
534.65	1804.26
534.85	1683.43
535.05	1691.62
535.25	1773.54
535.44	1681.38
535.64	1751.01
535.84	1720.29
536.04	1763.30
536.24	1685.48
536.43	1662.95
536.63	1722.34
536.83	1654.76
537.03	1730.53
537.22	1660.90
537.42	1691.62
537.62	1685.48
537.82	1634.28
538.02	1746.92
538.21	1863.65
538.41	1855.46
538.61	1738.73
538.81	1765.35
539.00	1804.26
539.20	1599.46
539.40	1726.44
539.60	1726.44
539.79	1701.86
539.99	1720.29
540.19	1703.91
540.39	1716.20
540.58	1714.15
540.78	1824.74
540.98	1718.25
541.18	1755.11
541.37	1779.68
541.57	1744.87
541.77	1722.34
541.97	1701.86
542.16	1697.77
542.36	1708.01
542.56	1667.05
542.76	1859.56
542.95	1724.39
543.15	1693.67
543.35	1748.97
543.54	1736.68
543.74	1658.85
543.94	1773.54
544.14	1736.68
544.33	1767.40
544.53	1720.29
544.73	1742.82
544.93	1736.68
545.12	1699.81
545.32	1679.33
545.52	1705.96
545.71	1728.49
545.91	1701.86
546.11	1644.52
546.30	1730.53
546.50	1699.81
546.70	1685.48
546.90	1853.41
547.09	1658.85
547.29	1662.95
547.49	1791.97
547.68	1732.58
547.88	1705.96
548.08	1800.16
548.27	2133.98
548.47	1716.20
548.67	1730.53
548.87	1759.21
549.06	1681.38
549.26	1703.91
549.46	1767.40
549.65	1755.11
549.85	1748.97
550.05	1738.73
550.24	1718.25
550.44	1759.21
550.64	1660.90
550.83	1716.20
551.03	1736.68
551.23	1765.35
551.42	1816.55
551.62	1650.66
551.82	1738.73
552.01	1771.49
552.21	1783.78
552.41	1718.25
552.60	1783.78
552.80	1779.68
553.00	1748.97
553.19	1677.29
553.39	1853.41
553.59	1710.05
553.78	1767.40
553.98	1740.77
554.17	1691.62
554.37	1812.45
554.57	1814.50
554.76	1685.48
554.96	1658.85
555.16	1693.67
555.35	1783.78
555.55	1714.15
555.75	1755.11
555.94	1822.69
556.14	1665.00
556.33	1765.35
556.53	1716.20
556.73	1705.96
556.92	1748.97
557.12	1923.04
557.32	1767.40
557.51	1789.92
557.71	1755.11
557.90	1796.07
558.10	1888.23
558.30	1662.95
558.49	1699.81
558.69	1681.38
558.88	1728.49
559.08	1759.21
559.28	1724.39
559.47	1708.01
559.67	1822.69
559.86	1837.03
560.06	1730.53
560.26	1708.01
560.45	1779.68
560.65	1646.57
560.84	1828.84
561.04	1662.95
561.24	1738.73
561.43	1732.58
561.63	1882.08
561.82	1685.48
562.02	1675.24
562.22	1673.19
562.41	1669.09
562.61	1607.66
562.80	1615.85
563.00	1875.94
563.19	1779.68
563.39	1746.92
563.59	1746.92
563.78	1738.73
563.98	1605.61
564.17	1722.34
564.37	1712.10
564.56	1767.40
564.76	1693.67
564.96	1869.80
565.15	1777.64
565.35	1839.08
565.54	1650.66
565.74	1771.49
565.93	1777.64
566.13	1730.53
566.32	1705.96
566.52	1730.53
566.71	1679.33
566.91	1755.11
567.11	1662.95
567.30	1705.96
567.50	1779.68
567.69	1726.44
567.89	1748.97
568.08	1755.11
568.28	1744.87
568.47	1585.13
568.67	1728.49
568.86	1738.73
569.06	1787.88
569.25	1697.77
569.45	1638.38
569.64	1738.73
569.84	1757.16
570.04	1724.39
570.23	1701.86
570.43	1755.11
570.62	1746.92
570.82	1853.41
571.01	1615.85
571.21	1755.11
571.40	1550.31
571.60	1796.07
571.79	1775.59
571.99	1730.53
572.18	1691.62
572.38	1816.55
572.57	1693.67
572.77	1714.15
572.96	1869.80
573.16	1794.02
573.35	1730.53
573.55	1822.69
573.74	1748.97
573.94	1748.97
574.13	1742.82
574.33	1779.68
574.52	1751.01
574.71	1722.34
574.91	1804.26
575.10	1662.95
575.30	1761.25
575.49	1611.75
575.69	1720.29
575.88	1791.97
576.08	1701.86
576.27	1779.68
576.47	1759.21
576.66	1837.03
576.86	1875.94
577.05	1765.35
577.25	1791.97
577.44	1849.32
577.64	1677.29
577.83	1779.68
578.02	1746.92
578.22	1824.74
578.41	1757.16
578.61	1689.57
578.80	1705.96
579.00	1787.88
579.19	1763.30
579.39	1767.40
579.58	1828.84
579.77	1746.92
579.97	1816.55
580.16	1853.41
580.36	1791.97
580.55	1812.45
580.75	1787.88
580.94	1781.73
581.13	1830.88
581.33	1890.28
581.52	1714.15
581.72	1796.07
581.91	1843.17
582.11	1691.62
582.30	1798.12
582.49	1746.92
582.69	1732.58
582.88	1718.25
583.08	1849.32
583.27	1787.88
583.47	1740.77
583.66	1732.58
583.85	1705.96
584.05	1742.82
584.24	1818.60
584.44	1798.12
584.63	1785.83
584.82	1746.92
585.02	1824.74
585.21	1787.88
585.41	1804.26
585.60	1853.41
585.79	1912.80
585.99	1927.14
586.18	1890.28
586.37	2207.71
586.57	3340.24
586.76	9985.90
586.96	24682.12
587.15	34940.39
587.34	40945.04
587.54	42761.59
587.73	37623.23
587.93	26619.50
588.12	21853.87
588.31	18779.87
588.51	16512.77
588.70	15427.35
588.89	14202.66
589.09	12701.50
589.28	11194.20
589.47	9584.49
589.67	8165.25
589.86	6453.15
590.06	4976.56
590.25	3915.72
590.44	3198.93
590.64	2627.54
590.83	2193.37
591.02	2099.17
591.22	1951.71
591.41	1914.85
591.60	1843.17
591.80	1929.19
591.99	1746.92
592.18	1726.44
592.38	1841.12
592.57	1746.92
592.76	1779.68
592.96	1736.68
593.15	1748.97
593.34	1796.07
593.54	1718.25
593.73	1746.92
593.92	1667.05
594.12	1796.07
594.31	1773.54
594.50	1751.01
594.70	1767.40
594.89	1775.59
595.08	1679.33
595.28	1755.11
595.47	1920.99
595.66	1730.53
595.86	1726.44
596.05	1720.29
596.24	1652.71
596.43	1748.97
596.63	1847.27
596.82	1650.66
597.01	1689.57
597.21	1824.74
597.40	1742.82
597.59	1818.60
597.79	1738.73
597.98	1736.68
598.17	1789.92
598.36	1714.15
598.56	1779.68
598.75	1716.20
598.94	1787.88
599.14	1705.96
599.33	1675.24
599.52	1785.83
599.71	1669.09
599.91	1769.44
600.10	1800.16
600.29	1619.94
600.48	1769.44
600.68	1759.21
600.87	1765.35
601.06	1763.30
601.26	1726.44
601.45	1800.16
601.64	1701.86
601.83	1834.98
602.03	1695.72
602.22	1669.09
602.41	1787.88
602.60	1847.27
602.80	1841.12
602.99	1724.39
603.18	1726.44
603.37	1724.39
603.57	1699.81
603.76	1746.92
603.95	1822.69
604.14	1712.10
604.34	1646.57
604.53	1656.81
604.72	1703.91
604.91	1789.92
605.10	1652.71
605.30	1677.29
605.49	1931.23
605.68	1771.49
605.87	1710.05
606.07	1644.52
606.26	1658.85
606.45	1736.68
606.64	1783.78
606.84	1685.48
607.03	1669.09
607.22	1798.12
607.41	1748.97
607.60	1705.96
607.80	1773.54
607.99	1683.43
608.18	1771.49
608.37	1642.47
608.56	1712.10
608.76	1751.01
608.95	1755.11
609.14	1689.57
609.33	1765.35
609.52	1789.92
609.72	1804.26
609.91	1751.01
610.10	1732.58
610.29	1896.42
610.48	1712.10
610.68	1751.01
610.87	1714.15
611.06	1802.21
611.25	1697.77
611.44	1839.08
611.63	1701.86
611.83	1761.25
612.02	1718.25
612.21	1763.30
612.40	1550.31
612.59	1730.53
612.79	1652.71
612.98	1736.68
613.17	1845.22
613.36	1714.15
613.55	1742.82
613.74	1705.96
613.93	1714.15
614.13	1675.24
614.32	1763.30
614.51	1812.45
614.70	1712.10
614.89	1685.48
615.08	1746.92
615.28	2088.93
615.47	1654.76
615.66	1748.97
615.85	1755.11
616.04	1703.91
616.23	1701.86
616.42	1742.82
616.62	1738.73
616.81	1771.49
617.00	1759.21
617.19	1789.92
617.38	1597.42
617.57	1660.90
617.76	1728.49
617.95	1730.53
618.15	1714.15
618.34	1738.73
618.53	1646.57
618.72	1755.11
618.91	1873.89
619.10	1828.84
619.29	1734.63
619.48	1746.92
619.68	1681.38
619.87	1724.39
620.06	1652.71
620.25	1775.59
620.44	1771.49
620.63	1662.95
620.82	1640.42
621.01	1763.30
621.20	1705.96
621.39	1722.34
621.59	1769.44
621.78	1765.35
621.97	1724.39
622.16	1710.05
622.35	1746.92
622.54	1800.16
622.73	1736.68
622.92	1597.42
623.11	1806.31
623.30	1689.57
623.49	1767.40
623.68	1744.87
623.88	1781.73
624.07	1687.53
624.26	1759.21
624.45	1722.34
624.64	1697.77
624.83	1691.62
625.02	1761.25
625.21	1685.48
625.40	1693.67
625.59	1800.16
625.78	1695.72
625.97	1718.25
626.16	1839.08
626.35	1777.64
626.54	1679.33
626.74	1828.84
626.93	1615.85
627.12	1699.81
627.31	1734.63
627.50	1691.62
627.69	1775.59
627.88	1654.76
628.07	1734.63
628.26	1665.00
628.45	1667.05
628.64	1605.61
628.83	1703.91
629.02	1650.66
629.21	1734.63
629.40	1714.15
629.59	1615.85
629.78	1701.86
629.97	1677.29
630.16	1769.44
630.35	1726.44
630.54	1665.00
630.73	1724.39
630.92	1685.48
631.11	1613.80
631.30	1832.93
631.49	1882.08
631.68	1648.61
631.87	1769.44
632.06	1665.00
632.25	1775.59
632.44	1679.33
632.63	1675.24
632.82	1667.05
633.01	1708.01
633.20	1740.77
633.39	1634.28
633.58	1621.99
633.77	1669.09
633.96	1703.91
634.15	1806.31
634.34	1716.20
634.53	1712.10
634.72	1714.15
634.91	1705.96
635.10	1773.54
635.29	1732.58
635.48	1701.86
635.67	1693.67
635.86	1656.81
636.05	1800.16
636.24	1675.24
636.43	1697.77
636.62	1697.77
636.81	1591.27
637.00	1722.34
637.19	1748.97
637.38	1708.01
637.57	1689.57
637.76	1708.01
637.95	1755.11
638.14	1699.81
638.33	1640.42
638.52	1767.40
638.71	1587.18
638.89	1671.14
639.08	1783.78
639.27	1722.34
639.46	1708.01
639.65	1802.21
639.84	1730.53
640.03	1783.78
640.22	1687.53
640.41	1882.08
640.60	1679.33
640.79	1759.21
640.98	1781.73
641.17	1738.73
641.36	1705.96
641.55	1798.12
641.74	1652.71
641.92	1628.14
642.11	1595.37
642.30	1703.91
642.49	1679.33
642.68	1681.38
642.87	1736.68
643.06	1806.31
643.25	1796.07
643.44	1662.95
643.63	1761.25
643.82	1714.15
644.00	1665.00
644.19	1748.97
644.38	1675.24
644.57	1775.59
644.76	1800.16
644.95	1712.10
645.14	1744.87
645.33	1705.96
645.52	1654.76
645.71	1656.81
645.89	1599.46
646.08	1755.11
646.27	1714.15
646.46	1806.31
646.65	1658.85
646.84	1771.49
647.03	1697.77
647.22	1755.11
647.40	1720.29
647.59	1681.38
647.78	1572.84
647.97	1603.56
648.16	1609.70
648.35	1824.74
648.54	1787.88
648.73	1703.91
648.91	1753.06
649.10	1763.30
649.29	1673.19
649.48	1640.42
649.67	1693.67
649.86	1722.34
650.05	1673.19
650.23	1796.07
650.42	1669.09
650.61	1765.35
650.80	1742.82
650.99	1830.88
651.18	1779.68
651.36	1759.21
651.55	1687.53
651.74	1769.44
651.93	1636.33
652.12	1685.48
652.31	1740.77
652.49	1710.05
652.68	1660.90
652.87	1767.40
653.06	1705.96
653.25	1822.69
653.44	1779.68
653.62	1775.59
653.81	1638.38
654.00	1652.71
654.19	1742.82
654.38	1771.49
654.56	1755.11
654.75	1685.48
654.94	1794.02
655.13	1734.63
655.32	1738.73
655.51	1697.77
655.69	1763.30
655.88	1675.24
656.07	1617.90
656.26	1789.92
656.45	1644.52
656.63	1718.25
656.82	1697.77
657.01	1771.49
657.20	1640.42
657.38	1748.97
657.57	1757.16
657.76	1619.94
657.95	1736.68
658.14	1685.48
658.32	1685.48
658.51	1665.00
658.70	1757.16
658.89	1773.54
659.08	1732.58
659.26	1708.01
659.45	1662.95
659.64	1765.35
659.83	1654.76
660.01	1964.00
660.20	1720.29
660.39	1830.88
660.58	1634.28
660.76	1718.25
660.95	1587.18
661.14	1679.33
661.33	1681.38
661.51	1726.44
661.70	1699.81
661.89	1726.44
662.08	1798.12
662.26	1652.71
662.45	1648.61
662.64	1816.55
662.83	1779.68
663.01	1626.09
663.20	1658.85
663.39	1720.29
663.58	1710.05
663.76	1699.81
663.95	1656.81
664.14	1591.27
664.32	1757.16
664.51	1603.56
664.70	1658.85
664.89	1765.35
665.07	1626.09
665.26	1705.96
665.45	1607.66
665.64	1681.38
665.82	1783.78
666.01	1695.72
666.20	1705.96
666.38	1810.40
666.57	1818.60
666.76	2148.32
666.95	4454.33
667.13	10458.98
667.32	15552.27
667.51	17889.01
667.69	19279.58
667.88	17497.84
668.07	12517.18
668.25	9598.83
668.44	8044.42
668.63	7516.05
668.81	6748.06
669.00	6322.08
669.19	5773.22
669.38	5199.79
669.56	4702.14
669.75	4065.22
669.94	3336.14
670.12	2873.30
670.31	2482.14
670.50	2250.72
670.68	2080.74
670.87	1841.12
671.06	1798.12
671.24	1791.97
671.43	1830.88
671.62	1722.34
671.80	1722.34
671.99	1718.25
672.18	1656.81
672.36	1800.16
672.55	1681.38
672.74	1693.67
672.92	1648.61
673.11	1796.07
673.29	1662.95
673.48	1773.54
673.67	1689.57
673.85	1705.96
674.04	1632.23
674.23	1734.63
674.41	1857.51
674.60	1665.00
674.79	1681.38
674.97	1658.85
675.16	1736.68
675.34	1781.73
675.53	1630.18
675.72	1779.68
675.90	1853.41
676.09	1634.28
676.28	1730.53
676.46	1615.85
676.65	1685.48
676.83	1656.81
677.02	1683.43
677.21	1757.16
677.39	1755.11
677.58	1634.28
677.77	1720.29
677.95	1685.48
678.14	1787.88
678.32	1742.82
678.51	1660.90
678.70	1853.41
678.88	1640.42
679.07	1732.58
679.25	1691.62
679.44	1681.38
679.63	1689.57
679.81	1736.68
680.00	1765.35
680.18	1748.97
680.37	1849.32
680.55	1656.81
680.74	1718.25
680.93	1603.56
681.11	1751.01
681.30	1640.42
681.48	1708.01
681.67	1685.48
681.85	1701.86
682.04	1675.24
682.23	1742.82
682.41	1744.87
682.60	1658.85
682.78	1714.15
682.97	1671.14
683.15	1708.01
683.34	1757.16
683.53	1798.12
683.71	1634.28
683.90	1816.55
684.08	1738.73
684.27	1671.14
684.45	1712.10
684.64	1738.73
684.82	1697.77
685.01	1761.25
685.19	1769.44
685.38	1867.75
685.57	1755.11
685.75	1689.57
685.94	1712.10
686.12	1665.00
686.31	1628.14
686.49	1802.21
686.68	1562.60
686.86	1671.14
687.05	1728.49
687.23	1755.11
687.42	1740.77
687.60	1587.18
687.79	1746.92
687.97	1839.08
688.16	1677.29
688.34	1740.77
688.53	1566.70
688.71	1734.63
688.90	1753.06
689.08	1738.73
689.27	1634.28
689.45	1812.45
689.64	1671.14
689.82	1681.38
690.01	1753.06
690.19	1757.16
690.38	1660.90
690.56	1787.88
690.75	1722.34
690.93	1611.75
691.12	1654.76
691.30	1685.48
691.49	1626.09
691.67	1714.15
691.86	1804.26
692.04	1665.00
692.23	1671.14
692.41	1648.61
692.60	1783.78
692.78	1763.30
692.97	1691.62
693.15	1730.53
693.34	1775.59
693.52	1667.05
693.71	1636.33
693.89	1726.44
694.08	1656.81
694.26	1742.82
694.44	1787.88
694.63	1755.11
694.81	1673.19
695.00	1609.70
695.18	1736.68
695.37	1847.27
695.55	1691.62
695.74	1716.20
695.92	1695.72
696.10	1783.78
696.29	1624.04
696.47	1677.29
696.66	1640.42
696.84	1652.71
697.03	1640.42
697.21	1843.17
697.40	2285.53
697.58	1771.49
697.76	1650.66
697.95	1646.57
698.13	1648.61
698.32	1697.77
698.50	1732.58
698.68	1699.81
698.87	1787.88
699.05	1857.51
699.24	1679.33
699.42	1640.42
699.61	1718.25
699.79	1744.87
699.97	1759.21
700.16	1662.95
700.34	1699.81
700.53	1789.92
700.71	1765.35
700.89	1742.82
701.08	1636.33
701.26	1757.16
701.45	2074.59
701.63	1687.53
701.81	1691.62
702.00	1550.31
702.18	1701.86
702.37	1593.32
702.55	1742.82
702.73	1660.90
702.92	1605.61
703.10	1689.57
703.28	1787.88
703.47	1591.27
703.65	1716.20
703.84	1826.79
704.02	1683.43
704.20	1751.01
704.39	1630.18
704.57	1638.38
704.75	1791.97
704.94	1832.93
705.12	1751.01
705.30	1779.68
705.49	2258.91
705.67	4304.83
705.86	9412.46
706.04	12846.91
706.22	14741.28
706.41	15324.95
706.59	13659.95
706.77	10059.62
706.96	7337.87
707.14	6686.62
707.32	5988.26
707.51	5672.87
707.69	4954.04
707.87	4204.48
708.06	3459.02
708.24	2934.74
708.42	2516.95
708.61	2281.44
708.79	1968.10
708.97	1804.26
709.16	1777.64
709.34	1693.67
709.52	1767.40
709.71	1652.71
709.89	1732.58
710.07	1714.15
710.26	1634.28
710.44	1794.02
710.62	1765.35
710.80	1703.91
710.99	1720.29
711.17	1775.59
711.35	1632.23
711.54	1683.43
711.72	1712.10
711.90	1769.44
712.09	1728.49
712.27	1679.33
712.45	1703.91
712.63	1697.77
712.82	1671.14
713.00	1726.44
713.18	1757.16
713.37	1718.25
713.55	1751.01
713.73	1642.47
713.91	1728.49
714.10	1658.85
714.28	1648.61
714.46	1654.76
714.65	1728.49
714.83	1791.97
715.01	1748.97
715.19	1712.10
715.38	1644.52
715.56	1667.05
715.74	1609.70
715.92	1632.23
716.11	1791.97
716.29	1527.78
716.47	1724.39
716.65	1677.29
716.84	1589.22
717.02	1734.63
717.20	1607.66
717.38	1652.71
717.57	1677.29
717.75	1697.77
717.93	1742.82
718.11	1695.72
718.30	1564.65
718.48	1746.92
718.66	1771.49
718.84	1763.30
719.03	1658.85
719.21	1585.13
719.39	1849.32
719.57	1718.25
719.75	1765.35
719.94	1671.14
720.12	1732.58
720.30	1708.01
720.48	1755.11
720.67	1660.90
720.85	1650.66
721.03	1800.16
721.21	1636.33
721.39	1783.78
721.58	1779.68
721.76	1652.71
721.94	1665.00
722.12	1689.57
722.30	1777.64
722.49	1710.05
722.67	1681.38
722.85	1708.01
723.03	1669.09
723.21	1710.05
723.40	1660.90
723.58	1746.92
723.76	1734.63
723.94	1724.39
724.12	1712.10
724.30	1767.40
724.49	1787.88
724.67	1699.81
724.85	1775.59
725.03	1624.04
725.21	1642.47
725.40	1722.34
725.58	1628.14
725.76	1769.44
725.94	1718.25
726.12	1693.67
726.30	1685.48
726.49	1726.44
726.67	1681.38
726.85	1701.86
727.03	1773.54
727.21	2156.51
727.39	2906.07
727.57	3807.17
727.76	4249.54
727.94	4304.83
728.12	4323.26
728.30	3721.16
728.48	2932.69
728.66	2811.86
728.84	2535.39
729.03	2346.97
729.21	2222.05
729.39	2127.84
729.57	1890.28
729.75	1871.84
729.93	1796.07
730.11	1767.40
730.30	1687.53
730.48	1699.81
730.66	1716.20
730.84	1718.25
731.02	1638.38
731.20	1636.33
731.38	1769.44
731.56	1615.85
731.74	1654.76
731.93	1697.77
732.11	1722.34
732.29	1748.97
732.47	1667.05
732.65	1779.68
732.83	1775.59
733.01	1771.49
733.19	1710.05
733.37	1748.97
733.56	1703.91
733.74	1693.67
733.92	1759.21
734.10	1656.81
734.28	1640.42
734.46	1621.99
734.64	1652.71
734.82	1800.16
735.00	1675.24
735.18	1736.68
735.36	1693.67
735.54	1740.77
735.73	1705.96
735.91	1683.43
736.09	1738.73
736.27	1714.15
736.45	1705.96
736.63	1583.08
736.81	1699.81
736.99	1736.68
737.17	1798.12
737.35	1708.01
737.53	1665.00
737.71	1662.95
737.89	1773.54
738.07	1632.23
738.25	1613.80
738.43	1607.66
738.61	1673.19
738.80	1675.24
738.98	1650.66
739.16	1734.63
739.34	1578.98
739.52	1802.21
739.70	1669.09
739.88	1697.77
740.06	1755.11
740.24	1615.85
740.42	1718.25
740.60	1605.61
740.78	1734.63
740.96	1621.99
741.14	1718.25
741.32	1726.44
741.50	1615.85
741.68	1853.41
741.86	1794.02
742.04	1595.37
742.22	1654.76
742.40	1730.53
742.58	1742.82
742.76	1703.91
742.94	1730.53
743.12	1585.13
743.30	1624.04
743.48	1673.19
743.66	1701.86
743.84	1681.38
744.02	1601.51
744.20	1714.15
744.38	1681.38
744.56	1650.66
744.74	1726.44
744.92	1677.29
745.10	1769.44
745.28	1724.39
745.46	1791.97
745.64	1665.00
745.82	1730.53
746.00	1718.25
746.18	1718.25
746.36	1638.38
746.54	1724.39
746.72	1665.00
746.90	1644.52
747.08	1734.63
747.26	1726.44
747.44	1689.57
747.62	1757.16
747.80	1720.29
747.98	1740.77
748.15	1697.77
748.33	1781.73
748.51	1667.05
748.69	1753.06
748.87	1699.81
749.05	1669.09
749.23	1642.47
749.41	1767.40
749.59	1710.05
749.77	1783.78
749.95	1718.25
750.13	1665.00
750.31	1685.48
750.49	1628.14
750.67	1781.73
750.85	1722.34
751.03	1740.77
751.20	1773.54
751.38	1751.01
751.56	1636.33
751.74	1755.11
751.92	1669.09
752.10	1738.73
752.28	1724.39
752.46	1677.29
752.64	1650.66
752.82	1740.77
753.00	1812.45
753.18	1650.66
753.35	1634.28
753.53	1705.96
753.71	1759.21
753.89	1701.86
754.07	1730.53
754.25	1751.01
754.43	1691.62
754.61	1599.46
754.79	1765.35
754.97	1658.85
755.14	1796.07
755.32	1654.76
755.50	1648.61
755.68	1765.35
755.86	1673.19
756.04	1677.29
756.22	1570.79
756.40	1812.45
756.57	1783.78
756.75	1636.33
756.93	1849.32
757.11	1720.29
757.29	1722.34
757.47	1630.18
757.65	1609.70
757.82	1581.03
758.00	1665.00
758.18	1603.56
758.36	1626.09
758.54	1753.06
758.72	1595.37
758.90	1689.57
759.07	1685.48
759.25	1654.76
759.43	1738.73
759.61	1689.57
759.79	2103.26
759.97	1732.58
760.15	1699.81
760.32	1671.14
760.50	1732.58
760.68	1767.40
760.86	1587.18
761.04	1724.39
761.22	1730.53
761.39	1669.09
761.57	1746.92
761.75	1683.43
761.93	1785.83
762.11	1665.00
762.28	1726.44
762.46	1669.09
762.64	1738.73
762.82	1648.61
763.00	1652.71
763.18	1716.20
763.35	1572.84
763.53	1767.40
763.71	1724.39
763.89	1726.44
764.07	1732.58
764.24	1781.73
764.42	1755.11
764.60	1640.42
764.78	1800.16
764.96	1710.05
765.13	1755.11
765.31	1718.25
765.49	1746.92
765.67	1675.24
765.84	1634.28
766.02	1683.43
766.20	1638.38
766.38	1669.09
766.56	1628.14
766.73	1695.72
766.91	1755.11
767.09	1730.53
767.27	1728.49
767.44	1673.19
767.62	1740.77
767.80	1796.07
767.98	1673.19
768.15	1634.28
768.33	1789.92
768.51	1652.71
768.69	1724.39
768.87	1781.73
769.04	1714.15
769.22	1804.26
769.40	1761.25
769.58	1880.04
769.75	1796.07
769.93	1796.07
770.11	1679.33
770.28	1730.53
770.46	1744.87
770.64	1763.30
770.82	1677.29
770.99	1644.52
771.17	1693.67
771.35	1654.76
771.53	1705.96
771.70	1724.39
771.88	1712.10
772.06	1708.01
772.23	1722.34
772.41	1834.98
772.59	1665.00
772.77	1656.81
772.94	1748.97
773.12	1757.16
773.30	1691.62
773.47	1699.81
773.65	1605.61
773.83	1757.16
774.01	1691.62
774.18	1585.13
774.36	1728.49
774.54	1585.13
774.71	1759.21
774.89	1626.09
775.07	1689.57
775.24	1640.42
775.42	1697.77
775.60	1748.97
775.78	1673.19
775.95	1697.77
776.13	1603.56
776.31	1515.50
776.48	1689.57
776.66	1771.49
776.84	1644.52
777.01	1613.80
777.19	1658.85
777.37	1650.66
777.54	1669.09
777.72	1869.80
777.90	1714.15
778.07	1675.24
778.25	1886.18
778.43	1703.91
778.60	1665.00
778.78	1742.82
778.96	1722.34
779.13	1669.09
779.31	1708.01
779.49	1638.38
779.66	1642.47
779.84	1683.43
780.01	1701.86
780.19	1642.47
780.37	1730.53
780.54	1740.77
780.72	1665.00
780.90	1726.44
781.07	1662.95
781.25	1601.51
781.43	1767.40
781.60	1652.71
781.78	1730.53
781.95	1738.73
782.13	1634.28
782.31	1665.00
782.48	1583.08
782.66	1710.05
782.83	1732.58
783.01	1708.01
783.19	1771.49
783.36	1734.63
783.54	1566.70
783.72	1748.97
783.89	1679.33
784.07	1681.38
784.24	1718.25
784.42	1773.54
784.60	1665.00
784.77	1691.62
784.95	1630.18
785.12	1714.15
785.30	1679.33
785.47	1632.23
785.65	1658.85
785.83	1703.91
786.00	1658.85
786.18	1716.20
786.35	1648.61
786.53	1642.47
786.71	1736.68
786.88	1665.00
787.06	1710.05
787.23	1671.14
787.41	1624.04
787.58	1636.33
787.76	1611.75
787.94	1689.57
788.11	1748.97
788.29	1644.52
788.46	1712.10
788.64	1630.18
788.81	1609.70
788.99	1591.27
789.16	1693.67
789.34	1679.33
789.52	1773.54
789.69	1675.24
789.87	1644.52
790.04	1720.29
790.22	1777.64
790.39	1767.40
790.57	1658.85
790.74	1578.98
790.92	1710.05
791.09	1638.38
791.27	1701.86
791.44	1662.95
791.62	1642.47
791.79	1789.92
791.97	1650.66
792.15	1863.65
792.32	1677.29
792.50	1705.96
792.67	1730.53
792.85	1757.16
793.02	1681.38
793.20	1669.09
793.37	1636.33
793.55	1656.81
793.72	1642.47
793.90	1720.29
794.07	1669.09
794.25	1652.71
794.42	1693.67
794.60	1693.67
794.77	1812.45
794.95	1687.53
795.12	1689.57
795.30	1665.00
795.47	1665.00
795.65	1789.92
795.82	1748.97
796.00	1722.34
796.17	1660.90
796.34	1578.98
796.52	1697.77
796.69	1777.64
796.87	1738.73
797.04	1798.12
797.22	1710.05
797.39	1726.44
797.57	1716.20
797.74	1667.05
797.92	1667.05
798.09	1703.91
798.27	1748.97
798.44	1710.05
798.62	1576.94
798.79	1714.15
798.96	1714.15
799.14	1638.38
799.31	1783.78
799.49	1740.77
799.66	1734.63
799.84	1695.72
800.01	1634.28
800.19	1665.00
800.36	1642.47
800.53	1634.28
800.71	1697.77
800.88	1785.83
801.06	1624.04
801.23	1687.53
801.41	1679.33
801.58	1701.86
801.75	1599.46
801.93	1730.53
802.10	1742.82
802.28	1687.53
802.45	1673.19
802.63	1722.34
802.80	1781.73
802.97	1648.61
803.15	1744.87
803.32	1638.38
803.50	1589.22
803.67	1660.90
803.84	1607.66
804.02	1701.86
804.19	1654.76
804.37	1562.60
804.54	1656.81
804.71	1654.76
804.89	1732.58
805.06	1720.29
805.24	1634.28
805.41	1660.90
805.58	1632.23
805.76	1880.04
805.93	1697.77
806.10	1716.20
806.28	1783.78
806.45	1665.00
806.63	1748.97
806.80	1716.20
806.97	1703.91
807.15	1640.42
807.32	1644.52
807.49	1705.96
807.67	1617.90
807.84	1665.00
808.01	1671.14
808.19	1816.55
808.36	1818.60
808.54	1669.09
808.71	1621.99
808.88	1650.66
809.06	1779.68
809.23	1751.01
809.40	1695.72
809.58	1798.12
809.75	1644.52
809.92	1574.89
810.10	1871.84
810.27	1744.87
810.44	1734.63
810.62	1669.09
810.79	1671.14
810.96	1558.50
811.14	1642.47
811.31	1665.00
811.48	1718.25
811.66	1679.33
811.83	1718.25
812.00	1761.25
812.18	1785.83
812.35	1820.64
812.52	1646.57
812.69	1669.09
812.87	1681.38
813.04	1630.18
813.21	1730.53
813.39	1673.19
813.56	1652.71
813.73	1716.20
813.91	1615.85
814.08	1671.14
814.25	1710.05
814.42	1546.22
814.60	1609.70
814.77	1697.77
814.94	1791.97
815.12	1703.91
815.29	1751.01
815.46	1726.44
815.63	1730.53
815.81	1718.25
815.98	1693.67
816.15	1732.58
816.33	1650.66
816.50	1677.29
816.67	1685.48
816.84	1701.86
817.02	1572.84
817.19	1689.57
817.36	1656.81
817.53	1652.71
817.71	1669.09
817.88	1757.16
818.05	1636.33
818.22	1615.85
818.40	1834.98
818.57	1626.09
818.74	1753.06
818.91	1632.23
819.09	1640.42
819.26	1720.29
819.43	1605.61
819.60	1712.10
819.78	1734.63
819.95	1753.06
820.12	1665.00
820.29	1714.15
820.47	1802.21
820.64	1679.33
820.81	1566.70
820.98	1640.42
821.15	1648.61
821.33	1710.05
821.50	1671.14
821.67	1683.43
821.84	1697.77
822.02	1720.29
822.19	1728.49
822.36	1650.66
822.53	1656.81
822.70	1718.25
822.88	1736.68
823.05	1771.49
823.22	1609.70
823.39	1710.05
823.56	1654.76
823.74	1798.12
823.91	1673.19
824.08	1624.04
824.25	1626.09
824.42	1759.21
824.60	1595.37
824.77	1724.39
824.94	1789.92
825.11	1695.72
825.28	1613.80
825.45	1658.85
825.63	1673.19
825.80	1667.05
825.97	1675.24
826.14	1779.68
826.31	1589.22
826.48	1722.34
826.66	1681.38
826.83	1667.05
827.00	1677.29
827.17	1697.77
827.34	1757.16
827.51	1605.61
827.69	1695.72
827.86	1693.67
828.03	1757.16
828.20	1720.29
828.37	1624.04
828.54	1710.05
828.71	1689.57
828.89	1798.12
829.06	1640.42
829.23	1783.78
829.40	1636.33
829.57	1701.86
829.74	1791.97
829.91	1646.57
830.09	1720.29
830.26	1673.19
830.43	1773.54
830.60	1628.14
830.77	1810.40
830.94	1802.21
831.11	1775.59
831.28	1671.14
831.46	1675.24
831.63	1646.57
831.80	1791.97
831.97	1656.81
832.14	1679.33
832.31	1667.05
832.48	1708.01
832.65	1716.20
832.82	1669.09
832.99	1777.64
833.17	1658.85
833.34	1740.77
833.51	1638.38
833.68	1669.09
833.85	1714.15
834.02	1681.38
834.19	1624.04
834.36	1638.38
834.53	1769.44
834.70	1794.02
834.87	1767.40
835.04	1646.57
835.22	1628.14
835.39	1693.67
835.56	1583.08
835.73	1681.38
835.90	1753.06
836.07	1566.70
836.24	1697.77
836.41	1656.81
836.58	1560.55
836.75	1798.12
836.92	1740.77
837.09	1755.11
837.26	1738.73
837.43	1656.81
837.60	1785.83
837.77	1621.99
837.94	1695.72
838.12	1812.45
838.29	1677.29
838.46	1605.61
838.63	1665.00
838.80	1734.63
838.97	1708.01
839.14	1703.91
839.31	1681.38
839.48	1667.05
839.65	1687.53
839.82	1697.77
839.99	1671.14
840.16	1802.21
840.33	1681.38
840.50	1681.38
840.67	1630.18
840.84	1646.57
841.01	1759.21
841.18	1650.66
841.35	1636.33
841.52	1802.21
841.69	1759.21
841.86	1665.00
842.03	1724.39
842.20	1722.34
842.37	1673.19
842.54	1673.19
842.71	1742.82
842.88	1619.94
843.05	1763.30
843.22	1701.86
843.39	1728.49
843.56	1697.77
843.73	1679.33
843.90	1679.33
844.07	1734.63
844.24	1724.39
844.41	1802.21
844.58	1660.90
844.75	1759.21
844.92	1738.73
845.09	1726.44
845.26	1789.92
845.43	1787.88
845.60	1621.99
845.77	1751.01
845.94	1640.42
846.10	1753.06
846.27	1589.22
846.44	1636.33
846.61	1687.53
846.78	1644.52
846.95	1755.11
847.12	1722.34
847.29	1691.62
847.46	1722.34
847.63	1722.34
847.80	1617.90
847.97	1572.84
848.14	1828.84
848.31	1724.39
848.48	1691.62
848.65	1763.30
848.82	1683.43
848.98	1777.64
849.15	1728.49
849.32	1757.16
849.49	1728.49
849.66	1662.95
849.83	1687.53
850.00	1720.29
850.17	1724.39
850.34	1650.66
850.51	1671.14
850.68	1720.29
850.85	1791.97
851.01	1720.29
851.18	1650.66
851.35	1730.53
851.52	1691.62
851.69	1675.24
851.86	1648.61
852.03	1732.58
852.20	1724.39
852.37	1712.10
852.53	1578.98
852.70	1683.43
852.87	1724.39
853.04	1740.77
853.21	1748.97
853.38	1748.97
853.55	1771.49
853.72	1828.84
853.89	1658.85
854.05	1673.19
854.22	1603.56
854.39	1693.67
854.56	1679.33
854.73	1759.21
854.90	1673.19
855.07	1671.14
855.23	1648.61
855.40	1695.72
855.57	1642.47
855.74	1654.76
855.91	1875.94
856.08	1691.62
856.25	1638.38
856.41	1734.63
856.58	1615.85
856.75	1716.20
856.92	1669.09
857.09	1716.20
857.26	1624.04
857.42	1677.29
857.59	1769.44
857.76	1667.05
857.93	1691.62
858.10	1718.25
858.27	1605.61
858.43	1699.81
858.60	1665.00
858.77	1576.94
858.94	1568.74
859.11	1820.64
859.27	1634.28
859.44	1683.43
859.61	1695.72
859.78	1763.30
859.95	1665.00
860.12	1722.34
860.28	1794.02
860.45	1841.12
860.62	1703.91
860.79	1710.05
860.95	1722.34
861.12	1656.81
861.29	1726.44
861.46	1626.09
861.63	1730.53
861.79	1658.85
861.96	1652.71
862.13	1753.06
862.30	1753.06
862.47	1613.80
862.63	1591.27
862.80	1783.78
862.97	1703.91
863.14	1732.58
863.30	1775.59
863.47	1611.75
863.64	1820.64
863.81	1695.72
863.97	1697.77
864.14	1708.01
864.31	1693.67
864.48	1748.97
864.65	1716.20
864.81	1679.33
864.98	1742.82
865.15	1720.29
865.32	1720.29
865.48	1771.49
865.65	1820.64
865.82	1642.47
865.98	1753.06
866.15	1763.30
866.32	1628.14
866.49	1662.95
866.65	1808.36
866.82	1626.09
866.99	1687.53
867.16	1675.24
867.32	1650.66
867.49	1705.96
867.66	1697.77
867.83	1685.48
867.99	1572.84
868.16	1705.96
868.33	1626.09
868.49	1673.19
868.66	1738.73
868.83	1673.19
868.99	1648.61
869.16	1695.72
869.33	1765.35
869.50	1751.01
869.66	1693.67
869.83	1646.57
870.00	1564.65
870.16	1718.25
870.33	1691.62
870.50	1720.29
870.66	1728.49
870.83	1794.02
871.00	1624.04
871.17	1728.49
871.33	1720.29
871.50	1617.90
871.67	1630.18
871.83	1703.91
872.00	1767.40
872.17	1691.62
872.33	1847.27
872.50	1689.57
872.67	1726.44
872.83	1681.38
873.00	1703.91
873.17	1675.24
873.33	1730.53
873.50	1714.15
873.67	1708.01
873.83	1640.42
874.00	1724.39
874.16	1708.01
874.33	1603.56
874.50	1697.77
874.66	1736.68
874.83	1681.38
875.00	1767.40
875.16	1746.92
875.33	1734.63
875.50	1578.98
875.66	1662.95
875.83	1712.10
875.99	1693.67
876.16	1771.49
876.33	1662.95
876.49	1679.33
876.66	1710.05
876.83	1640.42
876.99	1681.38
877.16	1634.28
877.32	1691.62
877.49	1708.01
877.66	1724.39
877.82	1863.65
877.99	1742.82
878.15	1724.39
878.32	1738.73
878.49	1691.62
878.65	1593.32
878.82	1757.16
878.98	1642.47
879.15	1695.72
879.32	1759.21
879.48	1775.59
879.65	1689.57
879.81	1675.24
879.98	1691.62
880.15	1628.14
880.31	1724.39
880.48	1656.81
880.64	1783.78
880.81	1751.01
880.97	1787.88
881.14	1720.29
881.31	1720.29
881.47	1845.22
881.64	1677.29
881.80	1662.95
881.97	1718.25
882.13	1720.29
882.30	1611.75
882.47	1644.52
882.63	1732.58
882.80	1667.05
882.96	1697.77
883.13	1755.11
883.29	1744.87
883.46	1722.34
883.62	1814.50
883.79	1685.48
883.95	1767.40
884.12	1675.24
884.29	1748.97
884.45	1714.15
884.62	1697.77
884.78	1624.04
884.95	1746.92
885.11	1619.94
885.28	1714.15
885.44	1658.85
885.61	1781.73
885.77	1837.03
885.94	1773.54
886.10	1736.68
886.27	1648.61
886.43	1755.11
886.60	1695.72
886.76	1716.20
886.93	1679.33
887.09	1689.57
887.26	1609.70
887.42	1689.57
887.59	1814.50
887.75	1789.92
887.92	1738.73
888.08	1691.62
888.25	1802.21
888.41	1798.12
888.58	1671.14
888.74	1591.27
888.91	1638.38
>>>>>End Processed Spectral Data<<<<<
