SpectraSuite Data File
++++++++++++++++++++++++++++++++++++
Date: Mon Jun 06 12:32:17 CEST 2016
User: root
Dark Spectrum Present: No
Reference Spectrum Present: No
Number of Sampled Component Spectra: 1
Spectrometers: USB4C02835
Integration Time (usec): 100000 (USB4C02835)
Spectra Averaged: 1 (USB4C02835)
Boxcar Smoothing: 0 (USB4C02835)
Correct for Electrical Dark: No (USB4C02835)
Strobe/Lamp Enabled: No (USB4C02835)
Correct for Detector Non-linearity: No (USB4C02835)
Correct for Stray Light: No (USB4C02835)
Number of Pixels in Processed Spectrum: 3648
>>>>>Begin Processed Spectral Data<<<<<
177.47	1445.87
177.69	1445.87
177.91	1445.87
178.13	1509.35
178.36	1460.20
178.58	1671.14
178.80	1726.44
179.02	1679.33
179.24	1628.14
179.46	1679.33
179.68	1763.30
179.90	1685.48
180.13	1730.53
180.35	1665.00
180.57	1697.77
180.79	1703.91
181.01	1619.94
181.23	1761.25
181.45	1738.73
181.67	1701.86
181.90	1714.15
182.12	1667.05
182.34	1665.00
182.56	1742.82
182.78	1744.87
183.00	1646.57
183.22	1685.48
183.44	1527.78
183.66	1896.42
183.89	1773.54
184.11	1726.44
184.33	1753.06
184.55	1802.21
184.77	1697.77
184.99	1734.63
185.21	1669.09
185.43	1812.45
185.65	1722.34
185.87	1675.24
186.10	1847.27
186.32	1820.64
186.54	1679.33
186.76	1763.30
186.98	1759.21
187.20	1673.19
187.42	1640.42
187.64	1671.14
187.86	1665.00
188.08	1736.68
188.30	1740.77
188.52	1615.85
188.75	1794.02
188.97	1732.58
189.19	1615.85
189.41	1671.14
189.63	1742.82
189.85	1703.91
190.07	1628.14
190.29	1701.86
190.51	1677.29
190.73	1552.36
190.95	1767.40
191.17	1732.58
191.39	1636.33
191.61	1615.85
191.84	1632.23
192.06	1746.92
192.28	1650.66
192.50	1865.70
192.72	1726.44
192.94	1636.33
193.16	1787.88
193.38	1681.38
193.60	1685.48
193.82	1613.80
194.04	1779.68
194.26	1699.81
194.48	1710.05
194.70	1652.71
194.92	1689.57
195.14	1714.15
195.36	1677.29
195.58	1730.53
195.80	1703.91
196.02	1660.90
196.24	1726.44
196.46	1765.35
196.69	1691.62
196.91	1816.55
197.13	1714.15
197.35	1609.70
197.57	1798.12
197.79	1669.09
198.01	1710.05
198.23	1785.83
198.45	1714.15
198.67	1583.08
198.89	1722.34
199.11	1693.67
199.33	1628.14
199.55	1572.84
199.77	1693.67
199.99	1789.92
200.21	1689.57
200.43	1736.68
200.65	1585.13
200.87	1638.38
201.09	1714.15
201.31	1679.33
201.53	1712.10
201.75	1732.58
201.97	1691.62
202.19	1685.48
202.41	1767.40
202.63	1822.69
202.85	1681.38
203.07	1753.06
203.29	1652.71
203.51	1646.57
203.73	1595.37
203.95	1755.11
204.17	1708.01
204.39	1763.30
204.61	1679.33
204.83	1691.62
205.05	1685.48
205.27	1736.68
205.49	1824.74
205.71	1708.01
205.93	1585.13
206.15	1675.24
206.37	1665.00
206.59	1691.62
206.81	1615.85
207.03	1689.57
207.25	1603.56
207.47	1716.20
207.69	1687.53
207.91	1732.58
208.13	1783.78
208.34	1712.10
208.56	1636.33
208.78	1685.48
209.00	1724.39
209.22	1718.25
209.44	1697.77
209.66	1638.38
209.88	1652.71
210.10	1669.09
210.32	1710.05
210.54	1763.30
210.76	1697.77
210.98	1787.88
211.20	1564.65
211.42	1726.44
211.64	1724.39
211.86	1732.58
212.08	1728.49
212.30	1642.47
212.52	1714.15
212.74	1789.92
212.96	1648.61
213.17	1718.25
213.39	1687.53
213.61	1802.21
213.83	1746.92
214.05	1609.70
214.27	1763.30
214.49	1716.20
214.71	1677.29
214.93	1726.44
215.15	1726.44
215.37	1734.63
215.59	1603.56
215.81	1734.63
216.03	1728.49
216.24	1722.34
216.46	1675.24
216.68	1652.71
216.90	1755.11
217.12	1765.35
217.34	1748.97
217.56	1783.78
217.78	1755.11
218.00	1753.06
218.22	1701.86
218.44	1736.68
218.66	1742.82
218.87	1806.31
219.09	1660.90
219.31	1722.34
219.53	1652.71
219.75	1642.47
219.97	1677.29
220.19	1767.40
220.41	1646.57
220.63	1804.26
220.85	1716.20
221.06	1693.67
221.28	1703.91
221.50	1730.53
221.72	1681.38
221.94	1708.01
222.16	1800.16
222.38	1812.45
222.60	1769.44
222.82	1587.18
223.03	1755.11
223.25	1562.60
223.47	1697.77
223.69	1800.16
223.91	1681.38
224.13	1683.43
224.35	1624.04
224.57	1779.68
224.78	1748.97
225.00	1654.76
225.22	1630.18
225.44	1699.81
225.66	1761.25
225.88	1751.01
226.10	1744.87
226.32	1718.25
226.53	1732.58
226.75	1648.61
226.97	1703.91
227.19	1718.25
227.41	1615.85
227.63	1716.20
227.85	1652.71
228.06	1775.59
228.28	1738.73
228.50	1732.58
228.72	1601.51
228.94	1648.61
229.16	1683.43
229.37	1642.47
229.59	1638.38
229.81	1816.55
230.03	1660.90
230.25	1615.85
230.47	1640.42
230.69	1646.57
230.90	1701.86
231.12	1615.85
231.34	1710.05
231.56	1818.60
231.78	1656.81
232.00	1693.67
232.21	1658.85
232.43	1677.29
232.65	1570.79
232.87	1697.77
233.09	1599.46
233.30	1642.47
233.52	1744.87
233.74	1652.71
233.96	1648.61
234.18	1689.57
234.40	1675.24
234.61	1806.31
234.83	1638.38
235.05	1619.94
235.27	1794.02
235.49	1767.40
235.70	1656.81
235.92	1724.39
236.14	1705.96
236.36	1849.32
236.58	1669.09
236.79	1732.58
237.01	1705.96
237.23	1677.29
237.45	1708.01
237.67	1691.62
237.88	1683.43
238.10	1814.50
238.32	1638.38
238.54	1693.67
238.76	1675.24
238.97	1603.56
239.19	1607.66
239.41	1699.81
239.63	1759.21
239.85	1716.20
240.06	1597.42
240.28	1673.19
240.50	1722.34
240.72	1742.82
240.93	1777.64
241.15	1789.92
241.37	1652.71
241.59	1697.77
241.81	1716.20
242.02	1701.86
242.24	1669.09
242.46	1691.62
242.68	1667.05
242.89	1697.77
243.11	1769.44
243.33	1726.44
243.55	1687.53
243.76	1740.77
243.98	1683.43
244.20	1726.44
244.42	1673.19
244.64	1675.24
244.85	1685.48
245.07	1705.96
245.29	1732.58
245.51	1730.53
245.72	1705.96
245.94	1767.40
246.16	1734.63
246.38	1789.92
246.59	1671.14
246.81	1697.77
247.03	1650.66
247.24	1640.42
247.46	1574.89
247.68	1708.01
247.90	1609.70
248.11	1677.29
248.33	1736.68
248.55	1734.63
248.77	1701.86
248.98	1656.81
249.20	1765.35
249.42	1724.39
249.64	1730.53
249.85	1669.09
250.07	1624.04
250.29	1730.53
250.50	1675.24
250.72	1673.19
250.94	1744.87
251.16	1753.06
251.37	1773.54
251.59	1730.53
251.81	1712.10
252.02	1810.40
252.24	1781.73
252.46	1759.21
252.68	1665.00
252.89	1689.57
253.11	1632.23
253.33	1816.55
253.54	1779.68
253.76	1644.52
253.98	1738.73
254.20	1697.77
254.41	1624.04
254.63	1740.77
254.85	1656.81
255.06	1689.57
255.28	1720.29
255.50	1798.12
255.71	1617.90
255.93	1607.66
256.15	1662.95
256.36	1685.48
256.58	1753.06
256.80	1701.86
257.02	1638.38
257.23	1609.70
257.45	1761.25
257.67	1773.54
257.88	1693.67
258.10	1701.86
258.32	1677.29
258.53	1665.00
258.75	1759.21
258.97	1562.60
259.18	1652.71
259.40	1667.05
259.62	1814.50
259.83	1748.97
260.05	1726.44
260.27	1980.39
260.48	1763.30
260.70	1634.28
260.92	1648.61
261.13	1685.48
261.35	1665.00
261.57	1695.72
261.78	1656.81
262.00	1689.57
262.22	1808.36
262.43	1630.18
262.65	1667.05
262.86	1708.01
263.08	1861.60
263.30	1734.63
263.51	1603.56
263.73	1634.28
263.95	1726.44
264.16	1685.48
264.38	1621.99
264.60	1734.63
264.81	1705.96
265.03	1783.78
265.25	1681.38
265.46	1822.69
265.68	1777.64
265.89	1769.44
266.11	1693.67
266.33	1728.49
266.54	1775.59
266.76	1773.54
266.98	1746.92
267.19	1757.16
267.41	1746.92
267.62	1677.29
267.84	1652.71
268.06	1814.50
268.27	1632.23
268.49	1693.67
268.70	1720.29
268.92	1681.38
269.14	1691.62
269.35	1632.23
269.57	1679.33
269.79	1738.73
270.00	1703.91
270.22	1765.35
270.43	1716.20
270.65	1521.64
270.87	1660.90
271.08	1699.81
271.30	1757.16
271.51	1710.05
271.73	1716.20
271.95	1744.87
272.16	1746.92
272.38	1716.20
272.59	1675.24
272.81	1708.01
273.02	1769.44
273.24	1642.47
273.46	1726.44
273.67	1671.14
273.89	1585.13
274.10	1689.57
274.32	1798.12
274.54	1734.63
274.75	1734.63
274.97	1638.38
275.18	1699.81
275.40	1708.01
275.61	1648.61
275.83	1693.67
276.05	1685.48
276.26	1722.34
276.48	1732.58
276.69	1689.57
276.91	1558.50
277.12	1730.53
277.34	1753.06
277.55	1742.82
277.77	1734.63
277.99	1658.85
278.20	1619.94
278.42	1712.10
278.63	1691.62
278.85	1677.29
279.06	1626.09
279.28	1697.77
279.49	1773.54
279.71	1675.24
279.93	1783.78
280.14	1658.85
280.36	1578.98
280.57	1681.38
280.79	1759.21
281.00	1597.42
281.22	1660.90
281.43	1796.07
281.65	1578.98
281.86	1599.46
282.08	1691.62
282.29	1787.88
282.51	1667.05
282.73	1677.29
282.94	1601.51
283.16	1710.05
283.37	1718.25
283.59	1689.57
283.80	1714.15
284.02	1703.91
284.23	1755.11
284.45	1669.09
284.66	1650.66
284.88	1683.43
285.09	1773.54
285.31	1742.82
285.52	1697.77
285.74	1583.08
285.95	1658.85
286.17	1738.73
286.38	1740.77
286.60	1701.86
286.81	1685.48
287.03	1708.01
287.24	1669.09
287.46	1695.72
287.67	1677.29
287.89	1828.84
288.10	1693.67
288.32	1681.38
288.53	1675.24
288.75	1716.20
288.96	1794.02
289.18	1648.61
289.39	1656.81
289.61	1789.92
289.82	1763.30
290.04	1736.68
290.25	1644.52
290.47	1681.38
290.68	1665.00
290.90	1718.25
291.11	1656.81
291.33	1789.92
291.54	1636.33
291.76	1691.62
291.97	1689.57
292.18	1730.53
292.40	1697.77
292.61	1656.81
292.83	1828.84
293.04	1652.71
293.26	1691.62
293.47	1697.77
293.69	1636.33
293.90	1705.96
294.12	1691.62
294.33	1679.33
294.55	1722.34
294.76	1742.82
294.97	1728.49
295.19	1789.92
295.40	1669.09
295.62	1753.06
295.83	1796.07
296.05	1650.66
296.26	1718.25
296.48	1718.25
296.69	1689.57
296.90	1632.23
297.12	1736.68
297.33	1796.07
297.55	1734.63
297.76	1710.05
297.98	1746.92
298.19	1685.48
298.41	1701.86
298.62	1626.09
298.83	1732.58
299.05	1720.29
299.26	1685.48
299.48	1656.81
299.69	1675.24
299.90	1695.72
300.12	1560.55
300.33	1701.86
300.55	1691.62
300.76	1681.38
300.98	1673.19
301.19	1773.54
301.40	1675.24
301.62	1705.96
301.83	1695.72
302.05	1681.38
302.26	1716.20
302.47	1644.52
302.69	1613.80
302.90	1669.09
303.12	1619.94
303.33	1724.39
303.54	1859.56
303.76	1689.57
303.97	1732.58
304.19	1890.28
304.40	1628.14
304.61	1742.82
304.83	1742.82
305.04	1812.45
305.26	1703.91
305.47	1630.18
305.68	1718.25
305.90	1609.70
306.11	1814.50
306.33	1703.91
306.54	1705.96
306.75	1675.24
306.97	1613.80
307.18	1640.42
307.39	1732.58
307.61	1755.11
307.82	1759.21
308.04	1689.57
308.25	1699.81
308.46	1640.42
308.68	1671.14
308.89	1689.57
309.10	1724.39
309.32	1728.49
309.53	1716.20
309.74	1742.82
309.96	1601.51
310.17	1746.92
310.39	1658.85
310.60	1691.62
310.81	1581.03
311.03	1667.05
311.24	1714.15
311.45	1732.58
311.67	1796.07
311.88	1789.92
312.09	1746.92
312.31	1599.46
312.52	1679.33
312.73	1669.09
312.95	1642.47
313.16	1628.14
313.37	1822.69
313.59	1744.87
313.80	1695.72
314.01	1779.68
314.23	1699.81
314.44	1617.90
314.65	1673.19
314.87	1652.71
315.08	1630.18
315.29	1640.42
315.51	1642.47
315.72	1617.90
315.93	1796.07
316.15	1746.92
316.36	1693.67
316.57	1683.43
316.79	1675.24
317.00	1628.14
317.21	1687.53
317.43	1675.24
317.64	1679.33
317.85	1681.38
318.07	1683.43
318.28	1740.77
318.49	1777.64
318.70	1865.70
318.92	1849.32
319.13	1740.77
319.34	1853.41
319.56	1794.02
319.77	1779.68
319.98	1708.01
320.20	1728.49
320.41	1740.77
320.62	1734.63
320.83	1712.10
321.05	1787.88
321.26	1724.39
321.47	1767.40
321.69	1738.73
321.90	1665.00
322.11	1642.47
322.32	1705.96
322.54	1773.54
322.75	1804.26
322.96	1808.36
323.18	1615.85
323.39	1624.04
323.60	1697.77
323.81	1720.29
324.03	1697.77
324.24	1658.85
324.45	1697.77
324.66	1648.61
324.88	1738.73
325.09	1849.32
325.30	1683.43
325.52	1738.73
325.73	1656.81
325.94	1638.38
326.15	1656.81
326.37	1667.05
326.58	1689.57
326.79	1748.97
327.00	1660.90
327.22	1816.55
327.43	1738.73
327.64	1671.14
327.85	1755.11
328.07	1675.24
328.28	1824.74
328.49	1628.14
328.70	1687.53
328.92	1724.39
329.13	1705.96
329.34	1761.25
329.55	1718.25
329.76	1681.38
329.98	1718.25
330.19	1787.88
330.40	1650.66
330.61	1701.86
330.83	1699.81
331.04	1669.09
331.25	1697.77
331.46	1673.19
331.68	1677.29
331.89	1763.30
332.10	1720.29
332.31	1609.70
332.52	1734.63
332.74	1746.92
332.95	1650.66
333.16	1687.53
333.37	1708.01
333.58	1587.18
333.80	1722.34
334.01	1642.47
334.22	1804.26
334.43	1679.33
334.64	1644.52
334.86	1593.32
335.07	1667.05
335.28	1740.77
335.49	1716.20
335.70	1685.48
335.92	1759.21
336.13	1845.22
336.34	1736.68
336.55	1701.86
336.76	1808.36
336.98	1613.80
337.19	1658.85
337.40	1806.31
337.61	1847.27
337.82	1611.75
338.04	1730.53
338.25	1595.37
338.46	1685.48
338.67	1648.61
338.88	1652.71
339.09	1712.10
339.31	1681.38
339.52	1585.13
339.73	1644.52
339.94	1732.58
340.15	1708.01
340.36	1714.15
340.58	1744.87
340.79	1748.97
341.00	1777.64
341.21	1648.61
341.42	1789.92
341.63	1712.10
341.85	1712.10
342.06	1701.86
342.27	1650.66
342.48	1771.49
342.69	1556.46
342.90	1685.48
343.12	1712.10
343.33	1705.96
343.54	1730.53
343.75	1808.36
343.96	1689.57
344.17	1632.23
344.38	1691.62
344.60	1656.81
344.81	1593.32
345.02	1708.01
345.23	1769.44
345.44	1779.68
345.65	1673.19
345.86	1683.43
346.07	1677.29
346.29	1736.68
346.50	1728.49
346.71	1771.49
346.92	1785.83
347.13	1822.69
347.34	1669.09
347.55	1689.57
347.76	1703.91
347.98	1613.80
348.19	1703.91
348.40	1732.58
348.61	1701.86
348.82	1753.06
349.03	1730.53
349.24	1658.85
349.45	1845.22
349.66	1619.94
349.88	1701.86
350.09	1642.47
350.30	1695.72
350.51	1753.06
350.72	1726.44
350.93	1642.47
351.14	1660.90
351.35	1755.11
351.56	1718.25
351.77	1667.05
351.99	1685.48
352.20	1783.78
352.41	1769.44
352.62	1638.38
352.83	1757.16
353.04	1677.29
353.25	1705.96
353.46	1699.81
353.67	1660.90
353.88	1578.98
354.09	1660.90
354.30	1677.29
354.52	1744.87
354.73	1648.61
354.94	1646.57
355.15	1783.78
355.36	1783.78
355.57	1624.04
355.78	1785.83
355.99	1687.53
356.20	1644.52
356.41	1765.35
356.62	1708.01
356.83	1789.92
357.04	1816.55
357.25	1560.55
357.46	1621.99
357.68	1671.14
357.89	1679.33
358.10	1630.18
358.31	1656.81
358.52	1681.38
358.73	1697.77
358.94	1632.23
359.15	1701.86
359.36	1759.21
359.57	1734.63
359.78	1687.53
359.99	1751.01
360.20	1687.53
360.41	1783.78
360.62	1763.30
360.83	1691.62
361.04	1669.09
361.25	1761.25
361.46	1767.40
361.67	1763.30
361.88	1789.92
362.09	1712.10
362.30	1693.67
362.51	1531.88
362.72	1673.19
362.93	1804.26
363.14	1722.34
363.35	1734.63
363.56	1691.62
363.78	1677.29
363.99	1726.44
364.20	1644.52
364.41	1681.38
364.62	1841.12
364.83	1712.10
365.04	1630.18
365.25	1728.49
365.46	1789.92
365.67	1662.95
365.88	1654.76
366.09	1714.15
366.30	1595.37
366.51	1701.86
366.72	1619.94
366.93	1640.42
367.14	1689.57
367.35	1710.05
367.56	1746.92
367.77	1767.40
367.98	1722.34
368.18	1765.35
368.39	1763.30
368.60	1683.43
368.81	1726.44
369.02	1708.01
369.23	1701.86
369.44	1562.60
369.65	1691.62
369.86	1705.96
370.07	1718.25
370.28	1697.77
370.49	1820.64
370.70	1734.63
370.91	1626.09
371.12	1607.66
371.33	1738.73
371.54	1677.29
371.75	1812.45
371.96	1591.27
372.17	1701.86
372.38	1656.81
372.59	1734.63
372.80	1703.91
373.01	1687.53
373.22	1724.39
373.43	1714.15
373.64	1601.51
373.85	1798.12
374.06	1802.21
374.26	1722.34
374.47	1726.44
374.68	1814.50
374.89	1763.30
375.10	1724.39
375.31	1800.16
375.52	1720.29
375.73	1703.91
375.94	1671.14
376.15	1759.21
376.36	1701.86
376.57	1693.67
376.78	1640.42
376.99	1730.53
377.20	1730.53
377.40	1728.49
377.61	1802.21
377.82	1654.76
378.03	1755.11
378.24	1812.45
378.45	1703.91
378.66	1718.25
378.87	1578.98
379.08	1574.89
379.29	1599.46
379.50	1742.82
379.71	1671.14
379.91	1671.14
380.12	1636.33
380.33	1683.43
380.54	1748.97
380.75	1757.16
380.96	1570.79
381.17	1806.31
381.38	1673.19
381.59	1763.30
381.80	1738.73
382.00	1830.88
382.21	1761.25
382.42	1800.16
382.63	1890.28
382.84	1705.96
383.05	1820.64
383.26	1814.50
383.47	1746.92
383.68	1740.77
383.88	1708.01
384.09	1744.87
384.30	1771.49
384.51	1701.86
384.72	1617.90
384.93	1658.85
385.14	1665.00
385.35	1685.48
385.55	1679.33
385.76	1755.11
385.97	1685.48
386.18	1671.14
386.39	1617.90
386.60	1759.21
386.81	1654.76
387.02	1607.66
387.22	1626.09
387.43	1755.11
387.64	1746.92
387.85	1806.31
388.06	2228.19
388.27	4231.10
388.48	6952.85
388.68	8218.50
388.89	9750.38
389.10	9916.26
389.31	8658.81
389.52	7630.73
389.73	6596.51
389.93	6401.95
390.14	5896.10
390.35	5105.59
390.56	4394.94
390.77	3723.21
390.98	3080.14
391.18	2559.96
391.39	2129.89
391.60	1734.63
391.81	1880.04
392.02	1720.29
392.23	1849.32
392.43	1718.25
392.64	1773.54
392.85	1710.05
393.06	1822.69
393.27	1701.86
393.47	1683.43
393.68	1724.39
393.89	1660.90
394.10	1771.49
394.31	1689.57
394.52	1640.42
394.72	1613.80
394.93	1759.21
395.14	1572.84
395.35	1679.33
395.56	1589.22
395.76	1691.62
395.97	1732.58
396.18	1804.26
396.39	1869.80
396.60	2047.97
396.80	1816.55
397.01	1832.93
397.22	1929.19
397.43	1814.50
397.64	1791.97
397.84	1794.02
398.05	1818.60
398.26	1783.78
398.47	1730.53
398.67	1789.92
398.88	1689.57
399.09	1720.29
399.30	1681.38
399.51	1738.73
399.71	1660.90
399.92	1615.85
400.13	1681.38
400.34	1734.63
400.54	1710.05
400.75	1832.93
400.96	1755.11
401.17	1755.11
401.37	1652.71
401.58	1703.91
401.79	1781.73
402.00	1753.06
402.21	2011.11
402.41	2047.97
402.62	2000.87
402.83	1935.33
403.04	2056.16
403.24	1986.53
403.45	1824.74
403.66	1886.18
403.87	1839.08
404.07	1906.66
404.28	1941.47
404.49	1861.60
404.70	1763.30
404.90	1767.40
405.11	1783.78
405.32	1789.92
405.52	1718.25
405.73	1665.00
405.94	1753.06
406.15	1642.47
406.35	1777.64
406.56	1697.77
406.77	1705.96
406.98	1783.78
407.18	1599.46
407.39	1734.63
407.60	1697.77
407.80	1685.48
408.01	1644.52
408.22	1654.76
408.43	1748.97
408.63	1726.44
408.84	1742.82
409.05	1789.92
409.25	1656.81
409.46	1648.61
409.67	1697.77
409.88	1662.95
410.08	1765.35
410.29	1650.66
410.50	1753.06
410.70	1812.45
410.91	1660.90
411.12	1730.53
411.32	1703.91
411.53	1619.94
411.74	1791.97
411.95	1763.30
412.15	1685.48
412.36	1759.21
412.57	1738.73
412.77	1763.30
412.98	1730.53
413.19	1761.25
413.39	1839.08
413.60	1689.57
413.81	1802.21
414.01	1660.90
414.22	1701.86
414.43	1705.96
414.63	1720.29
414.84	1820.64
415.05	1765.35
415.25	1617.90
415.46	1701.86
415.67	1665.00
415.87	1746.92
416.08	1667.05
416.29	1710.05
416.49	1724.39
416.70	1705.96
416.91	1681.38
417.11	1667.05
417.32	1828.84
417.53	1775.59
417.73	1763.30
417.94	1665.00
418.15	1769.44
418.35	1791.97
418.56	1724.39
418.77	1871.84
418.97	1679.33
419.18	1675.24
419.38	1605.61
419.59	1701.86
419.80	1787.88
420.00	1656.81
420.21	1673.19
420.42	1751.01
420.62	1734.63
420.83	1685.48
421.04	1685.48
421.24	1765.35
421.45	1712.10
421.65	1708.01
421.86	1687.53
422.07	1683.43
422.27	1730.53
422.48	1714.15
422.69	1640.42
422.89	1667.05
423.10	1617.90
423.30	1636.33
423.51	1671.14
423.72	1722.34
423.92	1787.88
424.13	1685.48
424.33	1648.61
424.54	1767.40
424.75	1740.77
424.95	1837.03
425.16	1769.44
425.36	1654.76
425.57	1855.46
425.78	1748.97
425.98	1765.35
426.19	1675.24
426.39	1677.29
426.60	1689.57
426.81	1820.64
427.01	1769.44
427.22	1708.01
427.42	1634.28
427.63	1626.09
427.83	1763.30
428.04	1826.79
428.25	1744.87
428.45	1763.30
428.66	1734.63
428.86	1759.21
429.07	1646.57
429.28	1748.97
429.48	1681.38
429.69	1687.53
429.89	1705.96
430.10	1683.43
430.30	1705.96
430.51	1767.40
430.71	1650.66
430.92	1738.73
431.13	1658.85
431.33	1724.39
431.54	1691.62
431.74	1785.83
431.95	1802.21
432.15	1613.80
432.36	1787.88
432.56	1761.25
432.77	1789.92
432.98	1800.16
433.18	1701.86
433.39	1736.68
433.59	1671.14
433.80	1740.77
434.00	1859.56
434.21	1652.71
434.41	1781.73
434.62	1787.88
434.82	1671.14
435.03	1669.09
435.23	1697.77
435.44	1609.70
435.64	1636.33
435.85	1738.73
436.06	1695.72
436.26	1673.19
436.47	1714.15
436.67	1687.53
436.88	1675.24
437.08	1806.31
437.29	1748.97
437.49	1687.53
437.70	1771.49
437.90	1652.71
438.11	1808.36
438.31	1710.05
438.52	1818.60
438.72	1834.98
438.93	1890.28
439.13	1822.69
439.34	1804.26
439.54	1740.77
439.75	1765.35
439.95	1740.77
440.16	1724.39
440.36	1746.92
440.57	1832.93
440.77	1804.26
440.98	1785.83
441.18	1814.50
441.39	1705.96
441.59	1677.29
441.80	1804.26
442.00	1724.39
442.21	1691.62
442.41	1662.95
442.62	1712.10
442.82	1718.25
443.02	1652.71
443.23	1710.05
443.43	1695.72
443.64	1738.73
443.84	1675.24
444.05	1851.36
444.25	1720.29
444.46	1687.53
444.66	1755.11
444.87	1765.35
445.07	1683.43
445.28	1738.73
445.48	1834.98
445.69	1822.69
445.89	1849.32
446.09	1783.78
446.30	2037.73
446.50	2719.70
446.71	3688.39
446.91	4364.22
447.12	4777.91
447.32	4841.40
447.53	4409.28
447.73	3889.09
447.93	3442.64
448.14	3358.67
448.34	3243.98
448.55	2944.98
448.75	2734.04
448.96	2676.70
449.16	2383.84
449.36	2228.19
449.57	2070.50
449.77	1851.36
449.98	1699.81
450.18	1818.60
450.39	1839.08
450.59	1748.97
450.79	1681.38
451.00	1775.59
451.20	1732.58
451.41	1662.95
451.61	1794.02
451.81	1697.77
452.02	1695.72
452.22	1724.39
452.43	1689.57
452.63	1652.71
452.84	1744.87
453.04	1662.95
453.24	1738.73
453.45	1650.66
453.65	1669.09
453.86	1746.92
454.06	1765.35
454.26	1751.01
454.47	1636.33
454.67	1796.07
454.87	1791.97
455.08	1712.10
455.28	1851.36
455.49	1740.77
455.69	1671.14
455.89	1886.18
456.10	1882.08
456.30	1748.97
456.51	1767.40
456.71	1783.78
456.91	1665.00
457.12	1722.34
457.32	1710.05
457.52	1656.81
457.73	1757.16
457.93	1724.39
458.14	1726.44
458.34	1662.95
458.54	1710.05
458.75	1714.15
458.95	1761.25
459.15	1738.73
459.36	1789.92
459.56	1787.88
459.76	1888.23
459.97	1736.68
460.17	1806.31
460.37	1763.30
460.58	1671.14
460.78	1730.53
460.99	1687.53
461.19	1681.38
461.39	1685.48
461.60	1806.31
461.80	1798.12
462.00	1716.20
462.21	1697.77
462.41	1650.66
462.61	1648.61
462.82	1665.00
463.02	1816.55
463.22	1689.57
463.43	1791.97
463.63	1755.11
463.83	1775.59
464.04	1841.12
464.24	1722.34
464.44	1576.94
464.64	1705.96
464.85	1763.30
465.05	1837.03
465.25	1722.34
465.46	1683.43
465.66	1751.01
465.86	1726.44
466.07	1767.40
466.27	1708.01
466.47	1656.81
466.68	1624.04
466.88	1714.15
467.08	1798.12
467.29	1701.86
467.49	1693.67
467.69	1710.05
467.89	1716.20
468.10	1697.77
468.30	1720.29
468.50	1718.25
468.71	1742.82
468.91	1683.43
469.11	1822.69
469.31	1740.77
469.52	1652.71
469.72	1755.11
469.92	1789.92
470.13	1779.68
470.33	1658.85
470.53	1843.17
470.73	2076.64
470.94	2254.81
471.14	2361.31
471.34	2566.10
471.54	2392.03
471.75	2160.61
471.95	2105.31
472.15	2035.68
472.36	2154.46
472.56	2174.94
472.76	2031.58
472.96	2007.01
473.17	1943.52
473.37	1896.42
473.57	1816.55
473.77	1791.97
473.98	1765.35
474.18	1630.18
474.38	1912.80
474.58	1687.53
474.79	1605.61
474.99	1681.38
475.19	1816.55
475.39	1613.80
475.60	1683.43
475.80	1763.30
476.00	1740.77
476.20	1724.39
476.41	1722.34
476.61	1896.42
476.81	1697.77
477.01	1662.95
477.21	1892.32
477.42	1746.92
477.62	1671.14
477.82	1718.25
478.02	1748.97
478.23	1771.49
478.43	1603.56
478.63	1675.24
478.83	1683.43
479.03	1665.00
479.24	1855.46
479.44	1761.25
479.64	1656.81
479.84	1589.22
480.04	1640.42
480.25	1665.00
480.45	1701.86
480.65	1714.15
480.85	1734.63
481.06	1624.04
481.26	1783.78
481.46	1724.39
481.66	1660.90
481.86	1757.16
482.06	1763.30
482.27	1751.01
482.47	1765.35
482.67	1781.73
482.87	1798.12
483.07	1796.07
483.28	1732.58
483.48	1744.87
483.68	1699.81
483.88	1697.77
484.08	1634.28
484.29	1665.00
484.49	1685.48
484.69	1677.29
484.89	1748.97
485.09	1708.01
485.29	1675.24
485.50	1615.85
485.70	1669.09
485.90	1800.16
486.10	1742.82
486.30	1660.90
486.50	1812.45
486.71	1755.11
486.91	1669.09
487.11	1748.97
487.31	1609.70
487.51	1742.82
487.71	1683.43
487.91	1667.05
488.12	1601.51
488.32	1503.21
488.52	1648.61
488.72	1599.46
488.92	1732.58
489.12	1734.63
489.32	1761.25
489.53	1699.81
489.73	1619.94
489.93	1804.26
490.13	1710.05
490.33	1665.00
490.53	1710.05
490.73	1771.49
490.94	1531.88
491.14	1681.38
491.34	1808.36
491.54	2156.51
491.74	2562.01
491.94	2895.83
492.14	3067.86
492.34	3076.05
492.54	2701.27
492.75	2435.03
492.95	2367.45
493.15	2306.01
493.35	2338.78
493.55	2263.01
493.75	2105.31
493.95	2172.89
494.15	2045.92
494.35	1853.41
494.56	1863.65
494.76	1824.74
494.96	1796.07
495.16	1718.25
495.36	1708.01
495.56	1740.77
495.76	1685.48
495.96	1703.91
496.16	1732.58
496.36	1794.02
496.56	1748.97
496.77	1755.11
496.97	1726.44
497.17	1806.31
497.37	1642.47
497.57	1832.93
497.77	1728.49
497.97	1665.00
498.17	1708.01
498.37	1730.53
498.57	1779.68
498.77	1697.77
498.97	1736.68
499.17	1871.84
499.38	1755.11
499.58	1732.58
499.78	1775.59
499.98	1763.30
500.18	1703.91
500.38	1697.77
500.58	1912.80
500.78	2654.17
500.98	4532.15
501.18	5920.68
501.38	6881.18
501.58	7301.01
501.78	6668.19
501.98	5605.29
502.18	4968.37
502.38	4437.95
502.58	4044.74
502.78	3829.70
502.98	3661.77
503.18	3454.92
503.38	3176.40
503.59	2856.92
503.79	2731.99
503.99	2484.19
504.19	2385.88
504.39	2156.51
504.59	2195.42
504.79	2068.45
504.99	2029.54
505.19	1986.53
505.39	1865.70
505.59	1918.95
505.79	1931.23
505.99	1810.40
506.19	1810.40
506.39	1855.46
506.59	1701.86
506.79	1800.16
506.99	1832.93
507.19	1818.60
507.39	1685.48
507.59	1630.18
507.79	1634.28
507.99	1662.95
508.19	1673.19
508.39	1617.90
508.59	1722.34
508.79	1757.16
508.99	1871.84
509.19	1681.38
509.39	1771.49
509.59	1621.99
509.79	1662.95
509.99	1738.73
510.19	1691.62
510.39	1816.55
510.59	1724.39
510.79	1699.81
510.99	1662.95
511.19	1808.36
511.39	1845.22
511.59	1775.59
511.79	1830.88
511.99	1732.58
512.19	1839.08
512.38	1705.96
512.58	1751.01
512.78	1710.05
512.98	1810.40
513.18	1767.40
513.38	1677.29
513.58	1798.12
513.78	1726.44
513.98	1693.67
514.18	1734.63
514.38	1691.62
514.58	1779.68
514.78	1673.19
514.98	1703.91
515.18	1759.21
515.38	1681.38
515.58	1845.22
515.78	1687.53
515.98	1714.15
516.18	1794.02
516.38	1781.73
516.57	1624.04
516.77	1740.77
516.97	1781.73
517.17	1710.05
517.37	1697.77
517.57	1724.39
517.77	1693.67
517.97	1673.19
518.17	1806.31
518.37	1681.38
518.57	1701.86
518.77	1763.30
518.97	1718.25
519.16	1734.63
519.36	1740.77
519.56	1681.38
519.76	1728.49
519.96	1695.72
520.16	1763.30
520.36	1634.28
520.56	1767.40
520.76	1718.25
520.96	1630.18
521.16	1697.77
521.35	1806.31
521.55	1800.16
521.75	1722.34
521.95	1644.52
522.15	1705.96
522.35	1656.81
522.55	1712.10
522.75	1859.56
522.95	1705.96
523.14	1662.95
523.34	1724.39
523.54	1771.49
523.74	1783.78
523.94	1746.92
524.14	1689.57
524.34	1714.15
524.54	1787.88
524.73	1755.11
524.93	1832.93
525.13	1716.20
525.33	1658.85
525.53	1941.47
525.73	1751.01
525.93	1757.16
526.13	1724.39
526.32	1732.58
526.52	1724.39
526.72	1816.55
526.92	1708.01
527.12	1665.00
527.32	1665.00
527.52	1787.88
527.71	1775.59
527.91	1746.92
528.11	1677.29
528.31	1728.49
528.51	1644.52
528.71	1748.97
528.90	1697.77
529.10	1736.68
529.30	1798.12
529.50	1570.79
529.70	1710.05
529.90	1738.73
530.09	1732.58
530.29	1642.47
530.49	1650.66
530.69	1767.40
530.89	1744.87
531.09	1724.39
531.28	1665.00
531.48	1751.01
531.68	1757.16
531.88	1757.16
532.08	1763.30
532.28	1722.34
532.47	1767.40
532.67	1814.50
532.87	1814.50
533.07	1710.05
533.27	1814.50
533.46	1748.97
533.66	1742.82
533.86	1683.43
534.06	1630.18
534.26	1744.87
534.45	1669.09
534.65	1691.62
534.85	1716.20
535.05	1689.57
535.25	1740.77
535.44	1689.57
535.64	1730.53
535.84	1722.34
536.04	1748.97
536.24	1628.14
536.43	1691.62
536.63	1718.25
536.83	1695.72
537.03	1714.15
537.22	1572.84
537.42	1609.70
537.62	1791.97
537.82	1697.77
538.02	1785.83
538.21	1755.11
538.41	1918.95
538.61	1820.64
538.81	1708.01
539.00	1890.28
539.20	1615.85
539.40	1761.25
539.60	1794.02
539.79	1746.92
539.99	1697.77
540.19	1640.42
540.39	1679.33
540.58	1679.33
540.78	1722.34
540.98	1755.11
541.18	1748.97
541.37	1748.97
541.57	1689.57
541.77	1738.73
541.97	1673.19
542.16	1734.63
542.36	1695.72
542.56	1683.43
542.76	1791.97
542.95	1761.25
543.15	1748.97
543.35	1814.50
543.54	1675.24
543.74	1746.92
543.94	1800.16
544.14	1705.96
544.33	1699.81
544.53	1642.47
544.73	1728.49
544.93	1689.57
545.12	1619.94
545.32	1738.73
545.52	1724.39
545.71	1624.04
545.91	1697.77
546.11	1730.53
546.30	1646.57
546.50	1671.14
546.70	1695.72
546.90	1730.53
547.09	1609.70
547.29	1650.66
547.49	1820.64
547.68	1759.21
547.88	1703.91
548.08	1773.54
548.27	2138.08
548.47	1722.34
548.67	1699.81
548.87	1748.97
549.06	1619.94
549.26	1720.29
549.46	1816.55
549.65	1718.25
549.85	1832.93
550.05	1703.91
550.24	1654.76
550.44	1767.40
550.64	1732.58
550.83	1748.97
551.03	1730.53
551.23	1828.84
551.42	1728.49
551.62	1714.15
551.82	1738.73
552.01	1742.82
552.21	1763.30
552.41	1755.11
552.60	1859.56
552.80	1730.53
553.00	1665.00
553.19	1730.53
553.39	1849.32
553.59	1615.85
553.78	1794.02
553.98	1703.91
554.17	1677.29
554.37	1718.25
554.57	1734.63
554.76	1626.09
554.96	1660.90
555.16	1695.72
555.35	1763.30
555.55	1740.77
555.75	1806.31
555.94	1775.59
556.14	1540.07
556.33	1773.54
556.53	1720.29
556.73	1742.82
556.92	1767.40
557.12	1849.32
557.32	1800.16
557.51	1806.31
557.71	1736.68
557.90	1822.69
558.10	1769.44
558.30	1693.67
558.49	1695.72
558.69	1744.87
558.88	1730.53
559.08	1716.20
559.28	1716.20
559.47	1787.88
559.67	1751.01
559.86	1882.08
560.06	1669.09
560.26	1617.90
560.45	1673.19
560.65	1677.29
560.84	1781.73
561.04	1687.53
561.24	1734.63
561.43	1611.75
561.63	1837.03
561.82	1783.78
562.02	1746.92
562.22	1697.77
562.41	1716.20
562.61	1720.29
562.80	1695.72
563.00	1812.45
563.19	1720.29
563.39	1730.53
563.59	1726.44
563.78	1748.97
563.98	1628.14
564.17	1773.54
564.37	1636.33
564.56	1705.96
564.76	1662.95
564.96	1812.45
565.15	1730.53
565.35	1849.32
565.54	1669.09
565.74	1738.73
565.93	1720.29
566.13	1748.97
566.32	1732.58
566.52	1746.92
566.71	1751.01
566.91	1718.25
567.11	1691.62
567.30	1732.58
567.50	1765.35
567.69	1751.01
567.89	1665.00
568.08	1624.04
568.28	1730.53
568.47	1699.81
568.67	1710.05
568.86	1763.30
569.06	1753.06
569.25	1708.01
569.45	1675.24
569.64	1724.39
569.84	1712.10
570.04	1796.07
570.23	1681.38
570.43	1732.58
570.62	1769.44
570.82	1867.75
571.01	1644.52
571.21	1687.53
571.40	1646.57
571.60	1734.63
571.79	1697.77
571.99	1722.34
572.18	1660.90
572.38	1746.92
572.57	1751.01
572.77	1755.11
572.96	1839.08
573.16	1759.21
573.35	1734.63
573.55	1861.60
573.74	1791.97
573.94	1812.45
574.13	1710.05
574.33	1771.49
574.52	1800.16
574.71	1736.68
574.91	1755.11
575.10	1636.33
575.30	1720.29
575.49	1638.38
575.69	1564.65
575.88	1667.05
576.08	1677.29
576.27	1834.98
576.47	1771.49
576.66	1900.52
576.86	1771.49
577.05	1732.58
577.25	1714.15
577.44	1843.17
577.64	1673.19
577.83	1781.73
578.02	1665.00
578.22	1847.27
578.41	1884.13
578.61	1705.96
578.80	1621.99
579.00	1830.88
579.19	1832.93
579.39	1757.16
579.58	1882.08
579.77	1736.68
579.97	1834.98
580.16	1765.35
580.36	1738.73
580.55	1877.99
580.75	1708.01
580.94	1765.35
581.13	1857.51
581.33	1771.49
581.52	1779.68
581.72	1925.09
581.91	1851.36
582.11	1744.87
582.30	1736.68
582.49	1736.68
582.69	1802.21
582.88	1738.73
583.08	1759.21
583.27	1871.84
583.47	1679.33
583.66	1699.81
583.85	1654.76
584.05	1798.12
584.24	1755.11
584.44	1746.92
584.63	1871.84
584.82	1839.08
585.02	1783.78
585.21	1849.32
585.41	1814.50
585.60	1781.73
585.79	1875.94
585.99	1877.99
586.18	1806.31
586.37	2244.57
586.57	3383.24
586.76	10043.24
586.96	24901.25
587.15	35155.43
587.34	41041.29
587.54	43146.61
587.73	37367.24
587.93	26617.45
588.12	21790.39
588.31	18462.44
588.51	16641.79
588.70	15458.07
588.89	14210.86
589.09	12902.20
589.28	11149.14
589.47	9521.01
589.67	8179.59
589.86	6524.83
590.06	4892.60
590.25	3954.63
590.44	3102.67
590.64	2459.61
590.83	2287.58
591.02	2107.36
591.22	1898.47
591.41	1902.56
591.60	1781.73
591.80	1869.80
591.99	1769.44
592.18	1763.30
592.38	1853.41
592.57	1783.78
592.76	1783.78
592.96	1783.78
593.15	1748.97
593.34	1851.36
593.54	1726.44
593.73	1777.64
593.92	1816.55
594.12	1665.00
594.31	1767.40
594.50	1828.84
594.70	1832.93
594.89	1904.61
595.08	1642.47
595.28	1751.01
595.47	1904.61
595.66	1740.77
595.86	1695.72
596.05	1716.20
596.24	1626.09
596.43	1832.93
596.63	1828.84
596.82	1751.01
597.01	1734.63
597.21	1755.11
597.40	1837.03
597.59	1720.29
597.79	1679.33
597.98	1771.49
598.17	1705.96
598.36	1742.82
598.56	1828.84
598.75	1748.97
598.94	1714.15
599.14	1751.01
599.33	1759.21
599.52	1765.35
599.71	1761.25
599.91	1693.67
600.10	1738.73
600.29	1660.90
600.48	1865.70
600.68	1714.15
600.87	1724.39
601.06	1716.20
601.26	1796.07
601.45	1753.06
601.64	1689.57
601.83	1798.12
602.03	1769.44
602.22	1660.90
602.41	1746.92
602.60	1767.40
602.80	1787.88
602.99	1685.48
603.18	1726.44
603.37	1708.01
603.57	1751.01
603.76	1781.73
603.95	1761.25
604.14	1791.97
604.34	1767.40
604.53	1765.35
604.72	1726.44
604.91	1746.92
605.10	1757.16
605.30	1615.85
605.49	1826.79
605.68	1755.11
605.87	1753.06
606.07	1658.85
606.26	1703.91
606.45	1751.01
606.64	1773.54
606.84	1658.85
607.03	1710.05
607.22	1755.11
607.41	1687.53
607.60	1644.52
607.80	1787.88
607.99	1726.44
608.18	1763.30
608.37	1718.25
608.56	1742.82
608.76	1744.87
608.95	1877.99
609.14	1746.92
609.33	1761.25
609.52	1726.44
609.72	1781.73
609.91	1796.07
610.10	1726.44
610.29	1769.44
610.48	1738.73
610.68	1742.82
610.87	1685.48
611.06	1748.97
611.25	1703.91
611.44	1845.22
611.63	1751.01
611.83	1791.97
612.02	1679.33
612.21	1765.35
612.40	1662.95
612.59	1708.01
612.79	1617.90
612.98	1738.73
613.17	1796.07
613.36	1669.09
613.55	1822.69
613.74	1656.81
613.93	1722.34
614.13	1746.92
614.32	1777.64
614.51	1677.29
614.70	1771.49
614.89	1673.19
615.08	1654.76
615.28	2031.58
615.47	1669.09
615.66	1638.38
615.85	1746.92
616.04	1812.45
616.23	1751.01
616.42	1740.77
616.62	1773.54
616.81	1796.07
617.00	1798.12
617.19	1773.54
617.38	1695.72
617.57	1761.25
617.76	1728.49
617.95	1701.86
618.15	1720.29
618.34	1759.21
618.53	1697.77
618.72	1794.02
618.91	1763.30
619.10	1808.36
619.29	1822.69
619.48	1820.64
619.68	1681.38
619.87	1712.10
620.06	1730.53
620.25	1708.01
620.44	1673.19
620.63	1667.05
620.82	1751.01
621.01	1687.53
621.20	1728.49
621.39	1724.39
621.59	1701.86
621.78	1712.10
621.97	1671.14
622.16	1667.05
622.35	1753.06
622.54	1783.78
622.73	1775.59
622.92	1667.05
623.11	1798.12
623.30	1701.86
623.49	1845.22
623.68	1689.57
623.88	1728.49
624.07	1722.34
624.26	1724.39
624.45	1740.77
624.64	1720.29
624.83	1648.61
625.02	1626.09
625.21	1712.10
625.40	1675.24
625.59	1796.07
625.78	1638.38
625.97	1773.54
626.16	1703.91
626.35	1775.59
626.54	1697.77
626.74	1757.16
626.93	1681.38
627.12	1687.53
627.31	1777.64
627.50	1689.57
627.69	1781.73
627.88	1683.43
628.07	1677.29
628.26	1687.53
628.45	1626.09
628.64	1658.85
628.83	1685.48
629.02	1605.61
629.21	1753.06
629.40	1746.92
629.59	1662.95
629.78	1720.29
629.97	1722.34
630.16	1660.90
630.35	1675.24
630.54	1669.09
630.73	1697.77
630.92	1730.53
631.11	1681.38
631.30	1642.47
631.49	1720.29
631.68	1630.18
631.87	1728.49
632.06	1607.66
632.25	1830.88
632.44	1642.47
632.63	1789.92
632.82	1699.81
633.01	1644.52
633.20	1742.82
633.39	1677.29
633.58	1587.18
633.77	1703.91
633.96	1761.25
634.15	1738.73
634.34	1708.01
634.53	1722.34
634.72	1687.53
634.91	1652.71
635.10	1744.87
635.29	1665.00
635.48	1687.53
635.67	1630.18
635.86	1677.29
636.05	1755.11
636.24	1748.97
636.43	1699.81
636.62	1814.50
636.81	1523.69
637.00	1722.34
637.19	1697.77
637.38	1689.57
637.57	1726.44
637.76	1652.71
637.95	1671.14
638.14	1662.95
638.33	1753.06
638.52	1759.21
638.71	1681.38
638.89	1677.29
639.08	1927.14
639.27	1689.57
639.46	1656.81
639.65	1783.78
639.84	1718.25
640.03	1708.01
640.22	1636.33
640.41	1798.12
640.60	1669.09
640.79	1732.58
640.98	1679.33
641.17	1787.88
641.36	1763.30
641.55	1701.86
641.74	1621.99
641.92	1574.89
642.11	1662.95
642.30	1720.29
642.49	1701.86
642.68	1738.73
642.87	1812.45
643.06	1759.21
643.25	1720.29
643.44	1648.61
643.63	1734.63
643.82	1763.30
644.00	1636.33
644.19	1726.44
644.38	1679.33
644.57	1681.38
644.76	1689.57
644.95	1691.62
645.14	1687.53
645.33	1730.53
645.52	1703.91
645.71	1665.00
645.89	1697.77
646.08	1689.57
646.27	1675.24
646.46	1882.08
646.65	1642.47
646.84	1779.68
647.03	1705.96
647.22	1734.63
647.40	1726.44
647.59	1699.81
647.78	1609.70
647.97	1619.94
648.16	1710.05
648.35	1757.16
648.54	1722.34
648.73	1714.15
648.91	1759.21
649.10	1650.66
649.29	1621.99
649.48	1732.58
649.67	1675.24
649.86	1759.21
650.05	1624.04
650.23	1718.25
650.42	1658.85
650.61	1755.11
650.80	1746.92
650.99	1826.79
651.18	1708.01
651.36	1796.07
651.55	1658.85
651.74	1660.90
651.93	1724.39
652.12	1714.15
652.31	1669.09
652.49	1654.76
652.68	1646.57
652.87	1765.35
653.06	1710.05
653.25	1820.64
653.44	1695.72
653.62	1718.25
653.81	1660.90
654.00	1705.96
654.19	1726.44
654.38	1822.69
654.56	1767.40
654.75	1759.21
654.94	1789.92
655.13	1710.05
655.32	1703.91
655.51	1794.02
655.69	1691.62
655.88	1761.25
656.07	1677.29
656.26	1740.77
656.45	1662.95
656.63	1710.05
656.82	1681.38
657.01	1748.97
657.20	1736.68
657.38	1828.84
657.57	1652.71
657.76	1626.09
657.95	1783.78
658.14	1673.19
658.32	1738.73
658.51	1640.42
658.70	1746.92
658.89	1796.07
659.08	1662.95
659.26	1839.08
659.45	1654.76
659.64	1722.34
659.83	1640.42
660.01	1920.99
660.20	1667.05
660.39	1861.60
660.58	1638.38
660.76	1769.44
660.95	1566.70
661.14	1746.92
661.33	1685.48
661.51	1665.00
661.70	1687.53
661.89	1701.86
662.08	1748.97
662.26	1703.91
662.45	1628.14
662.64	1779.68
662.83	1705.96
663.01	1701.86
663.20	1644.52
663.39	1785.83
663.58	1746.92
663.76	1773.54
663.95	1791.97
664.14	1730.53
664.32	1660.90
664.51	1650.66
664.70	1640.42
664.89	1779.68
665.07	1652.71
665.26	1669.09
665.45	1646.57
665.64	1767.40
665.82	1751.01
666.01	1718.25
666.20	1621.99
666.38	1695.72
666.57	1820.64
666.76	2185.18
666.95	4630.46
667.13	10557.28
667.32	15261.46
667.51	18073.32
667.69	19359.45
667.88	17927.92
668.07	12525.38
668.25	9473.90
668.44	8271.75
668.63	7315.34
668.81	6891.41
669.00	6469.53
669.19	5701.54
669.38	5062.58
669.56	4589.50
669.75	4038.59
669.94	3583.95
670.12	2867.16
670.31	2490.33
670.50	2277.34
670.68	2002.91
670.87	1877.99
671.06	1832.93
671.24	1761.25
671.43	1892.32
671.62	1730.53
671.80	1724.39
671.99	1775.59
672.18	1695.72
672.36	1724.39
672.55	1751.01
672.74	1791.97
672.92	1628.14
673.11	1830.88
673.29	1624.04
673.48	1728.49
673.67	1646.57
673.85	1812.45
674.04	1665.00
674.23	1730.53
674.41	1757.16
674.60	1720.29
674.79	1568.74
674.97	1755.11
675.16	1832.93
675.34	1787.88
675.53	1636.33
675.72	1726.44
675.90	1845.22
676.09	1779.68
676.28	1753.06
676.46	1636.33
676.65	1654.76
676.83	1652.71
677.02	1662.95
677.21	1693.67
677.39	1712.10
677.58	1667.05
677.77	1689.57
677.95	1761.25
678.14	1675.24
678.32	1703.91
678.51	1722.34
678.70	1757.16
678.88	1619.94
679.07	1626.09
679.25	1689.57
679.44	1675.24
679.63	1658.85
679.81	1632.23
680.00	1714.15
680.18	1699.81
680.37	1714.15
680.55	1751.01
680.74	1636.33
680.93	1544.17
681.11	1724.39
681.30	1705.96
681.48	1753.06
681.67	1738.73
681.85	1691.62
682.04	1638.38
682.23	1806.31
682.41	1675.24
682.60	1712.10
682.78	1695.72
682.97	1650.66
683.15	1699.81
683.34	1701.86
683.53	1757.16
683.71	1681.38
683.90	1789.92
684.08	1892.32
684.27	1722.34
684.45	1693.67
684.64	1738.73
684.82	1634.28
685.01	1732.58
685.19	1673.19
685.38	1763.30
685.57	1617.90
685.75	1689.57
685.94	1753.06
686.12	1669.09
686.31	1712.10
686.49	1732.58
686.68	1572.84
686.86	1785.83
687.05	1673.19
687.23	1794.02
687.42	1673.19
687.60	1611.75
687.79	1834.98
687.97	1783.78
688.16	1753.06
688.34	1802.21
688.53	1675.24
688.71	1753.06
688.90	1736.68
689.08	1732.58
689.27	1607.66
689.45	1738.73
689.64	1701.86
689.82	1740.77
690.01	1699.81
690.19	1681.38
690.38	1779.68
690.56	1796.07
690.75	1677.29
690.93	1705.96
691.12	1679.33
691.30	1638.38
691.49	1644.52
691.67	1708.01
691.86	1751.01
692.04	1732.58
692.23	1628.14
692.41	1642.47
692.60	1781.73
692.78	1746.92
692.97	1624.04
693.15	1769.44
693.34	1796.07
693.52	1826.79
693.71	1720.29
693.89	1644.52
694.08	1636.33
694.26	1857.51
694.44	1814.50
694.63	1730.53
694.81	1628.14
695.00	1689.57
695.18	1746.92
695.37	1845.22
695.55	1718.25
695.74	1665.00
695.92	1675.24
696.10	1718.25
696.29	1630.18
696.47	1638.38
696.66	1695.72
696.84	1681.38
697.03	1685.48
697.21	1771.49
697.40	2310.11
697.58	1751.01
697.76	1611.75
697.95	1716.20
698.13	1605.61
698.32	1644.52
698.50	1669.09
698.68	1708.01
698.87	1642.47
699.05	1777.64
699.24	1638.38
699.42	1679.33
699.61	1728.49
699.79	1744.87
699.97	1693.67
700.16	1691.62
700.34	1687.53
700.53	1728.49
700.71	1824.74
700.89	1738.73
701.08	1671.14
701.26	1714.15
701.45	2084.83
701.63	1691.62
701.81	1685.48
702.00	1656.81
702.18	1703.91
702.37	1587.18
702.55	1724.39
702.73	1820.64
702.92	1638.38
703.10	1759.21
703.28	1667.05
703.47	1658.85
703.65	1757.16
703.84	1789.92
704.02	1697.77
704.20	1888.23
704.39	1718.25
704.57	1621.99
704.75	1804.26
704.94	1779.68
705.12	1648.61
705.30	1812.45
705.49	2336.73
705.67	4503.48
705.86	9504.62
706.04	12953.40
706.22	14786.33
706.41	15853.33
706.59	14053.16
706.77	9760.62
706.96	7491.47
707.14	6832.02
707.32	5957.54
707.51	5719.98
707.69	5017.52
707.87	4177.86
708.06	3569.61
708.24	3002.32
708.42	2392.03
708.61	2226.14
708.79	1871.84
708.97	1896.42
709.16	1802.21
709.34	1753.06
709.52	1816.55
709.71	1738.73
709.89	1822.69
710.07	1724.39
710.26	1667.05
710.44	1689.57
710.62	1796.07
710.80	1759.21
710.99	1781.73
711.17	1759.21
711.35	1656.81
711.54	1671.14
711.72	1740.77
711.90	1673.19
712.09	1652.71
712.27	1705.96
712.45	1705.96
712.63	1652.71
712.82	1728.49
713.00	1722.34
713.18	1812.45
713.37	1705.96
713.55	1748.97
713.73	1769.44
713.91	1718.25
714.10	1617.90
714.28	1722.34
714.46	1732.58
714.65	1630.18
714.83	1779.68
715.01	1710.05
715.19	1656.81
715.38	1718.25
715.56	1781.73
715.74	1675.24
715.92	1705.96
716.11	1822.69
716.29	1603.56
716.47	1753.06
716.65	1636.33
716.84	1578.98
717.02	1748.97
717.20	1556.46
717.38	1699.81
717.57	1740.77
717.75	1656.81
717.93	1683.43
718.11	1783.78
718.30	1691.62
718.48	1718.25
718.66	1806.31
718.84	1746.92
719.03	1644.52
719.21	1619.94
719.39	1787.88
719.57	1789.92
719.75	1767.40
719.94	1689.57
720.12	1685.48
720.30	1656.81
720.48	1742.82
720.67	1703.91
720.85	1595.37
721.03	1691.62
721.21	1609.70
721.39	1791.97
721.58	1685.48
721.76	1658.85
721.94	1742.82
722.12	1777.64
722.30	1812.45
722.49	1677.29
722.67	1730.53
722.85	1712.10
723.03	1681.38
723.21	1699.81
723.40	1728.49
723.58	1765.35
723.76	1703.91
723.94	1736.68
724.12	1769.44
724.30	1800.16
724.49	1757.16
724.67	1611.75
724.85	1794.02
725.03	1628.14
725.21	1665.00
725.40	1685.48
725.58	1716.20
725.76	1777.64
725.94	1652.71
726.12	1621.99
726.30	1652.71
726.49	1673.19
726.67	1716.20
726.85	1746.92
727.03	1767.40
727.21	2189.28
727.39	2922.45
727.57	3860.42
727.76	4110.27
727.94	4540.35
728.12	4450.24
728.30	3676.10
728.48	2979.79
728.66	2664.41
728.84	2533.34
729.03	2217.95
729.21	2170.85
729.39	1916.90
729.57	1873.89
729.75	1832.93
729.93	1880.04
730.11	1695.72
730.30	1683.43
730.48	1751.01
730.66	1751.01
730.84	1812.45
731.02	1798.12
731.20	1687.53
731.38	1714.15
731.56	1644.52
731.74	1697.77
731.93	1652.71
732.11	1677.29
732.29	1693.67
732.47	1716.20
732.65	1742.82
732.83	1873.89
733.01	1751.01
733.19	1652.71
733.37	1781.73
733.56	1744.87
733.74	1654.76
733.92	1759.21
734.10	1658.85
734.28	1791.97
734.46	1624.04
734.64	1691.62
734.82	1640.42
735.00	1679.33
735.18	1710.05
735.36	1761.25
735.54	1724.39
735.73	1759.21
735.91	1783.78
736.09	1755.11
736.27	1708.01
736.45	1761.25
736.63	1619.94
736.81	1697.77
736.99	1685.48
737.17	1777.64
737.35	1640.42
737.53	1789.92
737.71	1691.62
737.89	1732.58
738.07	1730.53
738.25	1648.61
738.43	1558.50
738.61	1697.77
738.80	1597.42
738.98	1669.09
739.16	1689.57
739.34	1656.81
739.52	1732.58
739.70	1660.90
739.88	1763.30
740.06	1751.01
740.24	1568.74
740.42	1738.73
740.60	1626.09
740.78	1656.81
740.96	1550.31
741.14	1673.19
741.32	1736.68
741.50	1599.46
741.68	1783.78
741.86	1763.30
742.04	1708.01
742.22	1665.00
742.40	1673.19
742.58	1753.06
742.76	1697.77
742.94	1800.16
743.12	1626.09
743.30	1679.33
743.48	1718.25
743.66	1613.80
743.84	1722.34
744.02	1769.44
744.20	1689.57
744.38	1632.23
744.56	1638.38
744.74	1853.41
744.92	1708.01
745.10	1738.73
745.28	1710.05
745.46	1748.97
745.64	1708.01
745.82	1705.96
746.00	1658.85
746.18	1673.19
746.36	1640.42
746.54	1734.63
746.72	1665.00
746.90	1626.09
747.08	1789.92
747.26	1607.66
747.44	1789.92
747.62	1724.39
747.80	1646.57
747.98	1654.76
748.15	1683.43
748.33	1851.36
748.51	1742.82
748.69	1677.29
748.87	1716.20
749.05	1685.48
749.23	1605.61
749.41	1738.73
749.59	1656.81
749.77	1681.38
749.95	1699.81
750.13	1703.91
750.31	1783.78
750.49	1648.61
750.67	1730.53
750.85	1841.12
751.03	1693.67
751.20	1834.98
751.38	1710.05
751.56	1636.33
751.74	1648.61
751.92	1712.10
752.10	1695.72
752.28	1697.77
752.46	1695.72
752.64	1685.48
752.82	1669.09
753.00	1748.97
753.18	1697.77
753.35	1701.86
753.53	1669.09
753.71	1617.90
753.89	1783.78
754.07	1726.44
754.25	1804.26
754.43	1763.30
754.61	1601.51
754.79	1783.78
754.97	1613.80
755.14	1781.73
755.32	1591.27
755.50	1697.77
755.68	1728.49
755.86	1638.38
756.04	1701.86
756.22	1574.89
756.40	1714.15
756.57	1841.12
756.75	1697.77
756.93	1761.25
757.11	1765.35
757.29	1673.19
757.47	1599.46
757.65	1626.09
757.82	1566.70
758.00	1687.53
758.18	1638.38
758.36	1703.91
758.54	1724.39
758.72	1648.61
758.90	1675.24
759.07	1732.58
759.25	1685.48
759.43	1705.96
759.61	1638.38
759.79	2189.28
759.97	1798.12
760.15	1648.61
760.32	1632.23
760.50	1779.68
760.68	1794.02
760.86	1628.14
761.04	1728.49
761.22	1730.53
761.39	1751.01
761.57	1683.43
761.75	1628.14
761.93	1714.15
762.11	1632.23
762.28	1687.53
762.46	1576.94
762.64	1761.25
762.82	1638.38
763.00	1691.62
763.18	1767.40
763.35	1644.52
763.53	1720.29
763.71	1673.19
763.89	1640.42
764.07	1695.72
764.24	1716.20
764.42	1681.38
764.60	1665.00
764.78	1771.49
764.96	1730.53
765.13	1726.44
765.31	1654.76
765.49	1705.96
765.67	1617.90
765.84	1662.95
766.02	1701.86
766.20	1603.56
766.38	1675.24
766.56	1656.81
766.73	1767.40
766.91	1685.48
767.09	1599.46
767.27	1677.29
767.44	1679.33
767.62	1681.38
767.80	1771.49
767.98	1619.94
768.15	1726.44
768.33	1712.10
768.51	1759.21
768.69	1724.39
768.87	1744.87
769.04	1673.19
769.22	1871.84
769.40	1830.88
769.58	1832.93
769.75	1693.67
769.93	1759.21
770.11	1658.85
770.28	1644.52
770.46	1759.21
770.64	1734.63
770.82	1652.71
770.99	1656.81
771.17	1744.87
771.35	1689.57
771.53	1716.20
771.70	1652.71
771.88	1714.15
772.06	1691.62
772.23	1650.66
772.41	1679.33
772.59	1634.28
772.77	1589.22
772.94	1648.61
773.12	1691.62
773.30	1683.43
773.47	1671.14
773.65	1624.04
773.83	1857.51
774.01	1652.71
774.18	1607.66
774.36	1734.63
774.54	1681.38
774.71	1708.01
774.89	1634.28
775.07	1560.55
775.24	1562.60
775.42	1632.23
775.60	1808.36
775.78	1697.77
775.95	1619.94
776.13	1630.18
776.31	1587.18
776.48	1699.81
776.66	1785.83
776.84	1595.37
777.01	1673.19
777.19	1697.77
777.37	1638.38
777.54	1787.88
777.72	1853.41
777.90	1732.58
778.07	1656.81
778.25	1984.48
778.43	1755.11
778.60	1654.76
778.78	1738.73
778.96	1769.44
779.13	1632.23
779.31	1761.25
779.49	1689.57
779.66	1712.10
779.84	1701.86
780.01	1587.18
780.19	1697.77
780.37	1755.11
780.54	1722.34
780.72	1710.05
780.90	1748.97
781.07	1595.37
781.25	1665.00
781.43	1740.77
781.60	1705.96
781.78	1728.49
781.95	1578.98
782.13	1665.00
782.31	1716.20
782.48	1605.61
782.66	1722.34
782.83	1791.97
783.01	1736.68
783.19	1724.39
783.36	1634.28
783.54	1677.29
783.72	1662.95
783.89	1578.98
784.07	1728.49
784.24	1736.68
784.42	1796.07
784.60	1822.69
784.77	1691.62
784.95	1619.94
785.12	1677.29
785.30	1681.38
785.47	1755.11
785.65	1615.85
785.83	1638.38
786.00	1648.61
786.18	1714.15
786.35	1685.48
786.53	1626.09
786.71	1732.58
786.88	1740.77
787.06	1757.16
787.23	1673.19
787.41	1681.38
787.58	1710.05
787.76	1677.29
787.94	1681.38
788.11	1689.57
788.29	1665.00
788.46	1710.05
788.64	1652.71
788.81	1630.18
788.99	1642.47
789.16	1611.75
789.34	1699.81
789.52	1697.77
789.69	1634.28
789.87	1746.92
790.04	1665.00
790.22	1669.09
790.39	1785.83
790.57	1665.00
790.74	1712.10
790.92	1714.15
791.09	1654.76
791.27	1636.33
791.44	1765.35
791.62	1679.33
791.79	1757.16
791.97	1648.61
792.15	1812.45
792.32	1761.25
792.50	1808.36
792.67	1796.07
792.85	1837.03
793.02	1732.58
793.20	1619.94
793.37	1611.75
793.55	1646.57
793.72	1628.14
793.90	1710.05
794.07	1648.61
794.25	1568.74
794.42	1714.15
794.60	1675.24
794.77	1755.11
794.95	1736.68
795.12	1769.44
795.30	1646.57
795.47	1583.08
795.65	1931.23
795.82	1660.90
796.00	1701.86
796.17	1705.96
796.34	1697.77
796.52	1658.85
796.69	1667.05
796.87	1689.57
797.04	1730.53
797.22	1748.97
797.39	1697.77
797.57	1789.92
797.74	1615.85
797.92	1734.63
798.09	1693.67
798.27	1710.05
798.44	1681.38
798.62	1624.04
798.79	1720.29
798.96	1744.87
799.14	1716.20
799.31	1720.29
799.49	1626.09
799.66	1599.46
799.84	1640.42
800.01	1677.29
800.19	1656.81
800.36	1572.84
800.53	1665.00
800.71	1732.58
800.88	1761.25
801.06	1740.77
801.23	1646.57
801.41	1777.64
801.58	1667.05
801.75	1566.70
801.93	1722.34
802.10	1759.21
802.28	1705.96
802.45	1640.42
802.63	1708.01
802.80	1781.73
802.97	1642.47
803.15	1665.00
803.32	1673.19
803.50	1550.31
803.67	1656.81
803.84	1556.46
804.02	1742.82
804.19	1720.29
804.37	1654.76
804.54	1619.94
804.71	1722.34
804.89	1714.15
805.06	1701.86
805.24	1636.33
805.41	1638.38
805.58	1675.24
805.76	1806.31
805.93	1714.15
806.10	1714.15
806.28	1705.96
806.45	1695.72
806.63	1716.20
806.80	1718.25
806.97	1724.39
807.15	1705.96
807.32	1703.91
807.49	1722.34
807.67	1667.05
807.84	1703.91
808.01	1640.42
808.19	1753.06
808.36	1832.93
808.54	1687.53
808.71	1628.14
808.88	1759.21
809.06	1687.53
809.23	1830.88
809.40	1662.95
809.58	1759.21
809.75	1656.81
809.92	1656.81
810.10	1841.12
810.27	1699.81
810.44	1691.62
810.62	1779.68
810.79	1708.01
810.96	1665.00
811.14	1701.86
811.31	1775.59
811.48	1671.14
811.66	1697.77
811.83	1701.86
812.00	1740.77
812.18	1728.49
812.35	1802.21
812.52	1619.94
812.69	1617.90
812.87	1628.14
813.04	1617.90
813.21	1654.76
813.39	1556.46
813.56	1632.23
813.73	1732.58
813.91	1601.51
814.08	1638.38
814.25	1712.10
814.42	1630.18
814.60	1693.67
814.77	1740.77
814.94	1665.00
815.12	1624.04
815.29	1791.97
815.46	1701.86
815.63	1689.57
815.81	1642.47
815.98	1689.57
816.15	1693.67
816.33	1742.82
816.50	1624.04
816.67	1703.91
816.84	1671.14
817.02	1662.95
817.19	1714.15
817.36	1757.16
817.53	1677.29
817.71	1611.75
817.88	1736.68
818.05	1738.73
818.22	1648.61
818.40	1763.30
818.57	1699.81
818.74	1669.09
818.91	1732.58
819.09	1722.34
819.26	1710.05
819.43	1669.09
819.60	1632.23
819.78	1738.73
819.95	1662.95
820.12	1656.81
820.29	1718.25
820.47	1785.83
820.64	1718.25
820.81	1656.81
820.98	1679.33
821.15	1638.38
821.33	1665.00
821.50	1662.95
821.67	1769.44
821.84	1662.95
822.02	1755.11
822.19	1718.25
822.36	1650.66
822.53	1683.43
822.70	1626.09
822.88	1708.01
823.05	1767.40
823.22	1613.80
823.39	1695.72
823.56	1701.86
823.74	1697.77
823.91	1628.14
824.08	1634.28
824.25	1644.52
824.42	1765.35
824.60	1677.29
824.77	1673.19
824.94	1695.72
825.11	1683.43
825.28	1634.28
825.45	1687.53
825.63	1724.39
825.80	1669.09
825.97	1767.40
826.14	1648.61
826.31	1574.89
826.48	1679.33
826.66	1697.77
826.83	1771.49
827.00	1722.34
827.17	1628.14
827.34	1667.05
827.51	1632.23
827.69	1767.40
827.86	1609.70
828.03	1734.63
828.20	1730.53
828.37	1640.42
828.54	1730.53
828.71	1630.18
828.89	1765.35
829.06	1681.38
829.23	1740.77
829.40	1644.52
829.57	1648.61
829.74	1708.01
829.91	1648.61
830.09	1624.04
830.26	1726.44
830.43	1767.40
830.60	1740.77
830.77	1689.57
830.94	1730.53
831.11	1744.87
831.28	1650.66
831.46	1748.97
831.63	1652.71
831.80	1746.92
831.97	1609.70
832.14	1693.67
832.31	1755.11
832.48	1722.34
832.65	1765.35
832.82	1667.05
832.99	1738.73
833.17	1665.00
833.34	1771.49
833.51	1728.49
833.68	1540.07
833.85	1748.97
834.02	1597.42
834.19	1556.46
834.36	1554.41
834.53	1646.57
834.70	1716.20
834.87	1773.54
835.04	1699.81
835.22	1660.90
835.39	1697.77
835.56	1699.81
835.73	1648.61
835.90	1742.82
836.07	1626.09
836.24	1726.44
836.41	1605.61
836.58	1644.52
836.75	1714.15
836.92	1740.77
837.09	1695.72
837.26	1675.24
837.43	1681.38
837.60	1744.87
837.77	1703.91
837.94	1683.43
838.12	1683.43
838.29	1726.44
838.46	1624.04
838.63	1646.57
838.80	1839.08
838.97	1665.00
839.14	1712.10
839.31	1720.29
839.48	1726.44
839.65	1673.19
839.82	1712.10
839.99	1757.16
840.16	1583.08
840.33	1654.76
840.50	1726.44
840.67	1628.14
840.84	1529.83
841.01	1675.24
841.18	1673.19
841.35	1718.25
841.52	1718.25
841.69	1810.40
841.86	1705.96
842.03	1714.15
842.20	1746.92
842.37	1677.29
842.54	1673.19
842.71	1761.25
842.88	1619.94
843.05	1714.15
843.22	1587.18
843.39	1671.14
843.56	1619.94
843.73	1617.90
843.90	1697.77
844.07	1779.68
844.24	1746.92
844.41	1757.16
844.58	1689.57
844.75	1671.14
844.92	1732.58
845.09	1742.82
845.26	1636.33
845.43	1669.09
845.60	1691.62
845.77	1726.44
845.94	1630.18
846.10	1683.43
846.27	1601.51
846.44	1675.24
846.61	1607.66
846.78	1730.53
846.95	1703.91
847.12	1611.75
847.29	1650.66
847.46	1693.67
847.63	1820.64
847.80	1691.62
847.97	1621.99
848.14	1802.21
848.31	1685.48
848.48	1613.80
848.65	1656.81
848.82	1665.00
848.98	1802.21
849.15	1732.58
849.32	1740.77
849.49	1818.60
849.66	1658.85
849.83	1669.09
850.00	1656.81
850.17	1667.05
850.34	1699.81
850.51	1665.00
850.68	1724.39
850.85	1802.21
851.01	1703.91
851.18	1761.25
851.35	1697.77
851.52	1677.29
851.69	1736.68
851.86	1699.81
852.03	1722.34
852.20	1697.77
852.37	1648.61
852.53	1591.27
852.70	1638.38
852.87	1656.81
853.04	1695.72
853.21	1662.95
853.38	1701.86
853.55	1748.97
853.72	1716.20
853.89	1617.90
854.05	1660.90
854.22	1689.57
854.39	1669.09
854.56	1736.68
854.73	1710.05
854.90	1671.14
855.07	1673.19
855.23	1646.57
855.40	1697.77
855.57	1652.71
855.74	1581.03
855.91	1818.60
856.08	1601.51
856.25	1611.75
856.41	1652.71
856.58	1675.24
856.75	1699.81
856.92	1634.28
857.09	1736.68
857.26	1605.61
857.42	1742.82
857.59	1656.81
857.76	1703.91
857.93	1728.49
858.10	1677.29
858.27	1611.75
858.43	1761.25
858.60	1724.39
858.77	1607.66
858.94	1671.14
859.11	1724.39
859.27	1662.95
859.44	1642.47
859.61	1738.73
859.78	1679.33
859.95	1665.00
860.12	1648.61
860.28	1767.40
860.45	1734.63
860.62	1665.00
860.79	1687.53
860.95	1748.97
861.12	1693.67
861.29	1654.76
861.46	1617.90
861.63	1685.48
861.79	1634.28
861.96	1609.70
862.13	1624.04
862.30	1689.57
862.47	1699.81
862.63	1720.29
862.80	1751.01
862.97	1642.47
863.14	1697.77
863.30	1691.62
863.47	1734.63
863.64	1710.05
863.81	1759.21
863.97	1708.01
864.14	1724.39
864.31	1636.33
864.48	1677.29
864.65	1742.82
864.81	1773.54
864.98	1693.67
865.15	1679.33
865.32	1697.77
865.48	1744.87
865.65	1785.83
865.82	1654.76
865.98	1662.95
866.15	1761.25
866.32	1703.91
866.49	1634.28
866.65	1714.15
866.82	1599.46
866.99	1667.05
867.16	1644.52
867.32	1656.81
867.49	1636.33
867.66	1638.38
867.83	1679.33
867.99	1603.56
868.16	1660.90
868.33	1603.56
868.49	1708.01
868.66	1660.90
868.83	1699.81
868.99	1687.53
869.16	1652.71
869.33	1746.92
869.50	1755.11
869.66	1646.57
869.83	1640.42
870.00	1583.08
870.16	1734.63
870.33	1728.49
870.50	1701.86
870.66	1734.63
870.83	1767.40
871.00	1638.38
871.17	1656.81
871.33	1771.49
871.50	1681.38
871.67	1687.53
871.83	1636.33
872.00	1748.97
872.17	1662.95
872.33	1771.49
872.50	1730.53
872.67	1650.66
872.83	1669.09
873.00	1771.49
873.17	1683.43
873.33	1699.81
873.50	1773.54
873.67	1669.09
873.83	1710.05
874.00	1783.78
874.16	1757.16
874.33	1662.95
874.50	1607.66
874.66	1687.53
874.83	1722.34
875.00	1775.59
875.16	1722.34
875.33	1826.79
875.50	1562.60
875.66	1681.38
875.83	1738.73
875.99	1724.39
876.16	1687.53
876.33	1667.05
876.49	1703.91
876.66	1693.67
876.83	1697.77
876.99	1638.38
877.16	1636.33
877.32	1572.84
877.49	1714.15
877.66	1759.21
877.82	1796.07
877.99	1691.62
878.15	1767.40
878.32	1638.38
878.49	1757.16
878.65	1710.05
878.82	1804.26
878.98	1677.29
879.15	1732.58
879.32	1718.25
879.48	1728.49
879.65	1648.61
879.81	1648.61
879.98	1681.38
880.15	1757.16
880.31	1726.44
880.48	1697.77
880.64	1689.57
880.81	1693.67
880.97	1816.55
881.14	1710.05
881.31	1677.29
881.47	1789.92
881.64	1685.48
881.80	1689.57
881.97	1710.05
882.13	1738.73
882.30	1710.05
882.47	1701.86
882.63	1642.47
882.80	1644.52
882.96	1646.57
883.13	1834.98
883.29	1638.38
883.46	1708.01
883.62	1757.16
883.79	1613.80
883.95	1730.53
884.12	1693.67
884.29	1753.06
884.45	1712.10
884.62	1669.09
884.78	1656.81
884.95	1765.35
885.11	1685.48
885.28	1689.57
885.44	1656.81
885.61	1730.53
885.77	1683.43
885.94	1753.06
886.10	1658.85
886.27	1701.86
886.43	1751.01
886.60	1800.16
886.76	1665.00
886.93	1636.33
887.09	1746.92
887.26	1650.66
887.42	1685.48
887.59	1734.63
887.75	1808.36
887.92	1779.68
888.08	1740.77
888.25	1681.38
888.41	1681.38
888.58	1632.23
888.74	1685.48
888.91	1662.95
>>>>>End Processed Spectral Data<<<<<
