SpectraSuite Data File
++++++++++++++++++++++++++++++++++++
Date: Mon Jun 06 15:43:37 CEST 2016
User: root
Dark Spectrum Present: No
Reference Spectrum Present: No
Number of Sampled Component Spectra: 1
Spectrometers: USB4C02835
Integration Time (usec): 100000 (USB4C02835)
Spectra Averaged: 1 (USB4C02835)
Boxcar Smoothing: 0 (USB4C02835)
Correct for Electrical Dark: No (USB4C02835)
Strobe/Lamp Enabled: No (USB4C02835)
Correct for Detector Non-linearity: No (USB4C02835)
Correct for Stray Light: No (USB4C02835)
Number of Pixels in Processed Spectrum: 3648
>>>>>Begin Processed Spectral Data<<<<<
177.47	1488.87
177.69	1488.87
177.91	1488.87
178.13	1376.24
178.36	1486.83
178.58	1738.73
178.80	1748.97
179.02	1619.94
179.24	1648.61
179.46	1710.05
179.68	1832.93
179.90	1738.73
180.13	1779.68
180.35	1673.19
180.57	1662.95
180.79	1779.68
181.01	1759.21
181.23	1791.97
181.45	1783.78
181.67	1699.81
181.90	1804.26
182.12	1710.05
182.34	1705.96
182.56	1765.35
182.78	1708.01
183.00	1642.47
183.22	1691.62
183.44	1605.61
183.66	1753.06
183.89	1787.88
184.11	1763.30
184.33	1697.77
184.55	1757.16
184.77	1748.97
184.99	1675.24
185.21	1673.19
185.43	1877.99
185.65	1642.47
185.87	1703.91
186.10	1822.69
186.32	1814.50
186.54	1783.78
186.76	1767.40
186.98	1755.11
187.20	1720.29
187.42	1712.10
187.64	1732.58
187.86	1724.39
188.08	1759.21
188.30	1732.58
188.52	1685.48
188.75	1753.06
188.97	1869.80
189.19	1710.05
189.41	1675.24
189.63	1738.73
189.85	1724.39
190.07	1693.67
190.29	1648.61
190.51	1736.68
190.73	1636.33
190.95	1775.59
191.17	1767.40
191.39	1644.52
191.61	1701.86
191.84	1726.44
192.06	1753.06
192.28	1658.85
192.50	1890.28
192.72	1705.96
192.94	1669.09
193.16	1869.80
193.38	1832.93
193.60	1667.05
193.82	1771.49
194.04	1724.39
194.26	1697.77
194.48	1660.90
194.70	1708.01
194.92	1677.29
195.14	1675.24
195.36	1630.18
195.58	1753.06
195.80	1689.57
196.02	1689.57
196.24	1615.85
196.46	1818.60
196.69	1697.77
196.91	1853.41
197.13	1677.29
197.35	1677.29
197.57	1796.07
197.79	1689.57
198.01	1685.48
198.23	1763.30
198.45	1665.00
198.67	1665.00
198.89	1669.09
199.11	1718.25
199.33	1658.85
199.55	1615.85
199.77	1699.81
199.99	1775.59
200.21	1681.38
200.43	1740.77
200.65	1642.47
200.87	1611.75
201.09	1718.25
201.31	1720.29
201.53	1679.33
201.75	1824.74
201.97	1830.88
202.19	1710.05
202.41	1736.68
202.63	1798.12
202.85	1746.92
203.07	1714.15
203.29	1714.15
203.51	1687.53
203.73	1685.48
203.95	1857.51
204.17	1708.01
204.39	1720.29
204.61	1648.61
204.83	1673.19
205.05	1665.00
205.27	1728.49
205.49	1794.02
205.71	1734.63
205.93	1693.67
206.15	1708.01
206.37	1689.57
206.59	1714.15
206.81	1634.28
207.03	1652.71
207.25	1712.10
207.47	1722.34
207.69	1667.05
207.91	1716.20
208.13	1775.59
208.34	1716.20
208.56	1685.48
208.78	1648.61
209.00	1646.57
209.22	1724.39
209.44	1689.57
209.66	1730.53
209.88	1722.34
210.10	1757.16
210.32	1701.86
210.54	1742.82
210.76	1681.38
210.98	1722.34
211.20	1611.75
211.42	1734.63
211.64	1732.58
211.86	1757.16
212.08	1824.74
212.30	1652.71
212.52	1703.91
212.74	1718.25
212.96	1714.15
213.17	1789.92
213.39	1650.66
213.61	1808.36
213.83	1642.47
214.05	1658.85
214.27	1751.01
214.49	1665.00
214.71	1697.77
214.93	1746.92
215.15	1697.77
215.37	1769.44
215.59	1634.28
215.81	1783.78
216.03	1714.15
216.24	1685.48
216.46	1697.77
216.68	1628.14
216.90	1761.25
217.12	1669.09
217.34	1665.00
217.56	1755.11
217.78	1834.98
218.00	1787.88
218.22	1740.77
218.44	1734.63
218.66	1779.68
218.87	1845.22
219.09	1671.14
219.31	1718.25
219.53	1679.33
219.75	1681.38
219.97	1773.54
220.19	1730.53
220.41	1744.87
220.63	1800.16
220.85	1748.97
221.06	1740.77
221.28	1783.78
221.50	1732.58
221.72	1738.73
221.94	1621.99
222.16	1748.97
222.38	1757.16
222.60	1726.44
222.82	1767.40
223.03	1775.59
223.25	1667.05
223.47	1736.68
223.69	1777.64
223.91	1726.44
224.13	1699.81
224.35	1697.77
224.57	1830.88
224.78	1714.15
225.00	1681.38
225.22	1718.25
225.44	1759.21
225.66	1773.54
225.88	1734.63
226.10	1726.44
226.32	1652.71
226.53	1693.67
226.75	1652.71
226.97	1718.25
227.19	1734.63
227.41	1677.29
227.63	1660.90
227.85	1617.90
228.06	1742.82
228.28	1753.06
228.50	1697.77
228.72	1599.46
228.94	1765.35
229.16	1658.85
229.37	1652.71
229.59	1671.14
229.81	1777.64
230.03	1646.57
230.25	1660.90
230.47	1673.19
230.69	1634.28
230.90	1726.44
231.12	1689.57
231.34	1712.10
231.56	1781.73
231.78	1646.57
232.00	1779.68
232.21	1669.09
232.43	1730.53
232.65	1632.23
232.87	1775.59
233.09	1656.81
233.30	1718.25
233.52	1769.44
233.74	1753.06
233.96	1703.91
234.18	1757.16
234.40	1724.39
234.61	1912.80
234.83	1656.81
235.05	1652.71
235.27	1873.89
235.49	1712.10
235.70	1726.44
235.92	1742.82
236.14	1734.63
236.36	1787.88
236.58	1648.61
236.79	1730.53
237.01	1744.87
237.23	1755.11
237.45	1771.49
237.67	1703.91
237.88	1722.34
238.10	1787.88
238.32	1665.00
238.54	1665.00
238.76	1683.43
238.97	1675.24
239.19	1701.86
239.41	1773.54
239.63	1759.21
239.85	1746.92
240.06	1701.86
240.28	1718.25
240.50	1740.77
240.72	1695.72
240.93	1660.90
241.15	1718.25
241.37	1734.63
241.59	1738.73
241.81	1724.39
242.02	1710.05
242.24	1681.38
242.46	1783.78
242.68	1607.66
242.89	1744.87
243.11	1720.29
243.33	1599.46
243.55	1767.40
243.76	1720.29
243.98	1636.33
244.20	1759.21
244.42	1722.34
244.64	1716.20
244.85	1601.51
245.07	1656.81
245.29	1662.95
245.51	1640.42
245.72	1763.30
245.94	1800.16
246.16	1779.68
246.38	1832.93
246.59	1689.57
246.81	1732.58
247.03	1673.19
247.24	1705.96
247.46	1644.52
247.68	1728.49
247.90	1638.38
248.11	1699.81
248.33	1775.59
248.55	1746.92
248.77	1720.29
248.98	1746.92
249.20	1804.26
249.42	1732.58
249.64	1744.87
249.85	1681.38
250.07	1697.77
250.29	1634.28
250.50	1765.35
250.72	1671.14
250.94	1771.49
251.16	1855.46
251.37	1814.50
251.59	1722.34
251.81	1812.45
252.02	1816.55
252.24	1697.77
252.46	1734.63
252.68	1718.25
252.89	1695.72
253.11	1628.14
253.33	1822.69
253.54	1826.79
253.76	1665.00
253.98	1705.96
254.20	1751.01
254.41	1697.77
254.63	1665.00
254.85	1691.62
255.06	1734.63
255.28	1714.15
255.50	1765.35
255.71	1652.71
255.93	1714.15
256.15	1636.33
256.36	1761.25
256.58	1630.18
256.80	1712.10
257.02	1603.56
257.23	1636.33
257.45	1759.21
257.67	1722.34
257.88	1753.06
258.10	1722.34
258.32	1763.30
258.53	1718.25
258.75	1789.92
258.97	1652.71
259.18	1753.06
259.40	1695.72
259.62	1810.40
259.83	1869.80
260.05	1742.82
260.27	1955.81
260.48	1789.92
260.70	1669.09
260.92	1697.77
261.13	1722.34
261.35	1667.05
261.57	1689.57
261.78	1638.38
262.00	1675.24
262.22	1714.15
262.43	1665.00
262.65	1669.09
262.86	1787.88
263.08	1847.27
263.30	1675.24
263.51	1640.42
263.73	1626.09
263.95	1847.27
264.16	1646.57
264.38	1646.57
264.60	1722.34
264.81	1642.47
265.03	1732.58
265.25	1714.15
265.46	1669.09
265.68	1796.07
265.89	1691.62
266.11	1658.85
266.33	1728.49
266.54	1763.30
266.76	1767.40
266.98	1732.58
267.19	1804.26
267.41	1761.25
267.62	1744.87
267.84	1599.46
268.06	1665.00
268.27	1751.01
268.49	1830.88
268.70	1730.53
268.92	1662.95
269.14	1662.95
269.35	1613.80
269.57	1751.01
269.79	1705.96
270.00	1675.24
270.22	1843.17
270.43	1609.70
270.65	1617.90
270.87	1753.06
271.08	1773.54
271.30	1761.25
271.51	1671.14
271.73	1734.63
271.95	1800.16
272.16	1740.77
272.38	1667.05
272.59	1699.81
272.81	1771.49
273.02	1718.25
273.24	1685.48
273.46	1783.78
273.67	1703.91
273.89	1677.29
274.10	1689.57
274.32	1794.02
274.54	1730.53
274.75	1652.71
274.97	1822.69
275.18	1796.07
275.40	1720.29
275.61	1724.39
275.83	1675.24
276.05	1570.79
276.26	1695.72
276.48	1732.58
276.69	1703.91
276.91	1624.04
277.12	1839.08
277.34	1738.73
277.55	1724.39
277.77	1742.82
277.99	1673.19
278.20	1687.53
278.42	1689.57
278.63	1667.05
278.85	1634.28
279.06	1669.09
279.28	1652.71
279.49	1748.97
279.71	1773.54
279.93	1701.86
280.14	1718.25
280.36	1632.23
280.57	1775.59
280.79	1740.77
281.00	1640.42
281.22	1626.09
281.43	1765.35
281.65	1632.23
281.86	1644.52
282.08	1748.97
282.29	1810.40
282.51	1583.08
282.73	1697.77
282.94	1644.52
283.16	1734.63
283.37	1857.51
283.59	1675.24
283.80	1755.11
284.02	1650.66
284.23	1671.14
284.45	1734.63
284.66	1705.96
284.88	1683.43
285.09	1691.62
285.31	1789.92
285.52	1753.06
285.74	1601.51
285.95	1744.87
286.17	1701.86
286.38	1767.40
286.60	1640.42
286.81	1779.68
287.03	1681.38
287.24	1648.61
287.46	1775.59
287.67	1665.00
287.89	1849.32
288.10	1685.48
288.32	1712.10
288.53	1796.07
288.75	1744.87
288.96	1787.88
289.18	1757.16
289.39	1683.43
289.61	1775.59
289.82	1777.64
290.04	1738.73
290.25	1640.42
290.47	1656.81
290.68	1718.25
290.90	1779.68
291.11	1665.00
291.33	1767.40
291.54	1714.15
291.76	1523.69
291.97	1718.25
292.18	1744.87
292.40	1722.34
292.61	1650.66
292.83	1857.51
293.04	1773.54
293.26	1644.52
293.47	1683.43
293.69	1736.68
293.90	1697.77
294.12	1789.92
294.33	1638.38
294.55	1656.81
294.76	1783.78
294.97	1794.02
295.19	1808.36
295.40	1712.10
295.62	1742.82
295.83	1822.69
296.05	1726.44
296.26	1798.12
296.48	1742.82
296.69	1742.82
296.90	1708.01
297.12	1712.10
297.33	1841.12
297.55	1714.15
297.76	1712.10
297.98	1736.68
298.19	1722.34
298.41	1685.48
298.62	1740.77
298.83	1771.49
299.05	1722.34
299.26	1646.57
299.48	1660.90
299.69	1740.77
299.90	1767.40
300.12	1544.17
300.33	1769.44
300.55	1753.06
300.76	1726.44
300.98	1685.48
301.19	1806.31
301.40	1738.73
301.62	1683.43
301.83	1769.44
302.05	1734.63
302.26	1834.98
302.47	1761.25
302.69	1607.66
302.90	1736.68
303.12	1585.13
303.33	1751.01
303.54	1869.80
303.76	1726.44
303.97	1785.83
304.19	1759.21
304.40	1685.48
304.61	1722.34
304.83	1824.74
305.04	1814.50
305.26	1677.29
305.47	1626.09
305.68	1748.97
305.90	1619.94
306.11	1794.02
306.33	1771.49
306.54	1681.38
306.75	1718.25
306.97	1560.55
307.18	1656.81
307.39	1652.71
307.61	1769.44
307.82	1681.38
308.04	1769.44
308.25	1689.57
308.46	1787.88
308.68	1677.29
308.89	1714.15
309.10	1759.21
309.32	1687.53
309.53	1665.00
309.74	1740.77
309.96	1705.96
310.17	1773.54
310.39	1703.91
310.60	1753.06
310.81	1771.49
311.03	1624.04
311.24	1738.73
311.45	1689.57
311.67	1777.64
311.88	1763.30
312.09	1689.57
312.31	1730.53
312.52	1683.43
312.73	1683.43
312.95	1640.42
313.16	1726.44
313.37	1820.64
313.59	1755.11
313.80	1771.49
314.01	1822.69
314.23	1662.95
314.44	1751.01
314.65	1658.85
314.87	1765.35
315.08	1705.96
315.29	1675.24
315.51	1718.25
315.72	1656.81
315.93	1771.49
316.15	1787.88
316.36	1650.66
316.57	1712.10
316.79	1703.91
317.00	1669.09
317.21	1728.49
317.43	1667.05
317.64	1732.58
317.85	1669.09
318.07	1656.81
318.28	1746.92
318.49	1742.82
318.70	1966.05
318.92	1818.60
319.13	1804.26
319.34	1925.09
319.56	1804.26
319.77	1837.03
319.98	1796.07
320.20	1900.52
320.41	1751.01
320.62	1728.49
320.83	1675.24
321.05	1802.21
321.26	1742.82
321.47	1675.24
321.69	1765.35
321.90	1611.75
322.11	1751.01
322.32	1699.81
322.54	1798.12
322.75	1642.47
322.96	1824.74
323.18	1691.62
323.39	1611.75
323.60	1669.09
323.81	1785.83
324.03	1697.77
324.24	1705.96
324.45	1765.35
324.66	1746.92
324.88	1765.35
325.09	1742.82
325.30	1699.81
325.52	1718.25
325.73	1755.11
325.94	1621.99
326.15	1621.99
326.37	1658.85
326.58	1767.40
326.79	1740.77
327.00	1671.14
327.22	1640.42
327.43	1691.62
327.64	1662.95
327.85	1777.64
328.07	1734.63
328.28	1730.53
328.49	1724.39
328.70	1736.68
328.92	1644.52
329.13	1724.39
329.34	1806.31
329.55	1841.12
329.76	1726.44
329.98	1767.40
330.19	1824.74
330.40	1726.44
330.61	1738.73
330.83	1734.63
331.04	1681.38
331.25	1781.73
331.46	1660.90
331.68	1615.85
331.89	1697.77
332.10	1679.33
332.31	1701.86
332.52	1654.76
332.74	1755.11
332.95	1656.81
333.16	1660.90
333.37	1730.53
333.58	1646.57
333.80	1683.43
334.01	1638.38
334.22	1759.21
334.43	1677.29
334.64	1718.25
334.86	1699.81
335.07	1695.72
335.28	1812.45
335.49	1626.09
335.70	1708.01
335.92	1765.35
336.13	1755.11
336.34	1740.77
336.55	1677.29
336.76	1699.81
336.98	1681.38
337.19	1734.63
337.40	1787.88
337.61	1832.93
337.82	1708.01
338.04	1708.01
338.25	1652.71
338.46	1673.19
338.67	1806.31
338.88	1669.09
339.09	1605.61
339.31	1632.23
339.52	1693.67
339.73	1681.38
339.94	1765.35
340.15	1693.67
340.36	1687.53
340.58	1722.34
340.79	1638.38
341.00	1705.96
341.21	1718.25
341.42	1847.27
341.63	1701.86
341.85	1822.69
342.06	1748.97
342.27	1710.05
342.48	1800.16
342.69	1671.14
342.90	1724.39
343.12	1775.59
343.33	1650.66
343.54	1644.52
343.75	1796.07
343.96	1660.90
344.17	1665.00
344.38	1740.77
344.60	1679.33
344.81	1634.28
345.02	1675.24
345.23	1757.16
345.44	1837.03
345.65	1787.88
345.86	1759.21
346.07	1687.53
346.29	1660.90
346.50	1726.44
346.71	1738.73
346.92	1714.15
347.13	1845.22
347.34	1677.29
347.55	1679.33
347.76	1734.63
347.98	1701.86
348.19	1675.24
348.40	1787.88
348.61	1693.67
348.82	1837.03
349.03	1781.73
349.24	1718.25
349.45	1779.68
349.66	1593.32
349.88	1744.87
350.09	1716.20
350.30	1757.16
350.51	1771.49
350.72	1744.87
350.93	1634.28
351.14	1646.57
351.35	1728.49
351.56	1722.34
351.77	1667.05
351.99	1677.29
352.20	1816.55
352.41	1789.92
352.62	1619.94
352.83	1759.21
353.04	1701.86
353.25	1732.58
353.46	1724.39
353.67	1671.14
353.88	1599.46
354.09	1718.25
354.30	1724.39
354.52	1724.39
354.73	1771.49
354.94	1665.00
355.15	1665.00
355.36	1787.88
355.57	1689.57
355.78	1677.29
355.99	1619.94
356.20	1685.48
356.41	1847.27
356.62	1804.26
356.83	1761.25
357.04	1796.07
357.25	1585.13
357.46	1703.91
357.68	1675.24
357.89	1646.57
358.10	1769.44
358.31	1652.71
358.52	1677.29
358.73	1662.95
358.94	1679.33
359.15	1652.71
359.36	1736.68
359.57	1621.99
359.78	1761.25
359.99	1714.15
360.20	1681.38
360.41	1697.77
360.62	1744.87
360.83	1726.44
361.04	1722.34
361.25	1794.02
361.46	1800.16
361.67	1794.02
361.88	1732.58
362.09	1751.01
362.30	1761.25
362.51	1695.72
362.72	1767.40
362.93	1779.68
363.14	1781.73
363.35	1730.53
363.56	1626.09
363.78	1765.35
363.99	1689.57
364.20	1603.56
364.41	1730.53
364.62	1796.07
364.83	1718.25
365.04	1683.43
365.25	1656.81
365.46	1810.40
365.67	1652.71
365.88	1611.75
366.09	1640.42
366.30	1697.77
366.51	1708.01
366.72	1722.34
366.93	1705.96
367.14	1748.97
367.35	1763.30
367.56	1716.20
367.77	1775.59
367.98	1712.10
368.18	1748.97
368.39	1791.97
368.60	1677.29
368.81	1783.78
369.02	1751.01
369.23	1689.57
369.44	1570.79
369.65	1665.00
369.86	1757.16
370.07	1781.73
370.28	1585.13
370.49	1751.01
370.70	1781.73
370.91	1566.70
371.12	1609.70
371.33	1779.68
371.54	1693.67
371.75	1806.31
371.96	1587.18
372.17	1740.77
372.38	1720.29
372.59	1757.16
372.80	1634.28
373.01	1650.66
373.22	1765.35
373.43	1675.24
373.64	1648.61
373.85	1794.02
374.06	1798.12
374.26	1820.64
374.47	1710.05
374.68	1777.64
374.89	1697.77
375.10	1677.29
375.31	1744.87
375.52	1705.96
375.73	1738.73
375.94	1624.04
376.15	1759.21
376.36	1609.70
376.57	1646.57
376.78	1626.09
376.99	1736.68
377.20	1806.31
377.40	1689.57
377.61	1845.22
377.82	1718.25
378.03	1802.21
378.24	1724.39
378.45	1714.15
378.66	1744.87
378.87	1652.71
379.08	1734.63
379.29	1689.57
379.50	1767.40
379.71	1683.43
379.91	1673.19
380.12	1734.63
380.33	1665.00
380.54	1751.01
380.75	1714.15
380.96	1691.62
381.17	1796.07
381.38	1746.92
381.59	1763.30
381.80	1738.73
382.00	1863.65
382.21	1732.58
382.42	1843.17
382.63	1894.37
382.84	1783.78
383.05	1804.26
383.26	1785.83
383.47	1677.29
383.68	1705.96
383.88	1738.73
384.09	1773.54
384.30	1841.12
384.51	1642.47
384.72	1677.29
384.93	1630.18
385.14	1771.49
385.35	1789.92
385.55	1607.66
385.76	1798.12
385.97	1681.38
386.18	1619.94
386.39	1603.56
386.60	1714.15
386.81	1738.73
387.02	1644.52
387.22	1638.38
387.43	1798.12
387.64	1804.26
387.85	1931.23
388.06	2207.71
388.27	4073.41
388.48	6621.08
388.68	8146.82
388.89	9355.12
389.10	9789.29
389.31	8585.08
389.52	7532.43
389.73	6596.51
389.93	6246.30
390.14	5846.95
390.35	5130.16
390.56	4562.87
390.77	3745.73
390.98	2975.70
391.18	2617.30
391.39	2105.31
391.60	1841.12
391.81	1806.31
392.02	1732.58
392.23	1865.70
392.43	1839.08
392.64	1820.64
392.85	1712.10
393.06	1771.49
393.27	1755.11
393.47	1677.29
393.68	1765.35
393.89	1693.67
394.10	1863.65
394.31	1722.34
394.52	1660.90
394.72	1669.09
394.93	1812.45
395.14	1697.77
395.35	1789.92
395.56	1681.38
395.76	1722.34
395.97	1716.20
396.18	1834.98
396.39	1851.36
396.60	2050.02
396.80	1920.99
397.01	1828.84
397.22	1851.36
397.43	1808.36
397.64	1714.15
397.84	1849.32
398.05	1949.67
398.26	1781.73
398.47	1810.40
398.67	1728.49
398.88	1740.77
399.09	1734.63
399.30	1751.01
399.51	1716.20
399.71	1677.29
399.92	1691.62
400.13	1791.97
400.34	1669.09
400.54	1771.49
400.75	1759.21
400.96	1701.86
401.17	1837.03
401.37	1724.39
401.58	1738.73
401.79	1773.54
402.00	1935.33
402.21	1910.75
402.41	1931.23
402.62	2033.63
402.83	1974.24
403.04	1976.29
403.24	2076.64
403.45	1871.84
403.66	1861.60
403.87	1947.62
404.07	1970.15
404.28	1902.56
404.49	1875.94
404.70	1796.07
404.90	1775.59
405.11	1796.07
405.32	1779.68
405.52	1660.90
405.73	1697.77
405.94	1652.71
406.15	1791.97
406.35	1759.21
406.56	1796.07
406.77	1720.29
406.98	1728.49
407.18	1652.71
407.39	1857.51
407.60	1736.68
407.80	1753.06
408.01	1669.09
408.22	1798.12
408.43	1710.05
408.63	1650.66
408.84	1785.83
409.05	1761.25
409.25	1685.48
409.46	1730.53
409.67	1660.90
409.88	1685.48
410.08	1650.66
410.29	1687.53
410.50	1730.53
410.70	1716.20
410.91	1632.23
411.12	1787.88
411.32	1763.30
411.53	1681.38
411.74	1812.45
411.95	1718.25
412.15	1783.78
412.36	1746.92
412.57	1740.77
412.77	1832.93
412.98	1712.10
413.19	1671.14
413.39	1726.44
413.60	1742.82
413.81	1800.16
414.01	1665.00
414.22	1742.82
414.43	1843.17
414.63	1683.43
414.84	1845.22
415.05	1673.19
415.25	1671.14
415.46	1699.81
415.67	1671.14
415.87	1701.86
416.08	1705.96
416.29	1714.15
416.49	1671.14
416.70	1634.28
416.91	1736.68
417.11	1697.77
417.32	1705.96
417.53	1834.98
417.73	1689.57
417.94	1728.49
418.15	1734.63
418.35	1718.25
418.56	1673.19
418.77	1839.08
418.97	1691.62
419.18	1673.19
419.38	1624.04
419.59	1660.90
419.80	1722.34
420.00	1710.05
420.21	1689.57
420.42	1812.45
420.62	1699.81
420.83	1779.68
421.04	1673.19
421.24	1669.09
421.45	1771.49
421.65	1771.49
421.86	1697.77
422.07	1681.38
422.27	1742.82
422.48	1804.26
422.69	1638.38
422.89	1714.15
423.10	1689.57
423.30	1677.29
423.51	1732.58
423.72	1816.55
423.92	1837.03
424.13	1673.19
424.33	1736.68
424.54	1712.10
424.75	1740.77
424.95	1779.68
425.16	1775.59
425.36	1632.23
425.57	1730.53
425.78	1767.40
425.98	1787.88
426.19	1691.62
426.39	1634.28
426.60	1751.01
426.81	1824.74
427.01	1742.82
427.22	1654.76
427.42	1609.70
427.63	1705.96
427.83	1779.68
428.04	1849.32
428.25	1753.06
428.45	1863.65
428.66	1804.26
428.86	1720.29
429.07	1638.38
429.28	1697.77
429.48	1689.57
429.69	1624.04
429.89	1753.06
430.10	1687.53
430.30	1693.67
430.51	1767.40
430.71	1716.20
430.92	1656.81
431.13	1697.77
431.33	1736.68
431.54	1767.40
431.74	1759.21
431.95	1753.06
432.15	1650.66
432.36	1771.49
432.56	1804.26
432.77	1875.94
432.98	1818.60
433.18	1679.33
433.39	1734.63
433.59	1677.29
433.80	1834.98
434.00	1880.04
434.21	1705.96
434.41	1681.38
434.62	1873.89
434.82	1665.00
435.03	1673.19
435.23	1654.76
435.44	1601.51
435.64	1730.53
435.85	1718.25
436.06	1767.40
436.26	1777.64
436.47	1703.91
436.67	1675.24
436.88	1746.92
437.08	1787.88
437.29	1820.64
437.49	1726.44
437.70	1800.16
437.90	1720.29
438.11	1880.04
438.31	1820.64
438.52	1927.14
438.72	1843.17
438.93	1998.82
439.13	1820.64
439.34	1808.36
439.54	1705.96
439.75	1738.73
439.95	1839.08
440.16	1779.68
440.36	1775.59
440.57	1771.49
440.77	1830.88
440.98	1761.25
441.18	1804.26
441.39	1767.40
441.59	1714.15
441.80	1857.51
442.00	1765.35
442.21	1804.26
442.41	1662.95
442.62	1767.40
442.82	1703.91
443.02	1689.57
443.23	1767.40
443.43	1654.76
443.64	1859.56
443.84	1705.96
444.05	1781.73
444.25	1710.05
444.46	1699.81
444.66	1751.01
444.87	1824.74
445.07	1585.13
445.28	1769.44
445.48	1771.49
445.69	1738.73
445.89	1869.80
446.09	1773.54
446.30	2056.16
446.50	2641.88
446.71	3631.05
446.91	4233.15
447.12	4726.71
447.32	4831.16
447.53	4278.21
447.73	3786.69
447.93	3430.35
448.14	3377.10
448.34	3213.26
448.55	2820.05
448.75	2811.86
448.96	2742.23
449.16	2396.12
449.36	2197.47
449.57	2076.64
449.77	1826.79
449.98	1798.12
450.18	1812.45
450.39	1828.84
450.59	1785.83
450.79	1779.68
451.00	1759.21
451.20	1839.08
451.41	1714.15
451.61	1877.99
451.81	1759.21
452.02	1785.83
452.22	1757.16
452.43	1755.11
452.63	1697.77
452.84	1699.81
453.04	1722.34
453.24	1744.87
453.45	1755.11
453.65	1693.67
453.86	1726.44
454.06	1775.59
454.26	1853.41
454.47	1667.05
454.67	1814.50
454.87	1824.74
455.08	1900.52
455.28	1867.75
455.49	1773.54
455.69	1748.97
455.89	1880.04
456.10	1822.69
456.30	1724.39
456.51	1816.55
456.71	1796.07
456.91	1746.92
457.12	1699.81
457.32	1802.21
457.52	1726.44
457.73	1796.07
457.93	1791.97
458.14	1669.09
458.34	1636.33
458.54	1693.67
458.75	1748.97
458.95	1865.70
459.15	1710.05
459.36	1794.02
459.56	1751.01
459.76	1900.52
459.97	1732.58
460.17	1753.06
460.37	1794.02
460.58	1730.53
460.78	1812.45
460.99	1742.82
461.19	1757.16
461.39	1730.53
461.60	1683.43
461.80	1751.01
462.00	1699.81
462.21	1665.00
462.41	1654.76
462.61	1699.81
462.82	1677.29
463.02	1720.29
463.22	1724.39
463.43	1779.68
463.63	1691.62
463.83	1738.73
464.04	1773.54
464.24	1751.01
464.44	1726.44
464.64	1710.05
464.85	1714.15
465.05	1849.32
465.25	1773.54
465.46	1712.10
465.66	1744.87
465.86	1800.16
466.07	1740.77
466.27	1703.91
466.47	1642.47
466.68	1638.38
466.88	1859.56
467.08	1714.15
467.29	1828.84
467.49	1708.01
467.69	1730.53
467.89	1818.60
468.10	1675.24
468.30	1789.92
468.50	1853.41
468.71	1865.70
468.91	1753.06
469.11	1867.75
469.31	1759.21
469.52	1712.10
469.72	1791.97
469.92	1933.28
470.13	1681.38
470.33	1716.20
470.53	1910.75
470.73	2113.50
470.94	2271.20
471.14	2349.02
471.34	2533.34
471.54	2435.03
471.75	2205.66
471.95	2189.28
472.15	2123.74
472.36	2095.07
472.56	2099.17
472.76	2086.88
472.96	1984.48
473.17	1964.00
473.37	1990.63
473.57	1785.83
473.77	1855.46
473.98	1726.44
474.18	1720.29
474.38	1873.89
474.58	1658.85
474.79	1613.80
474.99	1763.30
475.19	1853.41
475.39	1652.71
475.60	1744.87
475.80	1775.59
476.00	1703.91
476.20	1679.33
476.41	1740.77
476.61	1789.92
476.81	1865.70
477.01	1665.00
477.21	1820.64
477.42	1851.36
477.62	1665.00
477.82	1732.58
478.02	1689.57
478.23	1787.88
478.43	1667.05
478.63	1720.29
478.83	1738.73
479.03	1763.30
479.24	1816.55
479.44	1837.03
479.64	1699.81
479.84	1554.41
480.04	1710.05
480.25	1751.01
480.45	1693.67
480.65	1624.04
480.85	1806.31
481.06	1742.82
481.26	1755.11
481.46	1732.58
481.66	1732.58
481.86	1628.14
482.06	1787.88
482.27	1736.68
482.47	1689.57
482.67	1726.44
482.87	1746.92
483.07	1771.49
483.28	1775.59
483.48	1669.09
483.68	1742.82
483.88	1699.81
484.08	1595.37
484.29	1683.43
484.49	1697.77
484.69	1660.90
484.89	1800.16
485.09	1751.01
485.29	1753.06
485.50	1773.54
485.70	1689.57
485.90	1789.92
486.10	1822.69
486.30	1746.92
486.50	1816.55
486.71	1716.20
486.91	1787.88
487.11	1871.84
487.31	1634.28
487.51	1769.44
487.71	1714.15
487.91	1667.05
488.12	1734.63
488.32	1595.37
488.52	1695.72
488.72	1566.70
488.92	1791.97
489.12	1787.88
489.32	1755.11
489.53	1710.05
489.73	1677.29
489.93	1849.32
490.13	1687.53
490.33	1591.27
490.53	1771.49
490.73	1779.68
490.94	1621.99
491.14	1785.83
491.34	1877.99
491.54	2113.50
491.74	2557.91
491.94	2891.73
492.14	2928.60
492.34	3010.51
492.54	2705.37
492.75	2449.37
492.95	2344.92
493.15	2340.83
493.35	2361.31
493.55	2263.01
493.75	2207.71
493.95	2131.94
494.15	2021.35
494.35	1931.23
494.56	1890.28
494.76	1820.64
494.96	1794.02
495.16	1796.07
495.36	1693.67
495.56	1771.49
495.76	1724.39
495.96	1765.35
496.16	1636.33
496.36	1808.36
496.56	1683.43
496.77	1751.01
496.97	1738.73
497.17	1816.55
497.37	1675.24
497.57	1761.25
497.77	1708.01
497.97	1673.19
498.17	1753.06
498.37	1740.77
498.57	1783.78
498.77	1712.10
498.97	1744.87
499.17	1814.50
499.38	1667.05
499.58	1843.17
499.78	1794.02
499.98	1802.21
500.18	1683.43
500.38	1787.88
500.58	1912.80
500.78	2500.57
500.98	4577.21
501.18	5752.74
501.38	6719.39
501.58	7116.69
501.78	6637.47
501.98	5554.09
502.18	5062.58
502.38	4399.04
502.58	3952.58
502.78	3717.06
502.98	3606.47
503.18	3375.05
503.38	3160.02
503.59	2820.05
503.79	2648.02
503.99	2504.67
504.19	2316.25
504.39	2228.19
504.59	2168.80
504.79	2103.26
504.99	2011.11
505.19	1943.52
505.39	1959.91
505.59	1978.34
505.79	1898.47
505.99	1877.99
506.19	1810.40
506.39	1812.45
506.59	1789.92
506.79	1708.01
506.99	1779.68
507.19	1740.77
507.39	1783.78
507.59	1675.24
507.79	1673.19
507.99	1681.38
508.19	1710.05
508.39	1740.77
508.59	1687.53
508.79	1771.49
508.99	1783.78
509.19	1720.29
509.39	1824.74
509.59	1718.25
509.79	1695.72
509.99	1699.81
510.19	1816.55
510.39	1759.21
510.59	1736.68
510.79	1675.24
510.99	1689.57
511.19	1744.87
511.39	1808.36
511.59	1826.79
511.79	1837.03
511.99	1738.73
512.19	1816.55
512.38	1757.16
512.58	1712.10
512.78	1769.44
512.98	1779.68
513.18	1820.64
513.38	1685.48
513.58	1746.92
513.78	1783.78
513.98	1710.05
514.18	1703.91
514.38	1769.44
514.58	1800.16
514.78	1722.34
514.98	1628.14
515.18	1734.63
515.38	1691.62
515.58	1880.04
515.78	1736.68
515.98	1677.29
516.18	1759.21
516.38	1740.77
516.57	1724.39
516.77	1755.11
516.97	1736.68
517.17	1732.58
517.37	1628.14
517.57	1802.21
517.77	1732.58
517.97	1699.81
518.17	1822.69
518.37	1765.35
518.57	1658.85
518.77	1791.97
518.97	1751.01
519.16	1787.88
519.36	1765.35
519.56	1681.38
519.76	1687.53
519.96	1759.21
520.16	1787.88
520.36	1640.42
520.56	1791.97
520.76	1681.38
520.96	1751.01
521.16	1837.03
521.35	1828.84
521.55	1830.88
521.75	1722.34
521.95	1685.48
522.15	1658.85
522.35	1650.66
522.55	1714.15
522.75	1767.40
522.95	1724.39
523.14	1683.43
523.34	1769.44
523.54	1691.62
523.74	1779.68
523.94	1724.39
524.14	1767.40
524.34	1757.16
524.54	1832.93
524.73	1726.44
524.93	1771.49
525.13	1769.44
525.33	1644.52
525.53	1877.99
525.73	1779.68
525.93	1691.62
526.13	1755.11
526.32	1714.15
526.52	1789.92
526.72	1820.64
526.92	1785.83
527.12	1648.61
527.32	1603.56
527.52	1691.62
527.71	1705.96
527.91	1769.44
528.11	1763.30
528.31	1640.42
528.51	1699.81
528.71	1732.58
528.90	1746.92
529.10	1849.32
529.30	1832.93
529.50	1624.04
529.70	1726.44
529.90	1730.53
530.09	1845.22
530.29	1751.01
530.49	1755.11
530.69	1839.08
530.89	1716.20
531.09	1787.88
531.28	1658.85
531.48	1810.40
531.68	1755.11
531.88	1757.16
532.08	1732.58
532.28	1638.38
532.47	1773.54
532.67	1755.11
532.87	1783.78
533.07	1736.68
533.27	1822.69
533.46	1753.06
533.66	1699.81
533.86	1681.38
534.06	1755.11
534.26	1726.44
534.45	1724.39
534.65	1771.49
534.85	1744.87
535.05	1687.53
535.25	1785.83
535.44	1658.85
535.64	1779.68
535.84	1757.16
536.04	1658.85
536.24	1757.16
536.43	1751.01
536.63	1794.02
536.83	1687.53
537.03	1728.49
537.22	1628.14
537.42	1597.42
537.62	1796.07
537.82	1687.53
538.02	1796.07
538.21	1839.08
538.41	1845.22
538.61	1730.53
538.81	1689.57
539.00	1812.45
539.20	1708.01
539.40	1722.34
539.60	1820.64
539.79	1781.73
539.99	1779.68
540.19	1763.30
540.39	1771.49
540.58	1863.65
540.78	1828.84
540.98	1783.78
541.18	1812.45
541.37	1806.31
541.57	1746.92
541.77	1751.01
541.97	1705.96
542.16	1675.24
542.36	1685.48
542.56	1712.10
542.76	1884.13
542.95	1742.82
543.15	1785.83
543.35	1773.54
543.54	1665.00
543.74	1714.15
543.94	1794.02
544.14	1779.68
544.33	1753.06
544.53	1763.30
544.73	1728.49
544.93	1751.01
545.12	1814.50
545.32	1732.58
545.52	1673.19
545.71	1740.77
545.91	1759.21
546.11	1716.20
546.30	1708.01
546.50	1767.40
546.70	1789.92
546.90	1771.49
547.09	1699.81
547.29	1722.34
547.49	1783.78
547.68	1652.71
547.88	1636.33
548.08	1742.82
548.27	2144.22
548.47	1710.05
548.67	1742.82
548.87	1742.82
549.06	1759.21
549.26	1794.02
549.46	1724.39
549.65	1755.11
549.85	1787.88
550.05	1783.78
550.24	1738.73
550.44	1794.02
550.64	1783.78
550.83	1763.30
551.03	1880.04
551.23	1834.98
551.42	1851.36
551.62	1748.97
551.82	1751.01
552.01	1726.44
552.21	1853.41
552.41	1759.21
552.60	1834.98
552.80	1804.26
553.00	1695.72
553.19	1777.64
553.39	1808.36
553.59	1675.24
553.78	1832.93
553.98	1648.61
554.17	1697.77
554.37	1775.59
554.57	1802.21
554.76	1693.67
554.96	1714.15
555.16	1771.49
555.35	1822.69
555.55	1771.49
555.75	1652.71
555.94	1794.02
556.14	1646.57
556.33	1824.74
556.53	1703.91
556.73	1714.15
556.92	1738.73
557.12	1794.02
557.32	1847.27
557.51	1871.84
557.71	1744.87
557.90	1871.84
558.10	1775.59
558.30	1753.06
558.49	1703.91
558.69	1703.91
558.88	1832.93
559.08	1800.16
559.28	1734.63
559.47	1802.21
559.67	1755.11
559.86	1820.64
560.06	1699.81
560.26	1779.68
560.45	1763.30
560.65	1785.83
560.84	1820.64
561.04	1755.11
561.24	1744.87
561.43	1671.14
561.63	1802.21
561.82	1771.49
562.02	1718.25
562.22	1660.90
562.41	1722.34
562.61	1683.43
562.80	1673.19
563.00	1894.37
563.19	1802.21
563.39	1828.84
563.59	1857.51
563.78	1671.14
563.98	1701.86
564.17	1677.29
564.37	1636.33
564.56	1738.73
564.76	1679.33
564.96	1812.45
565.15	1771.49
565.35	1804.26
565.54	1726.44
565.74	1785.83
565.93	1779.68
566.13	1734.63
566.32	1781.73
566.52	1757.16
566.71	1736.68
566.91	1828.84
567.11	1787.88
567.30	1677.29
567.50	1794.02
567.69	1740.77
567.89	1748.97
568.08	1718.25
568.28	1751.01
568.47	1716.20
568.67	1732.58
568.86	1773.54
569.06	1820.64
569.25	1791.97
569.45	1675.24
569.64	1693.67
569.84	1677.29
570.04	1673.19
570.23	1710.05
570.43	1800.16
570.62	1787.88
570.82	1920.99
571.01	1671.14
571.21	1701.86
571.40	1673.19
571.60	1732.58
571.79	1724.39
571.99	1794.02
572.18	1675.24
572.38	1822.69
572.57	1769.44
572.77	1806.31
572.96	1902.56
573.16	1781.73
573.35	1796.07
573.55	1875.94
573.74	1726.44
573.94	1648.61
574.13	1748.97
574.33	1871.84
574.52	1841.12
574.71	1720.29
574.91	1765.35
575.10	1642.47
575.30	1802.21
575.49	1718.25
575.69	1652.71
575.88	1695.72
576.08	1751.01
576.27	1742.82
576.47	1767.40
576.66	1920.99
576.86	1824.74
577.05	1728.49
577.25	1794.02
577.44	1855.46
577.64	1746.92
577.83	1773.54
578.02	1783.78
578.22	1796.07
578.41	1828.84
578.61	1802.21
578.80	1712.10
579.00	1849.32
579.19	1726.44
579.39	1771.49
579.58	1740.77
579.77	1769.44
579.97	1828.84
580.16	1806.31
580.36	1808.36
580.55	1746.92
580.75	1816.55
580.94	1837.03
581.13	1888.23
581.33	1841.12
581.52	1777.64
581.72	1861.60
581.91	1798.12
582.11	1765.35
582.30	1755.11
582.49	1769.44
582.69	1853.41
582.88	1816.55
583.08	1798.12
583.27	1800.16
583.47	1738.73
583.66	1742.82
583.85	1691.62
584.05	1751.01
584.24	1783.78
584.44	1771.49
584.63	1800.16
584.82	1859.56
585.02	1847.27
585.21	1826.79
585.41	1820.64
585.60	1877.99
585.79	1939.43
585.99	1966.05
586.18	1839.08
586.37	2160.61
586.57	3418.06
586.76	9746.28
586.96	24063.63
587.15	33938.94
587.34	39611.81
587.54	41379.21
587.73	36081.11
587.93	25888.37
588.12	21413.56
588.31	17872.62
588.51	16062.22
588.70	14819.10
588.89	13987.63
589.09	12218.18
589.28	10823.51
589.47	9443.18
589.67	7878.54
589.86	6303.65
590.06	4943.80
590.25	3846.09
590.44	3182.54
590.64	2588.63
590.83	2205.66
591.02	2127.84
591.22	1976.29
591.41	1931.23
591.60	1794.02
591.80	1933.28
591.99	1902.56
592.18	1724.39
592.38	1820.64
592.57	1718.25
592.76	1859.56
592.96	1761.25
593.15	1787.88
593.34	1789.92
593.54	1787.88
593.73	1773.54
593.92	1738.73
594.12	1810.40
594.31	1812.45
594.50	1796.07
594.70	1820.64
594.89	1947.62
595.08	1699.81
595.28	1798.12
595.47	1953.76
595.66	1763.30
595.86	1691.62
596.05	1718.25
596.24	1718.25
596.43	1871.84
596.63	1781.73
596.82	1748.97
597.01	1828.84
597.21	1912.80
597.40	1814.50
597.59	1740.77
597.79	1697.77
597.98	1763.30
598.17	1685.48
598.36	1753.06
598.56	1740.77
598.75	1705.96
598.94	1802.21
599.14	1677.29
599.33	1693.67
599.52	1806.31
599.71	1730.53
599.91	1769.44
600.10	1779.68
600.29	1730.53
600.48	1759.21
600.68	1789.92
600.87	1759.21
601.06	1714.15
601.26	1755.11
601.45	1732.58
601.64	1755.11
601.83	1820.64
602.03	1722.34
602.22	1617.90
602.41	1783.78
602.60	1886.18
602.80	1753.06
602.99	1660.90
603.18	1660.90
603.37	1763.30
603.57	1662.95
603.76	1804.26
603.95	1714.15
604.14	1730.53
604.34	1656.81
604.53	1689.57
604.72	1789.92
604.91	1742.82
605.10	1746.92
605.30	1705.96
605.49	1859.56
605.68	1738.73
605.87	1791.97
606.07	1656.81
606.26	1687.53
606.45	1806.31
606.64	1626.09
606.84	1771.49
607.03	1687.53
607.22	1718.25
607.41	1683.43
607.60	1728.49
607.80	1775.59
607.99	1718.25
608.18	1763.30
608.37	1726.44
608.56	1677.29
608.76	1816.55
608.95	1794.02
609.14	1738.73
609.33	1720.29
609.52	1748.97
609.72	1691.62
609.91	1808.36
610.10	1783.78
610.29	1779.68
610.48	1796.07
610.68	1738.73
610.87	1746.92
611.06	1730.53
611.25	1732.58
611.44	1800.16
611.63	1705.96
611.83	1882.08
612.02	1705.96
612.21	1863.65
612.40	1660.90
612.59	1705.96
612.79	1648.61
612.98	1800.16
613.17	1804.26
613.36	1710.05
613.55	1740.77
613.74	1677.29
613.93	1708.01
614.13	1718.25
614.32	1802.21
614.51	1761.25
614.70	1710.05
614.89	1701.86
615.08	1773.54
615.28	2123.74
615.47	1677.29
615.66	1726.44
615.85	1732.58
616.04	1880.04
616.23	1724.39
616.42	1730.53
616.62	1775.59
616.81	1712.10
617.00	1746.92
617.19	1753.06
617.38	1755.11
617.57	1740.77
617.76	1714.15
617.95	1708.01
618.15	1683.43
618.34	1855.46
618.53	1683.43
618.72	1875.94
618.91	1796.07
619.10	1834.98
619.29	1740.77
619.48	1783.78
619.68	1746.92
619.87	1699.81
620.06	1675.24
620.25	1751.01
620.44	1763.30
620.63	1734.63
620.82	1773.54
621.01	1714.15
621.20	1761.25
621.39	1769.44
621.59	1753.06
621.78	1736.68
621.97	1753.06
622.16	1701.86
622.35	1771.49
622.54	1773.54
622.73	1855.46
622.92	1675.24
623.11	1791.97
623.30	1783.78
623.49	1830.88
623.68	1708.01
623.88	1837.03
624.07	1775.59
624.26	1669.09
624.45	1839.08
624.64	1697.77
624.83	1775.59
625.02	1720.29
625.21	1806.31
625.40	1693.67
625.59	1834.98
625.78	1783.78
625.97	1798.12
626.16	1802.21
626.35	1777.64
626.54	1742.82
626.74	1802.21
626.93	1644.52
627.12	1753.06
627.31	1800.16
627.50	1744.87
627.69	1777.64
627.88	1685.48
628.07	1744.87
628.26	1665.00
628.45	1671.14
628.64	1671.14
628.83	1648.61
629.02	1710.05
629.21	1746.92
629.40	1685.48
629.59	1673.19
629.78	1779.68
629.97	1728.49
630.16	1732.58
630.35	1755.11
630.54	1738.73
630.73	1720.29
630.92	1761.25
631.11	1689.57
631.30	1740.77
631.49	1775.59
631.68	1746.92
631.87	1753.06
632.06	1615.85
632.25	1851.36
632.44	1689.57
632.63	1728.49
632.82	1665.00
633.01	1718.25
633.20	1718.25
633.39	1767.40
633.58	1742.82
633.77	1710.05
633.96	1751.01
634.15	1738.73
634.34	1783.78
634.53	1726.44
634.72	1769.44
634.91	1613.80
635.10	1742.82
635.29	1763.30
635.48	1634.28
635.67	1681.38
635.86	1646.57
636.05	1755.11
636.24	1716.20
636.43	1816.55
636.62	1769.44
636.81	1595.37
637.00	1783.78
637.19	1787.88
637.38	1691.62
637.57	1636.33
637.76	1787.88
637.95	1708.01
638.14	1687.53
638.33	1673.19
638.52	1798.12
638.71	1724.39
638.89	1648.61
639.08	1898.47
639.27	1738.73
639.46	1640.42
639.65	1863.65
639.84	1685.48
640.03	1777.64
640.22	1697.77
640.41	1859.56
640.60	1712.10
640.79	1761.25
640.98	1712.10
641.17	1705.96
641.36	1722.34
641.55	1742.82
641.74	1734.63
641.92	1609.70
642.11	1595.37
642.30	1781.73
642.49	1689.57
642.68	1773.54
642.87	1724.39
643.06	1755.11
643.25	1738.73
643.44	1728.49
643.63	1783.78
643.82	1802.21
644.00	1705.96
644.19	1710.05
644.38	1621.99
644.57	1787.88
644.76	1789.92
644.95	1695.72
645.14	1734.63
645.33	1746.92
645.52	1755.11
645.71	1720.29
645.89	1683.43
646.08	1730.53
646.27	1685.48
646.46	1828.84
646.65	1564.65
646.84	1742.82
647.03	1689.57
647.22	1837.03
647.40	1814.50
647.59	1748.97
647.78	1640.42
647.97	1667.05
648.16	1658.85
648.35	1851.36
648.54	1751.01
648.73	1714.15
648.91	1781.73
649.10	1667.05
649.29	1642.47
649.48	1705.96
649.67	1644.52
649.86	1734.63
650.05	1751.01
650.23	1804.26
650.42	1673.19
650.61	1818.60
650.80	1712.10
650.99	1787.88
651.18	1769.44
651.36	1763.30
651.55	1722.34
651.74	1783.78
651.93	1667.05
652.12	1697.77
652.31	1736.68
652.49	1673.19
652.68	1632.23
652.87	1751.01
653.06	1744.87
653.25	1806.31
653.44	1726.44
653.62	1736.68
653.81	1728.49
654.00	1751.01
654.19	1796.07
654.38	1900.52
654.56	1763.30
654.75	1740.77
654.94	1783.78
655.13	1732.58
655.32	1742.82
655.51	1789.92
655.69	1699.81
655.88	1712.10
656.07	1677.29
656.26	1724.39
656.45	1703.91
656.63	1695.72
656.82	1781.73
657.01	1761.25
657.20	1699.81
657.38	1787.88
657.57	1722.34
657.76	1613.80
657.95	1777.64
658.14	1757.16
658.32	1679.33
658.51	1654.76
658.70	1730.53
658.89	1720.29
659.08	1710.05
659.26	1767.40
659.45	1613.80
659.64	1687.53
659.83	1724.39
660.01	1890.28
660.20	1818.60
660.39	1789.92
660.58	1568.74
660.76	1810.40
660.95	1611.75
661.14	1755.11
661.33	1724.39
661.51	1751.01
661.70	1730.53
661.89	1724.39
662.08	1734.63
662.26	1697.77
662.45	1624.04
662.64	1796.07
662.83	1783.78
663.01	1689.57
663.20	1708.01
663.39	1853.41
663.58	1716.20
663.76	1677.29
663.95	1730.53
664.14	1675.24
664.32	1728.49
664.51	1796.07
664.70	1607.66
664.89	1812.45
665.07	1615.85
665.26	1781.73
665.45	1755.11
665.64	1791.97
665.82	1802.21
666.01	1736.68
666.20	1722.34
666.38	1816.55
666.57	1761.25
666.76	2193.37
666.95	4562.87
667.13	10323.81
667.32	14962.46
667.51	17561.33
667.69	18691.81
667.88	17532.66
668.07	12207.94
668.25	9531.25
668.44	8046.47
668.63	7427.98
668.81	6746.01
669.00	5932.97
669.19	5633.96
669.38	5007.28
669.56	4540.35
669.75	3895.24
669.94	3459.02
670.12	2783.19
670.31	2494.43
670.50	2238.43
670.68	2058.21
670.87	1880.04
671.06	1853.41
671.24	1812.45
671.43	1855.46
671.62	1804.26
671.80	1769.44
671.99	1705.96
672.18	1785.83
672.36	1789.92
672.55	1705.96
672.74	1724.39
672.92	1755.11
673.11	1773.54
673.29	1673.19
673.48	1839.08
673.67	1654.76
673.85	1812.45
674.04	1669.09
674.23	1783.78
674.41	1791.97
674.60	1640.42
674.79	1746.92
674.97	1730.53
675.16	1732.58
675.34	1798.12
675.53	1705.96
675.72	1755.11
675.90	1824.74
676.09	1726.44
676.28	1755.11
676.46	1574.89
676.65	1699.81
676.83	1761.25
677.02	1744.87
677.21	1685.48
677.39	1740.77
677.58	1644.52
677.77	1681.38
677.95	1665.00
678.14	1703.91
678.32	1726.44
678.51	1615.85
678.70	1832.93
678.88	1728.49
679.07	1808.36
679.25	1738.73
679.44	1722.34
679.63	1667.05
679.81	1708.01
680.00	1791.97
680.18	1783.78
680.37	1806.31
680.55	1724.39
680.74	1642.47
680.93	1587.18
681.11	1730.53
681.30	1736.68
681.48	1757.16
681.67	1689.57
681.85	1736.68
682.04	1675.24
682.23	1746.92
682.41	1757.16
682.60	1693.67
682.78	1699.81
682.97	1701.86
683.15	1720.29
683.34	1691.62
683.53	1816.55
683.71	1644.52
683.90	1843.17
684.08	1857.51
684.27	1728.49
684.45	1759.21
684.64	1783.78
684.82	1695.72
685.01	1740.77
685.19	1712.10
685.38	1783.78
685.57	1732.58
685.75	1644.52
685.94	1671.14
686.12	1693.67
686.31	1718.25
686.49	1804.26
686.68	1597.42
686.86	1722.34
687.05	1671.14
687.23	1796.07
687.42	1748.97
687.60	1638.38
687.79	1742.82
687.97	1847.27
688.16	1849.32
688.34	1765.35
688.53	1632.23
688.71	1789.92
688.90	1808.36
689.08	1738.73
689.27	1693.67
689.45	1806.31
689.64	1771.49
689.82	1669.09
690.01	1783.78
690.19	1779.68
690.38	1671.14
690.56	1779.68
690.75	1636.33
690.93	1734.63
691.12	1695.72
691.30	1695.72
691.49	1693.67
691.67	1746.92
691.86	1841.12
692.04	1701.86
692.23	1603.56
692.41	1734.63
692.60	1789.92
692.78	1789.92
692.97	1695.72
693.15	1746.92
693.34	1804.26
693.52	1785.83
693.71	1753.06
693.89	1683.43
694.08	1599.46
694.26	1806.31
694.44	1769.44
694.63	1806.31
694.81	1665.00
695.00	1652.71
695.18	1791.97
695.37	1882.08
695.55	1726.44
695.74	1660.90
695.92	1650.66
696.10	1806.31
696.29	1632.23
696.47	1783.78
696.66	1722.34
696.84	1597.42
697.03	1722.34
697.21	1845.22
697.40	2281.44
697.58	1751.01
697.76	1740.77
697.95	1800.16
698.13	1669.09
698.32	1650.66
698.50	1767.40
698.68	1701.86
698.87	1763.30
699.05	1789.92
699.24	1619.94
699.42	1634.28
699.61	1689.57
699.79	1757.16
699.97	1738.73
700.16	1648.61
700.34	1669.09
700.53	1638.38
700.71	1847.27
700.89	1828.84
701.08	1621.99
701.26	1761.25
701.45	2076.64
701.63	1671.14
701.81	1695.72
702.00	1613.80
702.18	1695.72
702.37	1687.53
702.55	1738.73
702.73	1722.34
702.92	1699.81
703.10	1789.92
703.28	1697.77
703.47	1693.67
703.65	1763.30
703.84	1746.92
704.02	1693.67
704.20	1826.79
704.39	1648.61
704.57	1703.91
704.75	1744.87
704.94	1765.35
705.12	1763.30
705.30	1859.56
705.49	2260.96
705.67	4489.15
705.86	9230.20
706.04	12369.73
706.22	14251.81
706.41	14972.70
706.59	13664.05
706.77	9453.42
706.96	7372.69
707.14	6365.09
707.32	5869.48
707.51	5513.13
707.69	4929.46
707.87	4186.05
708.06	3456.97
708.24	3006.42
708.42	2402.27
708.61	2199.52
708.79	1927.14
708.97	1832.93
709.16	1800.16
709.34	1834.98
709.52	1726.44
709.71	1708.01
709.89	1738.73
710.07	1687.53
710.26	1611.75
710.44	1742.82
710.62	1771.49
710.80	1740.77
710.99	1746.92
711.17	1871.84
711.35	1689.57
711.54	1796.07
711.72	1816.55
711.90	1775.59
712.09	1734.63
712.27	1673.19
712.45	1757.16
712.63	1656.81
712.82	1675.24
713.00	1716.20
713.18	1710.05
713.37	1781.73
713.55	1728.49
713.73	1791.97
713.91	1726.44
714.10	1673.19
714.28	1708.01
714.46	1802.21
714.65	1677.29
714.83	1779.68
715.01	1662.95
715.19	1636.33
715.38	1730.53
715.56	1757.16
715.74	1710.05
715.92	1703.91
716.11	1806.31
716.29	1632.23
716.47	1753.06
716.65	1673.19
716.84	1603.56
717.02	1849.32
717.20	1529.83
717.38	1732.58
717.57	1816.55
717.75	1701.86
717.93	1724.39
718.11	1759.21
718.30	1632.23
718.48	1689.57
718.66	1744.87
718.84	1779.68
719.03	1677.29
719.21	1648.61
719.39	1865.70
719.57	1708.01
719.75	1738.73
719.94	1638.38
720.12	1679.33
720.30	1689.57
720.48	1708.01
720.67	1748.97
720.85	1701.86
721.03	1716.20
721.21	1689.57
721.39	1708.01
721.58	1675.24
721.76	1763.30
721.94	1837.03
722.12	1718.25
722.30	1822.69
722.49	1699.81
722.67	1769.44
722.85	1765.35
723.03	1683.43
723.21	1636.33
723.40	1687.53
723.58	1746.92
723.76	1738.73
723.94	1771.49
724.12	1771.49
724.30	1777.64
724.49	1767.40
724.67	1732.58
724.85	1746.92
725.03	1660.90
725.21	1761.25
725.40	1789.92
725.58	1708.01
725.76	1757.16
725.94	1769.44
726.12	1665.00
726.30	1767.40
726.49	1705.96
726.67	1699.81
726.85	1654.76
727.03	1789.92
727.21	2213.85
727.39	3008.47
727.57	3835.85
727.76	4243.39
727.94	4390.84
728.12	4366.27
728.30	3624.90
728.48	3000.27
728.66	2811.86
728.84	2594.78
729.03	2326.49
729.21	2189.28
729.39	2000.87
729.57	1791.97
729.75	1802.21
729.93	1834.98
730.11	1812.45
730.30	1667.05
730.48	1720.29
730.66	1773.54
730.84	1773.54
731.02	1710.05
731.20	1763.30
731.38	1718.25
731.56	1638.38
731.74	1677.29
731.93	1812.45
732.11	1728.49
732.29	1662.95
732.47	1843.17
732.65	1726.44
732.83	1896.42
733.01	1744.87
733.19	1742.82
733.37	1683.43
733.56	1763.30
733.74	1673.19
733.92	1828.84
734.10	1751.01
734.28	1701.86
734.46	1599.46
734.64	1730.53
734.82	1681.38
735.00	1685.48
735.18	1697.77
735.36	1742.82
735.54	1722.34
735.73	1773.54
735.91	1716.20
736.09	1839.08
736.27	1656.81
736.45	1699.81
736.63	1636.33
736.81	1708.01
736.99	1787.88
737.17	1824.74
737.35	1718.25
737.53	1708.01
737.71	1685.48
737.89	1892.32
738.07	1630.18
738.25	1673.19
738.43	1589.22
738.61	1685.48
738.80	1665.00
738.98	1656.81
739.16	1677.29
739.34	1660.90
739.52	1751.01
739.70	1693.67
739.88	1748.97
740.06	1802.21
740.24	1699.81
740.42	1730.53
740.60	1644.52
740.78	1613.80
740.96	1615.85
741.14	1716.20
741.32	1708.01
741.50	1615.85
741.68	1830.88
741.86	1804.26
742.04	1687.53
742.22	1630.18
742.40	1783.78
742.58	1732.58
742.76	1648.61
742.94	1777.64
743.12	1660.90
743.30	1710.05
743.48	1808.36
743.66	1685.48
743.84	1757.16
744.02	1681.38
744.20	1740.77
744.38	1621.99
744.56	1644.52
744.74	1818.60
744.92	1767.40
745.10	1826.79
745.28	1781.73
745.46	1814.50
745.64	1701.86
745.82	1755.11
746.00	1662.95
746.18	1732.58
746.36	1673.19
746.54	1734.63
746.72	1722.34
746.90	1665.00
747.08	1746.92
747.26	1714.15
747.44	1728.49
747.62	1767.40
747.80	1665.00
747.98	1703.91
748.15	1740.77
748.33	1800.16
748.51	1662.95
748.69	1744.87
748.87	1660.90
749.05	1730.53
749.23	1718.25
749.41	1761.25
749.59	1714.15
749.77	1796.07
749.95	1675.24
750.13	1658.85
750.31	1783.78
750.49	1669.09
750.67	1761.25
750.85	1826.79
751.03	1798.12
751.20	1884.13
751.38	1708.01
751.56	1660.90
751.74	1722.34
751.92	1691.62
752.10	1689.57
752.28	1789.92
752.46	1621.99
752.64	1757.16
752.82	1697.77
753.00	1773.54
753.18	1673.19
753.35	1667.05
753.53	1720.29
753.71	1699.81
753.89	1746.92
754.07	1695.72
754.25	1746.92
754.43	1787.88
754.61	1648.61
754.79	1636.33
754.97	1732.58
755.14	1800.16
755.32	1648.61
755.50	1767.40
755.68	1736.68
755.86	1673.19
756.04	1671.14
756.22	1595.37
756.40	1804.26
756.57	1748.97
756.75	1708.01
756.93	1730.53
757.11	1769.44
757.29	1691.62
757.47	1652.71
757.65	1650.66
757.82	1624.04
758.00	1632.23
758.18	1640.42
758.36	1650.66
758.54	1716.20
758.72	1712.10
758.90	1791.97
759.07	1824.74
759.25	1658.85
759.43	1718.25
759.61	1697.77
759.79	2181.09
759.97	1804.26
760.15	1726.44
760.32	1660.90
760.50	1775.59
760.68	1843.17
760.86	1693.67
761.04	1779.68
761.22	1789.92
761.39	1755.11
761.57	1761.25
761.75	1691.62
761.93	1777.64
762.11	1755.11
762.28	1718.25
762.46	1644.52
762.64	1804.26
762.82	1652.71
763.00	1675.24
763.18	1775.59
763.35	1583.08
763.53	1705.96
763.71	1701.86
763.89	1720.29
764.07	1732.58
764.24	1689.57
764.42	1687.53
764.60	1667.05
764.78	1681.38
764.96	1787.88
765.13	1785.83
765.31	1726.44
765.49	1757.16
765.67	1665.00
765.84	1701.86
766.02	1640.42
766.20	1628.14
766.38	1734.63
766.56	1697.77
766.73	1740.77
766.91	1769.44
767.09	1615.85
767.27	1681.38
767.44	1689.57
767.62	1734.63
767.80	1673.19
767.98	1675.24
768.15	1765.35
768.33	1845.22
768.51	1765.35
768.69	1753.06
768.87	1783.78
769.04	1755.11
769.22	1869.80
769.40	1794.02
769.58	1902.56
769.75	1734.63
769.93	1767.40
770.11	1701.86
770.28	1646.57
770.46	1771.49
770.64	1800.16
770.82	1728.49
770.99	1710.05
771.17	1734.63
771.35	1650.66
771.53	1712.10
771.70	1712.10
771.88	1671.14
772.06	1740.77
772.23	1746.92
772.41	1685.48
772.59	1695.72
772.77	1636.33
772.94	1693.67
773.12	1665.00
773.30	1665.00
773.47	1759.21
773.65	1714.15
773.83	1845.22
774.01	1673.19
774.18	1597.42
774.36	1810.40
774.54	1712.10
774.71	1710.05
774.89	1609.70
775.07	1660.90
775.24	1656.81
775.42	1679.33
775.60	1771.49
775.78	1705.96
775.95	1648.61
776.13	1669.09
776.31	1564.65
776.48	1726.44
776.66	1789.92
776.84	1744.87
777.01	1701.86
777.19	1650.66
777.37	1642.47
777.54	1751.01
777.72	1888.23
777.90	1761.25
778.07	1654.76
778.25	1873.89
778.43	1785.83
778.60	1697.77
778.78	1755.11
778.96	1732.58
779.13	1705.96
779.31	1818.60
779.49	1742.82
779.66	1808.36
779.84	1730.53
780.01	1705.96
780.19	1658.85
780.37	1794.02
780.54	1722.34
780.72	1662.95
780.90	1777.64
781.07	1665.00
781.25	1712.10
781.43	1808.36
781.60	1720.29
781.78	1742.82
781.95	1779.68
782.13	1720.29
782.31	1691.62
782.48	1665.00
782.66	1673.19
782.83	1751.01
783.01	1691.62
783.19	1755.11
783.36	1728.49
783.54	1656.81
783.72	1796.07
783.89	1648.61
784.07	1714.15
784.24	1794.02
784.42	1808.36
784.60	1658.85
784.77	1691.62
784.95	1595.37
785.12	1677.29
785.30	1753.06
785.47	1619.94
785.65	1617.90
785.83	1636.33
786.00	1738.73
786.18	1730.53
786.35	1566.70
786.53	1654.76
786.71	1783.78
786.88	1753.06
787.06	1744.87
787.23	1777.64
787.41	1652.71
787.58	1765.35
787.76	1644.52
787.94	1740.77
788.11	1716.20
788.29	1669.09
788.46	1667.05
788.64	1677.29
788.81	1673.19
788.99	1660.90
789.16	1595.37
789.34	1732.58
789.52	1740.77
789.69	1685.48
789.87	1626.09
790.04	1724.39
790.22	1697.77
790.39	1867.75
790.57	1685.48
790.74	1609.70
790.92	1794.02
791.09	1730.53
791.27	1734.63
791.44	1751.01
791.62	1722.34
791.79	1703.91
791.97	1724.39
792.15	1839.08
792.32	1701.86
792.50	1710.05
792.67	1837.03
792.85	1791.97
793.02	1705.96
793.20	1652.71
793.37	1675.24
793.55	1716.20
793.72	1710.05
793.90	1638.38
794.07	1601.51
794.25	1730.53
794.42	1708.01
794.60	1665.00
794.77	1738.73
794.95	1787.88
795.12	1798.12
795.30	1685.48
795.47	1654.76
795.65	1945.57
795.82	1726.44
796.00	1679.33
796.17	1693.67
796.34	1687.53
796.52	1712.10
796.69	1734.63
796.87	1714.15
797.04	1722.34
797.22	1748.97
797.39	1738.73
797.57	1701.86
797.74	1683.43
797.92	1730.53
798.09	1734.63
798.27	1771.49
798.44	1716.20
798.62	1673.19
798.79	1697.77
798.96	1679.33
799.14	1689.57
799.31	1845.22
799.49	1611.75
799.66	1699.81
799.84	1736.68
800.01	1646.57
800.19	1738.73
800.36	1636.33
800.53	1714.15
800.71	1683.43
800.88	1779.68
801.06	1693.67
801.23	1708.01
801.41	1654.76
801.58	1632.23
801.75	1691.62
801.93	1673.19
802.10	1777.64
802.28	1714.15
802.45	1734.63
802.63	1681.38
802.80	1832.93
802.97	1681.38
803.15	1671.14
803.32	1697.77
803.50	1701.86
803.67	1626.09
803.84	1626.09
804.02	1775.59
804.19	1673.19
804.37	1560.55
804.54	1658.85
804.71	1662.95
804.89	1689.57
805.06	1634.28
805.24	1589.22
805.41	1705.96
805.58	1695.72
805.76	1816.55
805.93	1738.73
806.10	1798.12
806.28	1730.53
806.45	1738.73
806.63	1773.54
806.80	1624.04
806.97	1744.87
807.15	1683.43
807.32	1652.71
807.49	1644.52
807.67	1669.09
807.84	1773.54
808.01	1638.38
808.19	1787.88
808.36	1804.26
808.54	1685.48
808.71	1650.66
808.88	1773.54
809.06	1705.96
809.23	1820.64
809.40	1650.66
809.58	1751.01
809.75	1753.06
809.92	1669.09
810.10	1873.89
810.27	1728.49
810.44	1863.65
810.62	1748.97
810.79	1773.54
810.96	1683.43
811.14	1656.81
811.31	1730.53
811.48	1726.44
811.66	1728.49
811.83	1693.67
812.00	1787.88
812.18	1738.73
812.35	1863.65
812.52	1775.59
812.69	1689.57
812.87	1728.49
813.04	1730.53
813.21	1720.29
813.39	1624.04
813.56	1658.85
813.73	1681.38
813.91	1615.85
814.08	1722.34
814.25	1732.58
814.42	1621.99
814.60	1662.95
814.77	1708.01
814.94	1705.96
815.12	1753.06
815.29	1751.01
815.46	1685.48
815.63	1765.35
815.81	1691.62
815.98	1724.39
816.15	1738.73
816.33	1738.73
816.50	1619.94
816.67	1665.00
816.84	1742.82
817.02	1660.90
817.19	1748.97
817.36	1701.86
817.53	1734.63
817.71	1675.24
817.88	1691.62
818.05	1681.38
818.22	1708.01
818.40	1755.11
818.57	1726.44
818.74	1751.01
818.91	1652.71
819.09	1757.16
819.26	1777.64
819.43	1671.14
819.60	1767.40
819.78	1812.45
819.95	1773.54
820.12	1648.61
820.29	1839.08
820.47	1763.30
820.64	1712.10
820.81	1621.99
820.98	1681.38
821.15	1693.67
821.33	1712.10
821.50	1562.60
821.67	1753.06
821.84	1658.85
822.02	1728.49
822.19	1751.01
822.36	1636.33
822.53	1740.77
822.70	1619.94
822.88	1652.71
823.05	1789.92
823.22	1726.44
823.39	1759.21
823.56	1757.16
823.74	1767.40
823.91	1705.96
824.08	1583.08
824.25	1683.43
824.42	1830.88
824.60	1570.79
824.77	1730.53
824.94	1685.48
825.11	1806.31
825.28	1689.57
825.45	1724.39
825.63	1730.53
825.80	1671.14
825.97	1720.29
826.14	1730.53
826.31	1660.90
826.48	1726.44
826.66	1656.81
826.83	1728.49
827.00	1722.34
827.17	1646.57
827.34	1691.62
827.51	1619.94
827.69	1722.34
827.86	1675.24
828.03	1695.72
828.20	1724.39
828.37	1701.86
828.54	1773.54
828.71	1683.43
828.89	1820.64
829.06	1744.87
829.23	1796.07
829.40	1611.75
829.57	1658.85
829.74	1759.21
829.91	1683.43
830.09	1574.89
830.26	1693.67
830.43	1787.88
830.60	1681.38
830.77	1759.21
830.94	1810.40
831.11	1748.97
831.28	1757.16
831.46	1808.36
831.63	1681.38
831.80	1716.20
831.97	1658.85
832.14	1693.67
832.31	1783.78
832.48	1726.44
832.65	1785.83
832.82	1701.86
832.99	1763.30
833.17	1701.86
833.34	1853.41
833.51	1769.44
833.68	1621.99
833.85	1716.20
834.02	1642.47
834.19	1611.75
834.36	1634.28
834.53	1714.15
834.70	1689.57
834.87	1767.40
835.04	1794.02
835.22	1638.38
835.39	1732.58
835.56	1669.09
835.73	1658.85
835.90	1728.49
836.07	1652.71
836.24	1730.53
836.41	1710.05
836.58	1703.91
836.75	1814.50
836.92	1681.38
837.09	1642.47
837.26	1738.73
837.43	1714.15
837.60	1736.68
837.77	1683.43
837.94	1787.88
838.12	1794.02
838.29	1871.84
838.46	1665.00
838.63	1626.09
838.80	1728.49
838.97	1738.73
839.14	1724.39
839.31	1765.35
839.48	1701.86
839.65	1697.77
839.82	1740.77
839.99	1767.40
840.16	1689.57
840.33	1685.48
840.50	1681.38
840.67	1632.23
840.84	1615.85
841.01	1675.24
841.18	1724.39
841.35	1636.33
841.52	1779.68
841.69	1857.51
841.86	1687.53
842.03	1710.05
842.20	1726.44
842.37	1701.86
842.54	1677.29
842.71	1748.97
842.88	1609.70
843.05	1804.26
843.22	1660.90
843.39	1726.44
843.56	1644.52
843.73	1697.77
843.90	1773.54
844.07	1732.58
844.24	1812.45
844.41	1744.87
844.58	1722.34
844.75	1705.96
844.92	1689.57
845.09	1724.39
845.26	1767.40
845.43	1773.54
845.60	1693.67
845.77	1728.49
845.94	1652.71
846.10	1730.53
846.27	1638.38
846.44	1699.81
846.61	1691.62
846.78	1675.24
846.95	1744.87
847.12	1677.29
847.29	1796.07
847.46	1665.00
847.63	1669.09
847.80	1687.53
847.97	1681.38
848.14	1906.66
848.31	1697.77
848.48	1546.22
848.65	1806.31
848.82	1734.63
848.98	1794.02
849.15	1779.68
849.32	1759.21
849.49	1751.01
849.66	1701.86
849.83	1703.91
850.00	1652.71
850.17	1701.86
850.34	1671.14
850.51	1630.18
850.68	1732.58
850.85	1857.51
851.01	1624.04
851.18	1685.48
851.35	1646.57
851.52	1703.91
851.69	1740.77
851.86	1658.85
852.03	1744.87
852.20	1730.53
852.37	1826.79
852.53	1648.61
852.70	1738.73
852.87	1773.54
853.04	1746.92
853.21	1714.15
853.38	1767.40
853.55	1800.16
853.72	1822.69
853.89	1683.43
854.05	1667.05
854.22	1677.29
854.39	1685.48
854.56	1822.69
854.73	1779.68
854.90	1619.94
855.07	1683.43
855.23	1708.01
855.40	1724.39
855.57	1708.01
855.74	1617.90
855.91	1920.99
856.08	1585.13
856.25	1632.23
856.41	1728.49
856.58	1716.20
856.75	1687.53
856.92	1738.73
857.09	1710.05
857.26	1611.75
857.42	1705.96
857.59	1765.35
857.76	1658.85
857.93	1679.33
858.10	1724.39
858.27	1607.66
858.43	1722.34
858.60	1669.09
858.77	1693.67
858.94	1681.38
859.11	1730.53
859.27	1730.53
859.44	1728.49
859.61	1890.28
859.78	1656.81
859.95	1679.33
860.12	1669.09
860.28	1822.69
860.45	1830.88
860.62	1712.10
860.79	1791.97
860.95	1697.77
861.12	1746.92
861.29	1673.19
861.46	1708.01
861.63	1691.62
861.79	1757.16
861.96	1687.53
862.13	1679.33
862.30	1716.20
862.47	1714.15
862.63	1626.09
862.80	1814.50
862.97	1703.91
863.14	1695.72
863.30	1777.64
863.47	1675.24
863.64	1839.08
863.81	1775.59
863.97	1687.53
864.14	1710.05
864.31	1755.11
864.48	1695.72
864.65	1669.09
864.81	1777.64
864.98	1755.11
865.15	1751.01
865.32	1796.07
865.48	1730.53
865.65	1800.16
865.82	1675.24
865.98	1730.53
866.15	1720.29
866.32	1687.53
866.49	1753.06
866.65	1746.92
866.82	1681.38
866.99	1693.67
867.16	1697.77
867.32	1626.09
867.49	1718.25
867.66	1665.00
867.83	1730.53
867.99	1638.38
868.16	1697.77
868.33	1665.00
868.49	1675.24
868.66	1697.77
868.83	1765.35
868.99	1675.24
869.16	1730.53
869.33	1820.64
869.50	1800.16
869.66	1695.72
869.83	1751.01
870.00	1705.96
870.16	1744.87
870.33	1675.24
870.50	1775.59
870.66	1695.72
870.83	1796.07
871.00	1667.05
871.17	1705.96
871.33	1771.49
871.50	1755.11
871.67	1665.00
871.83	1736.68
872.00	1820.64
872.17	1626.09
872.33	1775.59
872.50	1773.54
872.67	1634.28
872.83	1693.67
873.00	1781.73
873.17	1699.81
873.33	1761.25
873.50	1771.49
873.67	1734.63
873.83	1673.19
874.00	1675.24
874.16	1804.26
874.33	1718.25
874.50	1624.04
874.66	1718.25
874.83	1703.91
875.00	1761.25
875.16	1732.58
875.33	1791.97
875.50	1591.27
875.66	1695.72
875.83	1777.64
875.99	1740.77
876.16	1730.53
876.33	1722.34
876.49	1718.25
876.66	1748.97
876.83	1667.05
876.99	1656.81
877.16	1765.35
877.32	1748.97
877.49	1683.43
877.66	1679.33
877.82	1843.17
877.99	1765.35
878.15	1783.78
878.32	1724.39
878.49	1751.01
878.65	1652.71
878.82	1800.16
878.98	1759.21
879.15	1742.82
879.32	1755.11
879.48	1701.86
879.65	1679.33
879.81	1644.52
879.98	1638.38
880.15	1728.49
880.31	1660.90
880.48	1609.70
880.64	1703.91
880.81	1763.30
880.97	1789.92
881.14	1765.35
881.31	1761.25
881.47	1861.60
881.64	1667.05
881.80	1624.04
881.97	1767.40
882.13	1777.64
882.30	1636.33
882.47	1648.61
882.63	1669.09
882.80	1605.61
882.96	1710.05
883.13	1800.16
883.29	1662.95
883.46	1722.34
883.62	1765.35
883.79	1699.81
883.95	1714.15
884.12	1718.25
884.29	1775.59
884.45	1720.29
884.62	1763.30
884.78	1687.53
884.95	1757.16
885.11	1714.15
885.28	1775.59
885.44	1687.53
885.61	1779.68
885.77	1785.83
885.94	1781.73
886.10	1728.49
886.27	1818.60
886.43	1746.92
886.60	1812.45
886.76	1650.66
886.93	1712.10
887.09	1689.57
887.26	1593.32
887.42	1648.61
887.59	1779.68
887.75	1824.74
887.92	1791.97
888.08	1806.31
888.25	1744.87
888.41	1728.49
888.58	1742.82
888.74	1689.57
888.91	1718.25
>>>>>End Processed Spectral Data<<<<<
