SpectraSuite Data File
++++++++++++++++++++++++++++++++++++
Date: Mon Jun 06 16:19:57 CEST 2016
User: root
Dark Spectrum Present: No
Reference Spectrum Present: No
Number of Sampled Component Spectra: 1
Spectrometers: USB4C02835
Integration Time (usec): 100000 (USB4C02835)
Spectra Averaged: 1 (USB4C02835)
Boxcar Smoothing: 0 (USB4C02835)
Correct for Electrical Dark: No (USB4C02835)
Strobe/Lamp Enabled: No (USB4C02835)
Correct for Detector Non-linearity: No (USB4C02835)
Correct for Stray Light: No (USB4C02835)
Number of Pixels in Processed Spectrum: 3648
>>>>>Begin Processed Spectral Data<<<<<
177.47	1476.59
177.69	1476.59
177.91	1476.59
178.13	1533.93
178.36	1445.87
178.58	1683.43
178.80	1740.77
179.02	1597.42
179.24	1656.81
179.46	1730.53
179.68	1796.07
179.90	1665.00
180.13	1738.73
180.35	1650.66
180.57	1724.39
180.79	1683.43
181.01	1802.21
181.23	1816.55
181.45	1814.50
181.67	1751.01
181.90	1775.59
182.12	1617.90
182.34	1665.00
182.56	1705.96
182.78	1662.95
183.00	1708.01
183.22	1806.31
183.44	1601.51
183.66	1890.28
183.89	1767.40
184.11	1699.81
184.33	1705.96
184.55	1734.63
184.77	1732.58
184.99	1744.87
185.21	1644.52
185.43	1853.41
185.65	1658.85
185.87	1701.86
186.10	1873.89
186.32	1886.18
186.54	1660.90
186.76	1673.19
186.98	1800.16
187.20	1701.86
187.42	1703.91
187.64	1781.73
187.86	1679.33
188.08	1720.29
188.30	1728.49
188.52	1689.57
188.75	1781.73
188.97	1802.21
189.19	1654.76
189.41	1660.90
189.63	1716.20
189.85	1705.96
190.07	1626.09
190.29	1591.27
190.51	1742.82
190.73	1675.24
190.95	1763.30
191.17	1765.35
191.39	1605.61
191.61	1697.77
191.84	1681.38
192.06	1748.97
192.28	1621.99
192.50	1861.60
192.72	1726.44
192.94	1751.01
193.16	1710.05
193.38	1746.92
193.60	1669.09
193.82	1687.53
194.04	1787.88
194.26	1697.77
194.48	1644.52
194.70	1636.33
194.92	1695.72
195.14	1703.91
195.36	1624.04
195.58	1785.83
195.80	1734.63
196.02	1714.15
196.24	1705.96
196.46	1742.82
196.69	1640.42
196.91	1818.60
197.13	1662.95
197.35	1748.97
197.57	1814.50
197.79	1740.77
198.01	1732.58
198.23	1740.77
198.45	1724.39
198.67	1581.03
198.89	1722.34
199.11	1767.40
199.33	1642.47
199.55	1558.50
199.77	1642.47
199.99	1787.88
200.21	1667.05
200.43	1748.97
200.65	1656.81
200.87	1619.94
201.09	1718.25
201.31	1656.81
201.53	1796.07
201.75	1669.09
201.97	1751.01
202.19	1765.35
202.41	1761.25
202.63	1859.56
202.85	1746.92
203.07	1755.11
203.29	1718.25
203.51	1671.14
203.73	1683.43
203.95	1849.32
204.17	1697.77
204.39	1724.39
204.61	1660.90
204.83	1701.86
205.05	1726.44
205.27	1771.49
205.49	1849.32
205.71	1683.43
205.93	1619.94
206.15	1703.91
206.37	1683.43
206.59	1710.05
206.81	1611.75
207.03	1570.79
207.25	1683.43
207.47	1710.05
207.69	1650.66
207.91	1775.59
208.13	1841.12
208.34	1685.48
208.56	1708.01
208.78	1720.29
209.00	1728.49
209.22	1621.99
209.44	1734.63
209.66	1624.04
209.88	1744.87
210.10	1628.14
210.32	1720.29
210.54	1822.69
210.76	1705.96
210.98	1828.84
211.20	1599.46
211.42	1681.38
211.64	1863.65
211.86	1732.58
212.08	1767.40
212.30	1744.87
212.52	1697.77
212.74	1771.49
212.96	1748.97
213.17	1785.83
213.39	1736.68
213.61	1824.74
213.83	1798.12
214.05	1740.77
214.27	1806.31
214.49	1705.96
214.71	1724.39
214.93	1849.32
215.15	1701.86
215.37	1720.29
215.59	1591.27
215.81	1775.59
216.03	1814.50
216.24	1683.43
216.46	1732.58
216.68	1683.43
216.90	1718.25
217.12	1777.64
217.34	1716.20
217.56	1708.01
217.78	1710.05
218.00	1759.21
218.22	1703.91
218.44	1759.21
218.66	1755.11
218.87	1820.64
219.09	1611.75
219.31	1728.49
219.53	1730.53
219.75	1714.15
219.97	1697.77
220.19	1640.42
220.41	1599.46
220.63	1753.06
220.85	1738.73
221.06	1669.09
221.28	1740.77
221.50	1708.01
221.72	1751.01
221.94	1708.01
222.16	1716.20
222.38	1742.82
222.60	1767.40
222.82	1673.19
223.03	1730.53
223.25	1658.85
223.47	1855.46
223.69	1857.51
223.91	1746.92
224.13	1697.77
224.35	1714.15
224.57	1708.01
224.78	1855.46
225.00	1642.47
225.22	1730.53
225.44	1710.05
225.66	1689.57
225.88	1718.25
226.10	1791.97
226.32	1791.97
226.53	1812.45
226.75	1681.38
226.97	1767.40
227.19	1705.96
227.41	1728.49
227.63	1660.90
227.85	1652.71
228.06	1765.35
228.28	1687.53
228.50	1785.83
228.72	1665.00
228.94	1671.14
229.16	1556.46
229.37	1695.72
229.59	1703.91
229.81	1767.40
230.03	1687.53
230.25	1587.18
230.47	1638.38
230.69	1605.61
230.90	1685.48
231.12	1673.19
231.34	1689.57
231.56	1771.49
231.78	1619.94
232.00	1763.30
232.21	1632.23
232.43	1673.19
232.65	1595.37
232.87	1740.77
233.09	1660.90
233.30	1624.04
233.52	1746.92
233.74	1701.86
233.96	1693.67
234.18	1857.51
234.40	1669.09
234.61	1853.41
234.83	1691.62
235.05	1687.53
235.27	1802.21
235.49	1773.54
235.70	1703.91
235.92	1798.12
236.14	1771.49
236.36	1869.80
236.58	1740.77
236.79	1798.12
237.01	1710.05
237.23	1734.63
237.45	1814.50
237.67	1718.25
237.88	1763.30
238.10	1830.88
238.32	1687.53
238.54	1712.10
238.76	1667.05
238.97	1681.38
239.19	1634.28
239.41	1769.44
239.63	1773.54
239.85	1708.01
240.06	1718.25
240.28	1691.62
240.50	1720.29
240.72	1726.44
240.93	1730.53
241.15	1775.59
241.37	1685.48
241.59	1794.02
241.81	1669.09
242.02	1669.09
242.24	1746.92
242.46	1730.53
242.68	1734.63
242.89	1777.64
243.11	1808.36
243.33	1746.92
243.55	1767.40
243.76	1683.43
243.98	1654.76
244.20	1796.07
244.42	1744.87
244.64	1703.91
244.85	1660.90
245.07	1654.76
245.29	1728.49
245.51	1712.10
245.72	1738.73
245.94	1800.16
246.16	1755.11
246.38	1773.54
246.59	1621.99
246.81	1744.87
247.03	1681.38
247.24	1613.80
247.46	1642.47
247.68	1665.00
247.90	1669.09
248.11	1638.38
248.33	1796.07
248.55	1730.53
248.77	1785.83
248.98	1820.64
249.20	1849.32
249.42	1738.73
249.64	1742.82
249.85	1705.96
250.07	1771.49
250.29	1800.16
250.50	1828.84
250.72	1640.42
250.94	1759.21
251.16	1810.40
251.37	1773.54
251.59	1765.35
251.81	1751.01
252.02	1796.07
252.24	1658.85
252.46	1783.78
252.68	1681.38
252.89	1697.77
253.11	1628.14
253.33	1845.22
253.54	1759.21
253.76	1583.08
253.98	1712.10
254.20	1705.96
254.41	1634.28
254.63	1722.34
254.85	1658.85
255.06	1691.62
255.28	1773.54
255.50	1660.90
255.71	1716.20
255.93	1667.05
256.15	1693.67
256.36	1773.54
256.58	1576.94
256.80	1767.40
257.02	1738.73
257.23	1681.38
257.45	1755.11
257.67	1734.63
257.88	1667.05
258.10	1736.68
258.32	1779.68
258.53	1730.53
258.75	1861.60
258.97	1703.91
259.18	1716.20
259.40	1714.15
259.62	1806.31
259.83	1791.97
260.05	1728.49
260.27	1951.71
260.48	1751.01
260.70	1640.42
260.92	1665.00
261.13	1783.78
261.35	1683.43
261.57	1753.06
261.78	1587.18
262.00	1644.52
262.22	1771.49
262.43	1626.09
262.65	1638.38
262.86	1677.29
263.08	1841.12
263.30	1734.63
263.51	1646.57
263.73	1730.53
263.95	1718.25
264.16	1681.38
264.38	1634.28
264.60	1812.45
264.81	1705.96
265.03	1843.17
265.25	1771.49
265.46	1681.38
265.68	1855.46
265.89	1673.19
266.11	1640.42
266.33	1701.86
266.54	1732.58
266.76	1847.27
266.98	1787.88
267.19	1765.35
267.41	1724.39
267.62	1728.49
267.84	1621.99
268.06	1775.59
268.27	1736.68
268.49	1693.67
268.70	1679.33
268.92	1714.15
269.14	1656.81
269.35	1658.85
269.57	1687.53
269.79	1781.73
270.00	1617.90
270.22	1802.21
270.43	1656.81
270.65	1626.09
270.87	1742.82
271.08	1730.53
271.30	1753.06
271.51	1697.77
271.73	1779.68
271.95	1814.50
272.16	1695.72
272.38	1712.10
272.59	1669.09
272.81	1722.34
273.02	1687.53
273.24	1728.49
273.46	1708.01
273.67	1640.42
273.89	1767.40
274.10	1699.81
274.32	1753.06
274.54	1746.92
274.75	1794.02
274.97	1646.57
275.18	1775.59
275.40	1693.67
275.61	1740.77
275.83	1769.44
276.05	1624.04
276.26	1701.86
276.48	1765.35
276.69	1701.86
276.91	1701.86
277.12	1757.16
277.34	1822.69
277.55	1712.10
277.77	1722.34
277.99	1642.47
278.20	1662.95
278.42	1697.77
278.63	1708.01
278.85	1689.57
279.06	1652.71
279.28	1689.57
279.49	1742.82
279.71	1763.30
279.93	1746.92
280.14	1714.15
280.36	1687.53
280.57	1773.54
280.79	1746.92
281.00	1632.23
281.22	1687.53
281.43	1791.97
281.65	1611.75
281.86	1638.38
282.08	1734.63
282.29	1826.79
282.51	1695.72
282.73	1591.27
282.94	1624.04
283.16	1757.16
283.37	1812.45
283.59	1644.52
283.80	1816.55
284.02	1689.57
284.23	1730.53
284.45	1687.53
284.66	1611.75
284.88	1628.14
285.09	1660.90
285.31	1691.62
285.52	1697.77
285.74	1626.09
285.95	1748.97
286.17	1748.97
286.38	1708.01
286.60	1660.90
286.81	1671.14
287.03	1726.44
287.24	1708.01
287.46	1689.57
287.67	1712.10
287.89	1853.41
288.10	1687.53
288.32	1730.53
288.53	1724.39
288.75	1714.15
288.96	1714.15
289.18	1730.53
289.39	1681.38
289.61	1763.30
289.82	1796.07
290.04	1822.69
290.25	1669.09
290.47	1734.63
290.68	1679.33
290.90	1853.41
291.11	1669.09
291.33	1744.87
291.54	1611.75
291.76	1665.00
291.97	1734.63
292.18	1769.44
292.40	1609.70
292.61	1634.28
292.83	1880.04
293.04	1802.21
293.26	1650.66
293.47	1683.43
293.69	1662.95
293.90	1751.01
294.12	1730.53
294.33	1677.29
294.55	1665.00
294.76	1720.29
294.97	1767.40
295.19	1802.21
295.40	1665.00
295.62	1779.68
295.83	1730.53
296.05	1705.96
296.26	1736.68
296.48	1601.51
296.69	1679.33
296.90	1667.05
297.12	1796.07
297.33	1802.21
297.55	1667.05
297.76	1740.77
297.98	1869.80
298.19	1763.30
298.41	1675.24
298.62	1699.81
298.83	1837.03
299.05	1767.40
299.26	1669.09
299.48	1730.53
299.69	1705.96
299.90	1652.71
300.12	1669.09
300.33	1744.87
300.55	1699.81
300.76	1787.88
300.98	1673.19
301.19	1722.34
301.40	1677.29
301.62	1660.90
301.83	1787.88
302.05	1734.63
302.26	1755.11
302.47	1689.57
302.69	1646.57
302.90	1736.68
303.12	1691.62
303.33	1765.35
303.54	1785.83
303.76	1701.86
303.97	1767.40
304.19	1775.59
304.40	1652.71
304.61	1683.43
304.83	1865.70
305.04	1814.50
305.26	1677.29
305.47	1685.48
305.68	1685.48
305.90	1677.29
306.11	1791.97
306.33	1654.76
306.54	1726.44
306.75	1759.21
306.97	1624.04
307.18	1693.67
307.39	1667.05
307.61	1765.35
307.82	1710.05
308.04	1802.21
308.25	1675.24
308.46	1746.92
308.68	1673.19
308.89	1685.48
309.10	1751.01
309.32	1775.59
309.53	1654.76
309.74	1695.72
309.96	1687.53
310.17	1789.92
310.39	1652.71
310.60	1728.49
310.81	1679.33
311.03	1710.05
311.24	1699.81
311.45	1708.01
311.67	1867.75
311.88	1681.38
312.09	1742.82
312.31	1646.57
312.52	1718.25
312.73	1673.19
312.95	1558.50
313.16	1677.29
313.37	1877.99
313.59	1720.29
313.80	1759.21
314.01	1841.12
314.23	1656.81
314.44	1701.86
314.65	1703.91
314.87	1642.47
315.08	1703.91
315.29	1742.82
315.51	1587.18
315.72	1689.57
315.93	1847.27
316.15	1800.16
316.36	1679.33
316.57	1677.29
316.79	1785.83
317.00	1701.86
317.21	1716.20
317.43	1685.48
317.64	1716.20
317.85	1685.48
318.07	1644.52
318.28	1632.23
318.49	1867.75
318.70	1978.34
318.92	1806.31
319.13	1896.42
319.34	1908.71
319.56	1855.46
319.77	1789.92
319.98	1796.07
320.20	1761.25
320.41	1730.53
320.62	1660.90
320.83	1677.29
321.05	1861.60
321.26	1714.15
321.47	1746.92
321.69	1771.49
321.90	1648.61
322.11	1677.29
322.32	1791.97
322.54	1816.55
322.75	1679.33
322.96	1804.26
323.18	1708.01
323.39	1603.56
323.60	1660.90
323.81	1687.53
324.03	1685.48
324.24	1701.86
324.45	1718.25
324.66	1662.95
324.88	1736.68
325.09	1746.92
325.30	1712.10
325.52	1724.39
325.73	1730.53
325.94	1595.37
326.15	1593.32
326.37	1701.86
326.58	1839.08
326.79	1781.73
327.00	1624.04
327.22	1675.24
327.43	1699.81
327.64	1714.15
327.85	1693.67
328.07	1755.11
328.28	1744.87
328.49	1675.24
328.70	1630.18
328.92	1742.82
329.13	1769.44
329.34	1738.73
329.55	1847.27
329.76	1787.88
329.98	1728.49
330.19	1796.07
330.40	1767.40
330.61	1775.59
330.83	1773.54
331.04	1701.86
331.25	1667.05
331.46	1691.62
331.68	1628.14
331.89	1753.06
332.10	1761.25
332.31	1662.95
332.52	1683.43
332.74	1806.31
332.95	1646.57
333.16	1660.90
333.37	1710.05
333.58	1726.44
333.80	1691.62
334.01	1722.34
334.22	1736.68
334.43	1705.96
334.64	1779.68
334.86	1619.94
335.07	1708.01
335.28	1820.64
335.49	1689.57
335.70	1740.77
335.92	1734.63
336.13	1800.16
336.34	1740.77
336.55	1738.73
336.76	1679.33
336.98	1630.18
337.19	1730.53
337.40	1705.96
337.61	1884.13
337.82	1699.81
338.04	1746.92
338.25	1652.71
338.46	1718.25
338.67	1718.25
338.88	1632.23
339.09	1589.22
339.31	1656.81
339.52	1667.05
339.73	1656.81
339.94	1699.81
340.15	1712.10
340.36	1708.01
340.58	1652.71
340.79	1642.47
341.00	1714.15
341.21	1632.23
341.42	1746.92
341.63	1730.53
341.85	1834.98
342.06	1728.49
342.27	1687.53
342.48	1869.80
342.69	1626.09
342.90	1748.97
343.12	1771.49
343.33	1722.34
343.54	1736.68
343.75	1824.74
343.96	1722.34
344.17	1683.43
344.38	1703.91
344.60	1669.09
344.81	1689.57
345.02	1771.49
345.23	1822.69
345.44	1873.89
345.65	1710.05
345.86	1740.77
346.07	1730.53
346.29	1660.90
346.50	1806.31
346.71	1714.15
346.92	1781.73
347.13	1857.51
347.34	1705.96
347.55	1695.72
347.76	1746.92
347.98	1601.51
348.19	1689.57
348.40	1824.74
348.61	1730.53
348.82	1734.63
349.03	1738.73
349.24	1642.47
349.45	1744.87
349.66	1613.80
349.88	1699.81
350.09	1697.77
350.30	1730.53
350.51	1873.89
350.72	1794.02
350.93	1687.53
351.14	1705.96
351.35	1765.35
351.56	1669.09
351.77	1681.38
351.99	1746.92
352.20	1804.26
352.41	1843.17
352.62	1644.52
352.83	1644.52
353.04	1738.73
353.25	1693.67
353.46	1708.01
353.67	1816.55
353.88	1570.79
354.09	1722.34
354.30	1746.92
354.52	1753.06
354.73	1724.39
354.94	1720.29
355.15	1722.34
355.36	1822.69
355.57	1675.24
355.78	1701.86
355.99	1673.19
356.20	1740.77
356.41	1800.16
356.62	1728.49
356.83	1722.34
357.04	1763.30
357.25	1660.90
357.46	1665.00
357.68	1601.51
357.89	1640.42
358.10	1714.15
358.31	1685.48
358.52	1687.53
358.73	1677.29
358.94	1689.57
359.15	1728.49
359.36	1798.12
359.57	1767.40
359.78	1677.29
359.99	1695.72
360.20	1628.14
360.41	1775.59
360.62	1734.63
360.83	1740.77
361.04	1751.01
361.25	1748.97
361.46	1855.46
361.67	1757.16
361.88	1763.30
362.09	1783.78
362.30	1732.58
362.51	1611.75
362.72	1693.67
362.93	1710.05
363.14	1839.08
363.35	1779.68
363.56	1669.09
363.78	1779.68
363.99	1822.69
364.20	1683.43
364.41	1789.92
364.62	1832.93
364.83	1675.24
365.04	1742.82
365.25	1734.63
365.46	1771.49
365.67	1730.53
365.88	1699.81
366.09	1667.05
366.30	1685.48
366.51	1722.34
366.72	1595.37
366.93	1761.25
367.14	1705.96
367.35	1779.68
367.56	1685.48
367.77	1816.55
367.98	1710.05
368.18	1761.25
368.39	1740.77
368.60	1648.61
368.81	1728.49
369.02	1742.82
369.23	1677.29
369.44	1572.84
369.65	1703.91
369.86	1705.96
370.07	1857.51
370.28	1697.77
370.49	1767.40
370.70	1767.40
370.91	1644.52
371.12	1675.24
371.33	1761.25
371.54	1634.28
371.75	1734.63
371.96	1615.85
372.17	1662.95
372.38	1724.39
372.59	1785.83
372.80	1675.24
373.01	1667.05
373.22	1734.63
373.43	1703.91
373.64	1665.00
373.85	1763.30
374.06	1804.26
374.26	1761.25
374.47	1853.41
374.68	1816.55
374.89	1640.42
375.10	1675.24
375.31	1726.44
375.52	1808.36
375.73	1763.30
375.94	1650.66
376.15	1816.55
376.36	1701.86
376.57	1712.10
376.78	1765.35
376.99	1736.68
377.20	1769.44
377.40	1667.05
377.61	1884.13
377.82	1703.91
378.03	1775.59
378.24	1730.53
378.45	1761.25
378.66	1787.88
378.87	1562.60
379.08	1667.05
379.29	1757.16
379.50	1787.88
379.71	1665.00
379.91	1828.84
380.12	1681.38
380.33	1830.88
380.54	1701.86
380.75	1691.62
380.96	1771.49
381.17	1755.11
381.38	1738.73
381.59	1787.88
381.80	1720.29
382.00	1894.37
382.21	1738.73
382.42	1818.60
382.63	1900.52
382.84	1789.92
383.05	1714.15
383.26	1880.04
383.47	1820.64
383.68	1734.63
383.88	1728.49
384.09	1771.49
384.30	1810.40
384.51	1591.27
384.72	1718.25
384.93	1593.32
385.14	1781.73
385.35	1794.02
385.55	1691.62
385.76	1769.44
385.97	1724.39
386.18	1648.61
386.39	1652.71
386.60	1757.16
386.81	1671.14
387.02	1615.85
387.22	1689.57
387.43	1822.69
387.64	1769.44
387.85	1869.80
388.06	2172.89
388.27	4171.71
388.48	6819.74
388.68	8073.09
388.89	9557.87
389.10	9934.70
389.31	8456.06
389.52	7602.06
389.73	6799.26
389.93	6123.43
390.14	5883.81
390.35	5220.27
390.56	4573.11
390.77	3776.45
390.98	2990.03
391.18	2475.99
391.39	2162.66
391.60	1802.21
391.81	1798.12
392.02	1716.20
392.23	1843.17
392.43	1751.01
392.64	1873.89
392.85	1730.53
393.06	1814.50
393.27	1716.20
393.47	1687.53
393.68	1740.77
393.89	1785.83
394.10	1751.01
394.31	1652.71
394.52	1773.54
394.72	1730.53
394.93	1755.11
395.14	1695.72
395.35	1681.38
395.56	1628.14
395.76	1816.55
395.97	1802.21
396.18	1855.46
396.39	1769.44
396.60	2021.35
396.80	1884.13
397.01	1832.93
397.22	1814.50
397.43	1822.69
397.64	1728.49
397.84	1800.16
398.05	1828.84
398.26	1697.77
398.47	1818.60
398.67	1705.96
398.88	1769.44
399.09	1734.63
399.30	1716.20
399.51	1728.49
399.71	1646.57
399.92	1734.63
400.13	1767.40
400.34	1677.29
400.54	1757.16
400.75	1828.84
400.96	1767.40
401.17	1757.16
401.37	1708.01
401.58	1742.82
401.79	1726.44
402.00	1937.38
402.21	2045.92
402.41	1978.34
402.62	2000.87
402.83	2115.55
403.04	2035.68
403.24	2140.13
403.45	1880.04
403.66	1972.19
403.87	1906.66
404.07	1920.99
404.28	1890.28
404.49	1935.33
404.70	1794.02
404.90	1763.30
405.11	1779.68
405.32	1734.63
405.52	1708.01
405.73	1691.62
405.94	1591.27
406.15	1736.68
406.35	1773.54
406.56	1818.60
406.77	1740.77
406.98	1779.68
407.18	1648.61
407.39	1767.40
407.60	1681.38
407.80	1761.25
408.01	1632.23
408.22	1716.20
408.43	1650.66
408.63	1796.07
408.84	1771.49
409.05	1773.54
409.25	1681.38
409.46	1665.00
409.67	1763.30
409.88	1699.81
410.08	1718.25
410.29	1619.94
410.50	1744.87
410.70	1742.82
410.91	1630.18
411.12	1699.81
411.32	1746.92
411.53	1726.44
411.74	1789.92
411.95	1796.07
412.15	1765.35
412.36	1828.84
412.57	1746.92
412.77	1804.26
412.98	1693.67
413.19	1697.77
413.39	1781.73
413.60	1742.82
413.81	1818.60
414.01	1640.42
414.22	1832.93
414.43	1722.34
414.63	1691.62
414.84	1810.40
415.05	1681.38
415.25	1617.90
415.46	1824.74
415.67	1662.95
415.87	1716.20
416.08	1755.11
416.29	1708.01
416.49	1744.87
416.70	1705.96
416.91	1757.16
417.11	1714.15
417.32	1857.51
417.53	1847.27
417.73	1837.03
417.94	1681.38
418.15	1726.44
418.35	1771.49
418.56	1726.44
418.77	1865.70
418.97	1667.05
419.18	1781.73
419.38	1607.66
419.59	1665.00
419.80	1839.08
420.00	1703.91
420.21	1714.15
420.42	1898.47
420.62	1808.36
420.83	1671.14
421.04	1738.73
421.24	1714.15
421.45	1812.45
421.65	1742.82
421.86	1730.53
422.07	1757.16
422.27	1722.34
422.48	1794.02
422.69	1656.81
422.89	1710.05
423.10	1736.68
423.30	1695.72
423.51	1640.42
423.72	1693.67
423.92	1718.25
424.13	1675.24
424.33	1736.68
424.54	1816.55
424.75	1714.15
424.95	1779.68
425.16	1722.34
425.36	1738.73
425.57	1828.84
425.78	1794.02
425.98	1785.83
426.19	1705.96
426.39	1738.73
426.60	1783.78
426.81	1843.17
427.01	1660.90
427.22	1648.61
427.42	1646.57
427.63	1652.71
427.83	1714.15
428.04	1800.16
428.25	1738.73
428.45	1796.07
428.66	1767.40
428.86	1683.43
429.07	1640.42
429.28	1697.77
429.48	1720.29
429.69	1675.24
429.89	1742.82
430.10	1619.94
430.30	1718.25
430.51	1847.27
430.71	1619.94
430.92	1705.96
431.13	1697.77
431.33	1712.10
431.54	1660.90
431.74	1794.02
431.95	1880.04
432.15	1650.66
432.36	1708.01
432.56	1779.68
432.77	1847.27
432.98	1771.49
433.18	1763.30
433.39	1640.42
433.59	1755.11
433.80	1814.50
434.00	1920.99
434.21	1683.43
434.41	1685.48
434.62	1894.37
434.82	1675.24
435.03	1671.14
435.23	1769.44
435.44	1677.29
435.64	1730.53
435.85	1730.53
436.06	1767.40
436.26	1695.72
436.47	1699.81
436.67	1615.85
436.88	1691.62
437.08	1841.12
437.29	1753.06
437.49	1773.54
437.70	1746.92
437.90	1722.34
438.11	1877.99
438.31	1755.11
438.52	1757.16
438.72	1853.41
438.93	1935.33
439.13	1730.53
439.34	1892.32
439.54	1755.11
439.75	1812.45
439.95	1742.82
440.16	1632.23
440.36	1728.49
440.57	1771.49
440.77	1845.22
440.98	1787.88
441.18	1763.30
441.39	1742.82
441.59	1705.96
441.80	1851.36
442.00	1753.06
442.21	1884.13
442.41	1667.05
442.62	1791.97
442.82	1693.67
443.02	1779.68
443.23	1714.15
443.43	1742.82
443.64	1847.27
443.84	1681.38
444.05	1820.64
444.25	1660.90
444.46	1681.38
444.66	1744.87
444.87	1822.69
445.07	1722.34
445.28	1714.15
445.48	1861.60
445.69	1787.88
445.89	1886.18
446.09	1742.82
446.30	2025.44
446.50	2635.74
446.71	3735.50
446.91	4370.37
447.12	4708.28
447.32	4759.48
447.53	4349.89
447.73	3844.04
447.93	3446.73
448.14	3377.10
448.34	3190.74
448.55	2918.36
448.75	2871.25
448.96	2619.35
449.16	2424.80
449.36	2287.58
449.57	2097.12
449.77	1933.28
449.98	1726.44
450.18	1796.07
450.39	1832.93
450.59	1769.44
450.79	1738.73
451.00	1773.54
451.20	1742.82
451.41	1718.25
451.61	1761.25
451.81	1660.90
452.02	1843.17
452.22	1761.25
452.43	1728.49
452.63	1708.01
452.84	1763.30
453.04	1650.66
453.24	1794.02
453.45	1714.15
453.65	1748.97
453.86	1763.30
454.06	1724.39
454.26	1806.31
454.47	1755.11
454.67	1763.30
454.87	1845.22
455.08	1705.96
455.28	1859.56
455.49	1816.55
455.69	1701.86
455.89	1859.56
456.10	1845.22
456.30	1761.25
456.51	1812.45
456.71	1828.84
456.91	1695.72
457.12	1800.16
457.32	1736.68
457.52	1677.29
457.73	1777.64
457.93	1724.39
458.14	1679.33
458.34	1626.09
458.54	1673.19
458.75	1671.14
458.95	1746.92
459.15	1757.16
459.36	1720.29
459.56	1847.27
459.76	1859.56
459.97	1720.29
460.17	1796.07
460.37	1798.12
460.58	1769.44
460.78	1806.31
460.99	1724.39
461.19	1759.21
461.39	1712.10
461.60	1722.34
461.80	1841.12
462.00	1617.90
462.21	1677.29
462.41	1751.01
462.61	1675.24
462.82	1677.29
463.02	1771.49
463.22	1732.58
463.43	1816.55
463.63	1742.82
463.83	1798.12
464.04	1738.73
464.24	1693.67
464.44	1708.01
464.64	1804.26
464.85	1748.97
465.05	1820.64
465.25	1779.68
465.46	1757.16
465.66	1705.96
465.86	1769.44
466.07	1816.55
466.27	1648.61
466.47	1605.61
466.68	1638.38
466.88	1732.58
467.08	1843.17
467.29	1796.07
467.49	1720.29
467.69	1703.91
467.89	1785.83
468.10	1675.24
468.30	1730.53
468.50	1820.64
468.71	1804.26
468.91	1662.95
469.11	1908.71
469.31	1767.40
469.52	1677.29
469.72	1914.85
469.92	1834.98
470.13	1779.68
470.33	1767.40
470.53	1888.23
470.73	2140.13
470.94	2308.06
471.14	2387.93
471.34	2631.64
471.54	2480.09
471.75	2152.42
471.95	2107.36
472.15	2095.07
472.36	2080.74
472.56	2058.21
472.76	2052.06
472.96	1972.19
473.17	1966.05
473.37	1859.56
473.57	1857.51
473.77	1794.02
473.98	1812.45
474.18	1740.77
474.38	1970.15
474.58	1697.77
474.79	1697.77
474.99	1765.35
475.19	1738.73
475.39	1658.85
475.60	1734.63
475.80	1755.11
476.00	1765.35
476.20	1734.63
476.41	1783.78
476.61	1839.08
476.81	1804.26
477.01	1673.19
477.21	1826.79
477.42	1789.92
477.62	1712.10
477.82	1867.75
478.02	1697.77
478.23	1771.49
478.43	1677.29
478.63	1761.25
478.83	1746.92
479.03	1695.72
479.24	1787.88
479.44	1816.55
479.64	1718.25
479.84	1607.66
480.04	1656.81
480.25	1718.25
480.45	1662.95
480.65	1697.77
480.85	1820.64
481.06	1673.19
481.26	1742.82
481.46	1730.53
481.66	1695.72
481.86	1763.30
482.06	1814.50
482.27	1798.12
482.47	1714.15
482.67	1679.33
482.87	1785.83
483.07	1757.16
483.28	1660.90
483.48	1632.23
483.68	1708.01
483.88	1708.01
484.08	1640.42
484.29	1665.00
484.49	1726.44
484.69	1701.86
484.89	1812.45
485.09	1761.25
485.29	1787.88
485.50	1757.16
485.70	1703.91
485.90	1804.26
486.10	1720.29
486.30	1714.15
486.50	1820.64
486.71	1775.59
486.91	1794.02
487.11	1843.17
487.31	1583.08
487.51	1732.58
487.71	1728.49
487.91	1630.18
488.12	1683.43
488.32	1648.61
488.52	1710.05
488.72	1542.12
488.92	1695.72
489.12	1744.87
489.32	1820.64
489.53	1783.78
489.73	1734.63
489.93	1867.75
490.13	1611.75
490.33	1634.28
490.53	1669.09
490.73	1757.16
490.94	1712.10
491.14	1746.92
491.34	1851.36
491.54	2164.70
491.74	2537.43
491.94	2975.70
492.14	3067.86
492.34	2926.55
492.54	2803.67
492.75	2512.86
492.95	2414.56
493.15	2351.07
493.35	2246.62
493.55	2271.20
493.75	2119.65
493.95	2138.08
494.15	2113.50
494.35	1906.66
494.56	1865.70
494.76	1845.22
494.96	1816.55
495.16	1814.50
495.36	1773.54
495.56	1800.16
495.76	1714.15
495.96	1675.24
496.16	1685.48
496.36	1896.42
496.56	1683.43
496.77	1751.01
496.97	1718.25
497.17	1753.06
497.37	1716.20
497.57	1720.29
497.77	1771.49
497.97	1685.48
498.17	1765.35
498.37	1732.58
498.57	1744.87
498.77	1738.73
498.97	1751.01
499.17	1779.68
499.38	1734.63
499.58	1834.98
499.78	1826.79
499.98	1849.32
500.18	1724.39
500.38	1734.63
500.58	1953.76
500.78	2541.53
500.98	4435.90
501.18	5808.04
501.38	6969.24
501.58	7178.13
501.78	6631.32
501.98	5523.37
502.18	4884.41
502.38	4411.32
502.58	4016.07
502.78	3815.37
502.98	3688.39
503.18	3377.10
503.38	3336.14
503.59	2832.34
503.79	2721.75
503.99	2488.28
504.19	2281.44
504.39	2242.53
504.59	2242.53
504.79	2117.60
504.99	2037.73
505.19	1863.65
505.39	1929.19
505.59	2019.30
505.79	1939.43
505.99	1839.08
506.19	1798.12
506.39	1920.99
506.59	1791.97
506.79	1800.16
506.99	1832.93
507.19	1791.97
507.39	1814.50
507.59	1785.83
507.79	1697.77
507.99	1656.81
508.19	1708.01
508.39	1714.15
508.59	1689.57
508.79	1837.03
508.99	1847.27
509.19	1746.92
509.39	1757.16
509.59	1673.19
509.79	1693.67
509.99	1740.77
510.19	1771.49
510.39	1808.36
510.59	1755.11
510.79	1708.01
510.99	1693.67
511.19	1767.40
511.39	1812.45
511.59	1806.31
511.79	1843.17
511.99	1753.06
512.19	1828.84
512.38	1804.26
512.58	1675.24
512.78	1757.16
512.98	1808.36
513.18	1816.55
513.38	1705.96
513.58	1759.21
513.78	1728.49
513.98	1726.44
514.18	1685.48
514.38	1753.06
514.58	1775.59
514.78	1716.20
514.98	1705.96
515.18	1710.05
515.38	1724.39
515.58	1830.88
515.78	1761.25
515.98	1681.38
516.18	1724.39
516.38	1652.71
516.57	1720.29
516.77	1730.53
516.97	1822.69
517.17	1646.57
517.37	1695.72
517.57	1757.16
517.77	1742.82
517.97	1763.30
518.17	1796.07
518.37	1695.72
518.57	1667.05
518.77	1669.09
518.97	1775.59
519.16	1837.03
519.36	1834.98
519.56	1705.96
519.76	1794.02
519.96	1683.43
520.16	1810.40
520.36	1669.09
520.56	1789.92
520.76	1781.73
520.96	1705.96
521.16	1740.77
521.35	1843.17
521.55	1869.80
521.75	1673.19
521.95	1800.16
522.15	1714.15
522.35	1613.80
522.55	1648.61
522.75	1853.41
522.95	1751.01
523.14	1697.77
523.34	1773.54
523.54	1748.97
523.74	1732.58
523.94	1742.82
524.14	1722.34
524.34	1767.40
524.54	1748.97
524.73	1740.77
524.93	1820.64
525.13	1849.32
525.33	1665.00
525.53	1824.74
525.73	1759.21
525.93	1703.91
526.13	1755.11
526.32	1718.25
526.52	1748.97
526.72	1751.01
526.92	1740.77
527.12	1748.97
527.32	1613.80
527.52	1757.16
527.71	1816.55
527.91	1773.54
528.11	1687.53
528.31	1652.71
528.51	1673.19
528.71	1669.09
528.90	1779.68
529.10	1851.36
529.30	1785.83
529.50	1628.14
529.70	1708.01
529.90	1746.92
530.09	1734.63
530.29	1755.11
530.49	1679.33
530.69	1873.89
530.89	1732.58
531.09	1771.49
531.28	1689.57
531.48	1800.16
531.68	1736.68
531.88	1746.92
532.08	1767.40
532.28	1689.57
532.47	1744.87
532.67	1796.07
532.87	1759.21
533.07	1689.57
533.27	1826.79
533.46	1710.05
533.66	1787.88
533.86	1734.63
534.06	1669.09
534.26	1677.29
534.45	1701.86
534.65	1771.49
534.85	1771.49
535.05	1660.90
535.25	1730.53
535.44	1640.42
535.64	1765.35
535.84	1705.96
536.04	1693.67
536.24	1765.35
536.43	1687.53
536.63	1816.55
536.83	1781.73
537.03	1730.53
537.22	1628.14
537.42	1699.81
537.62	1767.40
537.82	1650.66
538.02	1863.65
538.21	1761.25
538.41	1849.32
538.61	1742.82
538.81	1755.11
539.00	1814.50
539.20	1673.19
539.40	1669.09
539.60	1824.74
539.79	1785.83
539.99	1763.30
540.19	1708.01
540.39	1693.67
540.58	1771.49
540.78	1765.35
540.98	1687.53
541.18	1820.64
541.37	1748.97
541.57	1763.30
541.77	1779.68
541.97	1695.72
542.16	1597.42
542.36	1736.68
542.56	1812.45
542.76	1847.27
542.95	1755.11
543.15	1847.27
543.35	1777.64
543.54	1701.86
543.74	1751.01
543.94	1791.97
544.14	1708.01
544.33	1740.77
544.53	1726.44
544.73	1740.77
544.93	1710.05
545.12	1753.06
545.32	1763.30
545.52	1695.72
545.71	1751.01
545.91	1705.96
546.11	1765.35
546.30	1730.53
546.50	1742.82
546.70	1800.16
546.90	1746.92
547.09	1687.53
547.29	1763.30
547.49	1767.40
547.68	1767.40
547.88	1742.82
548.08	1738.73
548.27	2158.56
548.47	1796.07
548.67	1738.73
548.87	1828.84
549.06	1683.43
549.26	1726.44
549.46	1748.97
549.65	1718.25
549.85	1738.73
550.05	1787.88
550.24	1699.81
550.44	1736.68
550.64	1748.97
550.83	1732.58
551.03	1773.54
551.23	1798.12
551.42	1783.78
551.62	1705.96
551.82	1796.07
552.01	1654.76
552.21	1855.46
552.41	1753.06
552.60	1845.22
552.80	1708.01
553.00	1691.62
553.19	1730.53
553.39	1789.92
553.59	1710.05
553.78	1820.64
553.98	1812.45
554.17	1748.97
554.37	1781.73
554.57	1806.31
554.76	1718.25
554.96	1757.16
555.16	1757.16
555.35	1746.92
555.55	1748.97
555.75	1722.34
555.94	1789.92
556.14	1787.88
556.33	1781.73
556.53	1740.77
556.73	1837.03
556.92	1742.82
557.12	1800.16
557.32	1832.93
557.51	1839.08
557.71	1804.26
557.90	1794.02
558.10	1783.78
558.30	1748.97
558.49	1744.87
558.69	1673.19
558.88	1761.25
559.08	1791.97
559.28	1763.30
559.47	1798.12
559.67	1779.68
559.86	1914.85
560.06	1789.92
560.26	1726.44
560.45	1787.88
560.65	1800.16
560.84	1824.74
561.04	1765.35
561.24	1787.88
561.43	1708.01
561.63	1820.64
561.82	1738.73
562.02	1732.58
562.22	1687.53
562.41	1701.86
562.61	1757.16
562.80	1703.91
563.00	1841.12
563.19	1802.21
563.39	1765.35
563.59	1830.88
563.78	1736.68
563.98	1705.96
564.17	1771.49
564.37	1654.76
564.56	1642.47
564.76	1705.96
564.96	1804.26
565.15	1826.79
565.35	1904.61
565.54	1785.83
565.74	1708.01
565.93	1789.92
566.13	1789.92
566.32	1796.07
566.52	1798.12
566.71	1675.24
566.91	1857.51
567.11	1787.88
567.30	1687.53
567.50	1837.03
567.69	1841.12
567.89	1654.76
568.08	1730.53
568.28	1628.14
568.47	1701.86
568.67	1765.35
568.86	1753.06
569.06	1812.45
569.25	1726.44
569.45	1755.11
569.64	1763.30
569.84	1761.25
570.04	1734.63
570.23	1740.77
570.43	1701.86
570.62	1787.88
570.82	1888.23
571.01	1687.53
571.21	1630.18
571.40	1753.06
571.60	1789.92
571.79	1753.06
571.99	1736.68
572.18	1791.97
572.38	1742.82
572.57	1714.15
572.77	1812.45
572.96	1882.08
573.16	1810.40
573.35	1716.20
573.55	1886.18
573.74	1812.45
573.94	1773.54
574.13	1714.15
574.33	1839.08
574.52	1822.69
574.71	1771.49
574.91	1826.79
575.10	1679.33
575.30	1718.25
575.49	1695.72
575.69	1710.05
575.88	1771.49
576.08	1746.92
576.27	1753.06
576.47	1763.30
576.66	1771.49
576.86	1832.93
577.05	1701.86
577.25	1806.31
577.44	1869.80
577.64	1746.92
577.83	1837.03
578.02	1724.39
578.22	1902.56
578.41	1920.99
578.61	1734.63
578.80	1755.11
579.00	1800.16
579.19	1820.64
579.39	1775.59
579.58	1802.21
579.77	1718.25
579.97	1847.27
580.16	1791.97
580.36	1779.68
580.55	1779.68
580.75	1796.07
580.94	1689.57
581.13	1849.32
581.33	1859.56
581.52	1742.82
581.72	1888.23
581.91	1873.89
582.11	1697.77
582.30	1746.92
582.49	1771.49
582.69	1834.98
582.88	1771.49
583.08	1794.02
583.27	1775.59
583.47	1757.16
583.66	1722.34
583.85	1718.25
584.05	1757.16
584.24	1748.97
584.44	1728.49
584.63	1800.16
584.82	1822.69
585.02	1822.69
585.21	1806.31
585.41	1843.17
585.60	1857.51
585.79	1925.09
585.99	1935.33
586.18	1845.22
586.37	2158.56
586.57	3438.54
586.76	9832.30
586.96	24518.28
587.15	34354.68
587.34	40760.72
587.54	42251.64
587.73	36427.22
587.93	26369.65
588.12	21694.13
588.31	18106.09
588.51	16283.40
588.70	15007.52
588.89	14171.94
589.09	12701.50
589.28	11077.46
589.47	9471.86
589.67	7933.83
589.86	6455.20
590.06	5056.43
590.25	3876.80
590.44	3088.34
590.64	2471.90
590.83	2213.85
591.02	2074.59
591.22	1951.71
591.41	1910.75
591.60	1771.49
591.80	1998.82
591.99	1748.97
592.18	1751.01
592.38	1888.23
592.57	1800.16
592.76	1826.79
592.96	1773.54
593.15	1802.21
593.34	1910.75
593.54	1769.44
593.73	1847.27
593.92	1759.21
594.12	1789.92
594.31	1789.92
594.50	1806.31
594.70	1779.68
594.89	1857.51
595.08	1728.49
595.28	1746.92
595.47	1941.47
595.66	1855.46
595.86	1716.20
596.05	1796.07
596.24	1656.81
596.43	1857.51
596.63	1834.98
596.82	1736.68
597.01	1796.07
597.21	1804.26
597.40	1818.60
597.59	1783.78
597.79	1726.44
597.98	1718.25
598.17	1808.36
598.36	1753.06
598.56	1794.02
598.75	1665.00
598.94	1810.40
599.14	1783.78
599.33	1744.87
599.52	1779.68
599.71	1748.97
599.91	1800.16
600.10	1816.55
600.29	1724.39
600.48	1824.74
600.68	1810.40
600.87	1751.01
601.06	1736.68
601.26	1716.20
601.45	1812.45
601.64	1720.29
601.83	1830.88
602.03	1720.29
602.22	1705.96
602.41	1789.92
602.60	1894.37
602.80	1738.73
602.99	1681.38
603.18	1683.43
603.37	1728.49
603.57	1757.16
603.76	1834.98
603.95	1755.11
604.14	1812.45
604.34	1753.06
604.53	1742.82
604.72	1746.92
604.91	1877.99
605.10	1773.54
605.30	1720.29
605.49	1847.27
605.68	1789.92
605.87	1820.64
606.07	1738.73
606.26	1712.10
606.45	1804.26
606.64	1755.11
606.84	1724.39
607.03	1746.92
607.22	1755.11
607.41	1703.91
607.60	1730.53
607.80	1783.78
607.99	1751.01
608.18	1814.50
608.37	1757.16
608.56	1681.38
608.76	1806.31
608.95	1845.22
609.14	1740.77
609.33	1816.55
609.52	1843.17
609.72	1828.84
609.91	1800.16
610.10	1734.63
610.29	1847.27
610.48	1746.92
610.68	1771.49
610.87	1759.21
611.06	1845.22
611.25	1708.01
611.44	1771.49
611.63	1699.81
611.83	1796.07
612.02	1675.24
612.21	1834.98
612.40	1576.94
612.59	1626.09
612.79	1705.96
612.98	1738.73
613.17	1824.74
613.36	1720.29
613.55	1826.79
613.74	1697.77
613.93	1726.44
614.13	1787.88
614.32	1767.40
614.51	1722.34
614.70	1675.24
614.89	1703.91
615.08	1769.44
615.28	2070.50
615.47	1714.15
615.66	1751.01
615.85	1683.43
616.04	1849.32
616.23	1720.29
616.42	1748.97
616.62	1730.53
616.81	1740.77
617.00	1734.63
617.19	1841.12
617.38	1691.62
617.57	1804.26
617.76	1767.40
617.95	1742.82
618.15	1679.33
618.34	1765.35
618.53	1628.14
618.72	1781.73
618.91	1722.34
619.10	1875.94
619.29	1751.01
619.48	1789.92
619.68	1759.21
619.87	1697.77
620.06	1665.00
620.25	1724.39
620.44	1705.96
620.63	1681.38
620.82	1728.49
621.01	1798.12
621.20	1699.81
621.39	1755.11
621.59	1746.92
621.78	1781.73
621.97	1667.05
622.16	1785.83
622.35	1775.59
622.54	1810.40
622.73	1789.92
622.92	1609.70
623.11	1787.88
623.30	1675.24
623.49	1761.25
623.68	1722.34
623.88	1800.16
624.07	1701.86
624.26	1730.53
624.45	1757.16
624.64	1712.10
624.83	1755.11
625.02	1703.91
625.21	1744.87
625.40	1757.16
625.59	1744.87
625.78	1683.43
625.97	1796.07
626.16	1871.84
626.35	1740.77
626.54	1687.53
626.74	1677.29
626.93	1738.73
627.12	1658.85
627.31	1787.88
627.50	1730.53
627.69	1761.25
627.88	1740.77
628.07	1705.96
628.26	1687.53
628.45	1699.81
628.64	1714.15
628.83	1687.53
629.02	1607.66
629.21	1783.78
629.40	1779.68
629.59	1701.86
629.78	1689.57
629.97	1757.16
630.16	1763.30
630.35	1667.05
630.54	1718.25
630.73	1677.29
630.92	1796.07
631.11	1746.92
631.30	1673.19
631.49	1775.59
631.68	1722.34
631.87	1720.29
632.06	1689.57
632.25	1869.80
632.44	1759.21
632.63	1734.63
632.82	1652.71
633.01	1675.24
633.20	1753.06
633.39	1667.05
633.58	1605.61
633.77	1777.64
633.96	1662.95
634.15	1757.16
634.34	1755.11
634.53	1734.63
634.72	1742.82
634.91	1685.48
635.10	1734.63
635.29	1746.92
635.48	1794.02
635.67	1652.71
635.86	1662.95
636.05	1861.60
636.24	1677.29
636.43	1753.06
636.62	1714.15
636.81	1619.94
637.00	1775.59
637.19	1757.16
637.38	1691.62
637.57	1660.90
637.76	1654.76
637.95	1785.83
638.14	1726.44
638.33	1705.96
638.52	1724.39
638.71	1671.14
638.89	1636.33
639.08	1888.23
639.27	1728.49
639.46	1742.82
639.65	1781.73
639.84	1794.02
640.03	1705.96
640.22	1732.58
640.41	1800.16
640.60	1728.49
640.79	1712.10
640.98	1728.49
641.17	1767.40
641.36	1644.52
641.55	1738.73
641.74	1677.29
641.92	1759.21
642.11	1744.87
642.30	1714.15
642.49	1656.81
642.68	1677.29
642.87	1689.57
643.06	1681.38
643.25	1679.33
643.44	1724.39
643.63	1673.19
643.82	1767.40
644.00	1648.61
644.19	1716.20
644.38	1675.24
644.57	1734.63
644.76	1789.92
644.95	1654.76
645.14	1714.15
645.33	1722.34
645.52	1738.73
645.71	1650.66
645.89	1662.95
646.08	1665.00
646.27	1753.06
646.46	1822.69
646.65	1615.85
646.84	1683.43
647.03	1681.38
647.22	1794.02
647.40	1748.97
647.59	1751.01
647.78	1640.42
647.97	1628.14
648.16	1683.43
648.35	1820.64
648.54	1808.36
648.73	1724.39
648.91	1798.12
649.10	1738.73
649.29	1693.67
649.48	1648.61
649.67	1740.77
649.86	1652.71
650.05	1665.00
650.23	1742.82
650.42	1589.22
650.61	1767.40
650.80	1728.49
650.99	1787.88
651.18	1843.17
651.36	1714.15
651.55	1763.30
651.74	1751.01
651.93	1689.57
652.12	1736.68
652.31	1712.10
652.49	1699.81
652.68	1689.57
652.87	1845.22
653.06	1697.77
653.25	1841.12
653.44	1751.01
653.62	1751.01
653.81	1740.77
654.00	1728.49
654.19	1785.83
654.38	1871.84
654.56	1806.31
654.75	1683.43
654.94	1722.34
655.13	1751.01
655.32	1730.53
655.51	1751.01
655.69	1767.40
655.88	1738.73
656.07	1693.67
656.26	1783.78
656.45	1626.09
656.63	1708.01
656.82	1773.54
657.01	1759.21
657.20	1734.63
657.38	1775.59
657.57	1746.92
657.76	1615.85
657.95	1810.40
658.14	1746.92
658.32	1796.07
658.51	1626.09
658.70	1714.15
658.89	1812.45
659.08	1763.30
659.26	1787.88
659.45	1691.62
659.64	1794.02
659.83	1681.38
660.01	1902.56
660.20	1722.34
660.39	1906.66
660.58	1609.70
660.76	1718.25
660.95	1603.56
661.14	1757.16
661.33	1677.29
661.51	1742.82
661.70	1753.06
661.89	1708.01
662.08	1789.92
662.26	1705.96
662.45	1679.33
662.64	1861.60
662.83	1767.40
663.01	1720.29
663.20	1697.77
663.39	1896.42
663.58	1763.30
663.76	1738.73
663.95	1636.33
664.14	1710.05
664.32	1710.05
664.51	1744.87
664.70	1712.10
664.89	1765.35
665.07	1660.90
665.26	1800.16
665.45	1628.14
665.64	1779.68
665.82	1751.01
666.01	1808.36
666.20	1695.72
666.38	1763.30
666.57	1826.79
666.76	2256.86
666.95	4470.72
667.13	10352.48
667.32	15298.33
667.51	17747.70
667.69	19195.61
667.88	17585.91
668.07	12267.33
668.25	9516.91
668.44	8060.80
668.63	7378.83
668.81	6856.60
669.00	6199.20
669.19	5672.87
669.38	5048.24
669.56	4460.48
669.75	3903.43
669.94	3344.33
670.12	2953.17
670.31	2537.43
670.50	2248.67
670.68	2054.11
670.87	1986.53
671.06	1837.03
671.24	1832.93
671.43	1869.80
671.62	1791.97
671.80	1720.29
671.99	1806.31
672.18	1685.48
672.36	1751.01
672.55	1796.07
672.74	1771.49
672.92	1734.63
673.11	1714.15
673.29	1662.95
673.48	1798.12
673.67	1705.96
673.85	1804.26
674.04	1708.01
674.23	1652.71
674.41	1869.80
674.60	1650.66
674.79	1597.42
674.97	1744.87
675.16	1722.34
675.34	1777.64
675.53	1724.39
675.72	1775.59
675.90	1875.94
676.09	1701.86
676.28	1773.54
676.46	1701.86
676.65	1716.20
676.83	1730.53
677.02	1681.38
677.21	1673.19
677.39	1732.58
677.58	1636.33
677.77	1691.62
677.95	1681.38
678.14	1781.73
678.32	1751.01
678.51	1689.57
678.70	1863.65
678.88	1718.25
679.07	1765.35
679.25	1779.68
679.44	1714.15
679.63	1587.18
679.81	1791.97
680.00	1732.58
680.18	1832.93
680.37	1837.03
680.55	1687.53
680.74	1669.09
680.93	1712.10
681.11	1751.01
681.30	1773.54
681.48	1761.25
681.67	1773.54
681.85	1710.05
682.04	1642.47
682.23	1755.11
682.41	1806.31
682.60	1802.21
682.78	1744.87
682.97	1685.48
683.15	1714.15
683.34	1730.53
683.53	1742.82
683.71	1644.52
683.90	1853.41
684.08	1800.16
684.27	1705.96
684.45	1757.16
684.64	1796.07
684.82	1730.53
685.01	1769.44
685.19	1730.53
685.38	1763.30
685.57	1753.06
685.75	1675.24
685.94	1757.16
686.12	1742.82
686.31	1617.90
686.49	1808.36
686.68	1681.38
686.86	1777.64
687.05	1705.96
687.23	1763.30
687.42	1724.39
687.60	1687.53
687.79	1765.35
687.97	1839.08
688.16	1734.63
688.34	1775.59
688.53	1632.23
688.71	1810.40
688.90	1763.30
689.08	1796.07
689.27	1630.18
689.45	1828.84
689.64	1779.68
689.82	1748.97
690.01	1794.02
690.19	1744.87
690.38	1722.34
690.56	1757.16
690.75	1720.29
690.93	1587.18
691.12	1656.81
691.30	1738.73
691.49	1630.18
691.67	1763.30
691.86	1814.50
692.04	1669.09
692.23	1658.85
692.41	1701.86
692.60	1869.80
692.78	1873.89
692.97	1603.56
693.15	1742.82
693.34	1789.92
693.52	1746.92
693.71	1695.72
693.89	1679.33
694.08	1638.38
694.26	1767.40
694.44	1787.88
694.63	1769.44
694.81	1681.38
695.00	1642.47
695.18	1771.49
695.37	1851.36
695.55	1742.82
695.74	1773.54
695.92	1710.05
696.10	1779.68
696.29	1624.04
696.47	1724.39
696.66	1734.63
696.84	1660.90
697.03	1730.53
697.21	1830.88
697.40	2295.77
697.58	1806.31
697.76	1677.29
697.95	1677.29
698.13	1669.09
698.32	1681.38
698.50	1720.29
698.68	1675.24
698.87	1763.30
699.05	1789.92
699.24	1728.49
699.42	1621.99
699.61	1757.16
699.79	1701.86
699.97	1748.97
700.16	1689.57
700.34	1660.90
700.53	1755.11
700.71	1763.30
700.89	1730.53
701.08	1738.73
701.26	1742.82
701.45	2166.75
701.63	1734.63
701.81	1757.16
702.00	1658.85
702.18	1703.91
702.37	1708.01
702.55	1834.98
702.73	1687.53
702.92	1617.90
703.10	1755.11
703.28	1699.81
703.47	1677.29
703.65	1830.88
703.84	1867.75
704.02	1751.01
704.20	1697.77
704.39	1681.38
704.57	1722.34
704.75	1769.44
704.94	1767.40
705.12	1755.11
705.30	1779.68
705.49	2228.19
705.67	4491.20
705.86	9461.62
706.04	12670.78
706.22	14659.36
706.41	15542.03
706.59	13508.40
706.77	9695.08
706.96	7434.13
707.14	6481.82
707.32	5865.38
707.51	5679.02
707.69	4755.38
707.87	4106.18
708.06	3555.27
708.24	3022.80
708.42	2437.08
708.61	2281.44
708.79	1875.94
708.97	1896.42
709.16	1816.55
709.34	1812.45
709.52	1720.29
709.71	1705.96
709.89	1755.11
710.07	1718.25
710.26	1640.42
710.44	1724.39
710.62	1734.63
710.80	1734.63
710.99	1775.59
711.17	1791.97
711.35	1671.14
711.54	1691.62
711.72	1806.31
711.90	1732.58
712.09	1710.05
712.27	1722.34
712.45	1748.97
712.63	1636.33
712.82	1773.54
713.00	1722.34
713.18	1777.64
713.37	1796.07
713.55	1746.92
713.73	1718.25
713.91	1804.26
714.10	1767.40
714.28	1673.19
714.46	1701.86
714.65	1710.05
714.83	1763.30
715.01	1685.48
715.19	1691.62
715.38	1701.86
715.56	1744.87
715.74	1685.48
715.92	1708.01
716.11	1820.64
716.29	1591.27
716.47	1753.06
716.65	1712.10
716.84	1667.05
717.02	1755.11
717.20	1611.75
717.38	1722.34
717.57	1800.16
717.75	1720.29
717.93	1687.53
718.11	1826.79
718.30	1681.38
718.48	1691.62
718.66	1726.44
718.84	1775.59
719.03	1716.20
719.21	1648.61
719.39	1830.88
719.57	1855.46
719.75	1843.17
719.94	1648.61
720.12	1775.59
720.30	1720.29
720.48	1748.97
720.67	1728.49
720.85	1642.47
721.03	1769.44
721.21	1675.24
721.39	1865.70
721.58	1755.11
721.76	1761.25
721.94	1759.21
722.12	1812.45
722.30	1755.11
722.49	1748.97
722.67	1703.91
722.85	1695.72
723.03	1742.82
723.21	1597.42
723.40	1660.90
723.58	1742.82
723.76	1765.35
723.94	1728.49
724.12	1761.25
724.30	1728.49
724.49	1746.92
724.67	1705.96
724.85	1685.48
725.03	1617.90
725.21	1738.73
725.40	1695.72
725.58	1665.00
725.76	1708.01
725.94	1751.01
726.12	1746.92
726.30	1716.20
726.49	1767.40
726.67	1693.67
726.85	1718.25
727.03	1761.25
727.21	2201.57
727.39	2856.92
727.57	3835.85
727.76	4151.23
727.94	4503.48
728.12	4343.74
728.30	3680.20
728.48	2916.31
728.66	2645.98
728.84	2537.43
729.03	2295.77
729.21	2154.46
729.39	1988.58
729.57	1877.99
729.75	1894.37
729.93	1935.33
730.11	1757.16
730.30	1746.92
730.48	1697.77
730.66	1759.21
730.84	1798.12
731.02	1759.21
731.20	1685.48
731.38	1720.29
731.56	1640.42
731.74	1675.24
731.93	1748.97
732.11	1730.53
732.29	1705.96
732.47	1671.14
732.65	1753.06
732.83	1806.31
733.01	1828.84
733.19	1708.01
733.37	1710.05
733.56	1757.16
733.74	1708.01
733.92	1785.83
734.10	1695.72
734.28	1697.77
734.46	1658.85
734.64	1759.21
734.82	1744.87
735.00	1744.87
735.18	1581.03
735.36	1685.48
735.54	1630.18
735.73	1742.82
735.91	1662.95
736.09	1748.97
736.27	1708.01
736.45	1751.01
736.63	1632.23
736.81	1701.86
736.99	1791.97
737.17	1818.60
737.35	1738.73
737.53	1720.29
737.71	1755.11
737.89	1777.64
738.07	1712.10
738.25	1697.77
738.43	1570.79
738.61	1699.81
738.80	1642.47
738.98	1660.90
739.16	1681.38
739.34	1646.57
739.52	1746.92
739.70	1751.01
739.88	1783.78
740.06	1765.35
740.24	1597.42
740.42	1787.88
740.60	1652.71
740.78	1701.86
740.96	1646.57
741.14	1677.29
741.32	1744.87
741.50	1718.25
741.68	1818.60
741.86	1726.44
742.04	1736.68
742.22	1730.53
742.40	1740.77
742.58	1751.01
742.76	1716.20
742.94	1900.52
743.12	1669.09
743.30	1740.77
743.48	1755.11
743.66	1654.76
743.84	1703.91
744.02	1726.44
744.20	1746.92
744.38	1662.95
744.56	1716.20
744.74	1779.68
744.92	1771.49
745.10	1798.12
745.28	1759.21
745.46	1849.32
745.64	1644.52
745.82	1751.01
746.00	1701.86
746.18	1642.47
746.36	1714.15
746.54	1720.29
746.72	1701.86
746.90	1726.44
747.08	1779.68
747.26	1640.42
747.44	1740.77
747.62	1769.44
747.80	1705.96
747.98	1701.86
748.15	1763.30
748.33	1843.17
748.51	1679.33
748.69	1761.25
748.87	1607.66
749.05	1685.48
749.23	1640.42
749.41	1716.20
749.59	1687.53
749.77	1775.59
749.95	1738.73
750.13	1691.62
750.31	1716.20
750.49	1722.34
750.67	1781.73
750.85	1890.28
751.03	1728.49
751.20	1794.02
751.38	1677.29
751.56	1681.38
751.74	1744.87
751.92	1681.38
752.10	1656.81
752.28	1789.92
752.46	1660.90
752.64	1724.39
752.82	1714.15
753.00	1826.79
753.18	1714.15
753.35	1738.73
753.53	1714.15
753.71	1617.90
753.89	1697.77
754.07	1765.35
754.25	1767.40
754.43	1658.85
754.61	1671.14
754.79	1673.19
754.97	1724.39
755.14	1841.12
755.32	1673.19
755.50	1816.55
755.68	1730.53
755.86	1626.09
756.04	1679.33
756.22	1595.37
756.40	1798.12
756.57	1710.05
756.75	1714.15
756.93	1806.31
757.11	1689.57
757.29	1619.94
757.47	1691.62
757.65	1669.09
757.82	1558.50
758.00	1675.24
758.18	1683.43
758.36	1640.42
758.54	1810.40
758.72	1691.62
758.90	1785.83
759.07	1726.44
759.25	1642.47
759.43	1806.31
759.61	1626.09
759.79	2254.81
759.97	1708.01
760.15	1722.34
760.32	1703.91
760.50	1691.62
760.68	1888.23
760.86	1708.01
761.04	1716.20
761.22	1800.16
761.39	1763.30
761.57	1742.82
761.75	1759.21
761.93	1765.35
762.11	1669.09
762.28	1777.64
762.46	1746.92
762.64	1802.21
762.82	1673.19
763.00	1708.01
763.18	1810.40
763.35	1650.66
763.53	1820.64
763.71	1775.59
763.89	1738.73
764.07	1806.31
764.24	1794.02
764.42	1734.63
764.60	1714.15
764.78	1712.10
764.96	1773.54
765.13	1765.35
765.31	1763.30
765.49	1765.35
765.67	1673.19
765.84	1648.61
766.02	1701.86
766.20	1730.53
766.38	1738.73
766.56	1781.73
766.73	1763.30
766.91	1699.81
767.09	1685.48
767.27	1689.57
767.44	1699.81
767.62	1720.29
767.80	1771.49
767.98	1693.67
768.15	1642.47
768.33	1806.31
768.51	1746.92
768.69	1824.74
768.87	1683.43
769.04	1714.15
769.22	1812.45
769.40	1869.80
769.58	1822.69
769.75	1714.15
769.93	1718.25
770.11	1683.43
770.28	1617.90
770.46	1744.87
770.64	1656.81
770.82	1658.85
770.99	1681.38
771.17	1730.53
771.35	1718.25
771.53	1671.14
771.70	1734.63
771.88	1812.45
772.06	1751.01
772.23	1691.62
772.41	1761.25
772.59	1710.05
772.77	1660.90
772.94	1701.86
773.12	1722.34
773.30	1744.87
773.47	1794.02
773.65	1691.62
773.83	1746.92
774.01	1759.21
774.18	1578.98
774.36	1736.68
774.54	1673.19
774.71	1646.57
774.89	1595.37
775.07	1646.57
775.24	1650.66
775.42	1650.66
775.60	1841.12
775.78	1660.90
775.95	1638.38
776.13	1624.04
776.31	1585.13
776.48	1746.92
776.66	1791.97
776.84	1744.87
777.01	1652.71
777.19	1695.72
777.37	1722.34
777.54	1728.49
777.72	1806.31
777.90	1699.81
778.07	1681.38
778.25	1888.23
778.43	1759.21
778.60	1656.81
778.78	1720.29
778.96	1806.31
779.13	1669.09
779.31	1736.68
779.49	1691.62
779.66	1716.20
779.84	1699.81
780.01	1691.62
780.19	1603.56
780.37	1828.84
780.54	1722.34
780.72	1716.20
780.90	1642.47
781.07	1671.14
781.25	1689.57
781.43	1845.22
781.60	1656.81
781.78	1816.55
781.95	1748.97
782.13	1691.62
782.31	1759.21
782.48	1642.47
782.66	1738.73
782.83	1816.55
783.01	1710.05
783.19	1751.01
783.36	1703.91
783.54	1712.10
783.72	1808.36
783.89	1691.62
784.07	1687.53
784.24	1779.68
784.42	1787.88
784.60	1771.49
784.77	1796.07
784.95	1646.57
785.12	1675.24
785.30	1689.57
785.47	1718.25
785.65	1671.14
785.83	1681.38
786.00	1687.53
786.18	1724.39
786.35	1611.75
786.53	1667.05
786.71	1787.88
786.88	1796.07
787.06	1773.54
787.23	1679.33
787.41	1699.81
787.58	1720.29
787.76	1638.38
787.94	1726.44
788.11	1716.20
788.29	1705.96
788.46	1597.42
788.64	1642.47
788.81	1726.44
788.99	1687.53
789.16	1693.67
789.34	1648.61
789.52	1640.42
789.69	1660.90
789.87	1601.51
790.04	1642.47
790.22	1734.63
790.39	1816.55
790.57	1652.71
790.74	1689.57
790.92	1771.49
791.09	1685.48
791.27	1796.07
791.44	1822.69
791.62	1746.92
791.79	1705.96
791.97	1697.77
792.15	1964.00
792.32	1687.53
792.50	1785.83
792.67	1755.11
792.85	1880.04
793.02	1689.57
793.20	1695.72
793.37	1570.79
793.55	1716.20
793.72	1638.38
793.90	1718.25
794.07	1626.09
794.25	1714.15
794.42	1675.24
794.60	1720.29
794.77	1744.87
794.95	1787.88
795.12	1710.05
795.30	1712.10
795.47	1611.75
795.65	1902.56
795.82	1712.10
796.00	1710.05
796.17	1689.57
796.34	1708.01
796.52	1677.29
796.69	1757.16
796.87	1765.35
797.04	1738.73
797.22	1740.77
797.39	1812.45
797.57	1781.73
797.74	1847.27
797.92	1718.25
798.09	1677.29
798.27	1751.01
798.44	1728.49
798.62	1734.63
798.79	1675.24
798.96	1736.68
799.14	1718.25
799.31	1898.47
799.49	1677.29
799.66	1636.33
799.84	1753.06
800.01	1529.83
800.19	1675.24
800.36	1642.47
800.53	1673.19
800.71	1683.43
800.88	1662.95
801.06	1685.48
801.23	1695.72
801.41	1714.15
801.58	1648.61
801.75	1724.39
801.93	1738.73
802.10	1804.26
802.28	1681.38
802.45	1603.56
802.63	1718.25
802.80	1742.82
802.97	1718.25
803.15	1712.10
803.32	1675.24
803.50	1628.14
803.67	1740.77
803.84	1763.30
804.02	1671.14
804.19	1722.34
804.37	1591.27
804.54	1669.09
804.71	1728.49
804.89	1742.82
805.06	1751.01
805.24	1753.06
805.41	1693.67
805.58	1628.14
805.76	1884.13
805.93	1681.38
806.10	1828.84
806.28	1720.29
806.45	1718.25
806.63	1716.20
806.80	1681.38
806.97	1748.97
807.15	1673.19
807.32	1785.83
807.49	1800.16
807.67	1675.24
807.84	1716.20
808.01	1628.14
808.19	1775.59
808.36	1828.84
808.54	1708.01
808.71	1685.48
808.88	1834.98
809.06	1777.64
809.23	1808.36
809.40	1665.00
809.58	1806.31
809.75	1710.05
809.92	1597.42
810.10	1734.63
810.27	1732.58
810.44	1673.19
810.62	1738.73
810.79	1783.78
810.96	1710.05
811.14	1722.34
811.31	1740.77
811.48	1773.54
811.66	1730.53
811.83	1791.97
812.00	1761.25
812.18	1720.29
812.35	1865.70
812.52	1738.73
812.69	1728.49
812.87	1734.63
813.04	1656.81
813.21	1740.77
813.39	1703.91
813.56	1716.20
813.73	1746.92
813.91	1669.09
814.08	1722.34
814.25	1712.10
814.42	1611.75
814.60	1718.25
814.77	1691.62
814.94	1662.95
815.12	1705.96
815.29	1767.40
815.46	1712.10
815.63	1724.39
815.81	1703.91
815.98	1681.38
816.15	1658.85
816.33	1708.01
816.50	1660.90
816.67	1724.39
816.84	1794.02
817.02	1671.14
817.19	1665.00
817.36	1783.78
817.53	1736.68
817.71	1626.09
817.88	1687.53
818.05	1748.97
818.22	1687.53
818.40	1773.54
818.57	1693.67
818.74	1705.96
818.91	1730.53
819.09	1761.25
819.26	1736.68
819.43	1679.33
819.60	1638.38
819.78	1757.16
819.95	1742.82
820.12	1695.72
820.29	1783.78
820.47	1728.49
820.64	1656.81
820.81	1699.81
820.98	1699.81
821.15	1708.01
821.33	1755.11
821.50	1597.42
821.67	1722.34
821.84	1693.67
822.02	1736.68
822.19	1763.30
822.36	1701.86
822.53	1685.48
822.70	1679.33
822.88	1740.77
823.05	1841.12
823.22	1740.77
823.39	1785.83
823.56	1662.95
823.74	1734.63
823.91	1699.81
824.08	1628.14
824.25	1597.42
824.42	1816.55
824.60	1683.43
824.77	1673.19
824.94	1757.16
825.11	1718.25
825.28	1701.86
825.45	1701.86
825.63	1753.06
825.80	1712.10
825.97	1806.31
826.14	1748.97
826.31	1691.62
826.48	1744.87
826.66	1683.43
826.83	1699.81
827.00	1738.73
827.17	1669.09
827.34	1665.00
827.51	1699.81
827.69	1736.68
827.86	1730.53
828.03	1726.44
828.20	1691.62
828.37	1652.71
828.54	1771.49
828.71	1642.47
828.89	1796.07
829.06	1769.44
829.23	1781.73
829.40	1644.52
829.57	1722.34
829.74	1660.90
829.91	1648.61
830.09	1710.05
830.26	1712.10
830.43	1816.55
830.60	1732.58
830.77	1796.07
830.94	1826.79
831.11	1748.97
831.28	1665.00
831.46	1769.44
831.63	1714.15
831.80	1810.40
831.97	1646.57
832.14	1724.39
832.31	1714.15
832.48	1732.58
832.65	1730.53
832.82	1738.73
832.99	1724.39
833.17	1638.38
833.34	1853.41
833.51	1779.68
833.68	1525.74
833.85	1771.49
834.02	1687.53
834.19	1722.34
834.36	1710.05
834.53	1691.62
834.70	1746.92
834.87	1818.60
835.04	1669.09
835.22	1710.05
835.39	1624.04
835.56	1689.57
835.73	1732.58
835.90	1761.25
836.07	1650.66
836.24	1650.66
836.41	1617.90
836.58	1701.86
836.75	1785.83
836.92	1677.29
837.09	1642.47
837.26	1837.03
837.43	1728.49
837.60	1814.50
837.77	1720.29
837.94	1720.29
838.12	1705.96
838.29	1718.25
838.46	1671.14
838.63	1675.24
838.80	1785.83
838.97	1718.25
839.14	1697.77
839.31	1740.77
839.48	1769.44
839.65	1681.38
839.82	1714.15
839.99	1742.82
840.16	1656.81
840.33	1714.15
840.50	1660.90
840.67	1665.00
840.84	1601.51
841.01	1734.63
841.18	1675.24
841.35	1679.33
841.52	1732.58
841.69	1837.03
841.86	1701.86
842.03	1697.77
842.20	1794.02
842.37	1693.67
842.54	1679.33
842.71	1728.49
842.88	1609.70
843.05	1726.44
843.22	1718.25
843.39	1800.16
843.56	1734.63
843.73	1773.54
843.90	1697.77
844.07	1656.81
844.24	1701.86
844.41	1716.20
844.58	1771.49
844.75	1624.04
844.92	1746.92
845.09	1726.44
845.26	1679.33
845.43	1701.86
845.60	1673.19
845.77	1796.07
845.94	1613.80
846.10	1763.30
846.27	1669.09
846.44	1652.71
846.61	1722.34
846.78	1818.60
846.95	1779.68
847.12	1677.29
847.29	1656.81
847.46	1697.77
847.63	1779.68
847.80	1744.87
847.97	1693.67
848.14	1767.40
848.31	1732.58
848.48	1644.52
848.65	1677.29
848.82	1751.01
848.98	1687.53
849.15	1728.49
849.32	1794.02
849.49	1742.82
849.66	1724.39
849.83	1751.01
850.00	1648.61
850.17	1843.17
850.34	1701.86
850.51	1710.05
850.68	1677.29
850.85	1804.26
851.01	1722.34
851.18	1755.11
851.35	1675.24
851.52	1730.53
851.69	1820.64
851.86	1642.47
852.03	1652.71
852.20	1724.39
852.37	1740.77
852.53	1632.23
852.70	1701.86
852.87	1724.39
853.04	1843.17
853.21	1767.40
853.38	1681.38
853.55	1773.54
853.72	1781.73
853.89	1687.53
854.05	1673.19
854.22	1759.21
854.39	1714.15
854.56	1738.73
854.73	1777.64
854.90	1687.53
855.07	1652.71
855.23	1681.38
855.40	1714.15
855.57	1748.97
855.74	1660.90
855.91	1832.93
856.08	1705.96
856.25	1658.85
856.41	1703.91
856.58	1644.52
856.75	1671.14
856.92	1687.53
857.09	1785.83
857.26	1605.61
857.42	1611.75
857.59	1671.14
857.76	1656.81
857.93	1736.68
858.10	1710.05
858.27	1703.91
858.43	1687.53
858.60	1724.39
858.77	1607.66
858.94	1665.00
859.11	1671.14
859.27	1755.11
859.44	1652.71
859.61	1832.93
859.78	1685.48
859.95	1734.63
860.12	1652.71
860.28	1863.65
860.45	1757.16
860.62	1732.58
860.79	1695.72
860.95	1769.44
861.12	1615.85
861.29	1638.38
861.46	1648.61
861.63	1665.00
861.79	1783.78
861.96	1697.77
862.13	1703.91
862.30	1783.78
862.47	1683.43
862.63	1734.63
862.80	1796.07
862.97	1804.26
863.14	1703.91
863.30	1689.57
863.47	1658.85
863.64	1812.45
863.81	1705.96
863.97	1748.97
864.14	1728.49
864.31	1812.45
864.48	1673.19
864.65	1738.73
864.81	1724.39
864.98	1753.06
865.15	1748.97
865.32	1691.62
865.48	1767.40
865.65	1787.88
865.82	1712.10
865.98	1714.15
866.15	1728.49
866.32	1677.29
866.49	1722.34
866.65	1730.53
866.82	1658.85
866.99	1673.19
867.16	1677.29
867.32	1746.92
867.49	1605.61
867.66	1748.97
867.83	1677.29
867.99	1605.61
868.16	1697.77
868.33	1638.38
868.49	1753.06
868.66	1683.43
868.83	1751.01
868.99	1746.92
869.16	1667.05
869.33	1806.31
869.50	1732.58
869.66	1691.62
869.83	1669.09
870.00	1634.28
870.16	1695.72
870.33	1708.01
870.50	1791.97
870.66	1691.62
870.83	1839.08
871.00	1656.81
871.17	1728.49
871.33	1746.92
871.50	1710.05
871.67	1699.81
871.83	1677.29
872.00	1853.41
872.17	1701.86
872.33	1818.60
872.50	1800.16
872.67	1689.57
872.83	1691.62
873.00	1687.53
873.17	1742.82
873.33	1753.06
873.50	1796.07
873.67	1689.57
873.83	1652.71
874.00	1818.60
874.16	1761.25
874.33	1751.01
874.50	1628.14
874.66	1798.12
874.83	1699.81
875.00	1726.44
875.16	1708.01
875.33	1796.07
875.50	1583.08
875.66	1738.73
875.83	1791.97
875.99	1724.39
876.16	1628.14
876.33	1605.61
876.49	1687.53
876.66	1755.11
876.83	1744.87
876.99	1667.05
877.16	1757.16
877.32	1652.71
877.49	1652.71
877.66	1767.40
877.82	1841.12
877.99	1779.68
878.15	1748.97
878.32	1744.87
878.49	1716.20
878.65	1695.72
878.82	1773.54
878.98	1621.99
879.15	1742.82
879.32	1767.40
879.48	1748.97
879.65	1671.14
879.81	1710.05
879.98	1638.38
880.15	1728.49
880.31	1800.16
880.48	1572.84
880.64	1775.59
880.81	1746.92
880.97	1808.36
881.14	1767.40
881.31	1587.18
881.47	1834.98
881.64	1755.11
881.80	1705.96
881.97	1736.68
882.13	1757.16
882.30	1658.85
882.47	1675.24
882.63	1722.34
882.80	1724.39
882.96	1601.51
883.13	1779.68
883.29	1722.34
883.46	1712.10
883.62	1814.50
883.79	1734.63
883.95	1679.33
884.12	1677.29
884.29	1748.97
884.45	1675.24
884.62	1697.77
884.78	1667.05
884.95	1742.82
885.11	1687.53
885.28	1781.73
885.44	1714.15
885.61	1740.77
885.77	1775.59
885.94	1730.53
886.10	1742.82
886.27	1667.05
886.43	1796.07
886.60	1765.35
886.76	1605.61
886.93	1611.75
887.09	1791.97
887.26	1646.57
887.42	1759.21
887.59	1734.63
887.75	1888.23
887.92	1726.44
888.08	1722.34
888.25	1759.21
888.41	1775.59
888.58	1708.01
888.74	1671.14
888.91	1673.19
>>>>>End Processed Spectral Data<<<<<
