SpectraSuite Data File
++++++++++++++++++++++++++++++++++++
Date: Mon Jun 06 14:20:17 CEST 2016
User: root
Dark Spectrum Present: No
Reference Spectrum Present: No
Number of Sampled Component Spectra: 1
Spectrometers: USB4C02835
Integration Time (usec): 100000 (USB4C02835)
Spectra Averaged: 1 (USB4C02835)
Boxcar Smoothing: 0 (USB4C02835)
Correct for Electrical Dark: No (USB4C02835)
Strobe/Lamp Enabled: No (USB4C02835)
Correct for Detector Non-linearity: No (USB4C02835)
Correct for Stray Light: No (USB4C02835)
Number of Pixels in Processed Spectrum: 3648
>>>>>Begin Processed Spectral Data<<<<<
177.47	1501.16
177.69	1501.16
177.91	1501.16
178.13	1464.30
178.36	1443.82
178.58	1640.42
178.80	1806.31
179.02	1650.66
179.24	1619.94
179.46	1640.42
179.68	1726.44
179.90	1722.34
180.13	1697.77
180.35	1560.55
180.57	1705.96
180.79	1806.31
181.01	1687.53
181.23	1726.44
181.45	1744.87
181.67	1693.67
181.90	1765.35
182.12	1738.73
182.34	1656.81
182.56	1763.30
182.78	1746.92
183.00	1675.24
183.22	1683.43
183.44	1624.04
183.66	1873.89
183.89	1769.44
184.11	1720.29
184.33	1718.25
184.55	1722.34
184.77	1652.71
184.99	1757.16
185.21	1640.42
185.43	1828.84
185.65	1662.95
185.87	1724.39
186.10	1791.97
186.32	1832.93
186.54	1693.67
186.76	1699.81
186.98	1746.92
187.20	1712.10
187.42	1656.81
187.64	1714.15
187.86	1726.44
188.08	1746.92
188.30	1591.27
188.52	1695.72
188.75	1759.21
188.97	1834.98
189.19	1695.72
189.41	1679.33
189.63	1726.44
189.85	1771.49
190.07	1656.81
190.29	1585.13
190.51	1755.11
190.73	1615.85
190.95	1744.87
191.17	1714.15
191.39	1636.33
191.61	1685.48
191.84	1665.00
192.06	1738.73
192.28	1677.29
192.50	1927.14
192.72	1740.77
192.94	1681.38
193.16	1683.43
193.38	1722.34
193.60	1630.18
193.82	1611.75
194.04	1779.68
194.26	1753.06
194.48	1624.04
194.70	1669.09
194.92	1662.95
195.14	1800.16
195.36	1767.40
195.58	1718.25
195.80	1699.81
196.02	1613.80
196.24	1703.91
196.46	1742.82
196.69	1658.85
196.91	1867.75
197.13	1609.70
197.35	1718.25
197.57	1816.55
197.79	1757.16
198.01	1736.68
198.23	1703.91
198.45	1740.77
198.67	1673.19
198.89	1708.01
199.11	1769.44
199.33	1617.90
199.55	1593.32
199.77	1632.23
199.99	1718.25
200.21	1769.44
200.43	1728.49
200.65	1636.33
200.87	1701.86
201.09	1673.19
201.31	1660.90
201.53	1816.55
201.75	1677.29
201.97	1679.33
202.19	1683.43
202.41	1730.53
202.63	1828.84
202.85	1726.44
203.07	1691.62
203.29	1693.67
203.51	1679.33
203.73	1642.47
203.95	1937.38
204.17	1667.05
204.39	1693.67
204.61	1654.76
204.83	1689.57
205.05	1779.68
205.27	1765.35
205.49	1779.68
205.71	1751.01
205.93	1591.27
206.15	1638.38
206.37	1667.05
206.59	1685.48
206.81	1718.25
207.03	1634.28
207.25	1636.33
207.47	1736.68
207.69	1699.81
207.91	1808.36
208.13	1845.22
208.34	1593.32
208.56	1632.23
208.78	1667.05
209.00	1763.30
209.22	1638.38
209.44	1677.29
209.66	1642.47
209.88	1683.43
210.10	1673.19
210.32	1632.23
210.54	1771.49
210.76	1679.33
210.98	1736.68
211.20	1595.37
211.42	1683.43
211.64	1769.44
211.86	1728.49
212.08	1669.09
212.30	1638.38
212.52	1652.71
212.74	1730.53
212.96	1675.24
213.17	1705.96
213.39	1740.77
213.61	1761.25
213.83	1660.90
214.05	1611.75
214.27	1736.68
214.49	1603.56
214.71	1712.10
214.93	1722.34
215.15	1695.72
215.37	1728.49
215.59	1683.43
215.81	1738.73
216.03	1730.53
216.24	1710.05
216.46	1705.96
216.68	1691.62
216.90	1738.73
217.12	1724.39
217.34	1728.49
217.56	1744.87
217.78	1814.50
218.00	1742.82
218.22	1730.53
218.44	1726.44
218.66	1744.87
218.87	1771.49
219.09	1605.61
219.31	1677.29
219.53	1697.77
219.75	1654.76
219.97	1689.57
220.19	1697.77
220.41	1755.11
220.63	1767.40
220.85	1722.34
221.06	1689.57
221.28	1763.30
221.50	1671.14
221.72	1689.57
221.94	1708.01
222.16	1751.01
222.38	1732.58
222.60	1691.62
222.82	1722.34
223.03	1720.29
223.25	1595.37
223.47	1783.78
223.69	1867.75
223.91	1693.67
224.13	1708.01
224.35	1665.00
224.57	1828.84
224.78	1710.05
225.00	1630.18
225.22	1656.81
225.44	1693.67
225.66	1748.97
225.88	1658.85
226.10	1761.25
226.32	1757.16
226.53	1736.68
226.75	1681.38
226.97	1720.29
227.19	1683.43
227.41	1607.66
227.63	1650.66
227.85	1644.52
228.06	1630.18
228.28	1654.76
228.50	1791.97
228.72	1619.94
228.94	1716.20
229.16	1628.14
229.37	1665.00
229.59	1716.20
229.81	1773.54
230.03	1697.77
230.25	1646.57
230.47	1593.32
230.69	1615.85
230.90	1810.40
231.12	1626.09
231.34	1720.29
231.56	1849.32
231.78	1652.71
232.00	1628.14
232.21	1722.34
232.43	1732.58
232.65	1619.94
232.87	1648.61
233.09	1599.46
233.30	1718.25
233.52	1728.49
233.74	1658.85
233.96	1681.38
234.18	1714.15
234.40	1705.96
234.61	1763.30
234.83	1593.32
235.05	1591.27
235.27	1828.84
235.49	1843.17
235.70	1718.25
235.92	1769.44
236.14	1773.54
236.36	1843.17
236.58	1644.52
236.79	1744.87
237.01	1683.43
237.23	1646.57
237.45	1732.58
237.67	1705.96
237.88	1658.85
238.10	1781.73
238.32	1644.52
238.54	1673.19
238.76	1720.29
238.97	1613.80
239.19	1701.86
239.41	1687.53
239.63	1775.59
239.85	1673.19
240.06	1673.19
240.28	1710.05
240.50	1785.83
240.72	1683.43
240.93	1613.80
241.15	1804.26
241.37	1732.58
241.59	1742.82
241.81	1701.86
242.02	1673.19
242.24	1732.58
242.46	1740.77
242.68	1710.05
242.89	1722.34
243.11	1748.97
243.33	1662.95
243.55	1665.00
243.76	1777.64
243.98	1667.05
244.20	1718.25
244.42	1626.09
244.64	1650.66
244.85	1648.61
245.07	1626.09
245.29	1763.30
245.51	1816.55
245.72	1753.06
245.94	1748.97
246.16	1736.68
246.38	1708.01
246.59	1607.66
246.81	1652.71
247.03	1654.76
247.24	1601.51
247.46	1644.52
247.68	1714.15
247.90	1683.43
248.11	1693.67
248.33	1763.30
248.55	1724.39
248.77	1724.39
248.98	1757.16
249.20	1761.25
249.42	1703.91
249.64	1718.25
249.85	1736.68
250.07	1712.10
250.29	1658.85
250.50	1699.81
250.72	1640.42
250.94	1708.01
251.16	1806.31
251.37	1718.25
251.59	1685.48
251.81	1773.54
252.02	1738.73
252.24	1644.52
252.46	1763.30
252.68	1669.09
252.89	1736.68
253.11	1650.66
253.33	1865.70
253.54	1755.11
253.76	1683.43
253.98	1677.29
254.20	1695.72
254.41	1503.21
254.63	1714.15
254.85	1615.85
255.06	1673.19
255.28	1636.33
255.50	1687.53
255.71	1718.25
255.93	1701.86
256.15	1667.05
256.36	1783.78
256.58	1730.53
256.80	1679.33
257.02	1714.15
257.23	1656.81
257.45	1671.14
257.67	1693.67
257.88	1654.76
258.10	1701.86
258.32	1769.44
258.53	1724.39
258.75	1800.16
258.97	1691.62
259.18	1726.44
259.40	1703.91
259.62	1843.17
259.83	1785.83
260.05	1710.05
260.27	1916.90
260.48	1810.40
260.70	1660.90
260.92	1736.68
261.13	1791.97
261.35	1695.72
261.57	1714.15
261.78	1585.13
262.00	1642.47
262.22	1689.57
262.43	1630.18
262.65	1687.53
262.86	1697.77
263.08	1863.65
263.30	1734.63
263.51	1665.00
263.73	1640.42
263.95	1701.86
264.16	1624.04
264.38	1648.61
264.60	1714.15
264.81	1703.91
265.03	1724.39
265.25	1728.49
265.46	1757.16
265.68	1802.21
265.89	1714.15
266.11	1648.61
266.33	1802.21
266.54	1716.20
266.76	1720.29
266.98	1732.58
267.19	1746.92
267.41	1746.92
267.62	1681.38
267.84	1570.79
268.06	1759.21
268.27	1679.33
268.49	1798.12
268.70	1736.68
268.92	1689.57
269.14	1658.85
269.35	1640.42
269.57	1724.39
269.79	1712.10
270.00	1660.90
270.22	1804.26
270.43	1691.62
270.65	1673.19
270.87	1703.91
271.08	1791.97
271.30	1763.30
271.51	1712.10
271.73	1798.12
271.95	1832.93
272.16	1716.20
272.38	1769.44
272.59	1718.25
272.81	1621.99
273.02	1705.96
273.24	1718.25
273.46	1681.38
273.67	1632.23
273.89	1687.53
274.10	1656.81
274.32	1771.49
274.54	1742.82
274.75	1710.05
274.97	1654.76
275.18	1734.63
275.40	1714.15
275.61	1693.67
275.83	1744.87
276.05	1644.52
276.26	1621.99
276.48	1804.26
276.69	1669.09
276.91	1656.81
277.12	1724.39
277.34	1742.82
277.55	1738.73
277.77	1662.95
277.99	1675.24
278.20	1646.57
278.42	1615.85
278.63	1654.76
278.85	1695.72
279.06	1636.33
279.28	1691.62
279.49	1763.30
279.71	1718.25
279.93	1755.11
280.14	1714.15
280.36	1685.48
280.57	1695.72
280.79	1753.06
281.00	1607.66
281.22	1669.09
281.43	1712.10
281.65	1624.04
281.86	1609.70
282.08	1736.68
282.29	1789.92
282.51	1566.70
282.73	1648.61
282.94	1597.42
283.16	1791.97
283.37	1861.60
283.59	1615.85
283.80	1730.53
284.02	1640.42
284.23	1730.53
284.45	1599.46
284.66	1677.29
284.88	1679.33
285.09	1722.34
285.31	1675.24
285.52	1724.39
285.74	1662.95
285.95	1681.38
286.17	1710.05
286.38	1699.81
286.60	1644.52
286.81	1660.90
287.03	1677.29
287.24	1712.10
287.46	1691.62
287.67	1730.53
287.89	1796.07
288.10	1585.13
288.32	1689.57
288.53	1757.16
288.75	1705.96
288.96	1742.82
289.18	1624.04
289.39	1748.97
289.61	1755.11
289.82	1771.49
290.04	1789.92
290.25	1650.66
290.47	1673.19
290.68	1640.42
290.90	1755.11
291.11	1548.26
291.33	1785.83
291.54	1697.77
291.76	1656.81
291.97	1718.25
292.18	1732.58
292.40	1599.46
292.61	1673.19
292.83	1843.17
293.04	1708.01
293.26	1765.35
293.47	1695.72
293.69	1621.99
293.90	1742.82
294.12	1767.40
294.33	1718.25
294.55	1665.00
294.76	1746.92
294.97	1755.11
295.19	1773.54
295.40	1675.24
295.62	1755.11
295.83	1714.15
296.05	1699.81
296.26	1771.49
296.48	1660.90
296.69	1669.09
296.90	1718.25
297.12	1722.34
297.33	1753.06
297.55	1740.77
297.76	1783.78
297.98	1738.73
298.19	1693.67
298.41	1665.00
298.62	1652.71
298.83	1814.50
299.05	1699.81
299.26	1603.56
299.48	1675.24
299.69	1789.92
299.90	1656.81
300.12	1562.60
300.33	1800.16
300.55	1714.15
300.76	1697.77
300.98	1662.95
301.19	1732.58
301.40	1720.29
301.62	1658.85
301.83	1757.16
302.05	1724.39
302.26	1683.43
302.47	1617.90
302.69	1654.76
302.90	1671.14
303.12	1628.14
303.33	1738.73
303.54	1816.55
303.76	1642.47
303.97	1705.96
304.19	1757.16
304.40	1665.00
304.61	1722.34
304.83	1753.06
305.04	1767.40
305.26	1746.92
305.47	1587.18
305.68	1640.42
305.90	1652.71
306.11	1777.64
306.33	1675.24
306.54	1689.57
306.75	1636.33
306.97	1658.85
307.18	1636.33
307.39	1689.57
307.61	1798.12
307.82	1738.73
308.04	1742.82
308.25	1605.61
308.46	1722.34
308.68	1687.53
308.89	1718.25
309.10	1689.57
309.32	1652.71
309.53	1683.43
309.74	1777.64
309.96	1660.90
310.17	1781.73
310.39	1671.14
310.60	1771.49
310.81	1716.20
311.03	1632.23
311.24	1775.59
311.45	1722.34
311.67	1771.49
311.88	1767.40
312.09	1640.42
312.31	1658.85
312.52	1775.59
312.73	1642.47
312.95	1642.47
313.16	1656.81
313.37	1757.16
313.59	1789.92
313.80	1763.30
314.01	1746.92
314.23	1681.38
314.44	1693.67
314.65	1578.98
314.87	1636.33
315.08	1624.04
315.29	1677.29
315.51	1642.47
315.72	1646.57
315.93	1791.97
316.15	1703.91
316.36	1640.42
316.57	1742.82
316.79	1726.44
317.00	1595.37
317.21	1779.68
317.43	1685.48
317.64	1667.05
317.85	1687.53
318.07	1587.18
318.28	1732.58
318.49	1845.22
318.70	1988.58
318.92	1841.12
319.13	1873.89
319.34	1882.08
319.56	1882.08
319.77	1777.64
319.98	1810.40
320.20	1710.05
320.41	1751.01
320.62	1708.01
320.83	1624.04
321.05	1816.55
321.26	1714.15
321.47	1720.29
321.69	1789.92
321.90	1597.42
322.11	1687.53
322.32	1675.24
322.54	1746.92
322.75	1687.53
322.96	1837.03
323.18	1644.52
323.39	1599.46
323.60	1642.47
323.81	1746.92
324.03	1660.90
324.24	1691.62
324.45	1718.25
324.66	1566.70
324.88	1722.34
325.09	1669.09
325.30	1671.14
325.52	1660.90
325.73	1677.29
325.94	1583.08
326.15	1587.18
326.37	1689.57
326.58	1693.67
326.79	1728.49
327.00	1677.29
327.22	1699.81
327.43	1632.23
327.64	1736.68
327.85	1691.62
328.07	1726.44
328.28	1814.50
328.49	1681.38
328.70	1691.62
328.92	1634.28
329.13	1732.58
329.34	1740.77
329.55	1736.68
329.76	1753.06
329.98	1705.96
330.19	1777.64
330.40	1703.91
330.61	1636.33
330.83	1675.24
331.04	1667.05
331.25	1771.49
331.46	1689.57
331.68	1617.90
331.89	1763.30
332.10	1728.49
332.31	1576.94
332.52	1673.19
332.74	1841.12
332.95	1574.89
333.16	1677.29
333.37	1699.81
333.58	1703.91
333.80	1716.20
334.01	1685.48
334.22	1628.14
334.43	1644.52
334.64	1685.48
334.86	1603.56
335.07	1593.32
335.28	1828.84
335.49	1632.23
335.70	1665.00
335.92	1742.82
336.13	1767.40
336.34	1755.11
336.55	1708.01
336.76	1773.54
336.98	1599.46
337.19	1781.73
337.40	1740.77
337.61	1814.50
337.82	1628.14
338.04	1650.66
338.25	1589.22
338.46	1708.01
338.67	1667.05
338.88	1634.28
339.09	1658.85
339.31	1683.43
339.52	1759.21
339.73	1646.57
339.94	1712.10
340.15	1775.59
340.36	1714.15
340.58	1763.30
340.79	1648.61
341.00	1708.01
341.21	1626.09
341.42	1812.45
341.63	1701.86
341.85	1740.77
342.06	1632.23
342.27	1658.85
342.48	1667.05
342.69	1640.42
342.90	1708.01
343.12	1710.05
343.33	1634.28
343.54	1718.25
343.75	1734.63
343.96	1691.62
344.17	1665.00
344.38	1683.43
344.60	1689.57
344.81	1660.90
345.02	1644.52
345.23	1779.68
345.44	1820.64
345.65	1720.29
345.86	1724.39
346.07	1669.09
346.29	1624.04
346.50	1720.29
346.71	1765.35
346.92	1761.25
347.13	1796.07
347.34	1660.90
347.55	1751.01
347.76	1697.77
347.98	1572.84
348.19	1662.95
348.40	1816.55
348.61	1699.81
348.82	1810.40
349.03	1759.21
349.24	1650.66
349.45	1812.45
349.66	1636.33
349.88	1742.82
350.09	1736.68
350.30	1787.88
350.51	1779.68
350.72	1701.86
350.93	1785.83
351.14	1656.81
351.35	1693.67
351.56	1697.77
351.77	1718.25
351.99	1712.10
352.20	1814.50
352.41	1720.29
352.62	1615.85
352.83	1667.05
353.04	1691.62
353.25	1599.46
353.46	1714.15
353.67	1753.06
353.88	1558.50
354.09	1718.25
354.30	1718.25
354.52	1775.59
354.73	1742.82
354.94	1681.38
355.15	1718.25
355.36	1673.19
355.57	1644.52
355.78	1757.16
355.99	1611.75
356.20	1638.38
356.41	1771.49
356.62	1757.16
356.83	1716.20
357.04	1851.36
357.25	1638.38
357.46	1695.72
357.68	1607.66
357.89	1619.94
358.10	1722.34
358.31	1720.29
358.52	1708.01
358.73	1636.33
358.94	1636.33
359.15	1634.28
359.36	1693.67
359.57	1650.66
359.78	1638.38
359.99	1798.12
360.20	1599.46
360.41	1665.00
360.62	1701.86
360.83	1742.82
361.04	1708.01
361.25	1767.40
361.46	1865.70
361.67	1703.91
361.88	1757.16
362.09	1738.73
362.30	1712.10
362.51	1671.14
362.72	1724.39
362.93	1710.05
363.14	1785.83
363.35	1751.01
363.56	1738.73
363.78	1722.34
363.99	1685.48
364.20	1562.60
364.41	1730.53
364.62	1738.73
364.83	1685.48
365.04	1656.81
365.25	1650.66
365.46	1814.50
365.67	1617.90
365.88	1597.42
366.09	1644.52
366.30	1669.09
366.51	1703.91
366.72	1650.66
366.93	1687.53
367.14	1658.85
367.35	1757.16
367.56	1687.53
367.77	1853.41
367.98	1710.05
368.18	1714.15
368.39	1791.97
368.60	1591.27
368.81	1748.97
369.02	1697.77
369.23	1734.63
369.44	1607.66
369.65	1687.53
369.86	1691.62
370.07	1726.44
370.28	1654.76
370.49	1687.53
370.70	1730.53
370.91	1628.14
371.12	1652.71
371.33	1708.01
371.54	1714.15
371.75	1724.39
371.96	1599.46
372.17	1693.67
372.38	1683.43
372.59	1701.86
372.80	1695.72
373.01	1687.53
373.22	1720.29
373.43	1636.33
373.64	1607.66
373.85	1828.84
374.06	1779.68
374.26	1718.25
374.47	1693.67
374.68	1755.11
374.89	1744.87
375.10	1718.25
375.31	1759.21
375.52	1679.33
375.73	1669.09
375.94	1636.33
376.15	1822.69
376.36	1683.43
376.57	1728.49
376.78	1712.10
376.99	1726.44
377.20	1744.87
377.40	1691.62
377.61	1767.40
377.82	1644.52
378.03	1787.88
378.24	1736.68
378.45	1662.95
378.66	1794.02
378.87	1589.22
379.08	1615.85
379.29	1699.81
379.50	1705.96
379.71	1738.73
379.91	1773.54
380.12	1705.96
380.33	1675.24
380.54	1683.43
380.75	1673.19
380.96	1699.81
381.17	1773.54
381.38	1738.73
381.59	1775.59
381.80	1730.53
382.00	1837.03
382.21	1675.24
382.42	1787.88
382.63	1927.14
382.84	1769.44
383.05	1679.33
383.26	1765.35
383.47	1759.21
383.68	1773.54
383.88	1761.25
384.09	1683.43
384.30	1761.25
384.51	1855.46
384.72	1681.38
384.93	1642.47
385.14	1695.72
385.35	1738.73
385.55	1585.13
385.76	1714.15
385.97	1691.62
386.18	1675.24
386.39	1613.80
386.60	1703.91
386.81	1646.57
387.02	1689.57
387.22	1632.23
387.43	1773.54
387.64	1732.58
387.85	1906.66
388.06	2242.53
388.27	4335.55
388.48	6817.69
388.68	8392.58
388.89	9574.25
389.10	9660.27
389.31	8593.28
389.52	7593.87
389.73	6770.58
389.93	6240.16
390.14	5920.68
390.35	5203.89
390.56	4435.90
390.77	3737.54
390.98	2965.46
391.18	2502.62
391.39	2156.51
391.60	1816.55
391.81	1841.12
392.02	1746.92
392.23	1796.07
392.43	1724.39
392.64	1781.73
392.85	1591.27
393.06	1820.64
393.27	1722.34
393.47	1689.57
393.68	1703.91
393.89	1757.16
394.10	1765.35
394.31	1646.57
394.52	1607.66
394.72	1652.71
394.93	1753.06
395.14	1607.66
395.35	1712.10
395.56	1675.24
395.76	1730.53
395.97	1812.45
396.18	1929.19
396.39	1867.75
396.60	2000.87
396.80	1906.66
397.01	1834.98
397.22	1818.60
397.43	1804.26
397.64	1816.55
397.84	1787.88
398.05	1832.93
398.26	1785.83
398.47	1785.83
398.67	1736.68
398.88	1802.21
399.09	1724.39
399.30	1693.67
399.51	1685.48
399.71	1665.00
399.92	1699.81
400.13	1771.49
400.34	1708.01
400.54	1785.83
400.75	1875.94
400.96	1767.40
401.17	1783.78
401.37	1785.83
401.58	1720.29
401.79	1718.25
402.00	1832.93
402.21	1982.43
402.41	1902.56
402.62	1945.57
402.83	2041.82
403.04	1998.82
403.24	2072.54
403.45	1834.98
403.66	1873.89
403.87	1843.17
404.07	1884.13
404.28	1937.38
404.49	1837.03
404.70	1753.06
404.90	1865.70
405.11	1701.86
405.32	1773.54
405.52	1650.66
405.73	1728.49
405.94	1642.47
406.15	1681.38
406.35	1669.09
406.56	1736.68
406.77	1789.92
406.98	1781.73
407.18	1648.61
407.39	1705.96
407.60	1714.15
407.80	1804.26
408.01	1640.42
408.22	1777.64
408.43	1689.57
408.63	1738.73
408.84	1726.44
409.05	1814.50
409.25	1691.62
409.46	1654.76
409.67	1671.14
409.88	1599.46
410.08	1736.68
410.29	1701.86
410.50	1759.21
410.70	1781.73
410.91	1636.33
411.12	1732.58
411.32	1638.38
411.53	1665.00
411.74	1787.88
411.95	1787.88
412.15	1808.36
412.36	1767.40
412.57	1806.31
412.77	1820.64
412.98	1703.91
413.19	1732.58
413.39	1773.54
413.60	1820.64
413.81	1794.02
414.01	1708.01
414.22	1693.67
414.43	1665.00
414.63	1767.40
414.84	1755.11
415.05	1716.20
415.25	1681.38
415.46	1818.60
415.67	1701.86
415.87	1671.14
416.08	1734.63
416.29	1685.48
416.49	1771.49
416.70	1662.95
416.91	1624.04
417.11	1697.77
417.32	1767.40
417.53	1736.68
417.73	1691.62
417.94	1697.77
418.15	1724.39
418.35	1685.48
418.56	1734.63
418.77	1863.65
418.97	1656.81
419.18	1624.04
419.38	1523.69
419.59	1734.63
419.80	1804.26
420.00	1613.80
420.21	1796.07
420.42	1794.02
420.62	1730.53
420.83	1689.57
421.04	1697.77
421.24	1716.20
421.45	1712.10
421.65	1773.54
421.86	1724.39
422.07	1703.91
422.27	1718.25
422.48	1773.54
422.69	1683.43
422.89	1730.53
423.10	1699.81
423.30	1605.61
423.51	1738.73
423.72	1705.96
423.92	1791.97
424.13	1574.89
424.33	1673.19
424.54	1808.36
424.75	1710.05
424.95	1820.64
425.16	1714.15
425.36	1644.52
425.57	1736.68
425.78	1757.16
425.98	1705.96
426.19	1748.97
426.39	1597.42
426.60	1716.20
426.81	1839.08
427.01	1650.66
427.22	1701.86
427.42	1687.53
427.63	1658.85
427.83	1798.12
428.04	1837.03
428.25	1796.07
428.45	1716.20
428.66	1767.40
428.86	1720.29
429.07	1660.90
429.28	1769.44
429.48	1683.43
429.69	1708.01
429.89	1687.53
430.10	1587.18
430.30	1746.92
430.51	1742.82
430.71	1662.95
430.92	1730.53
431.13	1667.05
431.33	1742.82
431.54	1724.39
431.74	1820.64
431.95	1828.84
432.15	1722.34
432.36	1673.19
432.56	1744.87
432.77	1828.84
432.98	1798.12
433.18	1767.40
433.39	1689.57
433.59	1685.48
433.80	1832.93
434.00	1882.08
434.21	1658.85
434.41	1671.14
434.62	1834.98
434.82	1648.61
435.03	1681.38
435.23	1681.38
435.44	1607.66
435.64	1753.06
435.85	1701.86
436.06	1800.16
436.26	1763.30
436.47	1701.86
436.67	1662.95
436.88	1650.66
437.08	1767.40
437.29	1791.97
437.49	1710.05
437.70	1761.25
437.90	1767.40
438.11	1802.21
438.31	1808.36
438.52	1837.03
438.72	1851.36
438.93	1800.16
439.13	1816.55
439.34	1849.32
439.54	1724.39
439.75	1791.97
439.95	1703.91
440.16	1679.33
440.36	1693.67
440.57	1722.34
440.77	1703.91
440.98	1695.72
441.18	1785.83
441.39	1716.20
441.59	1691.62
441.80	1789.92
442.00	1761.25
442.21	1791.97
442.41	1673.19
442.62	1810.40
442.82	1693.67
443.02	1683.43
443.23	1806.31
443.43	1708.01
443.64	1798.12
443.84	1671.14
444.05	1759.21
444.25	1771.49
444.46	1722.34
444.66	1703.91
444.87	1830.88
445.07	1615.85
445.28	1710.05
445.48	1773.54
445.69	1837.03
445.89	1918.95
446.09	1697.77
446.30	2004.96
446.50	2617.30
446.71	3745.73
446.91	4399.04
447.12	4810.68
447.32	4837.30
447.53	4364.22
447.73	3911.62
447.93	3557.32
448.14	3350.48
448.34	3229.65
448.55	3004.37
448.75	2740.18
448.96	2670.55
449.16	2418.65
449.36	2254.81
449.57	2037.73
449.77	1937.38
449.98	1738.73
450.18	1753.06
450.39	1824.74
450.59	1775.59
450.79	1763.30
451.00	1724.39
451.20	1753.06
451.41	1740.77
451.61	1755.11
451.81	1718.25
452.02	1759.21
452.22	1673.19
452.43	1667.05
452.63	1714.15
452.84	1712.10
453.04	1722.34
453.24	1703.91
453.45	1693.67
453.65	1753.06
453.86	1777.64
454.06	1787.88
454.26	1746.92
454.47	1697.77
454.67	1812.45
454.87	1742.82
455.08	1765.35
455.28	1818.60
455.49	1794.02
455.69	1677.29
455.89	1861.60
456.10	1767.40
456.30	1777.64
456.51	1798.12
456.71	1757.16
456.91	1730.53
457.12	1642.47
457.32	1738.73
457.52	1603.56
457.73	1843.17
457.93	1763.30
458.14	1656.81
458.34	1607.66
458.54	1726.44
458.75	1759.21
458.95	1783.78
459.15	1693.67
459.36	1732.58
459.56	1775.59
459.76	1828.84
459.97	1744.87
460.17	1701.86
460.37	1738.73
460.58	1757.16
460.78	1675.24
460.99	1669.09
461.19	1757.16
461.39	1734.63
461.60	1697.77
461.80	1740.77
462.00	1708.01
462.21	1652.71
462.41	1683.43
462.61	1665.00
462.82	1632.23
463.02	1761.25
463.22	1632.23
463.43	1802.21
463.63	1753.06
463.83	1824.74
464.04	1699.81
464.24	1789.92
464.44	1714.15
464.64	1712.10
464.85	1875.94
465.05	1822.69
465.25	1746.92
465.46	1818.60
465.66	1849.32
465.86	1691.62
466.07	1722.34
466.27	1689.57
466.47	1718.25
466.68	1710.05
466.88	1718.25
467.08	1730.53
467.29	1726.44
467.49	1740.77
467.69	1710.05
467.89	1763.30
468.10	1767.40
468.30	1755.11
468.50	1789.92
468.71	1716.20
468.91	1615.85
469.11	1751.01
469.31	1734.63
469.52	1581.03
469.72	1785.83
469.92	1865.70
470.13	1746.92
470.33	1728.49
470.53	1847.27
470.73	2158.56
470.94	2242.53
471.14	2439.13
471.34	2529.24
471.54	2355.16
471.75	2179.04
471.95	2252.77
472.15	2140.13
472.36	2060.26
472.56	2103.26
472.76	2025.44
472.96	2004.96
473.17	1953.76
473.37	1886.18
473.57	1806.31
473.77	1824.74
473.98	1728.49
474.18	1658.85
474.38	1896.42
474.58	1644.52
474.79	1697.77
474.99	1746.92
475.19	1751.01
475.39	1703.91
475.60	1705.96
475.80	1701.86
476.00	1699.81
476.20	1662.95
476.41	1726.44
476.61	1814.50
476.81	1828.84
477.01	1744.87
477.21	1888.23
477.42	1855.46
477.62	1667.05
477.82	1806.31
478.02	1660.90
478.23	1818.60
478.43	1632.23
478.63	1705.96
478.83	1714.15
479.03	1716.20
479.24	1759.21
479.44	1771.49
479.64	1703.91
479.84	1654.76
480.04	1681.38
480.25	1777.64
480.45	1652.71
480.65	1652.71
480.85	1804.26
481.06	1724.39
481.26	1728.49
481.46	1849.32
481.66	1746.92
481.86	1644.52
482.06	1787.88
482.27	1687.53
482.47	1689.57
482.67	1671.14
482.87	1697.77
483.07	1839.08
483.28	1652.71
483.48	1626.09
483.68	1744.87
483.88	1673.19
484.08	1648.61
484.29	1683.43
484.49	1681.38
484.69	1685.48
484.89	1763.30
485.09	1771.49
485.29	1732.58
485.50	1681.38
485.70	1683.43
485.90	1730.53
486.10	1736.68
486.30	1744.87
486.50	1789.92
486.71	1691.62
486.91	1822.69
487.11	1728.49
487.31	1652.71
487.51	1681.38
487.71	1624.04
487.91	1681.38
488.12	1691.62
488.32	1572.84
488.52	1708.01
488.72	1621.99
488.92	1677.29
489.12	1812.45
489.32	1824.74
489.53	1695.72
489.73	1665.00
489.93	1816.55
490.13	1738.73
490.33	1630.18
490.53	1710.05
490.73	1789.92
490.94	1699.81
491.14	1773.54
491.34	1869.80
491.54	2129.89
491.74	2514.91
491.94	2967.51
492.14	3112.91
492.34	2926.55
492.54	2762.71
492.75	2414.56
492.95	2406.36
493.15	2279.39
493.35	2222.05
493.55	2203.61
493.75	2142.18
493.95	2181.09
494.15	2002.91
494.35	1816.55
494.56	1900.52
494.76	1851.36
494.96	1775.59
495.16	1789.92
495.36	1822.69
495.56	1767.40
495.76	1759.21
495.96	1814.50
496.16	1615.85
496.36	1830.88
496.56	1732.58
496.77	1681.38
496.97	1789.92
497.17	1814.50
497.37	1744.87
497.57	1722.34
497.77	1761.25
497.97	1685.48
498.17	1724.39
498.37	1701.86
498.57	1767.40
498.77	1667.05
498.97	1718.25
499.17	1832.93
499.38	1726.44
499.58	1708.01
499.78	1748.97
499.98	1877.99
500.18	1697.77
500.38	1773.54
500.58	1939.43
500.78	2553.82
500.98	4622.27
501.18	5818.28
501.38	6838.17
501.58	7083.92
501.78	6653.85
501.98	5638.06
502.18	4890.55
502.38	4460.48
502.58	4048.83
502.78	3852.23
502.98	3688.39
503.18	3352.52
503.38	3235.79
503.59	2713.56
503.79	2693.08
503.99	2445.27
504.19	2254.81
504.39	2119.65
504.59	2316.25
504.79	2093.02
504.99	2052.06
505.19	1877.99
505.39	1806.31
505.59	1886.18
505.79	1896.42
505.99	1920.99
506.19	1779.68
506.39	1826.79
506.59	1779.68
506.79	1730.53
506.99	1894.37
507.19	1740.77
507.39	1773.54
507.59	1683.43
507.79	1716.20
507.99	1673.19
508.19	1755.11
508.39	1742.82
508.59	1736.68
508.79	1882.08
508.99	1812.45
509.19	1787.88
509.39	1804.26
509.59	1746.92
509.79	1675.24
509.99	1734.63
510.19	1834.98
510.39	1755.11
510.59	1796.07
510.79	1697.77
510.99	1703.91
511.19	1712.10
511.39	1886.18
511.59	1759.21
511.79	1765.35
511.99	1753.06
512.19	1837.03
512.38	1763.30
512.58	1621.99
512.78	1746.92
512.98	1742.82
513.18	1812.45
513.38	1691.62
513.58	1748.97
513.78	1730.53
513.98	1771.49
514.18	1701.86
514.38	1783.78
514.58	1732.58
514.78	1724.39
514.98	1650.66
515.18	1724.39
515.38	1673.19
515.58	1787.88
515.78	1685.48
515.98	1785.83
516.18	1746.92
516.38	1693.67
516.57	1701.86
516.77	1720.29
516.97	1732.58
517.17	1689.57
517.37	1632.23
517.57	1769.44
517.77	1761.25
517.97	1705.96
518.17	1787.88
518.37	1759.21
518.57	1689.57
518.77	1687.53
518.97	1691.62
519.16	1765.35
519.36	1771.49
519.56	1648.61
519.76	1687.53
519.96	1701.86
520.16	1867.75
520.36	1658.85
520.56	1742.82
520.76	1613.80
520.96	1660.90
521.16	1740.77
521.35	1736.68
521.55	1718.25
521.75	1718.25
521.95	1751.01
522.15	1710.05
522.35	1624.04
522.55	1658.85
522.75	1794.02
522.95	1738.73
523.14	1699.81
523.34	1759.21
523.54	1732.58
523.74	1767.40
523.94	1785.83
524.14	1656.81
524.34	1804.26
524.54	1769.44
524.73	1705.96
524.93	1761.25
525.13	1677.29
525.33	1654.76
525.53	1976.29
525.73	1804.26
525.93	1740.77
526.13	1714.15
526.32	1761.25
526.52	1744.87
526.72	1802.21
526.92	1716.20
527.12	1751.01
527.32	1595.37
527.52	1796.07
527.71	1687.53
527.91	1738.73
528.11	1781.73
528.31	1746.92
528.51	1642.47
528.71	1744.87
528.90	1744.87
529.10	1751.01
529.30	1814.50
529.50	1638.38
529.70	1699.81
529.90	1722.34
530.09	1726.44
530.29	1656.81
530.49	1687.53
530.69	1929.19
530.89	1765.35
531.09	1886.18
531.28	1632.23
531.48	1794.02
531.68	1714.15
531.88	1701.86
532.08	1718.25
532.28	1755.11
532.47	1775.59
532.67	1800.16
532.87	1689.57
533.07	1691.62
533.27	1751.01
533.46	1748.97
533.66	1818.60
533.86	1755.11
534.06	1789.92
534.26	1701.86
534.45	1703.91
534.65	1794.02
534.85	1830.88
535.05	1593.32
535.25	1816.55
535.44	1699.81
535.64	1779.68
535.84	1716.20
536.04	1640.42
536.24	1746.92
536.43	1691.62
536.63	1771.49
536.83	1703.91
537.03	1744.87
537.22	1665.00
537.42	1679.33
537.62	1714.15
537.82	1656.81
538.02	1753.06
538.21	1806.31
538.41	1888.23
538.61	1816.55
538.81	1728.49
539.00	1757.16
539.20	1665.00
539.40	1689.57
539.60	1753.06
539.79	1853.41
539.99	1710.05
540.19	1689.57
540.39	1736.68
540.58	1734.63
540.78	1767.40
540.98	1763.30
541.18	1716.20
541.37	1775.59
541.57	1763.30
541.77	1685.48
541.97	1730.53
542.16	1703.91
542.36	1712.10
542.56	1818.60
542.76	1873.89
542.95	1734.63
543.15	1714.15
543.35	1769.44
543.54	1775.59
543.74	1691.62
543.94	1787.88
544.14	1644.52
544.33	1828.84
544.53	1710.05
544.73	1679.33
544.93	1730.53
545.12	1736.68
545.32	1755.11
545.52	1703.91
545.71	1619.94
545.91	1724.39
546.11	1712.10
546.30	1665.00
546.50	1773.54
546.70	1759.21
546.90	1810.40
547.09	1656.81
547.29	1746.92
547.49	1781.73
547.68	1714.15
547.88	1744.87
548.08	1787.88
548.27	2099.17
548.47	1646.57
548.67	1597.42
548.87	1757.16
549.06	1736.68
549.26	1828.84
549.46	1808.36
549.65	1800.16
549.85	1781.73
550.05	1746.92
550.24	1683.43
550.44	1789.92
550.64	1765.35
550.83	1685.48
551.03	1802.21
551.23	1740.77
551.42	1769.44
551.62	1755.11
551.82	1777.64
552.01	1724.39
552.21	1753.06
552.41	1697.77
552.60	1839.08
552.80	1703.91
553.00	1767.40
553.19	1697.77
553.39	1791.97
553.59	1718.25
553.78	1804.26
553.98	1734.63
554.17	1722.34
554.37	1732.58
554.57	1828.84
554.76	1718.25
554.96	1693.67
555.16	1765.35
555.35	1763.30
555.55	1755.11
555.75	1691.62
555.94	1777.64
556.14	1675.24
556.33	1773.54
556.53	1722.34
556.73	1789.92
556.92	1746.92
557.12	1771.49
557.32	1779.68
557.51	1845.22
557.71	1763.30
557.90	1853.41
558.10	1796.07
558.30	1730.53
558.49	1769.44
558.69	1691.62
558.88	1691.62
559.08	1810.40
559.28	1628.14
559.47	1714.15
559.67	1810.40
559.86	1800.16
560.06	1769.44
560.26	1759.21
560.45	1804.26
560.65	1697.77
560.84	1861.60
561.04	1728.49
561.24	1744.87
561.43	1722.34
561.63	1832.93
561.82	1724.39
562.02	1771.49
562.22	1716.20
562.41	1708.01
562.61	1751.01
562.80	1718.25
563.00	1877.99
563.19	1814.50
563.39	1771.49
563.59	1767.40
563.78	1701.86
563.98	1699.81
564.17	1705.96
564.37	1640.42
564.56	1699.81
564.76	1671.14
564.96	1697.77
565.15	1732.58
565.35	1867.75
565.54	1677.29
565.74	1857.51
565.93	1761.25
566.13	1794.02
566.32	1748.97
566.52	1757.16
566.71	1751.01
566.91	1720.29
567.11	1730.53
567.30	1671.14
567.50	1724.39
567.69	1740.77
567.89	1757.16
568.08	1693.67
568.28	1755.11
568.47	1662.95
568.67	1808.36
568.86	1691.62
569.06	1765.35
569.25	1732.58
569.45	1691.62
569.64	1701.86
569.84	1687.53
570.04	1787.88
570.23	1714.15
570.43	1738.73
570.62	1734.63
570.82	1775.59
571.01	1693.67
571.21	1736.68
571.40	1638.38
571.60	1789.92
571.79	1759.21
571.99	1628.14
572.18	1730.53
572.38	1781.73
572.57	1740.77
572.77	1802.21
572.96	1941.47
573.16	1765.35
573.35	1751.01
573.55	1894.37
573.74	1714.15
573.94	1763.30
574.13	1726.44
574.33	1845.22
574.52	1824.74
574.71	1732.58
574.91	1775.59
575.10	1689.57
575.30	1638.38
575.49	1714.15
575.69	1675.24
575.88	1837.03
576.08	1742.82
576.27	1751.01
576.47	1652.71
576.66	1859.56
576.86	1787.88
577.05	1798.12
577.25	1728.49
577.44	1857.51
577.64	1742.82
577.83	1779.68
578.02	1781.73
578.22	1789.92
578.41	1859.56
578.61	1734.63
578.80	1650.66
579.00	1759.21
579.19	1671.14
579.39	1851.36
579.58	1834.98
579.77	1740.77
579.97	1931.23
580.16	1882.08
580.36	1794.02
580.55	1822.69
580.75	1820.64
580.94	1746.92
581.13	1873.89
581.33	1871.84
581.52	1748.97
581.72	1888.23
581.91	1894.37
582.11	1759.21
582.30	1718.25
582.49	1746.92
582.69	1830.88
582.88	1765.35
583.08	1808.36
583.27	1816.55
583.47	1767.40
583.66	1787.88
583.85	1687.53
584.05	1765.35
584.24	1748.97
584.44	1775.59
584.63	1802.21
584.82	1798.12
585.02	1761.25
585.21	1849.32
585.41	1875.94
585.60	1830.88
585.79	1929.19
585.99	1959.91
586.18	1935.33
586.37	2179.04
586.57	3418.06
586.76	9971.56
586.96	24618.63
587.15	34330.10
587.34	40709.52
587.54	42472.82
587.73	36660.69
587.93	26562.15
588.12	21774.00
588.31	18575.08
588.51	16381.70
588.70	15267.61
588.89	14180.14
589.09	12654.40
589.28	10973.02
589.47	9514.86
589.67	8042.37
589.86	6496.16
590.06	4929.46
590.25	3930.05
590.44	3157.97
590.64	2617.30
590.83	2242.53
591.02	2029.54
591.22	1955.81
591.41	1929.19
591.60	1818.60
591.80	1955.81
591.99	1775.59
592.18	1746.92
592.38	1742.82
592.57	1710.05
592.76	1802.21
592.96	1767.40
593.15	1730.53
593.34	1812.45
593.54	1808.36
593.73	1834.98
593.92	1771.49
594.12	1732.58
594.31	1740.77
594.50	1824.74
594.70	1828.84
594.89	1882.08
595.08	1638.38
595.28	1810.40
595.47	1959.91
595.66	1789.92
595.86	1656.81
596.05	1716.20
596.24	1783.78
596.43	1798.12
596.63	1685.48
596.82	1757.16
597.01	1705.96
597.21	1808.36
597.40	1794.02
597.59	1732.58
597.79	1753.06
597.98	1773.54
598.17	1757.16
598.36	1736.68
598.56	1806.31
598.75	1708.01
598.94	1718.25
599.14	1712.10
599.33	1775.59
599.52	1816.55
599.71	1740.77
599.91	1769.44
600.10	1820.64
600.29	1703.91
600.48	1773.54
600.68	1791.97
600.87	1785.83
601.06	1720.29
601.26	1609.70
601.45	1746.92
601.64	1732.58
601.83	1828.84
602.03	1714.15
602.22	1693.67
602.41	1736.68
602.60	1861.60
602.80	1837.03
602.99	1814.50
603.18	1695.72
603.37	1748.97
603.57	1755.11
603.76	1755.11
603.95	1771.49
604.14	1683.43
604.34	1667.05
604.53	1669.09
604.72	1759.21
604.91	1789.92
605.10	1751.01
605.30	1665.00
605.49	1742.82
605.68	1785.83
605.87	1808.36
606.07	1689.57
606.26	1738.73
606.45	1679.33
606.64	1654.76
606.84	1736.68
607.03	1744.87
607.22	1822.69
607.41	1621.99
607.60	1701.86
607.80	1865.70
607.99	1685.48
608.18	1781.73
608.37	1740.77
608.56	1734.63
608.76	1802.21
608.95	1730.53
609.14	1648.61
609.33	1755.11
609.52	1816.55
609.72	1724.39
609.91	1779.68
610.10	1726.44
610.29	1855.46
610.48	1689.57
610.68	1742.82
610.87	1759.21
611.06	1746.92
611.25	1748.97
611.44	1773.54
611.63	1699.81
611.83	1800.16
612.02	1640.42
612.21	1839.08
612.40	1591.27
612.59	1726.44
612.79	1587.18
612.98	1699.81
613.17	1839.08
613.36	1683.43
613.55	1804.26
613.74	1738.73
613.93	1646.57
614.13	1771.49
614.32	1794.02
614.51	1734.63
614.70	1746.92
614.89	1773.54
615.08	1734.63
615.28	1994.72
615.47	1632.23
615.66	1773.54
615.85	1718.25
616.04	1736.68
616.23	1701.86
616.42	1787.88
616.62	1738.73
616.81	1742.82
617.00	1791.97
617.19	1789.92
617.38	1683.43
617.57	1804.26
617.76	1701.86
617.95	1742.82
618.15	1724.39
618.34	1783.78
618.53	1646.57
618.72	1781.73
618.91	1800.16
619.10	1798.12
619.29	1716.20
619.48	1734.63
619.68	1685.48
619.87	1746.92
620.06	1646.57
620.25	1810.40
620.44	1753.06
620.63	1720.29
620.82	1753.06
621.01	1728.49
621.20	1775.59
621.39	1728.49
621.59	1734.63
621.78	1732.58
621.97	1660.90
622.16	1677.29
622.35	1712.10
622.54	1796.07
622.73	1759.21
622.92	1667.05
623.11	1755.11
623.30	1773.54
623.49	1728.49
623.68	1728.49
623.88	1808.36
624.07	1695.72
624.26	1679.33
624.45	1740.77
624.64	1658.85
624.83	1699.81
625.02	1755.11
625.21	1712.10
625.40	1746.92
625.59	1804.26
625.78	1677.29
625.97	1820.64
626.16	1755.11
626.35	1730.53
626.54	1738.73
626.74	1820.64
626.93	1695.72
627.12	1759.21
627.31	1822.69
627.50	1824.74
627.69	1822.69
627.88	1714.15
628.07	1802.21
628.26	1708.01
628.45	1656.81
628.64	1673.19
628.83	1775.59
629.02	1710.05
629.21	1787.88
629.40	1726.44
629.59	1617.90
629.78	1748.97
629.97	1757.16
630.16	1662.95
630.35	1681.38
630.54	1644.52
630.73	1665.00
630.92	1755.11
631.11	1658.85
631.30	1677.29
631.49	1730.53
631.68	1701.86
631.87	1740.77
632.06	1599.46
632.25	1818.60
632.44	1701.86
632.63	1710.05
632.82	1687.53
633.01	1658.85
633.20	1681.38
633.39	1599.46
633.58	1636.33
633.77	1710.05
633.96	1787.88
634.15	1705.96
634.34	1822.69
634.53	1771.49
634.72	1652.71
634.91	1587.18
635.10	1646.57
635.29	1699.81
635.48	1751.01
635.67	1697.77
635.86	1675.24
636.05	1837.03
636.24	1710.05
636.43	1728.49
636.62	1714.15
636.81	1535.98
637.00	1617.90
637.19	1693.67
637.38	1785.83
637.57	1720.29
637.76	1742.82
637.95	1662.95
638.14	1744.87
638.33	1734.63
638.52	1761.25
638.71	1671.14
638.89	1634.28
639.08	1837.03
639.27	1751.01
639.46	1697.77
639.65	1773.54
639.84	1730.53
640.03	1830.88
640.22	1718.25
640.41	1853.41
640.60	1699.81
640.79	1710.05
640.98	1628.14
641.17	1804.26
641.36	1751.01
641.55	1742.82
641.74	1744.87
641.92	1701.86
642.11	1679.33
642.30	1712.10
642.49	1697.77
642.68	1673.19
642.87	1703.91
643.06	1705.96
643.25	1738.73
643.44	1671.14
643.63	1767.40
643.82	1738.73
644.00	1662.95
644.19	1689.57
644.38	1673.19
644.57	1824.74
644.76	1761.25
644.95	1685.48
645.14	1757.16
645.33	1748.97
645.52	1714.15
645.71	1636.33
645.89	1644.52
646.08	1730.53
646.27	1783.78
646.46	1839.08
646.65	1671.14
646.84	1675.24
647.03	1626.09
647.22	1767.40
647.40	1693.67
647.59	1697.77
647.78	1660.90
647.97	1730.53
648.16	1665.00
648.35	1734.63
648.54	1769.44
648.73	1724.39
648.91	1759.21
649.10	1765.35
649.29	1687.53
649.48	1662.95
649.67	1730.53
649.86	1652.71
650.05	1681.38
650.23	1755.11
650.42	1662.95
650.61	1773.54
650.80	1742.82
650.99	1820.64
651.18	1771.49
651.36	1779.68
651.55	1703.91
651.74	1738.73
651.93	1716.20
652.12	1679.33
652.31	1773.54
652.49	1705.96
652.68	1685.48
652.87	1861.60
653.06	1755.11
653.25	1771.49
653.44	1710.05
653.62	1765.35
653.81	1738.73
654.00	1791.97
654.19	1794.02
654.38	1927.14
654.56	1755.11
654.75	1669.09
654.94	1701.86
655.13	1740.77
655.32	1708.01
655.51	1828.84
655.69	1669.09
655.88	1769.44
656.07	1626.09
656.26	1689.57
656.45	1673.19
656.63	1714.15
656.82	1740.77
657.01	1789.92
657.20	1691.62
657.38	1806.31
657.57	1693.67
657.76	1673.19
657.95	1705.96
658.14	1646.57
658.32	1691.62
658.51	1681.38
658.70	1763.30
658.89	1718.25
659.08	1724.39
659.26	1783.78
659.45	1703.91
659.64	1669.09
659.83	1712.10
660.01	1873.89
660.20	1753.06
660.39	1744.87
660.58	1570.79
660.76	1767.40
660.95	1658.85
661.14	1683.43
661.33	1705.96
661.51	1701.86
661.70	1705.96
661.89	1765.35
662.08	1621.99
662.26	1601.51
662.45	1681.38
662.64	1777.64
662.83	1726.44
663.01	1640.42
663.20	1736.68
663.39	1751.01
663.58	1683.43
663.76	1759.21
663.95	1763.30
664.14	1644.52
664.32	1740.77
664.51	1628.14
664.70	1671.14
664.89	1708.01
665.07	1675.24
665.26	1783.78
665.45	1644.52
665.64	1738.73
665.82	1738.73
666.01	1783.78
666.20	1658.85
666.38	1779.68
666.57	1826.79
666.76	2152.42
666.95	4401.08
667.13	10284.90
667.32	15124.25
667.51	17903.34
667.69	19080.92
667.88	17557.24
668.07	12394.31
668.25	9766.76
668.44	8165.25
668.63	7335.82
668.81	6860.70
669.00	6205.35
669.19	5633.96
669.38	5062.58
669.56	4665.27
669.75	3944.39
669.94	3407.82
670.12	2887.64
670.31	2500.57
670.50	2238.43
670.68	2074.59
670.87	1898.47
671.06	1771.49
671.24	1820.64
671.43	1839.08
671.62	1785.83
671.80	1685.48
671.99	1724.39
672.18	1744.87
672.36	1703.91
672.55	1728.49
672.74	1634.28
672.92	1628.14
673.11	1755.11
673.29	1718.25
673.48	1820.64
673.67	1675.24
673.85	1802.21
674.04	1708.01
674.23	1677.29
674.41	1828.84
674.60	1679.33
674.79	1650.66
674.97	1658.85
675.16	1730.53
675.34	1742.82
675.53	1650.66
675.72	1777.64
675.90	1830.88
676.09	1673.19
676.28	1744.87
676.46	1599.46
676.65	1806.31
676.83	1644.52
677.02	1710.05
677.21	1687.53
677.39	1740.77
677.58	1712.10
677.77	1624.04
677.95	1748.97
678.14	1714.15
678.32	1724.39
678.51	1658.85
678.70	1822.69
678.88	1718.25
679.07	1675.24
679.25	1671.14
679.44	1669.09
679.63	1634.28
679.81	1628.14
680.00	1736.68
680.18	1636.33
680.37	1865.70
680.55	1683.43
680.74	1615.85
680.93	1626.09
681.11	1705.96
681.30	1789.92
681.48	1765.35
681.67	1677.29
681.85	1722.34
682.04	1724.39
682.23	1763.30
682.41	1703.91
682.60	1679.33
682.78	1630.18
682.97	1693.67
683.15	1603.56
683.34	1701.86
683.53	1746.92
683.71	1644.52
683.90	1732.58
684.08	1855.46
684.27	1665.00
684.45	1730.53
684.64	1718.25
684.82	1724.39
685.01	1771.49
685.19	1693.67
685.38	1880.04
685.57	1705.96
685.75	1675.24
685.94	1734.63
686.12	1611.75
686.31	1705.96
686.49	1841.12
686.68	1695.72
686.86	1763.30
687.05	1718.25
687.23	1742.82
687.42	1677.29
687.60	1665.00
687.79	1722.34
687.97	1779.68
688.16	1794.02
688.34	1708.01
688.53	1603.56
688.71	1722.34
688.90	1775.59
689.08	1708.01
689.27	1638.38
689.45	1736.68
689.64	1685.48
689.82	1757.16
690.01	1746.92
690.19	1722.34
690.38	1765.35
690.56	1783.78
690.75	1751.01
690.93	1652.71
691.12	1769.44
691.30	1755.11
691.49	1720.29
691.67	1806.31
691.86	1830.88
692.04	1724.39
692.23	1662.95
692.41	1634.28
692.60	1800.16
692.78	1767.40
692.97	1708.01
693.15	1757.16
693.34	1806.31
693.52	1755.11
693.71	1611.75
693.89	1705.96
694.08	1570.79
694.26	1757.16
694.44	1814.50
694.63	1716.20
694.81	1570.79
695.00	1632.23
695.18	1767.40
695.37	1830.88
695.55	1724.39
695.74	1679.33
695.92	1646.57
696.10	1738.73
696.29	1636.33
696.47	1626.09
696.66	1597.42
696.84	1619.94
697.03	1681.38
697.21	1787.88
697.40	2322.40
697.58	1855.46
697.76	1703.91
697.95	1638.38
698.13	1671.14
698.32	1687.53
698.50	1673.19
698.68	1693.67
698.87	1722.34
699.05	1771.49
699.24	1722.34
699.42	1689.57
699.61	1708.01
699.79	1730.53
699.97	1748.97
700.16	1701.86
700.34	1701.86
700.53	1697.77
700.71	1800.16
700.89	1781.73
701.08	1705.96
701.26	1699.81
701.45	2203.61
701.63	1703.91
701.81	1705.96
702.00	1675.24
702.18	1689.57
702.37	1658.85
702.55	1710.05
702.73	1665.00
702.92	1699.81
703.10	1789.92
703.28	1728.49
703.47	1697.77
703.65	1765.35
703.84	1832.93
704.02	1656.81
704.20	1796.07
704.39	1689.57
704.57	1677.29
704.75	1753.06
704.94	1783.78
705.12	1677.29
705.30	1849.32
705.49	2265.05
705.67	4419.52
705.86	9420.66
706.04	12527.42
706.22	14460.71
706.41	15484.69
706.59	13897.52
706.77	9879.40
706.96	7577.48
707.14	6651.80
707.32	5924.77
707.51	5539.76
707.69	4980.66
707.87	4347.84
708.06	3508.17
708.24	2930.64
708.42	2478.04
708.61	2263.01
708.79	1886.18
708.97	1869.80
709.16	1767.40
709.34	1814.50
709.52	1796.07
709.71	1748.97
709.89	1699.81
710.07	1648.61
710.26	1763.30
710.44	1634.28
710.62	1738.73
710.80	1771.49
710.99	1841.12
711.17	1773.54
711.35	1695.72
711.54	1691.62
711.72	1701.86
711.90	1679.33
712.09	1701.86
712.27	1640.42
712.45	1775.59
712.63	1679.33
712.82	1728.49
713.00	1746.92
713.18	1738.73
713.37	1693.67
713.55	1851.36
713.73	1738.73
713.91	1669.09
714.10	1681.38
714.28	1734.63
714.46	1689.57
714.65	1708.01
714.83	1724.39
715.01	1658.85
715.19	1746.92
715.38	1607.66
715.56	1751.01
715.74	1751.01
715.92	1603.56
716.11	1740.77
716.29	1677.29
716.47	1732.58
716.65	1632.23
716.84	1599.46
717.02	1746.92
717.20	1632.23
717.38	1689.57
717.57	1650.66
717.75	1738.73
717.93	1691.62
718.11	1765.35
718.30	1646.57
718.48	1705.96
718.66	1826.79
718.84	1779.68
719.03	1718.25
719.21	1667.05
719.39	1714.15
719.57	1691.62
719.75	1734.63
719.94	1662.95
720.12	1697.77
720.30	1683.43
720.48	1742.82
720.67	1677.29
720.85	1708.01
721.03	1738.73
721.21	1703.91
721.39	1837.03
721.58	1689.57
721.76	1718.25
721.94	1720.29
722.12	1755.11
722.30	1742.82
722.49	1675.24
722.67	1701.86
722.85	1681.38
723.03	1630.18
723.21	1648.61
723.40	1720.29
723.58	1736.68
723.76	1726.44
723.94	1785.83
724.12	1660.90
724.30	1755.11
724.49	1789.92
724.67	1677.29
724.85	1767.40
725.03	1615.85
725.21	1845.22
725.40	1820.64
725.58	1662.95
725.76	1763.30
725.94	1652.71
726.12	1654.76
726.30	1765.35
726.49	1685.48
726.67	1665.00
726.85	1720.29
727.03	1812.45
727.21	2160.61
727.39	3012.56
727.57	3717.06
727.76	4239.30
727.94	4476.86
728.12	4413.37
728.30	3682.25
728.48	2932.69
728.66	2768.85
728.84	2494.43
729.03	2289.63
729.21	2189.28
729.39	1984.48
729.57	1859.56
729.75	1896.42
729.93	1808.36
730.11	1697.77
730.30	1751.01
730.48	1751.01
730.66	1800.16
730.84	1787.88
731.02	1699.81
731.20	1640.42
731.38	1820.64
731.56	1685.48
731.74	1615.85
731.93	1742.82
732.11	1712.10
732.29	1656.81
732.47	1695.72
732.65	1705.96
732.83	1724.39
733.01	1806.31
733.19	1693.67
733.37	1652.71
733.56	1691.62
733.74	1619.94
733.92	1789.92
734.10	1714.15
734.28	1751.01
734.46	1621.99
734.64	1656.81
734.82	1697.77
735.00	1705.96
735.18	1701.86
735.36	1705.96
735.54	1685.48
735.73	1716.20
735.91	1710.05
736.09	1695.72
736.27	1679.33
736.45	1705.96
736.63	1558.50
736.81	1695.72
736.99	1683.43
737.17	1796.07
737.35	1667.05
737.53	1642.47
737.71	1724.39
737.89	1759.21
738.07	1697.77
738.25	1626.09
738.43	1679.33
738.61	1718.25
738.80	1632.23
738.98	1650.66
739.16	1720.29
739.34	1699.81
739.52	1781.73
739.70	1675.24
739.88	1763.30
740.06	1841.12
740.24	1675.24
740.42	1740.77
740.60	1632.23
740.78	1632.23
740.96	1556.46
741.14	1695.72
741.32	1652.71
741.50	1671.14
741.68	1824.74
741.86	1794.02
742.04	1662.95
742.22	1681.38
742.40	1751.01
742.58	1705.96
742.76	1630.18
742.94	1769.44
743.12	1619.94
743.30	1753.06
743.48	1685.48
743.66	1611.75
743.84	1791.97
744.02	1742.82
744.20	1710.05
744.38	1630.18
744.56	1648.61
744.74	1730.53
744.92	1730.53
745.10	1808.36
745.28	1767.40
745.46	1791.97
745.64	1693.67
745.82	1802.21
746.00	1693.67
746.18	1687.53
746.36	1642.47
746.54	1722.34
746.72	1671.14
746.90	1654.76
747.08	1847.27
747.26	1636.33
747.44	1763.30
747.62	1744.87
747.80	1716.20
747.98	1783.78
748.15	1697.77
748.33	1738.73
748.51	1710.05
748.69	1775.59
748.87	1650.66
749.05	1714.15
749.23	1720.29
749.41	1759.21
749.59	1613.80
749.77	1732.58
749.95	1673.19
750.13	1658.85
750.31	1755.11
750.49	1753.06
750.67	1691.62
750.85	1738.73
751.03	1724.39
751.20	1824.74
751.38	1662.95
751.56	1669.09
751.74	1697.77
751.92	1734.63
752.10	1613.80
752.28	1736.68
752.46	1716.20
752.64	1718.25
752.82	1728.49
753.00	1800.16
753.18	1628.14
753.35	1738.73
753.53	1705.96
753.71	1673.19
753.89	1816.55
754.07	1617.90
754.25	1738.73
754.43	1761.25
754.61	1677.29
754.79	1681.38
754.97	1699.81
755.14	1751.01
755.32	1626.09
755.50	1744.87
755.68	1730.53
755.86	1665.00
756.04	1648.61
756.22	1576.94
756.40	1785.83
756.57	1855.46
756.75	1710.05
756.93	1669.09
757.11	1775.59
757.29	1667.05
757.47	1722.34
757.65	1628.14
757.82	1542.12
758.00	1652.71
758.18	1693.67
758.36	1654.76
758.54	1720.29
758.72	1675.24
758.90	1730.53
759.07	1751.01
759.25	1621.99
759.43	1718.25
759.61	1665.00
759.79	2148.32
759.97	1744.87
760.15	1660.90
760.32	1697.77
760.50	1730.53
760.68	1806.31
760.86	1595.37
761.04	1691.62
761.22	1716.20
761.39	1722.34
761.57	1726.44
761.75	1724.39
761.93	1738.73
762.11	1681.38
762.28	1687.53
762.46	1718.25
762.64	1718.25
762.82	1613.80
763.00	1734.63
763.18	1740.77
763.35	1675.24
763.53	1796.07
763.71	1675.24
763.89	1669.09
764.07	1720.29
764.24	1710.05
764.42	1767.40
764.60	1619.94
764.78	1697.77
764.96	1771.49
765.13	1839.08
765.31	1710.05
765.49	1751.01
765.67	1597.42
765.84	1673.19
766.02	1667.05
766.20	1648.61
766.38	1746.92
766.56	1714.15
766.73	1740.77
766.91	1714.15
767.09	1669.09
767.27	1710.05
767.44	1660.90
767.62	1742.82
767.80	1679.33
767.98	1673.19
768.15	1685.48
768.33	1791.97
768.51	1732.58
768.69	1742.82
768.87	1693.67
769.04	1708.01
769.22	1808.36
769.40	1791.97
769.58	1853.41
769.75	1654.76
769.93	1761.25
770.11	1685.48
770.28	1581.03
770.46	1832.93
770.64	1773.54
770.82	1662.95
770.99	1689.57
771.17	1705.96
771.35	1691.62
771.53	1611.75
771.70	1613.80
771.88	1720.29
772.06	1708.01
772.23	1685.48
772.41	1724.39
772.59	1685.48
772.77	1658.85
772.94	1697.77
773.12	1740.77
773.30	1671.14
773.47	1716.20
773.65	1640.42
773.83	1773.54
774.01	1693.67
774.18	1621.99
774.36	1716.20
774.54	1662.95
774.71	1681.38
774.89	1621.99
775.07	1658.85
775.24	1624.04
775.42	1689.57
775.60	1773.54
775.78	1701.86
775.95	1630.18
776.13	1585.13
776.31	1583.08
776.48	1708.01
776.66	1810.40
776.84	1701.86
777.01	1630.18
777.19	1660.90
777.37	1689.57
777.54	1755.11
777.72	1906.66
777.90	1693.67
778.07	1632.23
778.25	1867.75
778.43	1685.48
778.60	1665.00
778.78	1710.05
778.96	1830.88
779.13	1613.80
779.31	1767.40
779.49	1699.81
779.66	1652.71
779.84	1636.33
780.01	1673.19
780.19	1716.20
780.37	1789.92
780.54	1679.33
780.72	1619.94
780.90	1621.99
781.07	1681.38
781.25	1671.14
781.43	1738.73
781.60	1697.77
781.78	1751.01
781.95	1724.39
782.13	1660.90
782.31	1632.23
782.48	1652.71
782.66	1687.53
782.83	1726.44
783.01	1714.15
783.19	1720.29
783.36	1640.42
783.54	1658.85
783.72	1734.63
783.89	1654.76
784.07	1644.52
784.24	1654.76
784.42	1820.64
784.60	1767.40
784.77	1697.77
784.95	1607.66
785.12	1673.19
785.30	1781.73
785.47	1617.90
785.65	1628.14
785.83	1693.67
786.00	1687.53
786.18	1714.15
786.35	1570.79
786.53	1609.70
786.71	1730.53
786.88	1730.53
787.06	1765.35
787.23	1681.38
787.41	1603.56
787.58	1720.29
787.76	1722.34
787.94	1789.92
788.11	1671.14
788.29	1660.90
788.46	1687.53
788.64	1644.52
788.81	1652.71
788.99	1677.29
789.16	1738.73
789.34	1701.86
789.52	1689.57
789.69	1642.47
789.87	1499.11
790.04	1671.14
790.22	1726.44
790.39	1837.03
790.57	1648.61
790.74	1714.15
790.92	1689.57
791.09	1642.47
791.27	1669.09
791.44	1746.92
791.62	1718.25
791.79	1730.53
791.97	1697.77
792.15	1947.62
792.32	1777.64
792.50	1710.05
792.67	1730.53
792.85	1718.25
793.02	1728.49
793.20	1701.86
793.37	1730.53
793.55	1640.42
793.72	1548.26
793.90	1732.58
794.07	1636.33
794.25	1607.66
794.42	1662.95
794.60	1744.87
794.77	1759.21
794.95	1716.20
795.12	1689.57
795.30	1720.29
795.47	1599.46
795.65	1863.65
795.82	1671.14
796.00	1712.10
796.17	1705.96
796.34	1597.42
796.52	1781.73
796.69	1775.59
796.87	1728.49
797.04	1759.21
797.22	1705.96
797.39	1662.95
797.57	1689.57
797.74	1751.01
797.92	1679.33
798.09	1642.47
798.27	1765.35
798.44	1765.35
798.62	1552.36
798.79	1722.34
798.96	1736.68
799.14	1718.25
799.31	1779.68
799.49	1751.01
799.66	1648.61
799.84	1814.50
800.01	1626.09
800.19	1710.05
800.36	1578.98
800.53	1658.85
800.71	1685.48
800.88	1722.34
801.06	1656.81
801.23	1628.14
801.41	1710.05
801.58	1693.67
801.75	1720.29
801.93	1773.54
802.10	1695.72
802.28	1742.82
802.45	1685.48
802.63	1714.15
802.80	1710.05
802.97	1703.91
803.15	1681.38
803.32	1583.08
803.50	1691.62
803.67	1634.28
803.84	1767.40
804.02	1675.24
804.19	1734.63
804.37	1611.75
804.54	1681.38
804.71	1697.77
804.89	1681.38
805.06	1615.85
805.24	1630.18
805.41	1619.94
805.58	1630.18
805.76	1886.18
805.93	1712.10
806.10	1689.57
806.28	1697.77
806.45	1632.23
806.63	1742.82
806.80	1689.57
806.97	1773.54
807.15	1708.01
807.32	1695.72
807.49	1685.48
807.67	1705.96
807.84	1724.39
808.01	1660.90
808.19	1798.12
808.36	1816.55
808.54	1652.71
808.71	1638.38
808.88	1665.00
809.06	1699.81
809.23	1693.67
809.40	1660.90
809.58	1796.07
809.75	1681.38
809.92	1689.57
810.10	1845.22
810.27	1705.96
810.44	1687.53
810.62	1683.43
810.79	1697.77
810.96	1662.95
811.14	1703.91
811.31	1748.97
811.48	1734.63
811.66	1648.61
811.83	1705.96
812.00	1695.72
812.18	1677.29
812.35	1849.32
812.52	1611.75
812.69	1671.14
812.87	1660.90
813.04	1658.85
813.21	1751.01
813.39	1687.53
813.56	1615.85
813.73	1787.88
813.91	1683.43
814.08	1689.57
814.25	1724.39
814.42	1665.00
814.60	1736.68
814.77	1714.15
814.94	1742.82
815.12	1773.54
815.29	1746.92
815.46	1728.49
815.63	1755.11
815.81	1660.90
815.98	1734.63
816.15	1650.66
816.33	1779.68
816.50	1732.58
816.67	1646.57
816.84	1746.92
817.02	1640.42
817.19	1708.01
817.36	1673.19
817.53	1701.86
817.71	1734.63
817.88	1748.97
818.05	1630.18
818.22	1693.67
818.40	1771.49
818.57	1699.81
818.74	1716.20
818.91	1708.01
819.09	1755.11
819.26	1730.53
819.43	1665.00
819.60	1712.10
819.78	1703.91
819.95	1689.57
820.12	1755.11
820.29	1740.77
820.47	1753.06
820.64	1705.96
820.81	1677.29
820.98	1640.42
821.15	1753.06
821.33	1730.53
821.50	1687.53
821.67	1708.01
821.84	1611.75
822.02	1710.05
822.19	1759.21
822.36	1648.61
822.53	1716.20
822.70	1626.09
822.88	1656.81
823.05	1882.08
823.22	1677.29
823.39	1742.82
823.56	1722.34
823.74	1785.83
823.91	1589.22
824.08	1718.25
824.25	1609.70
824.42	1798.12
824.60	1644.52
824.77	1740.77
824.94	1705.96
825.11	1748.97
825.28	1546.22
825.45	1765.35
825.63	1697.77
825.80	1589.22
825.97	1697.77
826.14	1751.01
826.31	1630.18
826.48	1660.90
826.66	1689.57
826.83	1732.58
827.00	1736.68
827.17	1662.95
827.34	1687.53
827.51	1681.38
827.69	1718.25
827.86	1609.70
828.03	1724.39
828.20	1712.10
828.37	1673.19
828.54	1714.15
828.71	1667.05
828.89	1855.46
829.06	1759.21
829.23	1699.81
829.40	1722.34
829.57	1656.81
829.74	1820.64
829.91	1648.61
830.09	1679.33
830.26	1787.88
830.43	1785.83
830.60	1638.38
830.77	1699.81
830.94	1730.53
831.11	1714.15
831.28	1695.72
831.46	1738.73
831.63	1667.05
831.80	1673.19
831.97	1562.60
832.14	1605.61
832.31	1751.01
832.48	1734.63
832.65	1757.16
832.82	1667.05
832.99	1691.62
833.17	1585.13
833.34	1769.44
833.51	1781.73
833.68	1574.89
833.85	1742.82
834.02	1638.38
834.19	1626.09
834.36	1619.94
834.53	1757.16
834.70	1716.20
834.87	1794.02
835.04	1652.71
835.22	1673.19
835.39	1679.33
835.56	1605.61
835.73	1634.28
835.90	1693.67
836.07	1660.90
836.24	1742.82
836.41	1667.05
836.58	1607.66
836.75	1832.93
836.92	1701.86
837.09	1665.00
837.26	1738.73
837.43	1726.44
837.60	1656.81
837.77	1683.43
837.94	1798.12
838.12	1726.44
838.29	1755.11
838.46	1669.09
838.63	1654.76
838.80	1804.26
838.97	1689.57
839.14	1640.42
839.31	1689.57
839.48	1767.40
839.65	1662.95
839.82	1722.34
839.99	1638.38
840.16	1722.34
840.33	1634.28
840.50	1683.43
840.67	1656.81
840.84	1595.37
841.01	1644.52
841.18	1685.48
841.35	1675.24
841.52	1736.68
841.69	1857.51
841.86	1716.20
842.03	1716.20
842.20	1742.82
842.37	1667.05
842.54	1730.53
842.71	1640.42
842.88	1644.52
843.05	1757.16
843.22	1687.53
843.39	1718.25
843.56	1699.81
843.73	1736.68
843.90	1734.63
844.07	1652.71
844.24	1732.58
844.41	1703.91
844.58	1757.16
844.75	1667.05
844.92	1697.77
845.09	1710.05
845.26	1720.29
845.43	1693.67
845.60	1669.09
845.77	1730.53
845.94	1734.63
846.10	1753.06
846.27	1671.14
846.44	1615.85
846.61	1720.29
846.78	1732.58
846.95	1673.19
847.12	1662.95
847.29	1644.52
847.46	1667.05
847.63	1673.19
847.80	1683.43
847.97	1753.06
848.14	1771.49
848.31	1742.82
848.48	1624.04
848.65	1691.62
848.82	1652.71
848.98	1814.50
849.15	1837.03
849.32	1763.30
849.49	1751.01
849.66	1617.90
849.83	1685.48
850.00	1624.04
850.17	1734.63
850.34	1726.44
850.51	1632.23
850.68	1691.62
850.85	1837.03
851.01	1722.34
851.18	1726.44
851.35	1658.85
851.52	1714.15
851.69	1787.88
851.86	1540.07
852.03	1726.44
852.20	1701.86
852.37	1757.16
852.53	1554.41
852.70	1658.85
852.87	1683.43
853.04	1732.58
853.21	1673.19
853.38	1765.35
853.55	1800.16
853.72	1808.36
853.89	1611.75
854.05	1726.44
854.22	1665.00
854.39	1660.90
854.56	1716.20
854.73	1777.64
854.90	1619.94
855.07	1677.29
855.23	1650.66
855.40	1687.53
855.57	1652.71
855.74	1669.09
855.91	1839.08
856.08	1683.43
856.25	1574.89
856.41	1697.77
856.58	1673.19
856.75	1748.97
856.92	1572.84
857.09	1746.92
857.26	1642.47
857.42	1656.81
857.59	1726.44
857.76	1689.57
857.93	1759.21
858.10	1775.59
858.27	1619.94
858.43	1740.77
858.60	1675.24
858.77	1644.52
858.94	1728.49
859.11	1732.58
859.27	1679.33
859.44	1677.29
859.61	1886.18
859.78	1681.38
859.95	1656.81
860.12	1685.48
860.28	1798.12
860.45	1828.84
860.62	1660.90
860.79	1710.05
860.95	1689.57
861.12	1669.09
861.29	1648.61
861.46	1660.90
861.63	1683.43
861.79	1617.90
861.96	1644.52
862.13	1648.61
862.30	1771.49
862.47	1703.91
862.63	1699.81
862.80	1771.49
862.97	1757.16
863.14	1769.44
863.30	1701.86
863.47	1665.00
863.64	1818.60
863.81	1714.15
863.97	1630.18
864.14	1681.38
864.31	1716.20
864.48	1710.05
864.65	1662.95
864.81	1681.38
864.98	1712.10
865.15	1695.72
865.32	1785.83
865.48	1777.64
865.65	1828.84
865.82	1804.26
865.98	1708.01
866.15	1789.92
866.32	1697.77
866.49	1691.62
866.65	1703.91
866.82	1636.33
866.99	1703.91
867.16	1613.80
867.32	1605.61
867.49	1740.77
867.66	1634.28
867.83	1640.42
867.99	1683.43
868.16	1658.85
868.33	1646.57
868.49	1693.67
868.66	1609.70
868.83	1730.53
868.99	1675.24
869.16	1779.68
869.33	1810.40
869.50	1804.26
869.66	1746.92
869.83	1718.25
870.00	1644.52
870.16	1798.12
870.33	1714.15
870.50	1769.44
870.66	1728.49
870.83	1822.69
871.00	1673.19
871.17	1689.57
871.33	1757.16
871.50	1740.77
871.67	1632.23
871.83	1581.03
872.00	1812.45
872.17	1601.51
872.33	1718.25
872.50	1751.01
872.67	1669.09
872.83	1705.96
873.00	1714.15
873.17	1730.53
873.33	1675.24
873.50	1751.01
873.67	1685.48
873.83	1650.66
874.00	1632.23
874.16	1726.44
874.33	1736.68
874.50	1589.22
874.66	1773.54
874.83	1708.01
875.00	1726.44
875.16	1710.05
875.33	1695.72
875.50	1632.23
875.66	1732.58
875.83	1685.48
875.99	1716.20
876.16	1675.24
876.33	1634.28
876.49	1726.44
876.66	1699.81
876.83	1697.77
876.99	1630.18
877.16	1691.62
877.32	1705.96
877.49	1710.05
877.66	1691.62
877.82	1785.83
877.99	1748.97
878.15	1765.35
878.32	1656.81
878.49	1701.86
878.65	1634.28
878.82	1806.31
878.98	1693.67
879.15	1779.68
879.32	1708.01
879.48	1740.77
879.65	1693.67
879.81	1621.99
879.98	1648.61
880.15	1695.72
880.31	1701.86
880.48	1746.92
880.64	1660.90
880.81	1712.10
880.97	1808.36
881.14	1722.34
881.31	1665.00
881.47	1775.59
881.64	1716.20
881.80	1617.90
881.97	1734.63
882.13	1673.19
882.30	1662.95
882.47	1617.90
882.63	1611.75
882.80	1687.53
882.96	1644.52
883.13	1687.53
883.29	1687.53
883.46	1705.96
883.62	1791.97
883.79	1708.01
883.95	1734.63
884.12	1746.92
884.29	1814.50
884.45	1665.00
884.62	1718.25
884.78	1652.71
884.95	1814.50
885.11	1619.94
885.28	1716.20
885.44	1697.77
885.61	1763.30
885.77	1824.74
885.94	1773.54
886.10	1710.05
886.27	1621.99
886.43	1857.51
886.60	1722.34
886.76	1599.46
886.93	1611.75
887.09	1757.16
887.26	1578.98
887.42	1744.87
887.59	1708.01
887.75	1882.08
887.92	1740.77
888.08	1673.19
888.25	1734.63
888.41	1734.63
888.58	1656.81
888.74	1665.00
888.91	1634.28
>>>>>End Processed Spectral Data<<<<<
