SpectraSuite Data File
++++++++++++++++++++++++++++++++++++
Date: Mon Jun 06 13:18:37 CEST 2016
User: root
Dark Spectrum Present: No
Reference Spectrum Present: No
Number of Sampled Component Spectra: 1
Spectrometers: USB4C02835
Integration Time (usec): 100000 (USB4C02835)
Spectra Averaged: 1 (USB4C02835)
Boxcar Smoothing: 0 (USB4C02835)
Correct for Electrical Dark: No (USB4C02835)
Strobe/Lamp Enabled: No (USB4C02835)
Correct for Detector Non-linearity: No (USB4C02835)
Correct for Stray Light: No (USB4C02835)
Number of Pixels in Processed Spectrum: 3648
>>>>>Begin Processed Spectral Data<<<<<
177.47	1427.43
177.69	1427.43
177.91	1427.43
178.13	1497.07
178.36	1492.97
178.58	1662.95
178.80	1689.57
179.02	1671.14
179.24	1703.91
179.46	1705.96
179.68	1728.49
179.90	1710.05
180.13	1787.88
180.35	1621.99
180.57	1619.94
180.79	1787.88
181.01	1691.62
181.23	1781.73
181.45	1783.78
181.67	1712.10
181.90	1703.91
182.12	1652.71
182.34	1603.56
182.56	1728.49
182.78	1708.01
183.00	1673.19
183.22	1675.24
183.44	1636.33
183.66	1832.93
183.89	1820.64
184.11	1697.77
184.33	1665.00
184.55	1710.05
184.77	1736.68
184.99	1716.20
185.21	1748.97
185.43	1798.12
185.65	1662.95
185.87	1699.81
186.10	1779.68
186.32	1800.16
186.54	1763.30
186.76	1787.88
186.98	1665.00
187.20	1710.05
187.42	1683.43
187.64	1656.81
187.86	1783.78
188.08	1712.10
188.30	1669.09
188.52	1720.29
188.75	1775.59
188.97	1751.01
189.19	1591.27
189.41	1718.25
189.63	1703.91
189.85	1689.57
190.07	1716.20
190.29	1671.14
190.51	1744.87
190.73	1628.14
190.95	1830.88
191.17	1705.96
191.39	1624.04
191.61	1658.85
191.84	1722.34
192.06	1677.29
192.28	1689.57
192.50	1855.46
192.72	1742.82
192.94	1746.92
193.16	1759.21
193.38	1767.40
193.60	1589.22
193.82	1685.48
194.04	1722.34
194.26	1724.39
194.48	1689.57
194.70	1662.95
194.92	1669.09
195.14	1769.44
195.36	1646.57
195.58	1775.59
195.80	1769.44
196.02	1687.53
196.24	1679.33
196.46	1724.39
196.69	1662.95
196.91	1873.89
197.13	1679.33
197.35	1703.91
197.57	1767.40
197.79	1757.16
198.01	1609.70
198.23	1804.26
198.45	1722.34
198.67	1630.18
198.89	1701.86
199.11	1724.39
199.33	1599.46
199.55	1689.57
199.77	1753.06
199.99	1777.64
200.21	1638.38
200.43	1714.15
200.65	1640.42
200.87	1617.90
201.09	1777.64
201.31	1742.82
201.53	1785.83
201.75	1662.95
201.97	1718.25
202.19	1652.71
202.41	1765.35
202.63	1808.36
202.85	1753.06
203.07	1722.34
203.29	1646.57
203.51	1652.71
203.73	1632.23
203.95	1796.07
204.17	1714.15
204.39	1724.39
204.61	1744.87
204.83	1636.33
205.05	1722.34
205.27	1738.73
205.49	1787.88
205.71	1730.53
205.93	1634.28
206.15	1675.24
206.37	1697.77
206.59	1701.86
206.81	1660.90
207.03	1636.33
207.25	1634.28
207.47	1744.87
207.69	1720.29
207.91	1730.53
208.13	1798.12
208.34	1726.44
208.56	1609.70
208.78	1714.15
209.00	1642.47
209.22	1644.52
209.44	1677.29
209.66	1712.10
209.88	1685.48
210.10	1634.28
210.32	1689.57
210.54	1873.89
210.76	1705.96
210.98	1820.64
211.20	1572.84
211.42	1673.19
211.64	1751.01
211.86	1802.21
212.08	1728.49
212.30	1662.95
212.52	1708.01
212.74	1693.67
212.96	1736.68
213.17	1767.40
213.39	1748.97
213.61	1720.29
213.83	1730.53
214.05	1638.38
214.27	1714.15
214.49	1624.04
214.71	1572.84
214.93	1710.05
215.15	1701.86
215.37	1755.11
215.59	1648.61
215.81	1673.19
216.03	1775.59
216.24	1697.77
216.46	1681.38
216.68	1724.39
216.90	1767.40
217.12	1755.11
217.34	1703.91
217.56	1753.06
217.78	1818.60
218.00	1767.40
218.22	1687.53
218.44	1728.49
218.66	1728.49
218.87	1791.97
219.09	1697.77
219.31	1726.44
219.53	1755.11
219.75	1693.67
219.97	1738.73
220.19	1730.53
220.41	1683.43
220.63	1798.12
220.85	1701.86
221.06	1708.01
221.28	1781.73
221.50	1697.77
221.72	1728.49
221.94	1763.30
222.16	1785.83
222.38	1763.30
222.60	1730.53
222.82	1644.52
223.03	1722.34
223.25	1589.22
223.47	1726.44
223.69	1804.26
223.91	1746.92
224.13	1658.85
224.35	1665.00
224.57	1796.07
224.78	1798.12
225.00	1671.14
225.22	1642.47
225.44	1693.67
225.66	1785.83
225.88	1648.61
226.10	1761.25
226.32	1671.14
226.53	1877.99
226.75	1634.28
226.97	1683.43
227.19	1628.14
227.41	1566.70
227.63	1689.57
227.85	1607.66
228.06	1748.97
228.28	1691.62
228.50	1824.74
228.72	1671.14
228.94	1683.43
229.16	1634.28
229.37	1640.42
229.59	1685.48
229.81	1746.92
230.03	1714.15
230.25	1619.94
230.47	1611.75
230.69	1656.81
230.90	1779.68
231.12	1687.53
231.34	1691.62
231.56	1804.26
231.78	1654.76
232.00	1648.61
232.21	1665.00
232.43	1712.10
232.65	1630.18
232.87	1718.25
233.09	1650.66
233.30	1683.43
233.52	1716.20
233.74	1705.96
233.96	1730.53
234.18	1763.30
234.40	1710.05
234.61	1779.68
234.83	1636.33
235.05	1599.46
235.27	1826.79
235.49	1691.62
235.70	1691.62
235.92	1720.29
236.14	1710.05
236.36	1853.41
236.58	1550.31
236.79	1751.01
237.01	1667.05
237.23	1714.15
237.45	1851.36
237.67	1617.90
237.88	1660.90
238.10	1773.54
238.32	1677.29
238.54	1632.23
238.76	1736.68
238.97	1650.66
239.19	1665.00
239.41	1781.73
239.63	1791.97
239.85	1734.63
240.06	1699.81
240.28	1669.09
240.50	1703.91
240.72	1619.94
240.93	1683.43
241.15	1751.01
241.37	1712.10
241.59	1755.11
241.81	1683.43
242.02	1658.85
242.24	1769.44
242.46	1732.58
242.68	1658.85
242.89	1675.24
243.11	1746.92
243.33	1736.68
243.55	1701.86
243.76	1708.01
243.98	1574.89
244.20	1705.96
244.42	1712.10
244.64	1740.77
244.85	1544.17
245.07	1699.81
245.29	1779.68
245.51	1679.33
245.72	1687.53
245.94	1726.44
246.16	1660.90
246.38	1697.77
246.59	1683.43
246.81	1675.24
247.03	1673.19
247.24	1626.09
247.46	1634.28
247.68	1636.33
247.90	1720.29
248.11	1703.91
248.33	1771.49
248.55	1687.53
248.77	1677.29
248.98	1755.11
249.20	1796.07
249.42	1634.28
249.64	1708.01
249.85	1722.34
250.07	1636.33
250.29	1746.92
250.50	1687.53
250.72	1705.96
250.94	1759.21
251.16	1789.92
251.37	1775.59
251.59	1708.01
251.81	1755.11
252.02	1757.16
252.24	1626.09
252.46	1740.77
252.68	1687.53
252.89	1654.76
253.11	1634.28
253.33	1845.22
253.54	1832.93
253.76	1634.28
253.98	1665.00
254.20	1726.44
254.41	1624.04
254.63	1648.61
254.85	1632.23
255.06	1689.57
255.28	1681.38
255.50	1658.85
255.71	1681.38
255.93	1562.60
256.15	1761.25
256.36	1791.97
256.58	1681.38
256.80	1712.10
257.02	1742.82
257.23	1677.29
257.45	1748.97
257.67	1757.16
257.88	1626.09
258.10	1763.30
258.32	1710.05
258.53	1751.01
258.75	1830.88
258.97	1634.28
259.18	1689.57
259.40	1748.97
259.62	1873.89
259.83	1849.32
260.05	1767.40
260.27	2060.26
260.48	1726.44
260.70	1636.33
260.92	1667.05
261.13	1712.10
261.35	1726.44
261.57	1693.67
261.78	1591.27
262.00	1675.24
262.22	1746.92
262.43	1587.18
262.65	1683.43
262.86	1722.34
263.08	1832.93
263.30	1755.11
263.51	1634.28
263.73	1662.95
263.95	1730.53
264.16	1673.19
264.38	1611.75
264.60	1740.77
264.81	1654.76
265.03	1720.29
265.25	1841.12
265.46	1658.85
265.68	1705.96
265.89	1634.28
266.11	1662.95
266.33	1759.21
266.54	1695.72
266.76	1714.15
266.98	1710.05
267.19	1759.21
267.41	1855.46
267.62	1724.39
267.84	1640.42
268.06	1724.39
268.27	1693.67
268.49	1789.92
268.70	1767.40
268.92	1662.95
269.14	1636.33
269.35	1617.90
269.57	1708.01
269.79	1683.43
270.00	1642.47
270.22	1816.55
270.43	1681.38
270.65	1658.85
270.87	1746.92
271.08	1693.67
271.30	1705.96
271.51	1724.39
271.73	1699.81
271.95	1714.15
272.16	1703.91
272.38	1785.83
272.59	1611.75
272.81	1689.57
273.02	1677.29
273.24	1759.21
273.46	1785.83
273.67	1630.18
273.89	1734.63
274.10	1665.00
274.32	1789.92
274.54	1701.86
274.75	1673.19
274.97	1650.66
275.18	1771.49
275.40	1720.29
275.61	1701.86
275.83	1691.62
276.05	1525.74
276.26	1701.86
276.48	1732.58
276.69	1654.76
276.91	1689.57
277.12	1814.50
277.34	1781.73
277.55	1812.45
277.77	1701.86
277.99	1681.38
278.20	1621.99
278.42	1650.66
278.63	1595.37
278.85	1767.40
279.06	1636.33
279.28	1802.21
279.49	1726.44
279.71	1650.66
279.93	1689.57
280.14	1660.90
280.36	1683.43
280.57	1726.44
280.79	1744.87
281.00	1685.48
281.22	1652.71
281.43	1732.58
281.65	1628.14
281.86	1660.90
282.08	1679.33
282.29	1816.55
282.51	1626.09
282.73	1597.42
282.94	1587.18
283.16	1667.05
283.37	1767.40
283.59	1673.19
283.80	1697.77
284.02	1699.81
284.23	1642.47
284.45	1628.14
284.66	1617.90
284.88	1650.66
285.09	1720.29
285.31	1777.64
285.52	1720.29
285.74	1615.85
285.95	1742.82
286.17	1699.81
286.38	1791.97
286.60	1755.11
286.81	1621.99
287.03	1646.57
287.24	1767.40
287.46	1634.28
287.67	1685.48
287.89	1814.50
288.10	1681.38
288.32	1611.75
288.53	1822.69
288.75	1667.05
288.96	1777.64
289.18	1619.94
289.39	1734.63
289.61	1787.88
289.82	1890.28
290.04	1845.22
290.25	1640.42
290.47	1671.14
290.68	1714.15
290.90	1726.44
291.11	1607.66
291.33	1757.16
291.54	1628.14
291.76	1724.39
291.97	1759.21
292.18	1728.49
292.40	1712.10
292.61	1673.19
292.83	1832.93
293.04	1755.11
293.26	1648.61
293.47	1570.79
293.69	1542.12
293.90	1667.05
294.12	1703.91
294.33	1595.37
294.55	1708.01
294.76	1824.74
294.97	1845.22
295.19	1808.36
295.40	1665.00
295.62	1722.34
295.83	1751.01
296.05	1701.86
296.26	1732.58
296.48	1720.29
296.69	1697.77
296.90	1701.86
297.12	1744.87
297.33	1699.81
297.55	1673.19
297.76	1708.01
297.98	1648.61
298.19	1619.94
298.41	1634.28
298.62	1642.47
298.83	1777.64
299.05	1722.34
299.26	1626.09
299.48	1703.91
299.69	1804.26
299.90	1722.34
300.12	1665.00
300.33	1679.33
300.55	1656.81
300.76	1697.77
300.98	1689.57
301.19	1697.77
301.40	1732.58
301.62	1632.23
301.83	1656.81
302.05	1671.14
302.26	1679.33
302.47	1814.50
302.69	1603.56
302.90	1714.15
303.12	1568.74
303.33	1751.01
303.54	1800.16
303.76	1695.72
303.97	1660.90
304.19	1853.41
304.40	1677.29
304.61	1722.34
304.83	1769.44
305.04	1705.96
305.26	1748.97
305.47	1619.94
305.68	1773.54
305.90	1583.08
306.11	1767.40
306.33	1632.23
306.54	1744.87
306.75	1646.57
306.97	1681.38
307.18	1673.19
307.39	1624.04
307.61	1673.19
307.82	1652.71
308.04	1695.72
308.25	1603.56
308.46	1701.86
308.68	1732.58
308.89	1783.78
309.10	1769.44
309.32	1671.14
309.53	1763.30
309.74	1753.06
309.96	1785.83
310.17	1761.25
310.39	1738.73
310.60	1753.06
310.81	1685.48
311.03	1636.33
311.24	1665.00
311.45	1662.95
311.67	1800.16
311.88	1687.53
312.09	1662.95
312.31	1722.34
312.52	1679.33
312.73	1685.48
312.95	1689.57
313.16	1589.22
313.37	1708.01
313.59	1722.34
313.80	1697.77
314.01	1712.10
314.23	1708.01
314.44	1648.61
314.65	1628.14
314.87	1673.19
315.08	1738.73
315.29	1677.29
315.51	1607.66
315.72	1624.04
315.93	1761.25
316.15	1667.05
316.36	1716.20
316.57	1708.01
316.79	1742.82
317.00	1632.23
317.21	1765.35
317.43	1638.38
317.64	1759.21
317.85	1710.05
318.07	1671.14
318.28	1757.16
318.49	1785.83
318.70	1933.28
318.92	1789.92
319.13	1845.22
319.34	1824.74
319.56	1834.98
319.77	1832.93
319.98	1839.08
320.20	1763.30
320.41	1748.97
320.62	1748.97
320.83	1671.14
321.05	1816.55
321.26	1714.15
321.47	1699.81
321.69	1765.35
321.90	1662.95
322.11	1679.33
322.32	1673.19
322.54	1783.78
322.75	1673.19
322.96	1761.25
323.18	1603.56
323.39	1560.55
323.60	1714.15
323.81	1757.16
324.03	1630.18
324.24	1613.80
324.45	1708.01
324.66	1654.76
324.88	1775.59
325.09	1783.78
325.30	1636.33
325.52	1724.39
325.73	1730.53
325.94	1701.86
326.15	1656.81
326.37	1722.34
326.58	1757.16
326.79	1730.53
327.00	1708.01
327.22	1667.05
327.43	1644.52
327.64	1679.33
327.85	1761.25
328.07	1681.38
328.28	1755.11
328.49	1701.86
328.70	1710.05
328.92	1648.61
329.13	1699.81
329.34	1687.53
329.55	1787.88
329.76	1816.55
329.98	1738.73
330.19	1734.63
330.40	1675.24
330.61	1730.53
330.83	1669.09
331.04	1660.90
331.25	1748.97
331.46	1669.09
331.68	1669.09
331.89	1755.11
332.10	1669.09
332.31	1578.98
332.52	1677.29
332.74	1748.97
332.95	1626.09
333.16	1755.11
333.37	1746.92
333.58	1705.96
333.80	1699.81
334.01	1587.18
334.22	1679.33
334.43	1624.04
334.64	1624.04
334.86	1613.80
335.07	1650.66
335.28	1783.78
335.49	1531.88
335.70	1722.34
335.92	1855.46
336.13	1759.21
336.34	1777.64
336.55	1665.00
336.76	1662.95
336.98	1595.37
337.19	1716.20
337.40	1800.16
337.61	1847.27
337.82	1675.24
338.04	1665.00
338.25	1630.18
338.46	1710.05
338.67	1658.85
338.88	1538.02
339.09	1611.75
339.31	1730.53
339.52	1642.47
339.73	1597.42
339.94	1671.14
340.15	1789.92
340.36	1695.72
340.58	1705.96
340.79	1675.24
341.00	1751.01
341.21	1624.04
341.42	1724.39
341.63	1665.00
341.85	1689.57
342.06	1722.34
342.27	1624.04
342.48	1716.20
342.69	1601.51
342.90	1755.11
343.12	1718.25
343.33	1701.86
343.54	1767.40
343.75	1773.54
343.96	1693.67
344.17	1652.71
344.38	1742.82
344.60	1638.38
344.81	1650.66
345.02	1718.25
345.23	1794.02
345.44	1730.53
345.65	1783.78
345.86	1765.35
346.07	1724.39
346.29	1675.24
346.50	1765.35
346.71	1755.11
346.92	1826.79
347.13	1863.65
347.34	1685.48
347.55	1667.05
347.76	1708.01
347.98	1642.47
348.19	1722.34
348.40	1769.44
348.61	1652.71
348.82	1822.69
349.03	1796.07
349.24	1708.01
349.45	1796.07
349.66	1587.18
349.88	1716.20
350.09	1697.77
350.30	1806.31
350.51	1789.92
350.72	1705.96
350.93	1773.54
351.14	1609.70
351.35	1730.53
351.56	1724.39
351.77	1611.75
351.99	1738.73
352.20	1787.88
352.41	1710.05
352.62	1593.32
352.83	1638.38
353.04	1693.67
353.25	1718.25
353.46	1726.44
353.67	1757.16
353.88	1634.28
354.09	1699.81
354.30	1619.94
354.52	1777.64
354.73	1683.43
354.94	1634.28
355.15	1679.33
355.36	1765.35
355.57	1677.29
355.78	1714.15
355.99	1705.96
356.20	1656.81
356.41	1783.78
356.62	1730.53
356.83	1665.00
357.04	1867.75
357.25	1587.18
357.46	1681.38
357.68	1607.66
357.89	1626.09
358.10	1775.59
358.31	1730.53
358.52	1673.19
358.73	1593.32
358.94	1634.28
359.15	1654.76
359.36	1712.10
359.57	1738.73
359.78	1740.77
359.99	1644.52
360.20	1595.37
360.41	1765.35
360.62	1675.24
360.83	1675.24
361.04	1599.46
361.25	1771.49
361.46	1802.21
361.67	1656.81
361.88	1687.53
362.09	1759.21
362.30	1656.81
362.51	1626.09
362.72	1730.53
362.93	1716.20
363.14	1705.96
363.35	1712.10
363.56	1644.52
363.78	1734.63
363.99	1712.10
364.20	1652.71
364.41	1718.25
364.62	1847.27
364.83	1671.14
365.04	1585.13
365.25	1714.15
365.46	1869.80
365.67	1624.04
365.88	1632.23
366.09	1640.42
366.30	1673.19
366.51	1730.53
366.72	1601.51
366.93	1699.81
367.14	1722.34
367.35	1837.03
367.56	1759.21
367.77	1822.69
367.98	1630.18
368.18	1755.11
368.39	1718.25
368.60	1671.14
368.81	1662.95
369.02	1738.73
369.23	1718.25
369.44	1624.04
369.65	1699.81
369.86	1699.81
370.07	1763.30
370.28	1708.01
370.49	1703.91
370.70	1738.73
370.91	1669.09
371.12	1542.12
371.33	1730.53
371.54	1665.00
371.75	1718.25
371.96	1652.71
372.17	1665.00
372.38	1687.53
372.59	1724.39
372.80	1640.42
373.01	1763.30
373.22	1734.63
373.43	1695.72
373.64	1607.66
373.85	1726.44
374.06	1755.11
374.26	1710.05
374.47	1759.21
374.68	1777.64
374.89	1699.81
375.10	1705.96
375.31	1728.49
375.52	1621.99
375.73	1751.01
375.94	1597.42
376.15	1822.69
376.36	1669.09
376.57	1691.62
376.78	1685.48
376.99	1738.73
377.20	1751.01
377.40	1751.01
377.61	1763.30
377.82	1646.57
378.03	1820.64
378.24	1779.68
378.45	1705.96
378.66	1718.25
378.87	1597.42
379.08	1605.61
379.29	1716.20
379.50	1775.59
379.71	1751.01
379.91	1656.81
380.12	1791.97
380.33	1662.95
380.54	1683.43
380.75	1759.21
380.96	1669.09
381.17	1847.27
381.38	1712.10
381.59	1714.15
381.80	1710.05
382.00	1849.32
382.21	1683.43
382.42	1830.88
382.63	1834.98
382.84	1769.44
383.05	1732.58
383.26	1820.64
383.47	1714.15
383.68	1755.11
383.88	1796.07
384.09	1730.53
384.30	1863.65
384.51	1726.44
384.72	1705.96
384.93	1615.85
385.14	1644.52
385.35	1738.73
385.55	1615.85
385.76	1734.63
385.97	1693.67
386.18	1566.70
386.39	1681.38
386.60	1763.30
386.81	1746.92
387.02	1693.67
387.22	1703.91
387.43	1740.77
387.64	1773.54
387.85	1902.56
388.06	2256.86
388.27	4290.49
388.48	6850.46
388.68	8275.84
388.89	9617.26
389.10	9719.66
389.31	8724.35
389.52	7557.00
389.73	6596.51
389.93	6160.29
390.14	5832.62
390.35	5269.42
390.56	4560.83
390.77	3887.04
390.98	3045.33
391.18	2553.82
391.39	2127.84
391.60	1851.36
391.81	1824.74
392.02	1736.68
392.23	1882.08
392.43	1718.25
392.64	1847.27
392.85	1732.58
393.06	1794.02
393.27	1738.73
393.47	1626.09
393.68	1624.04
393.89	1601.51
394.10	1708.01
394.31	1681.38
394.52	1642.47
394.72	1640.42
394.93	1863.65
395.14	1679.33
395.35	1742.82
395.56	1703.91
395.76	1753.06
395.97	1736.68
396.18	1794.02
396.39	1839.08
396.60	1978.34
396.80	1802.21
397.01	1800.16
397.22	1847.27
397.43	1791.97
397.64	1789.92
397.84	1746.92
398.05	1855.46
398.26	1759.21
398.47	1751.01
398.67	1757.16
398.88	1755.11
399.09	1744.87
399.30	1703.91
399.51	1759.21
399.71	1621.99
399.92	1742.82
400.13	1740.77
400.34	1667.05
400.54	1695.72
400.75	1853.41
400.96	1699.81
401.17	1839.08
401.37	1722.34
401.58	1794.02
401.79	1730.53
402.00	1796.07
402.21	1992.67
402.41	1900.52
402.62	1984.48
402.83	2007.01
403.04	2000.87
403.24	2029.54
403.45	1791.97
403.66	1873.89
403.87	1877.99
404.07	1849.32
404.28	1877.99
404.49	1837.03
404.70	1763.30
404.90	1755.11
405.11	1716.20
405.32	1708.01
405.52	1681.38
405.73	1751.01
405.94	1689.57
406.15	1665.00
406.35	1732.58
406.56	1802.21
406.77	1701.86
406.98	1673.19
407.18	1656.81
407.39	1771.49
407.60	1748.97
407.80	1796.07
408.01	1662.95
408.22	1730.53
408.43	1697.77
408.63	1785.83
408.84	1814.50
409.05	1767.40
409.25	1640.42
409.46	1673.19
409.67	1710.05
409.88	1679.33
410.08	1716.20
410.29	1687.53
410.50	1787.88
410.70	1724.39
410.91	1599.46
411.12	1693.67
411.32	1703.91
411.53	1599.46
411.74	1783.78
411.95	1751.01
412.15	1783.78
412.36	1765.35
412.57	1820.64
412.77	1787.88
412.98	1722.34
413.19	1714.15
413.39	1791.97
413.60	1695.72
413.81	1781.73
414.01	1697.77
414.22	1673.19
414.43	1830.88
414.63	1769.44
414.84	1736.68
415.05	1697.77
415.25	1667.05
415.46	1765.35
415.67	1712.10
415.87	1705.96
416.08	1724.39
416.29	1728.49
416.49	1771.49
416.70	1662.95
416.91	1728.49
417.11	1658.85
417.32	1738.73
417.53	1751.01
417.73	1751.01
417.94	1644.52
418.15	1708.01
418.35	1642.47
418.56	1691.62
418.77	1837.03
418.97	1699.81
419.18	1652.71
419.38	1632.23
419.59	1685.48
419.80	1759.21
420.00	1703.91
420.21	1705.96
420.42	1738.73
420.62	1746.92
420.83	1665.00
421.04	1697.77
421.24	1624.04
421.45	1693.67
421.65	1705.96
421.86	1767.40
422.07	1744.87
422.27	1765.35
422.48	1679.33
422.69	1667.05
422.89	1685.48
423.10	1722.34
423.30	1570.79
423.51	1724.39
423.72	1679.33
423.92	1761.25
424.13	1658.85
424.33	1640.42
424.54	1775.59
424.75	1665.00
424.95	1789.92
425.16	1691.62
425.36	1630.18
425.57	1714.15
425.78	1757.16
425.98	1724.39
426.19	1677.29
426.39	1640.42
426.60	1691.62
426.81	1783.78
427.01	1642.47
427.22	1746.92
427.42	1621.99
427.63	1675.24
427.83	1771.49
428.04	1832.93
428.25	1779.68
428.45	1730.53
428.66	1761.25
428.86	1689.57
429.07	1605.61
429.28	1708.01
429.48	1650.66
429.69	1697.77
429.89	1722.34
430.10	1570.79
430.30	1748.97
430.51	1759.21
430.71	1640.42
430.92	1691.62
431.13	1734.63
431.33	1671.14
431.54	1771.49
431.74	1847.27
431.95	1814.50
432.15	1613.80
432.36	1695.72
432.56	1783.78
432.77	1755.11
432.98	1755.11
433.18	1724.39
433.39	1703.91
433.59	1681.38
433.80	1812.45
434.00	1769.44
434.21	1634.28
434.41	1669.09
434.62	1861.60
434.82	1773.54
435.03	1738.73
435.23	1812.45
435.44	1632.23
435.64	1665.00
435.85	1708.01
436.06	1714.15
436.26	1691.62
436.47	1691.62
436.67	1669.09
436.88	1746.92
437.08	1746.92
437.29	1824.74
437.49	1755.11
437.70	1722.34
437.90	1665.00
438.11	1902.56
438.31	1697.77
438.52	1820.64
438.72	1871.84
438.93	1896.42
439.13	1769.44
439.34	1746.92
439.54	1761.25
439.75	1738.73
439.95	1757.16
440.16	1761.25
440.36	1789.92
440.57	1769.44
440.77	1716.20
440.98	1744.87
441.18	1732.58
441.39	1677.29
441.59	1634.28
441.80	1763.30
442.00	1746.92
442.21	1863.65
442.41	1636.33
442.62	1787.88
442.82	1701.86
443.02	1746.92
443.23	1744.87
443.43	1732.58
443.64	1824.74
443.84	1587.18
444.05	1806.31
444.25	1775.59
444.46	1734.63
444.66	1691.62
444.87	1847.27
445.07	1626.09
445.28	1714.15
445.48	1828.84
445.69	1730.53
445.89	1925.09
446.09	1732.58
446.30	2035.68
446.50	2627.54
446.71	3782.60
446.91	4278.21
447.12	4710.33
447.32	4790.20
447.53	4366.27
447.73	3878.85
447.93	3469.26
448.14	3239.89
448.34	3225.55
448.55	2951.12
448.75	2885.59
448.96	2572.25
449.16	2490.33
449.36	2281.44
449.57	2000.87
449.77	1972.19
449.98	1800.16
450.18	1837.03
450.39	1748.97
450.59	1777.64
450.79	1691.62
451.00	1693.67
451.20	1757.16
451.41	1714.15
451.61	1798.12
451.81	1732.58
452.02	1689.57
452.22	1720.29
452.43	1734.63
452.63	1617.90
452.84	1705.96
453.04	1783.78
453.24	1667.05
453.45	1714.15
453.65	1695.72
453.86	1710.05
454.06	1798.12
454.26	1681.38
454.47	1716.20
454.67	1802.21
454.87	1740.77
455.08	1757.16
455.28	1841.12
455.49	1742.82
455.69	1695.72
455.89	1832.93
456.10	1824.74
456.30	1665.00
456.51	1820.64
456.71	1695.72
456.91	1812.45
457.12	1810.40
457.32	1710.05
457.52	1669.09
457.73	1820.64
457.93	1779.68
458.14	1658.85
458.34	1671.14
458.54	1787.88
458.75	1685.48
458.95	1804.26
459.15	1734.63
459.36	1781.73
459.56	1767.40
459.76	1877.99
459.97	1740.77
460.17	1753.06
460.37	1757.16
460.58	1765.35
460.78	1753.06
460.99	1748.97
461.19	1746.92
461.39	1613.80
461.60	1753.06
461.80	1798.12
462.00	1574.89
462.21	1724.39
462.41	1765.35
462.61	1656.81
462.82	1648.61
463.02	1751.01
463.22	1667.05
463.43	1812.45
463.63	1708.01
463.83	1847.27
464.04	1718.25
464.24	1689.57
464.44	1726.44
464.64	1722.34
464.85	1705.96
465.05	1822.69
465.25	1783.78
465.46	1777.64
465.66	1771.49
465.86	1826.79
466.07	1773.54
466.27	1726.44
466.47	1581.03
466.68	1662.95
466.88	1828.84
467.08	1759.21
467.29	1771.49
467.49	1779.68
467.69	1730.53
467.89	1800.16
468.10	1632.23
468.30	1742.82
468.50	1824.74
468.71	1683.43
468.91	1624.04
469.11	1742.82
469.31	1724.39
469.52	1669.09
469.72	1806.31
469.92	1851.36
470.13	1697.77
470.33	1716.20
470.53	1890.28
470.73	2080.74
470.94	2246.62
471.14	2308.06
471.34	2519.00
471.54	2416.60
471.75	2308.06
471.95	2136.03
472.15	1966.05
472.36	2062.30
472.56	2093.02
472.76	2025.44
472.96	1953.76
473.17	1898.47
473.37	1857.51
473.57	1789.92
473.77	1773.54
473.98	1742.82
474.18	1708.01
474.38	1828.84
474.58	1708.01
474.79	1660.90
474.99	1751.01
475.19	1818.60
475.39	1773.54
475.60	1746.92
475.80	1654.76
476.00	1720.29
476.20	1654.76
476.41	1669.09
476.61	1875.94
476.81	1783.78
477.01	1677.29
477.21	1783.78
477.42	1820.64
477.62	1714.15
477.82	1748.97
478.02	1738.73
478.23	1691.62
478.43	1683.43
478.63	1734.63
478.83	1689.57
479.03	1708.01
479.24	1777.64
479.44	1820.64
479.64	1617.90
479.84	1611.75
480.04	1695.72
480.25	1726.44
480.45	1728.49
480.65	1660.90
480.85	1800.16
481.06	1718.25
481.26	1794.02
481.46	1796.07
481.66	1738.73
481.86	1650.66
482.06	1763.30
482.27	1767.40
482.47	1679.33
482.67	1751.01
482.87	1701.86
483.07	1806.31
483.28	1687.53
483.48	1603.56
483.68	1703.91
483.88	1646.57
484.08	1595.37
484.29	1601.51
484.49	1654.76
484.69	1667.05
484.89	1759.21
485.09	1804.26
485.29	1824.74
485.50	1712.10
485.70	1681.38
485.90	1822.69
486.10	1701.86
486.30	1746.92
486.50	1814.50
486.71	1734.63
486.91	1726.44
487.11	1822.69
487.31	1626.09
487.51	1812.45
487.71	1712.10
487.91	1581.03
488.12	1660.90
488.32	1583.08
488.52	1589.22
488.72	1589.22
488.92	1675.24
489.12	1812.45
489.32	1781.73
489.53	1794.02
489.73	1646.57
489.93	1755.11
490.13	1660.90
490.33	1644.52
490.53	1687.53
490.73	1703.91
490.94	1675.24
491.14	1755.11
491.34	1820.64
491.54	2119.65
491.74	2508.76
491.94	2901.97
492.14	3059.67
492.34	2924.50
492.54	2688.98
492.75	2562.01
492.95	2400.22
493.15	2273.25
493.35	2338.78
493.55	2191.33
493.75	2131.94
493.95	2066.40
494.15	2017.25
494.35	1974.24
494.56	1853.41
494.76	1718.25
494.96	1806.31
495.16	1759.21
495.36	1656.81
495.56	1734.63
495.76	1748.97
495.96	1724.39
496.16	1701.86
496.36	1863.65
496.56	1767.40
496.77	1755.11
496.97	1746.92
497.17	1759.21
497.37	1683.43
497.57	1738.73
497.77	1732.58
497.97	1677.29
498.17	1720.29
498.37	1681.38
498.57	1775.59
498.77	1708.01
498.97	1720.29
499.17	1845.22
499.38	1640.42
499.58	1794.02
499.78	1755.11
499.98	1742.82
500.18	1714.15
500.38	1763.30
500.58	1816.55
500.78	2535.39
500.98	4440.00
501.18	5902.25
501.38	6723.48
501.58	7137.17
501.78	6840.22
501.98	5588.91
502.18	4992.95
502.38	4382.65
502.58	4175.81
502.78	3807.17
502.98	3598.28
503.18	3407.82
503.38	3160.02
503.59	2725.85
503.79	2594.78
503.99	2504.67
504.19	2291.68
504.39	2170.85
504.59	2211.81
504.79	2115.55
504.99	2090.98
505.19	1951.71
505.39	1918.95
505.59	1945.57
505.79	1908.71
505.99	1851.36
506.19	1812.45
506.39	1875.94
506.59	1724.39
506.79	1730.53
506.99	1773.54
507.19	1720.29
507.39	1751.01
507.59	1724.39
507.79	1746.92
507.99	1744.87
508.19	1734.63
508.39	1736.68
508.59	1720.29
508.79	1802.21
508.99	1814.50
509.19	1652.71
509.39	1779.68
509.59	1679.33
509.79	1693.67
509.99	1759.21
510.19	1810.40
510.39	1802.21
510.59	1710.05
510.79	1738.73
510.99	1697.77
511.19	1744.87
511.39	1849.32
511.59	1771.49
511.79	1753.06
511.99	1738.73
512.19	1763.30
512.38	1767.40
512.58	1632.23
512.78	1724.39
512.98	1791.97
513.18	1765.35
513.38	1644.52
513.58	1812.45
513.78	1738.73
513.98	1730.53
514.18	1710.05
514.38	1775.59
514.58	1724.39
514.78	1699.81
514.98	1689.57
515.18	1681.38
515.38	1628.14
515.58	1820.64
515.78	1740.77
515.98	1660.90
516.18	1742.82
516.38	1748.97
516.57	1744.87
516.77	1705.96
516.97	1734.63
517.17	1738.73
517.37	1648.61
517.57	1759.21
517.77	1781.73
517.97	1720.29
518.17	1794.02
518.37	1708.01
518.57	1654.76
518.77	1730.53
518.97	1673.19
519.16	1757.16
519.36	1761.25
519.56	1732.58
519.76	1650.66
519.96	1740.77
520.16	1730.53
520.36	1693.67
520.56	1851.36
520.76	1624.04
520.96	1720.29
521.16	1800.16
521.35	1789.92
521.55	1886.18
521.75	1652.71
521.95	1656.81
522.15	1722.34
522.35	1656.81
522.55	1667.05
522.75	1771.49
522.95	1740.77
523.14	1681.38
523.34	1714.15
523.54	1640.42
523.74	1742.82
523.94	1730.53
524.14	1650.66
524.34	1705.96
524.54	1736.68
524.73	1683.43
524.93	1765.35
525.13	1722.34
525.33	1626.09
525.53	1865.70
525.73	1763.30
525.93	1804.26
526.13	1693.67
526.32	1689.57
526.52	1730.53
526.72	1775.59
526.92	1597.42
527.12	1726.44
527.32	1695.72
527.52	1804.26
527.71	1738.73
527.91	1742.82
528.11	1710.05
528.31	1734.63
528.51	1722.34
528.71	1757.16
528.90	1845.22
529.10	1841.12
529.30	1769.44
529.50	1628.14
529.70	1777.64
529.90	1748.97
530.09	1736.68
530.29	1677.29
530.49	1656.81
530.69	1888.23
530.89	1759.21
531.09	1673.19
531.28	1722.34
531.48	1830.88
531.68	1761.25
531.88	1728.49
532.08	1851.36
532.28	1714.15
532.47	1828.84
532.67	1783.78
532.87	1714.15
533.07	1605.61
533.27	1732.58
533.46	1751.01
533.66	1773.54
533.86	1710.05
534.06	1693.67
534.26	1740.77
534.45	1675.24
534.65	1771.49
534.85	1701.86
535.05	1638.38
535.25	1755.11
535.44	1624.04
535.64	1783.78
535.84	1722.34
536.04	1730.53
536.24	1771.49
536.43	1642.47
536.63	1734.63
536.83	1714.15
537.03	1675.24
537.22	1671.14
537.42	1656.81
537.62	1673.19
537.82	1744.87
538.02	1787.88
538.21	1783.78
538.41	1896.42
538.61	1689.57
538.81	1685.48
539.00	1859.56
539.20	1660.90
539.40	1675.24
539.60	1730.53
539.79	1742.82
539.99	1685.48
540.19	1701.86
540.39	1710.05
540.58	1734.63
540.78	1806.31
540.98	1751.01
541.18	1791.97
541.37	1822.69
541.57	1693.67
541.77	1796.07
541.97	1652.71
542.16	1587.18
542.36	1753.06
542.56	1824.74
542.76	1912.80
542.95	1796.07
543.15	1730.53
543.35	1824.74
543.54	1685.48
543.74	1708.01
543.94	1785.83
544.14	1683.43
544.33	1769.44
544.53	1730.53
544.73	1730.53
544.93	1669.09
545.12	1734.63
545.32	1796.07
545.52	1730.53
545.71	1683.43
545.91	1675.24
546.11	1716.20
546.30	1636.33
546.50	1716.20
546.70	1755.11
546.90	1779.68
547.09	1619.94
547.29	1738.73
547.49	1730.53
547.68	1607.66
547.88	1578.98
548.08	1757.16
548.27	2140.13
548.47	1718.25
548.67	1728.49
548.87	1755.11
549.06	1703.91
549.26	1771.49
549.46	1708.01
549.65	1615.85
549.85	1720.29
550.05	1716.20
550.24	1648.61
550.44	1728.49
550.64	1744.87
550.83	1726.44
551.03	1800.16
551.23	1763.30
551.42	1714.15
551.62	1669.09
551.82	1763.30
552.01	1740.77
552.21	1847.27
552.41	1763.30
552.60	1804.26
552.80	1746.92
553.00	1628.14
553.19	1693.67
553.39	1796.07
553.59	1624.04
553.78	1769.44
553.98	1716.20
554.17	1648.61
554.37	1675.24
554.57	1679.33
554.76	1738.73
554.96	1683.43
555.16	1736.68
555.35	1669.09
555.55	1785.83
555.75	1671.14
555.94	1828.84
556.14	1603.56
556.33	1857.51
556.53	1763.30
556.73	1675.24
556.92	1769.44
557.12	1796.07
557.32	1845.22
557.51	1771.49
557.71	1763.30
557.90	1890.28
558.10	1730.53
558.30	1665.00
558.49	1642.47
558.69	1693.67
558.88	1779.68
559.08	1767.40
559.28	1767.40
559.47	1689.57
559.67	1804.26
559.86	1802.21
560.06	1697.77
560.26	1658.85
560.45	1777.64
560.65	1734.63
560.84	1834.98
561.04	1722.34
561.24	1757.16
561.43	1693.67
561.63	1736.68
561.82	1796.07
562.02	1755.11
562.22	1755.11
562.41	1734.63
562.61	1755.11
562.80	1742.82
563.00	1845.22
563.19	1884.13
563.39	1738.73
563.59	1728.49
563.78	1722.34
563.98	1705.96
564.17	1632.23
564.37	1675.24
564.56	1689.57
564.76	1730.53
564.96	1806.31
565.15	1701.86
565.35	1886.18
565.54	1775.59
565.74	1773.54
565.93	1759.21
566.13	1660.90
566.32	1703.91
566.52	1806.31
566.71	1765.35
566.91	1814.50
567.11	1683.43
567.30	1636.33
567.50	1742.82
567.69	1708.01
567.89	1765.35
568.08	1693.67
568.28	1814.50
568.47	1636.33
568.67	1816.55
568.86	1765.35
569.06	1845.22
569.25	1662.95
569.45	1722.34
569.64	1748.97
569.84	1705.96
570.04	1785.83
570.23	1757.16
570.43	1740.77
570.62	1748.97
570.82	1804.26
571.01	1708.01
571.21	1654.76
571.40	1681.38
571.60	1779.68
571.79	1761.25
571.99	1705.96
572.18	1665.00
572.38	1738.73
572.57	1703.91
572.77	1722.34
572.96	1869.80
573.16	1718.25
573.35	1791.97
573.55	1806.31
573.74	1802.21
573.94	1714.15
574.13	1736.68
574.33	1859.56
574.52	1857.51
574.71	1740.77
574.91	1810.40
575.10	1599.46
575.30	1728.49
575.49	1673.19
575.69	1638.38
575.88	1767.40
576.08	1683.43
576.27	1779.68
576.47	1660.90
576.66	1859.56
576.86	1736.68
577.05	1767.40
577.25	1839.08
577.44	1886.18
577.64	1683.43
577.83	1837.03
578.02	1703.91
578.22	1820.64
578.41	1763.30
578.61	1789.92
578.80	1634.28
579.00	1777.64
579.19	1800.16
579.39	1681.38
579.58	1808.36
579.77	1705.96
579.97	1841.12
580.16	1841.12
580.36	1781.73
580.55	1722.34
580.75	1775.59
580.94	1779.68
581.13	1851.36
581.33	1843.17
581.52	1691.62
581.72	1837.03
581.91	1787.88
582.11	1699.81
582.30	1757.16
582.49	1818.60
582.69	1746.92
582.88	1791.97
583.08	1800.16
583.27	1816.55
583.47	1802.21
583.66	1718.25
583.85	1695.72
584.05	1855.46
584.24	1736.68
584.44	1753.06
584.63	1845.22
584.82	1816.55
585.02	1916.90
585.21	1845.22
585.41	1826.79
585.60	1920.99
585.79	1984.48
585.99	1935.33
586.18	1857.51
586.37	2181.09
586.57	3309.52
586.76	9717.61
586.96	24467.08
587.15	34868.72
587.34	40930.70
587.54	42491.26
587.73	36877.77
587.93	26707.56
588.12	21806.77
588.31	18325.22
588.51	16664.32
588.70	15447.83
588.89	14167.85
589.09	12597.06
589.28	11079.51
589.47	9535.34
589.67	8040.33
589.86	6545.31
590.06	5031.86
590.25	4014.02
590.44	3114.96
590.64	2596.82
590.83	2230.24
591.02	2144.22
591.22	2058.21
591.41	1918.95
591.60	1847.27
591.80	1986.53
591.99	1746.92
592.18	1771.49
592.38	1845.22
592.57	1757.16
592.76	1779.68
592.96	1748.97
593.15	1691.62
593.34	1763.30
593.54	1783.78
593.73	1763.30
593.92	1826.79
594.12	1796.07
594.31	1708.01
594.50	1898.47
594.70	1767.40
594.89	1857.51
595.08	1708.01
595.28	1722.34
595.47	1865.70
595.66	1808.36
595.86	1675.24
596.05	1787.88
596.24	1740.77
596.43	1894.37
596.63	1746.92
596.82	1771.49
597.01	1753.06
597.21	1888.23
597.40	1775.59
597.59	1783.78
597.79	1765.35
597.98	1849.32
598.17	1771.49
598.36	1716.20
598.56	1808.36
598.75	1755.11
598.94	1716.20
599.14	1748.97
599.33	1658.85
599.52	1818.60
599.71	1775.59
599.91	1787.88
600.10	1703.91
600.29	1681.38
600.48	1763.30
600.68	1794.02
600.87	1691.62
601.06	1714.15
601.26	1742.82
601.45	1808.36
601.64	1632.23
601.83	1736.68
602.03	1708.01
602.22	1654.76
602.41	1867.75
602.60	1871.84
602.80	1697.77
602.99	1740.77
603.18	1705.96
603.37	1693.67
603.57	1765.35
603.76	1804.26
603.95	1748.97
604.14	1726.44
604.34	1650.66
604.53	1699.81
604.72	1759.21
604.91	1658.85
605.10	1734.63
605.30	1691.62
605.49	1880.04
605.68	1796.07
605.87	1722.34
606.07	1751.01
606.26	1726.44
606.45	1755.11
606.64	1693.67
606.84	1726.44
607.03	1720.29
607.22	1681.38
607.41	1718.25
607.60	1691.62
607.80	1740.77
607.99	1669.09
608.18	1716.20
608.37	1701.86
608.56	1751.01
608.76	1785.83
608.95	1816.55
609.14	1751.01
609.33	1732.58
609.52	1775.59
609.72	1773.54
609.91	1796.07
610.10	1751.01
610.29	1779.68
610.48	1779.68
610.68	1748.97
610.87	1738.73
611.06	1773.54
611.25	1714.15
611.44	1871.84
611.63	1708.01
611.83	1826.79
612.02	1669.09
612.21	1837.03
612.40	1607.66
612.59	1697.77
612.79	1628.14
612.98	1669.09
613.17	1857.51
613.36	1779.68
613.55	1748.97
613.74	1677.29
613.93	1656.81
614.13	1738.73
614.32	1701.86
614.51	1718.25
614.70	1728.49
614.89	1650.66
615.08	1734.63
615.28	1978.34
615.47	1730.53
615.66	1736.68
615.85	1789.92
616.04	1816.55
616.23	1751.01
616.42	1691.62
616.62	1751.01
616.81	1736.68
617.00	1736.68
617.19	1826.79
617.38	1689.57
617.57	1710.05
617.76	1724.39
617.95	1667.05
618.15	1726.44
618.34	1802.21
618.53	1650.66
618.72	1763.30
618.91	1798.12
619.10	1808.36
619.29	1705.96
619.48	1751.01
619.68	1730.53
619.87	1732.58
620.06	1718.25
620.25	1826.79
620.44	1785.83
620.63	1662.95
620.82	1716.20
621.01	1714.15
621.20	1671.14
621.39	1734.63
621.59	1660.90
621.78	1691.62
621.97	1712.10
622.16	1744.87
622.35	1689.57
622.54	1677.29
622.73	1849.32
622.92	1708.01
623.11	1730.53
623.30	1687.53
623.49	1724.39
623.68	1681.38
623.88	1751.01
624.07	1654.76
624.26	1691.62
624.45	1736.68
624.64	1667.05
624.83	1626.09
625.02	1654.76
625.21	1746.92
625.40	1769.44
625.59	1773.54
625.78	1695.72
625.97	1697.77
626.16	1832.93
626.35	1771.49
626.54	1687.53
626.74	1775.59
626.93	1742.82
627.12	1744.87
627.31	1757.16
627.50	1720.29
627.69	1765.35
627.88	1746.92
628.07	1738.73
628.26	1685.48
628.45	1626.09
628.64	1656.81
628.83	1730.53
629.02	1599.46
629.21	1755.11
629.40	1644.52
629.59	1628.14
629.78	1683.43
629.97	1677.29
630.16	1751.01
630.35	1619.94
630.54	1769.44
630.73	1685.48
630.92	1671.14
631.11	1634.28
631.30	1755.11
631.49	1861.60
631.68	1775.59
631.87	1783.78
632.06	1648.61
632.25	1890.28
632.44	1740.77
632.63	1761.25
632.82	1667.05
633.01	1691.62
633.20	1740.77
633.39	1740.77
633.58	1630.18
633.77	1677.29
633.96	1697.77
634.15	1751.01
634.34	1742.82
634.53	1656.81
634.72	1675.24
634.91	1562.60
635.10	1767.40
635.29	1695.72
635.48	1681.38
635.67	1705.96
635.86	1697.77
636.05	1794.02
636.24	1720.29
636.43	1757.16
636.62	1867.75
636.81	1513.45
637.00	1615.85
637.19	1779.68
637.38	1714.15
637.57	1726.44
637.76	1689.57
637.95	1712.10
638.14	1656.81
638.33	1755.11
638.52	1779.68
638.71	1699.81
638.89	1642.47
639.08	1824.74
639.27	1718.25
639.46	1685.48
639.65	1742.82
639.84	1736.68
640.03	1783.78
640.22	1687.53
640.41	1824.74
640.60	1673.19
640.79	1730.53
640.98	1722.34
641.17	1755.11
641.36	1765.35
641.55	1771.49
641.74	1656.81
641.92	1624.04
642.11	1640.42
642.30	1644.52
642.49	1601.51
642.68	1595.37
642.87	1699.81
643.06	1755.11
643.25	1699.81
643.44	1708.01
643.63	1740.77
643.82	1701.86
644.00	1683.43
644.19	1708.01
644.38	1716.20
644.57	1812.45
644.76	1691.62
644.95	1708.01
645.14	1761.25
645.33	1677.29
645.52	1658.85
645.71	1673.19
645.89	1695.72
646.08	1687.53
646.27	1636.33
646.46	1830.88
646.65	1658.85
646.84	1753.06
647.03	1632.23
647.22	1751.01
647.40	1689.57
647.59	1701.86
647.78	1615.85
647.97	1624.04
648.16	1675.24
648.35	1751.01
648.54	1808.36
648.73	1751.01
648.91	1765.35
649.10	1722.34
649.29	1626.09
649.48	1742.82
649.67	1687.53
649.86	1724.39
650.05	1710.05
650.23	1730.53
650.42	1611.75
650.61	1775.59
650.80	1830.88
650.99	1742.82
651.18	1742.82
651.36	1740.77
651.55	1742.82
651.74	1744.87
651.93	1697.77
652.12	1740.77
652.31	1673.19
652.49	1681.38
652.68	1667.05
652.87	1787.88
653.06	1748.97
653.25	1759.21
653.44	1701.86
653.62	1800.16
653.81	1728.49
654.00	1796.07
654.19	1804.26
654.38	1875.94
654.56	1634.28
654.75	1669.09
654.94	1775.59
655.13	1783.78
655.32	1732.58
655.51	1740.77
655.69	1681.38
655.88	1757.16
656.07	1658.85
656.26	1847.27
656.45	1646.57
656.63	1738.73
656.82	1736.68
657.01	1738.73
657.20	1726.44
657.38	1708.01
657.57	1689.57
657.76	1621.99
657.95	1667.05
658.14	1736.68
658.32	1699.81
658.51	1689.57
658.70	1705.96
658.89	1685.48
659.08	1673.19
659.26	1794.02
659.45	1677.29
659.64	1693.67
659.83	1640.42
660.01	1855.46
660.20	1734.63
660.39	1810.40
660.58	1638.38
660.76	1791.97
660.95	1648.61
661.14	1697.77
661.33	1621.99
661.51	1671.14
661.70	1665.00
661.89	1681.38
662.08	1742.82
662.26	1656.81
662.45	1730.53
662.64	1771.49
662.83	1767.40
663.01	1675.24
663.20	1716.20
663.39	1773.54
663.58	1759.21
663.76	1662.95
663.95	1785.83
664.14	1714.15
664.32	1603.56
664.51	1652.71
664.70	1687.53
664.89	1818.60
665.07	1632.23
665.26	1828.84
665.45	1644.52
665.64	1789.92
665.82	1765.35
666.01	1763.30
666.20	1681.38
666.38	1806.31
666.57	1847.27
666.76	2127.84
666.95	4485.05
667.13	10415.97
667.32	15308.57
667.51	18038.51
667.69	19091.16
667.88	17696.50
668.07	12486.47
668.25	9641.84
668.44	8136.58
668.63	7468.94
668.81	6748.06
669.00	6399.90
669.19	5693.35
669.38	5121.97
669.56	4575.16
669.75	3995.59
669.94	3479.50
670.12	2897.88
670.31	2539.48
670.50	2265.05
670.68	2090.98
670.87	1918.95
671.06	1839.08
671.24	1890.28
671.43	1834.98
671.62	1650.66
671.80	1662.95
671.99	1724.39
672.18	1761.25
672.36	1732.58
672.55	1773.54
672.74	1730.53
672.92	1683.43
673.11	1761.25
673.29	1665.00
673.48	1783.78
673.67	1605.61
673.85	1759.21
674.04	1685.48
674.23	1712.10
674.41	1880.04
674.60	1695.72
674.79	1646.57
674.97	1718.25
675.16	1724.39
675.34	1767.40
675.53	1665.00
675.72	1677.29
675.90	1755.11
676.09	1716.20
676.28	1687.53
676.46	1660.90
676.65	1697.77
676.83	1677.29
677.02	1701.86
677.21	1724.39
677.39	1738.73
677.58	1689.57
677.77	1708.01
677.95	1691.62
678.14	1701.86
678.32	1691.62
678.51	1708.01
678.70	1820.64
678.88	1628.14
679.07	1691.62
679.25	1689.57
679.44	1660.90
679.63	1687.53
679.81	1742.82
680.00	1755.11
680.18	1716.20
680.37	1830.88
680.55	1748.97
680.74	1642.47
680.93	1609.70
681.11	1685.48
681.30	1718.25
681.48	1695.72
681.67	1652.71
681.85	1667.05
682.04	1654.76
682.23	1759.21
682.41	1781.73
682.60	1626.09
682.78	1716.20
682.97	1667.05
683.15	1708.01
683.34	1693.67
683.53	1740.77
683.71	1640.42
683.90	1771.49
684.08	1789.92
684.27	1638.38
684.45	1689.57
684.64	1765.35
684.82	1699.81
685.01	1714.15
685.19	1767.40
685.38	1812.45
685.57	1734.63
685.75	1669.09
685.94	1732.58
686.12	1710.05
686.31	1689.57
686.49	1806.31
686.68	1640.42
686.86	1703.91
687.05	1742.82
687.23	1769.44
687.42	1638.38
687.60	1605.61
687.79	1679.33
687.97	1767.40
688.16	1777.64
688.34	1771.49
688.53	1603.56
688.71	1765.35
688.90	1781.73
689.08	1617.90
689.27	1644.52
689.45	1755.11
689.64	1656.81
689.82	1734.63
690.01	1724.39
690.19	1767.40
690.38	1742.82
690.56	1771.49
690.75	1683.43
690.93	1675.24
691.12	1673.19
691.30	1697.77
691.49	1673.19
691.67	1740.77
691.86	1853.41
692.04	1624.04
692.23	1736.68
692.41	1652.71
692.60	1867.75
692.78	1759.21
692.97	1732.58
693.15	1755.11
693.34	1708.01
693.52	1771.49
693.71	1716.20
693.89	1624.04
694.08	1642.47
694.26	1681.38
694.44	1742.82
694.63	1730.53
694.81	1587.18
695.00	1669.09
695.18	1726.44
695.37	1931.23
695.55	1712.10
695.74	1658.85
695.92	1746.92
696.10	1794.02
696.29	1675.24
696.47	1689.57
696.66	1628.14
696.84	1662.95
697.03	1677.29
697.21	1771.49
697.40	2316.25
697.58	1773.54
697.76	1716.20
697.95	1689.57
698.13	1712.10
698.32	1665.00
698.50	1736.68
698.68	1736.68
698.87	1791.97
699.05	1738.73
699.24	1710.05
699.42	1693.67
699.61	1722.34
699.79	1761.25
699.97	1791.97
700.16	1650.66
700.34	1640.42
700.53	1683.43
700.71	1824.74
700.89	1697.77
701.08	1734.63
701.26	1736.68
701.45	2039.78
701.63	1626.09
701.81	1705.96
702.00	1619.94
702.18	1656.81
702.37	1640.42
702.55	1806.31
702.73	1722.34
702.92	1621.99
703.10	1755.11
703.28	1695.72
703.47	1656.81
703.65	1800.16
703.84	1751.01
704.02	1624.04
704.20	1794.02
704.39	1665.00
704.57	1703.91
704.75	1785.83
704.94	1773.54
705.12	1730.53
705.30	1794.02
705.49	2277.34
705.67	4431.80
705.86	9305.97
706.04	12554.05
706.22	14694.18
706.41	15433.49
706.59	13907.76
706.77	9701.23
706.96	7554.96
707.14	6711.19
707.32	6010.79
707.51	5687.21
707.69	5072.82
707.87	4216.77
708.06	3573.71
708.24	3024.85
708.42	2478.04
708.61	2207.71
708.79	1904.61
708.97	1937.38
709.16	1863.65
709.34	1894.37
709.52	1683.43
709.71	1718.25
709.89	1718.25
710.07	1697.77
710.26	1652.71
710.44	1732.58
710.62	1798.12
710.80	1677.29
710.99	1671.14
711.17	1796.07
711.35	1671.14
711.54	1642.47
711.72	1849.32
711.90	1681.38
712.09	1724.39
712.27	1654.76
712.45	1769.44
712.63	1675.24
712.82	1667.05
713.00	1724.39
713.18	1767.40
713.37	1777.64
713.55	1716.20
713.73	1734.63
713.91	1767.40
714.10	1734.63
714.28	1689.57
714.46	1726.44
714.65	1755.11
714.83	1734.63
715.01	1693.67
715.19	1742.82
715.38	1675.24
715.56	1695.72
715.74	1701.86
715.92	1626.09
716.11	1796.07
716.29	1589.22
716.47	1685.48
716.65	1611.75
716.84	1632.23
717.02	1738.73
717.20	1626.09
717.38	1685.48
717.57	1679.33
717.75	1714.15
717.93	1718.25
718.11	1689.57
718.30	1650.66
718.48	1710.05
718.66	1822.69
718.84	1757.16
719.03	1705.96
719.21	1615.85
719.39	1800.16
719.57	1757.16
719.75	1751.01
719.94	1658.85
720.12	1621.99
720.30	1699.81
720.48	1736.68
720.67	1665.00
720.85	1662.95
721.03	1685.48
721.21	1650.66
721.39	1722.34
721.58	1703.91
721.76	1693.67
721.94	1769.44
722.12	1757.16
722.30	1728.49
722.49	1669.09
722.67	1789.92
722.85	1675.24
723.03	1671.14
723.21	1679.33
723.40	1675.24
723.58	1742.82
723.76	1697.77
723.94	1732.58
724.12	1714.15
724.30	1767.40
724.49	1736.68
724.67	1652.71
724.85	1705.96
725.03	1644.52
725.21	1728.49
725.40	1757.16
725.58	1611.75
725.76	1814.50
725.94	1748.97
726.12	1642.47
726.30	1693.67
726.49	1697.77
726.67	1652.71
726.85	1794.02
727.03	1710.05
727.21	2150.37
727.39	2865.11
727.57	3751.88
727.76	4130.75
727.94	4376.51
728.12	4372.41
728.30	3610.57
728.48	2959.31
728.66	2684.89
728.84	2516.95
729.03	2306.01
729.21	2160.61
729.39	2027.49
729.57	1828.84
729.75	1800.16
729.93	1820.64
730.11	1738.73
730.30	1683.43
730.48	1699.81
730.66	1781.73
730.84	1771.49
731.02	1662.95
731.20	1673.19
731.38	1742.82
731.56	1667.05
731.74	1642.47
731.93	1712.10
732.11	1712.10
732.29	1699.81
732.47	1660.90
732.65	1693.67
732.83	1755.11
733.01	1732.58
733.19	1710.05
733.37	1650.66
733.56	1785.83
733.74	1693.67
733.92	1742.82
734.10	1740.77
734.28	1740.77
734.46	1636.33
734.64	1660.90
734.82	1667.05
735.00	1697.77
735.18	1732.58
735.36	1771.49
735.54	1665.00
735.73	1728.49
735.91	1705.96
736.09	1724.39
736.27	1753.06
736.45	1748.97
736.63	1599.46
736.81	1624.04
736.99	1767.40
737.17	1796.07
737.35	1624.04
737.53	1695.72
737.71	1746.92
737.89	1763.30
738.07	1658.85
738.25	1648.61
738.43	1648.61
738.61	1681.38
738.80	1619.94
738.98	1658.85
739.16	1710.05
739.34	1726.44
739.52	1736.68
739.70	1667.05
739.88	1740.77
740.06	1808.36
740.24	1603.56
740.42	1722.34
740.60	1652.71
740.78	1611.75
740.96	1665.00
741.14	1679.33
741.32	1771.49
741.50	1648.61
741.68	1812.45
741.86	1687.53
742.04	1626.09
742.22	1640.42
742.40	1701.86
742.58	1767.40
742.76	1621.99
742.94	1705.96
743.12	1665.00
743.30	1691.62
743.48	1728.49
743.66	1656.81
743.84	1751.01
744.02	1650.66
744.20	1656.81
744.38	1630.18
744.56	1705.96
744.74	1812.45
744.92	1763.30
745.10	1845.22
745.28	1746.92
745.46	1697.77
745.64	1658.85
745.82	1730.53
746.00	1744.87
746.18	1728.49
746.36	1734.63
746.54	1777.64
746.72	1689.57
746.90	1683.43
747.08	1816.55
747.26	1583.08
747.44	1642.47
747.62	1718.25
747.80	1738.73
747.98	1628.14
748.15	1654.76
748.33	1755.11
748.51	1624.04
748.69	1726.44
748.87	1638.38
749.05	1662.95
749.23	1753.06
749.41	1660.90
749.59	1667.05
749.77	1742.82
749.95	1636.33
750.13	1703.91
750.31	1738.73
750.49	1624.04
750.67	1738.73
750.85	1843.17
751.03	1771.49
751.20	1763.30
751.38	1748.97
751.56	1728.49
751.74	1779.68
751.92	1658.85
752.10	1599.46
752.28	1734.63
752.46	1576.94
752.64	1652.71
752.82	1712.10
753.00	1763.30
753.18	1738.73
753.35	1640.42
753.53	1697.77
753.71	1691.62
753.89	1697.77
754.07	1724.39
754.25	1693.67
754.43	1677.29
754.61	1652.71
754.79	1726.44
754.97	1669.09
755.14	1800.16
755.32	1652.71
755.50	1665.00
755.68	1746.92
755.86	1703.91
756.04	1601.51
756.22	1701.86
756.40	1753.06
756.57	1783.78
756.75	1681.38
756.93	1818.60
757.11	1771.49
757.29	1691.62
757.47	1558.50
757.65	1605.61
757.82	1562.60
758.00	1652.71
758.18	1665.00
758.36	1722.34
758.54	1726.44
758.72	1546.22
758.90	1802.21
759.07	1710.05
759.25	1626.09
759.43	1730.53
759.61	1599.46
759.79	2168.80
759.97	1708.01
760.15	1638.38
760.32	1656.81
760.50	1708.01
760.68	1802.21
760.86	1636.33
761.04	1787.88
761.22	1718.25
761.39	1765.35
761.57	1722.34
761.75	1640.42
761.93	1744.87
762.11	1677.29
762.28	1703.91
762.46	1677.29
762.64	1693.67
762.82	1642.47
763.00	1605.61
763.18	1742.82
763.35	1669.09
763.53	1753.06
763.71	1671.14
763.89	1730.53
764.07	1732.58
764.24	1703.91
764.42	1800.16
764.60	1734.63
764.78	1716.20
764.96	1761.25
765.13	1765.35
765.31	1650.66
765.49	1669.09
765.67	1644.52
765.84	1697.77
766.02	1671.14
766.20	1621.99
766.38	1783.78
766.56	1681.38
766.73	1765.35
766.91	1673.19
767.09	1685.48
767.27	1783.78
767.44	1665.00
767.62	1716.20
767.80	1757.16
767.98	1687.53
768.15	1662.95
768.33	1738.73
768.51	1675.24
768.69	1714.15
768.87	1701.86
769.04	1730.53
769.22	1927.14
769.40	1806.31
769.58	1865.70
769.75	1701.86
769.93	1841.12
770.11	1697.77
770.28	1597.42
770.46	1785.83
770.64	1720.29
770.82	1689.57
770.99	1728.49
771.17	1730.53
771.35	1632.23
771.53	1689.57
771.70	1724.39
771.88	1722.34
772.06	1687.53
772.23	1708.01
772.41	1701.86
772.59	1689.57
772.77	1589.22
772.94	1757.16
773.12	1705.96
773.30	1683.43
773.47	1744.87
773.65	1656.81
773.83	1759.21
774.01	1648.61
774.18	1568.74
774.36	1718.25
774.54	1705.96
774.71	1748.97
774.89	1615.85
775.07	1646.57
775.24	1689.57
775.42	1701.86
775.60	1759.21
775.78	1693.67
775.95	1617.90
776.13	1644.52
776.31	1562.60
776.48	1714.15
776.66	1738.73
776.84	1681.38
777.01	1607.66
777.19	1714.15
777.37	1658.85
777.54	1683.43
777.72	1789.92
777.90	1722.34
778.07	1636.33
778.25	1859.56
778.43	1783.78
778.60	1593.32
778.78	1779.68
778.96	1699.81
779.13	1710.05
779.31	1677.29
779.49	1708.01
779.66	1714.15
779.84	1714.15
780.01	1751.01
780.19	1636.33
780.37	1744.87
780.54	1830.88
780.72	1679.33
780.90	1732.58
781.07	1701.86
781.25	1630.18
781.43	1726.44
781.60	1697.77
781.78	1693.67
781.95	1751.01
782.13	1705.96
782.31	1689.57
782.48	1626.09
782.66	1681.38
782.83	1773.54
783.01	1652.71
783.19	1722.34
783.36	1736.68
783.54	1615.85
783.72	1734.63
783.89	1693.67
784.07	1777.64
784.24	1734.63
784.42	1761.25
784.60	1693.67
784.77	1718.25
784.95	1667.05
785.12	1636.33
785.30	1746.92
785.47	1597.42
785.65	1675.24
785.83	1634.28
786.00	1712.10
786.18	1656.81
786.35	1621.99
786.53	1648.61
786.71	1812.45
786.88	1732.58
787.06	1660.90
787.23	1650.66
787.41	1662.95
787.58	1716.20
787.76	1687.53
787.94	1697.77
788.11	1767.40
788.29	1613.80
788.46	1662.95
788.64	1574.89
788.81	1697.77
788.99	1581.03
789.16	1642.47
789.34	1656.81
789.52	1716.20
789.69	1687.53
789.87	1558.50
790.04	1646.57
790.22	1710.05
790.39	1812.45
790.57	1593.32
790.74	1667.05
790.92	1765.35
791.09	1667.05
791.27	1699.81
791.44	1726.44
791.62	1716.20
791.79	1757.16
791.97	1626.09
792.15	1916.90
792.32	1775.59
792.50	1712.10
792.67	1861.60
792.85	1773.54
793.02	1746.92
793.20	1730.53
793.37	1626.09
793.55	1675.24
793.72	1617.90
793.90	1728.49
794.07	1632.23
794.25	1626.09
794.42	1683.43
794.60	1705.96
794.77	1679.33
794.95	1720.29
795.12	1746.92
795.30	1710.05
795.47	1634.28
795.65	1869.80
795.82	1708.01
796.00	1673.19
796.17	1675.24
796.34	1714.15
796.52	1775.59
796.69	1722.34
796.87	1816.55
797.04	1775.59
797.22	1773.54
797.39	1634.28
797.57	1775.59
797.74	1763.30
797.92	1712.10
798.09	1632.23
798.27	1755.11
798.44	1712.10
798.62	1705.96
798.79	1679.33
798.96	1667.05
799.14	1705.96
799.31	1830.88
799.49	1738.73
799.66	1656.81
799.84	1740.77
800.01	1665.00
800.19	1746.92
800.36	1595.37
800.53	1685.48
800.71	1681.38
800.88	1712.10
801.06	1589.22
801.23	1701.86
801.41	1714.15
801.58	1632.23
801.75	1636.33
801.93	1796.07
802.10	1740.77
802.28	1679.33
802.45	1667.05
802.63	1781.73
802.80	1716.20
802.97	1628.14
803.15	1744.87
803.32	1728.49
803.50	1705.96
803.67	1624.04
803.84	1712.10
804.02	1656.81
804.19	1679.33
804.37	1546.22
804.54	1628.14
804.71	1665.00
804.89	1679.33
805.06	1701.86
805.24	1665.00
805.41	1591.27
805.58	1691.62
805.76	1865.70
805.93	1716.20
806.10	1804.26
806.28	1740.77
806.45	1722.34
806.63	1656.81
806.80	1738.73
806.97	1828.84
807.15	1675.24
807.32	1751.01
807.49	1777.64
807.67	1632.23
807.84	1730.53
808.01	1581.03
808.19	1839.08
808.36	1742.82
808.54	1687.53
808.71	1615.85
808.88	1671.14
809.06	1693.67
809.23	1767.40
809.40	1683.43
809.58	1794.02
809.75	1638.38
809.92	1652.71
810.10	1892.32
810.27	1652.71
810.44	1685.48
810.62	1703.91
810.79	1718.25
810.96	1734.63
811.14	1708.01
811.31	1744.87
811.48	1820.64
811.66	1726.44
811.83	1744.87
812.00	1693.67
812.18	1712.10
812.35	1855.46
812.52	1660.90
812.69	1624.04
812.87	1710.05
813.04	1607.66
813.21	1708.01
813.39	1671.14
813.56	1665.00
813.73	1718.25
813.91	1542.12
814.08	1665.00
814.25	1689.57
814.42	1597.42
814.60	1572.84
814.77	1728.49
814.94	1714.15
815.12	1691.62
815.29	1773.54
815.46	1718.25
815.63	1619.94
815.81	1710.05
815.98	1718.25
816.15	1662.95
816.33	1681.38
816.50	1759.21
816.67	1710.05
816.84	1701.86
817.02	1656.81
817.19	1703.91
817.36	1689.57
817.53	1740.77
817.71	1652.71
817.88	1759.21
818.05	1613.80
818.22	1630.18
818.40	1777.64
818.57	1746.92
818.74	1701.86
818.91	1650.66
819.09	1761.25
819.26	1665.00
819.43	1699.81
819.60	1656.81
819.78	1705.96
819.95	1781.73
820.12	1679.33
820.29	1730.53
820.47	1751.01
820.64	1652.71
820.81	1691.62
820.98	1701.86
821.15	1658.85
821.33	1728.49
821.50	1601.51
821.67	1673.19
821.84	1722.34
822.02	1724.39
822.19	1742.82
822.36	1648.61
822.53	1718.25
822.70	1619.94
822.88	1714.15
823.05	1828.84
823.22	1693.67
823.39	1751.01
823.56	1673.19
823.74	1746.92
823.91	1644.52
824.08	1681.38
824.25	1603.56
824.42	1791.97
824.60	1562.60
824.77	1722.34
824.94	1734.63
825.11	1755.11
825.28	1642.47
825.45	1755.11
825.63	1730.53
825.80	1667.05
825.97	1703.91
826.14	1697.77
826.31	1562.60
826.48	1757.16
826.66	1683.43
826.83	1660.90
827.00	1712.10
827.17	1644.52
827.34	1654.76
827.51	1609.70
827.69	1722.34
827.86	1570.79
828.03	1703.91
828.20	1720.29
828.37	1726.44
828.54	1736.68
828.71	1642.47
828.89	1753.06
829.06	1693.67
829.23	1896.42
829.40	1564.65
829.57	1705.96
829.74	1705.96
829.91	1675.24
830.09	1673.19
830.26	1683.43
830.43	1697.77
830.60	1695.72
830.77	1738.73
830.94	1783.78
831.11	1751.01
831.28	1773.54
831.46	1794.02
831.63	1708.01
831.80	1773.54
831.97	1701.86
832.14	1644.52
832.31	1732.58
832.48	1693.67
832.65	1761.25
832.82	1722.34
832.99	1656.81
833.17	1587.18
833.34	1804.26
833.51	1640.42
833.68	1644.52
833.85	1742.82
834.02	1658.85
834.19	1638.38
834.36	1673.19
834.53	1708.01
834.70	1765.35
834.87	1781.73
835.04	1662.95
835.22	1556.46
835.39	1679.33
835.56	1662.95
835.73	1687.53
835.90	1796.07
836.07	1718.25
836.24	1689.57
836.41	1665.00
836.58	1570.79
836.75	1755.11
836.92	1662.95
837.09	1634.28
837.26	1718.25
837.43	1652.71
837.60	1738.73
837.77	1685.48
837.94	1779.68
838.12	1742.82
838.29	1751.01
838.46	1607.66
838.63	1636.33
838.80	1787.88
838.97	1738.73
839.14	1705.96
839.31	1611.75
839.48	1736.68
839.65	1615.85
839.82	1738.73
839.99	1681.38
840.16	1779.68
840.33	1599.46
840.50	1652.71
840.67	1540.07
840.84	1558.50
841.01	1640.42
841.18	1679.33
841.35	1757.16
841.52	1710.05
841.69	1777.64
841.86	1619.94
842.03	1736.68
842.20	1724.39
842.37	1697.77
842.54	1681.38
842.71	1628.14
842.88	1722.34
843.05	1718.25
843.22	1642.47
843.39	1746.92
843.56	1718.25
843.73	1619.94
843.90	1730.53
844.07	1732.58
844.24	1785.83
844.41	1708.01
844.58	1619.94
844.75	1685.48
844.92	1689.57
845.09	1701.86
845.26	1677.29
845.43	1701.86
845.60	1708.01
845.77	1800.16
845.94	1726.44
846.10	1783.78
846.27	1583.08
846.44	1626.09
846.61	1632.23
846.78	1693.67
846.95	1798.12
847.12	1738.73
847.29	1708.01
847.46	1595.37
847.63	1718.25
847.80	1646.57
847.97	1656.81
848.14	1759.21
848.31	1691.62
848.48	1607.66
848.65	1640.42
848.82	1673.19
848.98	1855.46
849.15	1777.64
849.32	1855.46
849.49	1796.07
849.66	1714.15
849.83	1628.14
850.00	1601.51
850.17	1624.04
850.34	1701.86
850.51	1603.56
850.68	1640.42
850.85	1845.22
851.01	1742.82
851.18	1693.67
851.35	1697.77
851.52	1726.44
851.69	1779.68
851.86	1679.33
852.03	1716.20
852.20	1771.49
852.37	1703.91
852.53	1603.56
852.70	1720.29
852.87	1634.28
853.04	1710.05
853.21	1742.82
853.38	1763.30
853.55	1726.44
853.72	1781.73
853.89	1669.09
854.05	1601.51
854.22	1642.47
854.39	1675.24
854.56	1679.33
854.73	1738.73
854.90	1648.61
855.07	1693.67
855.23	1658.85
855.40	1748.97
855.57	1722.34
855.74	1560.55
855.91	1845.22
856.08	1566.70
856.25	1572.84
856.41	1626.09
856.58	1708.01
856.75	1703.91
856.92	1671.14
857.09	1720.29
857.26	1611.75
857.42	1605.61
857.59	1757.16
857.76	1693.67
857.93	1726.44
858.10	1722.34
858.27	1656.81
858.43	1724.39
858.60	1644.52
858.77	1634.28
858.94	1685.48
859.11	1720.29
859.27	1675.24
859.44	1708.01
859.61	1810.40
859.78	1757.16
859.95	1697.77
860.12	1642.47
860.28	1722.34
860.45	1681.38
860.62	1669.09
860.79	1730.53
860.95	1685.48
861.12	1615.85
861.29	1665.00
861.46	1609.70
861.63	1683.43
861.79	1730.53
861.96	1665.00
862.13	1677.29
862.30	1730.53
862.47	1650.66
862.63	1634.28
862.80	1718.25
862.97	1744.87
863.14	1730.53
863.30	1671.14
863.47	1708.01
863.64	1697.77
863.81	1687.53
863.97	1699.81
864.14	1740.77
864.31	1714.15
864.48	1734.63
864.65	1751.01
864.81	1746.92
864.98	1728.49
865.15	1761.25
865.32	1728.49
865.48	1796.07
865.65	1738.73
865.82	1656.81
865.98	1730.53
866.15	1796.07
866.32	1644.52
866.49	1662.95
866.65	1751.01
866.82	1697.77
866.99	1710.05
867.16	1662.95
867.32	1665.00
867.49	1691.62
867.66	1718.25
867.83	1636.33
867.99	1542.12
868.16	1794.02
868.33	1687.53
868.49	1718.25
868.66	1654.76
868.83	1771.49
868.99	1669.09
869.16	1665.00
869.33	1791.97
869.50	1755.11
869.66	1671.14
869.83	1683.43
870.00	1548.26
870.16	1755.11
870.33	1693.67
870.50	1751.01
870.66	1689.57
870.83	1812.45
871.00	1646.57
871.17	1746.92
871.33	1761.25
871.50	1652.71
871.67	1636.33
871.83	1638.38
872.00	1808.36
872.17	1535.98
872.33	1832.93
872.50	1705.96
872.67	1714.15
872.83	1658.85
873.00	1697.77
873.17	1771.49
873.33	1708.01
873.50	1748.97
873.67	1576.94
873.83	1652.71
874.00	1667.05
874.16	1718.25
874.33	1691.62
874.50	1689.57
874.66	1716.20
874.83	1675.24
875.00	1748.97
875.16	1810.40
875.33	1783.78
875.50	1599.46
875.66	1673.19
875.83	1708.01
875.99	1748.97
876.16	1679.33
876.33	1615.85
876.49	1665.00
876.66	1730.53
876.83	1685.48
876.99	1566.70
877.16	1773.54
877.32	1642.47
877.49	1652.71
877.66	1691.62
877.82	1703.91
877.99	1734.63
878.15	1714.15
878.32	1712.10
878.49	1673.19
878.65	1648.61
878.82	1720.29
878.98	1681.38
879.15	1703.91
879.32	1755.11
879.48	1726.44
879.65	1607.66
879.81	1677.29
879.98	1718.25
880.15	1681.38
880.31	1738.73
880.48	1708.01
880.64	1699.81
880.81	1701.86
880.97	1859.56
881.14	1693.67
881.31	1636.33
881.47	1806.31
881.64	1724.39
881.80	1654.76
881.97	1708.01
882.13	1724.39
882.30	1693.67
882.47	1683.43
882.63	1697.77
882.80	1621.99
882.96	1679.33
883.13	1789.92
883.29	1687.53
883.46	1728.49
883.62	1791.97
883.79	1712.10
883.95	1730.53
884.12	1642.47
884.29	1740.77
884.45	1671.14
884.62	1697.77
884.78	1671.14
884.95	1808.36
885.11	1718.25
885.28	1687.53
885.44	1712.10
885.61	1689.57
885.77	1771.49
885.94	1767.40
886.10	1701.86
886.27	1658.85
886.43	1763.30
886.60	1736.68
886.76	1648.61
886.93	1585.13
887.09	1714.15
887.26	1617.90
887.42	1660.90
887.59	1746.92
887.75	1832.93
887.92	1710.05
888.08	1732.58
888.25	1777.64
888.41	1761.25
888.58	1726.44
888.74	1644.52
888.91	1701.86
>>>>>End Processed Spectral Data<<<<<
