SpectraSuite Data File
++++++++++++++++++++++++++++++++++++
Date: Mon Jun 06 12:42:57 CEST 2016
User: root
Dark Spectrum Present: No
Reference Spectrum Present: No
Number of Sampled Component Spectra: 1
Spectrometers: USB4C02835
Integration Time (usec): 100000 (USB4C02835)
Spectra Averaged: 1 (USB4C02835)
Boxcar Smoothing: 0 (USB4C02835)
Correct for Electrical Dark: No (USB4C02835)
Strobe/Lamp Enabled: No (USB4C02835)
Correct for Detector Non-linearity: No (USB4C02835)
Correct for Stray Light: No (USB4C02835)
Number of Pixels in Processed Spectrum: 3648
>>>>>Begin Processed Spectral Data<<<<<
177.47	1484.78
177.69	1484.78
177.91	1484.78
178.13	1478.63
178.36	1468.39
178.58	1574.89
178.80	1789.92
179.02	1570.79
179.24	1638.38
179.46	1624.04
179.68	1705.96
179.90	1638.38
180.13	1665.00
180.35	1683.43
180.57	1687.53
180.79	1728.49
181.01	1705.96
181.23	1681.38
181.45	1765.35
181.67	1642.47
181.90	1751.01
182.12	1730.53
182.34	1572.84
182.56	1714.15
182.78	1671.14
183.00	1687.53
183.22	1710.05
183.44	1554.41
183.66	1751.01
183.89	1816.55
184.11	1593.32
184.33	1656.81
184.55	1771.49
184.77	1718.25
184.99	1734.63
185.21	1613.80
185.43	1828.84
185.65	1624.04
185.87	1669.09
186.10	1773.54
186.32	1918.95
186.54	1738.73
186.76	1685.48
186.98	1796.07
187.20	1736.68
187.42	1773.54
187.64	1695.72
187.86	1746.92
188.08	1714.15
188.30	1646.57
188.52	1662.95
188.75	1748.97
188.97	1804.26
189.19	1656.81
189.41	1730.53
189.63	1738.73
189.85	1619.94
190.07	1638.38
190.29	1591.27
190.51	1720.29
190.73	1599.46
190.95	1781.73
191.17	1613.80
191.39	1613.80
191.61	1724.39
191.84	1650.66
192.06	1742.82
192.28	1728.49
192.50	1888.23
192.72	1767.40
192.94	1634.28
193.16	1769.44
193.38	1665.00
193.60	1667.05
193.82	1695.72
194.04	1765.35
194.26	1724.39
194.48	1699.81
194.70	1658.85
194.92	1740.77
195.14	1703.91
195.36	1681.38
195.58	1665.00
195.80	1695.72
196.02	1679.33
196.24	1578.98
196.46	1732.58
196.69	1636.33
196.91	1828.84
197.13	1748.97
197.35	1677.29
197.57	1800.16
197.79	1726.44
198.01	1628.14
198.23	1638.38
198.45	1763.30
198.67	1640.42
198.89	1718.25
199.11	1708.01
199.33	1611.75
199.55	1552.36
199.77	1718.25
199.99	1765.35
200.21	1669.09
200.43	1800.16
200.65	1656.81
200.87	1583.08
201.09	1693.67
201.31	1753.06
201.53	1742.82
201.75	1755.11
201.97	1671.14
202.19	1662.95
202.41	1691.62
202.63	1757.16
202.85	1720.29
203.07	1687.53
203.29	1665.00
203.51	1632.23
203.73	1697.77
203.95	1941.47
204.17	1689.57
204.39	1691.62
204.61	1714.15
204.83	1691.62
205.05	1687.53
205.27	1761.25
205.49	1765.35
205.71	1640.42
205.93	1646.57
206.15	1693.67
206.37	1675.24
206.59	1714.15
206.81	1646.57
207.03	1601.51
207.25	1617.90
207.47	1787.88
207.69	1691.62
207.91	1841.12
208.13	1742.82
208.34	1634.28
208.56	1632.23
208.78	1722.34
209.00	1624.04
209.22	1638.38
209.44	1679.33
209.66	1746.92
209.88	1728.49
210.10	1646.57
210.32	1671.14
210.54	1748.97
210.76	1718.25
210.98	1703.91
211.20	1619.94
211.42	1718.25
211.64	1755.11
211.86	1671.14
212.08	1677.29
212.30	1685.48
212.52	1724.39
212.74	1685.48
212.96	1703.91
213.17	1751.01
213.39	1751.01
213.61	1720.29
213.83	1705.96
214.05	1634.28
214.27	1769.44
214.49	1681.38
214.71	1595.37
214.93	1769.44
215.15	1765.35
215.37	1675.24
215.59	1585.13
215.81	1699.81
216.03	1736.68
216.24	1736.68
216.46	1650.66
216.68	1785.83
216.90	1736.68
217.12	1779.68
217.34	1744.87
217.56	1728.49
217.78	1779.68
218.00	1796.07
218.22	1722.34
218.44	1681.38
218.66	1771.49
218.87	1740.77
219.09	1605.61
219.31	1806.31
219.53	1744.87
219.75	1603.56
219.97	1669.09
220.19	1691.62
220.41	1642.47
220.63	1751.01
220.85	1740.77
221.06	1652.71
221.28	1722.34
221.50	1675.24
221.72	1677.29
221.94	1724.39
222.16	1701.86
222.38	1738.73
222.60	1804.26
222.82	1728.49
223.03	1683.43
223.25	1667.05
223.47	1726.44
223.69	1863.65
223.91	1779.68
224.13	1757.16
224.35	1710.05
224.57	1789.92
224.78	1679.33
225.00	1634.28
225.22	1761.25
225.44	1626.09
225.66	1714.15
225.88	1732.58
226.10	1736.68
226.32	1738.73
226.53	1777.64
226.75	1689.57
226.97	1683.43
227.19	1667.05
227.41	1746.92
227.63	1630.18
227.85	1607.66
228.06	1740.77
228.28	1779.68
228.50	1714.15
228.72	1644.52
228.94	1615.85
229.16	1646.57
229.37	1685.48
229.59	1673.19
229.81	1818.60
230.03	1746.92
230.25	1660.90
230.47	1673.19
230.69	1619.94
230.90	1728.49
231.12	1724.39
231.34	1748.97
231.56	1701.86
231.78	1630.18
232.00	1701.86
232.21	1705.96
232.43	1728.49
232.65	1525.74
232.87	1705.96
233.09	1675.24
233.30	1705.96
233.52	1697.77
233.74	1675.24
233.96	1656.81
234.18	1732.58
234.40	1683.43
234.61	1818.60
234.83	1650.66
235.05	1570.79
235.27	1798.12
235.49	1773.54
235.70	1708.01
235.92	1738.73
236.14	1636.33
236.36	1777.64
236.58	1621.99
236.79	1718.25
237.01	1669.09
237.23	1732.58
237.45	1873.89
237.67	1658.85
237.88	1652.71
238.10	1714.15
238.32	1697.77
238.54	1671.14
238.76	1714.15
238.97	1593.32
239.19	1671.14
239.41	1751.01
239.63	1748.97
239.85	1599.46
240.06	1691.62
240.28	1708.01
240.50	1693.67
240.72	1656.81
240.93	1744.87
241.15	1845.22
241.37	1693.67
241.59	1851.36
241.81	1650.66
242.02	1746.92
242.24	1736.68
242.46	1755.11
242.68	1601.51
242.89	1736.68
243.11	1763.30
243.33	1746.92
243.55	1804.26
243.76	1710.05
243.98	1660.90
244.20	1722.34
244.42	1705.96
244.64	1669.09
244.85	1646.57
245.07	1677.29
245.29	1755.11
245.51	1677.29
245.72	1726.44
245.94	1746.92
246.16	1708.01
246.38	1708.01
246.59	1679.33
246.81	1673.19
247.03	1691.62
247.24	1619.94
247.46	1665.00
247.68	1699.81
247.90	1736.68
248.11	1626.09
248.33	1755.11
248.55	1722.34
248.77	1654.76
248.98	1753.06
249.20	1796.07
249.42	1685.48
249.64	1679.33
249.85	1689.57
250.07	1671.14
250.29	1697.77
250.50	1699.81
250.72	1644.52
250.94	1701.86
251.16	1830.88
251.37	1736.68
251.59	1734.63
251.81	1689.57
252.02	1738.73
252.24	1665.00
252.46	1738.73
252.68	1708.01
252.89	1626.09
253.11	1626.09
253.33	1742.82
253.54	1783.78
253.76	1587.18
253.98	1734.63
254.20	1638.38
254.41	1597.42
254.63	1710.05
254.85	1632.23
255.06	1693.67
255.28	1640.42
255.50	1677.29
255.71	1656.81
255.93	1626.09
256.15	1654.76
256.36	1708.01
256.58	1642.47
256.80	1734.63
257.02	1693.67
257.23	1636.33
257.45	1701.86
257.67	1730.53
257.88	1638.38
258.10	1669.09
258.32	1640.42
258.53	1726.44
258.75	1726.44
258.97	1697.77
259.18	1751.01
259.40	1665.00
259.62	1814.50
259.83	1820.64
260.05	1675.24
260.27	1988.58
260.48	1800.16
260.70	1689.57
260.92	1667.05
261.13	1681.38
261.35	1697.77
261.57	1773.54
261.78	1587.18
262.00	1603.56
262.22	1689.57
262.43	1611.75
262.65	1710.05
262.86	1660.90
263.08	1818.60
263.30	1648.61
263.51	1658.85
263.73	1644.52
263.95	1761.25
264.16	1705.96
264.38	1646.57
264.60	1722.34
264.81	1718.25
265.03	1728.49
265.25	1744.87
265.46	1658.85
265.68	1765.35
265.89	1763.30
266.11	1621.99
266.33	1648.61
266.54	1773.54
266.76	1742.82
266.98	1753.06
267.19	1789.92
267.41	1757.16
267.62	1708.01
267.84	1673.19
268.06	1787.88
268.27	1703.91
268.49	1724.39
268.70	1814.50
268.92	1701.86
269.14	1746.92
269.35	1605.61
269.57	1662.95
269.79	1722.34
270.00	1722.34
270.22	1767.40
270.43	1687.53
270.65	1632.23
270.87	1740.77
271.08	1730.53
271.30	1716.20
271.51	1697.77
271.73	1689.57
271.95	1757.16
272.16	1783.78
272.38	1701.86
272.59	1705.96
272.81	1738.73
273.02	1724.39
273.24	1722.34
273.46	1650.66
273.67	1677.29
273.89	1671.14
274.10	1677.29
274.32	1775.59
274.54	1767.40
274.75	1730.53
274.97	1648.61
275.18	1728.49
275.40	1689.57
275.61	1740.77
275.83	1730.53
276.05	1617.90
276.26	1732.58
276.48	1732.58
276.69	1681.38
276.91	1738.73
277.12	1675.24
277.34	1775.59
277.55	1738.73
277.77	1693.67
277.99	1699.81
278.20	1660.90
278.42	1667.05
278.63	1619.94
278.85	1708.01
279.06	1624.04
279.28	1673.19
279.49	1771.49
279.71	1730.53
279.93	1714.15
280.14	1695.72
280.36	1718.25
280.57	1759.21
280.79	1708.01
281.00	1689.57
281.22	1658.85
281.43	1734.63
281.65	1578.98
281.86	1626.09
282.08	1691.62
282.29	1800.16
282.51	1708.01
282.73	1671.14
282.94	1662.95
283.16	1755.11
283.37	1759.21
283.59	1691.62
283.80	1738.73
284.02	1734.63
284.23	1691.62
284.45	1746.92
284.66	1667.05
284.88	1662.95
285.09	1746.92
285.31	1701.86
285.52	1744.87
285.74	1578.98
285.95	1769.44
286.17	1667.05
286.38	1708.01
286.60	1695.72
286.81	1652.71
287.03	1675.24
287.24	1712.10
287.46	1687.53
287.67	1779.68
287.89	1820.64
288.10	1734.63
288.32	1734.63
288.53	1748.97
288.75	1751.01
288.96	1710.05
289.18	1689.57
289.39	1681.38
289.61	1744.87
289.82	1765.35
290.04	1765.35
290.25	1640.42
290.47	1691.62
290.68	1671.14
290.90	1753.06
291.11	1656.81
291.33	1714.15
291.54	1658.85
291.76	1615.85
291.97	1689.57
292.18	1701.86
292.40	1648.61
292.61	1658.85
292.83	1808.36
293.04	1722.34
293.26	1697.77
293.47	1751.01
293.69	1675.24
293.90	1640.42
294.12	1753.06
294.33	1705.96
294.55	1689.57
294.76	1789.92
294.97	1763.30
295.19	1783.78
295.40	1716.20
295.62	1742.82
295.83	1812.45
296.05	1697.77
296.26	1720.29
296.48	1705.96
296.69	1740.77
296.90	1728.49
297.12	1665.00
297.33	1824.74
297.55	1693.67
297.76	1732.58
297.98	1808.36
298.19	1730.53
298.41	1703.91
298.62	1681.38
298.83	1757.16
299.05	1658.85
299.26	1677.29
299.48	1660.90
299.69	1740.77
299.90	1656.81
300.12	1732.58
300.33	1705.96
300.55	1691.62
300.76	1658.85
300.98	1605.61
301.19	1726.44
301.40	1685.48
301.62	1722.34
301.83	1779.68
302.05	1673.19
302.26	1746.92
302.47	1695.72
302.69	1685.48
302.90	1730.53
303.12	1593.32
303.33	1720.29
303.54	1777.64
303.76	1687.53
303.97	1693.67
304.19	1716.20
304.40	1697.77
304.61	1789.92
304.83	1789.92
305.04	1804.26
305.26	1794.02
305.47	1656.81
305.68	1648.61
305.90	1671.14
306.11	1783.78
306.33	1681.38
306.54	1665.00
306.75	1681.38
306.97	1593.32
307.18	1638.38
307.39	1730.53
307.61	1738.73
307.82	1708.01
308.04	1710.05
308.25	1638.38
308.46	1785.83
308.68	1691.62
308.89	1734.63
309.10	1685.48
309.32	1697.77
309.53	1740.77
309.74	1720.29
309.96	1650.66
310.17	1761.25
310.39	1615.85
310.60	1746.92
310.81	1742.82
311.03	1705.96
311.24	1757.16
311.45	1660.90
311.67	1816.55
311.88	1677.29
312.09	1658.85
312.31	1716.20
312.52	1699.81
312.73	1718.25
312.95	1603.56
313.16	1673.19
313.37	1828.84
313.59	1708.01
313.80	1699.81
314.01	1724.39
314.23	1628.14
314.44	1619.94
314.65	1650.66
314.87	1644.52
315.08	1755.11
315.29	1763.30
315.51	1589.22
315.72	1581.03
315.93	1787.88
316.15	1779.68
316.36	1634.28
316.57	1695.72
316.79	1728.49
317.00	1746.92
317.21	1716.20
317.43	1665.00
317.64	1751.01
317.85	1601.51
318.07	1662.95
318.28	1748.97
318.49	1818.60
318.70	1925.09
318.92	1806.31
319.13	1796.07
319.34	1767.40
319.56	1761.25
319.77	1773.54
319.98	1775.59
320.20	1785.83
320.41	1744.87
320.62	1669.09
320.83	1679.33
321.05	1832.93
321.26	1615.85
321.47	1728.49
321.69	1742.82
321.90	1624.04
322.11	1615.85
322.32	1699.81
322.54	1816.55
322.75	1693.67
322.96	1843.17
323.18	1644.52
323.39	1636.33
323.60	1687.53
323.81	1687.53
324.03	1708.01
324.24	1765.35
324.45	1705.96
324.66	1691.62
324.88	1746.92
325.09	1765.35
325.30	1708.01
325.52	1767.40
325.73	1714.15
325.94	1726.44
326.15	1542.12
326.37	1736.68
326.58	1832.93
326.79	1685.48
327.00	1660.90
327.22	1710.05
327.43	1708.01
327.64	1630.18
327.85	1746.92
328.07	1771.49
328.28	1751.01
328.49	1705.96
328.70	1701.86
328.92	1693.67
329.13	1675.24
329.34	1779.68
329.55	1824.74
329.76	1785.83
329.98	1638.38
330.19	1791.97
330.40	1738.73
330.61	1685.48
330.83	1744.87
331.04	1687.53
331.25	1722.34
331.46	1703.91
331.68	1624.04
331.89	1751.01
332.10	1669.09
332.31	1613.80
332.52	1665.00
332.74	1765.35
332.95	1636.33
333.16	1697.77
333.37	1755.11
333.58	1738.73
333.80	1724.39
334.01	1644.52
334.22	1718.25
334.43	1628.14
334.64	1712.10
334.86	1667.05
335.07	1593.32
335.28	1744.87
335.49	1611.75
335.70	1771.49
335.92	1673.19
336.13	1771.49
336.34	1734.63
336.55	1675.24
336.76	1767.40
336.98	1517.54
337.19	1701.86
337.40	1675.24
337.61	1839.08
337.82	1677.29
338.04	1783.78
338.25	1615.85
338.46	1724.39
338.67	1648.61
338.88	1652.71
339.09	1542.12
339.31	1705.96
339.52	1665.00
339.73	1615.85
339.94	1673.19
340.15	1775.59
340.36	1630.18
340.58	1695.72
340.79	1665.00
341.00	1773.54
341.21	1636.33
341.42	1794.02
341.63	1685.48
341.85	1771.49
342.06	1791.97
342.27	1675.24
342.48	1724.39
342.69	1656.81
342.90	1697.77
343.12	1748.97
343.33	1640.42
343.54	1691.62
343.75	1818.60
343.96	1603.56
344.17	1708.01
344.38	1728.49
344.60	1654.76
344.81	1685.48
345.02	1638.38
345.23	1769.44
345.44	1753.06
345.65	1755.11
345.86	1695.72
346.07	1726.44
346.29	1673.19
346.50	1701.86
346.71	1736.68
346.92	1781.73
347.13	1828.84
347.34	1697.77
347.55	1742.82
347.76	1708.01
347.98	1607.66
348.19	1683.43
348.40	1734.63
348.61	1730.53
348.82	1775.59
349.03	1693.67
349.24	1638.38
349.45	1744.87
349.66	1521.64
349.88	1742.82
350.09	1640.42
350.30	1824.74
350.51	1759.21
350.72	1687.53
350.93	1736.68
351.14	1675.24
351.35	1714.15
351.56	1703.91
351.77	1681.38
351.99	1660.90
352.20	1753.06
352.41	1763.30
352.62	1644.52
352.83	1648.61
353.04	1673.19
353.25	1679.33
353.46	1744.87
353.67	1804.26
353.88	1589.22
354.09	1654.76
354.30	1755.11
354.52	1619.94
354.73	1714.15
354.94	1683.43
355.15	1671.14
355.36	1714.15
355.57	1650.66
355.78	1658.85
355.99	1699.81
356.20	1691.62
356.41	1798.12
356.62	1652.71
356.83	1716.20
357.04	1785.83
357.25	1660.90
357.46	1634.28
357.68	1640.42
357.89	1701.86
358.10	1722.34
358.31	1730.53
358.52	1689.57
358.73	1611.75
358.94	1640.42
359.15	1632.23
359.36	1775.59
359.57	1699.81
359.78	1640.42
359.99	1787.88
360.20	1568.74
360.41	1710.05
360.62	1703.91
360.83	1732.58
361.04	1677.29
361.25	1665.00
361.46	1787.88
361.67	1701.86
361.88	1757.16
362.09	1732.58
362.30	1665.00
362.51	1681.38
362.72	1691.62
362.93	1730.53
363.14	1775.59
363.35	1859.56
363.56	1755.11
363.78	1705.96
363.99	1781.73
364.20	1603.56
364.41	1705.96
364.62	1791.97
364.83	1708.01
365.04	1697.77
365.25	1685.48
365.46	1777.64
365.67	1611.75
365.88	1712.10
366.09	1677.29
366.30	1689.57
366.51	1677.29
366.72	1636.33
366.93	1732.58
367.14	1720.29
367.35	1796.07
367.56	1712.10
367.77	1810.40
367.98	1716.20
368.18	1738.73
368.39	1765.35
368.60	1656.81
368.81	1771.49
369.02	1728.49
369.23	1646.57
369.44	1611.75
369.65	1619.94
369.86	1710.05
370.07	1816.55
370.28	1669.09
370.49	1708.01
370.70	1759.21
370.91	1646.57
371.12	1648.61
371.33	1771.49
371.54	1667.05
371.75	1759.21
371.96	1640.42
372.17	1691.62
372.38	1695.72
372.59	1732.58
372.80	1644.52
373.01	1681.38
373.22	1685.48
373.43	1703.91
373.64	1662.95
373.85	1712.10
374.06	1806.31
374.26	1718.25
374.47	1730.53
374.68	1771.49
374.89	1720.29
375.10	1714.15
375.31	1732.58
375.52	1744.87
375.73	1714.15
375.94	1615.85
376.15	1748.97
376.36	1648.61
376.57	1574.89
376.78	1613.80
376.99	1712.10
377.20	1687.53
377.40	1669.09
377.61	1767.40
377.82	1607.66
378.03	1732.58
378.24	1685.48
378.45	1771.49
378.66	1722.34
378.87	1585.13
379.08	1603.56
379.29	1720.29
379.50	1771.49
379.71	1687.53
379.91	1796.07
380.12	1730.53
380.33	1691.62
380.54	1697.77
380.75	1691.62
380.96	1673.19
381.17	1806.31
381.38	1697.77
381.59	1757.16
381.80	1675.24
382.00	1822.69
382.21	1796.07
382.42	1779.68
382.63	1902.56
382.84	1716.20
383.05	1785.83
383.26	1785.83
383.47	1701.86
383.68	1660.90
383.88	1759.21
384.09	1697.77
384.30	1755.11
384.51	1685.48
384.72	1658.85
384.93	1673.19
385.14	1722.34
385.35	1789.92
385.55	1685.48
385.76	1810.40
385.97	1681.38
386.18	1642.47
386.39	1685.48
386.60	1673.19
386.81	1699.81
387.02	1656.81
387.22	1650.66
387.43	1761.25
387.64	1738.73
387.85	1900.52
388.06	2123.74
388.27	4319.17
388.48	6891.41
388.68	8513.41
388.89	9709.42
389.10	9977.70
389.31	8814.46
389.52	7638.92
389.73	6729.63
389.93	6279.07
390.14	5791.66
390.35	5107.63
390.56	4603.83
390.77	3715.02
390.98	3098.58
391.18	2537.43
391.39	2125.79
391.60	1820.64
391.81	1779.68
392.02	1705.96
392.23	1818.60
392.43	1685.48
392.64	1800.16
392.85	1714.15
393.06	1740.77
393.27	1738.73
393.47	1689.57
393.68	1718.25
393.89	1615.85
394.10	1763.30
394.31	1689.57
394.52	1689.57
394.72	1640.42
394.93	1824.74
395.14	1654.76
395.35	1751.01
395.56	1701.86
395.76	1658.85
395.97	1701.86
396.18	1849.32
396.39	1812.45
396.60	1996.77
396.80	1865.70
397.01	1779.68
397.22	1818.60
397.43	1837.03
397.64	1683.43
397.84	1765.35
398.05	1871.84
398.26	1773.54
398.47	1775.59
398.67	1759.21
398.88	1697.77
399.09	1755.11
399.30	1730.53
399.51	1708.01
399.71	1677.29
399.92	1728.49
400.13	1732.58
400.34	1679.33
400.54	1759.21
400.75	1820.64
400.96	1681.38
401.17	1791.97
401.37	1695.72
401.58	1685.48
401.79	1714.15
402.00	1828.84
402.21	1994.72
402.41	1927.14
402.62	1941.47
402.83	1992.67
403.04	2041.82
403.24	2029.54
403.45	1810.40
403.66	1888.23
403.87	1861.60
404.07	1908.71
404.28	1900.52
404.49	1802.21
404.70	1789.92
404.90	1824.74
405.11	1701.86
405.32	1779.68
405.52	1732.58
405.73	1716.20
405.94	1632.23
406.15	1660.90
406.35	1740.77
406.56	1701.86
406.77	1755.11
406.98	1683.43
407.18	1671.14
407.39	1781.73
407.60	1691.62
407.80	1742.82
408.01	1693.67
408.22	1693.67
408.43	1667.05
408.63	1751.01
408.84	1728.49
409.05	1806.31
409.25	1665.00
409.46	1687.53
409.67	1757.16
409.88	1675.24
410.08	1699.81
410.29	1744.87
410.50	1644.52
410.70	1787.88
410.91	1632.23
411.12	1708.01
411.32	1734.63
411.53	1652.71
411.74	1824.74
411.95	1781.73
412.15	1777.64
412.36	1798.12
412.57	1761.25
412.77	1855.46
412.98	1701.86
413.19	1699.81
413.39	1775.59
413.60	1740.77
413.81	1802.21
414.01	1722.34
414.22	1796.07
414.43	1767.40
414.63	1703.91
414.84	1794.02
415.05	1730.53
415.25	1642.47
415.46	1738.73
415.67	1705.96
415.87	1656.81
416.08	1650.66
416.29	1677.29
416.49	1712.10
416.70	1669.09
416.91	1671.14
417.11	1654.76
417.32	1722.34
417.53	1724.39
417.73	1794.02
417.94	1759.21
418.15	1708.01
418.35	1708.01
418.56	1714.15
418.77	1855.46
418.97	1718.25
419.18	1693.67
419.38	1562.60
419.59	1726.44
419.80	1771.49
420.00	1617.90
420.21	1679.33
420.42	1775.59
420.62	1673.19
420.83	1697.77
421.04	1687.53
421.24	1726.44
421.45	1728.49
421.65	1757.16
421.86	1646.57
422.07	1820.64
422.27	1673.19
422.48	1658.85
422.69	1638.38
422.89	1693.67
423.10	1703.91
423.30	1703.91
423.51	1687.53
423.72	1748.97
423.92	1767.40
424.13	1613.80
424.33	1665.00
424.54	1734.63
424.75	1703.91
424.95	1734.63
425.16	1683.43
425.36	1720.29
425.57	1722.34
425.78	1785.83
425.98	1822.69
426.19	1789.92
426.39	1652.71
426.60	1687.53
426.81	1755.11
427.01	1665.00
427.22	1660.90
427.42	1617.90
427.63	1665.00
427.83	1812.45
428.04	1773.54
428.25	1703.91
428.45	1812.45
428.66	1773.54
428.86	1746.92
429.07	1687.53
429.28	1714.15
429.48	1730.53
429.69	1673.19
429.89	1732.58
430.10	1685.48
430.30	1761.25
430.51	1681.38
430.71	1603.56
430.92	1789.92
431.13	1585.13
431.33	1755.11
431.54	1785.83
431.74	1798.12
431.95	1900.52
432.15	1681.38
432.36	1712.10
432.56	1783.78
432.77	1791.97
432.98	1777.64
433.18	1785.83
433.39	1660.90
433.59	1710.05
433.80	1818.60
434.00	1812.45
434.21	1771.49
434.41	1597.42
434.62	1877.99
434.82	1624.04
435.03	1656.81
435.23	1650.66
435.44	1525.74
435.64	1746.92
435.85	1736.68
436.06	1767.40
436.26	1773.54
436.47	1652.71
436.67	1714.15
436.88	1673.19
437.08	1740.77
437.29	1763.30
437.49	1581.03
437.70	1759.21
437.90	1705.96
438.11	1806.31
438.31	1802.21
438.52	1904.61
438.72	1837.03
438.93	1847.27
439.13	1781.73
439.34	1753.06
439.54	1714.15
439.75	1763.30
439.95	1794.02
440.16	1683.43
440.36	1705.96
440.57	1693.67
440.77	1714.15
440.98	1783.78
441.18	1701.86
441.39	1708.01
441.59	1660.90
441.80	1783.78
442.00	1673.19
442.21	1781.73
442.41	1683.43
442.62	1767.40
442.82	1638.38
443.02	1710.05
443.23	1728.49
443.43	1689.57
443.64	1796.07
443.84	1675.24
444.05	1757.16
444.25	1656.81
444.46	1730.53
444.66	1699.81
444.87	1873.89
445.07	1607.66
445.28	1675.24
445.48	1820.64
445.69	1722.34
445.89	1841.12
446.09	1720.29
446.30	1980.39
446.50	2619.35
446.71	3710.92
446.91	4282.30
447.12	4671.42
447.32	4954.04
447.53	4372.41
447.73	3866.56
447.93	3571.66
448.14	3370.96
448.34	3248.08
448.55	2969.55
448.75	2828.24
448.96	2729.94
449.16	2353.12
449.36	2326.49
449.57	1994.72
449.77	1898.47
449.98	1738.73
450.18	1798.12
450.39	1824.74
450.59	1726.44
450.79	1853.41
451.00	1753.06
451.20	1759.21
451.41	1714.15
451.61	1755.11
451.81	1685.48
452.02	1654.76
452.22	1654.76
452.43	1652.71
452.63	1675.24
452.84	1675.24
453.04	1759.21
453.24	1736.68
453.45	1753.06
453.65	1656.81
453.86	1785.83
454.06	1761.25
454.26	1769.44
454.47	1656.81
454.67	1855.46
454.87	1648.61
455.08	1837.03
455.28	1824.74
455.49	1783.78
455.69	1683.43
455.89	1812.45
456.10	1759.21
456.30	1716.20
456.51	1785.83
456.71	1685.48
456.91	1781.73
457.12	1738.73
457.32	1771.49
457.52	1697.77
457.73	1695.72
457.93	1710.05
458.14	1726.44
458.34	1710.05
458.54	1703.91
458.75	1683.43
458.95	1726.44
459.15	1708.01
459.36	1736.68
459.56	1726.44
459.76	1902.56
459.97	1685.48
460.17	1728.49
460.37	1787.88
460.58	1703.91
460.78	1744.87
460.99	1753.06
461.19	1665.00
461.39	1708.01
461.60	1728.49
461.80	1748.97
462.00	1728.49
462.21	1746.92
462.41	1665.00
462.61	1685.48
462.82	1652.71
463.02	1796.07
463.22	1660.90
463.43	1734.63
463.63	1642.47
463.83	1808.36
464.04	1716.20
464.24	1781.73
464.44	1667.05
464.64	1689.57
464.85	1771.49
465.05	1787.88
465.25	1675.24
465.46	1720.29
465.66	1714.15
465.86	1748.97
466.07	1714.15
466.27	1701.86
466.47	1593.32
466.68	1648.61
466.88	1859.56
467.08	1757.16
467.29	1804.26
467.49	1757.16
467.69	1712.10
467.89	1738.73
468.10	1787.88
468.30	1773.54
468.50	1863.65
468.71	1722.34
468.91	1705.96
469.11	1812.45
469.31	1730.53
469.52	1730.53
469.72	1886.18
469.92	1834.98
470.13	1699.81
470.33	1763.30
470.53	1863.65
470.73	2127.84
470.94	2308.06
471.14	2342.88
471.34	2465.75
471.54	2496.47
471.75	2170.85
471.95	2203.61
472.15	2162.66
472.36	2187.23
472.56	2097.12
472.76	2074.59
472.96	2019.30
473.17	1894.37
473.37	1929.19
473.57	1822.69
473.77	1773.54
473.98	1710.05
474.18	1708.01
474.38	1933.28
474.58	1695.72
474.79	1677.29
474.99	1800.16
475.19	1794.02
475.39	1636.33
475.60	1726.44
475.80	1732.58
476.00	1726.44
476.20	1652.71
476.41	1720.29
476.61	1736.68
476.81	1693.67
477.01	1773.54
477.21	1904.61
477.42	1828.84
477.62	1652.71
477.82	1738.73
478.02	1691.62
478.23	1708.01
478.43	1669.09
478.63	1697.77
478.83	1753.06
479.03	1763.30
479.24	1773.54
479.44	1830.88
479.64	1742.82
479.84	1648.61
480.04	1685.48
480.25	1728.49
480.45	1665.00
480.65	1689.57
480.85	1742.82
481.06	1718.25
481.26	1742.82
481.46	1728.49
481.66	1728.49
481.86	1693.67
482.06	1900.52
482.27	1650.66
482.47	1701.86
482.67	1728.49
482.87	1607.66
483.07	1765.35
483.28	1656.81
483.48	1720.29
483.68	1720.29
483.88	1677.29
484.08	1640.42
484.29	1652.71
484.49	1728.49
484.69	1675.24
484.89	1734.63
485.09	1822.69
485.29	1767.40
485.50	1785.83
485.70	1675.24
485.90	1765.35
486.10	1720.29
486.30	1775.59
486.50	1767.40
486.71	1730.53
486.91	1757.16
487.11	1787.88
487.31	1632.23
487.51	1683.43
487.71	1665.00
487.91	1626.09
488.12	1613.80
488.32	1556.46
488.52	1591.27
488.72	1646.57
488.92	1716.20
489.12	1787.88
489.32	1804.26
489.53	1728.49
489.73	1617.90
489.93	1767.40
490.13	1669.09
490.33	1646.57
490.53	1738.73
490.73	1791.97
490.94	1671.14
491.14	1830.88
491.34	1812.45
491.54	2148.32
491.74	2539.48
491.94	2889.68
492.14	3018.71
492.34	3049.43
492.54	2772.95
492.75	2508.76
492.95	2414.56
493.15	2287.58
493.35	2273.25
493.55	2183.13
493.75	2088.93
493.95	2097.12
494.15	2050.02
494.35	1877.99
494.56	1937.38
494.76	1849.32
494.96	1728.49
495.16	1779.68
495.36	1726.44
495.56	1726.44
495.76	1710.05
495.96	1683.43
496.16	1714.15
496.36	1787.88
496.56	1726.44
496.77	1765.35
496.97	1705.96
497.17	1763.30
497.37	1697.77
497.57	1824.74
497.77	1783.78
497.97	1552.36
498.17	1703.91
498.37	1705.96
498.57	1800.16
498.77	1714.15
498.97	1697.77
499.17	1843.17
499.38	1691.62
499.58	1765.35
499.78	1789.92
499.98	1828.84
500.18	1775.59
500.38	1703.91
500.58	1896.42
500.78	2617.30
500.98	4622.27
501.18	5832.62
501.38	6903.70
501.58	7104.40
501.78	6758.30
501.98	5543.85
502.18	4896.69
502.38	4384.70
502.58	4145.09
502.78	3694.54
502.98	3585.99
503.18	3489.74
503.38	3270.61
503.59	2838.48
503.79	2594.78
503.99	2547.67
504.19	2349.02
504.39	2191.33
504.59	2125.79
504.79	2166.75
504.99	2078.69
505.19	1925.09
505.39	1904.61
505.59	1918.95
505.79	1966.05
505.99	1845.22
506.19	1888.23
506.39	1875.94
506.59	1775.59
506.79	1679.33
506.99	1794.02
507.19	1703.91
507.39	1734.63
507.59	1662.95
507.79	1671.14
507.99	1724.39
508.19	1751.01
508.39	1687.53
508.59	1734.63
508.79	1789.92
508.99	1892.32
509.19	1638.38
509.39	1765.35
509.59	1728.49
509.79	1724.39
509.99	1787.88
510.19	1804.26
510.39	1798.12
510.59	1787.88
510.79	1718.25
510.99	1669.09
511.19	1732.58
511.39	1837.03
511.59	1791.97
511.79	1832.93
511.99	1814.50
512.19	1789.92
512.38	1714.15
512.58	1759.21
512.78	1669.09
512.98	1740.77
513.18	1787.88
513.38	1611.75
513.58	1753.06
513.78	1644.52
513.98	1687.53
514.18	1628.14
514.38	1644.52
514.58	1730.53
514.78	1656.81
514.98	1708.01
515.18	1728.49
515.38	1687.53
515.58	1918.95
515.78	1738.73
515.98	1755.11
516.18	1746.92
516.38	1722.34
516.57	1646.57
516.77	1689.57
516.97	1683.43
517.17	1714.15
517.37	1611.75
517.57	1830.88
517.77	1740.77
517.97	1720.29
518.17	1742.82
518.37	1726.44
518.57	1636.33
518.77	1679.33
518.97	1646.57
519.16	1714.15
519.36	1814.50
519.56	1716.20
519.76	1718.25
519.96	1757.16
520.16	1777.64
520.36	1683.43
520.56	1742.82
520.76	1660.90
520.96	1718.25
521.16	1681.38
521.35	1816.55
521.55	1796.07
521.75	1796.07
521.95	1597.42
522.15	1712.10
522.35	1615.85
522.55	1652.71
522.75	1818.60
522.95	1662.95
523.14	1634.28
523.34	1765.35
523.54	1716.20
523.74	1812.45
523.94	1722.34
524.14	1671.14
524.34	1714.15
524.54	1796.07
524.73	1708.01
524.93	1810.40
525.13	1740.77
525.33	1644.52
525.53	1927.14
525.73	1771.49
525.93	1742.82
526.13	1658.85
526.32	1701.86
526.52	1785.83
526.72	1804.26
526.92	1685.48
527.12	1761.25
527.32	1744.87
527.52	1759.21
527.71	1755.11
527.91	1765.35
528.11	1693.67
528.31	1720.29
528.51	1685.48
528.71	1697.77
528.90	1769.44
529.10	1753.06
529.30	1841.12
529.50	1554.41
529.70	1765.35
529.90	1634.28
530.09	1703.91
530.29	1624.04
530.49	1724.39
530.69	1861.60
530.89	1734.63
531.09	1800.16
531.28	1720.29
531.48	1812.45
531.68	1759.21
531.88	1722.34
532.08	1767.40
532.28	1648.61
532.47	1746.92
532.67	1806.31
532.87	1787.88
533.07	1687.53
533.27	1800.16
533.46	1742.82
533.66	1767.40
533.86	1798.12
534.06	1642.47
534.26	1783.78
534.45	1714.15
534.65	1785.83
534.85	1693.67
535.05	1732.58
535.25	1775.59
535.44	1619.94
535.64	1691.62
535.84	1761.25
536.04	1726.44
536.24	1720.29
536.43	1726.44
536.63	1775.59
536.83	1740.77
537.03	1710.05
537.22	1601.51
537.42	1644.52
537.62	1761.25
537.82	1683.43
538.02	1740.77
538.21	1757.16
538.41	1902.56
538.61	1726.44
538.81	1796.07
539.00	1779.68
539.20	1593.32
539.40	1732.58
539.60	1654.76
539.79	1734.63
539.99	1746.92
540.19	1693.67
540.39	1794.02
540.58	1738.73
540.78	1761.25
540.98	1744.87
541.18	1834.98
541.37	1812.45
541.57	1765.35
541.77	1720.29
541.97	1693.67
542.16	1648.61
542.36	1742.82
542.56	1763.30
542.76	1882.08
542.95	1765.35
543.15	1796.07
543.35	1763.30
543.54	1607.66
543.74	1724.39
543.94	1834.98
544.14	1703.91
544.33	1644.52
544.53	1701.86
544.73	1658.85
544.93	1714.15
545.12	1759.21
545.32	1705.96
545.52	1736.68
545.71	1585.13
545.91	1662.95
546.11	1697.77
546.30	1658.85
546.50	1652.71
546.70	1769.44
546.90	1740.77
547.09	1619.94
547.29	1716.20
547.49	1738.73
547.68	1724.39
547.88	1746.92
548.08	1851.36
548.27	2172.89
548.47	1742.82
548.67	1691.62
548.87	1771.49
549.06	1683.43
549.26	1751.01
549.46	1673.19
549.65	1667.05
549.85	1736.68
550.05	1767.40
550.24	1710.05
550.44	1761.25
550.64	1746.92
550.83	1705.96
551.03	1826.79
551.23	1746.92
551.42	1775.59
551.62	1791.97
551.82	1718.25
552.01	1697.77
552.21	1789.92
552.41	1802.21
552.60	1828.84
552.80	1734.63
553.00	1632.23
553.19	1755.11
553.39	1804.26
553.59	1650.66
553.78	1804.26
553.98	1748.97
554.17	1648.61
554.37	1761.25
554.57	1742.82
554.76	1718.25
554.96	1751.01
555.16	1724.39
555.35	1718.25
555.55	1742.82
555.75	1720.29
555.94	1810.40
556.14	1681.38
556.33	1773.54
556.53	1781.73
556.73	1697.77
556.92	1761.25
557.12	1820.64
557.32	1849.32
557.51	1791.97
557.71	1708.01
557.90	1781.73
558.10	1849.32
558.30	1656.81
558.49	1791.97
558.69	1677.29
558.88	1771.49
559.08	1751.01
559.28	1773.54
559.47	1763.30
559.67	1808.36
559.86	1757.16
560.06	1687.53
560.26	1724.39
560.45	1804.26
560.65	1714.15
560.84	1761.25
561.04	1718.25
561.24	1683.43
561.43	1681.38
561.63	1849.32
561.82	1839.08
562.02	1783.78
562.22	1730.53
562.41	1740.77
562.61	1716.20
562.80	1619.94
563.00	1863.65
563.19	1755.11
563.39	1789.92
563.59	1798.12
563.78	1665.00
563.98	1611.75
564.17	1697.77
564.37	1628.14
564.56	1714.15
564.76	1673.19
564.96	1816.55
565.15	1779.68
565.35	1832.93
565.54	1773.54
565.74	1730.53
565.93	1753.06
566.13	1726.44
566.32	1767.40
566.52	1834.98
566.71	1787.88
566.91	1767.40
567.11	1763.30
567.30	1656.81
567.50	1769.44
567.69	1662.95
567.89	1718.25
568.08	1730.53
568.28	1746.92
568.47	1652.71
568.67	1712.10
568.86	1695.72
569.06	1798.12
569.25	1697.77
569.45	1593.32
569.64	1724.39
569.84	1642.47
570.04	1740.77
570.23	1689.57
570.43	1691.62
570.62	1781.73
570.82	1814.50
571.01	1654.76
571.21	1652.71
571.40	1701.86
571.60	1785.83
571.79	1726.44
571.99	1701.86
572.18	1581.03
572.38	1710.05
572.57	1689.57
572.77	1718.25
572.96	1871.84
573.16	1775.59
573.35	1724.39
573.55	1783.78
573.74	1748.97
573.94	1705.96
574.13	1730.53
574.33	1738.73
574.52	1794.02
574.71	1710.05
574.91	1720.29
575.10	1691.62
575.30	1630.18
575.49	1675.24
575.69	1669.09
575.88	1763.30
576.08	1726.44
576.27	1785.83
576.47	1699.81
576.66	1859.56
576.86	1736.68
577.05	1740.77
577.25	1767.40
577.44	1796.07
577.64	1746.92
577.83	1779.68
578.02	1703.91
578.22	1826.79
578.41	1894.37
578.61	1716.20
578.80	1644.52
579.00	1791.97
579.19	1705.96
579.39	1800.16
579.58	1865.70
579.77	1691.62
579.97	1865.70
580.16	1849.32
580.36	1849.32
580.55	1832.93
580.75	1781.73
580.94	1798.12
581.13	1861.60
581.33	1849.32
581.52	1755.11
581.72	1814.50
581.91	1841.12
582.11	1785.83
582.30	1761.25
582.49	1722.34
582.69	1859.56
582.88	1814.50
583.08	1777.64
583.27	1828.84
583.47	1757.16
583.66	1736.68
583.85	1734.63
584.05	1646.57
584.24	1830.88
584.44	1775.59
584.63	1794.02
584.82	1828.84
585.02	1798.12
585.21	1796.07
585.41	1863.65
585.60	1757.16
585.79	1882.08
585.99	1943.52
586.18	1920.99
586.37	2181.09
586.57	3438.54
586.76	10278.76
586.96	24870.53
587.15	35110.38
587.34	40967.57
587.54	42925.42
587.73	37744.06
587.93	26668.65
588.12	21765.81
588.31	18476.77
588.51	16574.21
588.70	15458.07
588.89	14260.01
589.09	12760.89
589.28	11095.89
589.47	9570.16
589.67	7944.07
589.86	6490.01
590.06	4945.84
590.25	3971.01
590.44	3096.53
590.64	2580.44
590.83	2213.85
591.02	2142.18
591.22	1953.76
591.41	1886.18
591.60	1851.36
591.80	1880.04
591.99	1726.44
592.18	1787.88
592.38	1769.44
592.57	1728.49
592.76	1796.07
592.96	1751.01
593.15	1824.74
593.34	1761.25
593.54	1794.02
593.73	1730.53
593.92	1791.97
594.12	1789.92
594.31	1728.49
594.50	1904.61
594.70	1777.64
594.89	1818.60
595.08	1677.29
595.28	1763.30
595.47	1900.52
595.66	1738.73
595.86	1804.26
596.05	1759.21
596.24	1673.19
596.43	1841.12
596.63	1847.27
596.82	1753.06
597.01	1824.74
597.21	1935.33
597.40	1705.96
597.59	1718.25
597.79	1703.91
597.98	1796.07
598.17	1755.11
598.36	1861.60
598.56	1787.88
598.75	1718.25
598.94	1779.68
599.14	1708.01
599.33	1722.34
599.52	1779.68
599.71	1687.53
599.91	1765.35
600.10	1785.83
600.29	1667.05
600.48	1767.40
600.68	1763.30
600.87	1738.73
601.06	1712.10
601.26	1705.96
601.45	1705.96
601.64	1724.39
601.83	1867.75
602.03	1708.01
602.22	1697.77
602.41	1820.64
602.60	1812.45
602.80	1847.27
602.99	1716.20
603.18	1708.01
603.37	1755.11
603.57	1708.01
603.76	1818.60
603.95	1773.54
604.14	1693.67
604.34	1685.48
604.53	1755.11
604.72	1740.77
604.91	1783.78
605.10	1841.12
605.30	1708.01
605.49	1886.18
605.68	1845.22
605.87	1828.84
606.07	1656.81
606.26	1746.92
606.45	1705.96
606.64	1689.57
606.84	1636.33
607.03	1730.53
607.22	1740.77
607.41	1624.04
607.60	1734.63
607.80	1785.83
607.99	1718.25
608.18	1705.96
608.37	1732.58
608.56	1656.81
608.76	1796.07
608.95	1818.60
609.14	1738.73
609.33	1789.92
609.52	1703.91
609.72	1730.53
609.91	1783.78
610.10	1800.16
610.29	1771.49
610.48	1843.17
610.68	1781.73
610.87	1736.68
611.06	1804.26
611.25	1767.40
611.44	1806.31
611.63	1740.77
611.83	1775.59
612.02	1613.80
612.21	1830.88
612.40	1607.66
612.59	1658.85
612.79	1621.99
612.98	1730.53
613.17	1771.49
613.36	1722.34
613.55	1853.41
613.74	1679.33
613.93	1621.99
614.13	1742.82
614.32	1781.73
614.51	1736.68
614.70	1746.92
614.89	1701.86
615.08	1722.34
615.28	2074.59
615.47	1675.24
615.66	1753.06
615.85	1685.48
616.04	1826.79
616.23	1710.05
616.42	1671.14
616.62	1740.77
616.81	1705.96
617.00	1675.24
617.19	1759.21
617.38	1683.43
617.57	1738.73
617.76	1759.21
617.95	1744.87
618.15	1734.63
618.34	1837.03
618.53	1748.97
618.72	1808.36
618.91	1781.73
619.10	1748.97
619.29	1701.86
619.48	1734.63
619.68	1638.38
619.87	1665.00
620.06	1615.85
620.25	1746.92
620.44	1710.05
620.63	1685.48
620.82	1710.05
621.01	1736.68
621.20	1726.44
621.39	1738.73
621.59	1722.34
621.78	1751.01
621.97	1669.09
622.16	1732.58
622.35	1771.49
622.54	1773.54
622.73	1794.02
622.92	1681.38
623.11	1751.01
623.30	1757.16
623.49	1810.40
623.68	1642.47
623.88	1744.87
624.07	1642.47
624.26	1703.91
624.45	1755.11
624.64	1724.39
624.83	1701.86
625.02	1724.39
625.21	1789.92
625.40	1724.39
625.59	1808.36
625.78	1708.01
625.97	1791.97
626.16	1859.56
626.35	1740.77
626.54	1777.64
626.74	1736.68
626.93	1593.32
627.12	1734.63
627.31	1705.96
627.50	1765.35
627.69	1794.02
627.88	1611.75
628.07	1701.86
628.26	1617.90
628.45	1644.52
628.64	1662.95
628.83	1742.82
629.02	1683.43
629.21	1746.92
629.40	1671.14
629.59	1730.53
629.78	1644.52
629.97	1691.62
630.16	1689.57
630.35	1636.33
630.54	1763.30
630.73	1738.73
630.92	1773.54
631.11	1753.06
631.30	1798.12
631.49	1701.86
631.68	1826.79
631.87	1728.49
632.06	1701.86
632.25	1804.26
632.44	1705.96
632.63	1718.25
632.82	1660.90
633.01	1669.09
633.20	1660.90
633.39	1619.94
633.58	1585.13
633.77	1751.01
633.96	1708.01
634.15	1671.14
634.34	1738.73
634.53	1728.49
634.72	1677.29
634.91	1662.95
635.10	1734.63
635.29	1691.62
635.48	1765.35
635.67	1675.24
635.86	1619.94
636.05	1765.35
636.24	1726.44
636.43	1685.48
636.62	1718.25
636.81	1566.70
637.00	1669.09
637.19	1789.92
637.38	1746.92
637.57	1650.66
637.76	1691.62
637.95	1669.09
638.14	1611.75
638.33	1615.85
638.52	1697.77
638.71	1654.76
638.89	1665.00
639.08	1812.45
639.27	1728.49
639.46	1654.76
639.65	1787.88
639.84	1738.73
640.03	1755.11
640.22	1689.57
640.41	1935.33
640.60	1628.14
640.79	1705.96
640.98	1667.05
641.17	1718.25
641.36	1679.33
641.55	1765.35
641.74	1687.53
641.92	1726.44
642.11	1705.96
642.30	1662.95
642.49	1722.34
642.68	1718.25
642.87	1767.40
643.06	1710.05
643.25	1712.10
643.44	1701.86
643.63	1763.30
643.82	1718.25
644.00	1693.67
644.19	1714.15
644.38	1673.19
644.57	1753.06
644.76	1646.57
644.95	1734.63
645.14	1753.06
645.33	1755.11
645.52	1699.81
645.71	1634.28
645.89	1669.09
646.08	1751.01
646.27	1695.72
646.46	1871.84
646.65	1701.86
646.84	1681.38
647.03	1665.00
647.22	1742.82
647.40	1742.82
647.59	1716.20
647.78	1626.09
647.97	1730.53
648.16	1624.04
648.35	1775.59
648.54	1783.78
648.73	1701.86
648.91	1736.68
649.10	1708.01
649.29	1632.23
649.48	1712.10
649.67	1771.49
649.86	1726.44
650.05	1726.44
650.23	1722.34
650.42	1665.00
650.61	1763.30
650.80	1710.05
650.99	1832.93
651.18	1710.05
651.36	1761.25
651.55	1683.43
651.74	1761.25
651.93	1679.33
652.12	1658.85
652.31	1718.25
652.49	1685.48
652.68	1705.96
652.87	1722.34
653.06	1673.19
653.25	1800.16
653.44	1701.86
653.62	1798.12
653.81	1716.20
654.00	1662.95
654.19	1769.44
654.38	1875.94
654.56	1697.77
654.75	1740.77
654.94	1796.07
655.13	1638.38
655.32	1714.15
655.51	1679.33
655.69	1681.38
655.88	1765.35
656.07	1734.63
656.26	1781.73
656.45	1585.13
656.63	1714.15
656.82	1740.77
657.01	1751.01
657.20	1656.81
657.38	1738.73
657.57	1636.33
657.76	1640.42
657.95	1830.88
658.14	1708.01
658.32	1716.20
658.51	1642.47
658.70	1736.68
658.89	1658.85
659.08	1703.91
659.26	1773.54
659.45	1599.46
659.64	1726.44
659.83	1613.80
660.01	1955.81
660.20	1708.01
660.39	1757.16
660.58	1617.90
660.76	1849.32
660.95	1619.94
661.14	1669.09
661.33	1705.96
661.51	1689.57
661.70	1665.00
661.89	1718.25
662.08	1767.40
662.26	1697.77
662.45	1587.18
662.64	1808.36
662.83	1693.67
663.01	1691.62
663.20	1626.09
663.39	1816.55
663.58	1732.58
663.76	1705.96
663.95	1751.01
664.14	1665.00
664.32	1703.91
664.51	1654.76
664.70	1662.95
664.89	1763.30
665.07	1591.27
665.26	1751.01
665.45	1656.81
665.64	1781.73
665.82	1679.33
666.01	1769.44
666.20	1642.47
666.38	1804.26
666.57	1748.97
666.76	2217.95
666.95	4583.35
667.13	10635.10
667.32	15275.80
667.51	18128.62
667.69	19334.87
667.88	17723.12
668.07	12486.47
668.25	9805.67
668.44	8001.41
668.63	7284.62
668.81	6854.55
669.00	6215.59
669.19	5746.60
669.38	5199.79
669.56	4607.93
669.75	4153.28
669.94	3454.92
670.12	2975.70
670.31	2535.39
670.50	2195.42
670.68	2090.98
670.87	1927.14
671.06	1853.41
671.24	1769.44
671.43	1820.64
671.62	1771.49
671.80	1650.66
671.99	1689.57
672.18	1689.57
672.36	1732.58
672.55	1740.77
672.74	1697.77
672.92	1677.29
673.11	1703.91
673.29	1679.33
673.48	1757.16
673.67	1718.25
673.85	1714.15
674.04	1718.25
674.23	1697.77
674.41	1783.78
674.60	1615.85
674.79	1642.47
674.97	1683.43
675.16	1730.53
675.34	1773.54
675.53	1574.89
675.72	1755.11
675.90	1800.16
676.09	1607.66
676.28	1775.59
676.46	1644.52
676.65	1753.06
676.83	1673.19
677.02	1703.91
677.21	1648.61
677.39	1701.86
677.58	1724.39
677.77	1710.05
677.95	1630.18
678.14	1648.61
678.32	1695.72
678.51	1710.05
678.70	1800.16
678.88	1644.52
679.07	1685.48
679.25	1730.53
679.44	1744.87
679.63	1576.94
679.81	1767.40
680.00	1771.49
680.18	1726.44
680.37	1816.55
680.55	1724.39
680.74	1589.22
680.93	1572.84
681.11	1740.77
681.30	1648.61
681.48	1638.38
681.67	1626.09
681.85	1693.67
682.04	1679.33
682.23	1771.49
682.41	1705.96
682.60	1605.61
682.78	1681.38
682.97	1648.61
683.15	1689.57
683.34	1773.54
683.53	1798.12
683.71	1701.86
683.90	1726.44
684.08	1806.31
684.27	1611.75
684.45	1753.06
684.64	1746.92
684.82	1671.14
685.01	1654.76
685.19	1720.29
685.38	1802.21
685.57	1650.66
685.75	1617.90
685.94	1648.61
686.12	1728.49
686.31	1697.77
686.49	1798.12
686.68	1626.09
686.86	1779.68
687.05	1673.19
687.23	1783.78
687.42	1648.61
687.60	1595.37
687.79	1736.68
687.97	1701.86
688.16	1767.40
688.34	1806.31
688.53	1621.99
688.71	1794.02
688.90	1755.11
689.08	1710.05
689.27	1583.08
689.45	1718.25
689.64	1753.06
689.82	1808.36
690.01	1759.21
690.19	1738.73
690.38	1669.09
690.56	1800.16
690.75	1742.82
690.93	1722.34
691.12	1685.48
691.30	1689.57
691.49	1638.38
691.67	1693.67
691.86	1837.03
692.04	1691.62
692.23	1673.19
692.41	1712.10
692.60	1804.26
692.78	1726.44
692.97	1652.71
693.15	1720.29
693.34	1877.99
693.52	1673.19
693.71	1628.14
693.89	1714.15
694.08	1587.18
694.26	1757.16
694.44	1779.68
694.63	1753.06
694.81	1734.63
695.00	1732.58
695.18	1759.21
695.37	1812.45
695.55	1798.12
695.74	1679.33
695.92	1695.72
696.10	1785.83
696.29	1576.94
696.47	1683.43
696.66	1681.38
696.84	1679.33
697.03	1701.86
697.21	1886.18
697.40	2373.60
697.58	1720.29
697.76	1669.09
697.95	1677.29
698.13	1705.96
698.32	1652.71
698.50	1683.43
698.68	1722.34
698.87	1667.05
699.05	1804.26
699.24	1757.16
699.42	1634.28
699.61	1724.39
699.79	1738.73
699.97	1736.68
700.16	1662.95
700.34	1634.28
700.53	1642.47
700.71	1783.78
700.89	1720.29
701.08	1644.52
701.26	1689.57
701.45	2093.02
701.63	1673.19
701.81	1705.96
702.00	1744.87
702.18	1783.78
702.37	1697.77
702.55	1787.88
702.73	1712.10
702.92	1576.94
703.10	1755.11
703.28	1753.06
703.47	1695.72
703.65	1699.81
703.84	1804.26
704.02	1624.04
704.20	1671.14
704.39	1662.95
704.57	1693.67
704.75	1767.40
704.94	1742.82
705.12	1796.07
705.30	1748.97
705.49	2199.52
705.67	4368.32
705.86	9660.27
706.04	12881.72
706.22	14757.66
706.41	15644.43
706.59	13944.62
706.77	9867.11
706.96	7546.76
707.14	6668.19
707.32	6076.32
707.51	5552.04
707.69	4984.76
707.87	4249.54
708.06	3575.75
708.24	3014.61
708.42	2490.33
708.61	2179.04
708.79	1812.45
708.97	1871.84
709.16	1886.18
709.34	1757.16
709.52	1742.82
709.71	1740.77
709.89	1746.92
710.07	1669.09
710.26	1679.33
710.44	1697.77
710.62	1728.49
710.80	1691.62
710.99	1804.26
711.17	1789.92
711.35	1656.81
711.54	1691.62
711.72	1695.72
711.90	1789.92
712.09	1748.97
712.27	1658.85
712.45	1726.44
712.63	1583.08
712.82	1613.80
713.00	1683.43
713.18	1722.34
713.37	1810.40
713.55	1785.83
713.73	1746.92
713.91	1714.15
714.10	1656.81
714.28	1705.96
714.46	1744.87
714.65	1744.87
714.83	1736.68
715.01	1677.29
715.19	1740.77
715.38	1746.92
715.56	1689.57
715.74	1728.49
715.92	1644.52
716.11	1798.12
716.29	1613.80
716.47	1718.25
716.65	1730.53
716.84	1695.72
717.02	1746.92
717.20	1636.33
717.38	1679.33
717.57	1732.58
717.75	1665.00
717.93	1708.01
718.11	1748.97
718.30	1683.43
718.48	1769.44
718.66	1759.21
718.84	1730.53
719.03	1673.19
719.21	1665.00
719.39	1902.56
719.57	1705.96
719.75	1814.50
719.94	1677.29
720.12	1689.57
720.30	1705.96
720.48	1769.44
720.67	1677.29
720.85	1603.56
721.03	1654.76
721.21	1644.52
721.39	1841.12
721.58	1761.25
721.76	1710.05
721.94	1728.49
722.12	1703.91
722.30	1757.16
722.49	1611.75
722.67	1718.25
722.85	1693.67
723.03	1660.90
723.21	1681.38
723.40	1734.63
723.58	1619.94
723.76	1726.44
723.94	1781.73
724.12	1689.57
724.30	1804.26
724.49	1767.40
724.67	1642.47
724.85	1828.84
725.03	1613.80
725.21	1701.86
725.40	1859.56
725.58	1748.97
725.76	1796.07
725.94	1728.49
726.12	1662.95
726.30	1722.34
726.49	1677.29
726.67	1617.90
726.85	1744.87
727.03	1785.83
727.21	2140.13
727.39	2940.88
727.57	3794.89
727.76	4102.08
727.94	4564.92
728.12	4413.37
728.30	3729.35
728.48	2996.18
728.66	2746.33
728.84	2535.39
729.03	2297.82
729.21	2193.37
729.39	1941.47
729.57	1785.83
729.75	1798.12
729.93	1841.12
730.11	1751.01
730.30	1646.57
730.48	1632.23
730.66	1712.10
730.84	1757.16
731.02	1634.28
731.20	1783.78
731.38	1716.20
731.56	1630.18
731.74	1607.66
731.93	1710.05
732.11	1662.95
732.29	1705.96
732.47	1693.67
732.65	1656.81
732.83	1806.31
733.01	1744.87
733.19	1667.05
733.37	1820.64
733.56	1740.77
733.74	1751.01
733.92	1796.07
734.10	1638.38
734.28	1660.90
734.46	1597.42
734.64	1613.80
734.82	1613.80
735.00	1683.43
735.18	1624.04
735.36	1716.20
735.54	1753.06
735.73	1746.92
735.91	1728.49
736.09	1697.77
736.27	1753.06
736.45	1685.48
736.63	1619.94
736.81	1644.52
736.99	1697.77
737.17	1730.53
737.35	1609.70
737.53	1675.24
737.71	1691.62
737.89	1755.11
738.07	1640.42
738.25	1669.09
738.43	1562.60
738.61	1619.94
738.80	1683.43
738.98	1665.00
739.16	1656.81
739.34	1681.38
739.52	1732.58
739.70	1728.49
739.88	1757.16
740.06	1708.01
740.24	1566.70
740.42	1755.11
740.60	1570.79
740.78	1689.57
740.96	1531.88
741.14	1722.34
741.32	1691.62
741.50	1560.55
741.68	1851.36
741.86	1789.92
742.04	1687.53
742.22	1621.99
742.40	1763.30
742.58	1781.73
742.76	1693.67
742.94	1757.16
743.12	1679.33
743.30	1689.57
743.48	1751.01
743.66	1665.00
743.84	1693.67
744.02	1638.38
744.20	1732.58
744.38	1673.19
744.56	1615.85
744.74	1765.35
744.92	1681.38
745.10	1751.01
745.28	1753.06
745.46	1826.79
745.64	1685.48
745.82	1751.01
746.00	1675.24
746.18	1742.82
746.36	1632.23
746.54	1742.82
746.72	1675.24
746.90	1726.44
747.08	1806.31
747.26	1695.72
747.44	1765.35
747.62	1808.36
747.80	1718.25
747.98	1800.16
748.15	1708.01
748.33	1681.38
748.51	1734.63
748.69	1687.53
748.87	1603.56
749.05	1634.28
749.23	1681.38
749.41	1732.58
749.59	1730.53
749.77	1742.82
749.95	1705.96
750.13	1621.99
750.31	1697.77
750.49	1636.33
750.67	1759.21
750.85	1828.84
751.03	1722.34
751.20	1791.97
751.38	1730.53
751.56	1734.63
751.74	1757.16
751.92	1693.67
752.10	1611.75
752.28	1783.78
752.46	1603.56
752.64	1675.24
752.82	1689.57
753.00	1826.79
753.18	1683.43
753.35	1701.86
753.53	1679.33
753.71	1630.18
753.89	1738.73
754.07	1722.34
754.25	1720.29
754.43	1734.63
754.61	1634.28
754.79	1771.49
754.97	1615.85
755.14	1779.68
755.32	1660.90
755.50	1689.57
755.68	1712.10
755.86	1675.24
756.04	1640.42
756.22	1556.46
756.40	1705.96
756.57	1826.79
756.75	1671.14
756.93	1751.01
757.11	1740.77
757.29	1667.05
757.47	1628.14
757.65	1624.04
757.82	1632.23
758.00	1605.61
758.18	1714.15
758.36	1665.00
758.54	1736.68
758.72	1681.38
758.90	1701.86
759.07	1779.68
759.25	1650.66
759.43	1763.30
759.61	1613.80
759.79	2185.18
759.97	1769.44
760.15	1607.66
760.32	1710.05
760.50	1736.68
760.68	1716.20
760.86	1613.80
761.04	1800.16
761.22	1722.34
761.39	1648.61
761.57	1746.92
761.75	1714.15
761.93	1765.35
762.11	1687.53
762.28	1689.57
762.46	1705.96
762.64	1732.58
762.82	1636.33
763.00	1628.14
763.18	1759.21
763.35	1568.74
763.53	1705.96
763.71	1701.86
763.89	1732.58
764.07	1714.15
764.24	1644.52
764.42	1742.82
764.60	1644.52
764.78	1800.16
764.96	1689.57
765.13	1703.91
765.31	1636.33
765.49	1759.21
765.67	1689.57
765.84	1660.90
766.02	1656.81
766.20	1628.14
766.38	1724.39
766.56	1761.25
766.73	1755.11
766.91	1683.43
767.09	1679.33
767.27	1701.86
767.44	1595.37
767.62	1714.15
767.80	1712.10
767.98	1701.86
768.15	1628.14
768.33	1763.30
768.51	1744.87
768.69	1689.57
768.87	1753.06
769.04	1665.00
769.22	1822.69
769.40	1783.78
769.58	1787.88
769.75	1796.07
769.93	1783.78
770.11	1658.85
770.28	1638.38
770.46	1759.21
770.64	1710.05
770.82	1667.05
770.99	1652.71
771.17	1753.06
771.35	1665.00
771.53	1742.82
771.70	1701.86
771.88	1689.57
772.06	1744.87
772.23	1722.34
772.41	1648.61
772.59	1689.57
772.77	1652.71
772.94	1718.25
773.12	1720.29
773.30	1677.29
773.47	1742.82
773.65	1662.95
773.83	1890.28
774.01	1677.29
774.18	1601.51
774.36	1728.49
774.54	1679.33
774.71	1759.21
774.89	1648.61
775.07	1714.15
775.24	1595.37
775.42	1673.19
775.60	1806.31
775.78	1689.57
775.95	1669.09
776.13	1572.84
776.31	1675.24
776.48	1734.63
776.66	1730.53
776.84	1685.48
777.01	1712.10
777.19	1718.25
777.37	1660.90
777.54	1765.35
777.72	1869.80
777.90	1769.44
778.07	1546.22
778.25	1855.46
778.43	1826.79
778.60	1673.19
778.78	1826.79
778.96	1826.79
779.13	1677.29
779.31	1742.82
779.49	1685.48
779.66	1671.14
779.84	1710.05
780.01	1669.09
780.19	1726.44
780.37	1773.54
780.54	1734.63
780.72	1658.85
780.90	1783.78
781.07	1726.44
781.25	1650.66
781.43	1789.92
781.60	1652.71
781.78	1759.21
781.95	1718.25
782.13	1640.42
782.31	1732.58
782.48	1691.62
782.66	1730.53
782.83	1861.60
783.01	1710.05
783.19	1734.63
783.36	1722.34
783.54	1607.66
783.72	1773.54
783.89	1691.62
784.07	1724.39
784.24	1738.73
784.42	1796.07
784.60	1732.58
784.77	1734.63
784.95	1695.72
785.12	1697.77
785.30	1732.58
785.47	1644.52
785.65	1636.33
785.83	1724.39
786.00	1667.05
786.18	1697.77
786.35	1669.09
786.53	1595.37
786.71	1773.54
786.88	1712.10
787.06	1671.14
787.23	1734.63
787.41	1624.04
787.58	1654.76
787.76	1693.67
787.94	1621.99
788.11	1673.19
788.29	1708.01
788.46	1652.71
788.64	1593.32
788.81	1640.42
788.99	1671.14
789.16	1685.48
789.34	1681.38
789.52	1736.68
789.69	1673.19
789.87	1560.55
790.04	1708.01
790.22	1705.96
790.39	1834.98
790.57	1556.46
790.74	1630.18
790.92	1757.16
791.09	1654.76
791.27	1693.67
791.44	1789.92
791.62	1687.53
791.79	1701.86
791.97	1757.16
792.15	1853.41
792.32	1808.36
792.50	1701.86
792.67	1746.92
792.85	1757.16
793.02	1761.25
793.20	1685.48
793.37	1671.14
793.55	1705.96
793.72	1662.95
793.90	1767.40
794.07	1658.85
794.25	1531.88
794.42	1730.53
794.60	1699.81
794.77	1683.43
794.95	1759.21
795.12	1767.40
795.30	1656.81
795.47	1570.79
795.65	1902.56
795.82	1765.35
796.00	1722.34
796.17	1652.71
796.34	1658.85
796.52	1738.73
796.69	1691.62
796.87	1722.34
797.04	1748.97
797.22	1769.44
797.39	1714.15
797.57	1697.77
797.74	1751.01
797.92	1763.30
798.09	1683.43
798.27	1695.72
798.44	1697.77
798.62	1644.52
798.79	1722.34
798.96	1613.80
799.14	1734.63
799.31	1789.92
799.49	1681.38
799.66	1658.85
799.84	1695.72
800.01	1654.76
800.19	1660.90
800.36	1652.71
800.53	1701.86
800.71	1671.14
800.88	1832.93
801.06	1611.75
801.23	1691.62
801.41	1734.63
801.58	1689.57
801.75	1724.39
801.93	1755.11
802.10	1742.82
802.28	1683.43
802.45	1681.38
802.63	1708.01
802.80	1757.16
802.97	1705.96
803.15	1685.48
803.32	1726.44
803.50	1652.71
803.67	1636.33
803.84	1665.00
804.02	1708.01
804.19	1701.86
804.37	1603.56
804.54	1751.01
804.71	1691.62
804.89	1724.39
805.06	1681.38
805.24	1626.09
805.41	1619.94
805.58	1632.23
805.76	1773.54
805.93	1677.29
806.10	1763.30
806.28	1744.87
806.45	1708.01
806.63	1728.49
806.80	1746.92
806.97	1660.90
807.15	1705.96
807.32	1689.57
807.49	1701.86
807.67	1642.47
807.84	1789.92
808.01	1593.32
808.19	1828.84
808.36	1787.88
808.54	1667.05
808.71	1650.66
808.88	1808.36
809.06	1669.09
809.23	1839.08
809.40	1671.14
809.58	1740.77
809.75	1695.72
809.92	1734.63
810.10	1896.42
810.27	1636.33
810.44	1736.68
810.62	1681.38
810.79	1726.44
810.96	1615.85
811.14	1667.05
811.31	1716.20
811.48	1740.77
811.66	1640.42
811.83	1763.30
812.00	1757.16
812.18	1724.39
812.35	1847.27
812.52	1570.79
812.69	1710.05
812.87	1648.61
813.04	1634.28
813.21	1656.81
813.39	1658.85
813.56	1535.98
813.73	1814.50
813.91	1640.42
814.08	1748.97
814.25	1695.72
814.42	1574.89
814.60	1777.64
814.77	1738.73
814.94	1736.68
815.12	1632.23
815.29	1779.68
815.46	1654.76
815.63	1767.40
815.81	1660.90
815.98	1638.38
816.15	1648.61
816.33	1687.53
816.50	1710.05
816.67	1724.39
816.84	1656.81
817.02	1650.66
817.19	1685.48
817.36	1695.72
817.53	1800.16
817.71	1632.23
817.88	1746.92
818.05	1753.06
818.22	1648.61
818.40	1843.17
818.57	1675.24
818.74	1730.53
818.91	1701.86
819.09	1775.59
819.26	1724.39
819.43	1660.90
819.60	1642.47
819.78	1834.98
819.95	1732.58
820.12	1658.85
820.29	1689.57
820.47	1767.40
820.64	1615.85
820.81	1613.80
820.98	1665.00
821.15	1685.48
821.33	1763.30
821.50	1669.09
821.67	1673.19
821.84	1654.76
822.02	1722.34
822.19	1673.19
822.36	1683.43
822.53	1763.30
822.70	1611.75
822.88	1685.48
823.05	1808.36
823.22	1722.34
823.39	1691.62
823.56	1718.25
823.74	1837.03
823.91	1656.81
824.08	1632.23
824.25	1607.66
824.42	1796.07
824.60	1613.80
824.77	1720.29
824.94	1642.47
825.11	1728.49
825.28	1527.78
825.45	1697.77
825.63	1718.25
825.80	1615.85
825.97	1671.14
826.14	1632.23
826.31	1628.14
826.48	1732.58
826.66	1685.48
826.83	1736.68
827.00	1742.82
827.17	1613.80
827.34	1685.48
827.51	1621.99
827.69	1650.66
827.86	1613.80
828.03	1714.15
828.20	1708.01
828.37	1648.61
828.54	1714.15
828.71	1591.27
828.89	1800.16
829.06	1701.86
829.23	1740.77
829.40	1656.81
829.57	1638.38
829.74	1802.21
829.91	1662.95
830.09	1679.33
830.26	1794.02
830.43	1787.88
830.60	1667.05
830.77	1699.81
830.94	1746.92
831.11	1738.73
831.28	1624.04
831.46	1712.10
831.63	1597.42
831.80	1769.44
831.97	1685.48
832.14	1732.58
832.31	1718.25
832.48	1687.53
832.65	1789.92
832.82	1632.23
832.99	1740.77
833.17	1628.14
833.34	1763.30
833.51	1728.49
833.68	1665.00
833.85	1687.53
834.02	1714.15
834.19	1660.90
834.36	1642.47
834.53	1648.61
834.70	1761.25
834.87	1763.30
835.04	1775.59
835.22	1656.81
835.39	1630.18
835.56	1720.29
835.73	1665.00
835.90	1767.40
836.07	1689.57
836.24	1738.73
836.41	1665.00
836.58	1656.81
836.75	1785.83
836.92	1681.38
837.09	1638.38
837.26	1751.01
837.43	1662.95
837.60	1738.73
837.77	1667.05
837.94	1718.25
838.12	1722.34
838.29	1705.96
838.46	1587.18
838.63	1576.94
838.80	1708.01
838.97	1708.01
839.14	1767.40
839.31	1710.05
839.48	1712.10
839.65	1650.66
839.82	1787.88
839.99	1689.57
840.16	1734.63
840.33	1615.85
840.50	1738.73
840.67	1685.48
840.84	1509.35
841.01	1683.43
841.18	1712.10
841.35	1665.00
841.52	1771.49
841.69	1847.27
841.86	1677.29
842.03	1695.72
842.20	1693.67
842.37	1724.39
842.54	1675.24
842.71	1638.38
842.88	1523.69
843.05	1763.30
843.22	1677.29
843.39	1730.53
843.56	1705.96
843.73	1679.33
843.90	1656.81
844.07	1712.10
844.24	1691.62
844.41	1691.62
844.58	1679.33
844.75	1757.16
844.92	1699.81
845.09	1705.96
845.26	1646.57
845.43	1767.40
845.60	1667.05
845.77	1724.39
845.94	1697.77
846.10	1785.83
846.27	1667.05
846.44	1634.28
846.61	1595.37
846.78	1660.90
846.95	1716.20
847.12	1642.47
847.29	1732.58
847.46	1695.72
847.63	1751.01
847.80	1634.28
847.97	1632.23
848.14	1880.04
848.31	1763.30
848.48	1644.52
848.65	1746.92
848.82	1615.85
848.98	1863.65
849.15	1820.64
849.32	1697.77
849.49	1744.87
849.66	1701.86
849.83	1726.44
850.00	1578.98
850.17	1718.25
850.34	1712.10
850.51	1685.48
850.68	1605.61
850.85	1837.03
851.01	1724.39
851.18	1669.09
851.35	1679.33
851.52	1718.25
851.69	1736.68
851.86	1605.61
852.03	1724.39
852.20	1691.62
852.37	1681.38
852.53	1644.52
852.70	1650.66
852.87	1671.14
853.04	1783.78
853.21	1660.90
853.38	1724.39
853.55	1742.82
853.72	1724.39
853.89	1611.75
854.05	1632.23
854.22	1685.48
854.39	1591.27
854.56	1738.73
854.73	1787.88
854.90	1613.80
855.07	1667.05
855.23	1619.94
855.40	1691.62
855.57	1697.77
855.74	1667.05
855.91	1898.47
856.08	1603.56
856.25	1619.94
856.41	1708.01
856.58	1722.34
856.75	1697.77
856.92	1619.94
857.09	1783.78
857.26	1546.22
857.42	1697.77
857.59	1771.49
857.76	1660.90
857.93	1794.02
858.10	1671.14
858.27	1640.42
858.43	1703.91
858.60	1705.96
858.77	1521.64
858.94	1603.56
859.11	1742.82
859.27	1665.00
859.44	1720.29
859.61	1841.12
859.78	1712.10
859.95	1681.38
860.12	1640.42
860.28	1769.44
860.45	1841.12
860.62	1646.57
860.79	1691.62
860.95	1736.68
861.12	1599.46
861.29	1662.95
861.46	1665.00
861.63	1714.15
861.79	1710.05
861.96	1693.67
862.13	1619.94
862.30	1800.16
862.47	1671.14
862.63	1681.38
862.80	1667.05
862.97	1746.92
863.14	1726.44
863.30	1751.01
863.47	1589.22
863.64	1671.14
863.81	1746.92
863.97	1679.33
864.14	1701.86
864.31	1667.05
864.48	1714.15
864.65	1744.87
864.81	1738.73
864.98	1730.53
865.15	1789.92
865.32	1744.87
865.48	1708.01
865.65	1757.16
865.82	1691.62
865.98	1658.85
866.15	1755.11
866.32	1714.15
866.49	1718.25
866.65	1757.16
866.82	1624.04
866.99	1744.87
867.16	1718.25
867.32	1691.62
867.49	1755.11
867.66	1730.53
867.83	1648.61
867.99	1621.99
868.16	1650.66
868.33	1681.38
868.49	1650.66
868.66	1748.97
868.83	1701.86
868.99	1683.43
869.16	1701.86
869.33	1734.63
869.50	1748.97
869.66	1751.01
869.83	1658.85
870.00	1578.98
870.16	1718.25
870.33	1665.00
870.50	1763.30
870.66	1628.14
870.83	1810.40
871.00	1628.14
871.17	1705.96
871.33	1765.35
871.50	1753.06
871.67	1630.18
871.83	1652.71
872.00	1812.45
872.17	1619.94
872.33	1779.68
872.50	1738.73
872.67	1640.42
872.83	1683.43
873.00	1703.91
873.17	1753.06
873.33	1722.34
873.50	1734.63
873.67	1724.39
873.83	1611.75
874.00	1619.94
874.16	1720.29
874.33	1742.82
874.50	1605.61
874.66	1800.16
874.83	1652.71
875.00	1734.63
875.16	1804.26
875.33	1693.67
875.50	1611.75
875.66	1650.66
875.83	1671.14
875.99	1777.64
876.16	1742.82
876.33	1697.77
876.49	1726.44
876.66	1730.53
876.83	1681.38
876.99	1607.66
877.16	1652.71
877.32	1724.39
877.49	1679.33
877.66	1691.62
877.82	1771.49
877.99	1728.49
878.15	1673.19
878.32	1714.15
878.49	1611.75
878.65	1681.38
878.82	1761.25
878.98	1650.66
879.15	1787.88
879.32	1744.87
879.48	1771.49
879.65	1746.92
879.81	1642.47
879.98	1693.67
880.15	1677.29
880.31	1755.11
880.48	1636.33
880.64	1830.88
880.81	1667.05
880.97	1830.88
881.14	1746.92
881.31	1656.81
881.47	1859.56
881.64	1636.33
881.80	1687.53
881.97	1667.05
882.13	1771.49
882.30	1589.22
882.47	1646.57
882.63	1689.57
882.80	1632.23
882.96	1732.58
883.13	1787.88
883.29	1662.95
883.46	1634.28
883.62	1695.72
883.79	1718.25
883.95	1685.48
884.12	1667.05
884.29	1708.01
884.45	1751.01
884.62	1693.67
884.78	1607.66
884.95	1767.40
885.11	1607.66
885.28	1732.58
885.44	1693.67
885.61	1839.08
885.77	1791.97
885.94	1779.68
886.10	1703.91
886.27	1730.53
886.43	1789.92
886.60	1841.12
886.76	1681.38
886.93	1621.99
887.09	1626.09
887.26	1601.51
887.42	1703.91
887.59	1791.97
887.75	1765.35
887.92	1763.30
888.08	1740.77
888.25	1791.97
888.41	1732.58
888.58	1660.90
888.74	1642.47
888.91	1673.19
>>>>>End Processed Spectral Data<<<<<
