SpectraSuite Data File
++++++++++++++++++++++++++++++++++++
Date: Mon Jun 06 17:19:37 CEST 2016
User: root
Dark Spectrum Present: No
Reference Spectrum Present: No
Number of Sampled Component Spectra: 1
Spectrometers: USB4C02835
Integration Time (usec): 100000 (USB4C02835)
Spectra Averaged: 1 (USB4C02835)
Boxcar Smoothing: 0 (USB4C02835)
Correct for Electrical Dark: No (USB4C02835)
Strobe/Lamp Enabled: No (USB4C02835)
Correct for Detector Non-linearity: No (USB4C02835)
Correct for Stray Light: No (USB4C02835)
Number of Pixels in Processed Spectrum: 3648
>>>>>Begin Processed Spectral Data<<<<<
177.47	1511.40
177.69	1511.40
177.91	1511.40
178.13	1462.25
178.36	1456.11
178.58	1689.57
178.80	1755.11
179.02	1621.99
179.24	1667.05
179.46	1642.47
179.68	1779.68
179.90	1691.62
180.13	1738.73
180.35	1671.14
180.57	1736.68
180.79	1689.57
181.01	1701.86
181.23	1775.59
181.45	1785.83
181.67	1720.29
181.90	1843.17
182.12	1685.48
182.34	1615.85
182.56	1748.97
182.78	1724.39
183.00	1746.92
183.22	1740.77
183.44	1636.33
183.66	1925.09
183.89	1812.45
184.11	1654.76
184.33	1701.86
184.55	1753.06
184.77	1705.96
184.99	1722.34
185.21	1726.44
185.43	1871.84
185.65	1693.67
185.87	1794.02
186.10	1810.40
186.32	1787.88
186.54	1673.19
186.76	1689.57
186.98	1775.59
187.20	1734.63
187.42	1681.38
187.64	1794.02
187.86	1753.06
188.08	1794.02
188.30	1634.28
188.52	1708.01
188.75	1779.68
188.97	1791.97
189.19	1628.14
189.41	1681.38
189.63	1798.12
189.85	1685.48
190.07	1595.37
190.29	1665.00
190.51	1722.34
190.73	1652.71
190.95	1794.02
191.17	1757.16
191.39	1658.85
191.61	1751.01
191.84	1689.57
192.06	1730.53
192.28	1683.43
192.50	1898.47
192.72	1695.72
192.94	1748.97
193.16	1755.11
193.38	1769.44
193.60	1652.71
193.82	1648.61
194.04	1837.03
194.26	1734.63
194.48	1677.29
194.70	1640.42
194.92	1679.33
195.14	1755.11
195.36	1736.68
195.58	1722.34
195.80	1705.96
196.02	1679.33
196.24	1640.42
196.46	1767.40
196.69	1576.94
196.91	1886.18
197.13	1617.90
197.35	1675.24
197.57	1804.26
197.79	1757.16
198.01	1791.97
198.23	1714.15
198.45	1742.82
198.67	1626.09
198.89	1708.01
199.11	1685.48
199.33	1736.68
199.55	1599.46
199.77	1701.86
199.99	1810.40
200.21	1738.73
200.43	1705.96
200.65	1640.42
200.87	1642.47
201.09	1720.29
201.31	1685.48
201.53	1755.11
201.75	1726.44
201.97	1669.09
202.19	1724.39
202.41	1742.82
202.63	1832.93
202.85	1796.07
203.07	1673.19
203.29	1607.66
203.51	1662.95
203.73	1665.00
203.95	1953.76
204.17	1656.81
204.39	1763.30
204.61	1708.01
204.83	1648.61
205.05	1812.45
205.27	1775.59
205.49	1843.17
205.71	1685.48
205.93	1603.56
206.15	1648.61
206.37	1705.96
206.59	1759.21
206.81	1650.66
207.03	1734.63
207.25	1642.47
207.47	1777.64
207.69	1650.66
207.91	1753.06
208.13	1806.31
208.34	1683.43
208.56	1646.57
208.78	1722.34
209.00	1714.15
209.22	1708.01
209.44	1665.00
209.66	1660.90
209.88	1746.92
210.10	1708.01
210.32	1710.05
210.54	1796.07
210.76	1710.05
210.98	1812.45
211.20	1613.80
211.42	1730.53
211.64	1714.15
211.86	1669.09
212.08	1779.68
212.30	1705.96
212.52	1753.06
212.74	1785.83
212.96	1742.82
213.17	1783.78
213.39	1765.35
213.61	1816.55
213.83	1730.53
214.05	1685.48
214.27	1785.83
214.49	1599.46
214.71	1685.48
214.93	1742.82
215.15	1677.29
215.37	1798.12
215.59	1648.61
215.81	1738.73
216.03	1775.59
216.24	1751.01
216.46	1673.19
216.68	1753.06
216.90	1728.49
217.12	1708.01
217.34	1730.53
217.56	1785.83
217.78	1744.87
218.00	1714.15
218.22	1730.53
218.44	1769.44
218.66	1738.73
218.87	1800.16
219.09	1687.53
219.31	1671.14
219.53	1730.53
219.75	1662.95
219.97	1720.29
220.19	1744.87
220.41	1726.44
220.63	1748.97
220.85	1746.92
221.06	1761.25
221.28	1791.97
221.50	1738.73
221.72	1738.73
221.94	1722.34
222.16	1699.81
222.38	1765.35
222.60	1755.11
222.82	1642.47
223.03	1685.48
223.25	1609.70
223.47	1808.36
223.69	1806.31
223.91	1789.92
224.13	1689.57
224.35	1714.15
224.57	1779.68
224.78	1738.73
225.00	1675.24
225.22	1732.58
225.44	1710.05
225.66	1822.69
225.88	1636.33
226.10	1753.06
226.32	1660.90
226.53	1748.97
226.75	1714.15
226.97	1671.14
227.19	1742.82
227.41	1708.01
227.63	1740.77
227.85	1654.76
228.06	1710.05
228.28	1730.53
228.50	1791.97
228.72	1611.75
228.94	1763.30
229.16	1613.80
229.37	1624.04
229.59	1640.42
229.81	1789.92
230.03	1699.81
230.25	1652.71
230.47	1677.29
230.69	1648.61
230.90	1781.73
231.12	1748.97
231.34	1710.05
231.56	1804.26
231.78	1667.05
232.00	1781.73
232.21	1781.73
232.43	1703.91
232.65	1599.46
232.87	1824.74
233.09	1697.77
233.30	1667.05
233.52	1814.50
233.74	1683.43
233.96	1630.18
234.18	1718.25
234.40	1767.40
234.61	1734.63
234.83	1595.37
235.05	1603.56
235.27	1869.80
235.49	1783.78
235.70	1722.34
235.92	1759.21
236.14	1759.21
236.36	1845.22
236.58	1607.66
236.79	1734.63
237.01	1673.19
237.23	1660.90
237.45	1843.17
237.67	1548.26
237.88	1746.92
238.10	1718.25
238.32	1679.33
238.54	1718.25
238.76	1687.53
238.97	1675.24
239.19	1720.29
239.41	1763.30
239.63	1755.11
239.85	1675.24
240.06	1667.05
240.28	1638.38
240.50	1736.68
240.72	1703.91
240.93	1685.48
241.15	1673.19
241.37	1751.01
241.59	1861.60
241.81	1677.29
242.02	1691.62
242.24	1763.30
242.46	1703.91
242.68	1683.43
242.89	1667.05
243.11	1748.97
243.33	1689.57
243.55	1701.86
243.76	1712.10
243.98	1658.85
244.20	1703.91
244.42	1726.44
244.64	1740.77
244.85	1619.94
245.07	1636.33
245.29	1728.49
245.51	1654.76
245.72	1673.19
245.94	1814.50
246.16	1693.67
246.38	1755.11
246.59	1683.43
246.81	1669.09
247.03	1650.66
247.24	1648.61
247.46	1732.58
247.68	1714.15
247.90	1689.57
248.11	1632.23
248.33	1751.01
248.55	1703.91
248.77	1710.05
248.98	1777.64
249.20	1851.36
249.42	1730.53
249.64	1736.68
249.85	1734.63
250.07	1716.20
250.29	1777.64
250.50	1710.05
250.72	1613.80
250.94	1611.75
251.16	1886.18
251.37	1761.25
251.59	1751.01
251.81	1642.47
252.02	1847.27
252.24	1730.53
252.46	1773.54
252.68	1660.90
252.89	1669.09
253.11	1601.51
253.33	1845.22
253.54	1857.51
253.76	1697.77
253.98	1705.96
254.20	1714.15
254.41	1587.18
254.63	1699.81
254.85	1560.55
255.06	1763.30
255.28	1722.34
255.50	1689.57
255.71	1746.92
255.93	1621.99
256.15	1703.91
256.36	1804.26
256.58	1689.57
256.80	1804.26
257.02	1701.86
257.23	1662.95
257.45	1695.72
257.67	1761.25
257.88	1648.61
258.10	1759.21
258.32	1687.53
258.53	1681.38
258.75	1759.21
258.97	1695.72
259.18	1720.29
259.40	1695.72
259.62	1810.40
259.83	1816.55
260.05	1742.82
260.27	2025.44
260.48	1710.05
260.70	1705.96
260.92	1703.91
261.13	1724.39
261.35	1724.39
261.57	1802.21
261.78	1681.38
262.00	1654.76
262.22	1767.40
262.43	1665.00
262.65	1644.52
262.86	1669.09
263.08	1824.74
263.30	1701.86
263.51	1636.33
263.73	1677.29
263.95	1845.22
264.16	1734.63
264.38	1640.42
264.60	1832.93
264.81	1726.44
265.03	1744.87
265.25	1673.19
265.46	1648.61
265.68	1812.45
265.89	1722.34
266.11	1601.51
266.33	1794.02
266.54	1757.16
266.76	1800.16
266.98	1679.33
267.19	1794.02
267.41	1779.68
267.62	1705.96
267.84	1628.14
268.06	1708.01
268.27	1687.53
268.49	1781.73
268.70	1703.91
268.92	1736.68
269.14	1638.38
269.35	1632.23
269.57	1736.68
269.79	1722.34
270.00	1654.76
270.22	1814.50
270.43	1658.85
270.65	1564.65
270.87	1705.96
271.08	1720.29
271.30	1789.92
271.51	1667.05
271.73	1701.86
271.95	1789.92
272.16	1736.68
272.38	1697.77
272.59	1716.20
272.81	1732.58
273.02	1759.21
273.24	1734.63
273.46	1714.15
273.67	1687.53
273.89	1642.47
274.10	1656.81
274.32	1763.30
274.54	1667.05
274.75	1779.68
274.97	1753.06
275.18	1787.88
275.40	1820.64
275.61	1691.62
275.83	1736.68
276.05	1671.14
276.26	1755.11
276.48	1708.01
276.69	1624.04
276.91	1736.68
277.12	1804.26
277.34	1767.40
277.55	1771.49
277.77	1689.57
277.99	1626.09
278.20	1703.91
278.42	1640.42
278.63	1652.71
278.85	1689.57
279.06	1675.24
279.28	1736.68
279.49	1734.63
279.71	1738.73
279.93	1669.09
280.14	1726.44
280.36	1597.42
280.57	1781.73
280.79	1736.68
281.00	1656.81
281.22	1683.43
281.43	1755.11
281.65	1611.75
281.86	1607.66
282.08	1691.62
282.29	1875.94
282.51	1654.76
282.73	1654.76
282.94	1626.09
283.16	1757.16
283.37	1822.69
283.59	1746.92
283.80	1710.05
284.02	1697.77
284.23	1689.57
284.45	1701.86
284.66	1667.05
284.88	1628.14
285.09	1759.21
285.31	1777.64
285.52	1730.53
285.74	1705.96
285.95	1732.58
286.17	1740.77
286.38	1675.24
286.60	1755.11
286.81	1697.77
287.03	1710.05
287.24	1796.07
287.46	1769.44
287.67	1742.82
287.89	1828.84
288.10	1675.24
288.32	1744.87
288.53	1806.31
288.75	1738.73
288.96	1728.49
289.18	1681.38
289.39	1642.47
289.61	1771.49
289.82	1845.22
290.04	1912.80
290.25	1693.67
290.47	1665.00
290.68	1708.01
290.90	1832.93
291.11	1628.14
291.33	1685.48
291.54	1636.33
291.76	1669.09
291.97	1685.48
292.18	1734.63
292.40	1730.53
292.61	1669.09
292.83	1820.64
293.04	1757.16
293.26	1753.06
293.47	1755.11
293.69	1701.86
293.90	1693.67
294.12	1718.25
294.33	1738.73
294.55	1691.62
294.76	1800.16
294.97	1834.98
295.19	1796.07
295.40	1660.90
295.62	1751.01
295.83	1755.11
296.05	1728.49
296.26	1757.16
296.48	1642.47
296.69	1658.85
296.90	1671.14
297.12	1800.16
297.33	1804.26
297.55	1734.63
297.76	1708.01
297.98	1701.86
298.19	1746.92
298.41	1742.82
298.62	1695.72
298.83	1804.26
299.05	1683.43
299.26	1726.44
299.48	1744.87
299.69	1767.40
299.90	1744.87
300.12	1665.00
300.33	1728.49
300.55	1789.92
300.76	1722.34
300.98	1683.43
301.19	1783.78
301.40	1748.97
301.62	1775.59
301.83	1708.01
302.05	1662.95
302.26	1621.99
302.47	1755.11
302.69	1665.00
302.90	1603.56
303.12	1574.89
303.33	1693.67
303.54	1746.92
303.76	1632.23
303.97	1705.96
304.19	1748.97
304.40	1708.01
304.61	1734.63
304.83	1861.60
305.04	1757.16
305.26	1712.10
305.47	1675.24
305.68	1746.92
305.90	1624.04
306.11	1802.21
306.33	1695.72
306.54	1736.68
306.75	1654.76
306.97	1562.60
307.18	1693.67
307.39	1701.86
307.61	1677.29
307.82	1726.44
308.04	1728.49
308.25	1687.53
308.46	1699.81
308.68	1761.25
308.89	1693.67
309.10	1767.40
309.32	1736.68
309.53	1648.61
309.74	1753.06
309.96	1667.05
310.17	1785.83
310.39	1687.53
310.60	1791.97
310.81	1728.49
311.03	1689.57
311.24	1748.97
311.45	1689.57
311.67	1824.74
311.88	1755.11
312.09	1777.64
312.31	1658.85
312.52	1697.77
312.73	1726.44
312.95	1578.98
313.16	1619.94
313.37	1837.03
313.59	1734.63
313.80	1822.69
314.01	1791.97
314.23	1632.23
314.44	1646.57
314.65	1718.25
314.87	1609.70
315.08	1726.44
315.29	1687.53
315.51	1742.82
315.72	1619.94
315.93	1730.53
316.15	1877.99
316.36	1673.19
316.57	1736.68
316.79	1705.96
317.00	1705.96
317.21	1675.24
317.43	1691.62
317.64	1753.06
317.85	1736.68
318.07	1683.43
318.28	1712.10
318.49	1748.97
318.70	1912.80
318.92	1751.01
319.13	1783.78
319.34	1939.43
319.56	1863.65
319.77	1789.92
319.98	1710.05
320.20	1779.68
320.41	1728.49
320.62	1753.06
320.83	1619.94
321.05	1849.32
321.26	1701.86
321.47	1683.43
321.69	1798.12
321.90	1595.37
322.11	1746.92
322.32	1771.49
322.54	1828.84
322.75	1722.34
322.96	1894.37
323.18	1613.80
323.39	1562.60
323.60	1685.48
323.81	1802.21
324.03	1665.00
324.24	1681.38
324.45	1673.19
324.66	1669.09
324.88	1865.70
325.09	1726.44
325.30	1673.19
325.52	1734.63
325.73	1779.68
325.94	1642.47
326.15	1665.00
326.37	1675.24
326.58	1691.62
326.79	1753.06
327.00	1671.14
327.22	1744.87
327.43	1662.95
327.64	1636.33
327.85	1740.77
328.07	1714.15
328.28	1837.03
328.49	1714.15
328.70	1675.24
328.92	1689.57
329.13	1652.71
329.34	1730.53
329.55	1877.99
329.76	1826.79
329.98	1693.67
330.19	1775.59
330.40	1722.34
330.61	1746.92
330.83	1728.49
331.04	1640.42
331.25	1718.25
331.46	1701.86
331.68	1677.29
331.89	1755.11
332.10	1626.09
332.31	1587.18
332.52	1773.54
332.74	1812.45
332.95	1626.09
333.16	1810.40
333.37	1722.34
333.58	1638.38
333.80	1665.00
334.01	1615.85
334.22	1736.68
334.43	1681.38
334.64	1705.96
334.86	1585.13
335.07	1617.90
335.28	1765.35
335.49	1605.61
335.70	1660.90
335.92	1771.49
336.13	1832.93
336.34	1708.01
336.55	1724.39
336.76	1699.81
336.98	1605.61
337.19	1703.91
337.40	1759.21
337.61	1822.69
337.82	1712.10
338.04	1744.87
338.25	1667.05
338.46	1693.67
338.67	1742.82
338.88	1638.38
339.09	1685.48
339.31	1677.29
339.52	1734.63
339.73	1589.22
339.94	1712.10
340.15	1787.88
340.36	1699.81
340.58	1718.25
340.79	1673.19
341.00	1687.53
341.21	1679.33
341.42	1812.45
341.63	1708.01
341.85	1759.21
342.06	1705.96
342.27	1671.14
342.48	1769.44
342.69	1638.38
342.90	1695.72
343.12	1740.77
343.33	1712.10
343.54	1746.92
343.75	1732.58
343.96	1710.05
344.17	1658.85
344.38	1691.62
344.60	1689.57
344.81	1611.75
345.02	1705.96
345.23	1712.10
345.44	1820.64
345.65	1759.21
345.86	1718.25
346.07	1677.29
346.29	1722.34
346.50	1740.77
346.71	1781.73
346.92	1812.45
347.13	1847.27
347.34	1644.52
347.55	1740.77
347.76	1759.21
347.98	1617.90
348.19	1714.15
348.40	1787.88
348.61	1695.72
348.82	1785.83
349.03	1748.97
349.24	1658.85
349.45	1791.97
349.66	1634.28
349.88	1777.64
350.09	1662.95
350.30	1804.26
350.51	1771.49
350.72	1691.62
350.93	1708.01
351.14	1613.80
351.35	1751.01
351.56	1708.01
351.77	1763.30
351.99	1740.77
352.20	1812.45
352.41	1794.02
352.62	1632.23
352.83	1632.23
353.04	1748.97
353.25	1679.33
353.46	1800.16
353.67	1755.11
353.88	1611.75
354.09	1705.96
354.30	1740.77
354.52	1757.16
354.73	1722.34
354.94	1718.25
355.15	1759.21
355.36	1814.50
355.57	1724.39
355.78	1734.63
355.99	1687.53
356.20	1671.14
356.41	1773.54
356.62	1724.39
356.83	1699.81
357.04	1759.21
357.25	1636.33
357.46	1736.68
357.68	1628.14
357.89	1636.33
358.10	1759.21
358.31	1685.48
358.52	1714.15
358.73	1626.09
358.94	1677.29
359.15	1656.81
359.36	1781.73
359.57	1675.24
359.78	1687.53
359.99	1785.83
360.20	1533.93
360.41	1644.52
360.62	1753.06
360.83	1775.59
361.04	1738.73
361.25	1755.11
361.46	1753.06
361.67	1705.96
361.88	1783.78
362.09	1808.36
362.30	1761.25
362.51	1736.68
362.72	1644.52
362.93	1755.11
363.14	1734.63
363.35	1781.73
363.56	1642.47
363.78	1771.49
363.99	1761.25
364.20	1699.81
364.41	1691.62
364.62	1929.19
364.83	1746.92
365.04	1748.97
365.25	1738.73
365.46	1861.60
365.67	1675.24
365.88	1632.23
366.09	1626.09
366.30	1578.98
366.51	1677.29
366.72	1621.99
366.93	1691.62
367.14	1703.91
367.35	1751.01
367.56	1724.39
367.77	1746.92
367.98	1738.73
368.18	1708.01
368.39	1775.59
368.60	1708.01
368.81	1683.43
369.02	1677.29
369.23	1652.71
369.44	1638.38
369.65	1677.29
369.86	1699.81
370.07	1771.49
370.28	1652.71
370.49	1701.86
370.70	1718.25
370.91	1638.38
371.12	1673.19
371.33	1824.74
371.54	1712.10
371.75	1761.25
371.96	1570.79
372.17	1730.53
372.38	1712.10
372.59	1755.11
372.80	1695.72
373.01	1738.73
373.22	1687.53
373.43	1730.53
373.64	1705.96
373.85	1740.77
374.06	1861.60
374.26	1796.07
374.47	1705.96
374.68	1730.53
374.89	1724.39
375.10	1697.77
375.31	1812.45
375.52	1775.59
375.73	1742.82
375.94	1665.00
376.15	1779.68
376.36	1660.90
376.57	1779.68
376.78	1761.25
376.99	1708.01
377.20	1800.16
377.40	1673.19
377.61	1796.07
377.82	1648.61
378.03	1824.74
378.24	1765.35
378.45	1759.21
378.66	1720.29
378.87	1642.47
379.08	1640.42
379.29	1697.77
379.50	1802.21
379.71	1734.63
379.91	1787.88
380.12	1730.53
380.33	1689.57
380.54	1675.24
380.75	1693.67
380.96	1734.63
381.17	1816.55
381.38	1699.81
381.59	1742.82
381.80	1796.07
382.00	1871.84
382.21	1746.92
382.42	1791.97
382.63	1851.36
382.84	1681.38
383.05	1796.07
383.26	1744.87
383.47	1800.16
383.68	1736.68
383.88	1802.21
384.09	1640.42
384.30	1783.78
384.51	1738.73
384.72	1687.53
384.93	1658.85
385.14	1695.72
385.35	1861.60
385.55	1632.23
385.76	1730.53
385.97	1683.43
386.18	1624.04
386.39	1687.53
386.60	1669.09
386.81	1693.67
387.02	1683.43
387.22	1656.81
387.43	1796.07
387.64	1787.88
387.85	1877.99
388.06	2220.00
388.27	4239.30
388.48	6764.44
388.68	8255.36
388.89	9680.75
389.10	9813.87
389.31	8664.96
389.52	7640.97
389.73	6817.69
389.93	6268.83
390.14	5851.05
390.35	5126.07
390.56	4747.19
390.77	3758.02
390.98	3067.86
391.18	2521.05
391.39	1994.72
391.60	1847.27
391.81	1898.47
392.02	1722.34
392.23	1861.60
392.43	1710.05
392.64	1777.64
392.85	1742.82
393.06	1857.51
393.27	1679.33
393.47	1689.57
393.68	1681.38
393.89	1734.63
394.10	1738.73
394.31	1681.38
394.52	1705.96
394.72	1615.85
394.93	1832.93
395.14	1654.76
395.35	1742.82
395.56	1667.05
395.76	1781.73
395.97	1800.16
396.18	1808.36
396.39	1865.70
396.60	2101.22
396.80	1906.66
397.01	1822.69
397.22	1818.60
397.43	1845.22
397.64	1785.83
397.84	1701.86
398.05	1855.46
398.26	1705.96
398.47	1888.23
398.67	1806.31
398.88	1763.30
399.09	1714.15
399.30	1714.15
399.51	1689.57
399.71	1708.01
399.92	1785.83
400.13	1712.10
400.34	1763.30
400.54	1732.58
400.75	1828.84
400.96	1695.72
401.17	1779.68
401.37	1726.44
401.58	1740.77
401.79	1701.86
402.00	1902.56
402.21	1994.72
402.41	1931.23
402.62	2035.68
402.83	2013.15
403.04	2011.11
403.24	2072.54
403.45	1945.57
403.66	1951.71
403.87	1898.47
404.07	1892.32
404.28	1886.18
404.49	1951.71
404.70	1828.84
404.90	1757.16
405.11	1722.34
405.32	1771.49
405.52	1701.86
405.73	1650.66
405.94	1714.15
406.15	1671.14
406.35	1726.44
406.56	1687.53
406.77	1777.64
406.98	1701.86
407.18	1710.05
407.39	1912.80
407.60	1701.86
407.80	1726.44
408.01	1681.38
408.22	1724.39
408.43	1671.14
408.63	1759.21
408.84	1738.73
409.05	1740.77
409.25	1705.96
409.46	1683.43
409.67	1681.38
409.88	1708.01
410.08	1767.40
410.29	1724.39
410.50	1718.25
410.70	1716.20
410.91	1683.43
411.12	1685.48
411.32	1740.77
411.53	1697.77
411.74	1779.68
411.95	1812.45
412.15	1697.77
412.36	1832.93
412.57	1734.63
412.77	1761.25
412.98	1728.49
413.19	1736.68
413.39	1857.51
413.60	1810.40
413.81	1748.97
414.01	1697.77
414.22	1677.29
414.43	1755.11
414.63	1652.71
414.84	1787.88
415.05	1697.77
415.25	1624.04
415.46	1687.53
415.67	1742.82
415.87	1685.48
416.08	1714.15
416.29	1708.01
416.49	1689.57
416.70	1656.81
416.91	1656.81
417.11	1691.62
417.32	1783.78
417.53	1730.53
417.73	1708.01
417.94	1640.42
418.15	1638.38
418.35	1691.62
418.56	1689.57
418.77	1882.08
418.97	1728.49
419.18	1671.14
419.38	1638.38
419.59	1679.33
419.80	1755.11
420.00	1718.25
420.21	1765.35
420.42	1789.92
420.62	1789.92
420.83	1578.98
421.04	1744.87
421.24	1685.48
421.45	1812.45
421.65	1679.33
421.86	1742.82
422.07	1748.97
422.27	1751.01
422.48	1722.34
422.69	1632.23
422.89	1742.82
423.10	1722.34
423.30	1638.38
423.51	1744.87
423.72	1757.16
423.92	1804.26
424.13	1617.90
424.33	1693.67
424.54	1701.86
424.75	1742.82
424.95	1845.22
425.16	1726.44
425.36	1730.53
425.57	1724.39
425.78	1810.40
425.98	1794.02
426.19	1732.58
426.39	1667.05
426.60	1720.29
426.81	1763.30
427.01	1730.53
427.22	1708.01
427.42	1675.24
427.63	1654.76
427.83	1710.05
428.04	1820.64
428.25	1796.07
428.45	1761.25
428.66	1636.33
428.86	1683.43
429.07	1718.25
429.28	1726.44
429.48	1789.92
429.69	1679.33
429.89	1765.35
430.10	1662.95
430.30	1720.29
430.51	1771.49
430.71	1705.96
430.92	1742.82
431.13	1675.24
431.33	1722.34
431.54	1679.33
431.74	1853.41
431.95	1908.71
432.15	1632.23
432.36	1675.24
432.56	1759.21
432.77	1892.32
432.98	1804.26
433.18	1761.25
433.39	1648.61
433.59	1687.53
433.80	1800.16
434.00	1947.62
434.21	1697.77
434.41	1662.95
434.62	1873.89
434.82	1652.71
435.03	1654.76
435.23	1765.35
435.44	1697.77
435.64	1761.25
435.85	1718.25
436.06	1753.06
436.26	1820.64
436.47	1701.86
436.67	1738.73
436.88	1697.77
437.08	1708.01
437.29	1765.35
437.49	1783.78
437.70	1755.11
437.90	1775.59
438.11	1810.40
438.31	1789.92
438.52	1841.12
438.72	1875.94
438.93	1847.27
439.13	1718.25
439.34	1779.68
439.54	1802.21
439.75	1746.92
439.95	1880.04
440.16	1687.53
440.36	1746.92
440.57	1798.12
440.77	1806.31
440.98	1699.81
441.18	1796.07
441.39	1695.72
441.59	1593.32
441.80	1798.12
442.00	1732.58
442.21	1853.41
442.41	1660.90
442.62	1804.26
442.82	1718.25
443.02	1748.97
443.23	1783.78
443.43	1703.91
443.64	1816.55
443.84	1667.05
444.05	1812.45
444.25	1716.20
444.46	1724.39
444.66	1847.27
444.87	1837.03
445.07	1642.47
445.28	1746.92
445.48	1787.88
445.69	1849.32
445.89	1812.45
446.09	1718.25
446.30	1980.39
446.50	2697.17
446.71	3698.63
446.91	4337.60
447.12	4851.64
447.32	4771.77
447.53	4349.89
447.73	3966.92
447.93	3567.56
448.14	3389.39
448.34	3203.02
448.55	2996.18
448.75	2760.66
448.96	2658.26
449.16	2396.12
449.36	2199.52
449.57	2037.73
449.77	1894.37
449.98	1736.68
450.18	1824.74
450.39	1822.69
450.59	1773.54
450.79	1738.73
451.00	1677.29
451.20	1818.60
451.41	1734.63
451.61	1834.98
451.81	1716.20
452.02	1779.68
452.22	1800.16
452.43	1720.29
452.63	1703.91
452.84	1761.25
453.04	1847.27
453.24	1777.64
453.45	1712.10
453.65	1800.16
453.86	1701.86
454.06	1791.97
454.26	1716.20
454.47	1722.34
454.67	1837.03
454.87	1783.78
455.08	1705.96
455.28	1871.84
455.49	1812.45
455.69	1703.91
455.89	1847.27
456.10	1800.16
456.30	1677.29
456.51	1873.89
456.71	1783.78
456.91	1701.86
457.12	1724.39
457.32	1730.53
457.52	1646.57
457.73	1839.08
457.93	1771.49
458.14	1716.20
458.34	1650.66
458.54	1660.90
458.75	1689.57
458.95	1751.01
459.15	1791.97
459.36	1800.16
459.56	1759.21
459.76	1828.84
459.97	1763.30
460.17	1718.25
460.37	1763.30
460.58	1714.15
460.78	1837.03
460.99	1658.85
461.19	1726.44
461.39	1703.91
461.60	1654.76
461.80	1710.05
462.00	1681.38
462.21	1767.40
462.41	1724.39
462.61	1685.48
462.82	1779.68
463.02	1679.33
463.22	1654.76
463.43	1755.11
463.63	1748.97
463.83	1814.50
464.04	1751.01
464.24	1787.88
464.44	1689.57
464.64	1806.31
464.85	1751.01
465.05	1779.68
465.25	1787.88
465.46	1720.29
465.66	1781.73
465.86	1759.21
466.07	1763.30
466.27	1714.15
466.47	1642.47
466.68	1658.85
466.88	1845.22
467.08	1757.16
467.29	1773.54
467.49	1728.49
467.69	1740.77
467.89	1781.73
468.10	1730.53
468.30	1724.39
468.50	1814.50
468.71	1818.60
468.91	1656.81
469.11	1796.07
469.31	1746.92
469.52	1783.78
469.72	1777.64
469.92	1820.64
470.13	1732.58
470.33	1742.82
470.53	1855.46
470.73	2062.30
470.94	2244.57
471.14	2385.88
471.34	2523.10
471.54	2365.40
471.75	2183.13
471.95	2172.89
472.15	2129.89
472.36	2109.41
472.56	2107.36
472.76	2060.26
472.96	2076.64
473.17	1970.15
473.37	1859.56
473.57	1818.60
473.77	1810.40
473.98	1791.97
474.18	1730.53
474.38	1925.09
474.58	1693.67
474.79	1714.15
474.99	1757.16
475.19	1841.12
475.39	1685.48
475.60	1697.77
475.80	1775.59
476.00	1693.67
476.20	1730.53
476.41	1732.58
476.61	1877.99
476.81	1802.21
477.01	1646.57
477.21	1861.60
477.42	1779.68
477.62	1718.25
477.82	1839.08
478.02	1744.87
478.23	1837.03
478.43	1654.76
478.63	1689.57
478.83	1734.63
479.03	1732.58
479.24	1808.36
479.44	1882.08
479.64	1724.39
479.84	1642.47
480.04	1753.06
480.25	1800.16
480.45	1634.28
480.65	1675.24
480.85	1832.93
481.06	1720.29
481.26	1767.40
481.46	1802.21
481.66	1796.07
481.86	1701.86
482.06	1865.70
482.27	1685.48
482.47	1708.01
482.67	1716.20
482.87	1720.29
483.07	1781.73
483.28	1695.72
483.48	1714.15
483.68	1722.34
483.88	1687.53
484.08	1601.51
484.29	1609.70
484.49	1685.48
484.69	1660.90
484.89	1808.36
485.09	1740.77
485.29	1738.73
485.50	1767.40
485.70	1728.49
485.90	1730.53
486.10	1734.63
486.30	1804.26
486.50	1785.83
486.71	1701.86
486.91	1773.54
487.11	1853.41
487.31	1691.62
487.51	1705.96
487.71	1658.85
487.91	1667.05
488.12	1628.14
488.32	1626.09
488.52	1705.96
488.72	1574.89
488.92	1701.86
489.12	1812.45
489.32	1787.88
489.53	1662.95
489.73	1697.77
489.93	1859.56
490.13	1708.01
490.33	1658.85
490.53	1724.39
490.73	1777.64
490.94	1691.62
491.14	1865.70
491.34	1867.75
491.54	2166.75
491.74	2533.34
491.94	3008.47
492.14	3049.43
492.34	2983.89
492.54	2734.04
492.75	2549.72
492.95	2453.47
493.15	2349.02
493.35	2267.10
493.55	2213.85
493.75	2174.94
493.95	2183.13
494.15	1996.77
494.35	1945.57
494.56	1847.27
494.76	1834.98
494.96	1892.32
495.16	1722.34
495.36	1726.44
495.56	1777.64
495.76	1710.05
495.96	1775.59
496.16	1636.33
496.36	1869.80
496.56	1787.88
496.77	1718.25
496.97	1705.96
497.17	1794.02
497.37	1654.76
497.57	1722.34
497.77	1699.81
497.97	1677.29
498.17	1742.82
498.37	1820.64
498.57	1740.77
498.77	1748.97
498.97	1781.73
499.17	1839.08
499.38	1734.63
499.58	1761.25
499.78	1796.07
499.98	1808.36
500.18	1703.91
500.38	1722.34
500.58	1869.80
500.78	2559.96
500.98	4433.85
501.18	5805.99
501.38	6956.95
501.58	7286.67
501.78	6705.05
501.98	5738.41
502.18	5017.52
502.38	4474.81
502.58	4278.21
502.78	3753.93
502.98	3667.91
503.18	3526.60
503.38	3295.18
503.59	2887.64
503.79	2615.26
503.99	2496.47
504.19	2408.41
504.39	2168.80
504.59	2226.14
504.79	2095.07
504.99	2070.50
505.19	1927.14
505.39	1847.27
505.59	1943.52
505.79	1906.66
505.99	1837.03
506.19	1865.70
506.39	1953.76
506.59	1753.06
506.79	1820.64
506.99	1824.74
507.19	1746.92
507.39	1771.49
507.59	1669.09
507.79	1718.25
507.99	1656.81
508.19	1714.15
508.39	1708.01
508.59	1726.44
508.79	1818.60
508.99	1779.68
509.19	1644.52
509.39	1818.60
509.59	1648.61
509.79	1746.92
509.99	1880.04
510.19	1734.63
510.39	1734.63
510.59	1806.31
510.79	1646.57
510.99	1720.29
511.19	1787.88
511.39	1775.59
511.59	1763.30
511.79	1781.73
511.99	1775.59
512.19	1896.42
512.38	1736.68
512.58	1660.90
512.78	1691.62
512.98	1742.82
513.18	1826.79
513.38	1667.05
513.58	1775.59
513.78	1744.87
513.98	1761.25
514.18	1662.95
514.38	1681.38
514.58	1808.36
514.78	1669.09
514.98	1642.47
515.18	1724.39
515.38	1662.95
515.58	1839.08
515.78	1703.91
515.98	1708.01
516.18	1785.83
516.38	1845.22
516.57	1673.19
516.77	1683.43
516.97	1734.63
517.17	1804.26
517.37	1677.29
517.57	1791.97
517.77	1714.15
517.97	1642.47
518.17	1783.78
518.37	1693.67
518.57	1708.01
518.77	1773.54
518.97	1769.44
519.16	1738.73
519.36	1851.36
519.56	1751.01
519.76	1748.97
519.96	1755.11
520.16	1767.40
520.36	1732.58
520.56	1703.91
520.76	1705.96
520.96	1777.64
521.16	1820.64
521.35	1867.75
521.55	1787.88
521.75	1769.44
521.95	1632.23
522.15	1710.05
522.35	1732.58
522.55	1705.96
522.75	1775.59
522.95	1701.86
523.14	1671.14
523.34	1779.68
523.54	1730.53
523.74	1771.49
523.94	1744.87
524.14	1679.33
524.34	1761.25
524.54	1890.28
524.73	1748.97
524.93	1767.40
525.13	1724.39
525.33	1732.58
525.53	1861.60
525.73	1775.59
525.93	1730.53
526.13	1705.96
526.32	1755.11
526.52	1775.59
526.72	1826.79
526.92	1701.86
527.12	1746.92
527.32	1632.23
527.52	1679.33
527.71	1755.11
527.91	1773.54
528.11	1685.48
528.31	1753.06
528.51	1736.68
528.71	1730.53
528.90	1814.50
529.10	1751.01
529.30	1828.84
529.50	1660.90
529.70	1695.72
529.90	1724.39
530.09	1722.34
530.29	1683.43
530.49	1736.68
530.69	1916.90
530.89	1820.64
531.09	1820.64
531.28	1730.53
531.48	1730.53
531.68	1779.68
531.88	1775.59
532.08	1759.21
532.28	1683.43
532.47	1687.53
532.67	1781.73
532.87	1794.02
533.07	1640.42
533.27	1855.46
533.46	1794.02
533.66	1724.39
533.86	1681.38
534.06	1710.05
534.26	1730.53
534.45	1683.43
534.65	1771.49
534.85	1796.07
535.05	1726.44
535.25	1794.02
535.44	1708.01
535.64	1773.54
535.84	1720.29
536.04	1753.06
536.24	1763.30
536.43	1748.97
536.63	1789.92
536.83	1736.68
537.03	1761.25
537.22	1740.77
537.42	1595.37
537.62	1683.43
537.82	1691.62
538.02	1865.70
538.21	1812.45
538.41	1951.71
538.61	1761.25
538.81	1712.10
539.00	1779.68
539.20	1665.00
539.40	1671.14
539.60	1824.74
539.79	1818.60
539.99	1673.19
540.19	1736.68
540.39	1773.54
540.58	1710.05
540.78	1777.64
540.98	1732.58
541.18	1869.80
541.37	1814.50
541.57	1695.72
541.77	1828.84
541.97	1724.39
542.16	1593.32
542.36	1718.25
542.56	1662.95
542.76	1933.28
542.95	1765.35
543.15	1744.87
543.35	1818.60
543.54	1703.91
543.74	1671.14
543.94	1765.35
544.14	1710.05
544.33	1818.60
544.53	1761.25
544.73	1734.63
544.93	1701.86
545.12	1751.01
545.32	1783.78
545.52	1679.33
545.71	1648.61
545.91	1681.38
546.11	1761.25
546.30	1662.95
546.50	1722.34
546.70	1759.21
546.90	1767.40
547.09	1593.32
547.29	1781.73
547.49	1826.79
547.68	1742.82
547.88	1755.11
548.08	1767.40
548.27	2240.48
548.47	1708.01
548.67	1660.90
548.87	1736.68
549.06	1691.62
549.26	1722.34
549.46	1681.38
549.65	1693.67
549.85	1751.01
550.05	1798.12
550.24	1667.05
550.44	1705.96
550.64	1816.55
550.83	1689.57
551.03	1839.08
551.23	1802.21
551.42	1794.02
551.62	1761.25
551.82	1728.49
552.01	1712.10
552.21	1773.54
552.41	1748.97
552.60	1847.27
552.80	1757.16
553.00	1732.58
553.19	1810.40
553.39	1800.16
553.59	1697.77
553.78	1783.78
553.98	1822.69
554.17	1701.86
554.37	1732.58
554.57	1781.73
554.76	1730.53
554.96	1691.62
555.16	1718.25
555.35	1732.58
555.55	1798.12
555.75	1789.92
555.94	1726.44
556.14	1681.38
556.33	1796.07
556.53	1712.10
556.73	1826.79
556.92	1783.78
557.12	1861.60
557.32	1890.28
557.51	1863.65
557.71	1783.78
557.90	1812.45
558.10	1837.03
558.30	1736.68
558.49	1779.68
558.69	1751.01
558.88	1759.21
559.08	1822.69
559.28	1701.86
559.47	1761.25
559.67	1783.78
559.86	1869.80
560.06	1673.19
560.26	1757.16
560.45	1791.97
560.65	1654.76
560.84	1814.50
561.04	1693.67
561.24	1824.74
561.43	1753.06
561.63	1867.75
561.82	1710.05
562.02	1814.50
562.22	1712.10
562.41	1679.33
562.61	1710.05
562.80	1724.39
563.00	1877.99
563.19	1779.68
563.39	1777.64
563.59	1765.35
563.78	1658.85
563.98	1640.42
564.17	1738.73
564.37	1650.66
564.56	1730.53
564.76	1673.19
564.96	1828.84
565.15	1728.49
565.35	1837.03
565.54	1712.10
565.74	1818.60
565.93	1759.21
566.13	1849.32
566.32	1718.25
566.52	1779.68
566.71	1746.92
566.91	1773.54
567.11	1785.83
567.30	1724.39
567.50	1693.67
567.69	1683.43
567.89	1695.72
568.08	1691.62
568.28	1689.57
568.47	1697.77
568.67	1765.35
568.86	1736.68
569.06	1820.64
569.25	1654.76
569.45	1656.81
569.64	1681.38
569.84	1724.39
570.04	1755.11
570.23	1660.90
570.43	1757.16
570.62	1751.01
570.82	1931.23
571.01	1687.53
571.21	1687.53
571.40	1740.77
571.60	1800.16
571.79	1771.49
571.99	1882.08
572.18	1687.53
572.38	1718.25
572.57	1705.96
572.77	1779.68
572.96	1949.67
573.16	1773.54
573.35	1755.11
573.55	1863.65
573.74	1705.96
573.94	1722.34
574.13	1689.57
574.33	1824.74
574.52	1837.03
574.71	1751.01
574.91	1701.86
575.10	1720.29
575.30	1691.62
575.49	1685.48
575.69	1759.21
575.88	1697.77
576.08	1779.68
576.27	1828.84
576.47	1769.44
576.66	1863.65
576.86	1742.82
577.05	1746.92
577.25	1804.26
577.44	1845.22
577.64	1699.81
577.83	1779.68
578.02	1763.30
578.22	1830.88
578.41	1908.71
578.61	1789.92
578.80	1673.19
579.00	1832.93
579.19	1748.97
579.39	1775.59
579.58	1826.79
579.77	1798.12
579.97	1808.36
580.16	1773.54
580.36	1787.88
580.55	1826.79
580.75	1830.88
580.94	1779.68
581.13	1814.50
581.33	1929.19
581.52	1746.92
581.72	1929.19
581.91	1888.23
582.11	1763.30
582.30	1816.55
582.49	1808.36
582.69	1847.27
582.88	1875.94
583.08	1691.62
583.27	1755.11
583.47	1761.25
583.66	1748.97
583.85	1671.14
584.05	1736.68
584.24	1802.21
584.44	1785.83
584.63	1853.41
584.82	1814.50
585.02	1767.40
585.21	1777.64
585.41	1824.74
585.60	1800.16
585.79	1947.62
585.99	1955.81
586.18	1787.88
586.37	2181.09
586.57	3467.21
586.76	10049.38
586.96	24508.04
587.15	34754.03
587.34	40498.58
587.54	42337.66
587.73	36701.65
587.93	26257.01
588.12	21747.38
588.31	18290.41
588.51	16281.35
588.70	15277.85
588.89	14288.68
589.09	12724.03
589.28	11063.13
589.47	9521.01
589.67	8040.33
589.86	6469.53
590.06	5083.06
590.25	3944.39
590.44	3104.72
590.64	2633.69
590.83	2267.10
591.02	2025.44
591.22	1974.24
591.41	1947.62
591.60	1920.99
591.80	2043.87
591.99	1794.02
592.18	1757.16
592.38	1865.70
592.57	1708.01
592.76	1767.40
592.96	1806.31
593.15	1791.97
593.34	1867.75
593.54	1755.11
593.73	1796.07
593.92	1818.60
594.12	1783.78
594.31	1769.44
594.50	1859.56
594.70	1884.13
594.89	1916.90
595.08	1640.42
595.28	1736.68
595.47	1972.19
595.66	1849.32
595.86	1660.90
596.05	1701.86
596.24	1697.77
596.43	1791.97
596.63	1804.26
596.82	1740.77
597.01	1818.60
597.21	1855.46
597.40	1771.49
597.59	1820.64
597.79	1736.68
597.98	1804.26
598.17	1726.44
598.36	1722.34
598.56	1794.02
598.75	1716.20
598.94	1763.30
599.14	1730.53
599.33	1675.24
599.52	1693.67
599.71	1843.17
599.91	1830.88
600.10	1783.78
600.29	1697.77
600.48	1738.73
600.68	1763.30
600.87	1767.40
601.06	1718.25
601.26	1748.97
601.45	1796.07
601.64	1701.86
601.83	1826.79
602.03	1787.88
602.22	1738.73
602.41	1765.35
602.60	1873.89
602.80	1828.84
602.99	1730.53
603.18	1673.19
603.37	1800.16
603.57	1757.16
603.76	1755.11
603.95	1798.12
604.14	1781.73
604.34	1624.04
604.53	1755.11
604.72	1742.82
604.91	1783.78
605.10	1759.21
605.30	1646.57
605.49	1908.71
605.68	1732.58
605.87	1861.60
606.07	1701.86
606.26	1781.73
606.45	1791.97
606.64	1728.49
606.84	1779.68
607.03	1882.08
607.22	1855.46
607.41	1730.53
607.60	1755.11
607.80	1755.11
607.99	1726.44
608.18	1718.25
608.37	1798.12
608.56	1652.71
608.76	1767.40
608.95	1863.65
609.14	1748.97
609.33	1759.21
609.52	1783.78
609.72	1769.44
609.91	1673.19
610.10	1812.45
610.29	1798.12
610.48	1812.45
610.68	1722.34
610.87	1714.15
611.06	1716.20
611.25	1724.39
611.44	1871.84
611.63	1767.40
611.83	1787.88
612.02	1701.86
612.21	1810.40
612.40	1705.96
612.59	1753.06
612.79	1662.95
612.98	1765.35
613.17	1859.56
613.36	1603.56
613.55	1796.07
613.74	1697.77
613.93	1734.63
614.13	1693.67
614.32	1761.25
614.51	1808.36
614.70	1755.11
614.89	1685.48
615.08	1763.30
615.28	1964.00
615.47	1830.88
615.66	1789.92
615.85	1779.68
616.04	1785.83
616.23	1681.38
616.42	1699.81
616.62	1718.25
616.81	1771.49
617.00	1744.87
617.19	1843.17
617.38	1701.86
617.57	1736.68
617.76	1751.01
617.95	1845.22
618.15	1759.21
618.34	1738.73
618.53	1681.38
618.72	1851.36
618.91	1812.45
619.10	1834.98
619.29	1757.16
619.48	1732.58
619.68	1728.49
619.87	1703.91
620.06	1617.90
620.25	1757.16
620.44	1751.01
620.63	1728.49
620.82	1687.53
621.01	1697.77
621.20	1691.62
621.39	1730.53
621.59	1738.73
621.78	1738.73
621.97	1736.68
622.16	1830.88
622.35	1726.44
622.54	1689.57
622.73	1826.79
622.92	1675.24
623.11	1787.88
623.30	1748.97
623.49	1771.49
623.68	1757.16
623.88	1824.74
624.07	1765.35
624.26	1691.62
624.45	1767.40
624.64	1685.48
624.83	1763.30
625.02	1738.73
625.21	1820.64
625.40	1636.33
625.59	1783.78
625.78	1644.52
625.97	1816.55
626.16	1806.31
626.35	1818.60
626.54	1681.38
626.74	1798.12
626.93	1673.19
627.12	1726.44
627.31	1755.11
627.50	1759.21
627.69	1849.32
627.88	1755.11
628.07	1648.61
628.26	1630.18
628.45	1673.19
628.64	1718.25
628.83	1757.16
629.02	1718.25
629.21	1853.41
629.40	1818.60
629.59	1728.49
629.78	1730.53
629.97	1720.29
630.16	1732.58
630.35	1662.95
630.54	1714.15
630.73	1716.20
630.92	1728.49
631.11	1742.82
631.30	1710.05
631.49	1722.34
631.68	1734.63
631.87	1832.93
632.06	1685.48
632.25	1898.47
632.44	1755.11
632.63	1802.21
632.82	1671.14
633.01	1628.14
633.20	1734.63
633.39	1720.29
633.58	1621.99
633.77	1773.54
633.96	1673.19
634.15	1804.26
634.34	1816.55
634.53	1796.07
634.72	1679.33
634.91	1607.66
635.10	1753.06
635.29	1728.49
635.48	1748.97
635.67	1769.44
635.86	1646.57
636.05	1755.11
636.24	1789.92
636.43	1742.82
636.62	1710.05
636.81	1546.22
637.00	1753.06
637.19	1834.98
637.38	1703.91
637.57	1554.41
637.76	1708.01
637.95	1769.44
638.14	1738.73
638.33	1746.92
638.52	1734.63
638.71	1693.67
638.89	1726.44
639.08	1902.56
639.27	1724.39
639.46	1724.39
639.65	1812.45
639.84	1671.14
640.03	1755.11
640.22	1638.38
640.41	1785.83
640.60	1621.99
640.79	1761.25
640.98	1689.57
641.17	1810.40
641.36	1748.97
641.55	1722.34
641.74	1634.28
641.92	1669.09
642.11	1689.57
642.30	1734.63
642.49	1669.09
642.68	1794.02
642.87	1730.53
643.06	1730.53
643.25	1665.00
643.44	1724.39
643.63	1675.24
643.82	1791.97
644.00	1650.66
644.19	1648.61
644.38	1701.86
644.57	1740.77
644.76	1777.64
644.95	1714.15
645.14	1771.49
645.33	1746.92
645.52	1789.92
645.71	1667.05
645.89	1658.85
646.08	1652.71
646.27	1695.72
646.46	1796.07
646.65	1640.42
646.84	1751.01
647.03	1742.82
647.22	1783.78
647.40	1705.96
647.59	1722.34
647.78	1656.81
647.97	1691.62
648.16	1660.90
648.35	1853.41
648.54	1806.31
648.73	1714.15
648.91	1839.08
649.10	1736.68
649.29	1751.01
649.48	1714.15
649.67	1816.55
649.86	1746.92
650.05	1644.52
650.23	1798.12
650.42	1652.71
650.61	1800.16
650.80	1769.44
650.99	1906.66
651.18	1767.40
651.36	1691.62
651.55	1755.11
651.74	1726.44
651.93	1673.19
652.12	1636.33
652.31	1703.91
652.49	1710.05
652.68	1667.05
652.87	1826.79
653.06	1757.16
653.25	1771.49
653.44	1740.77
653.62	1800.16
653.81	1730.53
654.00	1740.77
654.19	1781.73
654.38	1894.37
654.56	1720.29
654.75	1759.21
654.94	1689.57
655.13	1636.33
655.32	1716.20
655.51	1732.58
655.69	1697.77
655.88	1746.92
656.07	1679.33
656.26	1794.02
656.45	1636.33
656.63	1767.40
656.82	1755.11
657.01	1880.04
657.20	1640.42
657.38	1759.21
657.57	1656.81
657.76	1595.37
657.95	1777.64
658.14	1705.96
658.32	1759.21
658.51	1636.33
658.70	1753.06
658.89	1628.14
659.08	1714.15
659.26	1726.44
659.45	1710.05
659.64	1759.21
659.83	1601.51
660.01	1927.14
660.20	1744.87
660.39	1765.35
660.58	1658.85
660.76	1804.26
660.95	1652.71
661.14	1738.73
661.33	1656.81
661.51	1722.34
661.70	1669.09
661.89	1755.11
662.08	1677.29
662.26	1708.01
662.45	1648.61
662.64	1785.83
662.83	1802.21
663.01	1687.53
663.20	1710.05
663.39	1853.41
663.58	1728.49
663.76	1726.44
663.95	1771.49
664.14	1705.96
664.32	1724.39
664.51	1613.80
664.70	1619.94
664.89	1763.30
665.07	1677.29
665.26	1734.63
665.45	1695.72
665.64	1845.22
665.82	1802.21
666.01	1769.44
666.20	1736.68
666.38	1769.44
666.57	1800.16
666.76	2234.33
666.95	4642.75
667.13	10544.99
667.32	15380.25
667.51	18134.76
667.69	19357.40
667.88	17932.01
668.07	12341.06
668.25	9768.81
668.44	8120.20
668.63	7407.50
668.81	6801.30
669.00	6348.70
669.19	5701.54
669.38	5173.17
669.56	4528.06
669.75	3985.35
669.94	3377.10
670.12	2840.53
670.31	2600.92
670.50	2328.54
670.68	2052.06
670.87	1886.18
671.06	1832.93
671.24	1845.22
671.43	1843.17
671.62	1796.07
671.80	1644.52
671.99	1804.26
672.18	1726.44
672.36	1773.54
672.55	1724.39
672.74	1708.01
672.92	1691.62
673.11	1759.21
673.29	1624.04
673.48	1810.40
673.67	1701.86
673.85	1816.55
674.04	1691.62
674.23	1705.96
674.41	1826.79
674.60	1738.73
674.79	1619.94
674.97	1638.38
675.16	1728.49
675.34	1783.78
675.53	1650.66
675.72	1720.29
675.90	1826.79
676.09	1634.28
676.28	1746.92
676.46	1626.09
676.65	1789.92
676.83	1703.91
677.02	1679.33
677.21	1761.25
677.39	1789.92
677.58	1720.29
677.77	1722.34
677.95	1738.73
678.14	1787.88
678.32	1724.39
678.51	1716.20
678.70	1736.68
678.88	1726.44
679.07	1738.73
679.25	1718.25
679.44	1667.05
679.63	1630.18
679.81	1675.24
680.00	1845.22
680.18	1804.26
680.37	1877.99
680.55	1753.06
680.74	1660.90
680.93	1675.24
681.11	1738.73
681.30	1636.33
681.48	1748.97
681.67	1673.19
681.85	1751.01
682.04	1658.85
682.23	1798.12
682.41	1710.05
682.60	1695.72
682.78	1804.26
682.97	1644.52
683.15	1779.68
683.34	1761.25
683.53	1755.11
683.71	1701.86
683.90	1849.32
684.08	1712.10
684.27	1794.02
684.45	1800.16
684.64	1841.12
684.82	1636.33
685.01	1744.87
685.19	1679.33
685.38	1808.36
685.57	1736.68
685.75	1755.11
685.94	1673.19
686.12	1708.01
686.31	1646.57
686.49	1869.80
686.68	1626.09
686.86	1763.30
687.05	1765.35
687.23	1820.64
687.42	1718.25
687.60	1703.91
687.79	1755.11
687.97	1816.55
688.16	1775.59
688.34	1761.25
688.53	1617.90
688.71	1705.96
688.90	1812.45
689.08	1710.05
689.27	1634.28
689.45	1789.92
689.64	1773.54
689.82	1662.95
690.01	1685.48
690.19	1693.67
690.38	1720.29
690.56	1796.07
690.75	1732.58
690.93	1759.21
691.12	1673.19
691.30	1689.57
691.49	1650.66
691.67	1767.40
691.86	1826.79
692.04	1738.73
692.23	1619.94
692.41	1734.63
692.60	1710.05
692.78	1824.74
692.97	1722.34
693.15	1712.10
693.34	1837.03
693.52	1730.53
693.71	1687.53
693.89	1648.61
694.08	1617.90
694.26	1738.73
694.44	1800.16
694.63	1724.39
694.81	1652.71
695.00	1726.44
695.18	1751.01
695.37	1847.27
695.55	1728.49
695.74	1679.33
695.92	1636.33
696.10	1804.26
696.29	1656.81
696.47	1660.90
696.66	1660.90
696.84	1640.42
697.03	1732.58
697.21	1871.84
697.40	2287.58
697.58	1779.68
697.76	1710.05
697.95	1757.16
698.13	1640.42
698.32	1626.09
698.50	1691.62
698.68	1734.63
698.87	1789.92
699.05	1830.88
699.24	1757.16
699.42	1632.23
699.61	1667.05
699.79	1691.62
699.97	1728.49
700.16	1574.89
700.34	1611.75
700.53	1771.49
700.71	1826.79
700.89	1814.50
701.08	1712.10
701.26	1701.86
701.45	2054.11
701.63	1609.70
701.81	1716.20
702.00	1695.72
702.18	1785.83
702.37	1710.05
702.55	1753.06
702.73	1652.71
702.92	1714.15
703.10	1787.88
703.28	1732.58
703.47	1646.57
703.65	1802.21
703.84	1759.21
704.02	1742.82
704.20	1798.12
704.39	1636.33
704.57	1734.63
704.75	1724.39
704.94	1796.07
705.12	1691.62
705.30	1810.40
705.49	2242.53
705.67	4474.81
705.86	9475.95
706.04	12707.65
706.22	14419.75
706.41	15300.37
706.59	13858.60
706.77	9451.38
706.96	7411.60
707.14	6596.51
707.32	5992.36
707.51	5687.21
707.69	4810.68
707.87	4190.14
708.06	3532.75
708.24	3018.71
708.42	2447.32
708.61	2338.78
708.79	1912.80
708.97	1861.60
709.16	1837.03
709.34	1730.53
709.52	1665.00
709.71	1699.81
709.89	1714.15
710.07	1722.34
710.26	1742.82
710.44	1724.39
710.62	1763.30
710.80	1681.38
710.99	1769.44
711.17	1691.62
711.35	1660.90
711.54	1689.57
711.72	1861.60
711.90	1763.30
712.09	1742.82
712.27	1724.39
712.45	1701.86
712.63	1671.14
712.82	1781.73
713.00	1689.57
713.18	1675.24
713.37	1773.54
713.55	1748.97
713.73	1724.39
713.91	1732.58
714.10	1693.67
714.28	1722.34
714.46	1660.90
714.65	1703.91
714.83	1755.11
715.01	1697.77
715.19	1689.57
715.38	1662.95
715.56	1708.01
715.74	1734.63
715.92	1660.90
716.11	1755.11
716.29	1558.50
716.47	1701.86
716.65	1669.09
716.84	1654.76
717.02	1738.73
717.20	1603.56
717.38	1716.20
717.57	1722.34
717.75	1705.96
717.93	1671.14
718.11	1771.49
718.30	1675.24
718.48	1759.21
718.66	1763.30
718.84	1871.84
719.03	1746.92
719.21	1665.00
719.39	1773.54
719.57	1742.82
719.75	1722.34
719.94	1726.44
720.12	1646.57
720.30	1671.14
720.48	1796.07
720.67	1712.10
720.85	1644.52
721.03	1785.83
721.21	1685.48
721.39	1794.02
721.58	1740.77
721.76	1656.81
721.94	1703.91
722.12	1701.86
722.30	1742.82
722.49	1673.19
722.67	1738.73
722.85	1734.63
723.03	1685.48
723.21	1724.39
723.40	1753.06
723.58	1798.12
723.76	1658.85
723.94	1755.11
724.12	1791.97
724.30	1746.92
724.49	1757.16
724.67	1671.14
724.85	1710.05
725.03	1583.08
725.21	1732.58
725.40	1824.74
725.58	1667.05
725.76	1857.51
725.94	1755.11
726.12	1681.38
726.30	1732.58
726.49	1691.62
726.67	1701.86
726.85	1763.30
727.03	1832.93
727.21	2238.43
727.39	2955.22
727.57	3811.27
727.76	4229.06
727.94	4483.00
728.12	4356.03
728.30	3766.21
728.48	3016.66
728.66	2760.66
728.84	2553.82
729.03	2336.73
729.21	2185.18
729.39	2019.30
729.57	1875.94
729.75	1828.84
729.93	1845.22
730.11	1742.82
730.30	1699.81
730.48	1695.72
730.66	1863.65
730.84	1740.77
731.02	1746.92
731.20	1691.62
731.38	1722.34
731.56	1695.72
731.74	1640.42
731.93	1785.83
732.11	1615.85
732.29	1728.49
732.47	1761.25
732.65	1769.44
732.83	1734.63
733.01	1748.97
733.19	1656.81
733.37	1806.31
733.56	1765.35
733.74	1673.19
733.92	1771.49
734.10	1628.14
734.28	1779.68
734.46	1626.09
734.64	1734.63
734.82	1722.34
735.00	1697.77
735.18	1695.72
735.36	1656.81
735.54	1722.34
735.73	1708.01
735.91	1757.16
736.09	1714.15
736.27	1724.39
736.45	1800.16
736.63	1669.09
736.81	1763.30
736.99	1816.55
737.17	1765.35
737.35	1632.23
737.53	1673.19
737.71	1724.39
737.89	1722.34
738.07	1638.38
738.25	1656.81
738.43	1544.17
738.61	1605.61
738.80	1683.43
738.98	1791.97
739.16	1736.68
739.34	1708.01
739.52	1796.07
739.70	1681.38
739.88	1699.81
740.06	1779.68
740.24	1705.96
740.42	1751.01
740.60	1626.09
740.78	1675.24
740.96	1638.38
741.14	1726.44
741.32	1742.82
741.50	1599.46
741.68	1830.88
741.86	1724.39
742.04	1665.00
742.22	1748.97
742.40	1732.58
742.58	1755.11
742.76	1699.81
742.94	1767.40
743.12	1566.70
743.30	1744.87
743.48	1677.29
743.66	1628.14
743.84	1746.92
744.02	1681.38
744.20	1785.83
744.38	1675.24
744.56	1626.09
744.74	1773.54
744.92	1746.92
745.10	1685.48
745.28	1728.49
745.46	1851.36
745.64	1763.30
745.82	1865.70
746.00	1763.30
746.18	1675.24
746.36	1609.70
746.54	1685.48
746.72	1712.10
746.90	1744.87
747.08	1701.86
747.26	1677.29
747.44	1796.07
747.62	1689.57
747.80	1765.35
747.98	1738.73
748.15	1677.29
748.33	1740.77
748.51	1718.25
748.69	1808.36
748.87	1650.66
749.05	1708.01
749.23	1751.01
749.41	1808.36
749.59	1701.86
749.77	1744.87
749.95	1746.92
750.13	1636.33
750.31	1763.30
750.49	1638.38
750.67	1814.50
750.85	1855.46
751.03	1814.50
751.20	1777.64
751.38	1615.85
751.56	1748.97
751.74	1726.44
751.92	1716.20
752.10	1673.19
752.28	1746.92
752.46	1673.19
752.64	1689.57
752.82	1671.14
753.00	1818.60
753.18	1726.44
753.35	1607.66
753.53	1708.01
753.71	1687.53
753.89	1724.39
754.07	1748.97
754.25	1742.82
754.43	1742.82
754.61	1646.57
754.79	1761.25
754.97	1730.53
755.14	1810.40
755.32	1671.14
755.50	1693.67
755.68	1699.81
755.86	1689.57
756.04	1648.61
756.22	1544.17
756.40	1736.68
756.57	1843.17
756.75	1619.94
756.93	1810.40
757.11	1771.49
757.29	1669.09
757.47	1728.49
757.65	1695.72
757.82	1642.47
758.00	1650.66
758.18	1624.04
758.36	1597.42
758.54	1724.39
758.72	1699.81
758.90	1683.43
759.07	1669.09
759.25	1652.71
759.43	1769.44
759.61	1677.29
759.79	2189.28
759.97	1771.49
760.15	1712.10
760.32	1755.11
760.50	1705.96
760.68	1808.36
760.86	1689.57
761.04	1820.64
761.22	1730.53
761.39	1669.09
761.57	1736.68
761.75	1705.96
761.93	1751.01
762.11	1685.48
762.28	1712.10
762.46	1654.76
762.64	1816.55
762.82	1658.85
763.00	1732.58
763.18	1744.87
763.35	1636.33
763.53	1767.40
763.71	1736.68
763.89	1775.59
764.07	1787.88
764.24	1685.48
764.42	1751.01
764.60	1677.29
764.78	1744.87
764.96	1744.87
765.13	1851.36
765.31	1650.66
765.49	1726.44
765.67	1658.85
765.84	1671.14
766.02	1695.72
766.20	1603.56
766.38	1703.91
766.56	1697.77
766.73	1814.50
766.91	1693.67
767.09	1679.33
767.27	1816.55
767.44	1636.33
767.62	1769.44
767.80	1705.96
767.98	1697.77
768.15	1771.49
768.33	1665.00
768.51	1775.59
768.69	1710.05
768.87	1714.15
769.04	1710.05
769.22	1779.68
769.40	1755.11
769.58	1877.99
769.75	1701.86
769.93	1759.21
770.11	1708.01
770.28	1742.82
770.46	1755.11
770.64	1818.60
770.82	1755.11
770.99	1730.53
771.17	1740.77
771.35	1691.62
771.53	1681.38
771.70	1748.97
771.88	1751.01
772.06	1636.33
772.23	1697.77
772.41	1796.07
772.59	1748.97
772.77	1638.38
772.94	1740.77
773.12	1755.11
773.30	1673.19
773.47	1716.20
773.65	1617.90
773.83	1738.73
774.01	1683.43
774.18	1566.70
774.36	1714.15
774.54	1681.38
774.71	1646.57
774.89	1609.70
775.07	1734.63
775.24	1681.38
775.42	1667.05
775.60	1744.87
775.78	1732.58
775.95	1656.81
776.13	1630.18
776.31	1613.80
776.48	1740.77
776.66	1751.01
776.84	1708.01
777.01	1630.18
777.19	1703.91
777.37	1650.66
777.54	1730.53
777.72	1861.60
777.90	1714.15
778.07	1669.09
778.25	1884.13
778.43	1857.51
778.60	1671.14
778.78	1800.16
778.96	1796.07
779.13	1673.19
779.31	1761.25
779.49	1720.29
779.66	1746.92
779.84	1665.00
780.01	1703.91
780.19	1681.38
780.37	1820.64
780.54	1691.62
780.72	1687.53
780.90	1699.81
781.07	1722.34
781.25	1669.09
781.43	1660.90
781.60	1705.96
781.78	1798.12
781.95	1710.05
782.13	1654.76
782.31	1746.92
782.48	1644.52
782.66	1708.01
782.83	1822.69
783.01	1687.53
783.19	1763.30
783.36	1611.75
783.54	1642.47
783.72	1755.11
783.89	1681.38
784.07	1736.68
784.24	1705.96
784.42	1798.12
784.60	1726.44
784.77	1765.35
784.95	1581.03
785.12	1640.42
785.30	1757.16
785.47	1646.57
785.65	1669.09
785.83	1718.25
786.00	1677.29
786.18	1738.73
786.35	1710.05
786.53	1669.09
786.71	1771.49
786.88	1712.10
787.06	1738.73
787.23	1746.92
787.41	1636.33
787.58	1767.40
787.76	1708.01
787.94	1654.76
788.11	1736.68
788.29	1673.19
788.46	1648.61
788.64	1652.71
788.81	1642.47
788.99	1660.90
789.16	1689.57
789.34	1724.39
789.52	1689.57
789.69	1691.62
789.87	1632.23
790.04	1697.77
790.22	1660.90
790.39	1824.74
790.57	1722.34
790.74	1607.66
790.92	1730.53
791.09	1560.55
791.27	1669.09
791.44	1845.22
791.62	1753.06
791.79	1740.77
791.97	1701.86
792.15	1877.99
792.32	1748.97
792.50	1779.68
792.67	1763.30
792.85	1796.07
793.02	1691.62
793.20	1693.67
793.37	1556.46
793.55	1695.72
793.72	1595.37
793.90	1677.29
794.07	1642.47
794.25	1748.97
794.42	1632.23
794.60	1734.63
794.77	1765.35
794.95	1720.29
795.12	1798.12
795.30	1642.47
795.47	1632.23
795.65	1863.65
795.82	1728.49
796.00	1632.23
796.17	1734.63
796.34	1675.24
796.52	1681.38
796.69	1742.82
796.87	1744.87
797.04	1761.25
797.22	1716.20
797.39	1738.73
797.57	1736.68
797.74	1726.44
797.92	1726.44
798.09	1669.09
798.27	1748.97
798.44	1802.21
798.62	1687.53
798.79	1724.39
798.96	1738.73
799.14	1755.11
799.31	1822.69
799.49	1710.05
799.66	1675.24
799.84	1757.16
800.01	1660.90
800.19	1699.81
800.36	1681.38
800.53	1703.91
800.71	1726.44
800.88	1779.68
801.06	1697.77
801.23	1705.96
801.41	1660.90
801.58	1693.67
801.75	1591.27
801.93	1787.88
802.10	1781.73
802.28	1693.67
802.45	1708.01
802.63	1769.44
802.80	1789.92
802.97	1746.92
803.15	1748.97
803.32	1658.85
803.50	1654.76
803.67	1662.95
803.84	1652.71
804.02	1734.63
804.19	1763.30
804.37	1535.98
804.54	1630.18
804.71	1748.97
804.89	1738.73
805.06	1724.39
805.24	1689.57
805.41	1628.14
805.58	1626.09
805.76	1888.23
805.93	1705.96
806.10	1755.11
806.28	1796.07
806.45	1683.43
806.63	1785.83
806.80	1757.16
806.97	1730.53
807.15	1732.58
807.32	1658.85
807.49	1640.42
807.67	1607.66
807.84	1746.92
808.01	1630.18
808.19	1744.87
808.36	1847.27
808.54	1626.09
808.71	1693.67
808.88	1738.73
809.06	1755.11
809.23	1781.73
809.40	1650.66
809.58	1826.79
809.75	1761.25
809.92	1587.18
810.10	1867.75
810.27	1773.54
810.44	1681.38
810.62	1685.48
810.79	1775.59
810.96	1748.97
811.14	1693.67
811.31	1748.97
811.48	1759.21
811.66	1753.06
811.83	1742.82
812.00	1789.92
812.18	1701.86
812.35	1841.12
812.52	1638.38
812.69	1660.90
812.87	1712.10
813.04	1609.70
813.21	1728.49
813.39	1730.53
813.56	1673.19
813.73	1798.12
813.91	1650.66
814.08	1732.58
814.25	1685.48
814.42	1683.43
814.60	1685.48
814.77	1701.86
814.94	1667.05
815.12	1732.58
815.29	1806.31
815.46	1732.58
815.63	1699.81
815.81	1634.28
815.98	1679.33
816.15	1681.38
816.33	1718.25
816.50	1720.29
816.67	1687.53
816.84	1671.14
817.02	1611.75
817.19	1716.20
817.36	1730.53
817.53	1705.96
817.71	1753.06
817.88	1748.97
818.05	1708.01
818.22	1658.85
818.40	1796.07
818.57	1611.75
818.74	1683.43
818.91	1656.81
819.09	1738.73
819.26	1718.25
819.43	1685.48
819.60	1648.61
819.78	1755.11
819.95	1763.30
820.12	1699.81
820.29	1810.40
820.47	1710.05
820.64	1734.63
820.81	1619.94
820.98	1644.52
821.15	1677.29
821.33	1789.92
821.50	1511.40
821.67	1712.10
821.84	1665.00
822.02	1738.73
822.19	1794.02
822.36	1609.70
822.53	1740.77
822.70	1708.01
822.88	1742.82
823.05	1732.58
823.22	1683.43
823.39	1740.77
823.56	1681.38
823.74	1816.55
823.91	1757.16
824.08	1677.29
824.25	1654.76
824.42	1785.83
824.60	1761.25
824.77	1808.36
824.94	1718.25
825.11	1685.48
825.28	1671.14
825.45	1742.82
825.63	1794.02
825.80	1593.32
825.97	1710.05
826.14	1777.64
826.31	1626.09
826.48	1736.68
826.66	1656.81
826.83	1697.77
827.00	1693.67
827.17	1701.86
827.34	1701.86
827.51	1665.00
827.69	1693.67
827.86	1667.05
828.03	1748.97
828.20	1816.55
828.37	1695.72
828.54	1759.21
828.71	1679.33
828.89	1734.63
829.06	1748.97
829.23	1755.11
829.40	1671.14
829.57	1689.57
829.74	1736.68
829.91	1603.56
830.09	1669.09
830.26	1722.34
830.43	1740.77
830.60	1751.01
830.77	1779.68
830.94	1787.88
831.11	1708.01
831.28	1669.09
831.46	1689.57
831.63	1673.19
831.80	1765.35
831.97	1712.10
832.14	1644.52
832.31	1708.01
832.48	1734.63
832.65	1822.69
832.82	1730.53
832.99	1742.82
833.17	1624.04
833.34	1802.21
833.51	1734.63
833.68	1640.42
833.85	1828.84
834.02	1583.08
834.19	1630.18
834.36	1671.14
834.53	1783.78
834.70	1726.44
834.87	1781.73
835.04	1726.44
835.22	1740.77
835.39	1763.30
835.56	1599.46
835.73	1607.66
835.90	1759.21
836.07	1615.85
836.24	1708.01
836.41	1671.14
836.58	1716.20
836.75	1697.77
836.92	1716.20
837.09	1671.14
837.26	1771.49
837.43	1705.96
837.60	1759.21
837.77	1681.38
837.94	1703.91
838.12	1701.86
838.29	1744.87
838.46	1665.00
838.63	1683.43
838.80	1736.68
838.97	1761.25
839.14	1695.72
839.31	1730.53
839.48	1730.53
839.65	1701.86
839.82	1703.91
839.99	1738.73
840.16	1697.77
840.33	1695.72
840.50	1755.11
840.67	1685.48
840.84	1656.81
841.01	1736.68
841.18	1626.09
841.35	1660.90
841.52	1779.68
841.69	1810.40
841.86	1720.29
842.03	1697.77
842.20	1673.19
842.37	1687.53
842.54	1714.15
842.71	1742.82
842.88	1564.65
843.05	1740.77
843.22	1705.96
843.39	1771.49
843.56	1708.01
843.73	1710.05
843.90	1759.21
844.07	1701.86
844.24	1746.92
844.41	1765.35
844.58	1660.90
844.75	1673.19
844.92	1714.15
845.09	1738.73
845.26	1644.52
845.43	1765.35
845.60	1630.18
845.77	1841.12
845.94	1744.87
846.10	1767.40
846.27	1658.85
846.44	1660.90
846.61	1667.05
846.78	1699.81
846.95	1736.68
847.12	1685.48
847.29	1681.38
847.46	1626.09
847.63	1748.97
847.80	1650.66
847.97	1675.24
848.14	1925.09
848.31	1693.67
848.48	1650.66
848.65	1708.01
848.82	1718.25
848.98	1845.22
849.15	1748.97
849.32	1775.59
849.49	1734.63
849.66	1693.67
849.83	1689.57
850.00	1665.00
850.17	1777.64
850.34	1693.67
850.51	1662.95
850.68	1710.05
850.85	1791.97
851.01	1734.63
851.18	1738.73
851.35	1763.30
851.52	1761.25
851.69	1755.11
851.86	1697.77
852.03	1708.01
852.20	1763.30
852.37	1716.20
852.53	1644.52
852.70	1695.72
852.87	1748.97
853.04	1669.09
853.21	1654.76
853.38	1671.14
853.55	1787.88
853.72	1751.01
853.89	1687.53
854.05	1708.01
854.22	1716.20
854.39	1685.48
854.56	1714.15
854.73	1824.74
854.90	1654.76
855.07	1693.67
855.23	1681.38
855.40	1724.39
855.57	1691.62
855.74	1597.42
855.91	1961.95
856.08	1630.18
856.25	1646.57
856.41	1652.71
856.58	1681.38
856.75	1687.53
856.92	1699.81
857.09	1757.16
857.26	1601.51
857.42	1705.96
857.59	1773.54
857.76	1757.16
857.93	1691.62
858.10	1810.40
858.27	1642.47
858.43	1691.62
858.60	1675.24
858.77	1624.04
858.94	1757.16
859.11	1755.11
859.27	1679.33
859.44	1681.38
859.61	1886.18
859.78	1820.64
859.95	1613.80
860.12	1646.57
860.28	1877.99
860.45	1800.16
860.62	1742.82
860.79	1751.01
860.95	1722.34
861.12	1697.77
861.29	1607.66
861.46	1771.49
861.63	1656.81
861.79	1660.90
861.96	1748.97
862.13	1681.38
862.30	1773.54
862.47	1720.29
862.63	1695.72
862.80	1771.49
862.97	1834.98
863.14	1675.24
863.30	1755.11
863.47	1597.42
863.64	1796.07
863.81	1724.39
863.97	1679.33
864.14	1765.35
864.31	1617.90
864.48	1757.16
864.65	1675.24
864.81	1742.82
864.98	1712.10
865.15	1744.87
865.32	1755.11
865.48	1794.02
865.65	1783.78
865.82	1767.40
865.98	1697.77
866.15	1771.49
866.32	1740.77
866.49	1652.71
866.65	1736.68
866.82	1636.33
866.99	1705.96
867.16	1679.33
867.32	1660.90
867.49	1697.77
867.66	1714.15
867.83	1619.94
867.99	1613.80
868.16	1665.00
868.33	1626.09
868.49	1673.19
868.66	1673.19
868.83	1712.10
868.99	1783.78
869.16	1705.96
869.33	1738.73
869.50	1757.16
869.66	1783.78
869.83	1763.30
870.00	1644.52
870.16	1748.97
870.33	1789.92
870.50	1755.11
870.66	1667.05
870.83	1859.56
871.00	1691.62
871.17	1751.01
871.33	1759.21
871.50	1675.24
871.67	1718.25
871.83	1669.09
872.00	1781.73
872.17	1681.38
872.33	1855.46
872.50	1755.11
872.67	1687.53
872.83	1708.01
873.00	1773.54
873.17	1718.25
873.33	1755.11
873.50	1744.87
873.67	1699.81
873.83	1699.81
874.00	1718.25
874.16	1703.91
874.33	1716.20
874.50	1658.85
874.66	1763.30
874.83	1691.62
875.00	1800.16
875.16	1775.59
875.33	1832.93
875.50	1667.05
875.66	1646.57
875.83	1761.25
875.99	1755.11
876.16	1701.86
876.33	1630.18
876.49	1697.77
876.66	1767.40
876.83	1710.05
876.99	1644.52
877.16	1742.82
877.32	1703.91
877.49	1732.58
877.66	1787.88
877.82	1804.26
877.99	1708.01
878.15	1701.86
878.32	1703.91
878.49	1746.92
878.65	1726.44
878.82	1847.27
878.98	1734.63
879.15	1730.53
879.32	1722.34
879.48	1789.92
879.65	1640.42
879.81	1820.64
879.98	1646.57
880.15	1675.24
880.31	1738.73
880.48	1654.76
880.64	1755.11
880.81	1718.25
880.97	1775.59
881.14	1787.88
881.31	1636.33
881.47	1886.18
881.64	1683.43
881.80	1624.04
881.97	1724.39
882.13	1742.82
882.30	1701.86
882.47	1564.65
882.63	1638.38
882.80	1669.09
882.96	1619.94
883.13	1736.68
883.29	1599.46
883.46	1783.78
883.62	1740.77
883.79	1644.52
883.95	1732.58
884.12	1634.28
884.29	1734.63
884.45	1683.43
884.62	1695.72
884.78	1681.38
884.95	1738.73
885.11	1697.77
885.28	1710.05
885.44	1644.52
885.61	1728.49
885.77	1757.16
885.94	1730.53
886.10	1656.81
886.27	1767.40
886.43	1800.16
886.60	1791.97
886.76	1652.71
886.93	1648.61
887.09	1777.64
887.26	1578.98
887.42	1662.95
887.59	1718.25
887.75	1855.46
887.92	1716.20
888.08	1769.44
888.25	1720.29
888.41	1787.88
888.58	1683.43
888.74	1648.61
888.91	1781.73
>>>>>End Processed Spectral Data<<<<<
