SpectraSuite Data File
++++++++++++++++++++++++++++++++++++
Date: Mon Jun 06 16:38:37 CEST 2016
User: root
Dark Spectrum Present: No
Reference Spectrum Present: No
Number of Sampled Component Spectra: 1
Spectrometers: USB4C02835
Integration Time (usec): 100000 (USB4C02835)
Spectra Averaged: 1 (USB4C02835)
Boxcar Smoothing: 0 (USB4C02835)
Correct for Electrical Dark: No (USB4C02835)
Strobe/Lamp Enabled: No (USB4C02835)
Correct for Detector Non-linearity: No (USB4C02835)
Correct for Stray Light: No (USB4C02835)
Number of Pixels in Processed Spectrum: 3648
>>>>>Begin Processed Spectral Data<<<<<
177.47	1478.63
177.69	1478.63
177.91	1478.63
178.13	1488.87
178.36	1443.82
178.58	1601.51
178.80	1736.68
179.02	1681.38
179.24	1566.70
179.46	1636.33
179.68	1832.93
179.90	1689.57
180.13	1683.43
180.35	1697.77
180.57	1705.96
180.79	1740.77
181.01	1722.34
181.23	1693.67
181.45	1738.73
181.67	1761.25
181.90	1765.35
182.12	1630.18
182.34	1714.15
182.56	1763.30
182.78	1650.66
183.00	1748.97
183.22	1679.33
183.44	1675.24
183.66	1886.18
183.89	1728.49
184.11	1677.29
184.33	1730.53
184.55	1773.54
184.77	1720.29
184.99	1679.33
185.21	1738.73
185.43	1830.88
185.65	1693.67
185.87	1673.19
186.10	1847.27
186.32	1814.50
186.54	1697.77
186.76	1753.06
186.98	1789.92
187.20	1654.76
187.42	1687.53
187.64	1699.81
187.86	1689.57
188.08	1746.92
188.30	1708.01
188.52	1714.15
188.75	1691.62
188.97	1789.92
189.19	1673.19
189.41	1689.57
189.63	1689.57
189.85	1630.18
190.07	1667.05
190.29	1607.66
190.51	1757.16
190.73	1689.57
190.95	1791.97
191.17	1771.49
191.39	1662.95
191.61	1689.57
191.84	1703.91
192.06	1755.11
192.28	1671.14
192.50	1847.27
192.72	1718.25
192.94	1753.06
193.16	1734.63
193.38	1673.19
193.60	1701.86
193.82	1712.10
194.04	1814.50
194.26	1720.29
194.48	1654.76
194.70	1738.73
194.92	1722.34
195.14	1761.25
195.36	1660.90
195.58	1701.86
195.80	1677.29
196.02	1736.68
196.24	1746.92
196.46	1736.68
196.69	1654.76
196.91	1808.36
197.13	1693.67
197.35	1652.71
197.57	1814.50
197.79	1748.97
198.01	1722.34
198.23	1699.81
198.45	1751.01
198.67	1736.68
198.89	1646.57
199.11	1679.33
199.33	1679.33
199.55	1628.14
199.77	1781.73
199.99	1753.06
200.21	1679.33
200.43	1804.26
200.65	1679.33
200.87	1589.22
201.09	1730.53
201.31	1644.52
201.53	1800.16
201.75	1695.72
201.97	1734.63
202.19	1724.39
202.41	1724.39
202.63	1877.99
202.85	1703.91
203.07	1730.53
203.29	1667.05
203.51	1708.01
203.73	1656.81
203.95	1908.71
204.17	1753.06
204.39	1724.39
204.61	1767.40
204.83	1681.38
205.05	1759.21
205.27	1742.82
205.49	1816.55
205.71	1699.81
205.93	1665.00
206.15	1679.33
206.37	1728.49
206.59	1720.29
206.81	1630.18
207.03	1640.42
207.25	1650.66
207.47	1755.11
207.69	1710.05
207.91	1800.16
208.13	1789.92
208.34	1591.27
208.56	1730.53
208.78	1796.07
209.00	1714.15
209.22	1632.23
209.44	1699.81
209.66	1638.38
209.88	1699.81
210.10	1746.92
210.32	1687.53
210.54	1794.02
210.76	1675.24
210.98	1812.45
211.20	1591.27
211.42	1814.50
211.64	1832.93
211.86	1783.78
212.08	1734.63
212.30	1695.72
212.52	1705.96
212.74	1767.40
212.96	1673.19
213.17	1785.83
213.39	1728.49
213.61	1759.21
213.83	1720.29
214.05	1667.05
214.27	1697.77
214.49	1691.62
214.71	1667.05
214.93	1814.50
215.15	1710.05
215.37	1703.91
215.59	1695.72
215.81	1757.16
216.03	1808.36
216.24	1689.57
216.46	1689.57
216.68	1763.30
216.90	1718.25
217.12	1732.58
217.34	1658.85
217.56	1691.62
217.78	1789.92
218.00	1720.29
218.22	1710.05
218.44	1755.11
218.66	1724.39
218.87	1779.68
219.09	1669.09
219.31	1724.39
219.53	1699.81
219.75	1777.64
219.97	1673.19
220.19	1691.62
220.41	1693.67
220.63	1744.87
220.85	1656.81
221.06	1701.86
221.28	1796.07
221.50	1798.12
221.72	1779.68
221.94	1722.34
222.16	1718.25
222.38	1814.50
222.60	1791.97
222.82	1703.91
223.03	1757.16
223.25	1581.03
223.47	1746.92
223.69	1837.03
223.91	1777.64
224.13	1644.52
224.35	1708.01
224.57	1779.68
224.78	1740.77
225.00	1658.85
225.22	1740.77
225.44	1755.11
225.66	1699.81
225.88	1708.01
226.10	1779.68
226.32	1722.34
226.53	1804.26
226.75	1708.01
226.97	1691.62
227.19	1656.81
227.41	1724.39
227.63	1617.90
227.85	1640.42
228.06	1740.77
228.28	1722.34
228.50	1759.21
228.72	1669.09
228.94	1615.85
229.16	1634.28
229.37	1632.23
229.59	1671.14
229.81	1787.88
230.03	1681.38
230.25	1669.09
230.47	1671.14
230.69	1667.05
230.90	1789.92
231.12	1621.99
231.34	1679.33
231.56	1726.44
231.78	1716.20
232.00	1740.77
232.21	1710.05
232.43	1632.23
232.65	1581.03
232.87	1773.54
233.09	1619.94
233.30	1699.81
233.52	1777.64
233.74	1671.14
233.96	1667.05
234.18	1697.77
234.40	1667.05
234.61	1796.07
234.83	1646.57
235.05	1595.37
235.27	1877.99
235.49	1755.11
235.70	1708.01
235.92	1828.84
236.14	1734.63
236.36	1857.51
236.58	1595.37
236.79	1869.80
237.01	1669.09
237.23	1753.06
237.45	1861.60
237.67	1646.57
237.88	1669.09
238.10	1845.22
238.32	1642.47
238.54	1746.92
238.76	1753.06
238.97	1665.00
239.19	1650.66
239.41	1738.73
239.63	1746.92
239.85	1742.82
240.06	1689.57
240.28	1695.72
240.50	1757.16
240.72	1796.07
240.93	1710.05
241.15	1810.40
241.37	1646.57
241.59	1814.50
241.81	1648.61
242.02	1646.57
242.24	1783.78
242.46	1689.57
242.68	1732.58
242.89	1732.58
243.11	1779.68
243.33	1773.54
243.55	1798.12
243.76	1763.30
243.98	1636.33
244.20	1718.25
244.42	1775.59
244.64	1746.92
244.85	1626.09
245.07	1712.10
245.29	1738.73
245.51	1722.34
245.72	1689.57
245.94	1714.15
246.16	1730.53
246.38	1748.97
246.59	1638.38
246.81	1662.95
247.03	1765.35
247.24	1718.25
247.46	1603.56
247.68	1708.01
247.90	1740.77
248.11	1687.53
248.33	1748.97
248.55	1787.88
248.77	1693.67
248.98	1748.97
249.20	1841.12
249.42	1736.68
249.64	1755.11
249.85	1703.91
250.07	1658.85
250.29	1708.01
250.50	1714.15
250.72	1705.96
250.94	1751.01
251.16	1861.60
251.37	1808.36
251.59	1722.34
251.81	1736.68
252.02	1796.07
252.24	1722.34
252.46	1785.83
252.68	1730.53
252.89	1665.00
253.11	1630.18
253.33	1781.73
253.54	1779.68
253.76	1650.66
253.98	1681.38
254.20	1671.14
254.41	1624.04
254.63	1771.49
254.85	1656.81
255.06	1765.35
255.28	1830.88
255.50	1701.86
255.71	1724.39
255.93	1628.14
256.15	1734.63
256.36	1763.30
256.58	1624.04
256.80	1724.39
257.02	1767.40
257.23	1687.53
257.45	1705.96
257.67	1804.26
257.88	1751.01
258.10	1785.83
258.32	1679.33
258.53	1757.16
258.75	1796.07
258.97	1691.62
259.18	1769.44
259.40	1714.15
259.62	1820.64
259.83	1824.74
260.05	1720.29
260.27	1980.39
260.48	1720.29
260.70	1540.07
260.92	1759.21
261.13	1681.38
261.35	1767.40
261.57	1691.62
261.78	1611.75
262.00	1605.61
262.22	1738.73
262.43	1705.96
262.65	1638.38
262.86	1636.33
263.08	1873.89
263.30	1728.49
263.51	1667.05
263.73	1671.14
263.95	1769.44
264.16	1660.90
264.38	1732.58
264.60	1675.24
264.81	1699.81
265.03	1705.96
265.25	1742.82
265.46	1685.48
265.68	1759.21
265.89	1753.06
266.11	1619.94
266.33	1748.97
266.54	1701.86
266.76	1732.58
266.98	1820.64
267.19	1742.82
267.41	1789.92
267.62	1716.20
267.84	1617.90
268.06	1675.24
268.27	1720.29
268.49	1779.68
268.70	1726.44
268.92	1712.10
269.14	1662.95
269.35	1607.66
269.57	1667.05
269.79	1695.72
270.00	1654.76
270.22	1824.74
270.43	1728.49
270.65	1550.31
270.87	1658.85
271.08	1732.58
271.30	1687.53
271.51	1761.25
271.73	1796.07
271.95	1771.49
272.16	1701.86
272.38	1710.05
272.59	1710.05
272.81	1773.54
273.02	1687.53
273.24	1705.96
273.46	1724.39
273.67	1640.42
273.89	1665.00
274.10	1603.56
274.32	1701.86
274.54	1787.88
274.75	1794.02
274.97	1652.71
275.18	1765.35
275.40	1775.59
275.61	1677.29
275.83	1689.57
276.05	1624.04
276.26	1751.01
276.48	1753.06
276.69	1689.57
276.91	1687.53
277.12	1810.40
277.34	1767.40
277.55	1736.68
277.77	1832.93
277.99	1697.77
278.20	1669.09
278.42	1654.76
278.63	1695.72
278.85	1683.43
279.06	1699.81
279.28	1730.53
279.49	1730.53
279.71	1751.01
279.93	1712.10
280.14	1689.57
280.36	1660.90
280.57	1710.05
280.79	1779.68
281.00	1722.34
281.22	1681.38
281.43	1781.73
281.65	1624.04
281.86	1632.23
282.08	1728.49
282.29	1773.54
282.51	1665.00
282.73	1736.68
282.94	1619.94
283.16	1740.77
283.37	1804.26
283.59	1757.16
283.80	1724.39
284.02	1671.14
284.23	1714.15
284.45	1710.05
284.66	1624.04
284.88	1601.51
285.09	1726.44
285.31	1703.91
285.52	1660.90
285.74	1558.50
285.95	1796.07
286.17	1738.73
286.38	1791.97
286.60	1693.67
286.81	1703.91
287.03	1751.01
287.24	1775.59
287.46	1789.92
287.67	1630.18
287.89	1761.25
288.10	1716.20
288.32	1683.43
288.53	1841.12
288.75	1791.97
288.96	1699.81
289.18	1591.27
289.39	1677.29
289.61	1771.49
289.82	1773.54
290.04	1810.40
290.25	1607.66
290.47	1710.05
290.68	1642.47
290.90	1775.59
291.11	1591.27
291.33	1796.07
291.54	1675.24
291.76	1597.42
291.97	1724.39
292.18	1751.01
292.40	1648.61
292.61	1705.96
292.83	1920.99
293.04	1763.30
293.26	1710.05
293.47	1710.05
293.69	1675.24
293.90	1681.38
294.12	1783.78
294.33	1681.38
294.55	1769.44
294.76	1751.01
294.97	1755.11
295.19	1820.64
295.40	1728.49
295.62	1693.67
295.83	1781.73
296.05	1648.61
296.26	1814.50
296.48	1601.51
296.69	1683.43
296.90	1667.05
297.12	1710.05
297.33	1806.31
297.55	1746.92
297.76	1740.77
297.98	1773.54
298.19	1679.33
298.41	1705.96
298.62	1695.72
298.83	1841.12
299.05	1720.29
299.26	1656.81
299.48	1689.57
299.69	1740.77
299.90	1757.16
300.12	1675.24
300.33	1757.16
300.55	1695.72
300.76	1673.19
300.98	1681.38
301.19	1746.92
301.40	1714.15
301.62	1740.77
301.83	1742.82
302.05	1728.49
302.26	1683.43
302.47	1722.34
302.69	1619.94
302.90	1697.77
303.12	1619.94
303.33	1757.16
303.54	1779.68
303.76	1675.24
303.97	1748.97
304.19	1765.35
304.40	1636.33
304.61	1765.35
304.83	1796.07
305.04	1775.59
305.26	1744.87
305.47	1667.05
305.68	1656.81
305.90	1566.70
306.11	1779.68
306.33	1710.05
306.54	1679.33
306.75	1687.53
306.97	1617.90
307.18	1634.28
307.39	1736.68
307.61	1757.16
307.82	1718.25
308.04	1726.44
308.25	1628.14
308.46	1703.91
308.68	1712.10
308.89	1677.29
309.10	1722.34
309.32	1746.92
309.53	1671.14
309.74	1794.02
309.96	1738.73
310.17	1761.25
310.39	1720.29
310.60	1791.97
310.81	1730.53
311.03	1699.81
311.24	1820.64
311.45	1695.72
311.67	1882.08
311.88	1759.21
312.09	1714.15
312.31	1632.23
312.52	1695.72
312.73	1751.01
312.95	1583.08
313.16	1673.19
313.37	1785.83
313.59	1730.53
313.80	1771.49
314.01	1814.50
314.23	1732.58
314.44	1683.43
314.65	1619.94
314.87	1681.38
315.08	1697.77
315.29	1710.05
315.51	1617.90
315.72	1642.47
315.93	1798.12
316.15	1740.77
316.36	1695.72
316.57	1820.64
316.79	1798.12
317.00	1675.24
317.21	1669.09
317.43	1683.43
317.64	1781.73
317.85	1640.42
318.07	1685.48
318.28	1761.25
318.49	1847.27
318.70	1980.39
318.92	1853.41
319.13	1875.94
319.34	1824.74
319.56	1820.64
319.77	1828.84
319.98	1759.21
320.20	1712.10
320.41	1806.31
320.62	1748.97
320.83	1703.91
321.05	1951.71
321.26	1767.40
321.47	1771.49
321.69	1804.26
321.90	1595.37
322.11	1675.24
322.32	1669.09
322.54	1755.11
322.75	1693.67
322.96	1882.08
323.18	1570.79
323.39	1619.94
323.60	1691.62
323.81	1755.11
324.03	1646.57
324.24	1685.48
324.45	1722.34
324.66	1705.96
324.88	1787.88
325.09	1779.68
325.30	1734.63
325.52	1718.25
325.73	1744.87
325.94	1599.46
326.15	1609.70
326.37	1648.61
326.58	1824.74
326.79	1820.64
327.00	1712.10
327.22	1691.62
327.43	1728.49
327.64	1675.24
327.85	1761.25
328.07	1681.38
328.28	1755.11
328.49	1716.20
328.70	1732.58
328.92	1714.15
329.13	1705.96
329.34	1710.05
329.55	1824.74
329.76	1710.05
329.98	1847.27
330.19	1742.82
330.40	1718.25
330.61	1708.01
330.83	1751.01
331.04	1566.70
331.25	1667.05
331.46	1740.77
331.68	1621.99
331.89	1789.92
332.10	1685.48
332.31	1601.51
332.52	1712.10
332.74	1759.21
332.95	1630.18
333.16	1755.11
333.37	1724.39
333.58	1644.52
333.80	1742.82
334.01	1652.71
334.22	1738.73
334.43	1619.94
334.64	1746.92
334.86	1621.99
335.07	1665.00
335.28	1820.64
335.49	1589.22
335.70	1671.14
335.92	1728.49
336.13	1873.89
336.34	1710.05
336.55	1689.57
336.76	1669.09
336.98	1607.66
337.19	1695.72
337.40	1859.56
337.61	1877.99
337.82	1701.86
338.04	1830.88
338.25	1701.86
338.46	1738.73
338.67	1601.51
338.88	1644.52
339.09	1566.70
339.31	1691.62
339.52	1638.38
339.73	1671.14
339.94	1714.15
340.15	1808.36
340.36	1665.00
340.58	1687.53
340.79	1640.42
341.00	1712.10
341.21	1681.38
341.42	1865.70
341.63	1738.73
341.85	1730.53
342.06	1724.39
342.27	1660.90
342.48	1834.98
342.69	1607.66
342.90	1753.06
343.12	1783.78
343.33	1634.28
343.54	1697.77
343.75	1757.16
343.96	1771.49
344.17	1685.48
344.38	1685.48
344.60	1736.68
344.81	1636.33
345.02	1665.00
345.23	1746.92
345.44	1822.69
345.65	1740.77
345.86	1705.96
346.07	1679.33
346.29	1703.91
346.50	1705.96
346.71	1730.53
346.92	1798.12
347.13	1886.18
347.34	1646.57
347.55	1675.24
347.76	1724.39
347.98	1685.48
348.19	1683.43
348.40	1732.58
348.61	1779.68
348.82	1783.78
349.03	1687.53
349.24	1685.48
349.45	1841.12
349.66	1615.85
349.88	1777.64
350.09	1714.15
350.30	1802.21
350.51	1785.83
350.72	1728.49
350.93	1730.53
351.14	1601.51
351.35	1808.36
351.56	1742.82
351.77	1714.15
351.99	1746.92
352.20	1787.88
352.41	1751.01
352.62	1652.71
352.83	1695.72
353.04	1658.85
353.25	1675.24
353.46	1720.29
353.67	1796.07
353.88	1589.22
354.09	1755.11
354.30	1769.44
354.52	1775.59
354.73	1796.07
354.94	1789.92
355.15	1685.48
355.36	1798.12
355.57	1746.92
355.78	1683.43
355.99	1699.81
356.20	1652.71
356.41	1787.88
356.62	1751.01
356.83	1728.49
357.04	1816.55
357.25	1593.32
357.46	1746.92
357.68	1660.90
357.89	1648.61
358.10	1705.96
358.31	1632.23
358.52	1826.79
358.73	1607.66
358.94	1708.01
359.15	1722.34
359.36	1703.91
359.57	1800.16
359.78	1726.44
359.99	1753.06
360.20	1744.87
360.41	1705.96
360.62	1650.66
360.83	1671.14
361.04	1722.34
361.25	1705.96
361.46	1773.54
361.67	1714.15
361.88	1810.40
362.09	1748.97
362.30	1675.24
362.51	1748.97
362.72	1644.52
362.93	1763.30
363.14	1765.35
363.35	1755.11
363.56	1738.73
363.78	1783.78
363.99	1859.56
364.20	1697.77
364.41	1753.06
364.62	1783.78
364.83	1644.52
365.04	1757.16
365.25	1681.38
365.46	1765.35
365.67	1615.85
365.88	1693.67
366.09	1710.05
366.30	1726.44
366.51	1648.61
366.72	1634.28
366.93	1699.81
367.14	1771.49
367.35	1779.68
367.56	1644.52
367.77	1810.40
367.98	1648.61
368.18	1705.96
368.39	1794.02
368.60	1581.03
368.81	1724.39
369.02	1726.44
369.23	1771.49
369.44	1605.61
369.65	1660.90
369.86	1765.35
370.07	1728.49
370.28	1646.57
370.49	1732.58
370.70	1773.54
370.91	1585.13
371.12	1669.09
371.33	1699.81
371.54	1689.57
371.75	1789.92
371.96	1624.04
372.17	1744.87
372.38	1673.19
372.59	1753.06
372.80	1689.57
373.01	1630.18
373.22	1720.29
373.43	1755.11
373.64	1619.94
373.85	1796.07
374.06	1900.52
374.26	1748.97
374.47	1759.21
374.68	1740.77
374.89	1642.47
375.10	1703.91
375.31	1763.30
375.52	1814.50
375.73	1767.40
375.94	1656.81
376.15	1886.18
376.36	1624.04
376.57	1689.57
376.78	1619.94
376.99	1763.30
377.20	1867.75
377.40	1589.22
377.61	1808.36
377.82	1632.23
378.03	1773.54
378.24	1718.25
378.45	1695.72
378.66	1724.39
378.87	1613.80
379.08	1621.99
379.29	1693.67
379.50	1728.49
379.71	1689.57
379.91	1810.40
380.12	1656.81
380.33	1665.00
380.54	1722.34
380.75	1681.38
380.96	1689.57
381.17	1765.35
381.38	1714.15
381.59	1689.57
381.80	1730.53
382.00	1804.26
382.21	1791.97
382.42	1875.94
382.63	1937.38
382.84	1794.02
383.05	1701.86
383.26	1826.79
383.47	1726.44
383.68	1794.02
383.88	1636.33
384.09	1679.33
384.30	1757.16
384.51	1751.01
384.72	1691.62
384.93	1624.04
385.14	1720.29
385.35	1853.41
385.55	1628.14
385.76	1751.01
385.97	1732.58
386.18	1617.90
386.39	1673.19
386.60	1697.77
386.81	1699.81
387.02	1624.04
387.22	1601.51
387.43	1785.83
387.64	1841.12
387.85	1886.18
388.06	2289.63
388.27	4376.51
388.48	6817.69
388.68	8449.92
388.89	9574.25
389.10	9908.07
389.31	8544.13
389.52	7505.81
389.73	6655.90
389.93	6305.70
390.14	5932.97
390.35	5173.17
390.56	4530.11
390.77	3819.46
390.98	3112.91
391.18	2508.76
391.39	2090.98
391.60	1828.84
391.81	1820.64
392.02	1724.39
392.23	1841.12
392.43	1812.45
392.64	1705.96
392.85	1789.92
393.06	1763.30
393.27	1683.43
393.47	1724.39
393.68	1765.35
393.89	1712.10
394.10	1755.11
394.31	1656.81
394.52	1669.09
394.72	1677.29
394.93	1837.03
395.14	1636.33
395.35	1673.19
395.56	1652.71
395.76	1814.50
395.97	1775.59
396.18	1853.41
396.39	1845.22
396.60	1996.77
396.80	1912.80
397.01	1832.93
397.22	1904.61
397.43	1974.24
397.64	1712.10
397.84	1773.54
398.05	1849.32
398.26	1771.49
398.47	1841.12
398.67	1781.73
398.88	1695.72
399.09	1730.53
399.30	1650.66
399.51	1710.05
399.71	1640.42
399.92	1781.73
400.13	1763.30
400.34	1677.29
400.54	1699.81
400.75	1783.78
400.96	1687.53
401.17	1755.11
401.37	1755.11
401.58	1746.92
401.79	1714.15
402.00	1886.18
402.21	1984.48
402.41	1945.57
402.62	2015.20
402.83	2045.92
403.04	2031.58
403.24	2011.11
403.45	1804.26
403.66	1855.46
403.87	1955.81
404.07	1927.14
404.28	1908.71
404.49	1877.99
404.70	1712.10
404.90	1789.92
405.11	1705.96
405.32	1746.92
405.52	1685.48
405.73	1708.01
405.94	1722.34
406.15	1683.43
406.35	1849.32
406.56	1746.92
406.77	1769.44
406.98	1804.26
407.18	1703.91
407.39	1800.16
407.60	1619.94
407.80	1714.15
408.01	1683.43
408.22	1728.49
408.43	1689.57
408.63	1753.06
408.84	1808.36
409.05	1765.35
409.25	1705.96
409.46	1650.66
409.67	1710.05
409.88	1718.25
410.08	1744.87
410.29	1648.61
410.50	1751.01
410.70	1726.44
410.91	1636.33
411.12	1746.92
411.32	1693.67
411.53	1671.14
411.74	1808.36
411.95	1818.60
412.15	1726.44
412.36	1771.49
412.57	1779.68
412.77	1812.45
412.98	1710.05
413.19	1726.44
413.39	1783.78
413.60	1787.88
413.81	1794.02
414.01	1714.15
414.22	1751.01
414.43	1847.27
414.63	1695.72
414.84	1757.16
415.05	1718.25
415.25	1724.39
415.46	1787.88
415.67	1658.85
415.87	1765.35
416.08	1783.78
416.29	1660.90
416.49	1740.77
416.70	1683.43
416.91	1689.57
417.11	1656.81
417.32	1789.92
417.53	1675.24
417.73	1669.09
417.94	1695.72
418.15	1742.82
418.35	1734.63
418.56	1701.86
418.77	1859.56
418.97	1640.42
419.18	1738.73
419.38	1624.04
419.59	1658.85
419.80	1816.55
420.00	1687.53
420.21	1740.77
420.42	1740.77
420.62	1736.68
420.83	1658.85
421.04	1687.53
421.24	1703.91
421.45	1794.02
421.65	1660.90
421.86	1671.14
422.07	1732.58
422.27	1736.68
422.48	1828.84
422.69	1669.09
422.89	1705.96
423.10	1665.00
423.30	1611.75
423.51	1779.68
423.72	1669.09
423.92	1816.55
424.13	1658.85
424.33	1785.83
424.54	1761.25
424.75	1716.20
424.95	1851.36
425.16	1826.79
425.36	1701.86
425.57	1796.07
425.78	1830.88
425.98	1675.24
426.19	1753.06
426.39	1681.38
426.60	1763.30
426.81	1798.12
427.01	1681.38
427.22	1699.81
427.42	1601.51
427.63	1540.07
427.83	1693.67
428.04	1814.50
428.25	1865.70
428.45	1746.92
428.66	1734.63
428.86	1794.02
429.07	1730.53
429.28	1748.97
429.48	1755.11
429.69	1712.10
429.89	1798.12
430.10	1697.77
430.30	1703.91
430.51	1746.92
430.71	1705.96
430.92	1679.33
431.13	1695.72
431.33	1705.96
431.54	1703.91
431.74	1935.33
431.95	1826.79
432.15	1638.38
432.36	1712.10
432.56	1697.77
432.77	1820.64
432.98	1804.26
433.18	1769.44
433.39	1708.01
433.59	1712.10
433.80	1894.37
434.00	1742.82
434.21	1679.33
434.41	1728.49
434.62	1865.70
434.82	1587.18
435.03	1693.67
435.23	1746.92
435.44	1699.81
435.64	1834.98
435.85	1798.12
436.06	1730.53
436.26	1746.92
436.47	1724.39
436.67	1667.05
436.88	1751.01
437.08	1732.58
437.29	1763.30
437.49	1744.87
437.70	1832.93
437.90	1736.68
438.11	1863.65
438.31	1789.92
438.52	1873.89
438.72	1869.80
438.93	1933.28
439.13	1802.21
439.34	1837.03
439.54	1820.64
439.75	1775.59
439.95	1697.77
440.16	1722.34
440.36	1802.21
440.57	1802.21
440.77	1746.92
440.98	1642.47
441.18	1697.77
441.39	1724.39
441.59	1716.20
441.80	1845.22
442.00	1671.14
442.21	1738.73
442.41	1736.68
442.62	1742.82
442.82	1695.72
443.02	1767.40
443.23	1761.25
443.43	1740.77
443.64	1820.64
443.84	1781.73
444.05	1804.26
444.25	1771.49
444.46	1720.29
444.66	1732.58
444.87	1865.70
445.07	1691.62
445.28	1746.92
445.48	1810.40
445.69	1824.74
445.89	1888.23
446.09	1697.77
446.30	2011.11
446.50	2684.89
446.71	3747.78
446.91	4276.16
447.12	4706.23
447.32	4722.62
447.53	4433.85
447.73	3862.47
447.93	3553.23
448.14	3344.33
448.34	3180.50
448.55	2897.88
448.75	2832.34
448.96	2611.16
449.16	2408.41
449.36	2271.20
449.57	2113.50
449.77	1947.62
449.98	1785.83
450.18	1837.03
450.39	1791.97
450.59	1757.16
450.79	1699.81
451.00	1746.92
451.20	1718.25
451.41	1726.44
451.61	1736.68
451.81	1761.25
452.02	1708.01
452.22	1728.49
452.43	1730.53
452.63	1699.81
452.84	1734.63
453.04	1705.96
453.24	1820.64
453.45	1726.44
453.65	1744.87
453.86	1769.44
454.06	1724.39
454.26	1822.69
454.47	1722.34
454.67	1777.64
454.87	1779.68
455.08	1765.35
455.28	1837.03
455.49	1761.25
455.69	1722.34
455.89	1875.94
456.10	1808.36
456.30	1665.00
456.51	1787.88
456.71	1726.44
456.91	1710.05
457.12	1767.40
457.32	1769.44
457.52	1683.43
457.73	1777.64
457.93	1763.30
458.14	1697.77
458.34	1679.33
458.54	1767.40
458.75	1654.76
458.95	1787.88
459.15	1714.15
459.36	1703.91
459.56	1765.35
459.76	1794.02
459.97	1673.19
460.17	1738.73
460.37	1800.16
460.58	1736.68
460.78	1751.01
460.99	1761.25
461.19	1775.59
461.39	1761.25
461.60	1724.39
461.80	1783.78
462.00	1636.33
462.21	1804.26
462.41	1697.77
462.61	1638.38
462.82	1652.71
463.02	1769.44
463.22	1714.15
463.43	1810.40
463.63	1701.86
463.83	1861.60
464.04	1777.64
464.24	1755.11
464.44	1681.38
464.64	1662.95
464.85	1775.59
465.05	1771.49
465.25	1693.67
465.46	1679.33
465.66	1714.15
465.86	1798.12
466.07	1820.64
466.27	1720.29
466.47	1720.29
466.68	1712.10
466.88	1763.30
467.08	1779.68
467.29	1802.21
467.49	1771.49
467.69	1701.86
467.89	1744.87
468.10	1767.40
468.30	1703.91
468.50	1779.68
468.71	1748.97
468.91	1728.49
469.11	1841.12
469.31	1724.39
469.52	1613.80
469.72	1839.08
469.92	1789.92
470.13	1710.05
470.33	1767.40
470.53	1837.03
470.73	2039.78
470.94	2377.69
471.14	2334.68
471.34	2482.14
471.54	2514.91
471.75	2222.05
471.95	2123.74
472.15	2144.22
472.36	2090.98
472.56	2136.03
472.76	2060.26
472.96	2088.93
473.17	1890.28
473.37	1904.61
473.57	1732.58
473.77	1877.99
473.98	1751.01
474.18	1722.34
474.38	1839.08
474.58	1701.86
474.79	1718.25
474.99	1800.16
475.19	1804.26
475.39	1648.61
475.60	1757.16
475.80	1785.83
476.00	1732.58
476.20	1751.01
476.41	1677.29
476.61	1796.07
476.81	1869.80
477.01	1728.49
477.21	1777.64
477.42	1783.78
477.62	1693.67
477.82	1779.68
478.02	1773.54
478.23	1681.38
478.43	1667.05
478.63	1677.29
478.83	1654.76
479.03	1728.49
479.24	1787.88
479.44	1880.04
479.64	1712.10
479.84	1642.47
480.04	1724.39
480.25	1761.25
480.45	1726.44
480.65	1693.67
480.85	1755.11
481.06	1628.14
481.26	1689.57
481.46	1755.11
481.66	1656.81
481.86	1751.01
482.06	1775.59
482.27	1765.35
482.47	1677.29
482.67	1748.97
482.87	1701.86
483.07	1771.49
483.28	1722.34
483.48	1712.10
483.68	1746.92
483.88	1763.30
484.08	1714.15
484.29	1730.53
484.49	1683.43
484.69	1638.38
484.89	1814.50
485.09	1789.92
485.29	1751.01
485.50	1701.86
485.70	1712.10
485.90	1761.25
486.10	1720.29
486.30	1771.49
486.50	1771.49
486.71	1742.82
486.91	1755.11
487.11	1816.55
487.31	1665.00
487.51	1697.77
487.71	1683.43
487.91	1638.38
488.12	1617.90
488.32	1652.71
488.52	1621.99
488.72	1630.18
488.92	1740.77
489.12	1714.15
489.32	1800.16
489.53	1751.01
489.73	1636.33
489.93	1736.68
490.13	1720.29
490.33	1660.90
490.53	1726.44
490.73	1753.06
490.94	1658.85
491.14	1773.54
491.34	1806.31
491.54	2101.22
491.74	2574.30
491.94	2918.36
492.14	3049.43
492.34	3055.57
492.54	2658.26
492.75	2545.63
492.95	2402.27
493.15	2355.16
493.35	2283.49
493.55	2281.44
493.75	2101.22
493.95	2158.56
494.15	2009.06
494.35	1873.89
494.56	1857.51
494.76	1824.74
494.96	1822.69
495.16	1884.13
495.36	1757.16
495.56	1738.73
495.76	1755.11
495.96	1728.49
496.16	1708.01
496.36	1859.56
496.56	1693.67
496.77	1724.39
496.97	1693.67
497.17	1822.69
497.37	1716.20
497.57	1738.73
497.77	1746.92
497.97	1738.73
498.17	1724.39
498.37	1759.21
498.57	1724.39
498.77	1679.33
498.97	1724.39
499.17	1834.98
499.38	1767.40
499.58	1738.73
499.78	1773.54
499.98	1837.03
500.18	1763.30
500.38	1710.05
500.58	1918.95
500.78	2502.62
500.98	4632.51
501.18	5904.29
501.38	6862.74
501.58	7145.36
501.78	6645.66
501.98	5574.57
502.18	5068.72
502.38	4378.56
502.58	4210.62
502.78	3760.07
502.98	3755.97
503.18	3475.40
503.38	3258.32
503.59	2869.20
503.79	2584.54
503.99	2480.09
504.19	2316.25
504.39	2170.85
504.59	2154.46
504.79	2095.07
504.99	2021.35
505.19	1947.62
505.39	1927.14
505.59	1986.53
505.79	1904.61
505.99	1755.11
506.19	1761.25
506.39	1892.32
506.59	1834.98
506.79	1740.77
506.99	1818.60
507.19	1683.43
507.39	1718.25
507.59	1673.19
507.79	1742.82
507.99	1665.00
508.19	1800.16
508.39	1660.90
508.59	1673.19
508.79	1855.46
508.99	1826.79
509.19	1677.29
509.39	1785.83
509.59	1814.50
509.79	1751.01
509.99	1767.40
510.19	1753.06
510.39	1824.74
510.59	1738.73
510.79	1716.20
510.99	1718.25
511.19	1691.62
511.39	1730.53
511.59	1802.21
511.79	1929.19
511.99	1693.67
512.19	1785.83
512.38	1693.67
512.58	1685.48
512.78	1757.16
512.98	1804.26
513.18	1812.45
513.38	1695.72
513.58	1841.12
513.78	1673.19
513.98	1736.68
514.18	1777.64
514.38	1685.48
514.58	1748.97
514.78	1669.09
514.98	1699.81
515.18	1748.97
515.38	1677.29
515.58	1857.51
515.78	1738.73
515.98	1761.25
516.18	1808.36
516.38	1775.59
516.57	1728.49
516.77	1710.05
516.97	1763.30
517.17	1718.25
517.37	1601.51
517.57	1771.49
517.77	1744.87
517.97	1714.15
518.17	1718.25
518.37	1656.81
518.57	1693.67
518.77	1804.26
518.97	1726.44
519.16	1755.11
519.36	1732.58
519.56	1718.25
519.76	1736.68
519.96	1759.21
520.16	1826.79
520.36	1585.13
520.56	1861.60
520.76	1679.33
520.96	1755.11
521.16	1804.26
521.35	1773.54
521.55	1900.52
521.75	1705.96
521.95	1691.62
522.15	1755.11
522.35	1712.10
522.55	1687.53
522.75	1779.68
522.95	1775.59
523.14	1640.42
523.34	1744.87
523.54	1589.22
523.74	1769.44
523.94	1769.44
524.14	1632.23
524.34	1810.40
524.54	1882.08
524.73	1746.92
524.93	1769.44
525.13	1705.96
525.33	1685.48
525.53	1947.62
525.73	1701.86
525.93	1701.86
526.13	1714.15
526.32	1779.68
526.52	1781.73
526.72	1759.21
526.92	1748.97
527.12	1722.34
527.32	1689.57
527.52	1677.29
527.71	1746.92
527.91	1857.51
528.11	1736.68
528.31	1808.36
528.51	1656.81
528.71	1787.88
528.90	1740.77
529.10	1849.32
529.30	1814.50
529.50	1603.56
529.70	1736.68
529.90	1779.68
530.09	1759.21
530.29	1669.09
530.49	1673.19
530.69	1882.08
530.89	1738.73
531.09	1800.16
531.28	1689.57
531.48	1775.59
531.68	1742.82
531.88	1830.88
532.08	1720.29
532.28	1697.77
532.47	1796.07
532.67	1810.40
532.87	1796.07
533.07	1763.30
533.27	1744.87
533.46	1705.96
533.66	1785.83
533.86	1753.06
534.06	1828.84
534.26	1824.74
534.45	1624.04
534.65	1826.79
534.85	1746.92
535.05	1658.85
535.25	1740.77
535.44	1687.53
535.64	1744.87
535.84	1718.25
536.04	1693.67
536.24	1691.62
536.43	1656.81
536.63	1789.92
536.83	1716.20
537.03	1734.63
537.22	1671.14
537.42	1595.37
537.62	1753.06
537.82	1722.34
538.02	1839.08
538.21	1812.45
538.41	1894.37
538.61	1785.83
538.81	1703.91
539.00	1802.21
539.20	1599.46
539.40	1683.43
539.60	1783.78
539.79	1728.49
539.99	1652.71
540.19	1642.47
540.39	1748.97
540.58	1761.25
540.78	1769.44
540.98	1775.59
541.18	1808.36
541.37	1814.50
541.57	1708.01
541.77	1708.01
541.97	1687.53
542.16	1660.90
542.36	1675.24
542.56	1712.10
542.76	1892.32
542.95	1673.19
543.15	1798.12
543.35	1730.53
543.54	1656.81
543.74	1740.77
543.94	1763.30
544.14	1734.63
544.33	1810.40
544.53	1789.92
544.73	1728.49
544.93	1775.59
545.12	1699.81
545.32	1714.15
545.52	1705.96
545.71	1783.78
545.91	1744.87
546.11	1677.29
546.30	1681.38
546.50	1748.97
546.70	1705.96
546.90	1763.30
547.09	1679.33
547.29	1830.88
547.49	1720.29
547.68	1712.10
547.88	1675.24
548.08	1820.64
548.27	2213.85
548.47	1716.20
548.67	1654.76
548.87	1705.96
549.06	1722.34
549.26	1806.31
549.46	1761.25
549.65	1746.92
549.85	1777.64
550.05	1769.44
550.24	1769.44
550.44	1695.72
550.64	1710.05
550.83	1679.33
551.03	1855.46
551.23	1800.16
551.42	1783.78
551.62	1730.53
551.82	1728.49
552.01	1703.91
552.21	1828.84
552.41	1748.97
552.60	1753.06
552.80	1669.09
553.00	1691.62
553.19	1701.86
553.39	1787.88
553.59	1677.29
553.78	1728.49
553.98	1679.33
554.17	1701.86
554.37	1746.92
554.57	1789.92
554.76	1638.38
554.96	1714.15
555.16	1732.58
555.35	1714.15
555.55	1837.03
555.75	1759.21
555.94	1822.69
556.14	1691.62
556.33	1828.84
556.53	1796.07
556.73	1738.73
556.92	1806.31
557.12	1820.64
557.32	1820.64
557.51	1816.55
557.71	1820.64
557.90	1843.17
558.10	1789.92
558.30	1726.44
558.49	1689.57
558.69	1789.92
558.88	1740.77
559.08	1783.78
559.28	1722.34
559.47	1796.07
559.67	1796.07
559.86	1839.08
560.06	1773.54
560.26	1804.26
560.45	1734.63
560.65	1722.34
560.84	1822.69
561.04	1736.68
561.24	1810.40
561.43	1697.77
561.63	1777.64
561.82	1783.78
562.02	1728.49
562.22	1751.01
562.41	1757.16
562.61	1626.09
562.80	1712.10
563.00	1853.41
563.19	1814.50
563.39	1769.44
563.59	1785.83
563.78	1695.72
563.98	1619.94
564.17	1660.90
564.37	1716.20
564.56	1755.11
564.76	1650.66
564.96	1781.73
565.15	1773.54
565.35	1904.61
565.54	1699.81
565.74	1775.59
565.93	1691.62
566.13	1763.30
566.32	1759.21
566.52	1808.36
566.71	1722.34
566.91	1875.94
567.11	1746.92
567.30	1687.53
567.50	1812.45
567.69	1738.73
567.89	1634.28
568.08	1681.38
568.28	1785.83
568.47	1656.81
568.67	1783.78
568.86	1695.72
569.06	1794.02
569.25	1708.01
569.45	1611.75
569.64	1722.34
569.84	1687.53
570.04	1763.30
570.23	1632.23
570.43	1763.30
570.62	1890.28
570.82	1859.56
571.01	1646.57
571.21	1761.25
571.40	1730.53
571.60	1863.65
571.79	1755.11
571.99	1773.54
572.18	1708.01
572.38	1816.55
572.57	1716.20
572.77	1773.54
572.96	1957.86
573.16	1744.87
573.35	1712.10
573.55	1849.32
573.74	1765.35
573.94	1687.53
574.13	1734.63
574.33	1748.97
574.52	1773.54
574.71	1738.73
574.91	1787.88
575.10	1632.23
575.30	1605.61
575.49	1640.42
575.69	1722.34
575.88	1771.49
576.08	1689.57
576.27	1771.49
576.47	1740.77
576.66	1845.22
576.86	1769.44
577.05	1775.59
577.25	1863.65
577.44	1912.80
577.64	1710.05
577.83	1755.11
578.02	1714.15
578.22	1787.88
578.41	1845.22
578.61	1683.43
578.80	1665.00
579.00	1738.73
579.19	1738.73
579.39	1748.97
579.58	1898.47
579.77	1755.11
579.97	1871.84
580.16	1785.83
580.36	1859.56
580.55	1859.56
580.75	1927.14
580.94	1761.25
581.13	1832.93
581.33	1837.03
581.52	1771.49
581.72	1851.36
581.91	1789.92
582.11	1708.01
582.30	1718.25
582.49	1791.97
582.69	1845.22
582.88	1724.39
583.08	1779.68
583.27	1810.40
583.47	1822.69
583.66	1708.01
583.85	1740.77
584.05	1834.98
584.24	1794.02
584.44	1789.92
584.63	1783.78
584.82	1904.61
585.02	1806.31
585.21	1906.66
585.41	1837.03
585.60	1796.07
585.79	1847.27
585.99	1886.18
586.18	1910.75
586.37	2222.05
586.57	3373.00
586.76	9928.55
586.96	24426.12
587.15	34199.03
587.34	40609.17
587.54	42124.67
587.73	36552.15
587.93	26320.49
588.12	21618.36
588.31	18476.77
588.51	16289.54
588.70	15220.50
588.89	14163.75
589.09	12662.59
589.28	11136.85
589.47	9389.94
589.67	8181.64
589.86	6483.87
590.06	5011.38
590.25	3971.01
590.44	3008.47
590.64	2635.74
590.83	2363.36
591.02	2150.37
591.22	1974.24
591.41	1937.38
591.60	1822.69
591.80	1968.10
591.99	1677.29
592.18	1841.12
592.38	1847.27
592.57	1828.84
592.76	1839.08
592.96	1914.85
593.15	1775.59
593.34	1814.50
593.54	1798.12
593.73	1886.18
593.92	1849.32
594.12	1775.59
594.31	1763.30
594.50	1808.36
594.70	1759.21
594.89	1869.80
595.08	1648.61
595.28	1779.68
595.47	1931.23
595.66	1814.50
595.86	1669.09
596.05	1720.29
596.24	1738.73
596.43	1804.26
596.63	1804.26
596.82	1746.92
597.01	1759.21
597.21	1869.80
597.40	1800.16
597.59	1777.64
597.79	1765.35
597.98	1744.87
598.17	1810.40
598.36	1662.95
598.56	1789.92
598.75	1722.34
598.94	1699.81
599.14	1763.30
599.33	1636.33
599.52	1728.49
599.71	1812.45
599.91	1816.55
600.10	1871.84
600.29	1767.40
600.48	1724.39
600.68	1771.49
600.87	1761.25
601.06	1697.77
601.26	1761.25
601.45	1712.10
601.64	1781.73
601.83	1851.36
602.03	1798.12
602.22	1744.87
602.41	1744.87
602.60	1820.64
602.80	1824.74
602.99	1763.30
603.18	1732.58
603.37	1839.08
603.57	1794.02
603.76	1796.07
603.95	1810.40
604.14	1681.38
604.34	1695.72
604.53	1771.49
604.72	1677.29
604.91	1832.93
605.10	1837.03
605.30	1673.19
605.49	1896.42
605.68	1843.17
605.87	1722.34
606.07	1755.11
606.26	1748.97
606.45	1779.68
606.64	1769.44
606.84	1787.88
607.03	1652.71
607.22	1781.73
607.41	1615.85
607.60	1751.01
607.80	1751.01
607.99	1794.02
608.18	1726.44
608.37	1783.78
608.56	1675.24
608.76	1759.21
608.95	1798.12
609.14	1771.49
609.33	1714.15
609.52	1753.06
609.72	1718.25
609.91	1820.64
610.10	1783.78
610.29	1818.60
610.48	1843.17
610.68	1867.75
610.87	1826.79
611.06	1746.92
611.25	1677.29
611.44	1875.94
611.63	1683.43
611.83	1824.74
612.02	1679.33
612.21	1810.40
612.40	1654.76
612.59	1673.19
612.79	1646.57
612.98	1708.01
613.17	1755.11
613.36	1763.30
613.55	1880.04
613.74	1638.38
613.93	1667.05
614.13	1814.50
614.32	1699.81
614.51	1757.16
614.70	1687.53
614.89	1716.20
615.08	1763.30
615.28	2039.78
615.47	1671.14
615.66	1736.68
615.85	1683.43
616.04	1777.64
616.23	1712.10
616.42	1730.53
616.62	1712.10
616.81	1781.73
617.00	1796.07
617.19	1773.54
617.38	1779.68
617.57	1689.57
617.76	1697.77
617.95	1767.40
618.15	1746.92
618.34	1871.84
618.53	1656.81
618.72	1877.99
618.91	1888.23
619.10	1779.68
619.29	1759.21
619.48	1773.54
619.68	1697.77
619.87	1753.06
620.06	1675.24
620.25	1730.53
620.44	1726.44
620.63	1779.68
620.82	1738.73
621.01	1742.82
621.20	1710.05
621.39	1755.11
621.59	1736.68
621.78	1675.24
621.97	1683.43
622.16	1798.12
622.35	1732.58
622.54	1718.25
622.73	1781.73
622.92	1691.62
623.11	1699.81
623.30	1730.53
623.49	1697.77
623.68	1640.42
623.88	1847.27
624.07	1693.67
624.26	1681.38
624.45	1802.21
624.64	1695.72
624.83	1746.92
625.02	1787.88
625.21	1777.64
625.40	1722.34
625.59	1738.73
625.78	1744.87
625.97	1751.01
626.16	1759.21
626.35	1781.73
626.54	1738.73
626.74	1783.78
626.93	1685.48
627.12	1738.73
627.31	1783.78
627.50	1789.92
627.69	1787.88
627.88	1691.62
628.07	1671.14
628.26	1685.48
628.45	1683.43
628.64	1648.61
628.83	1748.97
629.02	1679.33
629.21	1767.40
629.40	1658.85
629.59	1671.14
629.78	1714.15
629.97	1708.01
630.16	1796.07
630.35	1687.53
630.54	1789.92
630.73	1638.38
630.92	1798.12
631.11	1671.14
631.30	1722.34
631.49	1667.05
631.68	1771.49
631.87	1677.29
632.06	1638.38
632.25	1791.97
632.44	1724.39
632.63	1677.29
632.82	1673.19
633.01	1599.46
633.20	1705.96
633.39	1718.25
633.58	1658.85
633.77	1716.20
633.96	1738.73
634.15	1740.77
634.34	1777.64
634.53	1708.01
634.72	1767.40
634.91	1607.66
635.10	1734.63
635.29	1773.54
635.48	1746.92
635.67	1724.39
635.86	1646.57
636.05	1775.59
636.24	1759.21
636.43	1779.68
636.62	1722.34
636.81	1589.22
637.00	1755.11
637.19	1763.30
637.38	1740.77
637.57	1724.39
637.76	1636.33
637.95	1783.78
638.14	1632.23
638.33	1718.25
638.52	1685.48
638.71	1701.86
638.89	1619.94
639.08	1849.32
639.27	1738.73
639.46	1718.25
639.65	1806.31
639.84	1781.73
640.03	1808.36
640.22	1687.53
640.41	1759.21
640.60	1685.48
640.79	1708.01
640.98	1669.09
641.17	1800.16
641.36	1767.40
641.55	1771.49
641.74	1681.38
641.92	1669.09
642.11	1740.77
642.30	1763.30
642.49	1673.19
642.68	1644.52
642.87	1753.06
643.06	1689.57
643.25	1753.06
643.44	1734.63
643.63	1662.95
643.82	1771.49
644.00	1701.86
644.19	1703.91
644.38	1644.52
644.57	1722.34
644.76	1744.87
644.95	1693.67
645.14	1710.05
645.33	1763.30
645.52	1687.53
645.71	1644.52
645.89	1615.85
646.08	1718.25
646.27	1757.16
646.46	1806.31
646.65	1628.14
646.84	1697.77
647.03	1648.61
647.22	1820.64
647.40	1728.49
647.59	1730.53
647.78	1597.42
647.97	1665.00
648.16	1619.94
648.35	1761.25
648.54	1763.30
648.73	1689.57
648.91	1791.97
649.10	1714.15
649.29	1640.42
649.48	1746.92
649.67	1810.40
649.86	1697.77
650.05	1681.38
650.23	1810.40
650.42	1585.13
650.61	1708.01
650.80	1738.73
650.99	1804.26
651.18	1775.59
651.36	1812.45
651.55	1722.34
651.74	1738.73
651.93	1712.10
652.12	1644.52
652.31	1746.92
652.49	1738.73
652.68	1667.05
652.87	1812.45
653.06	1701.86
653.25	1808.36
653.44	1728.49
653.62	1822.69
653.81	1720.29
654.00	1808.36
654.19	1738.73
654.38	1880.04
654.56	1753.06
654.75	1781.73
654.94	1742.82
655.13	1775.59
655.32	1714.15
655.51	1806.31
655.69	1681.38
655.88	1708.01
656.07	1662.95
656.26	1755.11
656.45	1708.01
656.63	1718.25
656.82	1720.29
657.01	1812.45
657.20	1714.15
657.38	1798.12
657.57	1675.24
657.76	1662.95
657.95	1755.11
658.14	1687.53
658.32	1685.48
658.51	1689.57
658.70	1798.12
658.89	1755.11
659.08	1730.53
659.26	1806.31
659.45	1611.75
659.64	1724.39
659.83	1693.67
660.01	1990.63
660.20	1695.72
660.39	1839.08
660.58	1656.81
660.76	1773.54
660.95	1642.47
661.14	1695.72
661.33	1687.53
661.51	1710.05
661.70	1646.57
661.89	1693.67
662.08	1738.73
662.26	1652.71
662.45	1716.20
662.64	1828.84
662.83	1763.30
663.01	1611.75
663.20	1617.90
663.39	1847.27
663.58	1607.66
663.76	1683.43
663.95	1746.92
664.14	1675.24
664.32	1677.29
664.51	1697.77
664.70	1667.05
664.89	1726.44
665.07	1656.81
665.26	1759.21
665.45	1656.81
665.64	1787.88
665.82	1763.30
666.01	1730.53
666.20	1714.15
666.38	1769.44
666.57	1851.36
666.76	2152.42
666.95	4462.52
667.13	10403.68
667.32	15550.23
667.51	18122.48
667.69	19214.04
667.88	17882.86
668.07	12613.44
668.25	9752.43
668.44	8056.71
668.63	7440.27
668.81	6909.85
669.00	6320.03
669.19	5795.75
669.38	5154.74
669.56	4573.11
669.75	3991.49
669.94	3522.51
670.12	2965.46
670.31	2623.45
670.50	2308.06
670.68	2060.26
670.87	1974.24
671.06	1816.55
671.24	1802.21
671.43	1828.84
671.62	1781.73
671.80	1761.25
671.99	1806.31
672.18	1738.73
672.36	1808.36
672.55	1728.49
672.74	1693.67
672.92	1712.10
673.11	1812.45
673.29	1640.42
673.48	1763.30
673.67	1712.10
673.85	1816.55
674.04	1691.62
674.23	1755.11
674.41	1814.50
674.60	1628.14
674.79	1642.47
674.97	1650.66
675.16	1812.45
675.34	1769.44
675.53	1693.67
675.72	1746.92
675.90	1779.68
676.09	1771.49
676.28	1722.34
676.46	1677.29
676.65	1730.53
676.83	1693.67
677.02	1726.44
677.21	1728.49
677.39	1716.20
677.58	1665.00
677.77	1699.81
677.95	1632.23
678.14	1701.86
678.32	1708.01
678.51	1693.67
678.70	1837.03
678.88	1712.10
679.07	1710.05
679.25	1703.91
679.44	1695.72
679.63	1654.76
679.81	1783.78
680.00	1824.74
680.18	1708.01
680.37	1787.88
680.55	1730.53
680.74	1613.80
680.93	1665.00
681.11	1779.68
681.30	1685.48
681.48	1781.73
681.67	1746.92
681.85	1681.38
682.04	1650.66
682.23	1736.68
682.41	1755.11
682.60	1697.77
682.78	1714.15
682.97	1677.29
683.15	1650.66
683.34	1669.09
683.53	1718.25
683.71	1617.90
683.90	1837.03
684.08	1849.32
684.27	1675.24
684.45	1693.67
684.64	1794.02
684.82	1695.72
685.01	1742.82
685.19	1718.25
685.38	1789.92
685.57	1691.62
685.75	1640.42
685.94	1609.70
686.12	1587.18
686.31	1765.35
686.49	1822.69
686.68	1626.09
686.86	1773.54
687.05	1720.29
687.23	1843.17
687.42	1751.01
687.60	1712.10
687.79	1804.26
687.97	1843.17
688.16	1804.26
688.34	1765.35
688.53	1697.77
688.71	1746.92
688.90	1710.05
689.08	1730.53
689.27	1648.61
689.45	1806.31
689.64	1736.68
689.82	1683.43
690.01	1808.36
690.19	1740.77
690.38	1720.29
690.56	1855.46
690.75	1722.34
690.93	1675.24
691.12	1740.77
691.30	1669.09
691.49	1642.47
691.67	1675.24
691.86	1845.22
692.04	1615.85
692.23	1658.85
692.41	1671.14
692.60	1857.51
692.78	1753.06
692.97	1732.58
693.15	1738.73
693.34	1882.08
693.52	1742.82
693.71	1740.77
693.89	1681.38
694.08	1699.81
694.26	1796.07
694.44	1769.44
694.63	1740.77
694.81	1621.99
695.00	1656.81
695.18	1798.12
695.37	1832.93
695.55	1746.92
695.74	1689.57
695.92	1650.66
696.10	1757.16
696.29	1654.76
696.47	1615.85
696.66	1689.57
696.84	1632.23
697.03	1728.49
697.21	1869.80
697.40	2353.12
697.58	1720.29
697.76	1757.16
697.95	1710.05
698.13	1640.42
698.32	1624.04
698.50	1673.19
698.68	1763.30
698.87	1656.81
699.05	1875.94
699.24	1681.38
699.42	1671.14
699.61	1665.00
699.79	1667.05
699.97	1712.10
700.16	1679.33
700.34	1595.37
700.53	1757.16
700.71	1773.54
700.89	1689.57
701.08	1681.38
701.26	1689.57
701.45	2074.59
701.63	1658.85
701.81	1753.06
702.00	1667.05
702.18	1748.97
702.37	1697.77
702.55	1791.97
702.73	1722.34
702.92	1646.57
703.10	1853.41
703.28	1765.35
703.47	1640.42
703.65	1794.02
703.84	1736.68
704.02	1677.29
704.20	1884.13
704.39	1685.48
704.57	1734.63
704.75	1824.74
704.94	1787.88
705.12	1683.43
705.30	1722.34
705.49	2250.72
705.67	4331.45
705.86	9324.40
706.04	12640.06
706.22	14501.67
706.41	15699.73
706.59	13924.14
706.77	9555.82
706.96	7462.80
707.14	6623.13
707.32	6000.55
707.51	5668.78
707.69	4827.06
707.87	4218.82
708.06	3606.47
708.24	3008.47
708.42	2346.97
708.61	2248.67
708.79	1888.23
708.97	1798.12
709.16	1828.84
709.34	1789.92
709.52	1730.53
709.71	1769.44
709.89	1736.68
710.07	1705.96
710.26	1615.85
710.44	1761.25
710.62	1796.07
710.80	1703.91
710.99	1689.57
711.17	1853.41
711.35	1699.81
711.54	1785.83
711.72	1800.16
711.90	1748.97
712.09	1699.81
712.27	1638.38
712.45	1667.05
712.63	1671.14
712.82	1699.81
713.00	1708.01
713.18	1755.11
713.37	1775.59
713.55	1759.21
713.73	1751.01
713.91	1787.88
714.10	1771.49
714.28	1724.39
714.46	1740.77
714.65	1746.92
714.83	1685.48
715.01	1708.01
715.19	1687.53
715.38	1691.62
715.56	1656.81
715.74	1667.05
715.92	1658.85
716.11	1880.04
716.29	1599.46
716.47	1748.97
716.65	1695.72
716.84	1593.32
717.02	1816.55
717.20	1619.94
717.38	1683.43
717.57	1763.30
717.75	1638.38
717.93	1722.34
718.11	1689.57
718.30	1660.90
718.48	1712.10
718.66	1796.07
718.84	1798.12
719.03	1751.01
719.21	1656.81
719.39	1828.84
719.57	1796.07
719.75	1785.83
719.94	1722.34
720.12	1667.05
720.30	1722.34
720.48	1746.92
720.67	1722.34
720.85	1679.33
721.03	1728.49
721.21	1617.90
721.39	1767.40
721.58	1685.48
721.76	1744.87
721.94	1687.53
722.12	1718.25
722.30	1865.70
722.49	1689.57
722.67	1736.68
722.85	1699.81
723.03	1601.51
723.21	1744.87
723.40	1748.97
723.58	1718.25
723.76	1710.05
723.94	1755.11
724.12	1730.53
724.30	1751.01
724.49	1722.34
724.67	1609.70
724.85	1812.45
725.03	1640.42
725.21	1759.21
725.40	1665.00
725.58	1642.47
725.76	1810.40
725.94	1730.53
726.12	1652.71
726.30	1705.96
726.49	1748.97
726.67	1718.25
726.85	1710.05
727.03	1740.77
727.21	2166.75
727.39	2871.25
727.57	3833.80
727.76	4204.48
727.94	4487.10
728.12	4427.71
728.30	3702.73
728.48	3006.42
728.66	2709.46
728.84	2641.88
729.03	2389.98
729.21	2131.94
729.39	1994.72
729.57	1806.31
729.75	1769.44
729.93	1882.08
730.11	1681.38
730.30	1710.05
730.48	1714.15
730.66	1800.16
730.84	1683.43
731.02	1667.05
731.20	1681.38
731.38	1722.34
731.56	1677.29
731.74	1677.29
731.93	1773.54
732.11	1705.96
732.29	1746.92
732.47	1761.25
732.65	1693.67
732.83	1773.54
733.01	1697.77
733.19	1660.90
733.37	1724.39
733.56	1722.34
733.74	1595.37
733.92	1740.77
734.10	1763.30
734.28	1765.35
734.46	1685.48
734.64	1740.77
734.82	1716.20
735.00	1695.72
735.18	1644.52
735.36	1646.57
735.54	1705.96
735.73	1658.85
735.91	1687.53
736.09	1779.68
736.27	1728.49
736.45	1710.05
736.63	1585.13
736.81	1665.00
736.99	1695.72
737.17	1773.54
737.35	1640.42
737.53	1650.66
737.71	1718.25
737.89	1859.56
738.07	1714.15
738.25	1660.90
738.43	1648.61
738.61	1734.63
738.80	1689.57
738.98	1693.67
739.16	1794.02
739.34	1675.24
739.52	1710.05
739.70	1660.90
739.88	1722.34
740.06	1832.93
740.24	1593.32
740.42	1740.77
740.60	1632.23
740.78	1697.77
740.96	1705.96
741.14	1697.77
741.32	1728.49
741.50	1636.33
741.68	1802.21
741.86	1806.31
742.04	1634.28
742.22	1628.14
742.40	1693.67
742.58	1693.67
742.76	1652.71
742.94	1736.68
743.12	1726.44
743.30	1712.10
743.48	1726.44
743.66	1634.28
743.84	1783.78
744.02	1683.43
744.20	1714.15
744.38	1689.57
744.56	1708.01
744.74	1730.53
744.92	1804.26
745.10	1728.49
745.28	1761.25
745.46	1798.12
745.64	1716.20
745.82	1724.39
746.00	1755.11
746.18	1738.73
746.36	1685.48
746.54	1687.53
746.72	1718.25
746.90	1628.14
747.08	1855.46
747.26	1701.86
747.44	1781.73
747.62	1742.82
747.80	1740.77
747.98	1761.25
748.15	1708.01
748.33	1791.97
748.51	1730.53
748.69	1794.02
748.87	1634.28
749.05	1648.61
749.23	1703.91
749.41	1763.30
749.59	1697.77
749.77	1742.82
749.95	1665.00
750.13	1665.00
750.31	1775.59
750.49	1667.05
750.67	1675.24
750.85	1779.68
751.03	1726.44
751.20	1812.45
751.38	1689.57
751.56	1611.75
751.74	1703.91
751.92	1693.67
752.10	1607.66
752.28	1701.86
752.46	1675.24
752.64	1742.82
752.82	1716.20
753.00	1814.50
753.18	1691.62
753.35	1687.53
753.53	1667.05
753.71	1681.38
753.89	1744.87
754.07	1632.23
754.25	1697.77
754.43	1775.59
754.61	1583.08
754.79	1722.34
754.97	1716.20
755.14	1759.21
755.32	1644.52
755.50	1691.62
755.68	1730.53
755.86	1671.14
756.04	1619.94
756.22	1669.09
756.40	1771.49
756.57	1834.98
756.75	1615.85
756.93	1849.32
757.11	1759.21
757.29	1669.09
757.47	1632.23
757.65	1671.14
757.82	1609.70
758.00	1632.23
758.18	1648.61
758.36	1585.13
758.54	1863.65
758.72	1683.43
758.90	1730.53
759.07	1730.53
759.25	1658.85
759.43	1679.33
759.61	1624.04
759.79	2279.39
759.97	1703.91
760.15	1648.61
760.32	1705.96
760.50	1755.11
760.68	1871.84
760.86	1609.70
761.04	1748.97
761.22	1837.03
761.39	1671.14
761.57	1734.63
761.75	1789.92
761.93	1642.47
762.11	1644.52
762.28	1740.77
762.46	1691.62
762.64	1773.54
762.82	1640.42
763.00	1669.09
763.18	1765.35
763.35	1632.23
763.53	1742.82
763.71	1718.25
763.89	1765.35
764.07	1669.09
764.24	1712.10
764.42	1767.40
764.60	1691.62
764.78	1718.25
764.96	1746.92
765.13	1818.60
765.31	1689.57
765.49	1730.53
765.67	1621.99
765.84	1718.25
766.02	1683.43
766.20	1605.61
766.38	1812.45
766.56	1652.71
766.73	1796.07
766.91	1617.90
767.09	1681.38
767.27	1736.68
767.44	1691.62
767.62	1751.01
767.80	1800.16
767.98	1720.29
768.15	1722.34
768.33	1853.41
768.51	1761.25
768.69	1701.86
768.87	1781.73
769.04	1705.96
769.22	1927.14
769.40	1837.03
769.58	1800.16
769.75	1679.33
769.93	1802.21
770.11	1701.86
770.28	1628.14
770.46	1662.95
770.64	1673.19
770.82	1705.96
770.99	1660.90
771.17	1726.44
771.35	1671.14
771.53	1669.09
771.70	1705.96
771.88	1712.10
772.06	1724.39
772.23	1624.04
772.41	1683.43
772.59	1757.16
772.77	1689.57
772.94	1695.72
773.12	1695.72
773.30	1667.05
773.47	1730.53
773.65	1667.05
773.83	1769.44
774.01	1699.81
774.18	1658.85
774.36	1689.57
774.54	1650.66
774.71	1720.29
774.89	1599.46
775.07	1658.85
775.24	1705.96
775.42	1716.20
775.60	1785.83
775.78	1685.48
775.95	1681.38
776.13	1644.52
776.31	1578.98
776.48	1708.01
776.66	1705.96
776.84	1673.19
777.01	1730.53
777.19	1669.09
777.37	1628.14
777.54	1783.78
777.72	1796.07
777.90	1755.11
778.07	1652.71
778.25	1894.37
778.43	1767.40
778.60	1636.33
778.78	1685.48
778.96	1787.88
779.13	1677.29
779.31	1736.68
779.49	1708.01
779.66	1697.77
779.84	1699.81
780.01	1687.53
780.19	1636.33
780.37	1748.97
780.54	1755.11
780.72	1650.66
780.90	1736.68
781.07	1656.81
781.25	1742.82
781.43	1759.21
781.60	1654.76
781.78	1845.22
781.95	1775.59
782.13	1613.80
782.31	1689.57
782.48	1595.37
782.66	1695.72
782.83	1884.13
783.01	1763.30
783.19	1710.05
783.36	1699.81
783.54	1660.90
783.72	1736.68
783.89	1669.09
784.07	1708.01
784.24	1787.88
784.42	1812.45
784.60	1701.86
784.77	1705.96
784.95	1619.94
785.12	1683.43
785.30	1691.62
785.47	1640.42
785.65	1730.53
785.83	1765.35
786.00	1710.05
786.18	1726.44
786.35	1638.38
786.53	1611.75
786.71	1767.40
786.88	1734.63
787.06	1769.44
787.23	1693.67
787.41	1609.70
787.58	1660.90
787.76	1665.00
787.94	1703.91
788.11	1683.43
788.29	1716.20
788.46	1705.96
788.64	1693.67
788.81	1705.96
788.99	1626.09
789.16	1687.53
789.34	1761.25
789.52	1646.57
789.69	1771.49
789.87	1589.22
790.04	1742.82
790.22	1677.29
790.39	1837.03
790.57	1718.25
790.74	1685.48
790.92	1763.30
791.09	1624.04
791.27	1777.64
791.44	1736.68
791.62	1683.43
791.79	1763.30
791.97	1701.86
792.15	1871.84
792.32	1769.44
792.50	1751.01
792.67	1724.39
792.85	1773.54
793.02	1794.02
793.20	1710.05
793.37	1650.66
793.55	1789.92
793.72	1630.18
793.90	1755.11
794.07	1701.86
794.25	1691.62
794.42	1714.15
794.60	1720.29
794.77	1804.26
794.95	1712.10
795.12	1683.43
795.30	1697.77
795.47	1605.61
795.65	1890.28
795.82	1701.86
796.00	1667.05
796.17	1718.25
796.34	1726.44
796.52	1773.54
796.69	1787.88
796.87	1746.92
797.04	1769.44
797.22	1744.87
797.39	1751.01
797.57	1689.57
797.74	1697.77
797.92	1738.73
798.09	1638.38
798.27	1773.54
798.44	1753.06
798.62	1660.90
798.79	1689.57
798.96	1804.26
799.14	1691.62
799.31	1824.74
799.49	1693.67
799.66	1646.57
799.84	1673.19
800.01	1683.43
800.19	1720.29
800.36	1568.74
800.53	1718.25
800.71	1734.63
800.88	1773.54
801.06	1685.48
801.23	1638.38
801.41	1746.92
801.58	1683.43
801.75	1677.29
801.93	1794.02
802.10	1705.96
802.28	1689.57
802.45	1677.29
802.63	1724.39
802.80	1748.97
802.97	1679.33
803.15	1746.92
803.32	1724.39
803.50	1617.90
803.67	1667.05
803.84	1648.61
804.02	1695.72
804.19	1667.05
804.37	1585.13
804.54	1677.29
804.71	1699.81
804.89	1675.24
805.06	1697.77
805.24	1689.57
805.41	1675.24
805.58	1636.33
805.76	1791.97
805.93	1677.29
806.10	1748.97
806.28	1761.25
806.45	1714.15
806.63	1740.77
806.80	1724.39
806.97	1710.05
807.15	1787.88
807.32	1675.24
807.49	1712.10
807.67	1699.81
807.84	1748.97
808.01	1607.66
808.19	1867.75
808.36	1796.07
808.54	1705.96
808.71	1703.91
808.88	1724.39
809.06	1783.78
809.23	1697.77
809.40	1697.77
809.58	1843.17
809.75	1656.81
809.92	1667.05
810.10	1814.50
810.27	1732.58
810.44	1683.43
810.62	1779.68
810.79	1705.96
810.96	1685.48
811.14	1681.38
811.31	1734.63
811.48	1718.25
811.66	1708.01
811.83	1757.16
812.00	1753.06
812.18	1681.38
812.35	1826.79
812.52	1665.00
812.69	1683.43
812.87	1679.33
813.04	1630.18
813.21	1736.68
813.39	1724.39
813.56	1671.14
813.73	1708.01
813.91	1607.66
814.08	1683.43
814.25	1634.28
814.42	1660.90
814.60	1671.14
814.77	1708.01
814.94	1671.14
815.12	1736.68
815.29	1859.56
815.46	1615.85
815.63	1783.78
815.81	1681.38
815.98	1705.96
816.15	1648.61
816.33	1689.57
816.50	1722.34
816.67	1628.14
816.84	1701.86
817.02	1640.42
817.19	1726.44
817.36	1644.52
817.53	1724.39
817.71	1669.09
817.88	1724.39
818.05	1662.95
818.22	1683.43
818.40	1869.80
818.57	1673.19
818.74	1636.33
818.91	1646.57
819.09	1808.36
819.26	1740.77
819.43	1728.49
819.60	1638.38
819.78	1705.96
819.95	1820.64
820.12	1613.80
820.29	1892.32
820.47	1787.88
820.64	1689.57
820.81	1615.85
820.98	1617.90
821.15	1720.29
821.33	1740.77
821.50	1636.33
821.67	1738.73
821.84	1732.58
822.02	1791.97
822.19	1787.88
822.36	1689.57
822.53	1734.63
822.70	1730.53
822.88	1703.91
823.05	1763.30
823.22	1781.73
823.39	1677.29
823.56	1695.72
823.74	1714.15
823.91	1644.52
824.08	1675.24
824.25	1671.14
824.42	1787.88
824.60	1613.80
824.77	1732.58
824.94	1818.60
825.11	1755.11
825.28	1542.12
825.45	1646.57
825.63	1675.24
825.80	1669.09
825.97	1693.67
826.14	1759.21
826.31	1636.33
826.48	1742.82
826.66	1671.14
826.83	1671.14
827.00	1751.01
827.17	1699.81
827.34	1744.87
827.51	1589.22
827.69	1734.63
827.86	1669.09
828.03	1716.20
828.20	1691.62
828.37	1665.00
828.54	1744.87
828.71	1658.85
828.89	1789.92
829.06	1730.53
829.23	1761.25
829.40	1701.86
829.57	1685.48
829.74	1615.85
829.91	1656.81
830.09	1673.19
830.26	1708.01
830.43	1734.63
830.60	1703.91
830.77	1705.96
830.94	1781.73
831.11	1775.59
831.28	1662.95
831.46	1681.38
831.63	1699.81
831.80	1791.97
831.97	1679.33
832.14	1701.86
832.31	1763.30
832.48	1679.33
832.65	1691.62
832.82	1710.05
832.99	1769.44
833.17	1638.38
833.34	1779.68
833.51	1742.82
833.68	1634.28
833.85	1746.92
834.02	1718.25
834.19	1603.56
834.36	1634.28
834.53	1689.57
834.70	1783.78
834.87	1777.64
835.04	1669.09
835.22	1636.33
835.39	1673.19
835.56	1621.99
835.73	1722.34
835.90	1767.40
836.07	1640.42
836.24	1685.48
836.41	1679.33
836.58	1644.52
836.75	1759.21
836.92	1785.83
837.09	1736.68
837.26	1708.01
837.43	1751.01
837.60	1730.53
837.77	1687.53
837.94	1701.86
838.12	1761.25
838.29	1716.20
838.46	1654.76
838.63	1671.14
838.80	1769.44
838.97	1755.11
839.14	1708.01
839.31	1710.05
839.48	1742.82
839.65	1673.19
839.82	1769.44
839.99	1767.40
840.16	1679.33
840.33	1708.01
840.50	1722.34
840.67	1748.97
840.84	1587.18
841.01	1699.81
841.18	1746.92
841.35	1771.49
841.52	1697.77
841.69	1814.50
841.86	1710.05
842.03	1701.86
842.20	1773.54
842.37	1681.38
842.54	1697.77
842.71	1673.19
842.88	1628.14
843.05	1740.77
843.22	1730.53
843.39	1734.63
843.56	1748.97
843.73	1675.24
843.90	1693.67
844.07	1722.34
844.24	1732.58
844.41	1689.57
844.58	1751.01
844.75	1644.52
844.92	1722.34
845.09	1685.48
845.26	1656.81
845.43	1714.15
845.60	1753.06
845.77	1806.31
845.94	1751.01
846.10	1724.39
846.27	1634.28
846.44	1648.61
846.61	1654.76
846.78	1724.39
846.95	1755.11
847.12	1675.24
847.29	1701.86
847.46	1621.99
847.63	1701.86
847.80	1677.29
847.97	1730.53
848.14	1877.99
848.31	1665.00
848.48	1654.76
848.65	1646.57
848.82	1656.81
848.98	1728.49
849.15	1738.73
849.32	1787.88
849.49	1734.63
849.66	1708.01
849.83	1697.77
850.00	1656.81
850.17	1753.06
850.34	1681.38
850.51	1626.09
850.68	1697.77
850.85	1757.16
851.01	1751.01
851.18	1732.58
851.35	1628.14
851.52	1720.29
851.69	1765.35
851.86	1617.90
852.03	1808.36
852.20	1705.96
852.37	1675.24
852.53	1654.76
852.70	1673.19
852.87	1683.43
853.04	1718.25
853.21	1697.77
853.38	1744.87
853.55	1740.77
853.72	1732.58
853.89	1593.32
854.05	1626.09
854.22	1712.10
854.39	1613.80
854.56	1703.91
854.73	1769.44
854.90	1732.58
855.07	1726.44
855.23	1646.57
855.40	1671.14
855.57	1728.49
855.74	1583.08
855.91	1869.80
856.08	1650.66
856.25	1654.76
856.41	1718.25
856.58	1730.53
856.75	1681.38
856.92	1640.42
857.09	1734.63
857.26	1574.89
857.42	1603.56
857.59	1705.96
857.76	1689.57
857.93	1656.81
858.10	1677.29
858.27	1640.42
858.43	1726.44
858.60	1718.25
858.77	1656.81
858.94	1642.47
859.11	1771.49
859.27	1705.96
859.44	1722.34
859.61	1806.31
859.78	1701.86
859.95	1685.48
860.12	1673.19
860.28	1796.07
860.45	1724.39
860.62	1654.76
860.79	1773.54
860.95	1650.66
861.12	1746.92
861.29	1626.09
861.46	1691.62
861.63	1714.15
861.79	1662.95
861.96	1691.62
862.13	1652.71
862.30	1708.01
862.47	1652.71
862.63	1648.61
862.80	1740.77
862.97	1675.24
863.14	1740.77
863.30	1714.15
863.47	1654.76
863.64	1820.64
863.81	1693.67
863.97	1677.29
864.14	1730.53
864.31	1687.53
864.48	1748.97
864.65	1695.72
864.81	1722.34
864.98	1722.34
865.15	1714.15
865.32	1744.87
865.48	1763.30
865.65	1779.68
865.82	1820.64
865.98	1755.11
866.15	1757.16
866.32	1767.40
866.49	1673.19
866.65	1769.44
866.82	1681.38
866.99	1691.62
867.16	1710.05
867.32	1691.62
867.49	1632.23
867.66	1628.14
867.83	1722.34
867.99	1710.05
868.16	1671.14
868.33	1720.29
868.49	1728.49
868.66	1660.90
868.83	1769.44
868.99	1644.52
869.16	1738.73
869.33	1748.97
869.50	1732.58
869.66	1679.33
869.83	1718.25
870.00	1597.42
870.16	1755.11
870.33	1699.81
870.50	1789.92
870.66	1730.53
870.83	1841.12
871.00	1697.77
871.17	1695.72
871.33	1581.03
871.50	1624.04
871.67	1695.72
871.83	1593.32
872.00	1806.31
872.17	1617.90
872.33	1849.32
872.50	1822.69
872.67	1691.62
872.83	1716.20
873.00	1728.49
873.17	1796.07
873.33	1738.73
873.50	1681.38
873.67	1710.05
873.83	1624.04
874.00	1654.76
874.16	1736.68
874.33	1660.90
874.50	1617.90
874.66	1740.77
874.83	1705.96
875.00	1779.68
875.16	1798.12
875.33	1845.22
875.50	1642.47
875.66	1634.28
875.83	1642.47
875.99	1781.73
876.16	1683.43
876.33	1658.85
876.49	1705.96
876.66	1763.30
876.83	1708.01
876.99	1621.99
877.16	1658.85
877.32	1650.66
877.49	1681.38
877.66	1748.97
877.82	1695.72
877.99	1679.33
878.15	1763.30
878.32	1705.96
878.49	1728.49
878.65	1656.81
878.82	1746.92
878.98	1642.47
879.15	1775.59
879.32	1789.92
879.48	1714.15
879.65	1697.77
879.81	1615.85
879.98	1626.09
880.15	1673.19
880.31	1775.59
880.48	1636.33
880.64	1787.88
880.81	1804.26
880.97	1800.16
881.14	1757.16
881.31	1644.52
881.47	1779.68
881.64	1693.67
881.80	1646.57
881.97	1834.98
882.13	1736.68
882.30	1630.18
882.47	1669.09
882.63	1675.24
882.80	1673.19
882.96	1687.53
883.13	1824.74
883.29	1718.25
883.46	1783.78
883.62	1832.93
883.79	1753.06
883.95	1703.91
884.12	1624.04
884.29	1777.64
884.45	1781.73
884.62	1705.96
884.78	1687.53
884.95	1751.01
885.11	1640.42
885.28	1771.49
885.44	1681.38
885.61	1755.11
885.77	1765.35
885.94	1755.11
886.10	1742.82
886.27	1708.01
886.43	1794.02
886.60	1740.77
886.76	1658.85
886.93	1667.05
887.09	1789.92
887.26	1617.90
887.42	1691.62
887.59	1753.06
887.75	1826.79
887.92	1697.77
888.08	1681.38
888.25	1767.40
888.41	1767.40
888.58	1775.59
888.74	1679.33
888.91	1665.00
>>>>>End Processed Spectral Data<<<<<
