SpectraSuite Data File
++++++++++++++++++++++++++++++++++++
Date: Mon Jun 06 12:21:37 CEST 2016
User: root
Dark Spectrum Present: No
Reference Spectrum Present: No
Number of Sampled Component Spectra: 1
Spectrometers: USB4C02835
Integration Time (usec): 100000 (USB4C02835)
Spectra Averaged: 1 (USB4C02835)
Boxcar Smoothing: 0 (USB4C02835)
Correct for Electrical Dark: No (USB4C02835)
Strobe/Lamp Enabled: No (USB4C02835)
Correct for Detector Non-linearity: No (USB4C02835)
Correct for Stray Light: No (USB4C02835)
Number of Pixels in Processed Spectrum: 3648
>>>>>Begin Processed Spectral Data<<<<<
177.47	1439.72
177.69	1439.72
177.91	1439.72
178.13	1419.24
178.36	1478.63
178.58	1640.42
178.80	1714.15
179.02	1658.85
179.24	1656.81
179.46	1691.62
179.68	1726.44
179.90	1685.48
180.13	1697.77
180.35	1669.09
180.57	1658.85
180.79	1691.62
181.01	1673.19
181.23	1796.07
181.45	1742.82
181.67	1712.10
181.90	1738.73
182.12	1636.33
182.34	1658.85
182.56	1753.06
182.78	1658.85
183.00	1621.99
183.22	1769.44
183.44	1607.66
183.66	1812.45
183.89	1712.10
184.11	1677.29
184.33	1685.48
184.55	1789.92
184.77	1718.25
184.99	1730.53
185.21	1667.05
185.43	1769.44
185.65	1660.90
185.87	1781.73
186.10	1763.30
186.32	1787.88
186.54	1665.00
186.76	1794.02
186.98	1681.38
187.20	1665.00
187.42	1689.57
187.64	1718.25
187.86	1738.73
188.08	1746.92
188.30	1703.91
188.52	1607.66
188.75	1710.05
188.97	1755.11
189.19	1634.28
189.41	1640.42
189.63	1734.63
189.85	1728.49
190.07	1605.61
190.29	1591.27
190.51	1761.25
190.73	1685.48
190.95	1810.40
191.17	1705.96
191.39	1607.66
191.61	1603.56
191.84	1675.24
192.06	1689.57
192.28	1632.23
192.50	1906.66
192.72	1679.33
192.94	1673.19
193.16	1779.68
193.38	1695.72
193.60	1640.42
193.82	1705.96
194.04	1726.44
194.26	1769.44
194.48	1765.35
194.70	1675.24
194.92	1626.09
195.14	1683.43
195.36	1656.81
195.58	1701.86
195.80	1660.90
196.02	1738.73
196.24	1662.95
196.46	1691.62
196.69	1581.03
196.91	1804.26
197.13	1685.48
197.35	1669.09
197.57	1738.73
197.79	1718.25
198.01	1652.71
198.23	1701.86
198.45	1759.21
198.67	1564.65
198.89	1726.44
199.11	1722.34
199.33	1613.80
199.55	1552.36
199.77	1642.47
199.99	1722.34
200.21	1662.95
200.43	1746.92
200.65	1628.14
200.87	1587.18
201.09	1683.43
201.31	1599.46
201.53	1681.38
201.75	1662.95
201.97	1685.48
202.19	1687.53
202.41	1746.92
202.63	1798.12
202.85	1738.73
203.07	1685.48
203.29	1634.28
203.51	1638.38
203.73	1597.42
203.95	1789.92
204.17	1693.67
204.39	1726.44
204.61	1599.46
204.83	1714.15
205.05	1628.14
205.27	1710.05
205.49	1720.29
205.71	1783.78
205.93	1640.42
206.15	1656.81
206.37	1675.24
206.59	1759.21
206.81	1619.94
207.03	1632.23
207.25	1691.62
207.47	1697.77
207.69	1626.09
207.91	1763.30
208.13	1718.25
208.34	1685.48
208.56	1660.90
208.78	1701.86
209.00	1630.18
209.22	1673.19
209.44	1681.38
209.66	1669.09
209.88	1734.63
210.10	1624.04
210.32	1689.57
210.54	1681.38
210.76	1669.09
210.98	1730.53
211.20	1611.75
211.42	1701.86
211.64	1765.35
211.86	1683.43
212.08	1685.48
212.30	1804.26
212.52	1761.25
212.74	1732.58
212.96	1687.53
213.17	1722.34
213.39	1689.57
213.61	1806.31
213.83	1757.16
214.05	1595.37
214.27	1712.10
214.49	1550.31
214.71	1699.81
214.93	1834.98
215.15	1677.29
215.37	1779.68
215.59	1708.01
215.81	1724.39
216.03	1781.73
216.24	1673.19
216.46	1607.66
216.68	1734.63
216.90	1722.34
217.12	1718.25
217.34	1720.29
217.56	1644.52
217.78	1845.22
218.00	1744.87
218.22	1652.71
218.44	1761.25
218.66	1693.67
218.87	1855.46
219.09	1630.18
219.31	1685.48
219.53	1646.57
219.75	1652.71
219.97	1710.05
220.19	1724.39
220.41	1687.53
220.63	1800.16
220.85	1783.78
221.06	1660.90
221.28	1677.29
221.50	1726.44
221.72	1677.29
221.94	1775.59
222.16	1667.05
222.38	1708.01
222.60	1722.34
222.82	1667.05
223.03	1607.66
223.25	1654.76
223.47	1798.12
223.69	1781.73
223.91	1736.68
224.13	1669.09
224.35	1660.90
224.57	1685.48
224.78	1726.44
225.00	1658.85
225.22	1679.33
225.44	1671.14
225.66	1777.64
225.88	1748.97
226.10	1693.67
226.32	1701.86
226.53	1748.97
226.75	1642.47
226.97	1644.52
227.19	1642.47
227.41	1726.44
227.63	1691.62
227.85	1675.24
228.06	1656.81
228.28	1671.14
228.50	1728.49
228.72	1683.43
228.94	1673.19
229.16	1599.46
229.37	1636.33
229.59	1632.23
229.81	1779.68
230.03	1761.25
230.25	1617.90
230.47	1658.85
230.69	1636.33
230.90	1669.09
231.12	1667.05
231.34	1730.53
231.56	1708.01
231.78	1638.38
232.00	1621.99
232.21	1665.00
232.43	1634.28
232.65	1521.64
232.87	1693.67
233.09	1654.76
233.30	1650.66
233.52	1710.05
233.74	1705.96
233.96	1669.09
234.18	1656.81
234.40	1693.67
234.61	1779.68
234.83	1665.00
235.05	1601.51
235.27	1773.54
235.49	1839.08
235.70	1738.73
235.92	1779.68
236.14	1662.95
236.36	1738.73
236.58	1638.38
236.79	1767.40
237.01	1632.23
237.23	1642.47
237.45	1849.32
237.67	1611.75
237.88	1593.32
238.10	1701.86
238.32	1603.56
238.54	1619.94
238.76	1734.63
238.97	1742.82
239.19	1718.25
239.41	1734.63
239.63	1691.62
239.85	1722.34
240.06	1703.91
240.28	1697.77
240.50	1767.40
240.72	1712.10
240.93	1724.39
241.15	1757.16
241.37	1646.57
241.59	1687.53
241.81	1701.86
242.02	1675.24
242.24	1689.57
242.46	1716.20
242.68	1644.52
242.89	1669.09
243.11	1751.01
243.33	1691.62
243.55	1658.85
243.76	1734.63
243.98	1626.09
244.20	1615.85
244.42	1728.49
244.64	1730.53
244.85	1638.38
245.07	1640.42
245.29	1724.39
245.51	1701.86
245.72	1699.81
245.94	1785.83
246.16	1660.90
246.38	1710.05
246.59	1662.95
246.81	1636.33
247.03	1675.24
247.24	1607.66
247.46	1628.14
247.68	1673.19
247.90	1648.61
248.11	1703.91
248.33	1767.40
248.55	1626.09
248.77	1689.57
248.98	1697.77
249.20	1808.36
249.42	1675.24
249.64	1730.53
249.85	1691.62
250.07	1685.48
250.29	1712.10
250.50	1773.54
250.72	1628.14
250.94	1689.57
251.16	1746.92
251.37	1697.77
251.59	1732.58
251.81	1679.33
252.02	1769.44
252.24	1626.09
252.46	1755.11
252.68	1685.48
252.89	1638.38
253.11	1642.47
253.33	1759.21
253.54	1742.82
253.76	1632.23
253.98	1671.14
254.20	1724.39
254.41	1626.09
254.63	1656.81
254.85	1646.57
255.06	1732.58
255.28	1646.57
255.50	1697.77
255.71	1712.10
255.93	1599.46
256.15	1699.81
256.36	1728.49
256.58	1708.01
256.80	1679.33
257.02	1687.53
257.23	1699.81
257.45	1708.01
257.67	1693.67
257.88	1701.86
258.10	1722.34
258.32	1734.63
258.53	1703.91
258.75	1718.25
258.97	1632.23
259.18	1689.57
259.40	1695.72
259.62	1851.36
259.83	1771.49
260.05	1738.73
260.27	1970.15
260.48	1695.72
260.70	1710.05
260.92	1691.62
261.13	1728.49
261.35	1726.44
261.57	1660.90
261.78	1730.53
262.00	1708.01
262.22	1654.76
262.43	1658.85
262.65	1705.96
262.86	1699.81
263.08	1767.40
263.30	1648.61
263.51	1669.09
263.73	1626.09
263.95	1761.25
264.16	1644.52
264.38	1710.05
264.60	1640.42
264.81	1736.68
265.03	1701.86
265.25	1718.25
265.46	1701.86
265.68	1691.62
265.89	1789.92
266.11	1476.59
266.33	1742.82
266.54	1751.01
266.76	1685.48
266.98	1730.53
267.19	1726.44
267.41	1794.02
267.62	1640.42
267.84	1611.75
268.06	1693.67
268.27	1796.07
268.49	1839.08
268.70	1753.06
268.92	1689.57
269.14	1605.61
269.35	1609.70
269.57	1712.10
269.79	1724.39
270.00	1728.49
270.22	1742.82
270.43	1636.33
270.65	1595.37
270.87	1728.49
271.08	1718.25
271.30	1705.96
271.51	1679.33
271.73	1751.01
271.95	1673.19
272.16	1656.81
272.38	1769.44
272.59	1609.70
272.81	1646.57
273.02	1675.24
273.24	1708.01
273.46	1777.64
273.67	1603.56
273.89	1679.33
274.10	1705.96
274.32	1796.07
274.54	1712.10
274.75	1724.39
274.97	1601.51
275.18	1726.44
275.40	1736.68
275.61	1703.91
275.83	1634.28
276.05	1683.43
276.26	1714.15
276.48	1789.92
276.69	1673.19
276.91	1681.38
277.12	1732.58
277.34	1755.11
277.55	1755.11
277.77	1658.85
277.99	1667.05
278.20	1605.61
278.42	1644.52
278.63	1624.04
278.85	1583.08
279.06	1693.67
279.28	1724.39
279.49	1761.25
279.71	1699.81
279.93	1662.95
280.14	1724.39
280.36	1630.18
280.57	1738.73
280.79	1724.39
281.00	1662.95
281.22	1748.97
281.43	1820.64
281.65	1615.85
281.86	1669.09
282.08	1714.15
282.29	1757.16
282.51	1605.61
282.73	1603.56
282.94	1603.56
283.16	1746.92
283.37	1822.69
283.59	1724.39
283.80	1722.34
284.02	1634.28
284.23	1671.14
284.45	1685.48
284.66	1605.61
284.88	1638.38
285.09	1734.63
285.31	1732.58
285.52	1687.53
285.74	1632.23
285.95	1755.11
286.17	1689.57
286.38	1734.63
286.60	1607.66
286.81	1675.24
287.03	1720.29
287.24	1712.10
287.46	1740.77
287.67	1732.58
287.89	1839.08
288.10	1738.73
288.32	1681.38
288.53	1769.44
288.75	1685.48
288.96	1734.63
289.18	1673.19
289.39	1671.14
289.61	1679.33
289.82	1767.40
290.04	1828.84
290.25	1642.47
290.47	1703.91
290.68	1677.29
290.90	1710.05
291.11	1595.37
291.33	1791.97
291.54	1652.71
291.76	1605.61
291.97	1679.33
292.18	1808.36
292.40	1621.99
292.61	1652.71
292.83	1888.23
293.04	1753.06
293.26	1712.10
293.47	1716.20
293.69	1703.91
293.90	1695.72
294.12	1708.01
294.33	1695.72
294.55	1609.70
294.76	1699.81
294.97	1779.68
295.19	1814.50
295.40	1671.14
295.62	1738.73
295.83	1693.67
296.05	1632.23
296.26	1687.53
296.48	1609.70
296.69	1671.14
296.90	1681.38
297.12	1740.77
297.33	1726.44
297.55	1665.00
297.76	1820.64
297.98	1771.49
298.19	1693.67
298.41	1736.68
298.62	1607.66
298.83	1767.40
299.05	1693.67
299.26	1697.77
299.48	1601.51
299.69	1718.25
299.90	1683.43
300.12	1656.81
300.33	1734.63
300.55	1697.77
300.76	1703.91
300.98	1634.28
301.19	1783.78
301.40	1630.18
301.62	1718.25
301.83	1656.81
302.05	1697.77
302.26	1658.85
302.47	1673.19
302.69	1656.81
302.90	1673.19
303.12	1619.94
303.33	1685.48
303.54	1740.77
303.76	1687.53
303.97	1697.77
304.19	1742.82
304.40	1732.58
304.61	1697.77
304.83	1843.17
305.04	1736.68
305.26	1716.20
305.47	1687.53
305.68	1755.11
305.90	1609.70
306.11	1736.68
306.33	1714.15
306.54	1626.09
306.75	1599.46
306.97	1585.13
307.18	1615.85
307.39	1712.10
307.61	1724.39
307.82	1617.90
308.04	1746.92
308.25	1652.71
308.46	1656.81
308.68	1656.81
308.89	1712.10
309.10	1746.92
309.32	1787.88
309.53	1632.23
309.74	1728.49
309.96	1730.53
310.17	1781.73
310.39	1652.71
310.60	1691.62
310.81	1679.33
311.03	1673.19
311.24	1705.96
311.45	1730.53
311.67	1794.02
311.88	1667.05
312.09	1767.40
312.31	1632.23
312.52	1701.86
312.73	1767.40
312.95	1572.84
313.16	1607.66
313.37	1759.21
313.59	1720.29
313.80	1693.67
314.01	1740.77
314.23	1679.33
314.44	1714.15
314.65	1691.62
314.87	1607.66
315.08	1689.57
315.29	1656.81
315.51	1646.57
315.72	1624.04
315.93	1753.06
316.15	1755.11
316.36	1617.90
316.57	1736.68
316.79	1771.49
317.00	1714.15
317.21	1697.77
317.43	1624.04
317.64	1665.00
317.85	1603.56
318.07	1730.53
318.28	1697.77
318.49	1775.59
318.70	1808.36
318.92	1781.73
319.13	1818.60
319.34	1925.09
319.56	1769.44
319.77	1808.36
319.98	1744.87
320.20	1771.49
320.41	1802.21
320.62	1722.34
320.83	1656.81
321.05	1869.80
321.26	1798.12
321.47	1652.71
321.69	1789.92
321.90	1712.10
322.11	1644.52
322.32	1648.61
322.54	1755.11
322.75	1691.62
322.96	1828.84
323.18	1671.14
323.39	1576.94
323.60	1689.57
323.81	1689.57
324.03	1714.15
324.24	1734.63
324.45	1728.49
324.66	1597.42
324.88	1691.62
325.09	1791.97
325.30	1691.62
325.52	1703.91
325.73	1705.96
325.94	1609.70
326.15	1646.57
326.37	1642.47
326.58	1761.25
326.79	1724.39
327.00	1730.53
327.22	1726.44
327.43	1720.29
327.64	1624.04
327.85	1683.43
328.07	1691.62
328.28	1826.79
328.49	1619.94
328.70	1724.39
328.92	1779.68
329.13	1667.05
329.34	1685.48
329.55	1816.55
329.76	1710.05
329.98	1640.42
330.19	1771.49
330.40	1759.21
330.61	1720.29
330.83	1677.29
331.04	1693.67
331.25	1759.21
331.46	1595.37
331.68	1644.52
331.89	1736.68
332.10	1751.01
332.31	1654.76
332.52	1734.63
332.74	1656.81
332.95	1587.18
333.16	1701.86
333.37	1748.97
333.58	1638.38
333.80	1693.67
334.01	1630.18
334.22	1630.18
334.43	1726.44
334.64	1755.11
334.86	1576.94
335.07	1624.04
335.28	1724.39
335.49	1644.52
335.70	1728.49
335.92	1779.68
336.13	1871.84
336.34	1744.87
336.55	1679.33
336.76	1662.95
336.98	1578.98
337.19	1638.38
337.40	1755.11
337.61	1824.74
337.82	1675.24
338.04	1669.09
338.25	1556.46
338.46	1650.66
338.67	1662.95
338.88	1628.14
339.09	1603.56
339.31	1613.80
339.52	1624.04
339.73	1648.61
339.94	1636.33
340.15	1783.78
340.36	1660.90
340.58	1679.33
340.79	1638.38
341.00	1767.40
341.21	1703.91
341.42	1767.40
341.63	1660.90
341.85	1769.44
342.06	1685.48
342.27	1646.57
342.48	1779.68
342.69	1597.42
342.90	1681.38
343.12	1695.72
343.33	1693.67
343.54	1708.01
343.75	1732.58
343.96	1712.10
344.17	1597.42
344.38	1757.16
344.60	1683.43
344.81	1658.85
345.02	1720.29
345.23	1734.63
345.44	1785.83
345.65	1783.78
345.86	1730.53
346.07	1765.35
346.29	1568.74
346.50	1718.25
346.71	1716.20
346.92	1734.63
347.13	1834.98
347.34	1699.81
347.55	1701.86
347.76	1710.05
347.98	1640.42
348.19	1728.49
348.40	1714.15
348.61	1607.66
348.82	1841.12
349.03	1689.57
349.24	1597.42
349.45	1765.35
349.66	1552.36
349.88	1820.64
350.09	1636.33
350.30	1796.07
350.51	1769.44
350.72	1763.30
350.93	1648.61
351.14	1742.82
351.35	1789.92
351.56	1644.52
351.77	1685.48
351.99	1740.77
352.20	1779.68
352.41	1789.92
352.62	1546.22
352.83	1621.99
353.04	1689.57
353.25	1652.71
353.46	1722.34
353.67	1757.16
353.88	1591.27
354.09	1630.18
354.30	1667.05
354.52	1746.92
354.73	1677.29
354.94	1650.66
355.15	1662.95
355.36	1781.73
355.57	1720.29
355.78	1777.64
355.99	1644.52
356.20	1665.00
356.41	1763.30
356.62	1654.76
356.83	1714.15
357.04	1736.68
357.25	1673.19
357.46	1742.82
357.68	1640.42
357.89	1697.77
358.10	1687.53
358.31	1703.91
358.52	1689.57
358.73	1617.90
358.94	1652.71
359.15	1679.33
359.36	1671.14
359.57	1654.76
359.78	1714.15
359.99	1736.68
360.20	1665.00
360.41	1687.53
360.62	1738.73
360.83	1689.57
361.04	1712.10
361.25	1736.68
361.46	1710.05
361.67	1650.66
361.88	1689.57
362.09	1767.40
362.30	1697.77
362.51	1656.81
362.72	1644.52
362.93	1742.82
363.14	1708.01
363.35	1665.00
363.56	1695.72
363.78	1722.34
363.99	1759.21
364.20	1644.52
364.41	1732.58
364.62	1820.64
364.83	1646.57
365.04	1662.95
365.25	1740.77
365.46	1728.49
365.67	1667.05
365.88	1662.95
366.09	1693.67
366.30	1693.67
366.51	1722.34
366.72	1611.75
366.93	1697.77
367.14	1662.95
367.35	1703.91
367.56	1716.20
367.77	1800.16
367.98	1660.90
368.18	1728.49
368.39	1716.20
368.60	1640.42
368.81	1722.34
369.02	1683.43
369.23	1642.47
369.44	1593.32
369.65	1683.43
369.86	1804.26
370.07	1748.97
370.28	1656.81
370.49	1710.05
370.70	1787.88
370.91	1671.14
371.12	1644.52
371.33	1746.92
371.54	1634.28
371.75	1802.21
371.96	1558.50
372.17	1712.10
372.38	1738.73
372.59	1726.44
372.80	1665.00
373.01	1644.52
373.22	1638.38
373.43	1732.58
373.64	1630.18
373.85	1746.92
374.06	1794.02
374.26	1671.14
374.47	1740.77
374.68	1761.25
374.89	1794.02
375.10	1644.52
375.31	1697.77
375.52	1701.86
375.73	1722.34
375.94	1681.38
376.15	1816.55
376.36	1675.24
376.57	1615.85
376.78	1701.86
376.99	1722.34
377.20	1757.16
377.40	1662.95
377.61	1769.44
377.82	1701.86
378.03	1708.01
378.24	1738.73
378.45	1718.25
378.66	1726.44
378.87	1509.35
379.08	1677.29
379.29	1665.00
379.50	1769.44
379.71	1675.24
379.91	1771.49
380.12	1636.33
380.33	1730.53
380.54	1775.59
380.75	1691.62
380.96	1839.08
381.17	1656.81
381.38	1675.24
381.59	1761.25
381.80	1732.58
382.00	1783.78
382.21	1691.62
382.42	1771.49
382.63	1837.03
382.84	1734.63
383.05	1791.97
383.26	1761.25
383.47	1703.91
383.68	1796.07
383.88	1724.39
384.09	1738.73
384.30	1748.97
384.51	1783.78
384.72	1779.68
384.93	1630.18
385.14	1607.66
385.35	1726.44
385.55	1632.23
385.76	1746.92
385.97	1640.42
386.18	1607.66
386.39	1708.01
386.60	1640.42
386.81	1671.14
387.02	1648.61
387.22	1662.95
387.43	1740.77
387.64	1734.63
387.85	1814.50
388.06	2230.24
388.27	4280.25
388.48	6717.34
388.68	8411.01
388.89	9631.60
389.10	9799.53
389.31	8583.04
389.52	7612.30
389.73	6711.19
389.93	6219.68
390.14	5953.45
390.35	5287.86
390.56	4638.65
390.77	3829.70
390.98	2998.23
391.18	2494.43
391.39	2131.94
391.60	1845.22
391.81	1898.47
392.02	1656.81
392.23	1777.64
392.43	1759.21
392.64	1681.38
392.85	1691.62
393.06	1810.40
393.27	1683.43
393.47	1722.34
393.68	1617.90
393.89	1693.67
394.10	1845.22
394.31	1714.15
394.52	1681.38
394.72	1624.04
394.93	1808.36
395.14	1630.18
395.35	1718.25
395.56	1654.76
395.76	1656.81
395.97	1746.92
396.18	1834.98
396.39	1859.56
396.60	2013.15
396.80	1834.98
397.01	1906.66
397.22	1740.77
397.43	1822.69
397.64	1705.96
397.84	1796.07
398.05	1861.60
398.26	1755.11
398.47	1759.21
398.67	1843.17
398.88	1718.25
399.09	1710.05
399.30	1675.24
399.51	1708.01
399.71	1679.33
399.92	1662.95
400.13	1701.86
400.34	1665.00
400.54	1718.25
400.75	1800.16
400.96	1722.34
401.17	1785.83
401.37	1742.82
401.58	1695.72
401.79	1748.97
402.00	1785.83
402.21	2029.54
402.41	1947.62
402.62	2000.87
402.83	1998.82
403.04	1982.43
403.24	2111.46
403.45	1761.25
403.66	1865.70
403.87	1865.70
404.07	1896.42
404.28	1945.57
404.49	1857.51
404.70	1802.21
404.90	1714.15
405.11	1748.97
405.32	1665.00
405.52	1677.29
405.73	1640.42
405.94	1640.42
406.15	1751.01
406.35	1808.36
406.56	1796.07
406.77	1763.30
406.98	1740.77
407.18	1611.75
407.39	1785.83
407.60	1697.77
407.80	1796.07
408.01	1746.92
408.22	1722.34
408.43	1640.42
408.63	1769.44
408.84	1738.73
409.05	1775.59
409.25	1613.80
409.46	1638.38
409.67	1675.24
409.88	1642.47
410.08	1791.97
410.29	1628.14
410.50	1779.68
410.70	1763.30
410.91	1675.24
411.12	1728.49
411.32	1740.77
411.53	1679.33
411.74	1775.59
411.95	1775.59
412.15	1773.54
412.36	1738.73
412.57	1796.07
412.77	1806.31
412.98	1710.05
413.19	1681.38
413.39	1769.44
413.60	1759.21
413.81	1720.29
414.01	1671.14
414.22	1789.92
414.43	1775.59
414.63	1730.53
414.84	1798.12
415.05	1720.29
415.25	1665.00
415.46	1677.29
415.67	1722.34
415.87	1654.76
416.08	1650.66
416.29	1687.53
416.49	1677.29
416.70	1605.61
416.91	1726.44
417.11	1593.32
417.32	1814.50
417.53	1814.50
417.73	1693.67
417.94	1675.24
418.15	1697.77
418.35	1791.97
418.56	1675.24
418.77	1767.40
418.97	1705.96
419.18	1632.23
419.38	1583.08
419.59	1669.09
419.80	1863.65
420.00	1652.71
420.21	1697.77
420.42	1660.90
420.62	1695.72
420.83	1634.28
421.04	1701.86
421.24	1671.14
421.45	1746.92
421.65	1652.71
421.86	1699.81
422.07	1642.47
422.27	1667.05
422.48	1710.05
422.69	1599.46
422.89	1722.34
423.10	1724.39
423.30	1630.18
423.51	1667.05
423.72	1628.14
423.92	1697.77
424.13	1646.57
424.33	1689.57
424.54	1697.77
424.75	1744.87
424.95	1765.35
425.16	1701.86
425.36	1656.81
425.57	1748.97
425.78	1720.29
425.98	1763.30
426.19	1662.95
426.39	1624.04
426.60	1740.77
426.81	1783.78
427.01	1701.86
427.22	1603.56
427.42	1578.98
427.63	1685.48
427.83	1806.31
428.04	1800.16
428.25	1742.82
428.45	1771.49
428.66	1771.49
428.86	1630.18
429.07	1662.95
429.28	1718.25
429.48	1736.68
429.69	1697.77
429.89	1718.25
430.10	1591.27
430.30	1763.30
430.51	1748.97
430.71	1630.18
430.92	1742.82
431.13	1642.47
431.33	1748.97
431.54	1617.90
431.74	1781.73
431.95	1855.46
432.15	1667.05
432.36	1699.81
432.56	1808.36
432.77	1837.03
432.98	1830.88
433.18	1724.39
433.39	1738.73
433.59	1736.68
433.80	1869.80
434.00	1851.36
434.21	1748.97
434.41	1617.90
434.62	1867.75
434.82	1636.33
435.03	1642.47
435.23	1679.33
435.44	1552.36
435.64	1667.05
435.85	1748.97
436.06	1767.40
436.26	1834.98
436.47	1683.43
436.67	1699.81
436.88	1699.81
437.08	1742.82
437.29	1773.54
437.49	1779.68
437.70	1810.40
437.90	1736.68
438.11	1892.32
438.31	1798.12
438.52	1806.31
438.72	1837.03
438.93	1890.28
439.13	1779.68
439.34	1777.64
439.54	1783.78
439.75	1738.73
439.95	1802.21
440.16	1716.20
440.36	1734.63
440.57	1796.07
440.77	1746.92
440.98	1755.11
441.18	1738.73
441.39	1636.33
441.59	1691.62
441.80	1777.64
442.00	1716.20
442.21	1824.74
442.41	1656.81
442.62	1767.40
442.82	1673.19
443.02	1677.29
443.23	1759.21
443.43	1654.76
443.64	1787.88
443.84	1673.19
444.05	1744.87
444.25	1693.67
444.46	1701.86
444.66	1675.24
444.87	1812.45
445.07	1677.29
445.28	1730.53
445.48	1847.27
445.69	1708.01
445.89	1920.99
446.09	1742.82
446.30	2025.44
446.50	2697.17
446.71	3790.79
446.91	4417.47
447.12	4755.38
447.32	4804.53
447.53	4399.04
447.73	3911.62
447.93	3473.36
448.14	3352.52
448.34	3184.59
448.55	2899.92
448.75	2719.70
448.96	2627.54
449.16	2461.66
449.36	2226.14
449.57	2050.02
449.77	1900.52
449.98	1759.21
450.18	1834.98
450.39	1834.98
450.59	1796.07
450.79	1748.97
451.00	1667.05
451.20	1820.64
451.41	1740.77
451.61	1767.40
451.81	1740.77
452.02	1703.91
452.22	1691.62
452.43	1705.96
452.63	1720.29
452.84	1730.53
453.04	1724.39
453.24	1697.77
453.45	1685.48
453.65	1730.53
453.86	1834.98
454.06	1705.96
454.26	1800.16
454.47	1624.04
454.67	1773.54
454.87	1785.83
455.08	1687.53
455.28	1828.84
455.49	1738.73
455.69	1687.53
455.89	1865.70
456.10	1806.31
456.30	1746.92
456.51	1734.63
456.71	1732.58
456.91	1701.86
457.12	1701.86
457.32	1740.77
457.52	1675.24
457.73	1734.63
457.93	1740.77
458.14	1681.38
458.34	1675.24
458.54	1712.10
458.75	1714.15
458.95	1748.97
459.15	1730.53
459.36	1810.40
459.56	1773.54
459.76	1828.84
459.97	1708.01
460.17	1796.07
460.37	1781.73
460.58	1744.87
460.78	1773.54
460.99	1650.66
461.19	1693.67
461.39	1744.87
461.60	1681.38
461.80	1732.58
462.00	1658.85
462.21	1753.06
462.41	1607.66
462.61	1613.80
462.82	1576.94
463.02	1763.30
463.22	1734.63
463.43	1820.64
463.63	1656.81
463.83	1787.88
464.04	1785.83
464.24	1734.63
464.44	1654.76
464.64	1775.59
464.85	1769.44
465.05	1789.92
465.25	1671.14
465.46	1689.57
465.66	1740.77
465.86	1769.44
466.07	1771.49
466.27	1695.72
466.47	1634.28
466.68	1583.08
466.88	1773.54
467.08	1759.21
467.29	1724.39
467.49	1812.45
467.69	1787.88
467.89	1757.16
468.10	1699.81
468.30	1728.49
468.50	1822.69
468.71	1730.53
468.91	1617.90
469.11	1757.16
469.31	1681.38
469.52	1679.33
469.72	1804.26
469.92	1859.56
470.13	1681.38
470.33	1767.40
470.53	1820.64
470.73	2109.41
470.94	2299.87
471.14	2385.88
471.34	2545.63
471.54	2377.69
471.75	2211.81
471.95	2148.32
472.15	2154.46
472.36	2113.50
472.56	1992.67
472.76	2045.92
472.96	1959.91
473.17	1916.90
473.37	1927.14
473.57	1730.53
473.77	1816.55
473.98	1785.83
474.18	1691.62
474.38	1894.37
474.58	1619.94
474.79	1679.33
474.99	1765.35
475.19	1787.88
475.39	1634.28
475.60	1724.39
475.80	1753.06
476.00	1730.53
476.20	1728.49
476.41	1808.36
476.61	1834.98
476.81	1806.31
477.01	1699.81
477.21	1794.02
477.42	1767.40
477.62	1628.14
477.82	1798.12
478.02	1689.57
478.23	1677.29
478.43	1617.90
478.63	1681.38
478.83	1738.73
479.03	1671.14
479.24	1789.92
479.44	1812.45
479.64	1626.09
479.84	1591.27
480.04	1624.04
480.25	1777.64
480.45	1689.57
480.65	1650.66
480.85	1839.08
481.06	1677.29
481.26	1742.82
481.46	1812.45
481.66	1748.97
481.86	1697.77
482.06	1763.30
482.27	1662.95
482.47	1628.14
482.67	1687.53
482.87	1687.53
483.07	1787.88
483.28	1683.43
483.48	1638.38
483.68	1751.01
483.88	1648.61
484.08	1617.90
484.29	1638.38
484.49	1748.97
484.69	1617.90
484.89	1751.01
485.09	1769.44
485.29	1783.78
485.50	1728.49
485.70	1642.47
485.90	1746.92
486.10	1705.96
486.30	1787.88
486.50	1738.73
486.71	1740.77
486.91	1757.16
487.11	1763.30
487.31	1652.71
487.51	1742.82
487.71	1650.66
487.91	1650.66
488.12	1628.14
488.32	1566.70
488.52	1714.15
488.72	1683.43
488.92	1734.63
489.12	1763.30
489.32	1742.82
489.53	1775.59
489.73	1687.53
489.93	1834.98
490.13	1697.77
490.33	1562.60
490.53	1734.63
490.73	1808.36
490.94	1636.33
491.14	1787.88
491.34	1826.79
491.54	2070.50
491.74	2615.26
491.94	2955.22
492.14	2936.79
492.34	2963.41
492.54	2676.70
492.75	2529.24
492.95	2478.04
493.15	2293.72
493.35	2215.90
493.55	2205.66
493.75	2138.08
493.95	2117.60
494.15	1939.43
494.35	1894.37
494.56	1873.89
494.76	1781.73
494.96	1775.59
495.16	1708.01
495.36	1744.87
495.56	1732.58
495.76	1679.33
495.96	1703.91
496.16	1628.14
496.36	1744.87
496.56	1673.19
496.77	1685.48
496.97	1644.52
497.17	1738.73
497.37	1644.52
497.57	1742.82
497.77	1744.87
497.97	1656.81
498.17	1744.87
498.37	1576.94
498.57	1730.53
498.77	1693.67
498.97	1755.11
499.17	1837.03
499.38	1716.20
499.58	1781.73
499.78	1839.08
499.98	1734.63
500.18	1654.76
500.38	1650.66
500.58	1988.58
500.78	2537.43
500.98	4569.02
501.18	5900.20
501.38	6561.69
501.58	7026.58
501.78	6604.70
501.98	5562.28
502.18	5126.07
502.38	4386.75
502.58	4147.14
502.78	3868.61
502.98	3663.82
503.18	3510.22
503.38	3194.83
503.59	2740.18
503.79	2643.93
503.99	2514.91
504.19	2297.82
504.39	2195.42
504.59	2158.56
504.79	2101.22
504.99	2068.45
505.19	1787.88
505.39	1818.60
505.59	1910.75
505.79	1861.60
505.99	1853.41
506.19	1796.07
506.39	1863.65
506.59	1712.10
506.79	1648.61
506.99	1880.04
507.19	1808.36
507.39	1736.68
507.59	1699.81
507.79	1697.77
507.99	1718.25
508.19	1720.29
508.39	1716.20
508.59	1759.21
508.79	1798.12
508.99	1755.11
509.19	1705.96
509.39	1714.15
509.59	1699.81
509.79	1699.81
509.99	1712.10
510.19	1789.92
510.39	1701.86
510.59	1722.34
510.79	1644.52
510.99	1624.04
511.19	1699.81
511.39	1802.21
511.59	1812.45
511.79	1763.30
511.99	1716.20
512.19	1722.34
512.38	1820.64
512.58	1630.18
512.78	1693.67
512.98	1755.11
513.18	1810.40
513.38	1624.04
513.58	1820.64
513.78	1701.86
513.98	1742.82
514.18	1720.29
514.38	1693.67
514.58	1716.20
514.78	1759.21
514.98	1626.09
515.18	1746.92
515.38	1617.90
515.58	1851.36
515.78	1708.01
515.98	1687.53
516.18	1798.12
516.38	1695.72
516.57	1697.77
516.77	1683.43
516.97	1781.73
517.17	1755.11
517.37	1638.38
517.57	1765.35
517.77	1613.80
517.97	1677.29
518.17	1714.15
518.37	1677.29
518.57	1667.05
518.77	1658.85
518.97	1757.16
519.16	1779.68
519.36	1726.44
519.56	1669.09
519.76	1646.57
519.96	1744.87
520.16	1755.11
520.36	1757.16
520.56	1669.09
520.76	1734.63
520.96	1667.05
521.16	1839.08
521.35	1710.05
521.55	1796.07
521.75	1724.39
521.95	1642.47
522.15	1703.91
522.35	1636.33
522.55	1683.43
522.75	1757.16
522.95	1685.48
523.14	1726.44
523.34	1757.16
523.54	1722.34
523.74	1730.53
523.94	1681.38
524.14	1591.27
524.34	1816.55
524.54	1683.43
524.73	1697.77
524.93	1685.48
525.13	1740.77
525.33	1675.24
525.53	1873.89
525.73	1746.92
525.93	1654.76
526.13	1675.24
526.32	1710.05
526.52	1757.16
526.72	1816.55
526.92	1781.73
527.12	1675.24
527.32	1673.19
527.52	1773.54
527.71	1808.36
527.91	1771.49
528.11	1634.28
528.31	1757.16
528.51	1667.05
528.71	1759.21
528.90	1693.67
529.10	1781.73
529.30	1857.51
529.50	1611.75
529.70	1703.91
529.90	1742.82
530.09	1722.34
530.29	1683.43
530.49	1689.57
530.69	1775.59
530.89	1687.53
531.09	1728.49
531.28	1701.86
531.48	1726.44
531.68	1732.58
531.88	1787.88
532.08	1761.25
532.28	1724.39
532.47	1779.68
532.67	1755.11
532.87	1693.67
533.07	1716.20
533.27	1769.44
533.46	1757.16
533.66	1714.15
533.86	1675.24
534.06	1703.91
534.26	1626.09
534.45	1718.25
534.65	1765.35
534.85	1705.96
535.05	1673.19
535.25	1808.36
535.44	1665.00
535.64	1759.21
535.84	1714.15
536.04	1636.33
536.24	1705.96
536.43	1816.55
536.63	1830.88
536.83	1628.14
537.03	1691.62
537.22	1708.01
537.42	1574.89
537.62	1761.25
537.82	1728.49
538.02	1781.73
538.21	1818.60
538.41	1839.08
538.61	1665.00
538.81	1652.71
539.00	1867.75
539.20	1630.18
539.40	1773.54
539.60	1837.03
539.79	1728.49
539.99	1628.14
540.19	1718.25
540.39	1693.67
540.58	1701.86
540.78	1767.40
540.98	1746.92
541.18	1845.22
541.37	1771.49
541.57	1724.39
541.77	1773.54
541.97	1607.66
542.16	1648.61
542.36	1738.73
542.56	1736.68
542.76	1863.65
542.95	1726.44
543.15	1755.11
543.35	1755.11
543.54	1714.15
543.74	1697.77
543.94	1740.77
544.14	1785.83
544.33	1794.02
544.53	1742.82
544.73	1689.57
544.93	1669.09
545.12	1748.97
545.32	1716.20
545.52	1742.82
545.71	1652.71
545.91	1722.34
546.11	1665.00
546.30	1650.66
546.50	1671.14
546.70	1775.59
546.90	1677.29
547.09	1689.57
547.29	1673.19
547.49	1763.30
547.68	1759.21
547.88	1677.29
548.08	1779.68
548.27	2209.76
548.47	1722.34
548.67	1675.24
548.87	1722.34
549.06	1675.24
549.26	1783.78
549.46	1697.77
549.65	1726.44
549.85	1748.97
550.05	1763.30
550.24	1759.21
550.44	1720.29
550.64	1763.30
550.83	1730.53
551.03	1873.89
551.23	1789.92
551.42	1800.16
551.62	1708.01
551.82	1755.11
552.01	1650.66
552.21	1771.49
552.41	1650.66
552.60	1830.88
552.80	1751.01
553.00	1708.01
553.19	1740.77
553.39	1890.28
553.59	1638.38
553.78	1794.02
553.98	1798.12
554.17	1720.29
554.37	1730.53
554.57	1728.49
554.76	1742.82
554.96	1560.55
555.16	1708.01
555.35	1791.97
555.55	1755.11
555.75	1779.68
555.94	1751.01
556.14	1626.09
556.33	1726.44
556.53	1763.30
556.73	1732.58
556.92	1728.49
557.12	1812.45
557.32	1734.63
557.51	1898.47
557.71	1820.64
557.90	1841.12
558.10	1832.93
558.30	1683.43
558.49	1726.44
558.69	1662.95
558.88	1820.64
559.08	1712.10
559.28	1767.40
559.47	1681.38
559.67	1814.50
559.86	1904.61
560.06	1726.44
560.26	1748.97
560.45	1822.69
560.65	1714.15
560.84	1830.88
561.04	1619.94
561.24	1794.02
561.43	1656.81
561.63	1767.40
561.82	1785.83
562.02	1832.93
562.22	1710.05
562.41	1695.72
562.61	1716.20
562.80	1681.38
563.00	1857.51
563.19	1816.55
563.39	1816.55
563.59	1738.73
563.78	1681.38
563.98	1730.53
564.17	1708.01
564.37	1640.42
564.56	1658.85
564.76	1654.76
564.96	1771.49
565.15	1767.40
565.35	1839.08
565.54	1699.81
565.74	1656.81
565.93	1769.44
566.13	1710.05
566.32	1732.58
566.52	1732.58
566.71	1716.20
566.91	1777.64
567.11	1787.88
567.30	1697.77
567.50	1744.87
567.69	1781.73
567.89	1691.62
568.08	1734.63
568.28	1732.58
568.47	1691.62
568.67	1734.63
568.86	1728.49
569.06	1771.49
569.25	1677.29
569.45	1675.24
569.64	1705.96
569.84	1689.57
570.04	1728.49
570.23	1748.97
570.43	1753.06
570.62	1732.58
570.82	1834.98
571.01	1746.92
571.21	1673.19
571.40	1687.53
571.60	1740.77
571.79	1763.30
571.99	1787.88
572.18	1738.73
572.38	1763.30
572.57	1787.88
572.77	1724.39
572.96	1849.32
573.16	1761.25
573.35	1748.97
573.55	1951.71
573.74	1716.20
573.94	1753.06
574.13	1785.83
574.33	1708.01
574.52	1820.64
574.71	1759.21
574.91	1728.49
575.10	1746.92
575.30	1789.92
575.49	1679.33
575.69	1708.01
575.88	1748.97
576.08	1722.34
576.27	1771.49
576.47	1691.62
576.66	1806.31
576.86	1777.64
577.05	1708.01
577.25	1765.35
577.44	1800.16
577.64	1640.42
577.83	1779.68
578.02	1726.44
578.22	1742.82
578.41	1904.61
578.61	1730.53
578.80	1634.28
579.00	1759.21
579.19	1798.12
579.39	1722.34
579.58	1873.89
579.77	1771.49
579.97	1740.77
580.16	1834.98
580.36	1828.84
580.55	1814.50
580.75	1851.36
580.94	1785.83
581.13	1953.76
581.33	1882.08
581.52	1699.81
581.72	1804.26
581.91	1867.75
582.11	1740.77
582.30	1812.45
582.49	1798.12
582.69	1769.44
582.88	1812.45
583.08	1767.40
583.27	1785.83
583.47	1728.49
583.66	1738.73
583.85	1697.77
584.05	1703.91
584.24	1806.31
584.44	1804.26
584.63	1800.16
584.82	1789.92
585.02	1908.71
585.21	1843.17
585.41	1775.59
585.60	1791.97
585.79	1927.14
585.99	1943.52
586.18	1875.94
586.37	2156.51
586.57	3358.67
586.76	9744.24
586.96	25009.79
587.15	34838.00
587.34	41176.46
587.54	42483.06
587.73	37094.86
587.93	26553.96
588.12	21735.09
588.31	18556.64
588.51	16242.44
588.70	15197.98
588.89	14362.40
589.09	12703.55
589.28	11073.37
589.47	9668.46
589.67	7952.26
589.86	6461.34
590.06	5109.68
590.25	3932.10
590.44	3139.54
590.64	2629.59
590.83	2217.95
591.02	2179.04
591.22	1994.72
591.41	1902.56
591.60	1871.84
591.80	1920.99
591.99	1820.64
592.18	1732.58
592.38	1787.88
592.57	1837.03
592.76	1720.29
592.96	1798.12
593.15	1751.01
593.34	1826.79
593.54	1730.53
593.73	1751.01
593.92	1703.91
594.12	1755.11
594.31	1812.45
594.50	1804.26
594.70	1800.16
594.89	1916.90
595.08	1683.43
595.28	1826.79
595.47	1920.99
595.66	1814.50
595.86	1708.01
596.05	1662.95
596.24	1677.29
596.43	1828.84
596.63	1755.11
596.82	1732.58
597.01	1812.45
597.21	1796.07
597.40	1763.30
597.59	1751.01
597.79	1783.78
597.98	1775.59
598.17	1771.49
598.36	1689.57
598.56	1734.63
598.75	1714.15
598.94	1726.44
599.14	1703.91
599.33	1656.81
599.52	1714.15
599.71	1681.38
599.91	1810.40
600.10	1757.16
600.29	1767.40
600.48	1695.72
600.68	1802.21
600.87	1722.34
601.06	1613.80
601.26	1681.38
601.45	1691.62
601.64	1679.33
601.83	1824.74
602.03	1757.16
602.22	1658.85
602.41	1744.87
602.60	1845.22
602.80	1761.25
602.99	1732.58
603.18	1714.15
603.37	1665.00
603.57	1724.39
603.76	1734.63
603.95	1708.01
604.14	1718.25
604.34	1621.99
604.53	1685.48
604.72	1746.92
604.91	1753.06
605.10	1755.11
605.30	1687.53
605.49	1802.21
605.68	1757.16
605.87	1775.59
606.07	1679.33
606.26	1695.72
606.45	1781.73
606.64	1718.25
606.84	1751.01
607.03	1710.05
607.22	1822.69
607.41	1652.71
607.60	1771.49
607.80	1734.63
607.99	1656.81
608.18	1767.40
608.37	1720.29
608.56	1689.57
608.76	1794.02
608.95	1877.99
609.14	1724.39
609.33	1744.87
609.52	1779.68
609.72	1730.53
609.91	1685.48
610.10	1730.53
610.29	1751.01
610.48	1763.30
610.68	1740.77
610.87	1662.95
611.06	1757.16
611.25	1701.86
611.44	1796.07
611.63	1671.14
611.83	1828.84
612.02	1718.25
612.21	1796.07
612.40	1638.38
612.59	1685.48
612.79	1615.85
612.98	1724.39
613.17	1834.98
613.36	1714.15
613.55	1738.73
613.74	1652.71
613.93	1708.01
614.13	1728.49
614.32	1765.35
614.51	1783.78
614.70	1681.38
614.89	1673.19
615.08	1814.50
615.28	2072.54
615.47	1646.57
615.66	1677.29
615.85	1705.96
616.04	1773.54
616.23	1640.42
616.42	1699.81
616.62	1794.02
616.81	1787.88
617.00	1761.25
617.19	1748.97
617.38	1689.57
617.57	1636.33
617.76	1755.11
617.95	1705.96
618.15	1781.73
618.34	1822.69
618.53	1671.14
618.72	1712.10
618.91	1769.44
619.10	1789.92
619.29	1783.78
619.48	1724.39
619.68	1681.38
619.87	1669.09
620.06	1634.28
620.25	1757.16
620.44	1660.90
620.63	1665.00
620.82	1730.53
621.01	1712.10
621.20	1710.05
621.39	1791.97
621.59	1652.71
621.78	1710.05
621.97	1724.39
622.16	1710.05
622.35	1669.09
622.54	1712.10
622.73	1751.01
622.92	1605.61
623.11	1677.29
623.30	1660.90
623.49	1740.77
623.68	1693.67
623.88	1771.49
624.07	1687.53
624.26	1730.53
624.45	1734.63
624.64	1775.59
624.83	1740.77
625.02	1730.53
625.21	1671.14
625.40	1658.85
625.59	1740.77
625.78	1726.44
625.97	1785.83
626.16	1701.86
626.35	1693.67
626.54	1691.62
626.74	1800.16
626.93	1660.90
627.12	1738.73
627.31	1738.73
627.50	1746.92
627.69	1796.07
627.88	1708.01
628.07	1642.47
628.26	1675.24
628.45	1683.43
628.64	1679.33
628.83	1763.30
629.02	1556.46
629.21	1810.40
629.40	1736.68
629.59	1636.33
629.78	1724.39
629.97	1718.25
630.16	1740.77
630.35	1701.86
630.54	1724.39
630.73	1587.18
630.92	1773.54
631.11	1722.34
631.30	1650.66
631.49	1734.63
631.68	1722.34
631.87	1812.45
632.06	1603.56
632.25	1841.12
632.44	1751.01
632.63	1757.16
632.82	1673.19
633.01	1658.85
633.20	1769.44
633.39	1632.23
633.58	1550.31
633.77	1681.38
633.96	1693.67
634.15	1724.39
634.34	1648.61
634.53	1658.85
634.72	1599.46
634.91	1583.08
635.10	1697.77
635.29	1769.44
635.48	1748.97
635.67	1642.47
635.86	1617.90
636.05	1775.59
636.24	1710.05
636.43	1730.53
636.62	1734.63
636.81	1574.89
637.00	1714.15
637.19	1722.34
637.38	1732.58
637.57	1693.67
637.76	1662.95
637.95	1621.99
638.14	1763.30
638.33	1626.09
638.52	1667.05
638.71	1675.24
638.89	1732.58
639.08	1806.31
639.27	1716.20
639.46	1675.24
639.65	1734.63
639.84	1675.24
640.03	1755.11
640.22	1753.06
640.41	1886.18
640.60	1615.85
640.79	1660.90
640.98	1638.38
641.17	1746.92
641.36	1648.61
641.55	1701.86
641.74	1628.14
641.92	1570.79
642.11	1638.38
642.30	1662.95
642.49	1722.34
642.68	1705.96
642.87	1732.58
643.06	1740.77
643.25	1681.38
643.44	1607.66
643.63	1662.95
643.82	1621.99
644.00	1677.29
644.19	1748.97
644.38	1628.14
644.57	1632.23
644.76	1740.77
644.95	1675.24
645.14	1722.34
645.33	1691.62
645.52	1689.57
645.71	1691.62
645.89	1730.53
646.08	1708.01
646.27	1671.14
646.46	1832.93
646.65	1697.77
646.84	1757.16
647.03	1681.38
647.22	1894.37
647.40	1734.63
647.59	1746.92
647.78	1648.61
647.97	1726.44
648.16	1685.48
648.35	1771.49
648.54	1761.25
648.73	1695.72
648.91	1765.35
649.10	1746.92
649.29	1687.53
649.48	1722.34
649.67	1714.15
649.86	1748.97
650.05	1695.72
650.23	1693.67
650.42	1624.04
650.61	1761.25
650.80	1712.10
650.99	1912.80
651.18	1738.73
651.36	1722.34
651.55	1642.47
651.74	1791.97
651.93	1681.38
652.12	1701.86
652.31	1675.24
652.49	1740.77
652.68	1673.19
652.87	1824.74
653.06	1644.52
653.25	1734.63
653.44	1681.38
653.62	1794.02
653.81	1722.34
654.00	1722.34
654.19	1769.44
654.38	1806.31
654.56	1787.88
654.75	1671.14
654.94	1736.68
655.13	1773.54
655.32	1714.15
655.51	1761.25
655.69	1673.19
655.88	1710.05
656.07	1619.94
656.26	1697.77
656.45	1660.90
656.63	1642.47
656.82	1708.01
657.01	1722.34
657.20	1667.05
657.38	1763.30
657.57	1724.39
657.76	1662.95
657.95	1791.97
658.14	1712.10
658.32	1746.92
658.51	1652.71
658.70	1710.05
658.89	1722.34
659.08	1734.63
659.26	1824.74
659.45	1640.42
659.64	1701.86
659.83	1621.99
660.01	1896.42
660.20	1642.47
660.39	1796.07
660.58	1538.02
660.76	1734.63
660.95	1634.28
661.14	1740.77
661.33	1595.37
661.51	1626.09
661.70	1630.18
661.89	1660.90
662.08	1681.38
662.26	1648.61
662.45	1759.21
662.64	1855.46
662.83	1644.52
663.01	1665.00
663.20	1642.47
663.39	1730.53
663.58	1687.53
663.76	1742.82
663.95	1732.58
664.14	1599.46
664.32	1744.87
664.51	1611.75
664.70	1607.66
664.89	1712.10
665.07	1642.47
665.26	1748.97
665.45	1626.09
665.64	1832.93
665.82	1771.49
666.01	1789.92
666.20	1665.00
666.38	1859.56
666.57	1832.93
666.76	2199.52
666.95	4519.87
667.13	10354.53
667.32	15511.32
667.51	17970.93
667.69	19056.35
667.88	17897.20
668.07	12408.64
668.25	9678.70
668.44	8204.16
668.63	7462.80
668.81	6848.41
669.00	6242.21
669.19	5801.90
669.38	5003.19
669.56	4597.69
669.75	4005.83
669.94	3409.87
670.12	3000.27
670.31	2541.53
670.50	2306.01
670.68	1953.76
670.87	1947.62
671.06	1814.50
671.24	1814.50
671.43	1828.84
671.62	1660.90
671.80	1744.87
671.99	1728.49
672.18	1701.86
672.36	1785.83
672.55	1726.44
672.74	1638.38
672.92	1648.61
673.11	1734.63
673.29	1624.04
673.48	1759.21
673.67	1734.63
673.85	1804.26
674.04	1638.38
674.23	1724.39
674.41	1689.57
674.60	1624.04
674.79	1597.42
674.97	1646.57
675.16	1791.97
675.34	1693.67
675.53	1646.57
675.72	1787.88
675.90	1783.78
676.09	1718.25
676.28	1687.53
676.46	1593.32
676.65	1763.30
676.83	1701.86
677.02	1705.96
677.21	1697.77
677.39	1753.06
677.58	1652.71
677.77	1681.38
677.95	1648.61
678.14	1705.96
678.32	1683.43
678.51	1634.28
678.70	1855.46
678.88	1695.72
679.07	1722.34
679.25	1710.05
679.44	1728.49
679.63	1665.00
679.81	1691.62
680.00	1701.86
680.18	1710.05
680.37	1808.36
680.55	1701.86
680.74	1632.23
680.93	1527.78
681.11	1660.90
681.30	1789.92
681.48	1714.15
681.67	1662.95
681.85	1742.82
682.04	1685.48
682.23	1767.40
682.41	1691.62
682.60	1634.28
682.78	1693.67
682.97	1662.95
683.15	1695.72
683.34	1681.38
683.53	1748.97
683.71	1677.29
683.90	1812.45
684.08	1800.16
684.27	1669.09
684.45	1714.15
684.64	1800.16
684.82	1660.90
685.01	1675.24
685.19	1763.30
685.38	1748.97
685.57	1710.05
685.75	1621.99
685.94	1718.25
686.12	1693.67
686.31	1669.09
686.49	1814.50
686.68	1636.33
686.86	1755.11
687.05	1677.29
687.23	1794.02
687.42	1691.62
687.60	1521.64
687.79	1771.49
687.97	1714.15
688.16	1744.87
688.34	1759.21
688.53	1671.14
688.71	1798.12
688.90	1767.40
689.08	1722.34
689.27	1599.46
689.45	1728.49
689.64	1681.38
689.82	1763.30
690.01	1671.14
690.19	1712.10
690.38	1687.53
690.56	1783.78
690.75	1636.33
690.93	1640.42
691.12	1638.38
691.30	1751.01
691.49	1722.34
691.67	1632.23
691.86	1820.64
692.04	1605.61
692.23	1681.38
692.41	1732.58
692.60	1794.02
692.78	1796.07
692.97	1665.00
693.15	1699.81
693.34	1863.65
693.52	1705.96
693.71	1705.96
693.89	1656.81
694.08	1562.60
694.26	1712.10
694.44	1771.49
694.63	1746.92
694.81	1646.57
695.00	1665.00
695.18	1744.87
695.37	1839.08
695.55	1742.82
695.74	1691.62
695.92	1615.85
696.10	1814.50
696.29	1619.94
696.47	1685.48
696.66	1710.05
696.84	1644.52
697.03	1736.68
697.21	1845.22
697.40	2299.87
697.58	1763.30
697.76	1667.05
697.95	1679.33
698.13	1665.00
698.32	1705.96
698.50	1714.15
698.68	1644.52
698.87	1714.15
699.05	1769.44
699.24	1675.24
699.42	1650.66
699.61	1681.38
699.79	1691.62
699.97	1724.39
700.16	1648.61
700.34	1615.85
700.53	1712.10
700.71	1806.31
700.89	1853.41
701.08	1705.96
701.26	1658.85
701.45	2103.26
701.63	1585.13
701.81	1617.90
702.00	1630.18
702.18	1611.75
702.37	1658.85
702.55	1738.73
702.73	1689.57
702.92	1685.48
703.10	1673.19
703.28	1773.54
703.47	1638.38
703.65	1763.30
703.84	1808.36
704.02	1742.82
704.20	1802.21
704.39	1660.90
704.57	1701.86
704.75	1785.83
704.94	1773.54
705.12	1720.29
705.30	1759.21
705.49	2199.52
705.67	4558.78
705.86	9607.02
706.04	12894.01
706.22	14706.46
706.41	15630.10
706.59	14210.86
706.77	9815.91
706.96	7491.47
707.14	6703.00
707.32	6031.27
707.51	5558.19
707.69	4904.89
707.87	4208.58
708.06	3600.33
708.24	2949.08
708.42	2428.89
708.61	2293.72
708.79	1886.18
708.97	1828.84
709.16	1820.64
709.34	1716.20
709.52	1654.76
709.71	1693.67
709.89	1730.53
710.07	1656.81
710.26	1708.01
710.44	1730.53
710.62	1822.69
710.80	1740.77
710.99	1765.35
711.17	1812.45
711.35	1628.14
711.54	1677.29
711.72	1769.44
711.90	1730.53
712.09	1734.63
712.27	1650.66
712.45	1738.73
712.63	1644.52
712.82	1677.29
713.00	1609.70
713.18	1695.72
713.37	1759.21
713.55	1779.68
713.73	1695.72
713.91	1705.96
714.10	1642.47
714.28	1662.95
714.46	1726.44
714.65	1615.85
714.83	1730.53
715.01	1677.29
715.19	1710.05
715.38	1718.25
715.56	1712.10
715.74	1720.29
715.92	1640.42
716.11	1734.63
716.29	1609.70
716.47	1669.09
716.65	1654.76
716.84	1665.00
717.02	1722.34
717.20	1695.72
717.38	1650.66
717.57	1708.01
717.75	1714.15
717.93	1630.18
718.11	1765.35
718.30	1662.95
718.48	1703.91
718.66	1748.97
718.84	1724.39
719.03	1720.29
719.21	1546.22
719.39	1763.30
719.57	1660.90
719.75	1720.29
719.94	1611.75
720.12	1730.53
720.30	1718.25
720.48	1632.23
720.67	1591.27
720.85	1558.50
721.03	1669.09
721.21	1648.61
721.39	1726.44
721.58	1742.82
721.76	1724.39
721.94	1734.63
722.12	1771.49
722.30	1755.11
722.49	1712.10
722.67	1703.91
722.85	1667.05
723.03	1626.09
723.21	1636.33
723.40	1769.44
723.58	1685.48
723.76	1662.95
723.94	1703.91
724.12	1662.95
724.30	1734.63
724.49	1705.96
724.67	1646.57
724.85	1785.83
725.03	1669.09
725.21	1742.82
725.40	1722.34
725.58	1648.61
725.76	1738.73
725.94	1705.96
726.12	1705.96
726.30	1708.01
726.49	1716.20
726.67	1677.29
726.85	1769.44
727.03	1796.07
727.21	2127.84
727.39	2912.21
727.57	3770.31
727.76	4286.40
727.94	4526.01
728.12	4478.91
728.30	3755.97
728.48	3047.38
728.66	2797.53
728.84	2467.80
729.03	2301.92
729.21	2150.37
729.39	2074.59
729.57	1822.69
729.75	1791.97
729.93	1863.65
730.11	1695.72
730.30	1648.61
730.48	1716.20
730.66	1755.11
730.84	1787.88
731.02	1693.67
731.20	1617.90
731.38	1683.43
731.56	1669.09
731.74	1640.42
731.93	1593.32
732.11	1724.39
732.29	1640.42
732.47	1734.63
732.65	1650.66
732.83	1691.62
733.01	1699.81
733.19	1595.37
733.37	1832.93
733.56	1697.77
733.74	1669.09
733.92	1789.92
734.10	1630.18
734.28	1646.57
734.46	1652.71
734.64	1652.71
734.82	1527.78
735.00	1701.86
735.18	1630.18
735.36	1746.92
735.54	1685.48
735.73	1687.53
735.91	1794.02
736.09	1744.87
736.27	1730.53
736.45	1648.61
736.63	1595.37
736.81	1652.71
736.99	1757.16
737.17	1726.44
737.35	1626.09
737.53	1669.09
737.71	1638.38
737.89	1759.21
738.07	1656.81
738.25	1591.27
738.43	1691.62
738.61	1705.96
738.80	1726.44
738.98	1675.24
739.16	1642.47
739.34	1691.62
739.52	1843.17
739.70	1705.96
739.88	1658.85
740.06	1787.88
740.24	1525.74
740.42	1787.88
740.60	1685.48
740.78	1619.94
740.96	1599.46
741.14	1671.14
741.32	1671.14
741.50	1589.22
741.68	1773.54
741.86	1765.35
742.04	1603.56
742.22	1675.24
742.40	1722.34
742.58	1785.83
742.76	1591.27
742.94	1730.53
743.12	1609.70
743.30	1654.76
743.48	1662.95
743.66	1671.14
743.84	1716.20
744.02	1611.75
744.20	1654.76
744.38	1656.81
744.56	1665.00
744.74	1763.30
744.92	1753.06
745.10	1781.73
745.28	1701.86
745.46	1701.86
745.64	1699.81
745.82	1652.71
746.00	1736.68
746.18	1738.73
746.36	1607.66
746.54	1685.48
746.72	1673.19
746.90	1648.61
747.08	1763.30
747.26	1609.70
747.44	1746.92
747.62	1812.45
747.80	1708.01
747.98	1734.63
748.15	1683.43
748.33	1808.36
748.51	1665.00
748.69	1710.05
748.87	1662.95
749.05	1607.66
749.23	1656.81
749.41	1734.63
749.59	1667.05
749.77	1765.35
749.95	1605.61
750.13	1683.43
750.31	1726.44
750.49	1693.67
750.67	1720.29
750.85	1814.50
751.03	1757.16
751.20	1861.60
751.38	1683.43
751.56	1595.37
751.74	1689.57
751.92	1669.09
752.10	1658.85
752.28	1740.77
752.46	1705.96
752.64	1691.62
752.82	1683.43
753.00	1808.36
753.18	1642.47
753.35	1591.27
753.53	1652.71
753.71	1578.98
753.89	1773.54
754.07	1701.86
754.25	1722.34
754.43	1671.14
754.61	1613.80
754.79	1658.85
754.97	1669.09
755.14	1679.33
755.32	1675.24
755.50	1671.14
755.68	1744.87
755.86	1601.51
756.04	1671.14
756.22	1636.33
756.40	1669.09
756.57	1767.40
756.75	1656.81
756.93	1724.39
757.11	1708.01
757.29	1660.90
757.47	1640.42
757.65	1566.70
757.82	1593.32
758.00	1720.29
758.18	1667.05
758.36	1642.47
758.54	1871.84
758.72	1593.32
758.90	1724.39
759.07	1712.10
759.25	1632.23
759.43	1720.29
759.61	1587.18
759.79	2170.85
759.97	1785.83
760.15	1695.72
760.32	1660.90
760.50	1689.57
760.68	1738.73
760.86	1619.94
761.04	1761.25
761.22	1757.16
761.39	1712.10
761.57	1783.78
761.75	1695.72
761.93	1705.96
762.11	1714.15
762.28	1673.19
762.46	1632.23
762.64	1720.29
762.82	1671.14
763.00	1644.52
763.18	1781.73
763.35	1638.38
763.53	1757.16
763.71	1748.97
763.89	1671.14
764.07	1703.91
764.24	1673.19
764.42	1734.63
764.60	1720.29
764.78	1724.39
764.96	1669.09
765.13	1730.53
765.31	1703.91
765.49	1812.45
765.67	1632.23
765.84	1628.14
766.02	1644.52
766.20	1603.56
766.38	1781.73
766.56	1761.25
766.73	1759.21
766.91	1748.97
767.09	1736.68
767.27	1759.21
767.44	1607.66
767.62	1621.99
767.80	1658.85
767.98	1691.62
768.15	1677.29
768.33	1763.30
768.51	1738.73
768.69	1683.43
768.87	1718.25
769.04	1753.06
769.22	1857.51
769.40	1828.84
769.58	1814.50
769.75	1779.68
769.93	1796.07
770.11	1691.62
770.28	1634.28
770.46	1812.45
770.64	1697.77
770.82	1675.24
770.99	1712.10
771.17	1673.19
771.35	1712.10
771.53	1720.29
771.70	1716.20
771.88	1701.86
772.06	1699.81
772.23	1648.61
772.41	1748.97
772.59	1691.62
772.77	1665.00
772.94	1640.42
773.12	1757.16
773.30	1642.47
773.47	1689.57
773.65	1665.00
773.83	1765.35
774.01	1669.09
774.18	1591.27
774.36	1673.19
774.54	1593.32
774.71	1748.97
774.89	1597.42
775.07	1693.67
775.24	1671.14
775.42	1671.14
775.60	1771.49
775.78	1642.47
775.95	1638.38
776.13	1615.85
776.31	1538.02
776.48	1724.39
776.66	1695.72
776.84	1652.71
777.01	1576.94
777.19	1615.85
777.37	1689.57
777.54	1656.81
777.72	1820.64
777.90	1712.10
778.07	1613.80
778.25	1796.07
778.43	1689.57
778.60	1665.00
778.78	1734.63
778.96	1748.97
779.13	1595.37
779.31	1705.96
779.49	1710.05
779.66	1693.67
779.84	1671.14
780.01	1601.51
780.19	1626.09
780.37	1771.49
780.54	1681.38
780.72	1644.52
780.90	1705.96
781.07	1665.00
781.25	1609.70
781.43	1726.44
781.60	1699.81
781.78	1726.44
781.95	1665.00
782.13	1656.81
782.31	1693.67
782.48	1632.23
782.66	1619.94
782.83	1712.10
783.01	1724.39
783.19	1738.73
783.36	1683.43
783.54	1621.99
783.72	1691.62
783.89	1679.33
784.07	1685.48
784.24	1687.53
784.42	1746.92
784.60	1652.71
784.77	1695.72
784.95	1540.07
785.12	1677.29
785.30	1746.92
785.47	1693.67
785.65	1615.85
785.83	1636.33
786.00	1617.90
786.18	1716.20
786.35	1613.80
786.53	1691.62
786.71	1789.92
786.88	1738.73
787.06	1628.14
787.23	1685.48
787.41	1654.76
787.58	1705.96
787.76	1593.32
787.94	1755.11
788.11	1714.15
788.29	1648.61
788.46	1673.19
788.64	1624.04
788.81	1648.61
788.99	1630.18
789.16	1722.34
789.34	1693.67
789.52	1673.19
789.69	1665.00
789.87	1613.80
790.04	1642.47
790.22	1677.29
790.39	1710.05
790.57	1585.13
790.74	1699.81
790.92	1691.62
791.09	1712.10
791.27	1689.57
791.44	1767.40
791.62	1673.19
791.79	1771.49
791.97	1634.28
792.15	1839.08
792.32	1687.53
792.50	1720.29
792.67	1720.29
792.85	1785.83
793.02	1630.18
793.20	1695.72
793.37	1671.14
793.55	1648.61
793.72	1603.56
793.90	1736.68
794.07	1699.81
794.25	1689.57
794.42	1744.87
794.60	1667.05
794.77	1679.33
794.95	1708.01
795.12	1685.48
795.30	1736.68
795.47	1570.79
795.65	1820.64
795.82	1697.77
796.00	1646.57
796.17	1654.76
796.34	1642.47
796.52	1669.09
796.69	1783.78
796.87	1669.09
797.04	1738.73
797.22	1818.60
797.39	1683.43
797.57	1734.63
797.74	1746.92
797.92	1765.35
798.09	1662.95
798.27	1759.21
798.44	1722.34
798.62	1601.51
798.79	1701.86
798.96	1726.44
799.14	1705.96
799.31	1861.60
799.49	1683.43
799.66	1669.09
799.84	1708.01
800.01	1638.38
800.19	1708.01
800.36	1574.89
800.53	1738.73
800.71	1710.05
800.88	1820.64
801.06	1607.66
801.23	1667.05
801.41	1617.90
801.58	1681.38
801.75	1640.42
801.93	1689.57
802.10	1763.30
802.28	1673.19
802.45	1560.55
802.63	1806.31
802.80	1732.58
802.97	1681.38
803.15	1708.01
803.32	1654.76
803.50	1626.09
803.67	1714.15
803.84	1634.28
804.02	1773.54
804.19	1660.90
804.37	1591.27
804.54	1685.48
804.71	1728.49
804.89	1648.61
805.06	1697.77
805.24	1677.29
805.41	1730.53
805.58	1660.90
805.76	1773.54
805.93	1759.21
806.10	1691.62
806.28	1677.29
806.45	1699.81
806.63	1759.21
806.80	1667.05
806.97	1681.38
807.15	1656.81
807.32	1648.61
807.49	1708.01
807.67	1617.90
807.84	1677.29
808.01	1671.14
808.19	1761.25
808.36	1763.30
808.54	1701.86
808.71	1642.47
808.88	1685.48
809.06	1683.43
809.23	1804.26
809.40	1689.57
809.58	1699.81
809.75	1722.34
809.92	1642.47
810.10	1888.23
810.27	1718.25
810.44	1751.01
810.62	1751.01
810.79	1785.83
810.96	1746.92
811.14	1689.57
811.31	1705.96
811.48	1769.44
811.66	1613.80
811.83	1769.44
812.00	1654.76
812.18	1699.81
812.35	1843.17
812.52	1658.85
812.69	1687.53
812.87	1687.53
813.04	1673.19
813.21	1638.38
813.39	1679.33
813.56	1609.70
813.73	1775.59
813.91	1732.58
814.08	1632.23
814.25	1718.25
814.42	1681.38
814.60	1677.29
814.77	1705.96
814.94	1710.05
815.12	1679.33
815.29	1779.68
815.46	1619.94
815.63	1665.00
815.81	1689.57
815.98	1710.05
816.15	1685.48
816.33	1757.16
816.50	1648.61
816.67	1589.22
816.84	1777.64
817.02	1628.14
817.19	1691.62
817.36	1644.52
817.53	1746.92
817.71	1601.51
817.88	1724.39
818.05	1673.19
818.22	1705.96
818.40	1736.68
818.57	1675.24
818.74	1695.72
818.91	1689.57
819.09	1738.73
819.26	1744.87
819.43	1695.72
819.60	1640.42
819.78	1789.92
819.95	1759.21
820.12	1626.09
820.29	1732.58
820.47	1720.29
820.64	1611.75
820.81	1718.25
820.98	1621.99
821.15	1652.71
821.33	1746.92
821.50	1599.46
821.67	1761.25
821.84	1568.74
822.02	1699.81
822.19	1736.68
822.36	1638.38
822.53	1595.37
822.70	1654.76
822.88	1689.57
823.05	1751.01
823.22	1638.38
823.39	1640.42
823.56	1695.72
823.74	1712.10
823.91	1660.90
824.08	1662.95
824.25	1667.05
824.42	1785.83
824.60	1677.29
824.77	1751.01
824.94	1660.90
825.11	1693.67
825.28	1554.41
825.45	1695.72
825.63	1642.47
825.80	1611.75
825.97	1757.16
826.14	1695.72
826.31	1734.63
826.48	1789.92
826.66	1552.36
826.83	1644.52
827.00	1640.42
827.17	1755.11
827.34	1665.00
827.51	1675.24
827.69	1665.00
827.86	1560.55
828.03	1708.01
828.20	1695.72
828.37	1648.61
828.54	1714.15
828.71	1671.14
828.89	1916.90
829.06	1683.43
829.23	1855.46
829.40	1656.81
829.57	1585.13
829.74	1769.44
829.91	1685.48
830.09	1630.18
830.26	1677.29
830.43	1738.73
830.60	1626.09
830.77	1691.62
830.94	1742.82
831.11	1697.77
831.28	1671.14
831.46	1714.15
831.63	1552.36
831.80	1650.66
831.97	1662.95
832.14	1685.48
832.31	1777.64
832.48	1757.16
832.65	1720.29
832.82	1742.82
832.99	1708.01
833.17	1640.42
833.34	1689.57
833.51	1705.96
833.68	1574.89
833.85	1767.40
834.02	1585.13
834.19	1650.66
834.36	1632.23
834.53	1720.29
834.70	1732.58
834.87	1742.82
835.04	1658.85
835.22	1607.66
835.39	1634.28
835.56	1583.08
835.73	1630.18
835.90	1720.29
836.07	1617.90
836.24	1738.73
836.41	1687.53
836.58	1689.57
836.75	1710.05
836.92	1783.78
837.09	1710.05
837.26	1665.00
837.43	1685.48
837.60	1671.14
837.77	1695.72
837.94	1718.25
838.12	1796.07
838.29	1658.85
838.46	1644.52
838.63	1675.24
838.80	1849.32
838.97	1728.49
839.14	1742.82
839.31	1660.90
839.48	1703.91
839.65	1673.19
839.82	1679.33
839.99	1650.66
840.16	1624.04
840.33	1671.14
840.50	1673.19
840.67	1601.51
840.84	1619.94
841.01	1695.72
841.18	1630.18
841.35	1794.02
841.52	1740.77
841.69	1767.40
841.86	1632.23
842.03	1740.77
842.20	1765.35
842.37	1716.20
842.54	1671.14
842.71	1712.10
842.88	1644.52
843.05	1714.15
843.22	1669.09
843.39	1660.90
843.56	1683.43
843.73	1662.95
843.90	1728.49
844.07	1734.63
844.24	1708.01
844.41	1710.05
844.58	1683.43
844.75	1757.16
844.92	1632.23
845.09	1665.00
845.26	1685.48
845.43	1720.29
845.60	1667.05
845.77	1701.86
845.94	1640.42
846.10	1673.19
846.27	1632.23
846.44	1658.85
846.61	1603.56
846.78	1689.57
846.95	1658.85
847.12	1718.25
847.29	1755.11
847.46	1626.09
847.63	1724.39
847.80	1628.14
847.97	1705.96
848.14	1818.60
848.31	1638.38
848.48	1632.23
848.65	1720.29
848.82	1665.00
848.98	1820.64
849.15	1710.05
849.32	1763.30
849.49	1742.82
849.66	1732.58
849.83	1748.97
850.00	1624.04
850.17	1712.10
850.34	1675.24
850.51	1624.04
850.68	1665.00
850.85	1804.26
851.01	1755.11
851.18	1753.06
851.35	1746.92
851.52	1665.00
851.69	1781.73
851.86	1638.38
852.03	1665.00
852.20	1755.11
852.37	1701.86
852.53	1574.89
852.70	1736.68
852.87	1660.90
853.04	1843.17
853.21	1720.29
853.38	1708.01
853.55	1816.55
853.72	1730.53
853.89	1607.66
854.05	1572.84
854.22	1656.81
854.39	1630.18
854.56	1716.20
854.73	1703.91
854.90	1656.81
855.07	1615.85
855.23	1683.43
855.40	1714.15
855.57	1644.52
855.74	1593.32
855.91	1867.75
856.08	1632.23
856.25	1595.37
856.41	1667.05
856.58	1701.86
856.75	1691.62
856.92	1673.19
857.09	1742.82
857.26	1636.33
857.42	1642.47
857.59	1701.86
857.76	1621.99
857.93	1740.77
858.10	1642.47
858.27	1693.67
858.43	1697.77
858.60	1648.61
858.77	1615.85
858.94	1638.38
859.11	1759.21
859.27	1603.56
859.44	1697.77
859.61	1765.35
859.78	1738.73
859.95	1724.39
860.12	1611.75
860.28	1806.31
860.45	1875.94
860.62	1634.28
860.79	1691.62
860.95	1667.05
861.12	1673.19
861.29	1609.70
861.46	1671.14
861.63	1683.43
861.79	1681.38
861.96	1671.14
862.13	1671.14
862.30	1781.73
862.47	1615.85
862.63	1677.29
862.80	1695.72
862.97	1691.62
863.14	1730.53
863.30	1722.34
863.47	1695.72
863.64	1751.01
863.81	1736.68
863.97	1640.42
864.14	1755.11
864.31	1662.95
864.48	1697.77
864.65	1761.25
864.81	1712.10
864.98	1624.04
865.15	1642.47
865.32	1748.97
865.48	1765.35
865.65	1783.78
865.82	1644.52
865.98	1691.62
866.15	1693.67
866.32	1611.75
866.49	1701.86
866.65	1736.68
866.82	1656.81
866.99	1685.48
867.16	1722.34
867.32	1634.28
867.49	1634.28
867.66	1728.49
867.83	1619.94
867.99	1562.60
868.16	1665.00
868.33	1595.37
868.49	1730.53
868.66	1595.37
868.83	1677.29
868.99	1699.81
869.16	1730.53
869.33	1789.92
869.50	1761.25
869.66	1703.91
869.83	1685.48
870.00	1693.67
870.16	1718.25
870.33	1683.43
870.50	1839.08
870.66	1652.71
870.83	1755.11
871.00	1724.39
871.17	1736.68
871.33	1714.15
871.50	1667.05
871.67	1693.67
871.83	1656.81
872.00	1816.55
872.17	1667.05
872.33	1800.16
872.50	1794.02
872.67	1673.19
872.83	1648.61
873.00	1722.34
873.17	1675.24
873.33	1759.21
873.50	1755.11
873.67	1681.38
873.83	1675.24
874.00	1736.68
874.16	1742.82
874.33	1701.86
874.50	1644.52
874.66	1714.15
874.83	1691.62
875.00	1779.68
875.16	1767.40
875.33	1822.69
875.50	1619.94
875.66	1734.63
875.83	1732.58
875.99	1781.73
876.16	1662.95
876.33	1728.49
876.49	1644.52
876.66	1701.86
876.83	1667.05
876.99	1560.55
877.16	1658.85
877.32	1607.66
877.49	1726.44
877.66	1683.43
877.82	1738.73
877.99	1679.33
878.15	1691.62
878.32	1658.85
878.49	1658.85
878.65	1658.85
878.82	1748.97
878.98	1695.72
879.15	1675.24
879.32	1732.58
879.48	1734.63
879.65	1718.25
879.81	1650.66
879.98	1710.05
880.15	1710.05
880.31	1685.48
880.48	1703.91
880.64	1808.36
880.81	1685.48
880.97	1798.12
881.14	1783.78
881.31	1652.71
881.47	1837.03
881.64	1775.59
881.80	1615.85
881.97	1660.90
882.13	1744.87
882.30	1581.03
882.47	1765.35
882.63	1648.61
882.80	1665.00
882.96	1607.66
883.13	1742.82
883.29	1660.90
883.46	1667.05
883.62	1769.44
883.79	1705.96
883.95	1708.01
884.12	1687.53
884.29	1759.21
884.45	1675.24
884.62	1728.49
884.78	1660.90
884.95	1832.93
885.11	1642.47
885.28	1757.16
885.44	1687.53
885.61	1675.24
885.77	1712.10
885.94	1740.77
886.10	1697.77
886.27	1712.10
886.43	1730.53
886.60	1769.44
886.76	1652.71
886.93	1583.08
887.09	1710.05
887.26	1558.50
887.42	1675.24
887.59	1759.21
887.75	1816.55
887.92	1769.44
888.08	1767.40
888.25	1810.40
888.41	1691.62
888.58	1728.49
888.74	1599.46
888.91	1652.71
>>>>>End Processed Spectral Data<<<<<
