SpectraSuite Data File
++++++++++++++++++++++++++++++++++++
Date: Mon Jun 06 15:09:57 CEST 2016
User: root
Dark Spectrum Present: No
Reference Spectrum Present: No
Number of Sampled Component Spectra: 1
Spectrometers: USB4C02835
Integration Time (usec): 100000 (USB4C02835)
Spectra Averaged: 1 (USB4C02835)
Boxcar Smoothing: 0 (USB4C02835)
Correct for Electrical Dark: No (USB4C02835)
Strobe/Lamp Enabled: No (USB4C02835)
Correct for Detector Non-linearity: No (USB4C02835)
Correct for Stray Light: No (USB4C02835)
Number of Pixels in Processed Spectrum: 3648
>>>>>Begin Processed Spectral Data<<<<<
177.47	1458.15
177.69	1458.15
177.91	1458.15
178.13	1390.57
178.36	1406.95
178.58	1650.66
178.80	1771.49
179.02	1689.57
179.24	1642.47
179.46	1710.05
179.68	1753.06
179.90	1687.53
180.13	1669.09
180.35	1660.90
180.57	1705.96
180.79	1703.91
181.01	1628.14
181.23	1783.78
181.45	1751.01
181.67	1755.11
181.90	1691.62
182.12	1681.38
182.34	1689.57
182.56	1744.87
182.78	1787.88
183.00	1611.75
183.22	1716.20
183.44	1632.23
183.66	1900.52
183.89	1746.92
184.11	1740.77
184.33	1710.05
184.55	1740.77
184.77	1804.26
184.99	1751.01
185.21	1742.82
185.43	1826.79
185.65	1646.57
185.87	1806.31
186.10	1818.60
186.32	1857.51
186.54	1726.44
186.76	1759.21
186.98	1740.77
187.20	1730.53
187.42	1703.91
187.64	1673.19
187.86	1714.15
188.08	1826.79
188.30	1695.72
188.52	1736.68
188.75	1736.68
188.97	1699.81
189.19	1624.04
189.41	1738.73
189.63	1734.63
189.85	1681.38
190.07	1591.27
190.29	1665.00
190.51	1761.25
190.73	1695.72
190.95	1808.36
191.17	1738.73
191.39	1773.54
191.61	1675.24
191.84	1697.77
192.06	1675.24
192.28	1613.80
192.50	1755.11
192.72	1730.53
192.94	1720.29
193.16	1753.06
193.38	1695.72
193.60	1654.76
193.82	1710.05
194.04	1814.50
194.26	1703.91
194.48	1681.38
194.70	1705.96
194.92	1687.53
195.14	1714.15
195.36	1646.57
195.58	1722.34
195.80	1673.19
196.02	1665.00
196.24	1640.42
196.46	1699.81
196.69	1624.04
196.91	1863.65
197.13	1695.72
197.35	1662.95
197.57	1736.68
197.79	1771.49
198.01	1826.79
198.23	1691.62
198.45	1738.73
198.67	1673.19
198.89	1642.47
199.11	1718.25
199.33	1636.33
199.55	1607.66
199.77	1742.82
199.99	1767.40
200.21	1687.53
200.43	1699.81
200.65	1718.25
200.87	1501.16
201.09	1714.15
201.31	1621.99
201.53	1785.83
201.75	1751.01
201.97	1744.87
202.19	1650.66
202.41	1683.43
202.63	1791.97
202.85	1746.92
203.07	1753.06
203.29	1677.29
203.51	1667.05
203.73	1667.05
203.95	1902.56
204.17	1701.86
204.39	1718.25
204.61	1693.67
204.83	1644.52
205.05	1755.11
205.27	1654.76
205.49	1853.41
205.71	1656.81
205.93	1591.27
206.15	1689.57
206.37	1619.94
206.59	1740.77
206.81	1613.80
207.03	1716.20
207.25	1546.22
207.47	1724.39
207.69	1693.67
207.91	1771.49
208.13	1742.82
208.34	1699.81
208.56	1705.96
208.78	1742.82
209.00	1667.05
209.22	1601.51
209.44	1662.95
209.66	1730.53
209.88	1689.57
210.10	1722.34
210.32	1669.09
210.54	1779.68
210.76	1697.77
210.98	1771.49
211.20	1566.70
211.42	1693.67
211.64	1779.68
211.86	1748.97
212.08	1701.86
212.30	1712.10
212.52	1771.49
212.74	1753.06
212.96	1665.00
213.17	1802.21
213.39	1718.25
213.61	1751.01
213.83	1662.95
214.05	1617.90
214.27	1730.53
214.49	1642.47
214.71	1628.14
214.93	1757.16
215.15	1624.04
215.37	1730.53
215.59	1632.23
215.81	1689.57
216.03	1812.45
216.24	1656.81
216.46	1755.11
216.68	1708.01
216.90	1724.39
217.12	1734.63
217.34	1716.20
217.56	1714.15
217.78	1818.60
218.00	1689.57
218.22	1671.14
218.44	1687.53
218.66	1728.49
218.87	1832.93
219.09	1724.39
219.31	1716.20
219.53	1710.05
219.75	1624.04
219.97	1681.38
220.19	1728.49
220.41	1710.05
220.63	1773.54
220.85	1763.30
221.06	1683.43
221.28	1810.40
221.50	1669.09
221.72	1708.01
221.94	1755.11
222.16	1691.62
222.38	1628.14
222.60	1724.39
222.82	1708.01
223.03	1751.01
223.25	1581.03
223.47	1714.15
223.69	1863.65
223.91	1738.73
224.13	1660.90
224.35	1697.77
224.57	1753.06
224.78	1699.81
225.00	1587.18
225.22	1646.57
225.44	1648.61
225.66	1773.54
225.88	1699.81
226.10	1755.11
226.32	1679.33
226.53	1685.48
226.75	1708.01
226.97	1714.15
227.19	1701.86
227.41	1615.85
227.63	1650.66
227.85	1599.46
228.06	1681.38
228.28	1789.92
228.50	1681.38
228.72	1667.05
228.94	1746.92
229.16	1585.13
229.37	1626.09
229.59	1695.72
229.81	1783.78
230.03	1665.00
230.25	1640.42
230.47	1665.00
230.69	1632.23
230.90	1720.29
231.12	1720.29
231.34	1656.81
231.56	1748.97
231.78	1662.95
232.00	1746.92
232.21	1716.20
232.43	1675.24
232.65	1540.07
232.87	1671.14
233.09	1660.90
233.30	1613.80
233.52	1720.29
233.74	1730.53
233.96	1720.29
234.18	1699.81
234.40	1640.42
234.61	1853.41
234.83	1630.18
235.05	1697.77
235.27	1824.74
235.49	1783.78
235.70	1660.90
235.92	1712.10
236.14	1667.05
236.36	1918.95
236.58	1632.23
236.79	1777.64
237.01	1648.61
237.23	1687.53
237.45	1853.41
237.67	1550.31
237.88	1708.01
238.10	1732.58
238.32	1740.77
238.54	1675.24
238.76	1695.72
238.97	1701.86
239.19	1615.85
239.41	1710.05
239.63	1730.53
239.85	1675.24
240.06	1716.20
240.28	1689.57
240.50	1765.35
240.72	1730.53
240.93	1650.66
241.15	1761.25
241.37	1744.87
241.59	1736.68
241.81	1673.19
242.02	1648.61
242.24	1710.05
242.46	1791.97
242.68	1699.81
242.89	1796.07
243.11	1779.68
243.33	1769.44
243.55	1675.24
243.76	1794.02
243.98	1644.52
244.20	1714.15
244.42	1656.81
244.64	1738.73
244.85	1615.85
245.07	1675.24
245.29	1712.10
245.51	1730.53
245.72	1691.62
245.94	1773.54
246.16	1722.34
246.38	1722.34
246.59	1673.19
246.81	1609.70
247.03	1683.43
247.24	1585.13
247.46	1746.92
247.68	1667.05
247.90	1673.19
248.11	1648.61
248.33	1673.19
248.55	1644.52
248.77	1703.91
248.98	1701.86
249.20	1859.56
249.42	1794.02
249.64	1746.92
249.85	1691.62
250.07	1656.81
250.29	1695.72
250.50	1693.67
250.72	1660.90
250.94	1710.05
251.16	1843.17
251.37	1759.21
251.59	1642.47
251.81	1763.30
252.02	1746.92
252.24	1646.57
252.46	1681.38
252.68	1699.81
252.89	1728.49
253.11	1546.22
253.33	1722.34
253.54	1767.40
253.76	1570.79
253.98	1759.21
254.20	1673.19
254.41	1589.22
254.63	1685.48
254.85	1675.24
255.06	1673.19
255.28	1748.97
255.50	1751.01
255.71	1660.90
255.93	1636.33
256.15	1648.61
256.36	1703.91
256.58	1691.62
256.80	1779.68
257.02	1728.49
257.23	1712.10
257.45	1742.82
257.67	1714.15
257.88	1742.82
258.10	1765.35
258.32	1685.48
258.53	1755.11
258.75	1763.30
258.97	1656.81
259.18	1751.01
259.40	1705.96
259.62	1761.25
259.83	1751.01
260.05	1730.53
260.27	2033.63
260.48	1726.44
260.70	1634.28
260.92	1656.81
261.13	1681.38
261.35	1767.40
261.57	1748.97
261.78	1501.16
262.00	1673.19
262.22	1789.92
262.43	1691.62
262.65	1656.81
262.86	1683.43
263.08	1855.46
263.30	1656.81
263.51	1640.42
263.73	1732.58
263.95	1781.73
264.16	1669.09
264.38	1658.85
264.60	1712.10
264.81	1714.15
265.03	1781.73
265.25	1755.11
265.46	1693.67
265.68	1791.97
265.89	1787.88
266.11	1529.83
266.33	1777.64
266.54	1667.05
266.76	1722.34
266.98	1701.86
267.19	1810.40
267.41	1722.34
267.62	1693.67
267.84	1613.80
268.06	1714.15
268.27	1652.71
268.49	1744.87
268.70	1800.16
268.92	1703.91
269.14	1712.10
269.35	1568.74
269.57	1685.48
269.79	1757.16
270.00	1630.18
270.22	1726.44
270.43	1691.62
270.65	1648.61
270.87	1753.06
271.08	1658.85
271.30	1769.44
271.51	1681.38
271.73	1816.55
271.95	1808.36
272.16	1740.77
272.38	1722.34
272.59	1724.39
272.81	1730.53
273.02	1755.11
273.24	1783.78
273.46	1785.83
273.67	1648.61
273.89	1581.03
274.10	1671.14
274.32	1722.34
274.54	1699.81
274.75	1763.30
274.97	1708.01
275.18	1710.05
275.40	1697.77
275.61	1689.57
275.83	1720.29
276.05	1699.81
276.26	1724.39
276.48	1767.40
276.69	1712.10
276.91	1632.23
277.12	1738.73
277.34	1683.43
277.55	1701.86
277.77	1730.53
277.99	1712.10
278.20	1693.67
278.42	1675.24
278.63	1732.58
278.85	1658.85
279.06	1730.53
279.28	1755.11
279.49	1761.25
279.71	1716.20
279.93	1644.52
280.14	1673.19
280.36	1640.42
280.57	1681.38
280.79	1763.30
281.00	1654.76
281.22	1757.16
281.43	1763.30
281.65	1638.38
281.86	1679.33
282.08	1693.67
282.29	1847.27
282.51	1660.90
282.73	1660.90
282.94	1605.61
283.16	1740.77
283.37	1830.88
283.59	1753.06
283.80	1689.57
284.02	1656.81
284.23	1683.43
284.45	1691.62
284.66	1619.94
284.88	1601.51
285.09	1703.91
285.31	1740.77
285.52	1726.44
285.74	1599.46
285.95	1687.53
286.17	1699.81
286.38	1738.73
286.60	1691.62
286.81	1660.90
287.03	1714.15
287.24	1699.81
287.46	1755.11
287.67	1753.06
287.89	1798.12
288.10	1665.00
288.32	1644.52
288.53	1730.53
288.75	1744.87
288.96	1804.26
289.18	1740.77
289.39	1658.85
289.61	1681.38
289.82	1830.88
290.04	1789.92
290.25	1730.53
290.47	1697.77
290.68	1658.85
290.90	1722.34
291.11	1617.90
291.33	1699.81
291.54	1644.52
291.76	1611.75
291.97	1726.44
292.18	1681.38
292.40	1718.25
292.61	1640.42
292.83	1777.64
293.04	1748.97
293.26	1767.40
293.47	1619.94
293.69	1619.94
293.90	1611.75
294.12	1794.02
294.33	1626.09
294.55	1730.53
294.76	1869.80
294.97	1734.63
295.19	1796.07
295.40	1724.39
295.62	1730.53
295.83	1777.64
296.05	1685.48
296.26	1783.78
296.48	1638.38
296.69	1695.72
296.90	1640.42
297.12	1742.82
297.33	1755.11
297.55	1761.25
297.76	1755.11
297.98	1748.97
298.19	1738.73
298.41	1744.87
298.62	1630.18
298.83	1779.68
299.05	1757.16
299.26	1695.72
299.48	1691.62
299.69	1714.15
299.90	1763.30
300.12	1683.43
300.33	1748.97
300.55	1712.10
300.76	1720.29
300.98	1542.12
301.19	1816.55
301.40	1640.42
301.62	1693.67
301.83	1734.63
302.05	1722.34
302.26	1701.86
302.47	1712.10
302.69	1697.77
302.90	1773.54
303.12	1546.22
303.33	1748.97
303.54	1781.73
303.76	1673.19
303.97	1736.68
304.19	1847.27
304.40	1708.01
304.61	1656.81
304.83	1867.75
305.04	1740.77
305.26	1705.96
305.47	1636.33
305.68	1693.67
305.90	1648.61
306.11	1683.43
306.33	1742.82
306.54	1730.53
306.75	1626.09
306.97	1730.53
307.18	1669.09
307.39	1697.77
307.61	1689.57
307.82	1681.38
308.04	1701.86
308.25	1714.15
308.46	1714.15
308.68	1761.25
308.89	1748.97
309.10	1787.88
309.32	1687.53
309.53	1689.57
309.74	1742.82
309.96	1693.67
310.17	1685.48
310.39	1648.61
310.60	1779.68
310.81	1662.95
311.03	1603.56
311.24	1685.48
311.45	1642.47
311.67	1841.12
311.88	1757.16
312.09	1667.05
312.31	1705.96
312.52	1742.82
312.73	1722.34
312.95	1712.10
313.16	1660.90
313.37	1730.53
313.59	1611.75
313.80	1783.78
314.01	1849.32
314.23	1665.00
314.44	1595.37
314.65	1660.90
314.87	1656.81
315.08	1689.57
315.29	1746.92
315.51	1660.90
315.72	1599.46
315.93	1742.82
316.15	1732.58
316.36	1642.47
316.57	1703.91
316.79	1738.73
317.00	1665.00
317.21	1691.62
317.43	1699.81
317.64	1679.33
317.85	1658.85
318.07	1634.28
318.28	1662.95
318.49	1847.27
318.70	1900.52
318.92	1855.46
319.13	1877.99
319.34	1798.12
319.56	1785.83
319.77	1736.68
319.98	1767.40
320.20	1775.59
320.41	1724.39
320.62	1804.26
320.83	1691.62
321.05	1851.36
321.26	1738.73
321.47	1705.96
321.69	1677.29
321.90	1669.09
322.11	1673.19
322.32	1818.60
322.54	1771.49
322.75	1753.06
322.96	1808.36
323.18	1683.43
323.39	1626.09
323.60	1705.96
323.81	1740.77
324.03	1671.14
324.24	1718.25
324.45	1744.87
324.66	1642.47
324.88	1787.88
325.09	1806.31
325.30	1708.01
325.52	1705.96
325.73	1734.63
325.94	1685.48
326.15	1673.19
326.37	1675.24
326.58	1773.54
326.79	1662.95
327.00	1556.46
327.22	1673.19
327.43	1665.00
327.64	1658.85
327.85	1722.34
328.07	1753.06
328.28	1796.07
328.49	1673.19
328.70	1654.76
328.92	1689.57
329.13	1695.72
329.34	1724.39
329.55	1726.44
329.76	1767.40
329.98	1667.05
330.19	1712.10
330.40	1720.29
330.61	1691.62
330.83	1740.77
331.04	1636.33
331.25	1771.49
331.46	1738.73
331.68	1693.67
331.89	1818.60
332.10	1730.53
332.31	1652.71
332.52	1712.10
332.74	1806.31
332.95	1603.56
333.16	1642.47
333.37	1708.01
333.58	1722.34
333.80	1746.92
334.01	1652.71
334.22	1662.95
334.43	1660.90
334.64	1689.57
334.86	1648.61
335.07	1683.43
335.28	1798.12
335.49	1695.72
335.70	1746.92
335.92	1761.25
336.13	1865.70
336.34	1789.92
336.55	1740.77
336.76	1710.05
336.98	1638.38
337.19	1681.38
337.40	1763.30
337.61	1865.70
337.82	1708.01
338.04	1722.34
338.25	1640.42
338.46	1677.29
338.67	1650.66
338.88	1624.04
339.09	1681.38
339.31	1748.97
339.52	1599.46
339.73	1705.96
339.94	1679.33
340.15	1722.34
340.36	1662.95
340.58	1734.63
340.79	1667.05
341.00	1744.87
341.21	1601.51
341.42	1796.07
341.63	1677.29
341.85	1738.73
342.06	1718.25
342.27	1734.63
342.48	1675.24
342.69	1619.94
342.90	1740.77
343.12	1730.53
343.33	1642.47
343.54	1777.64
343.75	1763.30
343.96	1665.00
344.17	1710.05
344.38	1660.90
344.60	1624.04
344.81	1644.52
345.02	1662.95
345.23	1781.73
345.44	1822.69
345.65	1789.92
345.86	1693.67
346.07	1691.62
346.29	1708.01
346.50	1734.63
346.71	1753.06
346.92	1734.63
347.13	1869.80
347.34	1685.48
347.55	1796.07
347.76	1769.44
347.98	1634.28
348.19	1685.48
348.40	1810.40
348.61	1732.58
348.82	1814.50
349.03	1722.34
349.24	1652.71
349.45	1757.16
349.66	1576.94
349.88	1687.53
350.09	1613.80
350.30	1775.59
350.51	1773.54
350.72	1687.53
350.93	1751.01
351.14	1767.40
351.35	1794.02
351.56	1789.92
351.77	1726.44
351.99	1669.09
352.20	1742.82
352.41	1818.60
352.62	1624.04
352.83	1619.94
353.04	1695.72
353.25	1697.77
353.46	1697.77
353.67	1759.21
353.88	1644.52
354.09	1703.91
354.30	1710.05
354.52	1828.84
354.73	1658.85
354.94	1722.34
355.15	1730.53
355.36	1769.44
355.57	1726.44
355.78	1771.49
355.99	1669.09
356.20	1628.14
356.41	1742.82
356.62	1771.49
356.83	1685.48
357.04	1816.55
357.25	1638.38
357.46	1693.67
357.68	1624.04
357.89	1621.99
358.10	1689.57
358.31	1738.73
358.52	1697.77
358.73	1650.66
358.94	1667.05
359.15	1675.24
359.36	1705.96
359.57	1632.23
359.78	1736.68
359.99	1796.07
360.20	1591.27
360.41	1671.14
360.62	1742.82
360.83	1708.01
361.04	1724.39
361.25	1755.11
361.46	1746.92
361.67	1671.14
361.88	1791.97
362.09	1734.63
362.30	1765.35
362.51	1648.61
362.72	1693.67
362.93	1685.48
363.14	1783.78
363.35	1689.57
363.56	1597.42
363.78	1751.01
363.99	1806.31
364.20	1671.14
364.41	1683.43
364.62	1882.08
364.83	1716.20
365.04	1677.29
365.25	1677.29
365.46	1796.07
365.67	1632.23
365.88	1640.42
366.09	1642.47
366.30	1693.67
366.51	1716.20
366.72	1638.38
366.93	1732.58
367.14	1808.36
367.35	1767.40
367.56	1757.16
367.77	1748.97
367.98	1677.29
368.18	1740.77
368.39	1703.91
368.60	1726.44
368.81	1787.88
369.02	1705.96
369.23	1714.15
369.44	1642.47
369.65	1603.56
369.86	1775.59
370.07	1724.39
370.28	1626.09
370.49	1705.96
370.70	1699.81
370.91	1626.09
371.12	1675.24
371.33	1728.49
371.54	1644.52
371.75	1757.16
371.96	1599.46
372.17	1710.05
372.38	1671.14
372.59	1783.78
372.80	1675.24
373.01	1705.96
373.22	1738.73
373.43	1605.61
373.64	1697.77
373.85	1734.63
374.06	1800.16
374.26	1757.16
374.47	1685.48
374.68	1849.32
374.89	1724.39
375.10	1681.38
375.31	1802.21
375.52	1738.73
375.73	1677.29
375.94	1669.09
376.15	1837.03
376.36	1693.67
376.57	1677.29
376.78	1703.91
376.99	1763.30
377.20	1802.21
377.40	1687.53
377.61	1875.94
377.82	1697.77
378.03	1728.49
378.24	1697.77
378.45	1658.85
378.66	1718.25
378.87	1611.75
379.08	1626.09
379.29	1755.11
379.50	1869.80
379.71	1724.39
379.91	1763.30
380.12	1705.96
380.33	1763.30
380.54	1763.30
380.75	1685.48
380.96	1695.72
381.17	1802.21
381.38	1744.87
381.59	1734.63
381.80	1728.49
382.00	1904.61
382.21	1845.22
382.42	1767.40
382.63	1916.90
382.84	1695.72
383.05	1728.49
383.26	1710.05
383.47	1738.73
383.68	1757.16
383.88	1724.39
384.09	1773.54
384.30	1742.82
384.51	1740.77
384.72	1726.44
384.93	1636.33
385.14	1777.64
385.35	1714.15
385.55	1751.01
385.76	1781.73
385.97	1705.96
386.18	1673.19
386.39	1624.04
386.60	1689.57
386.81	1669.09
387.02	1656.81
387.22	1652.71
387.43	1798.12
387.64	1839.08
387.85	1859.56
388.06	2240.48
388.27	4087.75
388.48	6563.74
388.68	8161.16
388.89	9406.32
389.10	9535.34
389.31	8378.24
389.52	7399.31
389.73	6641.56
389.93	6207.39
390.14	5652.39
390.35	5130.16
390.56	4497.34
390.77	3803.08
390.98	3004.37
391.18	2430.94
391.39	2078.69
391.60	1787.88
391.81	1828.84
392.02	1722.34
392.23	1822.69
392.43	1693.67
392.64	1812.45
392.85	1687.53
393.06	1728.49
393.27	1662.95
393.47	1669.09
393.68	1748.97
393.89	1693.67
394.10	1757.16
394.31	1665.00
394.52	1660.90
394.72	1695.72
394.93	1828.84
395.14	1701.86
395.35	1773.54
395.56	1755.11
395.76	1683.43
395.97	1767.40
396.18	1826.79
396.39	1869.80
396.60	2037.73
396.80	1822.69
397.01	1796.07
397.22	1828.84
397.43	1873.89
397.64	1720.29
397.84	1810.40
398.05	1867.75
398.26	1714.15
398.47	1773.54
398.67	1718.25
398.88	1654.76
399.09	1759.21
399.30	1695.72
399.51	1767.40
399.71	1665.00
399.92	1693.67
400.13	1734.63
400.34	1656.81
400.54	1640.42
400.75	1785.83
400.96	1746.92
401.17	1759.21
401.37	1714.15
401.58	1687.53
401.79	1759.21
402.00	1816.55
402.21	1982.43
402.41	2041.82
402.62	1910.75
402.83	1994.72
403.04	2015.20
403.24	2068.45
403.45	1791.97
403.66	1914.85
403.87	1875.94
404.07	1961.95
404.28	1908.71
404.49	1871.84
404.70	1742.82
404.90	1845.22
405.11	1701.86
405.32	1677.29
405.52	1640.42
405.73	1642.47
405.94	1599.46
406.15	1703.91
406.35	1671.14
406.56	1767.40
406.77	1779.68
406.98	1710.05
407.18	1703.91
407.39	1769.44
407.60	1644.52
407.80	1708.01
408.01	1634.28
408.22	1689.57
408.43	1736.68
408.63	1681.38
408.84	1611.75
409.05	1716.20
409.25	1581.03
409.46	1667.05
409.67	1646.57
409.88	1581.03
410.08	1726.44
410.29	1656.81
410.50	1800.16
410.70	1787.88
410.91	1632.23
411.12	1763.30
411.32	1767.40
411.53	1652.71
411.74	1787.88
411.95	1697.77
412.15	1697.77
412.36	1861.60
412.57	1740.77
412.77	1869.80
412.98	1695.72
413.19	1718.25
413.39	1757.16
413.60	1820.64
413.81	1773.54
414.01	1626.09
414.22	1757.16
414.43	1742.82
414.63	1652.71
414.84	1853.41
415.05	1699.81
415.25	1589.22
415.46	1779.68
415.67	1765.35
415.87	1716.20
416.08	1746.92
416.29	1648.61
416.49	1689.57
416.70	1581.03
416.91	1599.46
417.11	1621.99
417.32	1724.39
417.53	1705.96
417.73	1697.77
417.94	1689.57
418.15	1675.24
418.35	1648.61
418.56	1724.39
418.77	1759.21
418.97	1701.86
419.18	1650.66
419.38	1591.27
419.59	1769.44
419.80	1771.49
420.00	1658.85
420.21	1712.10
420.42	1740.77
420.62	1796.07
420.83	1636.33
421.04	1761.25
421.24	1701.86
421.45	1794.02
421.65	1767.40
421.86	1722.34
422.07	1718.25
422.27	1714.15
422.48	1695.72
422.69	1665.00
422.89	1638.38
423.10	1712.10
423.30	1615.85
423.51	1695.72
423.72	1714.15
423.92	1746.92
424.13	1640.42
424.33	1718.25
424.54	1724.39
424.75	1701.86
424.95	1800.16
425.16	1695.72
425.36	1726.44
425.57	1767.40
425.78	1800.16
425.98	1714.15
426.19	1705.96
426.39	1650.66
426.60	1742.82
426.81	1785.83
427.01	1683.43
427.22	1658.85
427.42	1591.27
427.63	1671.14
427.83	1763.30
428.04	1822.69
428.25	1755.11
428.45	1773.54
428.66	1746.92
428.86	1662.95
429.07	1701.86
429.28	1710.05
429.48	1746.92
429.69	1695.72
429.89	1718.25
430.10	1642.47
430.30	1808.36
430.51	1763.30
430.71	1636.33
430.92	1701.86
431.13	1746.92
431.33	1697.77
431.54	1755.11
431.74	1814.50
431.95	1828.84
432.15	1744.87
432.36	1812.45
432.56	1726.44
432.77	1757.16
432.98	1814.50
433.18	1716.20
433.39	1742.82
433.59	1714.15
433.80	1796.07
434.00	1787.88
434.21	1705.96
434.41	1697.77
434.62	1820.64
434.82	1652.71
435.03	1652.71
435.23	1787.88
435.44	1611.75
435.64	1658.85
435.85	1695.72
436.06	1779.68
436.26	1753.06
436.47	1679.33
436.67	1718.25
436.88	1712.10
437.08	1718.25
437.29	1877.99
437.49	1742.82
437.70	1777.64
437.90	1705.96
438.11	1863.65
438.31	1777.64
438.52	1869.80
438.72	1828.84
438.93	1964.00
439.13	1751.01
439.34	1798.12
439.54	1753.06
439.75	1777.64
439.95	1845.22
440.16	1765.35
440.36	1773.54
440.57	1787.88
440.77	1828.84
440.98	1767.40
441.18	1818.60
441.39	1658.85
441.59	1703.91
441.80	1871.84
442.00	1679.33
442.21	1751.01
442.41	1603.56
442.62	1720.29
442.82	1671.14
443.02	1675.24
443.23	1652.71
443.43	1660.90
443.64	1820.64
443.84	1710.05
444.05	1830.88
444.25	1693.67
444.46	1730.53
444.66	1791.97
444.87	1783.78
445.07	1650.66
445.28	1693.67
445.48	1771.49
445.69	1728.49
445.89	1875.94
446.09	1732.58
446.30	2041.82
446.50	2652.12
446.71	3745.73
446.91	4196.29
447.12	4693.94
447.32	4872.12
447.53	4229.06
447.73	3811.27
447.93	3508.17
448.14	3305.42
448.34	3082.19
448.55	2942.93
448.75	2824.15
448.96	2559.96
449.16	2418.65
449.36	2160.61
449.57	2033.63
449.77	1914.85
449.98	1849.32
450.18	1789.92
450.39	1822.69
450.59	1777.64
450.79	1681.38
451.00	1693.67
451.20	1718.25
451.41	1708.01
451.61	1728.49
451.81	1697.77
452.02	1726.44
452.22	1746.92
452.43	1687.53
452.63	1714.15
452.84	1765.35
453.04	1654.76
453.24	1763.30
453.45	1665.00
453.65	1738.73
453.86	1751.01
454.06	1712.10
454.26	1714.15
454.47	1574.89
454.67	1841.12
454.87	1781.73
455.08	1712.10
455.28	1796.07
455.49	1726.44
455.69	1744.87
455.89	1847.27
456.10	1851.36
456.30	1701.86
456.51	1765.35
456.71	1662.95
456.91	1755.11
457.12	1771.49
457.32	1763.30
457.52	1632.23
457.73	1834.98
457.93	1734.63
458.14	1755.11
458.34	1613.80
458.54	1716.20
458.75	1679.33
458.95	1714.15
459.15	1673.19
459.36	1728.49
459.56	1757.16
459.76	1832.93
459.97	1697.77
460.17	1771.49
460.37	1757.16
460.58	1701.86
460.78	1771.49
460.99	1720.29
461.19	1718.25
461.39	1583.08
461.60	1703.91
461.80	1791.97
462.00	1675.24
462.21	1665.00
462.41	1736.68
462.61	1703.91
462.82	1628.14
463.02	1728.49
463.22	1837.03
463.43	1718.25
463.63	1740.77
463.83	1748.97
464.04	1787.88
464.24	1693.67
464.44	1675.24
464.64	1765.35
464.85	1714.15
465.05	1769.44
465.25	1765.35
465.46	1669.09
465.66	1703.91
465.86	1820.64
466.07	1730.53
466.27	1677.29
466.47	1589.22
466.68	1669.09
466.88	1884.13
467.08	1738.73
467.29	1796.07
467.49	1773.54
467.69	1683.43
467.89	1705.96
468.10	1660.90
468.30	1773.54
468.50	1812.45
468.71	1761.25
468.91	1599.46
469.11	1794.02
469.31	1650.66
469.52	1705.96
469.72	1867.75
469.92	1837.03
470.13	1705.96
470.33	1736.68
470.53	1820.64
470.73	2080.74
470.94	2242.53
471.14	2369.50
471.34	2408.41
471.54	2504.67
471.75	2281.44
471.95	2095.07
472.15	2074.59
472.36	2107.36
472.56	2056.16
472.76	2013.15
472.96	1992.67
473.17	1941.47
473.37	1902.56
473.57	1841.12
473.77	1800.16
473.98	1738.73
474.18	1714.15
474.38	1877.99
474.58	1693.67
474.79	1730.53
474.99	1775.59
475.19	1724.39
475.39	1603.56
475.60	1714.15
475.80	1744.87
476.00	1683.43
476.20	1742.82
476.41	1693.67
476.61	1808.36
476.81	1736.68
477.01	1662.95
477.21	1787.88
477.42	1826.79
477.62	1724.39
477.82	1812.45
478.02	1667.05
478.23	1773.54
478.43	1697.77
478.63	1648.61
478.83	1708.01
479.03	1732.58
479.24	1855.46
479.44	1818.60
479.64	1599.46
479.84	1677.29
480.04	1669.09
480.25	1753.06
480.45	1624.04
480.65	1718.25
480.85	1765.35
481.06	1628.14
481.26	1613.80
481.46	1761.25
481.66	1669.09
481.86	1603.56
482.06	1687.53
482.27	1726.44
482.47	1665.00
482.67	1746.92
482.87	1701.86
483.07	1738.73
483.28	1732.58
483.48	1701.86
483.68	1675.24
483.88	1730.53
484.08	1619.94
484.29	1615.85
484.49	1736.68
484.69	1705.96
484.89	1808.36
485.09	1687.53
485.29	1738.73
485.50	1781.73
485.70	1708.01
485.90	1804.26
486.10	1679.33
486.30	1785.83
486.50	1775.59
486.71	1755.11
486.91	1755.11
487.11	1777.64
487.31	1697.77
487.51	1763.30
487.71	1626.09
487.91	1574.89
488.12	1660.90
488.32	1568.74
488.52	1720.29
488.72	1574.89
488.92	1769.44
489.12	1761.25
489.32	1765.35
489.53	1796.07
489.73	1638.38
489.93	1771.49
490.13	1710.05
490.33	1624.04
490.53	1734.63
490.73	1783.78
490.94	1632.23
491.14	1732.58
491.34	1787.88
491.54	2062.30
491.74	2519.00
491.94	2895.83
492.14	3012.56
492.34	2977.75
492.54	2760.66
492.75	2351.07
492.95	2449.37
493.15	2281.44
493.35	2349.02
493.55	2234.33
493.75	2095.07
493.95	2027.49
494.15	1994.72
494.35	1931.23
494.56	1837.03
494.76	1755.11
494.96	1781.73
495.16	1794.02
495.36	1720.29
495.56	1757.16
495.76	1675.24
495.96	1710.05
496.16	1665.00
496.36	1806.31
496.56	1662.95
496.77	1779.68
496.97	1720.29
497.17	1830.88
497.37	1677.29
497.57	1755.11
497.77	1669.09
497.97	1658.85
498.17	1669.09
498.37	1742.82
498.57	1769.44
498.77	1683.43
498.97	1824.74
499.17	1757.16
499.38	1808.36
499.58	1785.83
499.78	1757.16
499.98	1777.64
500.18	1734.63
500.38	1701.86
500.58	1902.56
500.78	2541.53
500.98	4458.43
501.18	5697.45
501.38	6700.95
501.58	7024.53
501.78	6498.20
501.98	5472.17
502.18	4788.15
502.38	4333.50
502.58	4093.89
502.78	3704.78
502.98	3524.55
503.18	3450.83
503.38	3219.41
503.59	2879.44
503.79	2588.63
503.99	2498.52
504.19	2326.49
504.39	2213.85
504.59	2176.99
504.79	2119.65
504.99	2062.30
505.19	1984.48
505.39	1875.94
505.59	2000.87
505.79	1925.09
505.99	1826.79
506.19	1849.32
506.39	1898.47
506.59	1673.19
506.79	1718.25
506.99	1908.71
507.19	1757.16
507.39	1718.25
507.59	1638.38
507.79	1689.57
507.99	1667.05
508.19	1732.58
508.39	1714.15
508.59	1722.34
508.79	1806.31
508.99	1884.13
509.19	1726.44
509.39	1748.97
509.59	1665.00
509.79	1665.00
509.99	1757.16
510.19	1787.88
510.39	1701.86
510.59	1800.16
510.79	1669.09
510.99	1691.62
511.19	1691.62
511.39	1849.32
511.59	1810.40
511.79	1712.10
511.99	1726.44
512.19	1769.44
512.38	1767.40
512.58	1695.72
512.78	1710.05
512.98	1826.79
513.18	1832.93
513.38	1642.47
513.58	1781.73
513.78	1648.61
513.98	1744.87
514.18	1808.36
514.38	1665.00
514.58	1746.92
514.78	1687.53
514.98	1593.32
515.18	1763.30
515.38	1671.14
515.58	1837.03
515.78	1798.12
515.98	1769.44
516.18	1697.77
516.38	1740.77
516.57	1673.19
516.77	1773.54
516.97	1832.93
517.17	1716.20
517.37	1654.76
517.57	1804.26
517.77	1654.76
517.97	1738.73
518.17	1800.16
518.37	1681.38
518.57	1777.64
518.77	1644.52
518.97	1724.39
519.16	1787.88
519.36	1751.01
519.56	1716.20
519.76	1763.30
519.96	1746.92
520.16	1783.78
520.36	1710.05
520.56	1808.36
520.76	1705.96
520.96	1679.33
521.16	1839.08
521.35	1763.30
521.55	1755.11
521.75	1695.72
521.95	1675.24
522.15	1714.15
522.35	1665.00
522.55	1687.53
522.75	1798.12
522.95	1705.96
523.14	1648.61
523.34	1705.96
523.54	1742.82
523.74	1877.99
523.94	1771.49
524.14	1671.14
524.34	1654.76
524.54	1855.46
524.73	1759.21
524.93	1859.56
525.13	1691.62
525.33	1683.43
525.53	1845.22
525.73	1802.21
525.93	1732.58
526.13	1675.24
526.32	1787.88
526.52	1714.15
526.72	1753.06
526.92	1714.15
527.12	1759.21
527.32	1730.53
527.52	1765.35
527.71	1806.31
527.91	1748.97
528.11	1746.92
528.31	1796.07
528.51	1728.49
528.71	1751.01
528.90	1673.19
529.10	1843.17
529.30	1845.22
529.50	1640.42
529.70	1804.26
529.90	1806.31
530.09	1716.20
530.29	1652.71
530.49	1660.90
530.69	1806.31
530.89	1726.44
531.09	1798.12
531.28	1699.81
531.48	1769.44
531.68	1669.09
531.88	1734.63
532.08	1736.68
532.28	1708.01
532.47	1714.15
532.67	1802.21
532.87	1732.58
533.07	1667.05
533.27	1730.53
533.46	1802.21
533.66	1712.10
533.86	1701.86
534.06	1746.92
534.26	1738.73
534.45	1644.52
534.65	1779.68
534.85	1744.87
535.05	1697.77
535.25	1779.68
535.44	1673.19
535.64	1757.16
535.84	1691.62
536.04	1652.71
536.24	1746.92
536.43	1705.96
536.63	1695.72
536.83	1710.05
537.03	1757.16
537.22	1689.57
537.42	1642.47
537.62	1767.40
537.82	1728.49
538.02	1775.59
538.21	1837.03
538.41	1886.18
538.61	1779.68
538.81	1744.87
539.00	1746.92
539.20	1708.01
539.40	1787.88
539.60	1755.11
539.79	1742.82
539.99	1759.21
540.19	1691.62
540.39	1726.44
540.58	1748.97
540.78	1812.45
540.98	1757.16
541.18	1798.12
541.37	1732.58
541.57	1681.38
541.77	1673.19
541.97	1714.15
542.16	1746.92
542.36	1599.46
542.56	1771.49
542.76	1949.67
542.95	1714.15
543.15	1783.78
543.35	1781.73
543.54	1630.18
543.74	1660.90
543.94	1804.26
544.14	1748.97
544.33	1771.49
544.53	1751.01
544.73	1712.10
544.93	1697.77
545.12	1746.92
545.32	1748.97
545.52	1681.38
545.71	1677.29
545.91	1695.72
546.11	1691.62
546.30	1689.57
546.50	1759.21
546.70	1757.16
546.90	1794.02
547.09	1636.33
547.29	1763.30
547.49	1757.16
547.68	1748.97
547.88	1675.24
548.08	1771.49
548.27	2160.61
548.47	1765.35
548.67	1642.47
548.87	1847.27
549.06	1726.44
549.26	1777.64
549.46	1716.20
549.65	1779.68
549.85	1701.86
550.05	1828.84
550.24	1628.14
550.44	1738.73
550.64	1736.68
550.83	1728.49
551.03	1800.16
551.23	1791.97
551.42	1744.87
551.62	1699.81
551.82	1693.67
552.01	1705.96
552.21	1841.12
552.41	1763.30
552.60	1828.84
552.80	1726.44
553.00	1738.73
553.19	1746.92
553.39	1812.45
553.59	1683.43
553.78	1730.53
553.98	1740.77
554.17	1642.47
554.37	1818.60
554.57	1767.40
554.76	1732.58
554.96	1699.81
555.16	1703.91
555.35	1753.06
555.55	1724.39
555.75	1841.12
555.94	1740.77
556.14	1648.61
556.33	1716.20
556.53	1751.01
556.73	1751.01
556.92	1775.59
557.12	1800.16
557.32	1892.32
557.51	1800.16
557.71	1740.77
557.90	1830.88
558.10	1798.12
558.30	1734.63
558.49	1751.01
558.69	1775.59
558.88	1765.35
559.08	1769.44
559.28	1665.00
559.47	1755.11
559.67	1804.26
559.86	1855.46
560.06	1736.68
560.26	1730.53
560.45	1734.63
560.65	1693.67
560.84	1898.47
561.04	1724.39
561.24	1808.36
561.43	1753.06
561.63	1810.40
561.82	1734.63
562.02	1873.89
562.22	1681.38
562.41	1681.38
562.61	1681.38
562.80	1658.85
563.00	1869.80
563.19	1769.44
563.39	1802.21
563.59	1789.92
563.78	1742.82
563.98	1660.90
564.17	1675.24
564.37	1585.13
564.56	1787.88
564.76	1740.77
564.96	1824.74
565.15	1787.88
565.35	1886.18
565.54	1665.00
565.74	1755.11
565.93	1730.53
566.13	1785.83
566.32	1738.73
566.52	1730.53
566.71	1742.82
566.91	1843.17
567.11	1736.68
567.30	1697.77
567.50	1734.63
567.69	1744.87
567.89	1769.44
568.08	1679.33
568.28	1779.68
568.47	1634.28
568.67	1767.40
568.86	1681.38
569.06	1761.25
569.25	1685.48
569.45	1726.44
569.64	1732.58
569.84	1757.16
570.04	1734.63
570.23	1673.19
570.43	1669.09
570.62	1796.07
570.82	1869.80
571.01	1693.67
571.21	1689.57
571.40	1730.53
571.60	1804.26
571.79	1724.39
571.99	1802.21
572.18	1771.49
572.38	1785.83
572.57	1734.63
572.77	1794.02
572.96	1880.04
573.16	1812.45
573.35	1685.48
573.55	1742.82
573.74	1824.74
573.94	1771.49
574.13	1705.96
574.33	1787.88
574.52	1746.92
574.71	1812.45
574.91	1798.12
575.10	1722.34
575.30	1726.44
575.49	1695.72
575.69	1687.53
575.88	1783.78
576.08	1724.39
576.27	1849.32
576.47	1705.96
576.66	1818.60
576.86	1861.60
577.05	1748.97
577.25	1800.16
577.44	1877.99
577.64	1726.44
577.83	1839.08
578.02	1681.38
578.22	1822.69
578.41	1839.08
578.61	1763.30
578.80	1689.57
579.00	1755.11
579.19	1771.49
579.39	1767.40
579.58	1785.83
579.77	1732.58
579.97	1755.11
580.16	1796.07
580.36	1771.49
580.55	1929.19
580.75	1753.06
580.94	1777.64
581.13	1877.99
581.33	1851.36
581.52	1785.83
581.72	1898.47
581.91	1824.74
582.11	1722.34
582.30	1779.68
582.49	1730.53
582.69	1882.08
582.88	1853.41
583.08	1755.11
583.27	1798.12
583.47	1757.16
583.66	1705.96
583.85	1681.38
584.05	1732.58
584.24	1843.17
584.44	1834.98
584.63	1818.60
584.82	1812.45
585.02	1847.27
585.21	1820.64
585.41	1804.26
585.60	1898.47
585.79	1984.48
585.99	1996.77
586.18	1865.70
586.37	2144.22
586.57	3508.17
586.76	9731.95
586.96	24053.39
587.15	33584.64
587.34	39431.59
587.54	41268.62
587.73	35775.97
587.93	25781.88
588.12	21190.33
588.31	17786.61
588.51	15845.13
588.70	14790.43
588.89	13772.59
589.09	12248.90
589.28	10856.28
589.47	9197.43
589.67	7960.45
589.86	6367.13
590.06	4829.11
590.25	3831.75
590.44	3082.19
590.64	2576.34
590.83	2244.57
591.02	2062.30
591.22	2029.54
591.41	1847.27
591.60	1867.75
591.80	1894.37
591.99	1718.25
592.18	1779.68
592.38	1908.71
592.57	1742.82
592.76	1787.88
592.96	1814.50
593.15	1755.11
593.34	1781.73
593.54	1789.92
593.73	1705.96
593.92	1791.97
594.12	1794.02
594.31	1769.44
594.50	1755.11
594.70	1789.92
594.89	1849.32
595.08	1691.62
595.28	1804.26
595.47	1955.81
595.66	1779.68
595.86	1615.85
596.05	1714.15
596.24	1722.34
596.43	1828.84
596.63	1851.36
596.82	1777.64
597.01	1787.88
597.21	1800.16
597.40	1722.34
597.59	1771.49
597.79	1755.11
597.98	1826.79
598.17	1845.22
598.36	1771.49
598.56	1779.68
598.75	1765.35
598.94	1716.20
599.14	1726.44
599.33	1718.25
599.52	1787.88
599.71	1759.21
599.91	1787.88
600.10	1777.64
600.29	1785.83
600.48	1824.74
600.68	1853.41
600.87	1781.73
601.06	1826.79
601.26	1662.95
601.45	1742.82
601.64	1640.42
601.83	1845.22
602.03	1679.33
602.22	1763.30
602.41	1849.32
602.60	1828.84
602.80	1818.60
602.99	1718.25
603.18	1724.39
603.37	1763.30
603.57	1726.44
603.76	1804.26
603.95	1791.97
604.14	1681.38
604.34	1662.95
604.53	1771.49
604.72	1736.68
604.91	1804.26
605.10	1810.40
605.30	1687.53
605.49	1806.31
605.68	1775.59
605.87	1783.78
606.07	1648.61
606.26	1746.92
606.45	1765.35
606.64	1742.82
606.84	1708.01
607.03	1738.73
607.22	1714.15
607.41	1677.29
607.60	1701.86
607.80	1779.68
607.99	1726.44
608.18	1736.68
608.37	1718.25
608.56	1687.53
608.76	1871.84
608.95	1763.30
609.14	1794.02
609.33	1800.16
609.52	1714.15
609.72	1720.29
609.91	1681.38
610.10	1787.88
610.29	1798.12
610.48	1826.79
610.68	1767.40
610.87	1701.86
611.06	1740.77
611.25	1746.92
611.44	1796.07
611.63	1689.57
611.83	1886.18
612.02	1665.00
612.21	1908.71
612.40	1642.47
612.59	1654.76
612.79	1650.66
612.98	1710.05
613.17	1798.12
613.36	1667.05
613.55	1816.55
613.74	1689.57
613.93	1695.72
614.13	1738.73
614.32	1751.01
614.51	1742.82
614.70	1673.19
614.89	1736.68
615.08	1763.30
615.28	1990.63
615.47	1685.48
615.66	1773.54
615.85	1742.82
616.04	1800.16
616.23	1718.25
616.42	1726.44
616.62	1730.53
616.81	1728.49
617.00	1765.35
617.19	1769.44
617.38	1705.96
617.57	1798.12
617.76	1779.68
617.95	1767.40
618.15	1689.57
618.34	1814.50
618.53	1683.43
618.72	1828.84
618.91	1822.69
619.10	1802.21
619.29	1685.48
619.48	1796.07
619.68	1642.47
619.87	1689.57
620.06	1656.81
620.25	1814.50
620.44	1669.09
620.63	1716.20
620.82	1759.21
621.01	1734.63
621.20	1728.49
621.39	1775.59
621.59	1773.54
621.78	1710.05
621.97	1652.71
622.16	1763.30
622.35	1718.25
622.54	1728.49
622.73	1740.77
622.92	1650.66
623.11	1814.50
623.30	1730.53
623.49	1783.78
623.68	1697.77
623.88	1857.51
624.07	1691.62
624.26	1759.21
624.45	1748.97
624.64	1738.73
624.83	1753.06
625.02	1740.77
625.21	1748.97
625.40	1742.82
625.59	1738.73
625.78	1718.25
625.97	1777.64
626.16	1787.88
626.35	1722.34
626.54	1771.49
626.74	1728.49
626.93	1650.66
627.12	1701.86
627.31	1746.92
627.50	1753.06
627.69	1779.68
627.88	1669.09
628.07	1628.14
628.26	1675.24
628.45	1738.73
628.64	1673.19
628.83	1755.11
629.02	1697.77
629.21	1689.57
629.40	1732.58
629.59	1617.90
629.78	1728.49
629.97	1687.53
630.16	1662.95
630.35	1757.16
630.54	1732.58
630.73	1718.25
630.92	1714.15
631.11	1701.86
631.30	1701.86
631.49	1808.36
631.68	1726.44
631.87	1689.57
632.06	1646.57
632.25	1847.27
632.44	1683.43
632.63	1718.25
632.82	1699.81
633.01	1650.66
633.20	1654.76
633.39	1718.25
633.58	1660.90
633.77	1742.82
633.96	1789.92
634.15	1730.53
634.34	1753.06
634.53	1748.97
634.72	1689.57
634.91	1609.70
635.10	1722.34
635.29	1753.06
635.48	1683.43
635.67	1603.56
635.86	1576.94
636.05	1761.25
636.24	1705.96
636.43	1671.14
636.62	1687.53
636.81	1538.02
637.00	1765.35
637.19	1771.49
637.38	1687.53
637.57	1714.15
637.76	1732.58
637.95	1699.81
638.14	1691.62
638.33	1697.77
638.52	1718.25
638.71	1621.99
638.89	1683.43
639.08	1822.69
639.27	1781.73
639.46	1724.39
639.65	1785.83
639.84	1726.44
640.03	1789.92
640.22	1665.00
640.41	1886.18
640.60	1677.29
640.79	1650.66
640.98	1751.01
641.17	1763.30
641.36	1775.59
641.55	1744.87
641.74	1648.61
641.92	1654.76
642.11	1642.47
642.30	1724.39
642.49	1705.96
642.68	1615.85
642.87	1798.12
643.06	1728.49
643.25	1701.86
643.44	1701.86
643.63	1708.01
643.82	1808.36
644.00	1654.76
644.19	1724.39
644.38	1656.81
644.57	1767.40
644.76	1697.77
644.95	1699.81
645.14	1712.10
645.33	1648.61
645.52	1777.64
645.71	1658.85
645.89	1705.96
646.08	1775.59
646.27	1710.05
646.46	1832.93
646.65	1662.95
646.84	1697.77
647.03	1701.86
647.22	1810.40
647.40	1720.29
647.59	1726.44
647.78	1624.04
647.97	1642.47
648.16	1697.77
648.35	1708.01
648.54	1869.80
648.73	1705.96
648.91	1744.87
649.10	1746.92
649.29	1642.47
649.48	1722.34
649.67	1710.05
649.86	1757.16
650.05	1714.15
650.23	1828.84
650.42	1640.42
650.61	1748.97
650.80	1783.78
650.99	1851.36
651.18	1751.01
651.36	1845.22
651.55	1710.05
651.74	1730.53
651.93	1669.09
652.12	1701.86
652.31	1738.73
652.49	1628.14
652.68	1640.42
652.87	1724.39
653.06	1705.96
653.25	1804.26
653.44	1685.48
653.62	1714.15
653.81	1703.91
654.00	1744.87
654.19	1726.44
654.38	1794.02
654.56	1736.68
654.75	1648.61
654.94	1654.76
655.13	1705.96
655.32	1703.91
655.51	1810.40
655.69	1615.85
655.88	1753.06
656.07	1671.14
656.26	1763.30
656.45	1617.90
656.63	1720.29
656.82	1685.48
657.01	1724.39
657.20	1724.39
657.38	1845.22
657.57	1714.15
657.76	1685.48
657.95	1791.97
658.14	1671.14
658.32	1767.40
658.51	1646.57
658.70	1687.53
658.89	1771.49
659.08	1658.85
659.26	1757.16
659.45	1671.14
659.64	1685.48
659.83	1646.57
660.01	1906.66
660.20	1673.19
660.39	1861.60
660.58	1646.57
660.76	1765.35
660.95	1679.33
661.14	1722.34
661.33	1675.24
661.51	1738.73
661.70	1656.81
661.89	1763.30
662.08	1683.43
662.26	1728.49
662.45	1689.57
662.64	1839.08
662.83	1800.16
663.01	1640.42
663.20	1732.58
663.39	1806.31
663.58	1677.29
663.76	1724.39
663.95	1708.01
664.14	1646.57
664.32	1673.19
664.51	1681.38
664.70	1617.90
664.89	1769.44
665.07	1695.72
665.26	1773.54
665.45	1644.52
665.64	1781.73
665.82	1761.25
666.01	1763.30
666.20	1718.25
666.38	1730.53
666.57	1771.49
666.76	2150.37
666.95	4474.81
667.13	10227.56
667.32	15118.11
667.51	17575.67
667.69	18544.36
667.88	17291.00
668.07	12013.38
668.25	9342.83
668.44	7894.92
668.63	7190.42
668.81	6655.90
669.00	6057.89
669.19	5484.46
669.38	5070.77
669.56	4446.14
669.75	3831.75
669.94	3413.96
670.12	2922.45
670.31	2547.67
670.50	2234.33
670.68	2047.97
670.87	1935.33
671.06	1845.22
671.24	1865.70
671.43	1763.30
671.62	1714.15
671.80	1726.44
671.99	1660.90
672.18	1695.72
672.36	1822.69
672.55	1796.07
672.74	1658.85
672.92	1654.76
673.11	1746.92
673.29	1665.00
673.48	1818.60
673.67	1660.90
673.85	1738.73
674.04	1751.01
674.23	1730.53
674.41	1773.54
674.60	1730.53
674.79	1589.22
674.97	1681.38
675.16	1671.14
675.34	1890.28
675.53	1699.81
675.72	1701.86
675.90	1834.98
676.09	1732.58
676.28	1771.49
676.46	1566.70
676.65	1718.25
676.83	1634.28
677.02	1761.25
677.21	1650.66
677.39	1761.25
677.58	1740.77
677.77	1742.82
677.95	1701.86
678.14	1714.15
678.32	1724.39
678.51	1736.68
678.70	1871.84
678.88	1695.72
679.07	1710.05
679.25	1681.38
679.44	1703.91
679.63	1636.33
679.81	1724.39
680.00	1785.83
680.18	1748.97
680.37	1839.08
680.55	1751.01
680.74	1714.15
680.93	1638.38
681.11	1779.68
681.30	1705.96
681.48	1691.62
681.67	1665.00
681.85	1701.86
682.04	1669.09
682.23	1734.63
682.41	1796.07
682.60	1652.71
682.78	1681.38
682.97	1699.81
683.15	1783.78
683.34	1742.82
683.53	1779.68
683.71	1697.77
683.90	1822.69
684.08	1742.82
684.27	1740.77
684.45	1755.11
684.64	1796.07
684.82	1812.45
685.01	1730.53
685.19	1740.77
685.38	1730.53
685.57	1763.30
685.75	1656.81
685.94	1738.73
686.12	1691.62
686.31	1712.10
686.49	1832.93
686.68	1656.81
686.86	1742.82
687.05	1662.95
687.23	1804.26
687.42	1687.53
687.60	1648.61
687.79	1779.68
687.97	1808.36
688.16	1710.05
688.34	1802.21
688.53	1619.94
688.71	1744.87
688.90	1783.78
689.08	1697.77
689.27	1669.09
689.45	1734.63
689.64	1773.54
689.82	1808.36
690.01	1839.08
690.19	1687.53
690.38	1744.87
690.56	1753.06
690.75	1687.53
690.93	1658.85
691.12	1632.23
691.30	1714.15
691.49	1589.22
691.67	1757.16
691.86	1753.06
692.04	1710.05
692.23	1632.23
692.41	1724.39
692.60	1738.73
692.78	1789.92
692.97	1712.10
693.15	1716.20
693.34	1804.26
693.52	1796.07
693.71	1679.33
693.89	1705.96
694.08	1632.23
694.26	1662.95
694.44	1691.62
694.63	1718.25
694.81	1638.38
695.00	1662.95
695.18	1744.87
695.37	1855.46
695.55	1746.92
695.74	1689.57
695.92	1673.19
696.10	1765.35
696.29	1673.19
696.47	1636.33
696.66	1658.85
696.84	1705.96
697.03	1675.24
697.21	1837.03
697.40	2357.21
697.58	1740.77
697.76	1728.49
697.95	1681.38
698.13	1601.51
698.32	1597.42
698.50	1738.73
698.68	1775.59
698.87	1730.53
699.05	1771.49
699.24	1708.01
699.42	1628.14
699.61	1677.29
699.79	1732.58
699.97	1726.44
700.16	1615.85
700.34	1665.00
700.53	1718.25
700.71	1755.11
700.89	1759.21
701.08	1722.34
701.26	1751.01
701.45	2043.87
701.63	1617.90
701.81	1728.49
702.00	1699.81
702.18	1689.57
702.37	1732.58
702.55	1787.88
702.73	1699.81
702.92	1605.61
703.10	1763.30
703.28	1701.86
703.47	1681.38
703.65	1826.79
703.84	1763.30
704.02	1712.10
704.20	1820.64
704.39	1644.52
704.57	1716.20
704.75	1783.78
704.94	1738.73
705.12	1691.62
705.30	1775.59
705.49	2183.13
705.67	4448.19
705.86	9326.45
706.04	12392.26
706.22	14253.86
706.41	15197.98
706.59	13530.93
706.77	9305.97
706.96	7255.95
707.14	6391.71
707.32	5826.47
707.51	5572.52
707.69	4859.83
707.87	4130.75
708.06	3590.09
708.24	2977.75
708.42	2410.46
708.61	2254.81
708.79	1927.14
708.97	1855.46
709.16	1787.88
709.34	1832.93
709.52	1662.95
709.71	1785.83
709.89	1736.68
710.07	1712.10
710.26	1613.80
710.44	1718.25
710.62	1785.83
710.80	1634.28
710.99	1796.07
711.17	1757.16
711.35	1689.57
711.54	1673.19
711.72	1751.01
711.90	1730.53
712.09	1781.73
712.27	1640.42
712.45	1703.91
712.63	1712.10
712.82	1697.77
713.00	1677.29
713.18	1699.81
713.37	1783.78
713.55	1791.97
713.73	1834.98
713.91	1710.05
714.10	1751.01
714.28	1746.92
714.46	1798.12
714.65	1744.87
714.83	1705.96
715.01	1675.24
715.19	1742.82
715.38	1669.09
715.56	1716.20
715.74	1650.66
715.92	1644.52
716.11	1861.60
716.29	1630.18
716.47	1757.16
716.65	1658.85
716.84	1656.81
717.02	1802.21
717.20	1581.03
717.38	1736.68
717.57	1773.54
717.75	1677.29
717.93	1667.05
718.11	1814.50
718.30	1601.51
718.48	1755.11
718.66	1777.64
718.84	1746.92
719.03	1693.67
719.21	1562.60
719.39	1744.87
719.57	1816.55
719.75	1791.97
719.94	1705.96
720.12	1730.53
720.30	1777.64
720.48	1648.61
720.67	1726.44
720.85	1583.08
721.03	1624.04
721.21	1660.90
721.39	1779.68
721.58	1753.06
721.76	1775.59
721.94	1718.25
722.12	1738.73
722.30	1755.11
722.49	1714.15
722.67	1736.68
722.85	1810.40
723.03	1624.04
723.21	1695.72
723.40	1710.05
723.58	1828.84
723.76	1763.30
723.94	1753.06
724.12	1626.09
724.30	1748.97
724.49	1732.58
724.67	1599.46
724.85	1820.64
725.03	1570.79
725.21	1736.68
725.40	1826.79
725.58	1677.29
725.76	1789.92
725.94	1779.68
726.12	1695.72
726.30	1699.81
726.49	1746.92
726.67	1796.07
726.85	1724.39
727.03	1765.35
727.21	2129.89
727.39	2910.16
727.57	3794.89
727.76	4184.00
727.94	4315.07
728.12	4325.31
728.30	3594.19
728.48	2879.44
728.66	2736.09
728.84	2455.51
729.03	2211.81
729.21	2148.32
729.39	2054.11
729.57	1781.73
729.75	1767.40
729.93	1765.35
730.11	1718.25
730.30	1673.19
730.48	1736.68
730.66	1853.41
730.84	1685.48
731.02	1671.14
731.20	1665.00
731.38	1755.11
731.56	1646.57
731.74	1628.14
731.93	1738.73
732.11	1685.48
732.29	1642.47
732.47	1677.29
732.65	1675.24
732.83	1775.59
733.01	1775.59
733.19	1652.71
733.37	1755.11
733.56	1785.83
733.74	1656.81
733.92	1841.12
734.10	1667.05
734.28	1687.53
734.46	1505.26
734.64	1669.09
734.82	1763.30
735.00	1697.77
735.18	1691.62
735.36	1705.96
735.54	1751.01
735.73	1679.33
735.91	1712.10
736.09	1736.68
736.27	1662.95
736.45	1693.67
736.63	1589.22
736.81	1656.81
736.99	1759.21
737.17	1779.68
737.35	1613.80
737.53	1730.53
737.71	1740.77
737.89	1798.12
738.07	1705.96
738.25	1695.72
738.43	1689.57
738.61	1714.15
738.80	1673.19
738.98	1652.71
739.16	1742.82
739.34	1669.09
739.52	1804.26
739.70	1734.63
739.88	1687.53
740.06	1841.12
740.24	1595.37
740.42	1712.10
740.60	1583.08
740.78	1767.40
740.96	1615.85
741.14	1642.47
741.32	1652.71
741.50	1662.95
741.68	1920.99
741.86	1816.55
742.04	1671.14
742.22	1646.57
742.40	1763.30
742.58	1804.26
742.76	1632.23
742.94	1689.57
743.12	1591.27
743.30	1726.44
743.48	1726.44
743.66	1697.77
743.84	1705.96
744.02	1724.39
744.20	1644.52
744.38	1599.46
744.56	1617.90
744.74	1796.07
744.92	1679.33
745.10	1806.31
745.28	1773.54
745.46	1808.36
745.64	1665.00
745.82	1779.68
746.00	1791.97
746.18	1705.96
746.36	1648.61
746.54	1742.82
746.72	1705.96
746.90	1650.66
747.08	1765.35
747.26	1714.15
747.44	1746.92
747.62	1785.83
747.80	1738.73
747.98	1671.14
748.15	1748.97
748.33	1818.60
748.51	1679.33
748.69	1691.62
748.87	1638.38
749.05	1734.63
749.23	1757.16
749.41	1746.92
749.59	1636.33
749.77	1773.54
749.95	1693.67
750.13	1597.42
750.31	1763.30
750.49	1648.61
750.67	1769.44
750.85	1804.26
751.03	1808.36
751.20	1773.54
751.38	1683.43
751.56	1681.38
751.74	1712.10
751.92	1724.39
752.10	1617.90
752.28	1740.77
752.46	1746.92
752.64	1689.57
752.82	1708.01
753.00	1742.82
753.18	1681.38
753.35	1675.24
753.53	1699.81
753.71	1693.67
753.89	1777.64
754.07	1689.57
754.25	1769.44
754.43	1818.60
754.61	1708.01
754.79	1794.02
754.97	1689.57
755.14	1804.26
755.32	1695.72
755.50	1716.20
755.68	1708.01
755.86	1603.56
756.04	1673.19
756.22	1603.56
756.40	1794.02
756.57	1839.08
756.75	1677.29
756.93	1873.89
757.11	1820.64
757.29	1648.61
757.47	1601.51
757.65	1595.37
757.82	1589.22
758.00	1685.48
758.18	1675.24
758.36	1646.57
758.54	1806.31
758.72	1642.47
758.90	1771.49
759.07	1759.21
759.25	1615.85
759.43	1675.24
759.61	1626.09
759.79	2207.71
759.97	1761.25
760.15	1701.86
760.32	1697.77
760.50	1712.10
760.68	1787.88
760.86	1636.33
761.04	1808.36
761.22	1738.73
761.39	1634.28
761.57	1744.87
761.75	1644.52
761.93	1667.05
762.11	1722.34
762.28	1695.72
762.46	1624.04
762.64	1730.53
762.82	1634.28
763.00	1691.62
763.18	1742.82
763.35	1646.57
763.53	1701.86
763.71	1644.52
763.89	1710.05
764.07	1677.29
764.24	1665.00
764.42	1777.64
764.60	1628.14
764.78	1761.25
764.96	1722.34
765.13	1767.40
765.31	1675.24
765.49	1759.21
765.67	1615.85
765.84	1630.18
766.02	1654.76
766.20	1660.90
766.38	1691.62
766.56	1781.73
766.73	1779.68
766.91	1677.29
767.09	1728.49
767.27	1808.36
767.44	1720.29
767.62	1714.15
767.80	1691.62
767.98	1734.63
768.15	1771.49
768.33	1708.01
768.51	1779.68
768.69	1701.86
768.87	1779.68
769.04	1695.72
769.22	1834.98
769.40	1771.49
769.58	1837.03
769.75	1759.21
769.93	1724.39
770.11	1669.09
770.28	1667.05
770.46	1761.25
770.64	1736.68
770.82	1644.52
770.99	1767.40
771.17	1726.44
771.35	1701.86
771.53	1736.68
771.70	1755.11
771.88	1683.43
772.06	1693.67
772.23	1681.38
772.41	1828.84
772.59	1675.24
772.77	1685.48
772.94	1648.61
773.12	1779.68
773.30	1662.95
773.47	1777.64
773.65	1669.09
773.83	1730.53
774.01	1656.81
774.18	1644.52
774.36	1685.48
774.54	1662.95
774.71	1769.44
774.89	1599.46
775.07	1681.38
775.24	1730.53
775.42	1667.05
775.60	1773.54
775.78	1656.81
775.95	1652.71
776.13	1619.94
776.31	1556.46
776.48	1646.57
776.66	1767.40
776.84	1701.86
777.01	1708.01
777.19	1644.52
777.37	1669.09
777.54	1738.73
777.72	1820.64
777.90	1630.18
778.07	1656.81
778.25	1918.95
778.43	1767.40
778.60	1673.19
778.78	1720.29
778.96	1785.83
779.13	1599.46
779.31	1816.55
779.49	1755.11
779.66	1730.53
779.84	1695.72
780.01	1759.21
780.19	1640.42
780.37	1703.91
780.54	1734.63
780.72	1665.00
780.90	1665.00
781.07	1617.90
781.25	1619.94
781.43	1765.35
781.60	1712.10
781.78	1732.58
781.95	1724.39
782.13	1601.51
782.31	1675.24
782.48	1593.32
782.66	1681.38
782.83	1787.88
783.01	1662.95
783.19	1730.53
783.36	1697.77
783.54	1560.55
783.72	1785.83
783.89	1753.06
784.07	1654.76
784.24	1755.11
784.42	1800.16
784.60	1751.01
784.77	1687.53
784.95	1648.61
785.12	1687.53
785.30	1687.53
785.47	1705.96
785.65	1673.19
785.83	1718.25
786.00	1689.57
786.18	1691.62
786.35	1716.20
786.53	1677.29
786.71	1785.83
786.88	1796.07
787.06	1736.68
787.23	1669.09
787.41	1591.27
787.58	1728.49
787.76	1683.43
787.94	1714.15
788.11	1765.35
788.29	1652.71
788.46	1679.33
788.64	1603.56
788.81	1654.76
788.99	1619.94
789.16	1656.81
789.34	1705.96
789.52	1650.66
789.69	1695.72
789.87	1671.14
790.04	1630.18
790.22	1744.87
790.39	1787.88
790.57	1669.09
790.74	1613.80
790.92	1789.92
791.09	1658.85
791.27	1757.16
791.44	1757.16
791.62	1697.77
791.79	1791.97
791.97	1699.81
792.15	1886.18
792.32	1722.34
792.50	1822.69
792.67	1728.49
792.85	1763.30
793.02	1640.42
793.20	1671.14
793.37	1613.80
793.55	1730.53
793.72	1615.85
793.90	1789.92
794.07	1683.43
794.25	1599.46
794.42	1669.09
794.60	1712.10
794.77	1728.49
794.95	1714.15
795.12	1724.39
795.30	1777.64
795.47	1583.08
795.65	1904.61
795.82	1751.01
796.00	1673.19
796.17	1708.01
796.34	1746.92
796.52	1714.15
796.69	1714.15
796.87	1683.43
797.04	1699.81
797.22	1720.29
797.39	1738.73
797.57	1730.53
797.74	1705.96
797.92	1675.24
798.09	1621.99
798.27	1755.11
798.44	1751.01
798.62	1732.58
798.79	1669.09
798.96	1722.34
799.14	1669.09
799.31	1845.22
799.49	1656.81
799.66	1605.61
799.84	1771.49
800.01	1611.75
800.19	1703.91
800.36	1593.32
800.53	1685.48
800.71	1701.86
800.88	1753.06
801.06	1710.05
801.23	1705.96
801.41	1724.39
801.58	1724.39
801.75	1693.67
801.93	1640.42
802.10	1740.77
802.28	1683.43
802.45	1691.62
802.63	1705.96
802.80	1765.35
802.97	1669.09
803.15	1712.10
803.32	1658.85
803.50	1669.09
803.67	1665.00
803.84	1621.99
804.02	1650.66
804.19	1650.66
804.37	1529.83
804.54	1656.81
804.71	1683.43
804.89	1714.15
805.06	1665.00
805.24	1662.95
805.41	1675.24
805.58	1697.77
805.76	1802.21
805.93	1675.24
806.10	1734.63
806.28	1718.25
806.45	1720.29
806.63	1755.11
806.80	1722.34
806.97	1685.48
807.15	1665.00
807.32	1703.91
807.49	1669.09
807.67	1628.14
807.84	1726.44
808.01	1628.14
808.19	1808.36
808.36	1814.50
808.54	1677.29
808.71	1673.19
808.88	1708.01
809.06	1800.16
809.23	1744.87
809.40	1691.62
809.58	1806.31
809.75	1648.61
809.92	1724.39
810.10	1839.08
810.27	1675.24
810.44	1679.33
810.62	1763.30
810.79	1675.24
810.96	1624.04
811.14	1677.29
811.31	1716.20
811.48	1652.71
811.66	1734.63
811.83	1816.55
812.00	1730.53
812.18	1648.61
812.35	1806.31
812.52	1691.62
812.69	1632.23
812.87	1675.24
813.04	1710.05
813.21	1568.74
813.39	1673.19
813.56	1658.85
813.73	1775.59
813.91	1621.99
814.08	1650.66
814.25	1712.10
814.42	1581.03
814.60	1755.11
814.77	1689.57
814.94	1654.76
815.12	1734.63
815.29	1800.16
815.46	1677.29
815.63	1748.97
815.81	1691.62
815.98	1675.24
816.15	1669.09
816.33	1701.86
816.50	1687.53
816.67	1689.57
816.84	1673.19
817.02	1656.81
817.19	1699.81
817.36	1658.85
817.53	1724.39
817.71	1646.57
817.88	1736.68
818.05	1662.95
818.22	1703.91
818.40	1906.66
818.57	1691.62
818.74	1759.21
818.91	1681.38
819.09	1697.77
819.26	1689.57
819.43	1603.56
819.60	1607.66
819.78	1652.71
819.95	1800.16
820.12	1648.61
820.29	1755.11
820.47	1699.81
820.64	1617.90
820.81	1605.61
820.98	1679.33
821.15	1671.14
821.33	1740.77
821.50	1636.33
821.67	1757.16
821.84	1634.28
822.02	1763.30
822.19	1773.54
822.36	1642.47
822.53	1679.33
822.70	1652.71
822.88	1673.19
823.05	1785.83
823.22	1656.81
823.39	1755.11
823.56	1734.63
823.74	1705.96
823.91	1718.25
824.08	1660.90
824.25	1611.75
824.42	1810.40
824.60	1652.71
824.77	1677.29
824.94	1779.68
825.11	1685.48
825.28	1546.22
825.45	1693.67
825.63	1697.77
825.80	1671.14
825.97	1769.44
826.14	1681.38
826.31	1642.47
826.48	1732.58
826.66	1585.13
826.83	1669.09
827.00	1736.68
827.17	1726.44
827.34	1636.33
827.51	1720.29
827.69	1665.00
827.86	1652.71
828.03	1644.52
828.20	1667.05
828.37	1644.52
828.54	1765.35
828.71	1710.05
828.89	1746.92
829.06	1775.59
829.23	1693.67
829.40	1613.80
829.57	1673.19
829.74	1771.49
829.91	1621.99
830.09	1751.01
830.26	1734.63
830.43	1816.55
830.60	1656.81
830.77	1734.63
830.94	1759.21
831.11	1751.01
831.28	1722.34
831.46	1734.63
831.63	1658.85
831.80	1726.44
831.97	1701.86
832.14	1693.67
832.31	1779.68
832.48	1689.57
832.65	1746.92
832.82	1820.64
832.99	1726.44
833.17	1650.66
833.34	1751.01
833.51	1705.96
833.68	1544.17
833.85	1769.44
834.02	1632.23
834.19	1703.91
834.36	1613.80
834.53	1800.16
834.70	1759.21
834.87	1763.30
835.04	1679.33
835.22	1697.77
835.39	1646.57
835.56	1687.53
835.73	1644.52
835.90	1742.82
836.07	1624.04
836.24	1759.21
836.41	1669.09
836.58	1548.26
836.75	1730.53
836.92	1783.78
837.09	1591.27
837.26	1824.74
837.43	1726.44
837.60	1804.26
837.77	1685.48
837.94	1689.57
838.12	1789.92
838.29	1679.33
838.46	1632.23
838.63	1613.80
838.80	1822.69
838.97	1734.63
839.14	1716.20
839.31	1724.39
839.48	1722.34
839.65	1662.95
839.82	1701.86
839.99	1685.48
840.16	1712.10
840.33	1726.44
840.50	1732.58
840.67	1677.29
840.84	1525.74
841.01	1726.44
841.18	1679.33
841.35	1708.01
841.52	1718.25
841.69	1845.22
841.86	1699.81
842.03	1718.25
842.20	1783.78
842.37	1632.23
842.54	1755.11
842.71	1677.29
842.88	1628.14
843.05	1757.16
843.22	1742.82
843.39	1720.29
843.56	1583.08
843.73	1656.81
843.90	1710.05
844.07	1662.95
844.24	1767.40
844.41	1732.58
844.58	1763.30
844.75	1673.19
844.92	1738.73
845.09	1658.85
845.26	1640.42
845.43	1787.88
845.60	1726.44
845.77	1732.58
845.94	1714.15
846.10	1730.53
846.27	1558.50
846.44	1644.52
846.61	1681.38
846.78	1695.72
846.95	1767.40
847.12	1730.53
847.29	1677.29
847.46	1644.52
847.63	1800.16
847.80	1687.53
847.97	1763.30
848.14	1857.51
848.31	1669.09
848.48	1593.32
848.65	1685.48
848.82	1691.62
848.98	1849.32
849.15	1646.57
849.32	1828.84
849.49	1712.10
849.66	1624.04
849.83	1746.92
850.00	1583.08
850.17	1656.81
850.34	1654.76
850.51	1685.48
850.68	1685.48
850.85	1828.84
851.01	1681.38
851.18	1683.43
851.35	1728.49
851.52	1802.21
851.69	1728.49
851.86	1648.61
852.03	1685.48
852.20	1722.34
852.37	1685.48
852.53	1636.33
852.70	1673.19
852.87	1613.80
853.04	1716.20
853.21	1646.57
853.38	1742.82
853.55	1777.64
853.72	1746.92
853.89	1609.70
854.05	1656.81
854.22	1611.75
854.39	1673.19
854.56	1728.49
854.73	1720.29
854.90	1599.46
855.07	1714.15
855.23	1697.77
855.40	1699.81
855.57	1632.23
855.74	1656.81
855.91	1865.70
856.08	1558.50
856.25	1677.29
856.41	1734.63
856.58	1685.48
856.75	1652.71
856.92	1593.32
857.09	1722.34
857.26	1638.38
857.42	1652.71
857.59	1753.06
857.76	1632.23
857.93	1712.10
858.10	1687.53
858.27	1593.32
858.43	1591.27
858.60	1642.47
858.77	1617.90
858.94	1667.05
859.11	1744.87
859.27	1648.61
859.44	1665.00
859.61	1794.02
859.78	1771.49
859.95	1701.86
860.12	1703.91
860.28	1781.73
860.45	1861.60
860.62	1542.12
860.79	1691.62
860.95	1705.96
861.12	1718.25
861.29	1722.34
861.46	1669.09
861.63	1681.38
861.79	1697.77
861.96	1640.42
862.13	1646.57
862.30	1701.86
862.47	1677.29
862.63	1712.10
862.80	1677.29
862.97	1691.62
863.14	1734.63
863.30	1712.10
863.47	1724.39
863.64	1748.97
863.81	1736.68
863.97	1630.18
864.14	1742.82
864.31	1720.29
864.48	1753.06
864.65	1638.38
864.81	1765.35
864.98	1718.25
865.15	1773.54
865.32	1714.15
865.48	1783.78
865.65	1871.84
865.82	1669.09
865.98	1775.59
866.15	1767.40
866.32	1675.24
866.49	1644.52
866.65	1787.88
866.82	1615.85
866.99	1787.88
867.16	1638.38
867.32	1656.81
867.49	1671.14
867.66	1624.04
867.83	1646.57
867.99	1644.52
868.16	1691.62
868.33	1587.18
868.49	1710.05
868.66	1667.05
868.83	1714.15
868.99	1677.29
869.16	1665.00
869.33	1708.01
869.50	1773.54
869.66	1724.39
869.83	1736.68
870.00	1675.24
870.16	1720.29
870.33	1705.96
870.50	1771.49
870.66	1769.44
870.83	1843.17
871.00	1697.77
871.17	1775.59
871.33	1759.21
871.50	1744.87
871.67	1689.57
871.83	1667.05
872.00	1824.74
872.17	1605.61
872.33	1738.73
872.50	1789.92
872.67	1673.19
872.83	1714.15
873.00	1705.96
873.17	1796.07
873.33	1703.91
873.50	1748.97
873.67	1611.75
873.83	1675.24
874.00	1679.33
874.16	1763.30
874.33	1730.53
874.50	1619.94
874.66	1697.77
874.83	1687.53
875.00	1785.83
875.16	1767.40
875.33	1871.84
875.50	1617.90
875.66	1708.01
875.83	1699.81
875.99	1724.39
876.16	1609.70
876.33	1714.15
876.49	1712.10
876.66	1789.92
876.83	1646.57
876.99	1652.71
877.16	1751.01
877.32	1646.57
877.49	1652.71
877.66	1720.29
877.82	1763.30
877.99	1691.62
878.15	1712.10
878.32	1744.87
878.49	1794.02
878.65	1619.94
878.82	1783.78
878.98	1595.37
879.15	1720.29
879.32	1710.05
879.48	1738.73
879.65	1728.49
879.81	1730.53
879.98	1640.42
880.15	1705.96
880.31	1730.53
880.48	1667.05
880.64	1789.92
880.81	1720.29
880.97	1794.02
881.14	1718.25
881.31	1617.90
881.47	1841.12
881.64	1703.91
881.80	1611.75
881.97	1716.20
882.13	1701.86
882.30	1648.61
882.47	1640.42
882.63	1636.33
882.80	1701.86
882.96	1640.42
883.13	1804.26
883.29	1693.67
883.46	1720.29
883.62	1744.87
883.79	1675.24
883.95	1753.06
884.12	1691.62
884.29	1789.92
884.45	1798.12
884.62	1732.58
884.78	1665.00
884.95	1751.01
885.11	1667.05
885.28	1683.43
885.44	1660.90
885.61	1748.97
885.77	1845.22
885.94	1738.73
886.10	1740.77
886.27	1679.33
886.43	1814.50
886.60	1697.77
886.76	1673.19
886.93	1619.94
887.09	1689.57
887.26	1578.98
887.42	1693.67
887.59	1626.09
887.75	1781.73
887.92	1800.16
888.08	1732.58
888.25	1765.35
888.41	1763.30
888.58	1820.64
888.74	1665.00
888.91	1697.77
>>>>>End Processed Spectral Data<<<<<
