SpectraSuite Data File
++++++++++++++++++++++++++++++++++++
Date: Mon Jun 06 13:42:17 CEST 2016
User: root
Dark Spectrum Present: No
Reference Spectrum Present: No
Number of Sampled Component Spectra: 1
Spectrometers: USB4C02835
Integration Time (usec): 100000 (USB4C02835)
Spectra Averaged: 1 (USB4C02835)
Boxcar Smoothing: 0 (USB4C02835)
Correct for Electrical Dark: No (USB4C02835)
Strobe/Lamp Enabled: No (USB4C02835)
Correct for Detector Non-linearity: No (USB4C02835)
Correct for Stray Light: No (USB4C02835)
Number of Pixels in Processed Spectrum: 3648
>>>>>Begin Processed Spectral Data<<<<<
177.47	1421.29
177.69	1421.29
177.91	1421.29
178.13	1427.43
178.36	1495.02
178.58	1658.85
178.80	1689.57
179.02	1611.75
179.24	1732.58
179.46	1654.76
179.68	1787.88
179.90	1755.11
180.13	1652.71
180.35	1658.85
180.57	1689.57
180.79	1794.02
181.01	1599.46
181.23	1742.82
181.45	1755.11
181.67	1736.68
181.90	1722.34
182.12	1619.94
182.34	1591.27
182.56	1761.25
182.78	1681.38
183.00	1718.25
183.22	1650.66
183.44	1675.24
183.66	1857.51
183.89	1849.32
184.11	1677.29
184.33	1724.39
184.55	1742.82
184.77	1675.24
184.99	1687.53
185.21	1726.44
185.43	1820.64
185.65	1621.99
185.87	1669.09
186.10	1837.03
186.32	1812.45
186.54	1683.43
186.76	1712.10
186.98	1744.87
187.20	1716.20
187.42	1652.71
187.64	1771.49
187.86	1785.83
188.08	1699.81
188.30	1652.71
188.52	1744.87
188.75	1748.97
188.97	1738.73
189.19	1679.33
189.41	1722.34
189.63	1722.34
189.85	1665.00
190.07	1593.32
190.29	1634.28
190.51	1832.93
190.73	1566.70
190.95	1720.29
191.17	1730.53
191.39	1630.18
191.61	1597.42
191.84	1619.94
192.06	1783.78
192.28	1550.31
192.50	1931.23
192.72	1697.77
192.94	1644.52
193.16	1742.82
193.38	1695.72
193.60	1652.71
193.82	1675.24
194.04	1789.92
194.26	1708.01
194.48	1740.77
194.70	1636.33
194.92	1640.42
195.14	1726.44
195.36	1636.33
195.58	1673.19
195.80	1632.23
196.02	1697.77
196.24	1658.85
196.46	1705.96
196.69	1646.57
196.91	1798.12
197.13	1720.29
197.35	1648.61
197.57	1796.07
197.79	1753.06
198.01	1644.52
198.23	1716.20
198.45	1718.25
198.67	1665.00
198.89	1701.86
199.11	1705.96
199.33	1656.81
199.55	1570.79
199.77	1703.91
199.99	1742.82
200.21	1736.68
200.43	1697.77
200.65	1589.22
200.87	1570.79
201.09	1646.57
201.31	1693.67
201.53	1779.68
201.75	1609.70
201.97	1796.07
202.19	1773.54
202.41	1736.68
202.63	1740.77
202.85	1753.06
203.07	1648.61
203.29	1683.43
203.51	1656.81
203.73	1632.23
203.95	1861.60
204.17	1658.85
204.39	1771.49
204.61	1675.24
204.83	1679.33
205.05	1816.55
205.27	1730.53
205.49	1822.69
205.71	1718.25
205.93	1677.29
206.15	1701.86
206.37	1675.24
206.59	1624.04
206.81	1621.99
207.03	1640.42
207.25	1613.80
207.47	1714.15
207.69	1607.66
207.91	1748.97
208.13	1712.10
208.34	1675.24
208.56	1640.42
208.78	1667.05
209.00	1708.01
209.22	1726.44
209.44	1697.77
209.66	1746.92
209.88	1644.52
210.10	1699.81
210.32	1677.29
210.54	1783.78
210.76	1654.76
210.98	1748.97
211.20	1576.94
211.42	1669.09
211.64	1746.92
211.86	1755.11
212.08	1820.64
212.30	1738.73
212.52	1703.91
212.74	1615.85
212.96	1673.19
213.17	1722.34
213.39	1822.69
213.61	1806.31
213.83	1730.53
214.05	1656.81
214.27	1783.78
214.49	1578.98
214.71	1607.66
214.93	1771.49
215.15	1679.33
215.37	1783.78
215.59	1589.22
215.81	1718.25
216.03	1695.72
216.24	1708.01
216.46	1593.32
216.68	1718.25
216.90	1771.49
217.12	1720.29
217.34	1673.19
217.56	1736.68
217.78	1775.59
218.00	1708.01
218.22	1703.91
218.44	1689.57
218.66	1640.42
218.87	1722.34
219.09	1673.19
219.31	1748.97
219.53	1720.29
219.75	1685.48
219.97	1746.92
220.19	1740.77
220.41	1628.14
220.63	1796.07
220.85	1710.05
221.06	1665.00
221.28	1834.98
221.50	1665.00
221.72	1720.29
221.94	1714.15
222.16	1679.33
222.38	1755.11
222.60	1773.54
222.82	1728.49
223.03	1796.07
223.25	1677.29
223.47	1775.59
223.69	1798.12
223.91	1726.44
224.13	1681.38
224.35	1755.11
224.57	1683.43
224.78	1738.73
225.00	1705.96
225.22	1636.33
225.44	1681.38
225.66	1695.72
225.88	1611.75
226.10	1751.01
226.32	1726.44
226.53	1906.66
226.75	1675.24
226.97	1734.63
227.19	1613.80
227.41	1665.00
227.63	1683.43
227.85	1615.85
228.06	1765.35
228.28	1726.44
228.50	1693.67
228.72	1599.46
228.94	1683.43
229.16	1660.90
229.37	1654.76
229.59	1654.76
229.81	1769.44
230.03	1730.53
230.25	1599.46
230.47	1693.67
230.69	1689.57
230.90	1714.15
231.12	1656.81
231.34	1693.67
231.56	1746.92
231.78	1634.28
232.00	1681.38
232.21	1710.05
232.43	1660.90
232.65	1560.55
232.87	1726.44
233.09	1736.68
233.30	1681.38
233.52	1703.91
233.74	1677.29
233.96	1675.24
234.18	1656.81
234.40	1765.35
234.61	1816.55
234.83	1626.09
235.05	1634.28
235.27	1847.27
235.49	1742.82
235.70	1662.95
235.92	1812.45
236.14	1703.91
236.36	1859.56
236.58	1705.96
236.79	1669.09
237.01	1691.62
237.23	1714.15
237.45	1771.49
237.67	1619.94
237.88	1759.21
238.10	1800.16
238.32	1683.43
238.54	1656.81
238.76	1615.85
238.97	1677.29
239.19	1662.95
239.41	1746.92
239.63	1763.30
239.85	1691.62
240.06	1705.96
240.28	1697.77
240.50	1718.25
240.72	1718.25
240.93	1710.05
241.15	1769.44
241.37	1759.21
241.59	1734.63
241.81	1699.81
242.02	1601.51
242.24	1769.44
242.46	1765.35
242.68	1652.71
242.89	1720.29
243.11	1798.12
243.33	1687.53
243.55	1742.82
243.76	1769.44
243.98	1710.05
244.20	1669.09
244.42	1730.53
244.64	1738.73
244.85	1607.66
245.07	1617.90
245.29	1767.40
245.51	1716.20
245.72	1718.25
245.94	1808.36
246.16	1673.19
246.38	1736.68
246.59	1699.81
246.81	1689.57
247.03	1703.91
247.24	1564.65
247.46	1667.05
247.68	1765.35
247.90	1708.01
248.11	1648.61
248.33	1751.01
248.55	1712.10
248.77	1675.24
248.98	1775.59
249.20	1751.01
249.42	1697.77
249.64	1718.25
249.85	1736.68
250.07	1658.85
250.29	1685.48
250.50	1765.35
250.72	1615.85
250.94	1656.81
251.16	1775.59
251.37	1814.50
251.59	1665.00
251.81	1755.11
252.02	1830.88
252.24	1632.23
252.46	1789.92
252.68	1603.56
252.89	1724.39
253.11	1656.81
253.33	1837.03
253.54	1736.68
253.76	1583.08
253.98	1755.11
254.20	1722.34
254.41	1570.79
254.63	1730.53
254.85	1644.52
255.06	1665.00
255.28	1775.59
255.50	1658.85
255.71	1683.43
255.93	1658.85
256.15	1718.25
256.36	1775.59
256.58	1658.85
256.80	1740.77
257.02	1687.53
257.23	1654.76
257.45	1701.86
257.67	1736.68
257.88	1722.34
258.10	1687.53
258.32	1771.49
258.53	1744.87
258.75	1742.82
258.97	1728.49
259.18	1660.90
259.40	1626.09
259.62	1722.34
259.83	1740.77
260.05	1689.57
260.27	2031.58
260.48	1769.44
260.70	1679.33
260.92	1718.25
261.13	1724.39
261.35	1667.05
261.57	1746.92
261.78	1665.00
262.00	1691.62
262.22	1734.63
262.43	1585.13
262.65	1669.09
262.86	1658.85
263.08	1853.41
263.30	1722.34
263.51	1669.09
263.73	1665.00
263.95	1759.21
264.16	1687.53
264.38	1701.86
264.60	1728.49
264.81	1679.33
265.03	1738.73
265.25	1759.21
265.46	1716.20
265.68	1746.92
265.89	1710.05
266.11	1646.57
266.33	1740.77
266.54	1765.35
266.76	1695.72
266.98	1728.49
267.19	1673.19
267.41	1724.39
267.62	1697.77
267.84	1591.27
268.06	1740.77
268.27	1800.16
268.49	1722.34
268.70	1671.14
268.92	1624.04
269.14	1638.38
269.35	1638.38
269.57	1679.33
269.79	1650.66
270.00	1656.81
270.22	1880.04
270.43	1634.28
270.65	1603.56
270.87	1722.34
271.08	1718.25
271.30	1824.74
271.51	1693.67
271.73	1697.77
271.95	1744.87
272.16	1744.87
272.38	1716.20
272.59	1695.72
272.81	1638.38
273.02	1718.25
273.24	1708.01
273.46	1787.88
273.67	1626.09
273.89	1738.73
274.10	1671.14
274.32	1763.30
274.54	1722.34
274.75	1658.85
274.97	1667.05
275.18	1703.91
275.40	1718.25
275.61	1755.11
275.83	1751.01
276.05	1613.80
276.26	1759.21
276.48	1742.82
276.69	1705.96
276.91	1689.57
277.12	1775.59
277.34	1736.68
277.55	1787.88
277.77	1740.77
277.99	1673.19
278.20	1589.22
278.42	1624.04
278.63	1703.91
278.85	1658.85
279.06	1587.18
279.28	1724.39
279.49	1730.53
279.71	1642.47
279.93	1746.92
280.14	1716.20
280.36	1619.94
280.57	1759.21
280.79	1734.63
281.00	1718.25
281.22	1671.14
281.43	1691.62
281.65	1648.61
281.86	1644.52
282.08	1722.34
282.29	1826.79
282.51	1597.42
282.73	1652.71
282.94	1599.46
283.16	1798.12
283.37	1816.55
283.59	1687.53
283.80	1787.88
284.02	1667.05
284.23	1767.40
284.45	1701.86
284.66	1646.57
284.88	1699.81
285.09	1751.01
285.31	1662.95
285.52	1673.19
285.74	1624.04
285.95	1796.07
286.17	1679.33
286.38	1714.15
286.60	1628.14
286.81	1658.85
287.03	1667.05
287.24	1730.53
287.46	1765.35
287.67	1726.44
287.89	1710.05
288.10	1689.57
288.32	1746.92
288.53	1779.68
288.75	1691.62
288.96	1753.06
289.18	1626.09
289.39	1630.18
289.61	1789.92
289.82	1796.07
290.04	1714.15
290.25	1640.42
290.47	1708.01
290.68	1769.44
290.90	1804.26
291.11	1636.33
291.33	1771.49
291.54	1669.09
291.76	1619.94
291.97	1665.00
292.18	1751.01
292.40	1667.05
292.61	1662.95
292.83	1853.41
293.04	1656.81
293.26	1650.66
293.47	1597.42
293.69	1654.76
293.90	1689.57
294.12	1787.88
294.33	1718.25
294.55	1685.48
294.76	1837.03
294.97	1800.16
295.19	1853.41
295.40	1710.05
295.62	1683.43
295.83	1683.43
296.05	1697.77
296.26	1781.73
296.48	1628.14
296.69	1650.66
296.90	1695.72
297.12	1671.14
297.33	1798.12
297.55	1748.97
297.76	1781.73
297.98	1744.87
298.19	1669.09
298.41	1718.25
298.62	1722.34
298.83	1746.92
299.05	1759.21
299.26	1650.66
299.48	1646.57
299.69	1710.05
299.90	1734.63
300.12	1662.95
300.33	1730.53
300.55	1693.67
300.76	1789.92
300.98	1634.28
301.19	1701.86
301.40	1599.46
301.62	1656.81
301.83	1730.53
302.05	1714.15
302.26	1654.76
302.47	1697.77
302.69	1628.14
302.90	1771.49
303.12	1558.50
303.33	1816.55
303.54	1773.54
303.76	1667.05
303.97	1734.63
304.19	1718.25
304.40	1589.22
304.61	1738.73
304.83	1826.79
305.04	1761.25
305.26	1779.68
305.47	1648.61
305.68	1662.95
305.90	1634.28
306.11	1794.02
306.33	1662.95
306.54	1677.29
306.75	1703.91
306.97	1548.26
307.18	1669.09
307.39	1617.90
307.61	1722.34
307.82	1621.99
308.04	1656.81
308.25	1646.57
308.46	1675.24
308.68	1740.77
308.89	1613.80
309.10	1736.68
309.32	1755.11
309.53	1662.95
309.74	1699.81
309.96	1603.56
310.17	1755.11
310.39	1652.71
310.60	1742.82
310.81	1767.40
311.03	1671.14
311.24	1710.05
311.45	1712.10
311.67	1773.54
311.88	1691.62
312.09	1671.14
312.31	1570.79
312.52	1716.20
312.73	1634.28
312.95	1693.67
313.16	1630.18
313.37	1822.69
313.59	1722.34
313.80	1785.83
314.01	1816.55
314.23	1576.94
314.44	1632.23
314.65	1628.14
314.87	1685.48
315.08	1736.68
315.29	1689.57
315.51	1624.04
315.72	1675.24
315.93	1802.21
316.15	1843.17
316.36	1654.76
316.57	1703.91
316.79	1734.63
317.00	1708.01
317.21	1732.58
317.43	1658.85
317.64	1683.43
317.85	1654.76
318.07	1714.15
318.28	1699.81
318.49	1744.87
318.70	1896.42
318.92	1845.22
319.13	1802.21
319.34	1837.03
319.56	1828.84
319.77	1832.93
319.98	1779.68
320.20	1789.92
320.41	1751.01
320.62	1728.49
320.83	1609.70
321.05	1873.89
321.26	1648.61
321.47	1730.53
321.69	1787.88
321.90	1644.52
322.11	1714.15
322.32	1744.87
322.54	1683.43
322.75	1738.73
322.96	1853.41
323.18	1677.29
323.39	1595.37
323.60	1634.28
323.81	1753.06
324.03	1605.61
324.24	1767.40
324.45	1603.56
324.66	1624.04
324.88	1730.53
325.09	1810.40
325.30	1746.92
325.52	1763.30
325.73	1765.35
325.94	1693.67
326.15	1673.19
326.37	1675.24
326.58	1779.68
326.79	1736.68
327.00	1687.53
327.22	1753.06
327.43	1665.00
327.64	1636.33
327.85	1757.16
328.07	1728.49
328.28	1751.01
328.49	1656.81
328.70	1771.49
328.92	1730.53
329.13	1705.96
329.34	1656.81
329.55	1781.73
329.76	1771.49
329.98	1728.49
330.19	1822.69
330.40	1701.86
330.61	1675.24
330.83	1736.68
331.04	1628.14
331.25	1726.44
331.46	1632.23
331.68	1685.48
331.89	1722.34
332.10	1708.01
332.31	1601.51
332.52	1732.58
332.74	1703.91
332.95	1642.47
333.16	1683.43
333.37	1736.68
333.58	1660.90
333.80	1775.59
334.01	1662.95
334.22	1644.52
334.43	1667.05
334.64	1634.28
334.86	1599.46
335.07	1650.66
335.28	1775.59
335.49	1605.61
335.70	1687.53
335.92	1746.92
336.13	1820.64
336.34	1626.09
336.55	1748.97
336.76	1769.44
336.98	1662.95
337.19	1662.95
337.40	1845.22
337.61	1824.74
337.82	1621.99
338.04	1783.78
338.25	1597.42
338.46	1716.20
338.67	1710.05
338.88	1654.76
339.09	1607.66
339.31	1714.15
339.52	1697.77
339.73	1585.13
339.94	1751.01
340.15	1660.90
340.36	1626.09
340.58	1779.68
340.79	1714.15
341.00	1691.62
341.21	1644.52
341.42	1859.56
341.63	1699.81
341.85	1769.44
342.06	1695.72
342.27	1714.15
342.48	1736.68
342.69	1613.80
342.90	1771.49
343.12	1728.49
343.33	1667.05
343.54	1779.68
343.75	1744.87
343.96	1650.66
344.17	1675.24
344.38	1656.81
344.60	1671.14
344.81	1626.09
345.02	1640.42
345.23	1732.58
345.44	1742.82
345.65	1791.97
345.86	1716.20
346.07	1638.38
346.29	1669.09
346.50	1724.39
346.71	1648.61
346.92	1740.77
347.13	1779.68
347.34	1669.09
347.55	1601.51
347.76	1740.77
347.98	1566.70
348.19	1740.77
348.40	1816.55
348.61	1677.29
348.82	1757.16
349.03	1863.65
349.24	1677.29
349.45	1865.70
349.66	1650.66
349.88	1632.23
350.09	1648.61
350.30	1744.87
350.51	1789.92
350.72	1716.20
350.93	1685.48
351.14	1636.33
351.35	1779.68
351.56	1687.53
351.77	1734.63
351.99	1738.73
352.20	1744.87
352.41	1789.92
352.62	1626.09
352.83	1714.15
353.04	1779.68
353.25	1609.70
353.46	1771.49
353.67	1775.59
353.88	1648.61
354.09	1716.20
354.30	1691.62
354.52	1679.33
354.73	1617.90
354.94	1599.46
355.15	1703.91
355.36	1742.82
355.57	1644.52
355.78	1697.77
355.99	1636.33
356.20	1607.66
356.41	1746.92
356.62	1722.34
356.83	1687.53
357.04	1796.07
357.25	1660.90
357.46	1699.81
357.68	1583.08
357.89	1665.00
358.10	1777.64
358.31	1638.38
358.52	1656.81
358.73	1613.80
358.94	1566.70
359.15	1660.90
359.36	1742.82
359.57	1697.77
359.78	1738.73
359.99	1736.68
360.20	1662.95
360.41	1699.81
360.62	1689.57
360.83	1718.25
361.04	1703.91
361.25	1687.53
361.46	1828.84
361.67	1689.57
361.88	1765.35
362.09	1808.36
362.30	1744.87
362.51	1751.01
362.72	1714.15
362.93	1759.21
363.14	1765.35
363.35	1697.77
363.56	1591.27
363.78	1769.44
363.99	1673.19
364.20	1665.00
364.41	1724.39
364.62	1820.64
364.83	1720.29
365.04	1712.10
365.25	1685.48
365.46	1810.40
365.67	1673.19
365.88	1632.23
366.09	1703.91
366.30	1718.25
366.51	1691.62
366.72	1748.97
366.93	1689.57
367.14	1648.61
367.35	1724.39
367.56	1716.20
367.77	1732.58
367.98	1751.01
368.18	1722.34
368.39	1740.77
368.60	1701.86
368.81	1679.33
369.02	1705.96
369.23	1669.09
369.44	1626.09
369.65	1626.09
369.86	1740.77
370.07	1736.68
370.28	1654.76
370.49	1730.53
370.70	1773.54
370.91	1613.80
371.12	1587.18
371.33	1771.49
371.54	1691.62
371.75	1798.12
371.96	1597.42
372.17	1656.81
372.38	1695.72
372.59	1712.10
372.80	1681.38
373.01	1683.43
373.22	1693.67
373.43	1681.38
373.64	1665.00
373.85	1791.97
374.06	1751.01
374.26	1720.29
374.47	1640.42
374.68	1785.83
374.89	1693.67
375.10	1712.10
375.31	1726.44
375.52	1681.38
375.73	1658.85
375.94	1650.66
376.15	1771.49
376.36	1609.70
376.57	1685.48
376.78	1695.72
376.99	1736.68
377.20	1789.92
377.40	1607.66
377.61	1767.40
377.82	1583.08
378.03	1808.36
378.24	1761.25
378.45	1767.40
378.66	1654.76
378.87	1634.28
379.08	1624.04
379.29	1572.84
379.50	1804.26
379.71	1720.29
379.91	1755.11
380.12	1652.71
380.33	1656.81
380.54	1742.82
380.75	1699.81
380.96	1658.85
381.17	1726.44
381.38	1699.81
381.59	1708.01
381.80	1748.97
382.00	1812.45
382.21	1689.57
382.42	1794.02
382.63	1798.12
382.84	1779.68
383.05	1791.97
383.26	1753.06
383.47	1665.00
383.68	1798.12
383.88	1742.82
384.09	1748.97
384.30	1767.40
384.51	1785.83
384.72	1677.29
384.93	1587.18
385.14	1687.53
385.35	1755.11
385.55	1654.76
385.76	1773.54
385.97	1730.53
386.18	1626.09
386.39	1636.33
386.60	1644.52
386.81	1722.34
387.02	1624.04
387.22	1658.85
387.43	1734.63
387.64	1748.97
387.85	1949.67
388.06	2164.70
388.27	4368.32
388.48	6825.88
388.68	8157.06
388.89	9762.67
389.10	9914.22
389.31	8595.32
389.52	7636.88
389.73	6721.43
389.93	6115.23
390.14	5767.08
390.35	5175.22
390.56	4644.79
390.77	3751.88
390.98	3084.24
391.18	2533.34
391.39	2174.94
391.60	1898.47
391.81	1761.25
392.02	1742.82
392.23	1818.60
392.43	1771.49
392.64	1726.44
392.85	1656.81
393.06	1832.93
393.27	1675.24
393.47	1595.37
393.68	1781.73
393.89	1718.25
394.10	1765.35
394.31	1687.53
394.52	1654.76
394.72	1697.77
394.93	1777.64
395.14	1669.09
395.35	1669.09
395.56	1728.49
395.76	1738.73
395.97	1812.45
396.18	1828.84
396.39	1820.64
396.60	2023.39
396.80	1873.89
397.01	1877.99
397.22	1806.31
397.43	1789.92
397.64	1798.12
397.84	1783.78
398.05	1716.20
398.26	1773.54
398.47	1826.79
398.67	1802.21
398.88	1669.09
399.09	1716.20
399.30	1689.57
399.51	1779.68
399.71	1669.09
399.92	1673.19
400.13	1748.97
400.34	1730.53
400.54	1699.81
400.75	1796.07
400.96	1681.38
401.17	1871.84
401.37	1650.66
401.58	1689.57
401.79	1642.47
402.00	1834.98
402.21	2011.11
402.41	1937.38
402.62	2011.11
402.83	2029.54
403.04	1955.81
403.24	2017.25
403.45	1791.97
403.66	1888.23
403.87	1892.32
404.07	1818.60
404.28	1935.33
404.49	1865.70
404.70	1771.49
404.90	1759.21
405.11	1781.73
405.32	1738.73
405.52	1640.42
405.73	1746.92
405.94	1675.24
406.15	1675.24
406.35	1675.24
406.56	1746.92
406.77	1732.58
406.98	1728.49
407.18	1710.05
407.39	1800.16
407.60	1714.15
407.80	1726.44
408.01	1660.90
408.22	1689.57
408.43	1699.81
408.63	1642.47
408.84	1724.39
409.05	1742.82
409.25	1677.29
409.46	1742.82
409.67	1650.66
409.88	1738.73
410.08	1669.09
410.29	1607.66
410.50	1710.05
410.70	1751.01
410.91	1607.66
411.12	1746.92
411.32	1716.20
411.53	1691.62
411.74	1740.77
411.95	1726.44
412.15	1703.91
412.36	1816.55
412.57	1796.07
412.77	1771.49
412.98	1744.87
413.19	1710.05
413.39	1736.68
413.60	1810.40
413.81	1742.82
414.01	1632.23
414.22	1679.33
414.43	1798.12
414.63	1802.21
414.84	1765.35
415.05	1796.07
415.25	1644.52
415.46	1734.63
415.67	1646.57
415.87	1744.87
416.08	1751.01
416.29	1652.71
416.49	1777.64
416.70	1757.16
416.91	1650.66
417.11	1705.96
417.32	1705.96
417.53	1787.88
417.73	1683.43
417.94	1665.00
418.15	1697.77
418.35	1687.53
418.56	1691.62
418.77	1814.50
418.97	1771.49
419.18	1628.14
419.38	1595.37
419.59	1697.77
419.80	1773.54
420.00	1748.97
420.21	1701.86
420.42	1736.68
420.62	1753.06
420.83	1667.05
421.04	1685.48
421.24	1667.05
421.45	1757.16
421.65	1734.63
421.86	1718.25
422.07	1767.40
422.27	1796.07
422.48	1701.86
422.69	1619.94
422.89	1673.19
423.10	1697.77
423.30	1591.27
423.51	1732.58
423.72	1720.29
423.92	1701.86
424.13	1673.19
424.33	1693.67
424.54	1714.15
424.75	1714.15
424.95	1757.16
425.16	1720.29
425.36	1626.09
425.57	1689.57
425.78	1804.26
425.98	1740.77
426.19	1660.90
426.39	1691.62
426.60	1728.49
426.81	1794.02
427.01	1689.57
427.22	1634.28
427.42	1642.47
427.63	1673.19
427.83	1730.53
428.04	1853.41
428.25	1742.82
428.45	1755.11
428.66	1763.30
428.86	1746.92
429.07	1675.24
429.28	1722.34
429.48	1734.63
429.69	1630.18
429.89	1693.67
430.10	1665.00
430.30	1724.39
430.51	1761.25
430.71	1679.33
430.92	1757.16
431.13	1689.57
431.33	1675.24
431.54	1691.62
431.74	1779.68
431.95	1845.22
432.15	1767.40
432.36	1703.91
432.56	1718.25
432.77	1824.74
432.98	1751.01
433.18	1705.96
433.39	1691.62
433.59	1714.15
433.80	1818.60
434.00	1855.46
434.21	1746.92
434.41	1619.94
434.62	1806.31
434.82	1697.77
435.03	1740.77
435.23	1656.81
435.44	1617.90
435.64	1689.57
435.85	1677.29
436.06	1732.58
436.26	1791.97
436.47	1662.95
436.67	1691.62
436.88	1714.15
437.08	1757.16
437.29	1814.50
437.49	1714.15
437.70	1738.73
437.90	1689.57
438.11	1875.94
438.31	1828.84
438.52	1861.60
438.72	1789.92
438.93	1873.89
439.13	1812.45
439.34	1828.84
439.54	1839.08
439.75	1705.96
439.95	1769.44
440.16	1677.29
440.36	1765.35
440.57	1794.02
440.77	1753.06
440.98	1722.34
441.18	1677.29
441.39	1665.00
441.59	1691.62
441.80	1824.74
442.00	1730.53
442.21	1714.15
442.41	1624.04
442.62	1763.30
442.82	1685.48
443.02	1798.12
443.23	1787.88
443.43	1728.49
443.64	1742.82
443.84	1673.19
444.05	1841.12
444.25	1714.15
444.46	1730.53
444.66	1740.77
444.87	1787.88
445.07	1558.50
445.28	1732.58
445.48	1757.16
445.69	1818.60
445.89	1834.98
446.09	1748.97
446.30	2052.06
446.50	2650.07
446.71	3813.32
446.91	4294.59
447.12	4634.55
447.32	4736.95
447.53	4286.40
447.73	3778.50
447.93	3614.66
448.14	3330.00
448.34	3237.84
448.55	2828.24
448.75	2744.28
448.96	2693.08
449.16	2402.27
449.36	2369.50
449.57	2090.98
449.77	1902.56
449.98	1769.44
450.18	1787.88
450.39	1767.40
450.59	1804.26
450.79	1773.54
451.00	1755.11
451.20	1775.59
451.41	1691.62
451.61	1730.53
451.81	1761.25
452.02	1699.81
452.22	1746.92
452.43	1609.70
452.63	1581.03
452.84	1757.16
453.04	1677.29
453.24	1738.73
453.45	1720.29
453.65	1712.10
453.86	1703.91
454.06	1757.16
454.26	1804.26
454.47	1650.66
454.67	1841.12
454.87	1812.45
455.08	1732.58
455.28	1828.84
455.49	1769.44
455.69	1624.04
455.89	1902.56
456.10	1857.51
456.30	1763.30
456.51	1728.49
456.71	1753.06
456.91	1800.16
457.12	1845.22
457.32	1619.94
457.52	1675.24
457.73	1800.16
457.93	1794.02
458.14	1693.67
458.34	1626.09
458.54	1708.01
458.75	1761.25
458.95	1837.03
459.15	1775.59
459.36	1802.21
459.56	1761.25
459.76	1882.08
459.97	1638.38
460.17	1738.73
460.37	1806.31
460.58	1673.19
460.78	1771.49
460.99	1716.20
461.19	1687.53
461.39	1783.78
461.60	1679.33
461.80	1669.09
462.00	1726.44
462.21	1697.77
462.41	1732.58
462.61	1644.52
462.82	1619.94
463.02	1759.21
463.22	1697.77
463.43	1746.92
463.63	1714.15
463.83	1791.97
464.04	1718.25
464.24	1636.33
464.44	1660.90
464.64	1744.87
464.85	1759.21
465.05	1689.57
465.25	1615.85
465.46	1685.48
465.66	1804.26
465.86	1808.36
466.07	1771.49
466.27	1755.11
466.47	1595.37
466.68	1712.10
466.88	1763.30
467.08	1742.82
467.29	1691.62
467.49	1738.73
467.69	1748.97
467.89	1699.81
468.10	1667.05
468.30	1744.87
468.50	1804.26
468.71	1712.10
468.91	1638.38
469.11	1849.32
469.31	1800.16
469.52	1716.20
469.72	1748.97
469.92	1857.51
470.13	1771.49
470.33	1683.43
470.53	1904.61
470.73	2093.02
470.94	2250.72
471.14	2312.16
471.34	2439.13
471.54	2422.75
471.75	2244.57
471.95	2136.03
472.15	2148.32
472.36	2093.02
472.56	2119.65
472.76	2093.02
472.96	1980.39
473.17	1902.56
473.37	2002.91
473.57	1812.45
473.77	1775.59
473.98	1767.40
474.18	1753.06
474.38	1871.84
474.58	1699.81
474.79	1626.09
474.99	1798.12
475.19	1773.54
475.39	1660.90
475.60	1728.49
475.80	1765.35
476.00	1695.72
476.20	1681.38
476.41	1810.40
476.61	1789.92
476.81	1798.12
477.01	1662.95
477.21	1849.32
477.42	1824.74
477.62	1593.32
477.82	1679.33
478.02	1648.61
478.23	1787.88
478.43	1689.57
478.63	1701.86
478.83	1679.33
479.03	1701.86
479.24	1818.60
479.44	1816.55
479.64	1640.42
479.84	1626.09
480.04	1626.09
480.25	1677.29
480.45	1734.63
480.65	1720.29
480.85	1757.16
481.06	1687.53
481.26	1771.49
481.46	1771.49
481.66	1751.01
481.86	1658.85
482.06	1812.45
482.27	1697.77
482.47	1679.33
482.67	1716.20
482.87	1728.49
483.07	1769.44
483.28	1720.29
483.48	1587.18
483.68	1708.01
483.88	1611.75
484.08	1605.61
484.29	1607.66
484.49	1773.54
484.69	1624.04
484.89	1769.44
485.09	1779.68
485.29	1748.97
485.50	1740.77
485.70	1654.76
485.90	1837.03
486.10	1761.25
486.30	1755.11
486.50	1740.77
486.71	1685.48
486.91	1636.33
487.11	1742.82
487.31	1683.43
487.51	1759.21
487.71	1681.38
487.91	1652.71
488.12	1634.28
488.32	1599.46
488.52	1681.38
488.72	1621.99
488.92	1765.35
489.12	1740.77
489.32	1763.30
489.53	1732.58
489.73	1660.90
489.93	1808.36
490.13	1701.86
490.33	1617.90
490.53	1708.01
490.73	1779.68
490.94	1679.33
491.14	1767.40
491.34	1804.26
491.54	2062.30
491.74	2617.30
491.94	2885.59
492.14	2983.89
492.34	2977.75
492.54	2613.21
492.75	2451.42
492.95	2426.84
493.15	2299.87
493.35	2263.01
493.55	2160.61
493.75	2105.31
493.95	2072.54
494.15	2013.15
494.35	2025.44
494.56	1841.12
494.76	1787.88
494.96	1810.40
495.16	1843.17
495.36	1744.87
495.56	1744.87
495.76	1771.49
495.96	1732.58
496.16	1677.29
496.36	1800.16
496.56	1738.73
496.77	1714.15
496.97	1705.96
497.17	1794.02
497.37	1681.38
497.57	1708.01
497.77	1685.48
497.97	1636.33
498.17	1710.05
498.37	1656.81
498.57	1718.25
498.77	1681.38
498.97	1708.01
499.17	1890.28
499.38	1730.53
499.58	1861.60
499.78	1759.21
499.98	1699.81
500.18	1769.44
500.38	1710.05
500.58	1873.89
500.78	2551.77
500.98	4550.59
501.18	5978.02
501.38	6741.91
501.58	7055.25
501.78	6571.93
501.98	5582.76
502.18	5089.20
502.38	4411.32
502.58	4212.67
502.78	3852.23
502.98	3622.86
503.18	3336.14
503.38	3092.43
503.59	2867.16
503.79	2648.02
503.99	2445.27
504.19	2277.34
504.39	2209.76
504.59	2113.50
504.79	2082.78
504.99	1990.63
505.19	1961.95
505.39	1873.89
505.59	1894.37
505.79	1884.13
505.99	1804.26
506.19	1767.40
506.39	1890.28
506.59	1767.40
506.79	1738.73
506.99	1818.60
507.19	1759.21
507.39	1736.68
507.59	1624.04
507.79	1718.25
507.99	1726.44
508.19	1699.81
508.39	1681.38
508.59	1726.44
508.79	1755.11
508.99	1890.28
509.19	1710.05
509.39	1755.11
509.59	1697.77
509.79	1669.09
509.99	1722.34
510.19	1826.79
510.39	1783.78
510.59	1695.72
510.79	1677.29
510.99	1703.91
511.19	1742.82
511.39	1845.22
511.59	1812.45
511.79	1824.74
511.99	1710.05
512.19	1871.84
512.38	1746.92
512.58	1693.67
512.78	1685.48
512.98	1789.92
513.18	1820.64
513.38	1597.42
513.58	1738.73
513.78	1712.10
513.98	1720.29
514.18	1708.01
514.38	1765.35
514.58	1763.30
514.78	1640.42
514.98	1689.57
515.18	1710.05
515.38	1681.38
515.58	1886.18
515.78	1728.49
515.98	1755.11
516.18	1775.59
516.38	1748.97
516.57	1714.15
516.77	1671.14
516.97	1804.26
517.17	1685.48
517.37	1673.19
517.57	1771.49
517.77	1763.30
517.97	1716.20
518.17	1763.30
518.37	1720.29
518.57	1753.06
518.77	1763.30
518.97	1701.86
519.16	1730.53
519.36	1771.49
519.56	1744.87
519.76	1777.64
519.96	1748.97
520.16	1755.11
520.36	1705.96
520.56	1867.75
520.76	1667.05
520.96	1767.40
521.16	1828.84
521.35	1748.97
521.55	1783.78
521.75	1804.26
521.95	1794.02
522.15	1697.77
522.35	1662.95
522.55	1730.53
522.75	1769.44
522.95	1658.85
523.14	1648.61
523.34	1691.62
523.54	1724.39
523.74	1785.83
523.94	1716.20
524.14	1628.14
524.34	1767.40
524.54	1820.64
524.73	1667.05
524.93	1712.10
525.13	1697.77
525.33	1703.91
525.53	1857.51
525.73	1800.16
525.93	1648.61
526.13	1644.52
526.32	1687.53
526.52	1783.78
526.72	1830.88
526.92	1685.48
527.12	1652.71
527.32	1726.44
527.52	1748.97
527.71	1773.54
527.91	1685.48
528.11	1675.24
528.31	1746.92
528.51	1591.27
528.71	1734.63
528.90	1826.79
529.10	1736.68
529.30	1767.40
529.50	1605.61
529.70	1695.72
529.90	1654.76
530.09	1720.29
530.29	1662.95
530.49	1681.38
530.69	1871.84
530.89	1654.76
531.09	1785.83
531.28	1697.77
531.48	1787.88
531.68	1710.05
531.88	1789.92
532.08	1837.03
532.28	1722.34
532.47	1722.34
532.67	1863.65
532.87	1785.83
533.07	1757.16
533.27	1746.92
533.46	1740.77
533.66	1787.88
533.86	1757.16
534.06	1728.49
534.26	1740.77
534.45	1767.40
534.65	1753.06
534.85	1822.69
535.05	1695.72
535.25	1812.45
535.44	1660.90
535.64	1851.36
535.84	1687.53
536.04	1781.73
536.24	1689.57
536.43	1748.97
536.63	1724.39
536.83	1742.82
537.03	1781.73
537.22	1681.38
537.42	1705.96
537.62	1767.40
537.82	1660.90
538.02	1773.54
538.21	1820.64
538.41	1912.80
538.61	1705.96
538.81	1765.35
539.00	1783.78
539.20	1654.76
539.40	1693.67
539.60	1738.73
539.79	1724.39
539.99	1759.21
540.19	1628.14
540.39	1771.49
540.58	1763.30
540.78	1718.25
540.98	1742.82
541.18	1828.84
541.37	1877.99
541.57	1730.53
541.77	1603.56
541.97	1609.70
542.16	1722.34
542.36	1738.73
542.56	1679.33
542.76	1900.52
542.95	1777.64
543.15	1767.40
543.35	1718.25
543.54	1617.90
543.74	1736.68
543.94	1753.06
544.14	1693.67
544.33	1714.15
544.53	1738.73
544.73	1710.05
544.93	1722.34
545.12	1785.83
545.32	1779.68
545.52	1699.81
545.71	1687.53
545.91	1662.95
546.11	1718.25
546.30	1665.00
546.50	1701.86
546.70	1806.31
546.90	1728.49
547.09	1587.18
547.29	1783.78
547.49	1748.97
547.68	1767.40
547.88	1736.68
548.08	1820.64
548.27	2195.42
548.47	1714.15
548.67	1775.59
548.87	1720.29
549.06	1763.30
549.26	1736.68
549.46	1794.02
549.65	1738.73
549.85	1755.11
550.05	1773.54
550.24	1638.38
550.44	1775.59
550.64	1755.11
550.83	1742.82
551.03	1814.50
551.23	1798.12
551.42	1716.20
551.62	1771.49
551.82	1720.29
552.01	1734.63
552.21	1779.68
552.41	1816.55
552.60	1763.30
552.80	1794.02
553.00	1669.09
553.19	1701.86
553.39	1882.08
553.59	1607.66
553.78	1744.87
553.98	1722.34
554.17	1603.56
554.37	1779.68
554.57	1738.73
554.76	1691.62
554.96	1603.56
555.16	1753.06
555.35	1746.92
555.55	1734.63
555.75	1689.57
555.94	1779.68
556.14	1671.14
556.33	1703.91
556.53	1761.25
556.73	1687.53
556.92	1734.63
557.12	1853.41
557.32	1800.16
557.51	1877.99
557.71	1742.82
557.90	1871.84
558.10	1796.07
558.30	1753.06
558.49	1787.88
558.69	1746.92
558.88	1705.96
559.08	1777.64
559.28	1716.20
559.47	1691.62
559.67	1789.92
559.86	1830.88
560.06	1738.73
560.26	1748.97
560.45	1759.21
560.65	1748.97
560.84	1837.03
561.04	1738.73
561.24	1779.68
561.43	1648.61
561.63	1853.41
561.82	1724.39
562.02	1746.92
562.22	1685.48
562.41	1669.09
562.61	1798.12
562.80	1658.85
563.00	1783.78
563.19	1781.73
563.39	1769.44
563.59	1787.88
563.78	1708.01
563.98	1669.09
564.17	1732.58
564.37	1720.29
564.56	1810.40
564.76	1644.52
564.96	1773.54
565.15	1718.25
565.35	1861.60
565.54	1710.05
565.74	1781.73
565.93	1796.07
566.13	1720.29
566.32	1685.48
566.52	1708.01
566.71	1732.58
566.91	1814.50
567.11	1726.44
567.30	1742.82
567.50	1751.01
567.69	1740.77
567.89	1734.63
568.08	1724.39
568.28	1736.68
568.47	1675.24
568.67	1732.58
568.86	1687.53
569.06	1808.36
569.25	1748.97
569.45	1689.57
569.64	1736.68
569.84	1757.16
570.04	1775.59
570.23	1701.86
570.43	1789.92
570.62	1755.11
570.82	1830.88
571.01	1708.01
571.21	1699.81
571.40	1728.49
571.60	1771.49
571.79	1757.16
571.99	1724.39
572.18	1671.14
572.38	1781.73
572.57	1759.21
572.77	1814.50
572.96	1837.03
573.16	1769.44
573.35	1703.91
573.55	1837.03
573.74	1660.90
573.94	1757.16
574.13	1769.44
574.33	1839.08
574.52	1800.16
574.71	1751.01
574.91	1839.08
575.10	1617.90
575.30	1681.38
575.49	1746.92
575.69	1722.34
575.88	1753.06
576.08	1609.70
576.27	1730.53
576.47	1718.25
576.66	1900.52
576.86	1847.27
577.05	1718.25
577.25	1822.69
577.44	1886.18
577.64	1728.49
577.83	1748.97
578.02	1730.53
578.22	1867.75
578.41	1877.99
578.61	1773.54
578.80	1669.09
579.00	1828.84
579.19	1771.49
579.39	1775.59
579.58	1783.78
579.77	1708.01
579.97	1845.22
580.16	1859.56
580.36	1767.40
580.55	1800.16
580.75	1740.77
580.94	1779.68
581.13	1853.41
581.33	1814.50
581.52	1726.44
581.72	1935.33
581.91	1898.47
582.11	1685.48
582.30	1779.68
582.49	1691.62
582.69	1816.55
582.88	1748.97
583.08	1791.97
583.27	1716.20
583.47	1773.54
583.66	1726.44
583.85	1693.67
584.05	1738.73
584.24	1824.74
584.44	1744.87
584.63	1822.69
584.82	1853.41
585.02	1871.84
585.21	1794.02
585.41	1791.97
585.60	1843.17
585.79	1861.60
585.99	1877.99
586.18	1880.04
586.37	2211.81
586.57	3399.63
586.76	9850.73
586.96	24639.11
587.15	34895.34
587.34	40904.08
587.54	42628.47
587.73	36955.60
587.93	26437.23
588.12	21757.62
588.31	18691.81
588.51	16430.85
588.70	15367.96
588.89	14337.83
589.09	12705.60
589.28	11280.21
589.47	9320.31
589.67	8077.19
589.86	6463.39
590.06	4990.90
590.25	3954.63
590.44	3043.28
590.64	2631.64
590.83	2336.73
591.02	2136.03
591.22	1916.90
591.41	1941.47
591.60	1812.45
591.80	1992.67
591.99	1765.35
592.18	1771.49
592.38	1777.64
592.57	1763.30
592.76	1765.35
592.96	1693.67
593.15	1759.21
593.34	1796.07
593.54	1740.77
593.73	1775.59
593.92	1740.77
594.12	1681.38
594.31	1712.10
594.50	1775.59
594.70	1763.30
594.89	1933.28
595.08	1726.44
595.28	1775.59
595.47	1929.19
595.66	1796.07
595.86	1718.25
596.05	1779.68
596.24	1763.30
596.43	1890.28
596.63	1732.58
596.82	1716.20
597.01	1777.64
597.21	1839.08
597.40	1787.88
597.59	1744.87
597.79	1746.92
597.98	1736.68
598.17	1724.39
598.36	1730.53
598.56	1775.59
598.75	1714.15
598.94	1722.34
599.14	1794.02
599.33	1677.29
599.52	1828.84
599.71	1810.40
599.91	1767.40
600.10	1787.88
600.29	1718.25
600.48	1800.16
600.68	1763.30
600.87	1804.26
601.06	1626.09
601.26	1824.74
601.45	1705.96
601.64	1718.25
601.83	1791.97
602.03	1714.15
602.22	1691.62
602.41	1798.12
602.60	1888.23
602.80	1789.92
602.99	1781.73
603.18	1699.81
603.37	1751.01
603.57	1751.01
603.76	1775.59
603.95	1773.54
604.14	1751.01
604.34	1660.90
604.53	1798.12
604.72	1791.97
604.91	1722.34
605.10	1761.25
605.30	1693.67
605.49	1843.17
605.68	1802.21
605.87	1734.63
606.07	1736.68
606.26	1769.44
606.45	1787.88
606.64	1767.40
606.84	1699.81
607.03	1875.94
607.22	1808.36
607.41	1697.77
607.60	1720.29
607.80	1808.36
607.99	1720.29
608.18	1736.68
608.37	1751.01
608.56	1613.80
608.76	1783.78
608.95	1802.21
609.14	1685.48
609.33	1779.68
609.52	1755.11
609.72	1744.87
609.91	1738.73
610.10	1712.10
610.29	1859.56
610.48	1814.50
610.68	1777.64
610.87	1697.77
611.06	1775.59
611.25	1708.01
611.44	1785.83
611.63	1624.04
611.83	1812.45
612.02	1691.62
612.21	1800.16
612.40	1656.81
612.59	1581.03
612.79	1714.15
612.98	1775.59
613.17	1818.60
613.36	1736.68
613.55	1873.89
613.74	1740.77
613.93	1642.47
614.13	1785.83
614.32	1671.14
614.51	1705.96
614.70	1787.88
614.89	1658.85
615.08	1796.07
615.28	2076.64
615.47	1705.96
615.66	1759.21
615.85	1791.97
616.04	1820.64
616.23	1728.49
616.42	1660.90
616.62	1746.92
616.81	1736.68
617.00	1624.04
617.19	1765.35
617.38	1673.19
617.57	1712.10
617.76	1753.06
617.95	1751.01
618.15	1691.62
618.34	1781.73
618.53	1613.80
618.72	1777.64
618.91	1880.04
619.10	1818.60
619.29	1687.53
619.48	1699.81
619.68	1603.56
619.87	1724.39
620.06	1775.59
620.25	1830.88
620.44	1716.20
620.63	1740.77
620.82	1677.29
621.01	1726.44
621.20	1748.97
621.39	1755.11
621.59	1697.77
621.78	1667.05
621.97	1685.48
622.16	1738.73
622.35	1718.25
622.54	1773.54
622.73	1828.84
622.92	1648.61
623.11	1716.20
623.30	1751.01
623.49	1808.36
623.68	1720.29
623.88	1812.45
624.07	1675.24
624.26	1703.91
624.45	1734.63
624.64	1683.43
624.83	1753.06
625.02	1669.09
625.21	1677.29
625.40	1697.77
625.59	1847.27
625.78	1783.78
625.97	1748.97
626.16	1738.73
626.35	1765.35
626.54	1763.30
626.74	1765.35
626.93	1708.01
627.12	1708.01
627.31	1767.40
627.50	1804.26
627.69	1814.50
627.88	1638.38
628.07	1705.96
628.26	1697.77
628.45	1740.77
628.64	1673.19
628.83	1693.67
629.02	1718.25
629.21	1791.97
629.40	1746.92
629.59	1679.33
629.78	1744.87
629.97	1705.96
630.16	1775.59
630.35	1685.48
630.54	1642.47
630.73	1701.86
630.92	1703.91
631.11	1599.46
631.30	1787.88
631.49	1681.38
631.68	1708.01
631.87	1787.88
632.06	1621.99
632.25	1804.26
632.44	1673.19
632.63	1644.52
632.82	1691.62
633.01	1640.42
633.20	1722.34
633.39	1626.09
633.58	1640.42
633.77	1710.05
633.96	1726.44
634.15	1714.15
634.34	1685.48
634.53	1677.29
634.72	1630.18
634.91	1617.90
635.10	1765.35
635.29	1734.63
635.48	1701.86
635.67	1671.14
635.86	1712.10
636.05	1746.92
636.24	1730.53
636.43	1728.49
636.62	1757.16
636.81	1587.18
637.00	1681.38
637.19	1720.29
637.38	1710.05
637.57	1691.62
637.76	1640.42
637.95	1730.53
638.14	1746.92
638.33	1658.85
638.52	1740.77
638.71	1626.09
638.89	1656.81
639.08	1804.26
639.27	1767.40
639.46	1660.90
639.65	1826.79
639.84	1732.58
640.03	1794.02
640.22	1644.52
640.41	1798.12
640.60	1617.90
640.79	1724.39
640.98	1714.15
641.17	1724.39
641.36	1748.97
641.55	1730.53
641.74	1656.81
641.92	1646.57
642.11	1667.05
642.30	1691.62
642.49	1767.40
642.68	1687.53
642.87	1722.34
643.06	1705.96
643.25	1685.48
643.44	1591.27
643.63	1695.72
643.82	1791.97
644.00	1675.24
644.19	1798.12
644.38	1576.94
644.57	1771.49
644.76	1660.90
644.95	1658.85
645.14	1691.62
645.33	1763.30
645.52	1769.44
645.71	1626.09
645.89	1660.90
646.08	1722.34
646.27	1734.63
646.46	1789.92
646.65	1650.66
646.84	1732.58
647.03	1753.06
647.22	1824.74
647.40	1718.25
647.59	1689.57
647.78	1691.62
647.97	1681.38
648.16	1671.14
648.35	1724.39
648.54	1744.87
648.73	1701.86
648.91	1742.82
649.10	1687.53
649.29	1681.38
649.48	1691.62
649.67	1748.97
649.86	1697.77
650.05	1718.25
650.23	1744.87
650.42	1626.09
650.61	1705.96
650.80	1708.01
650.99	1853.41
651.18	1748.97
651.36	1804.26
651.55	1662.95
651.74	1742.82
651.93	1683.43
652.12	1685.48
652.31	1726.44
652.49	1652.71
652.68	1656.81
652.87	1800.16
653.06	1716.20
653.25	1789.92
653.44	1742.82
653.62	1787.88
653.81	1730.53
654.00	1687.53
654.19	1757.16
654.38	1845.22
654.56	1687.53
654.75	1669.09
654.94	1722.34
655.13	1658.85
655.32	1755.11
655.51	1800.16
655.69	1652.71
655.88	1789.92
656.07	1626.09
656.26	1714.15
656.45	1603.56
656.63	1710.05
656.82	1712.10
657.01	1847.27
657.20	1652.71
657.38	1824.74
657.57	1673.19
657.76	1632.23
657.95	1718.25
658.14	1699.81
658.32	1724.39
658.51	1646.57
658.70	1773.54
658.89	1751.01
659.08	1718.25
659.26	1742.82
659.45	1695.72
659.64	1789.92
659.83	1662.95
660.01	1877.99
660.20	1687.53
660.39	1738.73
660.58	1609.70
660.76	1744.87
660.95	1595.37
661.14	1693.67
661.33	1658.85
661.51	1640.42
661.70	1652.71
661.89	1740.77
662.08	1767.40
662.26	1656.81
662.45	1708.01
662.64	1828.84
662.83	1718.25
663.01	1673.19
663.20	1679.33
663.39	1751.01
663.58	1665.00
663.76	1710.05
663.95	1767.40
664.14	1632.23
664.32	1673.19
664.51	1632.23
664.70	1587.18
664.89	1677.29
665.07	1607.66
665.26	1785.83
665.45	1642.47
665.64	1744.87
665.82	1736.68
666.01	1771.49
666.20	1665.00
666.38	1834.98
666.57	1884.13
666.76	2232.29
666.95	4579.26
667.13	10477.41
667.32	15347.48
667.51	17821.42
667.69	19349.21
667.88	17805.04
668.07	12447.55
668.25	9602.93
668.44	8124.29
668.63	7403.41
668.81	6915.99
669.00	6301.60
669.19	5687.21
669.38	5277.62
669.56	4624.31
669.75	4110.27
669.94	3520.46
670.12	2881.49
670.31	2535.39
670.50	2224.09
670.68	2066.40
670.87	1892.32
671.06	1845.22
671.24	1781.73
671.43	1773.54
671.62	1726.44
671.80	1722.34
671.99	1693.67
672.18	1720.29
672.36	1753.06
672.55	1740.77
672.74	1724.39
672.92	1609.70
673.11	1718.25
673.29	1632.23
673.48	1757.16
673.67	1798.12
673.85	1732.58
674.04	1671.14
674.23	1708.01
674.41	1791.97
674.60	1677.29
674.79	1669.09
674.97	1689.57
675.16	1740.77
675.34	1771.49
675.53	1728.49
675.72	1814.50
675.90	1798.12
676.09	1681.38
676.28	1759.21
676.46	1599.46
676.65	1740.77
676.83	1679.33
677.02	1732.58
677.21	1687.53
677.39	1714.15
677.58	1662.95
677.77	1646.57
677.95	1630.18
678.14	1658.85
678.32	1757.16
678.51	1671.14
678.70	1765.35
678.88	1626.09
679.07	1781.73
679.25	1759.21
679.44	1681.38
679.63	1665.00
679.81	1767.40
680.00	1677.29
680.18	1724.39
680.37	1804.26
680.55	1615.85
680.74	1611.75
680.93	1660.90
681.11	1732.58
681.30	1730.53
681.48	1755.11
681.67	1667.05
681.85	1685.48
682.04	1671.14
682.23	1732.58
682.41	1718.25
682.60	1650.66
682.78	1675.24
682.97	1675.24
683.15	1767.40
683.34	1703.91
683.53	1767.40
683.71	1660.90
683.90	1751.01
684.08	1808.36
684.27	1632.23
684.45	1744.87
684.64	1763.30
684.82	1703.91
685.01	1755.11
685.19	1675.24
685.38	1775.59
685.57	1673.19
685.75	1658.85
685.94	1697.77
686.12	1693.67
686.31	1607.66
686.49	1773.54
686.68	1660.90
686.86	1746.92
687.05	1693.67
687.23	1732.58
687.42	1656.81
687.60	1656.81
687.79	1773.54
687.97	1742.82
688.16	1783.78
688.34	1759.21
688.53	1591.27
688.71	1755.11
688.90	1724.39
689.08	1693.67
689.27	1626.09
689.45	1787.88
689.64	1710.05
689.82	1763.30
690.01	1636.33
690.19	1757.16
690.38	1748.97
690.56	1791.97
690.75	1621.99
690.93	1708.01
691.12	1636.33
691.30	1665.00
691.49	1609.70
691.67	1726.44
691.86	1791.97
692.04	1669.09
692.23	1685.48
692.41	1701.86
692.60	1791.97
692.78	1708.01
692.97	1685.48
693.15	1691.62
693.34	1867.75
693.52	1812.45
693.71	1656.81
693.89	1652.71
694.08	1595.37
694.26	1765.35
694.44	1826.79
694.63	1763.30
694.81	1720.29
695.00	1703.91
695.18	1839.08
695.37	1783.78
695.55	1701.86
695.74	1662.95
695.92	1658.85
696.10	1748.97
696.29	1642.47
696.47	1685.48
696.66	1693.67
696.84	1683.43
697.03	1730.53
697.21	1867.75
697.40	2285.53
697.58	1824.74
697.76	1658.85
697.95	1636.33
698.13	1640.42
698.32	1654.76
698.50	1644.52
698.68	1763.30
698.87	1740.77
699.05	1681.38
699.24	1675.24
699.42	1718.25
699.61	1695.72
699.79	1746.92
699.97	1787.88
700.16	1636.33
700.34	1648.61
700.53	1763.30
700.71	1828.84
700.89	1808.36
701.08	1708.01
701.26	1638.38
701.45	2119.65
701.63	1626.09
701.81	1650.66
702.00	1640.42
702.18	1701.86
702.37	1628.14
702.55	1818.60
702.73	1687.53
702.92	1636.33
703.10	1683.43
703.28	1767.40
703.47	1628.14
703.65	1712.10
703.84	1734.63
704.02	1650.66
704.20	1798.12
704.39	1730.53
704.57	1718.25
704.75	1689.57
704.94	1722.34
705.12	1757.16
705.30	1757.16
705.49	2222.05
705.67	4413.37
705.86	9475.95
706.04	12633.92
706.22	14552.87
706.41	15486.74
706.59	14059.31
706.77	9680.75
706.96	7436.17
707.14	6641.56
707.32	5986.21
707.51	5691.31
707.69	4939.70
707.87	4261.82
708.06	3608.52
708.24	3078.10
708.42	2465.75
708.61	2287.58
708.79	1935.33
708.97	1923.04
709.16	1832.93
709.34	1722.34
709.52	1681.38
709.71	1759.21
709.89	1785.83
710.07	1640.42
710.26	1626.09
710.44	1648.61
710.62	1708.01
710.80	1669.09
710.99	1791.97
711.17	1679.33
711.35	1605.61
711.54	1628.14
711.72	1763.30
711.90	1705.96
712.09	1757.16
712.27	1597.42
712.45	1726.44
712.63	1632.23
712.82	1658.85
713.00	1699.81
713.18	1783.78
713.37	1761.25
713.55	1714.15
713.73	1738.73
713.91	1759.21
714.10	1712.10
714.28	1658.85
714.46	1677.29
714.65	1626.09
714.83	1679.33
715.01	1685.48
715.19	1697.77
715.38	1746.92
715.56	1765.35
715.74	1644.52
715.92	1681.38
716.11	1701.86
716.29	1599.46
716.47	1673.19
716.65	1619.94
716.84	1652.71
717.02	1728.49
717.20	1591.27
717.38	1693.67
717.57	1720.29
717.75	1681.38
717.93	1660.90
718.11	1714.15
718.30	1695.72
718.48	1656.81
718.66	1746.92
718.84	1783.78
719.03	1634.28
719.21	1685.48
719.39	1748.97
719.57	1693.67
719.75	1718.25
719.94	1685.48
720.12	1652.71
720.30	1714.15
720.48	1722.34
720.67	1699.81
720.85	1632.23
721.03	1738.73
721.21	1669.09
721.39	1751.01
721.58	1751.01
721.76	1675.24
721.94	1728.49
722.12	1708.01
722.30	1697.77
722.49	1648.61
722.67	1751.01
722.85	1712.10
723.03	1652.71
723.21	1634.28
723.40	1646.57
723.58	1738.73
723.76	1738.73
723.94	1746.92
724.12	1718.25
724.30	1794.02
724.49	1744.87
724.67	1675.24
724.85	1818.60
725.03	1683.43
725.21	1787.88
725.40	1789.92
725.58	1636.33
725.76	1714.15
725.94	1701.86
726.12	1677.29
726.30	1757.16
726.49	1640.42
726.67	1728.49
726.85	1665.00
727.03	1781.73
727.21	2115.55
727.39	2865.11
727.57	3778.50
727.76	4188.10
727.94	4356.03
728.12	4327.36
728.30	3688.39
728.48	3059.67
728.66	2789.33
728.84	2488.28
729.03	2336.73
729.21	2160.61
729.39	2045.92
729.57	1832.93
729.75	1816.55
729.93	1845.22
730.11	1699.81
730.30	1710.05
730.48	1673.19
730.66	1771.49
730.84	1773.54
731.02	1730.53
731.20	1679.33
731.38	1720.29
731.56	1679.33
731.74	1728.49
731.93	1687.53
732.11	1687.53
732.29	1667.05
732.47	1718.25
732.65	1632.23
732.83	1810.40
733.01	1763.30
733.19	1640.42
733.37	1755.11
733.56	1761.25
733.74	1708.01
733.92	1701.86
734.10	1697.77
734.28	1691.62
734.46	1611.75
734.64	1679.33
734.82	1703.91
735.00	1652.71
735.18	1679.33
735.36	1736.68
735.54	1705.96
735.73	1658.85
735.91	1636.33
736.09	1783.78
736.27	1681.38
736.45	1697.77
736.63	1626.09
736.81	1705.96
736.99	1718.25
737.17	1703.91
737.35	1638.38
737.53	1765.35
737.71	1705.96
737.89	1761.25
738.07	1673.19
738.25	1710.05
738.43	1650.66
738.61	1667.05
738.80	1665.00
738.98	1644.52
739.16	1679.33
739.34	1638.38
739.52	1728.49
739.70	1708.01
739.88	1699.81
740.06	1789.92
740.24	1603.56
740.42	1767.40
740.60	1656.81
740.78	1693.67
740.96	1652.71
741.14	1701.86
741.32	1677.29
741.50	1628.14
741.68	1814.50
741.86	1716.20
742.04	1658.85
742.22	1689.57
742.40	1652.71
742.58	1755.11
742.76	1607.66
742.94	1726.44
743.12	1650.66
743.30	1671.14
743.48	1761.25
743.66	1656.81
743.84	1771.49
744.02	1689.57
744.20	1703.91
744.38	1650.66
744.56	1714.15
744.74	1796.07
744.92	1728.49
745.10	1798.12
745.28	1710.05
745.46	1824.74
745.64	1710.05
745.82	1828.84
746.00	1794.02
746.18	1701.86
746.36	1615.85
746.54	1644.52
746.72	1699.81
746.90	1650.66
747.08	1748.97
747.26	1699.81
747.44	1740.77
747.62	1730.53
747.80	1658.85
747.98	1697.77
748.15	1673.19
748.33	1818.60
748.51	1732.58
748.69	1662.95
748.87	1644.52
749.05	1697.77
749.23	1667.05
749.41	1748.97
749.59	1665.00
749.77	1746.92
749.95	1708.01
750.13	1646.57
750.31	1673.19
750.49	1763.30
750.67	1710.05
750.85	1718.25
751.03	1683.43
751.20	1841.12
751.38	1724.39
751.56	1675.24
751.74	1679.33
751.92	1669.09
752.10	1675.24
752.28	1712.10
752.46	1621.99
752.64	1699.81
752.82	1648.61
753.00	1703.91
753.18	1628.14
753.35	1646.57
753.53	1675.24
753.71	1673.19
753.89	1748.97
754.07	1658.85
754.25	1710.05
754.43	1720.29
754.61	1675.24
754.79	1751.01
754.97	1677.29
755.14	1824.74
755.32	1662.95
755.50	1755.11
755.68	1695.72
755.86	1634.28
756.04	1640.42
756.22	1720.29
756.40	1689.57
756.57	1769.44
756.75	1654.76
756.93	1722.34
757.11	1773.54
757.29	1613.80
757.47	1642.47
757.65	1583.08
757.82	1572.84
758.00	1658.85
758.18	1609.70
758.36	1673.19
758.54	1804.26
758.72	1697.77
758.90	1746.92
759.07	1816.55
759.25	1583.08
759.43	1722.34
759.61	1652.71
759.79	2113.50
759.97	1703.91
760.15	1759.21
760.32	1669.09
760.50	1736.68
760.68	1771.49
760.86	1621.99
761.04	1667.05
761.22	1714.15
761.39	1751.01
761.57	1671.14
761.75	1630.18
761.93	1667.05
762.11	1632.23
762.28	1697.77
762.46	1671.14
762.64	1673.19
762.82	1611.75
763.00	1671.14
763.18	1730.53
763.35	1611.75
763.53	1726.44
763.71	1685.48
763.89	1742.82
764.07	1708.01
764.24	1705.96
764.42	1685.48
764.60	1748.97
764.78	1710.05
764.96	1796.07
765.13	1751.01
765.31	1720.29
765.49	1738.73
765.67	1720.29
765.84	1642.47
766.02	1646.57
766.20	1669.09
766.38	1718.25
766.56	1763.30
766.73	1697.77
766.91	1701.86
767.09	1654.76
767.27	1710.05
767.44	1640.42
767.62	1736.68
767.80	1691.62
767.98	1695.72
768.15	1662.95
768.33	1689.57
768.51	1769.44
768.69	1789.92
768.87	1740.77
769.04	1724.39
769.22	1740.77
769.40	1806.31
769.58	1914.85
769.75	1730.53
769.93	1748.97
770.11	1720.29
770.28	1656.81
770.46	1744.87
770.64	1726.44
770.82	1695.72
770.99	1658.85
771.17	1748.97
771.35	1650.66
771.53	1701.86
771.70	1681.38
771.88	1697.77
772.06	1705.96
772.23	1693.67
772.41	1697.77
772.59	1679.33
772.77	1638.38
772.94	1667.05
773.12	1732.58
773.30	1765.35
773.47	1609.70
773.65	1705.96
773.83	1832.93
774.01	1642.47
774.18	1578.98
774.36	1734.63
774.54	1583.08
774.71	1734.63
774.89	1601.51
775.07	1708.01
775.24	1685.48
775.42	1669.09
775.60	1830.88
775.78	1724.39
775.95	1662.95
776.13	1652.71
776.31	1591.27
776.48	1701.86
776.66	1822.69
776.84	1689.57
777.01	1597.42
777.19	1681.38
777.37	1748.97
777.54	1669.09
777.72	1800.16
777.90	1728.49
778.07	1611.75
778.25	1841.12
778.43	1718.25
778.60	1660.90
778.78	1769.44
778.96	1755.11
779.13	1652.71
779.31	1751.01
779.49	1734.63
779.66	1636.33
779.84	1615.85
780.01	1724.39
780.19	1558.50
780.37	1759.21
780.54	1734.63
780.72	1650.66
780.90	1656.81
781.07	1615.85
781.25	1632.23
781.43	1732.58
781.60	1677.29
781.78	1853.41
781.95	1630.18
782.13	1624.04
782.31	1609.70
782.48	1570.79
782.66	1736.68
782.83	1742.82
783.01	1611.75
783.19	1771.49
783.36	1734.63
783.54	1609.70
783.72	1757.16
783.89	1683.43
784.07	1683.43
784.24	1691.62
784.42	1779.68
784.60	1648.61
784.77	1732.58
784.95	1540.07
785.12	1689.57
785.30	1726.44
785.47	1667.05
785.65	1650.66
785.83	1632.23
786.00	1744.87
786.18	1744.87
786.35	1691.62
786.53	1642.47
786.71	1744.87
786.88	1738.73
787.06	1722.34
787.23	1740.77
787.41	1595.37
787.58	1767.40
787.76	1593.32
787.94	1746.92
788.11	1683.43
788.29	1611.75
788.46	1626.09
788.64	1552.36
788.81	1703.91
788.99	1652.71
789.16	1695.72
789.34	1681.38
789.52	1628.14
789.69	1708.01
789.87	1611.75
790.04	1646.57
790.22	1738.73
790.39	1755.11
790.57	1646.57
790.74	1648.61
790.92	1736.68
791.09	1650.66
791.27	1705.96
791.44	1769.44
791.62	1675.24
791.79	1710.05
791.97	1679.33
792.15	1871.84
792.32	1728.49
792.50	1781.73
792.67	1773.54
792.85	1708.01
793.02	1673.19
793.20	1718.25
793.37	1648.61
793.55	1667.05
793.72	1638.38
793.90	1771.49
794.07	1607.66
794.25	1718.25
794.42	1730.53
794.60	1662.95
794.77	1673.19
794.95	1736.68
795.12	1820.64
795.30	1636.33
795.47	1595.37
795.65	1845.22
795.82	1695.72
796.00	1669.09
796.17	1679.33
796.34	1679.33
796.52	1734.63
796.69	1785.83
796.87	1732.58
797.04	1681.38
797.22	1660.90
797.39	1783.78
797.57	1802.21
797.74	1730.53
797.92	1648.61
798.09	1708.01
798.27	1775.59
798.44	1642.47
798.62	1656.81
798.79	1751.01
798.96	1685.48
799.14	1671.14
799.31	1787.88
799.49	1671.14
799.66	1677.29
799.84	1691.62
800.01	1624.04
800.19	1665.00
800.36	1595.37
800.53	1746.92
800.71	1673.19
800.88	1755.11
801.06	1648.61
801.23	1691.62
801.41	1662.95
801.58	1665.00
801.75	1685.48
801.93	1720.29
802.10	1697.77
802.28	1699.81
802.45	1722.34
802.63	1736.68
802.80	1832.93
802.97	1644.52
803.15	1714.15
803.32	1654.76
803.50	1679.33
803.67	1624.04
803.84	1609.70
804.02	1636.33
804.19	1753.06
804.37	1601.51
804.54	1591.27
804.71	1660.90
804.89	1636.33
805.06	1636.33
805.24	1615.85
805.41	1603.56
805.58	1669.09
805.76	1808.36
805.93	1785.83
806.10	1744.87
806.28	1708.01
806.45	1753.06
806.63	1732.58
806.80	1703.91
806.97	1665.00
807.15	1605.61
807.32	1720.29
807.49	1701.86
807.67	1650.66
807.84	1677.29
808.01	1615.85
808.19	1830.88
808.36	1859.56
808.54	1632.23
808.71	1656.81
808.88	1732.58
809.06	1738.73
809.23	1789.92
809.40	1656.81
809.58	1736.68
809.75	1714.15
809.92	1607.66
810.10	1755.11
810.27	1667.05
810.44	1689.57
810.62	1718.25
810.79	1751.01
810.96	1644.52
811.14	1734.63
811.31	1710.05
811.48	1710.05
811.66	1656.81
811.83	1767.40
812.00	1708.01
812.18	1669.09
812.35	1744.87
812.52	1701.86
812.69	1660.90
812.87	1599.46
813.04	1650.66
813.21	1740.77
813.39	1691.62
813.56	1574.89
813.73	1779.68
813.91	1531.88
814.08	1683.43
814.25	1722.34
814.42	1542.12
814.60	1738.73
814.77	1683.43
814.94	1605.61
815.12	1660.90
815.29	1759.21
815.46	1619.94
815.63	1665.00
815.81	1646.57
815.98	1626.09
816.15	1718.25
816.33	1609.70
816.50	1720.29
816.67	1697.77
816.84	1587.18
817.02	1718.25
817.19	1662.95
817.36	1648.61
817.53	1673.19
817.71	1710.05
817.88	1738.73
818.05	1689.57
818.22	1667.05
818.40	1869.80
818.57	1687.53
818.74	1708.01
818.91	1660.90
819.09	1765.35
819.26	1791.97
819.43	1652.71
819.60	1656.81
819.78	1697.77
819.95	1710.05
820.12	1660.90
820.29	1732.58
820.47	1798.12
820.64	1621.99
820.81	1599.46
820.98	1636.33
821.15	1621.99
821.33	1738.73
821.50	1636.33
821.67	1685.48
821.84	1693.67
822.02	1671.14
822.19	1705.96
822.36	1722.34
822.53	1642.47
822.70	1624.04
822.88	1660.90
823.05	1787.88
823.22	1697.77
823.39	1708.01
823.56	1732.58
823.74	1787.88
823.91	1689.57
824.08	1685.48
824.25	1615.85
824.42	1839.08
824.60	1591.27
824.77	1662.95
824.94	1683.43
825.11	1732.58
825.28	1634.28
825.45	1691.62
825.63	1636.33
825.80	1607.66
825.97	1732.58
826.14	1753.06
826.31	1587.18
826.48	1673.19
826.66	1632.23
826.83	1677.29
827.00	1771.49
827.17	1578.98
827.34	1697.77
827.51	1650.66
827.69	1689.57
827.86	1699.81
828.03	1671.14
828.20	1724.39
828.37	1757.16
828.54	1755.11
828.71	1699.81
828.89	1837.03
829.06	1677.29
829.23	1728.49
829.40	1691.62
829.57	1619.94
829.74	1714.15
829.91	1599.46
830.09	1708.01
830.26	1714.15
830.43	1802.21
830.60	1660.90
830.77	1757.16
830.94	1802.21
831.11	1728.49
831.28	1755.11
831.46	1779.68
831.63	1705.96
831.80	1746.92
831.97	1615.85
832.14	1746.92
832.31	1732.58
832.48	1705.96
832.65	1718.25
832.82	1671.14
832.99	1681.38
833.17	1654.76
833.34	1724.39
833.51	1693.67
833.68	1619.94
833.85	1759.21
834.02	1730.53
834.19	1652.71
834.36	1669.09
834.53	1632.23
834.70	1748.97
834.87	1736.68
835.04	1708.01
835.22	1642.47
835.39	1671.14
835.56	1611.75
835.73	1677.29
835.90	1773.54
836.07	1648.61
836.24	1675.24
836.41	1619.94
836.58	1669.09
836.75	1691.62
836.92	1726.44
837.09	1656.81
837.26	1691.62
837.43	1699.81
837.60	1759.21
837.77	1683.43
837.94	1751.01
838.12	1771.49
838.29	1736.68
838.46	1632.23
838.63	1628.14
838.80	1781.73
838.97	1732.58
839.14	1771.49
839.31	1632.23
839.48	1718.25
839.65	1673.19
839.82	1701.86
839.99	1734.63
840.16	1734.63
840.33	1675.24
840.50	1742.82
840.67	1628.14
840.84	1570.79
841.01	1665.00
841.18	1638.38
841.35	1722.34
841.52	1791.97
841.69	1843.17
841.86	1683.43
842.03	1638.38
842.20	1705.96
842.37	1683.43
842.54	1648.61
842.71	1710.05
842.88	1636.33
843.05	1761.25
843.22	1697.77
843.39	1791.97
843.56	1658.85
843.73	1714.15
843.90	1691.62
844.07	1638.38
844.24	1775.59
844.41	1818.60
844.58	1687.53
844.75	1734.63
844.92	1697.77
845.09	1687.53
845.26	1605.61
845.43	1716.20
845.60	1640.42
845.77	1740.77
845.94	1722.34
846.10	1783.78
846.27	1644.52
846.44	1693.67
846.61	1699.81
846.78	1708.01
846.95	1757.16
847.12	1724.39
847.29	1691.62
847.46	1691.62
847.63	1734.63
847.80	1712.10
847.97	1685.48
848.14	1875.94
848.31	1691.62
848.48	1648.61
848.65	1765.35
848.82	1675.24
848.98	1763.30
849.15	1738.73
849.32	1830.88
849.49	1812.45
849.66	1701.86
849.83	1718.25
850.00	1656.81
850.17	1751.01
850.34	1669.09
850.51	1589.22
850.68	1773.54
850.85	1832.93
851.01	1644.52
851.18	1687.53
851.35	1613.80
851.52	1665.00
851.69	1804.26
851.86	1652.71
852.03	1701.86
852.20	1722.34
852.37	1736.68
852.53	1662.95
852.70	1726.44
852.87	1660.90
853.04	1681.38
853.21	1724.39
853.38	1773.54
853.55	1720.29
853.72	1757.16
853.89	1662.95
854.05	1660.90
854.22	1644.52
854.39	1644.52
854.56	1732.58
854.73	1730.53
854.90	1587.18
855.07	1693.67
855.23	1615.85
855.40	1691.62
855.57	1669.09
855.74	1591.27
855.91	1871.84
856.08	1632.23
856.25	1609.70
856.41	1658.85
856.58	1699.81
856.75	1753.06
856.92	1617.90
857.09	1734.63
857.26	1611.75
857.42	1718.25
857.59	1693.67
857.76	1746.92
857.93	1714.15
858.10	1683.43
858.27	1697.77
858.43	1726.44
858.60	1687.53
858.77	1673.19
858.94	1761.25
859.11	1765.35
859.27	1708.01
859.44	1689.57
859.61	1730.53
859.78	1712.10
859.95	1675.24
860.12	1626.09
860.28	1777.64
860.45	1820.64
860.62	1703.91
860.79	1771.49
860.95	1689.57
861.12	1644.52
861.29	1712.10
861.46	1605.61
861.63	1740.77
861.79	1710.05
861.96	1705.96
862.13	1628.14
862.30	1669.09
862.47	1671.14
862.63	1638.38
862.80	1734.63
862.97	1705.96
863.14	1736.68
863.30	1734.63
863.47	1693.67
863.64	1759.21
863.81	1714.15
863.97	1662.95
864.14	1708.01
864.31	1701.86
864.48	1693.67
864.65	1693.67
864.81	1603.56
864.98	1796.07
865.15	1804.26
865.32	1767.40
865.48	1753.06
865.65	1800.16
865.82	1662.95
865.98	1636.33
866.15	1798.12
866.32	1628.14
866.49	1656.81
866.65	1781.73
866.82	1728.49
866.99	1701.86
867.16	1675.24
867.32	1624.04
867.49	1746.92
867.66	1624.04
867.83	1636.33
867.99	1640.42
868.16	1617.90
868.33	1632.23
868.49	1751.01
868.66	1738.73
868.83	1722.34
868.99	1712.10
869.16	1718.25
869.33	1798.12
869.50	1789.92
869.66	1685.48
869.83	1757.16
870.00	1568.74
870.16	1779.68
870.33	1775.59
870.50	1675.24
870.66	1769.44
870.83	1804.26
871.00	1718.25
871.17	1667.05
871.33	1826.79
871.50	1681.38
871.67	1662.95
871.83	1628.14
872.00	1834.98
872.17	1675.24
872.33	1775.59
872.50	1765.35
872.67	1671.14
872.83	1691.62
873.00	1763.30
873.17	1646.57
873.33	1744.87
873.50	1744.87
873.67	1601.51
873.83	1642.47
874.00	1697.77
874.16	1779.68
874.33	1806.31
874.50	1677.29
874.66	1830.88
874.83	1667.05
875.00	1742.82
875.16	1746.92
875.33	1753.06
875.50	1572.84
875.66	1638.38
875.83	1730.53
875.99	1777.64
876.16	1683.43
876.33	1687.53
876.49	1744.87
876.66	1746.92
876.83	1693.67
876.99	1597.42
877.16	1615.85
877.32	1769.44
877.49	1689.57
877.66	1689.57
877.82	1789.92
877.99	1669.09
878.15	1757.16
878.32	1673.19
878.49	1755.11
878.65	1710.05
878.82	1798.12
878.98	1726.44
879.15	1710.05
879.32	1693.67
879.48	1730.53
879.65	1665.00
879.81	1591.27
879.98	1681.38
880.15	1634.28
880.31	1732.58
880.48	1626.09
880.64	1734.63
880.81	1732.58
880.97	1769.44
881.14	1767.40
881.31	1658.85
881.47	1806.31
881.64	1640.42
881.80	1562.60
881.97	1728.49
882.13	1742.82
882.30	1624.04
882.47	1718.25
882.63	1695.72
882.80	1632.23
882.96	1665.00
883.13	1740.77
883.29	1671.14
883.46	1697.77
883.62	1775.59
883.79	1712.10
883.95	1724.39
884.12	1705.96
884.29	1748.97
884.45	1718.25
884.62	1724.39
884.78	1619.94
884.95	1679.33
885.11	1665.00
885.28	1726.44
885.44	1656.81
885.61	1744.87
885.77	1810.40
885.94	1685.48
886.10	1656.81
886.27	1691.62
886.43	1787.88
886.60	1800.16
886.76	1732.58
886.93	1656.81
887.09	1730.53
887.26	1673.19
887.42	1761.25
887.59	1751.01
887.75	1814.50
887.92	1761.25
888.08	1695.72
888.25	1841.12
888.41	1726.44
888.58	1796.07
888.74	1597.42
888.91	1669.09
>>>>>End Processed Spectral Data<<<<<
