SpectraSuite Data File
++++++++++++++++++++++++++++++++++++
Date: Mon Jun 06 15:33:17 CEST 2016
User: root
Dark Spectrum Present: No
Reference Spectrum Present: No
Number of Sampled Component Spectra: 1
Spectrometers: USB4C02835
Integration Time (usec): 100000 (USB4C02835)
Spectra Averaged: 1 (USB4C02835)
Boxcar Smoothing: 0 (USB4C02835)
Correct for Electrical Dark: No (USB4C02835)
Strobe/Lamp Enabled: No (USB4C02835)
Correct for Detector Non-linearity: No (USB4C02835)
Correct for Stray Light: No (USB4C02835)
Number of Pixels in Processed Spectrum: 3648
>>>>>Begin Processed Spectral Data<<<<<
177.47	1435.63
177.69	1435.63
177.91	1435.63
178.13	1419.24
178.36	1476.59
178.58	1697.77
178.80	1681.38
179.02	1656.81
179.24	1648.61
179.46	1693.67
179.68	1712.10
179.90	1667.05
180.13	1787.88
180.35	1669.09
180.57	1705.96
180.79	1763.30
181.01	1701.86
181.23	1789.92
181.45	1820.64
181.67	1794.02
181.90	1730.53
182.12	1636.33
182.34	1634.28
182.56	1667.05
182.78	1726.44
183.00	1748.97
183.22	1734.63
183.44	1679.33
183.66	1888.23
183.89	1759.21
184.11	1771.49
184.33	1748.97
184.55	1798.12
184.77	1800.16
184.99	1724.39
185.21	1722.34
185.43	1865.70
185.65	1640.42
185.87	1703.91
186.10	1853.41
186.32	1824.74
186.54	1677.29
186.76	1783.78
186.98	1759.21
187.20	1650.66
187.42	1730.53
187.64	1751.01
187.86	1701.86
188.08	1791.97
188.30	1710.05
188.52	1781.73
188.75	1708.01
188.97	1734.63
189.19	1720.29
189.41	1734.63
189.63	1691.62
189.85	1648.61
190.07	1691.62
190.29	1578.98
190.51	1728.49
190.73	1662.95
190.95	1765.35
191.17	1744.87
191.39	1673.19
191.61	1642.47
191.84	1712.10
192.06	1736.68
192.28	1607.66
192.50	1857.51
192.72	1738.73
192.94	1677.29
193.16	1822.69
193.38	1710.05
193.60	1642.47
193.82	1671.14
194.04	1812.45
194.26	1669.09
194.48	1716.20
194.70	1730.53
194.92	1667.05
195.14	1761.25
195.36	1632.23
195.58	1732.58
195.80	1734.63
196.02	1626.09
196.24	1773.54
196.46	1730.53
196.69	1665.00
196.91	1787.88
197.13	1722.34
197.35	1697.77
197.57	1800.16
197.79	1798.12
198.01	1781.73
198.23	1714.15
198.45	1853.41
198.67	1705.96
198.89	1720.29
199.11	1759.21
199.33	1673.19
199.55	1603.56
199.77	1687.53
199.99	1783.78
200.21	1730.53
200.43	1755.11
200.65	1603.56
200.87	1632.23
201.09	1718.25
201.31	1675.24
201.53	1691.62
201.75	1710.05
201.97	1779.68
202.19	1736.68
202.41	1812.45
202.63	1869.80
202.85	1724.39
203.07	1746.92
203.29	1724.39
203.51	1630.18
203.73	1712.10
203.95	1841.12
204.17	1701.86
204.39	1724.39
204.61	1679.33
204.83	1662.95
205.05	1748.97
205.27	1748.97
205.49	1847.27
205.71	1685.48
205.93	1609.70
206.15	1662.95
206.37	1730.53
206.59	1689.57
206.81	1665.00
207.03	1650.66
207.25	1648.61
207.47	1746.92
207.69	1701.86
207.91	1806.31
208.13	1785.83
208.34	1691.62
208.56	1636.33
208.78	1746.92
209.00	1701.86
209.22	1640.42
209.44	1773.54
209.66	1634.28
209.88	1687.53
210.10	1701.86
210.32	1689.57
210.54	1832.93
210.76	1761.25
210.98	1804.26
211.20	1634.28
211.42	1771.49
211.64	1705.96
211.86	1761.25
212.08	1708.01
212.30	1800.16
212.52	1783.78
212.74	1677.29
212.96	1744.87
213.17	1720.29
213.39	1802.21
213.61	1830.88
213.83	1675.24
214.05	1656.81
214.27	1746.92
214.49	1716.20
214.71	1617.90
214.93	1830.88
215.15	1662.95
215.37	1767.40
215.59	1619.94
215.81	1804.26
216.03	1820.64
216.24	1787.88
216.46	1759.21
216.68	1771.49
216.90	1755.11
217.12	1779.68
217.34	1632.23
217.56	1732.58
217.78	1742.82
218.00	1759.21
218.22	1736.68
218.44	1724.39
218.66	1691.62
218.87	1822.69
219.09	1757.16
219.31	1683.43
219.53	1732.58
219.75	1597.42
219.97	1742.82
220.19	1712.10
220.41	1703.91
220.63	1796.07
220.85	1724.39
221.06	1730.53
221.28	1751.01
221.50	1761.25
221.72	1714.15
221.94	1650.66
222.16	1691.62
222.38	1671.14
222.60	1865.70
222.82	1726.44
223.03	1845.22
223.25	1632.23
223.47	1777.64
223.69	1791.97
223.91	1730.53
224.13	1785.83
224.35	1658.85
224.57	1794.02
224.78	1734.63
225.00	1652.71
225.22	1683.43
225.44	1705.96
225.66	1818.60
225.88	1679.33
226.10	1802.21
226.32	1703.91
226.53	1783.78
226.75	1673.19
226.97	1755.11
227.19	1693.67
227.41	1681.38
227.63	1685.48
227.85	1595.37
228.06	1742.82
228.28	1753.06
228.50	1724.39
228.72	1740.77
228.94	1673.19
229.16	1646.57
229.37	1621.99
229.59	1667.05
229.81	1781.73
230.03	1675.24
230.25	1699.81
230.47	1613.80
230.69	1665.00
230.90	1716.20
231.12	1665.00
231.34	1738.73
231.56	1744.87
231.78	1787.88
232.00	1708.01
232.21	1669.09
232.43	1685.48
232.65	1570.79
232.87	1724.39
233.09	1654.76
233.30	1705.96
233.52	1720.29
233.74	1716.20
233.96	1673.19
234.18	1755.11
234.40	1697.77
234.61	1898.47
234.83	1705.96
235.05	1673.19
235.27	1867.75
235.49	1734.63
235.70	1714.15
235.92	1730.53
236.14	1712.10
236.36	1841.12
236.58	1638.38
236.79	1863.65
237.01	1769.44
237.23	1748.97
237.45	1773.54
237.67	1656.81
237.88	1730.53
238.10	1869.80
238.32	1703.91
238.54	1712.10
238.76	1728.49
238.97	1685.48
239.19	1667.05
239.41	1699.81
239.63	1808.36
239.85	1611.75
240.06	1714.15
240.28	1695.72
240.50	1753.06
240.72	1736.68
240.93	1679.33
241.15	1847.27
241.37	1738.73
241.59	1732.58
241.81	1648.61
242.02	1734.63
242.24	1722.34
242.46	1689.57
242.68	1636.33
242.89	1763.30
243.11	1714.15
243.33	1746.92
243.55	1759.21
243.76	1794.02
243.98	1718.25
244.20	1671.14
244.42	1718.25
244.64	1658.85
244.85	1587.18
245.07	1714.15
245.29	1824.74
245.51	1617.90
245.72	1738.73
245.94	1751.01
246.16	1814.50
246.38	1796.07
246.59	1705.96
246.81	1728.49
247.03	1720.29
247.24	1644.52
247.46	1728.49
247.68	1734.63
247.90	1703.91
248.11	1703.91
248.33	1755.11
248.55	1746.92
248.77	1705.96
248.98	1769.44
249.20	1812.45
249.42	1712.10
249.64	1716.20
249.85	1726.44
250.07	1667.05
250.29	1783.78
250.50	1794.02
250.72	1632.23
250.94	1732.58
251.16	1697.77
251.37	1779.68
251.59	1722.34
251.81	1736.68
252.02	1843.17
252.24	1710.05
252.46	1757.16
252.68	1693.67
252.89	1675.24
253.11	1597.42
253.33	1847.27
253.54	1826.79
253.76	1665.00
253.98	1675.24
254.20	1673.19
254.41	1650.66
254.63	1708.01
254.85	1697.77
255.06	1691.62
255.28	1830.88
255.50	1697.77
255.71	1689.57
255.93	1658.85
256.15	1675.24
256.36	1746.92
256.58	1705.96
256.80	1685.48
257.02	1640.42
257.23	1732.58
257.45	1785.83
257.67	1775.59
257.88	1689.57
258.10	1712.10
258.32	1769.44
258.53	1742.82
258.75	1826.79
258.97	1679.33
259.18	1746.92
259.40	1681.38
259.62	1869.80
259.83	1763.30
260.05	1728.49
260.27	2013.15
260.48	1767.40
260.70	1640.42
260.92	1730.53
261.13	1693.67
261.35	1779.68
261.57	1789.92
261.78	1656.81
262.00	1613.80
262.22	1710.05
262.43	1656.81
262.65	1669.09
262.86	1755.11
263.08	1830.88
263.30	1679.33
263.51	1681.38
263.73	1646.57
263.95	1761.25
264.16	1648.61
264.38	1636.33
264.60	1775.59
264.81	1724.39
265.03	1761.25
265.25	1757.16
265.46	1779.68
265.68	1755.11
265.89	1796.07
266.11	1570.79
266.33	1751.01
266.54	1820.64
266.76	1738.73
266.98	1832.93
267.19	1765.35
267.41	1748.97
267.62	1681.38
267.84	1662.95
268.06	1714.15
268.27	1746.92
268.49	1769.44
268.70	1781.73
268.92	1671.14
269.14	1683.43
269.35	1691.62
269.57	1740.77
269.79	1755.11
270.00	1734.63
270.22	1849.32
270.43	1654.76
270.65	1652.71
270.87	1804.26
271.08	1687.53
271.30	1738.73
271.51	1722.34
271.73	1742.82
271.95	1757.16
272.16	1791.97
272.38	1712.10
272.59	1677.29
272.81	1724.39
273.02	1716.20
273.24	1787.88
273.46	1779.68
273.67	1718.25
273.89	1669.09
274.10	1714.15
274.32	1736.68
274.54	1751.01
274.75	1679.33
274.97	1720.29
275.18	1656.81
275.40	1708.01
275.61	1681.38
275.83	1662.95
276.05	1634.28
276.26	1675.24
276.48	1753.06
276.69	1720.29
276.91	1718.25
277.12	1738.73
277.34	1767.40
277.55	1806.31
277.77	1820.64
277.99	1712.10
278.20	1697.77
278.42	1667.05
278.63	1671.14
278.85	1648.61
279.06	1644.52
279.28	1740.77
279.49	1726.44
279.71	1783.78
279.93	1730.53
280.14	1708.01
280.36	1681.38
280.57	1753.06
280.79	1734.63
281.00	1710.05
281.22	1744.87
281.43	1718.25
281.65	1542.12
281.86	1656.81
282.08	1806.31
282.29	1839.08
282.51	1667.05
282.73	1636.33
282.94	1605.61
283.16	1753.06
283.37	1769.44
283.59	1712.10
283.80	1783.78
284.02	1771.49
284.23	1703.91
284.45	1689.57
284.66	1679.33
284.88	1742.82
285.09	1765.35
285.31	1697.77
285.52	1714.15
285.74	1566.70
285.95	1789.92
286.17	1687.53
286.38	1810.40
286.60	1689.57
286.81	1677.29
287.03	1685.48
287.24	1714.15
287.46	1744.87
287.67	1816.55
287.89	1863.65
288.10	1699.81
288.32	1728.49
288.53	1681.38
288.75	1724.39
288.96	1675.24
289.18	1652.71
289.39	1648.61
289.61	1806.31
289.82	1843.17
290.04	1783.78
290.25	1681.38
290.47	1675.24
290.68	1753.06
290.90	1740.77
291.11	1638.38
291.33	1726.44
291.54	1705.96
291.76	1648.61
291.97	1757.16
292.18	1787.88
292.40	1683.43
292.61	1660.90
292.83	1875.94
293.04	1726.44
293.26	1716.20
293.47	1714.15
293.69	1662.95
293.90	1673.19
294.12	1861.60
294.33	1697.77
294.55	1742.82
294.76	1834.98
294.97	1820.64
295.19	1869.80
295.40	1701.86
295.62	1812.45
295.83	1824.74
296.05	1611.75
296.26	1714.15
296.48	1669.09
296.69	1628.14
296.90	1730.53
297.12	1800.16
297.33	1777.64
297.55	1701.86
297.76	1677.29
297.98	1771.49
298.19	1689.57
298.41	1748.97
298.62	1660.90
298.83	1794.02
299.05	1691.62
299.26	1658.85
299.48	1732.58
299.69	1755.11
299.90	1710.05
300.12	1685.48
300.33	1740.77
300.55	1693.67
300.76	1656.81
300.98	1681.38
301.19	1710.05
301.40	1654.76
301.62	1656.81
301.83	1769.44
302.05	1697.77
302.26	1701.86
302.47	1769.44
302.69	1652.71
302.90	1722.34
303.12	1669.09
303.33	1845.22
303.54	1796.07
303.76	1742.82
303.97	1755.11
304.19	1767.40
304.40	1710.05
304.61	1773.54
304.83	1843.17
305.04	1775.59
305.26	1708.01
305.47	1703.91
305.68	1671.14
305.90	1705.96
306.11	1820.64
306.33	1669.09
306.54	1689.57
306.75	1673.19
306.97	1632.23
307.18	1654.76
307.39	1628.14
307.61	1736.68
307.82	1681.38
308.04	1771.49
308.25	1693.67
308.46	1689.57
308.68	1681.38
308.89	1755.11
309.10	1787.88
309.32	1742.82
309.53	1669.09
309.74	1714.15
309.96	1726.44
310.17	1761.25
310.39	1761.25
310.60	1771.49
310.81	1652.71
311.03	1628.14
311.24	1744.87
311.45	1802.21
311.67	1777.64
311.88	1798.12
312.09	1648.61
312.31	1736.68
312.52	1769.44
312.73	1804.26
312.95	1650.66
313.16	1673.19
313.37	1730.53
313.59	1779.68
313.80	1812.45
314.01	1791.97
314.23	1712.10
314.44	1603.56
314.65	1570.79
314.87	1607.66
315.08	1708.01
315.29	1677.29
315.51	1638.38
315.72	1626.09
315.93	1810.40
316.15	1802.21
316.36	1734.63
316.57	1771.49
316.79	1697.77
317.00	1714.15
317.21	1658.85
317.43	1689.57
317.64	1718.25
317.85	1640.42
318.07	1636.33
318.28	1796.07
318.49	1742.82
318.70	1933.28
318.92	1787.88
319.13	1828.84
319.34	1955.81
319.56	1738.73
319.77	1816.55
319.98	1861.60
320.20	1744.87
320.41	1726.44
320.62	1808.36
320.83	1730.53
321.05	1796.07
321.26	1699.81
321.47	1636.33
321.69	1767.40
321.90	1669.09
322.11	1705.96
322.32	1632.23
322.54	1771.49
322.75	1695.72
322.96	1832.93
323.18	1646.57
323.39	1568.74
323.60	1685.48
323.81	1714.15
324.03	1710.05
324.24	1695.72
324.45	1742.82
324.66	1660.90
324.88	1779.68
325.09	1683.43
325.30	1726.44
325.52	1720.29
325.73	1738.73
325.94	1712.10
326.15	1648.61
326.37	1691.62
326.58	1814.50
326.79	1853.41
327.00	1634.28
327.22	1716.20
327.43	1677.29
327.64	1634.28
327.85	1808.36
328.07	1822.69
328.28	1775.59
328.49	1675.24
328.70	1734.63
328.92	1640.42
329.13	1667.05
329.34	1730.53
329.55	1841.12
329.76	1753.06
329.98	1755.11
330.19	1824.74
330.40	1755.11
330.61	1718.25
330.83	1734.63
331.04	1648.61
331.25	1669.09
331.46	1728.49
331.68	1650.66
331.89	1785.83
332.10	1701.86
332.31	1665.00
332.52	1751.01
332.74	1816.55
332.95	1677.29
333.16	1689.57
333.37	1724.39
333.58	1662.95
333.80	1751.01
334.01	1583.08
334.22	1665.00
334.43	1675.24
334.64	1695.72
334.86	1673.19
335.07	1708.01
335.28	1812.45
335.49	1662.95
335.70	1773.54
335.92	1808.36
336.13	1746.92
336.34	1785.83
336.55	1763.30
336.76	1787.88
336.98	1636.33
337.19	1757.16
337.40	1869.80
337.61	1824.74
337.82	1654.76
338.04	1726.44
338.25	1607.66
338.46	1769.44
338.67	1675.24
338.88	1632.23
339.09	1677.29
339.31	1722.34
339.52	1626.09
339.73	1628.14
339.94	1710.05
340.15	1748.97
340.36	1673.19
340.58	1726.44
340.79	1746.92
341.00	1763.30
341.21	1615.85
341.42	1812.45
341.63	1730.53
341.85	1787.88
342.06	1767.40
342.27	1669.09
342.48	1828.84
342.69	1671.14
342.90	1744.87
343.12	1730.53
343.33	1716.20
343.54	1740.77
343.75	1798.12
343.96	1769.44
344.17	1724.39
344.38	1703.91
344.60	1644.52
344.81	1650.66
345.02	1656.81
345.23	1804.26
345.44	1777.64
345.65	1802.21
345.86	1691.62
346.07	1689.57
346.29	1667.05
346.50	1765.35
346.71	1837.03
346.92	1779.68
347.13	1816.55
347.34	1697.77
347.55	1689.57
347.76	1697.77
347.98	1656.81
348.19	1683.43
348.40	1787.88
348.61	1644.52
348.82	1800.16
349.03	1814.50
349.24	1689.57
349.45	1824.74
349.66	1656.81
349.88	1679.33
350.09	1617.90
350.30	1767.40
350.51	1828.84
350.72	1654.76
350.93	1753.06
351.14	1679.33
351.35	1712.10
351.56	1685.48
351.77	1658.85
351.99	1740.77
352.20	1820.64
352.41	1763.30
352.62	1626.09
352.83	1789.92
353.04	1667.05
353.25	1683.43
353.46	1804.26
353.67	1775.59
353.88	1628.14
354.09	1769.44
354.30	1755.11
354.52	1689.57
354.73	1742.82
354.94	1665.00
355.15	1726.44
355.36	1783.78
355.57	1675.24
355.78	1779.68
355.99	1726.44
356.20	1736.68
356.41	1789.92
356.62	1751.01
356.83	1787.88
357.04	1812.45
357.25	1607.66
357.46	1714.15
357.68	1716.20
357.89	1656.81
358.10	1802.21
358.31	1703.91
358.52	1714.15
358.73	1677.29
358.94	1632.23
359.15	1665.00
359.36	1767.40
359.57	1783.78
359.78	1705.96
359.99	1771.49
360.20	1773.54
360.41	1820.64
360.62	1710.05
360.83	1728.49
361.04	1642.47
361.25	1781.73
361.46	1800.16
361.67	1769.44
361.88	1763.30
362.09	1726.44
362.30	1732.58
362.51	1705.96
362.72	1685.48
362.93	1767.40
363.14	1812.45
363.35	1789.92
363.56	1624.04
363.78	1789.92
363.99	1718.25
364.20	1693.67
364.41	1724.39
364.62	1832.93
364.83	1804.26
365.04	1699.81
365.25	1703.91
365.46	1845.22
365.67	1699.81
365.88	1605.61
366.09	1646.57
366.30	1630.18
366.51	1722.34
366.72	1675.24
366.93	1722.34
367.14	1675.24
367.35	1802.21
367.56	1718.25
367.77	1695.72
367.98	1695.72
368.18	1757.16
368.39	1763.30
368.60	1665.00
368.81	1767.40
369.02	1730.53
369.23	1636.33
369.44	1632.23
369.65	1759.21
369.86	1683.43
370.07	1818.60
370.28	1669.09
370.49	1734.63
370.70	1734.63
370.91	1603.56
371.12	1730.53
371.33	1755.11
371.54	1697.77
371.75	1748.97
371.96	1599.46
372.17	1730.53
372.38	1646.57
372.59	1796.07
372.80	1736.68
373.01	1708.01
373.22	1728.49
373.43	1716.20
373.64	1687.53
373.85	1736.68
374.06	1857.51
374.26	1718.25
374.47	1808.36
374.68	1816.55
374.89	1681.38
375.10	1722.34
375.31	1738.73
375.52	1691.62
375.73	1773.54
375.94	1638.38
376.15	1720.29
376.36	1710.05
376.57	1779.68
376.78	1740.77
376.99	1740.77
377.20	1777.64
377.40	1683.43
377.61	1841.12
377.82	1632.23
378.03	1841.12
378.24	1738.73
378.45	1718.25
378.66	1763.30
378.87	1591.27
379.08	1628.14
379.29	1712.10
379.50	1832.93
379.71	1689.57
379.91	1740.77
380.12	1724.39
380.33	1693.67
380.54	1683.43
380.75	1742.82
380.96	1728.49
381.17	1777.64
381.38	1734.63
381.59	1683.43
381.80	1738.73
382.00	1837.03
382.21	1771.49
382.42	1904.61
382.63	1912.80
382.84	1814.50
383.05	1736.68
383.26	1855.46
383.47	1767.40
383.68	1757.16
383.88	1849.32
384.09	1695.72
384.30	1806.31
384.51	1769.44
384.72	1697.77
384.93	1656.81
385.14	1726.44
385.35	1734.63
385.55	1660.90
385.76	1718.25
385.97	1689.57
386.18	1624.04
386.39	1669.09
386.60	1708.01
386.81	1810.40
387.02	1644.52
387.22	1705.96
387.43	1685.48
387.64	1810.40
387.85	1826.79
388.06	2211.81
388.27	4130.75
388.48	6592.41
388.68	7999.37
388.89	9400.18
389.10	9467.76
389.31	8503.17
389.52	7583.63
389.73	6481.82
389.93	6231.97
390.14	5742.50
390.35	5068.72
390.56	4562.87
390.77	3674.06
390.98	3039.19
391.18	2490.33
391.39	2166.75
391.60	1902.56
391.81	1830.88
392.02	1671.14
392.23	1843.17
392.43	1673.19
392.64	1808.36
392.85	1726.44
393.06	1806.31
393.27	1671.14
393.47	1785.83
393.68	1802.21
393.89	1716.20
394.10	1839.08
394.31	1705.96
394.52	1732.58
394.72	1665.00
394.93	1796.07
395.14	1716.20
395.35	1769.44
395.56	1718.25
395.76	1710.05
395.97	1697.77
396.18	1828.84
396.39	1822.69
396.60	2023.39
396.80	1941.47
397.01	1847.27
397.22	1775.59
397.43	1892.32
397.64	1665.00
397.84	1853.41
398.05	1875.94
398.26	1800.16
398.47	1808.36
398.67	1779.68
398.88	1775.59
399.09	1732.58
399.30	1759.21
399.51	1734.63
399.71	1689.57
399.92	1742.82
400.13	1693.67
400.34	1705.96
400.54	1708.01
400.75	1796.07
400.96	1765.35
401.17	1783.78
401.37	1755.11
401.58	1685.48
401.79	1646.57
402.00	1779.68
402.21	1976.29
402.41	1986.53
402.62	1918.95
402.83	2002.91
403.04	1906.66
403.24	2070.50
403.45	1880.04
403.66	1937.38
403.87	1882.08
404.07	1957.86
404.28	1972.19
404.49	1890.28
404.70	1824.74
404.90	1816.55
405.11	1804.26
405.32	1703.91
405.52	1687.53
405.73	1697.77
405.94	1734.63
406.15	1697.77
406.35	1806.31
406.56	1748.97
406.77	1712.10
406.98	1767.40
407.18	1570.79
407.39	1763.30
407.60	1652.71
407.80	1771.49
408.01	1687.53
408.22	1722.34
408.43	1720.29
408.63	1769.44
408.84	1755.11
409.05	1771.49
409.25	1656.81
409.46	1652.71
409.67	1671.14
409.88	1716.20
410.08	1640.42
410.29	1681.38
410.50	1748.97
410.70	1796.07
410.91	1673.19
411.12	1736.68
411.32	1783.78
411.53	1665.00
411.74	1863.65
411.95	1769.44
412.15	1761.25
412.36	1812.45
412.57	1730.53
412.77	1828.84
412.98	1757.16
413.19	1624.04
413.39	1775.59
413.60	1789.92
413.81	1681.38
414.01	1626.09
414.22	1728.49
414.43	1796.07
414.63	1683.43
414.84	1800.16
415.05	1716.20
415.25	1691.62
415.46	1751.01
415.67	1638.38
415.87	1695.72
416.08	1763.30
416.29	1693.67
416.49	1712.10
416.70	1689.57
416.91	1791.97
417.11	1759.21
417.32	1812.45
417.53	1769.44
417.73	1777.64
417.94	1755.11
418.15	1658.85
418.35	1759.21
418.56	1732.58
418.77	1787.88
418.97	1681.38
419.18	1777.64
419.38	1556.46
419.59	1740.77
419.80	1697.77
420.00	1638.38
420.21	1685.48
420.42	1785.83
420.62	1746.92
420.83	1658.85
421.04	1806.31
421.24	1738.73
421.45	1769.44
421.65	1767.40
421.86	1705.96
422.07	1761.25
422.27	1796.07
422.48	1693.67
422.69	1619.94
422.89	1710.05
423.10	1718.25
423.30	1642.47
423.51	1789.92
423.72	1691.62
423.92	1722.34
424.13	1691.62
424.33	1732.58
424.54	1746.92
424.75	1796.07
424.95	1824.74
425.16	1736.68
425.36	1636.33
425.57	1732.58
425.78	1763.30
425.98	1855.46
426.19	1718.25
426.39	1697.77
426.60	1798.12
426.81	1812.45
427.01	1769.44
427.22	1613.80
427.42	1658.85
427.63	1761.25
427.83	1703.91
428.04	1726.44
428.25	1740.77
428.45	1724.39
428.66	1787.88
428.86	1654.76
429.07	1773.54
429.28	1667.05
429.48	1730.53
429.69	1787.88
429.89	1738.73
430.10	1574.89
430.30	1779.68
430.51	1847.27
430.71	1730.53
430.92	1693.67
431.13	1705.96
431.33	1769.44
431.54	1720.29
431.74	1847.27
431.95	1822.69
432.15	1712.10
432.36	1785.83
432.56	1765.35
432.77	1787.88
432.98	1806.31
433.18	1712.10
433.39	1689.57
433.59	1783.78
433.80	1789.92
434.00	1904.61
434.21	1740.77
434.41	1732.58
434.62	1861.60
434.82	1730.53
435.03	1675.24
435.23	1740.77
435.44	1701.86
435.64	1761.25
435.85	1787.88
436.06	1783.78
436.26	1656.81
436.47	1720.29
436.67	1720.29
436.88	1767.40
437.08	1753.06
437.29	1771.49
437.49	1771.49
437.70	1785.83
437.90	1744.87
438.11	1843.17
438.31	1748.97
438.52	1896.42
438.72	1837.03
438.93	1837.03
439.13	1802.21
439.34	1830.88
439.54	1837.03
439.75	1748.97
439.95	1798.12
440.16	1697.77
440.36	1822.69
440.57	1757.16
440.77	1746.92
440.98	1720.29
441.18	1771.49
441.39	1689.57
441.59	1720.29
441.80	1746.92
442.00	1724.39
442.21	1857.51
442.41	1744.87
442.62	1751.01
442.82	1759.21
443.02	1757.16
443.23	1697.77
443.43	1701.86
443.64	1857.51
443.84	1642.47
444.05	1845.22
444.25	1736.68
444.46	1751.01
444.66	1769.44
444.87	1855.46
445.07	1714.15
445.28	1693.67
445.48	1757.16
445.69	1800.16
445.89	1929.19
446.09	1779.68
446.30	1931.23
446.50	2672.60
446.71	3635.14
446.91	4442.04
447.12	4724.66
447.32	4779.96
447.53	4308.93
447.73	3850.18
447.93	3416.01
448.14	3280.85
448.34	3227.60
448.55	2856.92
448.75	2762.71
448.96	2734.04
449.16	2406.36
449.36	2359.26
449.57	2088.93
449.77	1888.23
449.98	1865.70
450.18	1818.60
450.39	1814.50
450.59	1771.49
450.79	1767.40
451.00	1748.97
451.20	1779.68
451.41	1738.73
451.61	1767.40
451.81	1751.01
452.02	1736.68
452.22	1642.47
452.43	1716.20
452.63	1665.00
452.84	1755.11
453.04	1644.52
453.24	1794.02
453.45	1710.05
453.65	1753.06
453.86	1789.92
454.06	1761.25
454.26	1775.59
454.47	1751.01
454.67	1763.30
454.87	1738.73
455.08	1771.49
455.28	1880.04
455.49	1822.69
455.69	1677.29
455.89	1851.36
456.10	1820.64
456.30	1759.21
456.51	1767.40
456.71	1736.68
456.91	1845.22
457.12	1787.88
457.32	1771.49
457.52	1621.99
457.73	1798.12
457.93	1789.92
458.14	1662.95
458.34	1632.23
458.54	1734.63
458.75	1746.92
458.95	1839.08
459.15	1730.53
459.36	1728.49
459.56	1820.64
459.76	1867.75
459.97	1734.63
460.17	1753.06
460.37	1849.32
460.58	1656.81
460.78	1830.88
460.99	1826.79
461.19	1769.44
461.39	1744.87
461.60	1789.92
461.80	1794.02
462.00	1744.87
462.21	1669.09
462.41	1683.43
462.61	1703.91
462.82	1646.57
463.02	1791.97
463.22	1742.82
463.43	1763.30
463.63	1757.16
463.83	1841.12
464.04	1769.44
464.24	1769.44
464.44	1669.09
464.64	1730.53
464.85	1763.30
465.05	1869.80
465.25	1753.06
465.46	1710.05
465.66	1828.84
465.86	1832.93
466.07	1753.06
466.27	1820.64
466.47	1646.57
466.68	1695.72
466.88	1859.56
467.08	1849.32
467.29	1765.35
467.49	1796.07
467.69	1814.50
467.89	1724.39
468.10	1730.53
468.30	1781.73
468.50	1884.13
468.71	1751.01
468.91	1640.42
469.11	1900.52
469.31	1791.97
469.52	1748.97
469.72	1828.84
469.92	1851.36
470.13	1687.53
470.33	1679.33
470.53	1841.12
470.73	2086.88
470.94	2330.59
471.14	2346.97
471.34	2432.99
471.54	2369.50
471.75	2170.85
471.95	2099.17
472.15	2082.78
472.36	2107.36
472.56	2027.49
472.76	2068.45
472.96	1978.34
473.17	1964.00
473.37	1834.98
473.57	1796.07
473.77	1818.60
473.98	1681.38
474.18	1728.49
474.38	1853.41
474.58	1662.95
474.79	1716.20
474.99	1773.54
475.19	1755.11
475.39	1710.05
475.60	1732.58
475.80	1761.25
476.00	1675.24
476.20	1710.05
476.41	1730.53
476.61	1773.54
476.81	1806.31
477.01	1726.44
477.21	1830.88
477.42	1796.07
477.62	1689.57
477.82	1830.88
478.02	1763.30
478.23	1787.88
478.43	1699.81
478.63	1648.61
478.83	1759.21
479.03	1757.16
479.24	1787.88
479.44	1785.83
479.64	1669.09
479.84	1636.33
480.04	1691.62
480.25	1808.36
480.45	1660.90
480.65	1796.07
480.85	1779.68
481.06	1705.96
481.26	1847.27
481.46	1791.97
481.66	1828.84
481.86	1636.33
482.06	1818.60
482.27	1773.54
482.47	1669.09
482.67	1869.80
482.87	1732.58
483.07	1945.57
483.28	1738.73
483.48	1593.32
483.68	1726.44
483.88	1665.00
484.08	1583.08
484.29	1626.09
484.49	1748.97
484.69	1689.57
484.89	1718.25
485.09	1773.54
485.29	1839.08
485.50	1765.35
485.70	1738.73
485.90	1839.08
486.10	1785.83
486.30	1720.29
486.50	1800.16
486.71	1722.34
486.91	1765.35
487.11	1810.40
487.31	1734.63
487.51	1703.91
487.71	1652.71
487.91	1652.71
488.12	1734.63
488.32	1568.74
488.52	1740.77
488.72	1607.66
488.92	1689.57
489.12	1800.16
489.32	1722.34
489.53	1722.34
489.73	1605.61
489.93	1767.40
490.13	1679.33
490.33	1634.28
490.53	1751.01
490.73	1802.21
490.94	1667.05
491.14	1763.30
491.34	1822.69
491.54	2088.93
491.74	2527.19
491.94	2885.59
492.14	3008.47
492.34	3106.77
492.54	2711.51
492.75	2471.90
492.95	2486.23
493.15	2340.83
493.35	2295.77
493.55	2326.49
493.75	2093.02
493.95	2099.17
494.15	2004.96
494.35	1867.75
494.56	1832.93
494.76	1816.55
494.96	1767.40
495.16	1814.50
495.36	1689.57
495.56	1730.53
495.76	1744.87
495.96	1656.81
496.16	1742.82
496.36	1892.32
496.56	1753.06
496.77	1730.53
496.97	1683.43
497.17	1753.06
497.37	1609.70
497.57	1765.35
497.77	1742.82
497.97	1652.71
498.17	1746.92
498.37	1728.49
498.57	1832.93
498.77	1699.81
498.97	1804.26
499.17	1888.23
499.38	1777.64
499.58	1796.07
499.78	1814.50
499.98	1781.73
500.18	1781.73
500.38	1683.43
500.58	1855.46
500.78	2539.48
500.98	4487.10
501.18	5629.87
501.38	6715.29
501.58	6969.24
501.78	6637.47
501.98	5461.93
502.18	4855.73
502.38	4310.97
502.58	4163.52
502.78	3762.12
502.98	3598.28
503.18	3377.10
503.38	3172.30
503.59	2789.33
503.79	2627.54
503.99	2463.71
504.19	2291.68
504.39	2232.29
504.59	2146.27
504.79	2121.70
504.99	1998.82
505.19	1976.29
505.39	1798.12
505.59	1982.43
505.79	1884.13
505.99	1916.90
506.19	1814.50
506.39	1906.66
506.59	1806.31
506.79	1755.11
506.99	1865.70
507.19	1804.26
507.39	1783.78
507.59	1673.19
507.79	1681.38
507.99	1644.52
508.19	1730.53
508.39	1751.01
508.59	1773.54
508.79	1787.88
508.99	1867.75
509.19	1699.81
509.39	1748.97
509.59	1701.86
509.79	1665.00
509.99	1751.01
510.19	1748.97
510.39	1812.45
510.59	1830.88
510.79	1667.05
510.99	1687.53
511.19	1769.44
511.39	1855.46
511.59	1728.49
511.79	1834.98
511.99	1767.40
512.19	1824.74
512.38	1742.82
512.58	1751.01
512.78	1783.78
512.98	1789.92
513.18	1845.22
513.38	1685.48
513.58	1798.12
513.78	1718.25
513.98	1722.34
514.18	1660.90
514.38	1705.96
514.58	1736.68
514.78	1667.05
514.98	1689.57
515.18	1767.40
515.38	1701.86
515.58	1941.47
515.78	1742.82
515.98	1732.58
516.18	1855.46
516.38	1769.44
516.57	1720.29
516.77	1673.19
516.97	1738.73
517.17	1800.16
517.37	1646.57
517.57	1822.69
517.77	1785.83
517.97	1683.43
518.17	1757.16
518.37	1730.53
518.57	1742.82
518.77	1763.30
518.97	1746.92
519.16	1779.68
519.36	1822.69
519.56	1665.00
519.76	1740.77
519.96	1738.73
520.16	1761.25
520.36	1648.61
520.56	1812.45
520.76	1667.05
520.96	1744.87
521.16	1828.84
521.35	1886.18
521.55	1826.79
521.75	1763.30
521.95	1724.39
522.15	1665.00
522.35	1722.34
522.55	1679.33
522.75	1861.60
522.95	1726.44
523.14	1728.49
523.34	1748.97
523.54	1669.09
523.74	1804.26
523.94	1773.54
524.14	1662.95
524.34	1800.16
524.54	1783.78
524.73	1761.25
524.93	1785.83
525.13	1740.77
525.33	1687.53
525.53	1882.08
525.73	1740.77
525.93	1765.35
526.13	1722.34
526.32	1775.59
526.52	1785.83
526.72	1787.88
526.92	1748.97
527.12	1765.35
527.32	1714.15
527.52	1753.06
527.71	1763.30
527.91	1796.07
528.11	1748.97
528.31	1722.34
528.51	1687.53
528.71	1781.73
528.90	1748.97
529.10	1841.12
529.30	1824.74
529.50	1732.58
529.70	1808.36
529.90	1787.88
530.09	1808.36
530.29	1763.30
530.49	1683.43
530.69	1927.14
530.89	1736.68
531.09	1763.30
531.28	1722.34
531.48	1865.70
531.68	1744.87
531.88	1724.39
532.08	1845.22
532.28	1716.20
532.47	1837.03
532.67	1804.26
532.87	1718.25
533.07	1710.05
533.27	1734.63
533.46	1710.05
533.66	1751.01
533.86	1714.15
534.06	1736.68
534.26	1726.44
534.45	1714.15
534.65	1755.11
534.85	1705.96
535.05	1718.25
535.25	1724.39
535.44	1628.14
535.64	1839.08
535.84	1775.59
536.04	1742.82
536.24	1763.30
536.43	1712.10
536.63	1828.84
536.83	1726.44
537.03	1697.77
537.22	1624.04
537.42	1732.58
537.62	1761.25
537.82	1753.06
538.02	1783.78
538.21	1847.27
538.41	1945.57
538.61	1753.06
538.81	1681.38
539.00	1824.74
539.20	1714.15
539.40	1708.01
539.60	1769.44
539.79	1742.82
539.99	1769.44
540.19	1650.66
540.39	1720.29
540.58	1732.58
540.78	1746.92
540.98	1718.25
541.18	1759.21
541.37	1757.16
541.57	1791.97
541.77	1832.93
541.97	1681.38
542.16	1650.66
542.36	1712.10
542.56	1740.77
542.76	1830.88
542.95	1753.06
543.15	1712.10
543.35	1853.41
543.54	1740.77
543.74	1822.69
543.94	1847.27
544.14	1679.33
544.33	1787.88
544.53	1638.38
544.73	1716.20
544.93	1687.53
545.12	1771.49
545.32	1705.96
545.52	1708.01
545.71	1763.30
545.91	1732.58
546.11	1757.16
546.30	1746.92
546.50	1744.87
546.70	1763.30
546.90	1777.64
547.09	1658.85
547.29	1751.01
547.49	1714.15
547.68	1755.11
547.88	1732.58
548.08	1787.88
548.27	2150.37
548.47	1712.10
548.67	1695.72
548.87	1740.77
549.06	1718.25
549.26	1759.21
549.46	1800.16
549.65	1683.43
549.85	1755.11
550.05	1734.63
550.24	1693.67
550.44	1748.97
550.64	1740.77
550.83	1724.39
551.03	1841.12
551.23	1738.73
551.42	1787.88
551.62	1787.88
551.82	1789.92
552.01	1712.10
552.21	1855.46
552.41	1806.31
552.60	1767.40
552.80	1783.78
553.00	1726.44
553.19	1791.97
553.39	1869.80
553.59	1730.53
553.78	1740.77
553.98	1804.26
554.17	1751.01
554.37	1744.87
554.57	1798.12
554.76	1656.81
554.96	1757.16
555.16	1886.18
555.35	1779.68
555.55	1742.82
555.75	1767.40
555.94	1767.40
556.14	1705.96
556.33	1828.84
556.53	1755.11
556.73	1800.16
556.92	1701.86
557.12	1783.78
557.32	1880.04
557.51	1773.54
557.71	1675.24
557.90	1869.80
558.10	1832.93
558.30	1789.92
558.49	1759.21
558.69	1740.77
558.88	1832.93
559.08	1796.07
559.28	1763.30
559.47	1814.50
559.67	1869.80
559.86	1931.23
560.06	1734.63
560.26	1777.64
560.45	1761.25
560.65	1677.29
560.84	1800.16
561.04	1728.49
561.24	1839.08
561.43	1671.14
561.63	1773.54
561.82	1703.91
562.02	1826.79
562.22	1767.40
562.41	1716.20
562.61	1742.82
562.80	1748.97
563.00	1888.23
563.19	1746.92
563.39	1775.59
563.59	1730.53
563.78	1691.62
563.98	1621.99
564.17	1658.85
564.37	1662.95
564.56	1798.12
564.76	1673.19
564.96	1869.80
565.15	1763.30
565.35	1937.38
565.54	1701.86
565.74	1779.68
565.93	1789.92
566.13	1705.96
566.32	1734.63
566.52	1834.98
566.71	1744.87
566.91	1804.26
567.11	1755.11
567.30	1701.86
567.50	1695.72
567.69	1710.05
567.89	1734.63
568.08	1771.49
568.28	1781.73
568.47	1730.53
568.67	1804.26
568.86	1724.39
569.06	1806.31
569.25	1712.10
569.45	1693.67
569.64	1710.05
569.84	1826.79
570.04	1791.97
570.23	1675.24
570.43	1765.35
570.62	1824.74
570.82	1830.88
571.01	1736.68
571.21	1744.87
571.40	1722.34
571.60	1759.21
571.79	1783.78
571.99	1763.30
572.18	1714.15
572.38	1785.83
572.57	1753.06
572.77	1787.88
572.96	1912.80
573.16	1812.45
573.35	1787.88
573.55	1849.32
573.74	1869.80
573.94	1697.77
574.13	1785.83
574.33	1814.50
574.52	1806.31
574.71	1722.34
574.91	1765.35
575.10	1746.92
575.30	1802.21
575.49	1767.40
575.69	1667.05
575.88	1783.78
576.08	1757.16
576.27	1783.78
576.47	1824.74
576.66	1886.18
576.86	1740.77
577.05	1787.88
577.25	1841.12
577.44	1820.64
577.64	1701.86
577.83	1804.26
578.02	1783.78
578.22	1812.45
578.41	1816.55
578.61	1734.63
578.80	1796.07
579.00	1771.49
579.19	1759.21
579.39	1877.99
579.58	1796.07
579.77	1738.73
579.97	1873.89
580.16	1847.27
580.36	1822.69
580.55	1814.50
580.75	1724.39
580.94	1763.30
581.13	1841.12
581.33	1884.13
581.52	1738.73
581.72	1845.22
581.91	1820.64
582.11	1724.39
582.30	1730.53
582.49	1808.36
582.69	1824.74
582.88	1785.83
583.08	1789.92
583.27	1820.64
583.47	1783.78
583.66	1685.48
583.85	1726.44
584.05	1759.21
584.24	1769.44
584.44	1791.97
584.63	1779.68
584.82	1845.22
585.02	1857.51
585.21	1781.73
585.41	1902.56
585.60	1839.08
585.79	1994.72
585.99	1828.84
586.18	1927.14
586.37	2144.22
586.57	3381.20
586.76	9877.35
586.96	23879.32
587.15	33697.28
587.34	39497.13
587.54	41211.28
587.73	35767.77
587.93	25833.08
588.12	21227.20
588.31	17788.66
588.51	15619.86
588.70	14718.75
588.89	13651.76
589.09	12349.25
589.28	10860.38
589.47	9047.93
589.67	7868.30
589.86	6289.31
590.06	4949.94
590.25	3782.60
590.44	3022.80
590.64	2461.66
590.83	2271.20
591.02	2115.55
591.22	2013.15
591.41	1927.14
591.60	1759.21
591.80	1904.61
591.99	1806.31
592.18	1740.77
592.38	1791.97
592.57	1818.60
592.76	1869.80
592.96	1763.30
593.15	1826.79
593.34	1931.23
593.54	1710.05
593.73	1761.25
593.92	1773.54
594.12	1773.54
594.31	1810.40
594.50	1818.60
594.70	1777.64
594.89	1877.99
595.08	1716.20
595.28	1779.68
595.47	1951.71
595.66	1779.68
595.86	1779.68
596.05	1746.92
596.24	1742.82
596.43	1945.57
596.63	1834.98
596.82	1794.02
597.01	1814.50
597.21	1832.93
597.40	1773.54
597.59	1734.63
597.79	1718.25
597.98	1771.49
598.17	1791.97
598.36	1753.06
598.56	1794.02
598.75	1683.43
598.94	1808.36
599.14	1697.77
599.33	1705.96
599.52	1804.26
599.71	1738.73
599.91	1847.27
600.10	1765.35
600.29	1761.25
600.48	1824.74
600.68	1779.68
600.87	1755.11
601.06	1687.53
601.26	1722.34
601.45	1738.73
601.64	1744.87
601.83	1806.31
602.03	1720.29
602.22	1634.28
602.41	1728.49
602.60	1824.74
602.80	1781.73
602.99	1806.31
603.18	1722.34
603.37	1732.58
603.57	1681.38
603.76	1839.08
603.95	1812.45
604.14	1779.68
604.34	1656.81
604.53	1779.68
604.72	1806.31
604.91	1726.44
605.10	1806.31
605.30	1691.62
605.49	1873.89
605.68	1804.26
605.87	1787.88
606.07	1794.02
606.26	1834.98
606.45	1818.60
606.64	1689.57
606.84	1726.44
607.03	1775.59
607.22	1771.49
607.41	1716.20
607.60	1685.48
607.80	1841.12
607.99	1814.50
608.18	1669.09
608.37	1757.16
608.56	1708.01
608.76	1800.16
608.95	1767.40
609.14	1751.01
609.33	1775.59
609.52	1755.11
609.72	1722.34
609.91	1740.77
610.10	1701.86
610.29	1830.88
610.48	1816.55
610.68	1765.35
610.87	1746.92
611.06	1802.21
611.25	1699.81
611.44	1861.60
611.63	1765.35
611.83	1787.88
612.02	1753.06
612.21	1820.64
612.40	1636.33
612.59	1699.81
612.79	1621.99
612.98	1761.25
613.17	1841.12
613.36	1775.59
613.55	1839.08
613.74	1687.53
613.93	1667.05
614.13	1769.44
614.32	1691.62
614.51	1746.92
614.70	1777.64
614.89	1683.43
615.08	1818.60
615.28	2070.50
615.47	1720.29
615.66	1777.64
615.85	1716.20
616.04	1820.64
616.23	1693.67
616.42	1794.02
616.62	1742.82
616.81	1800.16
617.00	1767.40
617.19	1763.30
617.38	1728.49
617.57	1761.25
617.76	1763.30
617.95	1705.96
618.15	1769.44
618.34	1783.78
618.53	1691.62
618.72	1804.26
618.91	1826.79
619.10	1849.32
619.29	1744.87
619.48	1740.77
619.68	1646.57
619.87	1763.30
620.06	1619.94
620.25	1763.30
620.44	1728.49
620.63	1703.91
620.82	1673.19
621.01	1751.01
621.20	1677.29
621.39	1748.97
621.59	1791.97
621.78	1742.82
621.97	1763.30
622.16	1759.21
622.35	1769.44
622.54	1824.74
622.73	1886.18
622.92	1730.53
623.11	1765.35
623.30	1714.15
623.49	1775.59
623.68	1693.67
623.88	1785.83
624.07	1695.72
624.26	1722.34
624.45	1683.43
624.64	1724.39
624.83	1732.58
625.02	1689.57
625.21	1751.01
625.40	1812.45
625.59	1753.06
625.78	1732.58
625.97	1785.83
626.16	1732.58
626.35	1812.45
626.54	1777.64
626.74	1779.68
626.93	1652.71
627.12	1773.54
627.31	1785.83
627.50	1753.06
627.69	1716.20
627.88	1777.64
628.07	1691.62
628.26	1667.05
628.45	1751.01
628.64	1667.05
628.83	1759.21
629.02	1646.57
629.21	1777.64
629.40	1751.01
629.59	1673.19
629.78	1736.68
629.97	1767.40
630.16	1708.01
630.35	1665.00
630.54	1808.36
630.73	1697.77
630.92	1642.47
631.11	1646.57
631.30	1695.72
631.49	1765.35
631.68	1742.82
631.87	1789.92
632.06	1689.57
632.25	1787.88
632.44	1730.53
632.63	1775.59
632.82	1642.47
633.01	1628.14
633.20	1763.30
633.39	1738.73
633.58	1716.20
633.77	1742.82
633.96	1693.67
634.15	1789.92
634.34	1722.34
634.53	1771.49
634.72	1665.00
634.91	1617.90
635.10	1722.34
635.29	1751.01
635.48	1757.16
635.67	1632.23
635.86	1708.01
636.05	1804.26
636.24	1771.49
636.43	1757.16
636.62	1814.50
636.81	1562.60
637.00	1714.15
637.19	1716.20
637.38	1753.06
637.57	1755.11
637.76	1675.24
637.95	1710.05
638.14	1665.00
638.33	1714.15
638.52	1712.10
638.71	1660.90
638.89	1656.81
639.08	1882.08
639.27	1779.68
639.46	1685.48
639.65	1826.79
639.84	1800.16
640.03	1810.40
640.22	1646.57
640.41	1828.84
640.60	1642.47
640.79	1751.01
640.98	1669.09
641.17	1820.64
641.36	1732.58
641.55	1787.88
641.74	1599.46
641.92	1697.77
642.11	1675.24
642.30	1714.15
642.49	1687.53
642.68	1779.68
642.87	1798.12
643.06	1765.35
643.25	1685.48
643.44	1689.57
643.63	1714.15
643.82	1738.73
644.00	1748.97
644.19	1779.68
644.38	1644.52
644.57	1796.07
644.76	1714.15
644.95	1689.57
645.14	1660.90
645.33	1722.34
645.52	1677.29
645.71	1728.49
645.89	1724.39
646.08	1697.77
646.27	1685.48
646.46	1767.40
646.65	1697.77
646.84	1724.39
647.03	1662.95
647.22	1765.35
647.40	1693.67
647.59	1665.00
647.78	1691.62
647.97	1683.43
648.16	1699.81
648.35	1828.84
648.54	1716.20
648.73	1642.47
648.91	1771.49
649.10	1691.62
649.29	1708.01
649.48	1738.73
649.67	1746.92
649.86	1759.21
650.05	1677.29
650.23	1759.21
650.42	1718.25
650.61	1787.88
650.80	1769.44
650.99	1853.41
651.18	1824.74
651.36	1777.64
651.55	1685.48
651.74	1736.68
651.93	1648.61
652.12	1724.39
652.31	1746.92
652.49	1738.73
652.68	1714.15
652.87	1740.77
653.06	1730.53
653.25	1775.59
653.44	1679.33
653.62	1746.92
653.81	1677.29
654.00	1693.67
654.19	1730.53
654.38	1912.80
654.56	1751.01
654.75	1722.34
654.94	1808.36
655.13	1681.38
655.32	1697.77
655.51	1794.02
655.69	1636.33
655.88	1808.36
656.07	1697.77
656.26	1771.49
656.45	1667.05
656.63	1730.53
656.82	1751.01
657.01	1869.80
657.20	1740.77
657.38	1783.78
657.57	1669.09
657.76	1638.38
657.95	1834.98
658.14	1611.75
658.32	1720.29
658.51	1650.66
658.70	1732.58
658.89	1759.21
659.08	1763.30
659.26	1791.97
659.45	1677.29
659.64	1720.29
659.83	1687.53
660.01	1886.18
660.20	1791.97
660.39	1769.44
660.58	1607.66
660.76	1757.16
660.95	1662.95
661.14	1796.07
661.33	1671.14
661.51	1714.15
661.70	1691.62
661.89	1705.96
662.08	1701.86
662.26	1738.73
662.45	1775.59
662.64	1822.69
662.83	1843.17
663.01	1662.95
663.20	1789.92
663.39	1816.55
663.58	1722.34
663.76	1703.91
663.95	1763.30
664.14	1703.91
664.32	1710.05
664.51	1621.99
664.70	1710.05
664.89	1763.30
665.07	1712.10
665.26	1787.88
665.45	1681.38
665.64	1791.97
665.82	1705.96
666.01	1832.93
666.20	1730.53
666.38	1812.45
666.57	1751.01
666.76	2299.87
666.95	4564.92
667.13	10289.00
667.32	14927.64
667.51	17377.01
667.69	18747.11
667.88	17278.71
668.07	12134.21
668.25	9426.80
668.44	7874.44
668.63	7376.78
668.81	6815.64
669.00	6104.99
669.19	5621.67
669.38	5164.98
669.56	4452.28
669.75	4030.40
669.94	3375.05
670.12	2838.48
670.31	2527.19
670.50	2232.29
670.68	2070.50
670.87	1931.23
671.06	1808.36
671.24	1859.56
671.43	1877.99
671.62	1705.96
671.80	1761.25
671.99	1779.68
672.18	1748.97
672.36	1841.12
672.55	1794.02
672.74	1787.88
672.92	1667.05
673.11	1800.16
673.29	1701.86
673.48	1722.34
673.67	1757.16
673.85	1800.16
674.04	1677.29
674.23	1761.25
674.41	1853.41
674.60	1662.95
674.79	1644.52
674.97	1800.16
675.16	1810.40
675.34	1789.92
675.53	1665.00
675.72	1763.30
675.90	1791.97
676.09	1632.23
676.28	1765.35
676.46	1646.57
676.65	1787.88
676.83	1669.09
677.02	1740.77
677.21	1710.05
677.39	1740.77
677.58	1728.49
677.77	1746.92
677.95	1685.48
678.14	1726.44
678.32	1753.06
678.51	1699.81
678.70	1785.83
678.88	1681.38
679.07	1740.77
679.25	1720.29
679.44	1691.62
679.63	1652.71
679.81	1693.67
680.00	1796.07
680.18	1763.30
680.37	1742.82
680.55	1798.12
680.74	1699.81
680.93	1609.70
681.11	1767.40
681.30	1685.48
681.48	1806.31
681.67	1681.38
681.85	1689.57
682.04	1642.47
682.23	1818.60
682.41	1742.82
682.60	1648.61
682.78	1732.58
682.97	1681.38
683.15	1755.11
683.34	1767.40
683.53	1806.31
683.71	1693.67
683.90	1826.79
684.08	1882.08
684.27	1742.82
684.45	1714.15
684.64	1779.68
684.82	1703.91
685.01	1785.83
685.19	1724.39
685.38	1818.60
685.57	1724.39
685.75	1669.09
685.94	1681.38
686.12	1753.06
686.31	1669.09
686.49	1818.60
686.68	1662.95
686.86	1798.12
687.05	1644.52
687.23	1877.99
687.42	1724.39
687.60	1687.53
687.79	1761.25
687.97	1834.98
688.16	1777.64
688.34	1802.21
688.53	1714.15
688.71	1689.57
688.90	1769.44
689.08	1720.29
689.27	1656.81
689.45	1857.51
689.64	1693.67
689.82	1773.54
690.01	1734.63
690.19	1761.25
690.38	1763.30
690.56	1789.92
690.75	1628.14
690.93	1796.07
691.12	1806.31
691.30	1665.00
691.49	1611.75
691.67	1673.19
691.86	1765.35
692.04	1603.56
692.23	1746.92
692.41	1724.39
692.60	1884.13
692.78	1751.01
692.97	1669.09
693.15	1773.54
693.34	1820.64
693.52	1812.45
693.71	1712.10
693.89	1757.16
694.08	1597.42
694.26	1746.92
694.44	1742.82
694.63	1765.35
694.81	1640.42
695.00	1708.01
695.18	1834.98
695.37	1808.36
695.55	1753.06
695.74	1734.63
695.92	1677.29
696.10	1789.92
696.29	1675.24
696.47	1634.28
696.66	1757.16
696.84	1679.33
697.03	1644.52
697.21	1837.03
697.40	2289.63
697.58	1798.12
697.76	1757.16
697.95	1691.62
698.13	1679.33
698.32	1710.05
698.50	1685.48
698.68	1781.73
698.87	1748.97
699.05	1755.11
699.24	1740.77
699.42	1705.96
699.61	1755.11
699.79	1755.11
699.97	1660.90
700.16	1683.43
700.34	1708.01
700.53	1818.60
700.71	1812.45
700.89	1812.45
701.08	1738.73
701.26	1714.15
701.45	2146.27
701.63	1677.29
701.81	1728.49
702.00	1705.96
702.18	1720.29
702.37	1761.25
702.55	1669.09
702.73	1689.57
702.92	1566.70
703.10	1748.97
703.28	1710.05
703.47	1640.42
703.65	1794.02
703.84	1779.68
704.02	1634.28
704.20	1789.92
704.39	1689.57
704.57	1685.48
704.75	1832.93
704.94	1783.78
705.12	1775.59
705.30	1841.12
705.49	2170.85
705.67	4470.72
705.86	9416.56
706.04	12314.44
706.22	14382.88
706.41	15007.52
706.59	13391.67
706.77	9369.46
706.96	7290.77
707.14	6551.45
707.32	5844.90
707.51	5472.17
707.69	4841.40
707.87	4257.73
708.06	3506.12
708.24	2938.84
708.42	2379.74
708.61	2308.06
708.79	1935.33
708.97	1830.88
709.16	1898.47
709.34	1775.59
709.52	1767.40
709.71	1771.49
709.89	1804.26
710.07	1691.62
710.26	1624.04
710.44	1697.77
710.62	1869.80
710.80	1755.11
710.99	1789.92
711.17	1751.01
711.35	1728.49
711.54	1732.58
711.72	1742.82
711.90	1791.97
712.09	1652.71
712.27	1712.10
712.45	1697.77
712.63	1703.91
712.82	1800.16
713.00	1718.25
713.18	1818.60
713.37	1779.68
713.55	1812.45
713.73	1757.16
713.91	1732.58
714.10	1656.81
714.28	1740.77
714.46	1796.07
714.65	1714.15
714.83	1710.05
715.01	1716.20
715.19	1714.15
715.38	1683.43
715.56	1730.53
715.74	1689.57
715.92	1646.57
716.11	1802.21
716.29	1599.46
716.47	1808.36
716.65	1628.14
716.84	1654.76
717.02	1748.97
717.20	1652.71
717.38	1607.66
717.57	1730.53
717.75	1714.15
717.93	1669.09
718.11	1732.58
718.30	1552.36
718.48	1751.01
718.66	1757.16
718.84	1732.58
719.03	1714.15
719.21	1726.44
719.39	1843.17
719.57	1759.21
719.75	1810.40
719.94	1710.05
720.12	1665.00
720.30	1859.56
720.48	1738.73
720.67	1710.05
720.85	1619.94
721.03	1787.88
721.21	1669.09
721.39	1798.12
721.58	1730.53
721.76	1714.15
721.94	1689.57
722.12	1677.29
722.30	1892.32
722.49	1769.44
722.67	1691.62
722.85	1765.35
723.03	1710.05
723.21	1730.53
723.40	1763.30
723.58	1720.29
723.76	1687.53
723.94	1855.46
724.12	1716.20
724.30	1832.93
724.49	1728.49
724.67	1654.76
724.85	1751.01
725.03	1593.32
725.21	1796.07
725.40	1763.30
725.58	1660.90
725.76	1818.60
725.94	1765.35
726.12	1652.71
726.30	1724.39
726.49	1665.00
726.67	1640.42
726.85	1785.83
727.03	1816.55
727.21	2181.09
727.39	3035.09
727.57	3774.41
727.76	4124.61
727.94	4487.10
728.12	4347.84
728.30	3696.58
728.48	2959.31
728.66	2756.57
728.84	2529.24
729.03	2289.63
729.21	2105.31
729.39	1972.19
729.57	1871.84
729.75	1877.99
729.93	1828.84
730.11	1724.39
730.30	1716.20
730.48	1689.57
730.66	1794.02
730.84	1775.59
731.02	1677.29
731.20	1800.16
731.38	1796.07
731.56	1681.38
731.74	1665.00
731.93	1779.68
732.11	1681.38
732.29	1759.21
732.47	1777.64
732.65	1771.49
732.83	1767.40
733.01	1785.83
733.19	1685.48
733.37	1783.78
733.56	1724.39
733.74	1718.25
733.92	1847.27
734.10	1730.53
734.28	1726.44
734.46	1570.79
734.64	1720.29
734.82	1673.19
735.00	1693.67
735.18	1681.38
735.36	1652.71
735.54	1732.58
735.73	1667.05
735.91	1751.01
736.09	1671.14
736.27	1695.72
736.45	1773.54
736.63	1636.33
736.81	1658.85
736.99	1789.92
737.17	1777.64
737.35	1658.85
737.53	1785.83
737.71	1669.09
737.89	1843.17
738.07	1787.88
738.25	1697.77
738.43	1634.28
738.61	1673.19
738.80	1689.57
738.98	1673.19
739.16	1650.66
739.34	1705.96
739.52	1728.49
739.70	1648.61
739.88	1775.59
740.06	1787.88
740.24	1587.18
740.42	1771.49
740.60	1640.42
740.78	1751.01
740.96	1656.81
741.14	1722.34
741.32	1685.48
741.50	1617.90
741.68	1861.60
741.86	1759.21
742.04	1691.62
742.22	1683.43
742.40	1742.82
742.58	1695.72
742.76	1658.85
742.94	1726.44
743.12	1648.61
743.30	1632.23
743.48	1728.49
743.66	1708.01
743.84	1804.26
744.02	1603.56
744.20	1671.14
744.38	1652.71
744.56	1632.23
744.74	1812.45
744.92	1767.40
745.10	1808.36
745.28	1730.53
745.46	1886.18
745.64	1656.81
745.82	1775.59
746.00	1740.77
746.18	1767.40
746.36	1646.57
746.54	1746.92
746.72	1697.77
746.90	1689.57
747.08	1761.25
747.26	1681.38
747.44	1761.25
747.62	1763.30
747.80	1689.57
747.98	1738.73
748.15	1685.48
748.33	1787.88
748.51	1726.44
748.69	1748.97
748.87	1662.95
749.05	1644.52
749.23	1679.33
749.41	1775.59
749.59	1722.34
749.77	1763.30
749.95	1699.81
750.13	1640.42
750.31	1820.64
750.49	1730.53
750.67	1736.68
750.85	1812.45
751.03	1769.44
751.20	1806.31
751.38	1683.43
751.56	1626.09
751.74	1710.05
751.92	1755.11
752.10	1746.92
752.28	1757.16
752.46	1687.53
752.64	1753.06
752.82	1718.25
753.00	1759.21
753.18	1740.77
753.35	1621.99
753.53	1691.62
753.71	1691.62
753.89	1722.34
754.07	1675.24
754.25	1757.16
754.43	1683.43
754.61	1636.33
754.79	1841.12
754.97	1796.07
755.14	1851.36
755.32	1568.74
755.50	1695.72
755.68	1738.73
755.86	1646.57
756.04	1705.96
756.22	1632.23
756.40	1718.25
756.57	1837.03
756.75	1644.52
756.93	1716.20
757.11	1820.64
757.29	1634.28
757.47	1689.57
757.65	1646.57
757.82	1587.18
758.00	1595.37
758.18	1802.21
758.36	1718.25
758.54	1824.74
758.72	1667.05
758.90	1669.09
759.07	1734.63
759.25	1662.95
759.43	1742.82
759.61	1683.43
759.79	2211.81
759.97	1765.35
760.15	1726.44
760.32	1724.39
760.50	1746.92
760.68	1824.74
760.86	1685.48
761.04	1820.64
761.22	1759.21
761.39	1812.45
761.57	1791.97
761.75	1660.90
761.93	1798.12
762.11	1710.05
762.28	1716.20
762.46	1585.13
762.64	1751.01
762.82	1660.90
763.00	1716.20
763.18	1806.31
763.35	1650.66
763.53	1736.68
763.71	1775.59
763.89	1744.87
764.07	1771.49
764.24	1687.53
764.42	1759.21
764.60	1718.25
764.78	1746.92
764.96	1787.88
765.13	1767.40
765.31	1753.06
765.49	1705.96
765.67	1714.15
765.84	1675.24
766.02	1742.82
766.20	1624.04
766.38	1773.54
766.56	1826.79
766.73	1722.34
766.91	1652.71
767.09	1726.44
767.27	1751.01
767.44	1640.42
767.62	1712.10
767.80	1640.42
767.98	1683.43
768.15	1773.54
768.33	1787.88
768.51	1746.92
768.69	1773.54
768.87	1755.11
769.04	1697.77
769.22	1845.22
769.40	1814.50
769.58	1882.08
769.75	1697.77
769.93	1806.31
770.11	1691.62
770.28	1695.72
770.46	1767.40
770.64	1714.15
770.82	1642.47
770.99	1728.49
771.17	1679.33
771.35	1570.79
771.53	1669.09
771.70	1691.62
771.88	1777.64
772.06	1728.49
772.23	1751.01
772.41	1757.16
772.59	1734.63
772.77	1632.23
772.94	1693.67
773.12	1753.06
773.30	1697.77
773.47	1705.96
773.65	1632.23
773.83	1781.73
774.01	1742.82
774.18	1648.61
774.36	1685.48
774.54	1701.86
774.71	1771.49
774.89	1650.66
775.07	1691.62
775.24	1726.44
775.42	1681.38
775.60	1787.88
775.78	1687.53
775.95	1652.71
776.13	1656.81
776.31	1585.13
776.48	1699.81
776.66	1763.30
776.84	1679.33
777.01	1767.40
777.19	1703.91
777.37	1716.20
777.54	1640.42
777.72	1806.31
777.90	1757.16
778.07	1730.53
778.25	1851.36
778.43	1812.45
778.60	1638.38
778.78	1734.63
778.96	1771.49
779.13	1691.62
779.31	1718.25
779.49	1677.29
779.66	1685.48
779.84	1710.05
780.01	1687.53
780.19	1648.61
780.37	1732.58
780.54	1736.68
780.72	1662.95
780.90	1667.05
781.07	1699.81
781.25	1654.76
781.43	1763.30
781.60	1599.46
781.78	1841.12
781.95	1751.01
782.13	1677.29
782.31	1689.57
782.48	1556.46
782.66	1841.12
782.83	1865.70
783.01	1814.50
783.19	1759.21
783.36	1779.68
783.54	1699.81
783.72	1828.84
783.89	1658.85
784.07	1740.77
784.24	1689.57
784.42	1845.22
784.60	1726.44
784.77	1744.87
784.95	1667.05
785.12	1681.38
785.30	1791.97
785.47	1660.90
785.65	1677.29
785.83	1669.09
786.00	1636.33
786.18	1748.97
786.35	1701.86
786.53	1583.08
786.71	1779.68
786.88	1783.78
787.06	1697.77
787.23	1683.43
787.41	1607.66
787.58	1683.43
787.76	1685.48
787.94	1828.84
788.11	1748.97
788.29	1572.84
788.46	1724.39
788.64	1642.47
788.81	1675.24
788.99	1615.85
789.16	1626.09
789.34	1755.11
789.52	1687.53
789.69	1705.96
789.87	1585.13
790.04	1691.62
790.22	1683.43
790.39	1818.60
790.57	1705.96
790.74	1638.38
790.92	1720.29
791.09	1652.71
791.27	1822.69
791.44	1748.97
791.62	1671.14
791.79	1761.25
791.97	1673.19
792.15	1871.84
792.32	1728.49
792.50	1806.31
792.67	1796.07
792.85	1773.54
793.02	1705.96
793.20	1662.95
793.37	1728.49
793.55	1673.19
793.72	1642.47
793.90	1732.58
794.07	1638.38
794.25	1683.43
794.42	1738.73
794.60	1746.92
794.77	1763.30
794.95	1832.93
795.12	1740.77
795.30	1648.61
795.47	1636.33
795.65	1845.22
795.82	1703.91
796.00	1697.77
796.17	1667.05
796.34	1667.05
796.52	1728.49
796.69	1730.53
796.87	1806.31
797.04	1691.62
797.22	1794.02
797.39	1798.12
797.57	1802.21
797.74	1701.86
797.92	1705.96
798.09	1718.25
798.27	1767.40
798.44	1718.25
798.62	1658.85
798.79	1732.58
798.96	1748.97
799.14	1697.77
799.31	1894.37
799.49	1671.14
799.66	1689.57
799.84	1763.30
800.01	1726.44
800.19	1759.21
800.36	1560.55
800.53	1757.16
800.71	1763.30
800.88	1781.73
801.06	1753.06
801.23	1619.94
801.41	1634.28
801.58	1679.33
801.75	1617.90
801.93	1771.49
802.10	1753.06
802.28	1687.53
802.45	1716.20
802.63	1822.69
802.80	1693.67
802.97	1708.01
803.15	1660.90
803.32	1652.71
803.50	1722.34
803.67	1714.15
803.84	1681.38
804.02	1658.85
804.19	1724.39
804.37	1624.04
804.54	1705.96
804.71	1634.28
804.89	1687.53
805.06	1681.38
805.24	1605.61
805.41	1732.58
805.58	1656.81
805.76	1861.60
805.93	1705.96
806.10	1837.03
806.28	1798.12
806.45	1744.87
806.63	1701.86
806.80	1748.97
806.97	1736.68
807.15	1697.77
807.32	1658.85
807.49	1687.53
807.67	1675.24
807.84	1779.68
808.01	1712.10
808.19	1869.80
808.36	1865.70
808.54	1705.96
808.71	1697.77
808.88	1757.16
809.06	1724.39
809.23	1753.06
809.40	1634.28
809.58	1765.35
809.75	1714.15
809.92	1654.76
810.10	1814.50
810.27	1705.96
810.44	1734.63
810.62	1753.06
810.79	1763.30
810.96	1646.57
811.14	1691.62
811.31	1742.82
811.48	1832.93
811.66	1734.63
811.83	1769.44
812.00	1726.44
812.18	1736.68
812.35	1851.36
812.52	1746.92
812.69	1650.66
812.87	1728.49
813.04	1662.95
813.21	1658.85
813.39	1673.19
813.56	1683.43
813.73	1775.59
813.91	1679.33
814.08	1697.77
814.25	1705.96
814.42	1619.94
814.60	1738.73
814.77	1708.01
814.94	1669.09
815.12	1667.05
815.29	1781.73
815.46	1656.81
815.63	1789.92
815.81	1759.21
815.98	1630.18
816.15	1628.14
816.33	1742.82
816.50	1796.07
816.67	1740.77
816.84	1611.75
817.02	1652.71
817.19	1681.38
817.36	1708.01
817.53	1687.53
817.71	1718.25
817.88	1757.16
818.05	1748.97
818.22	1675.24
818.40	1785.83
818.57	1701.86
818.74	1708.01
818.91	1785.83
819.09	1683.43
819.26	1787.88
819.43	1640.42
819.60	1656.81
819.78	1726.44
819.95	1691.62
820.12	1765.35
820.29	1732.58
820.47	1763.30
820.64	1697.77
820.81	1615.85
820.98	1611.75
821.15	1730.53
821.33	1720.29
821.50	1617.90
821.67	1724.39
821.84	1720.29
822.02	1744.87
822.19	1669.09
822.36	1710.05
822.53	1705.96
822.70	1652.71
822.88	1693.67
823.05	1787.88
823.22	1677.29
823.39	1693.67
823.56	1710.05
823.74	1746.92
823.91	1662.95
824.08	1660.90
824.25	1685.48
824.42	1769.44
824.60	1708.01
824.77	1794.02
824.94	1748.97
825.11	1714.15
825.28	1546.22
825.45	1779.68
825.63	1681.38
825.80	1624.04
825.97	1675.24
826.14	1738.73
826.31	1697.77
826.48	1767.40
826.66	1615.85
826.83	1695.72
827.00	1751.01
827.17	1691.62
827.34	1740.77
827.51	1716.20
827.69	1675.24
827.86	1593.32
828.03	1673.19
828.20	1730.53
828.37	1744.87
828.54	1734.63
828.71	1648.61
828.89	1744.87
829.06	1695.72
829.23	1740.77
829.40	1691.62
829.57	1644.52
829.74	1697.77
829.91	1662.95
830.09	1763.30
830.26	1671.14
830.43	1814.50
830.60	1757.16
830.77	1755.11
830.94	1708.01
831.11	1765.35
831.28	1691.62
831.46	1744.87
831.63	1695.72
831.80	1765.35
831.97	1748.97
832.14	1710.05
832.31	1751.01
832.48	1699.81
832.65	1789.92
832.82	1769.44
832.99	1732.58
833.17	1673.19
833.34	1822.69
833.51	1724.39
833.68	1628.14
833.85	1769.44
834.02	1693.67
834.19	1667.05
834.36	1605.61
834.53	1716.20
834.70	1810.40
834.87	1787.88
835.04	1685.48
835.22	1607.66
835.39	1701.86
835.56	1640.42
835.73	1681.38
835.90	1781.73
836.07	1681.38
836.24	1781.73
836.41	1722.34
836.58	1673.19
836.75	1753.06
836.92	1730.53
837.09	1734.63
837.26	1783.78
837.43	1769.44
837.60	1710.05
837.77	1667.05
837.94	1675.24
838.12	1757.16
838.29	1738.73
838.46	1626.09
838.63	1710.05
838.80	1810.40
838.97	1744.87
839.14	1761.25
839.31	1687.53
839.48	1705.96
839.65	1703.91
839.82	1656.81
839.99	1714.15
840.16	1722.34
840.33	1703.91
840.50	1765.35
840.67	1691.62
840.84	1640.42
841.01	1748.97
841.18	1617.90
841.35	1650.66
841.52	1716.20
841.69	1853.41
841.86	1728.49
842.03	1697.77
842.20	1763.30
842.37	1656.81
842.54	1716.20
842.71	1812.45
842.88	1609.70
843.05	1753.06
843.22	1714.15
843.39	1755.11
843.56	1710.05
843.73	1677.29
843.90	1751.01
844.07	1712.10
844.24	1701.86
844.41	1763.30
844.58	1724.39
844.75	1685.48
844.92	1730.53
845.09	1718.25
845.26	1638.38
845.43	1677.29
845.60	1722.34
845.77	1738.73
845.94	1710.05
846.10	1708.01
846.27	1656.81
846.44	1703.91
846.61	1734.63
846.78	1746.92
846.95	1808.36
847.12	1714.15
847.29	1683.43
847.46	1671.14
847.63	1794.02
847.80	1720.29
847.97	1648.61
848.14	1880.04
848.31	1691.62
848.48	1632.23
848.65	1714.15
848.82	1667.05
848.98	1814.50
849.15	1687.53
849.32	1710.05
849.49	1748.97
849.66	1742.82
849.83	1699.81
850.00	1636.33
850.17	1748.97
850.34	1718.25
850.51	1703.91
850.68	1658.85
850.85	1925.09
851.01	1718.25
851.18	1736.68
851.35	1722.34
851.52	1697.77
851.69	1796.07
851.86	1619.94
852.03	1748.97
852.20	1720.29
852.37	1703.91
852.53	1662.95
852.70	1714.15
852.87	1736.68
853.04	1728.49
853.21	1654.76
853.38	1767.40
853.55	1736.68
853.72	1716.20
853.89	1650.66
854.05	1665.00
854.22	1800.16
854.39	1755.11
854.56	1728.49
854.73	1701.86
854.90	1667.05
855.07	1708.01
855.23	1683.43
855.40	1646.57
855.57	1689.57
855.74	1683.43
855.91	1898.47
856.08	1642.47
856.25	1636.33
856.41	1697.77
856.58	1701.86
856.75	1703.91
856.92	1734.63
857.09	1773.54
857.26	1597.42
857.42	1724.39
857.59	1718.25
857.76	1675.24
857.93	1642.47
858.10	1771.49
858.27	1603.56
858.43	1681.38
858.60	1673.19
858.77	1570.79
858.94	1673.19
859.11	1812.45
859.27	1699.81
859.44	1654.76
859.61	1796.07
859.78	1724.39
859.95	1744.87
860.12	1679.33
860.28	1865.70
860.45	1806.31
860.62	1658.85
860.79	1648.61
860.95	1710.05
861.12	1673.19
861.29	1673.19
861.46	1683.43
861.63	1714.15
861.79	1736.68
861.96	1687.53
862.13	1679.33
862.30	1740.77
862.47	1650.66
862.63	1714.15
862.80	1767.40
862.97	1771.49
863.14	1740.77
863.30	1759.21
863.47	1630.18
863.64	1818.60
863.81	1693.67
863.97	1726.44
864.14	1714.15
864.31	1734.63
864.48	1693.67
864.65	1728.49
864.81	1753.06
864.98	1669.09
865.15	1751.01
865.32	1728.49
865.48	1689.57
865.65	1869.80
865.82	1689.57
865.98	1789.92
866.15	1757.16
866.32	1699.81
866.49	1679.33
866.65	1794.02
866.82	1662.95
866.99	1771.49
867.16	1646.57
867.32	1695.72
867.49	1683.43
867.66	1728.49
867.83	1619.94
867.99	1683.43
868.16	1691.62
868.33	1632.23
868.49	1726.44
868.66	1665.00
868.83	1767.40
868.99	1734.63
869.16	1697.77
869.33	1771.49
869.50	1789.92
869.66	1712.10
869.83	1665.00
870.00	1695.72
870.16	1755.11
870.33	1689.57
870.50	1742.82
870.66	1710.05
870.83	1865.70
871.00	1720.29
871.17	1767.40
871.33	1728.49
871.50	1609.70
871.67	1751.01
871.83	1742.82
872.00	1808.36
872.17	1746.92
872.33	1816.55
872.50	1746.92
872.67	1630.18
872.83	1681.38
873.00	1734.63
873.17	1689.57
873.33	1753.06
873.50	1777.64
873.67	1646.57
873.83	1624.04
874.00	1685.48
874.16	1748.97
874.33	1634.28
874.50	1658.85
874.66	1806.31
874.83	1714.15
875.00	1763.30
875.16	1818.60
875.33	1863.65
875.50	1601.51
875.66	1628.14
875.83	1714.15
875.99	1732.58
876.16	1693.67
876.33	1685.48
876.49	1689.57
876.66	1718.25
876.83	1646.57
876.99	1591.27
877.16	1714.15
877.32	1746.92
877.49	1726.44
877.66	1757.16
877.82	1806.31
877.99	1642.47
878.15	1808.36
878.32	1667.05
878.49	1652.71
878.65	1648.61
878.82	1783.78
878.98	1689.57
879.15	1804.26
879.32	1769.44
879.48	1677.29
879.65	1712.10
879.81	1628.14
879.98	1673.19
880.15	1705.96
880.31	1718.25
880.48	1658.85
880.64	1712.10
880.81	1787.88
880.97	1773.54
881.14	1767.40
881.31	1599.46
881.47	1857.51
881.64	1669.09
881.80	1632.23
881.97	1759.21
882.13	1763.30
882.30	1599.46
882.47	1685.48
882.63	1677.29
882.80	1626.09
882.96	1710.05
883.13	1787.88
883.29	1701.86
883.46	1681.38
883.62	1783.78
883.79	1751.01
883.95	1712.10
884.12	1781.73
884.29	1712.10
884.45	1796.07
884.62	1841.12
884.78	1689.57
884.95	1798.12
885.11	1652.71
885.28	1767.40
885.44	1757.16
885.61	1701.86
885.77	1759.21
885.94	1742.82
886.10	1667.05
886.27	1720.29
886.43	1787.88
886.60	1703.91
886.76	1724.39
886.93	1626.09
887.09	1726.44
887.26	1642.47
887.42	1634.28
887.59	1761.25
887.75	1865.70
887.92	1830.88
888.08	1810.40
888.25	1757.16
888.41	1771.49
888.58	1751.01
888.74	1660.90
888.91	1701.86
>>>>>End Processed Spectral Data<<<<<
