SpectraSuite Data File
++++++++++++++++++++++++++++++++++++
Date: Mon Jun 06 13:31:37 CEST 2016
User: root
Dark Spectrum Present: No
Reference Spectrum Present: No
Number of Sampled Component Spectra: 1
Spectrometers: USB4C02835
Integration Time (usec): 100000 (USB4C02835)
Spectra Averaged: 1 (USB4C02835)
Boxcar Smoothing: 0 (USB4C02835)
Correct for Electrical Dark: No (USB4C02835)
Strobe/Lamp Enabled: No (USB4C02835)
Correct for Detector Non-linearity: No (USB4C02835)
Correct for Stray Light: No (USB4C02835)
Number of Pixels in Processed Spectrum: 3648
>>>>>Begin Processed Spectral Data<<<<<
177.47	1546.22
177.69	1546.22
177.91	1546.22
178.13	1421.29
178.36	1443.82
178.58	1636.33
178.80	1691.62
179.02	1658.85
179.24	1632.23
179.46	1687.53
179.68	1744.87
179.90	1710.05
180.13	1738.73
180.35	1665.00
180.57	1626.09
180.79	1697.77
181.01	1761.25
181.23	1748.97
181.45	1781.73
181.67	1708.01
181.90	1691.62
182.12	1632.23
182.34	1646.57
182.56	1677.29
182.78	1681.38
183.00	1705.96
183.22	1726.44
183.44	1621.99
183.66	1859.56
183.89	1791.97
184.11	1773.54
184.33	1697.77
184.55	1796.07
184.77	1710.05
184.99	1724.39
185.21	1695.72
185.43	1744.87
185.65	1683.43
185.87	1753.06
186.10	1863.65
186.32	1855.46
186.54	1697.77
186.76	1683.43
186.98	1703.91
187.20	1667.05
187.42	1665.00
187.64	1718.25
187.86	1777.64
188.08	1732.58
188.30	1683.43
188.52	1640.42
188.75	1714.15
188.97	1773.54
189.19	1708.01
189.41	1708.01
189.63	1732.58
189.85	1660.90
190.07	1603.56
190.29	1628.14
190.51	1767.40
190.73	1617.90
190.95	1775.59
191.17	1748.97
191.39	1601.51
191.61	1636.33
191.84	1642.47
192.06	1722.34
192.28	1640.42
192.50	1843.17
192.72	1742.82
192.94	1710.05
193.16	1732.58
193.38	1677.29
193.60	1673.19
193.82	1669.09
194.04	1769.44
194.26	1730.53
194.48	1689.57
194.70	1648.61
194.92	1615.85
195.14	1806.31
195.36	1615.85
195.58	1679.33
195.80	1615.85
196.02	1748.97
196.24	1742.82
196.46	1751.01
196.69	1697.77
196.91	1865.70
197.13	1642.47
197.35	1669.09
197.57	1796.07
197.79	1675.24
198.01	1681.38
198.23	1773.54
198.45	1685.48
198.67	1593.32
198.89	1652.71
199.11	1642.47
199.33	1650.66
199.55	1560.55
199.77	1607.66
199.99	1763.30
200.21	1673.19
200.43	1689.57
200.65	1619.94
200.87	1712.10
201.09	1810.40
201.31	1648.61
201.53	1785.83
201.75	1642.47
201.97	1708.01
202.19	1665.00
202.41	1689.57
202.63	1796.07
202.85	1712.10
203.07	1640.42
203.29	1697.77
203.51	1697.77
203.73	1662.95
203.95	1865.70
204.17	1751.01
204.39	1699.81
204.61	1714.15
204.83	1628.14
205.05	1755.11
205.27	1755.11
205.49	1810.40
205.71	1718.25
205.93	1583.08
206.15	1685.48
206.37	1683.43
206.59	1652.71
206.81	1570.79
207.03	1634.28
207.25	1667.05
207.47	1695.72
207.69	1566.70
207.91	1779.68
208.13	1785.83
208.34	1644.52
208.56	1679.33
208.78	1705.96
209.00	1615.85
209.22	1609.70
209.44	1665.00
209.66	1656.81
209.88	1693.67
210.10	1652.71
210.32	1683.43
210.54	1802.21
210.76	1591.27
210.98	1771.49
211.20	1615.85
211.42	1701.86
211.64	1746.92
211.86	1615.85
212.08	1763.30
212.30	1779.68
212.52	1658.85
212.74	1677.29
212.96	1722.34
213.17	1746.92
213.39	1767.40
213.61	1791.97
213.83	1695.72
214.05	1697.77
214.27	1744.87
214.49	1648.61
214.71	1701.86
214.93	1753.06
215.15	1734.63
215.37	1748.97
215.59	1535.98
215.81	1689.57
216.03	1783.78
216.24	1714.15
216.46	1687.53
216.68	1683.43
216.90	1718.25
217.12	1728.49
217.34	1683.43
217.56	1771.49
217.78	1718.25
218.00	1746.92
218.22	1710.05
218.44	1798.12
218.66	1687.53
218.87	1724.39
219.09	1730.53
219.31	1685.48
219.53	1722.34
219.75	1677.29
219.97	1652.71
220.19	1689.57
220.41	1710.05
220.63	1751.01
220.85	1755.11
221.06	1583.08
221.28	1783.78
221.50	1724.39
221.72	1665.00
221.94	1679.33
222.16	1738.73
222.38	1748.97
222.60	1761.25
222.82	1685.48
223.03	1722.34
223.25	1617.90
223.47	1763.30
223.69	1804.26
223.91	1794.02
224.13	1820.64
224.35	1724.39
224.57	1787.88
224.78	1767.40
225.00	1638.38
225.22	1712.10
225.44	1673.19
225.66	1734.63
225.88	1708.01
226.10	1779.68
226.32	1646.57
226.53	1791.97
226.75	1658.85
226.97	1589.22
227.19	1722.34
227.41	1710.05
227.63	1665.00
227.85	1578.98
228.06	1691.62
228.28	1662.95
228.50	1802.21
228.72	1697.77
228.94	1697.77
229.16	1677.29
229.37	1597.42
229.59	1662.95
229.81	1738.73
230.03	1701.86
230.25	1626.09
230.47	1632.23
230.69	1642.47
230.90	1775.59
231.12	1695.72
231.34	1734.63
231.56	1734.63
231.78	1630.18
232.00	1665.00
232.21	1660.90
232.43	1615.85
232.65	1552.36
232.87	1648.61
233.09	1599.46
233.30	1599.46
233.52	1767.40
233.74	1689.57
233.96	1722.34
234.18	1718.25
234.40	1703.91
234.61	1765.35
234.83	1570.79
235.05	1630.18
235.27	1806.31
235.49	1740.77
235.70	1650.66
235.92	1757.16
236.14	1679.33
236.36	1832.93
236.58	1587.18
236.79	1720.29
237.01	1699.81
237.23	1613.80
237.45	1781.73
237.67	1656.81
237.88	1701.86
238.10	1746.92
238.32	1697.77
238.54	1716.20
238.76	1685.48
238.97	1583.08
239.19	1615.85
239.41	1751.01
239.63	1800.16
239.85	1667.05
240.06	1660.90
240.28	1652.71
240.50	1769.44
240.72	1673.19
240.93	1681.38
241.15	1765.35
241.37	1630.18
241.59	1769.44
241.81	1677.29
242.02	1689.57
242.24	1712.10
242.46	1789.92
242.68	1693.67
242.89	1687.53
243.11	1736.68
243.33	1757.16
243.55	1738.73
243.76	1654.76
243.98	1675.24
244.20	1685.48
244.42	1691.62
244.64	1619.94
244.85	1675.24
245.07	1576.94
245.29	1802.21
245.51	1648.61
245.72	1726.44
245.94	1740.77
246.16	1740.77
246.38	1812.45
246.59	1619.94
246.81	1601.51
247.03	1681.38
247.24	1638.38
247.46	1671.14
247.68	1728.49
247.90	1677.29
248.11	1705.96
248.33	1734.63
248.55	1697.77
248.77	1708.01
248.98	1751.01
249.20	1783.78
249.42	1779.68
249.64	1806.31
249.85	1712.10
250.07	1705.96
250.29	1724.39
250.50	1789.92
250.72	1607.66
250.94	1720.29
251.16	1839.08
251.37	1789.92
251.59	1699.81
251.81	1701.86
252.02	1779.68
252.24	1634.28
252.46	1658.85
252.68	1634.28
252.89	1632.23
253.11	1613.80
253.33	1759.21
253.54	1820.64
253.76	1683.43
253.98	1679.33
254.20	1724.39
254.41	1621.99
254.63	1730.53
254.85	1683.43
255.06	1683.43
255.28	1681.38
255.50	1687.53
255.71	1624.04
255.93	1652.71
256.15	1667.05
256.36	1773.54
256.58	1642.47
256.80	1761.25
257.02	1693.67
257.23	1708.01
257.45	1650.66
257.67	1781.73
257.88	1671.14
258.10	1736.68
258.32	1708.01
258.53	1744.87
258.75	1812.45
258.97	1658.85
259.18	1699.81
259.40	1617.90
259.62	1746.92
259.83	1751.01
260.05	1753.06
260.27	1968.10
260.48	1716.20
260.70	1652.71
260.92	1710.05
261.13	1734.63
261.35	1726.44
261.57	1740.77
261.78	1562.60
262.00	1605.61
262.22	1734.63
262.43	1628.14
262.65	1677.29
262.86	1712.10
263.08	1767.40
263.30	1699.81
263.51	1599.46
263.73	1642.47
263.95	1773.54
264.16	1626.09
264.38	1632.23
264.60	1646.57
264.81	1695.72
265.03	1636.33
265.25	1732.58
265.46	1656.81
265.68	1857.51
265.89	1763.30
266.11	1673.19
266.33	1767.40
266.54	1773.54
266.76	1697.77
266.98	1726.44
267.19	1734.63
267.41	1834.98
267.62	1673.19
267.84	1658.85
268.06	1753.06
268.27	1701.86
268.49	1732.58
268.70	1802.21
268.92	1703.91
269.14	1667.05
269.35	1654.76
269.57	1624.04
269.79	1771.49
270.00	1673.19
270.22	1882.08
270.43	1626.09
270.65	1628.14
270.87	1621.99
271.08	1714.15
271.30	1757.16
271.51	1646.57
271.73	1708.01
271.95	1775.59
272.16	1677.29
272.38	1679.33
272.59	1683.43
272.81	1757.16
273.02	1685.48
273.24	1695.72
273.46	1771.49
273.67	1722.34
273.89	1650.66
274.10	1603.56
274.32	1785.83
274.54	1681.38
274.75	1699.81
274.97	1681.38
275.18	1685.48
275.40	1724.39
275.61	1748.97
275.83	1748.97
276.05	1693.67
276.26	1662.95
276.48	1650.66
276.69	1691.62
276.91	1605.61
277.12	1755.11
277.34	1765.35
277.55	1746.92
277.77	1712.10
277.99	1699.81
278.20	1665.00
278.42	1617.90
278.63	1605.61
278.85	1751.01
279.06	1687.53
279.28	1648.61
279.49	1767.40
279.71	1683.43
279.93	1695.72
280.14	1697.77
280.36	1681.38
280.57	1724.39
280.79	1798.12
281.00	1667.05
281.22	1640.42
281.43	1744.87
281.65	1626.09
281.86	1607.66
282.08	1757.16
282.29	1841.12
282.51	1626.09
282.73	1624.04
282.94	1665.00
283.16	1771.49
283.37	1798.12
283.59	1714.15
283.80	1714.15
284.02	1708.01
284.23	1740.77
284.45	1652.71
284.66	1583.08
284.88	1626.09
285.09	1673.19
285.31	1746.92
285.52	1730.53
285.74	1650.66
285.95	1765.35
286.17	1718.25
286.38	1683.43
286.60	1626.09
286.81	1626.09
287.03	1658.85
287.24	1746.92
287.46	1697.77
287.67	1732.58
287.89	1783.78
288.10	1601.51
288.32	1728.49
288.53	1746.92
288.75	1720.29
288.96	1757.16
289.18	1677.29
289.39	1679.33
289.61	1712.10
289.82	1802.21
290.04	1894.37
290.25	1542.12
290.47	1703.91
290.68	1646.57
290.90	1722.34
291.11	1599.46
291.33	1740.77
291.54	1593.32
291.76	1656.81
291.97	1656.81
292.18	1726.44
292.40	1548.26
292.61	1652.71
292.83	1775.59
293.04	1740.77
293.26	1724.39
293.47	1632.23
293.69	1636.33
293.90	1753.06
294.12	1718.25
294.33	1671.14
294.55	1697.77
294.76	1822.69
294.97	1822.69
295.19	1861.60
295.40	1675.24
295.62	1732.58
295.83	1818.60
296.05	1636.33
296.26	1728.49
296.48	1671.14
296.69	1720.29
296.90	1699.81
297.12	1730.53
297.33	1701.86
297.55	1710.05
297.76	1751.01
297.98	1742.82
298.19	1796.07
298.41	1652.71
298.62	1624.04
298.83	1796.07
299.05	1681.38
299.26	1652.71
299.48	1601.51
299.69	1718.25
299.90	1718.25
300.12	1656.81
300.33	1712.10
300.55	1708.01
300.76	1687.53
300.98	1687.53
301.19	1705.96
301.40	1611.75
301.62	1640.42
301.83	1681.38
302.05	1691.62
302.26	1652.71
302.47	1720.29
302.69	1669.09
302.90	1724.39
303.12	1548.26
303.33	1753.06
303.54	1812.45
303.76	1673.19
303.97	1691.62
304.19	1845.22
304.40	1648.61
304.61	1675.24
304.83	1849.32
305.04	1753.06
305.26	1757.16
305.47	1665.00
305.68	1724.39
305.90	1710.05
306.11	1769.44
306.33	1601.51
306.54	1617.90
306.75	1617.90
306.97	1638.38
307.18	1697.77
307.39	1701.86
307.61	1808.36
307.82	1705.96
308.04	1697.77
308.25	1724.39
308.46	1693.67
308.68	1740.77
308.89	1701.86
309.10	1781.73
309.32	1708.01
309.53	1771.49
309.74	1740.77
309.96	1726.44
310.17	1804.26
310.39	1626.09
310.60	1730.53
310.81	1687.53
311.03	1599.46
311.24	1665.00
311.45	1658.85
311.67	1800.16
311.88	1765.35
312.09	1632.23
312.31	1671.14
312.52	1648.61
312.73	1705.96
312.95	1636.33
313.16	1595.37
313.37	1761.25
313.59	1755.11
313.80	1755.11
314.01	1804.26
314.23	1665.00
314.44	1644.52
314.65	1572.84
314.87	1613.80
315.08	1660.90
315.29	1681.38
315.51	1531.88
315.72	1595.37
315.93	1800.16
316.15	1753.06
316.36	1613.80
316.57	1701.86
316.79	1722.34
317.00	1628.14
317.21	1724.39
317.43	1599.46
317.64	1679.33
317.85	1640.42
318.07	1677.29
318.28	1759.21
318.49	1847.27
318.70	1888.23
318.92	1777.64
319.13	1820.64
319.34	1869.80
319.56	1769.44
319.77	1775.59
319.98	1697.77
320.20	1810.40
320.41	1656.81
320.62	1755.11
320.83	1660.90
321.05	1773.54
321.26	1712.10
321.47	1765.35
321.69	1779.68
321.90	1628.14
322.11	1640.42
322.32	1642.47
322.54	1804.26
322.75	1681.38
322.96	1853.41
323.18	1673.19
323.39	1607.66
323.60	1665.00
323.81	1744.87
324.03	1697.77
324.24	1714.15
324.45	1708.01
324.66	1667.05
324.88	1693.67
325.09	1742.82
325.30	1693.67
325.52	1714.15
325.73	1650.66
325.94	1642.47
326.15	1617.90
326.37	1601.51
326.58	1767.40
326.79	1757.16
327.00	1699.81
327.22	1734.63
327.43	1605.61
327.64	1665.00
327.85	1812.45
328.07	1710.05
328.28	1824.74
328.49	1695.72
328.70	1773.54
328.92	1703.91
329.13	1597.42
329.34	1714.15
329.55	1744.87
329.76	1695.72
329.98	1740.77
330.19	1794.02
330.40	1691.62
330.61	1671.14
330.83	1787.88
331.04	1730.53
331.25	1697.77
331.46	1703.91
331.68	1624.04
331.89	1751.01
332.10	1681.38
332.31	1624.04
332.52	1648.61
332.74	1763.30
332.95	1613.80
333.16	1712.10
333.37	1708.01
333.58	1687.53
333.80	1710.05
334.01	1691.62
334.22	1634.28
334.43	1705.96
334.64	1611.75
334.86	1648.61
335.07	1648.61
335.28	1740.77
335.49	1701.86
335.70	1787.88
335.92	1804.26
336.13	1808.36
336.34	1662.95
336.55	1738.73
336.76	1757.16
336.98	1605.61
337.19	1669.09
337.40	1775.59
337.61	1820.64
337.82	1624.04
338.04	1705.96
338.25	1656.81
338.46	1679.33
338.67	1576.94
338.88	1689.57
339.09	1667.05
339.31	1705.96
339.52	1578.98
339.73	1685.48
339.94	1628.14
340.15	1769.44
340.36	1675.24
340.58	1624.04
340.79	1683.43
341.00	1701.86
341.21	1626.09
341.42	1804.26
341.63	1650.66
341.85	1730.53
342.06	1648.61
342.27	1632.23
342.48	1849.32
342.69	1591.27
342.90	1767.40
343.12	1738.73
343.33	1691.62
343.54	1708.01
343.75	1796.07
343.96	1701.86
344.17	1701.86
344.38	1652.71
344.60	1671.14
344.81	1650.66
345.02	1624.04
345.23	1714.15
345.44	1781.73
345.65	1697.77
345.86	1744.87
346.07	1705.96
346.29	1730.53
346.50	1734.63
346.71	1730.53
346.92	1763.30
347.13	1781.73
347.34	1703.91
347.55	1722.34
347.76	1720.29
347.98	1632.23
348.19	1724.39
348.40	1748.97
348.61	1726.44
348.82	1769.44
349.03	1746.92
349.24	1691.62
349.45	1779.68
349.66	1595.37
349.88	1630.18
350.09	1638.38
350.30	1777.64
350.51	1734.63
350.72	1646.57
350.93	1787.88
351.14	1636.33
351.35	1767.40
351.56	1695.72
351.77	1703.91
351.99	1665.00
352.20	1812.45
352.41	1753.06
352.62	1599.46
352.83	1638.38
353.04	1703.91
353.25	1693.67
353.46	1755.11
353.67	1722.34
353.88	1609.70
354.09	1689.57
354.30	1697.77
354.52	1773.54
354.73	1722.34
354.94	1691.62
355.15	1628.14
355.36	1777.64
355.57	1632.23
355.78	1808.36
355.99	1583.08
356.20	1691.62
356.41	1765.35
356.62	1761.25
356.83	1685.48
357.04	1789.92
357.25	1542.12
357.46	1640.42
357.68	1587.18
357.89	1648.61
358.10	1650.66
358.31	1742.82
358.52	1714.15
358.73	1621.99
358.94	1615.85
359.15	1630.18
359.36	1742.82
359.57	1619.94
359.78	1730.53
359.99	1722.34
360.20	1673.19
360.41	1685.48
360.62	1771.49
360.83	1667.05
361.04	1757.16
361.25	1767.40
361.46	1822.69
361.67	1775.59
361.88	1646.57
362.09	1708.01
362.30	1755.11
362.51	1650.66
362.72	1742.82
362.93	1755.11
363.14	1767.40
363.35	1703.91
363.56	1587.18
363.78	1761.25
363.99	1757.16
364.20	1728.49
364.41	1724.39
364.62	1826.79
364.83	1720.29
365.04	1730.53
365.25	1673.19
365.46	1886.18
365.67	1599.46
365.88	1644.52
366.09	1640.42
366.30	1693.67
366.51	1726.44
366.72	1671.14
366.93	1681.38
367.14	1744.87
367.35	1773.54
367.56	1728.49
367.77	1806.31
367.98	1679.33
368.18	1839.08
368.39	1724.39
368.60	1640.42
368.81	1693.67
369.02	1697.77
369.23	1693.67
369.44	1658.85
369.65	1716.20
369.86	1769.44
370.07	1755.11
370.28	1648.61
370.49	1695.72
370.70	1730.53
370.91	1640.42
371.12	1589.22
371.33	1806.31
371.54	1640.42
371.75	1734.63
371.96	1511.40
372.17	1693.67
372.38	1662.95
372.59	1771.49
372.80	1660.90
373.01	1656.81
373.22	1679.33
373.43	1705.96
373.64	1673.19
373.85	1705.96
374.06	1769.44
374.26	1761.25
374.47	1683.43
374.68	1705.96
374.89	1667.05
375.10	1738.73
375.31	1722.34
375.52	1722.34
375.73	1748.97
375.94	1607.66
376.15	1716.20
376.36	1673.19
376.57	1640.42
376.78	1638.38
376.99	1662.95
377.20	1781.73
377.40	1685.48
377.61	1771.49
377.82	1722.34
378.03	1763.30
378.24	1689.57
378.45	1695.72
378.66	1710.05
378.87	1615.85
379.08	1638.38
379.29	1681.38
379.50	1783.78
379.71	1677.29
379.91	1732.58
380.12	1765.35
380.33	1626.09
380.54	1681.38
380.75	1730.53
380.96	1665.00
381.17	1779.68
381.38	1736.68
381.59	1683.43
381.80	1730.53
382.00	1853.41
382.21	1789.92
382.42	1757.16
382.63	1863.65
382.84	1775.59
383.05	1759.21
383.26	1773.54
383.47	1742.82
383.68	1748.97
383.88	1716.20
384.09	1691.62
384.30	1804.26
384.51	1738.73
384.72	1665.00
384.93	1718.25
385.14	1742.82
385.35	1722.34
385.55	1675.24
385.76	1820.64
385.97	1695.72
386.18	1628.14
386.39	1705.96
386.60	1685.48
386.81	1685.48
387.02	1591.27
387.22	1644.52
387.43	1773.54
387.64	1794.02
387.85	1781.73
388.06	2226.14
388.27	4356.03
388.48	6588.32
388.68	8281.99
388.89	9555.82
389.10	9516.91
389.31	8613.76
389.52	7458.70
389.73	6707.10
389.93	6221.73
390.14	5775.27
390.35	5140.40
390.56	4562.87
390.77	3758.02
390.98	3014.61
391.18	2492.38
391.39	2086.88
391.60	1875.94
391.81	1800.16
392.02	1705.96
392.23	1816.55
392.43	1744.87
392.64	1791.97
392.85	1740.77
393.06	1822.69
393.27	1722.34
393.47	1720.29
393.68	1708.01
393.89	1718.25
394.10	1769.44
394.31	1673.19
394.52	1673.19
394.72	1654.76
394.93	1755.11
395.14	1589.22
395.35	1654.76
395.56	1609.70
395.76	1781.73
395.97	1742.82
396.18	1910.75
396.39	1826.79
396.60	2080.74
396.80	1853.41
397.01	1861.60
397.22	1791.97
397.43	1841.12
397.64	1808.36
397.84	1787.88
398.05	1837.03
398.26	1744.87
398.47	1757.16
398.67	1824.74
398.88	1705.96
399.09	1701.86
399.30	1671.14
399.51	1804.26
399.71	1638.38
399.92	1732.58
400.13	1734.63
400.34	1638.38
400.54	1685.48
400.75	1718.25
400.96	1783.78
401.17	1724.39
401.37	1734.63
401.58	1683.43
401.79	1753.06
402.00	1861.60
402.21	1996.77
402.41	1910.75
402.62	1904.61
402.83	2025.44
403.04	1953.76
403.24	2088.93
403.45	1771.49
403.66	1916.90
403.87	1824.74
404.07	1906.66
404.28	1910.75
404.49	1841.12
404.70	1796.07
404.90	1781.73
405.11	1746.92
405.32	1691.62
405.52	1689.57
405.73	1683.43
405.94	1673.19
406.15	1681.38
406.35	1669.09
406.56	1701.86
406.77	1724.39
406.98	1755.11
407.18	1710.05
407.39	1742.82
407.60	1677.29
407.80	1712.10
408.01	1638.38
408.22	1701.86
408.43	1703.91
408.63	1751.01
408.84	1808.36
409.05	1753.06
409.25	1691.62
409.46	1685.48
409.67	1611.75
409.88	1755.11
410.08	1746.92
410.29	1685.48
410.50	1718.25
410.70	1738.73
410.91	1681.38
411.12	1611.75
411.32	1628.14
411.53	1755.11
411.74	1765.35
411.95	1787.88
412.15	1734.63
412.36	1738.73
412.57	1755.11
412.77	1708.01
412.98	1728.49
413.19	1630.18
413.39	1808.36
413.60	1751.01
413.81	1767.40
414.01	1607.66
414.22	1732.58
414.43	1755.11
414.63	1681.38
414.84	1753.06
415.05	1773.54
415.25	1617.90
415.46	1748.97
415.67	1681.38
415.87	1755.11
416.08	1755.11
416.29	1611.75
416.49	1726.44
416.70	1660.90
416.91	1642.47
417.11	1703.91
417.32	1787.88
417.53	1718.25
417.73	1699.81
417.94	1593.32
418.15	1742.82
418.35	1687.53
418.56	1642.47
418.77	1830.88
418.97	1738.73
419.18	1759.21
419.38	1560.55
419.59	1677.29
419.80	1800.16
420.00	1763.30
420.21	1679.33
420.42	1773.54
420.62	1708.01
420.83	1626.09
421.04	1693.67
421.24	1650.66
421.45	1769.44
421.65	1658.85
421.86	1632.23
422.07	1751.01
422.27	1705.96
422.48	1763.30
422.69	1703.91
422.89	1720.29
423.10	1648.61
423.30	1646.57
423.51	1714.15
423.72	1759.21
423.92	1705.96
424.13	1660.90
424.33	1658.85
424.54	1675.24
424.75	1757.16
424.95	1826.79
425.16	1665.00
425.36	1751.01
425.57	1718.25
425.78	1656.81
425.98	1761.25
426.19	1720.29
426.39	1638.38
426.60	1681.38
426.81	1753.06
427.01	1699.81
427.22	1710.05
427.42	1603.56
427.63	1646.57
427.83	1740.77
428.04	1837.03
428.25	1703.91
428.45	1662.95
428.66	1787.88
428.86	1697.77
429.07	1728.49
429.28	1681.38
429.48	1644.52
429.69	1728.49
429.89	1748.97
430.10	1621.99
430.30	1689.57
430.51	1722.34
430.71	1697.77
430.92	1611.75
431.13	1679.33
431.33	1675.24
431.54	1712.10
431.74	1796.07
431.95	1824.74
432.15	1699.81
432.36	1681.38
432.56	1683.43
432.77	1751.01
432.98	1755.11
433.18	1748.97
433.39	1720.29
433.59	1654.76
433.80	1800.16
434.00	1855.46
434.21	1687.53
434.41	1679.33
434.62	1884.13
434.82	1624.04
435.03	1656.81
435.23	1714.15
435.44	1667.05
435.64	1755.11
435.85	1685.48
436.06	1759.21
436.26	1697.77
436.47	1615.85
436.67	1681.38
436.88	1681.38
437.08	1714.15
437.29	1761.25
437.49	1656.81
437.70	1783.78
437.90	1669.09
438.11	1857.51
438.31	1775.59
438.52	1839.08
438.72	1869.80
438.93	1849.32
439.13	1779.68
439.34	1884.13
439.54	1806.31
439.75	1812.45
439.95	1804.26
440.16	1654.76
440.36	1796.07
440.57	1775.59
440.77	1724.39
440.98	1630.18
441.18	1646.57
441.39	1640.42
441.59	1673.19
441.80	1851.36
442.00	1648.61
442.21	1769.44
442.41	1640.42
442.62	1728.49
442.82	1748.97
443.02	1787.88
443.23	1822.69
443.43	1738.73
443.64	1837.03
443.84	1689.57
444.05	1798.12
444.25	1685.48
444.46	1722.34
444.66	1734.63
444.87	1787.88
445.07	1628.14
445.28	1695.72
445.48	1748.97
445.69	1734.63
445.89	1853.41
446.09	1738.73
446.30	2050.02
446.50	2711.51
446.71	3688.39
446.91	4288.45
447.12	4708.28
447.32	4755.38
447.53	4358.08
447.73	3782.60
447.93	3479.50
448.14	3391.44
448.34	3155.92
448.55	2928.60
448.75	2791.38
448.96	2754.52
449.16	2367.45
449.36	2246.62
449.57	2056.16
449.77	1910.75
449.98	1773.54
450.18	1724.39
450.39	1787.88
450.59	1767.40
450.79	1748.97
451.00	1691.62
451.20	1779.68
451.41	1728.49
451.61	1845.22
451.81	1716.20
452.02	1697.77
452.22	1718.25
452.43	1716.20
452.63	1681.38
452.84	1732.58
453.04	1718.25
453.24	1732.58
453.45	1742.82
453.65	1740.77
453.86	1779.68
454.06	1689.57
454.26	1648.61
454.47	1716.20
454.67	1767.40
454.87	1773.54
455.08	1812.45
455.28	1867.75
455.49	1708.01
455.69	1701.86
455.89	1849.32
456.10	1828.84
456.30	1726.44
456.51	1761.25
456.71	1834.98
456.91	1665.00
457.12	1736.68
457.32	1800.16
457.52	1677.29
457.73	1783.78
457.93	1734.63
458.14	1767.40
458.34	1624.04
458.54	1734.63
458.75	1662.95
458.95	1818.60
459.15	1714.15
459.36	1701.86
459.56	1744.87
459.76	1861.60
459.97	1744.87
460.17	1712.10
460.37	1843.17
460.58	1730.53
460.78	1796.07
460.99	1724.39
461.19	1656.81
461.39	1722.34
461.60	1681.38
461.80	1736.68
462.00	1601.51
462.21	1693.67
462.41	1675.24
462.61	1695.72
462.82	1701.86
463.02	1736.68
463.22	1757.16
463.43	1740.77
463.63	1669.09
463.83	1812.45
464.04	1699.81
464.24	1662.95
464.44	1615.85
464.64	1679.33
464.85	1738.73
465.05	1794.02
465.25	1732.58
465.46	1705.96
465.66	1742.82
465.86	1734.63
466.07	1730.53
466.27	1718.25
466.47	1650.66
466.68	1583.08
466.88	1783.78
467.08	1722.34
467.29	1705.96
467.49	1738.73
467.69	1738.73
467.89	1783.78
468.10	1646.57
468.30	1734.63
468.50	1812.45
468.71	1787.88
468.91	1650.66
469.11	1841.12
469.31	1648.61
469.52	1697.77
469.72	1781.73
469.92	1828.84
470.13	1748.97
470.33	1765.35
470.53	1824.74
470.73	2074.59
470.94	2275.29
471.14	2334.68
471.34	2545.63
471.54	2422.75
471.75	2144.22
471.95	2099.17
472.15	2009.06
472.36	2076.64
472.56	1982.43
472.76	2090.98
472.96	1980.39
473.17	1951.71
473.37	1914.85
473.57	1705.96
473.77	1816.55
473.98	1710.05
474.18	1665.00
474.38	1832.93
474.58	1716.20
474.79	1712.10
474.99	1781.73
475.19	1722.34
475.39	1683.43
475.60	1773.54
475.80	1834.98
476.00	1662.95
476.20	1650.66
476.41	1728.49
476.61	1785.83
476.81	1814.50
477.01	1679.33
477.21	1816.55
477.42	1718.25
477.62	1656.81
477.82	1839.08
478.02	1695.72
478.23	1759.21
478.43	1714.15
478.63	1705.96
478.83	1703.91
479.03	1685.48
479.24	1734.63
479.44	1841.12
479.64	1681.38
479.84	1644.52
480.04	1660.90
480.25	1777.64
480.45	1712.10
480.65	1619.94
480.85	1791.97
481.06	1699.81
481.26	1777.64
481.46	1740.77
481.66	1701.86
481.86	1671.14
482.06	1812.45
482.27	1687.53
482.47	1705.96
482.67	1652.71
482.87	1724.39
483.07	1777.64
483.28	1693.67
483.48	1716.20
483.68	1701.86
483.88	1753.06
484.08	1564.65
484.29	1615.85
484.49	1701.86
484.69	1605.61
484.89	1759.21
485.09	1767.40
485.29	1826.79
485.50	1820.64
485.70	1710.05
485.90	1855.46
486.10	1751.01
486.30	1769.44
486.50	1746.92
486.71	1759.21
486.91	1740.77
487.11	1773.54
487.31	1615.85
487.51	1697.77
487.71	1681.38
487.91	1605.61
488.12	1675.24
488.32	1527.78
488.52	1677.29
488.72	1630.18
488.92	1736.68
489.12	1775.59
489.32	1832.93
489.53	1771.49
489.73	1636.33
489.93	1757.16
490.13	1720.29
490.33	1605.61
490.53	1785.83
490.73	1710.05
490.94	1652.71
491.14	1777.64
491.34	1859.56
491.54	2084.83
491.74	2594.78
491.94	2918.36
492.14	3047.38
492.34	3014.61
492.54	2713.56
492.75	2478.04
492.95	2381.79
493.15	2240.48
493.35	2279.39
493.55	2267.10
493.75	2162.66
493.95	2131.94
494.15	2017.25
494.35	1925.09
494.56	1857.51
494.76	1720.29
494.96	1798.12
495.16	1787.88
495.36	1691.62
495.56	1771.49
495.76	1757.16
495.96	1726.44
496.16	1685.48
496.36	1857.51
496.56	1734.63
496.77	1683.43
496.97	1673.19
497.17	1765.35
497.37	1691.62
497.57	1849.32
497.77	1667.05
497.97	1705.96
498.17	1705.96
498.37	1681.38
498.57	1732.58
498.77	1705.96
498.97	1763.30
499.17	1906.66
499.38	1722.34
499.58	1777.64
499.78	1759.21
499.98	1748.97
500.18	1734.63
500.38	1765.35
500.58	1914.85
500.78	2568.15
500.98	4483.00
501.18	5932.97
501.38	6686.62
501.58	6948.76
501.78	6408.09
501.98	5621.67
502.18	4931.51
502.38	4337.60
502.58	4140.99
502.78	3551.18
502.98	3633.10
503.18	3358.67
503.38	3080.14
503.59	2785.24
503.79	2691.03
503.99	2469.85
504.19	2293.72
504.39	2119.65
504.59	2207.71
504.79	2090.98
504.99	2013.15
505.19	1845.22
505.39	1910.75
505.59	1892.32
505.79	1888.23
505.99	1851.36
506.19	1851.36
506.39	1927.14
506.59	1736.68
506.79	1748.97
506.99	1791.97
507.19	1730.53
507.39	1820.64
507.59	1656.81
507.79	1662.95
507.99	1710.05
508.19	1748.97
508.39	1683.43
508.59	1730.53
508.79	1902.56
508.99	1863.65
509.19	1759.21
509.39	1755.11
509.59	1730.53
509.79	1736.68
509.99	1679.33
510.19	1767.40
510.39	1689.57
510.59	1818.60
510.79	1738.73
510.99	1654.76
511.19	1824.74
511.39	1826.79
511.59	1820.64
511.79	1794.02
511.99	1685.48
512.19	1837.03
512.38	1765.35
512.58	1710.05
512.78	1791.97
512.98	1785.83
513.18	1800.16
513.38	1636.33
513.58	1779.68
513.78	1705.96
513.98	1665.00
514.18	1697.77
514.38	1687.53
514.58	1685.48
514.78	1681.38
514.98	1675.24
515.18	1652.71
515.38	1681.38
515.58	1810.40
515.78	1685.48
515.98	1722.34
516.18	1834.98
516.38	1624.04
516.57	1705.96
516.77	1703.91
516.97	1777.64
517.17	1644.52
517.37	1652.71
517.57	1769.44
517.77	1806.31
517.97	1730.53
518.17	1798.12
518.37	1648.61
518.57	1675.24
518.77	1714.15
518.97	1685.48
519.16	1837.03
519.36	1742.82
519.56	1744.87
519.76	1722.34
519.96	1708.01
520.16	1816.55
520.36	1730.53
520.56	1800.16
520.76	1738.73
520.96	1679.33
521.16	1794.02
521.35	1814.50
521.55	1755.11
521.75	1730.53
521.95	1718.25
522.15	1759.21
522.35	1595.37
522.55	1683.43
522.75	1798.12
522.95	1636.33
523.14	1687.53
523.34	1742.82
523.54	1705.96
523.74	1726.44
523.94	1720.29
524.14	1705.96
524.34	1771.49
524.54	1837.03
524.73	1675.24
524.93	1746.92
525.13	1742.82
525.33	1703.91
525.53	1912.80
525.73	1814.50
525.93	1689.57
526.13	1730.53
526.32	1765.35
526.52	1734.63
526.72	1767.40
526.92	1728.49
527.12	1742.82
527.32	1646.57
527.52	1765.35
527.71	1695.72
527.91	1808.36
528.11	1712.10
528.31	1734.63
528.51	1734.63
528.71	1720.29
528.90	1761.25
529.10	1789.92
529.30	1787.88
529.50	1595.37
529.70	1669.09
529.90	1730.53
530.09	1720.29
530.29	1701.86
530.49	1697.77
530.69	1816.55
530.89	1710.05
531.09	1832.93
531.28	1665.00
531.48	1771.49
531.68	1673.19
531.88	1724.39
532.08	1820.64
532.28	1677.29
532.47	1703.91
532.67	1736.68
532.87	1681.38
533.07	1621.99
533.27	1744.87
533.46	1748.97
533.66	1808.36
533.86	1699.81
534.06	1656.81
534.26	1703.91
534.45	1665.00
534.65	1812.45
534.85	1751.01
535.05	1736.68
535.25	1748.97
535.44	1699.81
535.64	1783.78
535.84	1671.14
536.04	1726.44
536.24	1705.96
536.43	1669.09
536.63	1712.10
536.83	1728.49
537.03	1714.15
537.22	1587.18
537.42	1677.29
537.62	1630.18
537.82	1708.01
538.02	1789.92
538.21	1810.40
538.41	1902.56
538.61	1787.88
538.81	1697.77
539.00	1810.40
539.20	1658.85
539.40	1781.73
539.60	1701.86
539.79	1802.21
539.99	1687.53
540.19	1617.90
540.39	1748.97
540.58	1804.26
540.78	1816.55
540.98	1748.97
541.18	1751.01
541.37	1757.16
541.57	1746.92
541.77	1800.16
541.97	1714.15
542.16	1667.05
542.36	1656.81
542.56	1613.80
542.76	1820.64
542.95	1746.92
543.15	1705.96
543.35	1845.22
543.54	1685.48
543.74	1710.05
543.94	1767.40
544.14	1667.05
544.33	1812.45
544.53	1708.01
544.73	1765.35
544.93	1757.16
545.12	1685.48
545.32	1697.77
545.52	1732.58
545.71	1613.80
545.91	1667.05
546.11	1650.66
546.30	1712.10
546.50	1785.83
546.70	1767.40
546.90	1763.30
547.09	1599.46
547.29	1712.10
547.49	1759.21
547.68	1759.21
547.88	1691.62
548.08	1726.44
548.27	2142.18
548.47	1712.10
548.67	1771.49
548.87	1789.92
549.06	1732.58
549.26	1767.40
549.46	1759.21
549.65	1734.63
549.85	1720.29
550.05	1789.92
550.24	1746.92
550.44	1748.97
550.64	1701.86
550.83	1677.29
551.03	1818.60
551.23	1791.97
551.42	1775.59
551.62	1701.86
551.82	1722.34
552.01	1787.88
552.21	1837.03
552.41	1775.59
552.60	1765.35
552.80	1714.15
553.00	1679.33
553.19	1708.01
553.39	1779.68
553.59	1667.05
553.78	1724.39
553.98	1703.91
554.17	1617.90
554.37	1775.59
554.57	1734.63
554.76	1689.57
554.96	1685.48
555.16	1763.30
555.35	1765.35
555.55	1802.21
555.75	1685.48
555.94	1687.53
556.14	1599.46
556.33	1800.16
556.53	1755.11
556.73	1757.16
556.92	1785.83
557.12	1779.68
557.32	1791.97
557.51	1832.93
557.71	1751.01
557.90	1697.77
558.10	1810.40
558.30	1759.21
558.49	1710.05
558.69	1705.96
558.88	1734.63
559.08	1736.68
559.28	1744.87
559.47	1718.25
559.67	1765.35
559.86	1796.07
560.06	1777.64
560.26	1689.57
560.45	1832.93
560.65	1689.57
560.84	1759.21
561.04	1691.62
561.24	1744.87
561.43	1615.85
561.63	1718.25
561.82	1685.48
562.02	1779.68
562.22	1769.44
562.41	1689.57
562.61	1728.49
562.80	1689.57
563.00	1839.08
563.19	1800.16
563.39	1716.20
563.59	1775.59
563.78	1683.43
563.98	1701.86
564.17	1701.86
564.37	1662.95
564.56	1755.11
564.76	1703.91
564.96	1804.26
565.15	1837.03
565.35	1918.95
565.54	1705.96
565.74	1759.21
565.93	1769.44
566.13	1677.29
566.32	1814.50
566.52	1798.12
566.71	1732.58
566.91	1771.49
567.11	1710.05
567.30	1755.11
567.50	1738.73
567.69	1822.69
567.89	1681.38
568.08	1738.73
568.28	1718.25
568.47	1634.28
568.67	1777.64
568.86	1691.62
569.06	1779.68
569.25	1767.40
569.45	1617.90
569.64	1724.39
569.84	1673.19
570.04	1775.59
570.23	1710.05
570.43	1728.49
570.62	1791.97
570.82	1837.03
571.01	1751.01
571.21	1687.53
571.40	1662.95
571.60	1800.16
571.79	1751.01
571.99	1763.30
572.18	1689.57
572.38	1816.55
572.57	1722.34
572.77	1751.01
572.96	1855.46
573.16	1755.11
573.35	1742.82
573.55	1779.68
573.74	1714.15
573.94	1783.78
574.13	1755.11
574.33	1781.73
574.52	1804.26
574.71	1834.98
574.91	1742.82
575.10	1632.23
575.30	1777.64
575.49	1726.44
575.69	1728.49
575.88	1800.16
576.08	1738.73
576.27	1769.44
576.47	1689.57
576.66	1748.97
576.86	1755.11
577.05	1728.49
577.25	1736.68
577.44	1886.18
577.64	1683.43
577.83	1773.54
578.02	1757.16
578.22	1814.50
578.41	1832.93
578.61	1755.11
578.80	1640.42
579.00	1812.45
579.19	1769.44
579.39	1755.11
579.58	1841.12
579.77	1695.72
579.97	1759.21
580.16	1746.92
580.36	1744.87
580.55	1865.70
580.75	1820.64
580.94	1748.97
581.13	1826.79
581.33	1875.94
581.52	1703.91
581.72	1877.99
581.91	1798.12
582.11	1734.63
582.30	1800.16
582.49	1736.68
582.69	1828.84
582.88	1730.53
583.08	1796.07
583.27	1771.49
583.47	1791.97
583.66	1679.33
583.85	1705.96
584.05	1753.06
584.24	1775.59
584.44	1763.30
584.63	1779.68
584.82	1853.41
585.02	1845.22
585.21	1816.55
585.41	1804.26
585.60	1791.97
585.79	1871.84
585.99	1898.47
586.18	1859.56
586.37	2205.66
586.57	3418.06
586.76	9901.93
586.96	24385.16
587.15	34495.99
587.34	40390.04
587.54	42169.72
587.73	36855.25
587.93	26347.12
588.12	21759.67
588.31	18405.10
588.51	16359.17
588.70	15296.28
588.89	14044.97
589.09	12883.77
589.28	11155.29
589.47	9504.62
589.67	7970.69
589.86	6436.77
590.06	4945.84
590.25	4020.16
590.44	3170.26
590.64	2668.50
590.83	2170.85
591.02	2093.02
591.22	1986.53
591.41	1890.28
591.60	1896.42
591.80	1906.66
591.99	1783.78
592.18	1851.36
592.38	1888.23
592.57	1695.72
592.76	1781.73
592.96	1783.78
593.15	1697.77
593.34	1824.74
593.54	1742.82
593.73	1791.97
593.92	1753.06
594.12	1757.16
594.31	1751.01
594.50	1832.93
594.70	1816.55
594.89	1843.17
595.08	1726.44
595.28	1738.73
595.47	1880.04
595.66	1824.74
595.86	1722.34
596.05	1771.49
596.24	1738.73
596.43	1871.84
596.63	1738.73
596.82	1728.49
597.01	1826.79
597.21	1798.12
597.40	1769.44
597.59	1734.63
597.79	1714.15
597.98	1730.53
598.17	1753.06
598.36	1765.35
598.56	1718.25
598.75	1720.29
598.94	1755.11
599.14	1648.61
599.33	1673.19
599.52	1771.49
599.71	1718.25
599.91	1779.68
600.10	1808.36
600.29	1753.06
600.48	1771.49
600.68	1748.97
600.87	1710.05
601.06	1730.53
601.26	1808.36
601.45	1761.25
601.64	1693.67
601.83	1802.21
602.03	1685.48
602.22	1699.81
602.41	1726.44
602.60	1857.51
602.80	1865.70
602.99	1763.30
603.18	1683.43
603.37	1748.97
603.57	1794.02
603.76	1810.40
603.95	1802.21
604.14	1683.43
604.34	1677.29
604.53	1656.81
604.72	1742.82
604.91	1699.81
605.10	1841.12
605.30	1769.44
605.49	1787.88
605.68	1787.88
605.87	1751.01
606.07	1720.29
606.26	1816.55
606.45	1730.53
606.64	1761.25
606.84	1746.92
607.03	1736.68
607.22	1773.54
607.41	1740.77
607.60	1656.81
607.80	1734.63
607.99	1681.38
608.18	1726.44
608.37	1763.30
608.56	1665.00
608.76	1800.16
608.95	1847.27
609.14	1718.25
609.33	1785.83
609.52	1755.11
609.72	1710.05
609.91	1757.16
610.10	1660.90
610.29	1783.78
610.48	1802.21
610.68	1716.20
610.87	1685.48
611.06	1732.58
611.25	1718.25
611.44	1812.45
611.63	1787.88
611.83	1832.93
612.02	1632.23
612.21	1820.64
612.40	1624.04
612.59	1783.78
612.79	1728.49
612.98	1708.01
613.17	1789.92
613.36	1736.68
613.55	1857.51
613.74	1726.44
613.93	1691.62
614.13	1656.81
614.32	1708.01
614.51	1740.77
614.70	1748.97
614.89	1691.62
615.08	1730.53
615.28	2064.35
615.47	1578.98
615.66	1740.77
615.85	1665.00
616.04	1865.70
616.23	1724.39
616.42	1652.71
616.62	1763.30
616.81	1779.68
617.00	1710.05
617.19	1746.92
617.38	1652.71
617.57	1685.48
617.76	1716.20
617.95	1755.11
618.15	1708.01
618.34	1853.41
618.53	1677.29
618.72	1800.16
618.91	1834.98
619.10	1873.89
619.29	1734.63
619.48	1794.02
619.68	1748.97
619.87	1701.86
620.06	1660.90
620.25	1751.01
620.44	1681.38
620.63	1789.92
620.82	1669.09
621.01	1708.01
621.20	1722.34
621.39	1810.40
621.59	1716.20
621.78	1775.59
621.97	1679.33
622.16	1779.68
622.35	1708.01
622.54	1701.86
622.73	1779.68
622.92	1665.00
623.11	1757.16
623.30	1740.77
623.49	1693.67
623.68	1630.18
623.88	1824.74
624.07	1656.81
624.26	1726.44
624.45	1724.39
624.64	1746.92
624.83	1679.33
625.02	1712.10
625.21	1685.48
625.40	1693.67
625.59	1779.68
625.78	1705.96
625.97	1769.44
626.16	1697.77
626.35	1714.15
626.54	1720.29
626.74	1779.68
626.93	1740.77
627.12	1767.40
627.31	1671.14
627.50	1783.78
627.69	1828.84
627.88	1710.05
628.07	1648.61
628.26	1619.94
628.45	1675.24
628.64	1662.95
628.83	1662.95
629.02	1673.19
629.21	1759.21
629.40	1716.20
629.59	1718.25
629.78	1626.09
629.97	1681.38
630.16	1787.88
630.35	1701.86
630.54	1708.01
630.73	1693.67
630.92	1718.25
631.11	1654.76
631.30	1703.91
631.49	1734.63
631.68	1640.42
631.87	1722.34
632.06	1656.81
632.25	1847.27
632.44	1800.16
632.63	1720.29
632.82	1624.04
633.01	1685.48
633.20	1808.36
633.39	1683.43
633.58	1697.77
633.77	1783.78
633.96	1642.47
634.15	1748.97
634.34	1773.54
634.53	1671.14
634.72	1705.96
634.91	1630.18
635.10	1644.52
635.29	1777.64
635.48	1701.86
635.67	1697.77
635.86	1650.66
636.05	1783.78
636.24	1636.33
636.43	1720.29
636.62	1720.29
636.81	1611.75
637.00	1640.42
637.19	1748.97
637.38	1751.01
637.57	1673.19
637.76	1648.61
637.95	1755.11
638.14	1744.87
638.33	1697.77
638.52	1619.94
638.71	1675.24
638.89	1656.81
639.08	1843.17
639.27	1693.67
639.46	1665.00
639.65	1796.07
639.84	1763.30
640.03	1779.68
640.22	1673.19
640.41	1779.68
640.60	1662.95
640.79	1726.44
640.98	1669.09
641.17	1724.39
641.36	1728.49
641.55	1773.54
641.74	1642.47
641.92	1705.96
642.11	1679.33
642.30	1726.44
642.49	1669.09
642.68	1665.00
642.87	1656.81
643.06	1738.73
643.25	1726.44
643.44	1675.24
643.63	1687.53
643.82	1755.11
644.00	1746.92
644.19	1714.15
644.38	1613.80
644.57	1710.05
644.76	1728.49
644.95	1665.00
645.14	1765.35
645.33	1746.92
645.52	1742.82
645.71	1662.95
645.89	1617.90
646.08	1724.39
646.27	1693.67
646.46	1841.12
646.65	1693.67
646.84	1751.01
647.03	1634.28
647.22	1789.92
647.40	1755.11
647.59	1716.20
647.78	1660.90
647.97	1660.90
648.16	1632.23
648.35	1787.88
648.54	1736.68
648.73	1730.53
648.91	1771.49
649.10	1720.29
649.29	1712.10
649.48	1695.72
649.67	1736.68
649.86	1748.97
650.05	1665.00
650.23	1726.44
650.42	1636.33
650.61	1808.36
650.80	1779.68
650.99	1886.18
651.18	1726.44
651.36	1791.97
651.55	1732.58
651.74	1730.53
651.93	1755.11
652.12	1667.05
652.31	1748.97
652.49	1705.96
652.68	1634.28
652.87	1746.92
653.06	1671.14
653.25	1787.88
653.44	1648.61
653.62	1789.92
653.81	1771.49
654.00	1714.15
654.19	1751.01
654.38	1837.03
654.56	1775.59
654.75	1732.58
654.94	1771.49
655.13	1718.25
655.32	1658.85
655.51	1761.25
655.69	1673.19
655.88	1820.64
656.07	1619.94
656.26	1689.57
656.45	1634.28
656.63	1751.01
656.82	1765.35
657.01	1834.98
657.20	1603.56
657.38	1849.32
657.57	1718.25
657.76	1742.82
657.95	1722.34
658.14	1724.39
658.32	1746.92
658.51	1705.96
658.70	1660.90
658.89	1642.47
659.08	1638.38
659.26	1804.26
659.45	1607.66
659.64	1740.77
659.83	1710.05
660.01	1902.56
660.20	1714.15
660.39	1810.40
660.58	1656.81
660.76	1757.16
660.95	1665.00
661.14	1658.85
661.33	1603.56
661.51	1720.29
661.70	1705.96
661.89	1753.06
662.08	1640.42
662.26	1624.04
662.45	1630.18
662.64	1828.84
662.83	1724.39
663.01	1705.96
663.20	1642.47
663.39	1732.58
663.58	1695.72
663.76	1658.85
663.95	1787.88
664.14	1697.77
664.32	1693.67
664.51	1658.85
664.70	1681.38
664.89	1710.05
665.07	1673.19
665.26	1654.76
665.45	1751.01
665.64	1753.06
665.82	1710.05
666.01	1802.21
666.20	1746.92
666.38	1775.59
666.57	1810.40
666.76	2084.83
666.95	4499.39
667.13	10229.60
667.32	15075.10
667.51	17813.23
667.69	18892.51
667.88	17526.52
668.07	12445.51
668.25	9387.89
668.44	7999.37
668.63	7438.22
668.81	6768.54
669.00	6188.96
669.19	5695.40
669.38	5054.39
669.56	4489.15
669.75	3952.58
669.94	3387.34
670.12	2949.08
670.31	2559.96
670.50	2289.63
670.68	1994.72
670.87	1869.80
671.06	1843.17
671.24	1830.88
671.43	1802.21
671.62	1800.16
671.80	1724.39
671.99	1710.05
672.18	1816.55
672.36	1648.61
672.55	1738.73
672.74	1730.53
672.92	1701.86
673.11	1716.20
673.29	1619.94
673.48	1746.92
673.67	1648.61
673.85	1720.29
674.04	1658.85
674.23	1636.33
674.41	1794.02
674.60	1679.33
674.79	1581.03
674.97	1644.52
675.16	1679.33
675.34	1710.05
675.53	1679.33
675.72	1773.54
675.90	1755.11
676.09	1691.62
676.28	1689.57
676.46	1609.70
676.65	1693.67
676.83	1697.77
677.02	1656.81
677.21	1685.48
677.39	1685.48
677.58	1621.99
677.77	1703.91
677.95	1675.24
678.14	1683.43
678.32	1685.48
678.51	1675.24
678.70	1871.84
678.88	1640.42
679.07	1689.57
679.25	1683.43
679.44	1714.15
679.63	1660.90
679.81	1724.39
680.00	1689.57
680.18	1822.69
680.37	1693.67
680.55	1697.77
680.74	1644.52
680.93	1615.85
681.11	1695.72
681.30	1769.44
681.48	1701.86
681.67	1611.75
681.85	1679.33
682.04	1710.05
682.23	1771.49
682.41	1705.96
682.60	1708.01
682.78	1703.91
682.97	1673.19
683.15	1632.23
683.34	1789.92
683.53	1818.60
683.71	1687.53
683.90	1830.88
684.08	1845.22
684.27	1619.94
684.45	1783.78
684.64	1779.68
684.82	1669.09
685.01	1724.39
685.19	1685.48
685.38	1785.83
685.57	1691.62
685.75	1644.52
685.94	1632.23
686.12	1642.47
686.31	1675.24
686.49	1808.36
686.68	1652.71
686.86	1718.25
687.05	1650.66
687.23	1814.50
687.42	1683.43
687.60	1597.42
687.79	1738.73
687.97	1798.12
688.16	1802.21
688.34	1773.54
688.53	1583.08
688.71	1712.10
688.90	1791.97
689.08	1753.06
689.27	1699.81
689.45	1791.97
689.64	1730.53
689.82	1669.09
690.01	1761.25
690.19	1642.47
690.38	1728.49
690.56	1748.97
690.75	1642.47
690.93	1599.46
691.12	1654.76
691.30	1716.20
691.49	1654.76
691.67	1736.68
691.86	1759.21
692.04	1646.57
692.23	1628.14
692.41	1693.67
692.60	1796.07
692.78	1673.19
692.97	1673.19
693.15	1691.62
693.34	1791.97
693.52	1757.16
693.71	1665.00
693.89	1679.33
694.08	1644.52
694.26	1718.25
694.44	1718.25
694.63	1740.77
694.81	1669.09
695.00	1732.58
695.18	1781.73
695.37	1828.84
695.55	1738.73
695.74	1648.61
695.92	1744.87
696.10	1755.11
696.29	1681.38
696.47	1689.57
696.66	1685.48
696.84	1642.47
697.03	1648.61
697.21	1787.88
697.40	2285.53
697.58	1755.11
697.76	1615.85
697.95	1681.38
698.13	1632.23
698.32	1697.77
698.50	1722.34
698.68	1665.00
698.87	1884.13
699.05	1806.31
699.24	1681.38
699.42	1607.66
699.61	1724.39
699.79	1689.57
699.97	1673.19
700.16	1640.42
700.34	1611.75
700.53	1646.57
700.71	1773.54
700.89	1685.48
701.08	1693.67
701.26	1722.34
701.45	2088.93
701.63	1638.38
701.81	1716.20
702.00	1646.57
702.18	1628.14
702.37	1632.23
702.55	1789.92
702.73	1722.34
702.92	1654.76
703.10	1685.48
703.28	1681.38
703.47	1626.09
703.65	1677.29
703.84	1691.62
704.02	1632.23
704.20	1726.44
704.39	1705.96
704.57	1611.75
704.75	1724.39
704.94	1794.02
705.12	1714.15
705.30	1757.16
705.49	2248.67
705.67	4345.79
705.86	9318.26
706.04	12625.73
706.22	14554.91
706.41	15161.11
706.59	13879.08
706.77	9584.49
706.96	7393.17
707.14	6635.42
707.32	5935.01
707.51	5584.81
707.69	4845.49
707.87	4237.25
708.06	3598.28
708.24	3061.71
708.42	2381.79
708.61	2275.29
708.79	1886.18
708.97	1882.08
709.16	1818.60
709.34	1779.68
709.52	1759.21
709.71	1689.57
709.89	1773.54
710.07	1605.61
710.26	1705.96
710.44	1740.77
710.62	1714.15
710.80	1667.05
710.99	1722.34
711.17	1726.44
711.35	1665.00
711.54	1648.61
711.72	1787.88
711.90	1751.01
712.09	1738.73
712.27	1667.05
712.45	1714.15
712.63	1746.92
712.82	1716.20
713.00	1710.05
713.18	1800.16
713.37	1714.15
713.55	1753.06
713.73	1751.01
713.91	1718.25
714.10	1673.19
714.28	1640.42
714.46	1736.68
714.65	1783.78
714.83	1699.81
715.01	1734.63
715.19	1695.72
715.38	1722.34
715.56	1738.73
715.74	1740.77
715.92	1593.32
716.11	1722.34
716.29	1648.61
716.47	1689.57
716.65	1667.05
716.84	1601.51
717.02	1742.82
717.20	1638.38
717.38	1642.47
717.57	1726.44
717.75	1697.77
717.93	1691.62
718.11	1724.39
718.30	1662.95
718.48	1783.78
718.66	1755.11
718.84	1757.16
719.03	1726.44
719.21	1677.29
719.39	1744.87
719.57	1742.82
719.75	1730.53
719.94	1710.05
720.12	1654.76
720.30	1679.33
720.48	1763.30
720.67	1644.52
720.85	1642.47
721.03	1740.77
721.21	1662.95
721.39	1783.78
721.58	1689.57
721.76	1755.11
721.94	1697.77
722.12	1708.01
722.30	1767.40
722.49	1673.19
722.67	1726.44
722.85	1728.49
723.03	1597.42
723.21	1624.04
723.40	1765.35
723.58	1765.35
723.76	1681.38
723.94	1708.01
724.12	1734.63
724.30	1773.54
724.49	1748.97
724.67	1603.56
724.85	1673.19
725.03	1669.09
725.21	1753.06
725.40	1728.49
725.58	1701.86
725.76	1751.01
725.94	1724.39
726.12	1658.85
726.30	1634.28
726.49	1722.34
726.67	1701.86
726.85	1744.87
727.03	1804.26
727.21	2211.81
727.39	2932.69
727.57	3794.89
727.76	4052.93
727.94	4442.04
728.12	4392.89
728.30	3762.12
728.48	2971.60
728.66	2750.42
728.84	2531.29
729.03	2230.24
729.21	2199.52
729.39	1968.10
729.57	1843.17
729.75	1812.45
729.93	1845.22
730.11	1767.40
730.30	1734.63
730.48	1675.24
730.66	1804.26
730.84	1767.40
731.02	1716.20
731.20	1599.46
731.38	1773.54
731.56	1626.09
731.74	1677.29
731.93	1601.51
732.11	1693.67
732.29	1683.43
732.47	1740.77
732.65	1695.72
732.83	1738.73
733.01	1757.16
733.19	1675.24
733.37	1673.19
733.56	1728.49
733.74	1683.43
733.92	1712.10
734.10	1632.23
734.28	1744.87
734.46	1673.19
734.64	1681.38
734.82	1714.15
735.00	1628.14
735.18	1716.20
735.36	1685.48
735.54	1746.92
735.73	1767.40
735.91	1720.29
736.09	1728.49
736.27	1703.91
736.45	1708.01
736.63	1634.28
736.81	1652.71
736.99	1787.88
737.17	1716.20
737.35	1691.62
737.53	1658.85
737.71	1738.73
737.89	1834.98
738.07	1695.72
738.25	1669.09
738.43	1630.18
738.61	1779.68
738.80	1675.24
738.98	1599.46
739.16	1708.01
739.34	1652.71
739.52	1738.73
739.70	1667.05
739.88	1800.16
740.06	1734.63
740.24	1542.12
740.42	1748.97
740.60	1650.66
740.78	1660.90
740.96	1595.37
741.14	1683.43
741.32	1638.38
741.50	1638.38
741.68	1814.50
741.86	1763.30
742.04	1665.00
742.22	1730.53
742.40	1755.11
742.58	1796.07
742.76	1587.18
742.94	1699.81
743.12	1628.14
743.30	1722.34
743.48	1722.34
743.66	1636.33
743.84	1712.10
744.02	1632.23
744.20	1669.09
744.38	1689.57
744.56	1634.28
744.74	1839.08
744.92	1755.11
745.10	1720.29
745.28	1683.43
745.46	1791.97
745.64	1691.62
745.82	1820.64
746.00	1638.38
746.18	1716.20
746.36	1691.62
746.54	1783.78
746.72	1675.24
746.90	1665.00
747.08	1777.64
747.26	1687.53
747.44	1697.77
747.62	1691.62
747.80	1701.86
747.98	1810.40
748.15	1765.35
748.33	1775.59
748.51	1751.01
748.69	1761.25
748.87	1607.66
749.05	1716.20
749.23	1714.15
749.41	1746.92
749.59	1636.33
749.77	1740.77
749.95	1628.14
750.13	1587.18
750.31	1652.71
750.49	1720.29
750.67	1726.44
750.85	1718.25
751.03	1736.68
751.20	1894.37
751.38	1687.53
751.56	1640.42
751.74	1667.05
751.92	1761.25
752.10	1681.38
752.28	1759.21
752.46	1636.33
752.64	1703.91
752.82	1714.15
753.00	1722.34
753.18	1691.62
753.35	1648.61
753.53	1691.62
753.71	1681.38
753.89	1712.10
754.07	1720.29
754.25	1652.71
754.43	1667.05
754.61	1642.47
754.79	1761.25
754.97	1671.14
755.14	1740.77
755.32	1650.66
755.50	1644.52
755.68	1728.49
755.86	1716.20
756.04	1638.38
756.22	1601.51
756.40	1746.92
756.57	1832.93
756.75	1789.92
756.93	1763.30
757.11	1755.11
757.29	1751.01
757.47	1658.85
757.65	1583.08
757.82	1581.03
758.00	1646.57
758.18	1615.85
758.36	1722.34
758.54	1783.78
758.72	1617.90
758.90	1751.01
759.07	1671.14
759.25	1640.42
759.43	1724.39
759.61	1574.89
759.79	2111.46
759.97	1714.15
760.15	1662.95
760.32	1683.43
760.50	1812.45
760.68	1730.53
760.86	1689.57
761.04	1775.59
761.22	1765.35
761.39	1675.24
761.57	1699.81
761.75	1652.71
761.93	1714.15
762.11	1593.32
762.28	1660.90
762.46	1689.57
762.64	1673.19
762.82	1611.75
763.00	1652.71
763.18	1757.16
763.35	1628.14
763.53	1779.68
763.71	1703.91
763.89	1779.68
764.07	1791.97
764.24	1753.06
764.42	1693.67
764.60	1626.09
764.78	1701.86
764.96	1728.49
765.13	1791.97
765.31	1697.77
765.49	1656.81
765.67	1701.86
765.84	1667.05
766.02	1701.86
766.20	1613.80
766.38	1804.26
766.56	1708.01
766.73	1744.87
766.91	1734.63
767.09	1685.48
767.27	1722.34
767.44	1570.79
767.62	1728.49
767.80	1705.96
767.98	1673.19
768.15	1665.00
768.33	1751.01
768.51	1705.96
768.69	1787.88
768.87	1691.62
769.04	1753.06
769.22	1873.89
769.40	1828.84
769.58	1855.46
769.75	1703.91
769.93	1828.84
770.11	1718.25
770.28	1673.19
770.46	1740.77
770.64	1632.23
770.82	1701.86
770.99	1660.90
771.17	1728.49
771.35	1624.04
771.53	1652.71
771.70	1714.15
771.88	1789.92
772.06	1679.33
772.23	1650.66
772.41	1740.77
772.59	1699.81
772.77	1652.71
772.94	1665.00
773.12	1744.87
773.30	1757.16
773.47	1648.61
773.65	1695.72
773.83	1800.16
774.01	1687.53
774.18	1583.08
774.36	1662.95
774.54	1621.99
774.71	1785.83
774.89	1654.76
775.07	1550.31
775.24	1667.05
775.42	1662.95
775.60	1738.73
775.78	1624.04
775.95	1667.05
776.13	1589.22
776.31	1593.32
776.48	1673.19
776.66	1816.55
776.84	1724.39
777.01	1716.20
777.19	1660.90
777.37	1673.19
777.54	1673.19
777.72	1755.11
777.90	1761.25
778.07	1636.33
778.25	1859.56
778.43	1718.25
778.60	1665.00
778.78	1759.21
778.96	1728.49
779.13	1644.52
779.31	1746.92
779.49	1685.48
779.66	1734.63
779.84	1685.48
780.01	1685.48
780.19	1705.96
780.37	1722.34
780.54	1697.77
780.72	1619.94
780.90	1648.61
781.07	1718.25
781.25	1619.94
781.43	1712.10
781.60	1730.53
781.78	1748.97
781.95	1599.46
782.13	1603.56
782.31	1599.46
782.48	1558.50
782.66	1701.86
782.83	1773.54
783.01	1732.58
783.19	1751.01
783.36	1648.61
783.54	1652.71
783.72	1761.25
783.89	1677.29
784.07	1722.34
784.24	1777.64
784.42	1826.79
784.60	1734.63
784.77	1728.49
784.95	1650.66
785.12	1660.90
785.30	1736.68
785.47	1693.67
785.65	1605.61
785.83	1701.86
786.00	1662.95
786.18	1679.33
786.35	1648.61
786.53	1716.20
786.71	1742.82
786.88	1691.62
787.06	1710.05
787.23	1675.24
787.41	1591.27
787.58	1640.42
787.76	1716.20
787.94	1693.67
788.11	1742.82
788.29	1708.01
788.46	1605.61
788.64	1640.42
788.81	1705.96
788.99	1687.53
789.16	1599.46
789.34	1640.42
789.52	1675.24
789.69	1728.49
789.87	1585.13
790.04	1660.90
790.22	1765.35
790.39	1798.12
790.57	1716.20
790.74	1617.90
790.92	1689.57
791.09	1628.14
791.27	1789.92
791.44	1705.96
791.62	1701.86
791.79	1712.10
791.97	1687.53
792.15	1933.28
792.32	1695.72
792.50	1724.39
792.67	1742.82
792.85	1781.73
793.02	1658.85
793.20	1708.01
793.37	1656.81
793.55	1736.68
793.72	1669.09
793.90	1701.86
794.07	1566.70
794.25	1679.33
794.42	1748.97
794.60	1701.86
794.77	1740.77
794.95	1783.78
795.12	1695.72
795.30	1624.04
795.47	1675.24
795.65	1865.70
795.82	1712.10
796.00	1701.86
796.17	1671.14
796.34	1650.66
796.52	1724.39
796.69	1759.21
796.87	1705.96
797.04	1718.25
797.22	1726.44
797.39	1728.49
797.57	1767.40
797.74	1691.62
797.92	1730.53
798.09	1644.52
798.27	1708.01
798.44	1681.38
798.62	1611.75
798.79	1738.73
798.96	1765.35
799.14	1718.25
799.31	1888.23
799.49	1697.77
799.66	1646.57
799.84	1697.77
800.01	1611.75
800.19	1703.91
800.36	1570.79
800.53	1710.05
800.71	1671.14
800.88	1740.77
801.06	1693.67
801.23	1697.77
801.41	1615.85
801.58	1714.15
801.75	1708.01
801.93	1753.06
802.10	1685.48
802.28	1767.40
802.45	1691.62
802.63	1742.82
802.80	1736.68
802.97	1665.00
803.15	1679.33
803.32	1685.48
803.50	1689.57
803.67	1640.42
803.84	1611.75
804.02	1685.48
804.19	1689.57
804.37	1615.85
804.54	1607.66
804.71	1738.73
804.89	1720.29
805.06	1734.63
805.24	1675.24
805.41	1574.89
805.58	1673.19
805.76	1828.84
805.93	1732.58
806.10	1814.50
806.28	1767.40
806.45	1665.00
806.63	1736.68
806.80	1744.87
806.97	1710.05
807.15	1746.92
807.32	1681.38
807.49	1693.67
807.67	1705.96
807.84	1687.53
808.01	1581.03
808.19	1845.22
808.36	1806.31
808.54	1693.67
808.71	1673.19
808.88	1716.20
809.06	1757.16
809.23	1787.88
809.40	1669.09
809.58	1783.78
809.75	1767.40
809.92	1726.44
810.10	1783.78
810.27	1648.61
810.44	1742.82
810.62	1812.45
810.79	1691.62
810.96	1671.14
811.14	1656.81
811.31	1722.34
811.48	1757.16
811.66	1632.23
811.83	1771.49
812.00	1632.23
812.18	1720.29
812.35	1779.68
812.52	1634.28
812.69	1677.29
812.87	1697.77
813.04	1693.67
813.21	1687.53
813.39	1669.09
813.56	1652.71
813.73	1732.58
813.91	1607.66
814.08	1697.77
814.25	1687.53
814.42	1703.91
814.60	1693.67
814.77	1746.92
814.94	1669.09
815.12	1675.24
815.29	1781.73
815.46	1591.27
815.63	1671.14
815.81	1689.57
815.98	1669.09
816.15	1716.20
816.33	1714.15
816.50	1701.86
816.67	1681.38
816.84	1669.09
817.02	1695.72
817.19	1646.57
817.36	1687.53
817.53	1722.34
817.71	1738.73
817.88	1658.85
818.05	1732.58
818.22	1650.66
818.40	1763.30
818.57	1665.00
818.74	1681.38
818.91	1693.67
819.09	1738.73
819.26	1708.01
819.43	1703.91
819.60	1613.80
819.78	1689.57
819.95	1746.92
820.12	1578.98
820.29	1705.96
820.47	1720.29
820.64	1652.71
820.81	1564.65
820.98	1642.47
821.15	1574.89
821.33	1724.39
821.50	1609.70
821.67	1726.44
821.84	1603.56
822.02	1791.97
822.19	1740.77
822.36	1671.14
822.53	1660.90
822.70	1646.57
822.88	1755.11
823.05	1685.48
823.22	1705.96
823.39	1726.44
823.56	1697.77
823.74	1796.07
823.91	1644.52
824.08	1605.61
824.25	1603.56
824.42	1832.93
824.60	1587.18
824.77	1726.44
824.94	1609.70
825.11	1697.77
825.28	1669.09
825.45	1679.33
825.63	1660.90
825.80	1583.08
825.97	1693.67
826.14	1646.57
826.31	1644.52
826.48	1738.73
826.66	1595.37
826.83	1687.53
827.00	1687.53
827.17	1621.99
827.34	1615.85
827.51	1714.15
827.69	1726.44
827.86	1585.13
828.03	1701.86
828.20	1693.67
828.37	1638.38
828.54	1634.28
828.71	1609.70
828.89	1791.97
829.06	1701.86
829.23	1724.39
829.40	1619.94
829.57	1660.90
829.74	1757.16
829.91	1624.04
830.09	1710.05
830.26	1701.86
830.43	1763.30
830.60	1716.20
830.77	1712.10
830.94	1732.58
831.11	1701.86
831.28	1587.18
831.46	1720.29
831.63	1660.90
831.80	1734.63
831.97	1603.56
832.14	1660.90
832.31	1834.98
832.48	1648.61
832.65	1748.97
832.82	1773.54
832.99	1748.97
833.17	1648.61
833.34	1708.01
833.51	1722.34
833.68	1587.18
833.85	1734.63
834.02	1652.71
834.19	1632.23
834.36	1597.42
834.53	1701.86
834.70	1681.38
834.87	1691.62
835.04	1716.20
835.22	1603.56
835.39	1701.86
835.56	1640.42
835.73	1603.56
835.90	1720.29
836.07	1648.61
836.24	1791.97
836.41	1599.46
836.58	1658.85
836.75	1746.92
836.92	1746.92
837.09	1607.66
837.26	1720.29
837.43	1677.29
837.60	1740.77
837.77	1626.09
837.94	1638.38
838.12	1734.63
838.29	1716.20
838.46	1642.47
838.63	1667.05
838.80	1681.38
838.97	1673.19
839.14	1628.14
839.31	1785.83
839.48	1660.90
839.65	1585.13
839.82	1769.44
839.99	1722.34
840.16	1734.63
840.33	1734.63
840.50	1689.57
840.67	1736.68
840.84	1621.99
841.01	1759.21
841.18	1644.52
841.35	1755.11
841.52	1763.30
841.69	1753.06
841.86	1679.33
842.03	1775.59
842.20	1662.95
842.37	1603.56
842.54	1626.09
842.71	1738.73
842.88	1658.85
843.05	1701.86
843.22	1619.94
843.39	1769.44
843.56	1714.15
843.73	1677.29
843.90	1675.24
844.07	1652.71
844.24	1665.00
844.41	1632.23
844.58	1691.62
844.75	1730.53
844.92	1724.39
845.09	1693.67
845.26	1624.04
845.43	1738.73
845.60	1636.33
845.77	1826.79
845.94	1689.57
846.10	1796.07
846.27	1615.85
846.44	1624.04
846.61	1658.85
846.78	1744.87
846.95	1710.05
847.12	1708.01
847.29	1595.37
847.46	1697.77
847.63	1767.40
847.80	1593.32
847.97	1646.57
848.14	1775.59
848.31	1650.66
848.48	1697.77
848.65	1712.10
848.82	1630.18
848.98	1830.88
849.15	1777.64
849.32	1812.45
849.49	1759.21
849.66	1640.42
849.83	1675.24
850.00	1591.27
850.17	1681.38
850.34	1689.57
850.51	1660.90
850.68	1677.29
850.85	1851.36
851.01	1718.25
851.18	1642.47
851.35	1705.96
851.52	1714.15
851.69	1822.69
851.86	1599.46
852.03	1675.24
852.20	1775.59
852.37	1730.53
852.53	1531.88
852.70	1701.86
852.87	1744.87
853.04	1675.24
853.21	1628.14
853.38	1718.25
853.55	1697.77
853.72	1765.35
853.89	1644.52
854.05	1689.57
854.22	1644.52
854.39	1771.49
854.56	1708.01
854.73	1751.01
854.90	1591.27
855.07	1683.43
855.23	1660.90
855.40	1644.52
855.57	1619.94
855.74	1578.98
855.91	1841.12
856.08	1615.85
856.25	1671.14
856.41	1732.58
856.58	1574.89
856.75	1708.01
856.92	1675.24
857.09	1712.10
857.26	1589.22
857.42	1751.01
857.59	1660.90
857.76	1611.75
857.93	1751.01
858.10	1656.81
858.27	1611.75
858.43	1705.96
858.60	1636.33
858.77	1568.74
858.94	1746.92
859.11	1734.63
859.27	1687.53
859.44	1683.43
859.61	1794.02
859.78	1687.53
859.95	1624.04
860.12	1710.05
860.28	1751.01
860.45	1837.03
860.62	1652.71
860.79	1654.76
860.95	1660.90
861.12	1599.46
861.29	1609.70
861.46	1650.66
861.63	1703.91
861.79	1736.68
861.96	1609.70
862.13	1677.29
862.30	1779.68
862.47	1732.58
862.63	1652.71
862.80	1759.21
862.97	1746.92
863.14	1716.20
863.30	1658.85
863.47	1662.95
863.64	1755.11
863.81	1712.10
863.97	1675.24
864.14	1769.44
864.31	1662.95
864.48	1677.29
864.65	1687.53
864.81	1730.53
864.98	1736.68
865.15	1732.58
865.32	1744.87
865.48	1734.63
865.65	1787.88
865.82	1665.00
865.98	1814.50
866.15	1759.21
866.32	1589.22
866.49	1665.00
866.65	1730.53
866.82	1671.14
866.99	1654.76
867.16	1650.66
867.32	1701.86
867.49	1681.38
867.66	1732.58
867.83	1599.46
867.99	1609.70
868.16	1613.80
868.33	1615.85
868.49	1665.00
868.66	1697.77
868.83	1712.10
868.99	1730.53
869.16	1681.38
869.33	1736.68
869.50	1744.87
869.66	1607.66
869.83	1642.47
870.00	1609.70
870.16	1765.35
870.33	1718.25
870.50	1751.01
870.66	1632.23
870.83	1808.36
871.00	1730.53
871.17	1679.33
871.33	1705.96
871.50	1687.53
871.67	1673.19
871.83	1605.61
872.00	1781.73
872.17	1630.18
872.33	1738.73
872.50	1751.01
872.67	1677.29
872.83	1699.81
873.00	1605.61
873.17	1695.72
873.33	1755.11
873.50	1710.05
873.67	1677.29
873.83	1624.04
874.00	1656.81
874.16	1751.01
874.33	1681.38
874.50	1665.00
874.66	1726.44
874.83	1712.10
875.00	1699.81
875.16	1751.01
875.33	1746.92
875.50	1568.74
875.66	1607.66
875.83	1650.66
875.99	1806.31
876.16	1667.05
876.33	1665.00
876.49	1683.43
876.66	1734.63
876.83	1667.05
876.99	1611.75
877.16	1626.09
877.32	1701.86
877.49	1640.42
877.66	1722.34
877.82	1779.68
877.99	1777.64
878.15	1593.32
878.32	1736.68
878.49	1665.00
878.65	1667.05
878.82	1787.88
878.98	1689.57
879.15	1785.83
879.32	1697.77
879.48	1687.53
879.65	1699.81
879.81	1677.29
879.98	1675.24
880.15	1615.85
880.31	1753.06
880.48	1621.99
880.64	1718.25
880.81	1744.87
880.97	1859.56
881.14	1746.92
881.31	1658.85
881.47	1834.98
881.64	1667.05
881.80	1658.85
881.97	1703.91
882.13	1769.44
882.30	1673.19
882.47	1679.33
882.63	1605.61
882.80	1650.66
882.96	1734.63
883.13	1746.92
883.29	1738.73
883.46	1708.01
883.62	1722.34
883.79	1662.95
883.95	1671.14
884.12	1789.92
884.29	1658.85
884.45	1767.40
884.62	1691.62
884.78	1648.61
884.95	1705.96
885.11	1570.79
885.28	1689.57
885.44	1726.44
885.61	1718.25
885.77	1755.11
885.94	1796.07
886.10	1656.81
886.27	1693.67
886.43	1777.64
886.60	1806.31
886.76	1689.57
886.93	1609.70
887.09	1656.81
887.26	1673.19
887.42	1619.94
887.59	1689.57
887.75	1800.16
887.92	1742.82
888.08	1685.48
888.25	1802.21
888.41	1732.58
888.58	1718.25
888.74	1683.43
888.91	1615.85
>>>>>End Processed Spectral Data<<<<<
