SpectraSuite Data File
++++++++++++++++++++++++++++++++++++
Date: Mon Jun 06 17:28:37 CEST 2016
User: root
Dark Spectrum Present: No
Reference Spectrum Present: No
Number of Sampled Component Spectra: 1
Spectrometers: USB4C02835
Integration Time (usec): 100000 (USB4C02835)
Spectra Averaged: 1 (USB4C02835)
Boxcar Smoothing: 0 (USB4C02835)
Correct for Electrical Dark: No (USB4C02835)
Strobe/Lamp Enabled: No (USB4C02835)
Correct for Detector Non-linearity: No (USB4C02835)
Correct for Stray Light: No (USB4C02835)
Number of Pixels in Processed Spectrum: 3648
>>>>>Begin Processed Spectral Data<<<<<
177.47	1529.83
177.69	1529.83
177.91	1529.83
178.13	1497.07
178.36	1386.47
178.58	1671.14
178.80	1673.19
179.02	1591.27
179.24	1742.82
179.46	1665.00
179.68	1689.57
179.90	1679.33
180.13	1730.53
180.35	1720.29
180.57	1693.67
180.79	1738.73
181.01	1662.95
181.23	1771.49
181.45	1798.12
181.67	1757.16
181.90	1771.49
182.12	1710.05
182.34	1591.27
182.56	1689.57
182.78	1728.49
183.00	1751.01
183.22	1693.67
183.44	1640.42
183.66	1851.36
183.89	1841.12
184.11	1665.00
184.33	1714.15
184.55	1777.64
184.77	1763.30
184.99	1744.87
185.21	1619.94
185.43	1869.80
185.65	1701.86
185.87	1710.05
186.10	1857.51
186.32	1804.26
186.54	1787.88
186.76	1708.01
186.98	1730.53
187.20	1691.62
187.42	1701.86
187.64	1703.91
187.86	1748.97
188.08	1773.54
188.30	1710.05
188.52	1736.68
188.75	1732.58
188.97	1888.23
189.19	1701.86
189.41	1714.15
189.63	1773.54
189.85	1705.96
190.07	1599.46
190.29	1662.95
190.51	1785.83
190.73	1658.85
190.95	1810.40
191.17	1724.39
191.39	1554.41
191.61	1710.05
191.84	1718.25
192.06	1773.54
192.28	1546.22
192.50	1877.99
192.72	1804.26
192.94	1683.43
193.16	1822.69
193.38	1695.72
193.60	1662.95
193.82	1777.64
194.04	1781.73
194.26	1730.53
194.48	1673.19
194.70	1665.00
194.92	1697.77
195.14	1720.29
195.36	1742.82
195.58	1765.35
195.80	1673.19
196.02	1714.15
196.24	1746.92
196.46	1751.01
196.69	1695.72
196.91	1900.52
197.13	1656.81
197.35	1667.05
197.57	1849.32
197.79	1730.53
198.01	1716.20
198.23	1773.54
198.45	1773.54
198.67	1599.46
198.89	1734.63
199.11	1761.25
199.33	1767.40
199.55	1673.19
199.77	1720.29
199.99	1761.25
200.21	1673.19
200.43	1746.92
200.65	1628.14
200.87	1658.85
201.09	1771.49
201.31	1769.44
201.53	1748.97
201.75	1716.20
201.97	1744.87
202.19	1722.34
202.41	1722.34
202.63	1810.40
202.85	1808.36
203.07	1732.58
203.29	1626.09
203.51	1718.25
203.73	1669.09
203.95	1855.46
204.17	1693.67
204.39	1726.44
204.61	1726.44
204.83	1648.61
205.05	1732.58
205.27	1828.84
205.49	1818.60
205.71	1665.00
205.93	1697.77
206.15	1681.38
206.37	1736.68
206.59	1730.53
206.81	1675.24
207.03	1748.97
207.25	1648.61
207.47	1714.15
207.69	1740.77
207.91	1705.96
208.13	1816.55
208.34	1689.57
208.56	1562.60
208.78	1697.77
209.00	1660.90
209.22	1675.24
209.44	1746.92
209.66	1669.09
209.88	1677.29
210.10	1636.33
210.32	1771.49
210.54	1802.21
210.76	1751.01
210.98	1771.49
211.20	1621.99
211.42	1769.44
211.64	1847.27
211.86	1806.31
212.08	1763.30
212.30	1701.86
212.52	1689.57
212.74	1716.20
212.96	1738.73
213.17	1810.40
213.39	1820.64
213.61	1740.77
213.83	1701.86
214.05	1675.24
214.27	1783.78
214.49	1669.09
214.71	1710.05
214.93	1900.52
215.15	1775.59
215.37	1730.53
215.59	1658.85
215.81	1763.30
216.03	1724.39
216.24	1718.25
216.46	1703.91
216.68	1699.81
216.90	1724.39
217.12	1718.25
217.34	1718.25
217.56	1738.73
217.78	1834.98
218.00	1746.92
218.22	1767.40
218.44	1753.06
218.66	1697.77
218.87	1769.44
219.09	1708.01
219.31	1712.10
219.53	1638.38
219.75	1689.57
219.97	1708.01
220.19	1775.59
220.41	1753.06
220.63	1794.02
220.85	1734.63
221.06	1667.05
221.28	1859.56
221.50	1732.58
221.72	1800.16
221.94	1636.33
222.16	1775.59
222.38	1675.24
222.60	1759.21
222.82	1710.05
223.03	1798.12
223.25	1677.29
223.47	1771.49
223.69	1812.45
223.91	1677.29
224.13	1681.38
224.35	1695.72
224.57	1708.01
224.78	1779.68
225.00	1597.42
225.22	1660.90
225.44	1726.44
225.66	1779.68
225.88	1730.53
226.10	1734.63
226.32	1730.53
226.53	1755.11
226.75	1720.29
226.97	1695.72
227.19	1714.15
227.41	1642.47
227.63	1644.52
227.85	1619.94
228.06	1755.11
228.28	1705.96
228.50	1742.82
228.72	1685.48
228.94	1636.33
229.16	1687.53
229.37	1654.76
229.59	1720.29
229.81	1789.92
230.03	1728.49
230.25	1595.37
230.47	1695.72
230.69	1646.57
230.90	1781.73
231.12	1695.72
231.34	1708.01
231.56	1748.97
231.78	1621.99
232.00	1714.15
232.21	1703.91
232.43	1662.95
232.65	1636.33
232.87	1691.62
233.09	1718.25
233.30	1683.43
233.52	1744.87
233.74	1640.42
233.96	1736.68
234.18	1701.86
234.40	1783.78
234.61	1802.21
234.83	1599.46
235.05	1683.43
235.27	1908.71
235.49	1806.31
235.70	1665.00
235.92	1806.31
236.14	1789.92
236.36	1896.42
236.58	1644.52
236.79	1728.49
237.01	1697.77
237.23	1691.62
237.45	1814.50
237.67	1652.71
237.88	1751.01
238.10	1812.45
238.32	1665.00
238.54	1652.71
238.76	1751.01
238.97	1693.67
239.19	1636.33
239.41	1751.01
239.63	1708.01
239.85	1740.77
240.06	1677.29
240.28	1746.92
240.50	1730.53
240.72	1693.67
240.93	1738.73
241.15	1742.82
241.37	1763.30
241.59	1695.72
241.81	1724.39
242.02	1736.68
242.24	1712.10
242.46	1740.77
242.68	1757.16
242.89	1751.01
243.11	1791.97
243.33	1697.77
243.55	1789.92
243.76	1746.92
243.98	1712.10
244.20	1736.68
244.42	1755.11
244.64	1693.67
244.85	1728.49
245.07	1695.72
245.29	1802.21
245.51	1669.09
245.72	1722.34
245.94	1769.44
246.16	1722.34
246.38	1732.58
246.59	1734.63
246.81	1613.80
247.03	1730.53
247.24	1554.41
247.46	1638.38
247.68	1691.62
247.90	1685.48
248.11	1660.90
248.33	1800.16
248.55	1701.86
248.77	1759.21
248.98	1755.11
249.20	1882.08
249.42	1722.34
249.64	1818.60
249.85	1693.67
250.07	1685.48
250.29	1748.97
250.50	1791.97
250.72	1607.66
250.94	1722.34
251.16	1822.69
251.37	1859.56
251.59	1714.15
251.81	1777.64
252.02	1863.65
252.24	1685.48
252.46	1773.54
252.68	1757.16
252.89	1673.19
253.11	1615.85
253.33	1794.02
253.54	1732.58
253.76	1628.14
253.98	1705.96
254.20	1720.29
254.41	1728.49
254.63	1626.09
254.85	1636.33
255.06	1742.82
255.28	1769.44
255.50	1714.15
255.71	1656.81
255.93	1671.14
256.15	1685.48
256.36	1718.25
256.58	1646.57
256.80	1753.06
257.02	1730.53
257.23	1675.24
257.45	1656.81
257.67	1712.10
257.88	1710.05
258.10	1689.57
258.32	1726.44
258.53	1708.01
258.75	1785.83
258.97	1652.71
259.18	1619.94
259.40	1718.25
259.62	1746.92
259.83	1830.88
260.05	1771.49
260.27	2082.78
260.48	1693.67
260.70	1669.09
260.92	1662.95
261.13	1726.44
261.35	1695.72
261.57	1742.82
261.78	1603.56
262.00	1675.24
262.22	1761.25
262.43	1648.61
262.65	1673.19
262.86	1703.91
263.08	1843.17
263.30	1683.43
263.51	1628.14
263.73	1603.56
263.95	1853.41
264.16	1626.09
264.38	1615.85
264.60	1812.45
264.81	1679.33
265.03	1834.98
265.25	1703.91
265.46	1720.29
265.68	1751.01
265.89	1705.96
266.11	1570.79
266.33	1787.88
266.54	1773.54
266.76	1728.49
266.98	1802.21
267.19	1804.26
267.41	1701.86
267.62	1705.96
267.84	1574.89
268.06	1728.49
268.27	1695.72
268.49	1738.73
268.70	1837.03
268.92	1724.39
269.14	1689.57
269.35	1650.66
269.57	1781.73
269.79	1812.45
270.00	1665.00
270.22	1777.64
270.43	1718.25
270.65	1665.00
270.87	1761.25
271.08	1783.78
271.30	1796.07
271.51	1701.86
271.73	1775.59
271.95	1787.88
272.16	1746.92
272.38	1730.53
272.59	1730.53
272.81	1763.30
273.02	1773.54
273.24	1689.57
273.46	1775.59
273.67	1667.05
273.89	1597.42
274.10	1613.80
274.32	1708.01
274.54	1675.24
274.75	1732.58
274.97	1761.25
275.18	1802.21
275.40	1789.92
275.61	1654.76
275.83	1738.73
276.05	1660.90
276.26	1744.87
276.48	1798.12
276.69	1667.05
276.91	1660.90
277.12	1771.49
277.34	1789.92
277.55	1828.84
277.77	1722.34
277.99	1714.15
278.20	1681.38
278.42	1667.05
278.63	1658.85
278.85	1605.61
279.06	1587.18
279.28	1720.29
279.49	1816.55
279.71	1751.01
279.93	1734.63
280.14	1714.15
280.36	1718.25
280.57	1785.83
280.79	1837.03
281.00	1705.96
281.22	1632.23
281.43	1857.51
281.65	1617.90
281.86	1662.95
282.08	1736.68
282.29	1781.73
282.51	1589.22
282.73	1685.48
282.94	1677.29
283.16	1804.26
283.37	1785.83
283.59	1738.73
283.80	1730.53
284.02	1638.38
284.23	1714.15
284.45	1652.71
284.66	1634.28
284.88	1687.53
285.09	1732.58
285.31	1695.72
285.52	1720.29
285.74	1630.18
285.95	1748.97
286.17	1695.72
286.38	1736.68
286.60	1603.56
286.81	1695.72
287.03	1626.09
287.24	1705.96
287.46	1722.34
287.67	1757.16
287.89	1896.42
288.10	1679.33
288.32	1705.96
288.53	1773.54
288.75	1757.16
288.96	1730.53
289.18	1689.57
289.39	1705.96
289.61	1714.15
289.82	1837.03
290.04	1800.16
290.25	1671.14
290.47	1722.34
290.68	1736.68
290.90	1783.78
291.11	1656.81
291.33	1816.55
291.54	1630.18
291.76	1640.42
291.97	1742.82
292.18	1732.58
292.40	1724.39
292.61	1669.09
292.83	1894.37
293.04	1705.96
293.26	1767.40
293.47	1642.47
293.69	1701.86
293.90	1677.29
294.12	1761.25
294.33	1761.25
294.55	1703.91
294.76	1705.96
294.97	1810.40
295.19	1828.84
295.40	1744.87
295.62	1693.67
295.83	1734.63
296.05	1724.39
296.26	1755.11
296.48	1624.04
296.69	1705.96
296.90	1714.15
297.12	1720.29
297.33	1773.54
297.55	1734.63
297.76	1712.10
297.98	1730.53
298.19	1730.53
298.41	1667.05
298.62	1630.18
298.83	1828.84
299.05	1697.77
299.26	1689.57
299.48	1681.38
299.69	1716.20
299.90	1712.10
300.12	1703.91
300.33	1789.92
300.55	1767.40
300.76	1816.55
300.98	1669.09
301.19	1730.53
301.40	1667.05
301.62	1722.34
301.83	1796.07
302.05	1736.68
302.26	1726.44
302.47	1730.53
302.69	1689.57
302.90	1710.05
303.12	1595.37
303.33	1785.83
303.54	1791.97
303.76	1662.95
303.97	1730.53
304.19	1755.11
304.40	1708.01
304.61	1824.74
304.83	1841.12
305.04	1787.88
305.26	1738.73
305.47	1691.62
305.68	1685.48
305.90	1701.86
306.11	1759.21
306.33	1742.82
306.54	1597.42
306.75	1644.52
306.97	1611.75
307.18	1701.86
307.39	1677.29
307.61	1703.91
307.82	1734.63
308.04	1726.44
308.25	1646.57
308.46	1736.68
308.68	1771.49
308.89	1691.62
309.10	1808.36
309.32	1732.58
309.53	1726.44
309.74	1654.76
309.96	1705.96
310.17	1779.68
310.39	1746.92
310.60	1783.78
310.81	1785.83
311.03	1603.56
311.24	1816.55
311.45	1744.87
311.67	1871.84
311.88	1748.97
312.09	1615.85
312.31	1712.10
312.52	1746.92
312.73	1740.77
312.95	1636.33
313.16	1673.19
313.37	1734.63
313.59	1748.97
313.80	1738.73
314.01	1822.69
314.23	1681.38
314.44	1628.14
314.65	1656.81
314.87	1589.22
315.08	1714.15
315.29	1738.73
315.51	1576.94
315.72	1607.66
315.93	1900.52
316.15	1738.73
316.36	1734.63
316.57	1673.19
316.79	1773.54
317.00	1730.53
317.21	1687.53
317.43	1755.11
317.64	1679.33
317.85	1673.19
318.07	1695.72
318.28	1728.49
318.49	1814.50
318.70	1927.14
318.92	1902.56
319.13	1783.78
319.34	1812.45
319.56	1761.25
319.77	1755.11
319.98	1814.50
320.20	1783.78
320.41	1685.48
320.62	1705.96
320.83	1656.81
321.05	1841.12
321.26	1751.01
321.47	1701.86
321.69	1789.92
321.90	1697.77
322.11	1714.15
322.32	1722.34
322.54	1761.25
322.75	1693.67
322.96	1841.12
323.18	1634.28
323.39	1562.60
323.60	1640.42
323.81	1746.92
324.03	1667.05
324.24	1617.90
324.45	1695.72
324.66	1687.53
324.88	1787.88
325.09	1779.68
325.30	1665.00
325.52	1734.63
325.73	1755.11
325.94	1710.05
326.15	1638.38
326.37	1689.57
326.58	1787.88
326.79	1880.04
327.00	1689.57
327.22	1701.86
327.43	1691.62
327.64	1595.37
327.85	1718.25
328.07	1701.86
328.28	1785.83
328.49	1689.57
328.70	1744.87
328.92	1671.14
329.13	1683.43
329.34	1712.10
329.55	1794.02
329.76	1748.97
329.98	1691.62
330.19	1787.88
330.40	1837.03
330.61	1744.87
330.83	1863.65
331.04	1697.77
331.25	1742.82
331.46	1796.07
331.68	1669.09
331.89	1705.96
332.10	1763.30
332.31	1646.57
332.52	1701.86
332.74	1808.36
332.95	1681.38
333.16	1736.68
333.37	1757.16
333.58	1642.47
333.80	1734.63
334.01	1632.23
334.22	1722.34
334.43	1718.25
334.64	1732.58
334.86	1609.70
335.07	1658.85
335.28	1804.26
335.49	1665.00
335.70	1787.88
335.92	1826.79
336.13	1869.80
336.34	1828.84
336.55	1769.44
336.76	1828.84
336.98	1603.56
337.19	1708.01
337.40	1732.58
337.61	1923.04
337.82	1638.38
338.04	1744.87
338.25	1599.46
338.46	1701.86
338.67	1683.43
338.88	1648.61
339.09	1732.58
339.31	1712.10
339.52	1642.47
339.73	1669.09
339.94	1736.68
340.15	1796.07
340.36	1703.91
340.58	1716.20
340.79	1716.20
341.00	1787.88
341.21	1603.56
341.42	1732.58
341.63	1699.81
341.85	1730.53
342.06	1742.82
342.27	1658.85
342.48	1726.44
342.69	1593.32
342.90	1769.44
343.12	1791.97
343.33	1605.61
343.54	1828.84
343.75	1828.84
343.96	1669.09
344.17	1607.66
344.38	1699.81
344.60	1621.99
344.81	1650.66
345.02	1726.44
345.23	1738.73
345.44	1789.92
345.65	1697.77
345.86	1769.44
346.07	1654.76
346.29	1638.38
346.50	1789.92
346.71	1775.59
346.92	1847.27
347.13	1822.69
347.34	1714.15
347.55	1748.97
347.76	1732.58
347.98	1601.51
348.19	1681.38
348.40	1861.60
348.61	1691.62
348.82	1773.54
349.03	1748.97
349.24	1714.15
349.45	1775.59
349.66	1605.61
349.88	1757.16
350.09	1716.20
350.30	1869.80
350.51	1708.01
350.72	1710.05
350.93	1730.53
351.14	1705.96
351.35	1808.36
351.56	1720.29
351.77	1794.02
351.99	1718.25
352.20	1806.31
352.41	1808.36
352.62	1619.94
352.83	1722.34
353.04	1681.38
353.25	1662.95
353.46	1814.50
353.67	1769.44
353.88	1624.04
354.09	1767.40
354.30	1697.77
354.52	1755.11
354.73	1710.05
354.94	1665.00
355.15	1665.00
355.36	1779.68
355.57	1726.44
355.78	1834.98
355.99	1714.15
356.20	1695.72
356.41	1755.11
356.62	1757.16
356.83	1644.52
357.04	1708.01
357.25	1572.84
357.46	1744.87
357.68	1626.09
357.89	1705.96
358.10	1787.88
358.31	1650.66
358.52	1689.57
358.73	1667.05
358.94	1650.66
359.15	1699.81
359.36	1787.88
359.57	1746.92
359.78	1669.09
359.99	1769.44
360.20	1689.57
360.41	1615.85
360.62	1755.11
360.83	1730.53
361.04	1685.48
361.25	1738.73
361.46	1751.01
361.67	1681.38
361.88	1736.68
362.09	1732.58
362.30	1773.54
362.51	1671.14
362.72	1738.73
362.93	1781.73
363.14	1775.59
363.35	1693.67
363.56	1667.05
363.78	1720.29
363.99	1761.25
364.20	1679.33
364.41	1783.78
364.62	1755.11
364.83	1761.25
365.04	1734.63
365.25	1734.63
365.46	1857.51
365.67	1654.76
365.88	1648.61
366.09	1746.92
366.30	1724.39
366.51	1804.26
366.72	1662.95
366.93	1714.15
367.14	1681.38
367.35	1775.59
367.56	1677.29
367.77	1877.99
367.98	1730.53
368.18	1726.44
368.39	1794.02
368.60	1665.00
368.81	1796.07
369.02	1757.16
369.23	1726.44
369.44	1648.61
369.65	1628.14
369.86	1804.26
370.07	1740.77
370.28	1693.67
370.49	1751.01
370.70	1775.59
370.91	1617.90
371.12	1650.66
371.33	1759.21
371.54	1740.77
371.75	1755.11
371.96	1656.81
372.17	1697.77
372.38	1712.10
372.59	1818.60
372.80	1730.53
373.01	1703.91
373.22	1703.91
373.43	1705.96
373.64	1650.66
373.85	1710.05
374.06	1812.45
374.26	1687.53
374.47	1748.97
374.68	1845.22
374.89	1748.97
375.10	1777.64
375.31	1732.58
375.52	1691.62
375.73	1705.96
375.94	1708.01
376.15	1757.16
376.36	1654.76
376.57	1675.24
376.78	1703.91
376.99	1767.40
377.20	1742.82
377.40	1677.29
377.61	1855.46
377.82	1603.56
378.03	1767.40
378.24	1738.73
378.45	1697.77
378.66	1757.16
378.87	1703.91
379.08	1675.24
379.29	1718.25
379.50	1781.73
379.71	1720.29
379.91	1785.83
380.12	1650.66
380.33	1648.61
380.54	1722.34
380.75	1724.39
380.96	1789.92
381.17	1724.39
381.38	1816.55
381.59	1771.49
381.80	1650.66
382.00	1841.12
382.21	1779.68
382.42	1740.77
382.63	1855.46
382.84	1791.97
383.05	1705.96
383.26	1804.26
383.47	1834.98
383.68	1837.03
383.88	1755.11
384.09	1771.49
384.30	1845.22
384.51	1740.77
384.72	1630.18
384.93	1656.81
385.14	1722.34
385.35	1800.16
385.55	1681.38
385.76	1785.83
385.97	1652.71
386.18	1693.67
386.39	1650.66
386.60	1718.25
386.81	1693.67
387.02	1693.67
387.22	1650.66
387.43	1718.25
387.64	1787.88
387.85	1886.18
388.06	2209.76
388.27	4120.51
388.48	6678.43
388.68	8224.64
388.89	9647.98
389.10	9543.53
389.31	8552.32
389.52	7559.05
389.73	6774.68
389.93	6148.00
390.14	5799.85
390.35	5203.89
390.56	4749.24
390.77	3803.08
390.98	3022.80
391.18	2502.62
391.39	2103.26
391.60	1906.66
391.81	1869.80
392.02	1722.34
392.23	1789.92
392.43	1728.49
392.64	1806.31
392.85	1685.48
393.06	1816.55
393.27	1697.77
393.47	1646.57
393.68	1767.40
393.89	1722.34
394.10	1808.36
394.31	1705.96
394.52	1675.24
394.72	1746.92
394.93	1767.40
395.14	1662.95
395.35	1732.58
395.56	1685.48
395.76	1710.05
395.97	1814.50
396.18	1775.59
396.39	1818.60
396.60	2007.01
396.80	1910.75
397.01	1781.73
397.22	1865.70
397.43	1902.56
397.64	1748.97
397.84	1804.26
398.05	1820.64
398.26	1730.53
398.47	1820.64
398.67	1734.63
398.88	1695.72
399.09	1726.44
399.30	1701.86
399.51	1757.16
399.71	1681.38
399.92	1738.73
400.13	1701.86
400.34	1718.25
400.54	1734.63
400.75	1779.68
400.96	1689.57
401.17	1779.68
401.37	1753.06
401.58	1755.11
401.79	1667.05
402.00	1931.23
402.21	1966.05
402.41	2002.91
402.62	1988.58
402.83	2025.44
403.04	2099.17
403.24	2148.32
403.45	1839.08
403.66	1892.32
403.87	1849.32
404.07	1898.47
404.28	1961.95
404.49	1828.84
404.70	1759.21
404.90	1826.79
405.11	1775.59
405.32	1769.44
405.52	1705.96
405.73	1722.34
405.94	1605.61
406.15	1722.34
406.35	1726.44
406.56	1779.68
406.77	1769.44
406.98	1675.24
407.18	1585.13
407.39	1781.73
407.60	1740.77
407.80	1742.82
408.01	1693.67
408.22	1693.67
408.43	1703.91
408.63	1722.34
408.84	1708.01
409.05	1828.84
409.25	1697.77
409.46	1658.85
409.67	1677.29
409.88	1699.81
410.08	1763.30
410.29	1665.00
410.50	1769.44
410.70	1767.40
410.91	1689.57
411.12	1789.92
411.32	1677.29
411.53	1720.29
411.74	1808.36
411.95	1875.94
412.15	1738.73
412.36	1789.92
412.57	1722.34
412.77	1845.22
412.98	1705.96
413.19	1708.01
413.39	1755.11
413.60	1751.01
413.81	1775.59
414.01	1693.67
414.22	1775.59
414.43	1751.01
414.63	1650.66
414.84	1771.49
415.05	1671.14
415.25	1599.46
415.46	1761.25
415.67	1726.44
415.87	1763.30
416.08	1673.19
416.29	1701.86
416.49	1734.63
416.70	1699.81
416.91	1751.01
417.11	1732.58
417.32	1732.58
417.53	1804.26
417.73	1787.88
417.94	1689.57
418.15	1660.90
418.35	1771.49
418.56	1740.77
418.77	1794.02
418.97	1746.92
419.18	1767.40
419.38	1628.14
419.59	1755.11
419.80	1757.16
420.00	1683.43
420.21	1791.97
420.42	1755.11
420.62	1767.40
420.83	1738.73
421.04	1675.24
421.24	1755.11
421.45	1714.15
421.65	1742.82
421.86	1746.92
422.07	1755.11
422.27	1693.67
422.48	1660.90
422.69	1675.24
422.89	1710.05
423.10	1720.29
423.30	1624.04
423.51	1771.49
423.72	1697.77
423.92	1814.50
424.13	1640.42
424.33	1753.06
424.54	1736.68
424.75	1740.77
424.95	1759.21
425.16	1771.49
425.36	1687.53
425.57	1796.07
425.78	1824.74
425.98	1753.06
426.19	1685.48
426.39	1677.29
426.60	1656.81
426.81	1890.28
427.01	1718.25
427.22	1724.39
427.42	1632.23
427.63	1671.14
427.83	1777.64
428.04	1867.75
428.25	1800.16
428.45	1753.06
428.66	1796.07
428.86	1710.05
429.07	1660.90
429.28	1697.77
429.48	1732.58
429.69	1689.57
429.89	1763.30
430.10	1667.05
430.30	1705.96
430.51	1751.01
430.71	1681.38
430.92	1671.14
431.13	1679.33
431.33	1734.63
431.54	1722.34
431.74	1798.12
431.95	1845.22
432.15	1671.14
432.36	1767.40
432.56	1744.87
432.77	1755.11
432.98	1820.64
433.18	1794.02
433.39	1675.24
433.59	1738.73
433.80	1841.12
434.00	1918.95
434.21	1789.92
434.41	1681.38
434.62	1755.11
434.82	1646.57
435.03	1628.14
435.23	1757.16
435.44	1693.67
435.64	1673.19
435.85	1722.34
436.06	1736.68
436.26	1751.01
436.47	1669.09
436.67	1640.42
436.88	1636.33
437.08	1779.68
437.29	1755.11
437.49	1710.05
437.70	1767.40
437.90	1763.30
438.11	1927.14
438.31	1757.16
438.52	1824.74
438.72	1851.36
438.93	1871.84
439.13	1800.16
439.34	1787.88
439.54	1816.55
439.75	1789.92
439.95	1841.12
440.16	1728.49
440.36	1759.21
440.57	1789.92
440.77	1763.30
440.98	1802.21
441.18	1851.36
441.39	1677.29
441.59	1708.01
441.80	1935.33
442.00	1779.68
442.21	1851.36
442.41	1736.68
442.62	1771.49
442.82	1665.00
443.02	1753.06
443.23	1699.81
443.43	1697.77
443.64	1837.03
443.84	1681.38
444.05	1839.08
444.25	1716.20
444.46	1761.25
444.66	1755.11
444.87	1847.27
445.07	1714.15
445.28	1732.58
445.48	1785.83
445.69	1853.41
445.89	1902.56
446.09	1753.06
446.30	2142.18
446.50	2711.51
446.71	3815.37
446.91	4272.06
447.12	4790.20
447.32	4861.88
447.53	4319.17
447.73	3868.61
447.93	3563.47
448.14	3368.91
448.34	3344.33
448.55	2951.12
448.75	2899.92
448.96	2666.46
449.16	2463.71
449.36	2279.39
449.57	2086.88
449.77	1949.67
449.98	1738.73
450.18	1837.03
450.39	1916.90
450.59	1802.21
450.79	1689.57
451.00	1724.39
451.20	1843.17
451.41	1693.67
451.61	1714.15
451.81	1742.82
452.02	1763.30
452.22	1751.01
452.43	1703.91
452.63	1703.91
452.84	1701.86
453.04	1755.11
453.24	1730.53
453.45	1632.23
453.65	1681.38
453.86	1779.68
454.06	1796.07
454.26	1744.87
454.47	1621.99
454.67	1810.40
454.87	1693.67
455.08	1699.81
455.28	1826.79
455.49	1722.34
455.69	1712.10
455.89	1843.17
456.10	1828.84
456.30	1804.26
456.51	1796.07
456.71	1818.60
456.91	1734.63
457.12	1851.36
457.32	1722.34
457.52	1697.77
457.73	1804.26
457.93	1837.03
458.14	1712.10
458.34	1679.33
458.54	1705.96
458.75	1685.48
458.95	1824.74
459.15	1722.34
459.36	1781.73
459.56	1763.30
459.76	1890.28
459.97	1740.77
460.17	1744.87
460.37	1794.02
460.58	1761.25
460.78	1804.26
460.99	1726.44
461.19	1742.82
461.39	1712.10
461.60	1648.61
461.80	1865.70
462.00	1632.23
462.21	1753.06
462.41	1652.71
462.61	1736.68
462.82	1642.47
463.02	1718.25
463.22	1777.64
463.43	1839.08
463.63	1759.21
463.83	1773.54
464.04	1742.82
464.24	1771.49
464.44	1701.86
464.64	1728.49
464.85	1816.55
465.05	1791.97
465.25	1755.11
465.46	1687.53
465.66	1779.68
465.86	1816.55
466.07	1753.06
466.27	1699.81
466.47	1646.57
466.68	1634.28
466.88	1816.55
467.08	1779.68
467.29	1724.39
467.49	1789.92
467.69	1636.33
467.89	1812.45
468.10	1701.86
468.30	1734.63
468.50	1761.25
468.71	1701.86
468.91	1609.70
469.11	1884.13
469.31	1714.15
469.52	1740.77
469.72	1751.01
469.92	1875.94
470.13	1742.82
470.33	1697.77
470.53	1861.60
470.73	2133.98
470.94	2308.06
471.14	2420.70
471.34	2488.28
471.54	2416.60
471.75	2240.48
471.95	2199.52
472.15	2060.26
472.36	2062.30
472.56	2168.80
472.76	2090.98
472.96	2043.87
473.17	1955.81
473.37	1984.48
473.57	1843.17
473.77	1882.08
473.98	1748.97
474.18	1703.91
474.38	1935.33
474.58	1800.16
474.79	1755.11
474.99	1763.30
475.19	1830.88
475.39	1660.90
475.60	1716.20
475.80	1658.85
476.00	1679.33
476.20	1732.58
476.41	1779.68
476.61	1884.13
476.81	1804.26
477.01	1699.81
477.21	1859.56
477.42	1892.32
477.62	1718.25
477.82	1783.78
478.02	1740.77
478.23	1771.49
478.43	1691.62
478.63	1732.58
478.83	1726.44
479.03	1722.34
479.24	1767.40
479.44	1765.35
479.64	1734.63
479.84	1603.56
480.04	1695.72
480.25	1826.79
480.45	1660.90
480.65	1742.82
480.85	1830.88
481.06	1767.40
481.26	1740.77
481.46	1849.32
481.66	1798.12
481.86	1726.44
482.06	1824.74
482.27	1710.05
482.47	1689.57
482.67	1732.58
482.87	1720.29
483.07	1763.30
483.28	1736.68
483.48	1617.90
483.68	1759.21
483.88	1652.71
484.08	1583.08
484.29	1689.57
484.49	1761.25
484.69	1638.38
484.89	1771.49
485.09	1845.22
485.29	1738.73
485.50	1718.25
485.70	1746.92
485.90	1837.03
486.10	1777.64
486.30	1761.25
486.50	1779.68
486.71	1722.34
486.91	1753.06
487.11	1779.68
487.31	1687.53
487.51	1671.14
487.71	1658.85
487.91	1671.14
488.12	1695.72
488.32	1574.89
488.52	1738.73
488.72	1576.94
488.92	1730.53
489.12	1753.06
489.32	1779.68
489.53	1730.53
489.73	1662.95
489.93	1839.08
490.13	1705.96
490.33	1656.81
490.53	1726.44
490.73	1900.52
490.94	1675.24
491.14	1732.58
491.34	1816.55
491.54	2217.95
491.74	2588.63
491.94	2897.88
492.14	3000.27
492.34	2994.13
492.54	2783.19
492.75	2598.87
492.95	2463.71
493.15	2365.40
493.35	2181.09
493.55	2238.43
493.75	2144.22
493.95	2109.41
494.15	2068.45
494.35	1949.67
494.56	1837.03
494.76	1769.44
494.96	1818.60
495.16	1789.92
495.36	1724.39
495.56	1718.25
495.76	1693.67
495.96	1818.60
496.16	1677.29
496.36	1748.97
496.56	1806.31
496.77	1830.88
496.97	1712.10
497.17	1771.49
497.37	1648.61
497.57	1794.02
497.77	1742.82
497.97	1689.57
498.17	1771.49
498.37	1738.73
498.57	1761.25
498.77	1689.57
498.97	1769.44
499.17	1771.49
499.38	1736.68
499.58	1816.55
499.78	1783.78
499.98	1834.98
500.18	1732.58
500.38	1744.87
500.58	1918.95
500.78	2572.25
500.98	4542.39
501.18	5849.00
501.38	6850.46
501.58	7258.00
501.78	6717.34
501.98	5617.58
502.18	5083.06
502.38	4483.00
502.58	4175.81
502.78	3866.56
502.98	3674.06
503.18	3379.15
503.38	3168.21
503.59	2830.29
503.79	2588.63
503.99	2539.48
504.19	2375.64
504.39	2267.10
504.59	2195.42
504.79	2125.79
504.99	2070.50
505.19	1984.48
505.39	1880.04
505.59	2004.96
505.79	1912.80
505.99	1867.75
506.19	1781.73
506.39	1851.36
506.59	1757.16
506.79	1775.59
506.99	1837.03
507.19	1751.01
507.39	1789.92
507.59	1740.77
507.79	1691.62
507.99	1677.29
508.19	1671.14
508.39	1679.33
508.59	1808.36
508.79	1886.18
508.99	1841.12
509.19	1705.96
509.39	1830.88
509.59	1742.82
509.79	1671.14
509.99	1779.68
510.19	1832.93
510.39	1765.35
510.59	1724.39
510.79	1699.81
510.99	1617.90
511.19	1791.97
511.39	1816.55
511.59	1748.97
511.79	1867.75
511.99	1839.08
512.19	1814.50
512.38	1742.82
512.58	1656.81
512.78	1718.25
512.98	1847.27
513.18	1767.40
513.38	1576.94
513.58	1820.64
513.78	1837.03
513.98	1673.19
514.18	1761.25
514.38	1722.34
514.58	1810.40
514.78	1658.85
514.98	1650.66
515.18	1781.73
515.38	1587.18
515.58	1845.22
515.78	1628.14
515.98	1783.78
516.18	1748.97
516.38	1794.02
516.57	1736.68
516.77	1679.33
516.97	1697.77
517.17	1722.34
517.37	1652.71
517.57	1771.49
517.77	1740.77
517.97	1681.38
518.17	1777.64
518.37	1730.53
518.57	1761.25
518.77	1722.34
518.97	1761.25
519.16	1779.68
519.36	1751.01
519.56	1738.73
519.76	1710.05
519.96	1812.45
520.16	1873.89
520.36	1669.09
520.56	1798.12
520.76	1710.05
520.96	1705.96
521.16	1732.58
521.35	1802.21
521.55	1820.64
521.75	1810.40
521.95	1654.76
522.15	1773.54
522.35	1740.77
522.55	1710.05
522.75	1748.97
522.95	1757.16
523.14	1648.61
523.34	1714.15
523.54	1681.38
523.74	1744.87
523.94	1777.64
524.14	1638.38
524.34	1738.73
524.54	1822.69
524.73	1732.58
524.93	1808.36
525.13	1820.64
525.33	1665.00
525.53	1841.12
525.73	1808.36
525.93	1734.63
526.13	1710.05
526.32	1720.29
526.52	1839.08
526.72	1783.78
526.92	1679.33
527.12	1734.63
527.32	1744.87
527.52	1744.87
527.71	1748.97
527.91	1738.73
528.11	1654.76
528.31	1730.53
528.51	1701.86
528.71	1826.79
528.90	1791.97
529.10	1781.73
529.30	1791.97
529.50	1624.04
529.70	1677.29
529.90	1712.10
530.09	1728.49
530.29	1677.29
530.49	1738.73
530.69	1892.32
530.89	1738.73
531.09	1826.79
531.28	1765.35
531.48	1812.45
531.68	1787.88
531.88	1697.77
532.08	1810.40
532.28	1763.30
532.47	1777.64
532.67	1816.55
532.87	1781.73
533.07	1722.34
533.27	1794.02
533.46	1697.77
533.66	1843.17
533.86	1732.58
534.06	1697.77
534.26	1748.97
534.45	1765.35
534.65	1859.56
534.85	1763.30
535.05	1808.36
535.25	1796.07
535.44	1611.75
535.64	1798.12
535.84	1746.92
536.04	1759.21
536.24	1773.54
536.43	1665.00
536.63	1820.64
536.83	1746.92
537.03	1808.36
537.22	1673.19
537.42	1630.18
537.62	1751.01
537.82	1691.62
538.02	1810.40
538.21	1789.92
538.41	1953.76
538.61	1837.03
538.81	1746.92
539.00	1871.84
539.20	1742.82
539.40	1732.58
539.60	1869.80
539.79	1767.40
539.99	1751.01
540.19	1740.77
540.39	1712.10
540.58	1789.92
540.78	1810.40
540.98	1746.92
541.18	1789.92
541.37	1746.92
541.57	1660.90
541.77	1730.53
541.97	1744.87
542.16	1699.81
542.36	1689.57
542.56	1804.26
542.76	1828.84
542.95	1832.93
543.15	1812.45
543.35	1855.46
543.54	1806.31
543.74	1718.25
543.94	1849.32
544.14	1738.73
544.33	1779.68
544.53	1748.97
544.73	1789.92
544.93	1734.63
545.12	1714.15
545.32	1755.11
545.52	1703.91
545.71	1701.86
545.91	1738.73
546.11	1724.39
546.30	1685.48
546.50	1687.53
546.70	1746.92
546.90	1738.73
547.09	1658.85
547.29	1710.05
547.49	1783.78
547.68	1734.63
547.88	1736.68
548.08	1728.49
548.27	2160.61
548.47	1675.24
548.67	1746.92
548.87	1857.51
549.06	1734.63
549.26	1755.11
549.46	1667.05
549.65	1714.15
549.85	1781.73
550.05	1822.69
550.24	1640.42
550.44	1781.73
550.64	1740.77
550.83	1738.73
551.03	1787.88
551.23	1828.84
551.42	1828.84
551.62	1791.97
551.82	1757.16
552.01	1773.54
552.21	1832.93
552.41	1714.15
552.60	1830.88
552.80	1818.60
553.00	1724.39
553.19	1796.07
553.39	1867.75
553.59	1722.34
553.78	1794.02
553.98	1771.49
554.17	1730.53
554.37	1761.25
554.57	1824.74
554.76	1730.53
554.96	1662.95
555.16	1701.86
555.35	1751.01
555.55	1779.68
555.75	1712.10
555.94	1834.98
556.14	1687.53
556.33	1779.68
556.53	1767.40
556.73	1714.15
556.92	1744.87
557.12	1814.50
557.32	1800.16
557.51	1812.45
557.71	1796.07
557.90	1789.92
558.10	1814.50
558.30	1720.29
558.49	1679.33
558.69	1667.05
558.88	1812.45
559.08	1779.68
559.28	1730.53
559.47	1777.64
559.67	1816.55
559.86	1931.23
560.06	1781.73
560.26	1757.16
560.45	1757.16
560.65	1675.24
560.84	1757.16
561.04	1691.62
561.24	1804.26
561.43	1652.71
561.63	1773.54
561.82	1802.21
562.02	1761.25
562.22	1677.29
562.41	1667.05
562.61	1728.49
562.80	1646.57
563.00	1820.64
563.19	1759.21
563.39	1775.59
563.59	1716.20
563.78	1712.10
563.98	1697.77
564.17	1652.71
564.37	1681.38
564.56	1763.30
564.76	1665.00
564.96	1822.69
565.15	1744.87
565.35	1898.47
565.54	1660.90
565.74	1755.11
565.93	1816.55
566.13	1708.01
566.32	1734.63
566.52	1851.36
566.71	1734.63
566.91	1816.55
567.11	1746.92
567.30	1699.81
567.50	1794.02
567.69	1828.84
567.89	1722.34
568.08	1681.38
568.28	1751.01
568.47	1685.48
568.67	1734.63
568.86	1712.10
569.06	1824.74
569.25	1740.77
569.45	1744.87
569.64	1722.34
569.84	1683.43
570.04	1779.68
570.23	1685.48
570.43	1775.59
570.62	1816.55
570.82	1771.49
571.01	1642.47
571.21	1695.72
571.40	1691.62
571.60	1769.44
571.79	1742.82
571.99	1765.35
572.18	1689.57
572.38	1763.30
572.57	1701.86
572.77	1785.83
572.96	1953.76
573.16	1771.49
573.35	1718.25
573.55	1787.88
573.74	1730.53
573.94	1767.40
574.13	1732.58
574.33	1877.99
574.52	1869.80
574.71	1740.77
574.91	1761.25
575.10	1671.14
575.30	1755.11
575.49	1712.10
575.69	1689.57
575.88	1798.12
576.08	1738.73
576.27	1910.75
576.47	1816.55
576.66	1875.94
576.86	1847.27
577.05	1757.16
577.25	1785.83
577.44	1896.42
577.64	1746.92
577.83	1826.79
578.02	1783.78
578.22	1828.84
578.41	1832.93
578.61	1724.39
578.80	1726.44
579.00	1767.40
579.19	1730.53
579.39	1832.93
579.58	1914.85
579.77	1699.81
579.97	1845.22
580.16	1832.93
580.36	1800.16
580.55	1816.55
580.75	1753.06
580.94	1736.68
581.13	1914.85
581.33	1820.64
581.52	1816.55
581.72	1888.23
581.91	1869.80
582.11	1730.53
582.30	1816.55
582.49	1816.55
582.69	1945.57
582.88	1849.32
583.08	1886.18
583.27	1822.69
583.47	1740.77
583.66	1718.25
583.85	1638.38
584.05	1785.83
584.24	1775.59
584.44	1732.58
584.63	1830.88
584.82	1861.60
585.02	1898.47
585.21	1877.99
585.41	1820.64
585.60	1828.84
585.79	1953.76
585.99	1937.38
586.18	1906.66
586.37	2195.42
586.57	3459.02
586.76	10106.73
586.96	24352.40
587.15	34397.68
587.34	40502.68
587.54	42024.32
587.73	36445.65
587.93	26441.32
588.12	21380.79
588.31	17985.26
588.51	16207.62
588.70	15128.35
588.89	14094.12
589.09	12474.18
589.28	10807.13
589.47	9273.20
589.67	7917.45
589.86	6430.62
590.06	5015.48
590.25	3811.27
590.44	3260.37
590.64	2590.68
590.83	2295.77
591.02	2164.70
591.22	1943.52
591.41	1961.95
591.60	1847.27
591.80	1957.86
591.99	1767.40
592.18	1742.82
592.38	1796.07
592.57	1791.97
592.76	1769.44
592.96	1847.27
593.15	1763.30
593.34	1828.84
593.54	1812.45
593.73	1806.31
593.92	1759.21
594.12	1742.82
594.31	1781.73
594.50	1853.41
594.70	1783.78
594.89	1894.37
595.08	1669.09
595.28	1779.68
595.47	1920.99
595.66	1775.59
595.86	1675.24
596.05	1734.63
596.24	1728.49
596.43	1839.08
596.63	1800.16
596.82	1740.77
597.01	1691.62
597.21	1775.59
597.40	1695.72
597.59	1787.88
597.79	1759.21
597.98	1685.48
598.17	1794.02
598.36	1683.43
598.56	1656.81
598.75	1642.47
598.94	1810.40
599.14	1757.16
599.33	1759.21
599.52	1763.30
599.71	1759.21
599.91	1849.32
600.10	1789.92
600.29	1753.06
600.48	1777.64
600.68	1769.44
600.87	1812.45
601.06	1767.40
601.26	1775.59
601.45	1722.34
601.64	1714.15
601.83	1900.52
602.03	1640.42
602.22	1699.81
602.41	1804.26
602.60	1886.18
602.80	1839.08
602.99	1787.88
603.18	1689.57
603.37	1722.34
603.57	1847.27
603.76	1724.39
603.95	1791.97
604.14	1746.92
604.34	1695.72
604.53	1757.16
604.72	1755.11
604.91	1767.40
605.10	1781.73
605.30	1708.01
605.49	1847.27
605.68	1859.56
605.87	1740.77
606.07	1771.49
606.26	1751.01
606.45	1802.21
606.64	1753.06
606.84	1677.29
607.03	1773.54
607.22	1837.03
607.41	1746.92
607.60	1724.39
607.80	1800.16
607.99	1675.24
608.18	1685.48
608.37	1767.40
608.56	1697.77
608.76	1783.78
608.95	1820.64
609.14	1763.30
609.33	1761.25
609.52	1794.02
609.72	1705.96
609.91	1820.64
610.10	1710.05
610.29	1740.77
610.48	1777.64
610.68	1771.49
610.87	1685.48
611.06	1730.53
611.25	1705.96
611.44	1777.64
611.63	1695.72
611.83	1736.68
612.02	1683.43
612.21	1828.84
612.40	1640.42
612.59	1648.61
612.79	1701.86
612.98	1675.24
613.17	1779.68
613.36	1746.92
613.55	1832.93
613.74	1699.81
613.93	1644.52
614.13	1656.81
614.32	1728.49
614.51	1746.92
614.70	1732.58
614.89	1730.53
615.08	1767.40
615.28	2035.68
615.47	1660.90
615.66	1730.53
615.85	1728.49
616.04	1753.06
616.23	1751.01
616.42	1841.12
616.62	1767.40
616.81	1816.55
617.00	1761.25
617.19	1769.44
617.38	1695.72
617.57	1765.35
617.76	1794.02
617.95	1820.64
618.15	1755.11
618.34	1761.25
618.53	1691.62
618.72	1732.58
618.91	1863.65
619.10	1794.02
619.29	1753.06
619.48	1658.85
619.68	1697.77
619.87	1691.62
620.06	1726.44
620.25	1791.97
620.44	1703.91
620.63	1785.83
620.82	1732.58
621.01	1771.49
621.20	1777.64
621.39	1681.38
621.59	1791.97
621.78	1660.90
621.97	1734.63
622.16	1789.92
622.35	1734.63
622.54	1808.36
622.73	1726.44
622.92	1644.52
623.11	1757.16
623.30	1742.82
623.49	1751.01
623.68	1648.61
623.88	1781.73
624.07	1689.57
624.26	1726.44
624.45	1675.24
624.64	1751.01
624.83	1787.88
625.02	1681.38
625.21	1748.97
625.40	1775.59
625.59	1818.60
625.78	1742.82
625.97	1785.83
626.16	1779.68
626.35	1816.55
626.54	1701.86
626.74	1826.79
626.93	1697.77
627.12	1736.68
627.31	1736.68
627.50	1755.11
627.69	1800.16
627.88	1675.24
628.07	1744.87
628.26	1640.42
628.45	1626.09
628.64	1667.05
628.83	1744.87
629.02	1654.76
629.21	1839.08
629.40	1785.83
629.59	1658.85
629.78	1765.35
629.97	1806.31
630.16	1746.92
630.35	1714.15
630.54	1712.10
630.73	1703.91
630.92	1648.61
631.11	1636.33
631.30	1765.35
631.49	1869.80
631.68	1722.34
631.87	1791.97
632.06	1673.19
632.25	2000.87
632.44	1755.11
632.63	1748.97
632.82	1644.52
633.01	1648.61
633.20	1757.16
633.39	1773.54
633.58	1679.33
633.77	1710.05
633.96	1708.01
634.15	1744.87
634.34	1687.53
634.53	1675.24
634.72	1740.77
634.91	1630.18
635.10	1746.92
635.29	1751.01
635.48	1839.08
635.67	1665.00
635.86	1665.00
636.05	1818.60
636.24	1738.73
636.43	1779.68
636.62	1718.25
636.81	1691.62
637.00	1705.96
637.19	1728.49
637.38	1705.96
637.57	1734.63
637.76	1681.38
637.95	1671.14
638.14	1654.76
638.33	1755.11
638.52	1714.15
638.71	1703.91
638.89	1662.95
639.08	1875.94
639.27	1771.49
639.46	1730.53
639.65	1900.52
639.84	1798.12
640.03	1828.84
640.22	1646.57
640.41	1738.73
640.60	1669.09
640.79	1720.29
640.98	1708.01
641.17	1787.88
641.36	1726.44
641.55	1671.14
641.74	1658.85
641.92	1695.72
642.11	1744.87
642.30	1744.87
642.49	1728.49
642.68	1787.88
642.87	1734.63
643.06	1775.59
643.25	1773.54
643.44	1699.81
643.63	1714.15
643.82	1712.10
644.00	1667.05
644.19	1718.25
644.38	1703.91
644.57	1738.73
644.76	1728.49
644.95	1687.53
645.14	1728.49
645.33	1755.11
645.52	1730.53
645.71	1617.90
645.89	1710.05
646.08	1755.11
646.27	1662.95
646.46	1832.93
646.65	1658.85
646.84	1781.73
647.03	1626.09
647.22	1757.16
647.40	1771.49
647.59	1705.96
647.78	1644.52
647.97	1718.25
648.16	1703.91
648.35	1773.54
648.54	1744.87
648.73	1734.63
648.91	1808.36
649.10	1783.78
649.29	1757.16
649.48	1779.68
649.67	1777.64
649.86	1710.05
650.05	1632.23
650.23	1730.53
650.42	1716.20
650.61	1730.53
650.80	1662.95
650.99	1802.21
651.18	1781.73
651.36	1814.50
651.55	1722.34
651.74	1730.53
651.93	1724.39
652.12	1699.81
652.31	1728.49
652.49	1714.15
652.68	1654.76
652.87	1779.68
653.06	1800.16
653.25	1765.35
653.44	1697.77
653.62	1765.35
653.81	1759.21
654.00	1734.63
654.19	1746.92
654.38	1820.64
654.56	1714.15
654.75	1675.24
654.94	1775.59
655.13	1701.86
655.32	1728.49
655.51	1738.73
655.69	1834.98
655.88	1771.49
656.07	1630.18
656.26	1767.40
656.45	1628.14
656.63	1685.48
656.82	1818.60
657.01	1816.55
657.20	1710.05
657.38	1791.97
657.57	1794.02
657.76	1628.14
657.95	1677.29
658.14	1665.00
658.32	1742.82
658.51	1695.72
658.70	1742.82
658.89	1693.67
659.08	1730.53
659.26	1812.45
659.45	1726.44
659.64	1740.77
659.83	1658.85
660.01	1910.75
660.20	1697.77
660.39	1773.54
660.58	1673.19
660.76	1796.07
660.95	1681.38
661.14	1759.21
661.33	1710.05
661.51	1648.61
661.70	1744.87
661.89	1726.44
662.08	1777.64
662.26	1689.57
662.45	1703.91
662.64	1861.60
662.83	1744.87
663.01	1648.61
663.20	1716.20
663.39	1869.80
663.58	1734.63
663.76	1757.16
663.95	1830.88
664.14	1773.54
664.32	1675.24
664.51	1730.53
664.70	1640.42
664.89	1759.21
665.07	1669.09
665.26	1767.40
665.45	1636.33
665.64	1777.64
665.82	1777.64
666.01	1744.87
666.20	1738.73
666.38	1767.40
666.57	1892.32
666.76	2320.35
666.95	4515.77
667.13	10663.77
667.32	15255.32
667.51	18026.22
667.69	19085.02
667.88	17786.61
668.07	12353.35
668.25	9525.10
668.44	7991.17
668.63	7384.98
668.81	6887.32
669.00	6195.11
669.19	5722.02
669.38	5062.58
669.56	4485.05
669.75	3919.81
669.94	3383.24
670.12	2928.60
670.31	2625.50
670.50	2246.62
670.68	2068.45
670.87	1877.99
671.06	1896.42
671.24	1855.46
671.43	1884.13
671.62	1724.39
671.80	1724.39
671.99	1791.97
672.18	1816.55
672.36	1765.35
672.55	1708.01
672.74	1767.40
672.92	1734.63
673.11	1759.21
673.29	1624.04
673.48	1777.64
673.67	1699.81
673.85	1798.12
674.04	1656.81
674.23	1753.06
674.41	1851.36
674.60	1665.00
674.79	1617.90
674.97	1683.43
675.16	1673.19
675.34	1812.45
675.53	1687.53
675.72	1755.11
675.90	1830.88
676.09	1675.24
676.28	1740.77
676.46	1740.77
676.65	1783.78
676.83	1583.08
677.02	1726.44
677.21	1734.63
677.39	1703.91
677.58	1724.39
677.77	1683.43
677.95	1746.92
678.14	1685.48
678.32	1703.91
678.51	1736.68
678.70	1906.66
678.88	1697.77
679.07	1708.01
679.25	1761.25
679.44	1740.77
679.63	1621.99
679.81	1763.30
680.00	1779.68
680.18	1675.24
680.37	1875.94
680.55	1746.92
680.74	1587.18
680.93	1667.05
681.11	1697.77
681.30	1697.77
681.48	1681.38
681.67	1660.90
681.85	1779.68
682.04	1642.47
682.23	1800.16
682.41	1708.01
682.60	1642.47
682.78	1748.97
682.97	1585.13
683.15	1712.10
683.34	1779.68
683.53	1777.64
683.71	1671.14
683.90	1785.83
684.08	1861.60
684.27	1656.81
684.45	1636.33
684.64	1794.02
684.82	1724.39
685.01	1755.11
685.19	1714.15
685.38	1699.81
685.57	1669.09
685.75	1669.09
685.94	1736.68
686.12	1697.77
686.31	1755.11
686.49	1808.36
686.68	1630.18
686.86	1718.25
687.05	1687.53
687.23	1794.02
687.42	1748.97
687.60	1628.14
687.79	1800.16
687.97	1783.78
688.16	1779.68
688.34	1775.59
688.53	1642.47
688.71	1740.77
688.90	1837.03
689.08	1665.00
689.27	1636.33
689.45	1746.92
689.64	1812.45
689.82	1828.84
690.01	1771.49
690.19	1789.92
690.38	1708.01
690.56	1771.49
690.75	1718.25
690.93	1624.04
691.12	1673.19
691.30	1685.48
691.49	1638.38
691.67	1665.00
691.86	1841.12
692.04	1677.29
692.23	1708.01
692.41	1689.57
692.60	1861.60
692.78	1773.54
692.97	1726.44
693.15	1722.34
693.34	1789.92
693.52	1783.78
693.71	1718.25
693.89	1671.14
694.08	1609.70
694.26	1714.15
694.44	1701.86
694.63	1769.44
694.81	1665.00
695.00	1689.57
695.18	1708.01
695.37	1837.03
695.55	1730.53
695.74	1699.81
695.92	1619.94
696.10	1785.83
696.29	1652.71
696.47	1660.90
696.66	1648.61
696.84	1644.52
697.03	1726.44
697.21	1773.54
697.40	2377.69
697.58	1738.73
697.76	1708.01
697.95	1648.61
698.13	1675.24
698.32	1806.31
698.50	1746.92
698.68	1740.77
698.87	1763.30
699.05	1837.03
699.24	1755.11
699.42	1701.86
699.61	1685.48
699.79	1714.15
699.97	1710.05
700.16	1603.56
700.34	1675.24
700.53	1673.19
700.71	1781.73
700.89	1728.49
701.08	1759.21
701.26	1714.15
701.45	2131.94
701.63	1714.15
701.81	1685.48
702.00	1566.70
702.18	1697.77
702.37	1681.38
702.55	1759.21
702.73	1730.53
702.92	1542.12
703.10	1763.30
703.28	1744.87
703.47	1593.32
703.65	1828.84
703.84	1681.38
704.02	1751.01
704.20	1773.54
704.39	1673.19
704.57	1753.06
704.75	1822.69
704.94	1804.26
705.12	1773.54
705.30	1802.21
705.49	2365.40
705.67	4657.08
705.86	9533.29
706.04	12560.19
706.22	14540.58
706.41	15294.23
706.59	13780.78
706.77	9500.53
706.96	7421.84
707.14	6440.86
707.32	6004.64
707.51	5617.58
707.69	4892.60
707.87	4085.70
708.06	3491.79
708.24	2918.36
708.42	2365.40
708.61	2263.01
708.79	1933.28
708.97	1834.98
709.16	1832.93
709.34	1726.44
709.52	1693.67
709.71	1779.68
709.89	1810.40
710.07	1632.23
710.26	1779.68
710.44	1755.11
710.62	1742.82
710.80	1687.53
710.99	1732.58
711.17	1837.03
711.35	1685.48
711.54	1679.33
711.72	1783.78
711.90	1785.83
712.09	1791.97
712.27	1718.25
712.45	1763.30
712.63	1746.92
712.82	1753.06
713.00	1701.86
713.18	1740.77
713.37	1834.98
713.55	1798.12
713.73	1748.97
713.91	1820.64
714.10	1681.38
714.28	1761.25
714.46	1777.64
714.65	1726.44
714.83	1746.92
715.01	1685.48
715.19	1689.57
715.38	1656.81
715.56	1763.30
715.74	1699.81
715.92	1699.81
716.11	1775.59
716.29	1656.81
716.47	1740.77
716.65	1695.72
716.84	1626.09
717.02	1730.53
717.20	1603.56
717.38	1689.57
717.57	1701.86
717.75	1742.82
717.93	1685.48
718.11	1722.34
718.30	1658.85
718.48	1726.44
718.66	1669.09
718.84	1826.79
719.03	1791.97
719.21	1640.42
719.39	1759.21
719.57	1744.87
719.75	1818.60
719.94	1658.85
720.12	1673.19
720.30	1755.11
720.48	1796.07
720.67	1753.06
720.85	1689.57
721.03	1712.10
721.21	1652.71
721.39	1730.53
721.58	1710.05
721.76	1697.77
721.94	1755.11
722.12	1767.40
722.30	1744.87
722.49	1705.96
722.67	1728.49
722.85	1800.16
723.03	1748.97
723.21	1656.81
723.40	1722.34
723.58	1736.68
723.76	1771.49
723.94	1783.78
724.12	1742.82
724.30	1718.25
724.49	1744.87
724.67	1660.90
724.85	1798.12
725.03	1652.71
725.21	1685.48
725.40	1757.16
725.58	1683.43
725.76	1730.53
725.94	1722.34
726.12	1710.05
726.30	1701.86
726.49	1771.49
726.67	1701.86
726.85	1718.25
727.03	1736.68
727.21	2144.22
727.39	2961.36
727.57	3841.99
727.76	4206.53
727.94	4607.93
728.12	4353.98
728.30	3698.63
728.48	2934.74
728.66	2652.12
728.84	2516.95
729.03	2230.24
729.21	2162.66
729.39	1978.34
729.57	1882.08
729.75	1789.92
729.93	1861.60
730.11	1718.25
730.30	1804.26
730.48	1759.21
730.66	1720.29
730.84	1804.26
731.02	1744.87
731.20	1673.19
731.38	1734.63
731.56	1613.80
731.74	1662.95
731.93	1718.25
732.11	1714.15
732.29	1677.29
732.47	1830.88
732.65	1691.62
732.83	1789.92
733.01	1777.64
733.19	1734.63
733.37	1814.50
733.56	1763.30
733.74	1708.01
733.92	1789.92
734.10	1650.66
734.28	1691.62
734.46	1607.66
734.64	1746.92
734.82	1699.81
735.00	1667.05
735.18	1728.49
735.36	1695.72
735.54	1771.49
735.73	1724.39
735.91	1714.15
736.09	1800.16
736.27	1791.97
736.45	1751.01
736.63	1576.94
736.81	1753.06
736.99	1763.30
737.17	1873.89
737.35	1624.04
737.53	1640.42
737.71	1648.61
737.89	1740.77
738.07	1583.08
738.25	1734.63
738.43	1648.61
738.61	1708.01
738.80	1671.14
738.98	1708.01
739.16	1701.86
739.34	1615.85
739.52	1861.60
739.70	1660.90
739.88	1800.16
740.06	1775.59
740.24	1652.71
740.42	1691.62
740.60	1652.71
740.78	1689.57
740.96	1591.27
741.14	1640.42
741.32	1718.25
741.50	1660.90
741.68	1853.41
741.86	1814.50
742.04	1669.09
742.22	1601.51
742.40	1710.05
742.58	1732.58
742.76	1687.53
742.94	1806.31
743.12	1593.32
743.30	1736.68
743.48	1744.87
743.66	1693.67
743.84	1791.97
744.02	1703.91
744.20	1773.54
744.38	1624.04
744.56	1681.38
744.74	1802.21
744.92	1804.26
745.10	1851.36
745.28	1818.60
745.46	1757.16
745.64	1681.38
745.82	1728.49
746.00	1683.43
746.18	1787.88
746.36	1681.38
746.54	1705.96
746.72	1763.30
746.90	1720.29
747.08	1779.68
747.26	1624.04
747.44	1779.68
747.62	1789.92
747.80	1691.62
747.98	1746.92
748.15	1658.85
748.33	1888.23
748.51	1746.92
748.69	1736.68
748.87	1703.91
749.05	1640.42
749.23	1730.53
749.41	1730.53
749.59	1726.44
749.77	1777.64
749.95	1744.87
750.13	1662.95
750.31	1763.30
750.49	1669.09
750.67	1808.36
750.85	1751.01
751.03	1685.48
751.20	1886.18
751.38	1742.82
751.56	1722.34
751.74	1738.73
751.92	1648.61
752.10	1675.24
752.28	1765.35
752.46	1699.81
752.64	1683.43
752.82	1806.31
753.00	1740.77
753.18	1689.57
753.35	1699.81
753.53	1667.05
753.71	1693.67
753.89	1755.11
754.07	1736.68
754.25	1808.36
754.43	1679.33
754.61	1654.76
754.79	1751.01
754.97	1710.05
755.14	1791.97
755.32	1654.76
755.50	1736.68
755.68	1714.15
755.86	1697.77
756.04	1689.57
756.22	1628.14
756.40	1779.68
756.57	1837.03
756.75	1718.25
756.93	1746.92
757.11	1685.48
757.29	1660.90
757.47	1693.67
757.65	1687.53
757.82	1593.32
758.00	1650.66
758.18	1691.62
758.36	1720.29
758.54	1773.54
758.72	1656.81
758.90	1791.97
759.07	1716.20
759.25	1683.43
759.43	1755.11
759.61	1644.52
759.79	2172.89
759.97	1775.59
760.15	1632.23
760.32	1722.34
760.50	1742.82
760.68	1818.60
760.86	1634.28
761.04	1800.16
761.22	1734.63
761.39	1718.25
761.57	1710.05
761.75	1681.38
761.93	1669.09
762.11	1755.11
762.28	1775.59
762.46	1669.09
762.64	1828.84
762.82	1619.94
763.00	1683.43
763.18	1785.83
763.35	1634.28
763.53	1746.92
763.71	1753.06
763.89	1716.20
764.07	1738.73
764.24	1703.91
764.42	1769.44
764.60	1667.05
764.78	1685.48
764.96	1779.68
765.13	1796.07
765.31	1736.68
765.49	1796.07
765.67	1628.14
765.84	1691.62
766.02	1677.29
766.20	1652.71
766.38	1751.01
766.56	1722.34
766.73	1746.92
766.91	1613.80
767.09	1732.58
767.27	1705.96
767.44	1654.76
767.62	1783.78
767.80	1710.05
767.98	1691.62
768.15	1691.62
768.33	1765.35
768.51	1781.73
768.69	1687.53
768.87	1748.97
769.04	1724.39
769.22	1863.65
769.40	1775.59
769.58	1880.04
769.75	1656.81
769.93	1781.73
770.11	1697.77
770.28	1667.05
770.46	1773.54
770.64	1685.48
770.82	1753.06
770.99	1701.86
771.17	1798.12
771.35	1630.18
771.53	1742.82
771.70	1722.34
771.88	1767.40
772.06	1697.77
772.23	1662.95
772.41	1714.15
772.59	1681.38
772.77	1724.39
772.94	1660.90
773.12	1796.07
773.30	1691.62
773.47	1705.96
773.65	1630.18
773.83	1818.60
774.01	1759.21
774.18	1605.61
774.36	1722.34
774.54	1624.04
774.71	1687.53
774.89	1652.71
775.07	1646.57
775.24	1656.81
775.42	1730.53
775.60	1783.78
775.78	1669.09
775.95	1652.71
776.13	1581.03
776.31	1644.52
776.48	1767.40
776.66	1748.97
776.84	1671.14
777.01	1724.39
777.19	1621.99
777.37	1734.63
777.54	1728.49
777.72	1820.64
777.90	1767.40
778.07	1703.91
778.25	1896.42
778.43	1730.53
778.60	1710.05
778.78	1834.98
778.96	1720.29
779.13	1652.71
779.31	1775.59
779.49	1763.30
779.66	1701.86
779.84	1714.15
780.01	1722.34
780.19	1681.38
780.37	1769.44
780.54	1755.11
780.72	1685.48
780.90	1746.92
781.07	1755.11
781.25	1734.63
781.43	1785.83
781.60	1722.34
781.78	1734.63
781.95	1751.01
782.13	1677.29
782.31	1687.53
782.48	1613.80
782.66	1712.10
782.83	1796.07
783.01	1759.21
783.19	1816.55
783.36	1716.20
783.54	1669.09
783.72	1726.44
783.89	1681.38
784.07	1716.20
784.24	1703.91
784.42	1810.40
784.60	1679.33
784.77	1740.77
784.95	1613.80
785.12	1746.92
785.30	1714.15
785.47	1662.95
785.65	1667.05
785.83	1746.92
786.00	1693.67
786.18	1847.27
786.35	1699.81
786.53	1683.43
786.71	1810.40
786.88	1781.73
787.06	1724.39
787.23	1677.29
787.41	1720.29
787.58	1689.57
787.76	1714.15
787.94	1677.29
788.11	1740.77
788.29	1599.46
788.46	1712.10
788.64	1640.42
788.81	1751.01
788.99	1681.38
789.16	1660.90
789.34	1730.53
789.52	1781.73
789.69	1648.61
789.87	1667.05
790.04	1671.14
790.22	1724.39
790.39	1800.16
790.57	1617.90
790.74	1681.38
790.92	1818.60
791.09	1714.15
791.27	1701.86
791.44	1816.55
791.62	1742.82
791.79	1757.16
791.97	1746.92
792.15	1968.10
792.32	1701.86
792.50	1763.30
792.67	1800.16
792.85	1753.06
793.02	1722.34
793.20	1712.10
793.37	1613.80
793.55	1714.15
793.72	1685.48
793.90	1779.68
794.07	1667.05
794.25	1740.77
794.42	1720.29
794.60	1662.95
794.77	1710.05
794.95	1728.49
795.12	1685.48
795.30	1665.00
795.47	1628.14
795.65	1826.79
795.82	1728.49
796.00	1617.90
796.17	1712.10
796.34	1644.52
796.52	1726.44
796.69	1732.58
796.87	1837.03
797.04	1734.63
797.22	1765.35
797.39	1718.25
797.57	1742.82
797.74	1718.25
797.92	1779.68
798.09	1658.85
798.27	1701.86
798.44	1757.16
798.62	1628.14
798.79	1734.63
798.96	1736.68
799.14	1705.96
799.31	1898.47
799.49	1755.11
799.66	1767.40
799.84	1710.05
800.01	1642.47
800.19	1808.36
800.36	1638.38
800.53	1718.25
800.71	1746.92
800.88	1796.07
801.06	1660.90
801.23	1673.19
801.41	1759.21
801.58	1724.39
801.75	1701.86
801.93	1705.96
802.10	1810.40
802.28	1712.10
802.45	1662.95
802.63	1800.16
802.80	1845.22
802.97	1708.01
803.15	1662.95
803.32	1757.16
803.50	1695.72
803.67	1626.09
803.84	1716.20
804.02	1722.34
804.19	1667.05
804.37	1695.72
804.54	1677.29
804.71	1716.20
804.89	1746.92
805.06	1671.14
805.24	1605.61
805.41	1679.33
805.58	1679.33
805.76	1845.22
805.93	1710.05
806.10	1800.16
806.28	1691.62
806.45	1708.01
806.63	1708.01
806.80	1748.97
806.97	1724.39
807.15	1720.29
807.32	1718.25
807.49	1685.48
807.67	1689.57
807.84	1720.29
808.01	1708.01
808.19	1822.69
808.36	1873.89
808.54	1626.09
808.71	1726.44
808.88	1687.53
809.06	1779.68
809.23	1830.88
809.40	1650.66
809.58	1861.60
809.75	1728.49
809.92	1626.09
810.10	1904.61
810.27	1652.71
810.44	1669.09
810.62	1705.96
810.79	1716.20
810.96	1736.68
811.14	1714.15
811.31	1773.54
811.48	1769.44
811.66	1712.10
811.83	1728.49
812.00	1791.97
812.18	1755.11
812.35	1851.36
812.52	1722.34
812.69	1708.01
812.87	1648.61
813.04	1753.06
813.21	1765.35
813.39	1628.14
813.56	1650.66
813.73	1845.22
813.91	1591.27
814.08	1730.53
814.25	1626.09
814.42	1568.74
814.60	1615.85
814.77	1673.19
814.94	1751.01
815.12	1656.81
815.29	1775.59
815.46	1658.85
815.63	1763.30
815.81	1710.05
815.98	1800.16
816.15	1769.44
816.33	1689.57
816.50	1685.48
816.67	1755.11
816.84	1624.04
817.02	1689.57
817.19	1726.44
817.36	1691.62
817.53	1746.92
817.71	1699.81
817.88	1771.49
818.05	1681.38
818.22	1683.43
818.40	1746.92
818.57	1665.00
818.74	1732.58
818.91	1658.85
819.09	1781.73
819.26	1740.77
819.43	1656.81
819.60	1705.96
819.78	1746.92
819.95	1841.12
820.12	1665.00
820.29	1800.16
820.47	1820.64
820.64	1708.01
820.81	1679.33
820.98	1689.57
821.15	1718.25
821.33	1708.01
821.50	1626.09
821.67	1734.63
821.84	1693.67
822.02	1779.68
822.19	1771.49
822.36	1730.53
822.53	1673.19
822.70	1615.85
822.88	1695.72
823.05	1794.02
823.22	1681.38
823.39	1781.73
823.56	1609.70
823.74	1796.07
823.91	1654.76
824.08	1714.15
824.25	1648.61
824.42	1748.97
824.60	1662.95
824.77	1763.30
824.94	1675.24
825.11	1812.45
825.28	1617.90
825.45	1779.68
825.63	1759.21
825.80	1677.29
825.97	1763.30
826.14	1638.38
826.31	1656.81
826.48	1722.34
826.66	1681.38
826.83	1716.20
827.00	1777.64
827.17	1679.33
827.34	1722.34
827.51	1767.40
827.69	1693.67
827.86	1701.86
828.03	1753.06
828.20	1669.09
828.37	1710.05
828.54	1714.15
828.71	1640.42
828.89	1757.16
829.06	1722.34
829.23	1730.53
829.40	1619.94
829.57	1718.25
829.74	1751.01
829.91	1673.19
830.09	1697.77
830.26	1677.29
830.43	1873.89
830.60	1683.43
830.77	1787.88
830.94	1794.02
831.11	1734.63
831.28	1726.44
831.46	1791.97
831.63	1652.71
831.80	1808.36
831.97	1640.42
832.14	1603.56
832.31	1787.88
832.48	1705.96
832.65	1785.83
832.82	1718.25
832.99	1732.58
833.17	1695.72
833.34	1826.79
833.51	1705.96
833.68	1617.90
833.85	1775.59
834.02	1732.58
834.19	1636.33
834.36	1673.19
834.53	1751.01
834.70	1724.39
834.87	1771.49
835.04	1753.06
835.22	1683.43
835.39	1685.48
835.56	1650.66
835.73	1740.77
835.90	1726.44
836.07	1679.33
836.24	1787.88
836.41	1650.66
836.58	1628.14
836.75	1748.97
836.92	1710.05
837.09	1634.28
837.26	1738.73
837.43	1755.11
837.60	1720.29
837.77	1671.14
837.94	1800.16
838.12	1839.08
838.29	1679.33
838.46	1605.61
838.63	1662.95
838.80	1800.16
838.97	1751.01
839.14	1738.73
839.31	1693.67
839.48	1787.88
839.65	1679.33
839.82	1751.01
839.99	1751.01
840.16	1652.71
840.33	1722.34
840.50	1726.44
840.67	1730.53
840.84	1708.01
841.01	1773.54
841.18	1693.67
841.35	1703.91
841.52	1722.34
841.69	1816.55
841.86	1763.30
842.03	1732.58
842.20	1718.25
842.37	1628.14
842.54	1708.01
842.71	1660.90
842.88	1658.85
843.05	1724.39
843.22	1703.91
843.39	1785.83
843.56	1640.42
843.73	1759.21
843.90	1734.63
844.07	1755.11
844.24	1757.16
844.41	1806.31
844.58	1732.58
844.75	1673.19
844.92	1781.73
845.09	1751.01
845.26	1642.47
845.43	1736.68
845.60	1671.14
845.77	1806.31
845.94	1681.38
846.10	1763.30
846.27	1621.99
846.44	1734.63
846.61	1681.38
846.78	1716.20
846.95	1757.16
847.12	1640.42
847.29	1714.15
847.46	1642.47
847.63	1724.39
847.80	1640.42
847.97	1724.39
848.14	1863.65
848.31	1718.25
848.48	1640.42
848.65	1710.05
848.82	1648.61
848.98	1822.69
849.15	1753.06
849.32	1785.83
849.49	1759.21
849.66	1699.81
849.83	1746.92
850.00	1646.57
850.17	1712.10
850.34	1734.63
850.51	1636.33
850.68	1665.00
850.85	1812.45
851.01	1738.73
851.18	1734.63
851.35	1777.64
851.52	1675.24
851.69	1828.84
851.86	1652.71
852.03	1712.10
852.20	1765.35
852.37	1787.88
852.53	1621.99
852.70	1693.67
852.87	1761.25
853.04	1705.96
853.21	1662.95
853.38	1714.15
853.55	1798.12
853.72	1738.73
853.89	1708.01
854.05	1603.56
854.22	1736.68
854.39	1671.14
854.56	1708.01
854.73	1730.53
854.90	1634.28
855.07	1673.19
855.23	1693.67
855.40	1730.53
855.57	1701.86
855.74	1587.18
855.91	1871.84
856.08	1701.86
856.25	1656.81
856.41	1697.77
856.58	1644.52
856.75	1697.77
856.92	1597.42
857.09	1736.68
857.26	1730.53
857.42	1691.62
857.59	1746.92
857.76	1708.01
857.93	1734.63
858.10	1728.49
858.27	1675.24
858.43	1677.29
858.60	1644.52
858.77	1595.37
858.94	1583.08
859.11	1751.01
859.27	1621.99
859.44	1687.53
859.61	1892.32
859.78	1716.20
859.95	1681.38
860.12	1691.62
860.28	1808.36
860.45	1834.98
860.62	1701.86
860.79	1716.20
860.95	1683.43
861.12	1648.61
861.29	1687.53
861.46	1695.72
861.63	1695.72
861.79	1734.63
861.96	1697.77
862.13	1710.05
862.30	1755.11
862.47	1638.38
862.63	1648.61
862.80	1789.92
862.97	1798.12
863.14	1800.16
863.30	1716.20
863.47	1669.09
863.64	1800.16
863.81	1699.81
863.97	1665.00
864.14	1722.34
864.31	1728.49
864.48	1732.58
864.65	1751.01
864.81	1734.63
864.98	1732.58
865.15	1800.16
865.32	1767.40
865.48	1777.64
865.65	1794.02
865.82	1685.48
865.98	1759.21
866.15	1796.07
866.32	1630.18
866.49	1675.24
866.65	1761.25
866.82	1673.19
866.99	1734.63
867.16	1589.22
867.32	1720.29
867.49	1687.53
867.66	1708.01
867.83	1722.34
867.99	1679.33
868.16	1673.19
868.33	1660.90
868.49	1693.67
868.66	1624.04
868.83	1716.20
868.99	1671.14
869.16	1757.16
869.33	1695.72
869.50	1730.53
869.66	1679.33
869.83	1779.68
870.00	1570.79
870.16	1656.81
870.33	1769.44
870.50	1767.40
870.66	1570.79
870.83	1857.51
871.00	1648.61
871.17	1763.30
871.33	1783.78
871.50	1671.14
871.67	1685.48
871.83	1685.48
872.00	1787.88
872.17	1705.96
872.33	1888.23
872.50	1796.07
872.67	1705.96
872.83	1708.01
873.00	1816.55
873.17	1746.92
873.33	1789.92
873.50	1763.30
873.67	1669.09
873.83	1710.05
874.00	1740.77
874.16	1751.01
874.33	1763.30
874.50	1615.85
874.66	1757.16
874.83	1712.10
875.00	1837.03
875.16	1808.36
875.33	1708.01
875.50	1599.46
875.66	1648.61
875.83	1800.16
875.99	1701.86
876.16	1705.96
876.33	1640.42
876.49	1679.33
876.66	1728.49
876.83	1699.81
876.99	1562.60
877.16	1738.73
877.32	1681.38
877.49	1710.05
877.66	1697.77
877.82	1820.64
877.99	1720.29
878.15	1755.11
878.32	1708.01
878.49	1728.49
878.65	1636.33
878.82	1785.83
878.98	1703.91
879.15	1751.01
879.32	1724.39
879.48	1751.01
879.65	1705.96
879.81	1656.81
879.98	1695.72
880.15	1734.63
880.31	1714.15
880.48	1634.28
880.64	1824.74
880.81	1785.83
880.97	1708.01
881.14	1869.80
881.31	1718.25
881.47	1785.83
881.64	1675.24
881.80	1701.86
881.97	1738.73
882.13	1812.45
882.30	1708.01
882.47	1642.47
882.63	1634.28
882.80	1687.53
882.96	1662.95
883.13	1728.49
883.29	1677.29
883.46	1705.96
883.62	1839.08
883.79	1746.92
883.95	1732.58
884.12	1697.77
884.29	1691.62
884.45	1738.73
884.62	1828.84
884.78	1632.23
884.95	1798.12
885.11	1636.33
885.28	1787.88
885.44	1685.48
885.61	1675.24
885.77	1744.87
885.94	1705.96
886.10	1665.00
886.27	1773.54
886.43	1783.78
886.60	1738.73
886.76	1673.19
886.93	1701.86
887.09	1755.11
887.26	1697.77
887.42	1656.81
887.59	1687.53
887.75	1857.51
887.92	1769.44
888.08	1779.68
888.25	1810.40
888.41	1753.06
888.58	1753.06
888.74	1667.05
888.91	1652.71
>>>>>End Processed Spectral Data<<<<<
