SpectraSuite Data File
++++++++++++++++++++++++++++++++++++
Date: Mon Jun 06 16:05:17 CEST 2016
User: root
Dark Spectrum Present: No
Reference Spectrum Present: No
Number of Sampled Component Spectra: 1
Spectrometers: USB4C02835
Integration Time (usec): 100000 (USB4C02835)
Spectra Averaged: 1 (USB4C02835)
Boxcar Smoothing: 0 (USB4C02835)
Correct for Electrical Dark: No (USB4C02835)
Strobe/Lamp Enabled: No (USB4C02835)
Correct for Detector Non-linearity: No (USB4C02835)
Correct for Stray Light: No (USB4C02835)
Number of Pixels in Processed Spectrum: 3648
>>>>>Begin Processed Spectral Data<<<<<
177.47	1476.59
177.69	1476.59
177.91	1476.59
178.13	1443.82
178.36	1445.87
178.58	1646.57
178.80	1740.77
179.02	1675.24
179.24	1738.73
179.46	1722.34
179.68	1732.58
179.90	1654.76
180.13	1775.59
180.35	1759.21
180.57	1708.01
180.79	1787.88
181.01	1681.38
181.23	1763.30
181.45	1783.78
181.67	1689.57
181.90	1796.07
182.12	1705.96
182.34	1662.95
182.56	1695.72
182.78	1751.01
183.00	1656.81
183.22	1765.35
183.44	1652.71
183.66	1806.31
183.89	1826.79
184.11	1728.49
184.33	1789.92
184.55	1818.60
184.77	1728.49
184.99	1736.68
185.21	1671.14
185.43	1822.69
185.65	1681.38
185.87	1714.15
186.10	1812.45
186.32	1937.38
186.54	1693.67
186.76	1703.91
186.98	1742.82
187.20	1646.57
187.42	1679.33
187.64	1736.68
187.86	1753.06
188.08	1767.40
188.30	1636.33
188.52	1734.63
188.75	1791.97
188.97	1798.12
189.19	1677.29
189.41	1681.38
189.63	1669.09
189.85	1773.54
190.07	1658.85
190.29	1667.05
190.51	1761.25
190.73	1583.08
190.95	1787.88
191.17	1701.86
191.39	1634.28
191.61	1650.66
191.84	1722.34
192.06	1755.11
192.28	1632.23
192.50	1898.47
192.72	1714.15
192.94	1699.81
193.16	1714.15
193.38	1697.77
193.60	1636.33
193.82	1710.05
194.04	1804.26
194.26	1744.87
194.48	1744.87
194.70	1642.47
194.92	1685.48
195.14	1703.91
195.36	1695.72
195.58	1759.21
195.80	1759.21
196.02	1705.96
196.24	1703.91
196.46	1716.20
196.69	1730.53
196.91	1800.16
197.13	1708.01
197.35	1691.62
197.57	1755.11
197.79	1789.92
198.01	1681.38
198.23	1761.25
198.45	1683.43
198.67	1705.96
198.89	1763.30
199.11	1710.05
199.33	1683.43
199.55	1591.27
199.77	1751.01
199.99	1732.58
200.21	1697.77
200.43	1769.44
200.65	1695.72
200.87	1665.00
201.09	1738.73
201.31	1742.82
201.53	1806.31
201.75	1796.07
201.97	1785.83
202.19	1701.86
202.41	1753.06
202.63	1816.55
202.85	1800.16
203.07	1744.87
203.29	1665.00
203.51	1677.29
203.73	1755.11
203.95	1918.95
204.17	1740.77
204.39	1695.72
204.61	1648.61
204.83	1705.96
205.05	1775.59
205.27	1785.83
205.49	1834.98
205.71	1681.38
205.93	1648.61
206.15	1689.57
206.37	1656.81
206.59	1732.58
206.81	1744.87
207.03	1681.38
207.25	1695.72
207.47	1740.77
207.69	1779.68
207.91	1853.41
208.13	1738.73
208.34	1632.23
208.56	1654.76
208.78	1714.15
209.00	1687.53
209.22	1648.61
209.44	1718.25
209.66	1703.91
209.88	1767.40
210.10	1669.09
210.32	1681.38
210.54	1802.21
210.76	1667.05
210.98	1697.77
211.20	1603.56
211.42	1705.96
211.64	1841.12
211.86	1796.07
212.08	1767.40
212.30	1716.20
212.52	1693.67
212.74	1775.59
212.96	1714.15
213.17	1712.10
213.39	1755.11
213.61	1769.44
213.83	1798.12
214.05	1628.14
214.27	1800.16
214.49	1656.81
214.71	1695.72
214.93	1748.97
215.15	1775.59
215.37	1763.30
215.59	1671.14
215.81	1724.39
216.03	1814.50
216.24	1734.63
216.46	1767.40
216.68	1665.00
216.90	1748.97
217.12	1820.64
217.34	1720.29
217.56	1722.34
217.78	1837.03
218.00	1697.77
218.22	1746.92
218.44	1765.35
218.66	1683.43
218.87	1839.08
219.09	1691.62
219.31	1722.34
219.53	1746.92
219.75	1695.72
219.97	1650.66
220.19	1724.39
220.41	1675.24
220.63	1843.17
220.85	1744.87
221.06	1742.82
221.28	1740.77
221.50	1697.77
221.72	1714.15
221.94	1773.54
222.16	1687.53
222.38	1810.40
222.60	1734.63
222.82	1781.73
223.03	1687.53
223.25	1646.57
223.47	1818.60
223.69	1861.60
223.91	1716.20
224.13	1738.73
224.35	1742.82
224.57	1773.54
224.78	1785.83
225.00	1660.90
225.22	1697.77
225.44	1746.92
225.66	1703.91
225.88	1712.10
226.10	1660.90
226.32	1742.82
226.53	1820.64
226.75	1748.97
226.97	1789.92
227.19	1695.72
227.41	1662.95
227.63	1673.19
227.85	1689.57
228.06	1736.68
228.28	1767.40
228.50	1800.16
228.72	1671.14
228.94	1714.15
229.16	1601.51
229.37	1710.05
229.59	1757.16
229.81	1775.59
230.03	1763.30
230.25	1621.99
230.47	1644.52
230.69	1640.42
230.90	1787.88
231.12	1675.24
231.34	1685.48
231.56	1816.55
231.78	1609.70
232.00	1718.25
232.21	1681.38
232.43	1695.72
232.65	1650.66
232.87	1685.48
233.09	1718.25
233.30	1753.06
233.52	1826.79
233.74	1681.38
233.96	1685.48
234.18	1710.05
234.40	1712.10
234.61	1820.64
234.83	1640.42
235.05	1585.13
235.27	1826.79
235.49	1824.74
235.70	1734.63
235.92	1736.68
236.14	1751.01
236.36	1814.50
236.58	1699.81
236.79	1759.21
237.01	1640.42
237.23	1697.77
237.45	1869.80
237.67	1677.29
237.88	1710.05
238.10	1791.97
238.32	1593.32
238.54	1710.05
238.76	1724.39
238.97	1640.42
239.19	1753.06
239.41	1751.01
239.63	1744.87
239.85	1738.73
240.06	1665.00
240.28	1683.43
240.50	1728.49
240.72	1755.11
240.93	1732.58
241.15	1796.07
241.37	1705.96
241.59	1785.83
241.81	1775.59
242.02	1642.47
242.24	1714.15
242.46	1771.49
242.68	1650.66
242.89	1689.57
243.11	1757.16
243.33	1748.97
243.55	1642.47
243.76	1777.64
243.98	1732.58
244.20	1755.11
244.42	1732.58
244.64	1730.53
244.85	1685.48
245.07	1652.71
245.29	1783.78
245.51	1695.72
245.72	1781.73
245.94	1767.40
246.16	1724.39
246.38	1814.50
246.59	1671.14
246.81	1617.90
247.03	1726.44
247.24	1605.61
247.46	1691.62
247.68	1640.42
247.90	1669.09
248.11	1691.62
248.33	1767.40
248.55	1802.21
248.77	1667.05
248.98	1810.40
249.20	1888.23
249.42	1728.49
249.64	1726.44
249.85	1691.62
250.07	1681.38
250.29	1804.26
250.50	1818.60
250.72	1597.42
250.94	1738.73
251.16	1822.69
251.37	1769.44
251.59	1708.01
251.81	1705.96
252.02	1814.50
252.24	1671.14
252.46	1847.27
252.68	1665.00
252.89	1742.82
253.11	1640.42
253.33	1837.03
253.54	1816.55
253.76	1669.09
253.98	1656.81
254.20	1697.77
254.41	1640.42
254.63	1722.34
254.85	1650.66
255.06	1634.28
255.28	1724.39
255.50	1679.33
255.71	1677.29
255.93	1662.95
256.15	1724.39
256.36	1726.44
256.58	1730.53
256.80	1699.81
257.02	1716.20
257.23	1708.01
257.45	1691.62
257.67	1705.96
257.88	1738.73
258.10	1755.11
258.32	1773.54
258.53	1675.24
258.75	1773.54
258.97	1675.24
259.18	1710.05
259.40	1738.73
259.62	1761.25
259.83	1738.73
260.05	1777.64
260.27	1968.10
260.48	1781.73
260.70	1710.05
260.92	1703.91
261.13	1660.90
261.35	1746.92
261.57	1734.63
261.78	1667.05
262.00	1640.42
262.22	1765.35
262.43	1632.23
262.65	1624.04
262.86	1716.20
263.08	1853.41
263.30	1708.01
263.51	1665.00
263.73	1617.90
263.95	1785.83
264.16	1703.91
264.38	1720.29
264.60	1689.57
264.81	1630.18
265.03	1734.63
265.25	1822.69
265.46	1697.77
265.68	1808.36
265.89	1845.22
266.11	1648.61
266.33	1742.82
266.54	1798.12
266.76	1722.34
266.98	1740.77
267.19	1734.63
267.41	1802.21
267.62	1652.71
267.84	1648.61
268.06	1722.34
268.27	1722.34
268.49	1796.07
268.70	1771.49
268.92	1763.30
269.14	1640.42
269.35	1648.61
269.57	1673.19
269.79	1781.73
270.00	1726.44
270.22	1777.64
270.43	1648.61
270.65	1599.46
270.87	1695.72
271.08	1753.06
271.30	1718.25
271.51	1619.94
271.73	1687.53
271.95	1746.92
272.16	1734.63
272.38	1701.86
272.59	1787.88
272.81	1726.44
273.02	1718.25
273.24	1740.77
273.46	1718.25
273.67	1687.53
273.89	1619.94
274.10	1748.97
274.32	1802.21
274.54	1738.73
274.75	1734.63
274.97	1687.53
275.18	1785.83
275.40	1716.20
275.61	1712.10
275.83	1734.63
276.05	1615.85
276.26	1724.39
276.48	1748.97
276.69	1574.89
276.91	1716.20
277.12	1826.79
277.34	1771.49
277.55	1828.84
277.77	1710.05
277.99	1677.29
278.20	1591.27
278.42	1660.90
278.63	1650.66
278.85	1589.22
279.06	1546.22
279.28	1699.81
279.49	1779.68
279.71	1748.97
279.93	1765.35
280.14	1658.85
280.36	1658.85
280.57	1806.31
280.79	1718.25
281.00	1783.78
281.22	1669.09
281.43	1849.32
281.65	1603.56
281.86	1640.42
282.08	1695.72
282.29	1773.54
282.51	1568.74
282.73	1691.62
282.94	1605.61
283.16	1708.01
283.37	1748.97
283.59	1724.39
283.80	1632.23
284.02	1683.43
284.23	1665.00
284.45	1720.29
284.66	1685.48
284.88	1640.42
285.09	1746.92
285.31	1746.92
285.52	1759.21
285.74	1644.52
285.95	1847.27
286.17	1716.20
286.38	1779.68
286.60	1642.47
286.81	1714.15
287.03	1658.85
287.24	1695.72
287.46	1773.54
287.67	1746.92
287.89	1814.50
288.10	1708.01
288.32	1662.95
288.53	1789.92
288.75	1644.52
288.96	1798.12
289.18	1730.53
289.39	1701.86
289.61	1740.77
289.82	1851.36
290.04	1839.08
290.25	1658.85
290.47	1679.33
290.68	1675.24
290.90	1757.16
291.11	1640.42
291.33	1728.49
291.54	1646.57
291.76	1630.18
291.97	1748.97
292.18	1697.77
292.40	1681.38
292.61	1712.10
292.83	1849.32
293.04	1804.26
293.26	1775.59
293.47	1673.19
293.69	1576.94
293.90	1763.30
294.12	1798.12
294.33	1730.53
294.55	1755.11
294.76	1787.88
294.97	1724.39
295.19	1826.79
295.40	1626.09
295.62	1685.48
295.83	1716.20
296.05	1640.42
296.26	1787.88
296.48	1712.10
296.69	1767.40
296.90	1751.01
297.12	1761.25
297.33	1822.69
297.55	1697.77
297.76	1718.25
297.98	1800.16
298.19	1712.10
298.41	1691.62
298.62	1687.53
298.83	1806.31
299.05	1718.25
299.26	1636.33
299.48	1673.19
299.69	1736.68
299.90	1669.09
300.12	1648.61
300.33	1814.50
300.55	1720.29
300.76	1796.07
300.98	1722.34
301.19	1804.26
301.40	1753.06
301.62	1734.63
301.83	1738.73
302.05	1697.77
302.26	1693.67
302.47	1763.30
302.69	1658.85
302.90	1683.43
303.12	1593.32
303.33	1830.88
303.54	1812.45
303.76	1636.33
303.97	1736.68
304.19	1839.08
304.40	1695.72
304.61	1753.06
304.83	1779.68
305.04	1767.40
305.26	1726.44
305.47	1646.57
305.68	1662.95
305.90	1624.04
306.11	1777.64
306.33	1673.19
306.54	1624.04
306.75	1662.95
306.97	1646.57
307.18	1642.47
307.39	1693.67
307.61	1753.06
307.82	1665.00
308.04	1839.08
308.25	1712.10
308.46	1705.96
308.68	1746.92
308.89	1765.35
309.10	1765.35
309.32	1761.25
309.53	1691.62
309.74	1681.38
309.96	1755.11
310.17	1814.50
310.39	1667.05
310.60	1681.38
310.81	1753.06
311.03	1669.09
311.24	1679.33
311.45	1701.86
311.67	1789.92
311.88	1728.49
312.09	1693.67
312.31	1570.79
312.52	1673.19
312.73	1718.25
312.95	1685.48
313.16	1685.48
313.37	1734.63
313.59	1759.21
313.80	1726.44
314.01	1828.84
314.23	1724.39
314.44	1648.61
314.65	1640.42
314.87	1636.33
315.08	1726.44
315.29	1646.57
315.51	1710.05
315.72	1687.53
315.93	1853.41
316.15	1802.21
316.36	1673.19
316.57	1683.43
316.79	1767.40
317.00	1654.76
317.21	1820.64
317.43	1634.28
317.64	1652.71
317.85	1724.39
318.07	1667.05
318.28	1779.68
318.49	1798.12
318.70	1945.57
318.92	1802.21
319.13	1753.06
319.34	1828.84
319.56	1820.64
319.77	1785.83
319.98	1832.93
320.20	1816.55
320.41	1773.54
320.62	1736.68
320.83	1722.34
321.05	1824.74
321.26	1865.70
321.47	1714.15
321.69	1847.27
321.90	1634.28
322.11	1677.29
322.32	1726.44
322.54	1820.64
322.75	1687.53
322.96	1882.08
323.18	1646.57
323.39	1652.71
323.60	1607.66
323.81	1783.78
324.03	1673.19
324.24	1777.64
324.45	1714.15
324.66	1769.44
324.88	1767.40
325.09	1783.78
325.30	1710.05
325.52	1759.21
325.73	1759.21
325.94	1677.29
326.15	1560.55
326.37	1660.90
326.58	1794.02
326.79	1804.26
327.00	1646.57
327.22	1769.44
327.43	1685.48
327.64	1677.29
327.85	1767.40
328.07	1781.73
328.28	1783.78
328.49	1652.71
328.70	1722.34
328.92	1673.19
329.13	1689.57
329.34	1712.10
329.55	1767.40
329.76	1779.68
329.98	1673.19
330.19	1816.55
330.40	1728.49
330.61	1736.68
330.83	1732.58
331.04	1636.33
331.25	1755.11
331.46	1716.20
331.68	1640.42
331.89	1751.01
332.10	1730.53
332.31	1599.46
332.52	1734.63
332.74	1767.40
332.95	1587.18
333.16	1685.48
333.37	1773.54
333.58	1697.77
333.80	1650.66
334.01	1656.81
334.22	1736.68
334.43	1712.10
334.64	1665.00
334.86	1578.98
335.07	1665.00
335.28	1832.93
335.49	1679.33
335.70	1783.78
335.92	1804.26
336.13	1871.84
336.34	1779.68
336.55	1718.25
336.76	1710.05
336.98	1619.94
337.19	1683.43
337.40	1806.31
337.61	1851.36
337.82	1681.38
338.04	1742.82
338.25	1662.95
338.46	1677.29
338.67	1718.25
338.88	1685.48
339.09	1646.57
339.31	1697.77
339.52	1687.53
339.73	1669.09
339.94	1736.68
340.15	1744.87
340.36	1632.23
340.58	1730.53
340.79	1687.53
341.00	1677.29
341.21	1609.70
341.42	1839.08
341.63	1744.87
341.85	1705.96
342.06	1677.29
342.27	1638.38
342.48	1716.20
342.69	1652.71
342.90	1699.81
343.12	1755.11
343.33	1728.49
343.54	1714.15
343.75	1777.64
343.96	1671.14
344.17	1640.42
344.38	1714.15
344.60	1646.57
344.81	1640.42
345.02	1683.43
345.23	1830.88
345.44	1787.88
345.65	1777.64
345.86	1763.30
346.07	1679.33
346.29	1679.33
346.50	1683.43
346.71	1732.58
346.92	1787.88
347.13	1806.31
347.34	1681.38
347.55	1818.60
347.76	1785.83
347.98	1578.98
348.19	1679.33
348.40	1845.22
348.61	1705.96
348.82	1783.78
349.03	1736.68
349.24	1675.24
349.45	1832.93
349.66	1628.14
349.88	1675.24
350.09	1662.95
350.30	1767.40
350.51	1746.92
350.72	1642.47
350.93	1705.96
351.14	1667.05
351.35	1748.97
351.56	1751.01
351.77	1746.92
351.99	1755.11
352.20	1820.64
352.41	1802.21
352.62	1650.66
352.83	1724.39
353.04	1763.30
353.25	1705.96
353.46	1769.44
353.67	1720.29
353.88	1542.12
354.09	1746.92
354.30	1726.44
354.52	1746.92
354.73	1624.04
354.94	1720.29
355.15	1779.68
355.36	1796.07
355.57	1779.68
355.78	1748.97
355.99	1662.95
356.20	1673.19
356.41	1796.07
356.62	1818.60
356.83	1744.87
357.04	1802.21
357.25	1619.94
357.46	1658.85
357.68	1656.81
357.89	1640.42
358.10	1771.49
358.31	1689.57
358.52	1722.34
358.73	1689.57
358.94	1693.67
359.15	1632.23
359.36	1771.49
359.57	1800.16
359.78	1763.30
359.99	1826.79
360.20	1636.33
360.41	1708.01
360.62	1716.20
360.83	1667.05
361.04	1716.20
361.25	1742.82
361.46	1765.35
361.67	1748.97
361.88	1708.01
362.09	1742.82
362.30	1697.77
362.51	1730.53
362.72	1665.00
362.93	1716.20
363.14	1800.16
363.35	1757.16
363.56	1650.66
363.78	1798.12
363.99	1775.59
364.20	1701.86
364.41	1738.73
364.62	1822.69
364.83	1699.81
365.04	1677.29
365.25	1742.82
365.46	1863.65
365.67	1665.00
365.88	1581.03
366.09	1701.86
366.30	1724.39
366.51	1724.39
366.72	1634.28
366.93	1742.82
367.14	1726.44
367.35	1734.63
367.56	1681.38
367.77	1796.07
367.98	1630.18
368.18	1738.73
368.39	1773.54
368.60	1615.85
368.81	1742.82
369.02	1763.30
369.23	1718.25
369.44	1652.71
369.65	1699.81
369.86	1656.81
370.07	1734.63
370.28	1650.66
370.49	1742.82
370.70	1736.68
370.91	1687.53
371.12	1617.90
371.33	1755.11
371.54	1697.77
371.75	1851.36
371.96	1568.74
372.17	1662.95
372.38	1724.39
372.59	1787.88
372.80	1626.09
373.01	1691.62
373.22	1689.57
373.43	1718.25
373.64	1650.66
373.85	1767.40
374.06	1785.83
374.26	1722.34
374.47	1722.34
374.68	1859.56
374.89	1736.68
375.10	1660.90
375.31	1847.27
375.52	1730.53
375.73	1708.01
375.94	1667.05
376.15	1783.78
376.36	1673.19
376.57	1662.95
376.78	1611.75
376.99	1751.01
377.20	1767.40
377.40	1720.29
377.61	1845.22
377.82	1652.71
378.03	1794.02
378.24	1763.30
378.45	1791.97
378.66	1761.25
378.87	1632.23
379.08	1581.03
379.29	1640.42
379.50	1689.57
379.71	1746.92
379.91	1732.58
380.12	1701.86
380.33	1751.01
380.54	1742.82
380.75	1800.16
380.96	1699.81
381.17	1773.54
381.38	1812.45
381.59	1771.49
381.80	1748.97
382.00	1818.60
382.21	1824.74
382.42	1855.46
382.63	1794.02
382.84	1789.92
383.05	1794.02
383.26	1763.30
383.47	1759.21
383.68	1742.82
383.88	1748.97
384.09	1783.78
384.30	1751.01
384.51	1761.25
384.72	1701.86
384.93	1665.00
385.14	1748.97
385.35	1697.77
385.55	1660.90
385.76	1806.31
385.97	1720.29
386.18	1671.14
386.39	1660.90
386.60	1748.97
386.81	1757.16
387.02	1683.43
387.22	1699.81
387.43	1761.25
387.64	1853.41
387.85	1902.56
388.06	2095.07
388.27	4358.08
388.48	6584.22
388.68	8193.92
388.89	9621.36
389.10	9549.68
389.31	8626.04
389.52	7575.44
389.73	6754.20
389.93	6180.77
390.14	5826.47
390.35	5134.26
390.56	4442.04
390.77	3717.06
390.98	3028.95
391.18	2541.53
391.39	2070.50
391.60	1869.80
391.81	1828.84
392.02	1806.31
392.23	1871.84
392.43	1791.97
392.64	1781.73
392.85	1691.62
393.06	1859.56
393.27	1665.00
393.47	1722.34
393.68	1804.26
393.89	1675.24
394.10	1714.15
394.31	1753.06
394.52	1650.66
394.72	1722.34
394.93	1794.02
395.14	1654.76
395.35	1744.87
395.56	1689.57
395.76	1781.73
395.97	1771.49
396.18	1812.45
396.39	1918.95
396.60	2082.78
396.80	1908.71
397.01	1791.97
397.22	1796.07
397.43	1933.28
397.64	1726.44
397.84	1828.84
398.05	1820.64
398.26	1757.16
398.47	1757.16
398.67	1765.35
398.88	1738.73
399.09	1757.16
399.30	1689.57
399.51	1757.16
399.71	1730.53
399.92	1677.29
400.13	1751.01
400.34	1685.48
400.54	1826.79
400.75	1826.79
400.96	1742.82
401.17	1787.88
401.37	1763.30
401.58	1646.57
401.79	1708.01
402.00	1896.42
402.21	1992.67
402.41	1892.32
402.62	2037.73
402.83	2043.87
403.04	2002.91
403.24	2154.46
403.45	1816.55
403.66	1918.95
403.87	1875.94
404.07	1929.19
404.28	1912.80
404.49	1894.37
404.70	1843.17
404.90	1742.82
405.11	1767.40
405.32	1720.29
405.52	1769.44
405.73	1634.28
405.94	1730.53
406.15	1775.59
406.35	1779.68
406.56	1771.49
406.77	1746.92
406.98	1710.05
407.18	1662.95
407.39	1802.21
407.60	1716.20
407.80	1857.51
408.01	1712.10
408.22	1708.01
408.43	1779.68
408.63	1818.60
408.84	1800.16
409.05	1714.15
409.25	1689.57
409.46	1763.30
409.67	1578.98
409.88	1705.96
410.08	1675.24
410.29	1738.73
410.50	1693.67
410.70	1777.64
410.91	1669.09
411.12	1689.57
411.32	1738.73
411.53	1705.96
411.74	1800.16
411.95	1736.68
412.15	1714.15
412.36	1886.18
412.57	1746.92
412.77	1810.40
412.98	1759.21
413.19	1656.81
413.39	1746.92
413.60	1802.21
413.81	1806.31
414.01	1699.81
414.22	1789.92
414.43	1722.34
414.63	1757.16
414.84	1814.50
415.05	1726.44
415.25	1714.15
415.46	1701.86
415.67	1691.62
415.87	1714.15
416.08	1705.96
416.29	1656.81
416.49	1744.87
416.70	1683.43
416.91	1687.53
417.11	1662.95
417.32	1718.25
417.53	1765.35
417.73	1763.30
417.94	1834.98
418.15	1705.96
418.35	1794.02
418.56	1689.57
418.77	1820.64
418.97	1732.58
419.18	1689.57
419.38	1650.66
419.59	1710.05
419.80	1882.08
420.00	1697.77
420.21	1669.09
420.42	1787.88
420.62	1708.01
420.83	1640.42
421.04	1718.25
421.24	1736.68
421.45	1771.49
421.65	1730.53
421.86	1718.25
422.07	1771.49
422.27	1736.68
422.48	1742.82
422.69	1646.57
422.89	1767.40
423.10	1687.53
423.30	1697.77
423.51	1705.96
423.72	1761.25
423.92	1751.01
424.13	1603.56
424.33	1734.63
424.54	1855.46
424.75	1656.81
424.95	1812.45
425.16	1791.97
425.36	1677.29
425.57	1771.49
425.78	1767.40
425.98	1798.12
426.19	1646.57
426.39	1744.87
426.60	1720.29
426.81	1806.31
427.01	1712.10
427.22	1681.38
427.42	1566.70
427.63	1646.57
427.83	1787.88
428.04	1888.23
428.25	1814.50
428.45	1763.30
428.66	1736.68
428.86	1679.33
429.07	1755.11
429.28	1708.01
429.48	1722.34
429.69	1599.46
429.89	1726.44
430.10	1669.09
430.30	1708.01
430.51	1857.51
430.71	1644.52
430.92	1769.44
431.13	1687.53
431.33	1771.49
431.54	1751.01
431.74	1814.50
431.95	1884.13
432.15	1665.00
432.36	1714.15
432.56	1783.78
432.77	1818.60
432.98	1863.65
433.18	1728.49
433.39	1714.15
433.59	1730.53
433.80	1894.37
434.00	1861.60
434.21	1693.67
434.41	1679.33
434.62	1867.75
434.82	1628.14
435.03	1705.96
435.23	1822.69
435.44	1656.81
435.64	1712.10
435.85	1746.92
436.06	1783.78
436.26	1751.01
436.47	1636.33
436.67	1667.05
436.88	1687.53
437.08	1736.68
437.29	1837.03
437.49	1718.25
437.70	1763.30
437.90	1755.11
438.11	1914.85
438.31	1869.80
438.52	1898.47
438.72	1894.37
438.93	1880.04
439.13	1830.88
439.34	1865.70
439.54	1742.82
439.75	1773.54
439.95	1771.49
440.16	1716.20
440.36	1685.48
440.57	1781.73
440.77	1787.88
440.98	1699.81
441.18	1824.74
441.39	1724.39
441.59	1665.00
441.80	1857.51
442.00	1779.68
442.21	1802.21
442.41	1705.96
442.62	1816.55
442.82	1683.43
443.02	1746.92
443.23	1740.77
443.43	1724.39
443.64	1810.40
443.84	1716.20
444.05	1822.69
444.25	1738.73
444.46	1701.86
444.66	1728.49
444.87	1863.65
445.07	1681.38
445.28	1722.34
445.48	1794.02
445.69	1755.11
445.89	1931.23
446.09	1839.08
446.30	2050.02
446.50	2586.58
446.71	3874.76
446.91	4347.84
447.12	4751.29
447.32	4695.99
447.53	4216.77
447.73	3864.52
447.93	3454.92
448.14	3334.09
448.34	3225.55
448.55	2815.96
448.75	2815.96
448.96	2678.74
449.16	2394.08
449.36	2285.53
449.57	2105.31
449.77	1898.47
449.98	1740.77
450.18	1845.22
450.39	1834.98
450.59	1822.69
450.79	1679.33
451.00	1746.92
451.20	1787.88
451.41	1759.21
451.61	1763.30
451.81	1773.54
452.02	1718.25
452.22	1730.53
452.43	1787.88
452.63	1658.85
452.84	1771.49
453.04	1722.34
453.24	1677.29
453.45	1681.38
453.65	1730.53
453.86	1779.68
454.06	1738.73
454.26	1722.34
454.47	1736.68
454.67	1804.26
454.87	1771.49
455.08	1837.03
455.28	1812.45
455.49	1669.09
455.69	1726.44
455.89	1853.41
456.10	1832.93
456.30	1732.58
456.51	1832.93
456.71	1761.25
456.91	1849.32
457.12	1802.21
457.32	1732.58
457.52	1716.20
457.73	1742.82
457.93	1775.59
458.14	1734.63
458.34	1656.81
458.54	1732.58
458.75	1759.21
458.95	1734.63
459.15	1722.34
459.36	1806.31
459.56	1880.04
459.76	1849.32
459.97	1718.25
460.17	1763.30
460.37	1853.41
460.58	1746.92
460.78	1806.31
460.99	1685.48
461.19	1787.88
461.39	1708.01
461.60	1755.11
461.80	1697.77
462.00	1734.63
462.21	1748.97
462.41	1677.29
462.61	1656.81
462.82	1679.33
463.02	1779.68
463.22	1724.39
463.43	1775.59
463.63	1783.78
463.83	1751.01
464.04	1691.62
464.24	1726.44
464.44	1632.23
464.64	1714.15
464.85	1816.55
465.05	1779.68
465.25	1732.58
465.46	1726.44
465.66	1769.44
465.86	1781.73
466.07	1710.05
466.27	1695.72
466.47	1613.80
466.68	1607.66
466.88	1824.74
467.08	1794.02
467.29	1804.26
467.49	1763.30
467.69	1761.25
467.89	1748.97
468.10	1748.97
468.30	1738.73
468.50	1841.12
468.71	1751.01
468.91	1710.05
469.11	1826.79
469.31	1785.83
469.52	1687.53
469.72	1806.31
469.92	1845.22
470.13	1744.87
470.33	1728.49
470.53	1771.49
470.73	2162.66
470.94	2230.24
471.14	2357.21
471.34	2566.10
471.54	2457.56
471.75	2297.82
471.95	2138.08
472.15	2025.44
472.36	2070.50
472.56	2107.36
472.76	2152.42
472.96	2029.54
473.17	1976.29
473.37	1953.76
473.57	1751.01
473.77	1820.64
473.98	1800.16
474.18	1689.57
474.38	1839.08
474.58	1712.10
474.79	1640.42
474.99	1767.40
475.19	1814.50
475.39	1642.47
475.60	1652.71
475.80	1699.81
476.00	1681.38
476.20	1691.62
476.41	1628.14
476.61	1742.82
476.81	1857.51
477.01	1712.10
477.21	1824.74
477.42	1828.84
477.62	1644.52
477.82	1763.30
478.02	1738.73
478.23	1781.73
478.43	1740.77
478.63	1724.39
478.83	1716.20
479.03	1691.62
479.24	1828.84
479.44	1818.60
479.64	1685.48
479.84	1673.19
480.04	1681.38
480.25	1736.68
480.45	1720.29
480.65	1699.81
480.85	1787.88
481.06	1679.33
481.26	1687.53
481.46	1734.63
481.66	1703.91
481.86	1705.96
482.06	1765.35
482.27	1695.72
482.47	1742.82
482.67	1753.06
482.87	1728.49
483.07	1796.07
483.28	1714.15
483.48	1644.52
483.68	1634.28
483.88	1665.00
484.08	1636.33
484.29	1652.71
484.49	1705.96
484.69	1720.29
484.89	1806.31
485.09	1779.68
485.29	1755.11
485.50	1693.67
485.70	1701.86
485.90	1898.47
486.10	1757.16
486.30	1759.21
486.50	1732.58
486.71	1738.73
486.91	1832.93
487.11	1834.98
487.31	1634.28
487.51	1779.68
487.71	1718.25
487.91	1665.00
488.12	1695.72
488.32	1544.17
488.52	1767.40
488.72	1644.52
488.92	1746.92
489.12	1834.98
489.32	1724.39
489.53	1767.40
489.73	1681.38
489.93	1890.28
490.13	1757.16
490.33	1689.57
490.53	1726.44
490.73	1800.16
490.94	1609.70
491.14	1757.16
491.34	1812.45
491.54	2133.98
491.74	2641.88
491.94	2971.60
492.14	2971.60
492.34	3004.37
492.54	2848.72
492.75	2541.53
492.95	2541.53
493.15	2349.02
493.35	2293.72
493.55	2230.24
493.75	2148.32
493.95	2162.66
494.15	2025.44
494.35	1937.38
494.56	1906.66
494.76	1742.82
494.96	1785.83
495.16	1730.53
495.36	1689.57
495.56	1683.43
495.76	1771.49
495.96	1730.53
496.16	1699.81
496.36	1822.69
496.56	1757.16
496.77	1839.08
496.97	1759.21
497.17	1726.44
497.37	1669.09
497.57	1781.73
497.77	1726.44
497.97	1611.75
498.17	1804.26
498.37	1677.29
498.57	1814.50
498.77	1761.25
498.97	1765.35
499.17	1804.26
499.38	1775.59
499.58	1798.12
499.78	1837.03
499.98	1851.36
500.18	1755.11
500.38	1763.30
500.58	1931.23
500.78	2602.97
500.98	4485.05
501.18	5816.23
501.38	6750.10
501.58	7153.55
501.78	6559.64
501.98	5582.76
502.18	4917.17
502.38	4368.32
502.58	4118.47
502.78	3792.84
502.98	3643.34
503.18	3385.29
503.38	3233.74
503.59	2836.44
503.79	2594.78
503.99	2582.49
504.19	2279.39
504.39	2240.48
504.59	2205.66
504.79	2058.21
504.99	2144.22
505.19	1945.57
505.39	1959.91
505.59	1886.18
505.79	1927.14
505.99	1882.08
506.19	1832.93
506.39	1953.76
506.59	1738.73
506.79	1748.97
506.99	1845.22
507.19	1742.82
507.39	1794.02
507.59	1652.71
507.79	1628.14
507.99	1761.25
508.19	1771.49
508.39	1640.42
508.59	1773.54
508.79	1824.74
508.99	1841.12
509.19	1683.43
509.39	1810.40
509.59	1718.25
509.79	1742.82
509.99	1736.68
510.19	1800.16
510.39	1830.88
510.59	1777.64
510.79	1703.91
510.99	1679.33
511.19	1728.49
511.39	1804.26
511.59	1804.26
511.79	1824.74
511.99	1751.01
512.19	1886.18
512.38	1732.58
512.58	1669.09
512.78	1757.16
512.98	1834.98
513.18	1828.84
513.38	1687.53
513.58	1777.64
513.78	1687.53
513.98	1675.24
514.18	1761.25
514.38	1814.50
514.58	1759.21
514.78	1712.10
514.98	1689.57
515.18	1673.19
515.38	1656.81
515.58	1845.22
515.78	1712.10
515.98	1767.40
516.18	1763.30
516.38	1730.53
516.57	1621.99
516.77	1660.90
516.97	1791.97
517.17	1746.92
517.37	1697.77
517.57	1728.49
517.77	1785.83
517.97	1744.87
518.17	1800.16
518.37	1665.00
518.57	1679.33
518.77	1718.25
518.97	1736.68
519.16	1775.59
519.36	1814.50
519.56	1687.53
519.76	1720.29
519.96	1783.78
520.16	1865.70
520.36	1640.42
520.56	1855.46
520.76	1730.53
520.96	1718.25
521.16	1748.97
521.35	1746.92
521.55	1814.50
521.75	1746.92
521.95	1634.28
522.15	1714.15
522.35	1705.96
522.55	1710.05
522.75	1810.40
522.95	1738.73
523.14	1695.72
523.34	1740.77
523.54	1699.81
523.74	1808.36
523.94	1728.49
524.14	1675.24
524.34	1746.92
524.54	1837.03
524.73	1712.10
524.93	1732.58
525.13	1744.87
525.33	1683.43
525.53	1843.17
525.73	1826.79
525.93	1746.92
526.13	1691.62
526.32	1677.29
526.52	1740.77
526.72	1742.82
526.92	1759.21
527.12	1767.40
527.32	1671.14
527.52	1718.25
527.71	1804.26
527.91	1732.58
528.11	1734.63
528.31	1769.44
528.51	1683.43
528.71	1796.07
528.90	1814.50
529.10	1871.84
529.30	1810.40
529.50	1673.19
529.70	1728.49
529.90	1679.33
530.09	1763.30
530.29	1675.24
530.49	1712.10
530.69	1832.93
530.89	1791.97
531.09	1726.44
531.28	1708.01
531.48	1744.87
531.68	1761.25
531.88	1837.03
532.08	1775.59
532.28	1738.73
532.47	1834.98
532.67	1703.91
532.87	1804.26
533.07	1624.04
533.27	1781.73
533.46	1732.58
533.66	1724.39
533.86	1753.06
534.06	1732.58
534.26	1798.12
534.45	1683.43
534.65	1812.45
534.85	1775.59
535.05	1718.25
535.25	1763.30
535.44	1642.47
535.64	1738.73
535.84	1746.92
536.04	1714.15
536.24	1722.34
536.43	1763.30
536.63	1744.87
536.83	1712.10
537.03	1675.24
537.22	1615.85
537.42	1662.95
537.62	1748.97
537.82	1720.29
538.02	1820.64
538.21	1794.02
538.41	1888.23
538.61	1775.59
538.81	1742.82
539.00	1837.03
539.20	1671.14
539.40	1681.38
539.60	1761.25
539.79	1845.22
539.99	1730.53
540.19	1705.96
540.39	1779.68
540.58	1806.31
540.78	1826.79
540.98	1783.78
541.18	1726.44
541.37	1828.84
541.57	1757.16
541.77	1751.01
541.97	1652.71
542.16	1716.20
542.36	1738.73
542.56	1798.12
542.76	1828.84
542.95	1761.25
543.15	1769.44
543.35	1787.88
543.54	1689.57
543.74	1755.11
543.94	1800.16
544.14	1740.77
544.33	1757.16
544.53	1802.21
544.73	1765.35
544.93	1691.62
545.12	1665.00
545.32	1740.77
545.52	1648.61
545.71	1781.73
545.91	1708.01
546.11	1695.72
546.30	1648.61
546.50	1744.87
546.70	1804.26
546.90	1740.77
547.09	1673.19
547.29	1746.92
547.49	1718.25
547.68	1710.05
547.88	1736.68
548.08	1779.68
548.27	2193.37
548.47	1738.73
548.67	1626.09
548.87	1742.82
549.06	1759.21
549.26	1755.11
549.46	1738.73
549.65	1710.05
549.85	1861.60
550.05	1738.73
550.24	1638.38
550.44	1771.49
550.64	1779.68
550.83	1730.53
551.03	1892.32
551.23	1748.97
551.42	1779.68
551.62	1703.91
551.82	1753.06
552.01	1773.54
552.21	1755.11
552.41	1751.01
552.60	1794.02
552.80	1767.40
553.00	1771.49
553.19	1689.57
553.39	1761.25
553.59	1742.82
553.78	1767.40
553.98	1705.96
554.17	1714.15
554.37	1740.77
554.57	1841.12
554.76	1642.47
554.96	1685.48
555.16	1724.39
555.35	1783.78
555.55	1738.73
555.75	1716.20
555.94	1791.97
556.14	1701.86
556.33	1863.65
556.53	1759.21
556.73	1734.63
556.92	1720.29
557.12	1890.28
557.32	1816.55
557.51	1859.56
557.71	1814.50
557.90	1843.17
558.10	1849.32
558.30	1677.29
558.49	1718.25
558.69	1652.71
558.88	1751.01
559.08	1810.40
559.28	1742.82
559.47	1689.57
559.67	1789.92
559.86	1902.56
560.06	1734.63
560.26	1787.88
560.45	1736.68
560.65	1791.97
560.84	1753.06
561.04	1755.11
561.24	1765.35
561.43	1636.33
561.63	1820.64
561.82	1820.64
562.02	1867.75
562.22	1669.09
562.41	1673.19
562.61	1744.87
562.80	1652.71
563.00	1902.56
563.19	1853.41
563.39	1857.51
563.59	1730.53
563.78	1679.33
563.98	1687.53
564.17	1769.44
564.37	1591.27
564.56	1740.77
564.76	1695.72
564.96	1845.22
565.15	1777.64
565.35	1972.19
565.54	1703.91
565.74	1820.64
565.93	1853.41
566.13	1662.95
566.32	1751.01
566.52	1808.36
566.71	1810.40
566.91	1730.53
567.11	1742.82
567.30	1777.64
567.50	1775.59
567.69	1771.49
567.89	1697.77
568.08	1669.09
568.28	1767.40
568.47	1699.81
568.67	1802.21
568.86	1685.48
569.06	1693.67
569.25	1722.34
569.45	1683.43
569.64	1699.81
569.84	1738.73
570.04	1744.87
570.23	1699.81
570.43	1665.00
570.62	1773.54
570.82	1777.64
571.01	1771.49
571.21	1673.19
571.40	1685.48
571.60	1861.60
571.79	1775.59
571.99	1779.68
572.18	1755.11
572.38	1810.40
572.57	1726.44
572.77	1830.88
572.96	1914.85
573.16	1787.88
573.35	1738.73
573.55	1767.40
573.74	1884.13
573.94	1732.58
574.13	1769.44
574.33	1808.36
574.52	1826.79
574.71	1773.54
574.91	1751.01
575.10	1681.38
575.30	1730.53
575.49	1652.71
575.69	1736.68
575.88	1708.01
576.08	1697.77
576.27	1779.68
576.47	1730.53
576.66	1853.41
576.86	1873.89
577.05	1667.05
577.25	1861.60
577.44	1849.32
577.64	1802.21
577.83	1781.73
578.02	1718.25
578.22	1804.26
578.41	1791.97
578.61	1765.35
578.80	1675.24
579.00	1783.78
579.19	1832.93
579.39	1773.54
579.58	1880.04
579.77	1773.54
579.97	1828.84
580.16	1822.69
580.36	1914.85
580.55	1767.40
580.75	1798.12
580.94	1728.49
581.13	1832.93
581.33	1830.88
581.52	1755.11
581.72	1859.56
581.91	1777.64
582.11	1761.25
582.30	1806.31
582.49	1742.82
582.69	1880.04
582.88	1832.93
583.08	1787.88
583.27	1724.39
583.47	1830.88
583.66	1703.91
583.85	1697.77
584.05	1771.49
584.24	1751.01
584.44	1796.07
584.63	1800.16
584.82	1783.78
585.02	1785.83
585.21	1910.75
585.41	1798.12
585.60	1777.64
585.79	1925.09
585.99	1941.47
586.18	1888.23
586.37	2197.47
586.57	3428.30
586.76	9662.32
586.96	24161.94
587.15	34340.34
587.34	40099.23
587.54	41770.37
587.73	35984.86
587.93	26177.14
588.12	21237.44
588.31	18073.32
588.51	16125.71
588.70	14823.20
588.89	14032.68
589.09	12396.35
589.28	11038.55
589.47	9277.30
589.67	7905.16
589.86	6313.89
590.06	4988.85
590.25	3889.09
590.44	3053.52
590.64	2631.64
590.83	2277.34
591.02	2183.13
591.22	1964.00
591.41	1927.14
591.60	1845.22
591.80	1955.81
591.99	1751.01
592.18	1834.98
592.38	1839.08
592.57	1734.63
592.76	1783.78
592.96	1781.73
593.15	1724.39
593.34	1849.32
593.54	1755.11
593.73	1755.11
593.92	1759.21
594.12	1820.64
594.31	1789.92
594.50	1890.28
594.70	1859.56
594.89	1822.69
595.08	1736.68
595.28	1841.12
595.47	1925.09
595.66	1757.16
595.86	1736.68
596.05	1673.19
596.24	1648.61
596.43	1882.08
596.63	1898.47
596.82	1751.01
597.01	1796.07
597.21	1886.18
597.40	1816.55
597.59	1787.88
597.79	1763.30
597.98	1763.30
598.17	1724.39
598.36	1726.44
598.56	1765.35
598.75	1693.67
598.94	1820.64
599.14	1767.40
599.33	1736.68
599.52	1824.74
599.71	1765.35
599.91	1677.29
600.10	1796.07
600.29	1751.01
600.48	1853.41
600.68	1734.63
600.87	1738.73
601.06	1767.40
601.26	1771.49
601.45	1789.92
601.64	1736.68
601.83	1775.59
602.03	1773.54
602.22	1628.14
602.41	1751.01
602.60	1904.61
602.80	1746.92
602.99	1800.16
603.18	1679.33
603.37	1779.68
603.57	1771.49
603.76	1834.98
603.95	1791.97
604.14	1640.42
604.34	1736.68
604.53	1757.16
604.72	1783.78
604.91	1814.50
605.10	1841.12
605.30	1660.90
605.49	1802.21
605.68	1828.84
605.87	1751.01
606.07	1677.29
606.26	1814.50
606.45	1804.26
606.64	1744.87
606.84	1660.90
607.03	1765.35
607.22	1763.30
607.41	1804.26
607.60	1775.59
607.80	1806.31
607.99	1695.72
608.18	1724.39
608.37	1746.92
608.56	1697.77
608.76	1802.21
608.95	1849.32
609.14	1783.78
609.33	1722.34
609.52	1751.01
609.72	1740.77
609.91	1804.26
610.10	1716.20
610.29	1851.36
610.48	1771.49
610.68	1679.33
610.87	1785.83
611.06	1755.11
611.25	1779.68
611.44	1853.41
611.63	1716.20
611.83	1736.68
612.02	1687.53
612.21	1882.08
612.40	1646.57
612.59	1705.96
612.79	1716.20
612.98	1736.68
613.17	1832.93
613.36	1748.97
613.55	1837.03
613.74	1757.16
613.93	1665.00
614.13	1804.26
614.32	1755.11
614.51	1757.16
614.70	1658.85
614.89	1658.85
615.08	1810.40
615.28	2068.45
615.47	1677.29
615.66	1705.96
615.85	1726.44
616.04	1916.90
616.23	1826.79
616.42	1742.82
616.62	1808.36
616.81	1826.79
617.00	1753.06
617.19	1845.22
617.38	1675.24
617.57	1736.68
617.76	1775.59
617.95	1779.68
618.15	1705.96
618.34	1832.93
618.53	1740.77
618.72	1761.25
618.91	1777.64
619.10	1828.84
619.29	1753.06
619.48	1685.48
619.68	1742.82
619.87	1652.71
620.06	1621.99
620.25	1742.82
620.44	1738.73
620.63	1712.10
620.82	1710.05
621.01	1714.15
621.20	1738.73
621.39	1742.82
621.59	1751.01
621.78	1683.43
621.97	1675.24
622.16	1824.74
622.35	1761.25
622.54	1853.41
622.73	1841.12
622.92	1630.18
623.11	1810.40
623.30	1820.64
623.49	1751.01
623.68	1746.92
623.88	1837.03
624.07	1734.63
624.26	1708.01
624.45	1685.48
624.64	1714.15
624.83	1761.25
625.02	1724.39
625.21	1748.97
625.40	1716.20
625.59	1738.73
625.78	1738.73
625.97	1816.55
626.16	1808.36
626.35	1701.86
626.54	1755.11
626.74	1841.12
626.93	1636.33
627.12	1687.53
627.31	1767.40
627.50	1787.88
627.69	1751.01
627.88	1667.05
628.07	1757.16
628.26	1673.19
628.45	1671.14
628.64	1720.29
628.83	1767.40
629.02	1665.00
629.21	1798.12
629.40	1730.53
629.59	1728.49
629.78	1753.06
629.97	1740.77
630.16	1724.39
630.35	1753.06
630.54	1656.81
630.73	1718.25
630.92	1730.53
631.11	1740.77
631.30	1755.11
631.49	1771.49
631.68	1794.02
631.87	1787.88
632.06	1665.00
632.25	1867.75
632.44	1773.54
632.63	1720.29
632.82	1722.34
633.01	1730.53
633.20	1642.47
633.39	1687.53
633.58	1634.28
633.77	1775.59
633.96	1779.68
634.15	1814.50
634.34	1839.08
634.53	1751.01
634.72	1742.82
634.91	1583.08
635.10	1847.27
635.29	1755.11
635.48	1718.25
635.67	1683.43
635.86	1685.48
636.05	1779.68
636.24	1697.77
636.43	1791.97
636.62	1753.06
636.81	1636.33
637.00	1787.88
637.19	1765.35
637.38	1712.10
637.57	1658.85
637.76	1769.44
637.95	1783.78
638.14	1642.47
638.33	1691.62
638.52	1767.40
638.71	1591.27
638.89	1675.24
639.08	1843.17
639.27	1740.77
639.46	1726.44
639.65	1718.25
639.84	1685.48
640.03	1744.87
640.22	1708.01
640.41	1748.97
640.60	1703.91
640.79	1759.21
640.98	1628.14
641.17	1789.92
641.36	1720.29
641.55	1755.11
641.74	1677.29
641.92	1658.85
642.11	1617.90
642.30	1708.01
642.49	1720.29
642.68	1675.24
642.87	1720.29
643.06	1753.06
643.25	1800.16
643.44	1699.81
643.63	1705.96
643.82	1775.59
644.00	1656.81
644.19	1716.20
644.38	1656.81
644.57	1751.01
644.76	1728.49
644.95	1777.64
645.14	1677.29
645.33	1689.57
645.52	1759.21
645.71	1644.52
645.89	1763.30
646.08	1761.25
646.27	1730.53
646.46	1779.68
646.65	1595.37
646.84	1710.05
647.03	1767.40
647.22	1867.75
647.40	1734.63
647.59	1701.86
647.78	1697.77
647.97	1628.14
648.16	1732.58
648.35	1789.92
648.54	1757.16
648.73	1722.34
648.91	1806.31
649.10	1722.34
649.29	1687.53
649.48	1726.44
649.67	1734.63
649.86	1705.96
650.05	1646.57
650.23	1720.29
650.42	1646.57
650.61	1736.68
650.80	1742.82
650.99	1877.99
651.18	1820.64
651.36	1783.78
651.55	1748.97
651.74	1837.03
651.93	1773.54
652.12	1701.86
652.31	1712.10
652.49	1675.24
652.68	1728.49
652.87	1830.88
653.06	1724.39
653.25	1787.88
653.44	1779.68
653.62	1820.64
653.81	1658.85
654.00	1751.01
654.19	1759.21
654.38	1880.04
654.56	1708.01
654.75	1705.96
654.94	1861.60
655.13	1740.77
655.32	1785.83
655.51	1703.91
655.69	1710.05
655.88	1751.01
656.07	1697.77
656.26	1783.78
656.45	1712.10
656.63	1746.92
656.82	1742.82
657.01	1802.21
657.20	1742.82
657.38	1857.51
657.57	1683.43
657.76	1675.24
657.95	1775.59
658.14	1642.47
658.32	1789.92
658.51	1599.46
658.70	1808.36
658.89	1781.73
659.08	1665.00
659.26	1746.92
659.45	1621.99
659.64	1775.59
659.83	1656.81
660.01	1947.62
660.20	1777.64
660.39	1828.84
660.58	1621.99
660.76	1738.73
660.95	1679.33
661.14	1742.82
661.33	1638.38
661.51	1693.67
661.70	1753.06
661.89	1753.06
662.08	1695.72
662.26	1757.16
662.45	1681.38
662.64	1812.45
662.83	1736.68
663.01	1630.18
663.20	1687.53
663.39	1759.21
663.58	1695.72
663.76	1755.11
663.95	1730.53
664.14	1642.47
664.32	1726.44
664.51	1685.48
664.70	1718.25
664.89	1712.10
665.07	1705.96
665.26	1820.64
665.45	1701.86
665.64	1847.27
665.82	1755.11
666.01	1783.78
666.20	1724.39
666.38	1877.99
666.57	1802.21
666.76	2201.57
666.95	4503.48
667.13	10362.72
667.32	15367.96
667.51	17854.19
667.69	18898.66
667.88	17678.07
668.07	12308.29
668.25	9478.00
668.44	8044.42
668.63	7243.67
668.81	6948.76
669.00	6231.97
669.19	5674.92
669.38	5144.50
669.56	4573.11
669.75	4001.73
669.94	3477.45
670.12	2854.87
670.31	2506.71
670.50	2195.42
670.68	2041.82
670.87	2000.87
671.06	1794.02
671.24	1873.89
671.43	1834.98
671.62	1791.97
671.80	1748.97
671.99	1822.69
672.18	1777.64
672.36	1757.16
672.55	1761.25
672.74	1738.73
672.92	1681.38
673.11	1679.33
673.29	1628.14
673.48	1730.53
673.67	1722.34
673.85	1841.12
674.04	1677.29
674.23	1755.11
674.41	1765.35
674.60	1716.20
674.79	1665.00
674.97	1636.33
675.16	1775.59
675.34	1783.78
675.53	1660.90
675.72	1691.62
675.90	1800.16
676.09	1691.62
676.28	1679.33
676.46	1654.76
676.65	1738.73
676.83	1683.43
677.02	1646.57
677.21	1730.53
677.39	1708.01
677.58	1662.95
677.77	1652.71
677.95	1720.29
678.14	1683.43
678.32	1726.44
678.51	1683.43
678.70	1832.93
678.88	1667.05
679.07	1726.44
679.25	1742.82
679.44	1640.42
679.63	1730.53
679.81	1646.57
680.00	1804.26
680.18	1722.34
680.37	1744.87
680.55	1753.06
680.74	1669.09
680.93	1650.66
681.11	1779.68
681.30	1683.43
681.48	1722.34
681.67	1732.58
681.85	1718.25
682.04	1626.09
682.23	1714.15
682.41	1755.11
682.60	1771.49
682.78	1728.49
682.97	1794.02
683.15	1796.07
683.34	1757.16
683.53	1798.12
683.71	1697.77
683.90	1837.03
684.08	1787.88
684.27	1677.29
684.45	1736.68
684.64	1830.88
684.82	1611.75
685.01	1740.77
685.19	1714.15
685.38	1697.77
685.57	1783.78
685.75	1679.33
685.94	1718.25
686.12	1634.28
686.31	1650.66
686.49	1839.08
686.68	1605.61
686.86	1687.53
687.05	1710.05
687.23	1847.27
687.42	1658.85
687.60	1597.42
687.79	1814.50
687.97	1767.40
688.16	1773.54
688.34	1796.07
688.53	1611.75
688.71	1730.53
688.90	1785.83
689.08	1738.73
689.27	1630.18
689.45	1804.26
689.64	1771.49
689.82	1779.68
690.01	1771.49
690.19	1699.81
690.38	1656.81
690.56	1800.16
690.75	1691.62
690.93	1757.16
691.12	1673.19
691.30	1681.38
691.49	1675.24
691.67	1755.11
691.86	1884.13
692.04	1681.38
692.23	1689.57
692.41	1763.30
692.60	1845.22
692.78	1765.35
692.97	1767.40
693.15	1708.01
693.34	1734.63
693.52	1796.07
693.71	1683.43
693.89	1681.38
694.08	1685.48
694.26	1708.01
694.44	1773.54
694.63	1781.73
694.81	1726.44
695.00	1681.38
695.18	1798.12
695.37	1871.84
695.55	1705.96
695.74	1679.33
695.92	1679.33
696.10	1765.35
696.29	1607.66
696.47	1712.10
696.66	1652.71
696.84	1675.24
697.03	1712.10
697.21	1834.98
697.40	2334.68
697.58	1773.54
697.76	1628.14
697.95	1648.61
698.13	1656.81
698.32	1755.11
698.50	1708.01
698.68	1775.59
698.87	1730.53
699.05	1816.55
699.24	1738.73
699.42	1697.77
699.61	1644.52
699.79	1732.58
699.97	1724.39
700.16	1609.70
700.34	1681.38
700.53	1738.73
700.71	1855.46
700.89	1763.30
701.08	1671.14
701.26	1730.53
701.45	2125.79
701.63	1703.91
701.81	1708.01
702.00	1675.24
702.18	1722.34
702.37	1675.24
702.55	1718.25
702.73	1708.01
702.92	1615.85
703.10	1802.21
703.28	1708.01
703.47	1642.47
703.65	1753.06
703.84	1775.59
704.02	1679.33
704.20	1843.17
704.39	1744.87
704.57	1640.42
704.75	1853.41
704.94	1787.88
705.12	1783.78
705.30	1857.51
705.49	2258.91
705.67	4429.76
705.86	9498.48
706.04	12484.42
706.22	14382.88
706.41	15429.40
706.59	13356.85
706.77	9439.09
706.96	7260.05
707.14	6545.31
707.32	6035.36
707.51	5597.10
707.69	5015.48
707.87	4126.66
708.06	3563.47
708.24	3020.75
708.42	2516.95
708.61	2207.71
708.79	1933.28
708.97	1902.56
709.16	1814.50
709.34	1726.44
709.52	1755.11
709.71	1679.33
709.89	1775.59
710.07	1656.81
710.26	1665.00
710.44	1763.30
710.62	1720.29
710.80	1744.87
710.99	1818.60
711.17	1806.31
711.35	1728.49
711.54	1687.53
711.72	1830.88
711.90	1689.57
712.09	1701.86
712.27	1673.19
712.45	1812.45
712.63	1738.73
712.82	1679.33
713.00	1722.34
713.18	1767.40
713.37	1712.10
713.55	1728.49
713.73	1783.78
713.91	1734.63
714.10	1744.87
714.28	1748.97
714.46	1759.21
714.65	1718.25
714.83	1765.35
715.01	1693.67
715.19	1650.66
715.38	1708.01
715.56	1755.11
715.74	1640.42
715.92	1667.05
716.11	1865.70
716.29	1589.22
716.47	1779.68
716.65	1669.09
716.84	1609.70
717.02	1769.44
717.20	1644.52
717.38	1669.09
717.57	1722.34
717.75	1765.35
717.93	1765.35
718.11	1742.82
718.30	1630.18
718.48	1732.58
718.66	1824.74
718.84	1744.87
719.03	1767.40
719.21	1710.05
719.39	1873.89
719.57	1726.44
719.75	1767.40
719.94	1671.14
720.12	1726.44
720.30	1689.57
720.48	1730.53
720.67	1699.81
720.85	1624.04
721.03	1652.71
721.21	1669.09
721.39	1761.25
721.58	1789.92
721.76	1667.05
721.94	1775.59
722.12	1773.54
722.30	1853.41
722.49	1667.05
722.67	1773.54
722.85	1714.15
723.03	1716.20
723.21	1712.10
723.40	1781.73
723.58	1732.58
723.76	1769.44
723.94	1740.77
724.12	1740.77
724.30	1787.88
724.49	1763.30
724.67	1640.42
724.85	1880.04
725.03	1652.71
725.21	1820.64
725.40	1701.86
725.58	1681.38
725.76	1701.86
725.94	1802.21
726.12	1652.71
726.30	1673.19
726.49	1726.44
726.67	1736.68
726.85	1787.88
727.03	1800.16
727.21	2263.01
727.39	2969.55
727.57	3823.56
727.76	4175.81
727.94	4427.71
728.12	4444.09
728.30	3729.35
728.48	2906.07
728.66	2707.41
728.84	2609.11
729.03	2404.32
729.21	2127.84
729.39	1947.62
729.57	1853.41
729.75	1828.84
729.93	1894.37
730.11	1652.71
730.30	1722.34
730.48	1712.10
730.66	1761.25
730.84	1806.31
731.02	1734.63
731.20	1742.82
731.38	1697.77
731.56	1652.71
731.74	1652.71
731.93	1699.81
732.11	1689.57
732.29	1677.29
732.47	1816.55
732.65	1753.06
732.83	1765.35
733.01	1714.15
733.19	1638.38
733.37	1689.57
733.56	1726.44
733.74	1705.96
733.92	1804.26
734.10	1624.04
734.28	1708.01
734.46	1607.66
734.64	1683.43
734.82	1665.00
735.00	1615.85
735.18	1732.58
735.36	1714.15
735.54	1734.63
735.73	1763.30
735.91	1722.34
736.09	1779.68
736.27	1613.80
736.45	1708.01
736.63	1660.90
736.81	1722.34
736.99	1681.38
737.17	1888.23
737.35	1656.81
737.53	1734.63
737.71	1714.15
737.89	1783.78
738.07	1767.40
738.25	1697.77
738.43	1724.39
738.61	1697.77
738.80	1681.38
738.98	1687.53
739.16	1646.57
739.34	1714.15
739.52	1744.87
739.70	1681.38
739.88	1757.16
740.06	1757.16
740.24	1646.57
740.42	1900.52
740.60	1710.05
740.78	1652.71
740.96	1607.66
741.14	1660.90
741.32	1681.38
741.50	1619.94
741.68	1863.65
741.86	1783.78
742.04	1652.71
742.22	1683.43
742.40	1763.30
742.58	1730.53
742.76	1720.29
742.94	1834.98
743.12	1581.03
743.30	1759.21
743.48	1714.15
743.66	1568.74
743.84	1740.77
744.02	1710.05
744.20	1636.33
744.38	1667.05
744.56	1746.92
744.74	1787.88
744.92	1775.59
745.10	1765.35
745.28	1767.40
745.46	1787.88
745.64	1755.11
745.82	1683.43
746.00	1765.35
746.18	1712.10
746.36	1634.28
746.54	1732.58
746.72	1767.40
746.90	1607.66
747.08	1828.84
747.26	1722.34
747.44	1744.87
747.62	1757.16
747.80	1755.11
747.98	1789.92
748.15	1703.91
748.33	1798.12
748.51	1675.24
748.69	1697.77
748.87	1626.09
749.05	1652.71
749.23	1767.40
749.41	1748.97
749.59	1708.01
749.77	1787.88
749.95	1726.44
750.13	1703.91
750.31	1734.63
750.49	1624.04
750.67	1771.49
750.85	1849.32
751.03	1787.88
751.20	1767.40
751.38	1689.57
751.56	1716.20
751.74	1705.96
751.92	1753.06
752.10	1630.18
752.28	1718.25
752.46	1644.52
752.64	1701.86
752.82	1689.57
753.00	1767.40
753.18	1751.01
753.35	1724.39
753.53	1751.01
753.71	1628.14
753.89	1730.53
754.07	1740.77
754.25	1763.30
754.43	1728.49
754.61	1755.11
754.79	1701.86
754.97	1689.57
755.14	1800.16
755.32	1632.23
755.50	1730.53
755.68	1789.92
755.86	1679.33
756.04	1667.05
756.22	1644.52
756.40	1812.45
756.57	1722.34
756.75	1697.77
756.93	1781.73
757.11	1722.34
757.29	1699.81
757.47	1740.77
757.65	1681.38
757.82	1589.22
758.00	1660.90
758.18	1667.05
758.36	1695.72
758.54	1857.51
758.72	1626.09
758.90	1828.84
759.07	1808.36
759.25	1619.94
759.43	1789.92
759.61	1763.30
759.79	2220.00
759.97	1751.01
760.15	1642.47
760.32	1703.91
760.50	1734.63
760.68	1837.03
760.86	1671.14
761.04	1738.73
761.22	1712.10
761.39	1724.39
761.57	1744.87
761.75	1740.77
761.93	1738.73
762.11	1720.29
762.28	1726.44
762.46	1632.23
762.64	1785.83
762.82	1642.47
763.00	1732.58
763.18	1804.26
763.35	1662.95
763.53	1746.92
763.71	1767.40
763.89	1753.06
764.07	1710.05
764.24	1730.53
764.42	1812.45
764.60	1691.62
764.78	1734.63
764.96	1724.39
765.13	1775.59
765.31	1742.82
765.49	1763.30
765.67	1619.94
765.84	1744.87
766.02	1662.95
766.20	1630.18
766.38	1775.59
766.56	1773.54
766.73	1726.44
766.91	1732.58
767.09	1685.48
767.27	1732.58
767.44	1689.57
767.62	1802.21
767.80	1724.39
767.98	1667.05
768.15	1769.44
768.33	1767.40
768.51	1791.97
768.69	1771.49
768.87	1769.44
769.04	1673.19
769.22	1816.55
769.40	1751.01
769.58	1918.95
769.75	1748.97
769.93	1734.63
770.11	1695.72
770.28	1677.29
770.46	1748.97
770.64	1693.67
770.82	1624.04
770.99	1705.96
771.17	1724.39
771.35	1644.52
771.53	1679.33
771.70	1650.66
771.88	1767.40
772.06	1677.29
772.23	1742.82
772.41	1769.44
772.59	1738.73
772.77	1691.62
772.94	1642.47
773.12	1714.15
773.30	1685.48
773.47	1800.16
773.65	1621.99
773.83	1837.03
774.01	1714.15
774.18	1644.52
774.36	1648.61
774.54	1685.48
774.71	1730.53
774.89	1675.24
775.07	1679.33
775.24	1675.24
775.42	1640.42
775.60	1853.41
775.78	1644.52
775.95	1619.94
776.13	1576.94
776.31	1613.80
776.48	1763.30
776.66	1806.31
776.84	1654.76
777.01	1648.61
777.19	1673.19
777.37	1728.49
777.54	1755.11
777.72	1841.12
777.90	1718.25
778.07	1624.04
778.25	1853.41
778.43	1769.44
778.60	1673.19
778.78	1785.83
778.96	1785.83
779.13	1683.43
779.31	1734.63
779.49	1691.62
779.66	1726.44
779.84	1746.92
780.01	1708.01
780.19	1591.27
780.37	1734.63
780.54	1767.40
780.72	1667.05
780.90	1669.09
781.07	1755.11
781.25	1677.29
781.43	1810.40
781.60	1716.20
781.78	1742.82
781.95	1755.11
782.13	1677.29
782.31	1683.43
782.48	1595.37
782.66	1705.96
782.83	1822.69
783.01	1755.11
783.19	1755.11
783.36	1705.96
783.54	1701.86
783.72	1710.05
783.89	1794.02
784.07	1734.63
784.24	1693.67
784.42	1806.31
784.60	1724.39
784.77	1722.34
784.95	1660.90
785.12	1738.73
785.30	1640.42
785.47	1687.53
785.65	1689.57
785.83	1726.44
786.00	1689.57
786.18	1771.49
786.35	1619.94
786.53	1703.91
786.71	1726.44
786.88	1796.07
787.06	1738.73
787.23	1660.90
787.41	1667.05
787.58	1728.49
787.76	1705.96
787.94	1708.01
788.11	1646.57
788.29	1683.43
788.46	1628.14
788.64	1714.15
788.81	1693.67
788.99	1669.09
789.16	1767.40
789.34	1699.81
789.52	1656.81
789.69	1732.58
789.87	1597.42
790.04	1658.85
790.22	1697.77
790.39	1859.56
790.57	1744.87
790.74	1667.05
790.92	1781.73
791.09	1662.95
791.27	1773.54
791.44	1826.79
791.62	1728.49
791.79	1720.29
791.97	1728.49
792.15	1902.56
792.32	1746.92
792.50	1677.29
792.67	1865.70
792.85	1724.39
793.02	1693.67
793.20	1714.15
793.37	1624.04
793.55	1714.15
793.72	1656.81
793.90	1779.68
794.07	1632.23
794.25	1675.24
794.42	1736.68
794.60	1695.72
794.77	1748.97
794.95	1767.40
795.12	1744.87
795.30	1720.29
795.47	1601.51
795.65	1908.71
795.82	1703.91
796.00	1640.42
796.17	1656.81
796.34	1636.33
796.52	1736.68
796.69	1832.93
796.87	1726.44
797.04	1775.59
797.22	1712.10
797.39	1669.09
797.57	1726.44
797.74	1681.38
797.92	1734.63
798.09	1730.53
798.27	1775.59
798.44	1689.57
798.62	1714.15
798.79	1705.96
798.96	1712.10
799.14	1720.29
799.31	1757.16
799.49	1634.28
799.66	1652.71
799.84	1675.24
800.01	1644.52
800.19	1660.90
800.36	1662.95
800.53	1638.38
800.71	1705.96
800.88	1822.69
801.06	1644.52
801.23	1650.66
801.41	1685.48
801.58	1722.34
801.75	1693.67
801.93	1755.11
802.10	1738.73
802.28	1669.09
802.45	1771.49
802.63	1761.25
802.80	1748.97
802.97	1644.52
803.15	1763.30
803.32	1714.15
803.50	1621.99
803.67	1658.85
803.84	1658.85
804.02	1738.73
804.19	1667.05
804.37	1593.32
804.54	1734.63
804.71	1703.91
804.89	1695.72
805.06	1607.66
805.24	1611.75
805.41	1677.29
805.58	1751.01
805.76	1820.64
805.93	1726.44
806.10	1783.78
806.28	1751.01
806.45	1832.93
806.63	1738.73
806.80	1787.88
806.97	1742.82
807.15	1806.31
807.32	1671.14
807.49	1744.87
807.67	1607.66
807.84	1708.01
808.01	1671.14
808.19	1787.88
808.36	1832.93
808.54	1755.11
808.71	1689.57
808.88	1759.21
809.06	1796.07
809.23	1820.64
809.40	1671.14
809.58	1744.87
809.75	1716.20
809.92	1687.53
810.10	1820.64
810.27	1671.14
810.44	1744.87
810.62	1767.40
810.79	1767.40
810.96	1705.96
811.14	1677.29
811.31	1781.73
811.48	1796.07
811.66	1734.63
811.83	1697.77
812.00	1730.53
812.18	1828.84
812.35	1886.18
812.52	1624.04
812.69	1648.61
812.87	1748.97
813.04	1609.70
813.21	1708.01
813.39	1640.42
813.56	1662.95
813.73	1722.34
813.91	1587.18
814.08	1755.11
814.25	1708.01
814.42	1621.99
814.60	1734.63
814.77	1699.81
814.94	1740.77
815.12	1712.10
815.29	1839.08
815.46	1677.29
815.63	1716.20
815.81	1656.81
815.98	1687.53
816.15	1691.62
816.33	1802.21
816.50	1738.73
816.67	1638.38
816.84	1810.40
817.02	1646.57
817.19	1691.62
817.36	1718.25
817.53	1787.88
817.71	1738.73
817.88	1820.64
818.05	1687.53
818.22	1759.21
818.40	1837.03
818.57	1775.59
818.74	1726.44
818.91	1738.73
819.09	1763.30
819.26	1759.21
819.43	1679.33
819.60	1658.85
819.78	1757.16
819.95	1779.68
820.12	1607.66
820.29	1714.15
820.47	1718.25
820.64	1683.43
820.81	1578.98
820.98	1613.80
821.15	1689.57
821.33	1761.25
821.50	1632.23
821.67	1736.68
821.84	1650.66
822.02	1787.88
822.19	1783.78
822.36	1685.48
822.53	1744.87
822.70	1644.52
822.88	1671.14
823.05	1861.60
823.22	1761.25
823.39	1755.11
823.56	1718.25
823.74	1816.55
823.91	1681.38
824.08	1675.24
824.25	1652.71
824.42	1822.69
824.60	1652.71
824.77	1703.91
824.94	1744.87
825.11	1755.11
825.28	1638.38
825.45	1708.01
825.63	1654.76
825.80	1673.19
825.97	1759.21
826.14	1771.49
826.31	1624.04
826.48	1816.55
826.66	1617.90
826.83	1662.95
827.00	1740.77
827.17	1656.81
827.34	1701.86
827.51	1671.14
827.69	1642.47
827.86	1644.52
828.03	1667.05
828.20	1746.92
828.37	1708.01
828.54	1726.44
828.71	1638.38
828.89	1810.40
829.06	1646.57
829.23	1785.83
829.40	1648.61
829.57	1685.48
829.74	1685.48
829.91	1669.09
830.09	1640.42
830.26	1677.29
830.43	1728.49
830.60	1769.44
830.77	1728.49
830.94	1767.40
831.11	1734.63
831.28	1656.81
831.46	1810.40
831.63	1685.48
831.80	1791.97
831.97	1675.24
832.14	1710.05
832.31	1767.40
832.48	1748.97
832.65	1742.82
832.82	1703.91
832.99	1837.03
833.17	1708.01
833.34	1816.55
833.51	1720.29
833.68	1609.70
833.85	1822.69
834.02	1685.48
834.19	1726.44
834.36	1722.34
834.53	1753.06
834.70	1763.30
834.87	1755.11
835.04	1642.47
835.22	1667.05
835.39	1732.58
835.56	1619.94
835.73	1656.81
835.90	1789.92
836.07	1624.04
836.24	1771.49
836.41	1671.14
836.58	1615.85
836.75	1714.15
836.92	1732.58
837.09	1646.57
837.26	1775.59
837.43	1787.88
837.60	1822.69
837.77	1681.38
837.94	1773.54
838.12	1767.40
838.29	1748.97
838.46	1654.76
838.63	1662.95
838.80	1740.77
838.97	1841.12
839.14	1705.96
839.31	1726.44
839.48	1728.49
839.65	1697.77
839.82	1814.50
839.99	1654.76
840.16	1705.96
840.33	1683.43
840.50	1705.96
840.67	1546.22
840.84	1613.80
841.01	1712.10
841.18	1675.24
841.35	1689.57
841.52	1714.15
841.69	1863.65
841.86	1724.39
842.03	1673.19
842.20	1775.59
842.37	1683.43
842.54	1669.09
842.71	1660.90
842.88	1607.66
843.05	1753.06
843.22	1714.15
843.39	1779.68
843.56	1667.05
843.73	1775.59
843.90	1695.72
844.07	1691.62
844.24	1763.30
844.41	1748.97
844.58	1755.11
844.75	1759.21
844.92	1751.01
845.09	1722.34
845.26	1695.72
845.43	1798.12
845.60	1695.72
845.77	1722.34
845.94	1720.29
846.10	1765.35
846.27	1656.81
846.44	1632.23
846.61	1632.23
846.78	1763.30
846.95	1828.84
847.12	1703.91
847.29	1732.58
847.46	1703.91
847.63	1722.34
847.80	1628.14
847.97	1705.96
848.14	1853.41
848.31	1669.09
848.48	1611.75
848.65	1660.90
848.82	1689.57
848.98	1816.55
849.15	1687.53
849.32	1779.68
849.49	1884.13
849.66	1705.96
849.83	1773.54
850.00	1712.10
850.17	1748.97
850.34	1699.81
850.51	1677.29
850.68	1689.57
850.85	1804.26
851.01	1699.81
851.18	1658.85
851.35	1642.47
851.52	1728.49
851.69	1806.31
851.86	1671.14
852.03	1673.19
852.20	1734.63
852.37	1705.96
852.53	1572.84
852.70	1673.19
852.87	1636.33
853.04	1816.55
853.21	1685.48
853.38	1783.78
853.55	1794.02
853.72	1832.93
853.89	1740.77
854.05	1746.92
854.22	1730.53
854.39	1677.29
854.56	1759.21
854.73	1861.60
854.90	1683.43
855.07	1734.63
855.23	1654.76
855.40	1630.18
855.57	1689.57
855.74	1621.99
855.91	1779.68
856.08	1685.48
856.25	1621.99
856.41	1705.96
856.58	1648.61
856.75	1718.25
856.92	1673.19
857.09	1742.82
857.26	1624.04
857.42	1697.77
857.59	1775.59
857.76	1697.77
857.93	1705.96
858.10	1730.53
858.27	1734.63
858.43	1724.39
858.60	1683.43
858.77	1638.38
858.94	1652.71
859.11	1779.68
859.27	1671.14
859.44	1722.34
859.61	1806.31
859.78	1718.25
859.95	1679.33
860.12	1679.33
860.28	1777.64
860.45	1849.32
860.62	1667.05
860.79	1716.20
860.95	1658.85
861.12	1642.47
861.29	1642.47
861.46	1730.53
861.63	1693.67
861.79	1720.29
861.96	1654.76
862.13	1710.05
862.30	1748.97
862.47	1681.38
862.63	1677.29
862.80	1753.06
862.97	1748.97
863.14	1677.29
863.30	1660.90
863.47	1753.06
863.64	1722.34
863.81	1699.81
863.97	1779.68
864.14	1753.06
864.31	1748.97
864.48	1708.01
864.65	1632.23
864.81	1810.40
864.98	1738.73
865.15	1679.33
865.32	1818.60
865.48	1726.44
865.65	1753.06
865.82	1753.06
865.98	1695.72
866.15	1697.77
866.32	1671.14
866.49	1701.86
866.65	1812.45
866.82	1701.86
866.99	1646.57
867.16	1724.39
867.32	1685.48
867.49	1669.09
867.66	1763.30
867.83	1669.09
867.99	1572.84
868.16	1718.25
868.33	1556.46
868.49	1740.77
868.66	1662.95
868.83	1783.78
868.99	1703.91
869.16	1673.19
869.33	1732.58
869.50	1689.57
869.66	1703.91
869.83	1714.15
870.00	1603.56
870.16	1746.92
870.33	1730.53
870.50	1746.92
870.66	1736.68
870.83	1839.08
871.00	1656.81
871.17	1726.44
871.33	1736.68
871.50	1695.72
871.67	1755.11
871.83	1626.09
872.00	1722.34
872.17	1722.34
872.33	1771.49
872.50	1771.49
872.67	1771.49
872.83	1714.15
873.00	1720.29
873.17	1775.59
873.33	1810.40
873.50	1736.68
873.67	1708.01
873.83	1693.67
874.00	1742.82
874.16	1808.36
874.33	1675.24
874.50	1681.38
874.66	1751.01
874.83	1701.86
875.00	1759.21
875.16	1824.74
875.33	1779.68
875.50	1636.33
875.66	1728.49
875.83	1714.15
875.99	1757.16
876.16	1660.90
876.33	1681.38
876.49	1665.00
876.66	1765.35
876.83	1673.19
876.99	1617.90
877.16	1685.48
877.32	1613.80
877.49	1748.97
877.66	1763.30
877.82	1822.69
877.99	1783.78
878.15	1718.25
878.32	1755.11
878.49	1773.54
878.65	1724.39
878.82	1771.49
878.98	1665.00
879.15	1812.45
879.32	1796.07
879.48	1662.95
879.65	1685.48
879.81	1738.73
879.98	1650.66
880.15	1681.38
880.31	1746.92
880.48	1632.23
880.64	1746.92
880.81	1699.81
880.97	1802.21
881.14	1730.53
881.31	1660.90
881.47	1757.16
881.64	1777.64
881.80	1619.94
881.97	1667.05
882.13	1732.58
882.30	1636.33
882.47	1660.90
882.63	1695.72
882.80	1742.82
882.96	1671.14
883.13	1685.48
883.29	1624.04
883.46	1673.19
883.62	1841.12
883.79	1685.48
883.95	1824.74
884.12	1705.96
884.29	1812.45
884.45	1730.53
884.62	1800.16
884.78	1685.48
884.95	1783.78
885.11	1667.05
885.28	1718.25
885.44	1714.15
885.61	1722.34
885.77	1785.83
885.94	1710.05
886.10	1736.68
886.27	1736.68
886.43	1806.31
886.60	1816.55
886.76	1656.81
886.93	1595.37
887.09	1697.77
887.26	1662.95
887.42	1771.49
887.59	1802.21
887.75	1824.74
887.92	1763.30
888.08	1798.12
888.25	1757.16
888.41	1705.96
888.58	1720.29
888.74	1658.85
888.91	1658.85
>>>>>End Processed Spectral Data<<<<<
