SpectraSuite Data File
++++++++++++++++++++++++++++++++++++
Date: Mon Jun 06 14:19:57 CEST 2016
User: root
Dark Spectrum Present: No
Reference Spectrum Present: No
Number of Sampled Component Spectra: 1
Spectrometers: USB4C02835
Integration Time (usec): 100000 (USB4C02835)
Spectra Averaged: 1 (USB4C02835)
Boxcar Smoothing: 0 (USB4C02835)
Correct for Electrical Dark: No (USB4C02835)
Strobe/Lamp Enabled: No (USB4C02835)
Correct for Detector Non-linearity: No (USB4C02835)
Correct for Stray Light: No (USB4C02835)
Number of Pixels in Processed Spectrum: 3648
>>>>>Begin Processed Spectral Data<<<<<
177.47	1447.91
177.69	1447.91
177.91	1447.91
178.13	1458.15
178.36	1468.39
178.58	1683.43
178.80	1755.11
179.02	1611.75
179.24	1665.00
179.46	1695.72
179.68	1697.77
179.90	1646.57
180.13	1658.85
180.35	1632.23
180.57	1683.43
180.79	1730.53
181.01	1720.29
181.23	1746.92
181.45	1855.46
181.67	1791.97
181.90	1820.64
182.12	1712.10
182.34	1720.29
182.56	1656.81
182.78	1669.09
183.00	1699.81
183.22	1716.20
183.44	1638.38
183.66	1779.68
183.89	1810.40
184.11	1701.86
184.33	1779.68
184.55	1716.20
184.77	1726.44
184.99	1722.34
185.21	1640.42
185.43	1867.75
185.65	1667.05
185.87	1689.57
186.10	1806.31
186.32	1787.88
186.54	1673.19
186.76	1669.09
186.98	1818.60
187.20	1714.15
187.42	1660.90
187.64	1732.58
187.86	1652.71
188.08	1712.10
188.30	1734.63
188.52	1722.34
188.75	1830.88
188.97	1802.21
189.19	1691.62
189.41	1677.29
189.63	1722.34
189.85	1648.61
190.07	1603.56
190.29	1644.52
190.51	1679.33
190.73	1601.51
190.95	1761.25
191.17	1669.09
191.39	1599.46
191.61	1634.28
191.84	1646.57
192.06	1697.77
192.28	1646.57
192.50	1894.37
192.72	1785.83
192.94	1679.33
193.16	1773.54
193.38	1730.53
193.60	1683.43
193.82	1714.15
194.04	1669.09
194.26	1693.67
194.48	1718.25
194.70	1697.77
194.92	1722.34
195.14	1660.90
195.36	1652.71
195.58	1732.58
195.80	1746.92
196.02	1683.43
196.24	1736.68
196.46	1720.29
196.69	1599.46
196.91	1896.42
197.13	1712.10
197.35	1691.62
197.57	1771.49
197.79	1722.34
198.01	1683.43
198.23	1742.82
198.45	1714.15
198.67	1593.32
198.89	1720.29
199.11	1751.01
199.33	1652.71
199.55	1628.14
199.77	1636.33
199.99	1689.57
200.21	1685.48
200.43	1669.09
200.65	1611.75
200.87	1540.07
201.09	1685.48
201.31	1712.10
201.53	1740.77
201.75	1736.68
201.97	1648.61
202.19	1714.15
202.41	1705.96
202.63	1783.78
202.85	1834.98
203.07	1673.19
203.29	1708.01
203.51	1601.51
203.73	1662.95
203.95	1826.79
204.17	1671.14
204.39	1791.97
204.61	1738.73
204.83	1724.39
205.05	1681.38
205.27	1785.83
205.49	1759.21
205.71	1753.06
205.93	1652.71
206.15	1621.99
206.37	1708.01
206.59	1687.53
206.81	1626.09
207.03	1658.85
207.25	1607.66
207.47	1679.33
207.69	1685.48
207.91	1722.34
208.13	1843.17
208.34	1638.38
208.56	1671.14
208.78	1728.49
209.00	1665.00
209.22	1658.85
209.44	1660.90
209.66	1533.93
209.88	1660.90
210.10	1628.14
210.32	1624.04
210.54	1767.40
210.76	1650.66
210.98	1714.15
211.20	1593.32
211.42	1757.16
211.64	1720.29
211.86	1783.78
212.08	1699.81
212.30	1761.25
212.52	1665.00
212.74	1746.92
212.96	1822.69
213.17	1751.01
213.39	1712.10
213.61	1771.49
213.83	1705.96
214.05	1681.38
214.27	1814.50
214.49	1576.94
214.71	1656.81
214.93	1755.11
215.15	1705.96
215.37	1763.30
215.59	1710.05
215.81	1740.77
216.03	1796.07
216.24	1701.86
216.46	1748.97
216.68	1705.96
216.90	1744.87
217.12	1720.29
217.34	1734.63
217.56	1667.05
217.78	1771.49
218.00	1701.86
218.22	1755.11
218.44	1677.29
218.66	1732.58
218.87	1783.78
219.09	1656.81
219.31	1669.09
219.53	1753.06
219.75	1683.43
219.97	1761.25
220.19	1683.43
220.41	1744.87
220.63	1712.10
220.85	1705.96
221.06	1644.52
221.28	1710.05
221.50	1771.49
221.72	1673.19
221.94	1777.64
222.16	1751.01
222.38	1779.68
222.60	1736.68
222.82	1679.33
223.03	1775.59
223.25	1699.81
223.47	1748.97
223.69	1888.23
223.91	1732.58
224.13	1646.57
224.35	1650.66
224.57	1748.97
224.78	1669.09
225.00	1710.05
225.22	1667.05
225.44	1730.53
225.66	1716.20
225.88	1650.66
226.10	1685.48
226.32	1718.25
226.53	1814.50
226.75	1748.97
226.97	1662.95
227.19	1697.77
227.41	1687.53
227.63	1695.72
227.85	1587.18
228.06	1705.96
228.28	1779.68
228.50	1814.50
228.72	1705.96
228.94	1679.33
229.16	1624.04
229.37	1640.42
229.59	1650.66
229.81	1834.98
230.03	1710.05
230.25	1677.29
230.47	1691.62
230.69	1671.14
230.90	1697.77
231.12	1634.28
231.34	1703.91
231.56	1791.97
231.78	1636.33
232.00	1652.71
232.21	1681.38
232.43	1648.61
232.65	1560.55
232.87	1818.60
233.09	1640.42
233.30	1691.62
233.52	1724.39
233.74	1730.53
233.96	1695.72
234.18	1656.81
234.40	1712.10
234.61	1812.45
234.83	1624.04
235.05	1611.75
235.27	1753.06
235.49	1738.73
235.70	1722.34
235.92	1763.30
236.14	1644.52
236.36	1800.16
236.58	1646.57
236.79	1708.01
237.01	1650.66
237.23	1701.86
237.45	1857.51
237.67	1669.09
237.88	1626.09
238.10	1783.78
238.32	1624.04
238.54	1665.00
238.76	1708.01
238.97	1693.67
239.19	1691.62
239.41	1812.45
239.63	1769.44
239.85	1665.00
240.06	1708.01
240.28	1705.96
240.50	1724.39
240.72	1691.62
240.93	1726.44
241.15	1697.77
241.37	1699.81
241.59	1794.02
241.81	1722.34
242.02	1689.57
242.24	1736.68
242.46	1722.34
242.68	1638.38
242.89	1718.25
243.11	1734.63
243.33	1697.77
243.55	1669.09
243.76	1759.21
243.98	1665.00
244.20	1697.77
244.42	1650.66
244.64	1689.57
244.85	1587.18
245.07	1667.05
245.29	1751.01
245.51	1648.61
245.72	1718.25
245.94	1746.92
246.16	1708.01
246.38	1724.39
246.59	1640.42
246.81	1593.32
247.03	1642.47
247.24	1615.85
247.46	1624.04
247.68	1703.91
247.90	1634.28
248.11	1720.29
248.33	1753.06
248.55	1708.01
248.77	1679.33
248.98	1693.67
249.20	1714.15
249.42	1669.09
249.64	1716.20
249.85	1703.91
250.07	1714.15
250.29	1695.72
250.50	1695.72
250.72	1681.38
250.94	1748.97
251.16	1820.64
251.37	1849.32
251.59	1763.30
251.81	1617.90
252.02	1791.97
252.24	1636.33
252.46	1708.01
252.68	1699.81
252.89	1568.74
253.11	1572.84
253.33	1763.30
253.54	1806.31
253.76	1701.86
253.98	1654.76
254.20	1742.82
254.41	1595.37
254.63	1701.86
254.85	1662.95
255.06	1689.57
255.28	1708.01
255.50	1677.29
255.71	1662.95
255.93	1587.18
256.15	1710.05
256.36	1738.73
256.58	1710.05
256.80	1638.38
257.02	1759.21
257.23	1751.01
257.45	1703.91
257.67	1669.09
257.88	1650.66
258.10	1722.34
258.32	1710.05
258.53	1683.43
258.75	1812.45
258.97	1783.78
259.18	1656.81
259.40	1773.54
259.62	1814.50
259.83	1798.12
260.05	1759.21
260.27	1902.56
260.48	1779.68
260.70	1697.77
260.92	1730.53
261.13	1796.07
261.35	1642.47
261.57	1665.00
261.78	1640.42
262.00	1718.25
262.22	1769.44
262.43	1648.61
262.65	1652.71
262.86	1775.59
263.08	1869.80
263.30	1677.29
263.51	1660.90
263.73	1632.23
263.95	1751.01
264.16	1628.14
264.38	1677.29
264.60	1689.57
264.81	1714.15
265.03	1714.15
265.25	1728.49
265.46	1675.24
265.68	1734.63
265.89	1738.73
266.11	1621.99
266.33	1693.67
266.54	1746.92
266.76	1742.82
266.98	1687.53
267.19	1802.21
267.41	1675.24
267.62	1720.29
267.84	1568.74
268.06	1693.67
268.27	1693.67
268.49	1712.10
268.70	1759.21
268.92	1738.73
269.14	1626.09
269.35	1669.09
269.57	1740.77
269.79	1640.42
270.00	1708.01
270.22	1705.96
270.43	1763.30
270.65	1636.33
270.87	1675.24
271.08	1732.58
271.30	1771.49
271.51	1677.29
271.73	1675.24
271.95	1843.17
272.16	1652.71
272.38	1658.85
272.59	1628.14
272.81	1751.01
273.02	1714.15
273.24	1689.57
273.46	1693.67
273.67	1687.53
273.89	1675.24
274.10	1646.57
274.32	1789.92
274.54	1748.97
274.75	1753.06
274.97	1687.53
275.18	1746.92
275.40	1685.48
275.61	1685.48
275.83	1699.81
276.05	1691.62
276.26	1619.94
276.48	1753.06
276.69	1673.19
276.91	1656.81
277.12	1748.97
277.34	1740.77
277.55	1781.73
277.77	1771.49
277.99	1724.39
278.20	1656.81
278.42	1665.00
278.63	1570.79
278.85	1718.25
279.06	1636.33
279.28	1687.53
279.49	1814.50
279.71	1740.77
279.93	1755.11
280.14	1701.86
280.36	1693.67
280.57	1765.35
280.79	1685.48
281.00	1642.47
281.22	1621.99
281.43	1798.12
281.65	1617.90
281.86	1714.15
282.08	1757.16
282.29	1740.77
282.51	1640.42
282.73	1679.33
282.94	1601.51
283.16	1730.53
283.37	1761.25
283.59	1708.01
283.80	1738.73
284.02	1665.00
284.23	1699.81
284.45	1718.25
284.66	1648.61
284.88	1589.22
285.09	1693.67
285.31	1714.15
285.52	1753.06
285.74	1656.81
285.95	1746.92
286.17	1742.82
286.38	1775.59
286.60	1712.10
286.81	1648.61
287.03	1681.38
287.24	1720.29
287.46	1675.24
287.67	1730.53
287.89	1767.40
288.10	1685.48
288.32	1779.68
288.53	1765.35
288.75	1767.40
288.96	1744.87
289.18	1693.67
289.39	1689.57
289.61	1775.59
289.82	1828.84
290.04	1785.83
290.25	1714.15
290.47	1691.62
290.68	1644.52
290.90	1759.21
291.11	1607.66
291.33	1777.64
291.54	1673.19
291.76	1656.81
291.97	1689.57
292.18	1712.10
292.40	1658.85
292.61	1640.42
292.83	1802.21
293.04	1730.53
293.26	1693.67
293.47	1726.44
293.69	1652.71
293.90	1726.44
294.12	1714.15
294.33	1755.11
294.55	1722.34
294.76	1828.84
294.97	1804.26
295.19	1834.98
295.40	1718.25
295.62	1701.86
295.83	1787.88
296.05	1662.95
296.26	1736.68
296.48	1628.14
296.69	1718.25
296.90	1705.96
297.12	1681.38
297.33	1759.21
297.55	1689.57
297.76	1683.43
297.98	1712.10
298.19	1632.23
298.41	1685.48
298.62	1714.15
298.83	1746.92
299.05	1775.59
299.26	1718.25
299.48	1626.09
299.69	1708.01
299.90	1703.91
300.12	1716.20
300.33	1697.77
300.55	1685.48
300.76	1679.33
300.98	1550.31
301.19	1787.88
301.40	1695.72
301.62	1736.68
301.83	1691.62
302.05	1714.15
302.26	1708.01
302.47	1718.25
302.69	1677.29
302.90	1665.00
303.12	1564.65
303.33	1708.01
303.54	1812.45
303.76	1691.62
303.97	1746.92
304.19	1714.15
304.40	1636.33
304.61	1679.33
304.83	1812.45
305.04	1828.84
305.26	1763.30
305.47	1658.85
305.68	1734.63
305.90	1656.81
306.11	1732.58
306.33	1656.81
306.54	1658.85
306.75	1677.29
306.97	1632.23
307.18	1667.05
307.39	1705.96
307.61	1767.40
307.82	1603.56
308.04	1701.86
308.25	1634.28
308.46	1710.05
308.68	1705.96
308.89	1753.06
309.10	1755.11
309.32	1673.19
309.53	1667.05
309.74	1773.54
309.96	1634.28
310.17	1773.54
310.39	1630.18
310.60	1724.39
310.81	1693.67
311.03	1630.18
311.24	1763.30
311.45	1755.11
311.67	1761.25
311.88	1714.15
312.09	1638.38
312.31	1658.85
312.52	1744.87
312.73	1697.77
312.95	1595.37
313.16	1681.38
313.37	1732.58
313.59	1718.25
313.80	1728.49
314.01	1734.63
314.23	1677.29
314.44	1648.61
314.65	1613.80
314.87	1693.67
315.08	1708.01
315.29	1722.34
315.51	1699.81
315.72	1652.71
315.93	1771.49
316.15	1740.77
316.36	1705.96
316.57	1681.38
316.79	1818.60
317.00	1615.85
317.21	1695.72
317.43	1714.15
317.64	1730.53
317.85	1568.74
318.07	1701.86
318.28	1839.08
318.49	1822.69
318.70	1900.52
318.92	1877.99
319.13	1839.08
319.34	1800.16
319.56	1841.12
319.77	1769.44
319.98	1742.82
320.20	1777.64
320.41	1728.49
320.62	1722.34
320.83	1662.95
321.05	1853.41
321.26	1763.30
321.47	1726.44
321.69	1744.87
321.90	1558.50
322.11	1648.61
322.32	1796.07
322.54	1724.39
322.75	1640.42
322.96	1748.97
323.18	1595.37
323.39	1626.09
323.60	1630.18
323.81	1718.25
324.03	1675.24
324.24	1660.90
324.45	1669.09
324.66	1638.38
324.88	1787.88
325.09	1771.49
325.30	1767.40
325.52	1677.29
325.73	1693.67
325.94	1621.99
326.15	1607.66
326.37	1665.00
326.58	1810.40
326.79	1765.35
327.00	1660.90
327.22	1718.25
327.43	1650.66
327.64	1560.55
327.85	1726.44
328.07	1695.72
328.28	1748.97
328.49	1753.06
328.70	1732.58
328.92	1626.09
329.13	1701.86
329.34	1699.81
329.55	1851.36
329.76	1802.21
329.98	1693.67
330.19	1755.11
330.40	1648.61
330.61	1705.96
330.83	1810.40
331.04	1714.15
331.25	1656.81
331.46	1714.15
331.68	1630.18
331.89	1794.02
332.10	1683.43
332.31	1619.94
332.52	1626.09
332.74	1701.86
332.95	1617.90
333.16	1728.49
333.37	1738.73
333.58	1773.54
333.80	1738.73
334.01	1662.95
334.22	1665.00
334.43	1673.19
334.64	1628.14
334.86	1621.99
335.07	1720.29
335.28	1744.87
335.49	1675.24
335.70	1757.16
335.92	1751.01
336.13	1847.27
336.34	1742.82
336.55	1677.29
336.76	1783.78
336.98	1546.22
337.19	1738.73
337.40	1822.69
337.61	1783.78
337.82	1669.09
338.04	1755.11
338.25	1669.09
338.46	1753.06
338.67	1617.90
338.88	1662.95
339.09	1677.29
339.31	1673.19
339.52	1650.66
339.73	1626.09
339.94	1730.53
340.15	1761.25
340.36	1648.61
340.58	1714.15
340.79	1632.23
341.00	1708.01
341.21	1648.61
341.42	1808.36
341.63	1665.00
341.85	1800.16
342.06	1697.77
342.27	1716.20
342.48	1738.73
342.69	1644.52
342.90	1748.97
343.12	1732.58
343.33	1728.49
343.54	1796.07
343.75	1738.73
343.96	1742.82
344.17	1714.15
344.38	1693.67
344.60	1650.66
344.81	1650.66
345.02	1759.21
345.23	1685.48
345.44	1794.02
345.65	1767.40
345.86	1732.58
346.07	1585.13
346.29	1669.09
346.50	1695.72
346.71	1787.88
346.92	1705.96
347.13	1779.68
347.34	1595.37
347.55	1669.09
347.76	1685.48
347.98	1566.70
348.19	1701.86
348.40	1736.68
348.61	1617.90
348.82	1763.30
349.03	1734.63
349.24	1669.09
349.45	1851.36
349.66	1601.51
349.88	1669.09
350.09	1689.57
350.30	1722.34
350.51	1839.08
350.72	1712.10
350.93	1695.72
351.14	1652.71
351.35	1648.61
351.56	1722.34
351.77	1738.73
351.99	1716.20
352.20	1773.54
352.41	1755.11
352.62	1665.00
352.83	1667.05
353.04	1718.25
353.25	1673.19
353.46	1679.33
353.67	1791.97
353.88	1531.88
354.09	1740.77
354.30	1718.25
354.52	1699.81
354.73	1693.67
354.94	1669.09
355.15	1714.15
355.36	1812.45
355.57	1687.53
355.78	1759.21
355.99	1615.85
356.20	1683.43
356.41	1746.92
356.62	1779.68
356.83	1697.77
357.04	1767.40
357.25	1658.85
357.46	1677.29
357.68	1640.42
357.89	1693.67
358.10	1673.19
358.31	1628.14
358.52	1736.68
358.73	1638.38
358.94	1615.85
359.15	1658.85
359.36	1734.63
359.57	1744.87
359.78	1689.57
359.99	1699.81
360.20	1648.61
360.41	1728.49
360.62	1656.81
360.83	1716.20
361.04	1675.24
361.25	1740.77
361.46	1820.64
361.67	1703.91
361.88	1820.64
362.09	1828.84
362.30	1712.10
362.51	1699.81
362.72	1734.63
362.93	1732.58
363.14	1804.26
363.35	1691.62
363.56	1640.42
363.78	1732.58
363.99	1820.64
364.20	1609.70
364.41	1763.30
364.62	1779.68
364.83	1656.81
365.04	1728.49
365.25	1742.82
365.46	1861.60
365.67	1660.90
365.88	1646.57
366.09	1685.48
366.30	1624.04
366.51	1648.61
366.72	1574.89
366.93	1660.90
367.14	1769.44
367.35	1746.92
367.56	1640.42
367.77	1746.92
367.98	1673.19
368.18	1779.68
368.39	1755.11
368.60	1644.52
368.81	1734.63
369.02	1624.04
369.23	1660.90
369.44	1605.61
369.65	1648.61
369.86	1718.25
370.07	1771.49
370.28	1654.76
370.49	1753.06
370.70	1705.96
370.91	1628.14
371.12	1677.29
371.33	1722.34
371.54	1720.29
371.75	1779.68
371.96	1538.02
372.17	1718.25
372.38	1746.92
372.59	1693.67
372.80	1679.33
373.01	1685.48
373.22	1681.38
373.43	1603.56
373.64	1697.77
373.85	1716.20
374.06	1779.68
374.26	1705.96
374.47	1675.24
374.68	1818.60
374.89	1740.77
375.10	1691.62
375.31	1779.68
375.52	1679.33
375.73	1665.00
375.94	1662.95
376.15	1751.01
376.36	1648.61
376.57	1765.35
376.78	1746.92
376.99	1775.59
377.20	1826.79
377.40	1658.85
377.61	1787.88
377.82	1646.57
378.03	1804.26
378.24	1734.63
378.45	1697.77
378.66	1710.05
378.87	1660.90
379.08	1593.32
379.29	1787.88
379.50	1777.64
379.71	1703.91
379.91	1800.16
380.12	1681.38
380.33	1724.39
380.54	1638.38
380.75	1769.44
380.96	1714.15
381.17	1767.40
381.38	1722.34
381.59	1734.63
381.80	1755.11
382.00	1806.31
382.21	1755.11
382.42	1837.03
382.63	1830.88
382.84	1763.30
383.05	1705.96
383.26	1759.21
383.47	1703.91
383.68	1722.34
383.88	1755.11
384.09	1681.38
384.30	1808.36
384.51	1710.05
384.72	1591.27
384.93	1736.68
385.14	1769.44
385.35	1738.73
385.55	1669.09
385.76	1808.36
385.97	1675.24
386.18	1675.24
386.39	1621.99
386.60	1722.34
386.81	1679.33
387.02	1632.23
387.22	1677.29
387.43	1748.97
387.64	1818.60
387.85	1787.88
388.06	2283.49
388.27	4288.45
388.48	6836.12
388.68	8148.87
388.89	9514.86
389.10	9899.88
389.31	8560.51
389.52	7671.69
389.73	6518.68
389.93	6262.69
390.14	5805.99
390.35	5246.90
390.56	4587.45
390.77	3784.65
390.98	3006.42
391.18	2480.09
391.39	2133.98
391.60	1914.85
391.81	1775.59
392.02	1636.33
392.23	1830.88
392.43	1656.81
392.64	1857.51
392.85	1689.57
393.06	1812.45
393.27	1669.09
393.47	1685.48
393.68	1695.72
393.89	1722.34
394.10	1767.40
394.31	1697.77
394.52	1669.09
394.72	1701.86
394.93	1812.45
395.14	1642.47
395.35	1765.35
395.56	1705.96
395.76	1689.57
395.97	1761.25
396.18	1796.07
396.39	1853.41
396.60	2017.25
396.80	1861.60
397.01	1812.45
397.22	1816.55
397.43	1820.64
397.64	1708.01
397.84	1828.84
398.05	1865.70
398.26	1759.21
398.47	1712.10
398.67	1763.30
398.88	1732.58
399.09	1744.87
399.30	1714.15
399.51	1814.50
399.71	1714.15
399.92	1804.26
400.13	1744.87
400.34	1746.92
400.54	1726.44
400.75	1761.25
400.96	1683.43
401.17	1791.97
401.37	1759.21
401.58	1665.00
401.79	1730.53
402.00	1834.98
402.21	2076.64
402.41	1880.04
402.62	2021.35
402.83	2103.26
403.04	2127.84
403.24	2090.98
403.45	1865.70
403.66	1853.41
403.87	1890.28
404.07	1865.70
404.28	1929.19
404.49	1853.41
404.70	1765.35
404.90	1791.97
405.11	1798.12
405.32	1718.25
405.52	1626.09
405.73	1662.95
405.94	1689.57
406.15	1785.83
406.35	1753.06
406.56	1714.15
406.77	1734.63
406.98	1699.81
407.18	1624.04
407.39	1857.51
407.60	1656.81
407.80	1783.78
408.01	1705.96
408.22	1722.34
408.43	1601.51
408.63	1691.62
408.84	1708.01
409.05	1796.07
409.25	1705.96
409.46	1746.92
409.67	1695.72
409.88	1675.24
410.08	1697.77
410.29	1701.86
410.50	1667.05
410.70	1654.76
410.91	1718.25
411.12	1714.15
411.32	1720.29
411.53	1683.43
411.74	1769.44
411.95	1705.96
412.15	1753.06
412.36	1771.49
412.57	1728.49
412.77	1830.88
412.98	1712.10
413.19	1658.85
413.39	1730.53
413.60	1751.01
413.81	1785.83
414.01	1697.77
414.22	1775.59
414.43	1765.35
414.63	1609.70
414.84	1763.30
415.05	1691.62
415.25	1603.56
415.46	1779.68
415.67	1650.66
415.87	1746.92
416.08	1697.77
416.29	1697.77
416.49	1751.01
416.70	1691.62
416.91	1656.81
417.11	1683.43
417.32	1730.53
417.53	1767.40
417.73	1816.55
417.94	1687.53
418.15	1712.10
418.35	1716.20
418.56	1693.67
418.77	1767.40
418.97	1689.57
419.18	1716.20
419.38	1593.32
419.59	1701.86
419.80	1718.25
420.00	1742.82
420.21	1751.01
420.42	1656.81
420.62	1677.29
420.83	1720.29
421.04	1662.95
421.24	1701.86
421.45	1812.45
421.65	1738.73
421.86	1658.85
422.07	1695.72
422.27	1699.81
422.48	1701.86
422.69	1667.05
422.89	1640.42
423.10	1718.25
423.30	1699.81
423.51	1791.97
423.72	1701.86
423.92	1640.42
424.13	1662.95
424.33	1732.58
424.54	1708.01
424.75	1710.05
424.95	1808.36
425.16	1732.58
425.36	1726.44
425.57	1710.05
425.78	1720.29
425.98	1798.12
426.19	1669.09
426.39	1675.24
426.60	1712.10
426.81	1757.16
427.01	1634.28
427.22	1677.29
427.42	1648.61
427.63	1615.85
427.83	1720.29
428.04	1873.89
428.25	1742.82
428.45	1753.06
428.66	1796.07
428.86	1787.88
429.07	1708.01
429.28	1736.68
429.48	1638.38
429.69	1626.09
429.89	1712.10
430.10	1624.04
430.30	1724.39
430.51	1865.70
430.71	1662.95
430.92	1740.77
431.13	1679.33
431.33	1779.68
431.54	1724.39
431.74	1781.73
431.95	1832.93
432.15	1634.28
432.36	1695.72
432.56	1755.11
432.77	1796.07
432.98	1904.61
433.18	1708.01
433.39	1632.23
433.59	1728.49
433.80	1763.30
434.00	1871.84
434.21	1724.39
434.41	1751.01
434.62	1779.68
434.82	1628.14
435.03	1636.33
435.23	1689.57
435.44	1611.75
435.64	1742.82
435.85	1685.48
436.06	1738.73
436.26	1781.73
436.47	1644.52
436.67	1734.63
436.88	1658.85
437.08	1701.86
437.29	1808.36
437.49	1693.67
437.70	1728.49
437.90	1708.01
438.11	1832.93
438.31	1861.60
438.52	1855.46
438.72	1816.55
438.93	1877.99
439.13	1798.12
439.34	1781.73
439.54	1767.40
439.75	1751.01
439.95	1714.15
440.16	1705.96
440.36	1714.15
440.57	1718.25
440.77	1779.68
440.98	1785.83
441.18	1755.11
441.39	1695.72
441.59	1701.86
441.80	1832.93
442.00	1665.00
442.21	1832.93
442.41	1593.32
442.62	1779.68
442.82	1759.21
443.02	1722.34
443.23	1685.48
443.43	1679.33
443.64	1806.31
443.84	1675.24
444.05	1894.37
444.25	1693.67
444.46	1714.15
444.66	1740.77
444.87	1763.30
445.07	1617.90
445.28	1748.97
445.48	1841.12
445.69	1695.72
445.89	1820.64
446.09	1708.01
446.30	2062.30
446.50	2717.65
446.71	3680.20
446.91	4413.37
447.12	4716.47
447.32	4865.97
447.53	4288.45
447.73	3794.89
447.93	3518.41
448.14	3162.06
448.34	3145.68
448.55	2844.63
448.75	2797.53
448.96	2699.22
449.16	2383.84
449.36	2242.53
449.57	2068.45
449.77	1900.52
449.98	1796.07
450.18	1763.30
450.39	1834.98
450.59	1781.73
450.79	1800.16
451.00	1695.72
451.20	1685.48
451.41	1714.15
451.61	1791.97
451.81	1759.21
452.02	1728.49
452.22	1689.57
452.43	1679.33
452.63	1720.29
452.84	1730.53
453.04	1769.44
453.24	1812.45
453.45	1703.91
453.65	1748.97
453.86	1753.06
454.06	1812.45
454.26	1701.86
454.47	1683.43
454.67	1771.49
454.87	1740.77
455.08	1712.10
455.28	1834.98
455.49	1810.40
455.69	1697.77
455.89	2009.06
456.10	1757.16
456.30	1665.00
456.51	1818.60
456.71	1726.44
456.91	1759.21
457.12	1710.05
457.32	1726.44
457.52	1640.42
457.73	1798.12
457.93	1769.44
458.14	1716.20
458.34	1636.33
458.54	1714.15
458.75	1689.57
458.95	1824.74
459.15	1732.58
459.36	1744.87
459.56	1763.30
459.76	1843.17
459.97	1763.30
460.17	1714.15
460.37	1742.82
460.58	1730.53
460.78	1720.29
460.99	1683.43
461.19	1646.57
461.39	1679.33
461.60	1748.97
461.80	1755.11
462.00	1652.71
462.21	1728.49
462.41	1697.77
462.61	1679.33
462.82	1634.28
463.02	1710.05
463.22	1708.01
463.43	1802.21
463.63	1812.45
463.83	1804.26
464.04	1777.64
464.24	1716.20
464.44	1695.72
464.64	1740.77
464.85	1736.68
465.05	1746.92
465.25	1771.49
465.46	1591.27
465.66	1710.05
465.86	1810.40
466.07	1658.85
466.27	1726.44
466.47	1597.42
466.68	1607.66
466.88	1877.99
467.08	1746.92
467.29	1812.45
467.49	1769.44
467.69	1718.25
467.89	1689.57
468.10	1660.90
468.30	1751.01
468.50	1773.54
468.71	1738.73
468.91	1695.72
469.11	1834.98
469.31	1705.96
469.52	1667.05
469.72	1839.08
469.92	1904.61
470.13	1767.40
470.33	1738.73
470.53	1794.02
470.73	2150.37
470.94	2287.58
471.14	2328.54
471.34	2467.80
471.54	2480.09
471.75	2152.42
471.95	2088.93
472.15	2082.78
472.36	2025.44
472.56	1980.39
472.76	1974.24
472.96	1961.95
473.17	1996.77
473.37	1927.14
473.57	1787.88
473.77	1765.35
473.98	1763.30
474.18	1705.96
474.38	1857.51
474.58	1718.25
474.79	1669.09
474.99	1775.59
475.19	1828.84
475.39	1669.09
475.60	1738.73
475.80	1787.88
476.00	1738.73
476.20	1724.39
476.41	1650.66
476.61	1826.79
476.81	1814.50
477.01	1642.47
477.21	1857.51
477.42	1871.84
477.62	1665.00
477.82	1734.63
478.02	1687.53
478.23	1705.96
478.43	1554.41
478.63	1732.58
478.83	1665.00
479.03	1746.92
479.24	1798.12
479.44	1951.71
479.64	1652.71
479.84	1544.17
480.04	1665.00
480.25	1724.39
480.45	1646.57
480.65	1757.16
480.85	1814.50
481.06	1738.73
481.26	1796.07
481.46	1794.02
481.66	1781.73
481.86	1613.80
482.06	1779.68
482.27	1732.58
482.47	1736.68
482.67	1730.53
482.87	1734.63
483.07	1796.07
483.28	1769.44
483.48	1673.19
483.68	1685.48
483.88	1732.58
484.08	1599.46
484.29	1597.42
484.49	1796.07
484.69	1640.42
484.89	1769.44
485.09	1763.30
485.29	1769.44
485.50	1804.26
485.70	1683.43
485.90	1763.30
486.10	1658.85
486.30	1763.30
486.50	1753.06
486.71	1648.61
486.91	1794.02
487.11	1816.55
487.31	1638.38
487.51	1730.53
487.71	1609.70
487.91	1591.27
488.12	1683.43
488.32	1599.46
488.52	1609.70
488.72	1697.77
488.92	1714.15
489.12	1736.68
489.32	1755.11
489.53	1763.30
489.73	1665.00
489.93	1847.27
490.13	1695.72
490.33	1673.19
490.53	1665.00
490.73	1787.88
490.94	1662.95
491.14	1779.68
491.34	1853.41
491.54	2060.26
491.74	2584.54
491.94	2944.98
492.14	3030.99
492.34	2963.41
492.54	2676.70
492.75	2533.34
492.95	2400.22
493.15	2359.26
493.35	2271.20
493.55	2283.49
493.75	2068.45
493.95	2125.79
494.15	1964.00
494.35	1900.52
494.56	1902.56
494.76	1837.03
494.96	1818.60
495.16	1742.82
495.36	1748.97
495.56	1808.36
495.76	1722.34
495.96	1730.53
496.16	1607.66
496.36	1849.32
496.56	1675.24
496.77	1757.16
496.97	1720.29
497.17	1791.97
497.37	1673.19
497.57	1691.62
497.77	1763.30
497.97	1619.94
498.17	1736.68
498.37	1697.77
498.57	1691.62
498.77	1665.00
498.97	1794.02
499.17	1812.45
499.38	1779.68
499.58	1746.92
499.78	1796.07
499.98	1794.02
500.18	1781.73
500.38	1615.85
500.58	1904.61
500.78	2516.95
500.98	4597.69
501.18	5961.64
501.38	6703.00
501.58	7075.73
501.78	6711.19
501.98	5636.01
502.18	4990.90
502.38	4593.59
502.58	4227.01
502.78	3901.38
502.98	3569.61
503.18	3483.59
503.38	3223.50
503.59	2721.75
503.79	2701.27
503.99	2594.78
504.19	2281.44
504.39	2174.94
504.59	2279.39
504.79	2148.32
504.99	2099.17
505.19	1925.09
505.39	1925.09
505.59	2033.63
505.79	1978.34
505.99	1789.92
506.19	1755.11
506.39	1855.46
506.59	1773.54
506.79	1818.60
506.99	1798.12
507.19	1839.08
507.39	1755.11
507.59	1695.72
507.79	1646.57
507.99	1699.81
508.19	1708.01
508.39	1710.05
508.59	1724.39
508.79	1892.32
508.99	1898.47
509.19	1656.81
509.39	1832.93
509.59	1728.49
509.79	1732.58
509.99	1755.11
510.19	1708.01
510.39	1742.82
510.59	1767.40
510.79	1628.14
510.99	1679.33
511.19	1716.20
511.39	1783.78
511.59	1775.59
511.79	1738.73
511.99	1671.14
512.19	1875.94
512.38	1701.86
512.58	1718.25
512.78	1658.85
512.98	1796.07
513.18	1849.32
513.38	1685.48
513.58	1701.86
513.78	1712.10
513.98	1699.81
514.18	1781.73
514.38	1767.40
514.58	1742.82
514.78	1701.86
514.98	1578.98
515.18	1757.16
515.38	1669.09
515.58	1859.56
515.78	1701.86
515.98	1697.77
516.18	1791.97
516.38	1742.82
516.57	1636.33
516.77	1714.15
516.97	1785.83
517.17	1679.33
517.37	1611.75
517.57	1753.06
517.77	1751.01
517.97	1667.05
518.17	1791.97
518.37	1558.50
518.57	1714.15
518.77	1703.91
518.97	1822.69
519.16	1748.97
519.36	1777.64
519.56	1693.67
519.76	1761.25
519.96	1693.67
520.16	1837.03
520.36	1693.67
520.56	1796.07
520.76	1761.25
520.96	1681.38
521.16	1783.78
521.35	1859.56
521.55	1804.26
521.75	1712.10
521.95	1730.53
522.15	1728.49
522.35	1632.23
522.55	1691.62
522.75	1730.53
522.95	1738.73
523.14	1667.05
523.34	1712.10
523.54	1660.90
523.74	1789.92
523.94	1701.86
524.14	1619.94
524.34	1689.57
524.54	1818.60
524.73	1697.77
524.93	1812.45
525.13	1746.92
525.33	1656.81
525.53	1902.56
525.73	1806.31
525.93	1742.82
526.13	1736.68
526.32	1705.96
526.52	1765.35
526.72	1896.42
526.92	1714.15
527.12	1660.90
527.32	1632.23
527.52	1714.15
527.71	1834.98
527.91	1755.11
528.11	1716.20
528.31	1785.83
528.51	1691.62
528.71	1781.73
528.90	1744.87
529.10	1902.56
529.30	1853.41
529.50	1636.33
529.70	1841.12
529.90	1722.34
530.09	1691.62
530.29	1712.10
530.49	1765.35
530.69	1880.04
530.89	1781.73
531.09	1783.78
531.28	1705.96
531.48	1802.21
531.68	1720.29
531.88	1636.33
532.08	1755.11
532.28	1681.38
532.47	1769.44
532.67	1832.93
532.87	1701.86
533.07	1591.27
533.27	1804.26
533.46	1824.74
533.66	1761.25
533.86	1703.91
534.06	1701.86
534.26	1726.44
534.45	1710.05
534.65	1789.92
534.85	1775.59
535.05	1605.61
535.25	1781.73
535.44	1615.85
535.64	1746.92
535.84	1693.67
536.04	1660.90
536.24	1679.33
536.43	1738.73
536.63	1759.21
536.83	1689.57
537.03	1689.57
537.22	1669.09
537.42	1660.90
537.62	1714.15
537.82	1697.77
538.02	1800.16
538.21	1787.88
538.41	1914.85
538.61	1824.74
538.81	1753.06
539.00	1785.83
539.20	1617.90
539.40	1671.14
539.60	1781.73
539.79	1816.55
539.99	1658.85
540.19	1712.10
540.39	1738.73
540.58	1761.25
540.78	1794.02
540.98	1751.01
541.18	1859.56
541.37	1816.55
541.57	1746.92
541.77	1757.16
541.97	1679.33
542.16	1632.23
542.36	1798.12
542.56	1771.49
542.76	1794.02
542.95	1783.78
543.15	1767.40
543.35	1806.31
543.54	1644.52
543.74	1665.00
543.94	1787.88
544.14	1785.83
544.33	1728.49
544.53	1761.25
544.73	1708.01
544.93	1798.12
545.12	1748.97
545.32	1748.97
545.52	1714.15
545.71	1691.62
545.91	1671.14
546.11	1699.81
546.30	1693.67
546.50	1675.24
546.70	1810.40
546.90	1730.53
547.09	1646.57
547.29	1753.06
547.49	1781.73
547.68	1789.92
547.88	1705.96
548.08	1773.54
548.27	2160.61
548.47	1708.01
548.67	1693.67
548.87	1714.15
549.06	1712.10
549.26	1742.82
549.46	1753.06
549.65	1667.05
549.85	1787.88
550.05	1730.53
550.24	1656.81
550.44	1705.96
550.64	1746.92
550.83	1789.92
551.03	1888.23
551.23	1814.50
551.42	1761.25
551.62	1718.25
551.82	1812.45
552.01	1746.92
552.21	1818.60
552.41	1683.43
552.60	1789.92
552.80	1681.38
553.00	1744.87
553.19	1691.62
553.39	1845.22
553.59	1599.46
553.78	1755.11
553.98	1814.50
554.17	1673.19
554.37	1701.86
554.57	1789.92
554.76	1654.76
554.96	1722.34
555.16	1667.05
555.35	1855.46
555.55	1787.88
555.75	1738.73
555.94	1808.36
556.14	1648.61
556.33	1748.97
556.53	1669.09
556.73	1722.34
556.92	1820.64
557.12	1816.55
557.32	1824.74
557.51	1789.92
557.71	1785.83
557.90	1746.92
558.10	1753.06
558.30	1763.30
558.49	1712.10
558.69	1728.49
558.88	1855.46
559.08	1789.92
559.28	1691.62
559.47	1759.21
559.67	1732.58
559.86	1779.68
560.06	1746.92
560.26	1787.88
560.45	1802.21
560.65	1773.54
560.84	1861.60
561.04	1734.63
561.24	1796.07
561.43	1654.76
561.63	1845.22
561.82	1701.86
562.02	1826.79
562.22	1697.77
562.41	1683.43
562.61	1777.64
562.80	1679.33
563.00	1882.08
563.19	1824.74
563.39	1722.34
563.59	1687.53
563.78	1695.72
563.98	1650.66
564.17	1681.38
564.37	1667.05
564.56	1734.63
564.76	1691.62
564.96	1812.45
565.15	1736.68
565.35	1849.32
565.54	1734.63
565.74	1808.36
565.93	1720.29
566.13	1705.96
566.32	1777.64
566.52	1798.12
566.71	1726.44
566.91	1779.68
567.11	1712.10
567.30	1773.54
567.50	1751.01
567.69	1734.63
567.89	1714.15
568.08	1753.06
568.28	1710.05
568.47	1603.56
568.67	1751.01
568.86	1648.61
569.06	1681.38
569.25	1798.12
569.45	1761.25
569.64	1730.53
569.84	1800.16
570.04	1734.63
570.23	1746.92
570.43	1746.92
570.62	1818.60
570.82	1787.88
571.01	1722.34
571.21	1609.70
571.40	1636.33
571.60	1767.40
571.79	1785.83
571.99	1771.49
572.18	1673.19
572.38	1773.54
572.57	1677.29
572.77	1853.41
572.96	1886.18
573.16	1714.15
573.35	1675.24
573.55	1804.26
573.74	1800.16
573.94	1779.68
574.13	1726.44
574.33	1742.82
574.52	1773.54
574.71	1775.59
574.91	1798.12
575.10	1708.01
575.30	1757.16
575.49	1615.85
575.69	1630.18
575.88	1765.35
576.08	1693.67
576.27	1732.58
576.47	1748.97
576.66	1777.64
576.86	1822.69
577.05	1773.54
577.25	1787.88
577.44	1918.95
577.64	1667.05
577.83	1779.68
578.02	1773.54
578.22	1830.88
578.41	1857.51
578.61	1796.07
578.80	1701.86
579.00	1765.35
579.19	1689.57
579.39	1759.21
579.58	1837.03
579.77	1765.35
579.97	1863.65
580.16	1824.74
580.36	1802.21
580.55	1871.84
580.75	1742.82
580.94	1798.12
581.13	1779.68
581.33	1847.27
581.52	1722.34
581.72	1869.80
581.91	1841.12
582.11	1708.01
582.30	1800.16
582.49	1779.68
582.69	1841.12
582.88	1746.92
583.08	1794.02
583.27	1771.49
583.47	1791.97
583.66	1716.20
583.85	1724.39
584.05	1738.73
584.24	1771.49
584.44	1806.31
584.63	1882.08
584.82	1771.49
585.02	1828.84
585.21	1810.40
585.41	1837.03
585.60	1851.36
585.79	1929.19
585.99	1931.23
586.18	1933.28
586.37	2234.33
586.57	3424.20
586.76	9963.37
586.96	24608.39
587.15	34706.93
587.34	40861.07
587.54	42501.50
587.73	36795.85
587.93	26580.59
588.12	21724.85
588.31	18267.88
588.51	16613.12
588.70	14952.22
588.89	14135.08
589.09	12601.15
589.28	11196.25
589.47	9611.12
589.67	8140.68
589.86	6498.20
590.06	5076.91
590.25	3950.53
590.44	3190.74
590.64	2605.02
590.83	2318.30
591.02	2009.06
591.22	1968.10
591.41	1859.56
591.60	1808.36
591.80	1929.19
591.99	1708.01
592.18	1736.68
592.38	1808.36
592.57	1779.68
592.76	1808.36
592.96	1777.64
593.15	1791.97
593.34	1839.08
593.54	1714.15
593.73	1777.64
593.92	1830.88
594.12	1800.16
594.31	1748.97
594.50	1779.68
594.70	1796.07
594.89	1892.32
595.08	1724.39
595.28	1732.58
595.47	1929.19
595.66	1738.73
595.86	1658.85
596.05	1705.96
596.24	1802.21
596.43	1806.31
596.63	1816.55
596.82	1802.21
597.01	1761.25
597.21	1820.64
597.40	1697.77
597.59	1771.49
597.79	1767.40
597.98	1796.07
598.17	1740.77
598.36	1712.10
598.56	1783.78
598.75	1669.09
598.94	1708.01
599.14	1722.34
599.33	1753.06
599.52	1759.21
599.71	1789.92
599.91	1714.15
600.10	1798.12
600.29	1779.68
600.48	1789.92
600.68	1804.26
600.87	1789.92
601.06	1703.91
601.26	1736.68
601.45	1769.44
601.64	1748.97
601.83	1791.97
602.03	1685.48
602.22	1667.05
602.41	1751.01
602.60	1798.12
602.80	1773.54
602.99	1708.01
603.18	1689.57
603.37	1822.69
603.57	1673.19
603.76	1818.60
603.95	1783.78
604.14	1708.01
604.34	1705.96
604.53	1710.05
604.72	1787.88
604.91	1791.97
605.10	1798.12
605.30	1671.14
605.49	1816.55
605.68	1796.07
605.87	1791.97
606.07	1681.38
606.26	1732.58
606.45	1722.34
606.64	1763.30
606.84	1742.82
607.03	1665.00
607.22	1746.92
607.41	1714.15
607.60	1738.73
607.80	1775.59
607.99	1771.49
608.18	1734.63
608.37	1703.91
608.56	1763.30
608.76	1798.12
608.95	1759.21
609.14	1787.88
609.33	1800.16
609.52	1775.59
609.72	1728.49
609.91	1712.10
610.10	1796.07
610.29	1800.16
610.48	1800.16
610.68	1767.40
610.87	1693.67
611.06	1751.01
611.25	1726.44
611.44	1806.31
611.63	1697.77
611.83	1798.12
612.02	1656.81
612.21	1849.32
612.40	1634.28
612.59	1617.90
612.79	1632.23
612.98	1701.86
613.17	1826.79
613.36	1763.30
613.55	1828.84
613.74	1705.96
613.93	1675.24
614.13	1691.62
614.32	1738.73
614.51	1691.62
614.70	1757.16
614.89	1693.67
615.08	1716.20
615.28	2029.54
615.47	1619.94
615.66	1744.87
615.85	1671.14
616.04	1777.64
616.23	1697.77
616.42	1660.90
616.62	1665.00
616.81	1683.43
617.00	1701.86
617.19	1720.29
617.38	1779.68
617.57	1771.49
617.76	1761.25
617.95	1761.25
618.15	1726.44
618.34	1822.69
618.53	1685.48
618.72	1771.49
618.91	1757.16
619.10	1804.26
619.29	1841.12
619.48	1730.53
619.68	1679.33
619.87	1687.53
620.06	1667.05
620.25	1724.39
620.44	1736.68
620.63	1705.96
620.82	1699.81
621.01	1734.63
621.20	1773.54
621.39	1720.29
621.59	1783.78
621.78	1689.57
621.97	1755.11
622.16	1689.57
622.35	1787.88
622.54	1724.39
622.73	1769.44
622.92	1654.76
623.11	1767.40
623.30	1748.97
623.49	1669.09
623.68	1695.72
623.88	1751.01
624.07	1759.21
624.26	1699.81
624.45	1759.21
624.64	1679.33
624.83	1716.20
625.02	1652.71
625.21	1695.72
625.40	1714.15
625.59	1804.26
625.78	1728.49
625.97	1820.64
626.16	1708.01
626.35	1738.73
626.54	1705.96
626.74	1791.97
626.93	1617.90
627.12	1718.25
627.31	1722.34
627.50	1712.10
627.69	1724.39
627.88	1626.09
628.07	1665.00
628.26	1669.09
628.45	1628.14
628.64	1671.14
628.83	1767.40
629.02	1718.25
629.21	1697.77
629.40	1746.92
629.59	1662.95
629.78	1689.57
629.97	1751.01
630.16	1736.68
630.35	1746.92
630.54	1718.25
630.73	1687.53
630.92	1730.53
631.11	1701.86
631.30	1722.34
631.49	1730.53
631.68	1683.43
631.87	1787.88
632.06	1677.29
632.25	1900.52
632.44	1689.57
632.63	1722.34
632.82	1689.57
633.01	1667.05
633.20	1724.39
633.39	1617.90
633.58	1640.42
633.77	1699.81
633.96	1777.64
634.15	1763.30
634.34	1785.83
634.53	1746.92
634.72	1703.91
634.91	1560.55
635.10	1681.38
635.29	1683.43
635.48	1699.81
635.67	1728.49
635.86	1646.57
636.05	1730.53
636.24	1648.61
636.43	1738.73
636.62	1718.25
636.81	1574.89
637.00	1736.68
637.19	1701.86
637.38	1671.14
637.57	1665.00
637.76	1673.19
637.95	1785.83
638.14	1691.62
638.33	1724.39
638.52	1779.68
638.71	1703.91
638.89	1665.00
639.08	1845.22
639.27	1691.62
639.46	1621.99
639.65	1820.64
639.84	1769.44
640.03	1824.74
640.22	1648.61
640.41	1841.12
640.60	1662.95
640.79	1755.11
640.98	1673.19
641.17	1765.35
641.36	1718.25
641.55	1755.11
641.74	1660.90
641.92	1624.04
642.11	1621.99
642.30	1683.43
642.49	1699.81
642.68	1697.77
642.87	1722.34
643.06	1679.33
643.25	1644.52
643.44	1679.33
643.63	1746.92
643.82	1742.82
644.00	1642.47
644.19	1660.90
644.38	1638.38
644.57	1757.16
644.76	1714.15
644.95	1705.96
645.14	1822.69
645.33	1665.00
645.52	1699.81
645.71	1658.85
645.89	1646.57
646.08	1699.81
646.27	1689.57
646.46	1839.08
646.65	1607.66
646.84	1701.86
647.03	1609.70
647.22	1863.65
647.40	1644.52
647.59	1677.29
647.78	1636.33
647.97	1669.09
648.16	1722.34
648.35	1763.30
648.54	1775.59
648.73	1726.44
648.91	1830.88
649.10	1738.73
649.29	1673.19
649.48	1667.05
649.67	1732.58
649.86	1703.91
650.05	1599.46
650.23	1767.40
650.42	1640.42
650.61	1775.59
650.80	1789.92
650.99	1759.21
651.18	1675.24
651.36	1812.45
651.55	1640.42
651.74	1787.88
651.93	1708.01
652.12	1673.19
652.31	1734.63
652.49	1705.96
652.68	1703.91
652.87	1775.59
653.06	1724.39
653.25	1746.92
653.44	1732.58
653.62	1808.36
653.81	1679.33
654.00	1712.10
654.19	1679.33
654.38	1830.88
654.56	1701.86
654.75	1660.90
654.94	1847.27
655.13	1748.97
655.32	1748.97
655.51	1714.15
655.69	1701.86
655.88	1767.40
656.07	1677.29
656.26	1669.09
656.45	1617.90
656.63	1644.52
656.82	1693.67
657.01	1796.07
657.20	1730.53
657.38	1824.74
657.57	1722.34
657.76	1626.09
657.95	1708.01
658.14	1699.81
658.32	1636.33
658.51	1665.00
658.70	1654.76
658.89	1714.15
659.08	1710.05
659.26	1826.79
659.45	1703.91
659.64	1712.10
659.83	1662.95
660.01	1908.71
660.20	1716.20
660.39	1816.55
660.58	1607.66
660.76	1732.58
660.95	1611.75
661.14	1722.34
661.33	1687.53
661.51	1626.09
661.70	1669.09
661.89	1736.68
662.08	1693.67
662.26	1708.01
662.45	1738.73
662.64	1814.50
662.83	1763.30
663.01	1708.01
663.20	1601.51
663.39	1787.88
663.58	1660.90
663.76	1730.53
663.95	1751.01
664.14	1589.22
664.32	1718.25
664.51	1685.48
664.70	1607.66
664.89	1755.11
665.07	1640.42
665.26	1755.11
665.45	1669.09
665.64	1767.40
665.82	1695.72
666.01	1755.11
666.20	1652.71
666.38	1781.73
666.57	1751.01
666.76	2205.66
666.95	4501.44
667.13	10479.46
667.32	15439.64
667.51	18216.68
667.69	19234.52
667.88	17766.13
668.07	12547.90
668.25	9774.95
668.44	8069.00
668.63	7274.38
668.81	6928.28
669.00	6459.29
669.19	5668.78
669.38	5154.74
669.56	4616.12
669.75	3919.81
669.94	3477.45
670.12	2912.21
670.31	2553.82
670.50	2263.01
670.68	2002.91
670.87	1961.95
671.06	1814.50
671.24	1765.35
671.43	1828.84
671.62	1705.96
671.80	1669.09
671.99	1802.21
672.18	1732.58
672.36	1845.22
672.55	1753.06
672.74	1736.68
672.92	1710.05
673.11	1794.02
673.29	1650.66
673.48	1705.96
673.67	1675.24
673.85	1828.84
674.04	1665.00
674.23	1730.53
674.41	1847.27
674.60	1714.15
674.79	1642.47
674.97	1640.42
675.16	1777.64
675.34	1759.21
675.53	1652.71
675.72	1787.88
675.90	1802.21
676.09	1667.05
676.28	1722.34
676.46	1689.57
676.65	1730.53
676.83	1675.24
677.02	1722.34
677.21	1671.14
677.39	1757.16
677.58	1640.42
677.77	1654.76
677.95	1656.81
678.14	1744.87
678.32	1730.53
678.51	1677.29
678.70	1845.22
678.88	1589.22
679.07	1722.34
679.25	1701.86
679.44	1785.83
679.63	1642.47
679.81	1708.01
680.00	1759.21
680.18	1779.68
680.37	1789.92
680.55	1779.68
680.74	1667.05
680.93	1675.24
681.11	1759.21
681.30	1697.77
681.48	1722.34
681.67	1624.04
681.85	1601.51
682.04	1703.91
682.23	1738.73
682.41	1695.72
682.60	1722.34
682.78	1628.14
682.97	1751.01
683.15	1714.15
683.34	1656.81
683.53	1775.59
683.71	1544.17
683.90	1820.64
684.08	1800.16
684.27	1732.58
684.45	1726.44
684.64	1703.91
684.82	1755.11
685.01	1685.48
685.19	1771.49
685.38	1787.88
685.57	1671.14
685.75	1679.33
685.94	1691.62
686.12	1660.90
686.31	1609.70
686.49	1800.16
686.68	1703.91
686.86	1738.73
687.05	1748.97
687.23	1779.68
687.42	1615.85
687.60	1648.61
687.79	1701.86
687.97	1722.34
688.16	1765.35
688.34	1689.57
688.53	1681.38
688.71	1714.15
688.90	1808.36
689.08	1677.29
689.27	1662.95
689.45	1779.68
689.64	1789.92
689.82	1746.92
690.01	1775.59
690.19	1730.53
690.38	1675.24
690.56	1791.97
690.75	1628.14
690.93	1632.23
691.12	1607.66
691.30	1718.25
691.49	1701.86
691.67	1685.48
691.86	1787.88
692.04	1708.01
692.23	1683.43
692.41	1689.57
692.60	1820.64
692.78	1705.96
692.97	1773.54
693.15	1714.15
693.34	1818.60
693.52	1724.39
693.71	1662.95
693.89	1697.77
694.08	1662.95
694.26	1806.31
694.44	1740.77
694.63	1757.16
694.81	1634.28
695.00	1648.61
695.18	1781.73
695.37	1861.60
695.55	1781.73
695.74	1640.42
695.92	1712.10
696.10	1794.02
696.29	1642.47
696.47	1677.29
696.66	1613.80
696.84	1746.92
697.03	1681.38
697.21	1839.08
697.40	2289.63
697.58	1824.74
697.76	1687.53
697.95	1658.85
698.13	1638.38
698.32	1671.14
698.50	1617.90
698.68	1738.73
698.87	1791.97
699.05	1812.45
699.24	1714.15
699.42	1646.57
699.61	1724.39
699.79	1755.11
699.97	1730.53
700.16	1673.19
700.34	1697.77
700.53	1648.61
700.71	1763.30
700.89	1771.49
701.08	1693.67
701.26	1689.57
701.45	2060.26
701.63	1669.09
701.81	1681.38
702.00	1675.24
702.18	1746.92
702.37	1679.33
702.55	1724.39
702.73	1722.34
702.92	1671.14
703.10	1740.77
703.28	1710.05
703.47	1624.04
703.65	1771.49
703.84	1734.63
704.02	1691.62
704.20	1763.30
704.39	1691.62
704.57	1718.25
704.75	1791.97
704.94	1806.31
705.12	1626.09
705.30	1775.59
705.49	2250.72
705.67	4339.65
705.86	9461.62
706.04	12719.93
706.22	14597.92
706.41	15533.84
706.59	13963.05
706.77	9824.11
706.96	7528.33
707.14	6549.40
707.32	5937.06
707.51	5578.67
707.69	5076.91
707.87	4216.77
708.06	3583.95
708.24	2904.02
708.42	2457.56
708.61	2201.57
708.79	1931.23
708.97	1935.33
709.16	1796.07
709.34	1800.16
709.52	1740.77
709.71	1775.59
709.89	1798.12
710.07	1646.57
710.26	1669.09
710.44	1716.20
710.62	1736.68
710.80	1656.81
710.99	1781.73
711.17	1859.56
711.35	1665.00
711.54	1656.81
711.72	1755.11
711.90	1796.07
712.09	1804.26
712.27	1665.00
712.45	1665.00
712.63	1718.25
712.82	1671.14
713.00	1740.77
713.18	1734.63
713.37	1755.11
713.55	1798.12
713.73	1687.53
713.91	1669.09
714.10	1730.53
714.28	1697.77
714.46	1714.15
714.65	1775.59
714.83	1708.01
715.01	1685.48
715.19	1769.44
715.38	1665.00
715.56	1732.58
715.74	1742.82
715.92	1640.42
716.11	1771.49
716.29	1585.13
716.47	1726.44
716.65	1695.72
716.84	1572.84
717.02	1826.79
717.20	1697.77
717.38	1675.24
717.57	1628.14
717.75	1701.86
717.93	1679.33
718.11	1728.49
718.30	1681.38
718.48	1691.62
718.66	1712.10
718.84	1697.77
719.03	1683.43
719.21	1624.04
719.39	1751.01
719.57	1736.68
719.75	1800.16
719.94	1583.08
720.12	1730.53
720.30	1740.77
720.48	1728.49
720.67	1673.19
720.85	1638.38
721.03	1695.72
721.21	1726.44
721.39	1855.46
721.58	1744.87
721.76	1744.87
721.94	1796.07
722.12	1699.81
722.30	1736.68
722.49	1689.57
722.67	1781.73
722.85	1718.25
723.03	1644.52
723.21	1683.43
723.40	1701.86
723.58	1716.20
723.76	1660.90
723.94	1734.63
724.12	1796.07
724.30	1826.79
724.49	1824.74
724.67	1595.37
724.85	1869.80
725.03	1576.94
725.21	1705.96
725.40	1783.78
725.58	1609.70
725.76	1742.82
725.94	1775.59
726.12	1689.57
726.30	1724.39
726.49	1677.29
726.67	1697.77
726.85	1718.25
727.03	1804.26
727.21	2088.93
727.39	2891.73
727.57	3868.61
727.76	4202.43
727.94	4532.15
728.12	4440.00
728.30	3770.31
728.48	3057.62
728.66	2770.90
728.84	2586.58
729.03	2299.87
729.21	2156.51
729.39	1955.81
729.57	1847.27
729.75	1826.79
729.93	1783.78
730.11	1658.85
730.30	1701.86
730.48	1691.62
730.66	1761.25
730.84	1779.68
731.02	1689.57
731.20	1677.29
731.38	1685.48
731.56	1632.23
731.74	1538.02
731.93	1650.66
732.11	1662.95
732.29	1724.39
732.47	1710.05
732.65	1699.81
732.83	1746.92
733.01	1691.62
733.19	1658.85
733.37	1738.73
733.56	1763.30
733.74	1667.05
733.92	1769.44
734.10	1656.81
734.28	1726.44
734.46	1607.66
734.64	1695.72
734.82	1695.72
735.00	1689.57
735.18	1634.28
735.36	1701.86
735.54	1742.82
735.73	1734.63
735.91	1689.57
736.09	1738.73
736.27	1703.91
736.45	1669.09
736.63	1689.57
736.81	1687.53
736.99	1753.06
737.17	1738.73
737.35	1642.47
737.53	1697.77
737.71	1665.00
737.89	1804.26
738.07	1689.57
738.25	1648.61
738.43	1665.00
738.61	1644.52
738.80	1630.18
738.98	1636.33
739.16	1662.95
739.34	1611.75
739.52	1794.02
739.70	1697.77
739.88	1660.90
740.06	1791.97
740.24	1681.38
740.42	1822.69
740.60	1558.50
740.78	1726.44
740.96	1593.32
741.14	1665.00
741.32	1677.29
741.50	1599.46
741.68	1794.02
741.86	1828.84
742.04	1644.52
742.22	1660.90
742.40	1742.82
742.58	1701.86
742.76	1677.29
742.94	1714.15
743.12	1621.99
743.30	1656.81
743.48	1720.29
743.66	1677.29
743.84	1712.10
744.02	1712.10
744.20	1677.29
744.38	1658.85
744.56	1611.75
744.74	1769.44
744.92	1748.97
745.10	1820.64
745.28	1724.39
745.46	1720.29
745.64	1734.63
745.82	1697.77
746.00	1638.38
746.18	1785.83
746.36	1640.42
746.54	1718.25
746.72	1726.44
746.90	1609.70
747.08	1728.49
747.26	1656.81
747.44	1755.11
747.62	1693.67
747.80	1628.14
747.98	1763.30
748.15	1810.40
748.33	1753.06
748.51	1662.95
748.69	1726.44
748.87	1615.85
749.05	1644.52
749.23	1658.85
749.41	1693.67
749.59	1701.86
749.77	1775.59
749.95	1644.52
750.13	1710.05
750.31	1695.72
750.49	1656.81
750.67	1769.44
750.85	1816.55
751.03	1718.25
751.20	1781.73
751.38	1646.57
751.56	1687.53
751.74	1705.96
751.92	1697.77
752.10	1642.47
752.28	1804.26
752.46	1656.81
752.64	1599.46
752.82	1662.95
753.00	1773.54
753.18	1724.39
753.35	1732.58
753.53	1662.95
753.71	1632.23
753.89	1681.38
754.07	1646.57
754.25	1687.53
754.43	1597.42
754.61	1697.77
754.79	1673.19
754.97	1773.54
755.14	1742.82
755.32	1626.09
755.50	1669.09
755.68	1730.53
755.86	1626.09
756.04	1673.19
756.22	1576.94
756.40	1712.10
756.57	1826.79
756.75	1636.33
756.93	1755.11
757.11	1712.10
757.29	1718.25
757.47	1626.09
757.65	1605.61
757.82	1599.46
758.00	1648.61
758.18	1697.77
758.36	1636.33
758.54	1802.21
758.72	1603.56
758.90	1656.81
759.07	1726.44
759.25	1656.81
759.43	1724.39
759.61	1609.70
759.79	2162.66
759.97	1724.39
760.15	1613.80
760.32	1736.68
760.50	1669.09
760.68	1794.02
760.86	1607.66
761.04	1765.35
761.22	1720.29
761.39	1699.81
761.57	1759.21
761.75	1736.68
761.93	1732.58
762.11	1683.43
762.28	1595.37
762.46	1710.05
762.64	1722.34
762.82	1589.22
763.00	1734.63
763.18	1712.10
763.35	1626.09
763.53	1800.16
763.71	1734.63
763.89	1736.68
764.07	1769.44
764.24	1695.72
764.42	1753.06
764.60	1624.04
764.78	1695.72
764.96	1757.16
765.13	1654.76
765.31	1687.53
765.49	1667.05
765.67	1626.09
765.84	1675.24
766.02	1681.38
766.20	1683.43
766.38	1740.77
766.56	1648.61
766.73	1730.53
766.91	1642.47
767.09	1669.09
767.27	1746.92
767.44	1730.53
767.62	1697.77
767.80	1740.77
767.98	1681.38
768.15	1718.25
768.33	1703.91
768.51	1773.54
768.69	1689.57
768.87	1730.53
769.04	1708.01
769.22	1839.08
769.40	1796.07
769.58	1853.41
769.75	1683.43
769.93	1736.68
770.11	1644.52
770.28	1619.94
770.46	1767.40
770.64	1640.42
770.82	1677.29
770.99	1773.54
771.17	1662.95
771.35	1771.49
771.53	1701.86
771.70	1632.23
771.88	1775.59
772.06	1705.96
772.23	1724.39
772.41	1783.78
772.59	1646.57
772.77	1648.61
772.94	1673.19
773.12	1675.24
773.30	1714.15
773.47	1673.19
773.65	1742.82
773.83	1789.92
774.01	1761.25
774.18	1572.84
774.36	1722.34
774.54	1574.89
774.71	1669.09
774.89	1628.14
775.07	1646.57
775.24	1816.55
775.42	1617.90
775.60	1880.04
775.78	1636.33
775.95	1689.57
776.13	1669.09
776.31	1552.36
776.48	1726.44
776.66	1783.78
776.84	1751.01
777.01	1626.09
777.19	1683.43
777.37	1740.77
777.54	1738.73
777.72	1806.31
777.90	1685.48
778.07	1675.24
778.25	1931.23
778.43	1791.97
778.60	1665.00
778.78	1738.73
778.96	1812.45
779.13	1693.67
779.31	1673.19
779.49	1695.72
779.66	1679.33
779.84	1740.77
780.01	1687.53
780.19	1626.09
780.37	1734.63
780.54	1740.77
780.72	1771.49
780.90	1740.77
781.07	1636.33
781.25	1652.71
781.43	1751.01
781.60	1617.90
781.78	1710.05
781.95	1687.53
782.13	1634.28
782.31	1681.38
782.48	1617.90
782.66	1689.57
782.83	1853.41
783.01	1726.44
783.19	1785.83
783.36	1693.67
783.54	1652.71
783.72	1703.91
783.89	1685.48
784.07	1652.71
784.24	1742.82
784.42	1753.06
784.60	1652.71
784.77	1796.07
784.95	1603.56
785.12	1660.90
785.30	1613.80
785.47	1673.19
785.65	1648.61
785.83	1746.92
786.00	1712.10
786.18	1617.90
786.35	1665.00
786.53	1636.33
786.71	1742.82
786.88	1779.68
787.06	1742.82
787.23	1740.77
787.41	1687.53
787.58	1677.29
787.76	1656.81
787.94	1740.77
788.11	1673.19
788.29	1652.71
788.46	1695.72
788.64	1662.95
788.81	1710.05
788.99	1708.01
789.16	1708.01
789.34	1697.77
789.52	1667.05
789.69	1701.86
789.87	1574.89
790.04	1705.96
790.22	1738.73
790.39	1794.02
790.57	1687.53
790.74	1638.38
790.92	1714.15
791.09	1570.79
791.27	1712.10
791.44	1636.33
791.62	1748.97
791.79	1763.30
791.97	1751.01
792.15	1867.75
792.32	1732.58
792.50	1732.58
792.67	1908.71
792.85	1767.40
793.02	1693.67
793.20	1669.09
793.37	1587.18
793.55	1656.81
793.72	1683.43
793.90	1714.15
794.07	1599.46
794.25	1644.52
794.42	1701.86
794.60	1693.67
794.77	1718.25
794.95	1667.05
795.12	1697.77
795.30	1724.39
795.47	1525.74
795.65	1923.04
795.82	1794.02
796.00	1665.00
796.17	1630.18
796.34	1673.19
796.52	1755.11
796.69	1738.73
796.87	1724.39
797.04	1705.96
797.22	1734.63
797.39	1716.20
797.57	1771.49
797.74	1730.53
797.92	1695.72
798.09	1705.96
798.27	1746.92
798.44	1736.68
798.62	1679.33
798.79	1765.35
798.96	1693.67
799.14	1685.48
799.31	1837.03
799.49	1667.05
799.66	1646.57
799.84	1804.26
800.01	1538.02
800.19	1781.73
800.36	1603.56
800.53	1722.34
800.71	1642.47
800.88	1802.21
801.06	1691.62
801.23	1720.29
801.41	1662.95
801.58	1640.42
801.75	1667.05
801.93	1716.20
802.10	1722.34
802.28	1722.34
802.45	1685.48
802.63	1767.40
802.80	1767.40
802.97	1697.77
803.15	1665.00
803.32	1673.19
803.50	1712.10
803.67	1628.14
803.84	1615.85
804.02	1761.25
804.19	1708.01
804.37	1634.28
804.54	1691.62
804.71	1628.14
804.89	1636.33
805.06	1566.70
805.24	1624.04
805.41	1662.95
805.58	1679.33
805.76	1791.97
805.93	1695.72
806.10	1779.68
806.28	1742.82
806.45	1724.39
806.63	1722.34
806.80	1712.10
806.97	1724.39
807.15	1693.67
807.32	1724.39
807.49	1665.00
807.67	1767.40
807.84	1732.58
808.01	1699.81
808.19	1834.98
808.36	1877.99
808.54	1693.67
808.71	1701.86
808.88	1746.92
809.06	1632.23
809.23	1742.82
809.40	1662.95
809.58	1765.35
809.75	1728.49
809.92	1687.53
810.10	1789.92
810.27	1630.18
810.44	1783.78
810.62	1718.25
810.79	1689.57
810.96	1681.38
811.14	1724.39
811.31	1638.38
811.48	1738.73
811.66	1699.81
811.83	1708.01
812.00	1681.38
812.18	1746.92
812.35	1851.36
812.52	1722.34
812.69	1689.57
812.87	1708.01
813.04	1669.09
813.21	1724.39
813.39	1667.05
813.56	1640.42
813.73	1722.34
813.91	1652.71
814.08	1710.05
814.25	1738.73
814.42	1585.13
814.60	1648.61
814.77	1728.49
814.94	1648.61
815.12	1732.58
815.29	1804.26
815.46	1714.15
815.63	1699.81
815.81	1763.30
815.98	1685.48
816.15	1650.66
816.33	1753.06
816.50	1765.35
816.67	1683.43
816.84	1757.16
817.02	1681.38
817.19	1697.77
817.36	1681.38
817.53	1742.82
817.71	1722.34
817.88	1703.91
818.05	1720.29
818.22	1689.57
818.40	1742.82
818.57	1728.49
818.74	1753.06
818.91	1716.20
819.09	1765.35
819.26	1714.15
819.43	1671.14
819.60	1658.85
819.78	1714.15
819.95	1748.97
820.12	1695.72
820.29	1718.25
820.47	1681.38
820.64	1652.71
820.81	1550.31
820.98	1638.38
821.15	1724.39
821.33	1730.53
821.50	1607.66
821.67	1679.33
821.84	1710.05
822.02	1781.73
822.19	1708.01
822.36	1701.86
822.53	1669.09
822.70	1626.09
822.88	1656.81
823.05	1728.49
823.22	1708.01
823.39	1689.57
823.56	1697.77
823.74	1880.04
823.91	1624.04
824.08	1658.85
824.25	1669.09
824.42	1812.45
824.60	1562.60
824.77	1673.19
824.94	1658.85
825.11	1697.77
825.28	1617.90
825.45	1740.77
825.63	1691.62
825.80	1705.96
825.97	1619.94
826.14	1642.47
826.31	1560.55
826.48	1769.44
826.66	1640.42
826.83	1646.57
827.00	1763.30
827.17	1685.48
827.34	1626.09
827.51	1705.96
827.69	1665.00
827.86	1619.94
828.03	1722.34
828.20	1679.33
828.37	1691.62
828.54	1738.73
828.71	1646.57
828.89	1853.41
829.06	1693.67
829.23	1810.40
829.40	1603.56
829.57	1673.19
829.74	1708.01
829.91	1548.26
830.09	1652.71
830.26	1828.84
830.43	1748.97
830.60	1697.77
830.77	1773.54
830.94	1773.54
831.11	1716.20
831.28	1646.57
831.46	1828.84
831.63	1656.81
831.80	1712.10
831.97	1712.10
832.14	1685.48
832.31	1757.16
832.48	1746.92
832.65	1740.77
832.82	1769.44
832.99	1724.39
833.17	1613.80
833.34	1816.55
833.51	1794.02
833.68	1617.90
833.85	1724.39
834.02	1628.14
834.19	1673.19
834.36	1607.66
834.53	1742.82
834.70	1765.35
834.87	1738.73
835.04	1656.81
835.22	1626.09
835.39	1662.95
835.56	1665.00
835.73	1693.67
835.90	1744.87
836.07	1648.61
836.24	1751.01
836.41	1638.38
836.58	1724.39
836.75	1697.77
836.92	1658.85
837.09	1673.19
837.26	1734.63
837.43	1697.77
837.60	1736.68
837.77	1681.38
837.94	1757.16
838.12	1669.09
838.29	1732.58
838.46	1624.04
838.63	1636.33
838.80	1705.96
838.97	1765.35
839.14	1705.96
839.31	1683.43
839.48	1744.87
839.65	1796.07
839.82	1705.96
839.99	1718.25
840.16	1669.09
840.33	1662.95
840.50	1742.82
840.67	1683.43
840.84	1662.95
841.01	1724.39
841.18	1658.85
841.35	1683.43
841.52	1718.25
841.69	1800.16
841.86	1765.35
842.03	1697.77
842.20	1775.59
842.37	1720.29
842.54	1708.01
842.71	1724.39
842.88	1701.86
843.05	1763.30
843.22	1656.81
843.39	1718.25
843.56	1710.05
843.73	1703.91
843.90	1701.86
844.07	1652.71
844.24	1779.68
844.41	1742.82
844.58	1720.29
844.75	1695.72
844.92	1728.49
845.09	1675.24
845.26	1650.66
845.43	1734.63
845.60	1738.73
845.77	1695.72
845.94	1728.49
846.10	1726.44
846.27	1603.56
846.44	1660.90
846.61	1689.57
846.78	1724.39
846.95	1740.77
847.12	1677.29
847.29	1691.62
847.46	1617.90
847.63	1730.53
847.80	1804.26
847.97	1705.96
848.14	1888.23
848.31	1652.71
848.48	1611.75
848.65	1730.53
848.82	1705.96
848.98	1787.88
849.15	1732.58
849.32	1849.32
849.49	1771.49
849.66	1654.76
849.83	1658.85
850.00	1613.80
850.17	1767.40
850.34	1617.90
850.51	1632.23
850.68	1683.43
850.85	1824.74
851.01	1724.39
851.18	1693.67
851.35	1681.38
851.52	1695.72
851.69	1730.53
851.86	1609.70
852.03	1607.66
852.20	1703.91
852.37	1732.58
852.53	1642.47
852.70	1697.77
852.87	1724.39
853.04	1734.63
853.21	1654.76
853.38	1734.63
853.55	1796.07
853.72	1789.92
853.89	1673.19
854.05	1675.24
854.22	1619.94
854.39	1677.29
854.56	1695.72
854.73	1839.08
854.90	1652.71
855.07	1681.38
855.23	1624.04
855.40	1695.72
855.57	1675.24
855.74	1609.70
855.91	1890.28
856.08	1619.94
856.25	1650.66
856.41	1660.90
856.58	1753.06
856.75	1767.40
856.92	1658.85
857.09	1728.49
857.26	1642.47
857.42	1673.19
857.59	1728.49
857.76	1714.15
857.93	1687.53
858.10	1654.76
858.27	1654.76
858.43	1673.19
858.60	1732.58
858.77	1652.71
858.94	1638.38
859.11	1716.20
859.27	1665.00
859.44	1714.15
859.61	1849.32
859.78	1685.48
859.95	1734.63
860.12	1685.48
860.28	1781.73
860.45	1787.88
860.62	1648.61
860.79	1744.87
860.95	1644.52
861.12	1648.61
861.29	1671.14
861.46	1671.14
861.63	1708.01
861.79	1738.73
861.96	1638.38
862.13	1662.95
862.30	1697.77
862.47	1648.61
862.63	1613.80
862.80	1726.44
862.97	1734.63
863.14	1740.77
863.30	1738.73
863.47	1669.09
863.64	1716.20
863.81	1726.44
863.97	1740.77
864.14	1662.95
864.31	1685.48
864.48	1687.53
864.65	1712.10
864.81	1662.95
864.98	1708.01
865.15	1691.62
865.32	1748.97
865.48	1724.39
865.65	1775.59
865.82	1619.94
865.98	1665.00
866.15	1767.40
866.32	1746.92
866.49	1679.33
866.65	1828.84
866.82	1667.05
866.99	1632.23
867.16	1689.57
867.32	1652.71
867.49	1757.16
867.66	1742.82
867.83	1632.23
867.99	1689.57
868.16	1730.53
868.33	1669.09
868.49	1746.92
868.66	1695.72
868.83	1685.48
868.99	1626.09
869.16	1685.48
869.33	1753.06
869.50	1748.97
869.66	1693.67
869.83	1699.81
870.00	1632.23
870.16	1740.77
870.33	1732.58
870.50	1763.30
870.66	1712.10
870.83	1882.08
871.00	1695.72
871.17	1669.09
871.33	1771.49
871.50	1681.38
871.67	1720.29
871.83	1718.25
872.00	1824.74
872.17	1732.58
872.33	1785.83
872.50	1751.01
872.67	1732.58
872.83	1695.72
873.00	1730.53
873.17	1685.48
873.33	1783.78
873.50	1746.92
873.67	1732.58
873.83	1681.38
874.00	1621.99
874.16	1689.57
874.33	1712.10
874.50	1660.90
874.66	1794.02
874.83	1740.77
875.00	1722.34
875.16	1724.39
875.33	1736.68
875.50	1626.09
875.66	1646.57
875.83	1722.34
875.99	1765.35
876.16	1630.18
876.33	1585.13
876.49	1683.43
876.66	1660.90
876.83	1691.62
876.99	1671.14
877.16	1656.81
877.32	1669.09
877.49	1667.05
877.66	1671.14
877.82	1785.83
877.99	1677.29
878.15	1759.21
878.32	1611.75
878.49	1652.71
878.65	1615.85
878.82	1804.26
878.98	1648.61
879.15	1759.21
879.32	1816.55
879.48	1689.57
879.65	1628.14
879.81	1650.66
879.98	1703.91
880.15	1656.81
880.31	1701.86
880.48	1646.57
880.64	1753.06
880.81	1763.30
880.97	1818.60
881.14	1767.40
881.31	1681.38
881.47	1812.45
881.64	1763.30
881.80	1550.31
881.97	1677.29
882.13	1699.81
882.30	1593.32
882.47	1603.56
882.63	1689.57
882.80	1726.44
882.96	1630.18
883.13	1781.73
883.29	1665.00
883.46	1724.39
883.62	1800.16
883.79	1587.18
883.95	1785.83
884.12	1679.33
884.29	1779.68
884.45	1636.33
884.62	1656.81
884.78	1564.65
884.95	1757.16
885.11	1765.35
885.28	1685.48
885.44	1734.63
885.61	1703.91
885.77	1791.97
885.94	1730.53
886.10	1796.07
886.27	1708.01
886.43	1798.12
886.60	1826.79
886.76	1693.67
886.93	1652.71
887.09	1634.28
887.26	1574.89
887.42	1789.92
887.59	1769.44
887.75	1767.40
887.92	1804.26
888.08	1718.25
888.25	1798.12
888.41	1695.72
888.58	1703.91
888.74	1642.47
888.91	1617.90
>>>>>End Processed Spectral Data<<<<<
