SpectraSuite Data File
++++++++++++++++++++++++++++++++++++
Date: Mon Jun 06 12:16:57 CEST 2016
User: root
Dark Spectrum Present: No
Reference Spectrum Present: No
Number of Sampled Component Spectra: 1
Spectrometers: USB4C02835
Integration Time (usec): 100000 (USB4C02835)
Spectra Averaged: 1 (USB4C02835)
Boxcar Smoothing: 0 (USB4C02835)
Correct for Electrical Dark: No (USB4C02835)
Strobe/Lamp Enabled: No (USB4C02835)
Correct for Detector Non-linearity: No (USB4C02835)
Correct for Stray Light: No (USB4C02835)
Number of Pixels in Processed Spectrum: 3648
>>>>>Begin Processed Spectral Data<<<<<
177.47	1497.07
177.69	1497.07
177.91	1497.07
178.13	1497.07
178.36	1509.35
178.58	1640.42
178.80	1724.39
179.02	1630.18
179.24	1591.27
179.46	1728.49
179.68	1718.25
179.90	1601.51
180.13	1677.29
180.35	1640.42
180.57	1632.23
180.79	1775.59
181.01	1689.57
181.23	1767.40
181.45	1771.49
181.67	1671.14
181.90	1720.29
182.12	1660.90
182.34	1712.10
182.56	1710.05
182.78	1687.53
183.00	1638.38
183.22	1705.96
183.44	1566.70
183.66	1820.64
183.89	1699.81
184.11	1710.05
184.33	1691.62
184.55	1722.34
184.77	1687.53
184.99	1773.54
185.21	1638.38
185.43	1843.17
185.65	1665.00
185.87	1759.21
186.10	1839.08
186.32	1867.75
186.54	1703.91
186.76	1681.38
186.98	1734.63
187.20	1638.38
187.42	1638.38
187.64	1662.95
187.86	1685.48
188.08	1783.78
188.30	1722.34
188.52	1689.57
188.75	1724.39
188.97	1779.68
189.19	1701.86
189.41	1634.28
189.63	1656.81
189.85	1591.27
190.07	1648.61
190.29	1671.14
190.51	1712.10
190.73	1621.99
190.95	1783.78
191.17	1665.00
191.39	1603.56
191.61	1570.79
191.84	1634.28
192.06	1607.66
192.28	1544.17
192.50	1767.40
192.72	1738.73
192.94	1714.15
193.16	1761.25
193.38	1746.92
193.60	1619.94
193.82	1677.29
194.04	1718.25
194.26	1683.43
194.48	1757.16
194.70	1619.94
194.92	1658.85
195.14	1734.63
195.36	1615.85
195.58	1751.01
195.80	1652.71
196.02	1652.71
196.24	1681.38
196.46	1716.20
196.69	1634.28
196.91	1925.09
197.13	1716.20
197.35	1728.49
197.57	1740.77
197.79	1804.26
198.01	1697.77
198.23	1796.07
198.45	1669.09
198.67	1660.90
198.89	1662.95
199.11	1708.01
199.33	1615.85
199.55	1583.08
199.77	1710.05
199.99	1650.66
200.21	1710.05
200.43	1771.49
200.65	1617.90
200.87	1535.98
201.09	1685.48
201.31	1609.70
201.53	1695.72
201.75	1644.52
201.97	1705.96
202.19	1658.85
202.41	1736.68
202.63	1808.36
202.85	1710.05
203.07	1757.16
203.29	1669.09
203.51	1640.42
203.73	1642.47
203.95	1882.08
204.17	1705.96
204.39	1695.72
204.61	1642.47
204.83	1722.34
205.05	1748.97
205.27	1724.39
205.49	1779.68
205.71	1681.38
205.93	1615.85
206.15	1644.52
206.37	1648.61
206.59	1718.25
206.81	1603.56
207.03	1585.13
207.25	1605.61
207.47	1732.58
207.69	1660.90
207.91	1728.49
208.13	1773.54
208.34	1693.67
208.56	1613.80
208.78	1714.15
209.00	1677.29
209.22	1624.04
209.44	1677.29
209.66	1726.44
209.88	1634.28
210.10	1632.23
210.32	1683.43
210.54	1738.73
210.76	1669.09
210.98	1746.92
211.20	1554.41
211.42	1673.19
211.64	1695.72
211.86	1675.24
212.08	1716.20
212.30	1677.29
212.52	1724.39
212.74	1613.80
212.96	1775.59
213.17	1785.83
213.39	1697.77
213.61	1755.11
213.83	1744.87
214.05	1691.62
214.27	1744.87
214.49	1673.19
214.71	1689.57
214.93	1738.73
215.15	1630.18
215.37	1691.62
215.59	1642.47
215.81	1746.92
216.03	1798.12
216.24	1689.57
216.46	1722.34
216.68	1624.04
216.90	1699.81
217.12	1720.29
217.34	1808.36
217.56	1658.85
217.78	1781.73
218.00	1685.48
218.22	1714.15
218.44	1697.77
218.66	1644.52
218.87	1734.63
219.09	1648.61
219.31	1673.19
219.53	1648.61
219.75	1615.85
219.97	1599.46
220.19	1755.11
220.41	1746.92
220.63	1816.55
220.85	1718.25
221.06	1636.33
221.28	1761.25
221.50	1695.72
221.72	1757.16
221.94	1673.19
222.16	1675.24
222.38	1699.81
222.60	1734.63
222.82	1636.33
223.03	1728.49
223.25	1583.08
223.47	1789.92
223.69	1726.44
223.91	1740.77
224.13	1767.40
224.35	1656.81
224.57	1710.05
224.78	1714.15
225.00	1560.55
225.22	1730.53
225.44	1761.25
225.66	1652.71
225.88	1681.38
226.10	1646.57
226.32	1716.20
226.53	1892.32
226.75	1624.04
226.97	1691.62
227.19	1722.34
227.41	1669.09
227.63	1652.71
227.85	1574.89
228.06	1689.57
228.28	1699.81
228.50	1720.29
228.72	1703.91
228.94	1599.46
229.16	1550.31
229.37	1617.90
229.59	1722.34
229.81	1701.86
230.03	1691.62
230.25	1636.33
230.47	1621.99
230.69	1587.18
230.90	1730.53
231.12	1656.81
231.34	1677.29
231.56	1728.49
231.78	1701.86
232.00	1689.57
232.21	1658.85
232.43	1669.09
232.65	1531.88
232.87	1771.49
233.09	1695.72
233.30	1656.81
233.52	1761.25
233.74	1660.90
233.96	1677.29
234.18	1611.75
234.40	1748.97
234.61	1849.32
234.83	1630.18
235.05	1626.09
235.27	1822.69
235.49	1814.50
235.70	1662.95
235.92	1791.97
236.14	1689.57
236.36	1845.22
236.58	1667.05
236.79	1675.24
237.01	1671.14
237.23	1718.25
237.45	1736.68
237.67	1662.95
237.88	1744.87
238.10	1757.16
238.32	1603.56
238.54	1687.53
238.76	1652.71
238.97	1656.81
239.19	1591.27
239.41	1755.11
239.63	1703.91
239.85	1671.14
240.06	1712.10
240.28	1708.01
240.50	1701.86
240.72	1714.15
240.93	1648.61
241.15	1718.25
241.37	1640.42
241.59	1714.15
241.81	1669.09
242.02	1650.66
242.24	1730.53
242.46	1712.10
242.68	1570.79
242.89	1742.82
243.11	1783.78
243.33	1648.61
243.55	1624.04
243.76	1722.34
243.98	1644.52
244.20	1710.05
244.42	1642.47
244.64	1685.48
244.85	1595.37
245.07	1665.00
245.29	1697.77
245.51	1656.81
245.72	1628.14
245.94	1732.58
246.16	1638.38
246.38	1722.34
246.59	1615.85
246.81	1691.62
247.03	1697.77
247.24	1603.56
247.46	1628.14
247.68	1720.29
247.90	1708.01
248.11	1685.48
248.33	1755.11
248.55	1683.43
248.77	1693.67
248.98	1710.05
249.20	1818.60
249.42	1705.96
249.64	1767.40
249.85	1601.51
250.07	1646.57
250.29	1771.49
250.50	1812.45
250.72	1572.84
250.94	1595.37
251.16	1822.69
251.37	1802.21
251.59	1724.39
251.81	1611.75
252.02	1742.82
252.24	1667.05
252.46	1732.58
252.68	1626.09
252.89	1646.57
253.11	1656.81
253.33	1755.11
253.54	1802.21
253.76	1648.61
253.98	1679.33
254.20	1712.10
254.41	1650.66
254.63	1675.24
254.85	1671.14
255.06	1742.82
255.28	1800.16
255.50	1761.25
255.71	1581.03
255.93	1611.75
256.15	1693.67
256.36	1675.24
256.58	1662.95
256.80	1722.34
257.02	1679.33
257.23	1775.59
257.45	1693.67
257.67	1708.01
257.88	1677.29
258.10	1714.15
258.32	1656.81
258.53	1728.49
258.75	1777.64
258.97	1607.66
259.18	1677.29
259.40	1740.77
259.62	1724.39
259.83	1828.84
260.05	1734.63
260.27	1984.48
260.48	1665.00
260.70	1632.23
260.92	1652.71
261.13	1679.33
261.35	1705.96
261.57	1660.90
261.78	1677.29
262.00	1632.23
262.22	1712.10
262.43	1619.94
262.65	1679.33
262.86	1632.23
263.08	1855.46
263.30	1685.48
263.51	1583.08
263.73	1677.29
263.95	1683.43
264.16	1669.09
264.38	1626.09
264.60	1710.05
264.81	1652.71
265.03	1730.53
265.25	1734.63
265.46	1736.68
265.68	1783.78
265.89	1710.05
266.11	1595.37
266.33	1814.50
266.54	1798.12
266.76	1691.62
266.98	1673.19
267.19	1689.57
267.41	1705.96
267.62	1640.42
267.84	1671.14
268.06	1705.96
268.27	1710.05
268.49	1767.40
268.70	1755.11
268.92	1675.24
269.14	1638.38
269.35	1642.47
269.57	1648.61
269.79	1665.00
270.00	1615.85
270.22	1816.55
270.43	1662.95
270.65	1544.17
270.87	1652.71
271.08	1773.54
271.30	1742.82
271.51	1660.90
271.73	1734.63
271.95	1767.40
272.16	1722.34
272.38	1769.44
272.59	1609.70
272.81	1660.90
273.02	1726.44
273.24	1726.44
273.46	1755.11
273.67	1630.18
273.89	1740.77
274.10	1642.47
274.32	1738.73
274.54	1695.72
274.75	1710.05
274.97	1734.63
275.18	1751.01
275.40	1728.49
275.61	1699.81
275.83	1722.34
276.05	1617.90
276.26	1755.11
276.48	1718.25
276.69	1595.37
276.91	1607.66
277.12	1861.60
277.34	1781.73
277.55	1703.91
277.77	1714.15
277.99	1617.90
278.20	1691.62
278.42	1654.76
278.63	1583.08
278.85	1683.43
279.06	1669.09
279.28	1748.97
279.49	1687.53
279.71	1753.06
279.93	1673.19
280.14	1636.33
280.36	1660.90
280.57	1775.59
280.79	1705.96
281.00	1593.32
281.22	1585.13
281.43	1738.73
281.65	1578.98
281.86	1685.48
282.08	1744.87
282.29	1744.87
282.51	1581.03
282.73	1611.75
282.94	1619.94
283.16	1650.66
283.37	1742.82
283.59	1648.61
283.80	1736.68
284.02	1673.19
284.23	1689.57
284.45	1685.48
284.66	1648.61
284.88	1658.85
285.09	1687.53
285.31	1705.96
285.52	1654.76
285.74	1583.08
285.95	1738.73
286.17	1636.33
286.38	1748.97
286.60	1658.85
286.81	1695.72
287.03	1671.14
287.24	1609.70
287.46	1763.30
287.67	1791.97
287.89	1808.36
288.10	1695.72
288.32	1687.53
288.53	1728.49
288.75	1677.29
288.96	1730.53
289.18	1742.82
289.39	1718.25
289.61	1718.25
289.82	1771.49
290.04	1753.06
290.25	1691.62
290.47	1751.01
290.68	1724.39
290.90	1746.92
291.11	1601.51
291.33	1781.73
291.54	1652.71
291.76	1632.23
291.97	1761.25
292.18	1755.11
292.40	1624.04
292.61	1607.66
292.83	1837.03
293.04	1732.58
293.26	1658.85
293.47	1660.90
293.69	1611.75
293.90	1693.67
294.12	1751.01
294.33	1656.81
294.55	1710.05
294.76	1761.25
294.97	1714.15
295.19	1744.87
295.40	1628.14
295.62	1695.72
295.83	1781.73
296.05	1689.57
296.26	1703.91
296.48	1634.28
296.69	1601.51
296.90	1638.38
297.12	1689.57
297.33	1773.54
297.55	1691.62
297.76	1722.34
297.98	1798.12
298.19	1748.97
298.41	1628.14
298.62	1660.90
298.83	1748.97
299.05	1744.87
299.26	1611.75
299.48	1695.72
299.69	1722.34
299.90	1689.57
300.12	1605.61
300.33	1732.58
300.55	1681.38
300.76	1685.48
300.98	1621.99
301.19	1652.71
301.40	1679.33
301.62	1734.63
301.83	1683.43
302.05	1705.96
302.26	1626.09
302.47	1675.24
302.69	1607.66
302.90	1677.29
303.12	1546.22
303.33	1720.29
303.54	1841.12
303.76	1705.96
303.97	1734.63
304.19	1796.07
304.40	1624.04
304.61	1718.25
304.83	1759.21
305.04	1732.58
305.26	1681.38
305.47	1669.09
305.68	1697.77
305.90	1693.67
306.11	1689.57
306.33	1689.57
306.54	1607.66
306.75	1650.66
306.97	1587.18
307.18	1626.09
307.39	1626.09
307.61	1669.09
307.82	1695.72
308.04	1669.09
308.25	1673.19
308.46	1755.11
308.68	1722.34
308.89	1708.01
309.10	1726.44
309.32	1603.56
309.53	1718.25
309.74	1753.06
309.96	1667.05
310.17	1746.92
310.39	1564.65
310.60	1748.97
310.81	1775.59
311.03	1601.51
311.24	1720.29
311.45	1656.81
311.67	1746.92
311.88	1689.57
312.09	1697.77
312.31	1681.38
312.52	1738.73
312.73	1636.33
312.95	1640.42
313.16	1699.81
313.37	1675.24
313.59	1705.96
313.80	1695.72
314.01	1808.36
314.23	1685.48
314.44	1521.64
314.65	1611.75
314.87	1640.42
315.08	1677.29
315.29	1611.75
315.51	1662.95
315.72	1568.74
315.93	1753.06
316.15	1675.24
316.36	1660.90
316.57	1628.14
316.79	1632.23
317.00	1671.14
317.21	1757.16
317.43	1611.75
317.64	1748.97
317.85	1695.72
318.07	1677.29
318.28	1675.24
318.49	1773.54
318.70	1904.61
318.92	1812.45
319.13	1798.12
319.34	1888.23
319.56	1800.16
319.77	1822.69
319.98	1769.44
320.20	1734.63
320.41	1705.96
320.62	1732.58
320.83	1572.84
321.05	1804.26
321.26	1683.43
321.47	1720.29
321.69	1718.25
321.90	1591.27
322.11	1705.96
322.32	1716.20
322.54	1722.34
322.75	1699.81
322.96	1822.69
323.18	1587.18
323.39	1640.42
323.60	1607.66
323.81	1761.25
324.03	1716.20
324.24	1632.23
324.45	1667.05
324.66	1675.24
324.88	1656.81
325.09	1671.14
325.30	1753.06
325.52	1736.68
325.73	1685.48
325.94	1619.94
326.15	1632.23
326.37	1652.71
326.58	1722.34
326.79	1748.97
327.00	1712.10
327.22	1642.47
327.43	1697.77
327.64	1665.00
327.85	1763.30
328.07	1658.85
328.28	1804.26
328.49	1665.00
328.70	1675.24
328.92	1726.44
329.13	1769.44
329.34	1669.09
329.55	1804.26
329.76	1697.77
329.98	1619.94
330.19	1873.89
330.40	1714.15
330.61	1648.61
330.83	1720.29
331.04	1722.34
331.25	1693.67
331.46	1648.61
331.68	1617.90
331.89	1722.34
332.10	1724.39
332.31	1619.94
332.52	1689.57
332.74	1755.11
332.95	1593.32
333.16	1732.58
333.37	1818.60
333.58	1695.72
333.80	1685.48
334.01	1566.70
334.22	1710.05
334.43	1675.24
334.64	1671.14
334.86	1658.85
335.07	1591.27
335.28	1746.92
335.49	1613.80
335.70	1642.47
335.92	1679.33
336.13	1834.98
336.34	1710.05
336.55	1734.63
336.76	1669.09
336.98	1634.28
337.19	1636.33
337.40	1808.36
337.61	1789.92
337.82	1673.19
338.04	1863.65
338.25	1650.66
338.46	1716.20
338.67	1691.62
338.88	1638.38
339.09	1665.00
339.31	1732.58
339.52	1640.42
339.73	1636.33
339.94	1656.81
340.15	1701.86
340.36	1591.27
340.58	1724.39
340.79	1583.08
341.00	1669.09
341.21	1628.14
341.42	1751.01
341.63	1656.81
341.85	1744.87
342.06	1671.14
342.27	1632.23
342.48	1677.29
342.69	1613.80
342.90	1699.81
343.12	1771.49
343.33	1685.48
343.54	1685.48
343.75	1781.73
343.96	1685.48
344.17	1744.87
344.38	1705.96
344.60	1665.00
344.81	1718.25
345.02	1626.09
345.23	1773.54
345.44	1824.74
345.65	1724.39
345.86	1787.88
346.07	1658.85
346.29	1669.09
346.50	1759.21
346.71	1728.49
346.92	1736.68
347.13	1779.68
347.34	1607.66
347.55	1703.91
347.76	1787.88
347.98	1613.80
348.19	1726.44
348.40	1757.16
348.61	1679.33
348.82	1767.40
349.03	1712.10
349.24	1675.24
349.45	1851.36
349.66	1558.50
349.88	1640.42
350.09	1722.34
350.30	1767.40
350.51	1779.68
350.72	1685.48
350.93	1757.16
351.14	1720.29
351.35	1718.25
351.56	1701.86
351.77	1751.01
351.99	1767.40
352.20	1771.49
352.41	1765.35
352.62	1591.27
352.83	1714.15
353.04	1693.67
353.25	1732.58
353.46	1794.02
353.67	1742.82
353.88	1533.93
354.09	1626.09
354.30	1675.24
354.52	1724.39
354.73	1683.43
354.94	1605.61
355.15	1728.49
355.36	1728.49
355.57	1722.34
355.78	1746.92
355.99	1613.80
356.20	1763.30
356.41	1800.16
356.62	1708.01
356.83	1746.92
357.04	1769.44
357.25	1566.70
357.46	1705.96
357.68	1648.61
357.89	1681.38
358.10	1763.30
358.31	1662.95
358.52	1693.67
358.73	1583.08
358.94	1685.48
359.15	1652.71
359.36	1675.24
359.57	1683.43
359.78	1665.00
359.99	1669.09
360.20	1650.66
360.41	1638.38
360.62	1699.81
360.83	1640.42
361.04	1722.34
361.25	1671.14
361.46	1771.49
361.67	1767.40
361.88	1726.44
362.09	1771.49
362.30	1685.48
362.51	1662.95
362.72	1648.61
362.93	1710.05
363.14	1734.63
363.35	1714.15
363.56	1611.75
363.78	1837.03
363.99	1714.15
364.20	1673.19
364.41	1728.49
364.62	1843.17
364.83	1718.25
365.04	1677.29
365.25	1687.53
365.46	1742.82
365.67	1736.68
365.88	1601.51
366.09	1677.29
366.30	1636.33
366.51	1724.39
366.72	1691.62
366.93	1681.38
367.14	1681.38
367.35	1820.64
367.56	1578.98
367.77	1744.87
367.98	1648.61
368.18	1718.25
368.39	1718.25
368.60	1722.34
368.81	1710.05
369.02	1652.71
369.23	1728.49
369.44	1576.94
369.65	1683.43
369.86	1671.14
370.07	1722.34
370.28	1693.67
370.49	1748.97
370.70	1742.82
370.91	1621.99
371.12	1591.27
371.33	1802.21
371.54	1673.19
371.75	1775.59
371.96	1624.04
372.17	1710.05
372.38	1720.29
372.59	1679.33
372.80	1646.57
373.01	1673.19
373.22	1746.92
373.43	1699.81
373.64	1615.85
373.85	1787.88
374.06	1771.49
374.26	1753.06
374.47	1724.39
374.68	1748.97
374.89	1763.30
375.10	1654.76
375.31	1683.43
375.52	1718.25
375.73	1626.09
375.94	1671.14
376.15	1705.96
376.36	1695.72
376.57	1630.18
376.78	1726.44
376.99	1710.05
377.20	1769.44
377.40	1656.81
377.61	1820.64
377.82	1570.79
378.03	1736.68
378.24	1703.91
378.45	1654.76
378.66	1677.29
378.87	1613.80
379.08	1642.47
379.29	1675.24
379.50	1779.68
379.71	1691.62
379.91	1708.01
380.12	1681.38
380.33	1675.24
380.54	1714.15
380.75	1722.34
380.96	1665.00
381.17	1681.38
381.38	1703.91
381.59	1638.38
381.80	1691.62
382.00	1861.60
382.21	1667.05
382.42	1927.14
382.63	1785.83
382.84	1759.21
383.05	1759.21
383.26	1843.17
383.47	1710.05
383.68	1845.22
383.88	1806.31
384.09	1736.68
384.30	1820.64
384.51	1615.85
384.72	1671.14
384.93	1574.89
385.14	1726.44
385.35	1763.30
385.55	1634.28
385.76	1714.15
385.97	1652.71
386.18	1640.42
386.39	1605.61
386.60	1667.05
386.81	1673.19
387.02	1679.33
387.22	1667.05
387.43	1767.40
387.64	1824.74
387.85	1869.80
388.06	2189.28
388.27	4407.23
388.48	6858.65
388.68	8333.18
388.89	9815.91
389.10	9961.32
389.31	8656.76
389.52	7792.52
389.73	6922.13
389.93	6360.99
390.14	5828.52
390.35	5193.65
390.56	4677.56
390.77	3993.54
390.98	3074.00
391.18	2453.47
391.39	2109.41
391.60	1818.60
391.81	1826.79
392.02	1746.92
392.23	1794.02
392.43	1757.16
392.64	1804.26
392.85	1675.24
393.06	1785.83
393.27	1736.68
393.47	1681.38
393.68	1673.19
393.89	1722.34
394.10	1714.15
394.31	1720.29
394.52	1648.61
394.72	1628.14
394.93	1736.68
395.14	1591.27
395.35	1722.34
395.56	1613.80
395.76	1669.09
395.97	1683.43
396.18	1779.68
396.39	1869.80
396.60	1968.10
396.80	1947.62
397.01	1814.50
397.22	1757.16
397.43	1794.02
397.64	1693.67
397.84	1798.12
398.05	1843.17
398.26	1693.67
398.47	1814.50
398.67	1787.88
398.88	1757.16
399.09	1757.16
399.30	1730.53
399.51	1757.16
399.71	1703.91
399.92	1759.21
400.13	1685.48
400.34	1665.00
400.54	1675.24
400.75	1839.08
400.96	1683.43
401.17	1769.44
401.37	1757.16
401.58	1667.05
401.79	1679.33
402.00	1877.99
402.21	2009.06
402.41	1925.09
402.62	2027.49
402.83	2050.02
403.04	1943.52
403.24	1998.82
403.45	1798.12
403.66	1877.99
403.87	1779.68
404.07	1949.67
404.28	1908.71
404.49	1855.46
404.70	1783.78
404.90	1736.68
405.11	1834.98
405.32	1708.01
405.52	1697.77
405.73	1615.85
405.94	1638.38
406.15	1617.90
406.35	1718.25
406.56	1673.19
406.77	1759.21
406.98	1736.68
407.18	1646.57
407.39	1765.35
407.60	1685.48
407.80	1708.01
408.01	1667.05
408.22	1748.97
408.43	1626.09
408.63	1689.57
408.84	1789.92
409.05	1734.63
409.25	1681.38
409.46	1642.47
409.67	1624.04
409.88	1687.53
410.08	1722.34
410.29	1695.72
410.50	1748.97
410.70	1611.75
410.91	1601.51
411.12	1726.44
411.32	1742.82
411.53	1685.48
411.74	1777.64
411.95	1789.92
412.15	1705.96
412.36	1802.21
412.57	1738.73
412.77	1740.77
412.98	1669.09
413.19	1730.53
413.39	1621.99
413.60	1820.64
413.81	1783.78
414.01	1619.94
414.22	1744.87
414.43	1767.40
414.63	1636.33
414.84	1785.83
415.05	1722.34
415.25	1644.52
415.46	1662.95
415.67	1658.85
415.87	1685.48
416.08	1671.14
416.29	1687.53
416.49	1748.97
416.70	1638.38
416.91	1675.24
417.11	1652.71
417.32	1806.31
417.53	1769.44
417.73	1712.10
417.94	1705.96
418.15	1787.88
418.35	1693.67
418.56	1677.29
418.77	1824.74
418.97	1710.05
419.18	1628.14
419.38	1556.46
419.59	1695.72
419.80	1759.21
420.00	1681.38
420.21	1654.76
420.42	1726.44
420.62	1671.14
420.83	1603.56
421.04	1757.16
421.24	1701.86
421.45	1726.44
421.65	1699.81
421.86	1689.57
422.07	1712.10
422.27	1669.09
422.48	1734.63
422.69	1675.24
422.89	1693.67
423.10	1632.23
423.30	1578.98
423.51	1753.06
423.72	1734.63
423.92	1710.05
424.13	1673.19
424.33	1751.01
424.54	1728.49
424.75	1689.57
424.95	1781.73
425.16	1716.20
425.36	1673.19
425.57	1773.54
425.78	1728.49
425.98	1667.05
426.19	1703.91
426.39	1667.05
426.60	1708.01
426.81	1699.81
427.01	1765.35
427.22	1617.90
427.42	1628.14
427.63	1689.57
427.83	1742.82
428.04	1791.97
428.25	1714.15
428.45	1763.30
428.66	1773.54
428.86	1710.05
429.07	1697.77
429.28	1689.57
429.48	1660.90
429.69	1691.62
429.89	1734.63
430.10	1611.75
430.30	1710.05
430.51	1744.87
430.71	1701.86
430.92	1687.53
431.13	1660.90
431.33	1771.49
431.54	1644.52
431.74	1824.74
431.95	1853.41
432.15	1665.00
432.36	1705.96
432.56	1783.78
432.77	1832.93
432.98	1839.08
433.18	1791.97
433.39	1660.90
433.59	1671.14
433.80	1771.49
434.00	1794.02
434.21	1654.76
434.41	1667.05
434.62	1834.98
434.82	1576.94
435.03	1689.57
435.23	1714.15
435.44	1673.19
435.64	1812.45
435.85	1716.20
436.06	1767.40
436.26	1693.67
436.47	1722.34
436.67	1667.05
436.88	1662.95
437.08	1673.19
437.29	1818.60
437.49	1732.58
437.70	1687.53
437.90	1701.86
438.11	1863.65
438.31	1757.16
438.52	1849.32
438.72	1832.93
438.93	1875.94
439.13	1775.59
439.34	1802.21
439.54	1712.10
439.75	1796.07
439.95	1773.54
440.16	1697.77
440.36	1708.01
440.57	1818.60
440.77	1779.68
440.98	1751.01
441.18	1814.50
441.39	1705.96
441.59	1642.47
441.80	1742.82
442.00	1712.10
442.21	1730.53
442.41	1652.71
442.62	1755.11
442.82	1642.47
443.02	1630.18
443.23	1691.62
443.43	1683.43
443.64	1861.60
443.84	1634.28
444.05	1824.74
444.25	1753.06
444.46	1665.00
444.66	1751.01
444.87	1783.78
445.07	1667.05
445.28	1724.39
445.48	1814.50
445.69	1722.34
445.89	1902.56
446.09	1701.86
446.30	2002.91
446.50	2680.79
446.71	3755.97
446.91	4257.73
447.12	4868.02
447.32	4769.72
447.53	4446.14
447.73	3870.66
447.93	3573.71
448.14	3356.62
448.34	3307.47
448.55	2891.73
448.75	2762.71
448.96	2611.16
449.16	2449.37
449.36	2195.42
449.57	2027.49
449.77	1910.75
449.98	1730.53
450.18	1818.60
450.39	1740.77
450.59	1695.72
450.79	1714.15
451.00	1665.00
451.20	1785.83
451.41	1673.19
451.61	1769.44
451.81	1691.62
452.02	1687.53
452.22	1732.58
452.43	1701.86
452.63	1689.57
452.84	1662.95
453.04	1671.14
453.24	1744.87
453.45	1714.15
453.65	1669.09
453.86	1740.77
454.06	1777.64
454.26	1716.20
454.47	1601.51
454.67	1794.02
454.87	1763.30
455.08	1765.35
455.28	1806.31
455.49	1820.64
455.69	1685.48
455.89	1808.36
456.10	1746.92
456.30	1681.38
456.51	1714.15
456.71	1701.86
456.91	1703.91
457.12	1695.72
457.32	1699.81
457.52	1619.94
457.73	1763.30
457.93	1730.53
458.14	1697.77
458.34	1615.85
458.54	1689.57
458.75	1648.61
458.95	1751.01
459.15	1734.63
459.36	1761.25
459.56	1767.40
459.76	1763.30
459.97	1755.11
460.17	1689.57
460.37	1738.73
460.58	1648.61
460.78	1734.63
460.99	1689.57
461.19	1665.00
461.39	1630.18
461.60	1742.82
461.80	1705.96
462.00	1665.00
462.21	1683.43
462.41	1677.29
462.61	1630.18
462.82	1599.46
463.02	1763.30
463.22	1738.73
463.43	1761.25
463.63	1722.34
463.83	1808.36
464.04	1804.26
464.24	1671.14
464.44	1779.68
464.64	1781.73
464.85	1660.90
465.05	1808.36
465.25	1800.16
465.46	1775.59
465.66	1710.05
465.86	1798.12
466.07	1779.68
466.27	1646.57
466.47	1615.85
466.68	1673.19
466.88	1820.64
467.08	1722.34
467.29	1697.77
467.49	1736.68
467.69	1722.34
467.89	1759.21
468.10	1708.01
468.30	1746.92
468.50	1791.97
468.71	1785.83
468.91	1613.80
469.11	1824.74
469.31	1740.77
469.52	1662.95
469.72	1808.36
469.92	1826.79
470.13	1708.01
470.33	1726.44
470.53	1845.22
470.73	2084.83
470.94	2289.63
471.14	2303.96
471.34	2484.19
471.54	2369.50
471.75	2250.72
471.95	2176.99
472.15	2000.87
472.36	2041.82
472.56	2062.30
472.76	1959.91
472.96	1978.34
473.17	1970.15
473.37	1976.29
473.57	1740.77
473.77	1789.92
473.98	1667.05
474.18	1677.29
474.38	1947.62
474.58	1732.58
474.79	1701.86
474.99	1691.62
475.19	1791.97
475.39	1718.25
475.60	1734.63
475.80	1730.53
476.00	1751.01
476.20	1656.81
476.41	1748.97
476.61	1847.27
476.81	1763.30
477.01	1712.10
477.21	1837.03
477.42	1742.82
477.62	1720.29
477.82	1740.77
478.02	1646.57
478.23	1800.16
478.43	1667.05
478.63	1671.14
478.83	1615.85
479.03	1689.57
479.24	1746.92
479.44	1830.88
479.64	1732.58
479.84	1634.28
480.04	1681.38
480.25	1796.07
480.45	1693.67
480.65	1693.67
480.85	1765.35
481.06	1624.04
481.26	1746.92
481.46	1755.11
481.66	1730.53
481.86	1615.85
482.06	1722.34
482.27	1748.97
482.47	1648.61
482.67	1701.86
482.87	1687.53
483.07	1742.82
483.28	1617.90
483.48	1617.90
483.68	1705.96
483.88	1673.19
484.08	1535.98
484.29	1734.63
484.49	1671.14
484.69	1667.05
484.89	1843.17
485.09	1703.91
485.29	1753.06
485.50	1777.64
485.70	1632.23
485.90	1808.36
486.10	1722.34
486.30	1705.96
486.50	1847.27
486.71	1722.34
486.91	1746.92
487.11	1722.34
487.31	1617.90
487.51	1753.06
487.71	1693.67
487.91	1646.57
488.12	1654.76
488.32	1681.38
488.52	1652.71
488.72	1634.28
488.92	1681.38
489.12	1724.39
489.32	1701.86
489.53	1714.15
489.73	1642.47
489.93	1806.31
490.13	1585.13
490.33	1621.99
490.53	1732.58
490.73	1753.06
490.94	1611.75
491.14	1736.68
491.34	1894.37
491.54	2150.37
491.74	2574.30
491.94	2901.97
492.14	3006.42
492.34	3035.09
492.54	2746.33
492.75	2478.04
492.95	2369.50
493.15	2346.97
493.35	2332.64
493.55	2291.68
493.75	2156.51
493.95	2090.98
494.15	1953.76
494.35	1886.18
494.56	1937.38
494.76	1734.63
494.96	1730.53
495.16	1787.88
495.36	1746.92
495.56	1769.44
495.76	1730.53
495.96	1712.10
496.16	1726.44
496.36	1814.50
496.56	1759.21
496.77	1808.36
496.97	1677.29
497.17	1736.68
497.37	1660.90
497.57	1771.49
497.77	1708.01
497.97	1693.67
498.17	1791.97
498.37	1617.90
498.57	1748.97
498.77	1648.61
498.97	1769.44
499.17	1812.45
499.38	1744.87
499.58	1712.10
499.78	1730.53
499.98	1775.59
500.18	1689.57
500.38	1683.43
500.58	1886.18
500.78	2484.19
500.98	4503.48
501.18	6037.41
501.38	6766.49
501.58	7104.40
501.78	6858.65
501.98	5681.07
502.18	5058.48
502.38	4417.47
502.58	4155.33
502.78	3798.98
502.98	3749.83
503.18	3448.78
503.38	3278.80
503.59	2938.84
503.79	2664.41
503.99	2580.44
504.19	2248.67
504.39	2179.04
504.59	2222.05
504.79	2078.69
504.99	2050.02
505.19	1824.74
505.39	1851.36
505.59	1914.85
505.79	1882.08
505.99	1832.93
506.19	1806.31
506.39	1849.32
506.59	1746.92
506.79	1746.92
506.99	1775.59
507.19	1685.48
507.39	1767.40
507.59	1714.15
507.79	1665.00
507.99	1628.14
508.19	1710.05
508.39	1683.43
508.59	1742.82
508.79	1830.88
508.99	1845.22
509.19	1697.77
509.39	1765.35
509.59	1656.81
509.79	1654.76
509.99	1660.90
510.19	1787.88
510.39	1845.22
510.59	1759.21
510.79	1728.49
510.99	1677.29
511.19	1800.16
511.39	1794.02
511.59	1779.68
511.79	1783.78
511.99	1822.69
512.19	1802.21
512.38	1724.39
512.58	1697.77
512.78	1722.34
512.98	1791.97
513.18	1845.22
513.38	1570.79
513.58	1765.35
513.78	1621.99
513.98	1675.24
514.18	1777.64
514.38	1607.66
514.58	1769.44
514.78	1693.67
514.98	1677.29
515.18	1742.82
515.38	1714.15
515.58	1888.23
515.78	1732.58
515.98	1695.72
516.18	1761.25
516.38	1667.05
516.57	1656.81
516.77	1736.68
516.97	1767.40
517.17	1699.81
517.37	1648.61
517.57	1804.26
517.77	1705.96
517.97	1681.38
518.17	1724.39
518.37	1673.19
518.57	1617.90
518.77	1691.62
518.97	1683.43
519.16	1742.82
519.36	1781.73
519.56	1671.14
519.76	1705.96
519.96	1697.77
520.16	1834.98
520.36	1669.09
520.56	1796.07
520.76	1660.90
520.96	1755.11
521.16	1759.21
521.35	1789.92
521.55	1791.97
521.75	1767.40
521.95	1712.10
522.15	1703.91
522.35	1689.57
522.55	1679.33
522.75	1677.29
522.95	1685.48
523.14	1718.25
523.34	1804.26
523.54	1642.47
523.74	1810.40
523.94	1714.15
524.14	1705.96
524.34	1660.90
524.54	1746.92
524.73	1652.71
524.93	1820.64
525.13	1738.73
525.33	1585.13
525.53	1896.42
525.73	1785.83
525.93	1744.87
526.13	1744.87
526.32	1656.81
526.52	1763.30
526.72	1755.11
526.92	1705.96
527.12	1648.61
527.32	1617.90
527.52	1726.44
527.71	1804.26
527.91	1632.23
528.11	1734.63
528.31	1728.49
528.51	1722.34
528.71	1748.97
528.90	1697.77
529.10	1834.98
529.30	1781.73
529.50	1642.47
529.70	1705.96
529.90	1603.56
530.09	1761.25
530.29	1722.34
530.49	1691.62
530.69	1785.83
530.89	1699.81
531.09	1777.64
531.28	1695.72
531.48	1791.97
531.68	1685.48
531.88	1724.39
532.08	1814.50
532.28	1705.96
532.47	1787.88
532.67	1736.68
532.87	1703.91
533.07	1740.77
533.27	1753.06
533.46	1763.30
533.66	1759.21
533.86	1675.24
534.06	1755.11
534.26	1773.54
534.45	1585.13
534.65	1710.05
534.85	1779.68
535.05	1671.14
535.25	1751.01
535.44	1628.14
535.64	1804.26
535.84	1667.05
536.04	1587.18
536.24	1691.62
536.43	1734.63
536.63	1734.63
536.83	1714.15
537.03	1695.72
537.22	1665.00
537.42	1665.00
537.62	1779.68
537.82	1578.98
538.02	1791.97
538.21	1796.07
538.41	1865.70
538.61	1724.39
538.81	1724.39
539.00	1771.49
539.20	1671.14
539.40	1681.38
539.60	1705.96
539.79	1740.77
539.99	1654.76
540.19	1658.85
540.39	1673.19
540.58	1789.92
540.78	1775.59
540.98	1742.82
541.18	1824.74
541.37	1740.77
541.57	1771.49
541.77	1783.78
541.97	1722.34
542.16	1574.89
542.36	1703.91
542.56	1654.76
542.76	1851.36
542.95	1863.65
543.15	1759.21
543.35	1738.73
543.54	1642.47
543.74	1722.34
543.94	1765.35
544.14	1773.54
544.33	1751.01
544.53	1740.77
544.73	1648.61
544.93	1740.77
545.12	1712.10
545.32	1718.25
545.52	1779.68
545.71	1599.46
545.91	1732.58
546.11	1730.53
546.30	1662.95
546.50	1640.42
546.70	1814.50
546.90	1767.40
547.09	1640.42
547.29	1753.06
547.49	1669.09
547.68	1660.90
547.88	1718.25
548.08	1740.77
548.27	2271.20
548.47	1705.96
548.67	1714.15
548.87	1767.40
549.06	1642.47
549.26	1742.82
549.46	1744.87
549.65	1738.73
549.85	1773.54
550.05	1751.01
550.24	1730.53
550.44	1708.01
550.64	1742.82
550.83	1656.81
551.03	1787.88
551.23	1796.07
551.42	1759.21
551.62	1642.47
551.82	1736.68
552.01	1730.53
552.21	1748.97
552.41	1712.10
552.60	1802.21
552.80	1730.53
553.00	1701.86
553.19	1699.81
553.39	1753.06
553.59	1628.14
553.78	1724.39
553.98	1769.44
554.17	1628.14
554.37	1753.06
554.57	1732.58
554.76	1724.39
554.96	1689.57
555.16	1708.01
555.35	1671.14
555.55	1746.92
555.75	1769.44
555.94	1808.36
556.14	1695.72
556.33	1724.39
556.53	1761.25
556.73	1720.29
556.92	1798.12
557.12	1800.16
557.32	1791.97
557.51	1847.27
557.71	1755.11
557.90	1820.64
558.10	1775.59
558.30	1718.25
558.49	1724.39
558.69	1734.63
558.88	1701.86
559.08	1724.39
559.28	1734.63
559.47	1761.25
559.67	1734.63
559.86	1798.12
560.06	1791.97
560.26	1757.16
560.45	1748.97
560.65	1634.28
560.84	1708.01
561.04	1601.51
561.24	1697.77
561.43	1695.72
561.63	1785.83
561.82	1798.12
562.02	1820.64
562.22	1734.63
562.41	1679.33
562.61	1683.43
562.80	1662.95
563.00	1853.41
563.19	1746.92
563.39	1753.06
563.59	1742.82
563.78	1607.66
563.98	1593.32
564.17	1726.44
564.37	1587.18
564.56	1726.44
564.76	1683.43
564.96	1816.55
565.15	1726.44
565.35	1898.47
565.54	1744.87
565.74	1816.55
565.93	1738.73
566.13	1738.73
566.32	1812.45
566.52	1826.79
566.71	1755.11
566.91	1804.26
567.11	1697.77
567.30	1658.85
567.50	1732.58
567.69	1775.59
567.89	1642.47
568.08	1730.53
568.28	1804.26
568.47	1665.00
568.67	1816.55
568.86	1724.39
569.06	1781.73
569.25	1679.33
569.45	1679.33
569.64	1718.25
569.84	1755.11
570.04	1720.29
570.23	1626.09
570.43	1689.57
570.62	1740.77
570.82	1730.53
571.01	1726.44
571.21	1642.47
571.40	1626.09
571.60	1746.92
571.79	1826.79
571.99	1742.82
572.18	1665.00
572.38	1751.01
572.57	1695.72
572.77	1757.16
572.96	1820.64
573.16	1755.11
573.35	1726.44
573.55	1820.64
573.74	1701.86
573.94	1677.29
574.13	1720.29
574.33	1734.63
574.52	1691.62
574.71	1783.78
574.91	1751.01
575.10	1648.61
575.30	1693.67
575.49	1662.95
575.69	1687.53
575.88	1794.02
576.08	1726.44
576.27	1763.30
576.47	1726.44
576.66	1841.12
576.86	1828.84
577.05	1810.40
577.25	1726.44
577.44	1849.32
577.64	1751.01
577.83	1751.01
578.02	1683.43
578.22	1806.31
578.41	1841.12
578.61	1726.44
578.80	1718.25
579.00	1738.73
579.19	1703.91
579.39	1755.11
579.58	1802.21
579.77	1652.71
579.97	1849.32
580.16	1779.68
580.36	1789.92
580.55	1828.84
580.75	1753.06
580.94	1740.77
581.13	1927.14
581.33	1828.84
581.52	1738.73
581.72	1851.36
581.91	1765.35
582.11	1675.24
582.30	1804.26
582.49	1775.59
582.69	1791.97
582.88	1808.36
583.08	1742.82
583.27	1839.08
583.47	1744.87
583.66	1689.57
583.85	1656.81
584.05	1718.25
584.24	1912.80
584.44	1800.16
584.63	1845.22
584.82	1763.30
585.02	1732.58
585.21	1806.31
585.41	1798.12
585.60	1714.15
585.79	1859.56
585.99	1923.04
586.18	1832.93
586.37	2138.08
586.57	3432.40
586.76	10178.40
586.96	24919.68
587.15	35106.28
587.34	41385.35
587.54	43519.34
587.73	37690.82
587.93	26828.39
588.12	21921.46
588.31	18802.40
588.51	16748.29
588.70	15464.21
588.89	14520.10
589.09	12838.72
589.28	11310.93
589.47	9566.06
589.67	8134.53
589.86	6535.07
590.06	5035.96
590.25	3925.96
590.44	3147.73
590.64	2609.11
590.83	2306.01
591.02	2117.60
591.22	1988.58
591.41	1867.75
591.60	1843.17
591.80	1955.81
591.99	1753.06
592.18	1822.69
592.38	1882.08
592.57	1765.35
592.76	1843.17
592.96	1804.26
593.15	1720.29
593.34	1746.92
593.54	1746.92
593.73	1736.68
593.92	1755.11
594.12	1763.30
594.31	1773.54
594.50	1804.26
594.70	1654.76
594.89	1871.84
595.08	1652.71
595.28	1796.07
595.47	1892.32
595.66	1832.93
595.86	1632.23
596.05	1794.02
596.24	1683.43
596.43	1828.84
596.63	1763.30
596.82	1771.49
597.01	1738.73
597.21	1830.88
597.40	1755.11
597.59	1736.68
597.79	1701.86
597.98	1734.63
598.17	1775.59
598.36	1746.92
598.56	1746.92
598.75	1665.00
598.94	1748.97
599.14	1712.10
599.33	1669.09
599.52	1781.73
599.71	1669.09
599.91	1740.77
600.10	1761.25
600.29	1746.92
600.48	1685.48
600.68	1748.97
600.87	1703.91
601.06	1728.49
601.26	1685.48
601.45	1722.34
601.64	1757.16
601.83	1808.36
602.03	1730.53
602.22	1667.05
602.41	1744.87
602.60	1818.60
602.80	1769.44
602.99	1767.40
603.18	1648.61
603.37	1810.40
603.57	1759.21
603.76	1722.34
603.95	1716.20
604.14	1708.01
604.34	1654.76
604.53	1705.96
604.72	1658.85
604.91	1798.12
605.10	1785.83
605.30	1675.24
605.49	1865.70
605.68	1808.36
605.87	1791.97
606.07	1662.95
606.26	1761.25
606.45	1693.67
606.64	1742.82
606.84	1753.06
607.03	1736.68
607.22	1718.25
607.41	1646.57
607.60	1679.33
607.80	1730.53
607.99	1781.73
608.18	1773.54
608.37	1708.01
608.56	1689.57
608.76	1648.61
608.95	1722.34
609.14	1665.00
609.33	1708.01
609.52	1730.53
609.72	1783.78
609.91	1789.92
610.10	1775.59
610.29	1796.07
610.48	1771.49
610.68	1763.30
610.87	1699.81
611.06	1806.31
611.25	1673.19
611.44	1837.03
611.63	1665.00
611.83	1759.21
612.02	1685.48
612.21	1839.08
612.40	1630.18
612.59	1658.85
612.79	1615.85
612.98	1628.14
613.17	1748.97
613.36	1654.76
613.55	1771.49
613.74	1576.94
613.93	1695.72
614.13	1724.39
614.32	1716.20
614.51	1775.59
614.70	1697.77
614.89	1675.24
615.08	1724.39
615.28	2095.07
615.47	1640.42
615.66	1716.20
615.85	1691.62
616.04	1787.88
616.23	1654.76
616.42	1705.96
616.62	1761.25
616.81	1714.15
617.00	1714.15
617.19	1738.73
617.38	1746.92
617.57	1742.82
617.76	1738.73
617.95	1746.92
618.15	1791.97
618.34	1759.21
618.53	1621.99
618.72	1710.05
618.91	1796.07
619.10	1830.88
619.29	1718.25
619.48	1714.15
619.68	1609.70
619.87	1685.48
620.06	1712.10
620.25	1728.49
620.44	1626.09
620.63	1691.62
620.82	1759.21
621.01	1691.62
621.20	1691.62
621.39	1699.81
621.59	1755.11
621.78	1695.72
621.97	1767.40
622.16	1791.97
622.35	1714.15
622.54	1800.16
622.73	1667.05
622.92	1652.71
623.11	1875.94
623.30	1734.63
623.49	1681.38
623.68	1718.25
623.88	1773.54
624.07	1648.61
624.26	1732.58
624.45	1701.86
624.64	1662.95
624.83	1732.58
625.02	1665.00
625.21	1658.85
625.40	1630.18
625.59	1843.17
625.78	1693.67
625.97	1873.89
626.16	1841.12
626.35	1697.77
626.54	1677.29
626.74	1742.82
626.93	1648.61
627.12	1652.71
627.31	1759.21
627.50	1738.73
627.69	1771.49
627.88	1665.00
628.07	1746.92
628.26	1644.52
628.45	1720.29
628.64	1665.00
628.83	1685.48
629.02	1632.23
629.21	1681.38
629.40	1697.77
629.59	1597.42
629.78	1638.38
629.97	1679.33
630.16	1744.87
630.35	1722.34
630.54	1648.61
630.73	1685.48
630.92	1767.40
631.11	1673.19
631.30	1783.78
631.49	1734.63
631.68	1683.43
631.87	1660.90
632.06	1650.66
632.25	1828.84
632.44	1675.24
632.63	1714.15
632.82	1673.19
633.01	1630.18
633.20	1746.92
633.39	1630.18
633.58	1560.55
633.77	1644.52
633.96	1763.30
634.15	1800.16
634.34	1693.67
634.53	1658.85
634.72	1724.39
634.91	1574.89
635.10	1755.11
635.29	1783.78
635.48	1671.14
635.67	1722.34
635.86	1570.79
636.05	1755.11
636.24	1703.91
636.43	1695.72
636.62	1839.08
636.81	1574.89
637.00	1720.29
637.19	1714.15
637.38	1671.14
637.57	1673.19
637.76	1646.57
637.95	1640.42
638.14	1621.99
638.33	1685.48
638.52	1652.71
638.71	1628.14
638.89	1624.04
639.08	1847.27
639.27	1722.34
639.46	1722.34
639.65	1785.83
639.84	1748.97
640.03	1806.31
640.22	1708.01
640.41	1746.92
640.60	1685.48
640.79	1652.71
640.98	1703.91
641.17	1732.58
641.36	1773.54
641.55	1710.05
641.74	1615.85
641.92	1581.03
642.11	1705.96
642.30	1667.05
642.49	1712.10
642.68	1697.77
642.87	1761.25
643.06	1789.92
643.25	1656.81
643.44	1697.77
643.63	1726.44
643.82	1728.49
644.00	1654.76
644.19	1714.15
644.38	1554.41
644.57	1742.82
644.76	1722.34
644.95	1656.81
645.14	1777.64
645.33	1650.66
645.52	1699.81
645.71	1636.33
645.89	1593.32
646.08	1714.15
646.27	1716.20
646.46	1796.07
646.65	1667.05
646.84	1716.20
647.03	1550.31
647.22	1822.69
647.40	1724.39
647.59	1656.81
647.78	1624.04
647.97	1562.60
648.16	1624.04
648.35	1732.58
648.54	1732.58
648.73	1675.24
648.91	1751.01
649.10	1744.87
649.29	1712.10
649.48	1701.86
649.67	1736.68
649.86	1722.34
650.05	1658.85
650.23	1746.92
650.42	1652.71
650.61	1720.29
650.80	1689.57
650.99	1861.60
651.18	1746.92
651.36	1783.78
651.55	1693.67
651.74	1763.30
651.93	1675.24
652.12	1691.62
652.31	1718.25
652.49	1714.15
652.68	1634.28
652.87	1810.40
653.06	1685.48
653.25	1806.31
653.44	1621.99
653.62	1806.31
653.81	1722.34
654.00	1738.73
654.19	1742.82
654.38	1869.80
654.56	1720.29
654.75	1687.53
654.94	1730.53
655.13	1679.33
655.32	1646.57
655.51	1757.16
655.69	1695.72
655.88	1695.72
656.07	1648.61
656.26	1710.05
656.45	1615.85
656.63	1738.73
656.82	1763.30
657.01	1734.63
657.20	1708.01
657.38	1757.16
657.57	1660.90
657.76	1671.14
657.95	1755.11
658.14	1708.01
658.32	1757.16
658.51	1642.47
658.70	1683.43
658.89	1736.68
659.08	1693.67
659.26	1759.21
659.45	1669.09
659.64	1759.21
659.83	1658.85
660.01	1806.31
660.20	1726.44
660.39	1789.92
660.58	1597.42
660.76	1812.45
660.95	1644.52
661.14	1640.42
661.33	1601.51
661.51	1673.19
661.70	1656.81
661.89	1738.73
662.08	1708.01
662.26	1615.85
662.45	1632.23
662.64	1796.07
662.83	1751.01
663.01	1656.81
663.20	1669.09
663.39	1787.88
663.58	1675.24
663.76	1697.77
663.95	1771.49
664.14	1660.90
664.32	1646.57
664.51	1665.00
664.70	1535.98
664.89	1785.83
665.07	1648.61
665.26	1765.35
665.45	1689.57
665.64	1765.35
665.82	1697.77
666.01	1722.34
666.20	1703.91
666.38	1751.01
666.57	1785.83
666.76	2269.15
666.95	4542.39
667.13	10518.37
667.32	15439.64
667.51	18136.81
667.69	19570.39
667.88	18171.63
668.07	12693.31
668.25	9799.53
668.44	8300.42
668.63	7421.84
668.81	7094.16
669.00	6242.21
669.19	5779.37
669.38	5253.04
669.56	4515.77
669.75	4128.70
669.94	3373.00
670.12	2959.31
670.31	2521.05
670.50	2209.76
670.68	2031.58
670.87	1959.91
671.06	1777.64
671.24	1767.40
671.43	1843.17
671.62	1724.39
671.80	1681.38
671.99	1730.53
672.18	1716.20
672.36	1777.64
672.55	1693.67
672.74	1701.86
672.92	1722.34
673.11	1757.16
673.29	1648.61
673.48	1787.88
673.67	1732.58
673.85	1787.88
674.04	1712.10
674.23	1679.33
674.41	1726.44
674.60	1617.90
674.79	1626.09
674.97	1605.61
675.16	1761.25
675.34	1751.01
675.53	1669.09
675.72	1687.53
675.90	1853.41
676.09	1648.61
676.28	1718.25
676.46	1632.23
676.65	1708.01
676.83	1589.22
677.02	1689.57
677.21	1677.29
677.39	1613.80
677.58	1638.38
677.77	1669.09
677.95	1665.00
678.14	1705.96
678.32	1796.07
678.51	1648.61
678.70	1779.68
678.88	1660.90
679.07	1673.19
679.25	1652.71
679.44	1656.81
679.63	1585.13
679.81	1650.66
680.00	1685.48
680.18	1697.77
680.37	1779.68
680.55	1642.47
680.74	1562.60
680.93	1603.56
681.11	1689.57
681.30	1685.48
681.48	1708.01
681.67	1652.71
681.85	1738.73
682.04	1656.81
682.23	1777.64
682.41	1777.64
682.60	1718.25
682.78	1708.01
682.97	1630.18
683.15	1712.10
683.34	1763.30
683.53	1783.78
683.71	1585.13
683.90	1796.07
684.08	1818.60
684.27	1634.28
684.45	1634.28
684.64	1800.16
684.82	1669.09
685.01	1728.49
685.19	1671.14
685.38	1755.11
685.57	1705.96
685.75	1724.39
685.94	1654.76
686.12	1630.18
686.31	1658.85
686.49	1822.69
686.68	1624.04
686.86	1728.49
687.05	1775.59
687.23	1791.97
687.42	1624.04
687.60	1685.48
687.79	1726.44
687.97	1763.30
688.16	1757.16
688.34	1748.97
688.53	1642.47
688.71	1677.29
688.90	1724.39
689.08	1724.39
689.27	1689.57
689.45	1740.77
689.64	1699.81
689.82	1751.01
690.01	1755.11
690.19	1685.48
690.38	1740.77
690.56	1697.77
690.75	1634.28
690.93	1660.90
691.12	1644.52
691.30	1646.57
691.49	1763.30
691.67	1626.09
691.86	1808.36
692.04	1665.00
692.23	1642.47
692.41	1691.62
692.60	1789.92
692.78	1773.54
692.97	1640.42
693.15	1779.68
693.34	1757.16
693.52	1765.35
693.71	1683.43
693.89	1665.00
694.08	1566.70
694.26	1714.15
694.44	1757.16
694.63	1730.53
694.81	1681.38
695.00	1685.48
695.18	1767.40
695.37	1751.01
695.55	1728.49
695.74	1681.38
695.92	1669.09
696.10	1705.96
696.29	1642.47
696.47	1636.33
696.66	1662.95
696.84	1595.37
697.03	1654.76
697.21	1820.64
697.40	2322.40
697.58	1761.25
697.76	1679.33
697.95	1699.81
698.13	1640.42
698.32	1687.53
698.50	1705.96
698.68	1751.01
698.87	1677.29
699.05	1687.53
699.24	1705.96
699.42	1710.05
699.61	1769.44
699.79	1730.53
699.97	1714.15
700.16	1642.47
700.34	1634.28
700.53	1677.29
700.71	1832.93
700.89	1695.72
701.08	1755.11
701.26	1675.24
701.45	2068.45
701.63	1732.58
701.81	1710.05
702.00	1634.28
702.18	1611.75
702.37	1714.15
702.55	1699.81
702.73	1685.48
702.92	1634.28
703.10	1705.96
703.28	1632.23
703.47	1677.29
703.65	1697.77
703.84	1746.92
704.02	1658.85
704.20	1740.77
704.39	1683.43
704.57	1648.61
704.75	1738.73
704.94	1751.01
705.12	1703.91
705.30	1794.02
705.49	2150.37
705.67	4468.67
705.86	9684.84
706.04	12980.03
706.22	14849.82
706.41	15845.13
706.59	14194.47
706.77	9805.67
706.96	7620.49
707.14	6739.87
707.32	6115.23
707.51	5588.91
707.69	5158.83
707.87	4161.47
708.06	3420.11
708.24	3106.77
708.42	2537.43
708.61	2176.99
708.79	1865.70
708.97	1923.04
709.16	1814.50
709.34	1763.30
709.52	1708.01
709.71	1730.53
709.89	1753.06
710.07	1665.00
710.26	1660.90
710.44	1685.48
710.62	1785.83
710.80	1677.29
710.99	1710.05
711.17	1787.88
711.35	1697.77
711.54	1642.47
711.72	1767.40
711.90	1701.86
712.09	1738.73
712.27	1671.14
712.45	1771.49
712.63	1603.56
712.82	1712.10
713.00	1751.01
713.18	1761.25
713.37	1765.35
713.55	1746.92
713.73	1783.78
713.91	1701.86
714.10	1705.96
714.28	1693.67
714.46	1728.49
714.65	1705.96
714.83	1695.72
715.01	1634.28
715.19	1697.77
715.38	1591.27
715.56	1755.11
715.74	1660.90
715.92	1617.90
716.11	1804.26
716.29	1599.46
716.47	1718.25
716.65	1699.81
716.84	1624.04
717.02	1775.59
717.20	1587.18
717.38	1685.48
717.57	1744.87
717.75	1697.77
717.93	1697.77
718.11	1687.53
718.30	1576.94
718.48	1708.01
718.66	1665.00
718.84	1841.12
719.03	1693.67
719.21	1636.33
719.39	1832.93
719.57	1746.92
719.75	1732.58
719.94	1724.39
720.12	1677.29
720.30	1703.91
720.48	1806.31
720.67	1609.70
720.85	1607.66
721.03	1652.71
721.21	1699.81
721.39	1765.35
721.58	1820.64
721.76	1669.09
721.94	1705.96
722.12	1781.73
722.30	1791.97
722.49	1728.49
722.67	1748.97
722.85	1681.38
723.03	1550.31
723.21	1669.09
723.40	1675.24
723.58	1771.49
723.76	1757.16
723.94	1740.77
724.12	1681.38
724.30	1828.84
724.49	1769.44
724.67	1638.38
724.85	1724.39
725.03	1556.46
725.21	1644.52
725.40	1804.26
725.58	1570.79
725.76	1722.34
725.94	1714.15
726.12	1636.33
726.30	1660.90
726.49	1714.15
726.67	1703.91
726.85	1693.67
727.03	1699.81
727.21	2119.65
727.39	2869.20
727.57	3766.21
727.76	4186.05
727.94	4575.16
728.12	4413.37
728.30	3641.29
728.48	3018.71
728.66	2748.37
728.84	2533.34
729.03	2287.58
729.21	2209.76
729.39	2000.87
729.57	1814.50
729.75	1818.60
729.93	1861.60
730.11	1650.66
730.30	1638.38
730.48	1691.62
730.66	1708.01
730.84	1781.73
731.02	1701.86
731.20	1662.95
731.38	1695.72
731.56	1583.08
731.74	1658.85
731.93	1654.76
732.11	1705.96
732.29	1648.61
732.47	1673.19
732.65	1683.43
732.83	1773.54
733.01	1744.87
733.19	1605.61
733.37	1806.31
733.56	1695.72
733.74	1701.86
733.92	1748.97
734.10	1748.97
734.28	1732.58
734.46	1587.18
734.64	1716.20
734.82	1576.94
735.00	1724.39
735.18	1710.05
735.36	1687.53
735.54	1705.96
735.73	1744.87
735.91	1714.15
736.09	1746.92
736.27	1734.63
736.45	1755.11
736.63	1613.80
736.81	1746.92
736.99	1742.82
737.17	1798.12
737.35	1656.81
737.53	1693.67
737.71	1720.29
737.89	1677.29
738.07	1589.22
738.25	1714.15
738.43	1572.84
738.61	1640.42
738.80	1646.57
738.98	1613.80
739.16	1683.43
739.34	1662.95
739.52	1761.25
739.70	1671.14
739.88	1714.15
740.06	1800.16
740.24	1570.79
740.42	1763.30
740.60	1636.33
740.78	1720.29
740.96	1591.27
741.14	1669.09
741.32	1763.30
741.50	1595.37
741.68	1787.88
741.86	1683.43
742.04	1617.90
742.22	1640.42
742.40	1693.67
742.58	1738.73
742.76	1624.04
742.94	1775.59
743.12	1652.71
743.30	1730.53
743.48	1640.42
743.66	1679.33
743.84	1617.90
744.02	1683.43
744.20	1726.44
744.38	1587.18
744.56	1685.48
744.74	1800.16
744.92	1791.97
745.10	1822.69
745.28	1781.73
745.46	1742.82
745.64	1726.44
745.82	1765.35
746.00	1677.29
746.18	1683.43
746.36	1624.04
746.54	1703.91
746.72	1701.86
746.90	1607.66
747.08	1716.20
747.26	1738.73
747.44	1662.95
747.62	1724.39
747.80	1705.96
747.98	1787.88
748.15	1736.68
748.33	1783.78
748.51	1644.52
748.69	1740.77
748.87	1601.51
749.05	1628.14
749.23	1640.42
749.41	1726.44
749.59	1718.25
749.77	1777.64
749.95	1640.42
750.13	1638.38
750.31	1695.72
750.49	1671.14
750.67	1718.25
750.85	1751.01
751.03	1734.63
751.20	1802.21
751.38	1640.42
751.56	1687.53
751.74	1652.71
751.92	1705.96
752.10	1667.05
752.28	1714.15
752.46	1673.19
752.64	1683.43
752.82	1634.28
753.00	1798.12
753.18	1708.01
753.35	1691.62
753.53	1734.63
753.71	1746.92
753.89	1689.57
754.07	1673.19
754.25	1724.39
754.43	1781.73
754.61	1681.38
754.79	1697.77
754.97	1677.29
755.14	1701.86
755.32	1628.14
755.50	1726.44
755.68	1738.73
755.86	1609.70
756.04	1710.05
756.22	1591.27
756.40	1679.33
756.57	1755.11
756.75	1646.57
756.93	1759.21
757.11	1726.44
757.29	1642.47
757.47	1599.46
757.65	1619.94
757.82	1538.02
758.00	1662.95
758.18	1601.51
758.36	1685.48
758.54	1726.44
758.72	1675.24
758.90	1681.38
759.07	1689.57
759.25	1581.03
759.43	1685.48
759.61	1626.09
759.79	2197.47
759.97	1683.43
760.15	1681.38
760.32	1634.28
760.50	1722.34
760.68	1765.35
760.86	1550.31
761.04	1765.35
761.22	1759.21
761.39	1656.81
761.57	1710.05
761.75	1763.30
761.93	1763.30
762.11	1652.71
762.28	1738.73
762.46	1605.61
762.64	1683.43
762.82	1609.70
763.00	1650.66
763.18	1796.07
763.35	1544.17
763.53	1736.68
763.71	1767.40
763.89	1683.43
764.07	1773.54
764.24	1781.73
764.42	1763.30
764.60	1714.15
764.78	1695.72
764.96	1791.97
765.13	1845.22
765.31	1736.68
765.49	1701.86
765.67	1681.38
765.84	1581.03
766.02	1722.34
766.20	1525.74
766.38	1761.25
766.56	1705.96
766.73	1660.90
766.91	1642.47
767.09	1726.44
767.27	1703.91
767.44	1632.23
767.62	1687.53
767.80	1644.52
767.98	1671.14
768.15	1728.49
768.33	1759.21
768.51	1716.20
768.69	1662.95
768.87	1738.73
769.04	1722.34
769.22	1771.49
769.40	1742.82
769.58	1812.45
769.75	1695.72
769.93	1640.42
770.11	1665.00
770.28	1665.00
770.46	1775.59
770.64	1658.85
770.82	1628.14
770.99	1619.94
771.17	1708.01
771.35	1642.47
771.53	1701.86
771.70	1609.70
771.88	1763.30
772.06	1621.99
772.23	1642.47
772.41	1667.05
772.59	1658.85
772.77	1654.76
772.94	1734.63
773.12	1746.92
773.30	1689.57
773.47	1730.53
773.65	1667.05
773.83	1832.93
774.01	1609.70
774.18	1548.26
774.36	1654.76
774.54	1642.47
774.71	1693.67
774.89	1656.81
775.07	1677.29
775.24	1617.90
775.42	1699.81
775.60	1812.45
775.78	1632.23
775.95	1603.56
776.13	1615.85
776.31	1572.84
776.48	1665.00
776.66	1757.16
776.84	1597.42
777.01	1679.33
777.19	1632.23
777.37	1636.33
777.54	1787.88
777.72	1781.73
777.90	1667.05
778.07	1646.57
778.25	1820.64
778.43	1744.87
778.60	1636.33
778.78	1732.58
778.96	1744.87
779.13	1617.90
779.31	1757.16
779.49	1730.53
779.66	1755.11
779.84	1701.86
780.01	1708.01
780.19	1662.95
780.37	1775.59
780.54	1740.77
780.72	1648.61
780.90	1648.61
781.07	1677.29
781.25	1662.95
781.43	1724.39
781.60	1693.67
781.78	1685.48
781.95	1732.58
782.13	1679.33
782.31	1708.01
782.48	1576.94
782.66	1681.38
782.83	1818.60
783.01	1771.49
783.19	1693.67
783.36	1677.29
783.54	1708.01
783.72	1656.81
783.89	1720.29
784.07	1667.05
784.24	1654.76
784.42	1798.12
784.60	1748.97
784.77	1779.68
784.95	1574.89
785.12	1601.51
785.30	1689.57
785.47	1691.62
785.65	1624.04
785.83	1638.38
786.00	1613.80
786.18	1746.92
786.35	1648.61
786.53	1662.95
786.71	1777.64
786.88	1656.81
787.06	1744.87
787.23	1730.53
787.41	1624.04
787.58	1722.34
787.76	1624.04
787.94	1665.00
788.11	1662.95
788.29	1714.15
788.46	1716.20
788.64	1609.70
788.81	1628.14
788.99	1667.05
789.16	1654.76
789.34	1652.71
789.52	1605.61
789.69	1650.66
789.87	1652.71
790.04	1777.64
790.22	1665.00
790.39	1787.88
790.57	1617.90
790.74	1642.47
790.92	1740.77
791.09	1644.52
791.27	1722.34
791.44	1810.40
791.62	1665.00
791.79	1724.39
791.97	1724.39
792.15	1826.79
792.32	1708.01
792.50	1773.54
792.67	1841.12
792.85	1738.73
793.02	1679.33
793.20	1632.23
793.37	1624.04
793.55	1644.52
793.72	1619.94
793.90	1744.87
794.07	1701.86
794.25	1611.75
794.42	1667.05
794.60	1634.28
794.77	1734.63
794.95	1716.20
795.12	1740.77
795.30	1677.29
795.47	1509.35
795.65	1824.74
795.82	1785.83
796.00	1660.90
796.17	1712.10
796.34	1677.29
796.52	1615.85
796.69	1695.72
796.87	1679.33
797.04	1685.48
797.22	1718.25
797.39	1681.38
797.57	1697.77
797.74	1650.66
797.92	1673.19
798.09	1652.71
798.27	1679.33
798.44	1759.21
798.62	1591.27
798.79	1660.90
798.96	1779.68
799.14	1720.29
799.31	1767.40
799.49	1714.15
799.66	1675.24
799.84	1699.81
800.01	1624.04
800.19	1732.58
800.36	1689.57
800.53	1671.14
800.71	1683.43
800.88	1714.15
801.06	1683.43
801.23	1699.81
801.41	1677.29
801.58	1689.57
801.75	1644.52
801.93	1722.34
802.10	1787.88
802.28	1675.24
802.45	1677.29
802.63	1826.79
802.80	1746.92
802.97	1728.49
803.15	1703.91
803.32	1744.87
803.50	1611.75
803.67	1673.19
803.84	1736.68
804.02	1787.88
804.19	1646.57
804.37	1576.94
804.54	1615.85
804.71	1662.95
804.89	1718.25
805.06	1529.83
805.24	1640.42
805.41	1648.61
805.58	1607.66
805.76	1822.69
805.93	1681.38
806.10	1796.07
806.28	1720.29
806.45	1648.61
806.63	1669.09
806.80	1652.71
806.97	1718.25
807.15	1669.09
807.32	1751.01
807.49	1675.24
807.67	1654.76
807.84	1683.43
808.01	1570.79
808.19	1861.60
808.36	1855.46
808.54	1673.19
808.71	1660.90
808.88	1710.05
809.06	1722.34
809.23	1701.86
809.40	1720.29
809.58	1718.25
809.75	1751.01
809.92	1689.57
810.10	1773.54
810.27	1644.52
810.44	1689.57
810.62	1748.97
810.79	1777.64
810.96	1705.96
811.14	1714.15
811.31	1656.81
811.48	1763.30
811.66	1652.71
811.83	1751.01
812.00	1779.68
812.18	1677.29
812.35	1830.88
812.52	1593.32
812.69	1701.86
812.87	1689.57
813.04	1681.38
813.21	1679.33
813.39	1640.42
813.56	1675.24
813.73	1683.43
813.91	1701.86
814.08	1705.96
814.25	1628.14
814.42	1615.85
814.60	1656.81
814.77	1683.43
814.94	1658.85
815.12	1697.77
815.29	1720.29
815.46	1593.32
815.63	1773.54
815.81	1589.22
815.98	1681.38
816.15	1673.19
816.33	1685.48
816.50	1667.05
816.67	1720.29
816.84	1621.99
817.02	1589.22
817.19	1656.81
817.36	1728.49
817.53	1677.29
817.71	1595.37
817.88	1617.90
818.05	1669.09
818.22	1667.05
818.40	1765.35
818.57	1628.14
818.74	1681.38
818.91	1755.11
819.09	1703.91
819.26	1740.77
819.43	1583.08
819.60	1587.18
819.78	1677.29
819.95	1812.45
820.12	1654.76
820.29	1716.20
820.47	1662.95
820.64	1658.85
820.81	1662.95
820.98	1611.75
821.15	1685.48
821.33	1744.87
821.50	1636.33
821.67	1640.42
821.84	1712.10
822.02	1742.82
822.19	1714.15
822.36	1609.70
822.53	1654.76
822.70	1621.99
822.88	1626.09
823.05	1722.34
823.22	1636.33
823.39	1705.96
823.56	1708.01
823.74	1775.59
823.91	1615.85
824.08	1699.81
824.25	1570.79
824.42	1804.26
824.60	1605.61
824.77	1667.05
824.94	1730.53
825.11	1658.85
825.28	1626.09
825.45	1718.25
825.63	1681.38
825.80	1656.81
825.97	1773.54
826.14	1710.05
826.31	1667.05
826.48	1611.75
826.66	1644.52
826.83	1619.94
827.00	1628.14
827.17	1662.95
827.34	1697.77
827.51	1646.57
827.69	1677.29
827.86	1662.95
828.03	1601.51
828.20	1632.23
828.37	1665.00
828.54	1667.05
828.71	1644.52
828.89	1767.40
829.06	1658.85
829.23	1767.40
829.40	1632.23
829.57	1679.33
829.74	1738.73
829.91	1695.72
830.09	1583.08
830.26	1714.15
830.43	1771.49
830.60	1660.90
830.77	1656.81
830.94	1806.31
831.11	1738.73
831.28	1615.85
831.46	1742.82
831.63	1695.72
831.80	1712.10
831.97	1675.24
832.14	1646.57
832.31	1697.77
832.48	1624.04
832.65	1738.73
832.82	1669.09
832.99	1638.38
833.17	1611.75
833.34	1730.53
833.51	1736.68
833.68	1517.54
833.85	1705.96
834.02	1665.00
834.19	1703.91
834.36	1712.10
834.53	1648.61
834.70	1773.54
834.87	1734.63
835.04	1767.40
835.22	1599.46
835.39	1681.38
835.56	1640.42
835.73	1685.48
835.90	1703.91
836.07	1626.09
836.24	1779.68
836.41	1636.33
836.58	1630.18
836.75	1732.58
836.92	1679.33
837.09	1716.20
837.26	1722.34
837.43	1677.29
837.60	1806.31
837.77	1568.74
837.94	1697.77
838.12	1744.87
838.29	1742.82
838.46	1617.90
838.63	1646.57
838.80	1736.68
838.97	1693.67
839.14	1697.77
839.31	1710.05
839.48	1732.58
839.65	1656.81
839.82	1708.01
839.99	1746.92
840.16	1697.77
840.33	1585.13
840.50	1648.61
840.67	1681.38
840.84	1603.56
841.01	1613.80
841.18	1636.33
841.35	1710.05
841.52	1742.82
841.69	1769.44
841.86	1691.62
842.03	1607.66
842.20	1714.15
842.37	1658.85
842.54	1722.34
842.71	1705.96
842.88	1660.90
843.05	1708.01
843.22	1636.33
843.39	1726.44
843.56	1681.38
843.73	1681.38
843.90	1667.05
844.07	1665.00
844.24	1693.67
844.41	1712.10
844.58	1701.86
844.75	1689.57
844.92	1716.20
845.09	1691.62
845.26	1628.14
845.43	1615.85
845.60	1767.40
845.77	1693.67
845.94	1658.85
846.10	1722.34
846.27	1599.46
846.44	1654.76
846.61	1675.24
846.78	1683.43
846.95	1722.34
847.12	1640.42
847.29	1642.47
847.46	1642.47
847.63	1728.49
847.80	1665.00
847.97	1671.14
848.14	1837.03
848.31	1597.42
848.48	1613.80
848.65	1691.62
848.82	1611.75
848.98	1779.68
849.15	1671.14
849.32	1648.61
849.49	1736.68
849.66	1697.77
849.83	1710.05
850.00	1673.19
850.17	1689.57
850.34	1675.24
850.51	1665.00
850.68	1701.86
850.85	1804.26
851.01	1665.00
851.18	1687.53
851.35	1708.01
851.52	1695.72
851.69	1751.01
851.86	1599.46
852.03	1621.99
852.20	1726.44
852.37	1669.09
852.53	1593.32
852.70	1716.20
852.87	1650.66
853.04	1720.29
853.21	1705.96
853.38	1755.11
853.55	1693.67
853.72	1671.14
853.89	1630.18
854.05	1599.46
854.22	1699.81
854.39	1718.25
854.56	1648.61
854.73	1746.92
854.90	1568.74
855.07	1708.01
855.23	1624.04
855.40	1683.43
855.57	1734.63
855.74	1550.31
855.91	1812.45
856.08	1585.13
856.25	1605.61
856.41	1687.53
856.58	1619.94
856.75	1650.66
856.92	1726.44
857.09	1742.82
857.26	1624.04
857.42	1640.42
857.59	1763.30
857.76	1703.91
857.93	1665.00
858.10	1708.01
858.27	1665.00
858.43	1667.05
858.60	1636.33
858.77	1634.28
858.94	1732.58
859.11	1705.96
859.27	1615.85
859.44	1624.04
859.61	1798.12
859.78	1699.81
859.95	1652.71
860.12	1654.76
860.28	1746.92
860.45	1736.68
860.62	1669.09
860.79	1640.42
860.95	1718.25
861.12	1703.91
861.29	1648.61
861.46	1656.81
861.63	1705.96
861.79	1718.25
861.96	1648.61
862.13	1658.85
862.30	1720.29
862.47	1673.19
862.63	1695.72
862.80	1769.44
862.97	1689.57
863.14	1734.63
863.30	1705.96
863.47	1621.99
863.64	1742.82
863.81	1695.72
863.97	1644.52
864.14	1697.77
864.31	1681.38
864.48	1724.39
864.65	1658.85
864.81	1699.81
864.98	1669.09
865.15	1673.19
865.32	1652.71
865.48	1726.44
865.65	1738.73
865.82	1673.19
865.98	1728.49
866.15	1753.06
866.32	1687.53
866.49	1687.53
866.65	1767.40
866.82	1593.32
866.99	1630.18
867.16	1689.57
867.32	1640.42
867.49	1705.96
867.66	1703.91
867.83	1705.96
867.99	1658.85
868.16	1720.29
868.33	1585.13
868.49	1714.15
868.66	1689.57
868.83	1759.21
868.99	1578.98
869.16	1658.85
869.33	1779.68
869.50	1767.40
869.66	1720.29
869.83	1689.57
870.00	1673.19
870.16	1701.86
870.33	1652.71
870.50	1753.06
870.66	1738.73
870.83	1877.99
871.00	1726.44
871.17	1691.62
871.33	1644.52
871.50	1593.32
871.67	1673.19
871.83	1632.23
872.00	1796.07
872.17	1701.86
872.33	1732.58
872.50	1806.31
872.67	1660.90
872.83	1689.57
873.00	1640.42
873.17	1681.38
873.33	1742.82
873.50	1701.86
873.67	1593.32
873.83	1650.66
874.00	1765.35
874.16	1812.45
874.33	1703.91
874.50	1636.33
874.66	1708.01
874.83	1689.57
875.00	1724.39
875.16	1785.83
875.33	1771.49
875.50	1568.74
875.66	1568.74
875.83	1718.25
875.99	1693.67
876.16	1662.95
876.33	1646.57
876.49	1757.16
876.66	1687.53
876.83	1648.61
876.99	1585.13
877.16	1867.75
877.32	1665.00
877.49	1632.23
877.66	1667.05
877.82	1732.58
877.99	1708.01
878.15	1687.53
878.32	1660.90
878.49	1728.49
878.65	1697.77
878.82	1738.73
878.98	1568.74
879.15	1728.49
879.32	1730.53
879.48	1783.78
879.65	1673.19
879.81	1650.66
879.98	1677.29
880.15	1703.91
880.31	1771.49
880.48	1619.94
880.64	1679.33
880.81	1697.77
880.97	1708.01
881.14	1759.21
881.31	1591.27
881.47	1802.21
881.64	1755.11
881.80	1593.32
881.97	1705.96
882.13	1740.77
882.30	1564.65
882.47	1650.66
882.63	1603.56
882.80	1681.38
882.96	1619.94
883.13	1703.91
883.29	1671.14
883.46	1644.52
883.62	1726.44
883.79	1665.00
883.95	1742.82
884.12	1673.19
884.29	1718.25
884.45	1683.43
884.62	1800.16
884.78	1691.62
884.95	1726.44
885.11	1677.29
885.28	1644.52
885.44	1656.81
885.61	1730.53
885.77	1853.41
885.94	1763.30
886.10	1689.57
886.27	1648.61
886.43	1767.40
886.60	1777.64
886.76	1589.22
886.93	1687.53
887.09	1683.43
887.26	1648.61
887.42	1730.53
887.59	1757.16
887.75	1810.40
887.92	1773.54
888.08	1734.63
888.25	1826.79
888.41	1732.58
888.58	1677.29
888.74	1626.09
888.91	1624.04
>>>>>End Processed Spectral Data<<<<<
