SpectraSuite Data File
++++++++++++++++++++++++++++++++++++
Date: Mon Jun 06 12:13:37 CEST 2016
User: root
Dark Spectrum Present: No
Reference Spectrum Present: No
Number of Sampled Component Spectra: 1
Spectrometers: USB4C02835
Integration Time (usec): 100000 (USB4C02835)
Spectra Averaged: 1 (USB4C02835)
Boxcar Smoothing: 0 (USB4C02835)
Correct for Electrical Dark: No (USB4C02835)
Strobe/Lamp Enabled: No (USB4C02835)
Correct for Detector Non-linearity: No (USB4C02835)
Correct for Stray Light: No (USB4C02835)
Number of Pixels in Processed Spectrum: 3648
>>>>>Begin Processed Spectral Data<<<<<
177.47	1480.68
177.69	1480.68
177.91	1480.68
178.13	1464.30
178.36	1392.62
178.58	1660.90
178.80	1703.91
179.02	1605.61
179.24	1638.38
179.46	1640.42
179.68	1748.97
179.90	1693.67
180.13	1701.86
180.35	1613.80
180.57	1742.82
180.79	1757.16
181.01	1660.90
181.23	1693.67
181.45	1744.87
181.67	1675.24
181.90	1714.15
182.12	1701.86
182.34	1640.42
182.56	1675.24
182.78	1691.62
183.00	1689.57
183.22	1728.49
183.44	1613.80
183.66	1902.56
183.89	1744.87
184.11	1646.57
184.33	1697.77
184.55	1751.01
184.77	1703.91
184.99	1718.25
185.21	1675.24
185.43	1785.83
185.65	1683.43
185.87	1705.96
186.10	1834.98
186.32	1841.12
186.54	1779.68
186.76	1718.25
186.98	1742.82
187.20	1646.57
187.42	1748.97
187.64	1714.15
187.86	1679.33
188.08	1744.87
188.30	1660.90
188.52	1671.14
188.75	1751.01
188.97	1783.78
189.19	1718.25
189.41	1685.48
189.63	1759.21
189.85	1726.44
190.07	1650.66
190.29	1665.00
190.51	1679.33
190.73	1640.42
190.95	1779.68
191.17	1765.35
191.39	1595.37
191.61	1583.08
191.84	1677.29
192.06	1660.90
192.28	1591.27
192.50	1763.30
192.72	1675.24
192.94	1710.05
193.16	1720.29
193.38	1753.06
193.60	1671.14
193.82	1718.25
194.04	1746.92
194.26	1718.25
194.48	1708.01
194.70	1650.66
194.92	1738.73
195.14	1712.10
195.36	1671.14
195.58	1753.06
195.80	1662.95
196.02	1689.57
196.24	1718.25
196.46	1724.39
196.69	1683.43
196.91	1816.55
197.13	1599.46
197.35	1691.62
197.57	1845.22
197.79	1671.14
198.01	1769.44
198.23	1748.97
198.45	1828.84
198.67	1552.36
198.89	1714.15
199.11	1763.30
199.33	1626.09
199.55	1601.51
199.77	1619.94
199.99	1718.25
200.21	1667.05
200.43	1769.44
200.65	1599.46
200.87	1595.37
201.09	1759.21
201.31	1626.09
201.53	1669.09
201.75	1734.63
201.97	1697.77
202.19	1695.72
202.41	1763.30
202.63	1779.68
202.85	1689.57
203.07	1701.86
203.29	1628.14
203.51	1621.99
203.73	1652.71
203.95	1849.32
204.17	1751.01
204.39	1708.01
204.61	1683.43
204.83	1624.04
205.05	1800.16
205.27	1714.15
205.49	1853.41
205.71	1658.85
205.93	1613.80
206.15	1689.57
206.37	1703.91
206.59	1726.44
206.81	1617.90
207.03	1697.77
207.25	1671.14
207.47	1652.71
207.69	1691.62
207.91	1755.11
208.13	1738.73
208.34	1632.23
208.56	1724.39
208.78	1687.53
209.00	1705.96
209.22	1718.25
209.44	1695.72
209.66	1615.85
209.88	1826.79
210.10	1681.38
210.32	1701.86
210.54	1808.36
210.76	1677.29
210.98	1783.78
211.20	1673.19
211.42	1677.29
211.64	1744.87
211.86	1632.23
212.08	1755.11
212.30	1648.61
212.52	1630.18
212.74	1746.92
212.96	1794.02
213.17	1708.01
213.39	1693.67
213.61	1740.77
213.83	1736.68
214.05	1601.51
214.27	1701.86
214.49	1673.19
214.71	1693.67
214.93	1775.59
215.15	1687.53
215.37	1761.25
215.59	1665.00
215.81	1699.81
216.03	1763.30
216.24	1675.24
216.46	1716.20
216.68	1701.86
216.90	1695.72
217.12	1810.40
217.34	1734.63
217.56	1708.01
217.78	1814.50
218.00	1734.63
218.22	1656.81
218.44	1681.38
218.66	1693.67
218.87	1853.41
219.09	1673.19
219.31	1705.96
219.53	1781.73
219.75	1665.00
219.97	1720.29
220.19	1654.76
220.41	1687.53
220.63	1765.35
220.85	1626.09
221.06	1601.51
221.28	1738.73
221.50	1685.48
221.72	1652.71
221.94	1710.05
222.16	1601.51
222.38	1753.06
222.60	1775.59
222.82	1675.24
223.03	1665.00
223.25	1691.62
223.47	1712.10
223.69	1785.83
223.91	1693.67
224.13	1675.24
224.35	1724.39
224.57	1775.59
224.78	1681.38
225.00	1652.71
225.22	1650.66
225.44	1751.01
225.66	1681.38
225.88	1710.05
226.10	1691.62
226.32	1718.25
226.53	1832.93
226.75	1595.37
226.97	1656.81
227.19	1665.00
227.41	1654.76
227.63	1708.01
227.85	1609.70
228.06	1722.34
228.28	1705.96
228.50	1699.81
228.72	1665.00
228.94	1708.01
229.16	1589.22
229.37	1538.02
229.59	1726.44
229.81	1759.21
230.03	1578.98
230.25	1615.85
230.47	1693.67
230.69	1581.03
230.90	1710.05
231.12	1675.24
231.34	1683.43
231.56	1738.73
231.78	1619.94
232.00	1732.58
232.21	1630.18
232.43	1669.09
232.65	1646.57
232.87	1681.38
233.09	1601.51
233.30	1726.44
233.52	1671.14
233.74	1609.70
233.96	1695.72
234.18	1759.21
234.40	1671.14
234.61	1746.92
234.83	1634.28
235.05	1603.56
235.27	1781.73
235.49	1804.26
235.70	1642.47
235.92	1751.01
236.14	1701.86
236.36	1785.83
236.58	1685.48
236.79	1693.67
237.01	1640.42
237.23	1630.18
237.45	1779.68
237.67	1587.18
237.88	1640.42
238.10	1814.50
238.32	1665.00
238.54	1673.19
238.76	1708.01
238.97	1697.77
239.19	1628.14
239.41	1722.34
239.63	1798.12
239.85	1599.46
240.06	1669.09
240.28	1714.15
240.50	1777.64
240.72	1691.62
240.93	1658.85
241.15	1765.35
241.37	1703.91
241.59	1701.86
241.81	1636.33
242.02	1681.38
242.24	1712.10
242.46	1738.73
242.68	1675.24
242.89	1718.25
243.11	1751.01
243.33	1683.43
243.55	1728.49
243.76	1714.15
243.98	1658.85
244.20	1667.05
244.42	1658.85
244.64	1691.62
244.85	1703.91
245.07	1656.81
245.29	1714.15
245.51	1685.48
245.72	1673.19
245.94	1755.11
246.16	1667.05
246.38	1701.86
246.59	1613.80
246.81	1681.38
247.03	1646.57
247.24	1595.37
247.46	1665.00
247.68	1691.62
247.90	1722.34
248.11	1644.52
248.33	1757.16
248.55	1701.86
248.77	1691.62
248.98	1767.40
249.20	1748.97
249.42	1644.52
249.64	1728.49
249.85	1681.38
250.07	1624.04
250.29	1736.68
250.50	1757.16
250.72	1638.38
250.94	1716.20
251.16	1820.64
251.37	1740.77
251.59	1681.38
251.81	1744.87
252.02	1789.92
252.24	1667.05
252.46	1798.12
252.68	1660.90
252.89	1593.32
253.11	1587.18
253.33	1861.60
253.54	1814.50
253.76	1621.99
253.98	1697.77
254.20	1744.87
254.41	1591.27
254.63	1650.66
254.85	1595.37
255.06	1677.29
255.28	1708.01
255.50	1624.04
255.71	1648.61
255.93	1722.34
256.15	1669.09
256.36	1734.63
256.58	1681.38
256.80	1687.53
257.02	1685.48
257.23	1708.01
257.45	1736.68
257.67	1708.01
257.88	1656.81
258.10	1697.77
258.32	1642.47
258.53	1822.69
258.75	1773.54
258.97	1665.00
259.18	1738.73
259.40	1705.96
259.62	1789.92
259.83	1687.53
260.05	1710.05
260.27	2002.91
260.48	1744.87
260.70	1656.81
260.92	1693.67
261.13	1658.85
261.35	1671.14
261.57	1705.96
261.78	1673.19
262.00	1695.72
262.22	1734.63
262.43	1732.58
262.65	1720.29
262.86	1675.24
263.08	1837.03
263.30	1673.19
263.51	1599.46
263.73	1658.85
263.95	1816.55
264.16	1615.85
264.38	1662.95
264.60	1716.20
264.81	1685.48
265.03	1732.58
265.25	1783.78
265.46	1658.85
265.68	1726.44
265.89	1728.49
266.11	1607.66
266.33	1755.11
266.54	1681.38
266.76	1730.53
266.98	1763.30
267.19	1699.81
267.41	1783.78
267.62	1624.04
267.84	1630.18
268.06	1761.25
268.27	1718.25
268.49	1712.10
268.70	1703.91
268.92	1722.34
269.14	1683.43
269.35	1560.55
269.57	1660.90
269.79	1769.44
270.00	1662.95
270.22	1751.01
270.43	1619.94
270.65	1566.70
270.87	1681.38
271.08	1716.20
271.30	1736.68
271.51	1720.29
271.73	1701.86
271.95	1697.77
272.16	1714.15
272.38	1738.73
272.59	1677.29
272.81	1665.00
273.02	1728.49
273.24	1742.82
273.46	1744.87
273.67	1624.04
273.89	1636.33
274.10	1673.19
274.32	1759.21
274.54	1697.77
274.75	1693.67
274.97	1638.38
275.18	1802.21
275.40	1701.86
275.61	1652.71
275.83	1681.38
276.05	1626.09
276.26	1665.00
276.48	1714.15
276.69	1599.46
276.91	1669.09
277.12	1816.55
277.34	1720.29
277.55	1728.49
277.77	1650.66
277.99	1732.58
278.20	1673.19
278.42	1630.18
278.63	1595.37
278.85	1714.15
279.06	1693.67
279.28	1673.19
279.49	1744.87
279.71	1677.29
279.93	1720.29
280.14	1695.72
280.36	1613.80
280.57	1724.39
280.79	1751.01
281.00	1673.19
281.22	1699.81
281.43	1759.21
281.65	1675.24
281.86	1642.47
282.08	1765.35
282.29	1820.64
282.51	1619.94
282.73	1677.29
282.94	1624.04
283.16	1744.87
283.37	1814.50
283.59	1667.05
283.80	1746.92
284.02	1732.58
284.23	1718.25
284.45	1665.00
284.66	1626.09
284.88	1648.61
285.09	1697.77
285.31	1691.62
285.52	1726.44
285.74	1689.57
285.95	1740.77
286.17	1748.97
286.38	1781.73
286.60	1755.11
286.81	1691.62
287.03	1736.68
287.24	1652.71
287.46	1751.01
287.67	1691.62
287.89	1710.05
288.10	1677.29
288.32	1642.47
288.53	1728.49
288.75	1748.97
288.96	1755.11
289.18	1738.73
289.39	1724.39
289.61	1771.49
289.82	1769.44
290.04	1816.55
290.25	1570.79
290.47	1775.59
290.68	1695.72
290.90	1701.86
291.11	1654.76
291.33	1687.53
291.54	1648.61
291.76	1646.57
291.97	1720.29
292.18	1755.11
292.40	1591.27
292.61	1705.96
292.83	1808.36
293.04	1673.19
293.26	1685.48
293.47	1728.49
293.69	1669.09
293.90	1710.05
294.12	1744.87
294.33	1712.10
294.55	1634.28
294.76	1669.09
294.97	1794.02
295.19	1794.02
295.40	1671.14
295.62	1761.25
295.83	1730.53
296.05	1599.46
296.26	1759.21
296.48	1675.24
296.69	1718.25
296.90	1746.92
297.12	1800.16
297.33	1697.77
297.55	1730.53
297.76	1681.38
297.98	1722.34
298.19	1718.25
298.41	1746.92
298.62	1658.85
298.83	1769.44
299.05	1742.82
299.26	1615.85
299.48	1626.09
299.69	1703.91
299.90	1681.38
300.12	1613.80
300.33	1683.43
300.55	1665.00
300.76	1771.49
300.98	1650.66
301.19	1722.34
301.40	1658.85
301.62	1673.19
301.83	1724.39
302.05	1699.81
302.26	1667.05
302.47	1687.53
302.69	1644.52
302.90	1630.18
303.12	1640.42
303.33	1710.05
303.54	1796.07
303.76	1673.19
303.97	1785.83
304.19	1726.44
304.40	1759.21
304.61	1681.38
304.83	1826.79
305.04	1730.53
305.26	1630.18
305.47	1730.53
305.68	1673.19
305.90	1667.05
306.11	1763.30
306.33	1632.23
306.54	1636.33
306.75	1748.97
306.97	1722.34
307.18	1609.70
307.39	1650.66
307.61	1744.87
307.82	1617.90
308.04	1718.25
308.25	1626.09
308.46	1658.85
308.68	1687.53
308.89	1708.01
309.10	1761.25
309.32	1695.72
309.53	1638.38
309.74	1691.62
309.96	1632.23
310.17	1738.73
310.39	1675.24
310.60	1665.00
310.81	1781.73
311.03	1621.99
311.24	1685.48
311.45	1748.97
311.67	1853.41
311.88	1802.21
312.09	1662.95
312.31	1681.38
312.52	1771.49
312.73	1730.53
312.95	1601.51
313.16	1589.22
313.37	1697.77
313.59	1685.48
313.80	1701.86
314.01	1746.92
314.23	1779.68
314.44	1675.24
314.65	1583.08
314.87	1636.33
315.08	1710.05
315.29	1738.73
315.51	1689.57
315.72	1662.95
315.93	1812.45
316.15	1697.77
316.36	1650.66
316.57	1703.91
316.79	1744.87
317.00	1673.19
317.21	1703.91
317.43	1699.81
317.64	1701.86
317.85	1603.56
318.07	1726.44
318.28	1636.33
318.49	1828.84
318.70	1906.66
318.92	1914.85
319.13	1871.84
319.34	1794.02
319.56	1746.92
319.77	1761.25
319.98	1806.31
320.20	1732.58
320.41	1751.01
320.62	1705.96
320.83	1689.57
321.05	1830.88
321.26	1730.53
321.47	1726.44
321.69	1724.39
321.90	1583.08
322.11	1685.48
322.32	1691.62
322.54	1755.11
322.75	1656.81
322.96	1820.64
323.18	1619.94
323.39	1566.70
323.60	1662.95
323.81	1685.48
324.03	1691.62
324.24	1724.39
324.45	1650.66
324.66	1632.23
324.88	1701.86
325.09	1740.77
325.30	1621.99
325.52	1763.30
325.73	1753.06
325.94	1644.52
326.15	1619.94
326.37	1681.38
326.58	1730.53
326.79	1765.35
327.00	1665.00
327.22	1683.43
327.43	1601.51
327.64	1640.42
327.85	1738.73
328.07	1757.16
328.28	1791.97
328.49	1646.57
328.70	1693.67
328.92	1705.96
329.13	1714.15
329.34	1728.49
329.55	1748.97
329.76	1728.49
329.98	1681.38
330.19	1734.63
330.40	1714.15
330.61	1642.47
330.83	1687.53
331.04	1605.61
331.25	1746.92
331.46	1673.19
331.68	1621.99
331.89	1746.92
332.10	1673.19
332.31	1583.08
332.52	1646.57
332.74	1783.78
332.95	1648.61
333.16	1642.47
333.37	1665.00
333.58	1730.53
333.80	1693.67
334.01	1632.23
334.22	1654.76
334.43	1665.00
334.64	1695.72
334.86	1605.61
335.07	1665.00
335.28	1722.34
335.49	1595.37
335.70	1738.73
335.92	1804.26
336.13	1834.98
336.34	1748.97
336.55	1691.62
336.76	1636.33
336.98	1630.18
337.19	1673.19
337.40	1781.73
337.61	1834.98
337.82	1652.71
338.04	1804.26
338.25	1611.75
338.46	1681.38
338.67	1718.25
338.88	1660.90
339.09	1630.18
339.31	1730.53
339.52	1572.84
339.73	1701.86
339.94	1722.34
340.15	1712.10
340.36	1667.05
340.58	1695.72
340.79	1632.23
341.00	1720.29
341.21	1714.15
341.42	1734.63
341.63	1617.90
341.85	1726.44
342.06	1591.27
342.27	1630.18
342.48	1693.67
342.69	1603.56
342.90	1640.42
343.12	1716.20
343.33	1628.14
343.54	1718.25
343.75	1773.54
343.96	1685.48
344.17	1617.90
344.38	1634.28
344.60	1640.42
344.81	1642.47
345.02	1683.43
345.23	1687.53
345.44	1773.54
345.65	1677.29
345.86	1791.97
346.07	1628.14
346.29	1679.33
346.50	1732.58
346.71	1679.33
346.92	1689.57
347.13	1847.27
347.34	1611.75
347.55	1677.29
347.76	1652.71
347.98	1583.08
348.19	1632.23
348.40	1705.96
348.61	1724.39
348.82	1812.45
349.03	1740.77
349.24	1732.58
349.45	1802.21
349.66	1562.60
349.88	1708.01
350.09	1689.57
350.30	1804.26
350.51	1767.40
350.72	1609.70
350.93	1757.16
351.14	1703.91
351.35	1714.15
351.56	1689.57
351.77	1662.95
351.99	1722.34
352.20	1773.54
352.41	1685.48
352.62	1681.38
352.83	1699.81
353.04	1699.81
353.25	1624.04
353.46	1656.81
353.67	1775.59
353.88	1648.61
354.09	1734.63
354.30	1660.90
354.52	1744.87
354.73	1699.81
354.94	1740.77
355.15	1742.82
355.36	1716.20
355.57	1642.47
355.78	1720.29
355.99	1644.52
356.20	1693.67
356.41	1812.45
356.62	1726.44
356.83	1681.38
357.04	1851.36
357.25	1558.50
357.46	1654.76
357.68	1613.80
357.89	1656.81
358.10	1640.42
358.31	1689.57
358.52	1701.86
358.73	1619.94
358.94	1634.28
359.15	1710.05
359.36	1722.34
359.57	1734.63
359.78	1665.00
359.99	1730.53
360.20	1650.66
360.41	1687.53
360.62	1730.53
360.83	1746.92
361.04	1685.48
361.25	1740.77
361.46	1828.84
361.67	1781.73
361.88	1710.05
362.09	1765.35
362.30	1665.00
362.51	1615.85
362.72	1697.77
362.93	1708.01
363.14	1757.16
363.35	1671.14
363.56	1652.71
363.78	1716.20
363.99	1806.31
364.20	1685.48
364.41	1728.49
364.62	1800.16
364.83	1691.62
365.04	1718.25
365.25	1746.92
365.46	1791.97
365.67	1656.81
365.88	1621.99
366.09	1583.08
366.30	1656.81
366.51	1740.77
366.72	1605.61
366.93	1755.11
367.14	1708.01
367.35	1748.97
367.56	1675.24
367.77	1814.50
367.98	1759.21
368.18	1714.15
368.39	1708.01
368.60	1585.13
368.81	1695.72
369.02	1722.34
369.23	1732.58
369.44	1591.27
369.65	1656.81
369.86	1748.97
370.07	1755.11
370.28	1650.66
370.49	1656.81
370.70	1701.86
370.91	1615.85
371.12	1656.81
371.33	1751.01
371.54	1689.57
371.75	1785.83
371.96	1560.55
372.17	1728.49
372.38	1671.14
372.59	1771.49
372.80	1705.96
373.01	1652.71
373.22	1671.14
373.43	1673.19
373.64	1656.81
373.85	1771.49
374.06	1734.63
374.26	1763.30
374.47	1648.61
374.68	1744.87
374.89	1722.34
375.10	1626.09
375.31	1763.30
375.52	1665.00
375.73	1703.91
375.94	1624.04
376.15	1730.53
376.36	1640.42
376.57	1601.51
376.78	1685.48
376.99	1714.15
377.20	1716.20
377.40	1685.48
377.61	1824.74
377.82	1665.00
378.03	1765.35
378.24	1658.85
378.45	1779.68
378.66	1710.05
378.87	1638.38
379.08	1624.04
379.29	1687.53
379.50	1744.87
379.71	1615.85
379.91	1683.43
380.12	1615.85
380.33	1617.90
380.54	1701.86
380.75	1714.15
380.96	1669.09
381.17	1718.25
381.38	1753.06
381.59	1748.97
381.80	1738.73
382.00	1822.69
382.21	1724.39
382.42	1837.03
382.63	1849.32
382.84	1638.38
383.05	1742.82
383.26	1722.34
383.47	1738.73
383.68	1697.77
383.88	1693.67
384.09	1697.77
384.30	1679.33
384.51	1796.07
384.72	1673.19
384.93	1675.24
385.14	1675.24
385.35	1771.49
385.55	1656.81
385.76	1773.54
385.97	1689.57
386.18	1599.46
386.39	1667.05
386.60	1687.53
386.81	1644.52
387.02	1730.53
387.22	1628.14
387.43	1771.49
387.64	1726.44
387.85	1828.84
388.06	2215.90
388.27	4362.17
388.48	6991.77
388.68	8443.78
388.89	9926.50
389.10	10035.05
389.31	8832.89
389.52	7700.36
389.73	6872.98
389.93	6418.33
390.14	6002.60
390.35	5433.26
390.56	4626.36
390.77	3766.21
390.98	3233.74
391.18	2502.62
391.39	2115.55
391.60	1867.75
391.81	1855.46
392.02	1738.73
392.23	1912.80
392.43	1751.01
392.64	1789.92
392.85	1652.71
393.06	1841.12
393.27	1712.10
393.47	1677.29
393.68	1753.06
393.89	1662.95
394.10	1722.34
394.31	1710.05
394.52	1611.75
394.72	1617.90
394.93	1759.21
395.14	1638.38
395.35	1775.59
395.56	1605.61
395.76	1740.77
395.97	1757.16
396.18	1751.01
396.39	1900.52
396.60	1955.81
396.80	1869.80
397.01	1859.56
397.22	1796.07
397.43	1857.51
397.64	1712.10
397.84	1826.79
398.05	1855.46
398.26	1726.44
398.47	1738.73
398.67	1755.11
398.88	1687.53
399.09	1701.86
399.30	1630.18
399.51	1814.50
399.71	1693.67
399.92	1681.38
400.13	1673.19
400.34	1656.81
400.54	1683.43
400.75	1763.30
400.96	1701.86
401.17	1722.34
401.37	1708.01
401.58	1646.57
401.79	1705.96
402.00	1869.80
402.21	2009.06
402.41	1894.37
402.62	1931.23
402.83	2062.30
403.04	1957.86
403.24	2148.32
403.45	1812.45
403.66	1918.95
403.87	1900.52
404.07	1873.89
404.28	1888.23
404.49	1863.65
404.70	1726.44
404.90	1824.74
405.11	1781.73
405.32	1738.73
405.52	1603.56
405.73	1599.46
405.94	1671.14
406.15	1714.15
406.35	1736.68
406.56	1718.25
406.77	1656.81
406.98	1695.72
407.18	1681.38
407.39	1701.86
407.60	1658.85
407.80	1734.63
408.01	1646.57
408.22	1769.44
408.43	1613.80
408.63	1771.49
408.84	1783.78
409.05	1759.21
409.25	1667.05
409.46	1652.71
409.67	1673.19
409.88	1636.33
410.08	1689.57
410.29	1624.04
410.50	1710.05
410.70	1685.48
410.91	1605.61
411.12	1703.91
411.32	1734.63
411.53	1644.52
411.74	1822.69
411.95	1742.82
412.15	1722.34
412.36	1736.68
412.57	1685.48
412.77	1708.01
412.98	1710.05
413.19	1669.09
413.39	1732.58
413.60	1658.85
413.81	1794.02
414.01	1701.86
414.22	1787.88
414.43	1638.38
414.63	1660.90
414.84	1808.36
415.05	1708.01
415.25	1640.42
415.46	1724.39
415.67	1671.14
415.87	1728.49
416.08	1671.14
416.29	1640.42
416.49	1634.28
416.70	1665.00
416.91	1640.42
417.11	1669.09
417.32	1730.53
417.53	1742.82
417.73	1626.09
417.94	1697.77
418.15	1714.15
418.35	1732.58
418.56	1701.86
418.77	1869.80
418.97	1665.00
419.18	1761.25
419.38	1589.22
419.59	1669.09
419.80	1847.27
420.00	1695.72
420.21	1691.62
420.42	1853.41
420.62	1665.00
420.83	1619.94
421.04	1648.61
421.24	1677.29
421.45	1781.73
421.65	1742.82
421.86	1732.58
422.07	1785.83
422.27	1658.85
422.48	1718.25
422.69	1607.66
422.89	1695.72
423.10	1593.32
423.30	1662.95
423.51	1687.53
423.72	1712.10
423.92	1730.53
424.13	1628.14
424.33	1710.05
424.54	1693.67
424.75	1722.34
424.95	1767.40
425.16	1820.64
425.36	1703.91
425.57	1755.11
425.78	1757.16
425.98	1693.67
426.19	1710.05
426.39	1626.09
426.60	1701.86
426.81	1802.21
427.01	1728.49
427.22	1632.23
427.42	1640.42
427.63	1574.89
427.83	1722.34
428.04	1765.35
428.25	1798.12
428.45	1722.34
428.66	1820.64
428.86	1638.38
429.07	1705.96
429.28	1662.95
429.48	1677.29
429.69	1665.00
429.89	1652.71
430.10	1624.04
430.30	1746.92
430.51	1773.54
430.71	1646.57
430.92	1671.14
431.13	1710.05
431.33	1779.68
431.54	1695.72
431.74	1757.16
431.95	1884.13
432.15	1632.23
432.36	1660.90
432.56	1771.49
432.77	1816.55
432.98	1816.55
433.18	1636.33
433.39	1658.85
433.59	1767.40
433.80	1832.93
434.00	1714.15
434.21	1705.96
434.41	1685.48
434.62	1867.75
434.82	1601.51
435.03	1652.71
435.23	1677.29
435.44	1591.27
435.64	1730.53
435.85	1671.14
436.06	1759.21
436.26	1714.15
436.47	1722.34
436.67	1669.09
436.88	1689.57
437.08	1710.05
437.29	1787.88
437.49	1740.77
437.70	1681.38
437.90	1718.25
438.11	1783.78
438.31	1761.25
438.52	1867.75
438.72	1849.32
438.93	1843.17
439.13	1783.78
439.34	1705.96
439.54	1736.68
439.75	1691.62
439.95	1767.40
440.16	1679.33
440.36	1775.59
440.57	1732.58
440.77	1724.39
440.98	1644.52
441.18	1773.54
441.39	1691.62
441.59	1642.47
441.80	1808.36
442.00	1710.05
442.21	1718.25
442.41	1662.95
442.62	1718.25
442.82	1628.14
443.02	1628.14
443.23	1775.59
443.43	1636.33
443.64	1777.64
443.84	1640.42
444.05	1761.25
444.25	1708.01
444.46	1701.86
444.66	1773.54
444.87	1808.36
445.07	1662.95
445.28	1699.81
445.48	1818.60
445.69	1783.78
445.89	1855.46
446.09	1828.84
446.30	2045.92
446.50	2674.65
446.71	3760.07
446.91	4278.21
447.12	4822.97
447.32	4808.63
447.53	4317.12
447.73	3878.85
447.93	3620.81
448.14	3299.28
448.34	3182.54
448.55	2953.17
448.75	2795.48
448.96	2654.17
449.16	2369.50
449.36	2310.11
449.57	2074.59
449.77	1988.58
449.98	1789.92
450.18	1816.55
450.39	1773.54
450.59	1755.11
450.79	1720.29
451.00	1624.04
451.20	1746.92
451.41	1665.00
451.61	1767.40
451.81	1679.33
452.02	1699.81
452.22	1740.77
452.43	1714.15
452.63	1660.90
452.84	1652.71
453.04	1736.68
453.24	1740.77
453.45	1755.11
453.65	1638.38
453.86	1771.49
454.06	1642.47
454.26	1779.68
454.47	1615.85
454.67	1849.32
454.87	1787.88
455.08	1751.01
455.28	1742.82
455.49	1665.00
455.69	1654.76
455.89	1753.06
456.10	1841.12
456.30	1660.90
456.51	1730.53
456.71	1763.30
456.91	1703.91
457.12	1757.16
457.32	1769.44
457.52	1718.25
457.73	1818.60
457.93	1757.16
458.14	1714.15
458.34	1583.08
458.54	1791.97
458.75	1732.58
458.95	1787.88
459.15	1703.91
459.36	1779.68
459.56	1779.68
459.76	1828.84
459.97	1681.38
460.17	1693.67
460.37	1804.26
460.58	1767.40
460.78	1765.35
460.99	1714.15
461.19	1726.44
461.39	1728.49
461.60	1705.96
461.80	1697.77
462.00	1689.57
462.21	1681.38
462.41	1603.56
462.61	1722.34
462.82	1605.61
463.02	1689.57
463.22	1685.48
463.43	1800.16
463.63	1753.06
463.83	1677.29
464.04	1695.72
464.24	1728.49
464.44	1665.00
464.64	1773.54
464.85	1718.25
465.05	1804.26
465.25	1640.42
465.46	1679.33
465.66	1718.25
465.86	1759.21
466.07	1665.00
466.27	1710.05
466.47	1578.98
466.68	1636.33
466.88	1777.64
467.08	1812.45
467.29	1708.01
467.49	1783.78
467.69	1679.33
467.89	1775.59
468.10	1648.61
468.30	1703.91
468.50	1722.34
468.71	1751.01
468.91	1636.33
469.11	1808.36
469.31	1728.49
469.52	1628.14
469.72	1847.27
469.92	1857.51
470.13	1771.49
470.33	1607.66
470.53	1714.15
470.73	2156.51
470.94	2213.85
471.14	2342.88
471.34	2492.38
471.54	2463.71
471.75	2222.05
471.95	2111.46
472.15	2146.27
472.36	2078.69
472.56	2029.54
472.76	2050.02
472.96	1912.80
473.17	1957.86
473.37	1904.61
473.57	1728.49
473.77	1847.27
473.98	1806.31
474.18	1744.87
474.38	1902.56
474.58	1705.96
474.79	1669.09
474.99	1714.15
475.19	1759.21
475.39	1693.67
475.60	1759.21
475.80	1718.25
476.00	1693.67
476.20	1662.95
476.41	1740.77
476.61	1789.92
476.81	1796.07
477.01	1646.57
477.21	1826.79
477.42	1771.49
477.62	1652.71
477.82	1785.83
478.02	1646.57
478.23	1785.83
478.43	1648.61
478.63	1650.66
478.83	1665.00
479.03	1746.92
479.24	1781.73
479.44	1824.74
479.64	1658.85
479.84	1601.51
480.04	1691.62
480.25	1755.11
480.45	1691.62
480.65	1708.01
480.85	1734.63
481.06	1646.57
481.26	1716.20
481.46	1730.53
481.66	1638.38
481.86	1705.96
482.06	1816.55
482.27	1742.82
482.47	1665.00
482.67	1759.21
482.87	1689.57
483.07	1783.78
483.28	1695.72
483.48	1615.85
483.68	1621.99
483.88	1652.71
484.08	1628.14
484.29	1583.08
484.49	1693.67
484.69	1712.10
484.89	1785.83
485.09	1726.44
485.29	1720.29
485.50	1673.19
485.70	1724.39
485.90	1730.53
486.10	1779.68
486.30	1746.92
486.50	1759.21
486.71	1744.87
486.91	1742.82
487.11	1816.55
487.31	1677.29
487.51	1806.31
487.71	1677.29
487.91	1607.66
488.12	1665.00
488.32	1593.32
488.52	1701.86
488.72	1564.65
488.92	1781.73
489.12	1726.44
489.32	1730.53
489.53	1791.97
489.73	1681.38
489.93	1806.31
490.13	1599.46
490.33	1665.00
490.53	1660.90
490.73	1755.11
490.94	1615.85
491.14	1763.30
491.34	1785.83
491.54	2146.27
491.74	2625.50
491.94	2930.64
492.14	2965.46
492.34	3092.43
492.54	2789.33
492.75	2514.91
492.95	2414.56
493.15	2379.74
493.35	2367.45
493.55	2185.18
493.75	2144.22
493.95	2154.46
494.15	2021.35
494.35	1855.46
494.56	1898.47
494.76	1748.97
494.96	1730.53
495.16	1822.69
495.36	1705.96
495.56	1716.20
495.76	1701.86
495.96	1748.97
496.16	1640.42
496.36	1779.68
496.56	1716.20
496.77	1689.57
496.97	1636.33
497.17	1728.49
497.37	1607.66
497.57	1697.77
497.77	1581.03
497.97	1656.81
498.17	1697.77
498.37	1726.44
498.57	1699.81
498.77	1769.44
498.97	1695.72
499.17	1810.40
499.38	1722.34
499.58	1789.92
499.78	1755.11
499.98	1875.94
500.18	1720.29
500.38	1652.71
500.58	1994.72
500.78	2629.59
500.98	4552.63
501.18	5879.72
501.38	6719.39
501.58	7071.64
501.78	6764.44
501.98	5552.04
502.18	5050.29
502.38	4347.84
502.58	4126.66
502.78	3790.79
502.98	3717.06
503.18	3409.87
503.38	3221.45
503.59	2826.20
503.79	2725.85
503.99	2510.81
504.19	2310.11
504.39	2211.81
504.59	2209.76
504.79	2086.88
504.99	2070.50
505.19	1945.57
505.39	1861.60
505.59	1974.24
505.79	1892.32
505.99	1812.45
506.19	1738.73
506.39	1839.08
506.59	1734.63
506.79	1777.64
506.99	1806.31
507.19	1703.91
507.39	1734.63
507.59	1669.09
507.79	1701.86
507.99	1701.86
508.19	1767.40
508.39	1720.29
508.59	1615.85
508.79	1775.59
508.99	1775.59
509.19	1658.85
509.39	1732.58
509.59	1693.67
509.79	1675.24
509.99	1716.20
510.19	1695.72
510.39	1763.30
510.59	1681.38
510.79	1673.19
510.99	1630.18
511.19	1808.36
511.39	1880.04
511.59	1761.25
511.79	1837.03
511.99	1763.30
512.19	1800.16
512.38	1718.25
512.58	1716.20
512.78	1626.09
512.98	1714.15
513.18	1806.31
513.38	1632.23
513.58	1695.72
513.78	1658.85
513.98	1712.10
514.18	1736.68
514.38	1738.73
514.58	1769.44
514.78	1673.19
514.98	1679.33
515.18	1712.10
515.38	1718.25
515.58	1882.08
515.78	1656.81
515.98	1681.38
516.18	1787.88
516.38	1679.33
516.57	1730.53
516.77	1648.61
516.97	1687.53
517.17	1775.59
517.37	1619.94
517.57	1783.78
517.77	1703.91
517.97	1716.20
518.17	1794.02
518.37	1697.77
518.57	1640.42
518.77	1615.85
518.97	1656.81
519.16	1789.92
519.36	1755.11
519.56	1685.48
519.76	1724.39
519.96	1732.58
520.16	1794.02
520.36	1685.48
520.56	1714.15
520.76	1636.33
520.96	1724.39
521.16	1773.54
521.35	1814.50
521.55	1824.74
521.75	1726.44
521.95	1722.34
522.15	1718.25
522.35	1654.76
522.55	1681.38
522.75	1777.64
522.95	1660.90
523.14	1691.62
523.34	1701.86
523.54	1757.16
523.74	1783.78
523.94	1736.68
524.14	1662.95
524.34	1783.78
524.54	1710.05
524.73	1705.96
524.93	1720.29
525.13	1708.01
525.33	1648.61
525.53	1802.21
525.73	1765.35
525.93	1730.53
526.13	1695.72
526.32	1701.86
526.52	1724.39
526.72	1808.36
526.92	1708.01
527.12	1724.39
527.32	1621.99
527.52	1761.25
527.71	1732.58
527.91	1675.24
528.11	1662.95
528.31	1683.43
528.51	1669.09
528.71	1699.81
528.90	1753.06
529.10	1763.30
529.30	1769.44
529.50	1708.01
529.70	1755.11
529.90	1748.97
530.09	1691.62
530.29	1675.24
530.49	1691.62
530.69	1880.04
530.89	1769.44
531.09	1671.14
531.28	1806.31
531.48	1708.01
531.68	1767.40
531.88	1742.82
532.08	1748.97
532.28	1662.95
532.47	1738.73
532.67	1763.30
532.87	1748.97
533.07	1673.19
533.27	1783.78
533.46	1716.20
533.66	1689.57
533.86	1714.15
534.06	1681.38
534.26	1730.53
534.45	1632.23
534.65	1761.25
534.85	1697.77
535.05	1718.25
535.25	1798.12
535.44	1624.04
535.64	1789.92
535.84	1732.58
536.04	1705.96
536.24	1714.15
536.43	1648.61
536.63	1751.01
536.83	1695.72
537.03	1755.11
537.22	1578.98
537.42	1642.47
537.62	1740.77
537.82	1714.15
538.02	1796.07
538.21	1806.31
538.41	1798.12
538.61	1730.53
538.81	1722.34
539.00	1794.02
539.20	1716.20
539.40	1689.57
539.60	1740.77
539.79	1755.11
539.99	1687.53
540.19	1681.38
540.39	1742.82
540.58	1787.88
540.78	1765.35
540.98	1728.49
541.18	1775.59
541.37	1783.78
541.57	1648.61
541.77	1763.30
541.97	1605.61
542.16	1650.66
542.36	1789.92
542.56	1845.22
542.76	1841.12
542.95	1761.25
543.15	1765.35
543.35	1712.10
543.54	1695.72
543.74	1619.94
543.94	1832.93
544.14	1710.05
544.33	1730.53
544.53	1720.29
544.73	1662.95
544.93	1742.82
545.12	1755.11
545.32	1705.96
545.52	1781.73
545.71	1699.81
545.91	1679.33
546.11	1615.85
546.30	1712.10
546.50	1753.06
546.70	1679.33
546.90	1701.86
547.09	1710.05
547.29	1724.39
547.49	1820.64
547.68	1662.95
547.88	1652.71
548.08	1767.40
548.27	2230.24
548.47	1740.77
548.67	1603.56
548.87	1677.29
549.06	1634.28
549.26	1744.87
549.46	1802.21
549.65	1693.67
549.85	1753.06
550.05	1781.73
550.24	1701.86
550.44	1695.72
550.64	1675.24
550.83	1763.30
551.03	1703.91
551.23	1787.88
551.42	1769.44
551.62	1683.43
551.82	1716.20
552.01	1761.25
552.21	1783.78
552.41	1693.67
552.60	1712.10
552.80	1730.53
553.00	1726.44
553.19	1716.20
553.39	1806.31
553.59	1660.90
553.78	1771.49
553.98	1673.19
554.17	1624.04
554.37	1699.81
554.57	1656.81
554.76	1753.06
554.96	1757.16
555.16	1728.49
555.35	1693.67
555.55	1730.53
555.75	1681.38
555.94	1757.16
556.14	1632.23
556.33	1775.59
556.53	1705.96
556.73	1683.43
556.92	1740.77
557.12	1877.99
557.32	1794.02
557.51	1791.97
557.71	1742.82
557.90	1789.92
558.10	1810.40
558.30	1759.21
558.49	1675.24
558.69	1779.68
558.88	1748.97
559.08	1771.49
559.28	1730.53
559.47	1781.73
559.67	1757.16
559.86	1822.69
560.06	1773.54
560.26	1714.15
560.45	1765.35
560.65	1798.12
560.84	1736.68
561.04	1626.09
561.24	1783.78
561.43	1689.57
561.63	1765.35
561.82	1687.53
562.02	1783.78
562.22	1712.10
562.41	1746.92
562.61	1638.38
562.80	1708.01
563.00	1857.51
563.19	1767.40
563.39	1783.78
563.59	1779.68
563.78	1683.43
563.98	1605.61
564.17	1665.00
564.37	1621.99
564.56	1693.67
564.76	1581.03
564.96	1771.49
565.15	1699.81
565.35	1818.60
565.54	1689.57
565.74	1828.84
565.93	1738.73
566.13	1650.66
566.32	1720.29
566.52	1767.40
566.71	1794.02
566.91	1789.92
567.11	1708.01
567.30	1689.57
567.50	1785.83
567.69	1757.16
567.89	1677.29
568.08	1730.53
568.28	1662.95
568.47	1642.47
568.67	1751.01
568.86	1693.67
569.06	1722.34
569.25	1712.10
569.45	1712.10
569.64	1697.77
569.84	1773.54
570.04	1757.16
570.23	1724.39
570.43	1771.49
570.62	1785.83
570.82	1800.16
571.01	1638.38
571.21	1701.86
571.40	1699.81
571.60	1779.68
571.79	1744.87
571.99	1746.92
572.18	1621.99
572.38	1726.44
572.57	1710.05
572.77	1767.40
572.96	1849.32
573.16	1773.54
573.35	1744.87
573.55	1832.93
573.74	1748.97
573.94	1624.04
574.13	1724.39
574.33	1839.08
574.52	1798.12
574.71	1693.67
574.91	1683.43
575.10	1654.76
575.30	1716.20
575.49	1730.53
575.69	1626.09
575.88	1751.01
576.08	1675.24
576.27	1697.77
576.47	1705.96
576.66	1783.78
576.86	1810.40
577.05	1804.26
577.25	1837.03
577.44	1886.18
577.64	1679.33
577.83	1732.58
578.02	1699.81
578.22	1814.50
578.41	1851.36
578.61	1738.73
578.80	1626.09
579.00	1789.92
579.19	1701.86
579.39	1777.64
579.58	1834.98
579.77	1722.34
579.97	1826.79
580.16	1812.45
580.36	1734.63
580.55	1845.22
580.75	1742.82
580.94	1783.78
581.13	1839.08
581.33	1912.80
581.52	1685.48
581.72	1841.12
581.91	1871.84
582.11	1779.68
582.30	1679.33
582.49	1744.87
582.69	1892.32
582.88	1859.56
583.08	1775.59
583.27	1773.54
583.47	1767.40
583.66	1658.85
583.85	1695.72
584.05	1720.29
584.24	1751.01
584.44	1751.01
584.63	1806.31
584.82	1791.97
585.02	1759.21
585.21	1882.08
585.41	1798.12
585.60	1812.45
585.79	1871.84
585.99	1873.89
586.18	1826.79
586.37	2228.19
586.57	3413.96
586.76	10106.73
586.96	25165.44
587.15	35511.78
587.34	41409.93
587.54	42960.24
587.73	37739.97
587.93	27145.83
588.12	22337.20
588.31	18671.33
588.51	16738.05
588.70	15458.07
588.89	14477.09
589.09	12943.16
589.28	11370.32
589.47	9578.35
589.67	8120.20
589.86	6588.32
590.06	5048.24
590.25	4024.26
590.44	3102.67
590.64	2625.50
590.83	2303.96
591.02	2146.27
591.22	1984.48
591.41	1916.90
591.60	1816.55
591.80	1910.75
591.99	1689.57
592.18	1681.38
592.38	1894.37
592.57	1720.29
592.76	1804.26
592.96	1753.06
593.15	1839.08
593.34	1839.08
593.54	1787.88
593.73	1798.12
593.92	1751.01
594.12	1804.26
594.31	1726.44
594.50	1755.11
594.70	1804.26
594.89	1857.51
595.08	1665.00
595.28	1744.87
595.47	1939.43
595.66	1759.21
595.86	1681.38
596.05	1693.67
596.24	1669.09
596.43	1851.36
596.63	1777.64
596.82	1722.34
597.01	1773.54
597.21	1796.07
597.40	1728.49
597.59	1742.82
597.79	1697.77
597.98	1757.16
598.17	1697.77
598.36	1697.77
598.56	1714.15
598.75	1665.00
598.94	1644.52
599.14	1697.77
599.33	1685.48
599.52	1755.11
599.71	1738.73
599.91	1796.07
600.10	1755.11
600.29	1710.05
600.48	1857.51
600.68	1826.79
600.87	1689.57
601.06	1763.30
601.26	1789.92
601.45	1730.53
601.64	1660.90
601.83	1742.82
602.03	1646.57
602.22	1677.29
602.41	1814.50
602.60	1849.32
602.80	1783.78
602.99	1740.77
603.18	1710.05
603.37	1705.96
603.57	1796.07
603.76	1794.02
603.95	1783.78
604.14	1699.81
604.34	1716.20
604.53	1753.06
604.72	1751.01
604.91	1779.68
605.10	1708.01
605.30	1646.57
605.49	1779.68
605.68	1753.06
605.87	1693.67
606.07	1732.58
606.26	1720.29
606.45	1794.02
606.64	1808.36
606.84	1693.67
607.03	1791.97
607.22	1730.53
607.41	1658.85
607.60	1652.71
607.80	1757.16
607.99	1669.09
608.18	1712.10
608.37	1718.25
608.56	1677.29
608.76	1748.97
608.95	1857.51
609.14	1710.05
609.33	1730.53
609.52	1804.26
609.72	1693.67
609.91	1771.49
610.10	1730.53
610.29	1910.75
610.48	1759.21
610.68	1730.53
610.87	1673.19
611.06	1728.49
611.25	1708.01
611.44	1783.78
611.63	1656.81
611.83	1820.64
612.02	1617.90
612.21	1718.25
612.40	1667.05
612.59	1648.61
612.79	1669.09
612.98	1718.25
613.17	1816.55
613.36	1726.44
613.55	1722.34
613.74	1619.94
613.93	1650.66
614.13	1736.68
614.32	1820.64
614.51	1710.05
614.70	1650.66
614.89	1640.42
615.08	1662.95
615.28	2054.11
615.47	1646.57
615.66	1705.96
615.85	1734.63
616.04	1746.92
616.23	1712.10
616.42	1648.61
616.62	1746.92
616.81	1738.73
617.00	1701.86
617.19	1822.69
617.38	1697.77
617.57	1712.10
617.76	1697.77
617.95	1748.97
618.15	1722.34
618.34	1759.21
618.53	1650.66
618.72	1796.07
618.91	1804.26
619.10	1775.59
619.29	1693.67
619.48	1665.00
619.68	1708.01
619.87	1726.44
620.06	1660.90
620.25	1708.01
620.44	1685.48
620.63	1699.81
620.82	1712.10
621.01	1689.57
621.20	1699.81
621.39	1777.64
621.59	1712.10
621.78	1714.15
621.97	1732.58
622.16	1751.01
622.35	1705.96
622.54	1800.16
622.73	1800.16
622.92	1648.61
623.11	1728.49
623.30	1644.52
623.49	1716.20
623.68	1677.29
623.88	1738.73
624.07	1693.67
624.26	1675.24
624.45	1697.77
624.64	1660.90
624.83	1697.77
625.02	1675.24
625.21	1667.05
625.40	1732.58
625.59	1783.78
625.78	1665.00
625.97	1740.77
626.16	1673.19
626.35	1773.54
626.54	1712.10
626.74	1675.24
626.93	1677.29
627.12	1685.48
627.31	1726.44
627.50	1722.34
627.69	1826.79
627.88	1648.61
628.07	1699.81
628.26	1656.81
628.45	1642.47
628.64	1609.70
628.83	1712.10
629.02	1615.85
629.21	1781.73
629.40	1703.91
629.59	1667.05
629.78	1748.97
629.97	1734.63
630.16	1738.73
630.35	1632.23
630.54	1767.40
630.73	1701.86
630.92	1748.97
631.11	1660.90
631.30	1740.77
631.49	1720.29
631.68	1687.53
631.87	1675.24
632.06	1638.38
632.25	1816.55
632.44	1669.09
632.63	1830.88
632.82	1744.87
633.01	1714.15
633.20	1705.96
633.39	1615.85
633.58	1675.24
633.77	1812.45
633.96	1761.25
634.15	1820.64
634.34	1712.10
634.53	1718.25
634.72	1728.49
634.91	1644.52
635.10	1730.53
635.29	1738.73
635.48	1757.16
635.67	1677.29
635.86	1656.81
636.05	1804.26
636.24	1759.21
636.43	1736.68
636.62	1679.33
636.81	1556.46
637.00	1705.96
637.19	1703.91
637.38	1728.49
637.57	1691.62
637.76	1669.09
637.95	1681.38
638.14	1687.53
638.33	1701.86
638.52	1644.52
638.71	1642.47
638.89	1673.19
639.08	1875.94
639.27	1755.11
639.46	1693.67
639.65	1744.87
639.84	1748.97
640.03	1791.97
640.22	1712.10
640.41	1908.71
640.60	1656.81
640.79	1738.73
640.98	1636.33
641.17	1667.05
641.36	1712.10
641.55	1802.21
641.74	1619.94
641.92	1658.85
642.11	1611.75
642.30	1726.44
642.49	1691.62
642.68	1681.38
642.87	1705.96
643.06	1679.33
643.25	1675.24
643.44	1650.66
643.63	1697.77
643.82	1744.87
644.00	1609.70
644.19	1669.09
644.38	1640.42
644.57	1789.92
644.76	1738.73
644.95	1714.15
645.14	1734.63
645.33	1691.62
645.52	1755.11
645.71	1630.18
645.89	1675.24
646.08	1703.91
646.27	1701.86
646.46	1791.97
646.65	1585.13
646.84	1689.57
647.03	1634.28
647.22	1757.16
647.40	1748.97
647.59	1689.57
647.78	1695.72
647.97	1619.94
648.16	1660.90
648.35	1705.96
648.54	1773.54
648.73	1634.28
648.91	1779.68
649.10	1703.91
649.29	1617.90
649.48	1689.57
649.67	1714.15
649.86	1736.68
650.05	1642.47
650.23	1785.83
650.42	1675.24
650.61	1767.40
650.80	1736.68
650.99	1863.65
651.18	1759.21
651.36	1761.25
651.55	1634.28
651.74	1818.60
651.93	1693.67
652.12	1738.73
652.31	1720.29
652.49	1677.29
652.68	1636.33
652.87	1796.07
653.06	1724.39
653.25	1742.82
653.44	1611.75
653.62	1781.73
653.81	1679.33
654.00	1708.01
654.19	1767.40
654.38	1753.06
654.56	1695.72
654.75	1656.81
654.94	1742.82
655.13	1660.90
655.32	1775.59
655.51	1773.54
655.69	1621.99
655.88	1746.92
656.07	1621.99
656.26	1699.81
656.45	1632.23
656.63	1640.42
656.82	1718.25
657.01	1726.44
657.20	1630.18
657.38	1796.07
657.57	1636.33
657.76	1595.37
657.95	1761.25
658.14	1671.14
658.32	1699.81
658.51	1689.57
658.70	1681.38
658.89	1746.92
659.08	1734.63
659.26	1759.21
659.45	1662.95
659.64	1759.21
659.83	1581.03
660.01	1892.32
660.20	1738.73
660.39	1748.97
660.58	1595.37
660.76	1765.35
660.95	1630.18
661.14	1722.34
661.33	1667.05
661.51	1650.66
661.70	1671.14
661.89	1732.58
662.08	1771.49
662.26	1703.91
662.45	1632.23
662.64	1812.45
662.83	1714.15
663.01	1613.80
663.20	1742.82
663.39	1742.82
663.58	1654.76
663.76	1720.29
663.95	1767.40
664.14	1660.90
664.32	1619.94
664.51	1705.96
664.70	1585.13
664.89	1732.58
665.07	1660.90
665.26	1753.06
665.45	1613.80
665.64	1738.73
665.82	1734.63
666.01	1703.91
666.20	1671.14
666.38	1816.55
666.57	1859.56
666.76	2170.85
666.95	4569.02
667.13	10336.10
667.32	15623.95
667.51	18153.20
667.69	19218.14
667.88	18210.54
668.07	12429.12
668.25	9815.91
668.44	8238.98
668.63	7554.96
668.81	7040.92
669.00	6295.46
669.19	5810.09
669.38	5158.83
669.56	4730.81
669.75	4100.03
669.94	3542.99
670.12	2881.49
670.31	2621.40
670.50	2310.11
670.68	2062.30
670.87	1855.46
671.06	1779.68
671.24	1734.63
671.43	1757.16
671.62	1693.67
671.80	1681.38
671.99	1722.34
672.18	1652.71
672.36	1773.54
672.55	1699.81
672.74	1726.44
672.92	1662.95
673.11	1732.58
673.29	1665.00
673.48	1730.53
673.67	1665.00
673.85	1742.82
674.04	1679.33
674.23	1656.81
674.41	1884.13
674.60	1642.47
674.79	1595.37
674.97	1734.63
675.16	1759.21
675.34	1806.31
675.53	1673.19
675.72	1744.87
675.90	1701.86
676.09	1736.68
676.28	1734.63
676.46	1665.00
676.65	1738.73
676.83	1652.71
677.02	1660.90
677.21	1675.24
677.39	1703.91
677.58	1669.09
677.77	1656.81
677.95	1632.23
678.14	1628.14
678.32	1671.14
678.51	1636.33
678.70	1796.07
678.88	1599.46
679.07	1734.63
679.25	1718.25
679.44	1673.19
679.63	1712.10
679.81	1685.48
680.00	1796.07
680.18	1712.10
680.37	1720.29
680.55	1755.11
680.74	1640.42
680.93	1648.61
681.11	1671.14
681.30	1755.11
681.48	1697.77
681.67	1652.71
681.85	1732.58
682.04	1615.85
682.23	1648.61
682.41	1648.61
682.60	1726.44
682.78	1669.09
682.97	1728.49
683.15	1710.05
683.34	1693.67
683.53	1722.34
683.71	1677.29
683.90	1761.25
684.08	1810.40
684.27	1720.29
684.45	1654.76
684.64	1761.25
684.82	1675.24
685.01	1738.73
685.19	1746.92
685.38	1763.30
685.57	1710.05
685.75	1578.98
685.94	1679.33
686.12	1660.90
686.31	1617.90
686.49	1832.93
686.68	1624.04
686.86	1716.20
687.05	1640.42
687.23	1816.55
687.42	1726.44
687.60	1630.18
687.79	1699.81
687.97	1748.97
688.16	1832.93
688.34	1767.40
688.53	1603.56
688.71	1757.16
688.90	1693.67
689.08	1667.05
689.27	1578.98
689.45	1783.78
689.64	1775.59
689.82	1720.29
690.01	1701.86
690.19	1720.29
690.38	1632.23
690.56	1742.82
690.75	1726.44
690.93	1675.24
691.12	1628.14
691.30	1669.09
691.49	1761.25
691.67	1726.44
691.86	1804.26
692.04	1724.39
692.23	1615.85
692.41	1611.75
692.60	1849.32
692.78	1665.00
692.97	1683.43
693.15	1710.05
693.34	1701.86
693.52	1783.78
693.71	1654.76
693.89	1675.24
694.08	1554.41
694.26	1726.44
694.44	1697.77
694.63	1767.40
694.81	1619.94
695.00	1689.57
695.18	1730.53
695.37	1787.88
695.55	1697.77
695.74	1662.95
695.92	1730.53
696.10	1742.82
696.29	1679.33
696.47	1714.15
696.66	1648.61
696.84	1673.19
697.03	1693.67
697.21	1794.02
697.40	2267.10
697.58	1753.06
697.76	1669.09
697.95	1648.61
698.13	1656.81
698.32	1638.38
698.50	1712.10
698.68	1650.66
698.87	1714.15
699.05	1775.59
699.24	1693.67
699.42	1662.95
699.61	1744.87
699.79	1597.42
699.97	1640.42
700.16	1740.77
700.34	1660.90
700.53	1642.47
700.71	1746.92
700.89	1779.68
701.08	1630.18
701.26	1662.95
701.45	2052.06
701.63	1660.90
701.81	1658.85
702.00	1662.95
702.18	1683.43
702.37	1626.09
702.55	1656.81
702.73	1650.66
702.92	1636.33
703.10	1738.73
703.28	1796.07
703.47	1667.05
703.65	1738.73
703.84	1675.24
704.02	1591.27
704.20	1806.31
704.39	1634.28
704.57	1748.97
704.75	1775.59
704.94	1742.82
705.12	1710.05
705.30	1826.79
705.49	2193.37
705.67	4444.09
705.86	9717.61
706.04	13066.04
706.22	14817.05
706.41	15826.70
706.59	14415.65
706.77	10069.86
706.96	7604.11
707.14	6735.77
707.32	6043.56
707.51	5607.34
707.69	4968.37
707.87	4335.55
708.06	3721.16
708.24	2969.55
708.42	2514.91
708.61	2242.53
708.79	1949.67
708.97	1943.52
709.16	1736.68
709.34	1746.92
709.52	1699.81
709.71	1708.01
709.89	1695.72
710.07	1609.70
710.26	1656.81
710.44	1648.61
710.62	1757.16
710.80	1687.53
710.99	1824.74
711.17	1740.77
711.35	1654.76
711.54	1691.62
711.72	1755.11
711.90	1716.20
712.09	1648.61
712.27	1640.42
712.45	1722.34
712.63	1691.62
712.82	1683.43
713.00	1644.52
713.18	1771.49
713.37	1728.49
713.55	1712.10
713.73	1804.26
713.91	1757.16
714.10	1609.70
714.28	1701.86
714.46	1714.15
714.65	1621.99
714.83	1703.91
715.01	1742.82
715.19	1593.32
715.38	1697.77
715.56	1660.90
715.74	1621.99
715.92	1617.90
716.11	1783.78
716.29	1566.70
716.47	1800.16
716.65	1685.48
716.84	1687.53
717.02	1697.77
717.20	1595.37
717.38	1748.97
717.57	1824.74
717.75	1665.00
717.93	1732.58
718.11	1730.53
718.30	1644.52
718.48	1710.05
718.66	1783.78
718.84	1755.11
719.03	1632.23
719.21	1695.72
719.39	1859.56
719.57	1705.96
719.75	1722.34
719.94	1638.38
720.12	1699.81
720.30	1689.57
720.48	1832.93
720.67	1671.14
720.85	1601.51
721.03	1705.96
721.21	1624.04
721.39	1800.16
721.58	1802.21
721.76	1646.57
721.94	1808.36
722.12	1730.53
722.30	1773.54
722.49	1722.34
722.67	1742.82
722.85	1695.72
723.03	1667.05
723.21	1701.86
723.40	1673.19
723.58	1660.90
723.76	1705.96
723.94	1736.68
724.12	1730.53
724.30	1763.30
724.49	1775.59
724.67	1673.19
724.85	1679.33
725.03	1642.47
725.21	1759.21
725.40	1798.12
725.58	1660.90
725.76	1763.30
725.94	1716.20
726.12	1673.19
726.30	1699.81
726.49	1626.09
726.67	1687.53
726.85	1703.91
727.03	1791.97
727.21	2201.57
727.39	2908.12
727.57	3817.41
727.76	4364.22
727.94	4544.44
728.12	4347.84
728.30	3770.31
728.48	3039.19
728.66	2760.66
728.84	2602.97
729.03	2316.25
729.21	2191.33
729.39	2066.40
729.57	1812.45
729.75	1830.88
729.93	1890.28
730.11	1669.09
730.30	1673.19
730.48	1705.96
730.66	1761.25
730.84	1714.15
731.02	1691.62
731.20	1714.15
731.38	1714.15
731.56	1681.38
731.74	1597.42
731.93	1671.14
732.11	1695.72
732.29	1667.05
732.47	1689.57
732.65	1673.19
732.83	1775.59
733.01	1736.68
733.19	1630.18
733.37	1675.24
733.56	1685.48
733.74	1634.28
733.92	1837.03
734.10	1601.51
734.28	1759.21
734.46	1619.94
734.64	1710.05
734.82	1712.10
735.00	1619.94
735.18	1662.95
735.36	1667.05
735.54	1757.16
735.73	1667.05
735.91	1683.43
736.09	1705.96
736.27	1705.96
736.45	1763.30
736.63	1669.09
736.81	1652.71
736.99	1689.57
737.17	1826.79
737.35	1701.86
737.53	1738.73
737.71	1587.18
737.89	1742.82
738.07	1603.56
738.25	1654.76
738.43	1607.66
738.61	1673.19
738.80	1585.13
738.98	1667.05
739.16	1654.76
739.34	1642.47
739.52	1714.15
739.70	1671.14
739.88	1740.77
740.06	1798.12
740.24	1578.98
740.42	1746.92
740.60	1578.98
740.78	1636.33
740.96	1570.79
741.14	1607.66
741.32	1738.73
741.50	1648.61
741.68	1681.38
741.86	1728.49
742.04	1615.85
742.22	1703.91
742.40	1718.25
742.58	1667.05
742.76	1660.90
742.94	1734.63
743.12	1644.52
743.30	1699.81
743.48	1693.67
743.66	1632.23
743.84	1701.86
744.02	1632.23
744.20	1691.62
744.38	1679.33
744.56	1667.05
744.74	1812.45
744.92	1697.77
745.10	1744.87
745.28	1681.38
745.46	1763.30
745.64	1589.22
745.82	1667.05
746.00	1699.81
746.18	1699.81
746.36	1611.75
746.54	1726.44
746.72	1589.22
746.90	1611.75
747.08	1695.72
747.26	1714.15
747.44	1718.25
747.62	1724.39
747.80	1724.39
747.98	1718.25
748.15	1718.25
748.33	1779.68
748.51	1701.86
748.69	1689.57
748.87	1667.05
749.05	1714.15
749.23	1669.09
749.41	1767.40
749.59	1736.68
749.77	1736.68
749.95	1628.14
750.13	1574.89
750.31	1716.20
750.49	1708.01
750.67	1677.29
750.85	1806.31
751.03	1656.81
751.20	1779.68
751.38	1685.48
751.56	1728.49
751.74	1714.15
751.92	1681.38
752.10	1611.75
752.28	1712.10
752.46	1652.71
752.64	1658.85
752.82	1705.96
753.00	1734.63
753.18	1652.71
753.35	1654.76
753.53	1673.19
753.71	1671.14
753.89	1695.72
754.07	1714.15
754.25	1746.92
754.43	1722.34
754.61	1607.66
754.79	1732.58
754.97	1689.57
755.14	1777.64
755.32	1611.75
755.50	1730.53
755.68	1705.96
755.86	1695.72
756.04	1671.14
756.22	1540.07
756.40	1687.53
756.57	1791.97
756.75	1656.81
756.93	1771.49
757.11	1736.68
757.29	1638.38
757.47	1638.38
757.65	1636.33
757.82	1648.61
758.00	1691.62
758.18	1671.14
758.36	1652.71
758.54	1816.55
758.72	1613.80
758.90	1742.82
759.07	1714.15
759.25	1556.46
759.43	1699.81
759.61	1646.57
759.79	2174.94
759.97	1736.68
760.15	1669.09
760.32	1632.23
760.50	1767.40
760.68	1759.21
760.86	1619.94
761.04	1798.12
761.22	1691.62
761.39	1677.29
761.57	1671.14
761.75	1652.71
761.93	1611.75
762.11	1654.76
762.28	1691.62
762.46	1673.19
762.64	1748.97
762.82	1603.56
763.00	1673.19
763.18	1767.40
763.35	1599.46
763.53	1732.58
763.71	1644.52
763.89	1748.97
764.07	1626.09
764.24	1667.05
764.42	1660.90
764.60	1691.62
764.78	1710.05
764.96	1789.92
765.13	1708.01
765.31	1689.57
765.49	1783.78
765.67	1648.61
765.84	1548.26
766.02	1617.90
766.20	1564.65
766.38	1769.44
766.56	1681.38
766.73	1791.97
766.91	1767.40
767.09	1689.57
767.27	1736.68
767.44	1613.80
767.62	1734.63
767.80	1708.01
767.98	1669.09
768.15	1644.52
768.33	1771.49
768.51	1681.38
768.69	1665.00
768.87	1777.64
769.04	1679.33
769.22	1771.49
769.40	1716.20
769.58	1830.88
769.75	1773.54
769.93	1734.63
770.11	1648.61
770.28	1718.25
770.46	1746.92
770.64	1720.29
770.82	1626.09
770.99	1640.42
771.17	1628.14
771.35	1662.95
771.53	1669.09
771.70	1597.42
771.88	1689.57
772.06	1761.25
772.23	1642.47
772.41	1771.49
772.59	1593.32
772.77	1613.80
772.94	1687.53
773.12	1755.11
773.30	1714.15
773.47	1718.25
773.65	1626.09
773.83	1701.86
774.01	1660.90
774.18	1564.65
774.36	1691.62
774.54	1642.47
774.71	1712.10
774.89	1595.37
775.07	1642.47
775.24	1679.33
775.42	1630.18
775.60	1767.40
775.78	1662.95
775.95	1640.42
776.13	1587.18
776.31	1601.51
776.48	1683.43
776.66	1765.35
776.84	1646.57
777.01	1607.66
777.19	1675.24
777.37	1632.23
777.54	1648.61
777.72	1765.35
777.90	1685.48
778.07	1605.61
778.25	1845.22
778.43	1753.06
778.60	1675.24
778.78	1722.34
778.96	1771.49
779.13	1599.46
779.31	1726.44
779.49	1683.43
779.66	1669.09
779.84	1687.53
780.01	1671.14
780.19	1687.53
780.37	1740.77
780.54	1730.53
780.72	1591.27
780.90	1693.67
781.07	1722.34
781.25	1673.19
781.43	1753.06
781.60	1628.14
781.78	1732.58
781.95	1722.34
782.13	1687.53
782.31	1673.19
782.48	1621.99
782.66	1679.33
782.83	1820.64
783.01	1677.29
783.19	1800.16
783.36	1681.38
783.54	1646.57
783.72	1746.92
783.89	1746.92
784.07	1695.72
784.24	1728.49
784.42	1800.16
784.60	1732.58
784.77	1734.63
784.95	1595.37
785.12	1671.14
785.30	1705.96
785.47	1621.99
785.65	1634.28
785.83	1646.57
786.00	1726.44
786.18	1716.20
786.35	1599.46
786.53	1603.56
786.71	1787.88
786.88	1769.44
787.06	1656.81
787.23	1617.90
787.41	1574.89
787.58	1691.62
787.76	1642.47
787.94	1708.01
788.11	1665.00
788.29	1636.33
788.46	1617.90
788.64	1665.00
788.81	1654.76
788.99	1691.62
789.16	1648.61
789.34	1724.39
789.52	1642.47
789.69	1650.66
789.87	1591.27
790.04	1693.67
790.22	1656.81
790.39	1730.53
790.57	1648.61
790.74	1656.81
790.92	1687.53
791.09	1679.33
791.27	1644.52
791.44	1746.92
791.62	1640.42
791.79	1712.10
791.97	1734.63
792.15	1822.69
792.32	1689.57
792.50	1753.06
792.67	1802.21
792.85	1816.55
793.02	1665.00
793.20	1697.77
793.37	1642.47
793.55	1720.29
793.72	1554.41
793.90	1609.70
794.07	1656.81
794.25	1628.14
794.42	1712.10
794.60	1599.46
794.77	1693.67
794.95	1785.83
795.12	1732.58
795.30	1640.42
795.47	1626.09
795.65	1824.74
795.82	1677.29
796.00	1583.08
796.17	1689.57
796.34	1681.38
796.52	1679.33
796.69	1769.44
796.87	1755.11
797.04	1675.24
797.22	1732.58
797.39	1650.66
797.57	1808.36
797.74	1683.43
797.92	1755.11
798.09	1681.38
798.27	1726.44
798.44	1812.45
798.62	1640.42
798.79	1658.85
798.96	1746.92
799.14	1638.38
799.31	1791.97
799.49	1697.77
799.66	1669.09
799.84	1728.49
800.01	1640.42
800.19	1695.72
800.36	1630.18
800.53	1720.29
800.71	1681.38
800.88	1742.82
801.06	1689.57
801.23	1708.01
801.41	1638.38
801.58	1656.81
801.75	1677.29
801.93	1718.25
802.10	1767.40
802.28	1626.09
802.45	1656.81
802.63	1677.29
802.80	1767.40
802.97	1695.72
803.15	1732.58
803.32	1656.81
803.50	1585.13
803.67	1605.61
803.84	1636.33
804.02	1701.86
804.19	1660.90
804.37	1552.36
804.54	1599.46
804.71	1763.30
804.89	1683.43
805.06	1693.67
805.24	1640.42
805.41	1695.72
805.58	1724.39
805.76	1837.03
805.93	1652.71
806.10	1675.24
806.28	1728.49
806.45	1681.38
806.63	1728.49
806.80	1720.29
806.97	1646.57
807.15	1656.81
807.32	1738.73
807.49	1691.62
807.67	1632.23
807.84	1705.96
808.01	1581.03
808.19	1757.16
808.36	1861.60
808.54	1658.85
808.71	1640.42
808.88	1744.87
809.06	1724.39
809.23	1804.26
809.40	1634.28
809.58	1755.11
809.75	1648.61
809.92	1757.16
810.10	1888.23
810.27	1701.86
810.44	1679.33
810.62	1728.49
810.79	1734.63
810.96	1683.43
811.14	1669.09
811.31	1667.05
811.48	1777.64
811.66	1699.81
811.83	1705.96
812.00	1681.38
812.18	1710.05
812.35	1779.68
812.52	1607.66
812.69	1675.24
812.87	1669.09
813.04	1587.18
813.21	1695.72
813.39	1617.90
813.56	1595.37
813.73	1679.33
813.91	1656.81
814.08	1693.67
814.25	1648.61
814.42	1656.81
814.60	1691.62
814.77	1660.90
814.94	1681.38
815.12	1736.68
815.29	1718.25
815.46	1652.71
815.63	1644.52
815.81	1640.42
815.98	1648.61
816.15	1591.27
816.33	1705.96
816.50	1650.66
816.67	1640.42
816.84	1687.53
817.02	1695.72
817.19	1607.66
817.36	1665.00
817.53	1636.33
817.71	1615.85
817.88	1665.00
818.05	1675.24
818.22	1697.77
818.40	1806.31
818.57	1669.09
818.74	1744.87
818.91	1634.28
819.09	1744.87
819.26	1734.63
819.43	1638.38
819.60	1624.04
819.78	1755.11
819.95	1783.78
820.12	1587.18
820.29	1781.73
820.47	1767.40
820.64	1681.38
820.81	1691.62
820.98	1615.85
821.15	1681.38
821.33	1771.49
821.50	1566.70
821.67	1794.02
821.84	1656.81
822.02	1732.58
822.19	1742.82
822.36	1673.19
822.53	1632.23
822.70	1632.23
822.88	1669.09
823.05	1736.68
823.22	1705.96
823.39	1683.43
823.56	1699.81
823.74	1726.44
823.91	1570.79
824.08	1656.81
824.25	1609.70
824.42	1755.11
824.60	1568.74
824.77	1724.39
824.94	1652.71
825.11	1751.01
825.28	1693.67
825.45	1673.19
825.63	1701.86
825.80	1593.32
825.97	1650.66
826.14	1687.53
826.31	1597.42
826.48	1658.85
826.66	1609.70
826.83	1640.42
827.00	1734.63
827.17	1654.76
827.34	1667.05
827.51	1679.33
827.69	1640.42
827.86	1675.24
828.03	1703.91
828.20	1603.56
828.37	1652.71
828.54	1767.40
828.71	1626.09
828.89	1763.30
829.06	1654.76
829.23	1742.82
829.40	1652.71
829.57	1628.14
829.74	1685.48
829.91	1671.14
830.09	1626.09
830.26	1746.92
830.43	1828.84
830.60	1734.63
830.77	1753.06
830.94	1722.34
831.11	1720.29
831.28	1736.68
831.46	1779.68
831.63	1703.91
831.80	1669.09
831.97	1636.33
832.14	1699.81
832.31	1644.52
832.48	1734.63
832.65	1697.77
832.82	1671.14
832.99	1781.73
833.17	1677.29
833.34	1751.01
833.51	1677.29
833.68	1576.94
833.85	1759.21
834.02	1650.66
834.19	1628.14
834.36	1611.75
834.53	1677.29
834.70	1742.82
834.87	1687.53
835.04	1771.49
835.22	1621.99
835.39	1607.66
835.56	1689.57
835.73	1675.24
835.90	1734.63
836.07	1683.43
836.24	1818.60
836.41	1712.10
836.58	1644.52
836.75	1777.64
836.92	1648.61
837.09	1652.71
837.26	1722.34
837.43	1675.24
837.60	1693.67
837.77	1703.91
837.94	1697.77
838.12	1779.68
838.29	1646.57
838.46	1626.09
838.63	1609.70
838.80	1763.30
838.97	1767.40
839.14	1738.73
839.31	1726.44
839.48	1714.15
839.65	1708.01
839.82	1714.15
839.99	1695.72
840.16	1681.38
840.33	1714.15
840.50	1738.73
840.67	1632.23
840.84	1621.99
841.01	1673.19
841.18	1673.19
841.35	1701.86
841.52	1726.44
841.69	1800.16
841.86	1693.67
842.03	1697.77
842.20	1654.76
842.37	1701.86
842.54	1632.23
842.71	1679.33
842.88	1574.89
843.05	1742.82
843.22	1613.80
843.39	1687.53
843.56	1640.42
843.73	1679.33
843.90	1763.30
844.07	1685.48
844.24	1699.81
844.41	1693.67
844.58	1671.14
844.75	1656.81
844.92	1660.90
845.09	1705.96
845.26	1730.53
845.43	1705.96
845.60	1679.33
845.77	1753.06
845.94	1744.87
846.10	1720.29
846.27	1640.42
846.44	1644.52
846.61	1693.67
846.78	1681.38
846.95	1681.38
847.12	1660.90
847.29	1632.23
847.46	1621.99
847.63	1689.57
847.80	1675.24
847.97	1804.26
848.14	1789.92
848.31	1609.70
848.48	1617.90
848.65	1732.58
848.82	1640.42
848.98	1765.35
849.15	1689.57
849.32	1736.68
849.49	1740.77
849.66	1669.09
849.83	1789.92
850.00	1644.52
850.17	1726.44
850.34	1648.61
850.51	1689.57
850.68	1640.42
850.85	1851.36
851.01	1722.34
851.18	1720.29
851.35	1650.66
851.52	1665.00
851.69	1685.48
851.86	1613.80
852.03	1710.05
852.20	1617.90
852.37	1726.44
852.53	1566.70
852.70	1665.00
852.87	1695.72
853.04	1691.62
853.21	1714.15
853.38	1734.63
853.55	1779.68
853.72	1744.87
853.89	1652.71
854.05	1601.51
854.22	1677.29
854.39	1695.72
854.56	1746.92
854.73	1742.82
854.90	1701.86
855.07	1634.28
855.23	1689.57
855.40	1574.89
855.57	1712.10
855.74	1583.08
855.91	1849.32
856.08	1660.90
856.25	1607.66
856.41	1642.47
856.58	1683.43
856.75	1699.81
856.92	1656.81
857.09	1783.78
857.26	1628.14
857.42	1652.71
857.59	1738.73
857.76	1703.91
857.93	1724.39
858.10	1708.01
858.27	1675.24
858.43	1720.29
858.60	1689.57
858.77	1599.46
858.94	1714.15
859.11	1738.73
859.27	1640.42
859.44	1689.57
859.61	1724.39
859.78	1708.01
859.95	1716.20
860.12	1617.90
860.28	1720.29
860.45	1880.04
860.62	1648.61
860.79	1730.53
860.95	1683.43
861.12	1642.47
861.29	1595.37
861.46	1599.46
861.63	1626.09
861.79	1662.95
861.96	1619.94
862.13	1679.33
862.30	1767.40
862.47	1638.38
862.63	1621.99
862.80	1751.01
862.97	1718.25
863.14	1687.53
863.30	1691.62
863.47	1648.61
863.64	1847.27
863.81	1738.73
863.97	1646.57
864.14	1658.85
864.31	1669.09
864.48	1677.29
864.65	1699.81
864.81	1785.83
864.98	1669.09
865.15	1708.01
865.32	1708.01
865.48	1832.93
865.65	1738.73
865.82	1658.85
865.98	1660.90
866.15	1773.54
866.32	1669.09
866.49	1572.84
866.65	1767.40
866.82	1628.14
866.99	1693.67
867.16	1701.86
867.32	1578.98
867.49	1626.09
867.66	1611.75
867.83	1669.09
867.99	1634.28
868.16	1712.10
868.33	1648.61
868.49	1687.53
868.66	1665.00
868.83	1724.39
868.99	1703.91
869.16	1656.81
869.33	1748.97
869.50	1751.01
869.66	1615.85
869.83	1658.85
870.00	1673.19
870.16	1673.19
870.33	1685.48
870.50	1697.77
870.66	1714.15
870.83	1812.45
871.00	1761.25
871.17	1642.47
871.33	1757.16
871.50	1638.38
871.67	1673.19
871.83	1687.53
872.00	1785.83
872.17	1548.26
872.33	1775.59
872.50	1789.92
872.67	1679.33
872.83	1632.23
873.00	1705.96
873.17	1640.42
873.33	1691.62
873.50	1673.19
873.67	1652.71
873.83	1634.28
874.00	1710.05
874.16	1751.01
874.33	1701.86
874.50	1613.80
874.66	1677.29
874.83	1626.09
875.00	1765.35
875.16	1732.58
875.33	1763.30
875.50	1638.38
875.66	1613.80
875.83	1693.67
875.99	1728.49
876.16	1634.28
876.33	1609.70
876.49	1597.42
876.66	1667.05
876.83	1687.53
876.99	1587.18
877.16	1722.34
877.32	1673.19
877.49	1726.44
877.66	1722.34
877.82	1775.59
877.99	1630.18
878.15	1728.49
878.32	1683.43
878.49	1660.90
878.65	1652.71
878.82	1718.25
878.98	1673.19
879.15	1675.24
879.32	1697.77
879.48	1677.29
879.65	1642.47
879.81	1632.23
879.98	1648.61
880.15	1687.53
880.31	1677.29
880.48	1642.47
880.64	1771.49
880.81	1693.67
880.97	1779.68
881.14	1798.12
881.31	1587.18
881.47	1757.16
881.64	1679.33
881.80	1626.09
881.97	1753.06
882.13	1685.48
882.30	1617.90
882.47	1636.33
882.63	1667.05
882.80	1599.46
882.96	1656.81
883.13	1802.21
883.29	1740.77
883.46	1673.19
883.62	1726.44
883.79	1734.63
883.95	1636.33
884.12	1683.43
884.29	1708.01
884.45	1732.58
884.62	1744.87
884.78	1669.09
884.95	1769.44
885.11	1638.38
885.28	1775.59
885.44	1724.39
885.61	1705.96
885.77	1783.78
885.94	1708.01
886.10	1705.96
886.27	1652.71
886.43	1798.12
886.60	1738.73
886.76	1665.00
886.93	1648.61
887.09	1677.29
887.26	1669.09
887.42	1775.59
887.59	1738.73
887.75	1677.29
887.92	1753.06
888.08	1734.63
888.25	1767.40
888.41	1714.15
888.58	1740.77
888.74	1632.23
888.91	1619.94
>>>>>End Processed Spectral Data<<<<<
