SpectraSuite Data File
++++++++++++++++++++++++++++++++++++
Date: Mon Jun 06 12:34:57 CEST 2016
User: root
Dark Spectrum Present: No
Reference Spectrum Present: No
Number of Sampled Component Spectra: 1
Spectrometers: USB4C02835
Integration Time (usec): 100000 (USB4C02835)
Spectra Averaged: 1 (USB4C02835)
Boxcar Smoothing: 0 (USB4C02835)
Correct for Electrical Dark: No (USB4C02835)
Strobe/Lamp Enabled: No (USB4C02835)
Correct for Detector Non-linearity: No (USB4C02835)
Correct for Stray Light: No (USB4C02835)
Number of Pixels in Processed Spectrum: 3648
>>>>>Begin Processed Spectral Data<<<<<
177.47	1505.26
177.69	1505.26
177.91	1505.26
178.13	1492.97
178.36	1464.30
178.58	1619.94
178.80	1757.16
179.02	1619.94
179.24	1609.70
179.46	1673.19
179.68	1728.49
179.90	1607.66
180.13	1730.53
180.35	1642.47
180.57	1712.10
180.79	1722.34
181.01	1683.43
181.23	1726.44
181.45	1806.31
181.67	1681.38
181.90	1742.82
182.12	1603.56
182.34	1619.94
182.56	1738.73
182.78	1599.46
183.00	1720.29
183.22	1699.81
183.44	1615.85
183.66	1775.59
183.89	1679.33
184.11	1716.20
184.33	1691.62
184.55	1828.84
184.77	1736.68
184.99	1748.97
185.21	1652.71
185.43	1951.71
185.65	1656.81
185.87	1697.77
186.10	1822.69
186.32	1839.08
186.54	1685.48
186.76	1744.87
186.98	1710.05
187.20	1626.09
187.42	1710.05
187.64	1767.40
187.86	1722.34
188.08	1796.07
188.30	1732.58
188.52	1710.05
188.75	1718.25
188.97	1830.88
189.19	1665.00
189.41	1712.10
189.63	1701.86
189.85	1638.38
190.07	1646.57
190.29	1718.25
190.51	1636.33
190.73	1646.57
190.95	1755.11
191.17	1665.00
191.39	1656.81
191.61	1636.33
191.84	1660.90
192.06	1701.86
192.28	1697.77
192.50	1894.37
192.72	1783.78
192.94	1677.29
193.16	1789.92
193.38	1695.72
193.60	1708.01
193.82	1701.86
194.04	1710.05
194.26	1716.20
194.48	1679.33
194.70	1681.38
194.92	1687.53
195.14	1763.30
195.36	1660.90
195.58	1654.76
195.80	1656.81
196.02	1736.68
196.24	1681.38
196.46	1646.57
196.69	1665.00
196.91	1865.70
197.13	1765.35
197.35	1624.04
197.57	1748.97
197.79	1775.59
198.01	1701.86
198.23	1720.29
198.45	1716.20
198.67	1642.47
198.89	1671.14
199.11	1695.72
199.33	1665.00
199.55	1562.60
199.77	1689.57
199.99	1791.97
200.21	1699.81
200.43	1728.49
200.65	1669.09
200.87	1691.62
201.09	1681.38
201.31	1652.71
201.53	1789.92
201.75	1681.38
201.97	1759.21
202.19	1705.96
202.41	1660.90
202.63	1832.93
202.85	1718.25
203.07	1746.92
203.29	1679.33
203.51	1648.61
203.73	1728.49
203.95	1806.31
204.17	1677.29
204.39	1697.77
204.61	1687.53
204.83	1683.43
205.05	1787.88
205.27	1773.54
205.49	1775.59
205.71	1759.21
205.93	1630.18
206.15	1665.00
206.37	1726.44
206.59	1621.99
206.81	1699.81
207.03	1644.52
207.25	1632.23
207.47	1726.44
207.69	1667.05
207.91	1765.35
208.13	1791.97
208.34	1665.00
208.56	1648.61
208.78	1740.77
209.00	1722.34
209.22	1693.67
209.44	1691.62
209.66	1564.65
209.88	1730.53
210.10	1650.66
210.32	1660.90
210.54	1701.86
210.76	1701.86
210.98	1771.49
211.20	1675.24
211.42	1658.85
211.64	1744.87
211.86	1759.21
212.08	1740.77
212.30	1685.48
212.52	1748.97
212.74	1720.29
212.96	1667.05
213.17	1845.22
213.39	1705.96
213.61	1771.49
213.83	1662.95
214.05	1597.42
214.27	1761.25
214.49	1511.40
214.71	1650.66
214.93	1716.20
215.15	1673.19
215.37	1714.15
215.59	1630.18
215.81	1689.57
216.03	1787.88
216.24	1708.01
216.46	1632.23
216.68	1724.39
216.90	1751.01
217.12	1773.54
217.34	1714.15
217.56	1742.82
217.78	1716.20
218.00	1677.29
218.22	1705.96
218.44	1677.29
218.66	1638.38
218.87	1744.87
219.09	1705.96
219.31	1775.59
219.53	1769.44
219.75	1712.10
219.97	1699.81
220.19	1660.90
220.41	1714.15
220.63	1691.62
220.85	1753.06
221.06	1587.18
221.28	1730.53
221.50	1718.25
221.72	1665.00
221.94	1673.19
222.16	1755.11
222.38	1638.38
222.60	1804.26
222.82	1671.14
223.03	1683.43
223.25	1677.29
223.47	1802.21
223.69	1816.55
223.91	1755.11
224.13	1681.38
224.35	1673.19
224.57	1738.73
224.78	1689.57
225.00	1648.61
225.22	1640.42
225.44	1730.53
225.66	1783.78
225.88	1658.85
226.10	1738.73
226.32	1728.49
226.53	1787.88
226.75	1765.35
226.97	1689.57
227.19	1800.16
227.41	1595.37
227.63	1644.52
227.85	1570.79
228.06	1718.25
228.28	1744.87
228.50	1662.95
228.72	1640.42
228.94	1636.33
229.16	1646.57
229.37	1636.33
229.59	1714.15
229.81	1769.44
230.03	1658.85
230.25	1615.85
230.47	1681.38
230.69	1652.71
230.90	1796.07
231.12	1689.57
231.34	1751.01
231.56	1732.58
231.78	1757.16
232.00	1728.49
232.21	1673.19
232.43	1683.43
232.65	1654.76
232.87	1736.68
233.09	1716.20
233.30	1683.43
233.52	1785.83
233.74	1763.30
233.96	1624.04
234.18	1703.91
234.40	1648.61
234.61	1783.78
234.83	1605.61
235.05	1574.89
235.27	1794.02
235.49	1757.16
235.70	1746.92
235.92	1791.97
236.14	1699.81
236.36	1818.60
236.58	1681.38
236.79	1810.40
237.01	1755.11
237.23	1650.66
237.45	1740.77
237.67	1615.85
237.88	1671.14
238.10	1880.04
238.32	1652.71
238.54	1787.88
238.76	1675.24
238.97	1681.38
239.19	1595.37
239.41	1759.21
239.63	1710.05
239.85	1757.16
240.06	1689.57
240.28	1738.73
240.50	1779.68
240.72	1722.34
240.93	1660.90
241.15	1740.77
241.37	1687.53
241.59	1748.97
241.81	1777.64
242.02	1667.05
242.24	1748.97
242.46	1681.38
242.68	1615.85
242.89	1771.49
243.11	1710.05
243.33	1621.99
243.55	1638.38
243.76	1781.73
243.98	1648.61
244.20	1669.09
244.42	1638.38
244.64	1732.58
244.85	1585.13
245.07	1617.90
245.29	1751.01
245.51	1757.16
245.72	1665.00
245.94	1761.25
246.16	1761.25
246.38	1769.44
246.59	1687.53
246.81	1576.94
247.03	1669.09
247.24	1599.46
247.46	1630.18
247.68	1634.28
247.90	1595.37
248.11	1656.81
248.33	1744.87
248.55	1705.96
248.77	1687.53
248.98	1759.21
249.20	1832.93
249.42	1697.77
249.64	1701.86
249.85	1636.33
250.07	1714.15
250.29	1708.01
250.50	1742.82
250.72	1589.22
250.94	1675.24
251.16	1736.68
251.37	1812.45
251.59	1751.01
251.81	1697.77
252.02	1771.49
252.24	1705.96
252.46	1820.64
252.68	1632.23
252.89	1626.09
253.11	1693.67
253.33	1757.16
253.54	1767.40
253.76	1642.47
253.98	1708.01
254.20	1685.48
254.41	1570.79
254.63	1603.56
254.85	1644.52
255.06	1671.14
255.28	1701.86
255.50	1642.47
255.71	1634.28
255.93	1583.08
256.15	1757.16
256.36	1667.05
256.58	1650.66
256.80	1642.47
257.02	1687.53
257.23	1746.92
257.45	1714.15
257.67	1681.38
257.88	1695.72
258.10	1726.44
258.32	1728.49
258.53	1697.77
258.75	1781.73
258.97	1705.96
259.18	1726.44
259.40	1701.86
259.62	1712.10
259.83	1726.44
260.05	1826.79
260.27	1951.71
260.48	1746.92
260.70	1650.66
260.92	1730.53
261.13	1677.29
261.35	1687.53
261.57	1677.29
261.78	1710.05
262.00	1679.33
262.22	1681.38
262.43	1712.10
262.65	1665.00
262.86	1714.15
263.08	1877.99
263.30	1695.72
263.51	1599.46
263.73	1697.77
263.95	1691.62
264.16	1695.72
264.38	1617.90
264.60	1748.97
264.81	1665.00
265.03	1751.01
265.25	1796.07
265.46	1703.91
265.68	1714.15
265.89	1775.59
266.11	1572.84
266.33	1648.61
266.54	1779.68
266.76	1759.21
266.98	1667.05
267.19	1763.30
267.41	1734.63
267.62	1665.00
267.84	1634.28
268.06	1759.21
268.27	1665.00
268.49	1740.77
268.70	1730.53
268.92	1755.11
269.14	1687.53
269.35	1632.23
269.57	1658.85
269.79	1785.83
270.00	1746.92
270.22	1767.40
270.43	1628.14
270.65	1509.35
270.87	1771.49
271.08	1761.25
271.30	1699.81
271.51	1689.57
271.73	1712.10
271.95	1779.68
272.16	1687.53
272.38	1705.96
272.59	1642.47
272.81	1748.97
273.02	1773.54
273.24	1728.49
273.46	1716.20
273.67	1665.00
273.89	1728.49
274.10	1617.90
274.32	1765.35
274.54	1705.96
274.75	1757.16
274.97	1638.38
275.18	1742.82
275.40	1740.77
275.61	1701.86
275.83	1677.29
276.05	1619.94
276.26	1615.85
276.48	1742.82
276.69	1660.90
276.91	1708.01
277.12	1861.60
277.34	1722.34
277.55	1812.45
277.77	1683.43
277.99	1693.67
278.20	1624.04
278.42	1605.61
278.63	1683.43
278.85	1705.96
279.06	1642.47
279.28	1748.97
279.49	1755.11
279.71	1656.81
279.93	1710.05
280.14	1699.81
280.36	1654.76
280.57	1779.68
280.79	1746.92
281.00	1691.62
281.22	1667.05
281.43	1744.87
281.65	1578.98
281.86	1603.56
282.08	1740.77
282.29	1802.21
282.51	1613.80
282.73	1632.23
282.94	1591.27
283.16	1693.67
283.37	1820.64
283.59	1626.09
283.80	1746.92
284.02	1658.85
284.23	1679.33
284.45	1675.24
284.66	1683.43
284.88	1650.66
285.09	1697.77
285.31	1736.68
285.52	1685.48
285.74	1558.50
285.95	1722.34
286.17	1652.71
286.38	1740.77
286.60	1595.37
286.81	1691.62
287.03	1660.90
287.24	1677.29
287.46	1761.25
287.67	1746.92
287.89	1834.98
288.10	1638.38
288.32	1626.09
288.53	1783.78
288.75	1738.73
288.96	1708.01
289.18	1724.39
289.39	1648.61
289.61	1718.25
289.82	1746.92
290.04	1830.88
290.25	1683.43
290.47	1658.85
290.68	1617.90
290.90	1714.15
291.11	1601.51
291.33	1744.87
291.54	1691.62
291.76	1626.09
291.97	1718.25
292.18	1753.06
292.40	1609.70
292.61	1705.96
292.83	1857.51
293.04	1742.82
293.26	1630.18
293.47	1732.58
293.69	1619.94
293.90	1728.49
294.12	1708.01
294.33	1734.63
294.55	1763.30
294.76	1705.96
294.97	1763.30
295.19	1816.55
295.40	1673.19
295.62	1644.52
295.83	1732.58
296.05	1677.29
296.26	1775.59
296.48	1624.04
296.69	1695.72
296.90	1654.76
297.12	1710.05
297.33	1683.43
297.55	1728.49
297.76	1650.66
297.98	1712.10
298.19	1691.62
298.41	1722.34
298.62	1601.51
298.83	1798.12
299.05	1693.67
299.26	1722.34
299.48	1650.66
299.69	1693.67
299.90	1773.54
300.12	1624.04
300.33	1722.34
300.55	1716.20
300.76	1708.01
300.98	1626.09
301.19	1744.87
301.40	1705.96
301.62	1689.57
301.83	1728.49
302.05	1642.47
302.26	1740.77
302.47	1732.58
302.69	1642.47
302.90	1736.68
303.12	1632.23
303.33	1714.15
303.54	1804.26
303.76	1667.05
303.97	1708.01
304.19	1765.35
304.40	1624.04
304.61	1738.73
304.83	1773.54
305.04	1779.68
305.26	1683.43
305.47	1650.66
305.68	1642.47
305.90	1650.66
306.11	1708.01
306.33	1757.16
306.54	1677.29
306.75	1611.75
306.97	1574.89
307.18	1642.47
307.39	1708.01
307.61	1748.97
307.82	1728.49
308.04	1716.20
308.25	1722.34
308.46	1705.96
308.68	1636.33
308.89	1699.81
309.10	1712.10
309.32	1708.01
309.53	1669.09
309.74	1736.68
309.96	1732.58
310.17	1761.25
310.39	1675.24
310.60	1695.72
310.81	1687.53
311.03	1665.00
311.24	1787.88
311.45	1667.05
311.67	1808.36
311.88	1665.00
312.09	1714.15
312.31	1656.81
312.52	1722.34
312.73	1732.58
312.95	1605.61
313.16	1634.28
313.37	1734.63
313.59	1697.77
313.80	1710.05
314.01	1779.68
314.23	1689.57
314.44	1687.53
314.65	1570.79
314.87	1726.44
315.08	1703.91
315.29	1652.71
315.51	1615.85
315.72	1693.67
315.93	1789.92
316.15	1748.97
316.36	1576.94
316.57	1621.99
316.79	1781.73
317.00	1673.19
317.21	1726.44
317.43	1609.70
317.64	1705.96
317.85	1689.57
318.07	1691.62
318.28	1759.21
318.49	1830.88
318.70	1839.08
318.92	1822.69
319.13	1916.90
319.34	1830.88
319.56	1732.58
319.77	1755.11
319.98	1800.16
320.20	1769.44
320.41	1779.68
320.62	1689.57
320.83	1636.33
321.05	1834.98
321.26	1673.19
321.47	1669.09
321.69	1787.88
321.90	1609.70
322.11	1687.53
322.32	1710.05
322.54	1775.59
322.75	1689.57
322.96	1730.53
323.18	1671.14
323.39	1574.89
323.60	1640.42
323.81	1767.40
324.03	1740.77
324.24	1644.52
324.45	1689.57
324.66	1636.33
324.88	1777.64
325.09	1808.36
325.30	1634.28
325.52	1650.66
325.73	1728.49
325.94	1697.77
326.15	1574.89
326.37	1671.14
326.58	1765.35
326.79	1775.59
327.00	1566.70
327.22	1765.35
327.43	1697.77
327.64	1626.09
327.85	1718.25
328.07	1771.49
328.28	1775.59
328.49	1638.38
328.70	1769.44
328.92	1703.91
329.13	1683.43
329.34	1689.57
329.55	1832.93
329.76	1748.97
329.98	1613.80
330.19	1804.26
330.40	1718.25
330.61	1708.01
330.83	1736.68
331.04	1615.85
331.25	1728.49
331.46	1689.57
331.68	1652.71
331.89	1697.77
332.10	1687.53
332.31	1642.47
332.52	1665.00
332.74	1687.53
332.95	1662.95
333.16	1632.23
333.37	1757.16
333.58	1669.09
333.80	1742.82
334.01	1583.08
334.22	1636.33
334.43	1716.20
334.64	1660.90
334.86	1724.39
335.07	1630.18
335.28	1742.82
335.49	1611.75
335.70	1701.86
335.92	1740.77
336.13	1861.60
336.34	1748.97
336.55	1665.00
336.76	1791.97
336.98	1650.66
337.19	1640.42
337.40	1837.03
337.61	1806.31
337.82	1687.53
338.04	1810.40
338.25	1617.90
338.46	1701.86
338.67	1724.39
338.88	1673.19
339.09	1632.23
339.31	1636.33
339.52	1648.61
339.73	1660.90
339.94	1591.27
340.15	1757.16
340.36	1679.33
340.58	1656.81
340.79	1656.81
341.00	1701.86
341.21	1562.60
341.42	1845.22
341.63	1701.86
341.85	1701.86
342.06	1597.42
342.27	1658.85
342.48	1732.58
342.69	1548.26
342.90	1806.31
343.12	1699.81
343.33	1697.77
343.54	1740.77
343.75	1683.43
343.96	1710.05
344.17	1607.66
344.38	1689.57
344.60	1685.48
344.81	1521.64
345.02	1718.25
345.23	1781.73
345.44	1832.93
345.65	1705.96
345.86	1699.81
346.07	1755.11
346.29	1648.61
346.50	1644.52
346.71	1716.20
346.92	1761.25
347.13	1865.70
347.34	1716.20
347.55	1658.85
347.76	1681.38
347.98	1636.33
348.19	1683.43
348.40	1755.11
348.61	1630.18
348.82	1775.59
349.03	1687.53
349.24	1650.66
349.45	1837.03
349.66	1624.04
349.88	1660.90
350.09	1658.85
350.30	1806.31
350.51	1787.88
350.72	1763.30
350.93	1734.63
351.14	1646.57
351.35	1769.44
351.56	1734.63
351.77	1679.33
351.99	1730.53
352.20	1812.45
352.41	1798.12
352.62	1583.08
352.83	1705.96
353.04	1685.48
353.25	1695.72
353.46	1751.01
353.67	1716.20
353.88	1624.04
354.09	1662.95
354.30	1689.57
354.52	1689.57
354.73	1697.77
354.94	1628.14
355.15	1722.34
355.36	1832.93
355.57	1656.81
355.78	1722.34
355.99	1728.49
356.20	1695.72
356.41	1718.25
356.62	1669.09
356.83	1628.14
357.04	1796.07
357.25	1552.36
357.46	1658.85
357.68	1621.99
357.89	1718.25
358.10	1615.85
358.31	1685.48
358.52	1648.61
358.73	1619.94
358.94	1630.18
359.15	1667.05
359.36	1759.21
359.57	1771.49
359.78	1691.62
359.99	1740.77
360.20	1593.32
360.41	1669.09
360.62	1783.78
360.83	1746.92
361.04	1689.57
361.25	1695.72
361.46	1757.16
361.67	1806.31
361.88	1720.29
362.09	1753.06
362.30	1667.05
362.51	1669.09
362.72	1730.53
362.93	1716.20
363.14	1734.63
363.35	1695.72
363.56	1703.91
363.78	1800.16
363.99	1736.68
364.20	1693.67
364.41	1722.34
364.62	1800.16
364.83	1757.16
365.04	1710.05
365.25	1671.14
365.46	1875.94
365.67	1675.24
365.88	1705.96
366.09	1628.14
366.30	1654.76
366.51	1697.77
366.72	1603.56
366.93	1771.49
367.14	1665.00
367.35	1732.58
367.56	1759.21
367.77	1740.77
367.98	1644.52
368.18	1744.87
368.39	1701.86
368.60	1599.46
368.81	1683.43
369.02	1730.53
369.23	1665.00
369.44	1617.90
369.65	1609.70
369.86	1834.98
370.07	1744.87
370.28	1624.04
370.49	1763.30
370.70	1765.35
370.91	1712.10
371.12	1642.47
371.33	1724.39
371.54	1652.71
371.75	1765.35
371.96	1574.89
372.17	1714.15
372.38	1689.57
372.59	1726.44
372.80	1757.16
373.01	1687.53
373.22	1681.38
373.43	1701.86
373.64	1665.00
373.85	1773.54
374.06	1826.79
374.26	1705.96
374.47	1708.01
374.68	1744.87
374.89	1658.85
375.10	1718.25
375.31	1736.68
375.52	1683.43
375.73	1634.28
375.94	1677.29
376.15	1753.06
376.36	1669.09
376.57	1609.70
376.78	1673.19
376.99	1714.15
377.20	1761.25
377.40	1673.19
377.61	1716.20
377.82	1626.09
378.03	1742.82
378.24	1724.39
378.45	1720.29
378.66	1746.92
378.87	1603.56
379.08	1611.75
379.29	1662.95
379.50	1755.11
379.71	1638.38
379.91	1710.05
380.12	1683.43
380.33	1665.00
380.54	1605.61
380.75	1644.52
380.96	1701.86
381.17	1812.45
381.38	1697.77
381.59	1722.34
381.80	1761.25
382.00	1943.52
382.21	1763.30
382.42	1859.56
382.63	1837.03
382.84	1718.25
383.05	1730.53
383.26	1806.31
383.47	1705.96
383.68	1751.01
383.88	1699.81
384.09	1746.92
384.30	1751.01
384.51	1724.39
384.72	1591.27
384.93	1642.47
385.14	1748.97
385.35	1757.16
385.55	1630.18
385.76	1806.31
385.97	1714.15
386.18	1640.42
386.39	1648.61
386.60	1759.21
386.81	1681.38
387.02	1685.48
387.22	1626.09
387.43	1748.97
387.64	1834.98
387.85	1939.43
388.06	2140.13
388.27	4321.21
388.48	6858.65
388.68	8349.57
388.89	9869.16
389.10	9897.83
389.31	8714.11
389.52	7735.18
389.73	6913.94
389.93	6461.34
390.14	5996.45
390.35	5248.94
390.56	4726.71
390.77	3827.65
390.98	3059.67
391.18	2537.43
391.39	2064.35
391.60	1880.04
391.81	1912.80
392.02	1734.63
392.23	1794.02
392.43	1699.81
392.64	1734.63
392.85	1695.72
393.06	1773.54
393.27	1673.19
393.47	1689.57
393.68	1820.64
393.89	1755.11
394.10	1808.36
394.31	1626.09
394.52	1665.00
394.72	1691.62
394.93	1751.01
395.14	1705.96
395.35	1720.29
395.56	1628.14
395.76	1734.63
395.97	1789.92
396.18	1826.79
396.39	1748.97
396.60	1939.43
396.80	1927.14
397.01	1851.36
397.22	1806.31
397.43	1869.80
397.64	1681.38
397.84	1734.63
398.05	1855.46
398.26	1656.81
398.47	1814.50
398.67	1812.45
398.88	1730.53
399.09	1677.29
399.30	1757.16
399.51	1689.57
399.71	1640.42
399.92	1665.00
400.13	1734.63
400.34	1714.15
400.54	1708.01
400.75	1826.79
400.96	1677.29
401.17	1804.26
401.37	1828.84
401.58	1705.96
401.79	1695.72
402.00	1816.55
402.21	1904.61
402.41	1933.28
402.62	1994.72
402.83	1992.67
403.04	2021.35
403.24	2004.96
403.45	1841.12
403.66	1896.42
403.87	1808.36
404.07	1837.03
404.28	1945.57
404.49	1923.04
404.70	1730.53
404.90	1837.03
405.11	1746.92
405.32	1716.20
405.52	1638.38
405.73	1587.18
405.94	1673.19
406.15	1712.10
406.35	1705.96
406.56	1765.35
406.77	1742.82
406.98	1683.43
407.18	1621.99
407.39	1769.44
407.60	1638.38
407.80	1699.81
408.01	1734.63
408.22	1722.34
408.43	1658.85
408.63	1689.57
408.84	1781.73
409.05	1800.16
409.25	1652.71
409.46	1701.86
409.67	1665.00
409.88	1669.09
410.08	1716.20
410.29	1697.77
410.50	1804.26
410.70	1746.92
410.91	1613.80
411.12	1736.68
411.32	1650.66
411.53	1640.42
411.74	1773.54
411.95	1683.43
412.15	1742.82
412.36	1816.55
412.57	1714.15
412.77	1783.78
412.98	1683.43
413.19	1705.96
413.39	1781.73
413.60	1798.12
413.81	1808.36
414.01	1642.47
414.22	1673.19
414.43	1746.92
414.63	1648.61
414.84	1753.06
415.05	1699.81
415.25	1718.25
415.46	1624.04
415.67	1718.25
415.87	1681.38
416.08	1675.24
416.29	1667.05
416.49	1765.35
416.70	1646.57
416.91	1681.38
417.11	1636.33
417.32	1669.09
417.53	1697.77
417.73	1708.01
417.94	1710.05
418.15	1691.62
418.35	1736.68
418.56	1734.63
418.77	1892.32
418.97	1685.48
419.18	1665.00
419.38	1646.57
419.59	1640.42
419.80	1837.03
420.00	1705.96
420.21	1722.34
420.42	1767.40
420.62	1679.33
420.83	1648.61
421.04	1675.24
421.24	1648.61
421.45	1757.16
421.65	1738.73
421.86	1701.86
422.07	1695.72
422.27	1712.10
422.48	1802.21
422.69	1677.29
422.89	1689.57
423.10	1652.71
423.30	1585.13
423.51	1728.49
423.72	1710.05
423.92	1791.97
424.13	1650.66
424.33	1716.20
424.54	1789.92
424.75	1732.58
424.95	1761.25
425.16	1753.06
425.36	1642.47
425.57	1892.32
425.78	1728.49
425.98	1699.81
426.19	1697.77
426.39	1624.04
426.60	1726.44
426.81	1748.97
427.01	1660.90
427.22	1650.66
427.42	1562.60
427.63	1615.85
427.83	1732.58
428.04	1769.44
428.25	1732.58
428.45	1751.01
428.66	1705.96
428.86	1697.77
429.07	1677.29
429.28	1714.15
429.48	1681.38
429.69	1636.33
429.89	1679.33
430.10	1687.53
430.30	1779.68
430.51	1697.77
430.71	1718.25
430.92	1722.34
431.13	1697.77
431.33	1705.96
431.54	1753.06
431.74	1824.74
431.95	1855.46
432.15	1644.52
432.36	1730.53
432.56	1751.01
432.77	1771.49
432.98	1779.68
433.18	1779.68
433.39	1642.47
433.59	1710.05
433.80	1832.93
434.00	1837.03
434.21	1630.18
434.41	1615.85
434.62	1761.25
434.82	1628.14
435.03	1732.58
435.23	1759.21
435.44	1609.70
435.64	1732.58
435.85	1732.58
436.06	1767.40
436.26	1810.40
436.47	1669.09
436.67	1701.86
436.88	1679.33
437.08	1806.31
437.29	1820.64
437.49	1701.86
437.70	1705.96
437.90	1771.49
438.11	1820.64
438.31	1738.73
438.52	1834.98
438.72	1886.18
438.93	1955.81
439.13	1761.25
439.34	1826.79
439.54	1695.72
439.75	1818.60
439.95	1740.77
440.16	1685.48
440.36	1845.22
440.57	1804.26
440.77	1787.88
440.98	1736.68
441.18	1720.29
441.39	1724.39
441.59	1615.85
441.80	1824.74
442.00	1689.57
442.21	1796.07
442.41	1665.00
442.62	1777.64
442.82	1642.47
443.02	1708.01
443.23	1697.77
443.43	1746.92
443.64	1810.40
443.84	1703.91
444.05	1796.07
444.25	1781.73
444.46	1712.10
444.66	1714.15
444.87	1837.03
445.07	1705.96
445.28	1615.85
445.48	1783.78
445.69	1783.78
445.89	1849.32
446.09	1710.05
446.30	2047.97
446.50	2686.94
446.71	3827.65
446.91	4370.37
447.12	4616.12
447.32	4915.12
447.53	4356.03
447.73	3909.57
447.93	3540.94
448.14	3311.57
448.34	3278.80
448.55	2901.97
448.75	2828.24
448.96	2668.50
449.16	2463.71
449.36	2289.63
449.57	2099.17
449.77	1896.42
449.98	1701.86
450.18	1804.26
450.39	1853.41
450.59	1787.88
450.79	1726.44
451.00	1705.96
451.20	1800.16
451.41	1705.96
451.61	1732.58
451.81	1693.67
452.02	1726.44
452.22	1705.96
452.43	1693.67
452.63	1722.34
452.84	1740.77
453.04	1728.49
453.24	1744.87
453.45	1665.00
453.65	1665.00
453.86	1742.82
454.06	1728.49
454.26	1685.48
454.47	1714.15
454.67	1787.88
454.87	1767.40
455.08	1689.57
455.28	1859.56
455.49	1744.87
455.69	1712.10
455.89	1888.23
456.10	1804.26
456.30	1718.25
456.51	1769.44
456.71	1746.92
456.91	1794.02
457.12	1791.97
457.32	1689.57
457.52	1681.38
457.73	1777.64
457.93	1730.53
458.14	1738.73
458.34	1669.09
458.54	1673.19
458.75	1722.34
458.95	1867.75
459.15	1751.01
459.36	1734.63
459.56	1773.54
459.76	1834.98
459.97	1722.34
460.17	1671.14
460.37	1789.92
460.58	1761.25
460.78	1746.92
460.99	1656.81
461.19	1748.97
461.39	1654.76
461.60	1794.02
461.80	1736.68
462.00	1681.38
462.21	1691.62
462.41	1667.05
462.61	1648.61
462.82	1673.19
463.02	1744.87
463.22	1660.90
463.43	1832.93
463.63	1787.88
463.83	1806.31
464.04	1693.67
464.24	1701.86
464.44	1630.18
464.64	1738.73
464.85	1732.58
465.05	1806.31
465.25	1619.94
465.46	1640.42
465.66	1800.16
465.86	1769.44
466.07	1755.11
466.27	1751.01
466.47	1587.18
466.68	1722.34
466.88	1822.69
467.08	1675.24
467.29	1716.20
467.49	1808.36
467.69	1744.87
467.89	1789.92
468.10	1701.86
468.30	1761.25
468.50	1789.92
468.71	1644.52
468.91	1609.70
469.11	1822.69
469.31	1765.35
469.52	1705.96
469.72	1806.31
469.92	1867.75
470.13	1660.90
470.33	1685.48
470.53	1773.54
470.73	2082.78
470.94	2273.25
471.14	2351.07
471.34	2480.09
471.54	2314.20
471.75	2213.85
471.95	2109.41
472.15	2054.11
472.36	2002.91
472.56	2064.35
472.76	2062.30
472.96	1972.19
473.17	1968.10
473.37	1910.75
473.57	1863.65
473.77	1753.06
473.98	1693.67
474.18	1695.72
474.38	2004.96
474.58	1722.34
474.79	1708.01
474.99	1765.35
475.19	1804.26
475.39	1665.00
475.60	1703.91
475.80	1777.64
476.00	1824.74
476.20	1732.58
476.41	1738.73
476.61	1886.18
476.81	1781.73
477.01	1732.58
477.21	1787.88
477.42	1738.73
477.62	1648.61
477.82	1820.64
478.02	1685.48
478.23	1789.92
478.43	1677.29
478.63	1669.09
478.83	1687.53
479.03	1714.15
479.24	1779.68
479.44	1861.60
479.64	1605.61
479.84	1529.83
480.04	1634.28
480.25	1724.39
480.45	1746.92
480.65	1669.09
480.85	1806.31
481.06	1738.73
481.26	1720.29
481.46	1845.22
481.66	1794.02
481.86	1648.61
482.06	1796.07
482.27	1683.43
482.47	1611.75
482.67	1683.43
482.87	1671.14
483.07	1796.07
483.28	1687.53
483.48	1591.27
483.68	1679.33
483.88	1689.57
484.08	1652.71
484.29	1626.09
484.49	1748.97
484.69	1640.42
484.89	1742.82
485.09	1767.40
485.29	1738.73
485.50	1771.49
485.70	1726.44
485.90	1816.55
486.10	1779.68
486.30	1734.63
486.50	1746.92
486.71	1697.77
486.91	1726.44
487.11	1763.30
487.31	1701.86
487.51	1757.16
487.71	1665.00
487.91	1619.94
488.12	1634.28
488.32	1652.71
488.52	1662.95
488.72	1595.37
488.92	1712.10
489.12	1697.77
489.32	1789.92
489.53	1669.09
489.73	1658.85
489.93	1804.26
490.13	1619.94
490.33	1697.77
490.53	1794.02
490.73	1828.84
490.94	1662.95
491.14	1761.25
491.34	1773.54
491.54	2170.85
491.74	2598.87
491.94	2899.92
492.14	3106.77
492.34	3057.62
492.54	2844.63
492.75	2459.61
492.95	2410.46
493.15	2328.54
493.35	2359.26
493.55	2183.13
493.75	2121.70
493.95	2099.17
494.15	1988.58
494.35	1865.70
494.56	1830.88
494.76	1746.92
494.96	1814.50
495.16	1777.64
495.36	1667.05
495.56	1779.68
495.76	1714.15
495.96	1724.39
496.16	1583.08
496.36	1785.83
496.56	1701.86
496.77	1740.77
496.97	1751.01
497.17	1759.21
497.37	1648.61
497.57	1783.78
497.77	1765.35
497.97	1636.33
498.17	1755.11
498.37	1626.09
498.57	1738.73
498.77	1763.30
498.97	1744.87
499.17	1755.11
499.38	1751.01
499.58	1814.50
499.78	1826.79
499.98	1855.46
500.18	1705.96
500.38	1736.68
500.58	1890.28
500.78	2590.68
500.98	4673.46
501.18	5824.42
501.38	6815.64
501.58	7143.32
501.78	6784.92
501.98	5492.65
502.18	5173.17
502.38	4425.66
502.58	4298.69
502.78	3823.56
502.98	3706.82
503.18	3520.46
503.38	3254.22
503.59	2775.00
503.79	2643.93
503.99	2496.47
504.19	2232.29
504.39	2205.66
504.59	2103.26
504.79	2140.13
504.99	2076.64
505.19	1875.94
505.39	1896.42
505.59	1941.47
505.79	1941.47
505.99	1779.68
506.19	1826.79
506.39	1820.64
506.59	1689.57
506.79	1763.30
506.99	1822.69
507.19	1703.91
507.39	1763.30
507.59	1619.94
507.79	1693.67
507.99	1665.00
508.19	1755.11
508.39	1773.54
508.59	1673.19
508.79	1722.34
508.99	1843.17
509.19	1607.66
509.39	1824.74
509.59	1693.67
509.79	1761.25
509.99	1669.09
510.19	1742.82
510.39	1746.92
510.59	1744.87
510.79	1691.62
510.99	1691.62
511.19	1712.10
511.39	1789.92
511.59	1730.53
511.79	1943.52
511.99	1742.82
512.19	1791.97
512.38	1697.77
512.58	1658.85
512.78	1728.49
512.98	1810.40
513.18	1869.80
513.38	1642.47
513.58	1755.11
513.78	1730.53
513.98	1636.33
514.18	1703.91
514.38	1681.38
514.58	1763.30
514.78	1746.92
514.98	1677.29
515.18	1701.86
515.38	1640.42
515.58	1765.35
515.78	1742.82
515.98	1808.36
516.18	1738.73
516.38	1650.66
516.57	1769.44
516.77	1665.00
516.97	1757.16
517.17	1751.01
517.37	1599.46
517.57	1828.84
517.77	1771.49
517.97	1658.85
518.17	1736.68
518.37	1642.47
518.57	1718.25
518.77	1701.86
518.97	1730.53
519.16	1734.63
519.36	1812.45
519.56	1697.77
519.76	1771.49
519.96	1726.44
520.16	1828.84
520.36	1697.77
520.56	1794.02
520.76	1658.85
520.96	1644.52
521.16	1777.64
521.35	1775.59
521.55	1804.26
521.75	1714.15
521.95	1685.48
522.15	1669.09
522.35	1662.95
522.55	1703.91
522.75	1808.36
522.95	1701.86
523.14	1652.71
523.34	1775.59
523.54	1703.91
523.74	1720.29
523.94	1677.29
524.14	1675.24
524.34	1740.77
524.54	1861.60
524.73	1748.97
524.93	1697.77
525.13	1769.44
525.33	1642.47
525.53	1828.84
525.73	1773.54
525.93	1773.54
526.13	1767.40
526.32	1761.25
526.52	1710.05
526.72	1812.45
526.92	1767.40
527.12	1689.57
527.32	1634.28
527.52	1873.89
527.71	1734.63
527.91	1693.67
528.11	1660.90
528.31	1685.48
528.51	1662.95
528.71	1755.11
528.90	1695.72
529.10	1824.74
529.30	1794.02
529.50	1646.57
529.70	1697.77
529.90	1671.14
530.09	1738.73
530.29	1665.00
530.49	1683.43
530.69	1796.07
530.89	1687.53
531.09	1767.40
531.28	1728.49
531.48	1798.12
531.68	1775.59
531.88	1757.16
532.08	1744.87
532.28	1712.10
532.47	1773.54
532.67	1812.45
532.87	1794.02
533.07	1740.77
533.27	1755.11
533.46	1765.35
533.66	1787.88
533.86	1689.57
534.06	1703.91
534.26	1816.55
534.45	1671.14
534.65	1794.02
534.85	1675.24
535.05	1673.19
535.25	1796.07
535.44	1624.04
535.64	1740.77
535.84	1665.00
536.04	1689.57
536.24	1734.63
536.43	1685.48
536.63	1736.68
536.83	1683.43
537.03	1779.68
537.22	1699.81
537.42	1605.61
537.62	1701.86
537.82	1695.72
538.02	1826.79
538.21	1787.88
538.41	1853.41
538.61	1820.64
538.81	1716.20
539.00	1812.45
539.20	1630.18
539.40	1695.72
539.60	1779.68
539.79	1798.12
539.99	1791.97
540.19	1681.38
540.39	1763.30
540.58	1732.58
540.78	1787.88
540.98	1722.34
541.18	1861.60
541.37	1726.44
541.57	1699.81
541.77	1812.45
541.97	1689.57
542.16	1695.72
542.36	1697.77
542.56	1667.05
542.76	1791.97
542.95	1785.83
543.15	1677.29
543.35	1779.68
543.54	1677.29
543.74	1685.48
543.94	1826.79
544.14	1669.09
544.33	1765.35
544.53	1714.15
544.73	1689.57
544.93	1689.57
545.12	1685.48
545.32	1665.00
545.52	1687.53
545.71	1667.05
545.91	1755.11
546.11	1705.96
546.30	1677.29
546.50	1769.44
546.70	1761.25
546.90	1656.81
547.09	1533.93
547.29	1710.05
547.49	1748.97
547.68	1712.10
547.88	1673.19
548.08	1755.11
548.27	2220.00
548.47	1689.57
548.67	1656.81
548.87	1789.92
549.06	1779.68
549.26	1763.30
549.46	1742.82
549.65	1738.73
549.85	1675.24
550.05	1761.25
550.24	1613.80
550.44	1732.58
550.64	1648.61
550.83	1689.57
551.03	1744.87
551.23	1746.92
551.42	1781.73
551.62	1724.39
551.82	1767.40
552.01	1802.21
552.21	1730.53
552.41	1705.96
552.60	1804.26
552.80	1714.15
553.00	1695.72
553.19	1677.29
553.39	1812.45
553.59	1712.10
553.78	1777.64
553.98	1794.02
554.17	1677.29
554.37	1798.12
554.57	1839.08
554.76	1650.66
554.96	1644.52
555.16	1728.49
555.35	1814.50
555.55	1769.44
555.75	1687.53
555.94	1791.97
556.14	1654.76
556.33	1773.54
556.53	1787.88
556.73	1753.06
556.92	1757.16
557.12	1791.97
557.32	1851.36
557.51	1875.94
557.71	1769.44
557.90	1781.73
558.10	1830.88
558.30	1734.63
558.49	1697.77
558.69	1753.06
558.88	1828.84
559.08	1816.55
559.28	1660.90
559.47	1712.10
559.67	1775.59
559.86	1828.84
560.06	1759.21
560.26	1718.25
560.45	1742.82
560.65	1757.16
560.84	1820.64
561.04	1656.81
561.24	1808.36
561.43	1671.14
561.63	1771.49
561.82	1767.40
562.02	1769.44
562.22	1718.25
562.41	1593.32
562.61	1695.72
562.80	1665.00
563.00	1859.56
563.19	1820.64
563.39	1714.15
563.59	1775.59
563.78	1683.43
563.98	1644.52
564.17	1755.11
564.37	1603.56
564.56	1722.34
564.76	1673.19
564.96	1845.22
565.15	1726.44
565.35	1861.60
565.54	1665.00
565.74	1744.87
565.93	1658.85
566.13	1740.77
566.32	1755.11
566.52	1689.57
566.71	1785.83
566.91	1781.73
567.11	1705.96
567.30	1656.81
567.50	1798.12
567.69	1820.64
567.89	1701.86
568.08	1720.29
568.28	1738.73
568.47	1708.01
568.67	1767.40
568.86	1703.91
569.06	1738.73
569.25	1775.59
569.45	1730.53
569.64	1570.79
569.84	1763.30
570.04	1730.53
570.23	1673.19
570.43	1685.48
570.62	1748.97
570.82	1783.78
571.01	1568.74
571.21	1755.11
571.40	1730.53
571.60	1724.39
571.79	1710.05
571.99	1789.92
572.18	1638.38
572.38	1769.44
572.57	1660.90
572.77	1765.35
572.96	1804.26
573.16	1744.87
573.35	1734.63
573.55	1843.17
573.74	1791.97
573.94	1734.63
574.13	1697.77
574.33	1769.44
574.52	1818.60
574.71	1726.44
574.91	1685.48
575.10	1605.61
575.30	1732.58
575.49	1708.01
575.69	1662.95
575.88	1816.55
576.08	1820.64
576.27	1863.65
576.47	1726.44
576.66	1781.73
576.86	1796.07
577.05	1785.83
577.25	1791.97
577.44	1804.26
577.64	1611.75
577.83	1789.92
578.02	1779.68
578.22	1906.66
578.41	1785.83
578.61	1755.11
578.80	1650.66
579.00	1751.01
579.19	1714.15
579.39	1796.07
579.58	1761.25
579.77	1748.97
579.97	1742.82
580.16	1865.70
580.36	1808.36
580.55	1808.36
580.75	1736.68
580.94	1763.30
581.13	1834.98
581.33	1818.60
581.52	1728.49
581.72	1910.75
581.91	1902.56
582.11	1710.05
582.30	1779.68
582.49	1744.87
582.69	1859.56
582.88	1812.45
583.08	1865.70
583.27	1808.36
583.47	1738.73
583.66	1689.57
583.85	1732.58
584.05	1697.77
584.24	1789.92
584.44	1759.21
584.63	1824.74
584.82	1755.11
585.02	1841.12
585.21	1804.26
585.41	1783.78
585.60	1902.56
585.79	1935.33
585.99	1927.14
586.18	1814.50
586.37	2115.55
586.57	3393.48
586.76	10182.50
586.96	24981.12
587.15	35276.26
587.34	41440.65
587.54	43658.60
587.73	37479.88
587.93	26836.58
588.12	22011.57
588.31	18562.79
588.51	16572.16
588.70	15419.16
588.89	14534.43
589.09	12826.43
589.28	11272.02
589.47	9326.45
589.67	8122.24
589.86	6557.60
590.06	4757.43
590.25	3872.71
590.44	3180.50
590.64	2594.78
590.83	2263.01
591.02	2076.64
591.22	1918.95
591.41	1798.12
591.60	1890.28
591.80	1882.08
591.99	1710.05
592.18	1777.64
592.38	1818.60
592.57	1794.02
592.76	1744.87
592.96	1759.21
593.15	1824.74
593.34	1816.55
593.54	1769.44
593.73	1849.32
593.92	1738.73
594.12	1787.88
594.31	1720.29
594.50	1820.64
594.70	1794.02
594.89	1918.95
595.08	1656.81
595.28	1759.21
595.47	1812.45
595.66	1751.01
595.86	1667.05
596.05	1716.20
596.24	1748.97
596.43	1738.73
596.63	1804.26
596.82	1744.87
597.01	1785.83
597.21	1777.64
597.40	1851.36
597.59	1714.15
597.79	1773.54
597.98	1722.34
598.17	1732.58
598.36	1830.88
598.56	1779.68
598.75	1755.11
598.94	1769.44
599.14	1763.30
599.33	1738.73
599.52	1783.78
599.71	1755.11
599.91	1806.31
600.10	1765.35
600.29	1714.15
600.48	1783.78
600.68	1794.02
600.87	1708.01
601.06	1693.67
601.26	1673.19
601.45	1818.60
601.64	1730.53
601.83	1804.26
602.03	1714.15
602.22	1720.29
602.41	1771.49
602.60	1910.75
602.80	1781.73
602.99	1746.92
603.18	1669.09
603.37	1736.68
603.57	1779.68
603.76	1746.92
603.95	1730.53
604.14	1763.30
604.34	1697.77
604.53	1726.44
604.72	1744.87
604.91	1785.83
605.10	1734.63
605.30	1699.81
605.49	1837.03
605.68	1812.45
605.87	1800.16
606.07	1757.16
606.26	1734.63
606.45	1673.19
606.64	1734.63
606.84	1646.57
607.03	1685.48
607.22	1751.01
607.41	1665.00
607.60	1738.73
607.80	1867.75
607.99	1765.35
608.18	1683.43
608.37	1724.39
608.56	1677.29
608.76	1832.93
608.95	1746.92
609.14	1742.82
609.33	1746.92
609.52	1796.07
609.72	1732.58
609.91	1783.78
610.10	1761.25
610.29	1810.40
610.48	1755.11
610.68	1783.78
610.87	1699.81
611.06	1800.16
611.25	1791.97
611.44	1781.73
611.63	1679.33
611.83	1820.64
612.02	1681.38
612.21	1837.03
612.40	1611.75
612.59	1599.46
612.79	1636.33
612.98	1714.15
613.17	1822.69
613.36	1703.91
613.55	1757.16
613.74	1693.67
613.93	1736.68
614.13	1712.10
614.32	1712.10
614.51	1751.01
614.70	1652.71
614.89	1599.46
615.08	1744.87
615.28	1998.82
615.47	1689.57
615.66	1714.15
615.85	1675.24
616.04	1796.07
616.23	1726.44
616.42	1697.77
616.62	1800.16
616.81	1783.78
617.00	1701.86
617.19	1806.31
617.38	1673.19
617.57	1798.12
617.76	1781.73
617.95	1753.06
618.15	1736.68
618.34	1843.17
618.53	1665.00
618.72	1855.46
618.91	1791.97
619.10	1804.26
619.29	1822.69
619.48	1812.45
619.68	1679.33
619.87	1650.66
620.06	1615.85
620.25	1755.11
620.44	1697.77
620.63	1708.01
620.82	1697.77
621.01	1734.63
621.20	1693.67
621.39	1755.11
621.59	1765.35
621.78	1693.67
621.97	1673.19
622.16	1697.77
622.35	1656.81
622.54	1724.39
622.73	1857.51
622.92	1648.61
623.11	1769.44
623.30	1658.85
623.49	1654.76
623.68	1722.34
623.88	1779.68
624.07	1728.49
624.26	1689.57
624.45	1687.53
624.64	1724.39
624.83	1738.73
625.02	1673.19
625.21	1757.16
625.40	1734.63
625.59	1738.73
625.78	1701.86
625.97	1722.34
626.16	1777.64
626.35	1777.64
626.54	1679.33
626.74	1820.64
626.93	1658.85
627.12	1624.04
627.31	1812.45
627.50	1734.63
627.69	1849.32
627.88	1687.53
628.07	1685.48
628.26	1640.42
628.45	1693.67
628.64	1714.15
628.83	1732.58
629.02	1630.18
629.21	1765.35
629.40	1738.73
629.59	1603.56
629.78	1748.97
629.97	1652.71
630.16	1687.53
630.35	1677.29
630.54	1630.18
630.73	1701.86
630.92	1804.26
631.11	1615.85
631.30	1656.81
631.49	1810.40
631.68	1759.21
631.87	1816.55
632.06	1640.42
632.25	1867.75
632.44	1759.21
632.63	1732.58
632.82	1714.15
633.01	1646.57
633.20	1656.81
633.39	1599.46
633.58	1609.70
633.77	1724.39
633.96	1746.92
634.15	1748.97
634.34	1665.00
634.53	1646.57
634.72	1648.61
634.91	1617.90
635.10	1796.07
635.29	1742.82
635.48	1746.92
635.67	1730.53
635.86	1708.01
636.05	1826.79
636.24	1679.33
636.43	1736.68
636.62	1771.49
636.81	1589.22
637.00	1699.81
637.19	1699.81
637.38	1722.34
637.57	1701.86
637.76	1681.38
637.95	1701.86
638.14	1687.53
638.33	1742.82
638.52	1771.49
638.71	1642.47
638.89	1689.57
639.08	1804.26
639.27	1726.44
639.46	1712.10
639.65	1826.79
639.84	1701.86
640.03	1722.34
640.22	1636.33
640.41	1800.16
640.60	1697.77
640.79	1734.63
640.98	1671.14
641.17	1751.01
641.36	1699.81
641.55	1718.25
641.74	1677.29
641.92	1701.86
642.11	1601.51
642.30	1636.33
642.49	1714.15
642.68	1679.33
642.87	1675.24
643.06	1675.24
643.25	1626.09
643.44	1681.38
643.63	1705.96
643.82	1783.78
644.00	1660.90
644.19	1628.14
644.38	1697.77
644.57	1820.64
644.76	1665.00
644.95	1673.19
645.14	1697.77
645.33	1722.34
645.52	1681.38
645.71	1671.14
645.89	1572.84
646.08	1685.48
646.27	1691.62
646.46	1886.18
646.65	1619.94
646.84	1726.44
647.03	1695.72
647.22	1742.82
647.40	1712.10
647.59	1652.71
647.78	1644.52
647.97	1699.81
648.16	1677.29
648.35	1796.07
648.54	1732.58
648.73	1759.21
648.91	1804.26
649.10	1769.44
649.29	1656.81
649.48	1675.24
649.67	1699.81
649.86	1669.09
650.05	1628.14
650.23	1802.21
650.42	1673.19
650.61	1789.92
650.80	1671.14
650.99	1834.98
651.18	1705.96
651.36	1816.55
651.55	1673.19
651.74	1753.06
651.93	1667.05
652.12	1638.38
652.31	1722.34
652.49	1685.48
652.68	1693.67
652.87	1693.67
653.06	1671.14
653.25	1771.49
653.44	1685.48
653.62	1783.78
653.81	1748.97
654.00	1726.44
654.19	1724.39
654.38	1871.84
654.56	1697.77
654.75	1642.47
654.94	1751.01
655.13	1722.34
655.32	1732.58
655.51	1689.57
655.69	1621.99
655.88	1607.66
656.07	1652.71
656.26	1671.14
656.45	1568.74
656.63	1740.77
656.82	1806.31
657.01	1738.73
657.20	1632.23
657.38	1828.84
657.57	1681.38
657.76	1652.71
657.95	1791.97
658.14	1642.47
658.32	1691.62
658.51	1568.74
658.70	1740.77
658.89	1734.63
659.08	1658.85
659.26	1841.12
659.45	1593.32
659.64	1765.35
659.83	1617.90
660.01	1908.71
660.20	1734.63
660.39	1751.01
660.58	1632.23
660.76	1771.49
660.95	1615.85
661.14	1714.15
661.33	1746.92
661.51	1718.25
661.70	1765.35
661.89	1738.73
662.08	1701.86
662.26	1669.09
662.45	1712.10
662.64	1841.12
662.83	1714.15
663.01	1638.38
663.20	1705.96
663.39	1740.77
663.58	1693.67
663.76	1673.19
663.95	1759.21
664.14	1667.05
664.32	1667.05
664.51	1816.55
664.70	1638.38
664.89	1765.35
665.07	1652.71
665.26	1681.38
665.45	1675.24
665.64	1791.97
665.82	1665.00
666.01	1751.01
666.20	1685.48
666.38	1800.16
666.57	1785.83
666.76	2197.47
666.95	4579.26
667.13	10585.95
667.32	15712.02
667.51	17936.11
667.69	19576.53
667.88	17852.14
668.07	12353.35
668.25	9586.54
668.44	8195.97
668.63	7546.76
668.81	6924.18
669.00	6584.22
669.19	5773.22
669.38	5177.26
669.56	4571.07
669.75	3907.52
669.94	3467.21
670.12	2932.69
670.31	2643.93
670.50	2244.57
670.68	2093.02
670.87	1873.89
671.06	1785.83
671.24	1841.12
671.43	1804.26
671.62	1798.12
671.80	1644.52
671.99	1736.68
672.18	1687.53
672.36	1781.73
672.55	1630.18
672.74	1683.43
672.92	1697.77
673.11	1701.86
673.29	1650.66
673.48	1710.05
673.67	1660.90
673.85	1753.06
674.04	1697.77
674.23	1726.44
674.41	1806.31
674.60	1673.19
674.79	1589.22
674.97	1744.87
675.16	1740.77
675.34	1775.59
675.53	1591.27
675.72	1746.92
675.90	1861.60
676.09	1683.43
676.28	1726.44
676.46	1685.48
676.65	1720.29
676.83	1650.66
677.02	1726.44
677.21	1648.61
677.39	1632.23
677.58	1665.00
677.77	1736.68
677.95	1730.53
678.14	1658.85
678.32	1697.77
678.51	1710.05
678.70	1886.18
678.88	1712.10
679.07	1718.25
679.25	1751.01
679.44	1632.23
679.63	1628.14
679.81	1722.34
680.00	1771.49
680.18	1738.73
680.37	1755.11
680.55	1761.25
680.74	1587.18
680.93	1607.66
681.11	1726.44
681.30	1738.73
681.48	1763.30
681.67	1683.43
681.85	1826.79
682.04	1689.57
682.23	1763.30
682.41	1771.49
682.60	1697.77
682.78	1744.87
682.97	1689.57
683.15	1705.96
683.34	1720.29
683.53	1736.68
683.71	1650.66
683.90	1781.73
684.08	1767.40
684.27	1656.81
684.45	1648.61
684.64	1716.20
684.82	1695.72
685.01	1759.21
685.19	1746.92
685.38	1759.21
685.57	1681.38
685.75	1746.92
685.94	1734.63
686.12	1759.21
686.31	1710.05
686.49	1785.83
686.68	1550.31
686.86	1722.34
687.05	1710.05
687.23	1796.07
687.42	1652.71
687.60	1665.00
687.79	1687.53
687.97	1804.26
688.16	1820.64
688.34	1787.88
688.53	1566.70
688.71	1689.57
688.90	1800.16
689.08	1748.97
689.27	1613.80
689.45	1611.75
689.64	1669.09
689.82	1781.73
690.01	1791.97
690.19	1728.49
690.38	1781.73
690.56	1687.53
690.75	1615.85
690.93	1722.34
691.12	1603.56
691.30	1660.90
691.49	1771.49
691.67	1683.43
691.86	1800.16
692.04	1665.00
692.23	1683.43
692.41	1644.52
692.60	1761.25
692.78	1724.39
692.97	1724.39
693.15	1691.62
693.34	1800.16
693.52	1769.44
693.71	1644.52
693.89	1640.42
694.08	1562.60
694.26	1769.44
694.44	1759.21
694.63	1753.06
694.81	1660.90
695.00	1630.18
695.18	1728.49
695.37	1849.32
695.55	1722.34
695.74	1726.44
695.92	1677.29
696.10	1818.60
696.29	1732.58
696.47	1624.04
696.66	1630.18
696.84	1576.94
697.03	1669.09
697.21	1773.54
697.40	2308.06
697.58	1767.40
697.76	1675.24
697.95	1656.81
698.13	1640.42
698.32	1697.77
698.50	1746.92
698.68	1701.86
698.87	1712.10
699.05	1806.31
699.24	1660.90
699.42	1654.76
699.61	1675.24
699.79	1757.16
699.97	1734.63
700.16	1656.81
700.34	1644.52
700.53	1605.61
700.71	1726.44
700.89	1718.25
701.08	1710.05
701.26	1732.58
701.45	2025.44
701.63	1755.11
701.81	1718.25
702.00	1648.61
702.18	1708.01
702.37	1658.85
702.55	1712.10
702.73	1566.70
702.92	1695.72
703.10	1777.64
703.28	1708.01
703.47	1691.62
703.65	1806.31
703.84	1679.33
704.02	1701.86
704.20	1837.03
704.39	1718.25
704.57	1677.29
704.75	1728.49
704.94	1746.92
705.12	1763.30
705.30	1800.16
705.49	2279.39
705.67	4585.40
705.86	9848.68
706.04	12818.24
706.22	14763.81
706.41	15738.64
706.59	14112.55
706.77	9803.63
706.96	7696.27
707.14	6879.13
707.32	6076.32
707.51	5656.49
707.69	5033.91
707.87	4208.58
708.06	3682.25
708.24	2983.89
708.42	2469.85
708.61	2209.76
708.79	1832.93
708.97	1902.56
709.16	1810.40
709.34	1722.34
709.52	1714.15
709.71	1712.10
709.89	1845.22
710.07	1736.68
710.26	1624.04
710.44	1773.54
710.62	1710.05
710.80	1714.15
710.99	1740.77
711.17	1746.92
711.35	1718.25
711.54	1634.28
711.72	1722.34
711.90	1742.82
712.09	1710.05
712.27	1654.76
712.45	1775.59
712.63	1644.52
712.82	1697.77
713.00	1576.94
713.18	1742.82
713.37	1796.07
713.55	1777.64
713.73	1658.85
713.91	1763.30
714.10	1671.14
714.28	1677.29
714.46	1683.43
714.65	1720.29
714.83	1759.21
715.01	1703.91
715.19	1679.33
715.38	1722.34
715.56	1705.96
715.74	1699.81
715.92	1658.85
716.11	1767.40
716.29	1566.70
716.47	1724.39
716.65	1660.90
716.84	1603.56
717.02	1791.97
717.20	1568.74
717.38	1601.51
717.57	1669.09
717.75	1736.68
717.93	1632.23
718.11	1730.53
718.30	1679.33
718.48	1701.86
718.66	1814.50
718.84	1753.06
719.03	1671.14
719.21	1681.38
719.39	1777.64
719.57	1796.07
719.75	1734.63
719.94	1624.04
720.12	1687.53
720.30	1701.86
720.48	1765.35
720.67	1667.05
720.85	1665.00
721.03	1652.71
721.21	1607.66
721.39	1736.68
721.58	1705.96
721.76	1714.15
721.94	1738.73
722.12	1726.44
722.30	1738.73
722.49	1755.11
722.67	1697.77
722.85	1681.38
723.03	1658.85
723.21	1636.33
723.40	1695.72
723.58	1781.73
723.76	1710.05
723.94	1755.11
724.12	1691.62
724.30	1822.69
724.49	1689.57
724.67	1710.05
724.85	1761.25
725.03	1628.14
725.21	1738.73
725.40	1730.53
725.58	1615.85
725.76	1728.49
725.94	1732.58
726.12	1603.56
726.30	1689.57
726.49	1693.67
726.67	1724.39
726.85	1771.49
727.03	1783.78
727.21	2222.05
727.39	2926.55
727.57	3866.56
727.76	4353.98
727.94	4575.16
728.12	4476.86
728.30	3751.88
728.48	2928.60
728.66	2781.14
728.84	2545.63
729.03	2355.16
729.21	2189.28
729.39	2027.49
729.57	1888.23
729.75	1710.05
729.93	1851.36
730.11	1640.42
730.30	1693.67
730.48	1679.33
730.66	1828.84
730.84	1783.78
731.02	1755.11
731.20	1691.62
731.38	1718.25
731.56	1699.81
731.74	1640.42
731.93	1691.62
732.11	1714.15
732.29	1703.91
732.47	1652.71
732.65	1699.81
732.83	1818.60
733.01	1751.01
733.19	1642.47
733.37	1667.05
733.56	1769.44
733.74	1669.09
733.92	1751.01
734.10	1667.05
734.28	1771.49
734.46	1636.33
734.64	1642.47
734.82	1677.29
735.00	1648.61
735.18	1576.94
735.36	1755.11
735.54	1679.33
735.73	1748.97
735.91	1767.40
736.09	1687.53
736.27	1648.61
736.45	1757.16
736.63	1644.52
736.81	1615.85
736.99	1710.05
737.17	1785.83
737.35	1624.04
737.53	1673.19
737.71	1671.14
737.89	1890.28
738.07	1689.57
738.25	1699.81
738.43	1683.43
738.61	1634.28
738.80	1675.24
738.98	1658.85
739.16	1742.82
739.34	1636.33
739.52	1726.44
739.70	1708.01
739.88	1769.44
740.06	1773.54
740.24	1617.90
740.42	1751.01
740.60	1624.04
740.78	1697.77
740.96	1619.94
741.14	1720.29
741.32	1669.09
741.50	1669.09
741.68	1796.07
741.86	1779.68
742.04	1681.38
742.22	1755.11
742.40	1746.92
742.58	1751.01
742.76	1705.96
742.94	1771.49
743.12	1677.29
743.30	1679.33
743.48	1710.05
743.66	1632.23
743.84	1785.83
744.02	1632.23
744.20	1783.78
744.38	1609.70
744.56	1712.10
744.74	1787.88
744.92	1720.29
745.10	1742.82
745.28	1746.92
745.46	1783.78
745.64	1656.81
745.82	1783.78
746.00	1603.56
746.18	1740.77
746.36	1697.77
746.54	1722.34
746.72	1626.09
746.90	1560.55
747.08	1703.91
747.26	1654.76
747.44	1767.40
747.62	1789.92
747.80	1724.39
747.98	1697.77
748.15	1728.49
748.33	1759.21
748.51	1738.73
748.69	1748.97
748.87	1683.43
749.05	1665.00
749.23	1736.68
749.41	1755.11
749.59	1656.81
749.77	1765.35
749.95	1624.04
750.13	1628.14
750.31	1708.01
750.49	1656.81
750.67	1710.05
750.85	1814.50
751.03	1685.48
751.20	1832.93
751.38	1675.24
751.56	1679.33
751.74	1738.73
751.92	1757.16
752.10	1652.71
752.28	1785.83
752.46	1703.91
752.64	1685.48
752.82	1740.77
753.00	1767.40
753.18	1689.57
753.35	1607.66
753.53	1687.53
753.71	1632.23
753.89	1718.25
754.07	1693.67
754.25	1679.33
754.43	1755.11
754.61	1607.66
754.79	1708.01
754.97	1697.77
755.14	1730.53
755.32	1671.14
755.50	1644.52
755.68	1789.92
755.86	1593.32
756.04	1736.68
756.22	1624.04
756.40	1718.25
756.57	1800.16
756.75	1703.91
756.93	1794.02
757.11	1701.86
757.29	1638.38
757.47	1669.09
757.65	1722.34
757.82	1492.97
758.00	1693.67
758.18	1632.23
758.36	1669.09
758.54	1777.64
758.72	1634.28
758.90	1810.40
759.07	1677.29
759.25	1665.00
759.43	1671.14
759.61	1667.05
759.79	2213.85
759.97	1675.24
760.15	1632.23
760.32	1714.15
760.50	1681.38
760.68	1734.63
760.86	1601.51
761.04	1804.26
761.22	1734.63
761.39	1679.33
761.57	1834.98
761.75	1665.00
761.93	1695.72
762.11	1779.68
762.28	1624.04
762.46	1630.18
762.64	1767.40
762.82	1566.70
763.00	1751.01
763.18	1744.87
763.35	1593.32
763.53	1712.10
763.71	1689.57
763.89	1648.61
764.07	1701.86
764.24	1718.25
764.42	1746.92
764.60	1691.62
764.78	1691.62
764.96	1732.58
765.13	1679.33
765.31	1607.66
765.49	1697.77
765.67	1701.86
765.84	1662.95
766.02	1624.04
766.20	1671.14
766.38	1689.57
766.56	1808.36
766.73	1740.77
766.91	1669.09
767.09	1712.10
767.27	1734.63
767.44	1656.81
767.62	1701.86
767.80	1738.73
767.98	1724.39
768.15	1765.35
768.33	1726.44
768.51	1699.81
768.69	1695.72
768.87	1714.15
769.04	1693.67
769.22	1855.46
769.40	1814.50
769.58	1816.55
769.75	1671.14
769.93	1818.60
770.11	1714.15
770.28	1648.61
770.46	1693.67
770.64	1806.31
770.82	1632.23
770.99	1677.29
771.17	1785.83
771.35	1744.87
771.53	1640.42
771.70	1638.38
771.88	1708.01
772.06	1685.48
772.23	1642.47
772.41	1789.92
772.59	1667.05
772.77	1667.05
772.94	1720.29
773.12	1740.77
773.30	1708.01
773.47	1722.34
773.65	1542.12
773.83	1818.60
774.01	1615.85
774.18	1634.28
774.36	1701.86
774.54	1656.81
774.71	1677.29
774.89	1652.71
775.07	1683.43
775.24	1648.61
775.42	1660.90
775.60	1834.98
775.78	1648.61
775.95	1583.08
776.13	1654.76
776.31	1558.50
776.48	1753.06
776.66	1837.03
776.84	1716.20
777.01	1693.67
777.19	1611.75
777.37	1650.66
777.54	1685.48
777.72	1761.25
777.90	1714.15
778.07	1644.52
778.25	1851.36
778.43	1789.92
778.60	1656.81
778.78	1783.78
778.96	1714.15
779.13	1595.37
779.31	1697.77
779.49	1669.09
779.66	1742.82
779.84	1644.52
780.01	1636.33
780.19	1667.05
780.37	1761.25
780.54	1748.97
780.72	1687.53
780.90	1640.42
781.07	1708.01
781.25	1689.57
781.43	1751.01
781.60	1693.67
781.78	1697.77
781.95	1640.42
782.13	1613.80
782.31	1689.57
782.48	1566.70
782.66	1687.53
782.83	1787.88
783.01	1738.73
783.19	1716.20
783.36	1701.86
783.54	1683.43
783.72	1677.29
783.89	1755.11
784.07	1722.34
784.24	1734.63
784.42	1703.91
784.60	1775.59
784.77	1681.38
784.95	1669.09
785.12	1656.81
785.30	1630.18
785.47	1624.04
785.65	1679.33
785.83	1714.15
786.00	1638.38
786.18	1746.92
786.35	1677.29
786.53	1699.81
786.71	1710.05
786.88	1726.44
787.06	1755.11
787.23	1726.44
787.41	1599.46
787.58	1708.01
787.76	1665.00
787.94	1746.92
788.11	1742.82
788.29	1677.29
788.46	1599.46
788.64	1583.08
788.81	1679.33
788.99	1640.42
789.16	1677.29
789.34	1685.48
789.52	1679.33
789.69	1646.57
789.87	1533.93
790.04	1726.44
790.22	1697.77
790.39	1787.88
790.57	1615.85
790.74	1566.70
790.92	1759.21
791.09	1667.05
791.27	1695.72
791.44	1818.60
791.62	1650.66
791.79	1703.91
791.97	1617.90
792.15	1896.42
792.32	1796.07
792.50	1736.68
792.67	1742.82
792.85	1718.25
793.02	1730.53
793.20	1701.86
793.37	1583.08
793.55	1718.25
793.72	1624.04
793.90	1751.01
794.07	1650.66
794.25	1697.77
794.42	1665.00
794.60	1648.61
794.77	1712.10
794.95	1691.62
795.12	1687.53
795.30	1662.95
795.47	1603.56
795.65	1837.03
795.82	1685.48
796.00	1671.14
796.17	1636.33
796.34	1656.81
796.52	1712.10
796.69	1830.88
796.87	1683.43
797.04	1763.30
797.22	1699.81
797.39	1740.77
797.57	1755.11
797.74	1615.85
797.92	1763.30
798.09	1757.16
798.27	1744.87
798.44	1757.16
798.62	1681.38
798.79	1714.15
798.96	1673.19
799.14	1656.81
799.31	1802.21
799.49	1634.28
799.66	1619.94
799.84	1755.11
800.01	1660.90
800.19	1732.58
800.36	1632.23
800.53	1775.59
800.71	1738.73
800.88	1699.81
801.06	1658.85
801.23	1716.20
801.41	1679.33
801.58	1630.18
801.75	1687.53
801.93	1732.58
802.10	1734.63
802.28	1703.91
802.45	1662.95
802.63	1677.29
802.80	1738.73
802.97	1691.62
803.15	1675.24
803.32	1665.00
803.50	1660.90
803.67	1714.15
803.84	1544.17
804.02	1732.58
804.19	1662.95
804.37	1591.27
804.54	1697.77
804.71	1677.29
804.89	1724.39
805.06	1615.85
805.24	1628.14
805.41	1617.90
805.58	1693.67
805.76	1826.79
805.93	1718.25
806.10	1705.96
806.28	1734.63
806.45	1710.05
806.63	1712.10
806.80	1665.00
806.97	1738.73
807.15	1732.58
807.32	1800.16
807.49	1714.15
807.67	1650.66
807.84	1695.72
808.01	1654.76
808.19	1787.88
808.36	1763.30
808.54	1679.33
808.71	1601.51
808.88	1730.53
809.06	1703.91
809.23	1744.87
809.40	1689.57
809.58	1703.91
809.75	1621.99
809.92	1683.43
810.10	1802.21
810.27	1642.47
810.44	1708.01
810.62	1716.20
810.79	1665.00
810.96	1646.57
811.14	1632.23
811.31	1732.58
811.48	1771.49
811.66	1708.01
811.83	1746.92
812.00	1683.43
812.18	1734.63
812.35	1798.12
812.52	1677.29
812.69	1705.96
812.87	1656.81
813.04	1640.42
813.21	1656.81
813.39	1710.05
813.56	1544.17
813.73	1787.88
813.91	1540.07
814.08	1648.61
814.25	1779.68
814.42	1599.46
814.60	1658.85
814.77	1724.39
814.94	1687.53
815.12	1681.38
815.29	1751.01
815.46	1679.33
815.63	1714.15
815.81	1634.28
815.98	1718.25
816.15	1722.34
816.33	1701.86
816.50	1685.48
816.67	1589.22
816.84	1691.62
817.02	1617.90
817.19	1671.14
817.36	1652.71
817.53	1669.09
817.71	1599.46
817.88	1796.07
818.05	1683.43
818.22	1632.23
818.40	1810.40
818.57	1677.29
818.74	1656.81
818.91	1708.01
819.09	1693.67
819.26	1773.54
819.43	1642.47
819.60	1679.33
819.78	1763.30
819.95	1738.73
820.12	1685.48
820.29	1767.40
820.47	1742.82
820.64	1613.80
820.81	1605.61
820.98	1595.37
821.15	1673.19
821.33	1746.92
821.50	1638.38
821.67	1808.36
821.84	1615.85
822.02	1804.26
822.19	1691.62
822.36	1673.19
822.53	1665.00
822.70	1660.90
822.88	1701.86
823.05	1730.53
823.22	1691.62
823.39	1734.63
823.56	1701.86
823.74	1804.26
823.91	1710.05
824.08	1591.27
824.25	1624.04
824.42	1763.30
824.60	1538.02
824.77	1710.05
824.94	1714.15
825.11	1689.57
825.28	1607.66
825.45	1687.53
825.63	1648.61
825.80	1652.71
825.97	1726.44
826.14	1652.71
826.31	1630.18
826.48	1755.11
826.66	1613.80
826.83	1679.33
827.00	1685.48
827.17	1732.58
827.34	1716.20
827.51	1636.33
827.69	1652.71
827.86	1601.51
828.03	1712.10
828.20	1765.35
828.37	1576.94
828.54	1755.11
828.71	1658.85
828.89	1798.12
829.06	1691.62
829.23	1718.25
829.40	1644.52
829.57	1634.28
829.74	1726.44
829.91	1656.81
830.09	1673.19
830.26	1683.43
830.43	1779.68
830.60	1705.96
830.77	1781.73
830.94	1820.64
831.11	1703.91
831.28	1624.04
831.46	1863.65
831.63	1681.38
831.80	1812.45
831.97	1652.71
832.14	1685.48
832.31	1771.49
832.48	1710.05
832.65	1767.40
832.82	1738.73
832.99	1708.01
833.17	1587.18
833.34	1675.24
833.51	1703.91
833.68	1562.60
833.85	1771.49
834.02	1599.46
834.19	1634.28
834.36	1722.34
834.53	1759.21
834.70	1755.11
834.87	1730.53
835.04	1695.72
835.22	1640.42
835.39	1759.21
835.56	1628.14
835.73	1724.39
835.90	1734.63
836.07	1701.86
836.24	1708.01
836.41	1607.66
836.58	1648.61
836.75	1742.82
836.92	1652.71
837.09	1638.38
837.26	1746.92
837.43	1675.24
837.60	1658.85
837.77	1714.15
837.94	1771.49
838.12	1828.84
838.29	1714.15
838.46	1642.47
838.63	1683.43
838.80	1722.34
838.97	1716.20
839.14	1701.86
839.31	1675.24
839.48	1699.81
839.65	1650.66
839.82	1699.81
839.99	1742.82
840.16	1671.14
840.33	1693.67
840.50	1781.73
840.67	1581.03
840.84	1562.60
841.01	1689.57
841.18	1710.05
841.35	1708.01
841.52	1716.20
841.69	1816.55
841.86	1720.29
842.03	1730.53
842.20	1791.97
842.37	1718.25
842.54	1705.96
842.71	1761.25
842.88	1695.72
843.05	1716.20
843.22	1626.09
843.39	1708.01
843.56	1732.58
843.73	1617.90
843.90	1744.87
844.07	1648.61
844.24	1742.82
844.41	1779.68
844.58	1714.15
844.75	1665.00
844.92	1669.09
845.09	1701.86
845.26	1626.09
845.43	1781.73
845.60	1634.28
845.77	1767.40
845.94	1703.91
846.10	1775.59
846.27	1599.46
846.44	1677.29
846.61	1593.32
846.78	1636.33
846.95	1804.26
847.12	1734.63
847.29	1689.57
847.46	1724.39
847.63	1644.52
847.80	1667.05
847.97	1669.09
848.14	1824.74
848.31	1669.09
848.48	1615.85
848.65	1669.09
848.82	1673.19
848.98	1886.18
849.15	1763.30
849.32	1732.58
849.49	1724.39
849.66	1705.96
849.83	1761.25
850.00	1662.95
850.17	1742.82
850.34	1691.62
850.51	1701.86
850.68	1669.09
850.85	1820.64
851.01	1691.62
851.18	1740.77
851.35	1624.04
851.52	1644.52
851.69	1724.39
851.86	1675.24
852.03	1570.79
852.20	1732.58
852.37	1662.95
852.53	1644.52
852.70	1740.77
852.87	1665.00
853.04	1767.40
853.21	1626.09
853.38	1703.91
853.55	1732.58
853.72	1751.01
853.89	1591.27
854.05	1671.14
854.22	1681.38
854.39	1667.05
854.56	1665.00
854.73	1773.54
854.90	1636.33
855.07	1705.96
855.23	1628.14
855.40	1695.72
855.57	1763.30
855.74	1574.89
855.91	1796.07
856.08	1650.66
856.25	1656.81
856.41	1746.92
856.58	1671.14
856.75	1691.62
856.92	1595.37
857.09	1683.43
857.26	1691.62
857.42	1683.43
857.59	1777.64
857.76	1685.48
857.93	1720.29
858.10	1738.73
858.27	1658.85
858.43	1710.05
858.60	1671.14
858.77	1626.09
858.94	1730.53
859.11	1765.35
859.27	1724.39
859.44	1652.71
859.61	1800.16
859.78	1742.82
859.95	1656.81
860.12	1667.05
860.28	1808.36
860.45	1802.21
860.62	1681.38
860.79	1761.25
860.95	1634.28
861.12	1665.00
861.29	1665.00
861.46	1656.81
861.63	1669.09
861.79	1765.35
861.96	1638.38
862.13	1619.94
862.30	1699.81
862.47	1640.42
862.63	1601.51
862.80	1714.15
862.97	1728.49
863.14	1697.77
863.30	1720.29
863.47	1744.87
863.64	1660.90
863.81	1716.20
863.97	1669.09
864.14	1675.24
864.31	1656.81
864.48	1720.29
864.65	1691.62
864.81	1712.10
864.98	1767.40
865.15	1744.87
865.32	1685.48
865.48	1724.39
865.65	1685.48
865.82	1687.53
865.98	1742.82
866.15	1732.58
866.32	1705.96
866.49	1673.19
866.65	1767.40
866.82	1673.19
866.99	1759.21
867.16	1693.67
867.32	1703.91
867.49	1628.14
867.66	1656.81
867.83	1703.91
867.99	1531.88
868.16	1701.86
868.33	1652.71
868.49	1689.57
868.66	1656.81
868.83	1665.00
868.99	1755.11
869.16	1687.53
869.33	1810.40
869.50	1773.54
869.66	1691.62
869.83	1683.43
870.00	1673.19
870.16	1781.73
870.33	1658.85
870.50	1693.67
870.66	1734.63
870.83	1789.92
871.00	1687.53
871.17	1718.25
871.33	1652.71
871.50	1683.43
871.67	1656.81
871.83	1611.75
872.00	1783.78
872.17	1689.57
872.33	1812.45
872.50	1718.25
872.67	1675.24
872.83	1742.82
873.00	1693.67
873.17	1734.63
873.33	1765.35
873.50	1781.73
873.67	1654.76
873.83	1628.14
874.00	1687.53
874.16	1644.52
874.33	1660.90
874.50	1630.18
874.66	1669.09
874.83	1761.25
875.00	1689.57
875.16	1767.40
875.33	1718.25
875.50	1525.74
875.66	1722.34
875.83	1658.85
875.99	1812.45
876.16	1648.61
876.33	1636.33
876.49	1683.43
876.66	1703.91
876.83	1742.82
876.99	1597.42
877.16	1660.90
877.32	1687.53
877.49	1710.05
877.66	1740.77
877.82	1693.67
877.99	1769.44
878.15	1730.53
878.32	1759.21
878.49	1712.10
878.65	1691.62
878.82	1742.82
878.98	1591.27
879.15	1740.77
879.32	1726.44
879.48	1708.01
879.65	1755.11
879.81	1695.72
879.98	1689.57
880.15	1714.15
880.31	1679.33
880.48	1689.57
880.64	1722.34
880.81	1705.96
880.97	1818.60
881.14	1810.40
881.31	1685.48
881.47	1845.22
881.64	1648.61
881.80	1615.85
881.97	1701.86
882.13	1773.54
882.30	1595.37
882.47	1640.42
882.63	1603.56
882.80	1701.86
882.96	1679.33
883.13	1671.14
883.29	1699.81
883.46	1636.33
883.62	1853.41
883.79	1687.53
883.95	1671.14
884.12	1681.38
884.29	1673.19
884.45	1662.95
884.62	1730.53
884.78	1701.86
884.95	1722.34
885.11	1677.29
885.28	1722.34
885.44	1699.81
885.61	1673.19
885.77	1724.39
885.94	1757.16
886.10	1718.25
886.27	1771.49
886.43	1789.92
886.60	1730.53
886.76	1624.04
886.93	1667.05
887.09	1687.53
887.26	1578.98
887.42	1732.58
887.59	1753.06
887.75	1814.50
887.92	1712.10
888.08	1734.63
888.25	1812.45
888.41	1710.05
888.58	1683.43
888.74	1679.33
888.91	1679.33
>>>>>End Processed Spectral Data<<<<<
