SpectraSuite Data File
++++++++++++++++++++++++++++++++++++
Date: Mon Jun 06 17:07:17 CEST 2016
User: root
Dark Spectrum Present: No
Reference Spectrum Present: No
Number of Sampled Component Spectra: 1
Spectrometers: USB4C02835
Integration Time (usec): 100000 (USB4C02835)
Spectra Averaged: 1 (USB4C02835)
Boxcar Smoothing: 0 (USB4C02835)
Correct for Electrical Dark: No (USB4C02835)
Strobe/Lamp Enabled: No (USB4C02835)
Correct for Detector Non-linearity: No (USB4C02835)
Correct for Stray Light: No (USB4C02835)
Number of Pixels in Processed Spectrum: 3648
>>>>>Begin Processed Spectral Data<<<<<
177.47	1474.54
177.69	1474.54
177.91	1474.54
178.13	1462.25
178.36	1478.63
178.58	1683.43
178.80	1742.82
179.02	1619.94
179.24	1699.81
179.46	1687.53
179.68	1806.31
179.90	1757.16
180.13	1773.54
180.35	1742.82
180.57	1722.34
180.79	1693.67
181.01	1753.06
181.23	1761.25
181.45	1689.57
181.67	1785.83
181.90	1689.57
182.12	1677.29
182.34	1605.61
182.56	1732.58
182.78	1708.01
183.00	1681.38
183.22	1773.54
183.44	1603.56
183.66	1902.56
183.89	1742.82
184.11	1699.81
184.33	1712.10
184.55	1732.58
184.77	1697.77
184.99	1765.35
185.21	1687.53
185.43	1863.65
185.65	1605.61
185.87	1744.87
186.10	1849.32
186.32	1822.69
186.54	1640.42
186.76	1732.58
186.98	1767.40
187.20	1726.44
187.42	1677.29
187.64	1689.57
187.86	1669.09
188.08	1796.07
188.30	1728.49
188.52	1714.15
188.75	1808.36
188.97	1746.92
189.19	1601.51
189.41	1730.53
189.63	1775.59
189.85	1738.73
190.07	1648.61
190.29	1636.33
190.51	1757.16
190.73	1695.72
190.95	1736.68
191.17	1722.34
191.39	1599.46
191.61	1722.34
191.84	1746.92
192.06	1701.86
192.28	1601.51
192.50	1806.31
192.72	1783.78
192.94	1652.71
193.16	1820.64
193.38	1787.88
193.60	1705.96
193.82	1671.14
194.04	1767.40
194.26	1728.49
194.48	1699.81
194.70	1695.72
194.92	1599.46
195.14	1714.15
195.36	1697.77
195.58	1654.76
195.80	1734.63
196.02	1716.20
196.24	1710.05
196.46	1781.73
196.69	1597.42
196.91	1898.47
197.13	1658.85
197.35	1677.29
197.57	1841.12
197.79	1773.54
198.01	1597.42
198.23	1787.88
198.45	1718.25
198.67	1619.94
198.89	1771.49
199.11	1705.96
199.33	1703.91
199.55	1566.70
199.77	1667.05
199.99	1767.40
200.21	1654.76
200.43	1810.40
200.65	1628.14
200.87	1603.56
201.09	1716.20
201.31	1734.63
201.53	1767.40
201.75	1708.01
201.97	1669.09
202.19	1609.70
202.41	1746.92
202.63	1877.99
202.85	1783.78
203.07	1697.77
203.29	1781.73
203.51	1660.90
203.73	1669.09
203.95	1804.26
204.17	1724.39
204.39	1740.77
204.61	1716.20
204.83	1679.33
205.05	1851.36
205.27	1718.25
205.49	1816.55
205.71	1693.67
205.93	1652.71
206.15	1687.53
206.37	1744.87
206.59	1658.85
206.81	1671.14
207.03	1716.20
207.25	1683.43
207.47	1804.26
207.69	1699.81
207.91	1783.78
208.13	1873.89
208.34	1665.00
208.56	1712.10
208.78	1710.05
209.00	1693.67
209.22	1740.77
209.44	1646.57
209.66	1677.29
209.88	1669.09
210.10	1648.61
210.32	1650.66
210.54	1804.26
210.76	1763.30
210.98	1748.97
211.20	1628.14
211.42	1681.38
211.64	1785.83
211.86	1740.77
212.08	1718.25
212.30	1732.58
212.52	1710.05
212.74	1740.77
212.96	1724.39
213.17	1814.50
213.39	1738.73
213.61	1748.97
213.83	1695.72
214.05	1697.77
214.27	1767.40
214.49	1705.96
214.71	1681.38
214.93	1734.63
215.15	1720.29
215.37	1718.25
215.59	1671.14
215.81	1710.05
216.03	1718.25
216.24	1724.39
216.46	1701.86
216.68	1751.01
216.90	1798.12
217.12	1697.77
217.34	1675.24
217.56	1740.77
217.78	1800.16
218.00	1685.48
218.22	1697.77
218.44	1763.30
218.66	1665.00
218.87	1834.98
219.09	1679.33
219.31	1708.01
219.53	1744.87
219.75	1640.42
219.97	1677.29
220.19	1718.25
220.41	1755.11
220.63	1773.54
220.85	1728.49
221.06	1699.81
221.28	1798.12
221.50	1705.96
221.72	1740.77
221.94	1669.09
222.16	1732.58
222.38	1681.38
222.60	1732.58
222.82	1695.72
223.03	1728.49
223.25	1632.23
223.47	1798.12
223.69	1738.73
223.91	1691.62
224.13	1718.25
224.35	1683.43
224.57	1779.68
224.78	1632.23
225.00	1607.66
225.22	1701.86
225.44	1662.95
225.66	1757.16
225.88	1703.91
226.10	1814.50
226.32	1765.35
226.53	1849.32
226.75	1648.61
226.97	1708.01
227.19	1679.33
227.41	1730.53
227.63	1675.24
227.85	1578.98
228.06	1755.11
228.28	1689.57
228.50	1787.88
228.72	1665.00
228.94	1652.71
229.16	1617.90
229.37	1669.09
229.59	1648.61
229.81	1828.84
230.03	1644.52
230.25	1656.81
230.47	1693.67
230.69	1724.39
230.90	1751.01
231.12	1736.68
231.34	1789.92
231.56	1738.73
231.78	1701.86
232.00	1767.40
232.21	1726.44
232.43	1703.91
232.65	1634.28
232.87	1718.25
233.09	1677.29
233.30	1628.14
233.52	1767.40
233.74	1712.10
233.96	1705.96
234.18	1708.01
234.40	1671.14
234.61	1849.32
234.83	1669.09
235.05	1611.75
235.27	1865.70
235.49	1798.12
235.70	1796.07
235.92	1763.30
236.14	1703.91
236.36	1777.64
236.58	1644.52
236.79	1691.62
237.01	1740.77
237.23	1665.00
237.45	1859.56
237.67	1648.61
237.88	1697.77
238.10	1773.54
238.32	1640.42
238.54	1753.06
238.76	1736.68
238.97	1710.05
239.19	1726.44
239.41	1832.93
239.63	1828.84
239.85	1742.82
240.06	1703.91
240.28	1683.43
240.50	1826.79
240.72	1730.53
240.93	1734.63
241.15	1787.88
241.37	1658.85
241.59	1767.40
241.81	1681.38
242.02	1763.30
242.24	1703.91
242.46	1763.30
242.68	1689.57
242.89	1761.25
243.11	1771.49
243.33	1755.11
243.55	1777.64
243.76	1781.73
243.98	1634.28
244.20	1677.29
244.42	1701.86
244.64	1677.29
244.85	1615.85
245.07	1693.67
245.29	1695.72
245.51	1669.09
245.72	1751.01
245.94	1773.54
246.16	1751.01
246.38	1687.53
246.59	1632.23
246.81	1650.66
247.03	1722.34
247.24	1654.76
247.46	1699.81
247.68	1718.25
247.90	1777.64
248.11	1656.81
248.33	1787.88
248.55	1632.23
248.77	1775.59
248.98	1751.01
249.20	1779.68
249.42	1695.72
249.64	1791.97
249.85	1681.38
250.07	1779.68
250.29	1822.69
250.50	1693.67
250.72	1667.05
250.94	1779.68
251.16	1820.64
251.37	1816.55
251.59	1781.73
251.81	1730.53
252.02	1730.53
252.24	1656.81
252.46	1808.36
252.68	1611.75
252.89	1660.90
253.11	1636.33
253.33	1830.88
253.54	1744.87
253.76	1652.71
253.98	1644.52
254.20	1667.05
254.41	1632.23
254.63	1628.14
254.85	1660.90
255.06	1665.00
255.28	1734.63
255.50	1703.91
255.71	1720.29
255.93	1669.09
256.15	1624.04
256.36	1736.68
256.58	1675.24
256.80	1763.30
257.02	1689.57
257.23	1687.53
257.45	1669.09
257.67	1730.53
257.88	1638.38
258.10	1681.38
258.32	1728.49
258.53	1699.81
258.75	1732.58
258.97	1665.00
259.18	1718.25
259.40	1691.62
259.62	1822.69
259.83	1765.35
260.05	1722.34
260.27	1996.77
260.48	1785.83
260.70	1662.95
260.92	1605.61
261.13	1769.44
261.35	1785.83
261.57	1695.72
261.78	1650.66
262.00	1640.42
262.22	1779.68
262.43	1693.67
262.65	1574.89
262.86	1667.05
263.08	1875.94
263.30	1751.01
263.51	1681.38
263.73	1611.75
263.95	1910.75
264.16	1554.41
264.38	1679.33
264.60	1806.31
264.81	1656.81
265.03	1789.92
265.25	1714.15
265.46	1736.68
265.68	1742.82
265.89	1693.67
266.11	1615.85
266.33	1722.34
266.54	1691.62
266.76	1703.91
266.98	1812.45
267.19	1753.06
267.41	1730.53
267.62	1693.67
267.84	1638.38
268.06	1699.81
268.27	1734.63
268.49	1748.97
268.70	1798.12
268.92	1769.44
269.14	1628.14
269.35	1619.94
269.57	1722.34
269.79	1812.45
270.00	1669.09
270.22	1873.89
270.43	1732.58
270.65	1652.71
270.87	1800.16
271.08	1710.05
271.30	1724.39
271.51	1667.05
271.73	1746.92
271.95	1839.08
272.16	1689.57
272.38	1712.10
272.59	1673.19
272.81	1734.63
273.02	1757.16
273.24	1640.42
273.46	1757.16
273.67	1667.05
273.89	1691.62
274.10	1662.95
274.32	1761.25
274.54	1748.97
274.75	1677.29
274.97	1687.53
275.18	1759.21
275.40	1714.15
275.61	1742.82
275.83	1681.38
276.05	1648.61
276.26	1726.44
276.48	1746.92
276.69	1683.43
276.91	1720.29
277.12	1851.36
277.34	1800.16
277.55	1767.40
277.77	1662.95
277.99	1679.33
278.20	1677.29
278.42	1669.09
278.63	1640.42
278.85	1613.80
279.06	1599.46
279.28	1716.20
279.49	1722.34
279.71	1714.15
279.93	1712.10
280.14	1654.76
280.36	1703.91
280.57	1720.29
280.79	1740.77
281.00	1607.66
281.22	1642.47
281.43	1849.32
281.65	1595.37
281.86	1656.81
282.08	1767.40
282.29	1820.64
282.51	1634.28
282.73	1605.61
282.94	1644.52
283.16	1744.87
283.37	1740.77
283.59	1689.57
283.80	1787.88
284.02	1755.11
284.23	1689.57
284.45	1660.90
284.66	1679.33
284.88	1681.38
285.09	1767.40
285.31	1722.34
285.52	1632.23
285.74	1646.57
285.95	1710.05
286.17	1662.95
286.38	1757.16
286.60	1626.09
286.81	1718.25
287.03	1730.53
287.24	1773.54
287.46	1728.49
287.67	1701.86
287.89	1853.41
288.10	1753.06
288.32	1718.25
288.53	1761.25
288.75	1679.33
288.96	1705.96
289.18	1669.09
289.39	1722.34
289.61	1789.92
289.82	1873.89
290.04	1771.49
290.25	1640.42
290.47	1640.42
290.68	1687.53
290.90	1761.25
291.11	1570.79
291.33	1806.31
291.54	1611.75
291.76	1699.81
291.97	1796.07
292.18	1722.34
292.40	1642.47
292.61	1697.77
292.83	1843.17
293.04	1763.30
293.26	1763.30
293.47	1638.38
293.69	1669.09
293.90	1691.62
294.12	1736.68
294.33	1742.82
294.55	1712.10
294.76	1787.88
294.97	1712.10
295.19	1869.80
295.40	1671.14
295.62	1746.92
295.83	1769.44
296.05	1617.90
296.26	1759.21
296.48	1681.38
296.69	1667.05
296.90	1667.05
297.12	1777.64
297.33	1726.44
297.55	1759.21
297.76	1818.60
297.98	1781.73
298.19	1705.96
298.41	1607.66
298.62	1705.96
298.83	1765.35
299.05	1751.01
299.26	1724.39
299.48	1652.71
299.69	1763.30
299.90	1728.49
300.12	1724.39
300.33	1748.97
300.55	1746.92
300.76	1753.06
300.98	1626.09
301.19	1794.02
301.40	1642.47
301.62	1734.63
301.83	1720.29
302.05	1701.86
302.26	1691.62
302.47	1718.25
302.69	1578.98
302.90	1740.77
303.12	1699.81
303.33	1761.25
303.54	1751.01
303.76	1609.70
303.97	1730.53
304.19	1781.73
304.40	1708.01
304.61	1775.59
304.83	1798.12
305.04	1828.84
305.26	1751.01
305.47	1708.01
305.68	1759.21
305.90	1640.42
306.11	1732.58
306.33	1716.20
306.54	1724.39
306.75	1740.77
306.97	1615.85
307.18	1660.90
307.39	1681.38
307.61	1828.84
307.82	1685.48
308.04	1765.35
308.25	1665.00
308.46	1763.30
308.68	1681.38
308.89	1710.05
309.10	1761.25
309.32	1693.67
309.53	1712.10
309.74	1798.12
309.96	1712.10
310.17	1671.14
310.39	1689.57
310.60	1804.26
310.81	1751.01
311.03	1640.42
311.24	1777.64
311.45	1708.01
311.67	1779.68
311.88	1679.33
312.09	1744.87
312.31	1687.53
312.52	1781.73
312.73	1726.44
312.95	1605.61
313.16	1671.14
313.37	1748.97
313.59	1716.20
313.80	1736.68
314.01	1761.25
314.23	1714.15
314.44	1626.09
314.65	1646.57
314.87	1599.46
315.08	1677.29
315.29	1650.66
315.51	1599.46
315.72	1644.52
315.93	1816.55
316.15	1767.40
316.36	1769.44
316.57	1671.14
316.79	1746.92
317.00	1648.61
317.21	1718.25
317.43	1685.48
317.64	1796.07
317.85	1708.01
318.07	1656.81
318.28	1832.93
318.49	1830.88
318.70	1929.19
318.92	1746.92
319.13	1849.32
319.34	1912.80
319.56	1837.03
319.77	1771.49
319.98	1794.02
320.20	1759.21
320.41	1775.59
320.62	1785.83
320.83	1597.42
321.05	1834.98
321.26	1705.96
321.47	1765.35
321.69	1746.92
321.90	1685.48
322.11	1726.44
322.32	1718.25
322.54	1744.87
322.75	1697.77
322.96	1861.60
323.18	1691.62
323.39	1609.70
323.60	1628.14
323.81	1718.25
324.03	1730.53
324.24	1757.16
324.45	1681.38
324.66	1701.86
324.88	1812.45
325.09	1769.44
325.30	1818.60
325.52	1701.86
325.73	1697.77
325.94	1681.38
326.15	1640.42
326.37	1652.71
326.58	1734.63
326.79	1767.40
327.00	1615.85
327.22	1738.73
327.43	1681.38
327.64	1710.05
327.85	1693.67
328.07	1718.25
328.28	1869.80
328.49	1697.77
328.70	1673.19
328.92	1638.38
329.13	1716.20
329.34	1759.21
329.55	1804.26
329.76	1763.30
329.98	1685.48
330.19	1820.64
330.40	1755.11
330.61	1681.38
330.83	1798.12
331.04	1626.09
331.25	1761.25
331.46	1697.77
331.68	1667.05
331.89	1740.77
332.10	1705.96
332.31	1646.57
332.52	1755.11
332.74	1718.25
332.95	1669.09
333.16	1679.33
333.37	1728.49
333.58	1691.62
333.80	1781.73
334.01	1583.08
334.22	1753.06
334.43	1632.23
334.64	1710.05
334.86	1607.66
335.07	1685.48
335.28	1851.36
335.49	1648.61
335.70	1734.63
335.92	1800.16
336.13	1787.88
336.34	1697.77
336.55	1681.38
336.76	1621.99
336.98	1578.98
337.19	1689.57
337.40	1779.68
337.61	1808.36
337.82	1683.43
338.04	1816.55
338.25	1619.94
338.46	1681.38
338.67	1667.05
338.88	1652.71
339.09	1640.42
339.31	1730.53
339.52	1673.19
339.73	1644.52
339.94	1701.86
340.15	1763.30
340.36	1708.01
340.58	1751.01
340.79	1671.14
341.00	1783.78
341.21	1603.56
341.42	1867.75
341.63	1691.62
341.85	1740.77
342.06	1726.44
342.27	1644.52
342.48	1775.59
342.69	1583.08
342.90	1697.77
343.12	1804.26
343.33	1699.81
343.54	1726.44
343.75	1767.40
343.96	1689.57
344.17	1685.48
344.38	1656.81
344.60	1677.29
344.81	1617.90
345.02	1656.81
345.23	1802.21
345.44	1828.84
345.65	1658.85
345.86	1771.49
346.07	1689.57
346.29	1671.14
346.50	1738.73
346.71	1746.92
346.92	1695.72
347.13	1871.84
347.34	1687.53
347.55	1757.16
347.76	1736.68
347.98	1581.03
348.19	1730.53
348.40	1798.12
348.61	1667.05
348.82	1855.46
349.03	1742.82
349.24	1662.95
349.45	1824.74
349.66	1654.76
349.88	1779.68
350.09	1669.09
350.30	1769.44
350.51	1818.60
350.72	1767.40
350.93	1730.53
351.14	1679.33
351.35	1755.11
351.56	1669.09
351.77	1699.81
351.99	1679.33
352.20	1812.45
352.41	1751.01
352.62	1636.33
352.83	1685.48
353.04	1667.05
353.25	1718.25
353.46	1814.50
353.67	1771.49
353.88	1679.33
354.09	1771.49
354.30	1722.34
354.52	1779.68
354.73	1667.05
354.94	1591.27
355.15	1738.73
355.36	1839.08
355.57	1665.00
355.78	1753.06
355.99	1667.05
356.20	1701.86
356.41	1810.40
356.62	1703.91
356.83	1767.40
357.04	1834.98
357.25	1665.00
357.46	1597.42
357.68	1609.70
357.89	1658.85
358.10	1779.68
358.31	1691.62
358.52	1714.15
358.73	1609.70
358.94	1640.42
359.15	1685.48
359.36	1791.97
359.57	1628.14
359.78	1693.67
359.99	1732.58
360.20	1742.82
360.41	1738.73
360.62	1781.73
360.83	1669.09
361.04	1705.96
361.25	1791.97
361.46	1775.59
361.67	1771.49
361.88	1681.38
362.09	1699.81
362.30	1775.59
362.51	1683.43
362.72	1730.53
362.93	1738.73
363.14	1708.01
363.35	1712.10
363.56	1648.61
363.78	1832.93
363.99	1728.49
364.20	1738.73
364.41	1777.64
364.62	1816.55
364.83	1691.62
365.04	1642.47
365.25	1755.11
365.46	1884.13
365.67	1669.09
365.88	1710.05
366.09	1794.02
366.30	1669.09
366.51	1757.16
366.72	1646.57
366.93	1660.90
367.14	1740.77
367.35	1716.20
367.56	1746.92
367.77	1800.16
367.98	1732.58
368.18	1759.21
368.39	1712.10
368.60	1716.20
368.81	1810.40
369.02	1689.57
369.23	1695.72
369.44	1607.66
369.65	1693.67
369.86	1732.58
370.07	1794.02
370.28	1681.38
370.49	1689.57
370.70	1705.96
370.91	1662.95
371.12	1712.10
371.33	1730.53
371.54	1720.29
371.75	1759.21
371.96	1601.51
372.17	1685.48
372.38	1712.10
372.59	1787.88
372.80	1691.62
373.01	1652.71
373.22	1714.15
373.43	1652.71
373.64	1677.29
373.85	1814.50
374.06	1777.64
374.26	1775.59
374.47	1710.05
374.68	1798.12
374.89	1677.29
375.10	1648.61
375.31	1787.88
375.52	1656.81
375.73	1716.20
375.94	1712.10
376.15	1755.11
376.36	1703.91
376.57	1744.87
376.78	1755.11
376.99	1751.01
377.20	1757.16
377.40	1771.49
377.61	1796.07
377.82	1665.00
378.03	1841.12
378.24	1738.73
378.45	1740.77
378.66	1761.25
378.87	1605.61
379.08	1640.42
379.29	1740.77
379.50	1789.92
379.71	1761.25
379.91	1710.05
380.12	1703.91
380.33	1671.14
380.54	1705.96
380.75	1722.34
380.96	1730.53
381.17	1759.21
381.38	1662.95
381.59	1800.16
381.80	1742.82
382.00	1824.74
382.21	1828.84
382.42	1789.92
382.63	1910.75
382.84	1810.40
383.05	1845.22
383.26	1863.65
383.47	1777.64
383.68	1767.40
383.88	1691.62
384.09	1691.62
384.30	1771.49
384.51	1738.73
384.72	1679.33
384.93	1591.27
385.14	1697.77
385.35	1865.70
385.55	1691.62
385.76	1783.78
385.97	1726.44
386.18	1675.24
386.39	1675.24
386.60	1691.62
386.81	1746.92
387.02	1701.86
387.22	1630.18
387.43	1796.07
387.64	1814.50
387.85	1822.69
388.06	2152.42
388.27	4114.37
388.48	6756.25
388.68	8089.48
388.89	9639.79
389.10	9684.84
389.31	8679.29
389.52	7423.89
389.73	6641.56
389.93	6006.69
390.14	5771.18
390.35	5103.54
390.56	4628.41
390.77	3790.79
390.98	3100.62
391.18	2564.06
391.39	2140.13
391.60	1853.41
391.81	1837.03
392.02	1675.24
392.23	1882.08
392.43	1744.87
392.64	1701.86
392.85	1722.34
393.06	1808.36
393.27	1755.11
393.47	1681.38
393.68	1744.87
393.89	1779.68
394.10	1779.68
394.31	1658.85
394.52	1644.52
394.72	1779.68
394.93	1712.10
395.14	1613.80
395.35	1775.59
395.56	1656.81
395.76	1753.06
395.97	1812.45
396.18	1798.12
396.39	1820.64
396.60	2029.54
396.80	1877.99
397.01	1828.84
397.22	1853.41
397.43	1900.52
397.64	1800.16
397.84	1918.95
398.05	1826.79
398.26	1728.49
398.47	1761.25
398.67	1738.73
398.88	1779.68
399.09	1712.10
399.30	1681.38
399.51	1763.30
399.71	1695.72
399.92	1716.20
400.13	1746.92
400.34	1759.21
400.54	1724.39
400.75	1855.46
400.96	1753.06
401.17	1851.36
401.37	1710.05
401.58	1714.15
401.79	1675.24
402.00	1832.93
402.21	2052.06
402.41	1927.14
402.62	2017.25
402.83	1972.19
403.04	1966.05
403.24	2025.44
403.45	1808.36
403.66	1904.61
403.87	1834.98
404.07	1933.28
404.28	1994.72
404.49	1927.14
404.70	1785.83
404.90	1708.01
405.11	1748.97
405.32	1779.68
405.52	1767.40
405.73	1716.20
405.94	1628.14
406.15	1699.81
406.35	1765.35
406.56	1660.90
406.77	1742.82
406.98	1693.67
407.18	1677.29
407.39	1865.70
407.60	1679.33
407.80	1742.82
408.01	1695.72
408.22	1736.68
408.43	1677.29
408.63	1693.67
408.84	1767.40
409.05	1779.68
409.25	1667.05
409.46	1689.57
409.67	1693.67
409.88	1757.16
410.08	1720.29
410.29	1658.85
410.50	1724.39
410.70	1755.11
410.91	1658.85
411.12	1791.97
411.32	1679.33
411.53	1714.15
411.74	1761.25
411.95	1796.07
412.15	1806.31
412.36	1787.88
412.57	1720.29
412.77	1849.32
412.98	1734.63
413.19	1736.68
413.39	1837.03
413.60	1730.53
413.81	1810.40
414.01	1740.77
414.22	1775.59
414.43	1814.50
414.63	1708.01
414.84	1818.60
415.05	1708.01
415.25	1632.23
415.46	1724.39
415.67	1787.88
415.87	1810.40
416.08	1667.05
416.29	1757.16
416.49	1720.29
416.70	1677.29
416.91	1648.61
417.11	1734.63
417.32	1718.25
417.53	1800.16
417.73	1767.40
417.94	1724.39
418.15	1716.20
418.35	1718.25
418.56	1755.11
418.77	1798.12
418.97	1640.42
419.18	1738.73
419.38	1593.32
419.59	1746.92
419.80	1826.79
420.00	1697.77
420.21	1771.49
420.42	1763.30
420.62	1855.46
420.83	1669.09
421.04	1712.10
421.24	1671.14
421.45	1806.31
421.65	1761.25
421.86	1642.47
422.07	1701.86
422.27	1710.05
422.48	1677.29
422.69	1757.16
422.89	1798.12
423.10	1738.73
423.30	1656.81
423.51	1671.14
423.72	1691.62
423.92	1769.44
424.13	1615.85
424.33	1697.77
424.54	1703.91
424.75	1742.82
424.95	1830.88
425.16	1728.49
425.36	1652.71
425.57	1828.84
425.78	1714.15
425.98	1746.92
426.19	1699.81
426.39	1689.57
426.60	1673.19
426.81	1787.88
427.01	1779.68
427.22	1716.20
427.42	1632.23
427.63	1656.81
427.83	1791.97
428.04	1712.10
428.25	1761.25
428.45	1763.30
428.66	1759.21
428.86	1722.34
429.07	1818.60
429.28	1705.96
429.48	1736.68
429.69	1699.81
429.89	1734.63
430.10	1677.29
430.30	1816.55
430.51	1751.01
430.71	1689.57
430.92	1748.97
431.13	1646.57
431.33	1765.35
431.54	1685.48
431.74	1822.69
431.95	1826.79
432.15	1677.29
432.36	1710.05
432.56	1773.54
432.77	1783.78
432.98	1855.46
433.18	1726.44
433.39	1705.96
433.59	1693.67
433.80	1832.93
434.00	1834.98
434.21	1701.86
434.41	1679.33
434.62	1851.36
434.82	1718.25
435.03	1640.42
435.23	1767.40
435.44	1665.00
435.64	1730.53
435.85	1730.53
436.06	1808.36
436.26	1746.92
436.47	1798.12
436.67	1705.96
436.88	1791.97
437.08	1710.05
437.29	1814.50
437.49	1726.44
437.70	1787.88
437.90	1728.49
438.11	1802.21
438.31	1796.07
438.52	1812.45
438.72	1869.80
438.93	1865.70
439.13	1798.12
439.34	1888.23
439.54	1773.54
439.75	1814.50
439.95	1789.92
440.16	1722.34
440.36	1722.34
440.57	1820.64
440.77	1769.44
440.98	1724.39
441.18	1798.12
441.39	1669.09
441.59	1701.86
441.80	1861.60
442.00	1724.39
442.21	1783.78
442.41	1658.85
442.62	1755.11
442.82	1669.09
443.02	1689.57
443.23	1771.49
443.43	1755.11
443.64	1816.55
443.84	1732.58
444.05	1886.18
444.25	1785.83
444.46	1681.38
444.66	1734.63
444.87	1931.23
445.07	1675.24
445.28	1746.92
445.48	1779.68
445.69	1771.49
445.89	1839.08
446.09	1757.16
446.30	2060.26
446.50	2598.87
446.71	3700.68
446.91	4392.89
447.12	4679.61
447.32	4949.94
447.53	4253.63
447.73	3899.33
447.93	3526.60
448.14	3370.96
448.34	3225.55
448.55	2877.40
448.75	2844.63
448.96	2670.55
449.16	2484.19
449.36	2263.01
449.57	2121.70
449.77	1914.85
449.98	1800.16
450.18	1744.87
450.39	1832.93
450.59	1806.31
450.79	1755.11
451.00	1710.05
451.20	1757.16
451.41	1857.51
451.61	1771.49
451.81	1697.77
452.02	1781.73
452.22	1763.30
452.43	1658.85
452.63	1705.96
452.84	1734.63
453.04	1740.77
453.24	1708.01
453.45	1642.47
453.65	1714.15
453.86	1675.24
454.06	1693.67
454.26	1718.25
454.47	1710.05
454.67	1783.78
454.87	1687.53
455.08	1720.29
455.28	1816.55
455.49	1753.06
455.69	1615.85
455.89	1902.56
456.10	1773.54
456.30	1783.78
456.51	1777.64
456.71	1744.87
456.91	1753.06
457.12	1648.61
457.32	1744.87
457.52	1632.23
457.73	1781.73
457.93	1757.16
458.14	1757.16
458.34	1640.42
458.54	1796.07
458.75	1726.44
458.95	1718.25
459.15	1796.07
459.36	1703.91
459.56	1708.01
459.76	1822.69
459.97	1773.54
460.17	1744.87
460.37	1710.05
460.58	1767.40
460.78	1697.77
460.99	1695.72
461.19	1798.12
461.39	1714.15
461.60	1746.92
461.80	1791.97
462.00	1701.86
462.21	1697.77
462.41	1607.66
462.61	1705.96
462.82	1669.09
463.02	1742.82
463.22	1771.49
463.43	1787.88
463.63	1687.53
463.83	1806.31
464.04	1757.16
464.24	1740.77
464.44	1660.90
464.64	1787.88
464.85	1783.78
465.05	1806.31
465.25	1710.05
465.46	1681.38
465.66	1804.26
465.86	1837.03
466.07	1718.25
466.27	1759.21
466.47	1675.24
466.68	1654.76
466.88	1779.68
467.08	1800.16
467.29	1777.64
467.49	1789.92
467.69	1759.21
467.89	1777.64
468.10	1767.40
468.30	1763.30
468.50	1732.58
468.71	1771.49
468.91	1669.09
469.11	1886.18
469.31	1736.68
469.52	1701.86
469.72	1837.03
469.92	1918.95
470.13	1697.77
470.33	1763.30
470.53	1918.95
470.73	2072.54
470.94	2375.64
471.14	2428.89
471.34	2516.95
471.54	2486.23
471.75	2246.62
471.95	2150.37
472.15	2095.07
472.36	2117.60
472.56	2125.79
472.76	2082.78
472.96	2041.82
473.17	1976.29
473.37	2027.49
473.57	1796.07
473.77	1853.41
473.98	1718.25
474.18	1683.43
474.38	1882.08
474.58	1740.77
474.79	1708.01
474.99	1740.77
475.19	1771.49
475.39	1701.86
475.60	1757.16
475.80	1763.30
476.00	1722.34
476.20	1675.24
476.41	1683.43
476.61	1791.97
476.81	1816.55
477.01	1765.35
477.21	1834.98
477.42	1755.11
477.62	1695.72
477.82	1785.83
478.02	1634.28
478.23	1814.50
478.43	1665.00
478.63	1734.63
478.83	1685.48
479.03	1673.19
479.24	1884.13
479.44	1843.17
479.64	1617.90
479.84	1597.42
480.04	1654.76
480.25	1785.83
480.45	1673.19
480.65	1751.01
480.85	1791.97
481.06	1712.10
481.26	1726.44
481.46	1804.26
481.66	1748.97
481.86	1648.61
482.06	1765.35
482.27	1757.16
482.47	1662.95
482.67	1689.57
482.87	1724.39
483.07	1763.30
483.28	1691.62
483.48	1701.86
483.68	1736.68
483.88	1632.23
484.08	1626.09
484.29	1630.18
484.49	1732.58
484.69	1734.63
484.89	1791.97
485.09	1787.88
485.29	1794.02
485.50	1791.97
485.70	1687.53
485.90	1755.11
486.10	1765.35
486.30	1703.91
486.50	1763.30
486.71	1763.30
486.91	1843.17
487.11	1757.16
487.31	1652.71
487.51	1722.34
487.71	1632.23
487.91	1576.94
488.12	1677.29
488.32	1648.61
488.52	1716.20
488.72	1728.49
488.92	1722.34
489.12	1691.62
489.32	1837.03
489.53	1785.83
489.73	1677.29
489.93	1828.84
490.13	1705.96
490.33	1640.42
490.53	1734.63
490.73	1775.59
490.94	1656.81
491.14	1822.69
491.34	1837.03
491.54	2078.69
491.74	2631.64
491.94	2951.12
492.14	2928.60
492.34	3047.38
492.54	2713.56
492.75	2576.34
492.95	2453.47
493.15	2430.94
493.35	2351.07
493.55	2295.77
493.75	2123.74
493.95	2193.37
494.15	1957.86
494.35	1900.52
494.56	1828.84
494.76	1828.84
494.96	1820.64
495.16	1830.88
495.36	1757.16
495.56	1720.29
495.76	1767.40
495.96	1736.68
496.16	1681.38
496.36	1789.92
496.56	1718.25
496.77	1789.92
496.97	1738.73
497.17	1806.31
497.37	1628.14
497.57	1814.50
497.77	1714.15
497.97	1744.87
498.17	1699.81
498.37	1785.83
498.57	1812.45
498.77	1695.72
498.97	1783.78
499.17	1843.17
499.38	1687.53
499.58	1746.92
499.78	1777.64
499.98	1880.04
500.18	1695.72
500.38	1771.49
500.58	1898.47
500.78	2613.21
500.98	4630.46
501.18	5758.89
501.38	6858.65
501.58	7016.34
501.78	6645.66
501.98	5615.53
502.18	5111.73
502.38	4480.96
502.58	4194.24
502.78	3741.64
502.98	3633.10
503.18	3497.93
503.38	3196.88
503.59	2809.81
503.79	2725.85
503.99	2543.58
504.19	2322.40
504.39	2213.85
504.59	2263.01
504.79	2152.42
504.99	2101.22
505.19	1923.04
505.39	1890.28
505.59	1927.14
505.79	1927.14
505.99	1869.80
506.19	1806.31
506.39	1822.69
506.59	1748.97
506.79	1822.69
506.99	1877.99
507.19	1732.58
507.39	1789.92
507.59	1701.86
507.79	1738.73
507.99	1710.05
508.19	1777.64
508.39	1773.54
508.59	1689.57
508.79	1867.75
508.99	1812.45
509.19	1738.73
509.39	1763.30
509.59	1734.63
509.79	1714.15
509.99	1720.29
510.19	1789.92
510.39	1757.16
510.59	1773.54
510.79	1767.40
510.99	1673.19
511.19	1757.16
511.39	1802.21
511.59	1763.30
511.79	1769.44
511.99	1773.54
512.19	1869.80
512.38	1816.55
512.58	1689.57
512.78	1718.25
512.98	1843.17
513.18	1773.54
513.38	1607.66
513.58	1820.64
513.78	1751.01
513.98	1738.73
514.18	1703.91
514.38	1757.16
514.58	1759.21
514.78	1796.07
514.98	1785.83
515.18	1769.44
515.38	1728.49
515.58	1810.40
515.78	1789.92
515.98	1744.87
516.18	1806.31
516.38	1740.77
516.57	1773.54
516.77	1767.40
516.97	1791.97
517.17	1753.06
517.37	1636.33
517.57	1806.31
517.77	1726.44
517.97	1677.29
518.17	1757.16
518.37	1673.19
518.57	1675.24
518.77	1751.01
518.97	1730.53
519.16	1787.88
519.36	1798.12
519.56	1738.73
519.76	1738.73
519.96	1681.38
520.16	1796.07
520.36	1722.34
520.56	1822.69
520.76	1669.09
520.96	1703.91
521.16	1734.63
521.35	1845.22
521.55	1806.31
521.75	1787.88
521.95	1689.57
522.15	1683.43
522.35	1634.28
522.55	1669.09
522.75	1796.07
522.95	1665.00
523.14	1728.49
523.34	1703.91
523.54	1705.96
523.74	1787.88
523.94	1773.54
524.14	1705.96
524.34	1746.92
524.54	1798.12
524.73	1773.54
524.93	1787.88
525.13	1773.54
525.33	1689.57
525.53	1861.60
525.73	1800.16
525.93	1714.15
526.13	1775.59
526.32	1742.82
526.52	1810.40
526.72	1708.01
526.92	1775.59
527.12	1687.53
527.32	1683.43
527.52	1677.29
527.71	1734.63
527.91	1720.29
528.11	1693.67
528.31	1712.10
528.51	1712.10
528.71	1820.64
528.90	1748.97
529.10	1757.16
529.30	1746.92
529.50	1677.29
529.70	1697.77
529.90	1757.16
530.09	1718.25
530.29	1683.43
530.49	1710.05
530.69	1765.35
530.89	1785.83
531.09	1771.49
531.28	1689.57
531.48	1800.16
531.68	1757.16
531.88	1757.16
532.08	1794.02
532.28	1714.15
532.47	1775.59
532.67	1781.73
532.87	1734.63
533.07	1695.72
533.27	1824.74
533.46	1791.97
533.66	1728.49
533.86	1748.97
534.06	1718.25
534.26	1699.81
534.45	1722.34
534.65	1822.69
534.85	1814.50
535.05	1734.63
535.25	1746.92
535.44	1726.44
535.64	1755.11
535.84	1726.44
536.04	1685.48
536.24	1714.15
536.43	1669.09
536.63	1812.45
536.83	1677.29
537.03	1691.62
537.22	1595.37
537.42	1624.04
537.62	1845.22
537.82	1679.33
538.02	1781.73
538.21	1816.55
538.41	1978.34
538.61	1814.50
538.81	1773.54
539.00	1818.60
539.20	1640.42
539.40	1732.58
539.60	1755.11
539.79	1722.34
539.99	1679.33
540.19	1703.91
540.39	1699.81
540.58	1777.64
540.78	1906.66
540.98	1783.78
541.18	1759.21
541.37	1804.26
541.57	1769.44
541.77	1736.68
541.97	1734.63
542.16	1720.29
542.36	1679.33
542.56	1767.40
542.76	1863.65
542.95	1787.88
543.15	1767.40
543.35	1789.92
543.54	1740.77
543.74	1669.09
543.94	1824.74
544.14	1699.81
544.33	1828.84
544.53	1712.10
544.73	1708.01
544.93	1753.06
545.12	1695.72
545.32	1794.02
545.52	1753.06
545.71	1681.38
545.91	1689.57
546.11	1734.63
546.30	1675.24
546.50	1789.92
546.70	1820.64
546.90	1724.39
547.09	1710.05
547.29	1701.86
547.49	1722.34
547.68	1757.16
547.88	1597.42
548.08	1837.03
548.27	2162.66
548.47	1712.10
548.67	1652.71
548.87	1734.63
549.06	1771.49
549.26	1669.09
549.46	1779.68
549.65	1656.81
549.85	1791.97
550.05	1791.97
550.24	1753.06
550.44	1665.00
550.64	1767.40
550.83	1751.01
551.03	1787.88
551.23	1777.64
551.42	1779.68
551.62	1765.35
551.82	1738.73
552.01	1726.44
552.21	1865.70
552.41	1742.82
552.60	1794.02
552.80	1699.81
553.00	1738.73
553.19	1845.22
553.39	1849.32
553.59	1570.79
553.78	1748.97
553.98	1839.08
554.17	1695.72
554.37	1742.82
554.57	1765.35
554.76	1703.91
554.96	1763.30
555.16	1843.17
555.35	1763.30
555.55	1816.55
555.75	1800.16
555.94	1779.68
556.14	1716.20
556.33	1769.44
556.53	1781.73
556.73	1886.18
556.92	1763.30
557.12	1861.60
557.32	1861.60
557.51	1877.99
557.71	1753.06
557.90	1845.22
558.10	1785.83
558.30	1740.77
558.49	1728.49
558.69	1744.87
558.88	1761.25
559.08	1822.69
559.28	1677.29
559.47	1687.53
559.67	1736.68
559.86	1867.75
560.06	1685.48
560.26	1828.84
560.45	1806.31
560.65	1740.77
560.84	1796.07
561.04	1687.53
561.24	1714.15
561.43	1630.18
561.63	1830.88
561.82	1751.01
562.02	1767.40
562.22	1689.57
562.41	1656.81
562.61	1742.82
562.80	1730.53
563.00	1953.76
563.19	1771.49
563.39	1708.01
563.59	1773.54
563.78	1738.73
563.98	1648.61
564.17	1755.11
564.37	1763.30
564.56	1759.21
564.76	1785.83
564.96	1853.41
565.15	1824.74
565.35	1843.17
565.54	1671.14
565.74	1814.50
565.93	1767.40
566.13	1771.49
566.32	1861.60
566.52	1822.69
566.71	1763.30
566.91	1759.21
567.11	1705.96
567.30	1734.63
567.50	1783.78
567.69	1769.44
567.89	1673.19
568.08	1722.34
568.28	1710.05
568.47	1691.62
568.67	1769.44
568.86	1787.88
569.06	1873.89
569.25	1728.49
569.45	1611.75
569.64	1716.20
569.84	1769.44
570.04	1779.68
570.23	1755.11
570.43	1787.88
570.62	1734.63
570.82	1888.23
571.01	1662.95
571.21	1746.92
571.40	1701.86
571.60	1775.59
571.79	1736.68
571.99	1761.25
572.18	1777.64
572.38	1753.06
572.57	1630.18
572.77	1816.55
572.96	1839.08
573.16	1814.50
573.35	1734.63
573.55	1890.28
573.74	1816.55
573.94	1701.86
574.13	1759.21
574.33	1806.31
574.52	1755.11
574.71	1787.88
574.91	1800.16
575.10	1734.63
575.30	1753.06
575.49	1769.44
575.69	1751.01
575.88	1677.29
576.08	1699.81
576.27	1830.88
576.47	1828.84
576.66	1865.70
576.86	1785.83
577.05	1765.35
577.25	1771.49
577.44	1869.80
577.64	1705.96
577.83	1837.03
578.02	1732.58
578.22	1802.21
578.41	1832.93
578.61	1695.72
578.80	1789.92
579.00	1777.64
579.19	1685.48
579.39	1753.06
579.58	1800.16
579.77	1730.53
579.97	1867.75
580.16	1808.36
580.36	1800.16
580.55	1742.82
580.75	1785.83
580.94	1763.30
581.13	1898.47
581.33	1820.64
581.52	1787.88
581.72	1845.22
581.91	1832.93
582.11	1796.07
582.30	1800.16
582.49	1791.97
582.69	1918.95
582.88	1755.11
583.08	1812.45
583.27	1791.97
583.47	1728.49
583.66	1769.44
583.85	1681.38
584.05	1673.19
584.24	1757.16
584.44	1759.21
584.63	1812.45
584.82	1898.47
585.02	1908.71
585.21	1761.25
585.41	1804.26
585.60	1841.12
585.79	1845.22
585.99	1959.91
586.18	1839.08
586.37	2164.70
586.57	3420.11
586.76	9832.30
586.96	24014.48
587.15	34057.72
587.34	40111.52
587.54	42057.09
587.73	36238.81
587.93	26308.21
588.12	21540.54
588.31	18126.57
588.51	16111.37
588.70	14915.36
588.89	14182.18
589.09	12613.44
589.28	10862.43
589.47	9394.03
589.67	7821.19
589.86	6418.33
590.06	5011.38
590.25	4059.07
590.44	3094.48
590.64	2605.02
590.83	2324.44
591.02	2164.70
591.22	1947.62
591.41	1945.57
591.60	1853.41
591.80	1949.67
591.99	1740.77
592.18	1730.53
592.38	1853.41
592.57	1732.58
592.76	1744.87
592.96	1701.86
593.15	1734.63
593.34	1814.50
593.54	1730.53
593.73	1787.88
593.92	1839.08
594.12	1812.45
594.31	1789.92
594.50	1798.12
594.70	1736.68
594.89	1863.65
595.08	1595.37
595.28	1800.16
595.47	1894.37
595.66	1734.63
595.86	1726.44
596.05	1787.88
596.24	1703.91
596.43	1789.92
596.63	1843.17
596.82	1791.97
597.01	1822.69
597.21	1841.12
597.40	1806.31
597.59	1748.97
597.79	1669.09
597.98	1796.07
598.17	1820.64
598.36	1753.06
598.56	1834.98
598.75	1794.02
598.94	1892.32
599.14	1724.39
599.33	1732.58
599.52	1794.02
599.71	1726.44
599.91	1869.80
600.10	1804.26
600.29	1767.40
600.48	1779.68
600.68	1804.26
600.87	1781.73
601.06	1753.06
601.26	1769.44
601.45	1783.78
601.64	1720.29
601.83	1828.84
602.03	1767.40
602.22	1693.67
602.41	1751.01
602.60	1898.47
602.80	1787.88
602.99	1763.30
603.18	1679.33
603.37	1757.16
603.57	1769.44
603.76	1828.84
603.95	1802.21
604.14	1755.11
604.34	1720.29
604.53	1757.16
604.72	1716.20
604.91	1783.78
605.10	1800.16
605.30	1761.25
605.49	1964.00
605.68	1880.04
605.87	1746.92
606.07	1791.97
606.26	1800.16
606.45	1751.01
606.64	1779.68
606.84	1781.73
607.03	1703.91
607.22	1775.59
607.41	1677.29
607.60	1685.48
607.80	1726.44
607.99	1767.40
608.18	1699.81
608.37	1726.44
608.56	1730.53
608.76	1826.79
608.95	1779.68
609.14	1751.01
609.33	1785.83
609.52	1796.07
609.72	1687.53
609.91	1791.97
610.10	1740.77
610.29	1830.88
610.48	1718.25
610.68	1738.73
610.87	1783.78
611.06	1781.73
611.25	1673.19
611.44	1771.49
611.63	1734.63
611.83	1845.22
612.02	1656.81
612.21	1767.40
612.40	1697.77
612.59	1673.19
612.79	1630.18
612.98	1728.49
613.17	1806.31
613.36	1718.25
613.55	1748.97
613.74	1757.16
613.93	1681.38
614.13	1714.15
614.32	1695.72
614.51	1748.97
614.70	1667.05
614.89	1691.62
615.08	1705.96
615.28	2068.45
615.47	1697.77
615.66	1691.62
615.85	1787.88
616.04	1871.84
616.23	1708.01
616.42	1720.29
616.62	1720.29
616.81	1740.77
617.00	1746.92
617.19	1806.31
617.38	1746.92
617.57	1812.45
617.76	1796.07
617.95	1736.68
618.15	1773.54
618.34	1822.69
618.53	1689.57
618.72	1810.40
618.91	1802.21
619.10	1804.26
619.29	1763.30
619.48	1751.01
619.68	1671.14
619.87	1800.16
620.06	1644.52
620.25	1777.64
620.44	1755.11
620.63	1769.44
620.82	1738.73
621.01	1763.30
621.20	1667.05
621.39	1906.66
621.59	1724.39
621.78	1705.96
621.97	1683.43
622.16	1779.68
622.35	1644.52
622.54	1806.31
622.73	1738.73
622.92	1613.80
623.11	1744.87
623.30	1722.34
623.49	1800.16
623.68	1636.33
623.88	1783.78
624.07	1621.99
624.26	1736.68
624.45	1783.78
624.64	1695.72
624.83	1751.01
625.02	1755.11
625.21	1650.66
625.40	1777.64
625.59	1810.40
625.78	1648.61
625.97	1771.49
626.16	1808.36
626.35	1722.34
626.54	1724.39
626.74	1761.25
626.93	1728.49
627.12	1726.44
627.31	1791.97
627.50	1703.91
627.69	1736.68
627.88	1677.29
628.07	1734.63
628.26	1650.66
628.45	1693.67
628.64	1660.90
628.83	1695.72
629.02	1648.61
629.21	1683.43
629.40	1785.83
629.59	1759.21
629.78	1701.86
629.97	1673.19
630.16	1720.29
630.35	1730.53
630.54	1695.72
630.73	1656.81
630.92	1748.97
631.11	1746.92
631.30	1759.21
631.49	1744.87
631.68	1695.72
631.87	1714.15
632.06	1638.38
632.25	1871.84
632.44	1744.87
632.63	1742.82
632.82	1761.25
633.01	1652.71
633.20	1714.15
633.39	1648.61
633.58	1693.67
633.77	1779.68
633.96	1691.62
634.15	1802.21
634.34	1730.53
634.53	1738.73
634.72	1699.81
634.91	1550.31
635.10	1699.81
635.29	1796.07
635.48	1744.87
635.67	1730.53
635.86	1581.03
636.05	1787.88
636.24	1710.05
636.43	1777.64
636.62	1695.72
636.81	1593.32
637.00	1683.43
637.19	1740.77
637.38	1732.58
637.57	1665.00
637.76	1716.20
637.95	1763.30
638.14	1718.25
638.33	1742.82
638.52	1746.92
638.71	1693.67
638.89	1677.29
639.08	1822.69
639.27	1746.92
639.46	1732.58
639.65	1812.45
639.84	1703.91
640.03	1777.64
640.22	1689.57
640.41	1822.69
640.60	1722.34
640.79	1746.92
640.98	1699.81
641.17	1699.81
641.36	1675.24
641.55	1730.53
641.74	1652.71
641.92	1691.62
642.11	1613.80
642.30	1769.44
642.49	1724.39
642.68	1665.00
642.87	1710.05
643.06	1767.40
643.25	1730.53
643.44	1665.00
643.63	1705.96
643.82	1759.21
644.00	1648.61
644.19	1738.73
644.38	1636.33
644.57	1781.73
644.76	1746.92
644.95	1683.43
645.14	1802.21
645.33	1685.48
645.52	1677.29
645.71	1685.48
645.89	1648.61
646.08	1732.58
646.27	1703.91
646.46	1859.56
646.65	1699.81
646.84	1816.55
647.03	1613.80
647.22	1796.07
647.40	1775.59
647.59	1748.97
647.78	1660.90
647.97	1681.38
648.16	1599.46
648.35	1787.88
648.54	1820.64
648.73	1724.39
648.91	1814.50
649.10	1753.06
649.29	1673.19
649.48	1722.34
649.67	1722.34
649.86	1708.01
650.05	1693.67
650.23	1771.49
650.42	1673.19
650.61	1724.39
650.80	1732.58
650.99	1775.59
651.18	1816.55
651.36	1812.45
651.55	1669.09
651.74	1742.82
651.93	1687.53
652.12	1742.82
652.31	1777.64
652.49	1652.71
652.68	1624.04
652.87	1720.29
653.06	1675.24
653.25	1787.88
653.44	1691.62
653.62	1730.53
653.81	1763.30
654.00	1697.77
654.19	1767.40
654.38	1908.71
654.56	1785.83
654.75	1683.43
654.94	1751.01
655.13	1763.30
655.32	1734.63
655.51	1783.78
655.69	1763.30
655.88	1763.30
656.07	1705.96
656.26	1775.59
656.45	1656.81
656.63	1765.35
656.82	1753.06
657.01	1855.46
657.20	1705.96
657.38	1763.30
657.57	1705.96
657.76	1648.61
657.95	1730.53
658.14	1687.53
658.32	1667.05
658.51	1646.57
658.70	1681.38
658.89	1734.63
659.08	1697.77
659.26	1851.36
659.45	1742.82
659.64	1738.73
659.83	1656.81
660.01	1890.28
660.20	1736.68
660.39	1857.51
660.58	1558.50
660.76	1781.73
660.95	1642.47
661.14	1787.88
661.33	1650.66
661.51	1632.23
661.70	1724.39
661.89	1763.30
662.08	1712.10
662.26	1665.00
662.45	1689.57
662.64	1871.84
662.83	1796.07
663.01	1636.33
663.20	1662.95
663.39	1757.16
663.58	1769.44
663.76	1701.86
663.95	1775.59
664.14	1669.09
664.32	1689.57
664.51	1714.15
664.70	1630.18
664.89	1765.35
665.07	1673.19
665.26	1806.31
665.45	1654.76
665.64	1732.58
665.82	1683.43
666.01	1779.68
666.20	1714.15
666.38	1826.79
666.57	1798.12
666.76	2344.92
666.95	4501.44
667.13	10559.33
667.32	15343.38
667.51	17663.73
667.69	19109.60
667.88	17759.98
668.07	12377.92
668.25	9596.78
668.44	8253.31
668.63	7432.08
668.81	6823.83
669.00	6375.33
669.19	5865.38
669.38	5064.63
669.56	4601.79
669.75	4069.31
669.94	3454.92
670.12	2949.08
670.31	2564.06
670.50	2346.97
670.68	2056.16
670.87	1941.47
671.06	1867.75
671.24	1832.93
671.43	1779.68
671.62	1720.29
671.80	1675.24
671.99	1816.55
672.18	1740.77
672.36	1761.25
672.55	1773.54
672.74	1771.49
672.92	1740.77
673.11	1755.11
673.29	1708.01
673.48	1751.01
673.67	1681.38
673.85	1830.88
674.04	1683.43
674.23	1861.60
674.41	1798.12
674.60	1699.81
674.79	1638.38
674.97	1652.71
675.16	1783.78
675.34	1771.49
675.53	1763.30
675.72	1748.97
675.90	1787.88
676.09	1568.74
676.28	1755.11
676.46	1621.99
676.65	1720.29
676.83	1652.71
677.02	1730.53
677.21	1796.07
677.39	1728.49
677.58	1685.48
677.77	1722.34
677.95	1662.95
678.14	1646.57
678.32	1695.72
678.51	1685.48
678.70	1818.60
678.88	1751.01
679.07	1783.78
679.25	1734.63
679.44	1779.68
679.63	1681.38
679.81	1740.77
680.00	1742.82
680.18	1701.86
680.37	1845.22
680.55	1771.49
680.74	1648.61
680.93	1687.53
681.11	1703.91
681.30	1699.81
681.48	1695.72
681.67	1736.68
681.85	1689.57
682.04	1673.19
682.23	1699.81
682.41	1701.86
682.60	1697.77
682.78	1771.49
682.97	1603.56
683.15	1673.19
683.34	1677.29
683.53	1775.59
683.71	1650.66
683.90	1826.79
684.08	1761.25
684.27	1720.29
684.45	1800.16
684.64	1789.92
684.82	1712.10
685.01	1656.81
685.19	1716.20
685.38	1841.12
685.57	1746.92
685.75	1716.20
685.94	1621.99
686.12	1691.62
686.31	1705.96
686.49	1834.98
686.68	1613.80
686.86	1759.21
687.05	1746.92
687.23	1757.16
687.42	1695.72
687.60	1691.62
687.79	1691.62
687.97	1845.22
688.16	1787.88
688.34	1693.67
688.53	1691.62
688.71	1726.44
688.90	1775.59
689.08	1654.76
689.27	1654.76
689.45	1730.53
689.64	1708.01
689.82	1753.06
690.01	1740.77
690.19	1689.57
690.38	1738.73
690.56	1789.92
690.75	1724.39
690.93	1695.72
691.12	1697.77
691.30	1757.16
691.49	1677.29
691.67	1722.34
691.86	1851.36
692.04	1665.00
692.23	1724.39
692.41	1708.01
692.60	1853.41
692.78	1800.16
692.97	1710.05
693.15	1834.98
693.34	1769.44
693.52	1757.16
693.71	1693.67
693.89	1703.91
694.08	1665.00
694.26	1703.91
694.44	1744.87
694.63	1759.21
694.81	1705.96
695.00	1679.33
695.18	1734.63
695.37	1863.65
695.55	1761.25
695.74	1687.53
695.92	1648.61
696.10	1787.88
696.29	1705.96
696.47	1693.67
696.66	1646.57
696.84	1689.57
697.03	1773.54
697.21	1853.41
697.40	2295.77
697.58	1755.11
697.76	1677.29
697.95	1740.77
698.13	1648.61
698.32	1650.66
698.50	1734.63
698.68	1755.11
698.87	1687.53
699.05	1771.49
699.24	1654.76
699.42	1626.09
699.61	1720.29
699.79	1703.91
699.97	1763.30
700.16	1669.09
700.34	1662.95
700.53	1755.11
700.71	1798.12
700.89	1738.73
701.08	1683.43
701.26	1730.53
701.45	2136.03
701.63	1685.48
701.81	1746.92
702.00	1714.15
702.18	1677.29
702.37	1708.01
702.55	1744.87
702.73	1759.21
702.92	1597.42
703.10	1767.40
703.28	1761.25
703.47	1652.71
703.65	1771.49
703.84	1763.30
704.02	1683.43
704.20	1853.41
704.39	1593.32
704.57	1734.63
704.75	1845.22
704.94	1759.21
705.12	1771.49
705.30	1789.92
705.49	2232.29
705.67	4323.26
705.86	9359.22
706.04	12752.70
706.22	14325.54
706.41	15173.40
706.59	13750.06
706.77	9564.01
706.96	7333.78
707.14	6477.73
707.32	5896.10
707.51	5609.39
707.69	4839.35
707.87	4093.89
708.06	3463.12
708.24	2906.07
708.42	2398.17
708.61	2267.10
708.79	1937.38
708.97	1869.80
709.16	1820.64
709.34	1814.50
709.52	1665.00
709.71	1771.49
709.89	1796.07
710.07	1658.85
710.26	1708.01
710.44	1755.11
710.62	1683.43
710.80	1662.95
710.99	1740.77
711.17	1738.73
711.35	1673.19
711.54	1683.43
711.72	1791.97
711.90	1710.05
712.09	1763.30
712.27	1660.90
712.45	1708.01
712.63	1718.25
712.82	1718.25
713.00	1736.68
713.18	1798.12
713.37	1712.10
713.55	1769.44
713.73	1726.44
713.91	1726.44
714.10	1675.24
714.28	1728.49
714.46	1773.54
714.65	1701.86
714.83	1710.05
715.01	1708.01
715.19	1738.73
715.38	1624.04
715.56	1734.63
715.74	1671.14
715.92	1632.23
716.11	1755.11
716.29	1640.42
716.47	1769.44
716.65	1730.53
716.84	1681.38
717.02	1630.18
717.20	1605.61
717.38	1685.48
717.57	1798.12
717.75	1730.53
717.93	1691.62
718.11	1814.50
718.30	1656.81
718.48	1705.96
718.66	1816.55
718.84	1781.73
719.03	1705.96
719.21	1662.95
719.39	1773.54
719.57	1771.49
719.75	1783.78
719.94	1732.58
720.12	1658.85
720.30	1669.09
720.48	1791.97
720.67	1689.57
720.85	1722.34
721.03	1708.01
721.21	1681.38
721.39	1781.73
721.58	1746.92
721.76	1638.38
721.94	1765.35
722.12	1658.85
722.30	1808.36
722.49	1701.86
722.67	1720.29
722.85	1728.49
723.03	1662.95
723.21	1726.44
723.40	1769.44
723.58	1724.39
723.76	1738.73
723.94	1734.63
724.12	1710.05
724.30	1697.77
724.49	1759.21
724.67	1599.46
724.85	1759.21
725.03	1607.66
725.21	1734.63
725.40	1798.12
725.58	1755.11
725.76	1798.12
725.94	1763.30
726.12	1560.55
726.30	1681.38
726.49	1726.44
726.67	1671.14
726.85	1736.68
727.03	1789.92
727.21	2205.66
727.39	3014.61
727.57	3706.82
727.76	4241.34
727.94	4517.82
728.12	4241.34
728.30	3653.58
728.48	2951.12
728.66	2754.52
728.84	2582.49
729.03	2357.21
729.21	2127.84
729.39	2002.91
729.57	1841.12
729.75	1843.17
729.93	1843.17
730.11	1681.38
730.30	1597.42
730.48	1654.76
730.66	1800.16
730.84	1859.56
731.02	1687.53
731.20	1662.95
731.38	1767.40
731.56	1695.72
731.74	1636.33
731.93	1826.79
732.11	1636.33
732.29	1728.49
732.47	1740.77
732.65	1679.33
732.83	1751.01
733.01	1695.72
733.19	1712.10
733.37	1705.96
733.56	1720.29
733.74	1691.62
733.92	1767.40
734.10	1636.33
734.28	1769.44
734.46	1626.09
734.64	1701.86
734.82	1675.24
735.00	1695.72
735.18	1691.62
735.36	1728.49
735.54	1720.29
735.73	1710.05
735.91	1712.10
736.09	1742.82
736.27	1697.77
736.45	1755.11
736.63	1675.24
736.81	1763.30
736.99	1730.53
737.17	1785.83
737.35	1585.13
737.53	1636.33
737.71	1683.43
737.89	1744.87
738.07	1681.38
738.25	1679.33
738.43	1626.09
738.61	1640.42
738.80	1626.09
738.98	1681.38
739.16	1748.97
739.34	1681.38
739.52	1855.46
739.70	1642.47
739.88	1759.21
740.06	1789.92
740.24	1665.00
740.42	1751.01
740.60	1626.09
740.78	1701.86
740.96	1605.61
741.14	1681.38
741.32	1701.86
741.50	1648.61
741.68	1843.17
741.86	1732.58
742.04	1699.81
742.22	1665.00
742.40	1726.44
742.58	1677.29
742.76	1628.14
742.94	1787.88
743.12	1615.85
743.30	1701.86
743.48	1751.01
743.66	1628.14
743.84	1830.88
744.02	1679.33
744.20	1699.81
744.38	1630.18
744.56	1626.09
744.74	1802.21
744.92	1773.54
745.10	1820.64
745.28	1699.81
745.46	1757.16
745.64	1626.09
745.82	1781.73
746.00	1777.64
746.18	1665.00
746.36	1662.95
746.54	1705.96
746.72	1665.00
746.90	1681.38
747.08	1759.21
747.26	1654.76
747.44	1755.11
747.62	1736.68
747.80	1812.45
747.98	1798.12
748.15	1703.91
748.33	1843.17
748.51	1685.48
748.69	1767.40
748.87	1679.33
749.05	1689.57
749.23	1722.34
749.41	1732.58
749.59	1736.68
749.77	1777.64
749.95	1630.18
750.13	1783.78
750.31	1722.34
750.49	1712.10
750.67	1777.64
750.85	1763.30
751.03	1650.66
751.20	1730.53
751.38	1681.38
751.56	1738.73
751.74	1738.73
751.92	1722.34
752.10	1691.62
752.28	1751.01
752.46	1624.04
752.64	1744.87
752.82	1736.68
753.00	1697.77
753.18	1669.09
753.35	1660.90
753.53	1720.29
753.71	1673.19
753.89	1718.25
754.07	1675.24
754.25	1738.73
754.43	1785.83
754.61	1576.94
754.79	1783.78
754.97	1740.77
755.14	1810.40
755.32	1656.81
755.50	1730.53
755.68	1675.24
755.86	1632.23
756.04	1648.61
756.22	1607.66
756.40	1806.31
756.57	1845.22
756.75	1595.37
756.93	1710.05
757.11	1763.30
757.29	1626.09
757.47	1650.66
757.65	1658.85
757.82	1667.05
758.00	1689.57
758.18	1714.15
758.36	1660.90
758.54	1839.08
758.72	1603.56
758.90	1855.46
759.07	1763.30
759.25	1640.42
759.43	1726.44
759.61	1650.66
759.79	2166.75
759.97	1718.25
760.15	1710.05
760.32	1697.77
760.50	1753.06
760.68	1808.36
760.86	1638.38
761.04	1748.97
761.22	1759.21
761.39	1714.15
761.57	1779.68
761.75	1699.81
761.93	1798.12
762.11	1722.34
762.28	1701.86
762.46	1681.38
762.64	1740.77
762.82	1607.66
763.00	1697.77
763.18	1751.01
763.35	1599.46
763.53	1744.87
763.71	1677.29
763.89	1658.85
764.07	1712.10
764.24	1761.25
764.42	1753.06
764.60	1669.09
764.78	1828.84
764.96	1732.58
765.13	1718.25
765.31	1705.96
765.49	1751.01
765.67	1658.85
765.84	1628.14
766.02	1687.53
766.20	1636.33
766.38	1716.20
766.56	1685.48
766.73	1830.88
766.91	1771.49
767.09	1773.54
767.27	1728.49
767.44	1697.77
767.62	1759.21
767.80	1722.34
767.98	1693.67
768.15	1714.15
768.33	1689.57
768.51	1767.40
768.69	1732.58
768.87	1753.06
769.04	1695.72
769.22	1789.92
769.40	1712.10
769.58	1861.60
769.75	1820.64
769.93	1820.64
770.11	1728.49
770.28	1626.09
770.46	1714.15
770.64	1751.01
770.82	1712.10
770.99	1621.99
771.17	1726.44
771.35	1736.68
771.53	1660.90
771.70	1656.81
771.88	1712.10
772.06	1769.44
772.23	1679.33
772.41	1738.73
772.59	1763.30
772.77	1632.23
772.94	1730.53
773.12	1667.05
773.30	1765.35
773.47	1730.53
773.65	1687.53
773.83	1767.40
774.01	1742.82
774.18	1619.94
774.36	1673.19
774.54	1595.37
774.71	1783.78
774.89	1556.46
775.07	1601.51
775.24	1619.94
775.42	1632.23
775.60	1763.30
775.78	1671.14
775.95	1662.95
776.13	1632.23
776.31	1583.08
776.48	1652.71
776.66	1689.57
776.84	1697.77
777.01	1675.24
777.19	1669.09
777.37	1701.86
777.54	1722.34
777.72	1785.83
777.90	1761.25
778.07	1624.04
778.25	1816.55
778.43	1820.64
778.60	1738.73
778.78	1812.45
778.96	1791.97
779.13	1677.29
779.31	1767.40
779.49	1644.52
779.66	1742.82
779.84	1701.86
780.01	1732.58
780.19	1726.44
780.37	1771.49
780.54	1753.06
780.72	1624.04
780.90	1712.10
781.07	1791.97
781.25	1673.19
781.43	1746.92
781.60	1724.39
781.78	1695.72
781.95	1689.57
782.13	1640.42
782.31	1624.04
782.48	1564.65
782.66	1744.87
782.83	1810.40
783.01	1712.10
783.19	1820.64
783.36	1667.05
783.54	1705.96
783.72	1681.38
783.89	1677.29
784.07	1771.49
784.24	1796.07
784.42	1837.03
784.60	1746.92
784.77	1689.57
784.95	1585.13
785.12	1675.24
785.30	1746.92
785.47	1640.42
785.65	1638.38
785.83	1763.30
786.00	1671.14
786.18	1726.44
786.35	1687.53
786.53	1708.01
786.71	1697.77
786.88	1736.68
787.06	1736.68
787.23	1791.97
787.41	1669.09
787.58	1669.09
787.76	1628.14
787.94	1771.49
788.11	1755.11
788.29	1638.38
788.46	1751.01
788.64	1621.99
788.81	1746.92
788.99	1595.37
789.16	1677.29
789.34	1724.39
789.52	1781.73
789.69	1681.38
789.87	1562.60
790.04	1705.96
790.22	1636.33
790.39	1804.26
790.57	1683.43
790.74	1665.00
790.92	1734.63
791.09	1648.61
791.27	1705.96
791.44	1773.54
791.62	1701.86
791.79	1755.11
791.97	1714.15
792.15	1853.41
792.32	1742.82
792.50	1773.54
792.67	1796.07
792.85	1767.40
793.02	1742.82
793.20	1673.19
793.37	1642.47
793.55	1687.53
793.72	1689.57
793.90	1687.53
794.07	1648.61
794.25	1632.23
794.42	1824.74
794.60	1648.61
794.77	1773.54
794.95	1755.11
795.12	1736.68
795.30	1656.81
795.47	1554.41
795.65	1920.99
795.82	1744.87
796.00	1695.72
796.17	1677.29
796.34	1611.75
796.52	1783.78
796.69	1736.68
796.87	1697.77
797.04	1789.92
797.22	1714.15
797.39	1660.90
797.57	1710.05
797.74	1718.25
797.92	1589.22
798.09	1693.67
798.27	1791.97
798.44	1773.54
798.62	1644.52
798.79	1755.11
798.96	1751.01
799.14	1673.19
799.31	1843.17
799.49	1687.53
799.66	1658.85
799.84	1718.25
800.01	1722.34
800.19	1697.77
800.36	1574.89
800.53	1714.15
800.71	1648.61
800.88	1853.41
801.06	1660.90
801.23	1683.43
801.41	1636.33
801.58	1665.00
801.75	1652.71
801.93	1755.11
802.10	1783.78
802.28	1708.01
802.45	1648.61
802.63	1683.43
802.80	1755.11
802.97	1673.19
803.15	1769.44
803.32	1628.14
803.50	1626.09
803.67	1730.53
803.84	1658.85
804.02	1677.29
804.19	1646.57
804.37	1673.19
804.54	1585.13
804.71	1673.19
804.89	1734.63
805.06	1611.75
805.24	1667.05
805.41	1648.61
805.58	1679.33
805.76	1812.45
805.93	1736.68
806.10	1716.20
806.28	1738.73
806.45	1765.35
806.63	1699.81
806.80	1669.09
806.97	1781.73
807.15	1708.01
807.32	1685.48
807.49	1665.00
807.67	1626.09
807.84	1730.53
808.01	1681.38
808.19	1832.93
808.36	1865.70
808.54	1605.61
808.71	1640.42
808.88	1734.63
809.06	1763.30
809.23	1832.93
809.40	1656.81
809.58	1759.21
809.75	1732.58
809.92	1701.86
810.10	1847.27
810.27	1691.62
810.44	1736.68
810.62	1705.96
810.79	1804.26
810.96	1628.14
811.14	1710.05
811.31	1681.38
811.48	1714.15
811.66	1742.82
811.83	1734.63
812.00	1718.25
812.18	1828.84
812.35	1824.74
812.52	1677.29
812.69	1730.53
812.87	1726.44
813.04	1662.95
813.21	1683.43
813.39	1691.62
813.56	1638.38
813.73	1781.73
813.91	1648.61
814.08	1714.15
814.25	1771.49
814.42	1634.28
814.60	1628.14
814.77	1714.15
814.94	1732.58
815.12	1697.77
815.29	1777.64
815.46	1718.25
815.63	1720.29
815.81	1746.92
815.98	1738.73
816.15	1728.49
816.33	1767.40
816.50	1693.67
816.67	1681.38
816.84	1681.38
817.02	1683.43
817.19	1710.05
817.36	1759.21
817.53	1740.77
817.71	1646.57
817.88	1761.25
818.05	1677.29
818.22	1654.76
818.40	1855.46
818.57	1609.70
818.74	1738.73
818.91	1705.96
819.09	1734.63
819.26	1708.01
819.43	1697.77
819.60	1732.58
819.78	1693.67
819.95	1810.40
820.12	1640.42
820.29	1755.11
820.47	1751.01
820.64	1705.96
820.81	1640.42
820.98	1648.61
821.15	1699.81
821.33	1832.93
821.50	1683.43
821.67	1824.74
821.84	1640.42
822.02	1708.01
822.19	1800.16
822.36	1671.14
822.53	1779.68
822.70	1652.71
822.88	1695.72
823.05	1767.40
823.22	1781.73
823.39	1759.21
823.56	1714.15
823.74	1759.21
823.91	1662.95
824.08	1630.18
824.25	1665.00
824.42	1759.21
824.60	1660.90
824.77	1710.05
824.94	1757.16
825.11	1804.26
825.28	1595.37
825.45	1767.40
825.63	1759.21
825.80	1646.57
825.97	1693.67
826.14	1697.77
826.31	1654.76
826.48	1798.12
826.66	1650.66
826.83	1671.14
827.00	1714.15
827.17	1718.25
827.34	1665.00
827.51	1714.15
827.69	1755.11
827.86	1552.36
828.03	1697.77
828.20	1701.86
828.37	1699.81
828.54	1757.16
828.71	1640.42
828.89	1769.44
829.06	1656.81
829.23	1740.77
829.40	1634.28
829.57	1718.25
829.74	1689.57
829.91	1722.34
830.09	1665.00
830.26	1687.53
830.43	1763.30
830.60	1667.05
830.77	1755.11
830.94	1796.07
831.11	1771.49
831.28	1689.57
831.46	1775.59
831.63	1683.43
831.80	1751.01
831.97	1695.72
832.14	1613.80
832.31	1771.49
832.48	1740.77
832.65	1771.49
832.82	1738.73
832.99	1796.07
833.17	1578.98
833.34	1771.49
833.51	1783.78
833.68	1574.89
833.85	1710.05
834.02	1708.01
834.19	1673.19
834.36	1691.62
834.53	1652.71
834.70	1767.40
834.87	1689.57
835.04	1763.30
835.22	1728.49
835.39	1703.91
835.56	1628.14
835.73	1619.94
835.90	1775.59
836.07	1599.46
836.24	1738.73
836.41	1697.77
836.58	1615.85
836.75	1773.54
836.92	1695.72
837.09	1634.28
837.26	1701.86
837.43	1738.73
837.60	1716.20
837.77	1665.00
837.94	1738.73
838.12	1757.16
838.29	1642.47
838.46	1640.42
838.63	1667.05
838.80	1714.15
838.97	1759.21
839.14	1708.01
839.31	1648.61
839.48	1720.29
839.65	1624.04
839.82	1716.20
839.99	1720.29
840.16	1738.73
840.33	1695.72
840.50	1642.47
840.67	1632.23
840.84	1599.46
841.01	1654.76
841.18	1712.10
841.35	1714.15
841.52	1804.26
841.69	1791.97
841.86	1705.96
842.03	1718.25
842.20	1748.97
842.37	1718.25
842.54	1734.63
842.71	1759.21
842.88	1632.23
843.05	1763.30
843.22	1691.62
843.39	1722.34
843.56	1681.38
843.73	1705.96
843.90	1697.77
844.07	1740.77
844.24	1722.34
844.41	1814.50
844.58	1724.39
844.75	1736.68
844.92	1667.05
845.09	1757.16
845.26	1695.72
845.43	1769.44
845.60	1734.63
845.77	1738.73
845.94	1710.05
846.10	1720.29
846.27	1669.09
846.44	1595.37
846.61	1634.28
846.78	1701.86
846.95	1695.72
847.12	1658.85
847.29	1648.61
847.46	1687.53
847.63	1718.25
847.80	1650.66
847.97	1746.92
848.14	1859.56
848.31	1720.29
848.48	1714.15
848.65	1787.88
848.82	1763.30
848.98	1855.46
849.15	1703.91
849.32	1757.16
849.49	1791.97
849.66	1722.34
849.83	1667.05
850.00	1607.66
850.17	1734.63
850.34	1677.29
850.51	1644.52
850.68	1652.71
850.85	1863.65
851.01	1677.29
851.18	1779.68
851.35	1716.20
851.52	1785.83
851.69	1665.00
851.86	1636.33
852.03	1718.25
852.20	1847.27
852.37	1761.25
852.53	1581.03
852.70	1824.74
852.87	1703.91
853.04	1736.68
853.21	1689.57
853.38	1767.40
853.55	1759.21
853.72	1730.53
853.89	1679.33
854.05	1732.58
854.22	1755.11
854.39	1677.29
854.56	1728.49
854.73	1839.08
854.90	1665.00
855.07	1658.85
855.23	1708.01
855.40	1650.66
855.57	1636.33
855.74	1609.70
855.91	1861.60
856.08	1615.85
856.25	1671.14
856.41	1621.99
856.58	1654.76
856.75	1726.44
856.92	1654.76
857.09	1771.49
857.26	1554.41
857.42	1679.33
857.59	1771.49
857.76	1724.39
857.93	1724.39
858.10	1710.05
858.27	1681.38
858.43	1787.88
858.60	1667.05
858.77	1613.80
858.94	1746.92
859.11	1724.39
859.27	1638.38
859.44	1669.09
859.61	1757.16
859.78	1669.09
859.95	1718.25
860.12	1787.88
860.28	1806.31
860.45	1777.64
860.62	1671.14
860.79	1689.57
860.95	1683.43
861.12	1630.18
861.29	1712.10
861.46	1675.24
861.63	1744.87
861.79	1656.81
861.96	1658.85
862.13	1736.68
862.30	1763.30
862.47	1718.25
862.63	1714.15
862.80	1769.44
862.97	1740.77
863.14	1755.11
863.30	1796.07
863.47	1660.90
863.64	1777.64
863.81	1763.30
863.97	1720.29
864.14	1681.38
864.31	1710.05
864.48	1701.86
864.65	1791.97
864.81	1771.49
864.98	1771.49
865.15	1759.21
865.32	1720.29
865.48	1804.26
865.65	1777.64
865.82	1689.57
865.98	1710.05
866.15	1728.49
866.32	1683.43
866.49	1634.28
866.65	1812.45
866.82	1648.61
866.99	1673.19
867.16	1689.57
867.32	1650.66
867.49	1681.38
867.66	1685.48
867.83	1693.67
867.99	1615.85
868.16	1740.77
868.33	1574.89
868.49	1740.77
868.66	1652.71
868.83	1712.10
868.99	1669.09
869.16	1767.40
869.33	1767.40
869.50	1636.33
869.66	1683.43
869.83	1710.05
870.00	1679.33
870.16	1710.05
870.33	1675.24
870.50	1718.25
870.66	1693.67
870.83	1757.16
871.00	1728.49
871.17	1798.12
871.33	1708.01
871.50	1640.42
871.67	1673.19
871.83	1636.33
872.00	1839.08
872.17	1609.70
872.33	1787.88
872.50	1716.20
872.67	1761.25
872.83	1697.77
873.00	1740.77
873.17	1779.68
873.33	1734.63
873.50	1724.39
873.67	1701.86
873.83	1671.14
874.00	1626.09
874.16	1697.77
874.33	1652.71
874.50	1673.19
874.66	1734.63
874.83	1722.34
875.00	1765.35
875.16	1732.58
875.33	1796.07
875.50	1650.66
875.66	1689.57
875.83	1722.34
875.99	1722.34
876.16	1708.01
876.33	1679.33
876.49	1658.85
876.66	1722.34
876.83	1710.05
876.99	1591.27
877.16	1753.06
877.32	1697.77
877.49	1646.57
877.66	1712.10
877.82	1724.39
877.99	1802.21
878.15	1767.40
878.32	1646.57
878.49	1722.34
878.65	1693.67
878.82	1794.02
878.98	1574.89
879.15	1697.77
879.32	1712.10
879.48	1755.11
879.65	1742.82
879.81	1576.94
879.98	1634.28
880.15	1710.05
880.31	1683.43
880.48	1685.48
880.64	1683.43
880.81	1689.57
880.97	1834.98
881.14	1748.97
881.31	1617.90
881.47	1837.03
881.64	1603.56
881.80	1695.72
881.97	1748.97
882.13	1810.40
882.30	1634.28
882.47	1658.85
882.63	1693.67
882.80	1701.86
882.96	1767.40
883.13	1734.63
883.29	1781.73
883.46	1722.34
883.62	1826.79
883.79	1751.01
883.95	1796.07
884.12	1669.09
884.29	1824.74
884.45	1730.53
884.62	1677.29
884.78	1697.77
884.95	1716.20
885.11	1642.47
885.28	1693.67
885.44	1658.85
885.61	1675.24
885.77	1759.21
885.94	1746.92
886.10	1667.05
886.27	1644.52
886.43	1871.84
886.60	1693.67
886.76	1642.47
886.93	1632.23
887.09	1724.39
887.26	1626.09
887.42	1697.77
887.59	1742.82
887.75	1867.75
887.92	1701.86
888.08	1724.39
888.25	1759.21
888.41	1757.16
888.58	1779.68
888.74	1652.71
888.91	1748.97
>>>>>End Processed Spectral Data<<<<<
