SpectraSuite Data File
++++++++++++++++++++++++++++++++++++
Date: Mon Jun 06 15:48:17 CEST 2016
User: root
Dark Spectrum Present: No
Reference Spectrum Present: No
Number of Sampled Component Spectra: 1
Spectrometers: USB4C02835
Integration Time (usec): 100000 (USB4C02835)
Spectra Averaged: 1 (USB4C02835)
Boxcar Smoothing: 0 (USB4C02835)
Correct for Electrical Dark: No (USB4C02835)
Strobe/Lamp Enabled: No (USB4C02835)
Correct for Detector Non-linearity: No (USB4C02835)
Correct for Stray Light: No (USB4C02835)
Number of Pixels in Processed Spectrum: 3648
>>>>>Begin Processed Spectral Data<<<<<
177.47	1484.78
177.69	1484.78
177.91	1484.78
178.13	1470.44
178.36	1490.92
178.58	1613.80
178.80	1753.06
179.02	1681.38
179.24	1691.62
179.46	1685.48
179.68	1787.88
179.90	1734.63
180.13	1695.72
180.35	1638.38
180.57	1718.25
180.79	1789.92
181.01	1658.85
181.23	1703.91
181.45	1789.92
181.67	1755.11
181.90	1736.68
182.12	1714.15
182.34	1593.32
182.56	1740.77
182.78	1740.77
183.00	1771.49
183.22	1681.38
183.44	1527.78
183.66	1929.19
183.89	1843.17
184.11	1710.05
184.33	1714.15
184.55	1716.20
184.77	1687.53
184.99	1769.44
185.21	1656.81
185.43	1843.17
185.65	1736.68
185.87	1738.73
186.10	1847.27
186.32	1800.16
186.54	1769.44
186.76	1718.25
186.98	1771.49
187.20	1705.96
187.42	1710.05
187.64	1726.44
187.86	1742.82
188.08	1806.31
188.30	1732.58
188.52	1677.29
188.75	1847.27
188.97	1740.77
189.19	1660.90
189.41	1710.05
189.63	1771.49
189.85	1656.81
190.07	1632.23
190.29	1689.57
190.51	1714.15
190.73	1665.00
190.95	1783.78
191.17	1763.30
191.39	1632.23
191.61	1660.90
191.84	1578.98
192.06	1761.25
192.28	1615.85
192.50	1896.42
192.72	1726.44
192.94	1748.97
193.16	1716.20
193.38	1783.78
193.60	1660.90
193.82	1685.48
194.04	1730.53
194.26	1708.01
194.48	1718.25
194.70	1665.00
194.92	1708.01
195.14	1705.96
195.36	1693.67
195.58	1763.30
195.80	1730.53
196.02	1644.52
196.24	1703.91
196.46	1689.57
196.69	1628.14
196.91	1847.27
197.13	1638.38
197.35	1718.25
197.57	1769.44
197.79	1699.81
198.01	1724.39
198.23	1726.44
198.45	1796.07
198.67	1669.09
198.89	1658.85
199.11	1783.78
199.33	1738.73
199.55	1615.85
199.77	1722.34
199.99	1812.45
200.21	1753.06
200.43	1751.01
200.65	1624.04
200.87	1640.42
201.09	1701.86
201.31	1652.71
201.53	1708.01
201.75	1695.72
201.97	1681.38
202.19	1734.63
202.41	1681.38
202.63	1814.50
202.85	1765.35
203.07	1746.92
203.29	1662.95
203.51	1753.06
203.73	1722.34
203.95	1882.08
204.17	1736.68
204.39	1736.68
204.61	1759.21
204.83	1714.15
205.05	1845.22
205.27	1722.34
205.49	1871.84
205.71	1751.01
205.93	1685.48
206.15	1673.19
206.37	1705.96
206.59	1718.25
206.81	1624.04
207.03	1640.42
207.25	1693.67
207.47	1665.00
207.69	1730.53
207.91	1855.46
208.13	1800.16
208.34	1578.98
208.56	1695.72
208.78	1740.77
209.00	1730.53
209.22	1759.21
209.44	1712.10
209.66	1681.38
209.88	1740.77
210.10	1734.63
210.32	1677.29
210.54	1837.03
210.76	1681.38
210.98	1710.05
211.20	1624.04
211.42	1681.38
211.64	1781.73
211.86	1789.92
212.08	1703.91
212.30	1771.49
212.52	1693.67
212.74	1800.16
212.96	1769.44
213.17	1765.35
213.39	1759.21
213.61	1781.73
213.83	1794.02
214.05	1554.41
214.27	1789.92
214.49	1632.23
214.71	1646.57
214.93	1757.16
215.15	1742.82
215.37	1773.54
215.59	1671.14
215.81	1732.58
216.03	1738.73
216.24	1708.01
216.46	1722.34
216.68	1742.82
216.90	1816.55
217.12	1691.62
217.34	1759.21
217.56	1746.92
217.78	1861.60
218.00	1740.77
218.22	1767.40
218.44	1777.64
218.66	1728.49
218.87	1755.11
219.09	1742.82
219.31	1710.05
219.53	1648.61
219.75	1669.09
219.97	1701.86
220.19	1751.01
220.41	1675.24
220.63	1724.39
220.85	1732.58
221.06	1751.01
221.28	1796.07
221.50	1789.92
221.72	1691.62
221.94	1753.06
222.16	1738.73
222.38	1742.82
222.60	1701.86
222.82	1726.44
223.03	1701.86
223.25	1660.90
223.47	1837.03
223.69	1828.84
223.91	1705.96
224.13	1759.21
224.35	1665.00
224.57	1757.16
224.78	1746.92
225.00	1683.43
225.22	1679.33
225.44	1763.30
225.66	1742.82
225.88	1648.61
226.10	1804.26
226.32	1730.53
226.53	1789.92
226.75	1652.71
226.97	1624.04
227.19	1705.96
227.41	1673.19
227.63	1638.38
227.85	1603.56
228.06	1691.62
228.28	1697.77
228.50	1683.43
228.72	1671.14
228.94	1644.52
229.16	1632.23
229.37	1714.15
229.59	1624.04
229.81	1789.92
230.03	1681.38
230.25	1644.52
230.47	1695.72
230.69	1593.32
230.90	1834.98
231.12	1648.61
231.34	1705.96
231.56	1734.63
231.78	1593.32
232.00	1761.25
232.21	1738.73
232.43	1669.09
232.65	1624.04
232.87	1722.34
233.09	1703.91
233.30	1601.51
233.52	1681.38
233.74	1746.92
233.96	1734.63
234.18	1710.05
234.40	1730.53
234.61	1824.74
234.83	1701.86
235.05	1576.94
235.27	1855.46
235.49	1748.97
235.70	1699.81
235.92	1787.88
236.14	1697.77
236.36	1845.22
236.58	1621.99
236.79	1775.59
237.01	1759.21
237.23	1726.44
237.45	1859.56
237.67	1689.57
237.88	1701.86
238.10	1820.64
238.32	1691.62
238.54	1613.80
238.76	1685.48
238.97	1689.57
239.19	1636.33
239.41	1781.73
239.63	1789.92
239.85	1642.47
240.06	1718.25
240.28	1648.61
240.50	1685.48
240.72	1660.90
240.93	1761.25
241.15	1791.97
241.37	1656.81
241.59	1726.44
241.81	1660.90
242.02	1691.62
242.24	1673.19
242.46	1665.00
242.68	1712.10
242.89	1673.19
243.11	1720.29
243.33	1740.77
243.55	1744.87
243.76	1763.30
243.98	1654.76
244.20	1619.94
244.42	1708.01
244.64	1724.39
244.85	1656.81
245.07	1658.85
245.29	1787.88
245.51	1718.25
245.72	1683.43
245.94	1773.54
246.16	1718.25
246.38	1777.64
246.59	1585.13
246.81	1693.67
247.03	1736.68
247.24	1648.61
247.46	1716.20
247.68	1730.53
247.90	1640.42
248.11	1714.15
248.33	1687.53
248.55	1744.87
248.77	1714.15
248.98	1714.15
249.20	1877.99
249.42	1701.86
249.64	1757.16
249.85	1658.85
250.07	1679.33
250.29	1748.97
250.50	1681.38
250.72	1660.90
250.94	1755.11
251.16	1804.26
251.37	1775.59
251.59	1738.73
251.81	1714.15
252.02	1722.34
252.24	1742.82
252.46	1658.85
252.68	1699.81
252.89	1673.19
253.11	1658.85
253.33	1814.50
253.54	1722.34
253.76	1642.47
253.98	1722.34
254.20	1759.21
254.41	1708.01
254.63	1703.91
254.85	1720.29
255.06	1736.68
255.28	1734.63
255.50	1714.15
255.71	1697.77
255.93	1595.37
256.15	1662.95
256.36	1718.25
256.58	1671.14
256.80	1814.50
257.02	1748.97
257.23	1669.09
257.45	1769.44
257.67	1720.29
257.88	1581.03
258.10	1712.10
258.32	1726.44
258.53	1742.82
258.75	1800.16
258.97	1640.42
259.18	1726.44
259.40	1755.11
259.62	1810.40
259.83	1746.92
260.05	1757.16
260.27	2017.25
260.48	1710.05
260.70	1662.95
260.92	1751.01
261.13	1701.86
261.35	1675.24
261.57	1781.73
261.78	1687.53
262.00	1648.61
262.22	1728.49
262.43	1683.43
262.65	1699.81
262.86	1656.81
263.08	1904.61
263.30	1724.39
263.51	1646.57
263.73	1665.00
263.95	1783.78
264.16	1599.46
264.38	1734.63
264.60	1710.05
264.81	1722.34
265.03	1824.74
265.25	1816.55
265.46	1665.00
265.68	1757.16
265.89	1716.20
266.11	1665.00
266.33	1744.87
266.54	1818.60
266.76	1693.67
266.98	1783.78
267.19	1828.84
267.41	1839.08
267.62	1738.73
267.84	1720.29
268.06	1755.11
268.27	1701.86
268.49	1818.60
268.70	1736.68
268.92	1726.44
269.14	1677.29
269.35	1675.24
269.57	1757.16
269.79	1683.43
270.00	1685.48
270.22	1796.07
270.43	1611.75
270.65	1621.99
270.87	1757.16
271.08	1779.68
271.30	1697.77
271.51	1703.91
271.73	1738.73
271.95	1810.40
272.16	1738.73
272.38	1761.25
272.59	1689.57
272.81	1685.48
273.02	1744.87
273.24	1767.40
273.46	1724.39
273.67	1738.73
273.89	1671.14
274.10	1589.22
274.32	1886.18
274.54	1763.30
274.75	1724.39
274.97	1652.71
275.18	1738.73
275.40	1730.53
275.61	1730.53
275.83	1705.96
276.05	1636.33
276.26	1667.05
276.48	1759.21
276.69	1736.68
276.91	1685.48
277.12	1748.97
277.34	1820.64
277.55	1738.73
277.77	1724.39
277.99	1710.05
278.20	1665.00
278.42	1593.32
278.63	1699.81
278.85	1660.90
279.06	1613.80
279.28	1689.57
279.49	1669.09
279.71	1773.54
279.93	1740.77
280.14	1740.77
280.36	1759.21
280.57	1802.21
280.79	1693.67
281.00	1646.57
281.22	1738.73
281.43	1832.93
281.65	1636.33
281.86	1691.62
282.08	1763.30
282.29	1841.12
282.51	1634.28
282.73	1626.09
282.94	1583.08
283.16	1783.78
283.37	1818.60
283.59	1617.90
283.80	1701.86
284.02	1730.53
284.23	1781.73
284.45	1691.62
284.66	1652.71
284.88	1734.63
285.09	1777.64
285.31	1703.91
285.52	1773.54
285.74	1646.57
285.95	1693.67
286.17	1648.61
286.38	1761.25
286.60	1617.90
286.81	1630.18
287.03	1689.57
287.24	1679.33
287.46	1791.97
287.67	1689.57
287.89	1877.99
288.10	1642.47
288.32	1740.77
288.53	1791.97
288.75	1779.68
288.96	1724.39
289.18	1673.19
289.39	1665.00
289.61	1744.87
289.82	1865.70
290.04	1791.97
290.25	1714.15
290.47	1705.96
290.68	1677.29
290.90	1808.36
291.11	1611.75
291.33	1712.10
291.54	1650.66
291.76	1679.33
291.97	1728.49
292.18	1718.25
292.40	1607.66
292.61	1673.19
292.83	1837.03
293.04	1804.26
293.26	1734.63
293.47	1732.58
293.69	1699.81
293.90	1681.38
294.12	1779.68
294.33	1714.15
294.55	1746.92
294.76	1789.92
294.97	1802.21
295.19	1898.47
295.40	1736.68
295.62	1722.34
295.83	1769.44
296.05	1689.57
296.26	1761.25
296.48	1705.96
296.69	1730.53
296.90	1619.94
297.12	1683.43
297.33	1751.01
297.55	1728.49
297.76	1705.96
297.98	1779.68
298.19	1734.63
298.41	1665.00
298.62	1665.00
298.83	1771.49
299.05	1712.10
299.26	1761.25
299.48	1646.57
299.69	1730.53
299.90	1730.53
300.12	1640.42
300.33	1738.73
300.55	1710.05
300.76	1787.88
300.98	1716.20
301.19	1789.92
301.40	1660.90
301.62	1763.30
301.83	1732.58
302.05	1624.04
302.26	1683.43
302.47	1665.00
302.69	1699.81
302.90	1779.68
303.12	1611.75
303.33	1761.25
303.54	1849.32
303.76	1730.53
303.97	1755.11
304.19	1804.26
304.40	1611.75
304.61	1738.73
304.83	1841.12
305.04	1826.79
305.26	1730.53
305.47	1712.10
305.68	1763.30
305.90	1708.01
306.11	1787.88
306.33	1796.07
306.54	1669.09
306.75	1710.05
306.97	1679.33
307.18	1701.86
307.39	1699.81
307.61	1675.24
307.82	1798.12
308.04	1751.01
308.25	1691.62
308.46	1720.29
308.68	1781.73
308.89	1708.01
309.10	1800.16
309.32	1669.09
309.53	1728.49
309.74	1830.88
309.96	1640.42
310.17	1744.87
310.39	1705.96
310.60	1648.61
310.81	1728.49
311.03	1669.09
311.24	1648.61
311.45	1705.96
311.67	1845.22
311.88	1779.68
312.09	1662.95
312.31	1626.09
312.52	1767.40
312.73	1728.49
312.95	1683.43
313.16	1722.34
313.37	1800.16
313.59	1734.63
313.80	1714.15
314.01	1855.46
314.23	1742.82
314.44	1656.81
314.65	1607.66
314.87	1648.61
315.08	1673.19
315.29	1687.53
315.51	1660.90
315.72	1640.42
315.93	1726.44
316.15	1773.54
316.36	1701.86
316.57	1757.16
316.79	1777.64
317.00	1708.01
317.21	1755.11
317.43	1689.57
317.64	1677.29
317.85	1730.53
318.07	1667.05
318.28	1796.07
318.49	1767.40
318.70	1972.19
318.92	1869.80
319.13	1765.35
319.34	1773.54
319.56	1877.99
319.77	1804.26
319.98	1849.32
320.20	1824.74
320.41	1808.36
320.62	1781.73
320.83	1658.85
321.05	1863.65
321.26	1765.35
321.47	1683.43
321.69	1712.10
321.90	1652.71
322.11	1673.19
322.32	1701.86
322.54	1738.73
322.75	1673.19
322.96	1826.79
323.18	1642.47
323.39	1636.33
323.60	1720.29
323.81	1748.97
324.03	1660.90
324.24	1710.05
324.45	1712.10
324.66	1667.05
324.88	1841.12
325.09	1832.93
325.30	1687.53
325.52	1738.73
325.73	1755.11
325.94	1658.85
326.15	1660.90
326.37	1662.95
326.58	1789.92
326.79	1767.40
327.00	1693.67
327.22	1708.01
327.43	1732.58
327.64	1699.81
327.85	1728.49
328.07	1767.40
328.28	1851.36
328.49	1683.43
328.70	1695.72
328.92	1734.63
329.13	1640.42
329.34	1701.86
329.55	1890.28
329.76	1736.68
329.98	1746.92
330.19	1767.40
330.40	1726.44
330.61	1615.85
330.83	1767.40
331.04	1667.05
331.25	1705.96
331.46	1765.35
331.68	1638.38
331.89	1798.12
332.10	1728.49
332.31	1640.42
332.52	1705.96
332.74	1783.78
332.95	1710.05
333.16	1681.38
333.37	1744.87
333.58	1656.81
333.80	1728.49
334.01	1644.52
334.22	1599.46
334.43	1693.67
334.64	1751.01
334.86	1650.66
335.07	1648.61
335.28	1714.15
335.49	1642.47
335.70	1693.67
335.92	1773.54
336.13	1886.18
336.34	1718.25
336.55	1708.01
336.76	1734.63
336.98	1574.89
337.19	1753.06
337.40	1695.72
337.61	1843.17
337.82	1648.61
338.04	1787.88
338.25	1562.60
338.46	1712.10
338.67	1669.09
338.88	1605.61
339.09	1636.33
339.31	1652.71
339.52	1658.85
339.73	1667.05
339.94	1742.82
340.15	1722.34
340.36	1705.96
340.58	1730.53
340.79	1671.14
341.00	1742.82
341.21	1673.19
341.42	1849.32
341.63	1636.33
341.85	1744.87
342.06	1601.51
342.27	1578.98
342.48	1730.53
342.69	1679.33
342.90	1736.68
343.12	1730.53
343.33	1716.20
343.54	1730.53
343.75	1796.07
343.96	1683.43
344.17	1624.04
344.38	1705.96
344.60	1656.81
344.81	1662.95
345.02	1791.97
345.23	1740.77
345.44	1859.56
345.65	1748.97
345.86	1705.96
346.07	1646.57
346.29	1644.52
346.50	1724.39
346.71	1730.53
346.92	1812.45
347.13	1800.16
347.34	1718.25
347.55	1699.81
347.76	1705.96
347.98	1605.61
348.19	1718.25
348.40	1746.92
348.61	1753.06
348.82	1740.77
349.03	1724.39
349.24	1646.57
349.45	1708.01
349.66	1591.27
349.88	1742.82
350.09	1669.09
350.30	1705.96
350.51	1738.73
350.72	1769.44
350.93	1781.73
351.14	1658.85
351.35	1693.67
351.56	1642.47
351.77	1722.34
351.99	1748.97
352.20	1828.84
352.41	1787.88
352.62	1572.84
352.83	1775.59
353.04	1726.44
353.25	1693.67
353.46	1699.81
353.67	1767.40
353.88	1552.36
354.09	1724.39
354.30	1644.52
354.52	1781.73
354.73	1724.39
354.94	1687.53
355.15	1714.15
355.36	1794.02
355.57	1695.72
355.78	1685.48
355.99	1726.44
356.20	1708.01
356.41	1759.21
356.62	1734.63
356.83	1642.47
357.04	1841.12
357.25	1624.04
357.46	1642.47
357.68	1681.38
357.89	1589.22
358.10	1685.48
358.31	1712.10
358.52	1751.01
358.73	1701.86
358.94	1701.86
359.15	1714.15
359.36	1849.32
359.57	1716.20
359.78	1691.62
359.99	1714.15
360.20	1642.47
360.41	1693.67
360.62	1724.39
360.83	1718.25
361.04	1677.29
361.25	1718.25
361.46	1744.87
361.67	1785.83
361.88	1753.06
362.09	1710.05
362.30	1726.44
362.51	1656.81
362.72	1646.57
362.93	1759.21
363.14	1812.45
363.35	1796.07
363.56	1693.67
363.78	1769.44
363.99	1765.35
364.20	1646.57
364.41	1779.68
364.62	1810.40
364.83	1699.81
365.04	1722.34
365.25	1689.57
365.46	1779.68
365.67	1705.96
365.88	1630.18
366.09	1667.05
366.30	1732.58
366.51	1765.35
366.72	1671.14
366.93	1742.82
367.14	1773.54
367.35	1845.22
367.56	1771.49
367.77	1789.92
367.98	1699.81
368.18	1779.68
368.39	1751.01
368.60	1716.20
368.81	1763.30
369.02	1712.10
369.23	1677.29
369.44	1660.90
369.65	1679.33
369.86	1720.29
370.07	1802.21
370.28	1624.04
370.49	1738.73
370.70	1814.50
370.91	1685.48
371.12	1656.81
371.33	1757.16
371.54	1724.39
371.75	1785.83
371.96	1562.60
372.17	1746.92
372.38	1665.00
372.59	1820.64
372.80	1671.14
373.01	1660.90
373.22	1650.66
373.43	1714.15
373.64	1677.29
373.85	1746.92
374.06	1812.45
374.26	1767.40
374.47	1708.01
374.68	1775.59
374.89	1726.44
375.10	1771.49
375.31	1789.92
375.52	1662.95
375.73	1685.48
375.94	1683.43
376.15	1802.21
376.36	1628.14
376.57	1722.34
376.78	1636.33
376.99	1755.11
377.20	1738.73
377.40	1624.04
377.61	1710.05
377.82	1587.18
378.03	1845.22
378.24	1646.57
378.45	1781.73
378.66	1748.97
378.87	1624.04
379.08	1652.71
379.29	1679.33
379.50	1763.30
379.71	1630.18
379.91	1718.25
380.12	1738.73
380.33	1689.57
380.54	1703.91
380.75	1703.91
380.96	1708.01
381.17	1708.01
381.38	1654.76
381.59	1777.64
381.80	1738.73
382.00	1818.60
382.21	1742.82
382.42	1783.78
382.63	1863.65
382.84	1779.68
383.05	1769.44
383.26	1773.54
383.47	1718.25
383.68	1738.73
383.88	1685.48
384.09	1783.78
384.30	1791.97
384.51	1710.05
384.72	1683.43
384.93	1648.61
385.14	1708.01
385.35	1769.44
385.55	1683.43
385.76	1771.49
385.97	1665.00
386.18	1699.81
386.39	1697.77
386.60	1740.77
386.81	1742.82
387.02	1656.81
387.22	1636.33
387.43	1826.79
387.64	1796.07
387.85	1933.28
388.06	2113.50
388.27	4118.47
388.48	6649.75
388.68	8017.80
388.89	9482.10
389.10	9459.57
389.31	8320.90
389.52	7370.64
389.73	6498.20
389.93	5914.53
390.14	5685.16
390.35	5033.91
390.56	4480.96
390.77	3692.49
390.98	3016.66
391.18	2592.73
391.39	2142.18
391.60	1818.60
391.81	1759.21
392.02	1806.31
392.23	1820.64
392.43	1689.57
392.64	1822.69
392.85	1699.81
393.06	1773.54
393.27	1765.35
393.47	1683.43
393.68	1759.21
393.89	1697.77
394.10	1812.45
394.31	1644.52
394.52	1628.14
394.72	1683.43
394.93	1830.88
395.14	1652.71
395.35	1746.92
395.56	1685.48
395.76	1802.21
395.97	1894.37
396.18	1861.60
396.39	1865.70
396.60	2013.15
396.80	1847.27
397.01	1787.88
397.22	1869.80
397.43	1845.22
397.64	1734.63
397.84	1869.80
398.05	1859.56
398.26	1701.86
398.47	1769.44
398.67	1730.53
398.88	1675.24
399.09	1722.34
399.30	1714.15
399.51	1771.49
399.71	1677.29
399.92	1722.34
400.13	1734.63
400.34	1695.72
400.54	1714.15
400.75	1798.12
400.96	1847.27
401.17	1796.07
401.37	1734.63
401.58	1730.53
401.79	1769.44
402.00	1865.70
402.21	1988.58
402.41	1951.71
402.62	1972.19
402.83	2062.30
403.04	1943.52
403.24	2060.26
403.45	1853.41
403.66	1865.70
403.87	1845.22
404.07	1869.80
404.28	1961.95
404.49	1877.99
404.70	1773.54
404.90	1789.92
405.11	1738.73
405.32	1712.10
405.52	1697.77
405.73	1679.33
405.94	1693.67
406.15	1636.33
406.35	1757.16
406.56	1798.12
406.77	1726.44
406.98	1777.64
407.18	1683.43
407.39	1820.64
407.60	1722.34
407.80	1775.59
408.01	1665.00
408.22	1720.29
408.43	1716.20
408.63	1683.43
408.84	1779.68
409.05	1798.12
409.25	1675.24
409.46	1593.32
409.67	1695.72
409.88	1675.24
410.08	1699.81
410.29	1746.92
410.50	1724.39
410.70	1718.25
410.91	1652.71
411.12	1708.01
411.32	1681.38
411.53	1669.09
411.74	1804.26
411.95	1734.63
412.15	1695.72
412.36	1800.16
412.57	1734.63
412.77	1861.60
412.98	1787.88
413.19	1693.67
413.39	1802.21
413.60	1738.73
413.81	1787.88
414.01	1730.53
414.22	1759.21
414.43	1740.77
414.63	1779.68
414.84	1771.49
415.05	1755.11
415.25	1646.57
415.46	1771.49
415.67	1671.14
415.87	1689.57
416.08	1712.10
416.29	1626.09
416.49	1710.05
416.70	1724.39
416.91	1728.49
417.11	1742.82
417.32	1798.12
417.53	1757.16
417.73	1683.43
417.94	1738.73
418.15	1763.30
418.35	1767.40
418.56	1716.20
418.77	1828.84
418.97	1777.64
419.18	1693.67
419.38	1572.84
419.59	1689.57
419.80	1773.54
420.00	1638.38
420.21	1763.30
420.42	1767.40
420.62	1681.38
420.83	1646.57
421.04	1716.20
421.24	1710.05
421.45	1679.33
421.65	1751.01
421.86	1771.49
422.07	1773.54
422.27	1738.73
422.48	1722.34
422.69	1619.94
422.89	1665.00
423.10	1734.63
423.30	1710.05
423.51	1732.58
423.72	1796.07
423.92	1718.25
424.13	1712.10
424.33	1753.06
424.54	1742.82
424.75	1763.30
424.95	1808.36
425.16	1710.05
425.36	1693.67
425.57	1763.30
425.78	1708.01
425.98	1720.29
426.19	1667.05
426.39	1644.52
426.60	1730.53
426.81	1767.40
427.01	1705.96
427.22	1658.85
427.42	1660.90
427.63	1654.76
427.83	1847.27
428.04	1796.07
428.25	1796.07
428.45	1759.21
428.66	1775.59
428.86	1699.81
429.07	1701.86
429.28	1683.43
429.48	1710.05
429.69	1658.85
429.89	1722.34
430.10	1568.74
430.30	1736.68
430.51	1732.58
430.71	1724.39
430.92	1761.25
431.13	1675.24
431.33	1742.82
431.54	1689.57
431.74	1865.70
431.95	1796.07
432.15	1722.34
432.36	1775.59
432.56	1669.09
432.77	1808.36
432.98	1851.36
433.18	1808.36
433.39	1665.00
433.59	1683.43
433.80	1884.13
434.00	1914.85
434.21	1636.33
434.41	1652.71
434.62	1923.04
434.82	1730.53
435.03	1611.75
435.23	1720.29
435.44	1611.75
435.64	1708.01
435.85	1732.58
436.06	1767.40
436.26	1777.64
436.47	1812.45
436.67	1689.57
436.88	1742.82
437.08	1732.58
437.29	1830.88
437.49	1775.59
437.70	1802.21
437.90	1644.52
438.11	1841.12
438.31	1812.45
438.52	1841.12
438.72	1902.56
438.93	1906.66
439.13	1742.82
439.34	1804.26
439.54	1759.21
439.75	1755.11
439.95	1791.97
440.16	1720.29
440.36	1804.26
440.57	1755.11
440.77	1751.01
440.98	1785.83
441.18	1804.26
441.39	1744.87
441.59	1722.34
441.80	1863.65
442.00	1710.05
442.21	1820.64
442.41	1667.05
442.62	1763.30
442.82	1722.34
443.02	1753.06
443.23	1796.07
443.43	1787.88
443.64	1781.73
443.84	1679.33
444.05	1863.65
444.25	1716.20
444.46	1732.58
444.66	1722.34
444.87	1808.36
445.07	1669.09
445.28	1732.58
445.48	1832.93
445.69	1699.81
445.89	1853.41
446.09	1746.92
446.30	2000.87
446.50	2586.58
446.71	3696.58
446.91	4231.10
447.12	4513.72
447.32	4743.10
447.53	4263.87
447.73	3741.64
447.93	3401.68
448.14	3366.86
448.34	3153.87
448.55	2916.31
448.75	2820.05
448.96	2617.30
449.16	2375.64
449.36	2273.25
449.57	2050.02
449.77	1777.64
449.98	1710.05
450.18	1880.04
450.39	1869.80
450.59	1802.21
450.79	1693.67
451.00	1677.29
451.20	1820.64
451.41	1722.34
451.61	1783.78
451.81	1751.01
452.02	1734.63
452.22	1763.30
452.43	1708.01
452.63	1714.15
452.84	1775.59
453.04	1744.87
453.24	1769.44
453.45	1642.47
453.65	1671.14
453.86	1798.12
454.06	1751.01
454.26	1796.07
454.47	1726.44
454.67	1763.30
454.87	1703.91
455.08	1673.19
455.28	1822.69
455.49	1771.49
455.69	1685.48
455.89	1828.84
456.10	1779.68
456.30	1763.30
456.51	1791.97
456.71	1738.73
456.91	1794.02
457.12	1726.44
457.32	1765.35
457.52	1728.49
457.73	1808.36
457.93	1775.59
458.14	1712.10
458.34	1683.43
458.54	1724.39
458.75	1697.77
458.95	1777.64
459.15	1767.40
459.36	1761.25
459.56	1730.53
459.76	1890.28
459.97	1783.78
460.17	1812.45
460.37	1751.01
460.58	1705.96
460.78	1785.83
460.99	1691.62
461.19	1677.29
461.39	1701.86
461.60	1701.86
461.80	1781.73
462.00	1681.38
462.21	1746.92
462.41	1654.76
462.61	1599.46
462.82	1660.90
463.02	1779.68
463.22	1773.54
463.43	1818.60
463.63	1693.67
463.83	1783.78
464.04	1820.64
464.24	1703.91
464.44	1722.34
464.64	1757.16
464.85	1730.53
465.05	1759.21
465.25	1746.92
465.46	1685.48
465.66	1773.54
465.86	1732.58
466.07	1853.41
466.27	1738.73
466.47	1669.09
466.68	1679.33
466.88	1730.53
467.08	1824.74
467.29	1740.77
467.49	1779.68
467.69	1658.85
467.89	1728.49
468.10	1767.40
468.30	1730.53
468.50	1736.68
468.71	1779.68
468.91	1644.52
469.11	1859.56
469.31	1798.12
469.52	1693.67
469.72	1884.13
469.92	1708.01
470.13	1769.44
470.33	1796.07
470.53	1767.40
470.73	2176.99
470.94	2250.72
471.14	2353.12
471.34	2490.33
471.54	2340.83
471.75	2230.24
471.95	2047.97
472.15	2070.50
472.36	2072.54
472.56	2033.63
472.76	2074.59
472.96	2035.68
473.17	2033.63
473.37	1964.00
473.57	1765.35
473.77	1785.83
473.98	1765.35
474.18	1691.62
474.38	1884.13
474.58	1769.44
474.79	1744.87
474.99	1789.92
475.19	1763.30
475.39	1689.57
475.60	1771.49
475.80	1816.55
476.00	1726.44
476.20	1673.19
476.41	1746.92
476.61	1816.55
476.81	1769.44
477.01	1734.63
477.21	1820.64
477.42	1787.88
477.62	1673.19
477.82	1775.59
478.02	1687.53
478.23	1824.74
478.43	1720.29
478.63	1730.53
478.83	1736.68
479.03	1736.68
479.24	1861.60
479.44	1855.46
479.64	1644.52
479.84	1665.00
480.04	1753.06
480.25	1769.44
480.45	1734.63
480.65	1751.01
480.85	1869.80
481.06	1712.10
481.26	1753.06
481.46	1744.87
481.66	1785.83
481.86	1710.05
482.06	1767.40
482.27	1714.15
482.47	1755.11
482.67	1769.44
482.87	1697.77
483.07	1849.32
483.28	1699.81
483.48	1705.96
483.68	1687.53
483.88	1697.77
484.08	1638.38
484.29	1732.58
484.49	1673.19
484.69	1640.42
484.89	1837.03
485.09	1806.31
485.29	1798.12
485.50	1802.21
485.70	1732.58
485.90	1794.02
486.10	1767.40
486.30	1853.41
486.50	1820.64
486.71	1695.72
486.91	1755.11
487.11	1804.26
487.31	1703.91
487.51	1732.58
487.71	1685.48
487.91	1597.42
488.12	1708.01
488.32	1574.89
488.52	1736.68
488.72	1648.61
488.92	1728.49
489.12	1746.92
489.32	1796.07
489.53	1708.01
489.73	1718.25
489.93	1806.31
490.13	1755.11
490.33	1640.42
490.53	1738.73
490.73	1816.55
490.94	1703.91
491.14	1794.02
491.34	1884.13
491.54	2113.50
491.74	2668.50
491.94	2797.53
492.14	2959.31
492.34	3016.66
492.54	2764.76
492.75	2559.96
492.95	2439.13
493.15	2295.77
493.35	2330.59
493.55	2213.85
493.75	2158.56
493.95	2152.42
494.15	2041.82
494.35	1877.99
494.56	1910.75
494.76	1808.36
494.96	1798.12
495.16	1800.16
495.36	1722.34
495.56	1691.62
495.76	1701.86
495.96	1755.11
496.16	1667.05
496.36	1808.36
496.56	1748.97
496.77	1732.58
496.97	1759.21
497.17	1796.07
497.37	1687.53
497.57	1818.60
497.77	1761.25
497.97	1640.42
498.17	1812.45
498.37	1726.44
498.57	1814.50
498.77	1767.40
498.97	1796.07
499.17	1847.27
499.38	1738.73
499.58	1781.73
499.78	1775.59
499.98	1810.40
500.18	1761.25
500.38	1767.40
500.58	1947.62
500.78	2519.00
500.98	4403.13
501.18	5683.11
501.38	6586.27
501.58	7075.73
501.78	6481.82
501.98	5609.39
502.18	4870.07
502.38	4362.17
502.58	4005.83
502.78	3641.29
502.98	3610.57
503.18	3385.29
503.38	3200.98
503.59	2820.05
503.79	2664.41
503.99	2432.99
504.19	2242.53
504.39	2207.71
504.59	2164.70
504.79	2070.50
504.99	2111.46
505.19	1970.15
505.39	1925.09
505.59	1890.28
505.79	1900.52
505.99	1902.56
506.19	1851.36
506.39	1865.70
506.59	1769.44
506.79	1798.12
506.99	1804.26
507.19	1765.35
507.39	1791.97
507.59	1689.57
507.79	1714.15
507.99	1662.95
508.19	1757.16
508.39	1738.73
508.59	1742.82
508.79	1863.65
508.99	1853.41
509.19	1714.15
509.39	1783.78
509.59	1771.49
509.79	1736.68
509.99	1722.34
510.19	1798.12
510.39	1767.40
510.59	1701.86
510.79	1738.73
510.99	1652.71
511.19	1794.02
511.39	1769.44
511.59	1722.34
511.79	1771.49
511.99	1789.92
512.19	1800.16
512.38	1732.58
512.58	1701.86
512.78	1732.58
512.98	1837.03
513.18	1814.50
513.38	1701.86
513.58	1789.92
513.78	1710.05
513.98	1708.01
514.18	1708.01
514.38	1718.25
514.58	1777.64
514.78	1722.34
514.98	1712.10
515.18	1652.71
515.38	1652.71
515.58	1820.64
515.78	1648.61
515.98	1714.15
516.18	1705.96
516.38	1779.68
516.57	1753.06
516.77	1681.38
516.97	1796.07
517.17	1697.77
517.37	1644.52
517.57	1804.26
517.77	1703.91
517.97	1714.15
518.17	1785.83
518.37	1671.14
518.57	1675.24
518.77	1691.62
518.97	1761.25
519.16	1763.30
519.36	1781.73
519.56	1755.11
519.76	1722.34
519.96	1720.29
520.16	1822.69
520.36	1636.33
520.56	1855.46
520.76	1685.48
520.96	1822.69
521.16	1806.31
521.35	1849.32
521.55	1796.07
521.75	1732.58
521.95	1685.48
522.15	1761.25
522.35	1708.01
522.55	1730.53
522.75	1857.51
522.95	1687.53
523.14	1683.43
523.34	1804.26
523.54	1732.58
523.74	1804.26
523.94	1785.83
524.14	1701.86
524.34	1765.35
524.54	1830.88
524.73	1759.21
524.93	1767.40
525.13	1708.01
525.33	1697.77
525.53	1935.33
525.73	1740.77
525.93	1742.82
526.13	1716.20
526.32	1703.91
526.52	1802.21
526.72	1767.40
526.92	1740.77
527.12	1695.72
527.32	1697.77
527.52	1806.31
527.71	1828.84
527.91	1744.87
528.11	1656.81
528.31	1785.83
528.51	1665.00
528.71	1730.53
528.90	1744.87
529.10	1787.88
529.30	1802.21
529.50	1638.38
529.70	1724.39
529.90	1703.91
530.09	1785.83
530.29	1683.43
530.49	1712.10
530.69	1863.65
530.89	1757.16
531.09	1806.31
531.28	1662.95
531.48	1845.22
531.68	1765.35
531.88	1716.20
532.08	1796.07
532.28	1783.78
532.47	1806.31
532.67	1787.88
532.87	1748.97
533.07	1701.86
533.27	1816.55
533.46	1755.11
533.66	1779.68
533.86	1732.58
534.06	1759.21
534.26	1763.30
534.45	1777.64
534.65	1851.36
534.85	1769.44
535.05	1701.86
535.25	1843.17
535.44	1734.63
535.64	1751.01
535.84	1755.11
536.04	1662.95
536.24	1771.49
536.43	1703.91
536.63	1757.16
536.83	1810.40
537.03	1691.62
537.22	1665.00
537.42	1650.66
537.62	1755.11
537.82	1689.57
538.02	1841.12
538.21	1800.16
538.41	1867.75
538.61	1724.39
538.81	1751.01
539.00	1816.55
539.20	1648.61
539.40	1693.67
539.60	1771.49
539.79	1773.54
539.99	1714.15
540.19	1710.05
540.39	1773.54
540.58	1789.92
540.78	1781.73
540.98	1808.36
541.18	1834.98
541.37	1796.07
541.57	1810.40
541.77	1783.78
541.97	1697.77
542.16	1662.95
542.36	1775.59
542.56	1693.67
542.76	1867.75
542.95	1812.45
543.15	1718.25
543.35	1763.30
543.54	1691.62
543.74	1738.73
543.94	1890.28
544.14	1660.90
544.33	1734.63
544.53	1671.14
544.73	1720.29
544.93	1755.11
545.12	1722.34
545.32	1740.77
545.52	1679.33
545.71	1699.81
545.91	1662.95
546.11	1697.77
546.30	1728.49
546.50	1798.12
546.70	1763.30
546.90	1796.07
547.09	1636.33
547.29	1728.49
547.49	1789.92
547.68	1873.89
547.88	1703.91
548.08	1765.35
548.27	2211.81
548.47	1800.16
548.67	1677.29
548.87	1785.83
549.06	1779.68
549.26	1791.97
549.46	1746.92
549.65	1748.97
549.85	1759.21
550.05	1705.96
550.24	1642.47
550.44	1736.68
550.64	1755.11
550.83	1724.39
551.03	1800.16
551.23	1769.44
551.42	1775.59
551.62	1718.25
551.82	1779.68
552.01	1683.43
552.21	1867.75
552.41	1722.34
552.60	1826.79
552.80	1837.03
553.00	1687.53
553.19	1726.44
553.39	1853.41
553.59	1748.97
553.78	1755.11
553.98	1730.53
554.17	1658.85
554.37	1816.55
554.57	1744.87
554.76	1589.22
554.96	1753.06
555.16	1773.54
555.35	1761.25
555.55	1810.40
555.75	1718.25
555.94	1740.77
556.14	1656.81
556.33	1757.16
556.53	1732.58
556.73	1814.50
556.92	1787.88
557.12	1791.97
557.32	1902.56
557.51	1925.09
557.71	1761.25
557.90	1808.36
558.10	1798.12
558.30	1718.25
558.49	1724.39
558.69	1740.77
558.88	1744.87
559.08	1730.53
559.28	1734.63
559.47	1712.10
559.67	1849.32
559.86	1859.56
560.06	1791.97
560.26	1738.73
560.45	1863.65
560.65	1751.01
560.84	1769.44
561.04	1708.01
561.24	1751.01
561.43	1714.15
561.63	1837.03
561.82	1796.07
562.02	1753.06
562.22	1667.05
562.41	1695.72
562.61	1654.76
562.80	1585.13
563.00	1869.80
563.19	1769.44
563.39	1710.05
563.59	1679.33
563.78	1763.30
563.98	1693.67
564.17	1677.29
564.37	1679.33
564.56	1656.81
564.76	1636.33
564.96	1779.68
565.15	1789.92
565.35	1888.23
565.54	1628.14
565.74	1834.98
565.93	1724.39
566.13	1728.49
566.32	1796.07
566.52	1751.01
566.71	1632.23
566.91	1851.36
567.11	1730.53
567.30	1757.16
567.50	1720.29
567.69	1779.68
567.89	1779.68
568.08	1677.29
568.28	1783.78
568.47	1660.90
568.67	1726.44
568.86	1681.38
569.06	1714.15
569.25	1675.24
569.45	1665.00
569.64	1626.09
569.84	1765.35
570.04	1767.40
570.23	1783.78
570.43	1796.07
570.62	1726.44
570.82	1837.03
571.01	1703.91
571.21	1710.05
571.40	1722.34
571.60	1773.54
571.79	1796.07
571.99	1769.44
572.18	1740.77
572.38	1748.97
572.57	1699.81
572.77	1755.11
572.96	1791.97
573.16	1828.84
573.35	1714.15
573.55	1748.97
573.74	1808.36
573.94	1718.25
574.13	1824.74
574.33	1843.17
574.52	1787.88
574.71	1681.38
574.91	1744.87
575.10	1652.71
575.30	1683.43
575.49	1820.64
575.69	1716.20
575.88	1685.48
576.08	1765.35
576.27	1814.50
576.47	1710.05
576.66	1763.30
576.86	1814.50
577.05	1732.58
577.25	1834.98
577.44	1845.22
577.64	1744.87
577.83	1773.54
578.02	1759.21
578.22	1812.45
578.41	1916.90
578.61	1697.77
578.80	1705.96
579.00	1771.49
579.19	1738.73
579.39	1714.15
579.58	1845.22
579.77	1814.50
579.97	1806.31
580.16	1837.03
580.36	1851.36
580.55	1808.36
580.75	1837.03
580.94	1814.50
581.13	1869.80
581.33	1898.47
581.52	1703.91
581.72	1763.30
581.91	1865.70
582.11	1751.01
582.30	1769.44
582.49	1734.63
582.69	1863.65
582.88	1828.84
583.08	1818.60
583.27	1755.11
583.47	1744.87
583.66	1656.81
583.85	1728.49
584.05	1689.57
584.24	1789.92
584.44	1830.88
584.63	1765.35
584.82	1908.71
585.02	1789.92
585.21	1818.60
585.41	1834.98
585.60	1802.21
585.79	1918.95
585.99	1968.10
586.18	1884.13
586.37	2189.28
586.57	3284.94
586.76	9666.41
586.96	23602.84
587.15	33388.03
587.34	38933.93
587.54	40664.47
587.73	35425.76
587.93	25435.77
588.12	20526.79
588.31	17694.45
588.51	15838.99
588.70	14554.91
588.89	13492.02
589.09	12111.69
589.28	10592.09
589.47	9097.08
589.67	7866.25
589.86	6205.35
590.06	4753.34
590.25	3753.93
590.44	3166.16
590.64	2617.30
590.83	2265.05
591.02	2078.69
591.22	1951.71
591.41	1898.47
591.60	1816.55
591.80	2009.06
591.99	1767.40
592.18	1751.01
592.38	1869.80
592.57	1734.63
592.76	1748.97
592.96	1843.17
593.15	1785.83
593.34	1841.12
593.54	1742.82
593.73	1818.60
593.92	1738.73
594.12	1755.11
594.31	1787.88
594.50	1869.80
594.70	1734.63
594.89	1873.89
595.08	1677.29
595.28	1853.41
595.47	2021.35
595.66	1736.68
595.86	1687.53
596.05	1705.96
596.24	1683.43
596.43	1847.27
596.63	1910.75
596.82	1751.01
597.01	1742.82
597.21	1787.88
597.40	1771.49
597.59	1699.81
597.79	1812.45
597.98	1732.58
598.17	1880.04
598.36	1789.92
598.56	1763.30
598.75	1644.52
598.94	1720.29
599.14	1810.40
599.33	1748.97
599.52	1812.45
599.71	1798.12
599.91	1794.02
600.10	1826.79
600.29	1726.44
600.48	1757.16
600.68	1787.88
600.87	1675.24
601.06	1761.25
601.26	1769.44
601.45	1767.40
601.64	1693.67
601.83	1832.93
602.03	1767.40
602.22	1687.53
602.41	1839.08
602.60	1871.84
602.80	1810.40
602.99	1697.77
603.18	1699.81
603.37	1789.92
603.57	1757.16
603.76	1832.93
603.95	1812.45
604.14	1820.64
604.34	1691.62
604.53	1675.24
604.72	1798.12
604.91	1722.34
605.10	1892.32
605.30	1656.81
605.49	1853.41
605.68	1820.64
605.87	1734.63
606.07	1755.11
606.26	1765.35
606.45	1800.16
606.64	1798.12
606.84	1679.33
607.03	1755.11
607.22	1726.44
607.41	1681.38
607.60	1697.77
607.80	1763.30
607.99	1738.73
608.18	1720.29
608.37	1646.57
608.56	1757.16
608.76	1763.30
608.95	1902.56
609.14	1779.68
609.33	1783.78
609.52	1773.54
609.72	1796.07
609.91	1791.97
610.10	1732.58
610.29	1884.13
610.48	1804.26
610.68	1775.59
610.87	1742.82
611.06	1830.88
611.25	1703.91
611.44	1816.55
611.63	1624.04
611.83	1845.22
612.02	1677.29
612.21	1810.40
612.40	1685.48
612.59	1642.47
612.79	1716.20
612.98	1810.40
613.17	1882.08
613.36	1687.53
613.55	1830.88
613.74	1685.48
613.93	1691.62
614.13	1703.91
614.32	1710.05
614.51	1820.64
614.70	1746.92
614.89	1761.25
615.08	1759.21
615.28	2093.02
615.47	1685.48
615.66	1779.68
615.85	1757.16
616.04	1859.56
616.23	1738.73
616.42	1800.16
616.62	1683.43
616.81	1787.88
617.00	1710.05
617.19	1726.44
617.38	1699.81
617.57	1765.35
617.76	1748.97
617.95	1783.78
618.15	1816.55
618.34	1834.98
618.53	1667.05
618.72	1777.64
618.91	1824.74
619.10	1777.64
619.29	1775.59
619.48	1757.16
619.68	1652.71
619.87	1703.91
620.06	1726.44
620.25	1742.82
620.44	1736.68
620.63	1708.01
620.82	1685.48
621.01	1771.49
621.20	1662.95
621.39	1781.73
621.59	1734.63
621.78	1779.68
621.97	1626.09
622.16	1759.21
622.35	1689.57
622.54	1812.45
622.73	1796.07
622.92	1624.04
623.11	1734.63
623.30	1720.29
623.49	1746.92
623.68	1716.20
623.88	1781.73
624.07	1728.49
624.26	1708.01
624.45	1693.67
624.64	1701.86
624.83	1701.86
625.02	1722.34
625.21	1685.48
625.40	1685.48
625.59	1828.84
625.78	1697.77
625.97	1783.78
626.16	1796.07
626.35	1751.01
626.54	1810.40
626.74	1806.31
626.93	1722.34
627.12	1714.15
627.31	1767.40
627.50	1771.49
627.69	1781.73
627.88	1695.72
628.07	1732.58
628.26	1671.14
628.45	1740.77
628.64	1656.81
628.83	1781.73
629.02	1697.77
629.21	1777.64
629.40	1757.16
629.59	1687.53
629.78	1748.97
629.97	1687.53
630.16	1703.91
630.35	1720.29
630.54	1667.05
630.73	1794.02
630.92	1662.95
631.11	1689.57
631.30	1759.21
631.49	1802.21
631.68	1742.82
631.87	1734.63
632.06	1646.57
632.25	1843.17
632.44	1665.00
632.63	1732.58
632.82	1660.90
633.01	1632.23
633.20	1798.12
633.39	1718.25
633.58	1640.42
633.77	1726.44
633.96	1822.69
634.15	1791.97
634.34	1677.29
634.53	1716.20
634.72	1738.73
634.91	1708.01
635.10	1746.92
635.29	1794.02
635.48	1669.09
635.67	1687.53
635.86	1648.61
636.05	1837.03
636.24	1703.91
636.43	1751.01
636.62	1773.54
636.81	1621.99
637.00	1740.77
637.19	1701.86
637.38	1722.34
637.57	1730.53
637.76	1685.48
637.95	1744.87
638.14	1691.62
638.33	1732.58
638.52	1775.59
638.71	1626.09
638.89	1656.81
639.08	1902.56
639.27	1648.61
639.46	1589.22
639.65	1757.16
639.84	1777.64
640.03	1757.16
640.22	1724.39
640.41	1816.55
640.60	1644.52
640.79	1720.29
640.98	1705.96
641.17	1875.94
641.36	1718.25
641.55	1779.68
641.74	1675.24
641.92	1677.29
642.11	1730.53
642.30	1665.00
642.49	1609.70
642.68	1718.25
642.87	1763.30
643.06	1673.19
643.25	1734.63
643.44	1705.96
643.63	1720.29
643.82	1800.16
644.00	1724.39
644.19	1736.68
644.38	1673.19
644.57	1761.25
644.76	1804.26
644.95	1761.25
645.14	1744.87
645.33	1716.20
645.52	1669.09
645.71	1689.57
645.89	1658.85
646.08	1714.15
646.27	1693.67
646.46	1849.32
646.65	1660.90
646.84	1734.63
647.03	1650.66
647.22	1767.40
647.40	1677.29
647.59	1697.77
647.78	1679.33
647.97	1677.29
648.16	1642.47
648.35	1802.21
648.54	1843.17
648.73	1738.73
648.91	1761.25
649.10	1751.01
649.29	1695.72
649.48	1744.87
649.67	1751.01
649.86	1689.57
650.05	1705.96
650.23	1763.30
650.42	1724.39
650.61	1781.73
650.80	1732.58
650.99	1826.79
651.18	1800.16
651.36	1789.92
651.55	1718.25
651.74	1781.73
651.93	1714.15
652.12	1673.19
652.31	1800.16
652.49	1697.77
652.68	1701.86
652.87	1800.16
653.06	1714.15
653.25	1798.12
653.44	1652.71
653.62	1753.06
653.81	1703.91
654.00	1746.92
654.19	1763.30
654.38	1763.30
654.56	1640.42
654.75	1767.40
654.94	1834.98
655.13	1775.59
655.32	1705.96
655.51	1765.35
655.69	1718.25
655.88	1714.15
656.07	1677.29
656.26	1777.64
656.45	1695.72
656.63	1757.16
656.82	1779.68
657.01	1763.30
657.20	1662.95
657.38	1796.07
657.57	1669.09
657.76	1642.47
657.95	1791.97
658.14	1697.77
658.32	1701.86
658.51	1673.19
658.70	1783.78
658.89	1681.38
659.08	1697.77
659.26	1783.78
659.45	1585.13
659.64	1693.67
659.83	1714.15
660.01	1857.51
660.20	1730.53
660.39	1853.41
660.58	1595.37
660.76	1757.16
660.95	1550.31
661.14	1675.24
661.33	1656.81
661.51	1667.05
661.70	1841.12
661.89	1710.05
662.08	1718.25
662.26	1691.62
662.45	1638.38
662.64	1773.54
662.83	1785.83
663.01	1724.39
663.20	1724.39
663.39	1816.55
663.58	1751.01
663.76	1640.42
663.95	1810.40
664.14	1589.22
664.32	1718.25
664.51	1669.09
664.70	1583.08
664.89	1753.06
665.07	1630.18
665.26	1695.72
665.45	1628.14
665.64	1802.21
665.82	1732.58
666.01	1769.44
666.20	1714.15
666.38	1845.22
666.57	1830.88
666.76	2199.52
666.95	4429.76
667.13	10131.30
667.32	14728.99
667.51	17340.15
667.69	18271.98
667.88	17141.50
668.07	12066.63
668.25	9265.01
668.44	7954.31
668.63	7229.33
668.81	6631.32
669.00	6102.95
669.19	5543.85
669.38	5015.48
669.56	4493.24
669.75	3917.76
669.94	3364.81
670.12	2891.73
670.31	2467.80
670.50	2213.85
670.68	2002.91
670.87	1880.04
671.06	1820.64
671.24	1800.16
671.43	1820.64
671.62	1771.49
671.80	1787.88
671.99	1869.80
672.18	1697.77
672.36	1751.01
672.55	1767.40
672.74	1722.34
672.92	1724.39
673.11	1798.12
673.29	1638.38
673.48	1794.02
673.67	1769.44
673.85	1722.34
674.04	1726.44
674.23	1779.68
674.41	1826.79
674.60	1652.71
674.79	1548.26
674.97	1710.05
675.16	1746.92
675.34	1763.30
675.53	1697.77
675.72	1753.06
675.90	1830.88
676.09	1751.01
676.28	1718.25
676.46	1611.75
676.65	1834.98
676.83	1617.90
677.02	1759.21
677.21	1697.77
677.39	1716.20
677.58	1689.57
677.77	1708.01
677.95	1705.96
678.14	1712.10
678.32	1714.15
678.51	1691.62
678.70	1869.80
678.88	1695.72
679.07	1755.11
679.25	1693.67
679.44	1640.42
679.63	1654.76
679.81	1775.59
680.00	1810.40
680.18	1746.92
680.37	1802.21
680.55	1699.81
680.74	1654.76
680.93	1574.89
681.11	1771.49
681.30	1714.15
681.48	1748.97
681.67	1669.09
681.85	1798.12
682.04	1714.15
682.23	1751.01
682.41	1751.01
682.60	1703.91
682.78	1773.54
682.97	1630.18
683.15	1724.39
683.34	1671.14
683.53	1789.92
683.71	1644.52
683.90	1759.21
684.08	1742.82
684.27	1718.25
684.45	1783.78
684.64	1791.97
684.82	1656.81
685.01	1785.83
685.19	1652.71
685.38	1783.78
685.57	1701.86
685.75	1642.47
685.94	1681.38
686.12	1667.05
686.31	1695.72
686.49	1824.74
686.68	1591.27
686.86	1779.68
687.05	1796.07
687.23	1787.88
687.42	1677.29
687.60	1644.52
687.79	1740.77
687.97	1906.66
688.16	1849.32
688.34	1791.97
688.53	1607.66
688.71	1691.62
688.90	1841.12
689.08	1705.96
689.27	1595.37
689.45	1740.77
689.64	1775.59
689.82	1675.24
690.01	1652.71
690.19	1742.82
690.38	1697.77
690.56	1837.03
690.75	1691.62
690.93	1736.68
691.12	1660.90
691.30	1724.39
691.49	1695.72
691.67	1675.24
691.86	1859.56
692.04	1703.91
692.23	1748.97
692.41	1789.92
692.60	1863.65
692.78	1804.26
692.97	1673.19
693.15	1787.88
693.34	1787.88
693.52	1746.92
693.71	1685.48
693.89	1662.95
694.08	1587.18
694.26	1757.16
694.44	1755.11
694.63	1732.58
694.81	1634.28
695.00	1722.34
695.18	1781.73
695.37	1902.56
695.55	1697.77
695.74	1763.30
695.92	1687.53
696.10	1771.49
696.29	1693.67
696.47	1671.14
696.66	1671.14
696.84	1640.42
697.03	1773.54
697.21	1830.88
697.40	2289.63
697.58	1804.26
697.76	1683.43
697.95	1673.19
698.13	1634.28
698.32	1646.57
698.50	1675.24
698.68	1759.21
698.87	1779.68
699.05	1851.36
699.24	1769.44
699.42	1656.81
699.61	1648.61
699.79	1726.44
699.97	1701.86
700.16	1642.47
700.34	1587.18
700.53	1697.77
700.71	1810.40
700.89	1714.15
701.08	1718.25
701.26	1777.64
701.45	2150.37
701.63	1673.19
701.81	1626.09
702.00	1642.47
702.18	1703.91
702.37	1701.86
702.55	1701.86
702.73	1736.68
702.92	1626.09
703.10	1726.44
703.28	1763.30
703.47	1665.00
703.65	1855.46
703.84	1769.44
704.02	1671.14
704.20	1773.54
704.39	1685.48
704.57	1671.14
704.75	1798.12
704.94	1742.82
705.12	1751.01
705.30	1794.02
705.49	2289.63
705.67	4317.12
705.86	9103.22
706.04	12248.90
706.22	13981.48
706.41	14753.57
706.59	13137.72
706.77	9322.35
706.96	7301.01
707.14	6289.31
707.32	5754.79
707.51	5404.59
707.69	4757.43
707.87	4130.75
708.06	3448.78
708.24	2910.16
708.42	2357.21
708.61	2228.19
708.79	1939.43
708.97	1853.41
709.16	1775.59
709.34	1845.22
709.52	1716.20
709.71	1775.59
709.89	1826.79
710.07	1695.72
710.26	1638.38
710.44	1685.48
710.62	1738.73
710.80	1730.53
710.99	1720.29
711.17	1740.77
711.35	1662.95
711.54	1714.15
711.72	1718.25
711.90	1687.53
712.09	1712.10
712.27	1615.85
712.45	1730.53
712.63	1738.73
712.82	1740.77
713.00	1714.15
713.18	1804.26
713.37	1783.78
713.55	1732.58
713.73	1777.64
713.91	1751.01
714.10	1681.38
714.28	1722.34
714.46	1767.40
714.65	1703.91
714.83	1689.57
715.01	1695.72
715.19	1681.38
715.38	1697.77
715.56	1683.43
715.74	1656.81
715.92	1748.97
716.11	1849.32
716.29	1611.75
716.47	1732.58
716.65	1677.29
716.84	1626.09
717.02	1779.68
717.20	1640.42
717.38	1744.87
717.57	1769.44
717.75	1712.10
717.93	1689.57
718.11	1775.59
718.30	1720.29
718.48	1712.10
718.66	1767.40
718.84	1689.57
719.03	1734.63
719.21	1648.61
719.39	1875.94
719.57	1748.97
719.75	1818.60
719.94	1744.87
720.12	1697.77
720.30	1703.91
720.48	1716.20
720.67	1697.77
720.85	1640.42
721.03	1755.11
721.21	1667.05
721.39	1779.68
721.58	1769.44
721.76	1658.85
721.94	1722.34
722.12	1761.25
722.30	1810.40
722.49	1761.25
722.67	1738.73
722.85	1716.20
723.03	1671.14
723.21	1667.05
723.40	1732.58
723.58	1808.36
723.76	1708.01
723.94	1757.16
724.12	1695.72
724.30	1804.26
724.49	1804.26
724.67	1626.09
724.85	1748.97
725.03	1656.81
725.21	1683.43
725.40	1755.11
725.58	1685.48
725.76	1779.68
725.94	1683.43
726.12	1683.43
726.30	1734.63
726.49	1757.16
726.67	1658.85
726.85	1814.50
727.03	1812.45
727.21	2090.98
727.39	3067.86
727.57	3739.59
727.76	4065.22
727.94	4370.37
728.12	4237.25
728.30	3704.78
728.48	2926.55
728.66	2736.09
728.84	2430.94
729.03	2263.01
729.21	2181.09
729.39	2004.96
729.57	1812.45
729.75	1755.11
729.93	1808.36
730.11	1714.15
730.30	1718.25
730.48	1720.29
730.66	1794.02
730.84	1740.77
731.02	1689.57
731.20	1728.49
731.38	1660.90
731.56	1609.70
731.74	1662.95
731.93	1710.05
732.11	1632.23
732.29	1767.40
732.47	1783.78
732.65	1736.68
732.83	1834.98
733.01	1763.30
733.19	1683.43
733.37	1779.68
733.56	1673.19
733.74	1656.81
733.92	1810.40
734.10	1738.73
734.28	1710.05
734.46	1603.56
734.64	1787.88
734.82	1671.14
735.00	1619.94
735.18	1650.66
735.36	1669.09
735.54	1691.62
735.73	1732.58
735.91	1671.14
736.09	1798.12
736.27	1775.59
736.45	1710.05
736.63	1570.79
736.81	1755.11
736.99	1751.01
737.17	1771.49
737.35	1705.96
737.53	1708.01
737.71	1665.00
737.89	1798.12
738.07	1681.38
738.25	1667.05
738.43	1632.23
738.61	1675.24
738.80	1691.62
738.98	1669.09
739.16	1724.39
739.34	1621.99
739.52	1857.51
739.70	1681.38
739.88	1728.49
740.06	1757.16
740.24	1630.18
740.42	1740.77
740.60	1667.05
740.78	1718.25
740.96	1652.71
741.14	1697.77
741.32	1732.58
741.50	1638.38
741.68	1798.12
741.86	1701.86
742.04	1679.33
742.22	1662.95
742.40	1724.39
742.58	1710.05
742.76	1638.38
742.94	1783.78
743.12	1634.28
743.30	1779.68
743.48	1683.43
743.66	1632.23
743.84	1771.49
744.02	1642.47
744.20	1742.82
744.38	1697.77
744.56	1677.29
744.74	1779.68
744.92	1771.49
745.10	1800.16
745.28	1816.55
745.46	1828.84
745.64	1720.29
745.82	1820.64
746.00	1708.01
746.18	1710.05
746.36	1636.33
746.54	1656.81
746.72	1746.92
746.90	1634.28
747.08	1791.97
747.26	1677.29
747.44	1744.87
747.62	1767.40
747.80	1701.86
747.98	1705.96
748.15	1714.15
748.33	1861.60
748.51	1751.01
748.69	1746.92
748.87	1753.06
749.05	1804.26
749.23	1650.66
749.41	1720.29
749.59	1658.85
749.77	1816.55
749.95	1677.29
750.13	1652.71
750.31	1740.77
750.49	1755.11
750.67	1759.21
750.85	1804.26
751.03	1728.49
751.20	1767.40
751.38	1765.35
751.56	1662.95
751.74	1685.48
751.92	1693.67
752.10	1630.18
752.28	1734.63
752.46	1615.85
752.64	1613.80
752.82	1705.96
753.00	1826.79
753.18	1677.29
753.35	1667.05
753.53	1714.15
753.71	1697.77
753.89	1806.31
754.07	1716.20
754.25	1710.05
754.43	1742.82
754.61	1621.99
754.79	1826.79
754.97	1710.05
755.14	1804.26
755.32	1679.33
755.50	1691.62
755.68	1783.78
755.86	1646.57
756.04	1695.72
756.22	1656.81
756.40	1812.45
756.57	1773.54
756.75	1669.09
756.93	1759.21
757.11	1751.01
757.29	1636.33
757.47	1662.95
757.65	1650.66
757.82	1583.08
758.00	1695.72
758.18	1689.57
758.36	1687.53
758.54	1757.16
758.72	1658.85
758.90	1775.59
759.07	1691.62
759.25	1583.08
759.43	1755.11
759.61	1685.48
759.79	2162.66
759.97	1783.78
760.15	1687.53
760.32	1667.05
760.50	1652.71
760.68	1787.88
760.86	1658.85
761.04	1761.25
761.22	1716.20
761.39	1732.58
761.57	1652.71
761.75	1724.39
761.93	1693.67
762.11	1691.62
762.28	1791.97
762.46	1742.82
762.64	1777.64
762.82	1656.81
763.00	1734.63
763.18	1798.12
763.35	1632.23
763.53	1775.59
763.71	1710.05
763.89	1595.37
764.07	1718.25
764.24	1679.33
764.42	1800.16
764.60	1665.00
764.78	1710.05
764.96	1765.35
765.13	1722.34
765.31	1718.25
765.49	1806.31
765.67	1609.70
765.84	1736.68
766.02	1585.13
766.20	1673.19
766.38	1738.73
766.56	1681.38
766.73	1734.63
766.91	1640.42
767.09	1685.48
767.27	1767.40
767.44	1687.53
767.62	1669.09
767.80	1720.29
767.98	1718.25
768.15	1673.19
768.33	1773.54
768.51	1800.16
768.69	1781.73
768.87	1687.53
769.04	1802.21
769.22	1834.98
769.40	1785.83
769.58	1886.18
769.75	1699.81
769.93	1755.11
770.11	1714.15
770.28	1634.28
770.46	1806.31
770.64	1703.91
770.82	1730.53
770.99	1701.86
771.17	1699.81
771.35	1728.49
771.53	1724.39
771.70	1705.96
771.88	1814.50
772.06	1636.33
772.23	1679.33
772.41	1787.88
772.59	1685.48
772.77	1642.47
772.94	1630.18
773.12	1687.53
773.30	1695.72
773.47	1751.01
773.65	1708.01
773.83	1751.01
774.01	1734.63
774.18	1621.99
774.36	1693.67
774.54	1716.20
774.71	1814.50
774.89	1646.57
775.07	1714.15
775.24	1619.94
775.42	1703.91
775.60	1730.53
775.78	1685.48
775.95	1644.52
776.13	1665.00
776.31	1648.61
776.48	1734.63
776.66	1769.44
776.84	1667.05
777.01	1632.23
777.19	1662.95
777.37	1691.62
777.54	1783.78
777.72	1828.84
777.90	1728.49
778.07	1683.43
778.25	1804.26
778.43	1742.82
778.60	1726.44
778.78	1720.29
778.96	1839.08
779.13	1652.71
779.31	1773.54
779.49	1683.43
779.66	1781.73
779.84	1701.86
780.01	1724.39
780.19	1669.09
780.37	1693.67
780.54	1773.54
780.72	1703.91
780.90	1742.82
781.07	1673.19
781.25	1695.72
781.43	1767.40
781.60	1675.24
781.78	1779.68
781.95	1751.01
782.13	1632.23
782.31	1738.73
782.48	1587.18
782.66	1728.49
782.83	1789.92
783.01	1724.39
783.19	1814.50
783.36	1722.34
783.54	1705.96
783.72	1818.60
783.89	1710.05
784.07	1710.05
784.24	1710.05
784.42	1822.69
784.60	1767.40
784.77	1806.31
784.95	1583.08
785.12	1687.53
785.30	1761.25
785.47	1708.01
785.65	1675.24
785.83	1640.42
786.00	1634.28
786.18	1671.14
786.35	1701.86
786.53	1691.62
786.71	1806.31
786.88	1687.53
787.06	1712.10
787.23	1726.44
787.41	1701.86
787.58	1761.25
787.76	1660.90
787.94	1800.16
788.11	1753.06
788.29	1693.67
788.46	1646.57
788.64	1593.32
788.81	1724.39
788.99	1732.58
789.16	1744.87
789.34	1679.33
789.52	1621.99
789.69	1697.77
789.87	1513.45
790.04	1710.05
790.22	1767.40
790.39	1787.88
790.57	1669.09
790.74	1738.73
790.92	1761.25
791.09	1628.14
791.27	1767.40
791.44	1873.89
791.62	1689.57
791.79	1687.53
791.97	1697.77
792.15	1861.60
792.32	1730.53
792.50	1755.11
792.67	1757.16
792.85	1763.30
793.02	1652.71
793.20	1656.81
793.37	1634.28
793.55	1667.05
793.72	1644.52
793.90	1714.15
794.07	1673.19
794.25	1665.00
794.42	1746.92
794.60	1705.96
794.77	1771.49
794.95	1738.73
795.12	1710.05
795.30	1667.05
795.47	1636.33
795.65	1900.52
795.82	1751.01
796.00	1662.95
796.17	1673.19
796.34	1665.00
796.52	1763.30
796.69	1708.01
796.87	1806.31
797.04	1769.44
797.22	1744.87
797.39	1712.10
797.57	1783.78
797.74	1748.97
797.92	1767.40
798.09	1763.30
798.27	1744.87
798.44	1708.01
798.62	1626.09
798.79	1691.62
798.96	1787.88
799.14	1705.96
799.31	1892.32
799.49	1660.90
799.66	1724.39
799.84	1708.01
800.01	1650.66
800.19	1673.19
800.36	1615.85
800.53	1732.58
800.71	1708.01
800.88	1853.41
801.06	1617.90
801.23	1656.81
801.41	1679.33
801.58	1716.20
801.75	1683.43
801.93	1712.10
802.10	1695.72
802.28	1638.38
802.45	1701.86
802.63	1742.82
802.80	1841.12
802.97	1656.81
803.15	1724.39
803.32	1689.57
803.50	1669.09
803.67	1724.39
803.84	1583.08
804.02	1685.48
804.19	1697.77
804.37	1566.70
804.54	1705.96
804.71	1642.47
804.89	1794.02
805.06	1603.56
805.24	1695.72
805.41	1642.47
805.58	1660.90
805.76	1920.99
805.93	1656.81
806.10	1839.08
806.28	1728.49
806.45	1722.34
806.63	1705.96
806.80	1814.50
806.97	1728.49
807.15	1660.90
807.32	1789.92
807.49	1763.30
807.67	1665.00
807.84	1648.61
808.01	1636.33
808.19	1814.50
808.36	1794.02
808.54	1648.61
808.71	1675.24
808.88	1763.30
809.06	1710.05
809.23	1794.02
809.40	1699.81
809.58	1781.73
809.75	1665.00
809.92	1705.96
810.10	1880.04
810.27	1687.53
810.44	1765.35
810.62	1751.01
810.79	1767.40
810.96	1646.57
811.14	1630.18
811.31	1693.67
811.48	1781.73
811.66	1755.11
811.83	1828.84
812.00	1759.21
812.18	1783.78
812.35	1853.41
812.52	1763.30
812.69	1740.77
812.87	1699.81
813.04	1669.09
813.21	1712.10
813.39	1712.10
813.56	1619.94
813.73	1748.97
813.91	1697.77
814.08	1720.29
814.25	1701.86
814.42	1634.28
814.60	1658.85
814.77	1775.59
814.94	1712.10
815.12	1740.77
815.29	1767.40
815.46	1748.97
815.63	1789.92
815.81	1714.15
815.98	1728.49
816.15	1712.10
816.33	1703.91
816.50	1570.79
816.67	1650.66
816.84	1683.43
817.02	1687.53
817.19	1703.91
817.36	1699.81
817.53	1710.05
817.71	1656.81
817.88	1804.26
818.05	1671.14
818.22	1744.87
818.40	1822.69
818.57	1685.48
818.74	1665.00
818.91	1728.49
819.09	1720.29
819.26	1740.77
819.43	1615.85
819.60	1697.77
819.78	1697.77
819.95	1791.97
820.12	1662.95
820.29	1834.98
820.47	1802.21
820.64	1652.71
820.81	1685.48
820.98	1642.47
821.15	1681.38
821.33	1841.12
821.50	1660.90
821.67	1822.69
821.84	1705.96
822.02	1781.73
822.19	1789.92
822.36	1714.15
822.53	1687.53
822.70	1761.25
822.88	1697.77
823.05	1773.54
823.22	1656.81
823.39	1761.25
823.56	1724.39
823.74	1859.56
823.91	1703.91
824.08	1703.91
824.25	1675.24
824.42	1775.59
824.60	1644.52
824.77	1763.30
824.94	1626.09
825.11	1708.01
825.28	1607.66
825.45	1699.81
825.63	1748.97
825.80	1613.80
825.97	1748.97
826.14	1662.95
826.31	1621.99
826.48	1810.40
826.66	1562.60
826.83	1681.38
827.00	1773.54
827.17	1660.90
827.34	1683.43
827.51	1724.39
827.69	1771.49
827.86	1652.71
828.03	1740.77
828.20	1738.73
828.37	1728.49
828.54	1783.78
828.71	1669.09
828.89	1828.84
829.06	1757.16
829.23	1779.68
829.40	1646.57
829.57	1695.72
829.74	1697.77
829.91	1624.04
830.09	1693.67
830.26	1722.34
830.43	1855.46
830.60	1681.38
830.77	1705.96
830.94	1841.12
831.11	1765.35
831.28	1718.25
831.46	1828.84
831.63	1720.29
831.80	1814.50
831.97	1665.00
832.14	1683.43
832.31	1759.21
832.48	1681.38
832.65	1740.77
832.82	1742.82
832.99	1767.40
833.17	1624.04
833.34	1689.57
833.51	1800.16
833.68	1691.62
833.85	1753.06
834.02	1771.49
834.19	1712.10
834.36	1621.99
834.53	1751.01
834.70	1783.78
834.87	1738.73
835.04	1798.12
835.22	1648.61
835.39	1714.15
835.56	1665.00
835.73	1718.25
835.90	1744.87
836.07	1654.76
836.24	1789.92
836.41	1708.01
836.58	1695.72
836.75	1726.44
836.92	1712.10
837.09	1683.43
837.26	1787.88
837.43	1710.05
837.60	1693.67
837.77	1708.01
837.94	1830.88
838.12	1728.49
838.29	1677.29
838.46	1640.42
838.63	1576.94
838.80	1789.92
838.97	1753.06
839.14	1783.78
839.31	1744.87
839.48	1724.39
839.65	1767.40
839.82	1830.88
839.99	1705.96
840.16	1779.68
840.33	1675.24
840.50	1759.21
840.67	1732.58
840.84	1619.94
841.01	1732.58
841.18	1693.67
841.35	1658.85
841.52	1755.11
841.69	1877.99
841.86	1691.62
842.03	1679.33
842.20	1816.55
842.37	1708.01
842.54	1757.16
842.71	1701.86
842.88	1599.46
843.05	1759.21
843.22	1755.11
843.39	1748.97
843.56	1734.63
843.73	1675.24
843.90	1650.66
844.07	1728.49
844.24	1748.97
844.41	1720.29
844.58	1671.14
844.75	1689.57
844.92	1781.73
845.09	1658.85
845.26	1679.33
845.43	1728.49
845.60	1732.58
845.77	1804.26
845.94	1755.11
846.10	1734.63
846.27	1634.28
846.44	1679.33
846.61	1626.09
846.78	1685.48
846.95	1738.73
847.12	1689.57
847.29	1708.01
847.46	1701.86
847.63	1826.79
847.80	1636.33
847.97	1710.05
848.14	1808.36
848.31	1685.48
848.48	1576.94
848.65	1726.44
848.82	1681.38
848.98	1855.46
849.15	1708.01
849.32	1781.73
849.49	1720.29
849.66	1761.25
849.83	1705.96
850.00	1619.94
850.17	1708.01
850.34	1656.81
850.51	1652.71
850.68	1650.66
850.85	1837.03
851.01	1685.48
851.18	1708.01
851.35	1671.14
851.52	1744.87
851.69	1845.22
851.86	1673.19
852.03	1734.63
852.20	1761.25
852.37	1656.81
852.53	1646.57
852.70	1693.67
852.87	1712.10
853.04	1722.34
853.21	1748.97
853.38	1767.40
853.55	1791.97
853.72	1748.97
853.89	1648.61
854.05	1722.34
854.22	1718.25
854.39	1683.43
854.56	1769.44
854.73	1779.68
854.90	1644.52
855.07	1783.78
855.23	1730.53
855.40	1736.68
855.57	1718.25
855.74	1621.99
855.91	1853.41
856.08	1658.85
856.25	1638.38
856.41	1708.01
856.58	1685.48
856.75	1642.47
856.92	1624.04
857.09	1812.45
857.26	1621.99
857.42	1771.49
857.59	1746.92
857.76	1751.01
857.93	1744.87
858.10	1765.35
858.27	1587.18
858.43	1677.29
858.60	1695.72
858.77	1642.47
858.94	1677.29
859.11	1771.49
859.27	1718.25
859.44	1720.29
859.61	1857.51
859.78	1691.62
859.95	1708.01
860.12	1630.18
860.28	1849.32
860.45	1783.78
860.62	1701.86
860.79	1710.05
860.95	1714.15
861.12	1714.15
861.29	1646.57
861.46	1578.98
861.63	1738.73
861.79	1753.06
861.96	1679.33
862.13	1675.24
862.30	1796.07
862.47	1681.38
862.63	1621.99
862.80	1851.36
862.97	1763.30
863.14	1757.16
863.30	1693.67
863.47	1648.61
863.64	1849.32
863.81	1689.57
863.97	1705.96
864.14	1820.64
864.31	1705.96
864.48	1773.54
864.65	1710.05
864.81	1765.35
864.98	1759.21
865.15	1708.01
865.32	1748.97
865.48	1763.30
865.65	1826.79
865.82	1667.05
865.98	1841.12
866.15	1828.84
866.32	1720.29
866.49	1738.73
866.65	1783.78
866.82	1689.57
866.99	1681.38
867.16	1701.86
867.32	1718.25
867.49	1667.05
867.66	1705.96
867.83	1740.77
867.99	1615.85
868.16	1695.72
868.33	1628.14
868.49	1695.72
868.66	1669.09
868.83	1722.34
868.99	1744.87
869.16	1730.53
869.33	1796.07
869.50	1779.68
869.66	1732.58
869.83	1689.57
870.00	1630.18
870.16	1794.02
870.33	1705.96
870.50	1810.40
870.66	1679.33
870.83	1869.80
871.00	1652.71
871.17	1669.09
871.33	1724.39
871.50	1695.72
871.67	1708.01
871.83	1681.38
872.00	1839.08
872.17	1697.77
872.33	1812.45
872.50	1781.73
872.67	1695.72
872.83	1753.06
873.00	1783.78
873.17	1730.53
873.33	1734.63
873.50	1828.84
873.67	1591.27
873.83	1705.96
874.00	1667.05
874.16	1773.54
874.33	1744.87
874.50	1703.91
874.66	1761.25
874.83	1763.30
875.00	1820.64
875.16	1798.12
875.33	1734.63
875.50	1611.75
875.66	1720.29
875.83	1720.29
875.99	1705.96
876.16	1691.62
876.33	1621.99
876.49	1636.33
876.66	1798.12
876.83	1683.43
876.99	1662.95
877.16	1771.49
877.32	1705.96
877.49	1583.08
877.66	1736.68
877.82	1837.03
877.99	1648.61
878.15	1787.88
878.32	1681.38
878.49	1708.01
878.65	1710.05
878.82	1740.77
878.98	1751.01
879.15	1697.77
879.32	1755.11
879.48	1738.73
879.65	1695.72
879.81	1701.86
879.98	1718.25
880.15	1695.72
880.31	1748.97
880.48	1648.61
880.64	1779.68
880.81	1703.91
880.97	1777.64
881.14	1777.64
881.31	1634.28
881.47	1822.69
881.64	1677.29
881.80	1595.37
881.97	1718.25
882.13	1771.49
882.30	1648.61
882.47	1722.34
882.63	1632.23
882.80	1660.90
882.96	1722.34
883.13	1755.11
883.29	1734.63
883.46	1724.39
883.62	1814.50
883.79	1722.34
883.95	1734.63
884.12	1701.86
884.29	1742.82
884.45	1714.15
884.62	1798.12
884.78	1601.51
884.95	1791.97
885.11	1697.77
885.28	1683.43
885.44	1675.24
885.61	1837.03
885.77	1738.73
885.94	1693.67
886.10	1679.33
886.27	1716.20
886.43	1824.74
886.60	1789.92
886.76	1677.29
886.93	1646.57
887.09	1665.00
887.26	1591.27
887.42	1697.77
887.59	1808.36
887.75	1898.47
887.92	1812.45
888.08	1820.64
888.25	1804.26
888.41	1804.26
888.58	1787.88
888.74	1611.75
888.91	1671.14
>>>>>End Processed Spectral Data<<<<<
