SpectraSuite Data File
++++++++++++++++++++++++++++++++++++
Date: Mon Jun 06 16:34:37 CEST 2016
User: root
Dark Spectrum Present: No
Reference Spectrum Present: No
Number of Sampled Component Spectra: 1
Spectrometers: USB4C02835
Integration Time (usec): 100000 (USB4C02835)
Spectra Averaged: 1 (USB4C02835)
Boxcar Smoothing: 0 (USB4C02835)
Correct for Electrical Dark: No (USB4C02835)
Strobe/Lamp Enabled: No (USB4C02835)
Correct for Detector Non-linearity: No (USB4C02835)
Correct for Stray Light: No (USB4C02835)
Number of Pixels in Processed Spectrum: 3648
>>>>>Begin Processed Spectral Data<<<<<
177.47	1484.78
177.69	1484.78
177.91	1484.78
178.13	1558.50
178.36	1488.87
178.58	1701.86
178.80	1705.96
179.02	1656.81
179.24	1607.66
179.46	1646.57
179.68	1796.07
179.90	1736.68
180.13	1740.77
180.35	1642.47
180.57	1693.67
180.79	1695.72
181.01	1701.86
181.23	1771.49
181.45	1798.12
181.67	1697.77
181.90	1740.77
182.12	1738.73
182.34	1578.98
182.56	1718.25
182.78	1751.01
183.00	1705.96
183.22	1708.01
183.44	1665.00
183.66	1904.61
183.89	1730.53
184.11	1712.10
184.33	1726.44
184.55	1708.01
184.77	1769.44
184.99	1787.88
185.21	1748.97
185.43	1787.88
185.65	1701.86
185.87	1724.39
186.10	1832.93
186.32	1877.99
186.54	1722.34
186.76	1748.97
186.98	1718.25
187.20	1699.81
187.42	1658.85
187.64	1746.92
187.86	1701.86
188.08	1753.06
188.30	1693.67
188.52	1716.20
188.75	1726.44
188.97	1771.49
189.19	1679.33
189.41	1740.77
189.63	1732.58
189.85	1759.21
190.07	1665.00
190.29	1652.71
190.51	1742.82
190.73	1679.33
190.95	1798.12
191.17	1632.23
191.39	1574.89
191.61	1624.04
191.84	1734.63
192.06	1738.73
192.28	1613.80
192.50	1871.84
192.72	1720.29
192.94	1642.47
193.16	1777.64
193.38	1718.25
193.60	1656.81
193.82	1730.53
194.04	1806.31
194.26	1722.34
194.48	1689.57
194.70	1697.77
194.92	1742.82
195.14	1726.44
195.36	1660.90
195.58	1763.30
195.80	1705.96
196.02	1714.15
196.24	1708.01
196.46	1708.01
196.69	1693.67
196.91	1914.85
197.13	1779.68
197.35	1695.72
197.57	1736.68
197.79	1656.81
198.01	1630.18
198.23	1871.84
198.45	1736.68
198.67	1611.75
198.89	1695.72
199.11	1687.53
199.33	1726.44
199.55	1628.14
199.77	1636.33
199.99	1714.15
200.21	1681.38
200.43	1734.63
200.65	1738.73
200.87	1574.89
201.09	1720.29
201.31	1714.15
201.53	1759.21
201.75	1738.73
201.97	1724.39
202.19	1746.92
202.41	1728.49
202.63	1804.26
202.85	1765.35
203.07	1755.11
203.29	1656.81
203.51	1648.61
203.73	1591.27
203.95	1910.75
204.17	1691.62
204.39	1718.25
204.61	1730.53
204.83	1673.19
205.05	1791.97
205.27	1712.10
205.49	1806.31
205.71	1665.00
205.93	1650.66
206.15	1667.05
206.37	1738.73
206.59	1722.34
206.81	1624.04
207.03	1607.66
207.25	1650.66
207.47	1763.30
207.69	1673.19
207.91	1777.64
208.13	1767.40
208.34	1681.38
208.56	1677.29
208.78	1794.02
209.00	1740.77
209.22	1691.62
209.44	1689.57
209.66	1654.76
209.88	1658.85
210.10	1665.00
210.32	1734.63
210.54	1742.82
210.76	1720.29
210.98	1716.20
211.20	1599.46
211.42	1697.77
211.64	1798.12
211.86	1697.77
212.08	1732.58
212.30	1673.19
212.52	1701.86
212.74	1675.24
212.96	1742.82
213.17	1771.49
213.39	1703.91
213.61	1767.40
213.83	1646.57
214.05	1599.46
214.27	1710.05
214.49	1683.43
214.71	1585.13
214.93	1777.64
215.15	1738.73
215.37	1791.97
215.59	1644.52
215.81	1699.81
216.03	1691.62
216.24	1742.82
216.46	1705.96
216.68	1675.24
216.90	1798.12
217.12	1767.40
217.34	1681.38
217.56	1738.73
217.78	1751.01
218.00	1730.53
218.22	1669.09
218.44	1732.58
218.66	1669.09
218.87	1859.56
219.09	1710.05
219.31	1660.90
219.53	1771.49
219.75	1775.59
219.97	1691.62
220.19	1716.20
220.41	1732.58
220.63	1800.16
220.85	1742.82
221.06	1714.15
221.28	1771.49
221.50	1755.11
221.72	1648.61
221.94	1714.15
222.16	1716.20
222.38	1783.78
222.60	1834.98
222.82	1665.00
223.03	1650.66
223.25	1667.05
223.47	1746.92
223.69	1843.17
223.91	1730.53
224.13	1728.49
224.35	1677.29
224.57	1773.54
224.78	1730.53
225.00	1611.75
225.22	1689.57
225.44	1730.53
225.66	1812.45
225.88	1675.24
226.10	1742.82
226.32	1781.73
226.53	1765.35
226.75	1658.85
226.97	1697.77
227.19	1710.05
227.41	1574.89
227.63	1693.67
227.85	1675.24
228.06	1755.11
228.28	1667.05
228.50	1820.64
228.72	1716.20
228.94	1685.48
229.16	1628.14
229.37	1722.34
229.59	1671.14
229.81	1746.92
230.03	1748.97
230.25	1632.23
230.47	1675.24
230.69	1591.27
230.90	1728.49
231.12	1656.81
231.34	1734.63
231.56	1791.97
231.78	1652.71
232.00	1689.57
232.21	1718.25
232.43	1644.52
232.65	1605.61
232.87	1765.35
233.09	1624.04
233.30	1626.09
233.52	1695.72
233.74	1744.87
233.96	1730.53
234.18	1730.53
234.40	1671.14
234.61	1812.45
234.83	1556.46
235.05	1671.14
235.27	1843.17
235.49	1781.73
235.70	1691.62
235.92	1789.92
236.14	1820.64
236.36	1798.12
236.58	1595.37
236.79	1697.77
237.01	1732.58
237.23	1650.66
237.45	1763.30
237.67	1558.50
237.88	1626.09
238.10	1755.11
238.32	1607.66
238.54	1658.85
238.76	1662.95
238.97	1650.66
239.19	1714.15
239.41	1783.78
239.63	1767.40
239.85	1691.62
240.06	1748.97
240.28	1710.05
240.50	1779.68
240.72	1712.10
240.93	1759.21
241.15	1814.50
241.37	1771.49
241.59	1753.06
241.81	1597.42
242.02	1738.73
242.24	1712.10
242.46	1796.07
242.68	1660.90
242.89	1708.01
243.11	1757.16
243.33	1755.11
243.55	1730.53
243.76	1753.06
243.98	1781.73
244.20	1716.20
244.42	1701.86
244.64	1773.54
244.85	1636.33
245.07	1693.67
245.29	1765.35
245.51	1699.81
245.72	1771.49
245.94	1746.92
246.16	1748.97
246.38	1714.15
246.59	1753.06
246.81	1644.52
247.03	1718.25
247.24	1636.33
247.46	1665.00
247.68	1734.63
247.90	1699.81
248.11	1687.53
248.33	1738.73
248.55	1669.09
248.77	1667.05
248.98	1757.16
249.20	1822.69
249.42	1763.30
249.64	1732.58
249.85	1646.57
250.07	1624.04
250.29	1732.58
250.50	1742.82
250.72	1619.94
250.94	1783.78
251.16	1822.69
251.37	1853.41
251.59	1722.34
251.81	1687.53
252.02	1796.07
252.24	1603.56
252.46	1763.30
252.68	1685.48
252.89	1640.42
253.11	1619.94
253.33	1810.40
253.54	1738.73
253.76	1617.90
253.98	1775.59
254.20	1738.73
254.41	1716.20
254.63	1689.57
254.85	1730.53
255.06	1665.00
255.28	1734.63
255.50	1777.64
255.71	1628.14
255.93	1640.42
256.15	1744.87
256.36	1755.11
256.58	1626.09
256.80	1773.54
257.02	1669.09
257.23	1708.01
257.45	1732.58
257.67	1736.68
257.88	1738.73
258.10	1746.92
258.32	1738.73
258.53	1697.77
258.75	1794.02
258.97	1675.24
259.18	1757.16
259.40	1726.44
259.62	1794.02
259.83	1779.68
260.05	1751.01
260.27	1951.71
260.48	1765.35
260.70	1640.42
260.92	1746.92
261.13	1621.99
261.35	1720.29
261.57	1804.26
261.78	1621.99
262.00	1691.62
262.22	1724.39
262.43	1673.19
262.65	1740.77
262.86	1658.85
263.08	1871.84
263.30	1779.68
263.51	1640.42
263.73	1626.09
263.95	1763.30
264.16	1613.80
264.38	1679.33
264.60	1812.45
264.81	1689.57
265.03	1769.44
265.25	1775.59
265.46	1693.67
265.68	1849.32
265.89	1693.67
266.11	1574.89
266.33	1769.44
266.54	1693.67
266.76	1705.96
266.98	1714.15
267.19	1812.45
267.41	1710.05
267.62	1724.39
267.84	1658.85
268.06	1798.12
268.27	1744.87
268.49	1751.01
268.70	1736.68
268.92	1751.01
269.14	1615.85
269.35	1636.33
269.57	1636.33
269.79	1773.54
270.00	1789.92
270.22	1775.59
270.43	1679.33
270.65	1552.36
270.87	1736.68
271.08	1845.22
271.30	1800.16
271.51	1714.15
271.73	1775.59
271.95	1720.29
272.16	1687.53
272.38	1767.40
272.59	1724.39
272.81	1757.16
273.02	1765.35
273.24	1660.90
273.46	1808.36
273.67	1656.81
273.89	1677.29
274.10	1685.48
274.32	1728.49
274.54	1757.16
274.75	1740.77
274.97	1699.81
275.18	1753.06
275.40	1757.16
275.61	1693.67
275.83	1771.49
276.05	1650.66
276.26	1652.71
276.48	1710.05
276.69	1669.09
276.91	1681.38
277.12	1697.77
277.34	1734.63
277.55	1720.29
277.77	1714.15
277.99	1689.57
278.20	1626.09
278.42	1648.61
278.63	1705.96
278.85	1677.29
279.06	1677.29
279.28	1732.58
279.49	1660.90
279.71	1722.34
279.93	1744.87
280.14	1728.49
280.36	1675.24
280.57	1701.86
280.79	1716.20
281.00	1624.04
281.22	1689.57
281.43	1716.20
281.65	1595.37
281.86	1626.09
282.08	1714.15
282.29	1800.16
282.51	1628.14
282.73	1617.90
282.94	1581.03
283.16	1773.54
283.37	1820.64
283.59	1693.67
283.80	1851.36
284.02	1742.82
284.23	1699.81
284.45	1734.63
284.66	1656.81
284.88	1796.07
285.09	1695.72
285.31	1677.29
285.52	1738.73
285.74	1699.81
285.95	1753.06
286.17	1697.77
286.38	1740.77
286.60	1701.86
286.81	1738.73
287.03	1691.62
287.24	1695.72
287.46	1789.92
287.67	1781.73
287.89	1763.30
288.10	1777.64
288.32	1718.25
288.53	1714.15
288.75	1785.83
288.96	1834.98
289.18	1671.14
289.39	1671.14
289.61	1755.11
289.82	1834.98
290.04	1859.56
290.25	1685.48
290.47	1787.88
290.68	1628.14
290.90	1746.92
291.11	1626.09
291.33	1679.33
291.54	1656.81
291.76	1734.63
291.97	1695.72
292.18	1708.01
292.40	1681.38
292.61	1660.90
292.83	1814.50
293.04	1712.10
293.26	1701.86
293.47	1822.69
293.69	1656.81
293.90	1712.10
294.12	1755.11
294.33	1691.62
294.55	1718.25
294.76	1730.53
294.97	1775.59
295.19	1853.41
295.40	1714.15
295.62	1775.59
295.83	1800.16
296.05	1681.38
296.26	1703.91
296.48	1730.53
296.69	1654.76
296.90	1677.29
297.12	1773.54
297.33	1796.07
297.55	1665.00
297.76	1701.86
297.98	1779.68
298.19	1654.76
298.41	1726.44
298.62	1654.76
298.83	1753.06
299.05	1714.15
299.26	1658.85
299.48	1691.62
299.69	1712.10
299.90	1798.12
300.12	1677.29
300.33	1714.15
300.55	1748.97
300.76	1800.16
300.98	1673.19
301.19	1699.81
301.40	1673.19
301.62	1683.43
301.83	1779.68
302.05	1767.40
302.26	1724.39
302.47	1718.25
302.69	1640.42
302.90	1636.33
303.12	1722.34
303.33	1724.39
303.54	1837.03
303.76	1734.63
303.97	1742.82
304.19	1841.12
304.40	1644.52
304.61	1714.15
304.83	1781.73
305.04	1796.07
305.26	1697.77
305.47	1576.94
305.68	1665.00
305.90	1667.05
306.11	1798.12
306.33	1714.15
306.54	1693.67
306.75	1662.95
306.97	1673.19
307.18	1699.81
307.39	1734.63
307.61	1736.68
307.82	1677.29
308.04	1767.40
308.25	1769.44
308.46	1791.97
308.68	1738.73
308.89	1658.85
309.10	1775.59
309.32	1751.01
309.53	1681.38
309.74	1757.16
309.96	1689.57
310.17	1718.25
310.39	1673.19
310.60	1683.43
310.81	1679.33
311.03	1611.75
311.24	1738.73
311.45	1720.29
311.67	1826.79
311.88	1738.73
312.09	1554.41
312.31	1708.01
312.52	1734.63
312.73	1691.62
312.95	1703.91
313.16	1738.73
313.37	1779.68
313.59	1748.97
313.80	1761.25
314.01	1744.87
314.23	1734.63
314.44	1615.85
314.65	1730.53
314.87	1648.61
315.08	1701.86
315.29	1736.68
315.51	1685.48
315.72	1656.81
315.93	1834.98
316.15	1718.25
316.36	1744.87
316.57	1691.62
316.79	1734.63
317.00	1646.57
317.21	1736.68
317.43	1671.14
317.64	1693.67
317.85	1716.20
318.07	1681.38
318.28	1734.63
318.49	1798.12
318.70	1990.63
318.92	1748.97
319.13	1755.11
319.34	1757.16
319.56	1828.84
319.77	1789.92
319.98	1843.17
320.20	1800.16
320.41	1742.82
320.62	1785.83
320.83	1693.67
321.05	1904.61
321.26	1722.34
321.47	1693.67
321.69	1773.54
321.90	1638.38
322.11	1691.62
322.32	1771.49
322.54	1763.30
322.75	1673.19
322.96	1837.03
323.18	1599.46
323.39	1667.05
323.60	1693.67
323.81	1789.92
324.03	1722.34
324.24	1701.86
324.45	1677.29
324.66	1722.34
324.88	1753.06
325.09	1820.64
325.30	1718.25
325.52	1701.86
325.73	1689.57
325.94	1603.56
326.15	1671.14
326.37	1693.67
326.58	1810.40
326.79	1773.54
327.00	1714.15
327.22	1726.44
327.43	1681.38
327.64	1603.56
327.85	1763.30
328.07	1746.92
328.28	1812.45
328.49	1652.71
328.70	1744.87
328.92	1734.63
329.13	1683.43
329.34	1732.58
329.55	1804.26
329.76	1861.60
329.98	1628.14
330.19	1773.54
330.40	1671.14
330.61	1640.42
330.83	1716.20
331.04	1597.42
331.25	1685.48
331.46	1617.90
331.68	1628.14
331.89	1744.87
332.10	1724.39
332.31	1665.00
332.52	1724.39
332.74	1765.35
332.95	1595.37
333.16	1699.81
333.37	1751.01
333.58	1689.57
333.80	1693.67
334.01	1638.38
334.22	1656.81
334.43	1605.61
334.64	1615.85
334.86	1613.80
335.07	1658.85
335.28	1847.27
335.49	1615.85
335.70	1757.16
335.92	1802.21
336.13	1810.40
336.34	1732.58
336.55	1685.48
336.76	1701.86
336.98	1628.14
337.19	1730.53
337.40	1837.03
337.61	1794.02
337.82	1667.05
338.04	1724.39
338.25	1667.05
338.46	1669.09
338.67	1703.91
338.88	1648.61
339.09	1593.32
339.31	1742.82
339.52	1628.14
339.73	1646.57
339.94	1820.64
340.15	1767.40
340.36	1648.61
340.58	1755.11
340.79	1689.57
341.00	1701.86
341.21	1681.38
341.42	1791.97
341.63	1693.67
341.85	1826.79
342.06	1779.68
342.27	1605.61
342.48	1779.68
342.69	1722.34
342.90	1705.96
343.12	1755.11
343.33	1703.91
343.54	1703.91
343.75	1765.35
343.96	1744.87
344.17	1746.92
344.38	1771.49
344.60	1718.25
344.81	1687.53
345.02	1687.53
345.23	1779.68
345.44	1755.11
345.65	1732.58
345.86	1708.01
346.07	1718.25
346.29	1757.16
346.50	1718.25
346.71	1746.92
346.92	1705.96
347.13	1880.04
347.34	1703.91
347.55	1703.91
347.76	1781.73
347.98	1638.38
348.19	1662.95
348.40	1732.58
348.61	1656.81
348.82	1818.60
349.03	1656.81
349.24	1681.38
349.45	1791.97
349.66	1624.04
349.88	1681.38
350.09	1603.56
350.30	1755.11
350.51	1775.59
350.72	1701.86
350.93	1787.88
351.14	1714.15
351.35	1693.67
351.56	1724.39
351.77	1697.77
351.99	1757.16
352.20	1871.84
352.41	1802.21
352.62	1640.42
352.83	1714.15
353.04	1705.96
353.25	1695.72
353.46	1730.53
353.67	1816.55
353.88	1632.23
354.09	1771.49
354.30	1714.15
354.52	1832.93
354.73	1761.25
354.94	1722.34
355.15	1634.28
355.36	1900.52
355.57	1699.81
355.78	1785.83
355.99	1619.94
356.20	1677.29
356.41	1783.78
356.62	1685.48
356.83	1718.25
357.04	1785.83
357.25	1634.28
357.46	1761.25
357.68	1673.19
357.89	1708.01
358.10	1703.91
358.31	1730.53
358.52	1710.05
358.73	1599.46
358.94	1640.42
359.15	1662.95
359.36	1789.92
359.57	1734.63
359.78	1621.99
359.99	1724.39
360.20	1642.47
360.41	1683.43
360.62	1746.92
360.83	1712.10
361.04	1677.29
361.25	1683.43
361.46	1804.26
361.67	1701.86
361.88	1761.25
362.09	1675.24
362.30	1802.21
362.51	1669.09
362.72	1759.21
362.93	1794.02
363.14	1785.83
363.35	1730.53
363.56	1615.85
363.78	1787.88
363.99	1761.25
364.20	1681.38
364.41	1683.43
364.62	1892.32
364.83	1689.57
365.04	1751.01
365.25	1775.59
365.46	1832.93
365.67	1693.67
365.88	1689.57
366.09	1624.04
366.30	1665.00
366.51	1746.92
366.72	1626.09
366.93	1798.12
367.14	1681.38
367.35	1757.16
367.56	1652.71
367.77	1800.16
367.98	1669.09
368.18	1751.01
368.39	1726.44
368.60	1689.57
368.81	1757.16
369.02	1675.24
369.23	1699.81
369.44	1685.48
369.65	1718.25
369.86	1695.72
370.07	1734.63
370.28	1650.66
370.49	1748.97
370.70	1740.77
370.91	1568.74
371.12	1617.90
371.33	1718.25
371.54	1613.80
371.75	1781.73
371.96	1638.38
372.17	1701.86
372.38	1638.38
372.59	1734.63
372.80	1673.19
373.01	1689.57
373.22	1738.73
373.43	1724.39
373.64	1699.81
373.85	1777.64
374.06	1830.88
374.26	1783.78
374.47	1777.64
374.68	1834.98
374.89	1728.49
375.10	1685.48
375.31	1720.29
375.52	1779.68
375.73	1683.43
375.94	1699.81
376.15	1841.12
376.36	1671.14
376.57	1693.67
376.78	1652.71
376.99	1708.01
377.20	1787.88
377.40	1722.34
377.61	1800.16
377.82	1734.63
378.03	1796.07
378.24	1701.86
378.45	1744.87
378.66	1755.11
378.87	1642.47
379.08	1626.09
379.29	1667.05
379.50	1736.68
379.71	1685.48
379.91	1812.45
380.12	1734.63
380.33	1734.63
380.54	1710.05
380.75	1718.25
380.96	1738.73
381.17	1798.12
381.38	1660.90
381.59	1763.30
381.80	1708.01
382.00	1787.88
382.21	1738.73
382.42	1822.69
382.63	1865.70
382.84	1757.16
383.05	1726.44
383.26	1771.49
383.47	1705.96
383.68	1746.92
383.88	1742.82
384.09	1759.21
384.30	1771.49
384.51	1746.92
384.72	1718.25
384.93	1644.52
385.14	1705.96
385.35	1816.55
385.55	1701.86
385.76	1757.16
385.97	1724.39
386.18	1724.39
386.39	1697.77
386.60	1718.25
386.81	1648.61
387.02	1673.19
387.22	1673.19
387.43	1837.03
387.64	1800.16
387.85	1845.22
388.06	2238.43
388.27	4347.84
388.48	6582.17
388.68	8140.68
388.89	9432.94
389.10	9701.23
389.31	8425.34
389.52	7475.09
389.73	6561.69
389.93	6098.85
390.14	5715.88
390.35	5343.15
390.56	4501.44
390.77	3743.69
390.98	3028.95
391.18	2439.13
391.39	2127.84
391.60	1816.55
391.81	1839.08
392.02	1681.38
392.23	1851.36
392.43	1703.91
392.64	1759.21
392.85	1714.15
393.06	1826.79
393.27	1667.05
393.47	1755.11
393.68	1759.21
393.89	1708.01
394.10	1781.73
394.31	1691.62
394.52	1705.96
394.72	1726.44
394.93	1785.83
395.14	1665.00
395.35	1757.16
395.56	1638.38
395.76	1740.77
395.97	1757.16
396.18	1927.14
396.39	1873.89
396.60	1994.72
396.80	1847.27
397.01	1865.70
397.22	1796.07
397.43	1865.70
397.64	1816.55
397.84	1828.84
398.05	1957.86
398.26	1746.92
398.47	1802.21
398.67	1732.58
398.88	1665.00
399.09	1732.58
399.30	1691.62
399.51	1738.73
399.71	1578.98
399.92	1658.85
400.13	1716.20
400.34	1755.11
400.54	1710.05
400.75	1791.97
400.96	1705.96
401.17	1849.32
401.37	1771.49
401.58	1712.10
401.79	1705.96
402.00	1871.84
402.21	2056.16
402.41	1986.53
402.62	2027.49
402.83	2105.31
403.04	1959.91
403.24	2074.59
403.45	1853.41
403.66	1968.10
403.87	1865.70
404.07	1912.80
404.28	1886.18
404.49	1839.08
404.70	1775.59
404.90	1783.78
405.11	1781.73
405.32	1755.11
405.52	1648.61
405.73	1667.05
405.94	1714.15
406.15	1722.34
406.35	1761.25
406.56	1804.26
406.77	1779.68
406.98	1714.15
407.18	1691.62
407.39	1845.22
407.60	1732.58
407.80	1822.69
408.01	1665.00
408.22	1779.68
408.43	1712.10
408.63	1779.68
408.84	1765.35
409.05	1712.10
409.25	1658.85
409.46	1628.14
409.67	1675.24
409.88	1607.66
410.08	1759.21
410.29	1667.05
410.50	1794.02
410.70	1734.63
410.91	1736.68
411.12	1718.25
411.32	1738.73
411.53	1654.76
411.74	1810.40
411.95	1759.21
412.15	1769.44
412.36	1779.68
412.57	1843.17
412.77	1740.77
412.98	1697.77
413.19	1740.77
413.39	1730.53
413.60	1779.68
413.81	1751.01
414.01	1626.09
414.22	1861.60
414.43	1765.35
414.63	1671.14
414.84	1779.68
415.05	1677.29
415.25	1619.94
415.46	1691.62
415.67	1681.38
415.87	1771.49
416.08	1763.30
416.29	1658.85
416.49	1753.06
416.70	1724.39
416.91	1726.44
417.11	1693.67
417.32	1712.10
417.53	1761.25
417.73	1779.68
417.94	1708.01
418.15	1736.68
418.35	1699.81
418.56	1761.25
418.77	1822.69
418.97	1771.49
419.18	1794.02
419.38	1585.13
419.59	1712.10
419.80	1847.27
420.00	1693.67
420.21	1695.72
420.42	1775.59
420.62	1691.62
420.83	1662.95
421.04	1689.57
421.24	1693.67
421.45	1730.53
421.65	1748.97
421.86	1652.71
422.07	1697.77
422.27	1781.73
422.48	1761.25
422.69	1648.61
422.89	1730.53
423.10	1738.73
423.30	1595.37
423.51	1660.90
423.72	1691.62
423.92	1802.21
424.13	1681.38
424.33	1683.43
424.54	1738.73
424.75	1757.16
424.95	1851.36
425.16	1847.27
425.36	1779.68
425.57	1722.34
425.78	1703.91
425.98	1779.68
426.19	1642.47
426.39	1736.68
426.60	1685.48
426.81	1769.44
427.01	1755.11
427.22	1685.48
427.42	1615.85
427.63	1642.47
427.83	1712.10
428.04	1845.22
428.25	1732.58
428.45	1638.38
428.66	1822.69
428.86	1701.86
429.07	1687.53
429.28	1724.39
429.48	1656.81
429.69	1675.24
429.89	1712.10
430.10	1638.38
430.30	1740.77
430.51	1724.39
430.71	1578.98
430.92	1652.71
431.13	1687.53
431.33	1775.59
431.54	1767.40
431.74	1685.48
431.95	1808.36
432.15	1566.70
432.36	1794.02
432.56	1843.17
432.77	1783.78
432.98	1839.08
433.18	1738.73
433.39	1720.29
433.59	1701.86
433.80	1824.74
434.00	1841.12
434.21	1755.11
434.41	1685.48
434.62	1855.46
434.82	1656.81
435.03	1642.47
435.23	1708.01
435.44	1634.28
435.64	1697.77
435.85	1685.48
436.06	1763.30
436.26	1796.07
436.47	1722.34
436.67	1607.66
436.88	1761.25
437.08	1812.45
437.29	1877.99
437.49	1746.92
437.70	1839.08
437.90	1732.58
438.11	1832.93
438.31	1755.11
438.52	1914.85
438.72	1773.54
438.93	1845.22
439.13	1789.92
439.34	1834.98
439.54	1789.92
439.75	1804.26
439.95	1781.73
440.16	1771.49
440.36	1716.20
440.57	1738.73
440.77	1722.34
440.98	1765.35
441.18	1759.21
441.39	1703.91
441.59	1638.38
441.80	1875.94
442.00	1722.34
442.21	1777.64
442.41	1640.42
442.62	1781.73
442.82	1753.06
443.02	1824.74
443.23	1703.91
443.43	1681.38
443.64	1742.82
443.84	1705.96
444.05	1845.22
444.25	1730.53
444.46	1734.63
444.66	1699.81
444.87	1871.84
445.07	1679.33
445.28	1697.77
445.48	1775.59
445.69	1796.07
445.89	1816.55
446.09	1683.43
446.30	2062.30
446.50	2643.93
446.71	3729.35
446.91	4358.08
447.12	4724.66
447.32	4689.85
447.53	4282.30
447.73	4024.26
447.93	3459.02
448.14	3225.55
448.34	3207.12
448.55	2957.27
448.75	2807.77
448.96	2654.17
449.16	2389.98
449.36	2291.68
449.57	1988.58
449.77	1918.95
449.98	1798.12
450.18	1814.50
450.39	1796.07
450.59	1734.63
450.79	1763.30
451.00	1697.77
451.20	1767.40
451.41	1748.97
451.61	1753.06
451.81	1722.34
452.02	1712.10
452.22	1804.26
452.43	1665.00
452.63	1730.53
452.84	1695.72
453.04	1722.34
453.24	1742.82
453.45	1658.85
453.65	1789.92
453.86	1798.12
454.06	1738.73
454.26	1740.77
454.47	1697.77
454.67	1814.50
454.87	1728.49
455.08	1785.83
455.28	1828.84
455.49	1796.07
455.69	1697.77
455.89	1853.41
456.10	1785.83
456.30	1691.62
456.51	1810.40
456.71	1763.30
456.91	1728.49
457.12	1748.97
457.32	1757.16
457.52	1712.10
457.73	1845.22
457.93	1777.64
458.14	1656.81
458.34	1648.61
458.54	1765.35
458.75	1830.88
458.95	1697.77
459.15	1751.01
459.36	1775.59
459.56	1777.64
459.76	1753.06
459.97	1748.97
460.17	1740.77
460.37	1824.74
460.58	1693.67
460.78	1798.12
460.99	1681.38
461.19	1742.82
461.39	1726.44
461.60	1699.81
461.80	1718.25
462.00	1689.57
462.21	1773.54
462.41	1693.67
462.61	1681.38
462.82	1669.09
463.02	1845.22
463.22	1701.86
463.43	1779.68
463.63	1765.35
463.83	1791.97
464.04	1726.44
464.24	1742.82
464.44	1669.09
464.64	1687.53
464.85	1769.44
465.05	1826.79
465.25	1679.33
465.46	1671.14
465.66	1775.59
465.86	1753.06
466.07	1656.81
466.27	1728.49
466.47	1603.56
466.68	1603.56
466.88	1759.21
467.08	1800.16
467.29	1757.16
467.49	1812.45
467.69	1705.96
467.89	1705.96
468.10	1738.73
468.30	1775.59
468.50	1806.31
468.71	1828.84
468.91	1601.51
469.11	1820.64
469.31	1722.34
469.52	1597.42
469.72	1746.92
469.92	1898.47
470.13	1746.92
470.33	1714.15
470.53	1791.97
470.73	2070.50
470.94	2394.08
471.14	2357.21
471.34	2525.15
471.54	2439.13
471.75	2185.18
471.95	2090.98
472.15	2058.21
472.36	2101.22
472.56	2074.59
472.76	2029.54
472.96	1980.39
473.17	1951.71
473.37	1873.89
473.57	1841.12
473.77	1871.84
473.98	1824.74
474.18	1734.63
474.38	1923.04
474.58	1697.77
474.79	1742.82
474.99	1798.12
475.19	1834.98
475.39	1695.72
475.60	1728.49
475.80	1732.58
476.00	1761.25
476.20	1691.62
476.41	1722.34
476.61	1888.23
476.81	1791.97
477.01	1689.57
477.21	1837.03
477.42	1800.16
477.62	1724.39
477.82	1710.05
478.02	1726.44
478.23	1744.87
478.43	1662.95
478.63	1730.53
478.83	1771.49
479.03	1705.96
479.24	1875.94
479.44	1861.60
479.64	1791.97
479.84	1615.85
480.04	1681.38
480.25	1779.68
480.45	1632.23
480.65	1677.29
480.85	1759.21
481.06	1746.92
481.26	1724.39
481.46	1763.30
481.66	1800.16
481.86	1703.91
482.06	1726.44
482.27	1683.43
482.47	1677.29
482.67	1718.25
482.87	1716.20
483.07	1787.88
483.28	1730.53
483.48	1632.23
483.68	1755.11
483.88	1572.84
484.08	1615.85
484.29	1689.57
484.49	1667.05
484.69	1699.81
484.89	1777.64
485.09	1753.06
485.29	1714.15
485.50	1714.15
485.70	1728.49
485.90	1785.83
486.10	1708.01
486.30	1738.73
486.50	1787.88
486.71	1744.87
486.91	1740.77
487.11	1812.45
487.31	1673.19
487.51	1699.81
487.71	1650.66
487.91	1644.52
488.12	1642.47
488.32	1636.33
488.52	1673.19
488.72	1613.80
488.92	1722.34
489.12	1787.88
489.32	1806.31
489.53	1718.25
489.73	1642.47
489.93	1791.97
490.13	1796.07
490.33	1603.56
490.53	1830.88
490.73	1830.88
490.94	1636.33
491.14	1828.84
491.34	1826.79
491.54	2160.61
491.74	2523.10
491.94	2971.60
492.14	2969.55
492.34	2959.31
492.54	2785.24
492.75	2543.58
492.95	2451.42
493.15	2291.68
493.35	2299.87
493.55	2224.09
493.75	2109.41
493.95	2201.57
494.15	2029.54
494.35	1834.98
494.56	1931.23
494.76	1742.82
494.96	1837.03
495.16	1789.92
495.36	1722.34
495.56	1697.77
495.76	1712.10
495.96	1732.58
496.16	1720.29
496.36	1914.85
496.56	1673.19
496.77	1755.11
496.97	1771.49
497.17	1806.31
497.37	1677.29
497.57	1753.06
497.77	1794.02
497.97	1605.61
498.17	1761.25
498.37	1738.73
498.57	1755.11
498.77	1662.95
498.97	1816.55
499.17	1834.98
499.38	1785.83
499.58	1718.25
499.78	1853.41
499.98	1748.97
500.18	1732.58
500.38	1671.14
500.58	1955.81
500.78	2523.10
500.98	4624.31
501.18	5787.56
501.38	6768.54
501.58	7083.92
501.78	6631.32
501.98	5490.60
502.18	4990.90
502.38	4448.19
502.58	3962.82
502.78	3753.93
502.98	3635.14
503.18	3526.60
503.38	3209.17
503.59	2871.25
503.79	2639.83
503.99	2516.95
504.19	2310.11
504.39	2197.47
504.59	2306.01
504.79	2113.50
504.99	2017.25
505.19	1941.47
505.39	1976.29
505.59	1964.00
505.79	1908.71
505.99	1939.43
506.19	1761.25
506.39	1906.66
506.59	1765.35
506.79	1761.25
506.99	1898.47
507.19	1806.31
507.39	1781.73
507.59	1673.19
507.79	1689.57
507.99	1765.35
508.19	1656.81
508.39	1701.86
508.59	1738.73
508.79	1789.92
508.99	1828.84
509.19	1656.81
509.39	1843.17
509.59	1685.48
509.79	1722.34
509.99	1787.88
510.19	1757.16
510.39	1880.04
510.59	1730.53
510.79	1730.53
510.99	1644.52
511.19	1718.25
511.39	1814.50
511.59	1810.40
511.79	1814.50
511.99	1789.92
512.19	1810.40
512.38	1703.91
512.58	1718.25
512.78	1769.44
512.98	1751.01
513.18	1755.11
513.38	1662.95
513.58	1757.16
513.78	1650.66
513.98	1691.62
514.18	1740.77
514.38	1650.66
514.58	1691.62
514.78	1671.14
514.98	1720.29
515.18	1751.01
515.38	1691.62
515.58	1769.44
515.78	1759.21
515.98	1716.20
516.18	1763.30
516.38	1734.63
516.57	1742.82
516.77	1759.21
516.97	1855.46
517.17	1693.67
517.37	1636.33
517.57	1736.68
517.77	1724.39
517.97	1714.15
518.17	1748.97
518.37	1689.57
518.57	1685.48
518.77	1699.81
518.97	1742.82
519.16	1798.12
519.36	1794.02
519.56	1824.74
519.76	1703.91
519.96	1740.77
520.16	1804.26
520.36	1693.67
520.56	1798.12
520.76	1769.44
520.96	1773.54
521.16	1757.16
521.35	1826.79
521.55	1800.16
521.75	1765.35
521.95	1714.15
522.15	1765.35
522.35	1703.91
522.55	1687.53
522.75	1738.73
522.95	1800.16
523.14	1699.81
523.34	1785.83
523.54	1763.30
523.74	1740.77
523.94	1812.45
524.14	1658.85
524.34	1642.47
524.54	1871.84
524.73	1636.33
524.93	1763.30
525.13	1777.64
525.33	1716.20
525.53	1929.19
525.73	1791.97
525.93	1773.54
526.13	1783.78
526.32	1710.05
526.52	1853.41
526.72	1816.55
526.92	1718.25
527.12	1738.73
527.32	1642.47
527.52	1730.53
527.71	1783.78
527.91	1771.49
528.11	1712.10
528.31	1701.86
528.51	1679.33
528.71	1804.26
528.90	1767.40
529.10	1808.36
529.30	1808.36
529.50	1642.47
529.70	1708.01
529.90	1748.97
530.09	1710.05
530.29	1558.50
530.49	1689.57
530.69	1851.36
530.89	1712.10
531.09	1720.29
531.28	1722.34
531.48	1861.60
531.68	1779.68
531.88	1773.54
532.08	1712.10
532.28	1755.11
532.47	1777.64
532.67	1787.88
532.87	1828.84
533.07	1730.53
533.27	1742.82
533.46	1765.35
533.66	1808.36
533.86	1763.30
534.06	1701.86
534.26	1722.34
534.45	1648.61
534.65	1871.84
534.85	1753.06
535.05	1699.81
535.25	1783.78
535.44	1697.77
535.64	1720.29
535.84	1718.25
536.04	1679.33
536.24	1689.57
536.43	1722.34
536.63	1718.25
536.83	1748.97
537.03	1816.55
537.22	1628.14
537.42	1558.50
537.62	1701.86
537.82	1673.19
538.02	1769.44
538.21	1798.12
538.41	1880.04
538.61	1728.49
538.81	1794.02
539.00	1914.85
539.20	1662.95
539.40	1673.19
539.60	1730.53
539.79	1722.34
539.99	1724.39
540.19	1673.19
540.39	1757.16
540.58	1753.06
540.78	1755.11
540.98	1767.40
541.18	1730.53
541.37	1832.93
541.57	1720.29
541.77	1722.34
541.97	1722.34
542.16	1679.33
542.36	1740.77
542.56	1755.11
542.76	1869.80
542.95	1804.26
543.15	1712.10
543.35	1791.97
543.54	1712.10
543.74	1757.16
543.94	1787.88
544.14	1742.82
544.33	1837.03
544.53	1773.54
544.73	1742.82
544.93	1689.57
545.12	1800.16
545.32	1724.39
545.52	1718.25
545.71	1654.76
545.91	1781.73
546.11	1673.19
546.30	1683.43
546.50	1734.63
546.70	1843.17
546.90	1796.07
547.09	1693.67
547.29	1787.88
547.49	1822.69
547.68	1728.49
547.88	1654.76
548.08	1714.15
548.27	2203.61
548.47	1689.57
548.67	1761.25
548.87	1851.36
549.06	1697.77
549.26	1806.31
549.46	1714.15
549.65	1619.94
549.85	1720.29
550.05	1814.50
550.24	1728.49
550.44	1724.39
550.64	1761.25
550.83	1740.77
551.03	1748.97
551.23	1849.32
551.42	1701.86
551.62	1728.49
551.82	1705.96
552.01	1665.00
552.21	1843.17
552.41	1724.39
552.60	1830.88
552.80	1757.16
553.00	1712.10
553.19	1677.29
553.39	1804.26
553.59	1689.57
553.78	1740.77
553.98	1773.54
554.17	1656.81
554.37	1771.49
554.57	1820.64
554.76	1675.24
554.96	1671.14
555.16	1789.92
555.35	1808.36
555.55	1714.15
555.75	1777.64
555.94	1785.83
556.14	1665.00
556.33	1816.55
556.53	1701.86
556.73	1720.29
556.92	1724.39
557.12	1779.68
557.32	1880.04
557.51	1779.68
557.71	1738.73
557.90	1867.75
558.10	1839.08
558.30	1722.34
558.49	1744.87
558.69	1736.68
558.88	1814.50
559.08	1724.39
559.28	1767.40
559.47	1701.86
559.67	1814.50
559.86	1892.32
560.06	1701.86
560.26	1755.11
560.45	1710.05
560.65	1755.11
560.84	1806.31
561.04	1791.97
561.24	1791.97
561.43	1703.91
561.63	1873.89
561.82	1837.03
562.02	1822.69
562.22	1705.96
562.41	1681.38
562.61	1710.05
562.80	1673.19
563.00	1873.89
563.19	1775.59
563.39	1779.68
563.59	1785.83
563.78	1689.57
563.98	1701.86
564.17	1675.24
564.37	1652.71
564.56	1703.91
564.76	1658.85
564.96	1781.73
565.15	1724.39
565.35	1871.84
565.54	1708.01
565.74	1837.03
565.93	1722.34
566.13	1726.44
566.32	1783.78
566.52	1824.74
566.71	1730.53
566.91	1802.21
567.11	1691.62
567.30	1757.16
567.50	1843.17
567.69	1796.07
567.89	1730.53
568.08	1652.71
568.28	1773.54
568.47	1667.05
568.67	1751.01
568.86	1708.01
569.06	1779.68
569.25	1716.20
569.45	1681.38
569.64	1705.96
569.84	1730.53
570.04	1751.01
570.23	1720.29
570.43	1718.25
570.62	1761.25
570.82	1828.84
571.01	1695.72
571.21	1669.09
571.40	1724.39
571.60	1746.92
571.79	1771.49
571.99	1740.77
572.18	1652.71
572.38	1742.82
572.57	1728.49
572.77	1808.36
572.96	1857.51
573.16	1775.59
573.35	1667.05
573.55	1814.50
573.74	1820.64
573.94	1730.53
574.13	1730.53
574.33	1861.60
574.52	1845.22
574.71	1740.77
574.91	1728.49
575.10	1685.48
575.30	1712.10
575.49	1665.00
575.69	1744.87
575.88	1744.87
576.08	1714.15
576.27	1830.88
576.47	1726.44
576.66	1798.12
576.86	1904.61
577.05	1673.19
577.25	1810.40
577.44	1861.60
577.64	1730.53
577.83	1849.32
578.02	1710.05
578.22	1820.64
578.41	1861.60
578.61	1724.39
578.80	1665.00
579.00	1791.97
579.19	1718.25
579.39	1910.75
579.58	1834.98
579.77	1693.67
579.97	1853.41
580.16	1814.50
580.36	1834.98
580.55	1822.69
580.75	1820.64
580.94	1687.53
581.13	1837.03
581.33	1869.80
581.52	1771.49
581.72	1923.04
581.91	1804.26
582.11	1779.68
582.30	1781.73
582.49	1722.34
582.69	1787.88
582.88	1767.40
583.08	1699.81
583.27	1824.74
583.47	1689.57
583.66	1742.82
583.85	1761.25
584.05	1775.59
584.24	1787.88
584.44	1861.60
584.63	1798.12
584.82	1802.21
585.02	1853.41
585.21	1740.77
585.41	1882.08
585.60	1812.45
585.79	1976.29
585.99	1871.84
586.18	1925.09
586.37	2193.37
586.57	3411.92
586.76	9742.19
586.96	24133.26
587.15	33689.09
587.34	39583.14
587.54	41690.50
587.73	36234.71
587.93	25732.73
588.12	21171.90
588.31	17929.97
588.51	16254.73
588.70	14835.49
588.89	13825.84
589.09	12361.54
589.28	10893.15
589.47	9381.74
589.67	7993.22
589.86	6399.90
590.06	4917.17
590.25	3837.89
590.44	2987.99
590.64	2570.20
590.83	2246.62
591.02	2076.64
591.22	2004.96
591.41	1869.80
591.60	1826.79
591.80	1912.80
591.99	1730.53
592.18	1822.69
592.38	1927.14
592.57	1769.44
592.76	1818.60
592.96	1814.50
593.15	1791.97
593.34	1804.26
593.54	1746.92
593.73	1759.21
593.92	1802.21
594.12	1767.40
594.31	1759.21
594.50	1822.69
594.70	1789.92
594.89	1888.23
595.08	1763.30
595.28	1816.55
595.47	1927.14
595.66	1832.93
595.86	1681.38
596.05	1755.11
596.24	1738.73
596.43	1738.73
596.63	1777.64
596.82	1789.92
597.01	1808.36
597.21	1863.65
597.40	1828.84
597.59	1861.60
597.79	1773.54
597.98	1705.96
598.17	1794.02
598.36	1761.25
598.56	1763.30
598.75	1742.82
598.94	1751.01
599.14	1722.34
599.33	1677.29
599.52	1804.26
599.71	1763.30
599.91	1814.50
600.10	1748.97
600.29	1740.77
600.48	1826.79
600.68	1828.84
600.87	1740.77
601.06	1761.25
601.26	1751.01
601.45	1736.68
601.64	1683.43
601.83	1812.45
602.03	1746.92
602.22	1693.67
602.41	1771.49
602.60	1880.04
602.80	1830.88
602.99	1771.49
603.18	1718.25
603.37	1687.53
603.57	1806.31
603.76	1763.30
603.95	1806.31
604.14	1681.38
604.34	1632.23
604.53	1708.01
604.72	1800.16
604.91	1724.39
605.10	1769.44
605.30	1699.81
605.49	1869.80
605.68	1757.16
605.87	1814.50
606.07	1650.66
606.26	1744.87
606.45	1789.92
606.64	1767.40
606.84	1751.01
607.03	1734.63
607.22	1748.97
607.41	1775.59
607.60	1673.19
607.80	1753.06
607.99	1738.73
608.18	1800.16
608.37	1665.00
608.56	1679.33
608.76	1748.97
608.95	1894.37
609.14	1789.92
609.33	1816.55
609.52	1789.92
609.72	1777.64
609.91	1771.49
610.10	1796.07
610.29	1828.84
610.48	1757.16
610.68	1693.67
610.87	1763.30
611.06	1802.21
611.25	1746.92
611.44	1814.50
611.63	1652.71
611.83	1738.73
612.02	1738.73
612.21	1888.23
612.40	1701.86
612.59	1681.38
612.79	1740.77
612.98	1716.20
613.17	1708.01
613.36	1755.11
613.55	1808.36
613.74	1726.44
613.93	1699.81
614.13	1705.96
614.32	1736.68
614.51	1705.96
614.70	1738.73
614.89	1687.53
615.08	1791.97
615.28	2015.20
615.47	1693.67
615.66	1769.44
615.85	1744.87
616.04	1845.22
616.23	1748.97
616.42	1675.24
616.62	1724.39
616.81	1716.20
617.00	1755.11
617.19	1710.05
617.38	1757.16
617.57	1708.01
617.76	1755.11
617.95	1777.64
618.15	1685.48
618.34	1763.30
618.53	1697.77
618.72	1775.59
618.91	1849.32
619.10	1865.70
619.29	1777.64
619.48	1771.49
619.68	1710.05
619.87	1662.95
620.06	1646.57
620.25	1726.44
620.44	1697.77
620.63	1761.25
620.82	1691.62
621.01	1744.87
621.20	1718.25
621.39	1695.72
621.59	1775.59
621.78	1646.57
621.97	1748.97
622.16	1687.53
622.35	1701.86
622.54	1839.08
622.73	1705.96
622.92	1642.47
623.11	1810.40
623.30	1716.20
623.49	1710.05
623.68	1701.86
623.88	1783.78
624.07	1675.24
624.26	1720.29
624.45	1773.54
624.64	1822.69
624.83	1724.39
625.02	1720.29
625.21	1759.21
625.40	1800.16
625.59	1767.40
625.78	1685.48
625.97	1775.59
626.16	1798.12
626.35	1734.63
626.54	1773.54
626.74	1857.51
626.93	1789.92
627.12	1814.50
627.31	1771.49
627.50	1822.69
627.69	1732.58
627.88	1646.57
628.07	1718.25
628.26	1632.23
628.45	1669.09
628.64	1726.44
628.83	1685.48
629.02	1673.19
629.21	1802.21
629.40	1681.38
629.59	1677.29
629.78	1730.53
629.97	1779.68
630.16	1701.86
630.35	1736.68
630.54	1734.63
630.73	1665.00
630.92	1765.35
631.11	1701.86
631.30	1730.53
631.49	1746.92
631.68	1730.53
631.87	1740.77
632.06	1697.77
632.25	1906.66
632.44	1718.25
632.63	1794.02
632.82	1585.13
633.01	1677.29
633.20	1757.16
633.39	1593.32
633.58	1583.08
633.77	1796.07
633.96	1775.59
634.15	1759.21
634.34	1748.97
634.53	1691.62
634.72	1748.97
634.91	1675.24
635.10	1787.88
635.29	1789.92
635.48	1785.83
635.67	1675.24
635.86	1617.90
636.05	1814.50
636.24	1701.86
636.43	1742.82
636.62	1812.45
636.81	1548.26
637.00	1705.96
637.19	1730.53
637.38	1816.55
637.57	1679.33
637.76	1650.66
637.95	1828.84
638.14	1714.15
638.33	1665.00
638.52	1708.01
638.71	1681.38
638.89	1693.67
639.08	1761.25
639.27	1728.49
639.46	1669.09
639.65	1773.54
639.84	1808.36
640.03	1763.30
640.22	1669.09
640.41	1902.56
640.60	1691.62
640.79	1638.38
640.98	1685.48
641.17	1785.83
641.36	1761.25
641.55	1742.82
641.74	1728.49
641.92	1779.68
642.11	1656.81
642.30	1714.15
642.49	1621.99
642.68	1689.57
642.87	1662.95
643.06	1751.01
643.25	1652.71
643.44	1671.14
643.63	1705.96
643.82	1728.49
644.00	1636.33
644.19	1740.77
644.38	1691.62
644.57	1781.73
644.76	1787.88
644.95	1738.73
645.14	1796.07
645.33	1742.82
645.52	1671.14
645.71	1636.33
645.89	1732.58
646.08	1738.73
646.27	1724.39
646.46	1939.43
646.65	1587.18
646.84	1685.48
647.03	1708.01
647.22	1796.07
647.40	1722.34
647.59	1732.58
647.78	1642.47
647.97	1611.75
648.16	1669.09
648.35	1820.64
648.54	1800.16
648.73	1687.53
648.91	1763.30
649.10	1701.86
649.29	1701.86
649.48	1730.53
649.67	1732.58
649.86	1773.54
650.05	1665.00
650.23	1769.44
650.42	1636.33
650.61	1708.01
650.80	1703.91
650.99	1857.51
651.18	1724.39
651.36	1814.50
651.55	1665.00
651.74	1699.81
651.93	1722.34
652.12	1767.40
652.31	1705.96
652.49	1640.42
652.68	1687.53
652.87	1845.22
653.06	1681.38
653.25	1877.99
653.44	1730.53
653.62	1816.55
653.81	1724.39
654.00	1753.06
654.19	1771.49
654.38	1877.99
654.56	1816.55
654.75	1742.82
654.94	1724.39
655.13	1708.01
655.32	1671.14
655.51	1730.53
655.69	1589.22
655.88	1781.73
656.07	1667.05
656.26	1755.11
656.45	1558.50
656.63	1679.33
656.82	1734.63
657.01	1849.32
657.20	1712.10
657.38	1806.31
657.57	1691.62
657.76	1640.42
657.95	1744.87
658.14	1714.15
658.32	1687.53
658.51	1652.71
658.70	1738.73
658.89	1783.78
659.08	1714.15
659.26	1855.46
659.45	1652.71
659.64	1665.00
659.83	1716.20
660.01	1877.99
660.20	1714.15
660.39	1761.25
660.58	1566.70
660.76	1798.12
660.95	1607.66
661.14	1742.82
661.33	1716.20
661.51	1607.66
661.70	1656.81
661.89	1767.40
662.08	1689.57
662.26	1617.90
662.45	1685.48
662.64	1869.80
662.83	1701.86
663.01	1644.52
663.20	1701.86
663.39	1859.56
663.58	1701.86
663.76	1724.39
663.95	1808.36
664.14	1656.81
664.32	1703.91
664.51	1757.16
664.70	1626.09
664.89	1734.63
665.07	1632.23
665.26	1773.54
665.45	1746.92
665.64	1761.25
665.82	1748.97
666.01	1837.03
666.20	1730.53
666.38	1777.64
666.57	1841.12
666.76	2183.13
666.95	4556.73
667.13	10237.80
667.32	15310.61
667.51	17614.58
667.69	18786.02
667.88	17389.30
668.07	12144.45
668.25	9394.03
668.44	8116.10
668.63	7272.34
668.81	6813.59
669.00	6018.98
669.19	5785.51
669.38	5091.25
669.56	4646.84
669.75	4011.97
669.94	3407.82
670.12	2906.07
670.31	2617.30
670.50	2263.01
670.68	2117.60
670.87	1920.99
671.06	1748.97
671.24	1800.16
671.43	1826.79
671.62	1757.16
671.80	1683.43
671.99	1714.15
672.18	1701.86
672.36	1730.53
672.55	1779.68
672.74	1730.53
672.92	1656.81
673.11	1718.25
673.29	1677.29
673.48	1816.55
673.67	1765.35
673.85	1767.40
674.04	1701.86
674.23	1736.68
674.41	1834.98
674.60	1673.19
674.79	1593.32
674.97	1646.57
675.16	1763.30
675.34	1800.16
675.53	1671.14
675.72	1738.73
675.90	1851.36
676.09	1660.90
676.28	1753.06
676.46	1669.09
676.65	1789.92
676.83	1695.72
677.02	1656.81
677.21	1734.63
677.39	1718.25
677.58	1705.96
677.77	1728.49
677.95	1671.14
678.14	1662.95
678.32	1751.01
678.51	1679.33
678.70	1773.54
678.88	1734.63
679.07	1718.25
679.25	1755.11
679.44	1722.34
679.63	1673.19
679.81	1658.85
680.00	1816.55
680.18	1736.68
680.37	1728.49
680.55	1681.38
680.74	1648.61
680.93	1587.18
681.11	1785.83
681.30	1722.34
681.48	1753.06
681.67	1742.82
681.85	1652.71
682.04	1681.38
682.23	1802.21
682.41	1787.88
682.60	1746.92
682.78	1724.39
682.97	1646.57
683.15	1669.09
683.34	1660.90
683.53	1787.88
683.71	1607.66
683.90	1794.02
684.08	1791.97
684.27	1640.42
684.45	1800.16
684.64	1822.69
684.82	1630.18
685.01	1736.68
685.19	1683.43
685.38	1845.22
685.57	1681.38
685.75	1671.14
685.94	1671.14
686.12	1728.49
686.31	1656.81
686.49	1828.84
686.68	1671.14
686.86	1714.15
687.05	1755.11
687.23	1816.55
687.42	1679.33
687.60	1732.58
687.79	1757.16
687.97	1789.92
688.16	1781.73
688.34	1816.55
688.53	1626.09
688.71	1751.01
688.90	1769.44
689.08	1748.97
689.27	1648.61
689.45	1757.16
689.64	1708.01
689.82	1697.77
690.01	1773.54
690.19	1765.35
690.38	1708.01
690.56	1800.16
690.75	1673.19
690.93	1656.81
691.12	1679.33
691.30	1730.53
691.49	1613.80
691.67	1777.64
691.86	1757.16
692.04	1640.42
692.23	1708.01
692.41	1695.72
692.60	1787.88
692.78	1761.25
692.97	1714.15
693.15	1806.31
693.34	1810.40
693.52	1787.88
693.71	1689.57
693.89	1691.62
694.08	1644.52
694.26	1804.26
694.44	1773.54
694.63	1767.40
694.81	1660.90
695.00	1683.43
695.18	1718.25
695.37	1888.23
695.55	1773.54
695.74	1740.77
695.92	1665.00
696.10	1798.12
696.29	1642.47
696.47	1665.00
696.66	1613.80
696.84	1611.75
697.03	1685.48
697.21	1822.69
697.40	2357.21
697.58	1812.45
697.76	1619.94
697.95	1667.05
698.13	1648.61
698.32	1677.29
698.50	1744.87
698.68	1699.81
698.87	1716.20
699.05	1828.84
699.24	1716.20
699.42	1716.20
699.61	1751.01
699.79	1779.68
699.97	1722.34
700.16	1742.82
700.34	1689.57
700.53	1701.86
700.71	1822.69
700.89	1779.68
701.08	1644.52
701.26	1714.15
701.45	2154.46
701.63	1705.96
701.81	1667.05
702.00	1757.16
702.18	1705.96
702.37	1716.20
702.55	1718.25
702.73	1738.73
702.92	1638.38
703.10	1810.40
703.28	1634.28
703.47	1705.96
703.65	1755.11
703.84	1736.68
704.02	1689.57
704.20	1775.59
704.39	1726.44
704.57	1695.72
704.75	1798.12
704.94	1759.21
705.12	1746.92
705.30	1746.92
705.49	2269.15
705.67	4210.62
705.86	9219.96
706.04	12263.24
706.22	14169.90
706.41	15157.02
706.59	13567.79
706.77	9535.34
706.96	7272.34
707.14	6561.69
707.32	5728.17
707.51	5457.84
707.69	4958.13
707.87	4196.29
708.06	3411.92
708.24	2973.65
708.42	2473.95
708.61	2236.38
708.79	1873.89
708.97	1859.56
709.16	1814.50
709.34	1796.07
709.52	1738.73
709.71	1712.10
709.89	1800.16
710.07	1667.05
710.26	1708.01
710.44	1734.63
710.62	1763.30
710.80	1722.34
710.99	1785.83
711.17	1781.73
711.35	1650.66
711.54	1642.47
711.72	1775.59
711.90	1783.78
712.09	1744.87
712.27	1730.53
712.45	1691.62
712.63	1755.11
712.82	1691.62
713.00	1771.49
713.18	1796.07
713.37	1789.92
713.55	1789.92
713.73	1689.57
713.91	1642.47
714.10	1675.24
714.28	1705.96
714.46	1734.63
714.65	1720.29
714.83	1812.45
715.01	1675.24
715.19	1685.48
715.38	1675.24
715.56	1740.77
715.74	1675.24
715.92	1675.24
716.11	1763.30
716.29	1535.98
716.47	1697.77
716.65	1695.72
716.84	1609.70
717.02	1769.44
717.20	1685.48
717.38	1593.32
717.57	1746.92
717.75	1765.35
717.93	1763.30
718.11	1806.31
718.30	1669.09
718.48	1703.91
718.66	1787.88
718.84	1791.97
719.03	1675.24
719.21	1632.23
719.39	1783.78
719.57	1671.14
719.75	1779.68
719.94	1640.42
720.12	1652.71
720.30	1675.24
720.48	1748.97
720.67	1699.81
720.85	1677.29
721.03	1660.90
721.21	1679.33
721.39	1814.50
721.58	1716.20
721.76	1757.16
721.94	1730.53
722.12	1796.07
722.30	1736.68
722.49	1773.54
722.67	1708.01
722.85	1740.77
723.03	1607.66
723.21	1642.47
723.40	1722.34
723.58	1767.40
723.76	1732.58
723.94	1785.83
724.12	1726.44
724.30	1837.03
724.49	1783.78
724.67	1632.23
724.85	1812.45
725.03	1726.44
725.21	1779.68
725.40	1781.73
725.58	1689.57
725.76	1787.88
725.94	1785.83
726.12	1677.29
726.30	1744.87
726.49	1720.29
726.67	1695.72
726.85	1777.64
727.03	1826.79
727.21	2129.89
727.39	2906.07
727.57	3680.20
727.76	4130.75
727.94	4427.71
728.12	4274.11
728.30	3770.31
728.48	2987.99
728.66	2713.56
728.84	2598.87
729.03	2361.31
729.21	2144.22
729.39	2015.20
729.57	1900.52
729.75	1839.08
729.93	1841.12
730.11	1757.16
730.30	1732.58
730.48	1728.49
730.66	1785.83
730.84	1716.20
731.02	1742.82
731.20	1708.01
731.38	1738.73
731.56	1605.61
731.74	1638.38
731.93	1691.62
732.11	1695.72
732.29	1699.81
732.47	1736.68
732.65	1773.54
732.83	1832.93
733.01	1732.58
733.19	1689.57
733.37	1804.26
733.56	1689.57
733.74	1673.19
733.92	1843.17
734.10	1708.01
734.28	1708.01
734.46	1581.03
734.64	1740.77
734.82	1753.06
735.00	1746.92
735.18	1740.77
735.36	1658.85
735.54	1798.12
735.73	1742.82
735.91	1740.77
736.09	1777.64
736.27	1736.68
736.45	1751.01
736.63	1603.56
736.81	1708.01
736.99	1828.84
737.17	1875.94
737.35	1697.77
737.53	1728.49
737.71	1644.52
737.89	1806.31
738.07	1677.29
738.25	1628.14
738.43	1660.90
738.61	1617.90
738.80	1701.86
738.98	1673.19
739.16	1648.61
739.34	1624.04
739.52	1810.40
739.70	1687.53
739.88	1789.92
740.06	1761.25
740.24	1544.17
740.42	1839.08
740.60	1603.56
740.78	1724.39
740.96	1576.94
741.14	1769.44
741.32	1675.24
741.50	1644.52
741.68	1853.41
741.86	1839.08
742.04	1658.85
742.22	1671.14
742.40	1726.44
742.58	1712.10
742.76	1679.33
742.94	1759.21
743.12	1673.19
743.30	1679.33
743.48	1710.05
743.66	1636.33
743.84	1761.25
744.02	1644.52
744.20	1705.96
744.38	1660.90
744.56	1656.81
744.74	1845.22
744.92	1732.58
745.10	1804.26
745.28	1777.64
745.46	1800.16
745.64	1728.49
745.82	1789.92
746.00	1755.11
746.18	1703.91
746.36	1716.20
746.54	1757.16
746.72	1765.35
746.90	1718.25
747.08	1798.12
747.26	1746.92
747.44	1718.25
747.62	1777.64
747.80	1767.40
747.98	1771.49
748.15	1714.15
748.33	1904.61
748.51	1644.52
748.69	1728.49
748.87	1568.74
749.05	1740.77
749.23	1757.16
749.41	1763.30
749.59	1689.57
749.77	1787.88
749.95	1675.24
750.13	1669.09
750.31	1742.82
750.49	1665.00
750.67	1740.77
750.85	1771.49
751.03	1718.25
751.20	1832.93
751.38	1748.97
751.56	1681.38
751.74	1748.97
751.92	1660.90
752.10	1609.70
752.28	1732.58
752.46	1705.96
752.64	1689.57
752.82	1658.85
753.00	1787.88
753.18	1650.66
753.35	1568.74
753.53	1681.38
753.71	1697.77
753.89	1783.78
754.07	1683.43
754.25	1757.16
754.43	1718.25
754.61	1660.90
754.79	1677.29
754.97	1679.33
755.14	1785.83
755.32	1632.23
755.50	1789.92
755.68	1687.53
755.86	1632.23
756.04	1716.20
756.22	1675.24
756.40	1712.10
756.57	1900.52
756.75	1658.85
756.93	1775.59
757.11	1740.77
757.29	1644.52
757.47	1728.49
757.65	1583.08
757.82	1615.85
758.00	1617.90
758.18	1693.67
758.36	1683.43
758.54	1800.16
758.72	1685.48
758.90	1796.07
759.07	1736.68
759.25	1665.00
759.43	1724.39
759.61	1552.36
759.79	2265.05
759.97	1677.29
760.15	1671.14
760.32	1740.77
760.50	1656.81
760.68	1814.50
760.86	1644.52
761.04	1814.50
761.22	1804.26
761.39	1742.82
761.57	1710.05
761.75	1683.43
761.93	1753.06
762.11	1740.77
762.28	1656.81
762.46	1640.42
762.64	1742.82
762.82	1609.70
763.00	1734.63
763.18	1802.21
763.35	1673.19
763.53	1722.34
763.71	1722.34
763.89	1642.47
764.07	1695.72
764.24	1705.96
764.42	1746.92
764.60	1667.05
764.78	1732.58
764.96	1816.55
765.13	1746.92
765.31	1781.73
765.49	1748.97
765.67	1544.17
765.84	1712.10
766.02	1646.57
766.20	1583.08
766.38	1724.39
766.56	1701.86
766.73	1771.49
766.91	1607.66
767.09	1722.34
767.27	1787.88
767.44	1667.05
767.62	1714.15
767.80	1714.15
767.98	1685.48
768.15	1669.09
768.33	1753.06
768.51	1822.69
768.69	1726.44
768.87	1699.81
769.04	1675.24
769.22	1916.90
769.40	1841.12
769.58	1822.69
769.75	1703.91
769.93	1759.21
770.11	1791.97
770.28	1703.91
770.46	1746.92
770.64	1802.21
770.82	1718.25
770.99	1716.20
771.17	1746.92
771.35	1665.00
771.53	1662.95
771.70	1642.47
771.88	1710.05
772.06	1714.15
772.23	1667.05
772.41	1802.21
772.59	1626.09
772.77	1607.66
772.94	1656.81
773.12	1730.53
773.30	1767.40
773.47	1703.91
773.65	1660.90
773.83	1798.12
774.01	1728.49
774.18	1681.38
774.36	1640.42
774.54	1656.81
774.71	1720.29
774.89	1683.43
775.07	1644.52
775.24	1730.53
775.42	1656.81
775.60	1916.90
775.78	1642.47
775.95	1632.23
776.13	1626.09
776.31	1599.46
776.48	1673.19
776.66	1765.35
776.84	1748.97
777.01	1638.38
777.19	1642.47
777.37	1658.85
777.54	1818.60
777.72	1779.68
777.90	1742.82
778.07	1675.24
778.25	1918.95
778.43	1783.78
778.60	1640.42
778.78	1757.16
778.96	1826.79
779.13	1697.77
779.31	1718.25
779.49	1687.53
779.66	1794.02
779.84	1697.77
780.01	1705.96
780.19	1650.66
780.37	1757.16
780.54	1730.53
780.72	1675.24
780.90	1722.34
781.07	1650.66
781.25	1654.76
781.43	1755.11
781.60	1736.68
781.78	1789.92
781.95	1765.35
782.13	1591.27
782.31	1726.44
782.48	1619.94
782.66	1710.05
782.83	1787.88
783.01	1730.53
783.19	1763.30
783.36	1746.92
783.54	1644.52
783.72	1730.53
783.89	1679.33
784.07	1751.01
784.24	1724.39
784.42	1773.54
784.60	1697.77
784.77	1740.77
784.95	1615.85
785.12	1689.57
785.30	1693.67
785.47	1701.86
785.65	1601.51
785.83	1667.05
786.00	1611.75
786.18	1650.66
786.35	1644.52
786.53	1673.19
786.71	1781.73
786.88	1796.07
787.06	1716.20
787.23	1746.92
787.41	1615.85
787.58	1742.82
787.76	1728.49
787.94	1689.57
788.11	1697.77
788.29	1681.38
788.46	1763.30
788.64	1648.61
788.81	1671.14
788.99	1689.57
789.16	1681.38
789.34	1669.09
789.52	1671.14
789.69	1681.38
789.87	1605.61
790.04	1708.01
790.22	1701.86
790.39	1871.84
790.57	1626.09
790.74	1587.18
790.92	1859.56
791.09	1615.85
791.27	1710.05
791.44	1785.83
791.62	1691.62
791.79	1812.45
791.97	1732.58
792.15	1855.46
792.32	1628.14
792.50	1859.56
792.67	1816.55
792.85	1732.58
793.02	1708.01
793.20	1691.62
793.37	1630.18
793.55	1683.43
793.72	1634.28
793.90	1714.15
794.07	1681.38
794.25	1656.81
794.42	1730.53
794.60	1722.34
794.77	1718.25
794.95	1732.58
795.12	1767.40
795.30	1671.14
795.47	1593.32
795.65	1877.99
795.82	1669.09
796.00	1654.76
796.17	1685.48
796.34	1755.11
796.52	1724.39
796.69	1689.57
796.87	1810.40
797.04	1763.30
797.22	1667.05
797.39	1759.21
797.57	1853.41
797.74	1720.29
797.92	1703.91
798.09	1689.57
798.27	1779.68
798.44	1744.87
798.62	1648.61
798.79	1660.90
798.96	1695.72
799.14	1691.62
799.31	1869.80
799.49	1667.05
799.66	1671.14
799.84	1736.68
800.01	1607.66
800.19	1728.49
800.36	1636.33
800.53	1734.63
800.71	1773.54
800.88	1822.69
801.06	1669.09
801.23	1628.14
801.41	1669.09
801.58	1740.77
801.75	1587.18
801.93	1703.91
802.10	1734.63
802.28	1761.25
802.45	1746.92
802.63	1751.01
802.80	1755.11
802.97	1730.53
803.15	1761.25
803.32	1677.29
803.50	1691.62
803.67	1681.38
803.84	1669.09
804.02	1738.73
804.19	1720.29
804.37	1593.32
804.54	1662.95
804.71	1689.57
804.89	1718.25
805.06	1683.43
805.24	1710.05
805.41	1593.32
805.58	1624.04
805.76	1837.03
805.93	1730.53
806.10	1837.03
806.28	1744.87
806.45	1734.63
806.63	1726.44
806.80	1781.73
806.97	1642.47
807.15	1656.81
807.32	1677.29
807.49	1703.91
807.67	1613.80
807.84	1724.39
808.01	1652.71
808.19	1826.79
808.36	1871.84
808.54	1656.81
808.71	1669.09
808.88	1746.92
809.06	1656.81
809.23	1787.88
809.40	1685.48
809.58	1812.45
809.75	1732.58
809.92	1693.67
810.10	1722.34
810.27	1712.10
810.44	1695.72
810.62	1765.35
810.79	1683.43
810.96	1638.38
811.14	1685.48
811.31	1705.96
811.48	1730.53
811.66	1722.34
811.83	1841.12
812.00	1798.12
812.18	1777.64
812.35	1804.26
812.52	1673.19
812.69	1732.58
812.87	1746.92
813.04	1660.90
813.21	1720.29
813.39	1667.05
813.56	1712.10
813.73	1751.01
813.91	1673.19
814.08	1771.49
814.25	1634.28
814.42	1669.09
814.60	1673.19
814.77	1689.57
814.94	1720.29
815.12	1755.11
815.29	1796.07
815.46	1652.71
815.63	1722.34
815.81	1624.04
815.98	1585.13
816.15	1712.10
816.33	1703.91
816.50	1640.42
816.67	1718.25
816.84	1763.30
817.02	1636.33
817.19	1624.04
817.36	1712.10
817.53	1763.30
817.71	1669.09
817.88	1673.19
818.05	1697.77
818.22	1767.40
818.40	1853.41
818.57	1689.57
818.74	1820.64
818.91	1699.81
819.09	1775.59
819.26	1763.30
819.43	1644.52
819.60	1660.90
819.78	1718.25
819.95	1732.58
820.12	1724.39
820.29	1904.61
820.47	1726.44
820.64	1685.48
820.81	1578.98
820.98	1669.09
821.15	1673.19
821.33	1724.39
821.50	1687.53
821.67	1742.82
821.84	1734.63
822.02	1771.49
822.19	1677.29
822.36	1697.77
822.53	1701.86
822.70	1669.09
822.88	1708.01
823.05	1820.64
823.22	1677.29
823.39	1771.49
823.56	1691.62
823.74	1771.49
823.91	1722.34
824.08	1665.00
824.25	1646.57
824.42	1751.01
824.60	1593.32
824.77	1734.63
824.94	1787.88
825.11	1718.25
825.28	1679.33
825.45	1730.53
825.63	1705.96
825.80	1607.66
825.97	1802.21
826.14	1710.05
826.31	1662.95
826.48	1716.20
826.66	1609.70
826.83	1695.72
827.00	1738.73
827.17	1632.23
827.34	1642.47
827.51	1708.01
827.69	1773.54
827.86	1656.81
828.03	1716.20
828.20	1652.71
828.37	1656.81
828.54	1763.30
828.71	1601.51
828.89	1798.12
829.06	1732.58
829.23	1722.34
829.40	1642.47
829.57	1646.57
829.74	1753.06
829.91	1648.61
830.09	1634.28
830.26	1689.57
830.43	1890.28
830.60	1695.72
830.77	1748.97
830.94	1767.40
831.11	1724.39
831.28	1734.63
831.46	1744.87
831.63	1632.23
831.80	1681.38
831.97	1687.53
832.14	1701.86
832.31	1708.01
832.48	1705.96
832.65	1791.97
832.82	1701.86
832.99	1787.88
833.17	1607.66
833.34	1796.07
833.51	1660.90
833.68	1624.04
833.85	1703.91
834.02	1634.28
834.19	1683.43
834.36	1603.56
834.53	1734.63
834.70	1753.06
834.87	1697.77
835.04	1748.97
835.22	1720.29
835.39	1689.57
835.56	1621.99
835.73	1654.76
835.90	1773.54
836.07	1746.92
836.24	1742.82
836.41	1648.61
836.58	1697.77
836.75	1734.63
836.92	1665.00
837.09	1708.01
837.26	1726.44
837.43	1701.86
837.60	1753.06
837.77	1685.48
837.94	1773.54
838.12	1828.84
838.29	1705.96
838.46	1652.71
838.63	1665.00
838.80	1761.25
838.97	1734.63
839.14	1732.58
839.31	1701.86
839.48	1705.96
839.65	1724.39
839.82	1748.97
839.99	1753.06
840.16	1652.71
840.33	1716.20
840.50	1681.38
840.67	1644.52
840.84	1613.80
841.01	1724.39
841.18	1650.66
841.35	1581.03
841.52	1697.77
841.69	1746.92
841.86	1691.62
842.03	1751.01
842.20	1753.06
842.37	1720.29
842.54	1740.77
842.71	1726.44
842.88	1621.99
843.05	1689.57
843.22	1751.01
843.39	1826.79
843.56	1667.05
843.73	1751.01
843.90	1699.81
844.07	1728.49
844.24	1695.72
844.41	1736.68
844.58	1712.10
844.75	1773.54
844.92	1648.61
845.09	1804.26
845.26	1683.43
845.43	1775.59
845.60	1628.14
845.77	1701.86
845.94	1681.38
846.10	1734.63
846.27	1662.95
846.44	1646.57
846.61	1724.39
846.78	1718.25
846.95	1763.30
847.12	1701.86
847.29	1705.96
847.46	1675.24
847.63	1685.48
847.80	1642.47
847.97	1714.15
848.14	1824.74
848.31	1660.90
848.48	1607.66
848.65	1689.57
848.82	1626.09
848.98	1828.84
849.15	1689.57
849.32	1779.68
849.49	1771.49
849.66	1671.14
849.83	1695.72
850.00	1656.81
850.17	1732.58
850.34	1730.53
850.51	1630.18
850.68	1673.19
850.85	1789.92
851.01	1732.58
851.18	1720.29
851.35	1734.63
851.52	1753.06
851.69	1761.25
851.86	1689.57
852.03	1624.04
852.20	1769.44
852.37	1691.62
852.53	1662.95
852.70	1718.25
852.87	1710.05
853.04	1767.40
853.21	1679.33
853.38	1755.11
853.55	1777.64
853.72	1789.92
853.89	1701.86
854.05	1611.75
854.22	1705.96
854.39	1660.90
854.56	1703.91
854.73	1738.73
854.90	1660.90
855.07	1642.47
855.23	1779.68
855.40	1691.62
855.57	1693.67
855.74	1675.24
855.91	1839.08
856.08	1681.38
856.25	1505.26
856.41	1748.97
856.58	1734.63
856.75	1695.72
856.92	1660.90
857.09	1751.01
857.26	1654.76
857.42	1630.18
857.59	1789.92
857.76	1763.30
857.93	1701.86
858.10	1759.21
858.27	1650.66
858.43	1705.96
858.60	1638.38
858.77	1699.81
858.94	1626.09
859.11	1740.77
859.27	1701.86
859.44	1611.75
859.61	1798.12
859.78	1734.63
859.95	1677.29
860.12	1685.48
860.28	1804.26
860.45	1845.22
860.62	1697.77
860.79	1656.81
860.95	1669.09
861.12	1708.01
861.29	1646.57
861.46	1705.96
861.63	1681.38
861.79	1789.92
861.96	1658.85
862.13	1665.00
862.30	1775.59
862.47	1695.72
862.63	1615.85
862.80	1771.49
862.97	1802.21
863.14	1730.53
863.30	1679.33
863.47	1665.00
863.64	1867.75
863.81	1689.57
863.97	1691.62
864.14	1689.57
864.31	1656.81
864.48	1710.05
864.65	1681.38
864.81	1675.24
864.98	1775.59
865.15	1839.08
865.32	1816.55
865.48	1755.11
865.65	1773.54
865.82	1683.43
865.98	1722.34
866.15	1777.64
866.32	1708.01
866.49	1669.09
866.65	1814.50
866.82	1683.43
866.99	1669.09
867.16	1681.38
867.32	1693.67
867.49	1683.43
867.66	1673.19
867.83	1650.66
867.99	1665.00
868.16	1705.96
868.33	1646.57
868.49	1681.38
868.66	1599.46
868.83	1759.21
868.99	1814.50
869.16	1771.49
869.33	1818.60
869.50	1687.53
869.66	1734.63
869.83	1712.10
870.00	1646.57
870.16	1718.25
870.33	1734.63
870.50	1722.34
870.66	1781.73
870.83	1800.16
871.00	1701.86
871.17	1732.58
871.33	1765.35
871.50	1636.33
871.67	1728.49
871.83	1634.28
872.00	1779.68
872.17	1640.42
872.33	1767.40
872.50	1724.39
872.67	1722.34
872.83	1640.42
873.00	1730.53
873.17	1671.14
873.33	1740.77
873.50	1730.53
873.67	1658.85
873.83	1648.61
874.00	1677.29
874.16	1759.21
874.33	1783.78
874.50	1572.84
874.66	1751.01
874.83	1789.92
875.00	1826.79
875.16	1748.97
875.33	1794.02
875.50	1603.56
875.66	1660.90
875.83	1726.44
875.99	1742.82
876.16	1683.43
876.33	1648.61
876.49	1665.00
876.66	1689.57
876.83	1636.33
876.99	1654.76
877.16	1787.88
877.32	1734.63
877.49	1683.43
877.66	1687.53
877.82	1798.12
877.99	1748.97
878.15	1757.16
878.32	1802.21
878.49	1708.01
878.65	1705.96
878.82	1765.35
878.98	1656.81
879.15	1740.77
879.32	1701.86
879.48	1771.49
879.65	1718.25
879.81	1632.23
879.98	1710.05
880.15	1699.81
880.31	1832.93
880.48	1673.19
880.64	1691.62
880.81	1748.97
880.97	1810.40
881.14	1779.68
881.31	1708.01
881.47	1841.12
881.64	1681.38
881.80	1642.47
881.97	1724.39
882.13	1720.29
882.30	1701.86
882.47	1699.81
882.63	1624.04
882.80	1601.51
882.96	1730.53
883.13	1761.25
883.29	1712.10
883.46	1757.16
883.62	1779.68
883.79	1710.05
883.95	1845.22
884.12	1783.78
884.29	1771.49
884.45	1689.57
884.62	1732.58
884.78	1632.23
884.95	1812.45
885.11	1654.76
885.28	1640.42
885.44	1677.29
885.61	1644.52
885.77	1761.25
885.94	1779.68
886.10	1671.14
886.27	1697.77
886.43	1810.40
886.60	1695.72
886.76	1730.53
886.93	1691.62
887.09	1779.68
887.26	1624.04
887.42	1705.96
887.59	1765.35
887.75	1863.65
887.92	1773.54
888.08	1783.78
888.25	1820.64
888.41	1787.88
888.58	1710.05
888.74	1648.61
888.91	1595.37
>>>>>End Processed Spectral Data<<<<<
