SpectraSuite Data File
++++++++++++++++++++++++++++++++++++
Date: Mon Jun 06 16:58:57 CEST 2016
User: root
Dark Spectrum Present: No
Reference Spectrum Present: No
Number of Sampled Component Spectra: 1
Spectrometers: USB4C02835
Integration Time (usec): 100000 (USB4C02835)
Spectra Averaged: 1 (USB4C02835)
Boxcar Smoothing: 0 (USB4C02835)
Correct for Electrical Dark: No (USB4C02835)
Strobe/Lamp Enabled: No (USB4C02835)
Correct for Detector Non-linearity: No (USB4C02835)
Correct for Stray Light: No (USB4C02835)
Number of Pixels in Processed Spectrum: 3648
>>>>>Begin Processed Spectral Data<<<<<
177.47	1443.82
177.69	1443.82
177.91	1443.82
178.13	1447.91
178.36	1462.25
178.58	1644.52
178.80	1746.92
179.02	1626.09
179.24	1652.71
179.46	1716.20
179.68	1726.44
179.90	1710.05
180.13	1710.05
180.35	1654.76
180.57	1724.39
180.79	1730.53
181.01	1689.57
181.23	1810.40
181.45	1777.64
181.67	1798.12
181.90	1744.87
182.12	1693.67
182.34	1574.89
182.56	1814.50
182.78	1673.19
183.00	1671.14
183.22	1673.19
183.44	1578.98
183.66	1888.23
183.89	1722.34
184.11	1705.96
184.33	1753.06
184.55	1714.15
184.77	1691.62
184.99	1703.91
185.21	1697.77
185.43	1898.47
185.65	1685.48
185.87	1773.54
186.10	1892.32
186.32	1828.84
186.54	1724.39
186.76	1689.57
186.98	1738.73
187.20	1693.67
187.42	1607.66
187.64	1763.30
187.86	1736.68
188.08	1775.59
188.30	1652.71
188.52	1722.34
188.75	1832.93
188.97	1820.64
189.19	1619.94
189.41	1693.67
189.63	1732.58
189.85	1691.62
190.07	1673.19
190.29	1646.57
190.51	1714.15
190.73	1650.66
190.95	1732.58
191.17	1667.05
191.39	1660.90
191.61	1646.57
191.84	1693.67
192.06	1783.78
192.28	1656.81
192.50	1863.65
192.72	1710.05
192.94	1652.71
193.16	1722.34
193.38	1697.77
193.60	1619.94
193.82	1650.66
194.04	1738.73
194.26	1730.53
194.48	1636.33
194.70	1630.18
194.92	1673.19
195.14	1677.29
195.36	1667.05
195.58	1656.81
195.80	1669.09
196.02	1642.47
196.24	1601.51
196.46	1808.36
196.69	1646.57
196.91	1859.56
197.13	1687.53
197.35	1615.85
197.57	1734.63
197.79	1708.01
198.01	1705.96
198.23	1773.54
198.45	1781.73
198.67	1609.70
198.89	1648.61
199.11	1658.85
199.33	1644.52
199.55	1515.50
199.77	1656.81
199.99	1746.92
200.21	1746.92
200.43	1722.34
200.65	1632.23
200.87	1587.18
201.09	1654.76
201.31	1677.29
201.53	1767.40
201.75	1689.57
201.97	1781.73
202.19	1693.67
202.41	1695.72
202.63	1863.65
202.85	1832.93
203.07	1730.53
203.29	1624.04
203.51	1699.81
203.73	1599.46
203.95	1947.62
204.17	1703.91
204.39	1800.16
204.61	1748.97
204.83	1708.01
205.05	1773.54
205.27	1734.63
205.49	1832.93
205.71	1693.67
205.93	1724.39
206.15	1718.25
206.37	1746.92
206.59	1681.38
206.81	1587.18
207.03	1683.43
207.25	1703.91
207.47	1800.16
207.69	1720.29
207.91	1820.64
208.13	1738.73
208.34	1753.06
208.56	1617.90
208.78	1708.01
209.00	1654.76
209.22	1705.96
209.44	1685.48
209.66	1619.94
209.88	1677.29
210.10	1665.00
210.32	1687.53
210.54	1783.78
210.76	1662.95
210.98	1746.92
211.20	1572.84
211.42	1738.73
211.64	1773.54
211.86	1705.96
212.08	1734.63
212.30	1763.30
212.52	1685.48
212.74	1753.06
212.96	1726.44
213.17	1773.54
213.39	1757.16
213.61	1814.50
213.83	1720.29
214.05	1669.09
214.27	1767.40
214.49	1660.90
214.71	1710.05
214.93	1777.64
215.15	1701.86
215.37	1789.92
215.59	1593.32
215.81	1667.05
216.03	1720.29
216.24	1705.96
216.46	1703.91
216.68	1685.48
216.90	1691.62
217.12	1730.53
217.34	1632.23
217.56	1761.25
217.78	1726.44
218.00	1773.54
218.22	1652.71
218.44	1761.25
218.66	1726.44
218.87	1800.16
219.09	1708.01
219.31	1675.24
219.53	1718.25
219.75	1701.86
219.97	1765.35
220.19	1718.25
220.41	1638.38
220.63	1796.07
220.85	1808.36
221.06	1667.05
221.28	1763.30
221.50	1744.87
221.72	1730.53
221.94	1660.90
222.16	1673.19
222.38	1775.59
222.60	1722.34
222.82	1712.10
223.03	1714.15
223.25	1677.29
223.47	1716.20
223.69	1910.75
223.91	1845.22
224.13	1753.06
224.35	1665.00
224.57	1697.77
224.78	1736.68
225.00	1703.91
225.22	1689.57
225.44	1705.96
225.66	1773.54
225.88	1660.90
226.10	1781.73
226.32	1728.49
226.53	1814.50
226.75	1736.68
226.97	1755.11
227.19	1722.34
227.41	1755.11
227.63	1708.01
227.85	1570.79
228.06	1708.01
228.28	1691.62
228.50	1736.68
228.72	1685.48
228.94	1669.09
229.16	1638.38
229.37	1583.08
229.59	1689.57
229.81	1851.36
230.03	1685.48
230.25	1605.61
230.47	1632.23
230.69	1632.23
230.90	1767.40
231.12	1669.09
231.34	1681.38
231.56	1712.10
231.78	1712.10
232.00	1681.38
232.21	1710.05
232.43	1687.53
232.65	1550.31
232.87	1753.06
233.09	1617.90
233.30	1705.96
233.52	1738.73
233.74	1697.77
233.96	1734.63
234.18	1751.01
234.40	1718.25
234.61	1789.92
234.83	1562.60
235.05	1615.85
235.27	1755.11
235.49	1744.87
235.70	1667.05
235.92	1773.54
236.14	1714.15
236.36	1787.88
236.58	1673.19
236.79	1730.53
237.01	1644.52
237.23	1697.77
237.45	1802.21
237.67	1658.85
237.88	1710.05
238.10	1816.55
238.32	1642.47
238.54	1675.24
238.76	1652.71
238.97	1650.66
239.19	1708.01
239.41	1738.73
239.63	1738.73
239.85	1699.81
240.06	1732.58
240.28	1642.47
240.50	1695.72
240.72	1722.34
240.93	1718.25
241.15	1744.87
241.37	1660.90
241.59	1789.92
241.81	1656.81
242.02	1714.15
242.24	1751.01
242.46	1796.07
242.68	1669.09
242.89	1746.92
243.11	1748.97
243.33	1712.10
243.55	1714.15
243.76	1689.57
243.98	1720.29
244.20	1667.05
244.42	1687.53
244.64	1699.81
244.85	1646.57
245.07	1615.85
245.29	1763.30
245.51	1710.05
245.72	1753.06
245.94	1800.16
246.16	1775.59
246.38	1738.73
246.59	1638.38
246.81	1648.61
247.03	1708.01
247.24	1599.46
247.46	1716.20
247.68	1714.15
247.90	1685.48
248.11	1665.00
248.33	1785.83
248.55	1722.34
248.77	1728.49
248.98	1783.78
249.20	1753.06
249.42	1759.21
249.64	1804.26
249.85	1689.57
250.07	1662.95
250.29	1765.35
250.50	1724.39
250.72	1660.90
250.94	1705.96
251.16	1787.88
251.37	1798.12
251.59	1716.20
251.81	1710.05
252.02	1757.16
252.24	1771.49
252.46	1751.01
252.68	1705.96
252.89	1689.57
253.11	1646.57
253.33	1867.75
253.54	1820.64
253.76	1656.81
253.98	1746.92
254.20	1734.63
254.41	1583.08
254.63	1685.48
254.85	1654.76
255.06	1718.25
255.28	1740.77
255.50	1675.24
255.71	1658.85
255.93	1599.46
256.15	1703.91
256.36	1738.73
256.58	1679.33
256.80	1753.06
257.02	1705.96
257.23	1656.81
257.45	1679.33
257.67	1728.49
257.88	1624.04
258.10	1828.84
258.32	1738.73
258.53	1746.92
258.75	1771.49
258.97	1646.57
259.18	1748.97
259.40	1740.77
259.62	1802.21
259.83	1748.97
260.05	1769.44
260.27	1943.52
260.48	1746.92
260.70	1652.71
260.92	1677.29
261.13	1765.35
261.35	1650.66
261.57	1757.16
261.78	1613.80
262.00	1603.56
262.22	1722.34
262.43	1771.49
262.65	1667.05
262.86	1679.33
263.08	1877.99
263.30	1648.61
263.51	1558.50
263.73	1697.77
263.95	1681.38
264.16	1636.33
264.38	1660.90
264.60	1755.11
264.81	1691.62
265.03	1789.92
265.25	1761.25
265.46	1708.01
265.68	1705.96
265.89	1849.32
266.11	1607.66
266.33	1775.59
266.54	1867.75
266.76	1619.94
266.98	1777.64
267.19	1738.73
267.41	1705.96
267.62	1771.49
267.84	1630.18
268.06	1771.49
268.27	1697.77
268.49	1783.78
268.70	1632.23
268.92	1660.90
269.14	1677.29
269.35	1572.84
269.57	1689.57
269.79	1722.34
270.00	1685.48
270.22	1804.26
270.43	1587.18
270.65	1673.19
270.87	1714.15
271.08	1652.71
271.30	1703.91
271.51	1728.49
271.73	1744.87
271.95	1699.81
272.16	1673.19
272.38	1736.68
272.59	1587.18
272.81	1751.01
273.02	1701.86
273.24	1779.68
273.46	1775.59
273.67	1644.52
273.89	1626.09
274.10	1681.38
274.32	1683.43
274.54	1873.89
274.75	1699.81
274.97	1656.81
275.18	1714.15
275.40	1712.10
275.61	1714.15
275.83	1687.53
276.05	1595.37
276.26	1710.05
276.48	1738.73
276.69	1691.62
276.91	1660.90
277.12	1787.88
277.34	1712.10
277.55	1779.68
277.77	1710.05
277.99	1697.77
278.20	1591.27
278.42	1732.58
278.63	1734.63
278.85	1656.81
279.06	1630.18
279.28	1652.71
279.49	1644.52
279.71	1740.77
279.93	1695.72
280.14	1783.78
280.36	1609.70
280.57	1755.11
280.79	1708.01
281.00	1648.61
281.22	1595.37
281.43	1722.34
281.65	1542.12
281.86	1662.95
282.08	1796.07
282.29	1869.80
282.51	1677.29
282.73	1699.81
282.94	1632.23
283.16	1667.05
283.37	1830.88
283.59	1697.77
283.80	1751.01
284.02	1642.47
284.23	1730.53
284.45	1712.10
284.66	1628.14
284.88	1658.85
285.09	1808.36
285.31	1814.50
285.52	1724.39
285.74	1667.05
285.95	1728.49
286.17	1777.64
286.38	1765.35
286.60	1673.19
286.81	1734.63
287.03	1746.92
287.24	1687.53
287.46	1794.02
287.67	1789.92
287.89	1830.88
288.10	1675.24
288.32	1738.73
288.53	1775.59
288.75	1695.72
288.96	1726.44
289.18	1683.43
289.39	1689.57
289.61	1785.83
289.82	1931.23
290.04	1779.68
290.25	1710.05
290.47	1687.53
290.68	1728.49
290.90	1822.69
291.11	1656.81
291.33	1775.59
291.54	1728.49
291.76	1644.52
291.97	1732.58
292.18	1718.25
292.40	1660.90
292.61	1667.05
292.83	1841.12
293.04	1773.54
293.26	1681.38
293.47	1697.77
293.69	1691.62
293.90	1658.85
294.12	1826.79
294.33	1669.09
294.55	1550.31
294.76	1759.21
294.97	1787.88
295.19	1843.17
295.40	1642.47
295.62	1628.14
295.83	1765.35
296.05	1685.48
296.26	1710.05
296.48	1599.46
296.69	1679.33
296.90	1699.81
297.12	1755.11
297.33	1783.78
297.55	1732.58
297.76	1695.72
297.98	1810.40
298.19	1785.83
298.41	1736.68
298.62	1619.94
298.83	1777.64
299.05	1716.20
299.26	1693.67
299.48	1642.47
299.69	1726.44
299.90	1759.21
300.12	1669.09
300.33	1673.19
300.55	1701.86
300.76	1708.01
300.98	1656.81
301.19	1800.16
301.40	1677.29
301.62	1699.81
301.83	1781.73
302.05	1740.77
302.26	1722.34
302.47	1787.88
302.69	1652.71
302.90	1705.96
303.12	1560.55
303.33	1714.15
303.54	1794.02
303.76	1683.43
303.97	1703.91
304.19	1765.35
304.40	1634.28
304.61	1714.15
304.83	1818.60
305.04	1691.62
305.26	1693.67
305.47	1697.77
305.68	1687.53
305.90	1656.81
306.11	1773.54
306.33	1705.96
306.54	1722.34
306.75	1650.66
306.97	1578.98
307.18	1683.43
307.39	1728.49
307.61	1748.97
307.82	1679.33
308.04	1771.49
308.25	1671.14
308.46	1714.15
308.68	1673.19
308.89	1705.96
309.10	1748.97
309.32	1703.91
309.53	1665.00
309.74	1771.49
309.96	1751.01
310.17	1765.35
310.39	1720.29
310.60	1787.88
310.81	1710.05
311.03	1654.76
311.24	1794.02
311.45	1677.29
311.67	1777.64
311.88	1769.44
312.09	1718.25
312.31	1644.52
312.52	1724.39
312.73	1701.86
312.95	1650.66
313.16	1689.57
313.37	1761.25
313.59	1683.43
313.80	1791.97
314.01	1820.64
314.23	1648.61
314.44	1646.57
314.65	1650.66
314.87	1636.33
315.08	1687.53
315.29	1665.00
315.51	1658.85
315.72	1656.81
315.93	1806.31
316.15	1746.92
316.36	1697.77
316.57	1716.20
316.79	1804.26
317.00	1673.19
317.21	1820.64
317.43	1714.15
317.64	1718.25
317.85	1638.38
318.07	1634.28
318.28	1736.68
318.49	1828.84
318.70	1937.38
318.92	1841.12
319.13	1804.26
319.34	1812.45
319.56	1783.78
319.77	1847.27
319.98	1794.02
320.20	1697.77
320.41	1701.86
320.62	1712.10
320.83	1650.66
321.05	1824.74
321.26	1775.59
321.47	1748.97
321.69	1767.40
321.90	1726.44
322.11	1710.05
322.32	1740.77
322.54	1818.60
322.75	1673.19
322.96	1806.31
323.18	1636.33
323.39	1591.27
323.60	1652.71
323.81	1732.58
324.03	1693.67
324.24	1634.28
324.45	1757.16
324.66	1730.53
324.88	1769.44
325.09	1804.26
325.30	1656.81
325.52	1738.73
325.73	1695.72
325.94	1591.27
326.15	1597.42
326.37	1687.53
326.58	1822.69
326.79	1861.60
327.00	1703.91
327.22	1751.01
327.43	1675.24
327.64	1607.66
327.85	1742.82
328.07	1671.14
328.28	1816.55
328.49	1726.44
328.70	1712.10
328.92	1708.01
329.13	1740.77
329.34	1660.90
329.55	1796.07
329.76	1718.25
329.98	1681.38
330.19	1732.58
330.40	1718.25
330.61	1726.44
330.83	1767.40
331.04	1652.71
331.25	1714.15
331.46	1710.05
331.68	1603.56
331.89	1755.11
332.10	1738.73
332.31	1595.37
332.52	1697.77
332.74	1757.16
332.95	1642.47
333.16	1722.34
333.37	1769.44
333.58	1718.25
333.80	1708.01
334.01	1609.70
334.22	1683.43
334.43	1621.99
334.64	1695.72
334.86	1650.66
335.07	1685.48
335.28	1746.92
335.49	1656.81
335.70	1734.63
335.92	1705.96
336.13	1871.84
336.34	1724.39
336.55	1718.25
336.76	1683.43
336.98	1630.18
337.19	1720.29
337.40	1855.46
337.61	1871.84
337.82	1636.33
338.04	1714.15
338.25	1619.94
338.46	1660.90
338.67	1689.57
338.88	1665.00
339.09	1591.27
339.31	1693.67
339.52	1609.70
339.73	1669.09
339.94	1697.77
340.15	1693.67
340.36	1716.20
340.58	1693.67
340.79	1636.33
341.00	1767.40
341.21	1605.61
341.42	1730.53
341.63	1681.38
341.85	1724.39
342.06	1720.29
342.27	1648.61
342.48	1763.30
342.69	1632.23
342.90	1738.73
343.12	1775.59
343.33	1675.24
343.54	1716.20
343.75	1873.89
343.96	1773.54
344.17	1652.71
344.38	1628.14
344.60	1667.05
344.81	1726.44
345.02	1689.57
345.23	1734.63
345.44	1841.12
345.65	1669.09
345.86	1755.11
346.07	1744.87
346.29	1660.90
346.50	1734.63
346.71	1695.72
346.92	1753.06
347.13	1822.69
347.34	1630.18
347.55	1685.48
347.76	1712.10
347.98	1624.04
348.19	1634.28
348.40	1751.01
348.61	1628.14
348.82	1845.22
349.03	1822.69
349.24	1652.71
349.45	1816.55
349.66	1685.48
349.88	1667.05
350.09	1621.99
350.30	1724.39
350.51	1732.58
350.72	1718.25
350.93	1695.72
351.14	1746.92
351.35	1746.92
351.56	1650.66
351.77	1648.61
351.99	1687.53
352.20	1814.50
352.41	1818.60
352.62	1630.18
352.83	1652.71
353.04	1644.52
353.25	1722.34
353.46	1808.36
353.67	1697.77
353.88	1574.89
354.09	1636.33
354.30	1636.33
354.52	1755.11
354.73	1685.48
354.94	1689.57
355.15	1755.11
355.36	1714.15
355.57	1685.48
355.78	1759.21
355.99	1736.68
356.20	1699.81
356.41	1820.64
356.62	1687.53
356.83	1671.14
357.04	1685.48
357.25	1656.81
357.46	1767.40
357.68	1607.66
357.89	1691.62
358.10	1759.21
358.31	1705.96
358.52	1708.01
358.73	1656.81
358.94	1652.71
359.15	1718.25
359.36	1771.49
359.57	1734.63
359.78	1697.77
359.99	1779.68
360.20	1599.46
360.41	1751.01
360.62	1734.63
360.83	1728.49
361.04	1685.48
361.25	1748.97
361.46	1765.35
361.67	1736.68
361.88	1783.78
362.09	1755.11
362.30	1720.29
362.51	1693.67
362.72	1773.54
362.93	1720.29
363.14	1748.97
363.35	1759.21
363.56	1613.80
363.78	1701.86
363.99	1767.40
364.20	1597.42
364.41	1761.25
364.62	1802.21
364.83	1648.61
365.04	1734.63
365.25	1693.67
365.46	1863.65
365.67	1699.81
365.88	1601.51
366.09	1660.90
366.30	1730.53
366.51	1697.77
366.72	1624.04
366.93	1615.85
367.14	1693.67
367.35	1789.92
367.56	1724.39
367.77	1755.11
367.98	1718.25
368.18	1789.92
368.39	1779.68
368.60	1697.77
368.81	1779.68
369.02	1742.82
369.23	1665.00
369.44	1570.79
369.65	1685.48
369.86	1771.49
370.07	1744.87
370.28	1691.62
370.49	1689.57
370.70	1771.49
370.91	1705.96
371.12	1603.56
371.33	1712.10
371.54	1722.34
371.75	1728.49
371.96	1630.18
372.17	1691.62
372.38	1665.00
372.59	1726.44
372.80	1677.29
373.01	1658.85
373.22	1710.05
373.43	1656.81
373.64	1624.04
373.85	1810.40
374.06	1820.64
374.26	1755.11
374.47	1798.12
374.68	1822.69
374.89	1683.43
375.10	1697.77
375.31	1798.12
375.52	1691.62
375.73	1693.67
375.94	1724.39
376.15	1738.73
376.36	1636.33
376.57	1681.38
376.78	1640.42
376.99	1751.01
377.20	1763.30
377.40	1703.91
377.61	1796.07
377.82	1605.61
378.03	1796.07
378.24	1714.15
378.45	1701.86
378.66	1665.00
378.87	1665.00
379.08	1648.61
379.29	1669.09
379.50	1791.97
379.71	1705.96
379.91	1800.16
380.12	1691.62
380.33	1738.73
380.54	1701.86
380.75	1658.85
380.96	1734.63
381.17	1738.73
381.38	1728.49
381.59	1822.69
381.80	1765.35
382.00	1834.98
382.21	1712.10
382.42	1736.68
382.63	1886.18
382.84	1759.21
383.05	1703.91
383.26	1791.97
383.47	1796.07
383.68	1671.14
383.88	1746.92
384.09	1746.92
384.30	1798.12
384.51	1722.34
384.72	1687.53
384.93	1673.19
385.14	1654.76
385.35	1781.73
385.55	1677.29
385.76	1812.45
385.97	1791.97
386.18	1609.70
386.39	1703.91
386.60	1687.53
386.81	1708.01
387.02	1671.14
387.22	1660.90
387.43	1748.97
387.64	1748.97
387.85	1869.80
388.06	2263.01
388.27	4310.97
388.48	6791.06
388.68	8152.96
388.89	9604.97
389.10	9678.70
389.31	8681.34
389.52	7604.11
389.73	6887.32
389.93	6258.59
390.14	5928.87
390.35	5302.19
390.56	4605.88
390.77	3753.93
390.98	3018.71
391.18	2432.99
391.39	2193.37
391.60	1906.66
391.81	1820.64
392.02	1736.68
392.23	1869.80
392.43	1695.72
392.64	1789.92
392.85	1740.77
393.06	1820.64
393.27	1685.48
393.47	1662.95
393.68	1722.34
393.89	1685.48
394.10	1748.97
394.31	1740.77
394.52	1722.34
394.72	1703.91
394.93	1845.22
395.14	1640.42
395.35	1701.86
395.56	1673.19
395.76	1708.01
395.97	1775.59
396.18	1761.25
396.39	1910.75
396.60	1986.53
396.80	1912.80
397.01	1843.17
397.22	1826.79
397.43	1814.50
397.64	1738.73
397.84	1830.88
398.05	1814.50
398.26	1781.73
398.47	1818.60
398.67	1753.06
398.88	1722.34
399.09	1662.95
399.30	1714.15
399.51	1738.73
399.71	1683.43
399.92	1759.21
400.13	1734.63
400.34	1662.95
400.54	1697.77
400.75	1789.92
400.96	1722.34
401.17	1779.68
401.37	1755.11
401.58	1738.73
401.79	1720.29
402.00	1898.47
402.21	2009.06
402.41	1990.63
402.62	2037.73
402.83	2082.78
403.04	2029.54
403.24	2062.30
403.45	1843.17
403.66	1882.08
403.87	1873.89
404.07	1851.36
404.28	1914.85
404.49	1869.80
404.70	1812.45
404.90	1761.25
405.11	1726.44
405.32	1773.54
405.52	1697.77
405.73	1699.81
405.94	1701.86
406.15	1683.43
406.35	1679.33
406.56	1718.25
406.77	1730.53
406.98	1759.21
407.18	1685.48
407.39	1830.88
407.60	1701.86
407.80	1734.63
408.01	1615.85
408.22	1771.49
408.43	1701.86
408.63	1755.11
408.84	1826.79
409.05	1667.05
409.25	1697.77
409.46	1699.81
409.67	1708.01
409.88	1689.57
410.08	1751.01
410.29	1685.48
410.50	1761.25
410.70	1726.44
410.91	1691.62
411.12	1777.64
411.32	1621.99
411.53	1662.95
411.74	1785.83
411.95	1748.97
412.15	1787.88
412.36	1789.92
412.57	1783.78
412.77	1769.44
412.98	1703.91
413.19	1615.85
413.39	1791.97
413.60	1744.87
413.81	1826.79
414.01	1671.14
414.22	1781.73
414.43	1730.53
414.63	1701.86
414.84	1861.60
415.05	1767.40
415.25	1615.85
415.46	1757.16
415.67	1677.29
415.87	1791.97
416.08	1708.01
416.29	1685.48
416.49	1736.68
416.70	1677.29
416.91	1648.61
417.11	1701.86
417.32	1693.67
417.53	1806.31
417.73	1753.06
417.94	1726.44
418.15	1705.96
418.35	1710.05
418.56	1726.44
418.77	1884.13
418.97	1720.29
419.18	1714.15
419.38	1652.71
419.59	1720.29
419.80	1826.79
420.00	1691.62
420.21	1746.92
420.42	1738.73
420.62	1759.21
420.83	1675.24
421.04	1716.20
421.24	1681.38
421.45	1785.83
421.65	1699.81
421.86	1624.04
422.07	1755.11
422.27	1734.63
422.48	1767.40
422.69	1722.34
422.89	1675.24
423.10	1603.56
423.30	1662.95
423.51	1796.07
423.72	1757.16
423.92	1726.44
424.13	1699.81
424.33	1740.77
424.54	1677.29
424.75	1746.92
424.95	1802.21
425.16	1763.30
425.36	1648.61
425.57	1753.06
425.78	1720.29
425.98	1714.15
426.19	1624.04
426.39	1644.52
426.60	1734.63
426.81	1779.68
427.01	1775.59
427.22	1732.58
427.42	1632.23
427.63	1607.66
427.83	1800.16
428.04	1837.03
428.25	1818.60
428.45	1808.36
428.66	1767.40
428.86	1673.19
429.07	1632.23
429.28	1697.77
429.48	1712.10
429.69	1695.72
429.89	1783.78
430.10	1687.53
430.30	1691.62
430.51	1808.36
430.71	1589.22
430.92	1705.96
431.13	1681.38
431.33	1699.81
431.54	1779.68
431.74	1769.44
431.95	1830.88
432.15	1697.77
432.36	1779.68
432.56	1730.53
432.77	1812.45
432.98	1853.41
433.18	1767.40
433.39	1673.19
433.59	1796.07
433.80	1755.11
434.00	1882.08
434.21	1746.92
434.41	1673.19
434.62	1843.17
434.82	1714.15
435.03	1669.09
435.23	1744.87
435.44	1648.61
435.64	1738.73
435.85	1769.44
436.06	1779.68
436.26	1845.22
436.47	1619.94
436.67	1669.09
436.88	1660.90
437.08	1705.96
437.29	1746.92
437.49	1710.05
437.70	1779.68
437.90	1650.66
438.11	1947.62
438.31	1814.50
438.52	1761.25
438.72	1796.07
438.93	1937.38
439.13	1802.21
439.34	1877.99
439.54	1669.09
439.75	1789.92
439.95	1746.92
440.16	1779.68
440.36	1824.74
440.57	1738.73
440.77	1753.06
440.98	1761.25
441.18	1783.78
441.39	1685.48
441.59	1699.81
441.80	1841.12
442.00	1673.19
442.21	1794.02
442.41	1673.19
442.62	1769.44
442.82	1705.96
443.02	1716.20
443.23	1714.15
443.43	1714.15
443.64	1837.03
443.84	1728.49
444.05	1777.64
444.25	1716.20
444.46	1763.30
444.66	1744.87
444.87	1834.98
445.07	1671.14
445.28	1730.53
445.48	1847.27
445.69	1804.26
445.89	1867.75
446.09	1716.20
446.30	2021.35
446.50	2715.61
446.71	3753.93
446.91	4272.06
447.12	4777.91
447.32	4851.64
447.53	4433.85
447.73	3925.96
447.93	3575.75
448.14	3256.27
448.34	3250.13
448.55	2959.31
448.75	2799.57
448.96	2680.79
449.16	2428.89
449.36	2318.30
449.57	2056.16
449.77	1882.08
449.98	1736.68
450.18	1746.92
450.39	1802.21
450.59	1783.78
450.79	1693.67
451.00	1755.11
451.20	1779.68
451.41	1714.15
451.61	1791.97
451.81	1769.44
452.02	1757.16
452.22	1767.40
452.43	1705.96
452.63	1708.01
452.84	1683.43
453.04	1710.05
453.24	1769.44
453.45	1724.39
453.65	1710.05
453.86	1779.68
454.06	1759.21
454.26	1763.30
454.47	1701.86
454.67	1822.69
454.87	1816.55
455.08	1730.53
455.28	1804.26
455.49	1740.77
455.69	1689.57
455.89	1937.38
456.10	1888.23
456.30	1691.62
456.51	1779.68
456.71	1746.92
456.91	1814.50
457.12	1796.07
457.32	1724.39
457.52	1718.25
457.73	1845.22
457.93	1783.78
458.14	1609.70
458.34	1613.80
458.54	1826.79
458.75	1728.49
458.95	1861.60
459.15	1730.53
459.36	1759.21
459.56	1785.83
459.76	1904.61
459.97	1726.44
460.17	1724.39
460.37	1787.88
460.58	1693.67
460.78	1710.05
460.99	1720.29
461.19	1673.19
461.39	1689.57
461.60	1775.59
461.80	1763.30
462.00	1708.01
462.21	1714.15
462.41	1681.38
462.61	1712.10
462.82	1679.33
463.02	1789.92
463.22	1738.73
463.43	1771.49
463.63	1710.05
463.83	1775.59
464.04	1796.07
464.24	1767.40
464.44	1675.24
464.64	1785.83
464.85	1791.97
465.05	1818.60
465.25	1757.16
465.46	1701.86
465.66	1736.68
465.86	1783.78
466.07	1769.44
466.27	1691.62
466.47	1611.75
466.68	1738.73
466.88	1734.63
467.08	1753.06
467.29	1761.25
467.49	1685.48
467.69	1701.86
467.89	1826.79
468.10	1699.81
468.30	1847.27
468.50	1746.92
468.71	1748.97
468.91	1693.67
469.11	1740.77
469.31	1773.54
469.52	1708.01
469.72	1871.84
469.92	1900.52
470.13	1769.44
470.33	1744.87
470.53	1871.84
470.73	2068.45
470.94	2322.40
471.14	2316.25
471.34	2574.30
471.54	2379.74
471.75	2176.99
471.95	2172.89
472.15	2158.56
472.36	2045.92
472.56	2060.26
472.76	2058.21
472.96	2035.68
473.17	1984.48
473.37	1914.85
473.57	1832.93
473.77	1822.69
473.98	1781.73
474.18	1665.00
474.38	1886.18
474.58	1648.61
474.79	1699.81
474.99	1687.53
475.19	1738.73
475.39	1677.29
475.60	1832.93
475.80	1767.40
476.00	1714.15
476.20	1751.01
476.41	1726.44
476.61	1871.84
476.81	1769.44
477.01	1675.24
477.21	1871.84
477.42	1783.78
477.62	1683.43
477.82	1765.35
478.02	1701.86
478.23	1751.01
478.43	1714.15
478.63	1718.25
478.83	1763.30
479.03	1681.38
479.24	1732.58
479.44	1826.79
479.64	1685.48
479.84	1667.05
480.04	1669.09
480.25	1804.26
480.45	1734.63
480.65	1703.91
480.85	1861.60
481.06	1736.68
481.26	1765.35
481.46	1806.31
481.66	1800.16
481.86	1691.62
482.06	1716.20
482.27	1689.57
482.47	1712.10
482.67	1718.25
482.87	1699.81
483.07	1820.64
483.28	1759.21
483.48	1673.19
483.68	1730.53
483.88	1699.81
484.08	1617.90
484.29	1656.81
484.49	1751.01
484.69	1640.42
484.89	1751.01
485.09	1789.92
485.29	1714.15
485.50	1771.49
485.70	1701.86
485.90	1789.92
486.10	1726.44
486.30	1748.97
486.50	1775.59
486.71	1763.30
486.91	1697.77
487.11	1849.32
487.31	1689.57
487.51	1796.07
487.71	1742.82
487.91	1595.37
488.12	1681.38
488.32	1574.89
488.52	1724.39
488.72	1675.24
488.92	1683.43
489.12	1875.94
489.32	1875.94
489.53	1751.01
489.73	1585.13
489.93	1796.07
490.13	1689.57
490.33	1671.14
490.53	1720.29
490.73	1851.36
490.94	1714.15
491.14	1820.64
491.34	1875.94
491.54	2084.83
491.74	2549.72
491.94	2869.20
492.14	3063.76
492.34	3051.47
492.54	2807.77
492.75	2582.49
492.95	2564.06
493.15	2306.01
493.35	2242.53
493.55	2277.34
493.75	2060.26
493.95	2080.74
494.15	2050.02
494.35	1980.39
494.56	1857.51
494.76	1785.83
494.96	1765.35
495.16	1839.08
495.36	1724.39
495.56	1714.15
495.76	1728.49
495.96	1779.68
496.16	1621.99
496.36	1798.12
496.56	1763.30
496.77	1757.16
496.97	1714.15
497.17	1824.74
497.37	1638.38
497.57	1746.92
497.77	1822.69
497.97	1683.43
498.17	1755.11
498.37	1736.68
498.57	1775.59
498.77	1744.87
498.97	1828.84
499.17	1796.07
499.38	1767.40
499.58	1755.11
499.78	1847.27
499.98	1748.97
500.18	1728.49
500.38	1716.20
500.58	1959.91
500.78	2629.59
500.98	4458.43
501.18	5713.83
501.38	6852.50
501.58	7206.80
501.78	6823.83
501.98	5662.63
502.18	5107.63
502.38	4448.19
502.58	4208.58
502.78	3809.22
502.98	3663.82
503.18	3444.68
503.38	3237.84
503.59	2918.36
503.79	2691.03
503.99	2519.00
504.19	2338.78
504.39	2222.05
504.59	2166.75
504.79	2125.79
504.99	2033.63
505.19	1890.28
505.39	1918.95
505.59	1978.34
505.79	1859.56
505.99	1843.17
506.19	1875.94
506.39	1875.94
506.59	1748.97
506.79	1746.92
506.99	1796.07
507.19	1740.77
507.39	1724.39
507.59	1714.15
507.79	1759.21
507.99	1675.24
508.19	1656.81
508.39	1748.97
508.59	1740.77
508.79	1822.69
508.99	1908.71
509.19	1746.92
509.39	1812.45
509.59	1718.25
509.79	1712.10
509.99	1871.84
510.19	1796.07
510.39	1875.94
510.59	1755.11
510.79	1777.64
510.99	1660.90
511.19	1759.21
511.39	1757.16
511.59	1744.87
511.79	1853.41
511.99	1751.01
512.19	1796.07
512.38	1755.11
512.58	1720.29
512.78	1746.92
512.98	1847.27
513.18	1779.68
513.38	1669.09
513.58	1746.92
513.78	1751.01
513.98	1763.30
514.18	1703.91
514.38	1814.50
514.58	1757.16
514.78	1687.53
514.98	1697.77
515.18	1708.01
515.38	1701.86
515.58	1861.60
515.78	1650.66
515.98	1748.97
516.18	1824.74
516.38	1765.35
516.57	1705.96
516.77	1773.54
516.97	1808.36
517.17	1685.48
517.37	1701.86
517.57	1816.55
517.77	1697.77
517.97	1636.33
518.17	1804.26
518.37	1703.91
518.57	1677.29
518.77	1705.96
518.97	1669.09
519.16	1693.67
519.36	1849.32
519.56	1730.53
519.76	1787.88
519.96	1781.73
520.16	1800.16
520.36	1697.77
520.56	1800.16
520.76	1679.33
520.96	1777.64
521.16	1867.75
521.35	1828.84
521.55	1834.98
521.75	1796.07
521.95	1681.38
522.15	1757.16
522.35	1695.72
522.55	1705.96
522.75	1810.40
522.95	1787.88
523.14	1615.85
523.34	1722.34
523.54	1669.09
523.74	1763.30
523.94	1724.39
524.14	1617.90
524.34	1742.82
524.54	1826.79
524.73	1746.92
524.93	1787.88
525.13	1720.29
525.33	1611.75
525.53	1906.66
525.73	1736.68
525.93	1669.09
526.13	1667.05
526.32	1693.67
526.52	1726.44
526.72	1740.77
526.92	1744.87
527.12	1746.92
527.32	1718.25
527.52	1724.39
527.71	1779.68
527.91	1761.25
528.11	1710.05
528.31	1783.78
528.51	1628.14
528.71	1720.29
528.90	1740.77
529.10	1828.84
529.30	1761.25
529.50	1652.71
529.70	1738.73
529.90	1755.11
530.09	1720.29
530.29	1689.57
530.49	1656.81
530.69	1816.55
530.89	1785.83
531.09	1886.18
531.28	1691.62
531.48	1873.89
531.68	1703.91
531.88	1746.92
532.08	1832.93
532.28	1619.94
532.47	1849.32
532.67	1716.20
532.87	1751.01
533.07	1734.63
533.27	1808.36
533.46	1746.92
533.66	1732.58
533.86	1759.21
534.06	1802.21
534.26	1761.25
534.45	1695.72
534.65	1767.40
534.85	1697.77
535.05	1734.63
535.25	1712.10
535.44	1665.00
535.64	1761.25
535.84	1718.25
536.04	1687.53
536.24	1732.58
536.43	1665.00
536.63	1662.95
536.83	1730.53
537.03	1734.63
537.22	1656.81
537.42	1669.09
537.62	1820.64
537.82	1667.05
538.02	1781.73
538.21	1839.08
538.41	1933.28
538.61	1773.54
538.81	1705.96
539.00	1789.92
539.20	1667.05
539.40	1736.68
539.60	1744.87
539.79	1824.74
539.99	1744.87
540.19	1769.44
540.39	1705.96
540.58	1779.68
540.78	1789.92
540.98	1732.58
541.18	1789.92
541.37	1812.45
541.57	1771.49
541.77	1816.55
541.97	1708.01
542.16	1656.81
542.36	1722.34
542.56	1624.04
542.76	1861.60
542.95	1796.07
543.15	1675.24
543.35	1798.12
543.54	1740.77
543.74	1714.15
543.94	1851.36
544.14	1685.48
544.33	1748.97
544.53	1703.91
544.73	1667.05
544.93	1761.25
545.12	1759.21
545.32	1775.59
545.52	1761.25
545.71	1712.10
545.91	1665.00
546.11	1718.25
546.30	1710.05
546.50	1695.72
546.70	1742.82
546.90	1791.97
547.09	1714.15
547.29	1726.44
547.49	1785.83
547.68	1783.78
547.88	1787.88
548.08	1822.69
548.27	2228.19
548.47	1732.58
548.67	1665.00
548.87	1794.02
549.06	1759.21
549.26	1732.58
549.46	1744.87
549.65	1722.34
549.85	1775.59
550.05	1855.46
550.24	1712.10
550.44	1679.33
550.64	1759.21
550.83	1714.15
551.03	1898.47
551.23	1832.93
551.42	1822.69
551.62	1738.73
551.82	1722.34
552.01	1724.39
552.21	1857.51
552.41	1697.77
552.60	1773.54
552.80	1689.57
553.00	1689.57
553.19	1759.21
553.39	1867.75
553.59	1679.33
553.78	1673.19
553.98	1787.88
554.17	1679.33
554.37	1746.92
554.57	1796.07
554.76	1665.00
554.96	1722.34
555.16	1785.83
555.35	1812.45
555.55	1751.01
555.75	1712.10
555.94	1865.70
556.14	1675.24
556.33	1734.63
556.53	1742.82
556.73	1773.54
556.92	1796.07
557.12	1808.36
557.32	1855.46
557.51	1765.35
557.71	1828.84
557.90	1818.60
558.10	1859.56
558.30	1679.33
558.49	1748.97
558.69	1755.11
558.88	1755.11
559.08	1732.58
559.28	1710.05
559.47	1748.97
559.67	1732.58
559.86	1828.84
560.06	1769.44
560.26	1722.34
560.45	1724.39
560.65	1763.30
560.84	1808.36
561.04	1626.09
561.24	1822.69
561.43	1732.58
561.63	1812.45
561.82	1757.16
562.02	1769.44
562.22	1769.44
562.41	1759.21
562.61	1673.19
562.80	1691.62
563.00	1935.33
563.19	1759.21
563.39	1822.69
563.59	1757.16
563.78	1662.95
563.98	1669.09
564.17	1759.21
564.37	1617.90
564.56	1748.97
564.76	1673.19
564.96	1810.40
565.15	1810.40
565.35	1841.12
565.54	1708.01
565.74	1806.31
565.93	1730.53
566.13	1718.25
566.32	1744.87
566.52	1822.69
566.71	1683.43
566.91	1765.35
567.11	1720.29
567.30	1689.57
567.50	1802.21
567.69	1767.40
567.89	1744.87
568.08	1726.44
568.28	1744.87
568.47	1648.61
568.67	1781.73
568.86	1705.96
569.06	1751.01
569.25	1726.44
569.45	1732.58
569.64	1736.68
569.84	1730.53
570.04	1830.88
570.23	1683.43
570.43	1769.44
570.62	1726.44
570.82	1863.65
571.01	1736.68
571.21	1746.92
571.40	1658.85
571.60	1806.31
571.79	1769.44
571.99	1804.26
572.18	1675.24
572.38	1730.53
572.57	1763.30
572.77	1796.07
572.96	1828.84
573.16	1765.35
573.35	1701.86
573.55	1751.01
573.74	1773.54
573.94	1732.58
574.13	1748.97
574.33	1781.73
574.52	1816.55
574.71	1738.73
574.91	1765.35
575.10	1634.28
575.30	1783.78
575.49	1675.24
575.69	1730.53
575.88	1681.38
576.08	1652.71
576.27	1714.15
576.47	1763.30
576.66	1941.47
576.86	1767.40
577.05	1763.30
577.25	1800.16
577.44	1828.84
577.64	1671.14
577.83	1806.31
578.02	1814.50
578.22	1720.29
578.41	1820.64
578.61	1718.25
578.80	1683.43
579.00	1726.44
579.19	1693.67
579.39	1814.50
579.58	1841.12
579.77	1773.54
579.97	1796.07
580.16	1837.03
580.36	1779.68
580.55	1820.64
580.75	1783.78
580.94	1767.40
581.13	1834.98
581.33	1789.92
581.52	1697.77
581.72	1826.79
581.91	1834.98
582.11	1660.90
582.30	1759.21
582.49	1816.55
582.69	1863.65
582.88	1791.97
583.08	1753.06
583.27	1822.69
583.47	1748.97
583.66	1767.40
583.85	1714.15
584.05	1757.16
584.24	1785.83
584.44	1816.55
584.63	1787.88
584.82	1837.03
585.02	1808.36
585.21	1791.97
585.41	1902.56
585.60	1839.08
585.79	1955.81
585.99	1957.86
586.18	1863.65
586.37	2254.81
586.57	3256.27
586.76	10047.33
586.96	24391.31
587.15	34637.30
587.34	40342.94
587.54	42331.51
587.73	36658.64
587.93	26195.57
588.12	21380.79
588.31	18398.95
588.51	16137.99
588.70	15154.97
588.89	14178.09
589.09	12646.21
589.28	11216.72
589.47	9332.59
589.67	8013.70
589.86	6463.39
590.06	4933.56
590.25	4003.78
590.44	3160.02
590.64	2643.93
590.83	2267.10
591.02	2093.02
591.22	1912.80
591.41	1955.81
591.60	1839.08
591.80	1947.62
591.99	1738.73
592.18	1816.55
592.38	1826.79
592.57	1781.73
592.76	1800.16
592.96	1834.98
593.15	1755.11
593.34	1857.51
593.54	1787.88
593.73	1841.12
593.92	1773.54
594.12	1753.06
594.31	1783.78
594.50	1826.79
594.70	1841.12
594.89	1841.12
595.08	1683.43
595.28	1841.12
595.47	1980.39
595.66	1783.78
595.86	1689.57
596.05	1683.43
596.24	1714.15
596.43	1847.27
596.63	1746.92
596.82	1785.83
597.01	1740.77
597.21	1896.42
597.40	1753.06
597.59	1697.77
597.79	1755.11
597.98	1732.58
598.17	1693.67
598.36	1705.96
598.56	1748.97
598.75	1734.63
598.94	1746.92
599.14	1701.86
599.33	1732.58
599.52	1757.16
599.71	1791.97
599.91	1857.51
600.10	1763.30
600.29	1732.58
600.48	1748.97
600.68	1775.59
600.87	1720.29
601.06	1783.78
601.26	1728.49
601.45	1796.07
601.64	1724.39
601.83	1839.08
602.03	1687.53
602.22	1656.81
602.41	1779.68
602.60	1927.14
602.80	1783.78
602.99	1777.64
603.18	1609.70
603.37	1765.35
603.57	1744.87
603.76	1800.16
603.95	1808.36
604.14	1714.15
604.34	1742.82
604.53	1765.35
604.72	1802.21
604.91	1812.45
605.10	1777.64
605.30	1626.09
605.49	1888.23
605.68	1800.16
605.87	1742.82
606.07	1732.58
606.26	1781.73
606.45	1789.92
606.64	1730.53
606.84	1767.40
607.03	1732.58
607.22	1800.16
607.41	1714.15
607.60	1703.91
607.80	1816.55
607.99	1800.16
608.18	1777.64
608.37	1757.16
608.56	1693.67
608.76	1773.54
608.95	1845.22
609.14	1714.15
609.33	1699.81
609.52	1773.54
609.72	1742.82
609.91	1808.36
610.10	1738.73
610.29	1851.36
610.48	1812.45
610.68	1712.10
610.87	1669.09
611.06	1757.16
611.25	1781.73
611.44	1884.13
611.63	1738.73
611.83	1839.08
612.02	1699.81
612.21	1763.30
612.40	1648.61
612.59	1714.15
612.79	1644.52
612.98	1775.59
613.17	1787.88
613.36	1732.58
613.55	1824.74
613.74	1699.81
613.93	1714.15
614.13	1697.77
614.32	1736.68
614.51	1748.97
614.70	1673.19
614.89	1705.96
615.08	1781.73
615.28	2043.87
615.47	1738.73
615.66	1761.25
615.85	1728.49
616.04	1859.56
616.23	1724.39
616.42	1689.57
616.62	1722.34
616.81	1732.58
617.00	1718.25
617.19	1796.07
617.38	1646.57
617.57	1738.73
617.76	1746.92
617.95	1738.73
618.15	1714.15
618.34	1853.41
618.53	1662.95
618.72	1755.11
618.91	1871.84
619.10	1828.84
619.29	1730.53
619.48	1730.53
619.68	1689.57
619.87	1724.39
620.06	1658.85
620.25	1730.53
620.44	1720.29
620.63	1771.49
620.82	1734.63
621.01	1722.34
621.20	1724.39
621.39	1728.49
621.59	1802.21
621.78	1691.62
621.97	1771.49
622.16	1834.98
622.35	1710.05
622.54	1755.11
622.73	1837.03
622.92	1673.19
623.11	1824.74
623.30	1689.57
623.49	1824.74
623.68	1632.23
623.88	1710.05
624.07	1714.15
624.26	1769.44
624.45	1812.45
624.64	1660.90
624.83	1839.08
625.02	1744.87
625.21	1794.02
625.40	1712.10
625.59	1822.69
625.78	1765.35
625.97	1886.18
626.16	1802.21
626.35	1701.86
626.54	1714.15
626.74	1763.30
626.93	1652.71
627.12	1724.39
627.31	1798.12
627.50	1781.73
627.69	1767.40
627.88	1689.57
628.07	1712.10
628.26	1687.53
628.45	1716.20
628.64	1679.33
628.83	1691.62
629.02	1634.28
629.21	1730.53
629.40	1728.49
629.59	1689.57
629.78	1697.77
629.97	1781.73
630.16	1759.21
630.35	1675.24
630.54	1681.38
630.73	1589.22
630.92	1765.35
631.11	1585.13
631.30	1781.73
631.49	1761.25
631.68	1773.54
631.87	1693.67
632.06	1656.81
632.25	1742.82
632.44	1712.10
632.63	1736.68
632.82	1732.58
633.01	1705.96
633.20	1701.86
633.39	1687.53
633.58	1716.20
633.77	1691.62
633.96	1798.12
634.15	1746.92
634.34	1742.82
634.53	1636.33
634.72	1730.53
634.91	1611.75
635.10	1738.73
635.29	1841.12
635.48	1718.25
635.67	1677.29
635.86	1712.10
636.05	1767.40
636.24	1753.06
636.43	1736.68
636.62	1773.54
636.81	1599.46
637.00	1755.11
637.19	1740.77
637.38	1703.91
637.57	1699.81
637.76	1685.48
637.95	1689.57
638.14	1652.71
638.33	1693.67
638.52	1759.21
638.71	1662.95
638.89	1628.14
639.08	1847.27
639.27	1816.55
639.46	1757.16
639.65	1767.40
639.84	1763.30
640.03	1773.54
640.22	1703.91
640.41	1779.68
640.60	1675.24
640.79	1693.67
640.98	1712.10
641.17	1757.16
641.36	1740.77
641.55	1730.53
641.74	1617.90
641.92	1654.76
642.11	1665.00
642.30	1691.62
642.49	1658.85
642.68	1773.54
642.87	1716.20
643.06	1791.97
643.25	1783.78
643.44	1691.62
643.63	1640.42
643.82	1791.97
644.00	1665.00
644.19	1687.53
644.38	1601.51
644.57	1734.63
644.76	1708.01
644.95	1701.86
645.14	1777.64
645.33	1742.82
645.52	1757.16
645.71	1624.04
645.89	1716.20
646.08	1689.57
646.27	1742.82
646.46	1763.30
646.65	1589.22
646.84	1767.40
647.03	1746.92
647.22	1767.40
647.40	1738.73
647.59	1665.00
647.78	1603.56
647.97	1650.66
648.16	1787.88
648.35	1843.17
648.54	1843.17
648.73	1624.04
648.91	1726.44
649.10	1677.29
649.29	1652.71
649.48	1671.14
649.67	1716.20
649.86	1695.72
650.05	1785.83
650.23	1728.49
650.42	1634.28
650.61	1716.20
650.80	1726.44
650.99	1773.54
651.18	1689.57
651.36	1826.79
651.55	1761.25
651.74	1798.12
651.93	1669.09
652.12	1656.81
652.31	1767.40
652.49	1685.48
652.68	1658.85
652.87	1746.92
653.06	1689.57
653.25	1804.26
653.44	1757.16
653.62	1796.07
653.81	1697.77
654.00	1722.34
654.19	1779.68
654.38	1869.80
654.56	1769.44
654.75	1681.38
654.94	1757.16
655.13	1769.44
655.32	1732.58
655.51	1775.59
655.69	1703.91
655.88	1808.36
656.07	1662.95
656.26	1812.45
656.45	1665.00
656.63	1796.07
656.82	1798.12
657.01	1796.07
657.20	1671.14
657.38	1855.46
657.57	1699.81
657.76	1652.71
657.95	1738.73
658.14	1667.05
658.32	1705.96
658.51	1636.33
658.70	1798.12
658.89	1720.29
659.08	1751.01
659.26	1779.68
659.45	1691.62
659.64	1751.01
659.83	1675.24
660.01	1947.62
660.20	1712.10
660.39	1802.21
660.58	1703.91
660.76	1767.40
660.95	1621.99
661.14	1742.82
661.33	1646.57
661.51	1669.09
661.70	1673.19
661.89	1740.77
662.08	1662.95
662.26	1677.29
662.45	1648.61
662.64	1843.17
662.83	1734.63
663.01	1675.24
663.20	1728.49
663.39	1861.60
663.58	1771.49
663.76	1675.24
663.95	1724.39
664.14	1671.14
664.32	1660.90
664.51	1708.01
664.70	1691.62
664.89	1748.97
665.07	1746.92
665.26	1785.83
665.45	1677.29
665.64	1714.15
665.82	1669.09
666.01	1796.07
666.20	1705.96
666.38	1779.68
666.57	1796.07
666.76	2183.13
666.95	4507.58
667.13	10387.30
667.32	15470.36
667.51	17903.34
667.69	19451.61
667.88	17925.87
668.07	12545.86
668.25	9713.52
668.44	8130.44
668.63	7339.92
668.81	6858.65
669.00	6463.39
669.19	5744.55
669.38	5111.73
669.56	4550.59
669.75	3944.39
669.94	3477.45
670.12	2877.40
670.31	2523.10
670.50	2297.82
670.68	2080.74
670.87	1904.61
671.06	1861.60
671.24	1843.17
671.43	1863.65
671.62	1757.16
671.80	1654.76
671.99	1794.02
672.18	1789.92
672.36	1804.26
672.55	1796.07
672.74	1640.42
672.92	1613.80
673.11	1845.22
673.29	1701.86
673.48	1798.12
673.67	1734.63
673.85	1796.07
674.04	1652.71
674.23	1662.95
674.41	1804.26
674.60	1597.42
674.79	1601.51
674.97	1714.15
675.16	1685.48
675.34	1765.35
675.53	1642.47
675.72	1791.97
675.90	1800.16
676.09	1746.92
676.28	1789.92
676.46	1609.70
676.65	1816.55
676.83	1712.10
677.02	1757.16
677.21	1712.10
677.39	1689.57
677.58	1607.66
677.77	1722.34
677.95	1685.48
678.14	1667.05
678.32	1621.99
678.51	1697.77
678.70	1806.31
678.88	1695.72
679.07	1798.12
679.25	1660.90
679.44	1763.30
679.63	1658.85
679.81	1736.68
680.00	1781.73
680.18	1703.91
680.37	1783.78
680.55	1654.76
680.74	1640.42
680.93	1603.56
681.11	1673.19
681.30	1765.35
681.48	1763.30
681.67	1691.62
681.85	1757.16
682.04	1621.99
682.23	1746.92
682.41	1732.58
682.60	1654.76
682.78	1632.23
682.97	1658.85
683.15	1642.47
683.34	1751.01
683.53	1794.02
683.71	1675.24
683.90	1767.40
684.08	1816.55
684.27	1761.25
684.45	1705.96
684.64	1755.11
684.82	1722.34
685.01	1652.71
685.19	1734.63
685.38	1812.45
685.57	1644.52
685.75	1724.39
685.94	1701.86
686.12	1703.91
686.31	1746.92
686.49	1841.12
686.68	1601.51
686.86	1730.53
687.05	1703.91
687.23	1812.45
687.42	1740.77
687.60	1634.28
687.79	1714.15
687.97	1734.63
688.16	1789.92
688.34	1761.25
688.53	1613.80
688.71	1736.68
688.90	1804.26
689.08	1685.48
689.27	1576.94
689.45	1738.73
689.64	1775.59
689.82	1740.77
690.01	1728.49
690.19	1714.15
690.38	1685.48
690.56	1708.01
690.75	1662.95
690.93	1691.62
691.12	1658.85
691.30	1718.25
691.49	1785.83
691.67	1642.47
691.86	1812.45
692.04	1615.85
692.23	1693.67
692.41	1730.53
692.60	1837.03
692.78	1775.59
692.97	1691.62
693.15	1714.15
693.34	1767.40
693.52	1804.26
693.71	1693.67
693.89	1683.43
694.08	1662.95
694.26	1828.84
694.44	1773.54
694.63	1773.54
694.81	1712.10
695.00	1613.80
695.18	1886.18
695.37	1820.64
695.55	1726.44
695.74	1720.29
695.92	1679.33
696.10	1708.01
696.29	1654.76
696.47	1662.95
696.66	1689.57
696.84	1568.74
697.03	1748.97
697.21	1822.69
697.40	2297.82
697.58	1847.27
697.76	1654.76
697.95	1681.38
698.13	1564.65
698.32	1648.61
698.50	1789.92
698.68	1763.30
698.87	1742.82
699.05	1783.78
699.24	1773.54
699.42	1726.44
699.61	1671.14
699.79	1753.06
699.97	1693.67
700.16	1638.38
700.34	1662.95
700.53	1683.43
700.71	1843.17
700.89	1808.36
701.08	1705.96
701.26	1724.39
701.45	2129.89
701.63	1697.77
701.81	1648.61
702.00	1654.76
702.18	1759.21
702.37	1701.86
702.55	1773.54
702.73	1705.96
702.92	1613.80
703.10	1712.10
703.28	1748.97
703.47	1634.28
703.65	1740.77
703.84	1755.11
704.02	1675.24
704.20	1789.92
704.39	1617.90
704.57	1677.29
704.75	1708.01
704.94	1697.77
705.12	1718.25
705.30	1832.93
705.49	2152.42
705.67	4372.41
705.86	9396.08
706.04	12754.75
706.22	14544.67
706.41	15175.45
706.59	13844.27
706.77	9643.88
706.96	7348.11
707.14	6698.91
707.32	5945.25
707.51	5636.01
707.69	4927.41
707.87	4216.77
708.06	3545.03
708.24	2840.53
708.42	2471.90
708.61	2246.62
708.79	1865.70
708.97	1867.75
709.16	1857.51
709.34	1769.44
709.52	1728.49
709.71	1714.15
709.89	1759.21
710.07	1591.27
710.26	1675.24
710.44	1732.58
710.62	1740.77
710.80	1687.53
710.99	1732.58
711.17	1714.15
711.35	1714.15
711.54	1751.01
711.72	1671.14
711.90	1732.58
712.09	1744.87
712.27	1726.44
712.45	1730.53
712.63	1718.25
712.82	1679.33
713.00	1724.39
713.18	1777.64
713.37	1746.92
713.55	1730.53
713.73	1736.68
713.91	1785.83
714.10	1669.09
714.28	1748.97
714.46	1771.49
714.65	1736.68
714.83	1738.73
715.01	1710.05
715.19	1703.91
715.38	1542.12
715.56	1691.62
715.74	1634.28
715.92	1665.00
716.11	1849.32
716.29	1533.93
716.47	1646.57
716.65	1665.00
716.84	1570.79
717.02	1800.16
717.20	1671.14
717.38	1693.67
717.57	1699.81
717.75	1763.30
717.93	1703.91
718.11	1751.01
718.30	1740.77
718.48	1779.68
718.66	1812.45
718.84	1783.78
719.03	1751.01
719.21	1662.95
719.39	1816.55
719.57	1722.34
719.75	1730.53
719.94	1626.09
720.12	1755.11
720.30	1771.49
720.48	1777.64
720.67	1697.77
720.85	1708.01
721.03	1691.62
721.21	1656.81
721.39	1794.02
721.58	1691.62
721.76	1705.96
721.94	1771.49
722.12	1761.25
722.30	1767.40
722.49	1755.11
722.67	1701.86
722.85	1701.86
723.03	1685.48
723.21	1644.52
723.40	1689.57
723.58	1763.30
723.76	1751.01
723.94	1834.98
724.12	1703.91
724.30	1757.16
724.49	1777.64
724.67	1638.38
724.85	1763.30
725.03	1626.09
725.21	1771.49
725.40	1720.29
725.58	1638.38
725.76	1779.68
725.94	1708.01
726.12	1671.14
726.30	1724.39
726.49	1681.38
726.67	1728.49
726.85	1734.63
727.03	1806.31
727.21	2197.47
727.39	2895.83
727.57	3856.33
727.76	4151.23
727.94	4532.15
728.12	4431.80
728.30	3807.17
728.48	2916.31
728.66	2764.76
728.84	2551.77
729.03	2355.16
729.21	2138.08
729.39	2029.54
729.57	1851.36
729.75	1822.69
729.93	1759.21
730.11	1744.87
730.30	1720.29
730.48	1665.00
730.66	1740.77
730.84	1732.58
731.02	1722.34
731.20	1685.48
731.38	1656.81
731.56	1644.52
731.74	1673.19
731.93	1687.53
732.11	1701.86
732.29	1708.01
732.47	1753.06
732.65	1720.29
732.83	1804.26
733.01	1730.53
733.19	1716.20
733.37	1769.44
733.56	1779.68
733.74	1681.38
733.92	1699.81
734.10	1740.77
734.28	1734.63
734.46	1656.81
734.64	1740.77
734.82	1701.86
735.00	1626.09
735.18	1677.29
735.36	1701.86
735.54	1818.60
735.73	1726.44
735.91	1722.34
736.09	1751.01
736.27	1742.82
736.45	1730.53
736.63	1581.03
736.81	1714.15
736.99	1822.69
737.17	1763.30
737.35	1726.44
737.53	1771.49
737.71	1671.14
737.89	1757.16
738.07	1695.72
738.25	1665.00
738.43	1693.67
738.61	1607.66
738.80	1585.13
738.98	1624.04
739.16	1738.73
739.34	1660.90
739.52	1746.92
739.70	1726.44
739.88	1714.15
740.06	1681.38
740.24	1642.47
740.42	1730.53
740.60	1640.42
740.78	1642.47
740.96	1585.13
741.14	1701.86
741.32	1732.58
741.50	1591.27
741.68	1845.22
741.86	1816.55
742.04	1630.18
742.22	1675.24
742.40	1683.43
742.58	1740.77
742.76	1650.66
742.94	1769.44
743.12	1599.46
743.30	1652.71
743.48	1755.11
743.66	1687.53
743.84	1751.01
744.02	1703.91
744.20	1665.00
744.38	1673.19
744.56	1654.76
744.74	1777.64
744.92	1746.92
745.10	1695.72
745.28	1744.87
745.46	1712.10
745.64	1619.94
745.82	1757.16
746.00	1763.30
746.18	1740.77
746.36	1632.23
746.54	1769.44
746.72	1800.16
746.90	1736.68
747.08	1816.55
747.26	1761.25
747.44	1753.06
747.62	1728.49
747.80	1691.62
747.98	1720.29
748.15	1710.05
748.33	1789.92
748.51	1665.00
748.69	1759.21
748.87	1650.66
749.05	1685.48
749.23	1689.57
749.41	1722.34
749.59	1806.31
749.77	1710.05
749.95	1708.01
750.13	1638.38
750.31	1794.02
750.49	1646.57
750.67	1742.82
750.85	1794.02
751.03	1757.16
751.20	1753.06
751.38	1816.55
751.56	1732.58
751.74	1724.39
751.92	1699.81
752.10	1708.01
752.28	1787.88
752.46	1740.77
752.64	1701.86
752.82	1697.77
753.00	1734.63
753.18	1722.34
753.35	1640.42
753.53	1720.29
753.71	1665.00
753.89	1746.92
754.07	1736.68
754.25	1763.30
754.43	1855.46
754.61	1634.28
754.79	1746.92
754.97	1736.68
755.14	1814.50
755.32	1597.42
755.50	1652.71
755.68	1722.34
755.86	1654.76
756.04	1640.42
756.22	1613.80
756.40	1781.73
756.57	1794.02
756.75	1624.04
756.93	1804.26
757.11	1812.45
757.29	1599.46
757.47	1730.53
757.65	1638.38
757.82	1607.66
758.00	1660.90
758.18	1703.91
758.36	1685.48
758.54	1816.55
758.72	1554.41
758.90	1847.27
759.07	1773.54
759.25	1697.77
759.43	1712.10
759.61	1652.71
759.79	2201.57
759.97	1730.53
760.15	1730.53
760.32	1687.53
760.50	1699.81
760.68	1742.82
760.86	1628.14
761.04	1812.45
761.22	1718.25
761.39	1708.01
761.57	1724.39
761.75	1724.39
761.93	1712.10
762.11	1695.72
762.28	1728.49
762.46	1689.57
762.64	1738.73
762.82	1656.81
763.00	1617.90
763.18	1837.03
763.35	1658.85
763.53	1708.01
763.71	1759.21
763.89	1705.96
764.07	1675.24
764.24	1681.38
764.42	1740.77
764.60	1681.38
764.78	1744.87
764.96	1705.96
765.13	1789.92
765.31	1648.61
765.49	1763.30
765.67	1691.62
765.84	1691.62
766.02	1679.33
766.20	1650.66
766.38	1722.34
766.56	1748.97
766.73	1714.15
766.91	1744.87
767.09	1763.30
767.27	1771.49
767.44	1591.27
767.62	1703.91
767.80	1701.86
767.98	1759.21
768.15	1689.57
768.33	1751.01
768.51	1755.11
768.69	1726.44
768.87	1734.63
769.04	1755.11
769.22	1841.12
769.40	1810.40
769.58	1853.41
769.75	1734.63
769.93	1714.15
770.11	1724.39
770.28	1640.42
770.46	1767.40
770.64	1693.67
770.82	1677.29
770.99	1697.77
771.17	1744.87
771.35	1736.68
771.53	1718.25
771.70	1712.10
771.88	1787.88
772.06	1683.43
772.23	1781.73
772.41	1689.57
772.59	1708.01
772.77	1609.70
772.94	1714.15
773.12	1734.63
773.30	1742.82
773.47	1769.44
773.65	1685.48
773.83	1763.30
774.01	1703.91
774.18	1689.57
774.36	1701.86
774.54	1669.09
774.71	1734.63
774.89	1660.90
775.07	1603.56
775.24	1652.71
775.42	1685.48
775.60	1796.07
775.78	1648.61
775.95	1699.81
776.13	1656.81
776.31	1656.81
776.48	1761.25
776.66	1716.20
776.84	1701.86
777.01	1677.29
777.19	1675.24
777.37	1656.81
777.54	1673.19
777.72	1814.50
777.90	1757.16
778.07	1665.00
778.25	1806.31
778.43	1708.01
778.60	1673.19
778.78	1765.35
778.96	1761.25
779.13	1624.04
779.31	1765.35
779.49	1718.25
779.66	1667.05
779.84	1755.11
780.01	1667.05
780.19	1718.25
780.37	1771.49
780.54	1740.77
780.72	1640.42
780.90	1718.25
781.07	1628.14
781.25	1726.44
781.43	1712.10
781.60	1703.91
781.78	1798.12
781.95	1708.01
782.13	1730.53
782.31	1720.29
782.48	1662.95
782.66	1673.19
782.83	1845.22
783.01	1814.50
783.19	1785.83
783.36	1757.16
783.54	1693.67
783.72	1787.88
783.89	1736.68
784.07	1759.21
784.24	1759.21
784.42	1769.44
784.60	1755.11
784.77	1728.49
784.95	1564.65
785.12	1687.53
785.30	1816.55
785.47	1689.57
785.65	1609.70
785.83	1718.25
786.00	1726.44
786.18	1708.01
786.35	1693.67
786.53	1673.19
786.71	1728.49
786.88	1718.25
787.06	1759.21
787.23	1710.05
787.41	1687.53
787.58	1726.44
787.76	1687.53
787.94	1734.63
788.11	1693.67
788.29	1570.79
788.46	1585.13
788.64	1630.18
788.81	1646.57
788.99	1640.42
789.16	1542.12
789.34	1714.15
789.52	1615.85
789.69	1681.38
789.87	1603.56
790.04	1701.86
790.22	1738.73
790.39	1812.45
790.57	1665.00
790.74	1652.71
790.92	1753.06
791.09	1607.66
791.27	1738.73
791.44	1744.87
791.62	1662.95
791.79	1710.05
791.97	1572.84
792.15	1843.17
792.32	1736.68
792.50	1775.59
792.67	1781.73
792.85	1722.34
793.02	1701.86
793.20	1675.24
793.37	1673.19
793.55	1697.77
793.72	1636.33
793.90	1820.64
794.07	1685.48
794.25	1714.15
794.42	1771.49
794.60	1703.91
794.77	1763.30
794.95	1746.92
795.12	1728.49
795.30	1751.01
795.47	1611.75
795.65	1785.83
795.82	1705.96
796.00	1648.61
796.17	1738.73
796.34	1744.87
796.52	1703.91
796.69	1781.73
796.87	1761.25
797.04	1712.10
797.22	1751.01
797.39	1742.82
797.57	1742.82
797.74	1744.87
797.92	1736.68
798.09	1665.00
798.27	1751.01
798.44	1753.06
798.62	1644.52
798.79	1751.01
798.96	1837.03
799.14	1705.96
799.31	1804.26
799.49	1710.05
799.66	1695.72
799.84	1718.25
800.01	1593.32
800.19	1826.79
800.36	1687.53
800.53	1746.92
800.71	1740.77
800.88	1781.73
801.06	1609.70
801.23	1660.90
801.41	1675.24
801.58	1638.38
801.75	1675.24
801.93	1740.77
802.10	1746.92
802.28	1708.01
802.45	1689.57
802.63	1798.12
802.80	1834.98
802.97	1683.43
803.15	1712.10
803.32	1626.09
803.50	1665.00
803.67	1718.25
803.84	1685.48
804.02	1763.30
804.19	1654.76
804.37	1613.80
804.54	1566.70
804.71	1681.38
804.89	1697.77
805.06	1675.24
805.24	1646.57
805.41	1591.27
805.58	1726.44
805.76	1804.26
805.93	1669.09
806.10	1777.64
806.28	1724.39
806.45	1759.21
806.63	1656.81
806.80	1732.58
806.97	1728.49
807.15	1644.52
807.32	1687.53
807.49	1726.44
807.67	1632.23
807.84	1834.98
808.01	1587.18
808.19	1851.36
808.36	1779.68
808.54	1689.57
808.71	1607.66
808.88	1679.33
809.06	1847.27
809.23	1736.68
809.40	1691.62
809.58	1802.21
809.75	1705.96
809.92	1640.42
810.10	1841.12
810.27	1667.05
810.44	1660.90
810.62	1708.01
810.79	1679.33
810.96	1658.85
811.14	1642.47
811.31	1705.96
811.48	1759.21
811.66	1734.63
811.83	1765.35
812.00	1816.55
812.18	1722.34
812.35	1814.50
812.52	1738.73
812.69	1697.77
812.87	1681.38
813.04	1644.52
813.21	1748.97
813.39	1689.57
813.56	1636.33
813.73	1724.39
813.91	1619.94
814.08	1671.14
814.25	1693.67
814.42	1587.18
814.60	1642.47
814.77	1675.24
814.94	1671.14
815.12	1609.70
815.29	1765.35
815.46	1667.05
815.63	1714.15
815.81	1710.05
815.98	1695.72
816.15	1703.91
816.33	1781.73
816.50	1636.33
816.67	1701.86
816.84	1679.33
817.02	1689.57
817.19	1703.91
817.36	1714.15
817.53	1740.77
817.71	1638.38
817.88	1769.44
818.05	1701.86
818.22	1691.62
818.40	1796.07
818.57	1724.39
818.74	1665.00
818.91	1699.81
819.09	1763.30
819.26	1697.77
819.43	1683.43
819.60	1673.19
819.78	1746.92
819.95	1759.21
820.12	1675.24
820.29	1785.83
820.47	1839.08
820.64	1671.14
820.81	1646.57
820.98	1658.85
821.15	1705.96
821.33	1746.92
821.50	1615.85
821.67	1726.44
821.84	1636.33
822.02	1767.40
822.19	1708.01
822.36	1742.82
822.53	1773.54
822.70	1619.94
822.88	1654.76
823.05	1808.36
823.22	1675.24
823.39	1761.25
823.56	1808.36
823.74	1757.16
823.91	1667.05
824.08	1642.47
824.25	1636.33
824.42	1742.82
824.60	1601.51
824.77	1689.57
824.94	1710.05
825.11	1748.97
825.28	1591.27
825.45	1734.63
825.63	1744.87
825.80	1673.19
825.97	1703.91
826.14	1673.19
826.31	1652.71
826.48	1755.11
826.66	1722.34
826.83	1619.94
827.00	1689.57
827.17	1695.72
827.34	1640.42
827.51	1619.94
827.69	1681.38
827.86	1677.29
828.03	1669.09
828.20	1654.76
828.37	1708.01
828.54	1796.07
828.71	1675.24
828.89	1755.11
829.06	1714.15
829.23	1783.78
829.40	1636.33
829.57	1705.96
829.74	1730.53
829.91	1654.76
830.09	1638.38
830.26	1740.77
830.43	1791.97
830.60	1673.19
830.77	1724.39
830.94	1748.97
831.11	1783.78
831.28	1728.49
831.46	1714.15
831.63	1644.52
831.80	1820.64
831.97	1675.24
832.14	1712.10
832.31	1718.25
832.48	1656.81
832.65	1798.12
832.82	1753.06
832.99	1685.48
833.17	1636.33
833.34	1726.44
833.51	1716.20
833.68	1634.28
833.85	1716.20
834.02	1615.85
834.19	1742.82
834.36	1617.90
834.53	1681.38
834.70	1744.87
834.87	1748.97
835.04	1681.38
835.22	1652.71
835.39	1675.24
835.56	1697.77
835.73	1646.57
835.90	1742.82
836.07	1632.23
836.24	1740.77
836.41	1658.85
836.58	1712.10
836.75	1804.26
836.92	1753.06
837.09	1681.38
837.26	1722.34
837.43	1703.91
837.60	1773.54
837.77	1681.38
837.94	1755.11
838.12	1718.25
838.29	1714.15
838.46	1566.70
838.63	1650.66
838.80	1812.45
838.97	1773.54
839.14	1730.53
839.31	1734.63
839.48	1734.63
839.65	1685.48
839.82	1714.15
839.99	1689.57
840.16	1728.49
840.33	1617.90
840.50	1708.01
840.67	1667.05
840.84	1550.31
841.01	1732.58
841.18	1632.23
841.35	1634.28
841.52	1777.64
841.69	1787.88
841.86	1683.43
842.03	1662.95
842.20	1730.53
842.37	1642.47
842.54	1783.78
842.71	1701.86
842.88	1703.91
843.05	1791.97
843.22	1667.05
843.39	1789.92
843.56	1730.53
843.73	1687.53
843.90	1710.05
844.07	1738.73
844.24	1736.68
844.41	1748.97
844.58	1710.05
844.75	1679.33
844.92	1742.82
845.09	1732.58
845.26	1648.61
845.43	1753.06
845.60	1722.34
845.77	1800.16
845.94	1730.53
846.10	1796.07
846.27	1685.48
846.44	1689.57
846.61	1611.75
846.78	1708.01
846.95	1751.01
847.12	1708.01
847.29	1681.38
847.46	1617.90
847.63	1714.15
847.80	1640.42
847.97	1705.96
848.14	1789.92
848.31	1671.14
848.48	1607.66
848.65	1734.63
848.82	1640.42
848.98	1877.99
849.15	1646.57
849.32	1763.30
849.49	1787.88
849.66	1712.10
849.83	1708.01
850.00	1683.43
850.17	1767.40
850.34	1705.96
850.51	1636.33
850.68	1742.82
850.85	1777.64
851.01	1775.59
851.18	1681.38
851.35	1796.07
851.52	1710.05
851.69	1761.25
851.86	1572.84
852.03	1660.90
852.20	1806.31
852.37	1677.29
852.53	1591.27
852.70	1755.11
852.87	1800.16
853.04	1705.96
853.21	1642.47
853.38	1748.97
853.55	1742.82
853.72	1808.36
853.89	1648.61
854.05	1748.97
854.22	1738.73
854.39	1763.30
854.56	1765.35
854.73	1703.91
854.90	1615.85
855.07	1705.96
855.23	1703.91
855.40	1656.81
855.57	1730.53
855.74	1697.77
855.91	1892.32
856.08	1607.66
856.25	1609.70
856.41	1650.66
856.58	1703.91
856.75	1708.01
856.92	1718.25
857.09	1791.97
857.26	1632.23
857.42	1601.51
857.59	1718.25
857.76	1648.61
857.93	1726.44
858.10	1726.44
858.27	1638.38
858.43	1742.82
858.60	1732.58
858.77	1595.37
858.94	1673.19
859.11	1765.35
859.27	1624.04
859.44	1630.18
859.61	1767.40
859.78	1701.86
859.95	1718.25
860.12	1714.15
860.28	1810.40
860.45	1830.88
860.62	1685.48
860.79	1693.67
860.95	1728.49
861.12	1609.70
861.29	1689.57
861.46	1591.27
861.63	1714.15
861.79	1705.96
861.96	1603.56
862.13	1718.25
862.30	1695.72
862.47	1683.43
862.63	1753.06
862.80	1777.64
862.97	1779.68
863.14	1646.57
863.30	1665.00
863.47	1687.53
863.64	1705.96
863.81	1714.15
863.97	1677.29
864.14	1720.29
864.31	1660.90
864.48	1763.30
864.65	1681.38
864.81	1765.35
864.98	1744.87
865.15	1761.25
865.32	1738.73
865.48	1689.57
865.65	1853.41
865.82	1667.05
865.98	1712.10
866.15	1755.11
866.32	1703.91
866.49	1683.43
866.65	1781.73
866.82	1634.28
866.99	1697.77
867.16	1658.85
867.32	1667.05
867.49	1724.39
867.66	1632.23
867.83	1611.75
867.99	1599.46
868.16	1730.53
868.33	1673.19
868.49	1660.90
868.66	1691.62
868.83	1781.73
868.99	1683.43
869.16	1757.16
869.33	1732.58
869.50	1718.25
869.66	1748.97
869.83	1765.35
870.00	1652.71
870.16	1759.21
870.33	1687.53
870.50	1646.57
870.66	1636.33
870.83	1796.07
871.00	1650.66
871.17	1730.53
871.33	1703.91
871.50	1722.34
871.67	1609.70
871.83	1685.48
872.00	1791.97
872.17	1675.24
872.33	1816.55
872.50	1705.96
872.67	1677.29
872.83	1607.66
873.00	1669.09
873.17	1761.25
873.33	1761.25
873.50	1845.22
873.67	1673.19
873.83	1685.48
874.00	1660.90
874.16	1716.20
874.33	1730.53
874.50	1644.52
874.66	1755.11
874.83	1732.58
875.00	1787.88
875.16	1779.68
875.33	1767.40
875.50	1607.66
875.66	1644.52
875.83	1673.19
875.99	1785.83
876.16	1697.77
876.33	1646.57
876.49	1619.94
876.66	1837.03
876.83	1669.09
876.99	1632.23
877.16	1718.25
877.32	1683.43
877.49	1615.85
877.66	1726.44
877.82	1785.83
877.99	1679.33
878.15	1763.30
878.32	1673.19
878.49	1683.43
878.65	1662.95
878.82	1804.26
878.98	1677.29
879.15	1755.11
879.32	1710.05
879.48	1804.26
879.65	1619.94
879.81	1718.25
879.98	1781.73
880.15	1740.77
880.31	1738.73
880.48	1679.33
880.64	1744.87
880.81	1755.11
880.97	1812.45
881.14	1820.64
881.31	1662.95
881.47	1812.45
881.64	1701.86
881.80	1603.56
881.97	1687.53
882.13	1744.87
882.30	1617.90
882.47	1716.20
882.63	1669.09
882.80	1568.74
882.96	1718.25
883.13	1738.73
883.29	1705.96
883.46	1751.01
883.62	1791.97
883.79	1708.01
883.95	1804.26
884.12	1671.14
884.29	1648.61
884.45	1665.00
884.62	1808.36
884.78	1722.34
884.95	1796.07
885.11	1587.18
885.28	1773.54
885.44	1701.86
885.61	1730.53
885.77	1726.44
885.94	1753.06
886.10	1726.44
886.27	1722.34
886.43	1816.55
886.60	1761.25
886.76	1656.81
886.93	1667.05
887.09	1660.90
887.26	1560.55
887.42	1691.62
887.59	1796.07
887.75	1787.88
887.92	1728.49
888.08	1720.29
888.25	1880.04
888.41	1785.83
888.58	1761.25
888.74	1718.25
888.91	1642.47
>>>>>End Processed Spectral Data<<<<<
