SpectraSuite Data File
++++++++++++++++++++++++++++++++++++
Date: Mon Jun 06 13:39:37 CEST 2016
User: root
Dark Spectrum Present: No
Reference Spectrum Present: No
Number of Sampled Component Spectra: 1
Spectrometers: USB4C02835
Integration Time (usec): 100000 (USB4C02835)
Spectra Averaged: 1 (USB4C02835)
Boxcar Smoothing: 0 (USB4C02835)
Correct for Electrical Dark: No (USB4C02835)
Strobe/Lamp Enabled: No (USB4C02835)
Correct for Detector Non-linearity: No (USB4C02835)
Correct for Stray Light: No (USB4C02835)
Number of Pixels in Processed Spectrum: 3648
>>>>>Begin Processed Spectral Data<<<<<
177.47	1409.00
177.69	1409.00
177.91	1409.00
178.13	1443.82
178.36	1495.02
178.58	1652.71
178.80	1714.15
179.02	1648.61
179.24	1640.42
179.46	1648.61
179.68	1746.92
179.90	1646.57
180.13	1718.25
180.35	1675.24
180.57	1660.90
180.79	1691.62
181.01	1751.01
181.23	1769.44
181.45	1767.40
181.67	1689.57
181.90	1757.16
182.12	1630.18
182.34	1648.61
182.56	1685.48
182.78	1656.81
183.00	1695.72
183.22	1710.05
183.44	1634.28
183.66	1918.95
183.89	1789.92
184.11	1734.63
184.33	1791.97
184.55	1771.49
184.77	1656.81
184.99	1775.59
185.21	1691.62
185.43	1845.22
185.65	1673.19
185.87	1718.25
186.10	1732.58
186.32	1820.64
186.54	1722.34
186.76	1734.63
186.98	1759.21
187.20	1738.73
187.42	1691.62
187.64	1609.70
187.86	1675.24
188.08	1826.79
188.30	1665.00
188.52	1681.38
188.75	1781.73
188.97	1697.77
189.19	1679.33
189.41	1677.29
189.63	1734.63
189.85	1679.33
190.07	1658.85
190.29	1583.08
190.51	1761.25
190.73	1634.28
190.95	1732.58
191.17	1669.09
191.39	1675.24
191.61	1662.95
191.84	1767.40
192.06	1685.48
192.28	1611.75
192.50	1892.32
192.72	1798.12
192.94	1640.42
193.16	1697.77
193.38	1693.67
193.60	1603.56
193.82	1671.14
194.04	1753.06
194.26	1667.05
194.48	1652.71
194.70	1689.57
194.92	1634.28
195.14	1796.07
195.36	1611.75
195.58	1689.57
195.80	1546.22
196.02	1673.19
196.24	1675.24
196.46	1697.77
196.69	1689.57
196.91	1839.08
197.13	1677.29
197.35	1691.62
197.57	1693.67
197.79	1665.00
198.01	1658.85
198.23	1718.25
198.45	1730.53
198.67	1703.91
198.89	1718.25
199.11	1755.11
199.33	1656.81
199.55	1568.74
199.77	1718.25
199.99	1728.49
200.21	1718.25
200.43	1765.35
200.65	1665.00
200.87	1587.18
201.09	1753.06
201.31	1648.61
201.53	1683.43
201.75	1759.21
201.97	1638.38
202.19	1718.25
202.41	1722.34
202.63	1802.21
202.85	1673.19
203.07	1736.68
203.29	1607.66
203.51	1603.56
203.73	1626.09
203.95	1853.41
204.17	1656.81
204.39	1744.87
204.61	1640.42
204.83	1687.53
205.05	1738.73
205.27	1779.68
205.49	1775.59
205.71	1804.26
205.93	1656.81
206.15	1628.14
206.37	1730.53
206.59	1671.14
206.81	1538.02
207.03	1683.43
207.25	1730.53
207.47	1712.10
207.69	1613.80
207.91	1804.26
208.13	1794.02
208.34	1665.00
208.56	1617.90
208.78	1718.25
209.00	1665.00
209.22	1665.00
209.44	1732.58
209.66	1720.29
209.88	1568.74
210.10	1740.77
210.32	1652.71
210.54	1798.12
210.76	1673.19
210.98	1796.07
211.20	1605.61
211.42	1683.43
211.64	1675.24
211.86	1712.10
212.08	1839.08
212.30	1673.19
212.52	1681.38
212.74	1746.92
212.96	1671.14
213.17	1722.34
213.39	1722.34
213.61	1828.84
213.83	1675.24
214.05	1593.32
214.27	1728.49
214.49	1665.00
214.71	1740.77
214.93	1753.06
215.15	1755.11
215.37	1746.92
215.59	1597.42
215.81	1691.62
216.03	1740.77
216.24	1714.15
216.46	1685.48
216.68	1742.82
216.90	1693.67
217.12	1775.59
217.34	1851.36
217.56	1740.77
217.78	1783.78
218.00	1751.01
218.22	1759.21
218.44	1763.30
218.66	1744.87
218.87	1804.26
219.09	1624.04
219.31	1740.77
219.53	1683.43
219.75	1716.20
219.97	1742.82
220.19	1689.57
220.41	1685.48
220.63	1810.40
220.85	1656.81
221.06	1716.20
221.28	1732.58
221.50	1712.10
221.72	1695.72
221.94	1673.19
222.16	1701.86
222.38	1726.44
222.60	1748.97
222.82	1642.47
223.03	1736.68
223.25	1642.47
223.47	1759.21
223.69	1808.36
223.91	1744.87
224.13	1652.71
224.35	1695.72
224.57	1732.58
224.78	1691.62
225.00	1671.14
225.22	1665.00
225.44	1712.10
225.66	1691.62
225.88	1765.35
226.10	1785.83
226.32	1689.57
226.53	1843.17
226.75	1679.33
226.97	1708.01
227.19	1654.76
227.41	1708.01
227.63	1705.96
227.85	1634.28
228.06	1691.62
228.28	1759.21
228.50	1724.39
228.72	1671.14
228.94	1656.81
229.16	1542.12
229.37	1697.77
229.59	1576.94
229.81	1779.68
230.03	1665.00
230.25	1632.23
230.47	1677.29
230.69	1640.42
230.90	1816.55
231.12	1574.89
231.34	1728.49
231.56	1763.30
231.78	1683.43
232.00	1716.20
232.21	1726.44
232.43	1667.05
232.65	1589.22
232.87	1742.82
233.09	1724.39
233.30	1640.42
233.52	1773.54
233.74	1656.81
233.96	1617.90
234.18	1708.01
234.40	1757.16
234.61	1812.45
234.83	1660.90
235.05	1644.52
235.27	1769.44
235.49	1777.64
235.70	1677.29
235.92	1726.44
236.14	1689.57
236.36	1830.88
236.58	1642.47
236.79	1771.49
237.01	1726.44
237.23	1734.63
237.45	1847.27
237.67	1624.04
237.88	1640.42
238.10	1830.88
238.32	1650.66
238.54	1730.53
238.76	1689.57
238.97	1671.14
239.19	1730.53
239.41	1689.57
239.63	1708.01
239.85	1697.77
240.06	1675.24
240.28	1636.33
240.50	1751.01
240.72	1650.66
240.93	1695.72
241.15	1728.49
241.37	1695.72
241.59	1703.91
241.81	1624.04
242.02	1673.19
242.24	1697.77
242.46	1757.16
242.68	1619.94
242.89	1755.11
243.11	1681.38
243.33	1673.19
243.55	1720.29
243.76	1755.11
243.98	1662.95
244.20	1755.11
244.42	1718.25
244.64	1685.48
244.85	1613.80
245.07	1648.61
245.29	1738.73
245.51	1773.54
245.72	1693.67
245.94	1732.58
246.16	1710.05
246.38	1722.34
246.59	1669.09
246.81	1683.43
247.03	1601.51
247.24	1658.85
247.46	1662.95
247.68	1712.10
247.90	1722.34
248.11	1656.81
248.33	1738.73
248.55	1703.91
248.77	1693.67
248.98	1755.11
249.20	1726.44
249.42	1677.29
249.64	1796.07
249.85	1587.18
250.07	1665.00
250.29	1785.83
250.50	1722.34
250.72	1556.46
250.94	1710.05
251.16	1884.13
251.37	1753.06
251.59	1763.30
251.81	1675.24
252.02	1693.67
252.24	1732.58
252.46	1808.36
252.68	1578.98
252.89	1636.33
253.11	1585.13
253.33	1841.12
253.54	1763.30
253.76	1603.56
253.98	1703.91
254.20	1697.77
254.41	1566.70
254.63	1693.67
254.85	1599.46
255.06	1634.28
255.28	1724.39
255.50	1765.35
255.71	1640.42
255.93	1744.87
256.15	1708.01
256.36	1748.97
256.58	1693.67
256.80	1699.81
257.02	1671.14
257.23	1730.53
257.45	1736.68
257.67	1718.25
257.88	1714.15
258.10	1658.85
258.32	1742.82
258.53	1691.62
258.75	1693.67
258.97	1718.25
259.18	1654.76
259.40	1710.05
259.62	1794.02
259.83	1794.02
260.05	1710.05
260.27	2009.06
260.48	1761.25
260.70	1705.96
260.92	1658.85
261.13	1775.59
261.35	1667.05
261.57	1691.62
261.78	1574.89
262.00	1648.61
262.22	1708.01
262.43	1691.62
262.65	1613.80
262.86	1679.33
263.08	1818.60
263.30	1744.87
263.51	1671.14
263.73	1646.57
263.95	1744.87
264.16	1656.81
264.38	1685.48
264.60	1740.77
264.81	1615.85
265.03	1755.11
265.25	1748.97
265.46	1603.56
265.68	1769.44
265.89	1640.42
266.11	1636.33
266.33	1781.73
266.54	1865.70
266.76	1724.39
266.98	1767.40
267.19	1816.55
267.41	1804.26
267.62	1683.43
267.84	1628.14
268.06	1744.87
268.27	1703.91
268.49	1716.20
268.70	1746.92
268.92	1730.53
269.14	1656.81
269.35	1642.47
269.57	1701.86
269.79	1720.29
270.00	1605.61
270.22	1708.01
270.43	1695.72
270.65	1591.27
270.87	1681.38
271.08	1714.15
271.30	1820.64
271.51	1650.66
271.73	1716.20
271.95	1677.29
272.16	1695.72
272.38	1683.43
272.59	1671.14
272.81	1665.00
273.02	1689.57
273.24	1695.72
273.46	1779.68
273.67	1681.38
273.89	1710.05
274.10	1652.71
274.32	1728.49
274.54	1714.15
274.75	1691.62
274.97	1665.00
275.18	1732.58
275.40	1771.49
275.61	1720.29
275.83	1656.81
276.05	1644.52
276.26	1642.47
276.48	1693.67
276.69	1722.34
276.91	1630.18
277.12	1708.01
277.34	1689.57
277.55	1767.40
277.77	1742.82
277.99	1650.66
278.20	1705.96
278.42	1699.81
278.63	1697.77
278.85	1683.43
279.06	1550.31
279.28	1722.34
279.49	1748.97
279.71	1738.73
279.93	1728.49
280.14	1728.49
280.36	1605.61
280.57	1787.88
280.79	1744.87
281.00	1701.86
281.22	1710.05
281.43	1734.63
281.65	1583.08
281.86	1656.81
282.08	1726.44
282.29	1753.06
282.51	1548.26
282.73	1665.00
282.94	1607.66
283.16	1718.25
283.37	1837.03
283.59	1681.38
283.80	1726.44
284.02	1714.15
284.23	1742.82
284.45	1660.90
284.66	1607.66
284.88	1685.48
285.09	1685.48
285.31	1677.29
285.52	1722.34
285.74	1628.14
285.95	1767.40
286.17	1767.40
286.38	1742.82
286.60	1710.05
286.81	1546.22
287.03	1695.72
287.24	1701.86
287.46	1701.86
287.67	1642.47
287.89	1796.07
288.10	1712.10
288.32	1759.21
288.53	1812.45
288.75	1652.71
288.96	1775.59
289.18	1665.00
289.39	1685.48
289.61	1781.73
289.82	1781.73
290.04	1761.25
290.25	1720.29
290.47	1740.77
290.68	1679.33
290.90	1808.36
291.11	1667.05
291.33	1798.12
291.54	1613.80
291.76	1701.86
291.97	1667.05
292.18	1755.11
292.40	1607.66
292.61	1630.18
292.83	1818.60
293.04	1675.24
293.26	1744.87
293.47	1652.71
293.69	1660.90
293.90	1697.77
294.12	1781.73
294.33	1746.92
294.55	1763.30
294.76	1673.19
294.97	1744.87
295.19	1820.64
295.40	1583.08
295.62	1755.11
295.83	1724.39
296.05	1605.61
296.26	1742.82
296.48	1671.14
296.69	1679.33
296.90	1677.29
297.12	1679.33
297.33	1755.11
297.55	1687.53
297.76	1732.58
297.98	1783.78
298.19	1767.40
298.41	1716.20
298.62	1624.04
298.83	1787.88
299.05	1656.81
299.26	1656.81
299.48	1650.66
299.69	1714.15
299.90	1726.44
300.12	1712.10
300.33	1759.21
300.55	1705.96
300.76	1748.97
300.98	1650.66
301.19	1765.35
301.40	1734.63
301.62	1665.00
301.83	1691.62
302.05	1652.71
302.26	1724.39
302.47	1697.77
302.69	1667.05
302.90	1693.67
303.12	1550.31
303.33	1710.05
303.54	1839.08
303.76	1691.62
303.97	1691.62
304.19	1794.02
304.40	1708.01
304.61	1757.16
304.83	1806.31
305.04	1720.29
305.26	1732.58
305.47	1613.80
305.68	1677.29
305.90	1576.94
306.11	1798.12
306.33	1656.81
306.54	1640.42
306.75	1714.15
306.97	1617.90
307.18	1677.29
307.39	1660.90
307.61	1703.91
307.82	1603.56
308.04	1718.25
308.25	1705.96
308.46	1644.52
308.68	1714.15
308.89	1636.33
309.10	1755.11
309.32	1685.48
309.53	1665.00
309.74	1753.06
309.96	1667.05
310.17	1708.01
310.39	1691.62
310.60	1783.78
310.81	1722.34
311.03	1648.61
311.24	1683.43
311.45	1677.29
311.67	1779.68
311.88	1708.01
312.09	1673.19
312.31	1665.00
312.52	1755.11
312.73	1757.16
312.95	1564.65
313.16	1535.98
313.37	1810.40
313.59	1726.44
313.80	1728.49
314.01	1796.07
314.23	1734.63
314.44	1667.05
314.65	1583.08
314.87	1619.94
315.08	1654.76
315.29	1636.33
315.51	1675.24
315.72	1550.31
315.93	1861.60
316.15	1781.73
316.36	1640.42
316.57	1757.16
316.79	1681.38
317.00	1716.20
317.21	1726.44
317.43	1720.29
317.64	1650.66
317.85	1689.57
318.07	1673.19
318.28	1677.29
318.49	1775.59
318.70	1849.32
318.92	1738.73
319.13	1787.88
319.34	1845.22
319.56	1697.77
319.77	1744.87
319.98	1804.26
320.20	1691.62
320.41	1689.57
320.62	1710.05
320.83	1687.53
321.05	1837.03
321.26	1755.11
321.47	1779.68
321.69	1740.77
321.90	1609.70
322.11	1681.38
322.32	1699.81
322.54	1804.26
322.75	1693.67
322.96	1845.22
323.18	1556.46
323.39	1546.22
323.60	1652.71
323.81	1734.63
324.03	1656.81
324.24	1730.53
324.45	1638.38
324.66	1701.86
324.88	1812.45
325.09	1775.59
325.30	1724.39
325.52	1746.92
325.73	1718.25
325.94	1675.24
326.15	1658.85
326.37	1673.19
326.58	1748.97
326.79	1826.79
327.00	1669.09
327.22	1789.92
327.43	1697.77
327.64	1591.27
327.85	1759.21
328.07	1738.73
328.28	1804.26
328.49	1726.44
328.70	1665.00
328.92	1701.86
329.13	1757.16
329.34	1781.73
329.55	1734.63
329.76	1763.30
329.98	1677.29
330.19	1757.16
330.40	1720.29
330.61	1687.53
330.83	1671.14
331.04	1630.18
331.25	1722.34
331.46	1693.67
331.68	1648.61
331.89	1681.38
332.10	1644.52
332.31	1609.70
332.52	1648.61
332.74	1794.02
332.95	1617.90
333.16	1656.81
333.37	1861.60
333.58	1673.19
333.80	1648.61
334.01	1603.56
334.22	1769.44
334.43	1669.09
334.64	1699.81
334.86	1540.07
335.07	1724.39
335.28	1789.92
335.49	1583.08
335.70	1779.68
335.92	1820.64
336.13	1837.03
336.34	1652.71
336.55	1726.44
336.76	1681.38
336.98	1613.80
337.19	1638.38
337.40	1798.12
337.61	1851.36
337.82	1710.05
338.04	1775.59
338.25	1599.46
338.46	1671.14
338.67	1662.95
338.88	1621.99
339.09	1687.53
339.31	1689.57
339.52	1669.09
339.73	1710.05
339.94	1617.90
340.15	1728.49
340.36	1697.77
340.58	1712.10
340.79	1660.90
341.00	1748.97
341.21	1615.85
341.42	1863.65
341.63	1648.61
341.85	1773.54
342.06	1673.19
342.27	1669.09
342.48	1732.58
342.69	1646.57
342.90	1697.77
343.12	1695.72
343.33	1732.58
343.54	1705.96
343.75	1812.45
343.96	1648.61
344.17	1691.62
344.38	1705.96
344.60	1734.63
344.81	1578.98
345.02	1722.34
345.23	1705.96
345.44	1804.26
345.65	1708.01
345.86	1701.86
346.07	1697.77
346.29	1650.66
346.50	1646.57
346.71	1716.20
346.92	1814.50
347.13	1877.99
347.34	1691.62
347.55	1744.87
347.76	1660.90
347.98	1644.52
348.19	1689.57
348.40	1755.11
348.61	1746.92
348.82	1724.39
349.03	1742.82
349.24	1665.00
349.45	1787.88
349.66	1644.52
349.88	1755.11
350.09	1648.61
350.30	1789.92
350.51	1738.73
350.72	1646.57
350.93	1660.90
351.14	1714.15
351.35	1763.30
351.56	1689.57
351.77	1650.66
351.99	1683.43
352.20	1759.21
352.41	1841.12
352.62	1519.59
352.83	1742.82
353.04	1732.58
353.25	1636.33
353.46	1791.97
353.67	1857.51
353.88	1751.01
354.09	1685.48
354.30	1708.01
354.52	1701.86
354.73	1652.71
354.94	1679.33
355.15	1650.66
355.36	1746.92
355.57	1636.33
355.78	1710.05
355.99	1689.57
356.20	1619.94
356.41	1775.59
356.62	1621.99
356.83	1685.48
357.04	1734.63
357.25	1619.94
357.46	1650.66
357.68	1591.27
357.89	1619.94
358.10	1705.96
358.31	1652.71
358.52	1718.25
358.73	1640.42
358.94	1656.81
359.15	1771.49
359.36	1738.73
359.57	1679.33
359.78	1697.77
359.99	1705.96
360.20	1638.38
360.41	1660.90
360.62	1718.25
360.83	1708.01
361.04	1705.96
361.25	1701.86
361.46	1873.89
361.67	1699.81
361.88	1763.30
362.09	1732.58
362.30	1648.61
362.51	1626.09
362.72	1667.05
362.93	1718.25
363.14	1667.05
363.35	1699.81
363.56	1701.86
363.78	1736.68
363.99	1724.39
364.20	1636.33
364.41	1722.34
364.62	1824.74
364.83	1697.77
365.04	1695.72
365.25	1722.34
365.46	1839.08
365.67	1652.71
365.88	1658.85
366.09	1658.85
366.30	1724.39
366.51	1730.53
366.72	1624.04
366.93	1630.18
367.14	1753.06
367.35	1791.97
367.56	1669.09
367.77	1744.87
367.98	1591.27
368.18	1732.58
368.39	1724.39
368.60	1650.66
368.81	1757.16
369.02	1697.77
369.23	1695.72
369.44	1599.46
369.65	1738.73
369.86	1742.82
370.07	1773.54
370.28	1613.80
370.49	1683.43
370.70	1767.40
370.91	1689.57
371.12	1656.81
371.33	1738.73
371.54	1718.25
371.75	1683.43
371.96	1648.61
372.17	1705.96
372.38	1710.05
372.59	1853.41
372.80	1646.57
373.01	1662.95
373.22	1665.00
373.43	1681.38
373.64	1689.57
373.85	1765.35
374.06	1775.59
374.26	1728.49
374.47	1714.15
374.68	1796.07
374.89	1677.29
375.10	1771.49
375.31	1802.21
375.52	1708.01
375.73	1681.38
375.94	1636.33
376.15	1779.68
376.36	1683.43
376.57	1681.38
376.78	1673.19
376.99	1714.15
377.20	1742.82
377.40	1765.35
377.61	1865.70
377.82	1581.03
378.03	1794.02
378.24	1691.62
378.45	1718.25
378.66	1714.15
378.87	1595.37
379.08	1642.47
379.29	1656.81
379.50	1755.11
379.71	1693.67
379.91	1785.83
380.12	1781.73
380.33	1675.24
380.54	1718.25
380.75	1691.62
380.96	1742.82
381.17	1806.31
381.38	1701.86
381.59	1679.33
381.80	1697.77
382.00	1869.80
382.21	1763.30
382.42	1843.17
382.63	1849.32
382.84	1767.40
383.05	1816.55
383.26	1826.79
383.47	1734.63
383.68	1722.34
383.88	1726.44
384.09	1779.68
384.30	1826.79
384.51	1708.01
384.72	1673.19
384.93	1652.71
385.14	1718.25
385.35	1794.02
385.55	1636.33
385.76	1804.26
385.97	1705.96
386.18	1613.80
386.39	1705.96
386.60	1638.38
386.81	1679.33
387.02	1619.94
387.22	1689.57
387.43	1779.68
387.64	1832.93
387.85	1912.80
388.06	2244.57
388.27	4288.45
388.48	6588.32
388.68	8214.40
388.89	9500.53
389.10	9809.77
389.31	8595.32
389.52	7397.26
389.73	6526.88
389.93	6082.47
390.14	5779.37
390.35	5146.55
390.56	4552.63
390.77	3663.82
390.98	3078.10
391.18	2527.19
391.39	2058.21
391.60	1812.45
391.81	1794.02
392.02	1773.54
392.23	1853.41
392.43	1746.92
392.64	1794.02
392.85	1722.34
393.06	1773.54
393.27	1765.35
393.47	1724.39
393.68	1734.63
393.89	1691.62
394.10	1777.64
394.31	1656.81
394.52	1685.48
394.72	1710.05
394.93	1771.49
395.14	1751.01
395.35	1746.92
395.56	1714.15
395.76	1800.16
395.97	1816.55
396.18	1796.07
396.39	1812.45
396.60	2074.59
396.80	1918.95
397.01	1837.03
397.22	1806.31
397.43	1828.84
397.64	1722.34
397.84	1816.55
398.05	1796.07
398.26	1742.82
398.47	1783.78
398.67	1722.34
398.88	1734.63
399.09	1718.25
399.30	1638.38
399.51	1720.29
399.71	1636.33
399.92	1675.24
400.13	1660.90
400.34	1660.90
400.54	1759.21
400.75	1794.02
400.96	1710.05
401.17	1843.17
401.37	1658.85
401.58	1705.96
401.79	1757.16
402.00	1884.13
402.21	2066.40
402.41	1935.33
402.62	1927.14
402.83	2000.87
403.04	1914.85
403.24	2058.21
403.45	1857.51
403.66	1882.08
403.87	1925.09
404.07	1890.28
404.28	1959.91
404.49	1800.16
404.70	1806.31
404.90	1791.97
405.11	1748.97
405.32	1779.68
405.52	1660.90
405.73	1712.10
405.94	1724.39
406.15	1675.24
406.35	1734.63
406.56	1716.20
406.77	1710.05
406.98	1681.38
407.18	1679.33
407.39	1779.68
407.60	1732.58
407.80	1673.19
408.01	1644.52
408.22	1734.63
408.43	1681.38
408.63	1771.49
408.84	1765.35
409.05	1722.34
409.25	1685.48
409.46	1751.01
409.67	1624.04
409.88	1677.29
410.08	1693.67
410.29	1646.57
410.50	1705.96
410.70	1687.53
410.91	1662.95
411.12	1802.21
411.32	1628.14
411.53	1763.30
411.74	1826.79
411.95	1789.92
412.15	1732.58
412.36	1802.21
412.57	1791.97
412.77	1755.11
412.98	1712.10
413.19	1669.09
413.39	1751.01
413.60	1705.96
413.81	1703.91
414.01	1710.05
414.22	1759.21
414.43	1777.64
414.63	1683.43
414.84	1771.49
415.05	1738.73
415.25	1648.61
415.46	1718.25
415.67	1705.96
415.87	1687.53
416.08	1779.68
416.29	1689.57
416.49	1794.02
416.70	1703.91
416.91	1650.66
417.11	1634.28
417.32	1757.16
417.53	1730.53
417.73	1787.88
417.94	1736.68
418.15	1738.73
418.35	1689.57
418.56	1701.86
418.77	1808.36
418.97	1687.53
419.18	1675.24
419.38	1570.79
419.59	1716.20
419.80	1751.01
420.00	1726.44
420.21	1765.35
420.42	1789.92
420.62	1646.57
420.83	1665.00
421.04	1753.06
421.24	1650.66
421.45	1748.97
421.65	1626.09
421.86	1626.09
422.07	1701.86
422.27	1722.34
422.48	1744.87
422.69	1652.71
422.89	1673.19
423.10	1724.39
423.30	1611.75
423.51	1751.01
423.72	1716.20
423.92	1677.29
424.13	1617.90
424.33	1755.11
424.54	1800.16
424.75	1771.49
424.95	1789.92
425.16	1736.68
425.36	1712.10
425.57	1816.55
425.78	1650.66
425.98	1724.39
426.19	1626.09
426.39	1605.61
426.60	1703.91
426.81	1816.55
427.01	1658.85
427.22	1679.33
427.42	1648.61
427.63	1652.71
427.83	1736.68
428.04	1855.46
428.25	1722.34
428.45	1738.73
428.66	1812.45
428.86	1646.57
429.07	1671.14
429.28	1728.49
429.48	1783.78
429.69	1712.10
429.89	1751.01
430.10	1609.70
430.30	1701.86
430.51	1796.07
430.71	1648.61
430.92	1671.14
431.13	1673.19
431.33	1705.96
431.54	1736.68
431.74	1783.78
431.95	1800.16
432.15	1748.97
432.36	1697.77
432.56	1695.72
432.77	1767.40
432.98	1873.89
433.18	1720.29
433.39	1718.25
433.59	1716.20
433.80	1818.60
434.00	1859.56
434.21	1665.00
434.41	1646.57
434.62	1802.21
434.82	1624.04
435.03	1619.94
435.23	1679.33
435.44	1587.18
435.64	1781.73
435.85	1834.98
436.06	1753.06
436.26	1767.40
436.47	1699.81
436.67	1712.10
436.88	1708.01
437.08	1783.78
437.29	1738.73
437.49	1757.16
437.70	1720.29
437.90	1718.25
438.11	1859.56
438.31	1806.31
438.52	1882.08
438.72	1841.12
438.93	1865.70
439.13	1828.84
439.34	1804.26
439.54	1791.97
439.75	1767.40
439.95	1828.84
440.16	1609.70
440.36	1716.20
440.57	1796.07
440.77	1693.67
440.98	1724.39
441.18	1798.12
441.39	1740.77
441.59	1685.48
441.80	1884.13
442.00	1740.77
442.21	1765.35
442.41	1681.38
442.62	1789.92
442.82	1630.18
443.02	1718.25
443.23	1714.15
443.43	1695.72
443.64	1789.92
443.84	1652.71
444.05	1820.64
444.25	1703.91
444.46	1701.86
444.66	1732.58
444.87	1804.26
445.07	1640.42
445.28	1718.25
445.48	1726.44
445.69	1820.64
445.89	1882.08
446.09	1746.92
446.30	1959.91
446.50	2631.64
446.71	3790.79
446.91	4206.53
447.12	4757.43
447.32	4792.25
447.53	4282.30
447.73	3784.65
447.93	3432.40
448.14	3381.20
448.34	3157.97
448.55	2887.64
448.75	2844.63
448.96	2648.02
449.16	2367.45
449.36	2263.01
449.57	1941.47
449.77	1873.89
449.98	1779.68
450.18	1773.54
450.39	1826.79
450.59	1837.03
450.79	1769.44
451.00	1697.77
451.20	1738.73
451.41	1679.33
451.61	1806.31
451.81	1708.01
452.02	1689.57
452.22	1714.15
452.43	1740.77
452.63	1724.39
452.84	1714.15
453.04	1656.81
453.24	1703.91
453.45	1734.63
453.65	1699.81
453.86	1812.45
454.06	1787.88
454.26	1726.44
454.47	1644.52
454.67	1777.64
454.87	1794.02
455.08	1757.16
455.28	1765.35
455.49	1734.63
455.69	1669.09
455.89	1837.03
456.10	1751.01
456.30	1730.53
456.51	1742.82
456.71	1738.73
456.91	1693.67
457.12	1765.35
457.32	1744.87
457.52	1642.47
457.73	1759.21
457.93	1837.03
458.14	1751.01
458.34	1677.29
458.54	1654.76
458.75	1691.62
458.95	1732.58
459.15	1695.72
459.36	1736.68
459.56	1755.11
459.76	1875.94
459.97	1765.35
460.17	1660.90
460.37	1802.21
460.58	1685.48
460.78	1828.84
460.99	1712.10
461.19	1763.30
461.39	1724.39
461.60	1699.81
461.80	1720.29
462.00	1599.46
462.21	1769.44
462.41	1652.71
462.61	1691.62
462.82	1673.19
463.02	1785.83
463.22	1779.68
463.43	1818.60
463.63	1746.92
463.83	1834.98
464.04	1769.44
464.24	1714.15
464.44	1689.57
464.64	1779.68
464.85	1751.01
465.05	1783.78
465.25	1732.58
465.46	1662.95
465.66	1757.16
465.86	1775.59
466.07	1658.85
466.27	1726.44
466.47	1615.85
466.68	1640.42
466.88	1806.31
467.08	1646.57
467.29	1738.73
467.49	1775.59
467.69	1751.01
467.89	1738.73
468.10	1685.48
468.30	1753.06
468.50	1802.21
468.71	1761.25
468.91	1542.12
469.11	1746.92
469.31	1652.71
469.52	1724.39
469.72	1771.49
469.92	1857.51
470.13	1716.20
470.33	1681.38
470.53	1814.50
470.73	2123.74
470.94	2289.63
471.14	2375.64
471.34	2519.00
471.54	2215.90
471.75	2224.09
471.95	2164.70
472.15	2076.64
472.36	2062.30
472.56	2111.46
472.76	1877.99
472.96	2043.87
473.17	1955.81
473.37	1961.95
473.57	1849.32
473.77	1812.45
473.98	1742.82
474.18	1712.10
474.38	1951.71
474.58	1695.72
474.79	1662.95
474.99	1816.55
475.19	1722.34
475.39	1642.47
475.60	1667.05
475.80	1718.25
476.00	1769.44
476.20	1742.82
476.41	1718.25
476.61	1818.60
476.81	1837.03
477.01	1644.52
477.21	1863.65
477.42	1841.12
477.62	1656.81
477.82	1812.45
478.02	1703.91
478.23	1783.78
478.43	1691.62
478.63	1730.53
478.83	1617.90
479.03	1791.97
479.24	1822.69
479.44	1806.31
479.64	1679.33
479.84	1667.05
480.04	1736.68
480.25	1777.64
480.45	1689.57
480.65	1710.05
480.85	1787.88
481.06	1677.29
481.26	1660.90
481.46	1687.53
481.66	1742.82
481.86	1619.94
482.06	1849.32
482.27	1695.72
482.47	1703.91
482.67	1753.06
482.87	1714.15
483.07	1755.11
483.28	1724.39
483.48	1679.33
483.68	1671.14
483.88	1632.23
484.08	1521.64
484.29	1646.57
484.49	1748.97
484.69	1638.38
484.89	1767.40
485.09	1757.16
485.29	1855.46
485.50	1687.53
485.70	1689.57
485.90	1763.30
486.10	1767.40
486.30	1765.35
486.50	1730.53
486.71	1773.54
486.91	1724.39
487.11	1861.60
487.31	1677.29
487.51	1785.83
487.71	1595.37
487.91	1615.85
488.12	1714.15
488.32	1648.61
488.52	1650.66
488.72	1615.85
488.92	1685.48
489.12	1855.46
489.32	1779.68
489.53	1791.97
489.73	1658.85
489.93	1820.64
490.13	1679.33
490.33	1712.10
490.53	1779.68
490.73	1820.64
490.94	1669.09
491.14	1738.73
491.34	1832.93
491.54	2084.83
491.74	2545.63
491.94	2949.08
492.14	2969.55
492.34	2963.41
492.54	2707.41
492.75	2459.61
492.95	2338.78
493.15	2389.98
493.35	2232.29
493.55	2213.85
493.75	2111.46
493.95	2043.87
494.15	1976.29
494.35	1882.08
494.56	1783.78
494.76	1779.68
494.96	1765.35
495.16	1806.31
495.36	1705.96
495.56	1765.35
495.76	1634.28
495.96	1763.30
496.16	1656.81
496.36	1820.64
496.56	1705.96
496.77	1791.97
496.97	1753.06
497.17	1800.16
497.37	1644.52
497.57	1796.07
497.77	1677.29
497.97	1662.95
498.17	1740.77
498.37	1722.34
498.57	1708.01
498.77	1724.39
498.97	1705.96
499.17	1908.71
499.38	1714.15
499.58	1755.11
499.78	1820.64
499.98	1796.07
500.18	1724.39
500.38	1755.11
500.58	1933.28
500.78	2541.53
500.98	4501.44
501.18	5687.21
501.38	6637.47
501.58	6997.91
501.78	6549.40
501.98	5449.64
502.18	4935.60
502.38	4313.02
502.58	4095.94
502.78	3710.92
502.98	3590.09
503.18	3354.57
503.38	3176.40
503.59	2879.44
503.79	2607.06
503.99	2521.05
504.19	2303.96
504.39	2242.53
504.59	2133.98
504.79	2084.83
504.99	1982.43
505.19	1980.39
505.39	1859.56
505.59	1961.95
505.79	1923.04
505.99	1882.08
506.19	1785.83
506.39	1806.31
506.59	1695.72
506.79	1724.39
506.99	1824.74
507.19	1798.12
507.39	1794.02
507.59	1626.09
507.79	1763.30
507.99	1710.05
508.19	1730.53
508.39	1681.38
508.59	1746.92
508.79	1794.02
508.99	1841.12
509.19	1644.52
509.39	1789.92
509.59	1673.19
509.79	1671.14
509.99	1708.01
510.19	1771.49
510.39	1785.83
510.59	1755.11
510.79	1724.39
510.99	1630.18
511.19	1628.14
511.39	1800.16
511.59	1816.55
511.79	1845.22
511.99	1740.77
512.19	1781.73
512.38	1736.68
512.58	1744.87
512.78	1712.10
512.98	1773.54
513.18	1828.84
513.38	1660.90
513.58	1755.11
513.78	1697.77
513.98	1699.81
514.18	1705.96
514.38	1660.90
514.58	1714.15
514.78	1677.29
514.98	1714.15
515.18	1714.15
515.38	1624.04
515.58	1828.84
515.78	1742.82
515.98	1785.83
516.18	1810.40
516.38	1716.20
516.57	1714.15
516.77	1695.72
516.97	1736.68
517.17	1730.53
517.37	1677.29
517.57	1738.73
517.77	1710.05
517.97	1601.51
518.17	1804.26
518.37	1726.44
518.57	1720.29
518.77	1705.96
518.97	1685.48
519.16	1765.35
519.36	1888.23
519.56	1732.58
519.76	1773.54
519.96	1722.34
520.16	1920.99
520.36	1726.44
520.56	1832.93
520.76	1671.14
520.96	1712.10
521.16	1798.12
521.35	1779.68
521.55	1849.32
521.75	1736.68
521.95	1675.24
522.15	1624.04
522.35	1640.42
522.55	1732.58
522.75	1744.87
522.95	1777.64
523.14	1665.00
523.34	1630.18
523.54	1679.33
523.74	1724.39
523.94	1677.29
524.14	1652.71
524.34	1769.44
524.54	1822.69
524.73	1712.10
524.93	1759.21
525.13	1742.82
525.33	1695.72
525.53	1818.60
525.73	1800.16
525.93	1679.33
526.13	1675.24
526.32	1695.72
526.52	1777.64
526.72	1798.12
526.92	1800.16
527.12	1656.81
527.32	1669.09
527.52	1814.50
527.71	1767.40
527.91	1728.49
528.11	1714.15
528.31	1710.05
528.51	1710.05
528.71	1744.87
528.90	1722.34
529.10	1748.97
529.30	1773.54
529.50	1650.66
529.70	1683.43
529.90	1720.29
530.09	1720.29
530.29	1669.09
530.49	1675.24
530.69	1830.88
530.89	1708.01
531.09	1796.07
531.28	1662.95
531.48	1748.97
531.68	1771.49
531.88	1751.01
532.08	1804.26
532.28	1748.97
532.47	1728.49
532.67	1826.79
532.87	1789.92
533.07	1654.76
533.27	1773.54
533.46	1742.82
533.66	1738.73
533.86	1730.53
534.06	1759.21
534.26	1697.77
534.45	1685.48
534.65	1728.49
534.85	1660.90
535.05	1710.05
535.25	1779.68
535.44	1644.52
535.64	1783.78
535.84	1691.62
536.04	1665.00
536.24	1691.62
536.43	1716.20
536.63	1648.61
536.83	1748.97
537.03	1693.67
537.22	1560.55
537.42	1669.09
537.62	1779.68
537.82	1675.24
538.02	1802.21
538.21	1773.54
538.41	1841.12
538.61	1753.06
538.81	1703.91
539.00	1769.44
539.20	1687.53
539.40	1646.57
539.60	1730.53
539.79	1773.54
539.99	1726.44
540.19	1624.04
540.39	1820.64
540.58	1726.44
540.78	1880.04
540.98	1673.19
541.18	1769.44
541.37	1779.68
541.57	1761.25
541.77	1757.16
541.97	1644.52
542.16	1691.62
542.36	1681.38
542.56	1654.76
542.76	1779.68
542.95	1689.57
543.15	1726.44
543.35	1794.02
543.54	1648.61
543.74	1738.73
543.94	1746.92
544.14	1712.10
544.33	1730.53
544.53	1677.29
544.73	1699.81
544.93	1724.39
545.12	1722.34
545.32	1677.29
545.52	1720.29
545.71	1640.42
545.91	1683.43
546.11	1736.68
546.30	1609.70
546.50	1667.05
546.70	1814.50
546.90	1759.21
547.09	1640.42
547.29	1751.01
547.49	1783.78
547.68	1771.49
547.88	1667.05
548.08	1802.21
548.27	2254.81
548.47	1714.15
548.67	1716.20
548.87	1775.59
549.06	1714.15
549.26	1742.82
549.46	1775.59
549.65	1767.40
549.85	1660.90
550.05	1787.88
550.24	1708.01
550.44	1771.49
550.64	1732.58
550.83	1763.30
551.03	1730.53
551.23	1730.53
551.42	1771.49
551.62	1826.79
551.82	1718.25
552.01	1773.54
552.21	1890.28
552.41	1671.14
552.60	1763.30
552.80	1812.45
553.00	1732.58
553.19	1681.38
553.39	1847.27
553.59	1591.27
553.78	1744.87
553.98	1746.92
554.17	1689.57
554.37	1748.97
554.57	1826.79
554.76	1638.38
554.96	1673.19
555.16	1701.86
555.35	1789.92
555.55	1695.72
555.75	1695.72
555.94	1781.73
556.14	1552.36
556.33	1755.11
556.53	1769.44
556.73	1812.45
556.92	1769.44
557.12	1775.59
557.32	1746.92
557.51	1896.42
557.71	1748.97
557.90	1748.97
558.10	1826.79
558.30	1677.29
558.49	1669.09
558.69	1773.54
558.88	1681.38
559.08	1714.15
559.28	1714.15
559.47	1722.34
559.67	1703.91
559.86	1791.97
560.06	1816.55
560.26	1730.53
560.45	1775.59
560.65	1703.91
560.84	1777.64
561.04	1665.00
561.24	1722.34
561.43	1705.96
561.63	1865.70
561.82	1755.11
562.02	1761.25
562.22	1712.10
562.41	1691.62
562.61	1681.38
562.80	1607.66
563.00	1871.84
563.19	1746.92
563.39	1769.44
563.59	1755.11
563.78	1691.62
563.98	1728.49
564.17	1822.69
564.37	1710.05
564.56	1722.34
564.76	1675.24
564.96	1724.39
565.15	1722.34
565.35	1871.84
565.54	1710.05
565.74	1771.49
565.93	1732.58
566.13	1783.78
566.32	1667.05
566.52	1773.54
566.71	1757.16
566.91	1779.68
567.11	1761.25
567.30	1708.01
567.50	1767.40
567.69	1742.82
567.89	1671.14
568.08	1683.43
568.28	1773.54
568.47	1691.62
568.67	1761.25
568.86	1783.78
569.06	1767.40
569.25	1710.05
569.45	1667.05
569.64	1724.39
569.84	1751.01
570.04	1732.58
570.23	1667.05
570.43	1738.73
570.62	1708.01
570.82	1888.23
571.01	1701.86
571.21	1703.91
571.40	1650.66
571.60	1828.84
571.79	1818.60
571.99	1812.45
572.18	1669.09
572.38	1806.31
572.57	1699.81
572.77	1673.19
572.96	1873.89
573.16	1806.31
573.35	1691.62
573.55	1820.64
573.74	1837.03
573.94	1693.67
574.13	1703.91
574.33	1800.16
574.52	1714.15
574.71	1767.40
574.91	1761.25
575.10	1574.89
575.30	1638.38
575.49	1650.66
575.69	1689.57
575.88	1826.79
576.08	1695.72
576.27	1769.44
576.47	1703.91
576.66	1818.60
576.86	1837.03
577.05	1687.53
577.25	1777.64
577.44	1789.92
577.64	1779.68
577.83	1765.35
578.02	1753.06
578.22	1814.50
578.41	1820.64
578.61	1736.68
578.80	1673.19
579.00	1724.39
579.19	1818.60
579.39	1779.68
579.58	1742.82
579.77	1779.68
579.97	1830.88
580.16	1880.04
580.36	1824.74
580.55	1818.60
580.75	1804.26
580.94	1755.11
581.13	1847.27
581.33	1826.79
581.52	1800.16
581.72	1859.56
581.91	1814.50
582.11	1730.53
582.30	1748.97
582.49	1783.78
582.69	1791.97
582.88	1746.92
583.08	1755.11
583.27	1767.40
583.47	1794.02
583.66	1718.25
583.85	1671.14
584.05	1724.39
584.24	1804.26
584.44	1796.07
584.63	1853.41
584.82	1824.74
585.02	1834.98
585.21	1765.35
585.41	1794.02
585.60	1857.51
585.79	1976.29
585.99	1894.37
586.18	1863.65
586.37	2232.29
586.57	3280.85
586.76	9693.04
586.96	23869.08
587.15	33887.74
587.34	39597.48
587.54	41796.99
587.73	36158.94
587.93	26039.92
588.12	21370.55
588.31	18116.33
588.51	16174.86
588.70	14796.57
588.89	14059.31
589.09	12433.22
589.28	10803.04
589.47	9369.46
589.67	7899.02
589.86	6457.25
590.06	4995.00
590.25	3805.13
590.44	3092.43
590.64	2527.19
590.83	2275.29
591.02	2066.40
591.22	1966.05
591.41	1834.98
591.60	1841.12
591.80	1966.05
591.99	1701.86
592.18	1763.30
592.38	1767.40
592.57	1736.68
592.76	1787.88
592.96	1771.49
593.15	1767.40
593.34	1822.69
593.54	1730.53
593.73	1837.03
593.92	1730.53
594.12	1691.62
594.31	1726.44
594.50	1861.60
594.70	1822.69
594.89	1886.18
595.08	1701.86
595.28	1755.11
595.47	1914.85
595.66	1816.55
595.86	1634.28
596.05	1744.87
596.24	1693.67
596.43	1796.07
596.63	1787.88
596.82	1722.34
597.01	1681.38
597.21	1818.60
597.40	1673.19
597.59	1687.53
597.79	1677.29
597.98	1724.39
598.17	1798.12
598.36	1753.06
598.56	1755.11
598.75	1671.14
598.94	1701.86
599.14	1769.44
599.33	1705.96
599.52	1708.01
599.71	1734.63
599.91	1781.73
600.10	1730.53
600.29	1824.74
600.48	1761.25
600.68	1724.39
600.87	1675.24
601.06	1697.77
601.26	1738.73
601.45	1716.20
601.64	1705.96
601.83	1802.21
602.03	1673.19
602.22	1712.10
602.41	1738.73
602.60	1869.80
602.80	1720.29
602.99	1681.38
603.18	1730.53
603.37	1824.74
603.57	1742.82
603.76	1763.30
603.95	1761.25
604.14	1761.25
604.34	1695.72
604.53	1789.92
604.72	1748.97
604.91	1779.68
605.10	1773.54
605.30	1675.24
605.49	1920.99
605.68	1773.54
605.87	1734.63
606.07	1718.25
606.26	1820.64
606.45	1746.92
606.64	1726.44
606.84	1673.19
607.03	1724.39
607.22	1757.16
607.41	1726.44
607.60	1656.81
607.80	1705.96
607.99	1753.06
608.18	1732.58
608.37	1701.86
608.56	1656.81
608.76	1789.92
608.95	1832.93
609.14	1763.30
609.33	1789.92
609.52	1734.63
609.72	1675.24
609.91	1783.78
610.10	1742.82
610.29	1751.01
610.48	1685.48
610.68	1728.49
610.87	1714.15
611.06	1722.34
611.25	1685.48
611.44	1849.32
611.63	1740.77
611.83	1822.69
612.02	1640.42
612.21	1763.30
612.40	1660.90
612.59	1675.24
612.79	1724.39
612.98	1753.06
613.17	1705.96
613.36	1681.38
613.55	1826.79
613.74	1724.39
613.93	1693.67
614.13	1736.68
614.32	1699.81
614.51	1738.73
614.70	1695.72
614.89	1759.21
615.08	1703.91
615.28	2056.16
615.47	1656.81
615.66	1656.81
615.85	1697.77
616.04	1769.44
616.23	1708.01
616.42	1683.43
616.62	1740.77
616.81	1705.96
617.00	1734.63
617.19	1757.16
617.38	1703.91
617.57	1720.29
617.76	1753.06
617.95	1701.86
618.15	1697.77
618.34	1761.25
618.53	1671.14
618.72	1765.35
618.91	1837.03
619.10	1804.26
619.29	1761.25
619.48	1738.73
619.68	1681.38
619.87	1697.77
620.06	1677.29
620.25	1826.79
620.44	1748.97
620.63	1683.43
620.82	1781.73
621.01	1781.73
621.20	1689.57
621.39	1755.11
621.59	1738.73
621.78	1732.58
621.97	1814.50
622.16	1779.68
622.35	1734.63
622.54	1789.92
622.73	1763.30
622.92	1710.05
623.11	1808.36
623.30	1730.53
623.49	1763.30
623.68	1621.99
623.88	1771.49
624.07	1601.51
624.26	1689.57
624.45	1734.63
624.64	1755.11
624.83	1677.29
625.02	1722.34
625.21	1761.25
625.40	1781.73
625.59	1767.40
625.78	1699.81
625.97	1826.79
626.16	1761.25
626.35	1783.78
626.54	1708.01
626.74	1779.68
626.93	1662.95
627.12	1646.57
627.31	1753.06
627.50	1693.67
627.69	1765.35
627.88	1593.32
628.07	1689.57
628.26	1617.90
628.45	1767.40
628.64	1617.90
628.83	1755.11
629.02	1665.00
629.21	1777.64
629.40	1718.25
629.59	1660.90
629.78	1738.73
629.97	1722.34
630.16	1703.91
630.35	1697.77
630.54	1708.01
630.73	1675.24
630.92	1730.53
631.11	1693.67
631.30	1697.77
631.49	1724.39
631.68	1724.39
631.87	1791.97
632.06	1687.53
632.25	1800.16
632.44	1740.77
632.63	1724.39
632.82	1611.75
633.01	1736.68
633.20	1642.47
633.39	1718.25
633.58	1636.33
633.77	1624.04
633.96	1673.19
634.15	1744.87
634.34	1677.29
634.53	1683.43
634.72	1712.10
634.91	1675.24
635.10	1685.48
635.29	1765.35
635.48	1783.78
635.67	1652.71
635.86	1619.94
636.05	1798.12
636.24	1708.01
636.43	1755.11
636.62	1671.14
636.81	1558.50
637.00	1689.57
637.19	1781.73
637.38	1656.81
637.57	1609.70
637.76	1648.61
637.95	1693.67
638.14	1613.80
638.33	1714.15
638.52	1681.38
638.71	1710.05
638.89	1656.81
639.08	1847.27
639.27	1785.83
639.46	1630.18
639.65	1812.45
639.84	1738.73
640.03	1800.16
640.22	1673.19
640.41	1857.51
640.60	1701.86
640.79	1734.63
640.98	1738.73
641.17	1765.35
641.36	1673.19
641.55	1681.38
641.74	1728.49
641.92	1665.00
642.11	1646.57
642.30	1714.15
642.49	1710.05
642.68	1701.86
642.87	1736.68
643.06	1712.10
643.25	1658.85
643.44	1667.05
643.63	1611.75
643.82	1740.77
644.00	1689.57
644.19	1705.96
644.38	1570.79
644.57	1722.34
644.76	1681.38
644.95	1730.53
645.14	1734.63
645.33	1767.40
645.52	1693.67
645.71	1685.48
645.89	1720.29
646.08	1685.48
646.27	1697.77
646.46	1744.87
646.65	1691.62
646.84	1705.96
647.03	1644.52
647.22	1695.72
647.40	1705.96
647.59	1722.34
647.78	1619.94
647.97	1650.66
648.16	1595.37
648.35	1757.16
648.54	1841.12
648.73	1708.01
648.91	1710.05
649.10	1710.05
649.29	1718.25
649.48	1683.43
649.67	1677.29
649.86	1720.29
650.05	1708.01
650.23	1843.17
650.42	1642.47
650.61	1796.07
650.80	1679.33
650.99	1867.75
651.18	1720.29
651.36	1753.06
651.55	1791.97
651.74	1759.21
651.93	1667.05
652.12	1716.20
652.31	1722.34
652.49	1761.25
652.68	1636.33
652.87	1832.93
653.06	1644.52
653.25	1880.04
653.44	1689.57
653.62	1845.22
653.81	1732.58
654.00	1738.73
654.19	1703.91
654.38	1888.23
654.56	1712.10
654.75	1767.40
654.94	1714.15
655.13	1673.19
655.32	1671.14
655.51	1773.54
655.69	1652.71
655.88	1710.05
656.07	1693.67
656.26	1730.53
656.45	1693.67
656.63	1683.43
656.82	1736.68
657.01	1712.10
657.20	1642.47
657.38	1837.03
657.57	1691.62
657.76	1646.57
657.95	1708.01
658.14	1767.40
658.32	1665.00
658.51	1654.76
658.70	1687.53
658.89	1753.06
659.08	1683.43
659.26	1796.07
659.45	1681.38
659.64	1732.58
659.83	1591.27
660.01	1908.71
660.20	1742.82
660.39	1802.21
660.58	1548.26
660.76	1767.40
660.95	1714.15
661.14	1771.49
661.33	1646.57
661.51	1667.05
661.70	1763.30
661.89	1746.92
662.08	1724.39
662.26	1626.09
662.45	1632.23
662.64	1794.02
662.83	1771.49
663.01	1662.95
663.20	1693.67
663.39	1710.05
663.58	1710.05
663.76	1714.15
663.95	1771.49
664.14	1658.85
664.32	1720.29
664.51	1687.53
664.70	1683.43
664.89	1763.30
665.07	1677.29
665.26	1806.31
665.45	1595.37
665.64	1767.40
665.82	1689.57
666.01	1767.40
666.20	1685.48
666.38	1810.40
666.57	1802.21
666.76	2183.13
666.95	4364.22
667.13	10057.57
667.32	14837.53
667.51	17538.80
667.69	18794.21
667.88	17235.70
668.07	12199.75
668.25	9506.67
668.44	7942.02
668.63	7149.46
668.81	6772.63
669.00	6244.26
669.19	5519.28
669.38	5091.25
669.56	4530.11
669.75	3958.72
669.94	3411.92
670.12	2820.05
670.31	2463.71
670.50	2285.53
670.68	2111.46
670.87	1951.71
671.06	1769.44
671.24	1783.78
671.43	1814.50
671.62	1816.55
671.80	1708.01
671.99	1714.15
672.18	1734.63
672.36	1722.34
672.55	1785.83
672.74	1710.05
672.92	1679.33
673.11	1722.34
673.29	1693.67
673.48	1755.11
673.67	1648.61
673.85	1757.16
674.04	1691.62
674.23	1718.25
674.41	1783.78
674.60	1605.61
674.79	1652.71
674.97	1710.05
675.16	1724.39
675.34	1730.53
675.53	1660.90
675.72	1726.44
675.90	1779.68
676.09	1705.96
676.28	1695.72
676.46	1673.19
676.65	1679.33
676.83	1730.53
677.02	1755.11
677.21	1779.68
677.39	1705.96
677.58	1691.62
677.77	1691.62
677.95	1634.28
678.14	1662.95
678.32	1761.25
678.51	1669.09
678.70	1812.45
678.88	1720.29
679.07	1767.40
679.25	1665.00
679.44	1640.42
679.63	1634.28
679.81	1738.73
680.00	1765.35
680.18	1814.50
680.37	1826.79
680.55	1675.24
680.74	1654.76
680.93	1611.75
681.11	1722.34
681.30	1708.01
681.48	1681.38
681.67	1669.09
681.85	1720.29
682.04	1617.90
682.23	1738.73
682.41	1714.15
682.60	1746.92
682.78	1798.12
682.97	1677.29
683.15	1708.01
683.34	1742.82
683.53	1791.97
683.71	1685.48
683.90	1847.27
684.08	1816.55
684.27	1681.38
684.45	1789.92
684.64	1757.16
684.82	1648.61
685.01	1763.30
685.19	1759.21
685.38	1812.45
685.57	1689.57
685.75	1646.57
685.94	1697.77
686.12	1685.48
686.31	1665.00
686.49	1814.50
686.68	1603.56
686.86	1779.68
687.05	1626.09
687.23	1822.69
687.42	1687.53
687.60	1597.42
687.79	1703.91
687.97	1755.11
688.16	1832.93
688.34	1767.40
688.53	1576.94
688.71	1800.16
688.90	1736.68
689.08	1710.05
689.27	1607.66
689.45	1744.87
689.64	1740.77
689.82	1730.53
690.01	1695.72
690.19	1779.68
690.38	1683.43
690.56	1708.01
690.75	1675.24
690.93	1671.14
691.12	1605.61
691.30	1708.01
691.49	1730.53
691.67	1716.20
691.86	1773.54
692.04	1644.52
692.23	1724.39
692.41	1705.96
692.60	1775.59
692.78	1708.01
692.97	1701.86
693.15	1765.35
693.34	1843.17
693.52	1812.45
693.71	1677.29
693.89	1634.28
694.08	1599.46
694.26	1730.53
694.44	1693.67
694.63	1730.53
694.81	1650.66
695.00	1654.76
695.18	1777.64
695.37	1873.89
695.55	1722.34
695.74	1683.43
695.92	1630.18
696.10	1775.59
696.29	1665.00
696.47	1689.57
696.66	1665.00
696.84	1675.24
697.03	1689.57
697.21	1900.52
697.40	2312.16
697.58	1732.58
697.76	1654.76
697.95	1667.05
698.13	1554.41
698.32	1712.10
698.50	1744.87
698.68	1740.77
698.87	1736.68
699.05	1787.88
699.24	1740.77
699.42	1656.81
699.61	1632.23
699.79	1699.81
699.97	1720.29
700.16	1634.28
700.34	1669.09
700.53	1683.43
700.71	1728.49
700.89	1710.05
701.08	1734.63
701.26	1656.81
701.45	2058.21
701.63	1634.28
701.81	1679.33
702.00	1671.14
702.18	1705.96
702.37	1689.57
702.55	1751.01
702.73	1720.29
702.92	1642.47
703.10	1746.92
703.28	1722.34
703.47	1624.04
703.65	1804.26
703.84	1732.58
704.02	1695.72
704.20	1834.98
704.39	1644.52
704.57	1642.47
704.75	1714.15
704.94	1748.97
705.12	1708.01
705.30	1779.68
705.49	2205.66
705.67	4288.45
705.86	9072.50
706.04	12410.69
706.22	14292.77
706.41	15107.87
706.59	13684.53
706.77	9609.07
706.96	7407.50
707.14	6451.10
707.32	5865.38
707.51	5437.36
707.69	4800.44
707.87	4208.58
708.06	3510.22
708.24	2881.49
708.42	2326.49
708.61	2172.89
708.79	1931.23
708.97	1847.27
709.16	1791.97
709.34	1806.31
709.52	1689.57
709.71	1732.58
709.89	1789.92
710.07	1681.38
710.26	1689.57
710.44	1685.48
710.62	1841.12
710.80	1742.82
710.99	1777.64
711.17	1716.20
711.35	1619.94
711.54	1679.33
711.72	1697.77
711.90	1716.20
712.09	1656.81
712.27	1648.61
712.45	1712.10
712.63	1673.19
712.82	1740.77
713.00	1730.53
713.18	1775.59
713.37	1742.82
713.55	1708.01
713.73	1699.81
713.91	1773.54
714.10	1695.72
714.28	1701.86
714.46	1654.76
714.65	1779.68
714.83	1771.49
715.01	1722.34
715.19	1705.96
715.38	1701.86
715.56	1722.34
715.74	1691.62
715.92	1648.61
716.11	1798.12
716.29	1535.98
716.47	1695.72
716.65	1652.71
716.84	1636.33
717.02	1720.29
717.20	1697.77
717.38	1695.72
717.57	1724.39
717.75	1703.91
717.93	1636.33
718.11	1728.49
718.30	1576.94
718.48	1761.25
718.66	1714.15
718.84	1712.10
719.03	1736.68
719.21	1636.33
719.39	1748.97
719.57	1767.40
719.75	1841.12
719.94	1630.18
720.12	1714.15
720.30	1673.19
720.48	1753.06
720.67	1703.91
720.85	1669.09
721.03	1734.63
721.21	1652.71
721.39	1773.54
721.58	1652.71
721.76	1736.68
721.94	1718.25
722.12	1753.06
722.30	1849.32
722.49	1720.29
722.67	1640.42
722.85	1650.66
723.03	1656.81
723.21	1699.81
723.40	1734.63
723.58	1787.88
723.76	1658.85
723.94	1722.34
724.12	1660.90
724.30	1714.15
724.49	1775.59
724.67	1581.03
724.85	1755.11
725.03	1671.14
725.21	1714.15
725.40	1787.88
725.58	1695.72
725.76	1818.60
725.94	1699.81
726.12	1640.42
726.30	1775.59
726.49	1650.66
726.67	1720.29
726.85	1730.53
727.03	1773.54
727.21	2113.50
727.39	2877.40
727.57	3737.54
727.76	4126.66
727.94	4333.50
728.12	4300.73
728.30	3633.10
728.48	3000.27
728.66	2705.37
728.84	2527.19
729.03	2369.50
729.21	2093.02
729.39	1978.34
729.57	1892.32
729.75	1824.74
729.93	1820.64
730.11	1617.90
730.30	1708.01
730.48	1724.39
730.66	1818.60
730.84	1656.81
731.02	1662.95
731.20	1613.80
731.38	1685.48
731.56	1615.85
731.74	1712.10
731.93	1685.48
732.11	1722.34
732.29	1660.90
732.47	1685.48
732.65	1705.96
732.83	1722.34
733.01	1771.49
733.19	1669.09
733.37	1720.29
733.56	1691.62
733.74	1626.09
733.92	1720.29
734.10	1701.86
734.28	1683.43
734.46	1615.85
734.64	1642.47
734.82	1642.47
735.00	1697.77
735.18	1675.24
735.36	1712.10
735.54	1708.01
735.73	1755.11
735.91	1732.58
736.09	1730.53
736.27	1689.57
736.45	1748.97
736.63	1652.71
736.81	1646.57
736.99	1738.73
737.17	1796.07
737.35	1718.25
737.53	1695.72
737.71	1736.68
737.89	1744.87
738.07	1603.56
738.25	1646.57
738.43	1675.24
738.61	1689.57
738.80	1677.29
738.98	1679.33
739.16	1728.49
739.34	1667.05
739.52	1734.63
739.70	1732.58
739.88	1718.25
740.06	1798.12
740.24	1626.09
740.42	1769.44
740.60	1574.89
740.78	1656.81
740.96	1611.75
741.14	1646.57
741.32	1759.21
741.50	1675.24
741.68	1785.83
741.86	1800.16
742.04	1607.66
742.22	1609.70
742.40	1677.29
742.58	1755.11
742.76	1675.24
742.94	1789.92
743.12	1570.79
743.30	1679.33
743.48	1654.76
743.66	1675.24
743.84	1765.35
744.02	1740.77
744.20	1679.33
744.38	1728.49
744.56	1703.91
744.74	1775.59
744.92	1728.49
745.10	1818.60
745.28	1746.92
745.46	1861.60
745.64	1634.28
745.82	1724.39
746.00	1708.01
746.18	1742.82
746.36	1646.57
746.54	1742.82
746.72	1716.20
746.90	1648.61
747.08	1697.77
747.26	1697.77
747.44	1751.01
747.62	1726.44
747.80	1759.21
747.98	1767.40
748.15	1656.81
748.33	1771.49
748.51	1701.86
748.69	1746.92
748.87	1613.80
749.05	1708.01
749.23	1642.47
749.41	1656.81
749.59	1681.38
749.77	1648.61
749.95	1683.43
750.13	1619.94
750.31	1699.81
750.49	1701.86
750.67	1751.01
750.85	1730.53
751.03	1730.53
751.20	1834.98
751.38	1798.12
751.56	1656.81
751.74	1689.57
751.92	1648.61
752.10	1656.81
752.28	1669.09
752.46	1658.85
752.64	1683.43
752.82	1708.01
753.00	1720.29
753.18	1624.04
753.35	1656.81
753.53	1689.57
753.71	1634.28
753.89	1722.34
754.07	1656.81
754.25	1671.14
754.43	1724.39
754.61	1628.14
754.79	1660.90
754.97	1746.92
755.14	1742.82
755.32	1607.66
755.50	1710.05
755.68	1746.92
755.86	1665.00
756.04	1691.62
756.22	1673.19
756.40	1734.63
756.57	1851.36
756.75	1697.77
756.93	1740.77
757.11	1714.15
757.29	1595.37
757.47	1677.29
757.65	1681.38
757.82	1591.27
758.00	1705.96
758.18	1585.13
758.36	1683.43
758.54	1771.49
758.72	1640.42
758.90	1804.26
759.07	1699.81
759.25	1568.74
759.43	1789.92
759.61	1648.61
759.79	2197.47
759.97	1748.97
760.15	1630.18
760.32	1693.67
760.50	1751.01
760.68	1779.68
760.86	1656.81
761.04	1806.31
761.22	1769.44
761.39	1761.25
761.57	1785.83
761.75	1662.95
761.93	1708.01
762.11	1705.96
762.28	1742.82
762.46	1646.57
762.64	1775.59
762.82	1685.48
763.00	1705.96
763.18	1765.35
763.35	1677.29
763.53	1744.87
763.71	1705.96
763.89	1755.11
764.07	1843.17
764.24	1689.57
764.42	1759.21
764.60	1699.81
764.78	1656.81
764.96	1800.16
765.13	1748.97
765.31	1636.33
765.49	1734.63
765.67	1679.33
765.84	1646.57
766.02	1589.22
766.20	1607.66
766.38	1753.06
766.56	1728.49
766.73	1753.06
766.91	1619.94
767.09	1699.81
767.27	1712.10
767.44	1679.33
767.62	1734.63
767.80	1699.81
767.98	1748.97
768.15	1742.82
768.33	1732.58
768.51	1783.78
768.69	1716.20
768.87	1712.10
769.04	1691.62
769.22	1783.78
769.40	1832.93
769.58	1822.69
769.75	1697.77
769.93	1832.93
770.11	1695.72
770.28	1685.48
770.46	1740.77
770.64	1693.67
770.82	1712.10
770.99	1693.67
771.17	1740.77
771.35	1660.90
771.53	1693.67
771.70	1685.48
771.88	1769.44
772.06	1599.46
772.23	1669.09
772.41	1775.59
772.59	1595.37
772.77	1589.22
772.94	1624.04
773.12	1689.57
773.30	1677.29
773.47	1722.34
773.65	1677.29
773.83	1791.97
774.01	1720.29
774.18	1593.32
774.36	1728.49
774.54	1691.62
774.71	1669.09
774.89	1628.14
775.07	1708.01
775.24	1656.81
775.42	1673.19
775.60	1841.12
775.78	1722.34
775.95	1634.28
776.13	1617.90
776.31	1554.41
776.48	1726.44
776.66	1724.39
776.84	1671.14
777.01	1611.75
777.19	1665.00
777.37	1634.28
777.54	1726.44
777.72	1781.73
777.90	1720.29
778.07	1736.68
778.25	1777.64
778.43	1775.59
778.60	1673.19
778.78	1820.64
778.96	1714.15
779.13	1636.33
779.31	1681.38
779.49	1722.34
779.66	1685.48
779.84	1728.49
780.01	1701.86
780.19	1697.77
780.37	1716.20
780.54	1734.63
780.72	1615.85
780.90	1720.29
781.07	1560.55
781.25	1681.38
781.43	1730.53
781.60	1665.00
781.78	1781.73
781.95	1742.82
782.13	1632.23
782.31	1660.90
782.48	1671.14
782.66	1648.61
782.83	1785.83
783.01	1669.09
783.19	1742.82
783.36	1675.24
783.54	1665.00
783.72	1744.87
783.89	1562.60
784.07	1669.09
784.24	1722.34
784.42	1779.68
784.60	1669.09
784.77	1703.91
784.95	1650.66
785.12	1644.52
785.30	1671.14
785.47	1687.53
785.65	1665.00
785.83	1689.57
786.00	1624.04
786.18	1757.16
786.35	1595.37
786.53	1662.95
786.71	1708.01
786.88	1765.35
787.06	1712.10
787.23	1753.06
787.41	1636.33
787.58	1730.53
787.76	1738.73
787.94	1660.90
788.11	1714.15
788.29	1654.76
788.46	1701.86
788.64	1556.46
788.81	1660.90
788.99	1705.96
789.16	1650.66
789.34	1718.25
789.52	1558.50
789.69	1660.90
789.87	1583.08
790.04	1644.52
790.22	1769.44
790.39	1765.35
790.57	1671.14
790.74	1607.66
790.92	1773.54
791.09	1673.19
791.27	1697.77
791.44	1763.30
791.62	1714.15
791.79	1759.21
791.97	1689.57
792.15	1855.46
792.32	1738.73
792.50	1755.11
792.67	1771.49
792.85	1740.77
793.02	1644.52
793.20	1689.57
793.37	1701.86
793.55	1701.86
793.72	1650.66
793.90	1771.49
794.07	1617.90
794.25	1695.72
794.42	1703.91
794.60	1740.77
794.77	1791.97
794.95	1824.74
795.12	1724.39
795.30	1697.77
795.47	1615.85
795.65	1826.79
795.82	1796.07
796.00	1695.72
796.17	1652.71
796.34	1638.38
796.52	1701.86
796.69	1746.92
796.87	1798.12
797.04	1644.52
797.22	1730.53
797.39	1769.44
797.57	1751.01
797.74	1736.68
797.92	1755.11
798.09	1718.25
798.27	1693.67
798.44	1691.62
798.62	1718.25
798.79	1753.06
798.96	1650.66
799.14	1665.00
799.31	1822.69
799.49	1607.66
799.66	1691.62
799.84	1791.97
800.01	1593.32
800.19	1697.77
800.36	1603.56
800.53	1658.85
800.71	1697.77
800.88	1771.49
801.06	1679.33
801.23	1669.09
801.41	1705.96
801.58	1683.43
801.75	1675.24
801.93	1777.64
802.10	1765.35
802.28	1642.47
802.45	1712.10
802.63	1763.30
802.80	1810.40
802.97	1701.86
803.15	1751.01
803.32	1771.49
803.50	1638.38
803.67	1660.90
803.84	1669.09
804.02	1767.40
804.19	1665.00
804.37	1634.28
804.54	1644.52
804.71	1585.13
804.89	1677.29
805.06	1660.90
805.24	1609.70
805.41	1714.15
805.58	1632.23
805.76	1830.88
805.93	1656.81
806.10	1830.88
806.28	1689.57
806.45	1626.09
806.63	1759.21
806.80	1677.29
806.97	1660.90
807.15	1796.07
807.32	1697.77
807.49	1771.49
807.67	1570.79
807.84	1787.88
808.01	1642.47
808.19	1734.63
808.36	1828.84
808.54	1673.19
808.71	1640.42
808.88	1708.01
809.06	1701.86
809.23	1740.77
809.40	1669.09
809.58	1751.01
809.75	1689.57
809.92	1650.66
810.10	1857.51
810.27	1705.96
810.44	1687.53
810.62	1740.77
810.79	1691.62
810.96	1650.66
811.14	1636.33
811.31	1716.20
811.48	1728.49
811.66	1738.73
811.83	1777.64
812.00	1712.10
812.18	1607.66
812.35	1806.31
812.52	1654.76
812.69	1673.19
812.87	1689.57
813.04	1611.75
813.21	1689.57
813.39	1697.77
813.56	1673.19
813.73	1779.68
813.91	1599.46
814.08	1669.09
814.25	1699.81
814.42	1621.99
814.60	1642.47
814.77	1716.20
814.94	1742.82
815.12	1722.34
815.29	1796.07
815.46	1601.51
815.63	1718.25
815.81	1681.38
815.98	1648.61
816.15	1697.77
816.33	1714.15
816.50	1775.59
816.67	1679.33
816.84	1583.08
817.02	1630.18
817.19	1673.19
817.36	1724.39
817.53	1785.83
817.71	1679.33
817.88	1744.87
818.05	1662.95
818.22	1681.38
818.40	1761.25
818.57	1671.14
818.74	1648.61
818.91	1705.96
819.09	1761.25
819.26	1773.54
819.43	1632.23
819.60	1642.47
819.78	1689.57
819.95	1798.12
820.12	1683.43
820.29	1783.78
820.47	1802.21
820.64	1634.28
820.81	1617.90
820.98	1626.09
821.15	1738.73
821.33	1708.01
821.50	1638.38
821.67	1796.07
821.84	1662.95
822.02	1765.35
822.19	1679.33
822.36	1734.63
822.53	1619.94
822.70	1611.75
822.88	1738.73
823.05	1785.83
823.22	1701.86
823.39	1773.54
823.56	1714.15
823.74	1851.36
823.91	1638.38
824.08	1689.57
824.25	1708.01
824.42	1759.21
824.60	1609.70
824.77	1718.25
824.94	1708.01
825.11	1716.20
825.28	1699.81
825.45	1636.33
825.63	1703.91
825.80	1640.42
825.97	1722.34
826.14	1779.68
826.31	1677.29
826.48	1714.15
826.66	1650.66
826.83	1697.77
827.00	1740.77
827.17	1648.61
827.34	1660.90
827.51	1689.57
827.69	1671.14
827.86	1642.47
828.03	1673.19
828.20	1701.86
828.37	1595.37
828.54	1695.72
828.71	1665.00
828.89	1775.59
829.06	1701.86
829.23	1718.25
829.40	1617.90
829.57	1648.61
829.74	1683.43
829.91	1681.38
830.09	1710.05
830.26	1667.05
830.43	1734.63
830.60	1705.96
830.77	1673.19
830.94	1720.29
831.11	1759.21
831.28	1673.19
831.46	1783.78
831.63	1660.90
831.80	1736.68
831.97	1640.42
832.14	1648.61
832.31	1765.35
832.48	1716.20
832.65	1787.88
832.82	1730.53
832.99	1695.72
833.17	1636.33
833.34	1730.53
833.51	1769.44
833.68	1554.41
833.85	1728.49
834.02	1642.47
834.19	1640.42
834.36	1630.18
834.53	1710.05
834.70	1748.97
834.87	1693.67
835.04	1677.29
835.22	1681.38
835.39	1644.52
835.56	1673.19
835.73	1667.05
835.90	1677.29
836.07	1599.46
836.24	1791.97
836.41	1689.57
836.58	1695.72
836.75	1755.11
836.92	1710.05
837.09	1693.67
837.26	1679.33
837.43	1673.19
837.60	1697.77
837.77	1746.92
837.94	1675.24
838.12	1771.49
838.29	1652.71
838.46	1652.71
838.63	1685.48
838.80	1701.86
838.97	1769.44
839.14	1683.43
839.31	1701.86
839.48	1712.10
839.65	1734.63
839.82	1820.64
839.99	1693.67
840.16	1675.24
840.33	1648.61
840.50	1759.21
840.67	1722.34
840.84	1533.93
841.01	1677.29
841.18	1578.98
841.35	1708.01
841.52	1681.38
841.69	1871.84
841.86	1652.71
842.03	1697.77
842.20	1689.57
842.37	1689.57
842.54	1738.73
842.71	1705.96
842.88	1658.85
843.05	1746.92
843.22	1777.64
843.39	1718.25
843.56	1619.94
843.73	1683.43
843.90	1720.29
844.07	1621.99
844.24	1720.29
844.41	1734.63
844.58	1632.23
844.75	1701.86
844.92	1691.62
845.09	1665.00
845.26	1587.18
845.43	1742.82
845.60	1703.91
845.77	1724.39
845.94	1720.29
846.10	1708.01
846.27	1568.74
846.44	1681.38
846.61	1742.82
846.78	1658.85
846.95	1765.35
847.12	1724.39
847.29	1708.01
847.46	1703.91
847.63	1722.34
847.80	1652.71
847.97	1646.57
848.14	1789.92
848.31	1718.25
848.48	1601.51
848.65	1689.57
848.82	1611.75
848.98	1816.55
849.15	1748.97
849.32	1738.73
849.49	1796.07
849.66	1695.72
849.83	1701.86
850.00	1617.90
850.17	1714.15
850.34	1675.24
850.51	1636.33
850.68	1638.38
850.85	1849.32
851.01	1669.09
851.18	1724.39
851.35	1662.95
851.52	1669.09
851.69	1816.55
851.86	1589.22
852.03	1742.82
852.20	1699.81
852.37	1675.24
852.53	1572.84
852.70	1722.34
852.87	1726.44
853.04	1724.39
853.21	1671.14
853.38	1765.35
853.55	1794.02
853.72	1771.49
853.89	1646.57
854.05	1656.81
854.22	1671.14
854.39	1638.38
854.56	1701.86
854.73	1839.08
854.90	1595.37
855.07	1673.19
855.23	1695.72
855.40	1718.25
855.57	1681.38
855.74	1593.32
855.91	1826.79
856.08	1660.90
856.25	1660.90
856.41	1691.62
856.58	1628.14
856.75	1654.76
856.92	1599.46
857.09	1755.11
857.26	1640.42
857.42	1703.91
857.59	1763.30
857.76	1650.66
857.93	1779.68
858.10	1732.58
858.27	1615.85
858.43	1718.25
858.60	1605.61
858.77	1613.80
858.94	1718.25
859.11	1828.84
859.27	1591.27
859.44	1683.43
859.61	1843.17
859.78	1787.88
859.95	1691.62
860.12	1644.52
860.28	1818.60
860.45	1798.12
860.62	1658.85
860.79	1773.54
860.95	1652.71
861.12	1675.24
861.29	1705.96
861.46	1683.43
861.63	1595.37
861.79	1732.58
861.96	1583.08
862.13	1714.15
862.30	1748.97
862.47	1681.38
862.63	1632.23
862.80	1763.30
862.97	1826.79
863.14	1728.49
863.30	1777.64
863.47	1648.61
863.64	1781.73
863.81	1705.96
863.97	1626.09
864.14	1679.33
864.31	1628.14
864.48	1730.53
864.65	1746.92
864.81	1720.29
864.98	1738.73
865.15	1794.02
865.32	1685.48
865.48	1773.54
865.65	1779.68
865.82	1681.38
865.98	1667.05
866.15	1765.35
866.32	1734.63
866.49	1669.09
866.65	1773.54
866.82	1624.04
866.99	1671.14
867.16	1603.56
867.32	1689.57
867.49	1687.53
867.66	1669.09
867.83	1648.61
867.99	1636.33
868.16	1624.04
868.33	1656.81
868.49	1720.29
868.66	1652.71
868.83	1712.10
868.99	1630.18
869.16	1660.90
869.33	1783.78
869.50	1722.34
869.66	1769.44
869.83	1789.92
870.00	1665.00
870.16	1751.01
870.33	1730.53
870.50	1691.62
870.66	1757.16
870.83	1837.03
871.00	1705.96
871.17	1779.68
871.33	1789.92
871.50	1650.66
871.67	1652.71
871.83	1646.57
872.00	1757.16
872.17	1646.57
872.33	1775.59
872.50	1730.53
872.67	1722.34
872.83	1585.13
873.00	1685.48
873.17	1708.01
873.33	1673.19
873.50	1748.97
873.67	1603.56
873.83	1656.81
874.00	1691.62
874.16	1724.39
874.33	1708.01
874.50	1603.56
874.66	1720.29
874.83	1683.43
875.00	1779.68
875.16	1802.21
875.33	1769.44
875.50	1634.28
875.66	1722.34
875.83	1650.66
875.99	1783.78
876.16	1724.39
876.33	1632.23
876.49	1677.29
876.66	1654.76
876.83	1640.42
876.99	1683.43
877.16	1757.16
877.32	1689.57
877.49	1619.94
877.66	1689.57
877.82	1705.96
877.99	1732.58
878.15	1728.49
878.32	1683.43
878.49	1787.88
878.65	1660.90
878.82	1746.92
878.98	1599.46
879.15	1757.16
879.32	1722.34
879.48	1699.81
879.65	1683.43
879.81	1621.99
879.98	1691.62
880.15	1683.43
880.31	1697.77
880.48	1703.91
880.64	1740.77
880.81	1718.25
880.97	1828.84
881.14	1714.15
881.31	1697.77
881.47	1839.08
881.64	1689.57
881.80	1630.18
881.97	1722.34
882.13	1755.11
882.30	1609.70
882.47	1665.00
882.63	1683.43
882.80	1691.62
882.96	1673.19
883.13	1740.77
883.29	1607.66
883.46	1714.15
883.62	1847.27
883.79	1718.25
883.95	1802.21
884.12	1624.04
884.29	1785.83
884.45	1689.57
884.62	1726.44
884.78	1693.67
884.95	1746.92
885.11	1714.15
885.28	1693.67
885.44	1644.52
885.61	1624.04
885.77	1748.97
885.94	1734.63
886.10	1691.62
886.27	1726.44
886.43	1804.26
886.60	1740.77
886.76	1619.94
886.93	1621.99
887.09	1726.44
887.26	1587.18
887.42	1693.67
887.59	1716.20
887.75	1871.84
887.92	1722.34
888.08	1736.68
888.25	1665.00
888.41	1701.86
888.58	1751.01
888.74	1738.73
888.91	1738.73
>>>>>End Processed Spectral Data<<<<<
