SpectraSuite Data File
++++++++++++++++++++++++++++++++++++
Date: Mon Jun 06 14:49:37 CEST 2016
User: root
Dark Spectrum Present: No
Reference Spectrum Present: No
Number of Sampled Component Spectra: 1
Spectrometers: USB4C02835
Integration Time (usec): 100000 (USB4C02835)
Spectra Averaged: 1 (USB4C02835)
Boxcar Smoothing: 0 (USB4C02835)
Correct for Electrical Dark: No (USB4C02835)
Strobe/Lamp Enabled: No (USB4C02835)
Correct for Detector Non-linearity: No (USB4C02835)
Correct for Stray Light: No (USB4C02835)
Number of Pixels in Processed Spectrum: 3648
>>>>>Begin Processed Spectral Data<<<<<
177.47	1482.73
177.69	1482.73
177.91	1482.73
178.13	1452.01
178.36	1404.91
178.58	1673.19
178.80	1765.35
179.02	1642.47
179.24	1673.19
179.46	1718.25
179.68	1724.39
179.90	1646.57
180.13	1624.04
180.35	1628.14
180.57	1652.71
180.79	1730.53
181.01	1746.92
181.23	1857.51
181.45	1830.88
181.67	1679.33
181.90	1769.44
182.12	1679.33
182.34	1628.14
182.56	1710.05
182.78	1765.35
183.00	1720.29
183.22	1722.34
183.44	1607.66
183.66	1886.18
183.89	1804.26
184.11	1695.72
184.33	1691.62
184.55	1714.15
184.77	1660.90
184.99	1730.53
185.21	1652.71
185.43	1814.50
185.65	1689.57
185.87	1703.91
186.10	1837.03
186.32	1837.03
186.54	1722.34
186.76	1726.44
186.98	1818.60
187.20	1718.25
187.42	1648.61
187.64	1714.15
187.86	1740.77
188.08	1744.87
188.30	1705.96
188.52	1687.53
188.75	1775.59
188.97	1775.59
189.19	1636.33
189.41	1720.29
189.63	1701.86
189.85	1658.85
190.07	1650.66
190.29	1615.85
190.51	1710.05
190.73	1656.81
190.95	1751.01
191.17	1685.48
191.39	1601.51
191.61	1642.47
191.84	1673.19
192.06	1730.53
192.28	1603.56
192.50	1808.36
192.72	1757.16
192.94	1693.67
193.16	1720.29
193.38	1773.54
193.60	1636.33
193.82	1648.61
194.04	1746.92
194.26	1611.75
194.48	1697.77
194.70	1630.18
194.92	1615.85
195.14	1765.35
195.36	1675.24
195.58	1679.33
195.80	1681.38
196.02	1708.01
196.24	1689.57
196.46	1748.97
196.69	1654.76
196.91	1869.80
197.13	1675.24
197.35	1611.75
197.57	1724.39
197.79	1708.01
198.01	1703.91
198.23	1726.44
198.45	1742.82
198.67	1617.90
198.89	1744.87
199.11	1626.09
199.33	1665.00
199.55	1517.54
199.77	1681.38
199.99	1796.07
200.21	1673.19
200.43	1728.49
200.65	1656.81
200.87	1576.94
201.09	1718.25
201.31	1701.86
201.53	1734.63
201.75	1624.04
201.97	1710.05
202.19	1691.62
202.41	1734.63
202.63	1855.46
202.85	1677.29
203.07	1728.49
203.29	1722.34
203.51	1650.66
203.73	1611.75
203.95	1845.22
204.17	1736.68
204.39	1718.25
204.61	1648.61
204.83	1615.85
205.05	1724.39
205.27	1703.91
205.49	1843.17
205.71	1703.91
205.93	1683.43
206.15	1650.66
206.37	1685.48
206.59	1759.21
206.81	1570.79
207.03	1665.00
207.25	1630.18
207.47	1783.78
207.69	1626.09
207.91	1789.92
208.13	1755.11
208.34	1697.77
208.56	1681.38
208.78	1736.68
209.00	1699.81
209.22	1691.62
209.44	1675.24
209.66	1720.29
209.88	1656.81
210.10	1681.38
210.32	1748.97
210.54	1789.92
210.76	1683.43
210.98	1736.68
211.20	1578.98
211.42	1779.68
211.64	1716.20
211.86	1763.30
212.08	1734.63
212.30	1685.48
212.52	1753.06
212.74	1716.20
212.96	1716.20
213.17	1671.14
213.39	1703.91
213.61	1753.06
213.83	1730.53
214.05	1755.11
214.27	1759.21
214.49	1660.90
214.71	1705.96
214.93	1824.74
215.15	1712.10
215.37	1751.01
215.59	1638.38
215.81	1699.81
216.03	1787.88
216.24	1755.11
216.46	1650.66
216.68	1755.11
216.90	1755.11
217.12	1765.35
217.34	1693.67
217.56	1716.20
217.78	1796.07
218.00	1734.63
218.22	1732.58
218.44	1726.44
218.66	1787.88
218.87	1798.12
219.09	1675.24
219.31	1662.95
219.53	1742.82
219.75	1634.28
219.97	1656.81
220.19	1742.82
220.41	1703.91
220.63	1834.98
220.85	1748.97
221.06	1714.15
221.28	1787.88
221.50	1771.49
221.72	1738.73
221.94	1718.25
222.16	1757.16
222.38	1748.97
222.60	1775.59
222.82	1691.62
223.03	1710.05
223.25	1595.37
223.47	1779.68
223.69	1751.01
223.91	1697.77
224.13	1632.23
224.35	1705.96
224.57	1746.92
224.78	1687.53
225.00	1730.53
225.22	1656.81
225.44	1691.62
225.66	1738.73
225.88	1615.85
226.10	1748.97
226.32	1744.87
226.53	1804.26
226.75	1738.73
226.97	1742.82
227.19	1693.67
227.41	1636.33
227.63	1656.81
227.85	1593.32
228.06	1751.01
228.28	1624.04
228.50	1767.40
228.72	1568.74
228.94	1619.94
229.16	1542.12
229.37	1566.70
229.59	1658.85
229.81	1708.01
230.03	1714.15
230.25	1624.04
230.47	1632.23
230.69	1636.33
230.90	1736.68
231.12	1615.85
231.34	1669.09
231.56	1755.11
231.78	1605.61
232.00	1714.15
232.21	1679.33
232.43	1652.71
232.65	1540.07
232.87	1781.73
233.09	1626.09
233.30	1673.19
233.52	1744.87
233.74	1734.63
233.96	1699.81
234.18	1703.91
234.40	1730.53
234.61	1855.46
234.83	1701.86
235.05	1665.00
235.27	1814.50
235.49	1716.20
235.70	1791.97
235.92	1726.44
236.14	1775.59
236.36	1787.88
236.58	1595.37
236.79	1712.10
237.01	1669.09
237.23	1607.66
237.45	1796.07
237.67	1574.89
237.88	1828.84
238.10	1765.35
238.32	1710.05
238.54	1773.54
238.76	1687.53
238.97	1667.05
239.19	1626.09
239.41	1806.31
239.63	1798.12
239.85	1632.23
240.06	1658.85
240.28	1734.63
240.50	1757.16
240.72	1673.19
240.93	1681.38
241.15	1785.83
241.37	1693.67
241.59	1759.21
241.81	1675.24
242.02	1724.39
242.24	1751.01
242.46	1763.30
242.68	1621.99
242.89	1748.97
243.11	1765.35
243.33	1626.09
243.55	1751.01
243.76	1722.34
243.98	1720.29
244.20	1765.35
244.42	1791.97
244.64	1673.19
244.85	1650.66
245.07	1683.43
245.29	1748.97
245.51	1714.15
245.72	1685.48
245.94	1775.59
246.16	1736.68
246.38	1783.78
246.59	1681.38
246.81	1695.72
247.03	1658.85
247.24	1632.23
247.46	1615.85
247.68	1660.90
247.90	1626.09
248.11	1677.29
248.33	1734.63
248.55	1683.43
248.77	1683.43
248.98	1808.36
249.20	1845.22
249.42	1716.20
249.64	1708.01
249.85	1738.73
250.07	1656.81
250.29	1783.78
250.50	1751.01
250.72	1730.53
250.94	1691.62
251.16	1849.32
251.37	1810.40
251.59	1703.91
251.81	1753.06
252.02	1779.68
252.24	1648.61
252.46	1843.17
252.68	1685.48
252.89	1671.14
253.11	1597.42
253.33	1816.55
253.54	1730.53
253.76	1560.55
253.98	1636.33
254.20	1662.95
254.41	1630.18
254.63	1722.34
254.85	1669.09
255.06	1734.63
255.28	1669.09
255.50	1697.77
255.71	1652.71
255.93	1665.00
256.15	1681.38
256.36	1773.54
256.58	1640.42
256.80	1736.68
257.02	1724.39
257.23	1652.71
257.45	1656.81
257.67	1746.92
257.88	1665.00
258.10	1697.77
258.32	1732.58
258.53	1677.29
258.75	1779.68
258.97	1689.57
259.18	1662.95
259.40	1806.31
259.62	1812.45
259.83	1767.40
260.05	1767.40
260.27	2025.44
260.48	1755.11
260.70	1607.66
260.92	1724.39
261.13	1697.77
261.35	1716.20
261.57	1773.54
261.78	1593.32
262.00	1597.42
262.22	1755.11
262.43	1650.66
262.65	1656.81
262.86	1689.57
263.08	1777.64
263.30	1712.10
263.51	1576.94
263.73	1642.47
263.95	1761.25
264.16	1644.52
264.38	1640.42
264.60	1716.20
264.81	1724.39
265.03	1841.12
265.25	1730.53
265.46	1720.29
265.68	1722.34
265.89	1751.01
266.11	1648.61
266.33	1746.92
266.54	1773.54
266.76	1712.10
266.98	1681.38
267.19	1773.54
267.41	1740.77
267.62	1714.15
267.84	1550.31
268.06	1732.58
268.27	1726.44
268.49	1728.49
268.70	1710.05
268.92	1785.83
269.14	1689.57
269.35	1525.74
269.57	1683.43
269.79	1728.49
270.00	1722.34
270.22	1806.31
270.43	1673.19
270.65	1613.80
270.87	1720.29
271.08	1669.09
271.30	1703.91
271.51	1693.67
271.73	1771.49
271.95	1746.92
272.16	1673.19
272.38	1724.39
272.59	1691.62
272.81	1738.73
273.02	1728.49
273.24	1742.82
273.46	1779.68
273.67	1624.04
273.89	1669.09
274.10	1665.00
274.32	1796.07
274.54	1720.29
274.75	1751.01
274.97	1669.09
275.18	1708.01
275.40	1656.81
275.61	1632.23
275.83	1673.19
276.05	1656.81
276.26	1695.72
276.48	1744.87
276.69	1673.19
276.91	1683.43
277.12	1812.45
277.34	1796.07
277.55	1722.34
277.77	1720.29
277.99	1701.86
278.20	1628.14
278.42	1617.90
278.63	1617.90
278.85	1640.42
279.06	1634.28
279.28	1716.20
279.49	1720.29
279.71	1738.73
279.93	1611.75
280.14	1646.57
280.36	1708.01
280.57	1734.63
280.79	1785.83
281.00	1751.01
281.22	1574.89
281.43	1724.39
281.65	1595.37
281.86	1669.09
282.08	1789.92
282.29	1734.63
282.51	1576.94
282.73	1591.27
282.94	1570.79
283.16	1714.15
283.37	1771.49
283.59	1728.49
283.80	1650.66
284.02	1656.81
284.23	1775.59
284.45	1601.51
284.66	1675.24
284.88	1656.81
285.09	1757.16
285.31	1736.68
285.52	1660.90
285.74	1552.36
285.95	1701.86
286.17	1751.01
286.38	1773.54
286.60	1646.57
286.81	1636.33
287.03	1730.53
287.24	1634.28
287.46	1705.96
287.67	1701.86
287.89	1839.08
288.10	1687.53
288.32	1697.77
288.53	1865.70
288.75	1697.77
288.96	1742.82
289.18	1730.53
289.39	1724.39
289.61	1693.67
289.82	1832.93
290.04	1806.31
290.25	1607.66
290.47	1708.01
290.68	1648.61
290.90	1722.34
291.11	1597.42
291.33	1767.40
291.54	1638.38
291.76	1738.73
291.97	1787.88
292.18	1673.19
292.40	1650.66
292.61	1673.19
292.83	1802.21
293.04	1726.44
293.26	1701.86
293.47	1714.15
293.69	1652.71
293.90	1671.14
294.12	1791.97
294.33	1751.01
294.55	1630.18
294.76	1808.36
294.97	1832.93
295.19	1867.75
295.40	1677.29
295.62	1689.57
295.83	1751.01
296.05	1685.48
296.26	1744.87
296.48	1646.57
296.69	1679.33
296.90	1722.34
297.12	1767.40
297.33	1843.17
297.55	1718.25
297.76	1738.73
297.98	1732.58
298.19	1714.15
298.41	1673.19
298.62	1665.00
298.83	1748.97
299.05	1763.30
299.26	1693.67
299.48	1652.71
299.69	1705.96
299.90	1671.14
300.12	1648.61
300.33	1748.97
300.55	1751.01
300.76	1710.05
300.98	1665.00
301.19	1783.78
301.40	1710.05
301.62	1726.44
301.83	1738.73
302.05	1710.05
302.26	1767.40
302.47	1720.29
302.69	1624.04
302.90	1722.34
303.12	1576.94
303.33	1738.73
303.54	1775.59
303.76	1703.91
303.97	1742.82
304.19	1781.73
304.40	1613.80
304.61	1751.01
304.83	1789.92
305.04	1716.20
305.26	1626.09
305.47	1644.52
305.68	1720.29
305.90	1550.31
306.11	1765.35
306.33	1724.39
306.54	1652.71
306.75	1769.44
306.97	1574.89
307.18	1708.01
307.39	1675.24
307.61	1742.82
307.82	1654.76
308.04	1746.92
308.25	1626.09
308.46	1708.01
308.68	1732.58
308.89	1667.05
309.10	1621.99
309.32	1699.81
309.53	1695.72
309.74	1699.81
309.96	1656.81
310.17	1789.92
310.39	1736.68
310.60	1791.97
310.81	1636.33
311.03	1521.64
311.24	1710.05
311.45	1718.25
311.67	1873.89
311.88	1650.66
312.09	1658.85
312.31	1607.66
312.52	1697.77
312.73	1667.05
312.95	1644.52
313.16	1667.05
313.37	1710.05
313.59	1679.33
313.80	1699.81
314.01	1855.46
314.23	1693.67
314.44	1632.23
314.65	1656.81
314.87	1624.04
315.08	1761.25
315.29	1683.43
315.51	1646.57
315.72	1626.09
315.93	1771.49
316.15	1755.11
316.36	1628.14
316.57	1677.29
316.79	1738.73
317.00	1628.14
317.21	1738.73
317.43	1628.14
317.64	1726.44
317.85	1699.81
318.07	1685.48
318.28	1718.25
318.49	1806.31
318.70	1861.60
318.92	1763.30
319.13	1877.99
319.34	1794.02
319.56	1771.49
319.77	1783.78
319.98	1816.55
320.20	1755.11
320.41	1759.21
320.62	1767.40
320.83	1701.86
321.05	1763.30
321.26	1736.68
321.47	1628.14
321.69	1822.69
321.90	1665.00
322.11	1681.38
322.32	1722.34
322.54	1808.36
322.75	1656.81
322.96	1804.26
323.18	1669.09
323.39	1564.65
323.60	1597.42
323.81	1769.44
324.03	1634.28
324.24	1673.19
324.45	1710.05
324.66	1671.14
324.88	1722.34
325.09	1814.50
325.30	1681.38
325.52	1732.58
325.73	1732.58
325.94	1650.66
326.15	1654.76
326.37	1640.42
326.58	1697.77
326.79	1722.34
327.00	1613.80
327.22	1697.77
327.43	1679.33
327.64	1613.80
327.85	1759.21
328.07	1722.34
328.28	1787.88
328.49	1630.18
328.70	1699.81
328.92	1681.38
329.13	1705.96
329.34	1689.57
329.55	1826.79
329.76	1755.11
329.98	1671.14
330.19	1804.26
330.40	1849.32
330.61	1744.87
330.83	1730.53
331.04	1624.04
331.25	1751.01
331.46	1708.01
331.68	1644.52
331.89	1783.78
332.10	1722.34
332.31	1685.48
332.52	1705.96
332.74	1714.15
332.95	1665.00
333.16	1648.61
333.37	1722.34
333.58	1699.81
333.80	1724.39
334.01	1630.18
334.22	1753.06
334.43	1681.38
334.64	1679.33
334.86	1673.19
335.07	1619.94
335.28	1716.20
335.49	1634.28
335.70	1710.05
335.92	1714.15
336.13	1855.46
336.34	1714.15
336.55	1781.73
336.76	1681.38
336.98	1654.76
337.19	1679.33
337.40	1761.25
337.61	1800.16
337.82	1691.62
338.04	1822.69
338.25	1671.14
338.46	1673.19
338.67	1705.96
338.88	1677.29
339.09	1642.47
339.31	1679.33
339.52	1716.20
339.73	1607.66
339.94	1652.71
340.15	1669.09
340.36	1642.47
340.58	1734.63
340.79	1605.61
341.00	1767.40
341.21	1669.09
341.42	1841.12
341.63	1681.38
341.85	1783.78
342.06	1712.10
342.27	1677.29
342.48	1693.67
342.69	1583.08
342.90	1748.97
343.12	1710.05
343.33	1644.52
343.54	1689.57
343.75	1734.63
343.96	1759.21
344.17	1685.48
344.38	1740.77
344.60	1712.10
344.81	1621.99
345.02	1714.15
345.23	1746.92
345.44	1738.73
345.65	1589.22
345.86	1757.16
346.07	1730.53
346.29	1595.37
346.50	1609.70
346.71	1708.01
346.92	1785.83
347.13	1865.70
347.34	1710.05
347.55	1681.38
347.76	1691.62
347.98	1626.09
348.19	1693.67
348.40	1755.11
348.61	1652.71
348.82	1890.28
349.03	1742.82
349.24	1658.85
349.45	1775.59
349.66	1593.32
349.88	1691.62
350.09	1726.44
350.30	1763.30
350.51	1800.16
350.72	1648.61
350.93	1712.10
351.14	1644.52
351.35	1712.10
351.56	1736.68
351.77	1722.34
351.99	1722.34
352.20	1837.03
352.41	1757.16
352.62	1570.79
352.83	1683.43
353.04	1693.67
353.25	1603.56
353.46	1806.31
353.67	1738.73
353.88	1636.33
354.09	1667.05
354.30	1740.77
354.52	1718.25
354.73	1695.72
354.94	1636.33
355.15	1695.72
355.36	1753.06
355.57	1609.70
355.78	1716.20
355.99	1673.19
356.20	1736.68
356.41	1777.64
356.62	1744.87
356.83	1660.90
357.04	1773.54
357.25	1671.14
357.46	1640.42
357.68	1673.19
357.89	1671.14
358.10	1640.42
358.31	1701.86
358.52	1671.14
358.73	1617.90
358.94	1691.62
359.15	1628.14
359.36	1763.30
359.57	1662.95
359.78	1775.59
359.99	1681.38
360.20	1628.14
360.41	1730.53
360.62	1753.06
360.83	1712.10
361.04	1728.49
361.25	1718.25
361.46	1798.12
361.67	1679.33
361.88	1691.62
362.09	1738.73
362.30	1740.77
362.51	1665.00
362.72	1775.59
362.93	1720.29
363.14	1658.85
363.35	1720.29
363.56	1595.37
363.78	1834.98
363.99	1710.05
364.20	1658.85
364.41	1753.06
364.62	1867.75
364.83	1701.86
365.04	1753.06
365.25	1644.52
365.46	1748.97
365.67	1548.26
365.88	1630.18
366.09	1761.25
366.30	1665.00
366.51	1759.21
366.72	1634.28
366.93	1689.57
367.14	1722.34
367.35	1794.02
367.56	1679.33
367.77	1728.49
367.98	1642.47
368.18	1759.21
368.39	1703.91
368.60	1640.42
368.81	1714.15
369.02	1708.01
369.23	1603.56
369.44	1685.48
369.65	1611.75
369.86	1677.29
370.07	1720.29
370.28	1644.52
370.49	1681.38
370.70	1718.25
370.91	1673.19
371.12	1683.43
371.33	1722.34
371.54	1712.10
371.75	1781.73
371.96	1585.13
372.17	1697.77
372.38	1697.77
372.59	1759.21
372.80	1658.85
373.01	1734.63
373.22	1683.43
373.43	1722.34
373.64	1640.42
373.85	1789.92
374.06	1726.44
374.26	1783.78
374.47	1718.25
374.68	1808.36
374.89	1667.05
375.10	1708.01
375.31	1708.01
375.52	1753.06
375.73	1673.19
375.94	1634.28
376.15	1767.40
376.36	1642.47
376.57	1689.57
376.78	1564.65
376.99	1734.63
377.20	1767.40
377.40	1689.57
377.61	1767.40
377.82	1703.91
378.03	1800.16
378.24	1767.40
378.45	1718.25
378.66	1708.01
378.87	1574.89
379.08	1558.50
379.29	1695.72
379.50	1769.44
379.71	1722.34
379.91	1767.40
380.12	1710.05
380.33	1626.09
380.54	1703.91
380.75	1691.62
380.96	1660.90
381.17	1755.11
381.38	1689.57
381.59	1767.40
381.80	1693.67
382.00	1822.69
382.21	1810.40
382.42	1875.94
382.63	1900.52
382.84	1736.68
383.05	1798.12
383.26	1794.02
383.47	1748.97
383.68	1669.09
383.88	1769.44
384.09	1621.99
384.30	1800.16
384.51	1667.05
384.72	1656.81
384.93	1617.90
385.14	1699.81
385.35	1718.25
385.55	1630.18
385.76	1730.53
385.97	1689.57
386.18	1650.66
386.39	1642.47
386.60	1630.18
386.81	1740.77
387.02	1714.15
387.22	1714.15
387.43	1759.21
387.64	1800.16
387.85	1865.70
388.06	2240.48
388.27	4198.34
388.48	6784.92
388.68	8306.56
388.89	9711.47
389.10	10000.23
389.31	8767.35
389.52	7542.67
389.73	6731.67
389.93	6178.72
390.14	6041.51
390.35	5203.89
390.56	4677.56
390.77	3848.13
390.98	3033.04
391.18	2578.39
391.39	2111.46
391.60	1880.04
391.81	1781.73
392.02	1728.49
392.23	1880.04
392.43	1728.49
392.64	1789.92
392.85	1724.39
393.06	1779.68
393.27	1685.48
393.47	1662.95
393.68	1691.62
393.89	1642.47
394.10	1806.31
394.31	1656.81
394.52	1665.00
394.72	1677.29
394.93	1798.12
395.14	1605.61
395.35	1697.77
395.56	1675.24
395.76	1779.68
395.97	1834.98
396.18	1773.54
396.39	1900.52
396.60	2029.54
396.80	1845.22
397.01	1841.12
397.22	1812.45
397.43	1771.49
397.64	1722.34
397.84	1806.31
398.05	1828.84
398.26	1679.33
398.47	1822.69
398.67	1765.35
398.88	1742.82
399.09	1755.11
399.30	1628.14
399.51	1701.86
399.71	1648.61
399.92	1665.00
400.13	1708.01
400.34	1722.34
400.54	1638.38
400.75	1726.44
400.96	1724.39
401.17	1732.58
401.37	1763.30
401.58	1742.82
401.79	1675.24
402.00	1853.41
402.21	1955.81
402.41	1959.91
402.62	2004.96
402.83	2041.82
403.04	2019.30
403.24	2062.30
403.45	1863.65
403.66	1972.19
403.87	1908.71
404.07	1910.75
404.28	1880.04
404.49	1945.57
404.70	1779.68
404.90	1759.21
405.11	1726.44
405.32	1771.49
405.52	1718.25
405.73	1673.19
405.94	1640.42
406.15	1665.00
406.35	1834.98
406.56	1732.58
406.77	1714.15
406.98	1757.16
407.18	1773.54
407.39	1736.68
407.60	1734.63
407.80	1746.92
408.01	1652.71
408.22	1730.53
408.43	1765.35
408.63	1771.49
408.84	1662.95
409.05	1705.96
409.25	1724.39
409.46	1730.53
409.67	1693.67
409.88	1642.47
410.08	1703.91
410.29	1763.30
410.50	1746.92
410.70	1699.81
410.91	1632.23
411.12	1806.31
411.32	1751.01
411.53	1685.48
411.74	1779.68
411.95	1748.97
412.15	1734.63
412.36	1779.68
412.57	1791.97
412.77	1787.88
412.98	1720.29
413.19	1705.96
413.39	1767.40
413.60	1794.02
413.81	1806.31
414.01	1660.90
414.22	1730.53
414.43	1808.36
414.63	1726.44
414.84	1802.21
415.05	1716.20
415.25	1615.85
415.46	1757.16
415.67	1732.58
415.87	1763.30
416.08	1738.73
416.29	1683.43
416.49	1665.00
416.70	1636.33
416.91	1615.85
417.11	1724.39
417.32	1755.11
417.53	1845.22
417.73	1632.23
417.94	1621.99
418.15	1742.82
418.35	1775.59
418.56	1632.23
418.77	1802.21
418.97	1656.81
419.18	1683.43
419.38	1609.70
419.59	1699.81
419.80	1728.49
420.00	1693.67
420.21	1755.11
420.42	1822.69
420.62	1763.30
420.83	1652.71
421.04	1693.67
421.24	1669.09
421.45	1728.49
421.65	1697.77
421.86	1701.86
422.07	1630.18
422.27	1742.82
422.48	1705.96
422.69	1638.38
422.89	1724.39
423.10	1748.97
423.30	1648.61
423.51	1748.97
423.72	1714.15
423.92	1718.25
424.13	1652.71
424.33	1636.33
424.54	1695.72
424.75	1681.38
424.95	1859.56
425.16	1789.92
425.36	1736.68
425.57	1742.82
425.78	1767.40
425.98	1814.50
426.19	1658.85
426.39	1699.81
426.60	1787.88
426.81	1808.36
427.01	1740.77
427.22	1607.66
427.42	1578.98
427.63	1636.33
427.83	1722.34
428.04	1785.83
428.25	1769.44
428.45	1781.73
428.66	1804.26
428.86	1722.34
429.07	1734.63
429.28	1705.96
429.48	1744.87
429.69	1658.85
429.89	1658.85
430.10	1677.29
430.30	1720.29
430.51	1705.96
430.71	1662.95
430.92	1683.43
431.13	1710.05
431.33	1740.77
431.54	1632.23
431.74	1820.64
431.95	1884.13
432.15	1669.09
432.36	1705.96
432.56	1740.77
432.77	1777.64
432.98	1841.12
433.18	1757.16
433.39	1619.94
433.59	1636.33
433.80	1787.88
434.00	1810.40
434.21	1712.10
434.41	1701.86
434.62	1910.75
434.82	1624.04
435.03	1621.99
435.23	1712.10
435.44	1595.37
435.64	1673.19
435.85	1671.14
436.06	1714.15
436.26	1697.77
436.47	1699.81
436.67	1734.63
436.88	1699.81
437.08	1742.82
437.29	1748.97
437.49	1687.53
437.70	1769.44
437.90	1675.24
438.11	1796.07
438.31	1705.96
438.52	1824.74
438.72	1812.45
438.93	1902.56
439.13	1773.54
439.34	1789.92
439.54	1746.92
439.75	1798.12
439.95	1730.53
440.16	1697.77
440.36	1746.92
440.57	1722.34
440.77	1724.39
440.98	1738.73
441.18	1759.21
441.39	1597.42
441.59	1716.20
441.80	1812.45
442.00	1728.49
442.21	1779.68
442.41	1683.43
442.62	1740.77
442.82	1697.77
443.02	1746.92
443.23	1769.44
443.43	1710.05
443.64	1773.54
443.84	1677.29
444.05	1841.12
444.25	1740.77
444.46	1787.88
444.66	1703.91
444.87	1818.60
445.07	1667.05
445.28	1742.82
445.48	1800.16
445.69	1740.77
445.89	1974.24
446.09	1701.86
446.30	2029.54
446.50	2645.98
446.71	3704.78
446.91	4399.04
447.12	4745.14
447.32	5019.57
447.53	4308.93
447.73	3833.80
447.93	3518.41
448.14	3391.44
448.34	3145.68
448.55	2916.31
448.75	2818.00
448.96	2707.41
449.16	2451.42
449.36	2285.53
449.57	2002.91
449.77	1882.08
449.98	1748.97
450.18	1779.68
450.39	1837.03
450.59	1822.69
450.79	1712.10
451.00	1683.43
451.20	1834.98
451.41	1701.86
451.61	1759.21
451.81	1761.25
452.02	1746.92
452.22	1724.39
452.43	1689.57
452.63	1589.22
452.84	1732.58
453.04	1703.91
453.24	1777.64
453.45	1679.33
453.65	1708.01
453.86	1767.40
454.06	1748.97
454.26	1753.06
454.47	1660.90
454.67	1849.32
454.87	1755.11
455.08	1736.68
455.28	1755.11
455.49	1763.30
455.69	1665.00
455.89	1845.22
456.10	1806.31
456.30	1708.01
456.51	1763.30
456.71	1738.73
456.91	1757.16
457.12	1886.18
457.32	1703.91
457.52	1693.67
457.73	1714.15
457.93	1779.68
458.14	1730.53
458.34	1689.57
458.54	1660.90
458.75	1726.44
458.95	1816.55
459.15	1724.39
459.36	1759.21
459.56	1839.08
459.76	1818.60
459.97	1675.24
460.17	1681.38
460.37	1783.78
460.58	1679.33
460.78	1767.40
460.99	1703.91
461.19	1716.20
461.39	1677.29
461.60	1673.19
461.80	1796.07
462.00	1665.00
462.21	1722.34
462.41	1716.20
462.61	1667.05
462.82	1673.19
463.02	1701.86
463.22	1724.39
463.43	1834.98
463.63	1740.77
463.83	1814.50
464.04	1789.92
464.24	1701.86
464.44	1740.77
464.64	1728.49
464.85	1691.62
465.05	1738.73
465.25	1705.96
465.46	1662.95
465.66	1765.35
465.86	1665.00
466.07	1742.82
466.27	1773.54
466.47	1675.24
466.68	1644.52
466.88	1765.35
467.08	1673.19
467.29	1740.77
467.49	1785.83
467.69	1775.59
467.89	1703.91
468.10	1708.01
468.30	1720.29
468.50	1783.78
468.71	1777.64
468.91	1665.00
469.11	1853.41
469.31	1699.81
469.52	1712.10
469.72	1847.27
469.92	1818.60
470.13	1675.24
470.33	1841.12
470.53	1830.88
470.73	2246.62
470.94	2312.16
471.14	2301.92
471.34	2508.76
471.54	2322.40
471.75	2144.22
471.95	2131.94
472.15	2115.55
472.36	2115.55
472.56	2074.59
472.76	1937.38
472.96	1961.95
473.17	1959.91
473.37	1937.38
473.57	1722.34
473.77	1830.88
473.98	1738.73
474.18	1744.87
474.38	1943.52
474.58	1654.76
474.79	1767.40
474.99	1779.68
475.19	1757.16
475.39	1726.44
475.60	1693.67
475.80	1757.16
476.00	1740.77
476.20	1705.96
476.41	1773.54
476.61	1730.53
476.81	1734.63
477.01	1656.81
477.21	1804.26
477.42	1810.40
477.62	1619.94
477.82	1740.77
478.02	1796.07
478.23	1773.54
478.43	1677.29
478.63	1734.63
478.83	1724.39
479.03	1662.95
479.24	1863.65
479.44	1867.75
479.64	1681.38
479.84	1658.85
480.04	1691.62
480.25	1798.12
480.45	1705.96
480.65	1703.91
480.85	1695.72
481.06	1654.76
481.26	1671.14
481.46	1767.40
481.66	1777.64
481.86	1689.57
482.06	1744.87
482.27	1691.62
482.47	1675.24
482.67	1681.38
482.87	1660.90
483.07	1744.87
483.28	1712.10
483.48	1626.09
483.68	1755.11
483.88	1624.04
484.08	1587.18
484.29	1654.76
484.49	1712.10
484.69	1628.14
484.89	1841.12
485.09	1781.73
485.29	1769.44
485.50	1708.01
485.70	1722.34
485.90	1753.06
486.10	1730.53
486.30	1767.40
486.50	1730.53
486.71	1765.35
486.91	1767.40
487.11	1857.51
487.31	1660.90
487.51	1720.29
487.71	1591.27
487.91	1673.19
488.12	1624.04
488.32	1636.33
488.52	1642.47
488.72	1685.48
488.92	1701.86
489.12	1742.82
489.32	1703.91
489.53	1787.88
489.73	1632.23
489.93	1773.54
490.13	1632.23
490.33	1626.09
490.53	1781.73
490.73	1755.11
490.94	1675.24
491.14	1828.84
491.34	1828.84
491.54	2064.35
491.74	2527.19
491.94	2926.55
492.14	3008.47
492.34	3082.19
492.54	2881.49
492.75	2578.39
492.95	2359.26
493.15	2301.92
493.35	2238.43
493.55	2314.20
493.75	2152.42
493.95	2072.54
494.15	2093.02
494.35	1947.62
494.56	1964.00
494.76	1746.92
494.96	1759.21
495.16	1781.73
495.36	1755.11
495.56	1726.44
495.76	1705.96
495.96	1787.88
496.16	1607.66
496.36	1806.31
496.56	1681.38
496.77	1820.64
496.97	1726.44
497.17	1722.34
497.37	1673.19
497.57	1773.54
497.77	1626.09
497.97	1679.33
498.17	1732.58
498.37	1640.42
498.57	1820.64
498.77	1738.73
498.97	1794.02
499.17	1853.41
499.38	1726.44
499.58	1775.59
499.78	1810.40
499.98	1777.64
500.18	1701.86
500.38	1697.77
500.58	1947.62
500.78	2533.34
500.98	4587.45
501.18	5859.24
501.38	6700.95
501.58	7303.06
501.78	6678.43
501.98	5625.77
502.18	5097.39
502.38	4558.78
502.58	4095.94
502.78	3811.27
502.98	3665.86
503.18	3534.79
503.38	3248.08
503.59	2914.26
503.79	2705.37
503.99	2451.42
504.19	2258.91
504.39	2281.44
504.59	2191.33
504.79	2099.17
504.99	2007.01
505.19	1906.66
505.39	1886.18
505.59	1947.62
505.79	1900.52
505.99	1847.27
506.19	1867.75
506.39	1916.90
506.59	1738.73
506.79	1695.72
506.99	1787.88
507.19	1714.15
507.39	1773.54
507.59	1652.71
507.79	1640.42
507.99	1619.94
508.19	1689.57
508.39	1724.39
508.59	1705.96
508.79	1800.16
508.99	1910.75
509.19	1710.05
509.39	1720.29
509.59	1681.38
509.79	1693.67
509.99	1757.16
510.19	1769.44
510.39	1730.53
510.59	1724.39
510.79	1753.06
510.99	1650.66
511.19	1789.92
511.39	1773.54
511.59	1779.68
511.79	1802.21
511.99	1697.77
512.19	1818.60
512.38	1675.24
512.58	1654.76
512.78	1742.82
512.98	1802.21
513.18	1753.06
513.38	1624.04
513.58	1689.57
513.78	1710.05
513.98	1732.58
514.18	1718.25
514.38	1687.53
514.58	1734.63
514.78	1712.10
514.98	1681.38
515.18	1708.01
515.38	1728.49
515.58	1785.83
515.78	1703.91
515.98	1730.53
516.18	1783.78
516.38	1724.39
516.57	1712.10
516.77	1783.78
516.97	1753.06
517.17	1687.53
517.37	1609.70
517.57	1783.78
517.77	1689.57
517.97	1685.48
518.17	1734.63
518.37	1726.44
518.57	1701.86
518.77	1724.39
518.97	1716.20
519.16	1744.87
519.36	1779.68
519.56	1683.43
519.76	1751.01
519.96	1705.96
520.16	1785.83
520.36	1650.66
520.56	1777.64
520.76	1695.72
520.96	1697.77
521.16	1857.51
521.35	1818.60
521.55	1822.69
521.75	1742.82
521.95	1724.39
522.15	1771.49
522.35	1638.38
522.55	1732.58
522.75	1751.01
522.95	1636.33
523.14	1783.78
523.34	1744.87
523.54	1753.06
523.74	1751.01
523.94	1716.20
524.14	1574.89
524.34	1693.67
524.54	1865.70
524.73	1738.73
524.93	1748.97
525.13	1748.97
525.33	1630.18
525.53	1828.84
525.73	1677.29
525.93	1718.25
526.13	1685.48
526.32	1857.51
526.52	1832.93
526.72	1718.25
526.92	1703.91
527.12	1675.24
527.32	1718.25
527.52	1708.01
527.71	1777.64
527.91	1730.53
528.11	1705.96
528.31	1744.87
528.51	1636.33
528.71	1812.45
528.90	1705.96
529.10	1767.40
529.30	1822.69
529.50	1603.56
529.70	1755.11
529.90	1671.14
530.09	1691.62
530.29	1767.40
530.49	1648.61
530.69	1789.92
530.89	1746.92
531.09	1703.91
531.28	1720.29
531.48	1759.21
531.68	1755.11
531.88	1730.53
532.08	1802.21
532.28	1677.29
532.47	1769.44
532.67	1775.59
532.87	1726.44
533.07	1628.14
533.27	1787.88
533.46	1789.92
533.66	1753.06
533.86	1624.04
534.06	1748.97
534.26	1744.87
534.45	1746.92
534.65	1732.58
534.85	1693.67
535.05	1755.11
535.25	1722.34
535.44	1607.66
535.64	1791.97
535.84	1746.92
536.04	1697.77
536.24	1746.92
536.43	1677.29
536.63	1736.68
536.83	1726.44
537.03	1755.11
537.22	1665.00
537.42	1626.09
537.62	1640.42
537.82	1705.96
538.02	1781.73
538.21	1841.12
538.41	1896.42
538.61	1742.82
538.81	1679.33
539.00	1812.45
539.20	1601.51
539.40	1689.57
539.60	1728.49
539.79	1796.07
539.99	1689.57
540.19	1718.25
540.39	1710.05
540.58	1673.19
540.78	1701.86
540.98	1714.15
541.18	1771.49
541.37	1763.30
541.57	1798.12
541.77	1763.30
541.97	1667.05
542.16	1599.46
542.36	1677.29
542.56	1710.05
542.76	1890.28
542.95	1791.97
543.15	1818.60
543.35	1765.35
543.54	1701.86
543.74	1703.91
543.94	1742.82
544.14	1691.62
544.33	1740.77
544.53	1757.16
544.73	1615.85
544.93	1730.53
545.12	1669.09
545.32	1662.95
545.52	1744.87
545.71	1685.48
545.91	1687.53
546.11	1710.05
546.30	1671.14
546.50	1765.35
546.70	1777.64
546.90	1742.82
547.09	1658.85
547.29	1744.87
547.49	1738.73
547.68	1798.12
547.88	1636.33
548.08	1767.40
548.27	2072.54
548.47	1708.01
548.67	1638.38
548.87	1705.96
549.06	1738.73
549.26	1779.68
549.46	1755.11
549.65	1642.47
549.85	1775.59
550.05	1701.86
550.24	1640.42
550.44	1828.84
550.64	1658.85
550.83	1746.92
551.03	1763.30
551.23	1787.88
551.42	1810.40
551.62	1814.50
551.82	1675.24
552.01	1791.97
552.21	1779.68
552.41	1642.47
552.60	1859.56
552.80	1681.38
553.00	1695.72
553.19	1697.77
553.39	1828.84
553.59	1714.15
553.78	1773.54
553.98	1781.73
554.17	1759.21
554.37	1734.63
554.57	1744.87
554.76	1642.47
554.96	1693.67
555.16	1673.19
555.35	1791.97
555.55	1748.97
555.75	1857.51
555.94	1843.17
556.14	1630.18
556.33	1722.34
556.53	1781.73
556.73	1806.31
556.92	1796.07
557.12	1851.36
557.32	1818.60
557.51	1765.35
557.71	1808.36
557.90	1880.04
558.10	1816.55
558.30	1736.68
558.49	1685.48
558.69	1681.38
558.88	1767.40
559.08	1761.25
559.28	1746.92
559.47	1773.54
559.67	1763.30
559.86	1800.16
560.06	1765.35
560.26	1755.11
560.45	1767.40
560.65	1761.25
560.84	1777.64
561.04	1648.61
561.24	1708.01
561.43	1667.05
561.63	1812.45
561.82	1796.07
562.02	1742.82
562.22	1697.77
562.41	1728.49
562.61	1787.88
562.80	1648.61
563.00	1775.59
563.19	1705.96
563.39	1816.55
563.59	1755.11
563.78	1681.38
563.98	1701.86
564.17	1742.82
564.37	1642.47
564.56	1751.01
564.76	1703.91
564.96	1798.12
565.15	1806.31
565.35	1837.03
565.54	1736.68
565.74	1718.25
565.93	1716.20
566.13	1781.73
566.32	1724.39
566.52	1726.44
566.71	1710.05
566.91	1777.64
567.11	1775.59
567.30	1742.82
567.50	1781.73
567.69	1798.12
567.89	1685.48
568.08	1687.53
568.28	1783.78
568.47	1714.15
568.67	1669.09
568.86	1728.49
569.06	1763.30
569.25	1665.00
569.45	1744.87
569.64	1669.09
569.84	1681.38
570.04	1796.07
570.23	1689.57
570.43	1724.39
570.62	1765.35
570.82	1787.88
571.01	1738.73
571.21	1685.48
571.40	1660.90
571.60	1798.12
571.79	1820.64
571.99	1748.97
572.18	1693.67
572.38	1722.34
572.57	1679.33
572.77	1746.92
572.96	1920.99
573.16	1726.44
573.35	1736.68
573.55	1894.37
573.74	1781.73
573.94	1705.96
574.13	1689.57
574.33	1771.49
574.52	1740.77
574.71	1751.01
574.91	1808.36
575.10	1626.09
575.30	1730.53
575.49	1593.32
575.69	1765.35
575.88	1763.30
576.08	1685.48
576.27	1677.29
576.47	1738.73
576.66	1871.84
576.86	1763.30
577.05	1769.44
577.25	1744.87
577.44	1851.36
577.64	1679.33
577.83	1804.26
578.02	1726.44
578.22	1826.79
578.41	1837.03
578.61	1710.05
578.80	1720.29
579.00	1757.16
579.19	1791.97
579.39	1808.36
579.58	1755.11
579.77	1806.31
579.97	1814.50
580.16	1808.36
580.36	1890.28
580.55	1855.46
580.75	1712.10
580.94	1763.30
581.13	1927.14
581.33	1755.11
581.52	1742.82
581.72	1847.27
581.91	1843.17
582.11	1796.07
582.30	1765.35
582.49	1748.97
582.69	1886.18
582.88	1818.60
583.08	1834.98
583.27	1783.78
583.47	1720.29
583.66	1759.21
583.85	1714.15
584.05	1824.74
584.24	1800.16
584.44	1740.77
584.63	1845.22
584.82	1855.46
585.02	1837.03
585.21	1853.41
585.41	1781.73
585.60	1869.80
585.79	1933.28
585.99	1875.94
586.18	1908.71
586.37	2090.98
586.57	3383.24
586.76	9797.48
586.96	24579.72
587.15	34737.65
587.34	41155.98
587.54	42845.55
587.73	37342.66
587.93	27121.25
588.12	21878.45
588.31	18564.84
588.51	16598.79
588.70	15501.08
588.89	14161.70
589.09	12848.96
589.28	11153.24
589.47	9631.60
589.67	7950.21
589.86	6533.02
590.06	5078.96
590.25	3827.65
590.44	3110.86
590.64	2654.17
590.83	2285.53
591.02	2045.92
591.22	1933.28
591.41	1886.18
591.60	1773.54
591.80	1951.71
591.99	1757.16
592.18	1826.79
592.38	1810.40
592.57	1734.63
592.76	1722.34
592.96	1751.01
593.15	1748.97
593.34	1845.22
593.54	1794.02
593.73	1791.97
593.92	1808.36
594.12	1828.84
594.31	1689.57
594.50	1789.92
594.70	1751.01
594.89	1918.95
595.08	1603.56
595.28	1732.58
595.47	1920.99
595.66	1820.64
595.86	1738.73
596.05	1675.24
596.24	1746.92
596.43	1769.44
596.63	1853.41
596.82	1789.92
597.01	1751.01
597.21	1830.88
597.40	1845.22
597.59	1789.92
597.79	1720.29
597.98	1767.40
598.17	1779.68
598.36	1757.16
598.56	1751.01
598.75	1718.25
598.94	1771.49
599.14	1755.11
599.33	1624.04
599.52	1814.50
599.71	1703.91
599.91	1775.59
600.10	1775.59
600.29	1634.28
600.48	1685.48
600.68	1740.77
600.87	1730.53
601.06	1738.73
601.26	1800.16
601.45	1755.11
601.64	1669.09
601.83	1843.17
602.03	1714.15
602.22	1722.34
602.41	1757.16
602.60	1849.32
602.80	1773.54
602.99	1697.77
603.18	1751.01
603.37	1724.39
603.57	1769.44
603.76	1730.53
603.95	1861.60
604.14	1705.96
604.34	1720.29
604.53	1685.48
604.72	1759.21
604.91	1740.77
605.10	1742.82
605.30	1683.43
605.49	1849.32
605.68	1787.88
605.87	1734.63
606.07	1675.24
606.26	1744.87
606.45	1736.68
606.64	1691.62
606.84	1673.19
607.03	1714.15
607.22	1759.21
607.41	1687.53
607.60	1701.86
607.80	1847.27
607.99	1730.53
608.18	1767.40
608.37	1791.97
608.56	1724.39
608.76	1716.20
608.95	1796.07
609.14	1761.25
609.33	1732.58
609.52	1742.82
609.72	1755.11
609.91	1773.54
610.10	1753.06
610.29	1820.64
610.48	1714.15
610.68	1757.16
610.87	1708.01
611.06	1771.49
611.25	1722.34
611.44	1820.64
611.63	1648.61
611.83	1845.22
612.02	1720.29
612.21	1777.64
612.40	1695.72
612.59	1650.66
612.79	1669.09
612.98	1734.63
613.17	1755.11
613.36	1699.81
613.55	1832.93
613.74	1703.91
613.93	1748.97
614.13	1636.33
614.32	1761.25
614.51	1708.01
614.70	1701.86
614.89	1683.43
615.08	1732.58
615.28	2045.92
615.47	1662.95
615.66	1667.05
615.85	1683.43
616.04	1869.80
616.23	1732.58
616.42	1693.67
616.62	1734.63
616.81	1714.15
617.00	1718.25
617.19	1763.30
617.38	1669.09
617.57	1699.81
617.76	1820.64
617.95	1730.53
618.15	1732.58
618.34	1736.68
618.53	1632.23
618.72	1804.26
618.91	1812.45
619.10	1796.07
619.29	1800.16
619.48	1787.88
619.68	1720.29
619.87	1722.34
620.06	1736.68
620.25	1779.68
620.44	1726.44
620.63	1736.68
620.82	1724.39
621.01	1714.15
621.20	1748.97
621.39	1693.67
621.59	1734.63
621.78	1648.61
621.97	1693.67
622.16	1796.07
622.35	1718.25
622.54	1777.64
622.73	1853.41
622.92	1677.29
623.11	1814.50
623.30	1765.35
623.49	1718.25
623.68	1665.00
623.88	1724.39
624.07	1695.72
624.26	1755.11
624.45	1781.73
624.64	1681.38
624.83	1679.33
625.02	1728.49
625.21	1722.34
625.40	1689.57
625.59	1757.16
625.78	1736.68
625.97	1763.30
626.16	1777.64
626.35	1730.53
626.54	1802.21
626.74	1787.88
626.93	1734.63
627.12	1689.57
627.31	1753.06
627.50	1757.16
627.69	1701.86
627.88	1753.06
628.07	1695.72
628.26	1685.48
628.45	1712.10
628.64	1693.67
628.83	1734.63
629.02	1667.05
629.21	1806.31
629.40	1748.97
629.59	1689.57
629.78	1677.29
629.97	1748.97
630.16	1654.76
630.35	1728.49
630.54	1761.25
630.73	1685.48
630.92	1679.33
631.11	1691.62
631.30	1783.78
631.49	1677.29
631.68	1746.92
631.87	1742.82
632.06	1609.70
632.25	1855.46
632.44	1744.87
632.63	1683.43
632.82	1689.57
633.01	1603.56
633.20	1687.53
633.39	1705.96
633.58	1626.09
633.77	1714.15
633.96	1732.58
634.15	1775.59
634.34	1806.31
634.53	1712.10
634.72	1701.86
634.91	1691.62
635.10	1808.36
635.29	1718.25
635.48	1748.97
635.67	1660.90
635.86	1638.38
636.05	1732.58
636.24	1665.00
636.43	1767.40
636.62	1787.88
636.81	1591.27
637.00	1751.01
637.19	1714.15
637.38	1681.38
637.57	1626.09
637.76	1734.63
637.95	1730.53
638.14	1644.52
638.33	1685.48
638.52	1724.39
638.71	1673.19
638.89	1679.33
639.08	1843.17
639.27	1791.97
639.46	1753.06
639.65	1843.17
639.84	1728.49
640.03	1757.16
640.22	1714.15
640.41	1824.74
640.60	1675.24
640.79	1740.77
640.98	1681.38
641.17	1755.11
641.36	1714.15
641.55	1642.47
641.74	1683.43
641.92	1669.09
642.11	1632.23
642.30	1681.38
642.49	1673.19
642.68	1697.77
642.87	1720.29
643.06	1777.64
643.25	1603.56
643.44	1703.91
643.63	1771.49
643.82	1681.38
644.00	1634.28
644.19	1787.88
644.38	1658.85
644.57	1755.11
644.76	1726.44
644.95	1736.68
645.14	1679.33
645.33	1732.58
645.52	1753.06
645.71	1738.73
645.89	1630.18
646.08	1683.43
646.27	1734.63
646.46	1845.22
646.65	1675.24
646.84	1781.73
647.03	1609.70
647.22	1806.31
647.40	1761.25
647.59	1765.35
647.78	1603.56
647.97	1714.15
648.16	1703.91
648.35	1808.36
648.54	1728.49
648.73	1687.53
648.91	1755.11
649.10	1648.61
649.29	1646.57
649.48	1714.15
649.67	1642.47
649.86	1759.21
650.05	1673.19
650.23	1718.25
650.42	1597.42
650.61	1812.45
650.80	1697.77
650.99	1804.26
651.18	1746.92
651.36	1761.25
651.55	1781.73
651.74	1746.92
651.93	1705.96
652.12	1742.82
652.31	1638.38
652.49	1720.29
652.68	1714.15
652.87	1800.16
653.06	1660.90
653.25	1806.31
653.44	1660.90
653.62	1839.08
653.81	1619.94
654.00	1705.96
654.19	1769.44
654.38	1841.12
654.56	1798.12
654.75	1646.57
654.94	1757.16
655.13	1757.16
655.32	1720.29
655.51	1665.00
655.69	1681.38
655.88	1738.73
656.07	1644.52
656.26	1763.30
656.45	1712.10
656.63	1681.38
656.82	1767.40
657.01	1693.67
657.20	1650.66
657.38	1853.41
657.57	1691.62
657.76	1642.47
657.95	1722.34
658.14	1728.49
658.32	1701.86
658.51	1708.01
658.70	1712.10
658.89	1691.62
659.08	1718.25
659.26	1816.55
659.45	1564.65
659.64	1802.21
659.83	1611.75
660.01	1925.09
660.20	1814.50
660.39	1693.67
660.58	1642.47
660.76	1816.55
660.95	1619.94
661.14	1689.57
661.33	1568.74
661.51	1705.96
661.70	1722.34
661.89	1789.92
662.08	1730.53
662.26	1675.24
662.45	1605.61
662.64	1755.11
662.83	1730.53
663.01	1634.28
663.20	1660.90
663.39	1841.12
663.58	1691.62
663.76	1576.94
663.95	1773.54
664.14	1669.09
664.32	1783.78
664.51	1767.40
664.70	1634.28
664.89	1746.92
665.07	1656.81
665.26	1769.44
665.45	1728.49
665.64	1787.88
665.82	1671.14
666.01	1781.73
666.20	1615.85
666.38	1814.50
666.57	1902.56
666.76	2181.09
666.95	4394.94
667.13	10452.83
667.32	15404.82
667.51	18009.84
667.69	19422.94
667.88	17968.88
668.07	12572.48
668.25	9594.73
668.44	8349.57
668.63	7413.65
668.81	6920.09
669.00	6295.46
669.19	5828.52
669.38	5160.88
669.56	4743.10
669.75	3995.59
669.94	3497.93
670.12	3010.51
670.31	2576.34
670.50	2322.40
670.68	2050.02
670.87	1898.47
671.06	1804.26
671.24	1783.78
671.43	1775.59
671.62	1722.34
671.80	1689.57
671.99	1789.92
672.18	1648.61
672.36	1769.44
672.55	1710.05
672.74	1740.77
672.92	1736.68
673.11	1800.16
673.29	1695.72
673.48	1755.11
673.67	1734.63
673.85	1804.26
674.04	1611.75
674.23	1699.81
674.41	1886.18
674.60	1685.48
674.79	1710.05
674.97	1642.47
675.16	1806.31
675.34	1726.44
675.53	1742.82
675.72	1730.53
675.90	1785.83
676.09	1621.99
676.28	1669.09
676.46	1640.42
676.65	1746.92
676.83	1658.85
677.02	1736.68
677.21	1744.87
677.39	1757.16
677.58	1601.51
677.77	1722.34
677.95	1615.85
678.14	1751.01
678.32	1710.05
678.51	1665.00
678.70	1861.60
678.88	1697.77
679.07	1779.68
679.25	1734.63
679.44	1695.72
679.63	1644.52
679.81	1675.24
680.00	1779.68
680.18	1757.16
680.37	1877.99
680.55	1722.34
680.74	1652.71
680.93	1607.66
681.11	1740.77
681.30	1705.96
681.48	1746.92
681.67	1701.86
681.85	1619.94
682.04	1708.01
682.23	1671.14
682.41	1691.62
682.60	1701.86
682.78	1757.16
682.97	1609.70
683.15	1761.25
683.34	1724.39
683.53	1794.02
683.71	1665.00
683.90	1845.22
684.08	1740.77
684.27	1736.68
684.45	1720.29
684.64	1787.88
684.82	1693.67
685.01	1714.15
685.19	1640.42
685.38	1730.53
685.57	1773.54
685.75	1624.04
685.94	1742.82
686.12	1759.21
686.31	1613.80
686.49	1802.21
686.68	1636.33
686.86	1716.20
687.05	1669.09
687.23	1796.07
687.42	1673.19
687.60	1630.18
687.79	1710.05
687.97	1820.64
688.16	1804.26
688.34	1904.61
688.53	1720.29
688.71	1611.75
688.90	1757.16
689.08	1595.37
689.27	1648.61
689.45	1701.86
689.64	1759.21
689.82	1740.77
690.01	1748.97
690.19	1689.57
690.38	1644.52
690.56	1808.36
690.75	1708.01
690.93	1626.09
691.12	1740.77
691.30	1679.33
691.49	1697.77
691.67	1667.05
691.86	1820.64
692.04	1624.04
692.23	1642.47
692.41	1681.38
692.60	1832.93
692.78	1777.64
692.97	1687.53
693.15	1732.58
693.34	1783.78
693.52	1742.82
693.71	1714.15
693.89	1712.10
694.08	1642.47
694.26	1755.11
694.44	1710.05
694.63	1779.68
694.81	1683.43
695.00	1638.38
695.18	1785.83
695.37	1742.82
695.55	1730.53
695.74	1730.53
695.92	1648.61
696.10	1779.68
696.29	1708.01
696.47	1697.77
696.66	1656.81
696.84	1681.38
697.03	1669.09
697.21	1869.80
697.40	2275.29
697.58	1751.01
697.76	1650.66
697.95	1642.47
698.13	1652.71
698.32	1671.14
698.50	1675.24
698.68	1755.11
698.87	1710.05
699.05	1804.26
699.24	1753.06
699.42	1644.52
699.61	1683.43
699.79	1732.58
699.97	1662.95
700.16	1560.55
700.34	1656.81
700.53	1644.52
700.71	1832.93
700.89	1814.50
701.08	1656.81
701.26	1746.92
701.45	2072.54
701.63	1654.76
701.81	1691.62
702.00	1656.81
702.18	1683.43
702.37	1675.24
702.55	1759.21
702.73	1742.82
702.92	1654.76
703.10	1738.73
703.28	1730.53
703.47	1576.94
703.65	1734.63
703.84	1796.07
704.02	1613.80
704.20	1787.88
704.39	1691.62
704.57	1654.76
704.75	1726.44
704.94	1710.05
705.12	1742.82
705.30	1800.16
705.49	2248.67
705.67	4347.84
705.86	9355.12
706.04	12738.37
706.22	14642.98
706.41	15392.53
706.59	14053.16
706.77	9652.08
706.96	7518.09
707.14	6555.55
707.32	6076.32
707.51	5793.70
707.69	5048.24
707.87	4259.78
708.06	3536.84
708.24	3016.66
708.42	2531.29
708.61	2310.11
708.79	1849.32
708.97	1851.36
709.16	1822.69
709.34	1820.64
709.52	1658.85
709.71	1673.19
709.89	1832.93
710.07	1660.90
710.26	1681.38
710.44	1648.61
710.62	1701.86
710.80	1714.15
710.99	1714.15
711.17	1724.39
711.35	1699.81
711.54	1685.48
711.72	1761.25
711.90	1728.49
712.09	1734.63
712.27	1708.01
712.45	1730.53
712.63	1736.68
712.82	1693.67
713.00	1701.86
713.18	1703.91
713.37	1820.64
713.55	1701.86
713.73	1740.77
713.91	1740.77
714.10	1605.61
714.28	1724.39
714.46	1740.77
714.65	1722.34
714.83	1738.73
715.01	1759.21
715.19	1708.01
715.38	1658.85
715.56	1808.36
715.74	1697.77
715.92	1681.38
716.11	1767.40
716.29	1667.05
716.47	1658.85
716.65	1679.33
716.84	1613.80
717.02	1722.34
717.20	1642.47
717.38	1675.24
717.57	1689.57
717.75	1685.48
717.93	1691.62
718.11	1769.44
718.30	1615.85
718.48	1675.24
718.66	1716.20
718.84	1767.40
719.03	1699.81
719.21	1656.81
719.39	1734.63
719.57	1771.49
719.75	1734.63
719.94	1607.66
720.12	1738.73
720.30	1730.53
720.48	1785.83
720.67	1695.72
720.85	1626.09
721.03	1710.05
721.21	1671.14
721.39	1808.36
721.58	1820.64
721.76	1669.09
721.94	1804.26
722.12	1705.96
722.30	1757.16
722.49	1619.94
722.67	1683.43
722.85	1730.53
723.03	1685.48
723.21	1675.24
723.40	1761.25
723.58	1730.53
723.76	1703.91
723.94	1765.35
724.12	1699.81
724.30	1828.84
724.49	1751.01
724.67	1734.63
724.85	1777.64
725.03	1578.98
725.21	1748.97
725.40	1744.87
725.58	1617.90
725.76	1751.01
725.94	1734.63
726.12	1662.95
726.30	1689.57
726.49	1728.49
726.67	1710.05
726.85	1773.54
727.03	1736.68
727.21	2146.27
727.39	2834.39
727.57	3807.17
727.76	4323.26
727.94	4519.87
728.12	4427.71
728.30	3696.58
728.48	3016.66
728.66	2756.57
728.84	2570.20
729.03	2312.16
729.21	2189.28
729.39	1984.48
729.57	1847.27
729.75	1740.77
729.93	1853.41
730.11	1765.35
730.30	1687.53
730.48	1712.10
730.66	1789.92
730.84	1738.73
731.02	1673.19
731.20	1607.66
731.38	1718.25
731.56	1632.23
731.74	1566.70
731.93	1697.77
732.11	1628.14
732.29	1744.87
732.47	1738.73
732.65	1675.24
732.83	1787.88
733.01	1730.53
733.19	1660.90
733.37	1705.96
733.56	1648.61
733.74	1675.24
733.92	1767.40
734.10	1703.91
734.28	1769.44
734.46	1560.55
734.64	1695.72
734.82	1619.94
735.00	1736.68
735.18	1699.81
735.36	1667.05
735.54	1669.09
735.73	1699.81
735.91	1775.59
736.09	1759.21
736.27	1736.68
736.45	1804.26
736.63	1550.31
736.81	1716.20
736.99	1785.83
737.17	1794.02
737.35	1638.38
737.53	1714.15
737.71	1708.01
737.89	1779.68
738.07	1705.96
738.25	1630.18
738.43	1574.89
738.61	1648.61
738.80	1597.42
738.98	1662.95
739.16	1650.66
739.34	1660.90
739.52	1785.83
739.70	1613.80
739.88	1722.34
740.06	1773.54
740.24	1619.94
740.42	1812.45
740.60	1613.80
740.78	1619.94
740.96	1609.70
741.14	1683.43
741.32	1681.38
741.50	1611.75
741.68	1877.99
741.86	1816.55
742.04	1681.38
742.22	1673.19
742.40	1683.43
742.58	1722.34
742.76	1554.41
742.94	1771.49
743.12	1597.42
743.30	1656.81
743.48	1693.67
743.66	1632.23
743.84	1722.34
744.02	1644.52
744.20	1662.95
744.38	1667.05
744.56	1630.18
744.74	1837.03
744.92	1689.57
745.10	1763.30
745.28	1710.05
745.46	1759.21
745.64	1722.34
745.82	1816.55
746.00	1687.53
746.18	1734.63
746.36	1611.75
746.54	1757.16
746.72	1656.81
746.90	1671.14
747.08	1693.67
747.26	1638.38
747.44	1724.39
747.62	1726.44
747.80	1718.25
747.98	1763.30
748.15	1740.77
748.33	1783.78
748.51	1673.19
748.69	1767.40
748.87	1669.09
749.05	1646.57
749.23	1652.71
749.41	1865.70
749.59	1724.39
749.77	1777.64
749.95	1636.33
750.13	1714.15
750.31	1826.79
750.49	1662.95
750.67	1730.53
750.85	1886.18
751.03	1740.77
751.20	1794.02
751.38	1656.81
751.56	1638.38
751.74	1654.76
751.92	1765.35
752.10	1605.61
752.28	1732.58
752.46	1660.90
752.64	1720.29
752.82	1708.01
753.00	1689.57
753.18	1683.43
753.35	1648.61
753.53	1642.47
753.71	1722.34
753.89	1736.68
754.07	1689.57
754.25	1800.16
754.43	1726.44
754.61	1714.15
754.79	1660.90
754.97	1705.96
755.14	1763.30
755.32	1581.03
755.50	1708.01
755.68	1642.47
755.86	1660.90
756.04	1646.57
756.22	1636.33
756.40	1755.11
756.57	1828.84
756.75	1683.43
756.93	1771.49
757.11	1734.63
757.29	1599.46
757.47	1619.94
757.65	1617.90
757.82	1626.09
758.00	1755.11
758.18	1689.57
758.36	1689.57
758.54	1789.92
758.72	1665.00
758.90	1730.53
759.07	1708.01
759.25	1607.66
759.43	1730.53
759.61	1593.32
759.79	2111.46
759.97	1724.39
760.15	1638.38
760.32	1640.42
760.50	1634.28
760.68	1806.31
760.86	1634.28
761.04	1679.33
761.22	1763.30
761.39	1642.47
761.57	1710.05
761.75	1660.90
761.93	1740.77
762.11	1683.43
762.28	1703.91
762.46	1599.46
762.64	1669.09
762.82	1658.85
763.00	1726.44
763.18	1710.05
763.35	1638.38
763.53	1755.11
763.71	1716.20
763.89	1660.90
764.07	1787.88
764.24	1732.58
764.42	1773.54
764.60	1757.16
764.78	1777.64
764.96	1691.62
765.13	1800.16
765.31	1701.86
765.49	1724.39
765.67	1701.86
765.84	1648.61
766.02	1621.99
766.20	1624.04
766.38	1712.10
766.56	1658.85
766.73	1759.21
766.91	1708.01
767.09	1722.34
767.27	1771.49
767.44	1662.95
767.62	1755.11
767.80	1734.63
767.98	1679.33
768.15	1660.90
768.33	1652.71
768.51	1769.44
768.69	1748.97
768.87	1744.87
769.04	1710.05
769.22	1820.64
769.40	1806.31
769.58	1783.78
769.75	1761.25
769.93	1665.00
770.11	1730.53
770.28	1644.52
770.46	1703.91
770.64	1695.72
770.82	1693.67
770.99	1630.18
771.17	1730.53
771.35	1669.09
771.53	1630.18
771.70	1714.15
771.88	1699.81
772.06	1619.94
772.23	1636.33
772.41	1714.15
772.59	1736.68
772.77	1667.05
772.94	1687.53
773.12	1814.50
773.30	1667.05
773.47	1722.34
773.65	1607.66
773.83	1708.01
774.01	1693.67
774.18	1658.85
774.36	1673.19
774.54	1630.18
774.71	1736.68
774.89	1658.85
775.07	1658.85
775.24	1689.57
775.42	1708.01
775.60	1730.53
775.78	1728.49
775.95	1585.13
776.13	1599.46
776.31	1556.46
776.48	1705.96
776.66	1638.38
776.84	1705.96
777.01	1677.29
777.19	1699.81
777.37	1722.34
777.54	1761.25
777.72	1769.44
777.90	1724.39
778.07	1656.81
778.25	1873.89
778.43	1697.77
778.60	1701.86
778.78	1726.44
778.96	1798.12
779.13	1638.38
779.31	1701.86
779.49	1712.10
779.66	1736.68
779.84	1773.54
780.01	1656.81
780.19	1681.38
780.37	1730.53
780.54	1699.81
780.72	1691.62
780.90	1636.33
781.07	1642.47
781.25	1738.73
781.43	1755.11
781.60	1667.05
781.78	1726.44
781.95	1722.34
782.13	1675.24
782.31	1665.00
782.48	1652.71
782.66	1695.72
782.83	1834.98
783.01	1701.86
783.19	1800.16
783.36	1755.11
783.54	1728.49
783.72	1744.87
783.89	1710.05
784.07	1767.40
784.24	1734.63
784.42	1757.16
784.60	1714.15
784.77	1718.25
784.95	1562.60
785.12	1675.24
785.30	1699.81
785.47	1665.00
785.65	1654.76
785.83	1701.86
786.00	1687.53
786.18	1730.53
786.35	1589.22
786.53	1603.56
786.71	1730.53
786.88	1730.53
787.06	1787.88
787.23	1621.99
787.41	1695.72
787.58	1703.91
787.76	1701.86
787.94	1757.16
788.11	1738.73
788.29	1628.14
788.46	1585.13
788.64	1644.52
788.81	1644.52
788.99	1644.52
789.16	1689.57
789.34	1740.77
789.52	1644.52
789.69	1640.42
789.87	1605.61
790.04	1665.00
790.22	1681.38
790.39	1779.68
790.57	1642.47
790.74	1685.48
790.92	1712.10
791.09	1646.57
791.27	1697.77
791.44	1791.97
791.62	1703.91
791.79	1742.82
791.97	1703.91
792.15	1877.99
792.32	1708.01
792.50	1765.35
792.67	1773.54
792.85	1771.49
793.02	1726.44
793.20	1626.09
793.37	1628.14
793.55	1681.38
793.72	1640.42
793.90	1683.43
794.07	1677.29
794.25	1617.90
794.42	1710.05
794.60	1722.34
794.77	1675.24
794.95	1701.86
795.12	1757.16
795.30	1734.63
795.47	1570.79
795.65	1888.23
795.82	1636.33
796.00	1693.67
796.17	1716.20
796.34	1691.62
796.52	1691.62
796.69	1734.63
796.87	1751.01
797.04	1681.38
797.22	1738.73
797.39	1683.43
797.57	1677.29
797.74	1744.87
797.92	1677.29
798.09	1640.42
798.27	1738.73
798.44	1724.39
798.62	1626.09
798.79	1710.05
798.96	1689.57
799.14	1607.66
799.31	1830.88
799.49	1751.01
799.66	1691.62
799.84	1697.77
800.01	1644.52
800.19	1699.81
800.36	1595.37
800.53	1697.77
800.71	1740.77
800.88	1787.88
801.06	1687.53
801.23	1701.86
801.41	1640.42
801.58	1599.46
801.75	1695.72
801.93	1714.15
802.10	1722.34
802.28	1656.81
802.45	1701.86
802.63	1751.01
802.80	1769.44
802.97	1703.91
803.15	1630.18
803.32	1718.25
803.50	1738.73
803.67	1665.00
803.84	1613.80
804.02	1656.81
804.19	1644.52
804.37	1560.55
804.54	1595.37
804.71	1687.53
804.89	1650.66
805.06	1617.90
805.24	1613.80
805.41	1646.57
805.58	1587.18
805.76	1882.08
805.93	1734.63
806.10	1798.12
806.28	1751.01
806.45	1705.96
806.63	1671.14
806.80	1621.99
806.97	1685.48
807.15	1773.54
807.32	1718.25
807.49	1724.39
807.67	1665.00
807.84	1726.44
808.01	1599.46
808.19	1849.32
808.36	1837.03
808.54	1748.97
808.71	1697.77
808.88	1742.82
809.06	1705.96
809.23	1761.25
809.40	1648.61
809.58	1771.49
809.75	1611.75
809.92	1658.85
810.10	1845.22
810.27	1699.81
810.44	1648.61
810.62	1701.86
810.79	1742.82
810.96	1595.37
811.14	1658.85
811.31	1681.38
811.48	1708.01
811.66	1640.42
811.83	1736.68
812.00	1716.20
812.18	1642.47
812.35	1845.22
812.52	1609.70
812.69	1724.39
812.87	1628.14
813.04	1603.56
813.21	1669.09
813.39	1720.29
813.56	1630.18
813.73	1734.63
813.91	1603.56
814.08	1693.67
814.25	1726.44
814.42	1609.70
814.60	1656.81
814.77	1662.95
814.94	1726.44
815.12	1669.09
815.29	1701.86
815.46	1693.67
815.63	1697.77
815.81	1650.66
815.98	1658.85
816.15	1648.61
816.33	1701.86
816.50	1581.03
816.67	1679.33
816.84	1710.05
817.02	1640.42
817.19	1677.29
817.36	1734.63
817.53	1759.21
817.71	1634.28
817.88	1751.01
818.05	1699.81
818.22	1710.05
818.40	1728.49
818.57	1628.14
818.74	1705.96
818.91	1617.90
819.09	1734.63
819.26	1763.30
819.43	1607.66
819.60	1675.24
819.78	1683.43
819.95	1759.21
820.12	1646.57
820.29	1798.12
820.47	1796.07
820.64	1677.29
820.81	1714.15
820.98	1636.33
821.15	1683.43
821.33	1710.05
821.50	1667.05
821.67	1703.91
821.84	1687.53
822.02	1722.34
822.19	1820.64
822.36	1662.95
822.53	1695.72
822.70	1632.23
822.88	1640.42
823.05	1773.54
823.22	1669.09
823.39	1662.95
823.56	1763.30
823.74	1824.74
823.91	1724.39
824.08	1665.00
824.25	1626.09
824.42	1705.96
824.60	1654.76
824.77	1646.57
824.94	1724.39
825.11	1656.81
825.28	1624.04
825.45	1685.48
825.63	1740.77
825.80	1626.09
825.97	1773.54
826.14	1675.24
826.31	1626.09
826.48	1730.53
826.66	1619.94
826.83	1718.25
827.00	1628.14
827.17	1626.09
827.34	1650.66
827.51	1667.05
827.69	1697.77
827.86	1656.81
828.03	1751.01
828.20	1748.97
828.37	1675.24
828.54	1656.81
828.71	1687.53
828.89	1742.82
829.06	1685.48
829.23	1787.88
829.40	1665.00
829.57	1656.81
829.74	1734.63
829.91	1609.70
830.09	1658.85
830.26	1779.68
830.43	1804.26
830.60	1753.06
830.77	1771.49
830.94	1753.06
831.11	1679.33
831.28	1677.29
831.46	1791.97
831.63	1712.10
831.80	1714.15
831.97	1611.75
832.14	1638.38
832.31	1757.16
832.48	1742.82
832.65	1791.97
832.82	1761.25
832.99	1814.50
833.17	1662.95
833.34	1796.07
833.51	1689.57
833.68	1615.85
833.85	1689.57
834.02	1621.99
834.19	1716.20
834.36	1632.23
834.53	1730.53
834.70	1742.82
834.87	1705.96
835.04	1697.77
835.22	1542.12
835.39	1634.28
835.56	1710.05
835.73	1634.28
835.90	1800.16
836.07	1679.33
836.24	1730.53
836.41	1613.80
836.58	1691.62
836.75	1722.34
836.92	1726.44
837.09	1693.67
837.26	1744.87
837.43	1671.14
837.60	1710.05
837.77	1677.29
837.94	1689.57
838.12	1794.02
838.29	1730.53
838.46	1562.60
838.63	1581.03
838.80	1773.54
838.97	1708.01
839.14	1730.53
839.31	1742.82
839.48	1744.87
839.65	1648.61
839.82	1783.78
839.99	1642.47
840.16	1679.33
840.33	1673.19
840.50	1714.15
840.67	1621.99
840.84	1642.47
841.01	1712.10
841.18	1677.29
841.35	1693.67
841.52	1824.74
841.69	1796.07
841.86	1714.15
842.03	1699.81
842.20	1757.16
842.37	1671.14
842.54	1685.48
842.71	1746.92
842.88	1636.33
843.05	1775.59
843.22	1691.62
843.39	1808.36
843.56	1695.72
843.73	1726.44
843.90	1714.15
844.07	1718.25
844.24	1724.39
844.41	1716.20
844.58	1697.77
844.75	1673.19
844.92	1785.83
845.09	1673.19
845.26	1646.57
845.43	1691.62
845.60	1673.19
845.77	1695.72
845.94	1675.24
846.10	1681.38
846.27	1595.37
846.44	1648.61
846.61	1583.08
846.78	1734.63
846.95	1699.81
847.12	1673.19
847.29	1705.96
847.46	1697.77
847.63	1736.68
847.80	1691.62
847.97	1632.23
848.14	1742.82
848.31	1683.43
848.48	1628.14
848.65	1722.34
848.82	1699.81
848.98	1837.03
849.15	1740.77
849.32	1736.68
849.49	1710.05
849.66	1693.67
849.83	1693.67
850.00	1636.33
850.17	1720.29
850.34	1722.34
850.51	1652.71
850.68	1644.52
850.85	1730.53
851.01	1757.16
851.18	1665.00
851.35	1609.70
851.52	1673.19
851.69	1773.54
851.86	1648.61
852.03	1693.67
852.20	1761.25
852.37	1667.05
852.53	1656.81
852.70	1626.09
852.87	1671.14
853.04	1656.81
853.21	1683.43
853.38	1765.35
853.55	1753.06
853.72	1726.44
853.89	1671.14
854.05	1675.24
854.22	1644.52
854.39	1665.00
854.56	1751.01
854.73	1763.30
854.90	1652.71
855.07	1714.15
855.23	1669.09
855.40	1728.49
855.57	1705.96
855.74	1611.75
855.91	1830.88
856.08	1607.66
856.25	1538.02
856.41	1654.76
856.58	1634.28
856.75	1679.33
856.92	1697.77
857.09	1779.68
857.26	1650.66
857.42	1679.33
857.59	1728.49
857.76	1658.85
857.93	1593.32
858.10	1712.10
858.27	1665.00
858.43	1689.57
858.60	1632.23
858.77	1642.47
858.94	1640.42
859.11	1662.95
859.27	1634.28
859.44	1751.01
859.61	1824.74
859.78	1720.29
859.95	1662.95
860.12	1714.15
860.28	1824.74
860.45	1738.73
860.62	1636.33
860.79	1742.82
860.95	1728.49
861.12	1636.33
861.29	1705.96
861.46	1636.33
861.63	1726.44
861.79	1605.61
861.96	1640.42
862.13	1681.38
862.30	1767.40
862.47	1648.61
862.63	1681.38
862.80	1767.40
862.97	1673.19
863.14	1841.12
863.30	1722.34
863.47	1632.23
863.64	1740.77
863.81	1720.29
863.97	1748.97
864.14	1761.25
864.31	1691.62
864.48	1708.01
864.65	1630.18
864.81	1773.54
864.98	1777.64
865.15	1656.81
865.32	1728.49
865.48	1748.97
865.65	1783.78
865.82	1638.38
865.98	1742.82
866.15	1714.15
866.32	1701.86
866.49	1667.05
866.65	1730.53
866.82	1640.42
866.99	1699.81
867.16	1730.53
867.32	1650.66
867.49	1648.61
867.66	1695.72
867.83	1638.38
867.99	1601.51
868.16	1644.52
868.33	1648.61
868.49	1716.20
868.66	1624.04
868.83	1734.63
868.99	1738.73
869.16	1689.57
869.33	1736.68
869.50	1761.25
869.66	1701.86
869.83	1660.90
870.00	1636.33
870.16	1720.29
870.33	1716.20
870.50	1746.92
870.66	1640.42
870.83	1806.31
871.00	1818.60
871.17	1710.05
871.33	1730.53
871.50	1665.00
871.67	1736.68
871.83	1583.08
872.00	1796.07
872.17	1714.15
872.33	1814.50
872.50	1746.92
872.67	1675.24
872.83	1726.44
873.00	1675.24
873.17	1691.62
873.33	1777.64
873.50	1767.40
873.67	1679.33
873.83	1634.28
874.00	1730.53
874.16	1742.82
874.33	1716.20
874.50	1636.33
874.66	1734.63
874.83	1738.73
875.00	1742.82
875.16	1708.01
875.33	1710.05
875.50	1525.74
875.66	1662.95
875.83	1763.30
875.99	1748.97
876.16	1675.24
876.33	1578.98
876.49	1654.76
876.66	1714.15
876.83	1691.62
876.99	1667.05
877.16	1701.86
877.32	1681.38
877.49	1658.85
877.66	1765.35
877.82	1763.30
877.99	1656.81
878.15	1775.59
878.32	1724.39
878.49	1624.04
878.65	1658.85
878.82	1681.38
878.98	1624.04
879.15	1748.97
879.32	1769.44
879.48	1708.01
879.65	1703.91
879.81	1673.19
879.98	1656.81
880.15	1667.05
880.31	1767.40
880.48	1595.37
880.64	1742.82
880.81	1685.48
880.97	1794.02
881.14	1757.16
881.31	1654.76
881.47	1812.45
881.64	1726.44
881.80	1673.19
881.97	1751.01
882.13	1755.11
882.30	1650.66
882.47	1632.23
882.63	1619.94
882.80	1615.85
882.96	1660.90
883.13	1791.97
883.29	1800.16
883.46	1730.53
883.62	1791.97
883.79	1708.01
883.95	1691.62
884.12	1714.15
884.29	1732.58
884.45	1701.86
884.62	1763.30
884.78	1640.42
884.95	1802.21
885.11	1683.43
885.28	1703.91
885.44	1677.29
885.61	1685.48
885.77	1757.16
885.94	1746.92
886.10	1699.81
886.27	1724.39
886.43	1751.01
886.60	1773.54
886.76	1677.29
886.93	1634.28
887.09	1646.57
887.26	1605.61
887.42	1650.66
887.59	1748.97
887.75	1855.46
887.92	1746.92
888.08	1697.77
888.25	1794.02
888.41	1748.97
888.58	1652.71
888.74	1640.42
888.91	1665.00
>>>>>End Processed Spectral Data<<<<<
