SpectraSuite Data File
++++++++++++++++++++++++++++++++++++
Date: Mon Jun 06 16:13:57 CEST 2016
User: root
Dark Spectrum Present: No
Reference Spectrum Present: No
Number of Sampled Component Spectra: 1
Spectrometers: USB4C02835
Integration Time (usec): 100000 (USB4C02835)
Spectra Averaged: 1 (USB4C02835)
Boxcar Smoothing: 0 (USB4C02835)
Correct for Electrical Dark: No (USB4C02835)
Strobe/Lamp Enabled: No (USB4C02835)
Correct for Detector Non-linearity: No (USB4C02835)
Correct for Stray Light: No (USB4C02835)
Number of Pixels in Processed Spectrum: 3648
>>>>>Begin Processed Spectral Data<<<<<
177.47	1509.35
177.69	1509.35
177.91	1509.35
178.13	1525.74
178.36	1492.97
178.58	1599.46
178.80	1732.58
179.02	1718.25
179.24	1697.77
179.46	1708.01
179.68	1773.54
179.90	1689.57
180.13	1738.73
180.35	1753.06
180.57	1660.90
180.79	1703.91
181.01	1794.02
181.23	1777.64
181.45	1732.58
181.67	1775.59
181.90	1732.58
182.12	1708.01
182.34	1619.94
182.56	1751.01
182.78	1681.38
183.00	1697.77
183.22	1728.49
183.44	1632.23
183.66	1834.98
183.89	1798.12
184.11	1736.68
184.33	1724.39
184.55	1695.72
184.77	1763.30
184.99	1691.62
185.21	1755.11
185.43	1834.98
185.65	1691.62
185.87	1708.01
186.10	1755.11
186.32	1851.36
186.54	1710.05
186.76	1708.01
186.98	1785.83
187.20	1650.66
187.42	1736.68
187.64	1714.15
187.86	1677.29
188.08	1779.68
188.30	1640.42
188.52	1748.97
188.75	1753.06
188.97	1816.55
189.19	1650.66
189.41	1753.06
189.63	1710.05
189.85	1734.63
190.07	1636.33
190.29	1624.04
190.51	1746.92
190.73	1640.42
190.95	1763.30
191.17	1675.24
191.39	1554.41
191.61	1689.57
191.84	1726.44
192.06	1783.78
192.28	1683.43
192.50	1890.28
192.72	1746.92
192.94	1699.81
193.16	1769.44
193.38	1708.01
193.60	1779.68
193.82	1714.15
194.04	1765.35
194.26	1751.01
194.48	1691.62
194.70	1722.34
194.92	1726.44
195.14	1816.55
195.36	1753.06
195.58	1718.25
195.80	1716.20
196.02	1656.81
196.24	1746.92
196.46	1753.06
196.69	1753.06
196.91	1877.99
197.13	1794.02
197.35	1636.33
197.57	1806.31
197.79	1697.77
198.01	1748.97
198.23	1697.77
198.45	1718.25
198.67	1583.08
198.89	1705.96
199.11	1746.92
199.33	1701.86
199.55	1605.61
199.77	1691.62
199.99	1794.02
200.21	1712.10
200.43	1738.73
200.65	1652.71
200.87	1562.60
201.09	1734.63
201.31	1652.71
201.53	1730.53
201.75	1759.21
201.97	1771.49
202.19	1642.47
202.41	1763.30
202.63	1861.60
202.85	1705.96
203.07	1710.05
203.29	1775.59
203.51	1685.48
203.73	1658.85
203.95	1918.95
204.17	1740.77
204.39	1728.49
204.61	1689.57
204.83	1619.94
205.05	1751.01
205.27	1730.53
205.49	1841.12
205.71	1738.73
205.93	1570.79
206.15	1738.73
206.37	1730.53
206.59	1677.29
206.81	1646.57
207.03	1656.81
207.25	1683.43
207.47	1791.97
207.69	1665.00
207.91	1806.31
208.13	1751.01
208.34	1716.20
208.56	1644.52
208.78	1761.25
209.00	1648.61
209.22	1763.30
209.44	1726.44
209.66	1738.73
209.88	1710.05
210.10	1701.86
210.32	1710.05
210.54	1824.74
210.76	1689.57
210.98	1763.30
211.20	1599.46
211.42	1751.01
211.64	1746.92
211.86	1732.58
212.08	1708.01
212.30	1732.58
212.52	1708.01
212.74	1785.83
212.96	1716.20
213.17	1751.01
213.39	1789.92
213.61	1712.10
213.83	1705.96
214.05	1687.53
214.27	1822.69
214.49	1642.47
214.71	1693.67
214.93	1732.58
215.15	1761.25
215.37	1787.88
215.59	1677.29
215.81	1724.39
216.03	1775.59
216.24	1783.78
216.46	1646.57
216.68	1732.58
216.90	1759.21
217.12	1689.57
217.34	1716.20
217.56	1673.19
217.78	1732.58
218.00	1705.96
218.22	1728.49
218.44	1779.68
218.66	1681.38
218.87	1830.88
219.09	1644.52
219.31	1775.59
219.53	1763.30
219.75	1691.62
219.97	1683.43
220.19	1662.95
220.41	1679.33
220.63	1789.92
220.85	1804.26
221.06	1656.81
221.28	1755.11
221.50	1722.34
221.72	1679.33
221.94	1738.73
222.16	1673.19
222.38	1812.45
222.60	1814.50
222.82	1732.58
223.03	1751.01
223.25	1654.76
223.47	1695.72
223.69	1783.78
223.91	1734.63
224.13	1665.00
224.35	1683.43
224.57	1751.01
224.78	1689.57
225.00	1662.95
225.22	1679.33
225.44	1683.43
225.66	1753.06
225.88	1671.14
226.10	1816.55
226.32	1738.73
226.53	1757.16
226.75	1617.90
226.97	1701.86
227.19	1705.96
227.41	1681.38
227.63	1654.76
227.85	1607.66
228.06	1726.44
228.28	1708.01
228.50	1800.16
228.72	1683.43
228.94	1722.34
229.16	1603.56
229.37	1621.99
229.59	1624.04
229.81	1775.59
230.03	1718.25
230.25	1603.56
230.47	1675.24
230.69	1619.94
230.90	1697.77
231.12	1675.24
231.34	1765.35
231.56	1738.73
231.78	1685.48
232.00	1701.86
232.21	1746.92
232.43	1673.19
232.65	1634.28
232.87	1726.44
233.09	1712.10
233.30	1689.57
233.52	1763.30
233.74	1683.43
233.96	1687.53
234.18	1716.20
234.40	1669.09
234.61	1800.16
234.83	1578.98
235.05	1658.85
235.27	1900.52
235.49	1783.78
235.70	1695.72
235.92	1787.88
236.14	1757.16
236.36	1798.12
236.58	1630.18
236.79	1773.54
237.01	1720.29
237.23	1656.81
237.45	1845.22
237.67	1695.72
237.88	1662.95
238.10	1851.36
238.32	1656.81
238.54	1701.86
238.76	1636.33
238.97	1689.57
239.19	1689.57
239.41	1757.16
239.63	1769.44
239.85	1667.05
240.06	1656.81
240.28	1697.77
240.50	1767.40
240.72	1716.20
240.93	1703.91
241.15	1779.68
241.37	1669.09
241.59	1781.73
241.81	1677.29
242.02	1660.90
242.24	1746.92
242.46	1742.82
242.68	1691.62
242.89	1761.25
243.11	1671.14
243.33	1734.63
243.55	1779.68
243.76	1759.21
243.98	1601.51
244.20	1748.97
244.42	1720.29
244.64	1683.43
244.85	1662.95
245.07	1638.38
245.29	1650.66
245.51	1705.96
245.72	1773.54
245.94	1705.96
246.16	1730.53
246.38	1748.97
246.59	1654.76
246.81	1695.72
247.03	1669.09
247.24	1642.47
247.46	1581.03
247.68	1734.63
247.90	1714.15
248.11	1626.09
248.33	1779.68
248.55	1621.99
248.77	1697.77
248.98	1783.78
249.20	1820.64
249.42	1748.97
249.64	1705.96
249.85	1658.85
250.07	1615.85
250.29	1710.05
250.50	1818.60
250.72	1601.51
250.94	1742.82
251.16	1806.31
251.37	1781.73
251.59	1757.16
251.81	1703.91
252.02	1802.21
252.24	1685.48
252.46	1800.16
252.68	1710.05
252.89	1726.44
253.11	1572.84
253.33	1796.07
253.54	1763.30
253.76	1679.33
253.98	1669.09
254.20	1722.34
254.41	1621.99
254.63	1642.47
254.85	1617.90
255.06	1720.29
255.28	1718.25
255.50	1728.49
255.71	1667.05
255.93	1662.95
256.15	1755.11
256.36	1683.43
256.58	1763.30
256.80	1775.59
257.02	1669.09
257.23	1771.49
257.45	1726.44
257.67	1763.30
257.88	1619.94
258.10	1718.25
258.32	1652.71
258.53	1662.95
258.75	1771.49
258.97	1681.38
259.18	1718.25
259.40	1765.35
259.62	1828.84
259.83	1800.16
260.05	1730.53
260.27	2015.20
260.48	1740.77
260.70	1671.14
260.92	1757.16
261.13	1748.97
261.35	1751.01
261.57	1710.05
261.78	1632.23
262.00	1673.19
262.22	1732.58
262.43	1687.53
262.65	1685.48
262.86	1763.30
263.08	1888.23
263.30	1695.72
263.51	1578.98
263.73	1701.86
263.95	1798.12
264.16	1724.39
264.38	1624.04
264.60	1703.91
264.81	1691.62
265.03	1718.25
265.25	1736.68
265.46	1701.86
265.68	1746.92
265.89	1730.53
266.11	1611.75
266.33	1787.88
266.54	1734.63
266.76	1832.93
266.98	1732.58
267.19	1763.30
267.41	1759.21
267.62	1781.73
267.84	1695.72
268.06	1660.90
268.27	1718.25
268.49	1769.44
268.70	1853.41
268.92	1611.75
269.14	1714.15
269.35	1578.98
269.57	1693.67
269.79	1808.36
270.00	1720.29
270.22	1843.17
270.43	1630.18
270.65	1628.14
270.87	1642.47
271.08	1841.12
271.30	1794.02
271.51	1705.96
271.73	1742.82
271.95	1800.16
272.16	1779.68
272.38	1746.92
272.59	1701.86
272.81	1785.83
273.02	1755.11
273.24	1742.82
273.46	1695.72
273.67	1738.73
273.89	1665.00
274.10	1705.96
274.32	1791.97
274.54	1728.49
274.75	1861.60
274.97	1740.77
275.18	1734.63
275.40	1818.60
275.61	1689.57
275.83	1757.16
276.05	1654.76
276.26	1701.86
276.48	1773.54
276.69	1687.53
276.91	1697.77
277.12	1853.41
277.34	1767.40
277.55	1763.30
277.77	1734.63
277.99	1658.85
278.20	1605.61
278.42	1587.18
278.63	1667.05
278.85	1673.19
279.06	1570.79
279.28	1714.15
279.49	1720.29
279.71	1767.40
279.93	1767.40
280.14	1732.58
280.36	1675.24
280.57	1728.49
280.79	1761.25
281.00	1714.15
281.22	1667.05
281.43	1769.44
281.65	1552.36
281.86	1656.81
282.08	1742.82
282.29	1779.68
282.51	1687.53
282.73	1638.38
282.94	1628.14
283.16	1736.68
283.37	1898.47
283.59	1714.15
283.80	1730.53
284.02	1695.72
284.23	1791.97
284.45	1667.05
284.66	1699.81
284.88	1675.24
285.09	1759.21
285.31	1738.73
285.52	1656.81
285.74	1654.76
285.95	1804.26
286.17	1628.14
286.38	1718.25
286.60	1779.68
286.81	1650.66
287.03	1656.81
287.24	1703.91
287.46	1843.17
287.67	1656.81
287.89	1777.64
288.10	1658.85
288.32	1716.20
288.53	1742.82
288.75	1691.62
288.96	1722.34
289.18	1693.67
289.39	1699.81
289.61	1734.63
289.82	1810.40
290.04	1837.03
290.25	1654.76
290.47	1728.49
290.68	1726.44
290.90	1832.93
291.11	1699.81
291.33	1757.16
291.54	1677.29
291.76	1697.77
291.97	1763.30
292.18	1748.97
292.40	1691.62
292.61	1744.87
292.83	1796.07
293.04	1728.49
293.26	1697.77
293.47	1773.54
293.69	1644.52
293.90	1722.34
294.12	1791.97
294.33	1724.39
294.55	1701.86
294.76	1746.92
294.97	1843.17
295.19	1849.32
295.40	1632.23
295.62	1744.87
295.83	1744.87
296.05	1724.39
296.26	1728.49
296.48	1726.44
296.69	1669.09
296.90	1740.77
297.12	1748.97
297.33	1777.64
297.55	1744.87
297.76	1740.77
297.98	1773.54
298.19	1667.05
298.41	1767.40
298.62	1714.15
298.83	1886.18
299.05	1773.54
299.26	1742.82
299.48	1642.47
299.69	1759.21
299.90	1763.30
300.12	1708.01
300.33	1798.12
300.55	1681.38
300.76	1671.14
300.98	1648.61
301.19	1708.01
301.40	1726.44
301.62	1705.96
301.83	1714.15
302.05	1695.72
302.26	1771.49
302.47	1712.10
302.69	1677.29
302.90	1654.76
303.12	1660.90
303.33	1839.08
303.54	1781.73
303.76	1677.29
303.97	1734.63
304.19	1812.45
304.40	1656.81
304.61	1744.87
304.83	1763.30
305.04	1757.16
305.26	1812.45
305.47	1632.23
305.68	1714.15
305.90	1644.52
306.11	1779.68
306.33	1685.48
306.54	1679.33
306.75	1746.92
306.97	1681.38
307.18	1632.23
307.39	1613.80
307.61	1771.49
307.82	1658.85
308.04	1683.43
308.25	1685.48
308.46	1716.20
308.68	1734.63
308.89	1839.08
309.10	1816.55
309.32	1712.10
309.53	1714.15
309.74	1736.68
309.96	1648.61
310.17	1767.40
310.39	1732.58
310.60	1730.53
310.81	1779.68
311.03	1665.00
311.24	1716.20
311.45	1640.42
311.67	1812.45
311.88	1716.20
312.09	1656.81
312.31	1732.58
312.52	1640.42
312.73	1724.39
312.95	1669.09
313.16	1642.47
313.37	1761.25
313.59	1724.39
313.80	1785.83
314.01	1802.21
314.23	1621.99
314.44	1697.77
314.65	1695.72
314.87	1738.73
315.08	1650.66
315.29	1712.10
315.51	1642.47
315.72	1695.72
315.93	1839.08
316.15	1781.73
316.36	1689.57
316.57	1722.34
316.79	1734.63
317.00	1697.77
317.21	1720.29
317.43	1697.77
317.64	1669.09
317.85	1660.90
318.07	1720.29
318.28	1705.96
318.49	1789.92
318.70	1910.75
318.92	1802.21
319.13	1751.01
319.34	1941.47
319.56	1669.09
319.77	1834.98
319.98	1798.12
320.20	1806.31
320.41	1763.30
320.62	1771.49
320.83	1681.38
321.05	1927.14
321.26	1718.25
321.47	1724.39
321.69	1761.25
321.90	1626.09
322.11	1720.29
322.32	1671.14
322.54	1812.45
322.75	1646.57
322.96	1828.84
323.18	1607.66
323.39	1611.75
323.60	1640.42
323.81	1849.32
324.03	1675.24
324.24	1722.34
324.45	1800.16
324.66	1718.25
324.88	1658.85
325.09	1841.12
325.30	1679.33
325.52	1724.39
325.73	1771.49
325.94	1734.63
326.15	1701.86
326.37	1681.38
326.58	1742.82
326.79	1724.39
327.00	1705.96
327.22	1699.81
327.43	1695.72
327.64	1630.18
327.85	1794.02
328.07	1763.30
328.28	1826.79
328.49	1730.53
328.70	1748.97
328.92	1738.73
329.13	1720.29
329.34	1761.25
329.55	1800.16
329.76	1652.71
329.98	1705.96
330.19	1738.73
330.40	1744.87
330.61	1740.77
330.83	1675.24
331.04	1640.42
331.25	1728.49
331.46	1669.09
331.68	1705.96
331.89	1808.36
332.10	1673.19
332.31	1677.29
332.52	1634.28
332.74	1751.01
332.95	1701.86
333.16	1732.58
333.37	1787.88
333.58	1705.96
333.80	1673.19
334.01	1656.81
334.22	1683.43
334.43	1732.58
334.64	1697.77
334.86	1638.38
335.07	1656.81
335.28	1718.25
335.49	1636.33
335.70	1775.59
335.92	1785.83
336.13	1847.27
336.34	1757.16
336.55	1695.72
336.76	1757.16
336.98	1587.18
337.19	1671.14
337.40	1820.64
337.61	1834.98
337.82	1619.94
338.04	1761.25
338.25	1667.05
338.46	1685.48
338.67	1724.39
338.88	1638.38
339.09	1656.81
339.31	1689.57
339.52	1642.47
339.73	1656.81
339.94	1791.97
340.15	1746.92
340.36	1802.21
340.58	1755.11
340.79	1658.85
341.00	1748.97
341.21	1681.38
341.42	1828.84
341.63	1644.52
341.85	1722.34
342.06	1705.96
342.27	1714.15
342.48	1773.54
342.69	1648.61
342.90	1738.73
343.12	1732.58
343.33	1691.62
343.54	1761.25
343.75	1767.40
343.96	1660.90
344.17	1687.53
344.38	1714.15
344.60	1665.00
344.81	1728.49
345.02	1673.19
345.23	1832.93
345.44	1834.98
345.65	1738.73
345.86	1740.77
346.07	1767.40
346.29	1691.62
346.50	1708.01
346.71	1789.92
346.92	1771.49
347.13	1834.98
347.34	1740.77
347.55	1746.92
347.76	1740.77
347.98	1615.85
348.19	1650.66
348.40	1769.44
348.61	1662.95
348.82	1802.21
349.03	1699.81
349.24	1693.67
349.45	1800.16
349.66	1595.37
349.88	1703.91
350.09	1654.76
350.30	1798.12
350.51	1787.88
350.72	1658.85
350.93	1650.66
351.14	1781.73
351.35	1712.10
351.56	1724.39
351.77	1708.01
351.99	1734.63
352.20	1769.44
352.41	1832.93
352.62	1562.60
352.83	1736.68
353.04	1748.97
353.25	1665.00
353.46	1761.25
353.67	1712.10
353.88	1535.98
354.09	1695.72
354.30	1755.11
354.52	1724.39
354.73	1685.48
354.94	1695.72
355.15	1650.66
355.36	1810.40
355.57	1755.11
355.78	1761.25
355.99	1644.52
356.20	1710.05
356.41	1701.86
356.62	1656.81
356.83	1691.62
357.04	1794.02
357.25	1679.33
357.46	1755.11
357.68	1601.51
357.89	1681.38
358.10	1716.20
358.31	1699.81
358.52	1783.78
358.73	1646.57
358.94	1681.38
359.15	1679.33
359.36	1771.49
359.57	1720.29
359.78	1675.24
359.99	1716.20
360.20	1757.16
360.41	1712.10
360.62	1740.77
360.83	1789.92
361.04	1691.62
361.25	1775.59
361.46	1783.78
361.67	1730.53
361.88	1703.91
362.09	1736.68
362.30	1673.19
362.51	1710.05
362.72	1751.01
362.93	1775.59
363.14	1761.25
363.35	1691.62
363.56	1640.42
363.78	1753.06
363.99	1791.97
364.20	1642.47
364.41	1761.25
364.62	1775.59
364.83	1708.01
365.04	1685.48
365.25	1738.73
365.46	1841.12
365.67	1632.23
365.88	1624.04
366.09	1679.33
366.30	1746.92
366.51	1708.01
366.72	1687.53
366.93	1765.35
367.14	1775.59
367.35	1812.45
367.56	1748.97
367.77	1820.64
367.98	1761.25
368.18	1681.38
368.39	1669.09
368.60	1724.39
368.81	1726.44
369.02	1634.28
369.23	1689.57
369.44	1636.33
369.65	1703.91
369.86	1755.11
370.07	1787.88
370.28	1619.94
370.49	1689.57
370.70	1818.60
370.91	1624.04
371.12	1589.22
371.33	1796.07
371.54	1730.53
371.75	1712.10
371.96	1558.50
372.17	1685.48
372.38	1755.11
372.59	1755.11
372.80	1685.48
373.01	1718.25
373.22	1732.58
373.43	1701.86
373.64	1677.29
373.85	1873.89
374.06	1775.59
374.26	1728.49
374.47	1738.73
374.68	1759.21
374.89	1726.44
375.10	1691.62
375.31	1736.68
375.52	1714.15
375.73	1689.57
375.94	1660.90
376.15	1877.99
376.36	1681.38
376.57	1660.90
376.78	1685.48
376.99	1746.92
377.20	1771.49
377.40	1705.96
377.61	1796.07
377.82	1605.61
378.03	1828.84
378.24	1730.53
378.45	1751.01
378.66	1703.91
378.87	1640.42
379.08	1667.05
379.29	1689.57
379.50	1726.44
379.71	1701.86
379.91	1755.11
380.12	1753.06
380.33	1855.46
380.54	1732.58
380.75	1738.73
380.96	1683.43
381.17	1789.92
381.38	1740.77
381.59	1742.82
381.80	1757.16
382.00	1888.23
382.21	1742.82
382.42	1892.32
382.63	1841.12
382.84	1634.28
383.05	1789.92
383.26	1816.55
383.47	1708.01
383.68	1765.35
383.88	1722.34
384.09	1728.49
384.30	1875.94
384.51	1732.58
384.72	1599.46
384.93	1621.99
385.14	1701.86
385.35	1771.49
385.55	1583.08
385.76	1855.46
385.97	1701.86
386.18	1646.57
386.39	1701.86
386.60	1742.82
386.81	1675.24
387.02	1638.38
387.22	1634.28
387.43	1773.54
387.64	1865.70
387.85	1935.33
388.06	2193.37
388.27	4097.99
388.48	6557.60
388.68	7989.13
388.89	9164.66
389.10	9484.14
389.31	8195.97
389.52	7468.94
389.73	6657.95
389.93	6033.32
390.14	5734.31
390.35	5044.15
390.56	4419.52
390.77	3645.38
390.98	3047.38
391.18	2430.94
391.39	2033.63
391.60	1869.80
391.81	1832.93
392.02	1773.54
392.23	1843.17
392.43	1794.02
392.64	1873.89
392.85	1714.15
393.06	1789.92
393.27	1755.11
393.47	1665.00
393.68	1730.53
393.89	1718.25
394.10	1755.11
394.31	1626.09
394.52	1624.04
394.72	1634.28
394.93	1812.45
395.14	1644.52
395.35	1730.53
395.56	1671.14
395.76	1734.63
395.97	1771.49
396.18	1861.60
396.39	1779.68
396.60	2031.58
396.80	1955.81
397.01	1818.60
397.22	1847.27
397.43	1841.12
397.64	1789.92
397.84	1736.68
398.05	1818.60
398.26	1763.30
398.47	1867.75
398.67	1794.02
398.88	1697.77
399.09	1777.64
399.30	1761.25
399.51	1812.45
399.71	1656.81
399.92	1687.53
400.13	1712.10
400.34	1722.34
400.54	1720.29
400.75	1851.36
400.96	1710.05
401.17	1898.47
401.37	1710.05
401.58	1736.68
401.79	1724.39
402.00	1863.65
402.21	2066.40
402.41	2004.96
402.62	1998.82
402.83	2072.54
403.04	1947.62
403.24	2072.54
403.45	1880.04
403.66	1978.34
403.87	1912.80
404.07	1851.36
404.28	1855.46
404.49	1904.61
404.70	1722.34
404.90	1804.26
405.11	1755.11
405.32	1675.24
405.52	1679.33
405.73	1718.25
405.94	1695.72
406.15	1722.34
406.35	1814.50
406.56	1763.30
406.77	1660.90
406.98	1763.30
407.18	1712.10
407.39	1779.68
407.60	1722.34
407.80	1763.30
408.01	1693.67
408.22	1720.29
408.43	1648.61
408.63	1724.39
408.84	1720.29
409.05	1775.59
409.25	1710.05
409.46	1771.49
409.67	1742.82
409.88	1648.61
410.08	1658.85
410.29	1695.72
410.50	1759.21
410.70	1773.54
410.91	1705.96
411.12	1712.10
411.32	1740.77
411.53	1667.05
411.74	1785.83
411.95	1757.16
412.15	1802.21
412.36	1791.97
412.57	1751.01
412.77	1845.22
412.98	1726.44
413.19	1630.18
413.39	1722.34
413.60	1828.84
413.81	1794.02
414.01	1679.33
414.22	1636.33
414.43	1751.01
414.63	1646.57
414.84	1736.68
415.05	1732.58
415.25	1634.28
415.46	1748.97
415.67	1748.97
415.87	1720.29
416.08	1804.26
416.29	1789.92
416.49	1691.62
416.70	1722.34
416.91	1703.91
417.11	1646.57
417.32	1775.59
417.53	1812.45
417.73	1720.29
417.94	1751.01
418.15	1757.16
418.35	1734.63
418.56	1730.53
418.77	1822.69
418.97	1775.59
419.18	1669.09
419.38	1617.90
419.59	1689.57
419.80	1826.79
420.00	1722.34
420.21	1763.30
420.42	1781.73
420.62	1714.15
420.83	1724.39
421.04	1673.19
421.24	1748.97
421.45	1728.49
421.65	1751.01
421.86	1718.25
422.07	1753.06
422.27	1687.53
422.48	1679.33
422.69	1695.72
422.89	1656.81
423.10	1697.77
423.30	1652.71
423.51	1763.30
423.72	1722.34
423.92	1763.30
424.13	1654.76
424.33	1693.67
424.54	1808.36
424.75	1779.68
424.95	1787.88
425.16	1724.39
425.36	1765.35
425.57	1841.12
425.78	1722.34
425.98	1765.35
426.19	1722.34
426.39	1667.05
426.60	1697.77
426.81	1804.26
427.01	1738.73
427.22	1687.53
427.42	1638.38
427.63	1714.15
427.83	1755.11
428.04	1841.12
428.25	1722.34
428.45	1806.31
428.66	1763.30
428.86	1779.68
429.07	1789.92
429.28	1708.01
429.48	1677.29
429.69	1654.76
429.89	1769.44
430.10	1644.52
430.30	1775.59
430.51	1804.26
430.71	1724.39
430.92	1730.53
431.13	1703.91
431.33	1738.73
431.54	1751.01
431.74	1814.50
431.95	1767.40
432.15	1642.47
432.36	1724.39
432.56	1759.21
432.77	1828.84
432.98	1822.69
433.18	1748.97
433.39	1775.59
433.59	1703.91
433.80	1796.07
434.00	1867.75
434.21	1701.86
434.41	1705.96
434.62	1888.23
434.82	1697.77
435.03	1671.14
435.23	1722.34
435.44	1589.22
435.64	1708.01
435.85	1775.59
436.06	1701.86
436.26	1726.44
436.47	1708.01
436.67	1665.00
436.88	1800.16
437.08	1791.97
437.29	1716.20
437.49	1734.63
437.70	1796.07
437.90	1734.63
438.11	1918.95
438.31	1763.30
438.52	1933.28
438.72	1814.50
438.93	1906.66
439.13	1822.69
439.34	1796.07
439.54	1738.73
439.75	1748.97
439.95	1814.50
440.16	1716.20
440.36	1767.40
440.57	1755.11
440.77	1718.25
440.98	1748.97
441.18	1765.35
441.39	1726.44
441.59	1685.48
441.80	1845.22
442.00	1638.38
442.21	1796.07
442.41	1681.38
442.62	1724.39
442.82	1787.88
443.02	1763.30
443.23	1781.73
443.43	1763.30
443.64	1818.60
443.84	1759.21
444.05	1755.11
444.25	1718.25
444.46	1728.49
444.66	1744.87
444.87	1796.07
445.07	1628.14
445.28	1693.67
445.48	1867.75
445.69	1714.15
445.89	1871.84
446.09	1845.22
446.30	2015.20
446.50	2621.40
446.71	3690.44
446.91	4239.30
447.12	4710.33
447.32	4745.14
447.53	4196.29
447.73	3870.66
447.93	3506.12
448.14	3182.54
448.34	3098.58
448.55	2820.05
448.75	2863.06
448.96	2613.21
449.16	2410.46
449.36	2187.23
449.57	2027.49
449.77	1920.99
449.98	1785.83
450.18	1775.59
450.39	1828.84
450.59	1757.16
450.79	1796.07
451.00	1705.96
451.20	1771.49
451.41	1755.11
451.61	1736.68
451.81	1710.05
452.02	1734.63
452.22	1746.92
452.43	1716.20
452.63	1787.88
452.84	1783.78
453.04	1685.48
453.24	1806.31
453.45	1714.15
453.65	1767.40
453.86	1718.25
454.06	1822.69
454.26	1736.68
454.47	1693.67
454.67	1832.93
454.87	1800.16
455.08	1738.73
455.28	1796.07
455.49	1804.26
455.69	1705.96
455.89	1830.88
456.10	1843.17
456.30	1806.31
456.51	1818.60
456.71	1763.30
456.91	1771.49
457.12	1740.77
457.32	1794.02
457.52	1685.48
457.73	1701.86
457.93	1802.21
458.14	1703.91
458.34	1722.34
458.54	1701.86
458.75	1759.21
458.95	1773.54
459.15	1800.16
459.36	1736.68
459.56	1796.07
459.76	1970.15
459.97	1812.45
460.17	1722.34
460.37	1789.92
460.58	1804.26
460.78	1769.44
460.99	1679.33
461.19	1740.77
461.39	1800.16
461.60	1742.82
461.80	1730.53
462.00	1730.53
462.21	1701.86
462.41	1734.63
462.61	1689.57
462.82	1677.29
463.02	1767.40
463.22	1787.88
463.43	1849.32
463.63	1761.25
463.83	1783.78
464.04	1654.76
464.24	1650.66
464.44	1689.57
464.64	1775.59
464.85	1761.25
465.05	1806.31
465.25	1701.86
465.46	1755.11
465.66	1742.82
465.86	1695.72
466.07	1691.62
466.27	1701.86
466.47	1648.61
466.68	1652.71
466.88	1851.36
467.08	1787.88
467.29	1779.68
467.49	1746.92
467.69	1695.72
467.89	1761.25
468.10	1701.86
468.30	1748.97
468.50	1851.36
468.71	1802.21
468.91	1714.15
469.11	1779.68
469.31	1681.38
469.52	1669.09
469.72	1814.50
469.92	1923.04
470.13	1755.11
470.33	1728.49
470.53	1816.55
470.73	2031.58
470.94	2242.53
471.14	2357.21
471.34	2609.11
471.54	2389.98
471.75	2207.71
471.95	2148.32
472.15	2078.69
472.36	2060.26
472.56	2164.70
472.76	2078.69
472.96	2090.98
473.17	1939.43
473.37	1937.38
473.57	1779.68
473.77	1886.18
473.98	1789.92
474.18	1730.53
474.38	1959.91
474.58	1617.90
474.79	1691.62
474.99	1804.26
475.19	1740.77
475.39	1632.23
475.60	1667.05
475.80	1738.73
476.00	1755.11
476.20	1757.16
476.41	1751.01
476.61	1837.03
476.81	1726.44
477.01	1673.19
477.21	1863.65
477.42	1837.03
477.62	1757.16
477.82	1820.64
478.02	1687.53
478.23	1877.99
478.43	1701.86
478.63	1800.16
478.83	1722.34
479.03	1714.15
479.24	1785.83
479.44	1775.59
479.64	1722.34
479.84	1603.56
480.04	1736.68
480.25	1701.86
480.45	1687.53
480.65	1744.87
480.85	1845.22
481.06	1665.00
481.26	1869.80
481.46	1789.92
481.66	1693.67
481.86	1652.71
482.06	1796.07
482.27	1685.48
482.47	1705.96
482.67	1730.53
482.87	1730.53
483.07	1855.46
483.28	1708.01
483.48	1640.42
483.68	1681.38
483.88	1759.21
484.08	1652.71
484.29	1656.81
484.49	1705.96
484.69	1718.25
484.89	1843.17
485.09	1820.64
485.29	1751.01
485.50	1748.97
485.70	1689.57
485.90	1830.88
486.10	1779.68
486.30	1779.68
486.50	1822.69
486.71	1728.49
486.91	1845.22
487.11	1791.97
487.31	1599.46
487.51	1781.73
487.71	1667.05
487.91	1726.44
488.12	1697.77
488.32	1642.47
488.52	1693.67
488.72	1570.79
488.92	1738.73
489.12	1726.44
489.32	1843.17
489.53	1816.55
489.73	1632.23
489.93	1812.45
490.13	1689.57
490.33	1730.53
490.53	1757.16
490.73	1738.73
490.94	1654.76
491.14	1781.73
491.34	1888.23
491.54	2142.18
491.74	2586.58
491.94	2932.69
492.14	3000.27
492.34	3010.51
492.54	2832.34
492.75	2539.48
492.95	2478.04
493.15	2387.93
493.35	2363.36
493.55	2150.37
493.75	2119.65
493.95	2144.22
494.15	2062.30
494.35	1935.33
494.56	1824.74
494.76	1802.21
494.96	1775.59
495.16	1779.68
495.36	1726.44
495.56	1738.73
495.76	1656.81
495.96	1755.11
496.16	1783.78
496.36	1894.37
496.56	1650.66
496.77	1738.73
496.97	1808.36
497.17	1828.84
497.37	1675.24
497.57	1779.68
497.77	1814.50
497.97	1701.86
498.17	1794.02
498.37	1648.61
498.57	1705.96
498.77	1722.34
498.97	1777.64
499.17	1800.16
499.38	1744.87
499.58	1775.59
499.78	1853.41
499.98	1849.32
500.18	1775.59
500.38	1722.34
500.58	1867.75
500.78	2502.62
500.98	4480.96
501.18	5672.87
501.38	6449.05
501.58	7014.29
501.78	6616.99
501.98	5402.54
502.18	4759.48
502.38	4263.87
502.58	4130.75
502.78	3755.97
502.98	3506.12
503.18	3286.99
503.38	3153.87
503.59	2795.48
503.79	2711.51
503.99	2439.13
504.19	2263.01
504.39	2154.46
504.59	2238.43
504.79	2131.94
504.99	2158.56
505.19	1873.89
505.39	1914.85
505.59	2000.87
505.79	1841.12
505.99	1873.89
506.19	1914.85
506.39	1918.95
506.59	1822.69
506.79	1791.97
506.99	1863.65
507.19	1734.63
507.39	1748.97
507.59	1689.57
507.79	1671.14
507.99	1720.29
508.19	1726.44
508.39	1667.05
508.59	1759.21
508.79	1861.60
508.99	1873.89
509.19	1675.24
509.39	1759.21
509.59	1699.81
509.79	1732.58
509.99	1718.25
510.19	1800.16
510.39	1689.57
510.59	1748.97
510.79	1683.43
510.99	1658.85
511.19	1785.83
511.39	1828.84
511.59	1771.49
511.79	1775.59
511.99	1783.78
512.19	1906.66
512.38	1763.30
512.58	1691.62
512.78	1710.05
512.98	1886.18
513.18	1855.46
513.38	1621.99
513.58	1839.08
513.78	1751.01
513.98	1771.49
514.18	1746.92
514.38	1773.54
514.58	1744.87
514.78	1736.68
514.98	1722.34
515.18	1751.01
515.38	1665.00
515.58	1822.69
515.78	1775.59
515.98	1757.16
516.18	1781.73
516.38	1730.53
516.57	1744.87
516.77	1746.92
516.97	1847.27
517.17	1701.86
517.37	1603.56
517.57	1771.49
517.77	1740.77
517.97	1722.34
518.17	1822.69
518.37	1636.33
518.57	1703.91
518.77	1722.34
518.97	1716.20
519.16	1806.31
519.36	1845.22
519.56	1777.64
519.76	1705.96
519.96	1691.62
520.16	1791.97
520.36	1675.24
520.56	1800.16
520.76	1789.92
520.96	1763.30
521.16	1834.98
521.35	1751.01
521.55	1814.50
521.75	1775.59
521.95	1751.01
522.15	1681.38
522.35	1705.96
522.55	1783.78
522.75	1843.17
522.95	1787.88
523.14	1703.91
523.34	1708.01
523.54	1785.83
523.74	1812.45
523.94	1808.36
524.14	1718.25
524.34	1828.84
524.54	1832.93
524.73	1691.62
524.93	1810.40
525.13	1693.67
525.33	1677.29
525.53	1900.52
525.73	1802.21
525.93	1841.12
526.13	1683.43
526.32	1755.11
526.52	1742.82
526.72	1828.84
526.92	1722.34
527.12	1759.21
527.32	1665.00
527.52	1742.82
527.71	1775.59
527.91	1767.40
528.11	1734.63
528.31	1703.91
528.51	1671.14
528.71	1796.07
528.90	1808.36
529.10	1810.40
529.30	1763.30
529.50	1673.19
529.70	1730.53
529.90	1703.91
530.09	1748.97
530.29	1693.67
530.49	1662.95
530.69	1871.84
530.89	1806.31
531.09	1771.49
531.28	1714.15
531.48	1847.27
531.68	1789.92
531.88	1753.06
532.08	1791.97
532.28	1732.58
532.47	1767.40
532.67	1763.30
532.87	1804.26
533.07	1712.10
533.27	1783.78
533.46	1796.07
533.66	1714.15
533.86	1751.01
534.06	1728.49
534.26	1767.40
534.45	1636.33
534.65	1755.11
534.85	1617.90
535.05	1732.58
535.25	1789.92
535.44	1712.10
535.64	1802.21
535.84	1724.39
536.04	1742.82
536.24	1738.73
536.43	1746.92
536.63	1785.83
536.83	1822.69
537.03	1724.39
537.22	1615.85
537.42	1619.94
537.62	1777.64
537.82	1701.86
538.02	1791.97
538.21	1814.50
538.41	1929.19
538.61	1845.22
538.81	1665.00
539.00	1906.66
539.20	1660.90
539.40	1789.92
539.60	1753.06
539.79	1828.84
539.99	1734.63
540.19	1714.15
540.39	1800.16
540.58	1767.40
540.78	1769.44
540.98	1767.40
541.18	1783.78
541.37	1746.92
541.57	1775.59
541.77	1705.96
541.97	1681.38
542.16	1578.98
542.36	1791.97
542.56	1777.64
542.76	1839.08
542.95	1796.07
543.15	1834.98
543.35	1869.80
543.54	1722.34
543.74	1708.01
543.94	1886.18
544.14	1701.86
544.33	1751.01
544.53	1783.78
544.73	1689.57
544.93	1757.16
545.12	1683.43
545.32	1714.15
545.52	1697.77
545.71	1718.25
545.91	1673.19
546.11	1724.39
546.30	1689.57
546.50	1751.01
546.70	1796.07
546.90	1841.12
547.09	1607.66
547.29	1757.16
547.49	1808.36
547.68	1798.12
547.88	1703.91
548.08	1822.69
548.27	2207.71
548.47	1781.73
548.67	1701.86
548.87	1806.31
549.06	1699.81
549.26	1697.77
549.46	1759.21
549.65	1705.96
549.85	1789.92
550.05	1796.07
550.24	1710.05
550.44	1724.39
550.64	1767.40
550.83	1744.87
551.03	1843.17
551.23	1828.84
551.42	1849.32
551.62	1789.92
551.82	1746.92
552.01	1757.16
552.21	1888.23
552.41	1779.68
552.60	1871.84
552.80	1763.30
553.00	1742.82
553.19	1734.63
553.39	1886.18
553.59	1685.48
553.78	1767.40
553.98	1791.97
554.17	1599.46
554.37	1794.02
554.57	1822.69
554.76	1742.82
554.96	1683.43
555.16	1783.78
555.35	1800.16
555.55	1814.50
555.75	1755.11
555.94	1796.07
556.14	1697.77
556.33	1822.69
556.53	1624.04
556.73	1755.11
556.92	1812.45
557.12	1837.03
557.32	1826.79
557.51	1826.79
557.71	1808.36
557.90	1820.64
558.10	1814.50
558.30	1746.92
558.49	1697.77
558.69	1828.84
558.88	1796.07
559.08	1785.83
559.28	1677.29
559.47	1763.30
559.67	1736.68
559.86	1886.18
560.06	1730.53
560.26	1722.34
560.45	1814.50
560.65	1759.21
560.84	1798.12
561.04	1732.58
561.24	1791.97
561.43	1718.25
561.63	1902.56
561.82	1765.35
562.02	1834.98
562.22	1722.34
562.41	1757.16
562.61	1785.83
562.80	1691.62
563.00	1927.14
563.19	1722.34
563.39	1822.69
563.59	1861.60
563.78	1724.39
563.98	1671.14
564.17	1810.40
564.37	1699.81
564.56	1820.64
564.76	1734.63
564.96	1855.46
565.15	1761.25
565.35	1818.60
565.54	1714.15
565.74	1861.60
565.93	1734.63
566.13	1726.44
566.32	1830.88
566.52	1824.74
566.71	1765.35
566.91	1849.32
567.11	1759.21
567.30	1677.29
567.50	1810.40
567.69	1740.77
567.89	1726.44
568.08	1732.58
568.28	1781.73
568.47	1648.61
568.67	1841.12
568.86	1761.25
569.06	1814.50
569.25	1738.73
569.45	1693.67
569.64	1734.63
569.84	1613.80
570.04	1804.26
570.23	1679.33
570.43	1787.88
570.62	1759.21
570.82	1828.84
571.01	1751.01
571.21	1734.63
571.40	1771.49
571.60	1765.35
571.79	1716.20
571.99	1761.25
572.18	1675.24
572.38	1722.34
572.57	1744.87
572.77	1773.54
572.96	1871.84
573.16	1753.06
573.35	1744.87
573.55	1773.54
573.74	1724.39
573.94	1724.39
574.13	1763.30
574.33	1806.31
574.52	1841.12
574.71	1712.10
574.91	1748.97
575.10	1695.72
575.30	1708.01
575.49	1730.53
575.69	1755.11
575.88	1726.44
576.08	1824.74
576.27	1783.78
576.47	1712.10
576.66	1824.74
576.86	1834.98
577.05	1812.45
577.25	1898.47
577.44	1814.50
577.64	1665.00
577.83	1812.45
578.02	1761.25
578.22	1861.60
578.41	1834.98
578.61	1755.11
578.80	1716.20
579.00	1800.16
579.19	1763.30
579.39	1787.88
579.58	1806.31
579.77	1755.11
579.97	1832.93
580.16	1802.21
580.36	1806.31
580.55	1908.71
580.75	1757.16
580.94	1722.34
581.13	1861.60
581.33	1869.80
581.52	1734.63
581.72	1867.75
581.91	1806.31
582.11	1716.20
582.30	1884.13
582.49	1724.39
582.69	1849.32
582.88	1800.16
583.08	1787.88
583.27	1794.02
583.47	1757.16
583.66	1693.67
583.85	1701.86
584.05	1775.59
584.24	1769.44
584.44	1863.65
584.63	1877.99
584.82	1822.69
585.02	1800.16
585.21	1839.08
585.41	1812.45
585.60	1783.78
585.79	1904.61
585.99	1875.94
586.18	1894.37
586.37	2189.28
586.57	3364.81
586.76	9561.97
586.96	23436.95
587.15	33213.96
587.34	39267.75
587.54	40664.47
587.73	35249.64
587.93	25480.83
588.12	20911.81
588.31	17710.83
588.51	16047.88
588.70	14651.17
588.89	13629.23
589.09	12048.20
589.28	10712.92
589.47	9035.64
589.67	7765.90
589.86	6258.59
590.06	4849.59
590.25	3788.74
590.44	3000.27
590.64	2555.86
590.83	2199.52
591.02	2025.44
591.22	2035.68
591.41	1849.32
591.60	1794.02
591.80	1966.05
591.99	1773.54
592.18	1787.88
592.38	1806.31
592.57	1673.19
592.76	1798.12
592.96	1849.32
593.15	1816.55
593.34	1759.21
593.54	1839.08
593.73	1863.65
593.92	1791.97
594.12	1773.54
594.31	1759.21
594.50	1849.32
594.70	1785.83
594.89	1918.95
595.08	1767.40
595.28	1853.41
595.47	1908.71
595.66	1869.80
595.86	1736.68
596.05	1714.15
596.24	1699.81
596.43	1900.52
596.63	1816.55
596.82	1814.50
597.01	1794.02
597.21	1894.37
597.40	1767.40
597.59	1665.00
597.79	1714.15
597.98	1851.36
598.17	1804.26
598.36	1650.66
598.56	1769.44
598.75	1755.11
598.94	1767.40
599.14	1728.49
599.33	1837.03
599.52	1822.69
599.71	1738.73
599.91	1820.64
600.10	1806.31
600.29	1771.49
600.48	1779.68
600.68	1802.21
600.87	1734.63
601.06	1662.95
601.26	1746.92
601.45	1755.11
601.64	1810.40
601.83	1824.74
602.03	1757.16
602.22	1638.38
602.41	1882.08
602.60	1841.12
602.80	1818.60
602.99	1705.96
603.18	1718.25
603.37	1757.16
603.57	1759.21
603.76	1812.45
603.95	1796.07
604.14	1742.82
604.34	1656.81
604.53	1814.50
604.72	1746.92
604.91	1783.78
605.10	1785.83
605.30	1624.04
605.49	1837.03
605.68	1742.82
605.87	1796.07
606.07	1738.73
606.26	1773.54
606.45	1732.58
606.64	1679.33
606.84	1761.25
607.03	1779.68
607.22	1796.07
607.41	1648.61
607.60	1718.25
607.80	1755.11
607.99	1720.29
608.18	1724.39
608.37	1742.82
608.56	1714.15
608.76	1765.35
608.95	1832.93
609.14	1771.49
609.33	1763.30
609.52	1847.27
609.72	1660.90
609.91	1849.32
610.10	1783.78
610.29	1802.21
610.48	1705.96
610.68	1746.92
610.87	1722.34
611.06	1769.44
611.25	1763.30
611.44	1763.30
611.63	1638.38
611.83	1849.32
612.02	1720.29
612.21	1904.61
612.40	1585.13
612.59	1708.01
612.79	1632.23
612.98	1701.86
613.17	1794.02
613.36	1761.25
613.55	1820.64
613.74	1753.06
613.93	1746.92
614.13	1783.78
614.32	1734.63
614.51	1769.44
614.70	1673.19
614.89	1648.61
615.08	1781.73
615.28	2045.92
615.47	1665.00
615.66	1744.87
615.85	1718.25
616.04	1888.23
616.23	1716.20
616.42	1697.77
616.62	1816.55
616.81	1804.26
617.00	1759.21
617.19	1853.41
617.38	1683.43
617.57	1697.77
617.76	1755.11
617.95	1773.54
618.15	1769.44
618.34	1767.40
618.53	1644.52
618.72	1802.21
618.91	1789.92
619.10	1810.40
619.29	1701.86
619.48	1761.25
619.68	1697.77
619.87	1755.11
620.06	1671.14
620.25	1748.97
620.44	1708.01
620.63	1736.68
620.82	1771.49
621.01	1710.05
621.20	1710.05
621.39	1789.92
621.59	1763.30
621.78	1660.90
621.97	1789.92
622.16	1785.83
622.35	1689.57
622.54	1802.21
622.73	1794.02
622.92	1716.20
623.11	1732.58
623.30	1740.77
623.49	1824.74
623.68	1738.73
623.88	1800.16
624.07	1720.29
624.26	1689.57
624.45	1718.25
624.64	1714.15
624.83	1761.25
625.02	1656.81
625.21	1720.29
625.40	1820.64
625.59	1843.17
625.78	1708.01
625.97	1798.12
626.16	1808.36
626.35	1757.16
626.54	1751.01
626.74	1822.69
626.93	1685.48
627.12	1796.07
627.31	1736.68
627.50	1794.02
627.69	1837.03
627.88	1679.33
628.07	1669.09
628.26	1712.10
628.45	1675.24
628.64	1677.29
628.83	1763.30
629.02	1665.00
629.21	1761.25
629.40	1665.00
629.59	1742.82
629.78	1775.59
629.97	1654.76
630.16	1693.67
630.35	1775.59
630.54	1681.38
630.73	1656.81
630.92	1732.58
631.11	1677.29
631.30	1744.87
631.49	1783.78
631.68	1886.18
631.87	1826.79
632.06	1677.29
632.25	1853.41
632.44	1798.12
632.63	1740.77
632.82	1628.14
633.01	1675.24
633.20	1705.96
633.39	1689.57
633.58	1644.52
633.77	1648.61
633.96	1794.02
634.15	1740.77
634.34	1753.06
634.53	1748.97
634.72	1683.43
634.91	1656.81
635.10	1796.07
635.29	1714.15
635.48	1648.61
635.67	1701.86
635.86	1650.66
636.05	1912.80
636.24	1753.06
636.43	1759.21
636.62	1728.49
636.81	1574.89
637.00	1744.87
637.19	1783.78
637.38	1771.49
637.57	1677.29
637.76	1718.25
637.95	1800.16
638.14	1648.61
638.33	1681.38
638.52	1767.40
638.71	1738.73
638.89	1720.29
639.08	1877.99
639.27	1781.73
639.46	1685.48
639.65	1787.88
639.84	1724.39
640.03	1787.88
640.22	1720.29
640.41	1789.92
640.60	1636.33
640.79	1708.01
640.98	1716.20
641.17	1742.82
641.36	1724.39
641.55	1771.49
641.74	1685.48
641.92	1679.33
642.11	1738.73
642.30	1730.53
642.49	1681.38
642.68	1716.20
642.87	1777.64
643.06	1837.03
643.25	1710.05
643.44	1673.19
643.63	1705.96
643.82	1718.25
644.00	1685.48
644.19	1722.34
644.38	1667.05
644.57	1779.68
644.76	1748.97
644.95	1681.38
645.14	1783.78
645.33	1757.16
645.52	1796.07
645.71	1662.95
645.89	1728.49
646.08	1675.24
646.27	1667.05
646.46	1826.79
646.65	1697.77
646.84	1791.97
647.03	1693.67
647.22	1767.40
647.40	1763.30
647.59	1638.38
647.78	1615.85
647.97	1718.25
648.16	1695.72
648.35	1820.64
648.54	1865.70
648.73	1734.63
648.91	1701.86
649.10	1767.40
649.29	1693.67
649.48	1751.01
649.67	1660.90
649.86	1753.06
650.05	1667.05
650.23	1814.50
650.42	1640.42
650.61	1771.49
650.80	1738.73
650.99	1847.27
651.18	1744.87
651.36	1748.97
651.55	1734.63
651.74	1820.64
651.93	1630.18
652.12	1720.29
652.31	1724.39
652.49	1703.91
652.68	1648.61
652.87	1837.03
653.06	1720.29
653.25	1814.50
653.44	1675.24
653.62	1814.50
653.81	1695.72
654.00	1662.95
654.19	1740.77
654.38	1918.95
654.56	1767.40
654.75	1757.16
654.94	1767.40
655.13	1736.68
655.32	1800.16
655.51	1767.40
655.69	1685.48
655.88	1779.68
656.07	1681.38
656.26	1763.30
656.45	1687.53
656.63	1751.01
656.82	1767.40
657.01	1824.74
657.20	1818.60
657.38	1751.01
657.57	1734.63
657.76	1617.90
657.95	1699.81
658.14	1726.44
658.32	1697.77
658.51	1710.05
658.70	1751.01
658.89	1718.25
659.08	1726.44
659.26	1802.21
659.45	1628.14
659.64	1724.39
659.83	1677.29
660.01	1951.71
660.20	1765.35
660.39	1847.27
660.58	1581.03
660.76	1699.81
660.95	1705.96
661.14	1689.57
661.33	1710.05
661.51	1734.63
661.70	1773.54
661.89	1779.68
662.08	1738.73
662.26	1660.90
662.45	1677.29
662.64	1800.16
662.83	1812.45
663.01	1650.66
663.20	1665.00
663.39	1671.14
663.58	1689.57
663.76	1697.77
663.95	1794.02
664.14	1726.44
664.32	1759.21
664.51	1751.01
664.70	1705.96
664.89	1781.73
665.07	1638.38
665.26	1757.16
665.45	1710.05
665.64	1748.97
665.82	1730.53
666.01	1816.55
666.20	1660.90
666.38	1810.40
666.57	1859.56
666.76	2256.86
666.95	4487.10
667.13	10024.81
667.32	14778.14
667.51	17176.31
667.69	18300.65
667.88	16840.45
668.07	12058.44
668.25	9344.88
668.44	7931.78
668.63	7219.09
668.81	6700.95
669.00	6119.33
669.19	5545.90
669.38	4927.41
669.56	4446.14
669.75	3870.66
669.94	3336.14
670.12	2797.53
670.31	2527.19
670.50	2250.72
670.68	2058.21
670.87	1914.85
671.06	1796.07
671.24	1800.16
671.43	1814.50
671.62	1732.58
671.80	1624.04
671.99	1699.81
672.18	1785.83
672.36	1781.73
672.55	1765.35
672.74	1720.29
672.92	1726.44
673.11	1726.44
673.29	1691.62
673.48	1857.51
673.67	1691.62
673.85	1861.60
674.04	1726.44
674.23	1714.15
674.41	1814.50
674.60	1669.09
674.79	1605.61
674.97	1679.33
675.16	1671.14
675.34	1720.29
675.53	1673.19
675.72	1820.64
675.90	1830.88
676.09	1685.48
676.28	1744.87
676.46	1640.42
676.65	1744.87
676.83	1681.38
677.02	1624.04
677.21	1662.95
677.39	1718.25
677.58	1728.49
677.77	1718.25
677.95	1685.48
678.14	1689.57
678.32	1746.92
678.51	1705.96
678.70	1867.75
678.88	1726.44
679.07	1722.34
679.25	1708.01
679.44	1755.11
679.63	1609.70
679.81	1761.25
680.00	1787.88
680.18	1730.53
680.37	1849.32
680.55	1726.44
680.74	1638.38
680.93	1619.94
681.11	1732.58
681.30	1722.34
681.48	1718.25
681.67	1710.05
681.85	1744.87
682.04	1798.12
682.23	1781.73
682.41	1757.16
682.60	1681.38
682.78	1701.86
682.97	1652.71
683.15	1796.07
683.34	1769.44
683.53	1755.11
683.71	1699.81
683.90	1830.88
684.08	1783.78
684.27	1638.38
684.45	1808.36
684.64	1718.25
684.82	1624.04
685.01	1734.63
685.19	1712.10
685.38	1812.45
685.57	1714.15
685.75	1675.24
685.94	1697.77
686.12	1708.01
686.31	1691.62
686.49	1816.55
686.68	1636.33
686.86	1740.77
687.05	1654.76
687.23	1855.46
687.42	1693.67
687.60	1630.18
687.79	1746.92
687.97	1886.18
688.16	1812.45
688.34	1789.92
688.53	1630.18
688.71	1767.40
688.90	1802.21
689.08	1740.77
689.27	1609.70
689.45	1742.82
689.64	1843.17
689.82	1779.68
690.01	1738.73
690.19	1667.05
690.38	1728.49
690.56	1796.07
690.75	1697.77
690.93	1677.29
691.12	1652.71
691.30	1755.11
691.49	1671.14
691.67	1644.52
691.86	1914.85
692.04	1683.43
692.23	1736.68
692.41	1763.30
692.60	1802.21
692.78	1724.39
692.97	1669.09
693.15	1796.07
693.34	1847.27
693.52	1753.06
693.71	1644.52
693.89	1726.44
694.08	1621.99
694.26	1787.88
694.44	1763.30
694.63	1763.30
694.81	1621.99
695.00	1656.81
695.18	1724.39
695.37	1851.36
695.55	1759.21
695.74	1685.48
695.92	1740.77
696.10	1857.51
696.29	1615.85
696.47	1644.52
696.66	1566.70
696.84	1669.09
697.03	1769.44
697.21	1877.99
697.40	2256.86
697.58	1742.82
697.76	1701.86
697.95	1697.77
698.13	1646.57
698.32	1658.85
698.50	1736.68
698.68	1722.34
698.87	1701.86
699.05	1839.08
699.24	1679.33
699.42	1740.77
699.61	1716.20
699.79	1789.92
699.97	1699.81
700.16	1714.15
700.34	1673.19
700.53	1746.92
700.71	1781.73
700.89	1738.73
701.08	1667.05
701.26	1695.72
701.45	2103.26
701.63	1673.19
701.81	1701.86
702.00	1710.05
702.18	1673.19
702.37	1734.63
702.55	1845.22
702.73	1773.54
702.92	1693.67
703.10	1814.50
703.28	1652.71
703.47	1722.34
703.65	1779.68
703.84	1779.68
704.02	1667.05
704.20	1759.21
704.39	1703.91
704.57	1693.67
704.75	1863.65
704.94	1816.55
705.12	1783.78
705.30	1808.36
705.49	2209.76
705.67	4239.30
705.86	9228.15
706.04	12058.44
706.22	13883.18
706.41	15038.23
706.59	13365.04
706.77	9209.72
706.96	7133.08
707.14	6457.25
707.32	5894.05
707.51	5365.68
707.69	4804.53
707.87	4104.13
708.06	3524.55
708.24	2887.64
708.42	2447.32
708.61	2224.09
708.79	1918.95
708.97	1859.56
709.16	1806.31
709.34	1763.30
709.52	1759.21
709.71	1691.62
709.89	1794.02
710.07	1789.92
710.26	1654.76
710.44	1652.71
710.62	1787.88
710.80	1683.43
710.99	1783.78
711.17	1785.83
711.35	1679.33
711.54	1667.05
711.72	1843.17
711.90	1740.77
712.09	1746.92
712.27	1665.00
712.45	1779.68
712.63	1783.78
712.82	1757.16
713.00	1673.19
713.18	1681.38
713.37	1732.58
713.55	1738.73
713.73	1791.97
713.91	1816.55
714.10	1681.38
714.28	1732.58
714.46	1755.11
714.65	1724.39
714.83	1757.16
715.01	1726.44
715.19	1726.44
715.38	1667.05
715.56	1701.86
715.74	1726.44
715.92	1615.85
716.11	1781.73
716.29	1681.38
716.47	1609.70
716.65	1785.83
716.84	1689.57
717.02	1755.11
717.20	1628.14
717.38	1621.99
717.57	1691.62
717.75	1712.10
717.93	1675.24
718.11	1689.57
718.30	1603.56
718.48	1714.15
718.66	1718.25
718.84	1796.07
719.03	1740.77
719.21	1714.15
719.39	1873.89
719.57	1812.45
719.75	1751.01
719.94	1658.85
720.12	1695.72
720.30	1808.36
720.48	1800.16
720.67	1767.40
720.85	1722.34
721.03	1675.24
721.21	1648.61
721.39	1808.36
721.58	1714.15
721.76	1712.10
721.94	1794.02
722.12	1722.34
722.30	1853.41
722.49	1636.33
722.67	1757.16
722.85	1744.87
723.03	1746.92
723.21	1634.28
723.40	1669.09
723.58	1771.49
723.76	1691.62
723.94	1771.49
724.12	1714.15
724.30	1785.83
724.49	1744.87
724.67	1675.24
724.85	1789.92
725.03	1665.00
725.21	1712.10
725.40	1759.21
725.58	1691.62
725.76	1804.26
725.94	1767.40
726.12	1675.24
726.30	1761.25
726.49	1673.19
726.67	1677.29
726.85	1697.77
727.03	1777.64
727.21	2146.27
727.39	2852.82
727.57	3778.50
727.76	4050.88
727.94	4407.23
728.12	4358.08
728.30	3733.45
728.48	2996.18
728.66	2766.81
728.84	2555.86
729.03	2344.92
729.21	2041.82
729.39	2039.78
729.57	1894.37
729.75	1820.64
729.93	1826.79
730.11	1757.16
730.30	1714.15
730.48	1665.00
730.66	1798.12
730.84	1806.31
731.02	1748.97
731.20	1687.53
731.38	1740.77
731.56	1593.32
731.74	1687.53
731.93	1656.81
732.11	1777.64
732.29	1714.15
732.47	1742.82
732.65	1781.73
732.83	1759.21
733.01	1761.25
733.19	1677.29
733.37	1755.11
733.56	1695.72
733.74	1665.00
733.92	1742.82
734.10	1705.96
734.28	1728.49
734.46	1654.76
734.64	1689.57
734.82	1738.73
735.00	1648.61
735.18	1669.09
735.36	1738.73
735.54	1726.44
735.73	1683.43
735.91	1806.31
736.09	1744.87
736.27	1755.11
736.45	1753.06
736.63	1564.65
736.81	1656.81
736.99	1785.83
737.17	1865.70
737.35	1660.90
737.53	1761.25
737.71	1679.33
737.89	1789.92
738.07	1716.20
738.25	1667.05
738.43	1656.81
738.61	1687.53
738.80	1705.96
738.98	1632.23
739.16	1691.62
739.34	1683.43
739.52	1718.25
739.70	1675.24
739.88	1765.35
740.06	1746.92
740.24	1642.47
740.42	1812.45
740.60	1597.42
740.78	1730.53
740.96	1681.38
741.14	1728.49
741.32	1802.21
741.50	1675.24
741.68	1849.32
741.86	1853.41
742.04	1667.05
742.22	1701.86
742.40	1718.25
742.58	1751.01
742.76	1621.99
742.94	1730.53
743.12	1648.61
743.30	1738.73
743.48	1746.92
743.66	1687.53
743.84	1710.05
744.02	1757.16
744.20	1724.39
744.38	1624.04
744.56	1710.05
744.74	1818.60
744.92	1724.39
745.10	1787.88
745.28	1755.11
745.46	1839.08
745.64	1732.58
745.82	1710.05
746.00	1748.97
746.18	1769.44
746.36	1732.58
746.54	1695.72
746.72	1697.77
746.90	1646.57
747.08	1861.60
747.26	1726.44
747.44	1751.01
747.62	1763.30
747.80	1773.54
747.98	1839.08
748.15	1736.68
748.33	1839.08
748.51	1722.34
748.69	1673.19
748.87	1650.66
749.05	1705.96
749.23	1716.20
749.41	1781.73
749.59	1656.81
749.77	1826.79
749.95	1665.00
750.13	1654.76
750.31	1759.21
750.49	1728.49
750.67	1759.21
750.85	1779.68
751.03	1691.62
751.20	1761.25
751.38	1673.19
751.56	1693.67
751.74	1714.15
751.92	1687.53
752.10	1650.66
752.28	1714.15
752.46	1609.70
752.64	1724.39
752.82	1724.39
753.00	1751.01
753.18	1761.25
753.35	1677.29
753.53	1816.55
753.71	1693.67
753.89	1787.88
754.07	1710.05
754.25	1679.33
754.43	1669.09
754.61	1626.09
754.79	1738.73
754.97	1722.34
755.14	1753.06
755.32	1662.95
755.50	1720.29
755.68	1712.10
755.86	1699.81
756.04	1726.44
756.22	1634.28
756.40	1779.68
756.57	1773.54
756.75	1605.61
756.93	1820.64
757.11	1726.44
757.29	1648.61
757.47	1658.85
757.65	1685.48
757.82	1630.18
758.00	1667.05
758.18	1621.99
758.36	1734.63
758.54	1771.49
758.72	1667.05
758.90	1781.73
759.07	1695.72
759.25	1685.48
759.43	1763.30
759.61	1656.81
759.79	2258.91
759.97	1826.79
760.15	1730.53
760.32	1658.85
760.50	1648.61
760.68	1767.40
760.86	1628.14
761.04	1808.36
761.22	1791.97
761.39	1710.05
761.57	1779.68
761.75	1683.43
761.93	1685.48
762.11	1738.73
762.28	1681.38
762.46	1720.29
762.64	1755.11
762.82	1650.66
763.00	1714.15
763.18	1689.57
763.35	1671.14
763.53	1753.06
763.71	1693.67
763.89	1734.63
764.07	1740.77
764.24	1675.24
764.42	1755.11
764.60	1705.96
764.78	1757.16
764.96	1726.44
765.13	1767.40
765.31	1740.77
765.49	1732.58
765.67	1675.24
765.84	1710.05
766.02	1624.04
766.20	1597.42
766.38	1714.15
766.56	1761.25
766.73	1800.16
766.91	1712.10
767.09	1710.05
767.27	1722.34
767.44	1599.46
767.62	1744.87
767.80	1693.67
767.98	1765.35
768.15	1640.42
768.33	1773.54
768.51	1759.21
768.69	1755.11
768.87	1763.30
769.04	1748.97
769.22	1845.22
769.40	1789.92
769.58	1906.66
769.75	1705.96
769.93	1755.11
770.11	1683.43
770.28	1636.33
770.46	1714.15
770.64	1742.82
770.82	1734.63
770.99	1720.29
771.17	1710.05
771.35	1771.49
771.53	1771.49
771.70	1665.00
771.88	1732.58
772.06	1708.01
772.23	1699.81
772.41	1734.63
772.59	1677.29
772.77	1673.19
772.94	1624.04
773.12	1794.02
773.30	1693.67
773.47	1820.64
773.65	1734.63
773.83	1806.31
774.01	1691.62
774.18	1615.85
774.36	1699.81
774.54	1720.29
774.71	1767.40
774.89	1671.14
775.07	1656.81
775.24	1681.38
775.42	1658.85
775.60	1906.66
775.78	1708.01
775.95	1599.46
776.13	1648.61
776.31	1644.52
776.48	1656.81
776.66	1808.36
776.84	1738.73
777.01	1714.15
777.19	1634.28
777.37	1583.08
777.54	1791.97
777.72	1789.92
777.90	1736.68
778.07	1644.52
778.25	1802.21
778.43	1789.92
778.60	1687.53
778.78	1734.63
778.96	1806.31
779.13	1675.24
779.31	1810.40
779.49	1656.81
779.66	1765.35
779.84	1761.25
780.01	1714.15
780.19	1667.05
780.37	1771.49
780.54	1708.01
780.72	1710.05
780.90	1710.05
781.07	1669.09
781.25	1691.62
781.43	1798.12
781.60	1738.73
781.78	1812.45
781.95	1669.09
782.13	1683.43
782.31	1732.58
782.48	1648.61
782.66	1757.16
782.83	1867.75
783.01	1697.77
783.19	1759.21
783.36	1683.43
783.54	1650.66
783.72	1718.25
783.89	1691.62
784.07	1804.26
784.24	1714.15
784.42	1748.97
784.60	1748.97
784.77	1714.15
784.95	1630.18
785.12	1669.09
785.30	1738.73
785.47	1679.33
785.65	1642.47
785.83	1718.25
786.00	1757.16
786.18	1732.58
786.35	1705.96
786.53	1683.43
786.71	1787.88
786.88	1732.58
787.06	1773.54
787.23	1724.39
787.41	1632.23
787.58	1673.19
787.76	1646.57
787.94	1765.35
788.11	1738.73
788.29	1714.15
788.46	1679.33
788.64	1619.94
788.81	1740.77
788.99	1667.05
789.16	1677.29
789.34	1640.42
789.52	1697.77
789.69	1621.99
789.87	1591.27
790.04	1685.48
790.22	1724.39
790.39	1857.51
790.57	1650.66
790.74	1693.67
790.92	1775.59
791.09	1632.23
791.27	1718.25
791.44	1781.73
791.62	1726.44
791.79	1685.48
791.97	1740.77
792.15	1880.04
792.32	1775.59
792.50	1732.58
792.67	1800.16
792.85	1822.69
793.02	1703.91
793.20	1650.66
793.37	1662.95
793.55	1785.83
793.72	1669.09
793.90	1689.57
794.07	1675.24
794.25	1773.54
794.42	1683.43
794.60	1736.68
794.77	1726.44
794.95	1720.29
795.12	1718.25
795.30	1677.29
795.47	1576.94
795.65	1843.17
795.82	1755.11
796.00	1642.47
796.17	1701.86
796.34	1656.81
796.52	1730.53
796.69	1822.69
796.87	1806.31
797.04	1681.38
797.22	1775.59
797.39	1652.71
797.57	1720.29
797.74	1757.16
797.92	1714.15
798.09	1578.98
798.27	1730.53
798.44	1732.58
798.62	1671.14
798.79	1683.43
798.96	1744.87
799.14	1703.91
799.31	1800.16
799.49	1667.05
799.66	1753.06
799.84	1724.39
800.01	1630.18
800.19	1708.01
800.36	1660.90
800.53	1708.01
800.71	1675.24
800.88	1830.88
801.06	1716.20
801.23	1636.33
801.41	1675.24
801.58	1665.00
801.75	1687.53
801.93	1812.45
802.10	1796.07
802.28	1697.77
802.45	1732.58
802.63	1769.44
802.80	1808.36
802.97	1621.99
803.15	1775.59
803.32	1708.01
803.50	1687.53
803.67	1611.75
803.84	1748.97
804.02	1671.14
804.19	1728.49
804.37	1609.70
804.54	1691.62
804.71	1708.01
804.89	1665.00
805.06	1697.77
805.24	1710.05
805.41	1617.90
805.58	1667.05
805.76	1839.08
805.93	1656.81
806.10	1718.25
806.28	1748.97
806.45	1705.96
806.63	1722.34
806.80	1755.11
806.97	1755.11
807.15	1765.35
807.32	1798.12
807.49	1765.35
807.67	1667.05
807.84	1699.81
808.01	1593.32
808.19	1851.36
808.36	1763.30
808.54	1722.34
808.71	1589.22
808.88	1718.25
809.06	1679.33
809.23	1710.05
809.40	1708.01
809.58	1738.73
809.75	1701.86
809.92	1611.75
810.10	1869.80
810.27	1736.68
810.44	1759.21
810.62	1855.46
810.79	1710.05
810.96	1652.71
811.14	1740.77
811.31	1859.56
811.48	1785.83
811.66	1720.29
811.83	1753.06
812.00	1716.20
812.18	1775.59
812.35	1744.87
812.52	1691.62
812.69	1683.43
812.87	1718.25
813.04	1650.66
813.21	1652.71
813.39	1595.37
813.56	1669.09
813.73	1791.97
813.91	1636.33
814.08	1767.40
814.25	1699.81
814.42	1648.61
814.60	1714.15
814.77	1699.81
814.94	1658.85
815.12	1800.16
815.29	1834.98
815.46	1658.85
815.63	1732.58
815.81	1705.96
815.98	1779.68
816.15	1628.14
816.33	1724.39
816.50	1769.44
816.67	1738.73
816.84	1679.33
817.02	1669.09
817.19	1644.52
817.36	1728.49
817.53	1734.63
817.71	1665.00
817.88	1832.93
818.05	1681.38
818.22	1679.33
818.40	1849.32
818.57	1644.52
818.74	1783.78
818.91	1603.56
819.09	1742.82
819.26	1746.92
819.43	1691.62
819.60	1628.14
819.78	1761.25
819.95	1775.59
820.12	1648.61
820.29	1732.58
820.47	1794.02
820.64	1695.72
820.81	1593.32
820.98	1656.81
821.15	1687.53
821.33	1710.05
821.50	1648.61
821.67	1667.05
821.84	1785.83
822.02	1820.64
822.19	1810.40
822.36	1736.68
822.53	1673.19
822.70	1667.05
822.88	1736.68
823.05	1814.50
823.22	1636.33
823.39	1732.58
823.56	1683.43
823.74	1708.01
823.91	1705.96
824.08	1652.71
824.25	1648.61
824.42	1800.16
824.60	1591.27
824.77	1724.39
824.94	1683.43
825.11	1683.43
825.28	1677.29
825.45	1718.25
825.63	1714.15
825.80	1681.38
825.97	1769.44
826.14	1730.53
826.31	1646.57
826.48	1738.73
826.66	1716.20
826.83	1734.63
827.00	1769.44
827.17	1665.00
827.34	1710.05
827.51	1703.91
827.69	1720.29
827.86	1621.99
828.03	1673.19
828.20	1730.53
828.37	1695.72
828.54	1720.29
828.71	1748.97
828.89	1796.07
829.06	1712.10
829.23	1757.16
829.40	1626.09
829.57	1634.28
829.74	1724.39
829.91	1652.71
830.09	1619.94
830.26	1701.86
830.43	1800.16
830.60	1644.52
830.77	1787.88
830.94	1755.11
831.11	1730.53
831.28	1701.86
831.46	1714.15
831.63	1730.53
831.80	1800.16
831.97	1673.19
832.14	1708.01
832.31	1763.30
832.48	1738.73
832.65	1781.73
832.82	1673.19
832.99	1736.68
833.17	1669.09
833.34	1849.32
833.51	1730.53
833.68	1617.90
833.85	1744.87
834.02	1609.70
834.19	1654.76
834.36	1708.01
834.53	1701.86
834.70	1791.97
834.87	1753.06
835.04	1751.01
835.22	1607.66
835.39	1740.77
835.56	1665.00
835.73	1738.73
835.90	1798.12
836.07	1679.33
836.24	1705.96
836.41	1691.62
836.58	1671.14
836.75	1730.53
836.92	1763.30
837.09	1636.33
837.26	1791.97
837.43	1740.77
837.60	1767.40
837.77	1621.99
837.94	1746.92
838.12	1834.98
838.29	1744.87
838.46	1701.86
838.63	1642.47
838.80	1783.78
838.97	1775.59
839.14	1683.43
839.31	1736.68
839.48	1812.45
839.65	1695.72
839.82	1673.19
839.99	1710.05
840.16	1701.86
840.33	1673.19
840.50	1755.11
840.67	1714.15
840.84	1626.09
841.01	1730.53
841.18	1705.96
841.35	1665.00
841.52	1824.74
841.69	1816.55
841.86	1710.05
842.03	1687.53
842.20	1710.05
842.37	1642.47
842.54	1675.24
842.71	1681.38
842.88	1562.60
843.05	1710.05
843.22	1662.95
843.39	1699.81
843.56	1634.28
843.73	1744.87
843.90	1689.57
844.07	1738.73
844.24	1763.30
844.41	1783.78
844.58	1755.11
844.75	1671.14
844.92	1802.21
845.09	1599.46
845.26	1724.39
845.43	1728.49
845.60	1685.48
845.77	1716.20
845.94	1740.77
846.10	1800.16
846.27	1646.57
846.44	1683.43
846.61	1624.04
846.78	1748.97
846.95	1781.73
847.12	1648.61
847.29	1728.49
847.46	1669.09
847.63	1767.40
847.80	1656.81
847.97	1687.53
848.14	1814.50
848.31	1734.63
848.48	1617.90
848.65	1708.01
848.82	1644.52
848.98	1759.21
849.15	1769.44
849.32	1787.88
849.49	1728.49
849.66	1726.44
849.83	1718.25
850.00	1566.70
850.17	1689.57
850.34	1689.57
850.51	1689.57
850.68	1691.62
850.85	1884.13
851.01	1656.81
851.18	1751.01
851.35	1656.81
851.52	1751.01
851.69	1716.20
851.86	1640.42
852.03	1626.09
852.20	1744.87
852.37	1757.16
852.53	1603.56
852.70	1742.82
852.87	1718.25
853.04	1765.35
853.21	1671.14
853.38	1812.45
853.55	1880.04
853.72	1810.40
853.89	1665.00
854.05	1650.66
854.22	1669.09
854.39	1708.01
854.56	1746.92
854.73	1873.89
854.90	1599.46
855.07	1662.95
855.23	1658.85
855.40	1738.73
855.57	1755.11
855.74	1628.14
855.91	1968.10
856.08	1599.46
856.25	1644.52
856.41	1740.77
856.58	1648.61
856.75	1730.53
856.92	1638.38
857.09	1751.01
857.26	1601.51
857.42	1675.24
857.59	1787.88
857.76	1673.19
857.93	1708.01
858.10	1814.50
858.27	1667.05
858.43	1699.81
858.60	1681.38
858.77	1652.71
858.94	1675.24
859.11	1849.32
859.27	1673.19
859.44	1701.86
859.61	1837.03
859.78	1701.86
859.95	1738.73
860.12	1673.19
860.28	1798.12
860.45	1748.97
860.62	1757.16
860.79	1693.67
860.95	1701.86
861.12	1656.81
861.29	1644.52
861.46	1722.34
861.63	1675.24
861.79	1734.63
861.96	1677.29
862.13	1681.38
862.30	1810.40
862.47	1742.82
862.63	1689.57
862.80	1740.77
862.97	1691.62
863.14	1722.34
863.30	1691.62
863.47	1683.43
863.64	1787.88
863.81	1738.73
863.97	1710.05
864.14	1736.68
864.31	1599.46
864.48	1710.05
864.65	1757.16
864.81	1798.12
864.98	1728.49
865.15	1814.50
865.32	1712.10
865.48	1732.58
865.65	1796.07
865.82	1640.42
865.98	1796.07
866.15	1777.64
866.32	1671.14
866.49	1675.24
866.65	1818.60
866.82	1685.48
866.99	1798.12
867.16	1628.14
867.32	1710.05
867.49	1730.53
867.66	1714.15
867.83	1699.81
867.99	1589.22
868.16	1673.19
868.33	1603.56
868.49	1662.95
868.66	1681.38
868.83	1775.59
868.99	1728.49
869.16	1708.01
869.33	1712.10
869.50	1769.44
869.66	1693.67
869.83	1677.29
870.00	1683.43
870.16	1796.07
870.33	1755.11
870.50	1742.82
870.66	1658.85
870.83	1834.98
871.00	1712.10
871.17	1693.67
871.33	1708.01
871.50	1789.92
871.67	1675.24
871.83	1695.72
872.00	1820.64
872.17	1685.48
872.33	1808.36
872.50	1822.69
872.67	1681.38
872.83	1662.95
873.00	1697.77
873.17	1761.25
873.33	1763.30
873.50	1710.05
873.67	1675.24
873.83	1685.48
874.00	1714.15
874.16	1679.33
874.33	1683.43
874.50	1697.77
874.66	1734.63
874.83	1642.47
875.00	1775.59
875.16	1765.35
875.33	1769.44
875.50	1587.18
875.66	1654.76
875.83	1699.81
875.99	1751.01
876.16	1720.29
876.33	1652.71
876.49	1738.73
876.66	1763.30
876.83	1665.00
876.99	1615.85
877.16	1722.34
877.32	1634.28
877.49	1650.66
877.66	1714.15
877.82	1705.96
877.99	1720.29
878.15	1697.77
878.32	1638.38
878.49	1705.96
878.65	1710.05
878.82	1738.73
878.98	1701.86
879.15	1787.88
879.32	1789.92
879.48	1763.30
879.65	1693.67
879.81	1701.86
879.98	1648.61
880.15	1730.53
880.31	1779.68
880.48	1708.01
880.64	1810.40
880.81	1689.57
880.97	1808.36
881.14	1796.07
881.31	1626.09
881.47	1857.51
881.64	1720.29
881.80	1644.52
881.97	1712.10
882.13	1736.68
882.30	1679.33
882.47	1669.09
882.63	1669.09
882.80	1722.34
882.96	1656.81
883.13	1736.68
883.29	1689.57
883.46	1783.78
883.62	1820.64
883.79	1703.91
883.95	1740.77
884.12	1697.77
884.29	1677.29
884.45	1740.77
884.62	1763.30
884.78	1738.73
884.95	1855.46
885.11	1685.48
885.28	1710.05
885.44	1656.81
885.61	1822.69
885.77	1753.06
885.94	1763.30
886.10	1720.29
886.27	1626.09
886.43	1871.84
886.60	1820.64
886.76	1656.81
886.93	1652.71
887.09	1701.86
887.26	1585.13
887.42	1734.63
887.59	1806.31
887.75	1810.40
887.92	1828.84
888.08	1828.84
888.25	1800.16
888.41	1732.58
888.58	1718.25
888.74	1617.90
888.91	1726.44
>>>>>End Processed Spectral Data<<<<<
