SpectraSuite Data File
++++++++++++++++++++++++++++++++++++
Date: Mon Jun 06 12:11:57 CEST 2016
User: root
Dark Spectrum Present: No
Reference Spectrum Present: No
Number of Sampled Component Spectra: 1
Spectrometers: USB4C02835
Integration Time (usec): 100000 (USB4C02835)
Spectra Averaged: 1 (USB4C02835)
Boxcar Smoothing: 0 (USB4C02835)
Correct for Electrical Dark: No (USB4C02835)
Strobe/Lamp Enabled: No (USB4C02835)
Correct for Detector Non-linearity: No (USB4C02835)
Correct for Stray Light: No (USB4C02835)
Number of Pixels in Processed Spectrum: 3648
>>>>>Begin Processed Spectral Data<<<<<
177.47	1519.59
177.69	1519.59
177.91	1519.59
178.13	1484.78
178.36	1445.87
178.58	1658.85
178.80	1753.06
179.02	1572.84
179.24	1605.61
179.46	1660.90
179.68	1755.11
179.90	1628.14
180.13	1701.86
180.35	1671.14
180.57	1679.33
180.79	1716.20
181.01	1746.92
181.23	1685.48
181.45	1730.53
181.67	1634.28
181.90	1701.86
182.12	1681.38
182.34	1675.24
182.56	1669.09
182.78	1777.64
183.00	1791.97
183.22	1701.86
183.44	1560.55
183.66	1925.09
183.89	1855.46
184.11	1730.53
184.33	1683.43
184.55	1789.92
184.77	1681.38
184.99	1673.19
185.21	1652.71
185.43	1828.84
185.65	1658.85
185.87	1705.96
186.10	1779.68
186.32	1783.78
186.54	1636.33
186.76	1746.92
186.98	1751.01
187.20	1730.53
187.42	1718.25
187.64	1751.01
187.86	1703.91
188.08	1699.81
188.30	1650.66
188.52	1669.09
188.75	1726.44
188.97	1746.92
189.19	1654.76
189.41	1681.38
189.63	1744.87
189.85	1619.94
190.07	1574.89
190.29	1601.51
190.51	1722.34
190.73	1630.18
190.95	1757.16
191.17	1634.28
191.39	1648.61
191.61	1603.56
191.84	1675.24
192.06	1751.01
192.28	1638.38
192.50	1886.18
192.72	1714.15
192.94	1679.33
193.16	1763.30
193.38	1710.05
193.60	1642.47
193.82	1683.43
194.04	1777.64
194.26	1710.05
194.48	1611.75
194.70	1658.85
194.92	1662.95
195.14	1759.21
195.36	1581.03
195.58	1763.30
195.80	1689.57
196.02	1662.95
196.24	1697.77
196.46	1720.29
196.69	1572.84
196.91	1820.64
197.13	1662.95
197.35	1685.48
197.57	1767.40
197.79	1687.53
198.01	1753.06
198.23	1806.31
198.45	1703.91
198.67	1607.66
198.89	1644.52
199.11	1730.53
199.33	1701.86
199.55	1576.94
199.77	1673.19
199.99	1701.86
200.21	1703.91
200.43	1757.16
200.65	1638.38
200.87	1693.67
201.09	1689.57
201.31	1703.91
201.53	1712.10
201.75	1685.48
201.97	1708.01
202.19	1710.05
202.41	1738.73
202.63	1800.16
202.85	1681.38
203.07	1736.68
203.29	1550.31
203.51	1570.79
203.73	1613.80
203.95	1877.99
204.17	1669.09
204.39	1685.48
204.61	1691.62
204.83	1755.11
205.05	1765.35
205.27	1771.49
205.49	1822.69
205.71	1765.35
205.93	1589.22
206.15	1671.14
206.37	1701.86
206.59	1722.34
206.81	1595.37
207.03	1646.57
207.25	1585.13
207.47	1716.20
207.69	1662.95
207.91	1718.25
208.13	1759.21
208.34	1691.62
208.56	1621.99
208.78	1814.50
209.00	1595.37
209.22	1705.96
209.44	1656.81
209.66	1753.06
209.88	1691.62
210.10	1636.33
210.32	1630.18
210.54	1777.64
210.76	1681.38
210.98	1732.58
211.20	1599.46
211.42	1738.73
211.64	1753.06
211.86	1716.20
212.08	1654.76
212.30	1714.15
212.52	1648.61
212.74	1607.66
212.96	1699.81
213.17	1705.96
213.39	1675.24
213.61	1834.98
213.83	1726.44
214.05	1634.28
214.27	1722.34
214.49	1638.38
214.71	1646.57
214.93	1789.92
215.15	1665.00
215.37	1722.34
215.59	1613.80
215.81	1705.96
216.03	1814.50
216.24	1660.90
216.46	1675.24
216.68	1628.14
216.90	1732.58
217.12	1759.21
217.34	1656.81
217.56	1773.54
217.78	1753.06
218.00	1757.16
218.22	1757.16
218.44	1714.15
218.66	1669.09
218.87	1832.93
219.09	1703.91
219.31	1730.53
219.53	1763.30
219.75	1648.61
219.97	1681.38
220.19	1748.97
220.41	1740.77
220.63	1779.68
220.85	1699.81
221.06	1607.66
221.28	1746.92
221.50	1652.71
221.72	1699.81
221.94	1652.71
222.16	1679.33
222.38	1708.01
222.60	1767.40
222.82	1724.39
223.03	1794.02
223.25	1589.22
223.47	1710.05
223.69	1869.80
223.91	1728.49
224.13	1615.85
224.35	1669.09
224.57	1806.31
224.78	1755.11
225.00	1617.90
225.22	1656.81
225.44	1675.24
225.66	1677.29
225.88	1628.14
226.10	1718.25
226.32	1746.92
226.53	1812.45
226.75	1693.67
226.97	1701.86
227.19	1628.14
227.41	1656.81
227.63	1699.81
227.85	1560.55
228.06	1695.72
228.28	1736.68
228.50	1722.34
228.72	1624.04
228.94	1681.38
229.16	1605.61
229.37	1693.67
229.59	1632.23
229.81	1705.96
230.03	1683.43
230.25	1634.28
230.47	1632.23
230.69	1566.70
230.90	1648.61
231.12	1669.09
231.34	1675.24
231.56	1751.01
231.78	1593.32
232.00	1720.29
232.21	1765.35
232.43	1796.07
232.65	1589.22
232.87	1660.90
233.09	1595.37
233.30	1734.63
233.52	1703.91
233.74	1609.70
233.96	1660.90
234.18	1748.97
234.40	1718.25
234.61	1841.12
234.83	1712.10
235.05	1585.13
235.27	1863.65
235.49	1726.44
235.70	1730.53
235.92	1732.58
236.14	1673.19
236.36	1839.08
236.58	1662.95
236.79	1742.82
237.01	1597.42
237.23	1667.05
237.45	1714.15
237.67	1626.09
237.88	1689.57
238.10	1800.16
238.32	1642.47
238.54	1693.67
238.76	1685.48
238.97	1607.66
239.19	1636.33
239.41	1804.26
239.63	1806.31
239.85	1722.34
240.06	1738.73
240.28	1667.05
240.50	1697.77
240.72	1726.44
240.93	1703.91
241.15	1779.68
241.37	1605.61
241.59	1773.54
241.81	1681.38
242.02	1679.33
242.24	1705.96
242.46	1681.38
242.68	1648.61
242.89	1701.86
243.11	1724.39
243.33	1667.05
243.55	1626.09
243.76	1753.06
243.98	1644.52
244.20	1652.71
244.42	1681.38
244.64	1675.24
244.85	1650.66
245.07	1718.25
245.29	1759.21
245.51	1681.38
245.72	1705.96
245.94	1769.44
246.16	1787.88
246.38	1740.77
246.59	1669.09
246.81	1611.75
247.03	1673.19
247.24	1550.31
247.46	1603.56
247.68	1775.59
247.90	1640.42
248.11	1728.49
248.33	1751.01
248.55	1665.00
248.77	1669.09
248.98	1718.25
249.20	1734.63
249.42	1732.58
249.64	1726.44
249.85	1714.15
250.07	1683.43
250.29	1722.34
250.50	1638.38
250.72	1607.66
250.94	1669.09
251.16	1802.21
251.37	1759.21
251.59	1679.33
251.81	1671.14
252.02	1744.87
252.24	1654.76
252.46	1886.18
252.68	1679.33
252.89	1634.28
253.11	1578.98
253.33	1765.35
253.54	1703.91
253.76	1603.56
253.98	1726.44
254.20	1730.53
254.41	1611.75
254.63	1718.25
254.85	1640.42
255.06	1669.09
255.28	1742.82
255.50	1675.24
255.71	1660.90
255.93	1732.58
256.15	1652.71
256.36	1769.44
256.58	1632.23
256.80	1673.19
257.02	1699.81
257.23	1718.25
257.45	1744.87
257.67	1705.96
257.88	1662.95
258.10	1718.25
258.32	1738.73
258.53	1726.44
258.75	1777.64
258.97	1607.66
259.18	1693.67
259.40	1691.62
259.62	1773.54
259.83	1779.68
260.05	1746.92
260.27	1810.40
260.48	1800.16
260.70	1656.81
260.92	1722.34
261.13	1748.97
261.35	1675.24
261.57	1712.10
261.78	1634.28
262.00	1632.23
262.22	1714.15
262.43	1673.19
262.65	1675.24
262.86	1658.85
263.08	1736.68
263.30	1718.25
263.51	1609.70
263.73	1642.47
263.95	1814.50
264.16	1650.66
264.38	1669.09
264.60	1730.53
264.81	1724.39
265.03	1701.86
265.25	1759.21
265.46	1667.05
265.68	1730.53
265.89	1665.00
266.11	1570.79
266.33	1660.90
266.54	1814.50
266.76	1740.77
266.98	1656.81
267.19	1761.25
267.41	1744.87
267.62	1673.19
267.84	1611.75
268.06	1652.71
268.27	1683.43
268.49	1755.11
268.70	1728.49
268.92	1742.82
269.14	1628.14
269.35	1621.99
269.57	1677.29
269.79	1761.25
270.00	1626.09
270.22	1779.68
270.43	1675.24
270.65	1581.03
270.87	1712.10
271.08	1720.29
271.30	1787.88
271.51	1673.19
271.73	1712.10
271.95	1755.11
272.16	1705.96
272.38	1699.81
272.59	1646.57
272.81	1705.96
273.02	1726.44
273.24	1708.01
273.46	1744.87
273.67	1568.74
273.89	1587.18
274.10	1656.81
274.32	1736.68
274.54	1699.81
274.75	1728.49
274.97	1619.94
275.18	1761.25
275.40	1734.63
275.61	1693.67
275.83	1736.68
276.05	1626.09
276.26	1740.77
276.48	1673.19
276.69	1656.81
276.91	1683.43
277.12	1798.12
277.34	1724.39
277.55	1738.73
277.77	1708.01
277.99	1687.53
278.20	1562.60
278.42	1703.91
278.63	1636.33
278.85	1677.29
279.06	1642.47
279.28	1730.53
279.49	1693.67
279.71	1763.30
279.93	1644.52
280.14	1710.05
280.36	1708.01
280.57	1732.58
280.79	1742.82
281.00	1576.94
281.22	1693.67
281.43	1757.16
281.65	1583.08
281.86	1687.53
282.08	1714.15
282.29	1761.25
282.51	1624.04
282.73	1525.74
282.94	1628.14
283.16	1742.82
283.37	1748.97
283.59	1683.43
283.80	1710.05
284.02	1669.09
284.23	1757.16
284.45	1697.77
284.66	1685.48
284.88	1689.57
285.09	1652.71
285.31	1654.76
285.52	1599.46
285.74	1628.14
285.95	1763.30
286.17	1724.39
286.38	1621.99
286.60	1708.01
286.81	1652.71
287.03	1673.19
287.24	1695.72
287.46	1712.10
287.67	1738.73
287.89	1785.83
288.10	1701.86
288.32	1703.91
288.53	1665.00
288.75	1656.81
288.96	1658.85
289.18	1693.67
289.39	1679.33
289.61	1748.97
289.82	1859.56
290.04	1808.36
290.25	1566.70
290.47	1675.24
290.68	1695.72
290.90	1765.35
291.11	1662.95
291.33	1708.01
291.54	1673.19
291.76	1703.91
291.97	1687.53
292.18	1703.91
292.40	1632.23
292.61	1626.09
292.83	1812.45
293.04	1705.96
293.26	1658.85
293.47	1593.32
293.69	1640.42
293.90	1685.48
294.12	1712.10
294.33	1628.14
294.55	1652.71
294.76	1654.76
294.97	1693.67
295.19	1882.08
295.40	1648.61
295.62	1693.67
295.83	1759.21
296.05	1591.27
296.26	1744.87
296.48	1640.42
296.69	1689.57
296.90	1697.77
297.12	1767.40
297.33	1740.77
297.55	1671.14
297.76	1699.81
297.98	1751.01
298.19	1675.24
298.41	1658.85
298.62	1662.95
298.83	1765.35
299.05	1665.00
299.26	1654.76
299.48	1728.49
299.69	1722.34
299.90	1665.00
300.12	1615.85
300.33	1728.49
300.55	1712.10
300.76	1761.25
300.98	1583.08
301.19	1812.45
301.40	1683.43
301.62	1648.61
301.83	1771.49
302.05	1673.19
302.26	1712.10
302.47	1787.88
302.69	1638.38
302.90	1699.81
303.12	1497.07
303.33	1732.58
303.54	1832.93
303.76	1708.01
303.97	1736.68
304.19	1740.77
304.40	1550.31
304.61	1787.88
304.83	1859.56
305.04	1714.15
305.26	1714.15
305.47	1677.29
305.68	1705.96
305.90	1628.14
306.11	1705.96
306.33	1667.05
306.54	1654.76
306.75	1693.67
306.97	1585.13
307.18	1595.37
307.39	1720.29
307.61	1716.20
307.82	1652.71
308.04	1738.73
308.25	1624.04
308.46	1677.29
308.68	1636.33
308.89	1714.15
309.10	1802.21
309.32	1755.11
309.53	1607.66
309.74	1748.97
309.96	1689.57
310.17	1791.97
310.39	1679.33
310.60	1697.77
310.81	1632.23
311.03	1587.18
311.24	1660.90
311.45	1681.38
311.67	1755.11
311.88	1648.61
312.09	1609.70
312.31	1601.51
312.52	1697.77
312.73	1705.96
312.95	1636.33
313.16	1648.61
313.37	1789.92
313.59	1673.19
313.80	1732.58
314.01	1714.15
314.23	1595.37
314.44	1648.61
314.65	1656.81
314.87	1654.76
315.08	1667.05
315.29	1640.42
315.51	1699.81
315.72	1681.38
315.93	1798.12
316.15	1697.77
316.36	1634.28
316.57	1693.67
316.79	1775.59
317.00	1642.47
317.21	1742.82
317.43	1574.89
317.64	1724.39
317.85	1667.05
318.07	1662.95
318.28	1689.57
318.49	1779.68
318.70	1894.37
318.92	1839.08
319.13	1787.88
319.34	1800.16
319.56	1800.16
319.77	1787.88
319.98	1736.68
320.20	1763.30
320.41	1726.44
320.62	1689.57
320.83	1624.04
321.05	1884.13
321.26	1740.77
321.47	1718.25
321.69	1755.11
321.90	1689.57
322.11	1609.70
322.32	1736.68
322.54	1744.87
322.75	1644.52
322.96	1791.97
323.18	1609.70
323.39	1585.13
323.60	1652.71
323.81	1724.39
324.03	1648.61
324.24	1699.81
324.45	1669.09
324.66	1710.05
324.88	1726.44
325.09	1714.15
325.30	1708.01
325.52	1660.90
325.73	1730.53
325.94	1728.49
326.15	1603.56
326.37	1642.47
326.58	1716.20
326.79	1746.92
327.00	1640.42
327.22	1740.77
327.43	1660.90
327.64	1695.72
327.85	1693.67
328.07	1755.11
328.28	1783.78
328.49	1615.85
328.70	1660.90
328.92	1740.77
329.13	1703.91
329.34	1802.21
329.55	1755.11
329.76	1697.77
329.98	1650.66
330.19	1724.39
330.40	1732.58
330.61	1654.76
330.83	1667.05
331.04	1599.46
331.25	1783.78
331.46	1632.23
331.68	1636.33
331.89	1769.44
332.10	1634.28
332.31	1630.18
332.52	1650.66
332.74	1736.68
332.95	1595.37
333.16	1695.72
333.37	1714.15
333.58	1650.66
333.80	1617.90
334.01	1617.90
334.22	1712.10
334.43	1714.15
334.64	1658.85
334.86	1599.46
335.07	1585.13
335.28	1761.25
335.49	1572.84
335.70	1658.85
335.92	1687.53
336.13	1861.60
336.34	1742.82
336.55	1710.05
336.76	1665.00
336.98	1597.42
337.19	1665.00
337.40	1779.68
337.61	1779.68
337.82	1691.62
338.04	1791.97
338.25	1619.94
338.46	1685.48
338.67	1628.14
338.88	1697.77
339.09	1669.09
339.31	1644.52
339.52	1628.14
339.73	1636.33
339.94	1673.19
340.15	1783.78
340.36	1642.47
340.58	1658.85
340.79	1615.85
341.00	1691.62
341.21	1648.61
341.42	1720.29
341.63	1716.20
341.85	1669.09
342.06	1693.67
342.27	1636.33
342.48	1722.34
342.69	1601.51
342.90	1624.04
343.12	1765.35
343.33	1656.81
343.54	1757.16
343.75	1736.68
343.96	1679.33
344.17	1630.18
344.38	1683.43
344.60	1632.23
344.81	1626.09
345.02	1658.85
345.23	1785.83
345.44	1808.36
345.65	1654.76
345.86	1708.01
346.07	1738.73
346.29	1718.25
346.50	1742.82
346.71	1665.00
346.92	1691.62
347.13	1828.84
347.34	1724.39
347.55	1605.61
347.76	1689.57
347.98	1656.81
348.19	1648.61
348.40	1728.49
348.61	1705.96
348.82	1849.32
349.03	1736.68
349.24	1607.66
349.45	1740.77
349.66	1519.59
349.88	1736.68
350.09	1658.85
350.30	1718.25
350.51	1804.26
350.72	1732.58
350.93	1689.57
351.14	1564.65
351.35	1746.92
351.56	1691.62
351.77	1689.57
351.99	1746.92
352.20	1736.68
352.41	1791.97
352.62	1654.76
352.83	1662.95
353.04	1687.53
353.25	1720.29
353.46	1740.77
353.67	1800.16
353.88	1515.50
354.09	1720.29
354.30	1699.81
354.52	1718.25
354.73	1630.18
354.94	1669.09
355.15	1675.24
355.36	1804.26
355.57	1615.85
355.78	1744.87
355.99	1613.80
356.20	1693.67
356.41	1851.36
356.62	1761.25
356.83	1685.48
357.04	1828.84
357.25	1640.42
357.46	1695.72
357.68	1667.05
357.89	1701.86
358.10	1705.96
358.31	1675.24
358.52	1675.24
358.73	1640.42
358.94	1667.05
359.15	1648.61
359.36	1718.25
359.57	1691.62
359.78	1619.94
359.99	1777.64
360.20	1644.52
360.41	1724.39
360.62	1683.43
360.83	1722.34
361.04	1624.04
361.25	1650.66
361.46	1802.21
361.67	1685.48
361.88	1738.73
362.09	1777.64
362.30	1693.67
362.51	1685.48
362.72	1656.81
362.93	1728.49
363.14	1689.57
363.35	1683.43
363.56	1660.90
363.78	1726.44
363.99	1746.92
364.20	1693.67
364.41	1599.46
364.62	1826.79
364.83	1685.48
365.04	1607.66
365.25	1742.82
365.46	1763.30
365.67	1705.96
365.88	1662.95
366.09	1665.00
366.30	1652.71
366.51	1714.15
366.72	1619.94
366.93	1689.57
367.14	1665.00
367.35	1826.79
367.56	1665.00
367.77	1816.55
367.98	1693.67
368.18	1806.31
368.39	1646.57
368.60	1703.91
368.81	1740.77
369.02	1695.72
369.23	1640.42
369.44	1558.50
369.65	1552.36
369.86	1718.25
370.07	1736.68
370.28	1654.76
370.49	1685.48
370.70	1689.57
370.91	1671.14
371.12	1632.23
371.33	1744.87
371.54	1669.09
371.75	1800.16
371.96	1609.70
372.17	1710.05
372.38	1726.44
372.59	1730.53
372.80	1642.47
373.01	1673.19
373.22	1685.48
373.43	1695.72
373.64	1660.90
373.85	1701.86
374.06	1849.32
374.26	1701.86
374.47	1730.53
374.68	1822.69
374.89	1720.29
375.10	1644.52
375.31	1714.15
375.52	1667.05
375.73	1677.29
375.94	1603.56
376.15	1728.49
376.36	1675.24
376.57	1671.14
376.78	1658.85
376.99	1751.01
377.20	1781.73
377.40	1634.28
377.61	1830.88
377.82	1669.09
378.03	1771.49
378.24	1755.11
378.45	1701.86
378.66	1718.25
378.87	1587.18
379.08	1587.18
379.29	1667.05
379.50	1755.11
379.71	1652.71
379.91	1705.96
380.12	1689.57
380.33	1691.62
380.54	1679.33
380.75	1642.47
380.96	1621.99
381.17	1650.66
381.38	1689.57
381.59	1716.20
381.80	1746.92
382.00	1798.12
382.21	1740.77
382.42	1839.08
382.63	1841.12
382.84	1699.81
383.05	1753.06
383.26	1794.02
383.47	1689.57
383.68	1720.29
383.88	1781.73
384.09	1728.49
384.30	1763.30
384.51	1738.73
384.72	1613.80
384.93	1589.22
385.14	1687.53
385.35	1738.73
385.55	1669.09
385.76	1720.29
385.97	1701.86
386.18	1601.51
386.39	1738.73
386.60	1609.70
386.81	1703.91
387.02	1613.80
387.22	1595.37
387.43	1681.38
387.64	1769.44
387.85	1904.61
388.06	2209.76
388.27	4235.20
388.48	7028.63
388.68	8431.49
388.89	9688.94
389.10	10033.00
389.31	8595.32
389.52	7505.81
389.73	6647.71
389.93	6317.98
390.14	5828.52
390.35	5240.75
390.56	4491.20
390.77	3698.63
390.98	3012.56
391.18	2586.58
391.39	2123.74
391.60	1853.41
391.81	1853.41
392.02	1673.19
392.23	1847.27
392.43	1705.96
392.64	1773.54
392.85	1701.86
393.06	1753.06
393.27	1710.05
393.47	1734.63
393.68	1644.52
393.89	1701.86
394.10	1798.12
394.31	1671.14
394.52	1599.46
394.72	1624.04
394.93	1781.73
395.14	1689.57
395.35	1751.01
395.56	1646.57
395.76	1783.78
395.97	1759.21
396.18	1861.60
396.39	1857.51
396.60	2127.84
396.80	1845.22
397.01	1767.40
397.22	1824.74
397.43	1787.88
397.64	1779.68
397.84	1804.26
398.05	1884.13
398.26	1679.33
398.47	1738.73
398.67	1716.20
398.88	1701.86
399.09	1720.29
399.30	1644.52
399.51	1777.64
399.71	1673.19
399.92	1640.42
400.13	1701.86
400.34	1681.38
400.54	1695.72
400.75	1789.92
400.96	1673.19
401.17	1853.41
401.37	1779.68
401.58	1728.49
401.79	1691.62
402.00	1861.60
402.21	1976.29
402.41	1933.28
402.62	2015.20
402.83	2025.44
403.04	1937.38
403.24	2117.60
403.45	1841.12
403.66	1855.46
403.87	1931.23
404.07	1920.99
404.28	1877.99
404.49	1855.46
404.70	1898.47
404.90	1773.54
405.11	1685.48
405.32	1691.62
405.52	1705.96
405.73	1675.24
405.94	1621.99
406.15	1701.86
406.35	1746.92
406.56	1726.44
406.77	1673.19
406.98	1687.53
407.18	1591.27
407.39	1800.16
407.60	1728.49
407.80	1705.96
408.01	1611.75
408.22	1728.49
408.43	1656.81
408.63	1773.54
408.84	1779.68
409.05	1763.30
409.25	1693.67
409.46	1673.19
409.67	1693.67
409.88	1671.14
410.08	1761.25
410.29	1714.15
410.50	1771.49
410.70	1673.19
410.91	1718.25
411.12	1732.58
411.32	1662.95
411.53	1656.81
411.74	1734.63
411.95	1746.92
412.15	1744.87
412.36	1734.63
412.57	1802.21
412.77	1728.49
412.98	1695.72
413.19	1744.87
413.39	1724.39
413.60	1787.88
413.81	1785.83
414.01	1714.15
414.22	1746.92
414.43	1755.11
414.63	1654.76
414.84	1708.01
415.05	1662.95
415.25	1593.32
415.46	1687.53
415.67	1646.57
415.87	1683.43
416.08	1712.10
416.29	1667.05
416.49	1718.25
416.70	1628.14
416.91	1716.20
417.11	1730.53
417.32	1791.97
417.53	1658.85
417.73	1718.25
417.94	1689.57
418.15	1730.53
418.35	1695.72
418.56	1712.10
418.77	1871.84
418.97	1718.25
419.18	1658.85
419.38	1480.68
419.59	1683.43
419.80	1751.01
420.00	1671.14
420.21	1687.53
420.42	1753.06
420.62	1716.20
420.83	1652.71
421.04	1665.00
421.24	1665.00
421.45	1730.53
421.65	1767.40
421.86	1644.52
422.07	1714.15
422.27	1716.20
422.48	1697.77
422.69	1646.57
422.89	1648.61
423.10	1685.48
423.30	1662.95
423.51	1753.06
423.72	1755.11
423.92	1783.78
424.13	1673.19
424.33	1759.21
424.54	1761.25
424.75	1763.30
424.95	1808.36
425.16	1636.33
425.36	1689.57
425.57	1753.06
425.78	1734.63
425.98	1712.10
426.19	1689.57
426.39	1728.49
426.60	1718.25
426.81	1724.39
427.01	1736.68
427.22	1665.00
427.42	1572.84
427.63	1595.37
427.83	1794.02
428.04	1806.31
428.25	1746.92
428.45	1693.67
428.66	1726.44
428.86	1681.38
429.07	1748.97
429.28	1728.49
429.48	1621.99
429.69	1568.74
429.89	1683.43
430.10	1656.81
430.30	1689.57
430.51	1732.58
430.71	1665.00
430.92	1658.85
431.13	1583.08
431.33	1755.11
431.54	1753.06
431.74	1806.31
431.95	1849.32
432.15	1564.65
432.36	1693.67
432.56	1796.07
432.77	1775.59
432.98	1796.07
433.18	1736.68
433.39	1693.67
433.59	1654.76
433.80	1734.63
434.00	1830.88
434.21	1679.33
434.41	1714.15
434.62	1824.74
434.82	1669.09
435.03	1656.81
435.23	1624.04
435.44	1642.47
435.64	1734.63
435.85	1732.58
436.06	1765.35
436.26	1761.25
436.47	1759.21
436.67	1695.72
436.88	1759.21
437.08	1761.25
437.29	1738.73
437.49	1679.33
437.70	1742.82
437.90	1660.90
438.11	1777.64
438.31	1767.40
438.52	1892.32
438.72	1826.79
438.93	1886.18
439.13	1771.49
439.34	1746.92
439.54	1722.34
439.75	1824.74
439.95	1808.36
440.16	1734.63
440.36	1789.92
440.57	1783.78
440.77	1740.77
440.98	1699.81
441.18	1720.29
441.39	1642.47
441.59	1642.47
441.80	1853.41
442.00	1777.64
442.21	1734.63
442.41	1699.81
442.62	1695.72
442.82	1665.00
443.02	1685.48
443.23	1687.53
443.43	1689.57
443.64	1824.74
443.84	1744.87
444.05	1882.08
444.25	1701.86
444.46	1734.63
444.66	1646.57
444.87	1751.01
445.07	1564.65
445.28	1716.20
445.48	1785.83
445.69	1718.25
445.89	1834.98
446.09	1718.25
446.30	1955.81
446.50	2609.11
446.71	3669.96
446.91	4356.03
447.12	4865.97
447.32	4839.35
447.53	4257.73
447.73	3966.92
447.93	3526.60
448.14	3389.39
448.34	3229.65
448.55	2971.60
448.75	2801.62
448.96	2734.04
449.16	2383.84
449.36	2322.40
449.57	2105.31
449.77	1943.52
449.98	1728.49
450.18	1732.58
450.39	1806.31
450.59	1787.88
450.79	1699.81
451.00	1708.01
451.20	1708.01
451.41	1748.97
451.61	1726.44
451.81	1634.28
452.02	1714.15
452.22	1669.09
452.43	1665.00
452.63	1757.16
452.84	1685.48
453.04	1740.77
453.24	1724.39
453.45	1660.90
453.65	1634.28
453.86	1673.19
454.06	1738.73
454.26	1714.15
454.47	1648.61
454.67	1822.69
454.87	1683.43
455.08	1697.77
455.28	1812.45
455.49	1677.29
455.69	1652.71
455.89	1759.21
456.10	1773.54
456.30	1738.73
456.51	1742.82
456.71	1722.34
456.91	1773.54
457.12	1665.00
457.32	1691.62
457.52	1710.05
457.73	1734.63
457.93	1716.20
458.14	1722.34
458.34	1628.14
458.54	1722.34
458.75	1673.19
458.95	1705.96
459.15	1642.47
459.36	1650.66
459.56	1751.01
459.76	1865.70
459.97	1693.67
460.17	1705.96
460.37	1877.99
460.58	1740.77
460.78	1722.34
460.99	1708.01
461.19	1628.14
461.39	1671.14
461.60	1740.77
461.80	1755.11
462.00	1697.77
462.21	1683.43
462.41	1703.91
462.61	1636.33
462.82	1619.94
463.02	1787.88
463.22	1759.21
463.43	1773.54
463.63	1671.14
463.83	1794.02
464.04	1724.39
464.24	1691.62
464.44	1701.86
464.64	1712.10
464.85	1757.16
465.05	1728.49
465.25	1626.09
465.46	1646.57
465.66	1708.01
465.86	1718.25
466.07	1714.15
466.27	1681.38
466.47	1685.48
466.68	1646.57
466.88	1820.64
467.08	1753.06
467.29	1734.63
467.49	1753.06
467.69	1738.73
467.89	1755.11
468.10	1720.29
468.30	1683.43
468.50	1757.16
468.71	1689.57
468.91	1599.46
469.11	1781.73
469.31	1771.49
469.52	1695.72
469.72	1796.07
469.92	1828.84
470.13	1634.28
470.33	1675.24
470.53	1744.87
470.73	2107.36
470.94	2256.86
471.14	2285.53
471.34	2590.68
471.54	2443.23
471.75	2144.22
471.95	2004.96
472.15	2125.79
472.36	2035.68
472.56	2113.50
472.76	2050.02
472.96	2045.92
473.17	1953.76
473.37	1906.66
473.57	1748.97
473.77	1837.03
473.98	1714.15
474.18	1681.38
474.38	1945.57
474.58	1748.97
474.79	1650.66
474.99	1779.68
475.19	1851.36
475.39	1615.85
475.60	1818.60
475.80	1683.43
476.00	1648.61
476.20	1632.23
476.41	1800.16
476.61	1724.39
476.81	1779.68
477.01	1738.73
477.21	1853.41
477.42	1775.59
477.62	1693.67
477.82	1734.63
478.02	1675.24
478.23	1773.54
478.43	1646.57
478.63	1650.66
478.83	1697.77
479.03	1763.30
479.24	1777.64
479.44	1800.16
479.64	1710.05
479.84	1650.66
480.04	1630.18
480.25	1744.87
480.45	1632.23
480.65	1705.96
480.85	1689.57
481.06	1732.58
481.26	1673.19
481.46	1806.31
481.66	1662.95
481.86	1785.83
482.06	1785.83
482.27	1642.47
482.47	1681.38
482.67	1796.07
482.87	1697.77
483.07	1843.17
483.28	1658.85
483.48	1632.23
483.68	1683.43
483.88	1681.38
484.08	1535.98
484.29	1687.53
484.49	1703.91
484.69	1675.24
484.89	1787.88
485.09	1779.68
485.29	1734.63
485.50	1785.83
485.70	1699.81
485.90	1726.44
486.10	1757.16
486.30	1724.39
486.50	1720.29
486.71	1714.15
486.91	1746.92
487.11	1740.77
487.31	1689.57
487.51	1660.90
487.71	1722.34
487.91	1638.38
488.12	1671.14
488.32	1611.75
488.52	1597.42
488.72	1636.33
488.92	1685.48
489.12	1675.24
489.32	1759.21
489.53	1777.64
489.73	1658.85
489.93	1689.57
490.13	1642.47
490.33	1599.46
490.53	1718.25
490.73	1816.55
490.94	1597.42
491.14	1726.44
491.34	1802.21
491.54	2086.88
491.74	2588.63
491.94	2850.77
492.14	3100.62
492.34	3084.24
492.54	2793.43
492.75	2451.42
492.95	2398.17
493.15	2389.98
493.35	2244.57
493.55	2179.04
493.75	2152.42
493.95	2187.23
494.15	1976.29
494.35	1886.18
494.56	1839.08
494.76	1787.88
494.96	1771.49
495.16	1785.83
495.36	1755.11
495.56	1771.49
495.76	1710.05
495.96	1712.10
496.16	1736.68
496.36	1824.74
496.56	1718.25
496.77	1697.77
496.97	1744.87
497.17	1808.36
497.37	1626.09
497.57	1703.91
497.77	1767.40
497.97	1705.96
498.17	1695.72
498.37	1683.43
498.57	1738.73
498.77	1728.49
498.97	1705.96
499.17	1785.83
499.38	1689.57
499.58	1753.06
499.78	1869.80
499.98	1781.73
500.18	1644.52
500.38	1695.72
500.58	1837.03
500.78	2500.57
500.98	4585.40
501.18	5875.62
501.38	6858.65
501.58	7108.50
501.78	6596.51
501.98	5445.55
502.18	4966.32
502.38	4362.17
502.58	4116.42
502.78	3708.87
502.98	3626.95
503.18	3411.92
503.38	3157.97
503.59	2795.48
503.79	2652.12
503.99	2549.72
504.19	2361.31
504.39	2197.47
504.59	2123.74
504.79	2103.26
504.99	2084.83
505.19	1984.48
505.39	1828.84
505.59	2000.87
505.79	1945.57
505.99	1908.71
506.19	1800.16
506.39	1855.46
506.59	1726.44
506.79	1769.44
506.99	1755.11
507.19	1853.41
507.39	1753.06
507.59	1667.05
507.79	1708.01
507.99	1656.81
508.19	1759.21
508.39	1648.61
508.59	1761.25
508.79	1869.80
508.99	1851.36
509.19	1673.19
509.39	1728.49
509.59	1630.18
509.79	1687.53
509.99	1710.05
510.19	1794.02
510.39	1744.87
510.59	1673.19
510.79	1693.67
510.99	1628.14
511.19	1654.76
511.39	1812.45
511.59	1804.26
511.79	1775.59
511.99	1763.30
512.19	1834.98
512.38	1714.15
512.58	1617.90
512.78	1771.49
512.98	1849.32
513.18	1775.59
513.38	1597.42
513.58	1828.84
513.78	1693.67
513.98	1710.05
514.18	1691.62
514.38	1699.81
514.58	1691.62
514.78	1640.42
514.98	1701.86
515.18	1675.24
515.38	1640.42
515.58	1789.92
515.78	1662.95
515.98	1705.96
516.18	1703.91
516.38	1718.25
516.57	1767.40
516.77	1730.53
516.97	1718.25
517.17	1699.81
517.37	1589.22
517.57	1738.73
517.77	1779.68
517.97	1632.23
518.17	1816.55
518.37	1677.29
518.57	1767.40
518.77	1693.67
518.97	1705.96
519.16	1726.44
519.36	1773.54
519.56	1697.77
519.76	1685.48
519.96	1722.34
520.16	1789.92
520.36	1718.25
520.56	1834.98
520.76	1642.47
520.96	1658.85
521.16	1765.35
521.35	1771.49
521.55	1824.74
521.75	1757.16
521.95	1689.57
522.15	1634.28
522.35	1624.04
522.55	1732.58
522.75	1748.97
522.95	1675.24
523.14	1671.14
523.34	1681.38
523.54	1691.62
523.74	1769.44
523.94	1732.58
524.14	1710.05
524.34	1765.35
524.54	1722.34
524.73	1746.92
524.93	1804.26
525.13	1757.16
525.33	1576.94
525.53	1853.41
525.73	1767.40
525.93	1755.11
526.13	1695.72
526.32	1583.08
526.52	1791.97
526.72	1880.04
526.92	1701.86
527.12	1757.16
527.32	1638.38
527.52	1679.33
527.71	1757.16
527.91	1691.62
528.11	1669.09
528.31	1744.87
528.51	1708.01
528.71	1839.08
528.90	1877.99
529.10	1818.60
529.30	1818.60
529.50	1617.90
529.70	1701.86
529.90	1671.14
530.09	1687.53
530.29	1708.01
530.49	1718.25
530.69	1855.46
530.89	1742.82
531.09	1812.45
531.28	1669.09
531.48	1765.35
531.68	1740.77
531.88	1830.88
532.08	1757.16
532.28	1748.97
532.47	1667.05
532.67	1781.73
532.87	1755.11
533.07	1712.10
533.27	1791.97
533.46	1697.77
533.66	1738.73
533.86	1708.01
534.06	1718.25
534.26	1712.10
534.45	1689.57
534.65	1691.62
534.85	1714.15
535.05	1665.00
535.25	1849.32
535.44	1615.85
535.64	1755.11
535.84	1732.58
536.04	1683.43
536.24	1712.10
536.43	1665.00
536.63	1728.49
536.83	1705.96
537.03	1687.53
537.22	1632.23
537.42	1624.04
537.62	1687.53
537.82	1691.62
538.02	1724.39
538.21	1765.35
538.41	1861.60
538.61	1701.86
538.81	1757.16
539.00	1763.30
539.20	1544.17
539.40	1673.19
539.60	1728.49
539.79	1742.82
539.99	1734.63
540.19	1667.05
540.39	1675.24
540.58	1800.16
540.78	1796.07
540.98	1708.01
541.18	1742.82
541.37	1767.40
541.57	1730.53
541.77	1714.15
541.97	1619.94
542.16	1687.53
542.36	1736.68
542.56	1828.84
542.76	1843.17
542.95	1718.25
543.15	1796.07
543.35	1769.44
543.54	1671.14
543.74	1759.21
543.94	1798.12
544.14	1732.58
544.33	1693.67
544.53	1759.21
544.73	1759.21
544.93	1687.53
545.12	1714.15
545.32	1681.38
545.52	1671.14
545.71	1634.28
545.91	1722.34
546.11	1753.06
546.30	1654.76
546.50	1775.59
546.70	1742.82
546.90	1728.49
547.09	1613.80
547.29	1736.68
547.49	1763.30
547.68	1738.73
547.88	1644.52
548.08	1714.15
548.27	2070.50
548.47	1726.44
548.67	1675.24
548.87	1740.77
549.06	1753.06
549.26	1691.62
549.46	1693.67
549.65	1689.57
549.85	1742.82
550.05	1720.29
550.24	1708.01
550.44	1748.97
550.64	1779.68
550.83	1783.78
551.03	1763.30
551.23	1748.97
551.42	1779.68
551.62	1683.43
551.82	1728.49
552.01	1728.49
552.21	1732.58
552.41	1701.86
552.60	1712.10
552.80	1714.15
553.00	1669.09
553.19	1816.55
553.39	1789.92
553.59	1689.57
553.78	1820.64
553.98	1701.86
554.17	1662.95
554.37	1714.15
554.57	1783.78
554.76	1677.29
554.96	1787.88
555.16	1761.25
555.35	1720.29
555.55	1718.25
555.75	1753.06
555.94	1740.77
556.14	1683.43
556.33	1845.22
556.53	1718.25
556.73	1652.71
556.92	1753.06
557.12	1755.11
557.32	1810.40
557.51	1777.64
557.71	1724.39
557.90	1828.84
558.10	1763.30
558.30	1699.81
558.49	1699.81
558.69	1732.58
558.88	1742.82
559.08	1714.15
559.28	1695.72
559.47	1783.78
559.67	1785.83
559.86	1820.64
560.06	1767.40
560.26	1783.78
560.45	1800.16
560.65	1746.92
560.84	1830.88
561.04	1705.96
561.24	1716.20
561.43	1652.71
561.63	1820.64
561.82	1656.81
562.02	1794.02
562.22	1691.62
562.41	1673.19
562.61	1779.68
562.80	1673.19
563.00	1865.70
563.19	1789.92
563.39	1718.25
563.59	1769.44
563.78	1679.33
563.98	1599.46
564.17	1789.92
564.37	1724.39
564.56	1791.97
564.76	1724.39
564.96	1773.54
565.15	1699.81
565.35	1771.49
565.54	1646.57
565.74	1734.63
565.93	1755.11
566.13	1763.30
566.32	1777.64
566.52	1765.35
566.71	1720.29
566.91	1769.44
567.11	1691.62
567.30	1636.33
567.50	1771.49
567.69	1765.35
567.89	1728.49
568.08	1615.85
568.28	1757.16
568.47	1662.95
568.67	1757.16
568.86	1755.11
569.06	1767.40
569.25	1689.57
569.45	1683.43
569.64	1683.43
569.84	1675.24
570.04	1753.06
570.23	1640.42
570.43	1644.52
570.62	1722.34
570.82	1839.08
571.01	1718.25
571.21	1681.38
571.40	1683.43
571.60	1839.08
571.79	1726.44
571.99	1828.84
572.18	1728.49
572.38	1806.31
572.57	1720.29
572.77	1847.27
572.96	1853.41
573.16	1716.20
573.35	1642.47
573.55	1820.64
573.74	1738.73
573.94	1667.05
574.13	1712.10
574.33	1699.81
574.52	1810.40
574.71	1755.11
574.91	1771.49
575.10	1683.43
575.30	1763.30
575.49	1669.09
575.69	1732.58
575.88	1730.53
576.08	1662.95
576.27	1728.49
576.47	1634.28
576.66	1832.93
576.86	1800.16
577.05	1740.77
577.25	1830.88
577.44	1880.04
577.64	1636.33
577.83	1779.68
578.02	1751.01
578.22	1861.60
578.41	1837.03
578.61	1722.34
578.80	1665.00
579.00	1710.05
579.19	1724.39
579.39	1826.79
579.58	1804.26
579.77	1632.23
579.97	1791.97
580.16	1863.65
580.36	1822.69
580.55	1746.92
580.75	1755.11
580.94	1779.68
581.13	1796.07
581.33	1834.98
581.52	1718.25
581.72	1871.84
581.91	1771.49
582.11	1656.81
582.30	1771.49
582.49	1755.11
582.69	1853.41
582.88	1748.97
583.08	1759.21
583.27	1771.49
583.47	1712.10
583.66	1712.10
583.85	1730.53
584.05	1689.57
584.24	1783.78
584.44	1742.82
584.63	1828.84
584.82	1802.21
585.02	1773.54
585.21	1769.44
585.41	1777.64
585.60	1787.88
585.79	1908.71
585.99	1937.38
586.18	1886.18
586.37	2123.74
586.57	3479.50
586.76	9998.18
586.96	24856.20
587.15	35048.94
587.34	41076.11
587.54	43021.68
587.73	37047.75
587.93	26478.19
588.12	21642.93
588.31	18552.55
588.51	16498.44
588.70	15466.26
588.89	14407.46
589.09	12814.14
589.28	11030.36
589.47	9609.07
589.67	8087.43
589.86	6604.70
590.06	4982.71
590.25	3950.53
590.44	3080.14
590.64	2488.28
590.83	2224.09
591.02	2142.18
591.22	1931.23
591.41	1791.97
591.60	1820.64
591.80	1896.42
591.99	1697.77
592.18	1804.26
592.38	1863.65
592.57	1703.91
592.76	1767.40
592.96	1703.91
593.15	1697.77
593.34	1732.58
593.54	1773.54
593.73	1777.64
593.92	1726.44
594.12	1669.09
594.31	1736.68
594.50	1775.59
594.70	1837.03
594.89	1837.03
595.08	1738.73
595.28	1769.44
595.47	1812.45
595.66	1787.88
595.86	1662.95
596.05	1765.35
596.24	1693.67
596.43	1726.44
596.63	1810.40
596.82	1705.96
597.01	1671.14
597.21	1794.02
597.40	1667.05
597.59	1654.76
597.79	1744.87
597.98	1738.73
598.17	1738.73
598.36	1708.01
598.56	1765.35
598.75	1660.90
598.94	1681.38
599.14	1748.97
599.33	1744.87
599.52	1730.53
599.71	1732.58
599.91	1796.07
600.10	1751.01
600.29	1757.16
600.48	1662.95
600.68	1804.26
600.87	1755.11
601.06	1712.10
601.26	1736.68
601.45	1714.15
601.64	1660.90
601.83	1759.21
602.03	1689.57
602.22	1667.05
602.41	1845.22
602.60	1894.37
602.80	1812.45
602.99	1775.59
603.18	1671.14
603.37	1685.48
603.57	1660.90
603.76	1689.57
603.95	1691.62
604.14	1695.72
604.34	1646.57
604.53	1763.30
604.72	1738.73
604.91	1771.49
605.10	1746.92
605.30	1665.00
605.49	1884.13
605.68	1818.60
605.87	1693.67
606.07	1685.48
606.26	1718.25
606.45	1746.92
606.64	1716.20
606.84	1734.63
607.03	1654.76
607.22	1681.38
607.41	1716.20
607.60	1761.25
607.80	1767.40
607.99	1648.61
608.18	1685.48
608.37	1755.11
608.56	1708.01
608.76	1699.81
608.95	1789.92
609.14	1777.64
609.33	1785.83
609.52	1767.40
609.72	1767.40
609.91	1751.01
610.10	1734.63
610.29	1755.11
610.48	1669.09
610.68	1738.73
610.87	1683.43
611.06	1777.64
611.25	1621.99
611.44	1746.92
611.63	1744.87
611.83	1794.02
612.02	1632.23
612.21	1777.64
612.40	1595.37
612.59	1658.85
612.79	1591.27
612.98	1722.34
613.17	1828.84
613.36	1742.82
613.55	1716.20
613.74	1619.94
613.93	1667.05
614.13	1615.85
614.32	1734.63
614.51	1814.50
614.70	1781.73
614.89	1724.39
615.08	1720.29
615.28	2123.74
615.47	1624.04
615.66	1691.62
615.85	1714.15
616.04	1800.16
616.23	1710.05
616.42	1685.48
616.62	1716.20
616.81	1759.21
617.00	1619.94
617.19	1751.01
617.38	1650.66
617.57	1705.96
617.76	1804.26
617.95	1730.53
618.15	1714.15
618.34	1810.40
618.53	1652.71
618.72	1789.92
618.91	1785.83
619.10	1783.78
619.29	1757.16
619.48	1769.44
619.68	1599.46
619.87	1701.86
620.06	1730.53
620.25	1718.25
620.44	1624.04
620.63	1753.06
620.82	1675.24
621.01	1722.34
621.20	1740.77
621.39	1808.36
621.59	1740.77
621.78	1718.25
621.97	1658.85
622.16	1757.16
622.35	1714.15
622.54	1816.55
622.73	1800.16
622.92	1710.05
623.11	1695.72
623.30	1708.01
623.49	1744.87
623.68	1677.29
623.88	1730.53
624.07	1667.05
624.26	1757.16
624.45	1662.95
624.64	1714.15
624.83	1783.78
625.02	1683.43
625.21	1691.62
625.40	1656.81
625.59	1765.35
625.78	1734.63
625.97	1853.41
626.16	1681.38
626.35	1787.88
626.54	1732.58
626.74	1724.39
626.93	1683.43
627.12	1691.62
627.31	1796.07
627.50	1714.15
627.69	1720.29
627.88	1671.14
628.07	1685.48
628.26	1607.66
628.45	1644.52
628.64	1669.09
628.83	1769.44
629.02	1585.13
629.21	1781.73
629.40	1718.25
629.59	1603.56
629.78	1697.77
629.97	1665.00
630.16	1681.38
630.35	1626.09
630.54	1665.00
630.73	1712.10
630.92	1658.85
631.11	1699.81
631.30	1781.73
631.49	1691.62
631.68	1701.86
631.87	1751.01
632.06	1650.66
632.25	1871.84
632.44	1701.86
632.63	1779.68
632.82	1734.63
633.01	1607.66
633.20	1601.51
633.39	1613.80
633.58	1660.90
633.77	1660.90
633.96	1714.15
634.15	1808.36
634.34	1722.34
634.53	1789.92
634.72	1705.96
634.91	1654.76
635.10	1667.05
635.29	1787.88
635.48	1646.57
635.67	1583.08
635.86	1662.95
636.05	1822.69
636.24	1632.23
636.43	1748.97
636.62	1787.88
636.81	1650.66
637.00	1669.09
637.19	1691.62
637.38	1648.61
637.57	1642.47
637.76	1597.42
637.95	1730.53
638.14	1624.04
638.33	1691.62
638.52	1730.53
638.71	1703.91
638.89	1644.52
639.08	1787.88
639.27	1761.25
639.46	1658.85
639.65	1789.92
639.84	1681.38
640.03	1722.34
640.22	1667.05
640.41	1798.12
640.60	1693.67
640.79	1708.01
640.98	1720.29
641.17	1705.96
641.36	1703.91
641.55	1656.81
641.74	1644.52
641.92	1652.71
642.11	1578.98
642.30	1693.67
642.49	1705.96
642.68	1710.05
642.87	1665.00
643.06	1746.92
643.25	1640.42
643.44	1632.23
643.63	1665.00
643.82	1734.63
644.00	1689.57
644.19	1669.09
644.38	1603.56
644.57	1740.77
644.76	1693.67
644.95	1718.25
645.14	1701.86
645.33	1679.33
645.52	1681.38
645.71	1677.29
645.89	1595.37
646.08	1607.66
646.27	1626.09
646.46	1855.46
646.65	1578.98
646.84	1693.67
647.03	1662.95
647.22	1691.62
647.40	1744.87
647.59	1710.05
647.78	1574.89
647.97	1669.09
648.16	1665.00
648.35	1734.63
648.54	1751.01
648.73	1773.54
648.91	1783.78
649.10	1681.38
649.29	1669.09
649.48	1646.57
649.67	1757.16
649.86	1673.19
650.05	1644.52
650.23	1800.16
650.42	1667.05
650.61	1757.16
650.80	1714.15
650.99	1845.22
651.18	1722.34
651.36	1802.21
651.55	1687.53
651.74	1802.21
651.93	1705.96
652.12	1673.19
652.31	1767.40
652.49	1724.39
652.68	1636.33
652.87	1761.25
653.06	1742.82
653.25	1832.93
653.44	1689.57
653.62	1802.21
653.81	1677.29
654.00	1683.43
654.19	1705.96
654.38	1845.22
654.56	1693.67
654.75	1681.38
654.94	1722.34
655.13	1632.23
655.32	1742.82
655.51	1683.43
655.69	1761.25
655.88	1697.77
656.07	1669.09
656.26	1730.53
656.45	1613.80
656.63	1693.67
656.82	1763.30
657.01	1748.97
657.20	1738.73
657.38	1699.81
657.57	1595.37
657.76	1671.14
657.95	1787.88
658.14	1656.81
658.32	1710.05
658.51	1703.91
658.70	1640.42
658.89	1689.57
659.08	1705.96
659.26	1853.41
659.45	1648.61
659.64	1712.10
659.83	1662.95
660.01	1847.27
660.20	1673.19
660.39	1748.97
660.58	1597.42
660.76	1628.14
660.95	1646.57
661.14	1738.73
661.33	1626.09
661.51	1681.38
661.70	1642.47
661.89	1730.53
662.08	1648.61
662.26	1654.76
662.45	1634.28
662.64	1810.40
662.83	1710.05
663.01	1572.84
663.20	1781.73
663.39	1759.21
663.58	1726.44
663.76	1734.63
663.95	1650.66
664.14	1712.10
664.32	1669.09
664.51	1658.85
664.70	1626.09
664.89	1804.26
665.07	1595.37
665.26	1769.44
665.45	1658.85
665.64	1703.91
665.82	1759.21
666.01	1804.26
666.20	1677.29
666.38	1697.77
666.57	1785.83
666.76	2156.51
666.95	4566.97
667.13	10395.49
667.32	15466.26
667.51	18063.08
667.69	19277.53
667.88	18071.28
668.07	12439.36
668.25	9750.38
668.44	8152.96
668.63	7419.79
668.81	6944.66
669.00	6299.55
669.19	5728.17
669.38	5199.79
669.56	4607.93
669.75	3860.42
669.94	3450.83
670.12	2912.21
670.31	2482.14
670.50	2285.53
670.68	2129.89
670.87	1968.10
671.06	1822.69
671.24	1765.35
671.43	1853.41
671.62	1773.54
671.80	1638.38
671.99	1761.25
672.18	1660.90
672.36	1693.67
672.55	1740.77
672.74	1679.33
672.92	1722.34
673.11	1705.96
673.29	1611.75
673.48	1685.48
673.67	1710.05
673.85	1669.09
674.04	1665.00
674.23	1703.91
674.41	1755.11
674.60	1624.04
674.79	1634.28
674.97	1617.90
675.16	1734.63
675.34	1779.68
675.53	1626.09
675.72	1759.21
675.90	1820.64
676.09	1660.90
676.28	1730.53
676.46	1630.18
676.65	1705.96
676.83	1642.47
677.02	1683.43
677.21	1712.10
677.39	1683.43
677.58	1632.23
677.77	1675.24
677.95	1718.25
678.14	1667.05
678.32	1646.57
678.51	1751.01
678.70	1832.93
678.88	1726.44
679.07	1734.63
679.25	1714.15
679.44	1673.19
679.63	1644.52
679.81	1710.05
680.00	1775.59
680.18	1787.88
680.37	1765.35
680.55	1636.33
680.74	1626.09
680.93	1644.52
681.11	1652.71
681.30	1726.44
681.48	1673.19
681.67	1728.49
681.85	1679.33
682.04	1648.61
682.23	1785.83
682.41	1687.53
682.60	1644.52
682.78	1669.09
682.97	1689.57
683.15	1744.87
683.34	1718.25
683.53	1798.12
683.71	1648.61
683.90	1751.01
684.08	1841.12
684.27	1689.57
684.45	1755.11
684.64	1783.78
684.82	1675.24
685.01	1759.21
685.19	1685.48
685.38	1673.19
685.57	1648.61
685.75	1613.80
685.94	1660.90
686.12	1644.52
686.31	1701.86
686.49	1718.25
686.68	1576.94
686.86	1759.21
687.05	1718.25
687.23	1763.30
687.42	1724.39
687.60	1603.56
687.79	1689.57
687.97	1755.11
688.16	1714.15
688.34	1761.25
688.53	1667.05
688.71	1730.53
688.90	1779.68
689.08	1685.48
689.27	1562.60
689.45	1720.29
689.64	1794.02
689.82	1748.97
690.01	1699.81
690.19	1775.59
690.38	1691.62
690.56	1755.11
690.75	1660.90
690.93	1607.66
691.12	1644.52
691.30	1687.53
691.49	1701.86
691.67	1701.86
691.86	1779.68
692.04	1691.62
692.23	1681.38
692.41	1738.73
692.60	1789.92
692.78	1687.53
692.97	1671.14
693.15	1732.58
693.34	1802.21
693.52	1746.92
693.71	1697.77
693.89	1662.95
694.08	1644.52
694.26	1722.34
694.44	1665.00
694.63	1763.30
694.81	1607.66
695.00	1624.04
695.18	1691.62
695.37	1830.88
695.55	1759.21
695.74	1652.71
695.92	1652.71
696.10	1638.38
696.29	1638.38
696.47	1730.53
696.66	1695.72
696.84	1581.03
697.03	1701.86
697.21	1783.78
697.40	2299.87
697.58	1738.73
697.76	1644.52
697.95	1665.00
698.13	1660.90
698.32	1642.47
698.50	1665.00
698.68	1734.63
698.87	1703.91
699.05	1800.16
699.24	1730.53
699.42	1689.57
699.61	1755.11
699.79	1665.00
699.97	1677.29
700.16	1581.03
700.34	1595.37
700.53	1689.57
700.71	1720.29
700.89	1771.49
701.08	1705.96
701.26	1736.68
701.45	2084.83
701.63	1738.73
701.81	1679.33
702.00	1691.62
702.18	1644.52
702.37	1656.81
702.55	1714.15
702.73	1751.01
702.92	1650.66
703.10	1742.82
703.28	1738.73
703.47	1609.70
703.65	1798.12
703.84	1732.58
704.02	1638.38
704.20	1710.05
704.39	1679.33
704.57	1687.53
704.75	1746.92
704.94	1779.68
705.12	1722.34
705.30	1701.86
705.49	2205.66
705.67	4343.74
705.86	9631.60
706.04	12945.21
706.22	14802.72
706.41	15605.52
706.59	14182.18
706.77	9713.52
706.96	7669.64
707.14	6578.08
707.32	6119.33
707.51	5748.65
707.69	5017.52
707.87	4345.79
708.06	3575.75
708.24	2975.70
708.42	2426.84
708.61	2203.61
708.79	1996.77
708.97	1927.14
709.16	1773.54
709.34	1800.16
709.52	1677.29
709.71	1755.11
709.89	1742.82
710.07	1728.49
710.26	1599.46
710.44	1765.35
710.62	1734.63
710.80	1705.96
710.99	1669.09
711.17	1714.15
711.35	1632.23
711.54	1703.91
711.72	1781.73
711.90	1740.77
712.09	1757.16
712.27	1712.10
712.45	1644.52
712.63	1697.77
712.82	1740.77
713.00	1656.81
713.18	1777.64
713.37	1818.60
713.55	1742.82
713.73	1642.47
713.91	1679.33
714.10	1675.24
714.28	1626.09
714.46	1691.62
714.65	1800.16
714.83	1712.10
715.01	1716.20
715.19	1597.42
715.38	1697.77
715.56	1734.63
715.74	1648.61
715.92	1718.25
716.11	1791.97
716.29	1634.28
716.47	1650.66
716.65	1802.21
716.84	1673.19
717.02	1742.82
717.20	1515.50
717.38	1638.38
717.57	1640.42
717.75	1724.39
717.93	1605.61
718.11	1748.97
718.30	1609.70
718.48	1728.49
718.66	1748.97
718.84	1716.20
719.03	1660.90
719.21	1687.53
719.39	1757.16
719.57	1708.01
719.75	1781.73
719.94	1611.75
720.12	1716.20
720.30	1628.14
720.48	1755.11
720.67	1736.68
720.85	1619.94
721.03	1681.38
721.21	1679.33
721.39	1775.59
721.58	1744.87
721.76	1671.14
721.94	1753.06
722.12	1740.77
722.30	1761.25
722.49	1710.05
722.67	1708.01
722.85	1746.92
723.03	1634.28
723.21	1679.33
723.40	1621.99
723.58	1771.49
723.76	1767.40
723.94	1769.44
724.12	1759.21
724.30	1738.73
724.49	1759.21
724.67	1576.94
724.85	1783.78
725.03	1597.42
725.21	1775.59
725.40	1810.40
725.58	1638.38
725.76	1777.64
725.94	1724.39
726.12	1679.33
726.30	1726.44
726.49	1689.57
726.67	1628.14
726.85	1777.64
727.03	1781.73
727.21	2107.36
727.39	2908.12
727.57	3741.64
727.76	4192.19
727.94	4401.08
728.12	4394.94
728.30	3696.58
728.48	2910.16
728.66	2809.81
728.84	2562.01
729.03	2349.02
729.21	2109.41
729.39	1988.58
729.57	1816.55
729.75	1773.54
729.93	1816.55
730.11	1746.92
730.30	1736.68
730.48	1716.20
730.66	1810.40
730.84	1787.88
731.02	1658.85
731.20	1701.86
731.38	1722.34
731.56	1626.09
731.74	1640.42
731.93	1677.29
732.11	1652.71
732.29	1665.00
732.47	1761.25
732.65	1642.47
732.83	1773.54
733.01	1775.59
733.19	1689.57
733.37	1667.05
733.56	1732.58
733.74	1650.66
733.92	1708.01
734.10	1619.94
734.28	1720.29
734.46	1681.38
734.64	1624.04
734.82	1703.91
735.00	1673.19
735.18	1724.39
735.36	1654.76
735.54	1669.09
735.73	1650.66
735.91	1716.20
736.09	1746.92
736.27	1632.23
736.45	1736.68
736.63	1619.94
736.81	1734.63
736.99	1767.40
737.17	1759.21
737.35	1615.85
737.53	1669.09
737.71	1644.52
737.89	1751.01
738.07	1665.00
738.25	1724.39
738.43	1619.94
738.61	1669.09
738.80	1654.76
738.98	1624.04
739.16	1742.82
739.34	1718.25
739.52	1740.77
739.70	1685.48
739.88	1742.82
740.06	1798.12
740.24	1599.46
740.42	1775.59
740.60	1593.32
740.78	1636.33
740.96	1611.75
741.14	1718.25
741.32	1742.82
741.50	1634.28
741.68	1859.56
741.86	1681.38
742.04	1673.19
742.22	1681.38
742.40	1708.01
742.58	1728.49
742.76	1652.71
742.94	1818.60
743.12	1581.03
743.30	1683.43
743.48	1683.43
743.66	1632.23
743.84	1740.77
744.02	1689.57
744.20	1624.04
744.38	1701.86
744.56	1656.81
744.74	1761.25
744.92	1714.15
745.10	1726.44
745.28	1757.16
745.46	1716.20
745.64	1554.41
745.82	1683.43
746.00	1644.52
746.18	1718.25
746.36	1648.61
746.54	1708.01
746.72	1679.33
746.90	1611.75
747.08	1759.21
747.26	1693.67
747.44	1714.15
747.62	1734.63
747.80	1724.39
747.98	1697.77
748.15	1619.94
748.33	1691.62
748.51	1689.57
748.69	1689.57
748.87	1660.90
749.05	1683.43
749.23	1679.33
749.41	1656.81
749.59	1722.34
749.77	1714.15
749.95	1708.01
750.13	1660.90
750.31	1746.92
750.49	1624.04
750.67	1740.77
750.85	1818.60
751.03	1724.39
751.20	1810.40
751.38	1728.49
751.56	1652.71
751.74	1716.20
751.92	1665.00
752.10	1685.48
752.28	1783.78
752.46	1642.47
752.64	1710.05
752.82	1636.33
753.00	1742.82
753.18	1648.61
753.35	1726.44
753.53	1701.86
753.71	1671.14
753.89	1726.44
754.07	1689.57
754.25	1732.58
754.43	1730.53
754.61	1589.22
754.79	1681.38
754.97	1605.61
755.14	1796.07
755.32	1660.90
755.50	1677.29
755.68	1654.76
755.86	1665.00
756.04	1685.48
756.22	1695.72
756.40	1699.81
756.57	1816.55
756.75	1644.52
756.93	1718.25
757.11	1753.06
757.29	1677.29
757.47	1656.81
757.65	1673.19
757.82	1554.41
758.00	1693.67
758.18	1699.81
758.36	1642.47
758.54	1869.80
758.72	1576.94
758.90	1642.47
759.07	1714.15
759.25	1689.57
759.43	1798.12
759.61	1648.61
759.79	2193.37
759.97	1759.21
760.15	1595.37
760.32	1710.05
760.50	1636.33
760.68	1753.06
760.86	1650.66
761.04	1708.01
761.22	1677.29
761.39	1669.09
761.57	1693.67
761.75	1669.09
761.93	1658.85
762.11	1724.39
762.28	1644.52
762.46	1708.01
762.64	1724.39
762.82	1558.50
763.00	1581.03
763.18	1740.77
763.35	1673.19
763.53	1632.23
763.71	1654.76
763.89	1665.00
764.07	1724.39
764.24	1742.82
764.42	1769.44
764.60	1673.19
764.78	1732.58
764.96	1748.97
765.13	1734.63
765.31	1687.53
765.49	1691.62
765.67	1738.73
765.84	1611.75
766.02	1669.09
766.20	1619.94
766.38	1710.05
766.56	1671.14
766.73	1656.81
766.91	1667.05
767.09	1691.62
767.27	1652.71
767.44	1687.53
767.62	1757.16
767.80	1708.01
767.98	1665.00
768.15	1660.90
768.33	1730.53
768.51	1652.71
768.69	1746.92
768.87	1718.25
769.04	1675.24
769.22	1781.73
769.40	1828.84
769.58	1892.32
769.75	1751.01
769.93	1740.77
770.11	1658.85
770.28	1603.56
770.46	1697.77
770.64	1755.11
770.82	1712.10
770.99	1630.18
771.17	1683.43
771.35	1697.77
771.53	1726.44
771.70	1595.37
771.88	1738.73
772.06	1689.57
772.23	1718.25
772.41	1691.62
772.59	1613.80
772.77	1677.29
772.94	1650.66
773.12	1734.63
773.30	1597.42
773.47	1681.38
773.65	1642.47
773.83	1765.35
774.01	1654.76
774.18	1603.56
774.36	1648.61
774.54	1560.55
774.71	1742.82
774.89	1572.84
775.07	1699.81
775.24	1662.95
775.42	1710.05
775.60	1753.06
775.78	1650.66
775.95	1634.28
776.13	1611.75
776.31	1570.79
776.48	1695.72
776.66	1779.68
776.84	1644.52
777.01	1607.66
777.19	1660.90
777.37	1669.09
777.54	1669.09
777.72	1804.26
777.90	1656.81
778.07	1654.76
778.25	1828.84
778.43	1779.68
778.60	1650.66
778.78	1720.29
778.96	1787.88
779.13	1667.05
779.31	1753.06
779.49	1740.77
779.66	1685.48
779.84	1583.08
780.01	1654.76
780.19	1581.03
780.37	1730.53
780.54	1767.40
780.72	1646.57
780.90	1634.28
781.07	1751.01
781.25	1656.81
781.43	1746.92
781.60	1640.42
781.78	1759.21
781.95	1673.19
782.13	1693.67
782.31	1791.97
782.48	1624.04
782.66	1781.73
782.83	1859.56
783.01	1665.00
783.19	1757.16
783.36	1669.09
783.54	1652.71
783.72	1681.38
783.89	1640.42
784.07	1695.72
784.24	1683.43
784.42	1775.59
784.60	1681.38
784.77	1765.35
784.95	1562.60
785.12	1673.19
785.30	1613.80
785.47	1619.94
785.65	1607.66
785.83	1665.00
786.00	1644.52
786.18	1693.67
786.35	1695.72
786.53	1708.01
786.71	1710.05
786.88	1738.73
787.06	1716.20
787.23	1712.10
787.41	1599.46
787.58	1718.25
787.76	1652.71
787.94	1617.90
788.11	1705.96
788.29	1585.13
788.46	1716.20
788.64	1648.61
788.81	1613.80
788.99	1685.48
789.16	1648.61
789.34	1779.68
789.52	1667.05
789.69	1693.67
789.87	1603.56
790.04	1636.33
790.22	1693.67
790.39	1800.16
790.57	1626.09
790.74	1662.95
790.92	1767.40
791.09	1617.90
791.27	1742.82
791.44	1705.96
791.62	1650.66
791.79	1728.49
791.97	1630.18
792.15	1816.55
792.32	1667.05
792.50	1769.44
792.67	1826.79
792.85	1767.40
793.02	1697.77
793.20	1673.19
793.37	1566.70
793.55	1714.15
793.72	1589.22
793.90	1712.10
794.07	1671.14
794.25	1650.66
794.42	1767.40
794.60	1728.49
794.77	1726.44
794.95	1710.05
795.12	1689.57
795.30	1679.33
795.47	1560.55
795.65	1824.74
795.82	1710.05
796.00	1644.52
796.17	1691.62
796.34	1646.57
796.52	1689.57
796.69	1785.83
796.87	1708.01
797.04	1718.25
797.22	1744.87
797.39	1746.92
797.57	1824.74
797.74	1673.19
797.92	1720.29
798.09	1656.81
798.27	1783.78
798.44	1763.30
798.62	1683.43
798.79	1632.23
798.96	1714.15
799.14	1730.53
799.31	1843.17
799.49	1656.81
799.66	1619.94
799.84	1703.91
800.01	1581.03
800.19	1654.76
800.36	1644.52
800.53	1722.34
800.71	1562.60
800.88	1755.11
801.06	1609.70
801.23	1640.42
801.41	1720.29
801.58	1681.38
801.75	1650.66
801.93	1681.38
802.10	1730.53
802.28	1695.72
802.45	1677.29
802.63	1759.21
802.80	1730.53
802.97	1697.77
803.15	1736.68
803.32	1667.05
803.50	1683.43
803.67	1656.81
803.84	1665.00
804.02	1712.10
804.19	1699.81
804.37	1542.12
804.54	1667.05
804.71	1695.72
804.89	1646.57
805.06	1642.47
805.24	1593.32
805.41	1654.76
805.58	1560.55
805.76	1761.25
805.93	1753.06
806.10	1804.26
806.28	1746.92
806.45	1757.16
806.63	1673.19
806.80	1710.05
806.97	1599.46
807.15	1609.70
807.32	1648.61
807.49	1708.01
807.67	1572.84
807.84	1710.05
808.01	1652.71
808.19	1681.38
808.36	1789.92
808.54	1699.81
808.71	1587.18
808.88	1673.19
809.06	1681.38
809.23	1804.26
809.40	1648.61
809.58	1703.91
809.75	1769.44
809.92	1603.56
810.10	1789.92
810.27	1718.25
810.44	1718.25
810.62	1726.44
810.79	1695.72
810.96	1673.19
811.14	1644.52
811.31	1787.88
811.48	1667.05
811.66	1757.16
811.83	1724.39
812.00	1746.92
812.18	1712.10
812.35	1765.35
812.52	1665.00
812.69	1630.18
812.87	1683.43
813.04	1646.57
813.21	1681.38
813.39	1624.04
813.56	1607.66
813.73	1763.30
813.91	1542.12
814.08	1667.05
814.25	1648.61
814.42	1595.37
814.60	1650.66
814.77	1665.00
814.94	1650.66
815.12	1740.77
815.29	1769.44
815.46	1615.85
815.63	1740.77
815.81	1714.15
815.98	1615.85
816.15	1667.05
816.33	1654.76
816.50	1607.66
816.67	1603.56
816.84	1585.13
817.02	1607.66
817.19	1697.77
817.36	1660.90
817.53	1767.40
817.71	1581.03
817.88	1755.11
818.05	1681.38
818.22	1662.95
818.40	1767.40
818.57	1689.57
818.74	1763.30
818.91	1724.39
819.09	1744.87
819.26	1791.97
819.43	1669.09
819.60	1656.81
819.78	1730.53
819.95	1832.93
820.12	1642.47
820.29	1708.01
820.47	1734.63
820.64	1671.14
820.81	1662.95
820.98	1665.00
821.15	1671.14
821.33	1724.39
821.50	1628.14
821.67	1718.25
821.84	1658.85
822.02	1665.00
822.19	1759.21
822.36	1714.15
822.53	1652.71
822.70	1652.71
822.88	1654.76
823.05	1767.40
823.22	1642.47
823.39	1681.38
823.56	1675.24
823.74	1767.40
823.91	1611.75
824.08	1656.81
824.25	1609.70
824.42	1742.82
824.60	1671.14
824.77	1652.71
824.94	1652.71
825.11	1716.20
825.28	1624.04
825.45	1675.24
825.63	1757.16
825.80	1662.95
825.97	1710.05
826.14	1591.27
826.31	1617.90
826.48	1689.57
826.66	1611.75
826.83	1636.33
827.00	1720.29
827.17	1656.81
827.34	1607.66
827.51	1605.61
827.69	1658.85
827.86	1607.66
828.03	1726.44
828.20	1718.25
828.37	1671.14
828.54	1755.11
828.71	1595.37
828.89	1751.01
829.06	1724.39
829.23	1716.20
829.40	1705.96
829.57	1681.38
829.74	1755.11
829.91	1701.86
830.09	1636.33
830.26	1673.19
830.43	1695.72
830.60	1642.47
830.77	1662.95
830.94	1769.44
831.11	1720.29
831.28	1695.72
831.46	1710.05
831.63	1730.53
831.80	1824.74
831.97	1595.37
832.14	1722.34
832.31	1660.90
832.48	1761.25
832.65	1724.39
832.82	1708.01
832.99	1687.53
833.17	1595.37
833.34	1658.85
833.51	1677.29
833.68	1617.90
833.85	1791.97
834.02	1662.95
834.19	1673.19
834.36	1685.48
834.53	1710.05
834.70	1779.68
834.87	1759.21
835.04	1628.14
835.22	1646.57
835.39	1726.44
835.56	1576.94
835.73	1675.24
835.90	1675.24
836.07	1644.52
836.24	1685.48
836.41	1652.71
836.58	1669.09
836.75	1724.39
836.92	1759.21
837.09	1646.57
837.26	1699.81
837.43	1720.29
837.60	1697.77
837.77	1665.00
837.94	1714.15
838.12	1740.77
838.29	1681.38
838.46	1597.42
838.63	1665.00
838.80	1708.01
838.97	1710.05
839.14	1693.67
839.31	1716.20
839.48	1701.86
839.65	1738.73
839.82	1767.40
839.99	1722.34
840.16	1662.95
840.33	1693.67
840.50	1722.34
840.67	1613.80
840.84	1601.51
841.01	1785.83
841.18	1714.15
841.35	1716.20
841.52	1751.01
841.69	1742.82
841.86	1714.15
842.03	1710.05
842.20	1767.40
842.37	1710.05
842.54	1722.34
842.71	1755.11
842.88	1636.33
843.05	1722.34
843.22	1650.66
843.39	1687.53
843.56	1656.81
843.73	1673.19
843.90	1599.46
844.07	1677.29
844.24	1773.54
844.41	1720.29
844.58	1705.96
844.75	1734.63
844.92	1701.86
845.09	1693.67
845.26	1724.39
845.43	1660.90
845.60	1644.52
845.77	1771.49
845.94	1648.61
846.10	1751.01
846.27	1611.75
846.44	1634.28
846.61	1665.00
846.78	1673.19
846.95	1710.05
847.12	1665.00
847.29	1730.53
847.46	1599.46
847.63	1703.91
847.80	1642.47
847.97	1667.05
848.14	1806.31
848.31	1675.24
848.48	1576.94
848.65	1697.77
848.82	1687.53
848.98	1820.64
849.15	1710.05
849.32	1789.92
849.49	1738.73
849.66	1718.25
849.83	1708.01
850.00	1634.28
850.17	1677.29
850.34	1701.86
850.51	1662.95
850.68	1712.10
850.85	1814.50
851.01	1755.11
851.18	1691.62
851.35	1648.61
851.52	1730.53
851.69	1748.97
851.86	1560.55
852.03	1634.28
852.20	1685.48
852.37	1644.52
852.53	1593.32
852.70	1646.57
852.87	1665.00
853.04	1751.01
853.21	1679.33
853.38	1738.73
853.55	1775.59
853.72	1701.86
853.89	1560.55
854.05	1609.70
854.22	1677.29
854.39	1660.90
854.56	1705.96
854.73	1726.44
854.90	1642.47
855.07	1697.77
855.23	1687.53
855.40	1621.99
855.57	1681.38
855.74	1570.79
855.91	1806.31
856.08	1644.52
856.25	1642.47
856.41	1646.57
856.58	1648.61
856.75	1687.53
856.92	1667.05
857.09	1736.68
857.26	1562.60
857.42	1619.94
857.59	1660.90
857.76	1634.28
857.93	1705.96
858.10	1767.40
858.27	1613.80
858.43	1687.53
858.60	1548.26
858.77	1615.85
858.94	1609.70
859.11	1662.95
859.27	1671.14
859.44	1679.33
859.61	1710.05
859.78	1738.73
859.95	1636.33
860.12	1679.33
860.28	1832.93
860.45	1804.26
860.62	1685.48
860.79	1716.20
860.95	1626.09
861.12	1675.24
861.29	1720.29
861.46	1632.23
861.63	1681.38
861.79	1738.73
861.96	1640.42
862.13	1697.77
862.30	1818.60
862.47	1591.27
862.63	1648.61
862.80	1738.73
862.97	1783.78
863.14	1757.16
863.30	1646.57
863.47	1720.29
863.64	1751.01
863.81	1687.53
863.97	1681.38
864.14	1699.81
864.31	1734.63
864.48	1726.44
864.65	1656.81
864.81	1732.58
864.98	1748.97
865.15	1652.71
865.32	1636.33
865.48	1783.78
865.65	1806.31
865.82	1615.85
865.98	1671.14
866.15	1718.25
866.32	1591.27
866.49	1603.56
866.65	1718.25
866.82	1697.77
866.99	1687.53
867.16	1640.42
867.32	1703.91
867.49	1683.43
867.66	1675.24
867.83	1697.77
867.99	1650.66
868.16	1714.15
868.33	1673.19
868.49	1665.00
868.66	1636.33
868.83	1736.68
868.99	1683.43
869.16	1720.29
869.33	1738.73
869.50	1751.01
869.66	1650.66
869.83	1699.81
870.00	1634.28
870.16	1720.29
870.33	1685.48
870.50	1751.01
870.66	1685.48
870.83	1816.55
871.00	1662.95
871.17	1726.44
871.33	1701.86
871.50	1658.85
871.67	1640.42
871.83	1552.36
872.00	1796.07
872.17	1683.43
872.33	1791.97
872.50	1728.49
872.67	1667.05
872.83	1703.91
873.00	1595.37
873.17	1685.48
873.33	1695.72
873.50	1738.73
873.67	1687.53
873.83	1679.33
874.00	1763.30
874.16	1669.09
874.33	1708.01
874.50	1681.38
874.66	1685.48
874.83	1689.57
875.00	1755.11
875.16	1722.34
875.33	1751.01
875.50	1646.57
875.66	1693.67
875.83	1640.42
875.99	1710.05
876.16	1591.27
876.33	1665.00
876.49	1636.33
876.66	1699.81
876.83	1630.18
876.99	1640.42
877.16	1591.27
877.32	1640.42
877.49	1638.38
877.66	1667.05
877.82	1767.40
877.99	1677.29
878.15	1744.87
878.32	1685.48
878.49	1630.18
878.65	1675.24
878.82	1691.62
878.98	1593.32
879.15	1714.15
879.32	1746.92
879.48	1693.67
879.65	1687.53
879.81	1656.81
879.98	1656.81
880.15	1689.57
880.31	1730.53
880.48	1566.70
880.64	1791.97
880.81	1701.86
880.97	1734.63
881.14	1771.49
881.31	1681.38
881.47	1828.84
881.64	1628.14
881.80	1667.05
881.97	1687.53
882.13	1658.85
882.30	1636.33
882.47	1667.05
882.63	1646.57
882.80	1656.81
882.96	1683.43
883.13	1814.50
883.29	1669.09
883.46	1736.68
883.62	1839.08
883.79	1693.67
883.95	1681.38
884.12	1691.62
884.29	1755.11
884.45	1681.38
884.62	1677.29
884.78	1667.05
884.95	1763.30
885.11	1695.72
885.28	1736.68
885.44	1642.47
885.61	1746.92
885.77	1714.15
885.94	1718.25
886.10	1626.09
886.27	1638.38
886.43	1775.59
886.60	1673.19
886.76	1689.57
886.93	1667.05
887.09	1656.81
887.26	1607.66
887.42	1632.23
887.59	1699.81
887.75	1765.35
887.92	1757.16
888.08	1699.81
888.25	1798.12
888.41	1714.15
888.58	1613.80
888.74	1685.48
888.91	1658.85
>>>>>End Processed Spectral Data<<<<<
