SpectraSuite Data File
++++++++++++++++++++++++++++++++++++
Date: Mon Jun 06 15:02:37 CEST 2016
User: root
Dark Spectrum Present: No
Reference Spectrum Present: No
Number of Sampled Component Spectra: 1
Spectrometers: USB4C02835
Integration Time (usec): 100000 (USB4C02835)
Spectra Averaged: 1 (USB4C02835)
Boxcar Smoothing: 0 (USB4C02835)
Correct for Electrical Dark: No (USB4C02835)
Strobe/Lamp Enabled: No (USB4C02835)
Correct for Detector Non-linearity: No (USB4C02835)
Correct for Stray Light: No (USB4C02835)
Number of Pixels in Processed Spectrum: 3648
>>>>>Begin Processed Spectral Data<<<<<
177.47	1495.02
177.69	1495.02
177.91	1495.02
178.13	1478.63
178.36	1456.11
178.58	1697.77
178.80	1699.81
179.02	1628.14
179.24	1632.23
179.46	1654.76
179.68	1716.20
179.90	1644.52
180.13	1687.53
180.35	1665.00
180.57	1699.81
180.79	1701.86
181.01	1630.18
181.23	1777.64
181.45	1736.68
181.67	1728.49
181.90	1673.19
182.12	1578.98
182.34	1601.51
182.56	1687.53
182.78	1695.72
183.00	1718.25
183.22	1728.49
183.44	1619.94
183.66	1888.23
183.89	1787.88
184.11	1738.73
184.33	1662.95
184.55	1744.87
184.77	1740.77
184.99	1726.44
185.21	1652.71
185.43	1839.08
185.65	1634.28
185.87	1738.73
186.10	1867.75
186.32	1873.89
186.54	1783.78
186.76	1665.00
186.98	1861.60
187.20	1732.58
187.42	1746.92
187.64	1691.62
187.86	1755.11
188.08	1697.77
188.30	1763.30
188.52	1636.33
188.75	1767.40
188.97	1718.25
189.19	1720.29
189.41	1615.85
189.63	1724.39
189.85	1714.15
190.07	1578.98
190.29	1650.66
190.51	1687.53
190.73	1613.80
190.95	1767.40
191.17	1705.96
191.39	1591.27
191.61	1705.96
191.84	1638.38
192.06	1718.25
192.28	1613.80
192.50	1822.69
192.72	1675.24
192.94	1685.48
193.16	1806.31
193.38	1726.44
193.60	1648.61
193.82	1703.91
194.04	1769.44
194.26	1685.48
194.48	1699.81
194.70	1705.96
194.92	1630.18
195.14	1740.77
195.36	1646.57
195.58	1705.96
195.80	1654.76
196.02	1630.18
196.24	1703.91
196.46	1791.97
196.69	1665.00
196.91	1863.65
197.13	1665.00
197.35	1662.95
197.57	1705.96
197.79	1714.15
198.01	1691.62
198.23	1665.00
198.45	1710.05
198.67	1681.38
198.89	1648.61
199.11	1759.21
199.33	1681.38
199.55	1552.36
199.77	1683.43
199.99	1751.01
200.21	1646.57
200.43	1767.40
200.65	1624.04
200.87	1587.18
201.09	1646.57
201.31	1681.38
201.53	1705.96
201.75	1726.44
201.97	1685.48
202.19	1722.34
202.41	1685.48
202.63	1869.80
202.85	1689.57
203.07	1699.81
203.29	1660.90
203.51	1632.23
203.73	1662.95
203.95	1830.88
204.17	1759.21
204.39	1802.21
204.61	1699.81
204.83	1705.96
205.05	1685.48
205.27	1736.68
205.49	1806.31
205.71	1665.00
205.93	1693.67
206.15	1681.38
206.37	1751.01
206.59	1693.67
206.81	1642.47
207.03	1656.81
207.25	1675.24
207.47	1724.39
207.69	1710.05
207.91	1777.64
208.13	1814.50
208.34	1689.57
208.56	1654.76
208.78	1722.34
209.00	1617.90
209.22	1695.72
209.44	1671.14
209.66	1667.05
209.88	1718.25
210.10	1701.86
210.32	1644.52
210.54	1812.45
210.76	1734.63
210.98	1738.73
211.20	1630.18
211.42	1730.53
211.64	1744.87
211.86	1742.82
212.08	1736.68
212.30	1650.66
212.52	1669.09
212.74	1691.62
212.96	1738.73
213.17	1785.83
213.39	1677.29
213.61	1765.35
213.83	1595.37
214.05	1675.24
214.27	1718.25
214.49	1693.67
214.71	1724.39
214.93	1802.21
215.15	1724.39
215.37	1753.06
215.59	1634.28
215.81	1810.40
216.03	1724.39
216.24	1646.57
216.46	1671.14
216.68	1710.05
216.90	1839.08
217.12	1685.48
217.34	1687.53
217.56	1740.77
217.78	1718.25
218.00	1705.96
218.22	1734.63
218.44	1726.44
218.66	1714.15
218.87	1789.92
219.09	1697.77
219.31	1724.39
219.53	1656.81
219.75	1613.80
219.97	1644.52
220.19	1820.64
220.41	1712.10
220.63	1771.49
220.85	1705.96
221.06	1648.61
221.28	1759.21
221.50	1738.73
221.72	1703.91
221.94	1689.57
222.16	1708.01
222.38	1724.39
222.60	1763.30
222.82	1665.00
223.03	1712.10
223.25	1640.42
223.47	1742.82
223.69	1777.64
223.91	1677.29
224.13	1679.33
224.35	1630.18
224.57	1777.64
224.78	1742.82
225.00	1669.09
225.22	1640.42
225.44	1755.11
225.66	1730.53
225.88	1636.33
226.10	1759.21
226.32	1705.96
226.53	1783.78
226.75	1648.61
226.97	1660.90
227.19	1755.11
227.41	1695.72
227.63	1652.71
227.85	1591.27
228.06	1742.82
228.28	1669.09
228.50	1789.92
228.72	1607.66
228.94	1699.81
229.16	1646.57
229.37	1632.23
229.59	1660.90
229.81	1753.06
230.03	1710.05
230.25	1646.57
230.47	1603.56
230.69	1574.89
230.90	1718.25
231.12	1656.81
231.34	1718.25
231.56	1716.20
231.78	1617.90
232.00	1712.10
232.21	1662.95
232.43	1669.09
232.65	1564.65
232.87	1806.31
233.09	1572.84
233.30	1656.81
233.52	1718.25
233.74	1671.14
233.96	1703.91
234.18	1652.71
234.40	1697.77
234.61	1740.77
234.83	1632.23
235.05	1677.29
235.27	1832.93
235.49	1779.68
235.70	1677.29
235.92	1816.55
236.14	1609.70
236.36	1871.84
236.58	1630.18
236.79	1716.20
237.01	1652.71
237.23	1703.91
237.45	1808.36
237.67	1685.48
237.88	1742.82
238.10	1812.45
238.32	1681.38
238.54	1681.38
238.76	1708.01
238.97	1642.47
239.19	1667.05
239.41	1722.34
239.63	1787.88
239.85	1687.53
240.06	1650.66
240.28	1710.05
240.50	1730.53
240.72	1738.73
240.93	1685.48
241.15	1777.64
241.37	1683.43
241.59	1769.44
241.81	1679.33
242.02	1748.97
242.24	1691.62
242.46	1705.96
242.68	1646.57
242.89	1808.36
243.11	1755.11
243.33	1677.29
243.55	1658.85
243.76	1769.44
243.98	1742.82
244.20	1765.35
244.42	1689.57
244.64	1656.81
244.85	1632.23
245.07	1656.81
245.29	1775.59
245.51	1679.33
245.72	1728.49
245.94	1746.92
246.16	1714.15
246.38	1761.25
246.59	1640.42
246.81	1619.94
247.03	1673.19
247.24	1607.66
247.46	1669.09
247.68	1691.62
247.90	1624.04
248.11	1671.14
248.33	1722.34
248.55	1685.48
248.77	1761.25
248.98	1716.20
249.20	1841.12
249.42	1777.64
249.64	1687.53
249.85	1712.10
250.07	1656.81
250.29	1720.29
250.50	1832.93
250.72	1624.04
250.94	1693.67
251.16	1794.02
251.37	1798.12
251.59	1759.21
251.81	1748.97
252.02	1791.97
252.24	1669.09
252.46	1726.44
252.68	1576.94
252.89	1751.01
253.11	1568.74
253.33	1781.73
253.54	1708.01
253.76	1642.47
253.98	1675.24
254.20	1726.44
254.41	1603.56
254.63	1695.72
254.85	1650.66
255.06	1685.48
255.28	1744.87
255.50	1693.67
255.71	1671.14
255.93	1632.23
256.15	1611.75
256.36	1746.92
256.58	1644.52
256.80	1779.68
257.02	1705.96
257.23	1757.16
257.45	1685.48
257.67	1746.92
257.88	1685.48
258.10	1689.57
258.32	1748.97
258.53	1763.30
258.75	1753.06
258.97	1624.04
259.18	1611.75
259.40	1736.68
259.62	1755.11
259.83	1746.92
260.05	1638.38
260.27	1961.95
260.48	1744.87
260.70	1703.91
260.92	1708.01
261.13	1703.91
261.35	1726.44
261.57	1796.07
261.78	1613.80
262.00	1613.80
262.22	1683.43
262.43	1689.57
262.65	1705.96
262.86	1720.29
263.08	1837.03
263.30	1611.75
263.51	1583.08
263.73	1701.86
263.95	1814.50
264.16	1603.56
264.38	1746.92
264.60	1755.11
264.81	1703.91
265.03	1787.88
265.25	1757.16
265.46	1669.09
265.68	1677.29
265.89	1722.34
266.11	1593.32
266.33	1773.54
266.54	1689.57
266.76	1804.26
266.98	1634.28
267.19	1798.12
267.41	1740.77
267.62	1759.21
267.84	1642.47
268.06	1753.06
268.27	1697.77
268.49	1791.97
268.70	1787.88
268.92	1763.30
269.14	1695.72
269.35	1675.24
269.57	1734.63
269.79	1716.20
270.00	1677.29
270.22	1849.32
270.43	1691.62
270.65	1591.27
270.87	1693.67
271.08	1769.44
271.30	1712.10
271.51	1636.33
271.73	1732.58
271.95	1767.40
272.16	1671.14
272.38	1718.25
272.59	1595.37
272.81	1642.47
273.02	1689.57
273.24	1738.73
273.46	1675.24
273.67	1646.57
273.89	1665.00
274.10	1669.09
274.32	1804.26
274.54	1722.34
274.75	1755.11
274.97	1683.43
275.18	1800.16
275.40	1746.92
275.61	1662.95
275.83	1718.25
276.05	1595.37
276.26	1644.52
276.48	1748.97
276.69	1599.46
276.91	1660.90
277.12	1771.49
277.34	1742.82
277.55	1759.21
277.77	1654.76
277.99	1734.63
278.20	1638.38
278.42	1697.77
278.63	1726.44
278.85	1609.70
279.06	1656.81
279.28	1789.92
279.49	1787.88
279.71	1791.97
279.93	1720.29
280.14	1720.29
280.36	1691.62
280.57	1742.82
280.79	1808.36
281.00	1654.76
281.22	1679.33
281.43	1779.68
281.65	1669.09
281.86	1574.89
282.08	1685.48
282.29	1779.68
282.51	1658.85
282.73	1716.20
282.94	1603.56
283.16	1759.21
283.37	1742.82
283.59	1705.96
283.80	1712.10
284.02	1626.09
284.23	1771.49
284.45	1712.10
284.66	1626.09
284.88	1626.09
285.09	1726.44
285.31	1740.77
285.52	1701.86
285.74	1626.09
285.95	1712.10
286.17	1615.85
286.38	1759.21
286.60	1675.24
286.81	1632.23
287.03	1665.00
287.24	1673.19
287.46	1697.77
287.67	1751.01
287.89	1859.56
288.10	1669.09
288.32	1675.24
288.53	1855.46
288.75	1675.24
288.96	1716.20
289.18	1634.28
289.39	1675.24
289.61	1748.97
289.82	1814.50
290.04	1845.22
290.25	1691.62
290.47	1789.92
290.68	1640.42
290.90	1689.57
291.11	1656.81
291.33	1724.39
291.54	1681.38
291.76	1611.75
291.97	1720.29
292.18	1710.05
292.40	1728.49
292.61	1636.33
292.83	1863.65
293.04	1751.01
293.26	1755.11
293.47	1681.38
293.69	1722.34
293.90	1658.85
294.12	1849.32
294.33	1710.05
294.55	1705.96
294.76	1734.63
294.97	1777.64
295.19	1843.17
295.40	1656.81
295.62	1751.01
295.83	1744.87
296.05	1714.15
296.26	1791.97
296.48	1619.94
296.69	1650.66
296.90	1708.01
297.12	1779.68
297.33	1675.24
297.55	1652.71
297.76	1722.34
297.98	1658.85
298.19	1703.91
298.41	1722.34
298.62	1660.90
298.83	1755.11
299.05	1677.29
299.26	1632.23
299.48	1660.90
299.69	1691.62
299.90	1726.44
300.12	1703.91
300.33	1730.53
300.55	1681.38
300.76	1771.49
300.98	1632.23
301.19	1742.82
301.40	1718.25
301.62	1662.95
301.83	1703.91
302.05	1685.48
302.26	1800.16
302.47	1669.09
302.69	1726.44
302.90	1677.29
303.12	1562.60
303.33	1773.54
303.54	1877.99
303.76	1650.66
303.97	1681.38
304.19	1714.15
304.40	1656.81
304.61	1703.91
304.83	1728.49
305.04	1763.30
305.26	1703.91
305.47	1673.19
305.68	1699.81
305.90	1654.76
306.11	1761.25
306.33	1621.99
306.54	1632.23
306.75	1757.16
306.97	1615.85
307.18	1648.61
307.39	1701.86
307.61	1740.77
307.82	1701.86
308.04	1724.39
308.25	1652.71
308.46	1669.09
308.68	1728.49
308.89	1695.72
309.10	1755.11
309.32	1703.91
309.53	1753.06
309.74	1705.96
309.96	1650.66
310.17	1796.07
310.39	1714.15
310.60	1732.58
310.81	1757.16
311.03	1730.53
311.24	1740.77
311.45	1691.62
311.67	1832.93
311.88	1689.57
312.09	1662.95
312.31	1673.19
312.52	1665.00
312.73	1626.09
312.95	1636.33
313.16	1720.29
313.37	1724.39
313.59	1740.77
313.80	1808.36
314.01	1769.44
314.23	1689.57
314.44	1665.00
314.65	1630.18
314.87	1714.15
315.08	1630.18
315.29	1748.97
315.51	1658.85
315.72	1615.85
315.93	1742.82
316.15	1699.81
316.36	1669.09
316.57	1644.52
316.79	1710.05
317.00	1699.81
317.21	1763.30
317.43	1687.53
317.64	1748.97
317.85	1630.18
318.07	1714.15
318.28	1705.96
318.49	1804.26
318.70	1982.43
318.92	1824.74
319.13	1767.40
319.34	1906.66
319.56	1789.92
319.77	1746.92
319.98	1777.64
320.20	1730.53
320.41	1683.43
320.62	1730.53
320.83	1667.05
321.05	1886.18
321.26	1710.05
321.47	1781.73
321.69	1804.26
321.90	1640.42
322.11	1724.39
322.32	1753.06
322.54	1826.79
322.75	1656.81
322.96	1779.68
323.18	1617.90
323.39	1671.14
323.60	1755.11
323.81	1767.40
324.03	1642.47
324.24	1740.77
324.45	1726.44
324.66	1693.67
324.88	1796.07
325.09	1775.59
325.30	1599.46
325.52	1701.86
325.73	1765.35
325.94	1697.77
326.15	1617.90
326.37	1691.62
326.58	1724.39
326.79	1716.20
327.00	1689.57
327.22	1699.81
327.43	1613.80
327.64	1603.56
327.85	1765.35
328.07	1720.29
328.28	1837.03
328.49	1646.57
328.70	1648.61
328.92	1603.56
329.13	1660.90
329.34	1742.82
329.55	1724.39
329.76	1761.25
329.98	1650.66
330.19	1765.35
330.40	1710.05
330.61	1748.97
330.83	1742.82
331.04	1605.61
331.25	1660.90
331.46	1722.34
331.68	1648.61
331.89	1757.16
332.10	1714.15
332.31	1619.94
332.52	1742.82
332.74	1738.73
332.95	1609.70
333.16	1665.00
333.37	1712.10
333.58	1652.71
333.80	1626.09
334.01	1660.90
334.22	1624.04
334.43	1667.05
334.64	1683.43
334.86	1677.29
335.07	1701.86
335.28	1822.69
335.49	1667.05
335.70	1751.01
335.92	1742.82
336.13	1853.41
336.34	1660.90
336.55	1740.77
336.76	1681.38
336.98	1552.36
337.19	1791.97
337.40	1769.44
337.61	1824.74
337.82	1689.57
338.04	1720.29
338.25	1669.09
338.46	1677.29
338.67	1611.75
338.88	1687.53
339.09	1710.05
339.31	1685.48
339.52	1642.47
339.73	1665.00
339.94	1740.77
340.15	1742.82
340.36	1636.33
340.58	1683.43
340.79	1619.94
341.00	1683.43
341.21	1609.70
341.42	1845.22
341.63	1593.32
341.85	1722.34
342.06	1708.01
342.27	1665.00
342.48	1796.07
342.69	1611.75
342.90	1730.53
343.12	1769.44
343.33	1726.44
343.54	1740.77
343.75	1736.68
343.96	1712.10
344.17	1615.85
344.38	1681.38
344.60	1642.47
344.81	1665.00
345.02	1695.72
345.23	1712.10
345.44	1753.06
345.65	1824.74
345.86	1767.40
346.07	1703.91
346.29	1660.90
346.50	1738.73
346.71	1708.01
346.92	1730.53
347.13	1798.12
347.34	1720.29
347.55	1660.90
347.76	1693.67
347.98	1572.84
348.19	1718.25
348.40	1699.81
348.61	1624.04
348.82	1748.97
349.03	1722.34
349.24	1665.00
349.45	1877.99
349.66	1613.80
349.88	1812.45
350.09	1652.71
350.30	1845.22
350.51	1769.44
350.72	1726.44
350.93	1687.53
351.14	1697.77
351.35	1728.49
351.56	1654.76
351.77	1763.30
351.99	1830.88
352.20	1753.06
352.41	1761.25
352.62	1548.26
352.83	1638.38
353.04	1665.00
353.25	1703.91
353.46	1781.73
353.67	1730.53
353.88	1621.99
354.09	1734.63
354.30	1665.00
354.52	1675.24
354.73	1710.05
354.94	1675.24
355.15	1660.90
355.36	1832.93
355.57	1646.57
355.78	1667.05
355.99	1605.61
356.20	1693.67
356.41	1757.16
356.62	1716.20
356.83	1689.57
357.04	1828.84
357.25	1677.29
357.46	1640.42
357.68	1630.18
357.89	1660.90
358.10	1730.53
358.31	1689.57
358.52	1695.72
358.73	1671.14
358.94	1630.18
359.15	1697.77
359.36	1714.15
359.57	1761.25
359.78	1742.82
359.99	1724.39
360.20	1646.57
360.41	1693.67
360.62	1761.25
360.83	1640.42
361.04	1679.33
361.25	1640.42
361.46	1763.30
361.67	1777.64
361.88	1746.92
362.09	1746.92
362.30	1701.86
362.51	1630.18
362.72	1701.86
362.93	1789.92
363.14	1787.88
363.35	1617.90
363.56	1673.19
363.78	1708.01
363.99	1791.97
364.20	1681.38
364.41	1730.53
364.62	1865.70
364.83	1712.10
365.04	1742.82
365.25	1710.05
365.46	1781.73
365.67	1644.52
365.88	1626.09
366.09	1689.57
366.30	1691.62
366.51	1648.61
366.72	1624.04
366.93	1671.14
367.14	1660.90
367.35	1751.01
367.56	1730.53
367.77	1800.16
367.98	1710.05
368.18	1734.63
368.39	1753.06
368.60	1640.42
368.81	1712.10
369.02	1714.15
369.23	1710.05
369.44	1683.43
369.65	1665.00
369.86	1796.07
370.07	1736.68
370.28	1654.76
370.49	1734.63
370.70	1718.25
370.91	1660.90
371.12	1650.66
371.33	1802.21
371.54	1734.63
371.75	1857.51
371.96	1599.46
372.17	1638.38
372.38	1689.57
372.59	1718.25
372.80	1765.35
373.01	1703.91
373.22	1665.00
373.43	1656.81
373.64	1724.39
373.85	1736.68
374.06	1800.16
374.26	1703.91
374.47	1759.21
374.68	1849.32
374.89	1718.25
375.10	1744.87
375.31	1771.49
375.52	1701.86
375.73	1630.18
375.94	1652.71
376.15	1701.86
376.36	1759.21
376.57	1744.87
376.78	1611.75
376.99	1806.31
377.20	1796.07
377.40	1705.96
377.61	1806.31
377.82	1679.33
378.03	1800.16
378.24	1712.10
378.45	1720.29
378.66	1609.70
378.87	1572.84
379.08	1597.42
379.29	1716.20
379.50	1810.40
379.71	1665.00
379.91	1722.34
380.12	1757.16
380.33	1624.04
380.54	1714.15
380.75	1685.48
380.96	1710.05
381.17	1855.46
381.38	1710.05
381.59	1728.49
381.80	1681.38
382.00	1902.56
382.21	1777.64
382.42	1726.44
382.63	1949.67
382.84	1667.05
383.05	1787.88
383.26	1691.62
383.47	1714.15
383.68	1699.81
383.88	1765.35
384.09	1705.96
384.30	1810.40
384.51	1658.85
384.72	1609.70
384.93	1624.04
385.14	1732.58
385.35	1773.54
385.55	1654.76
385.76	1841.12
385.97	1705.96
386.18	1665.00
386.39	1673.19
386.60	1665.00
386.81	1722.34
387.02	1687.53
387.22	1636.33
387.43	1744.87
387.64	1710.05
387.85	1890.28
388.06	2193.37
388.27	4128.70
388.48	6705.05
388.68	7972.74
388.89	9340.79
389.10	9645.93
389.31	8449.92
389.52	7372.69
389.73	6604.70
389.93	6268.83
390.14	5611.43
390.35	5261.23
390.56	4485.05
390.77	3758.02
390.98	3051.47
391.18	2441.18
391.39	2166.75
391.60	1800.16
391.81	1912.80
392.02	1677.29
392.23	1808.36
392.43	1699.81
392.64	1703.91
392.85	1699.81
393.06	1789.92
393.27	1730.53
393.47	1677.29
393.68	1767.40
393.89	1671.14
394.10	1830.88
394.31	1640.42
394.52	1673.19
394.72	1734.63
394.93	1779.68
395.14	1617.90
395.35	1689.57
395.56	1673.19
395.76	1687.53
395.97	1783.78
396.18	1845.22
396.39	1812.45
396.60	2045.92
396.80	1904.61
397.01	1849.32
397.22	1832.93
397.43	1744.87
397.64	1703.91
397.84	1839.08
398.05	1945.57
398.26	1687.53
398.47	1691.62
398.67	1759.21
398.88	1669.09
399.09	1693.67
399.30	1691.62
399.51	1789.92
399.71	1728.49
399.92	1656.81
400.13	1751.01
400.34	1714.15
400.54	1660.90
400.75	1802.21
400.96	1714.15
401.17	1812.45
401.37	1767.40
401.58	1708.01
401.79	1695.72
402.00	1779.68
402.21	2033.63
402.41	1961.95
402.62	1972.19
402.83	1994.72
403.04	2029.54
403.24	2088.93
403.45	1869.80
403.66	1953.76
403.87	1804.26
404.07	1947.62
404.28	1884.13
404.49	1964.00
404.70	1724.39
404.90	1796.07
405.11	1734.63
405.32	1746.92
405.52	1714.15
405.73	1619.94
405.94	1630.18
406.15	1710.05
406.35	1734.63
406.56	1812.45
406.77	1732.58
406.98	1710.05
407.18	1687.53
407.39	1748.97
407.60	1712.10
407.80	1773.54
408.01	1652.71
408.22	1730.53
408.43	1646.57
408.63	1767.40
408.84	1736.68
409.05	1722.34
409.25	1640.42
409.46	1652.71
409.67	1665.00
409.88	1617.90
410.08	1773.54
410.29	1722.34
410.50	1730.53
410.70	1738.73
410.91	1687.53
411.12	1720.29
411.32	1746.92
411.53	1697.77
411.74	1822.69
411.95	1742.82
412.15	1755.11
412.36	1791.97
412.57	1740.77
412.77	1761.25
412.98	1667.05
413.19	1665.00
413.39	1732.58
413.60	1740.77
413.81	1771.49
414.01	1665.00
414.22	1798.12
414.43	1785.83
414.63	1742.82
414.84	1763.30
415.05	1773.54
415.25	1546.22
415.46	1753.06
415.67	1699.81
415.87	1708.01
416.08	1802.21
416.29	1669.09
416.49	1687.53
416.70	1624.04
416.91	1630.18
417.11	1744.87
417.32	1759.21
417.53	1757.16
417.73	1675.24
417.94	1740.77
418.15	1673.19
418.35	1722.34
418.56	1693.67
418.77	1789.92
418.97	1681.38
419.18	1658.85
419.38	1544.17
419.59	1705.96
419.80	1757.16
420.00	1642.47
420.21	1759.21
420.42	1806.31
420.62	1748.97
420.83	1656.81
421.04	1646.57
421.24	1699.81
421.45	1738.73
421.65	1767.40
421.86	1628.14
422.07	1767.40
422.27	1755.11
422.48	1728.49
422.69	1701.86
422.89	1699.81
423.10	1675.24
423.30	1634.28
423.51	1800.16
423.72	1689.57
423.92	1753.06
424.13	1605.61
424.33	1761.25
424.54	1791.97
424.75	1681.38
424.95	1791.97
425.16	1720.29
425.36	1705.96
425.57	1732.58
425.78	1730.53
425.98	1703.91
426.19	1679.33
426.39	1765.35
426.60	1732.58
426.81	1697.77
427.01	1677.29
427.22	1648.61
427.42	1677.29
427.63	1624.04
427.83	1718.25
428.04	1882.08
428.25	1746.92
428.45	1787.88
428.66	1812.45
428.86	1669.09
429.07	1675.24
429.28	1726.44
429.48	1671.14
429.69	1652.71
429.89	1736.68
430.10	1626.09
430.30	1798.12
430.51	1714.15
430.71	1722.34
430.92	1632.23
431.13	1683.43
431.33	1742.82
431.54	1718.25
431.74	1828.84
431.95	1865.70
432.15	1644.52
432.36	1730.53
432.56	1738.73
432.77	1810.40
432.98	1837.03
433.18	1730.53
433.39	1687.53
433.59	1742.82
433.80	1822.69
434.00	1867.75
434.21	1755.11
434.41	1640.42
434.62	1855.46
434.82	1683.43
435.03	1665.00
435.23	1755.11
435.44	1675.24
435.64	1732.58
435.85	1718.25
436.06	1730.53
436.26	1708.01
436.47	1765.35
436.67	1685.48
436.88	1685.48
437.08	1751.01
437.29	1818.60
437.49	1732.58
437.70	1783.78
437.90	1685.48
438.11	1816.55
438.31	1826.79
438.52	1820.64
438.72	1763.30
438.93	1939.43
439.13	1832.93
439.34	1771.49
439.54	1767.40
439.75	1861.60
439.95	1777.64
440.16	1742.82
440.36	1724.39
440.57	1757.16
440.77	1814.50
440.98	1812.45
441.18	1732.58
441.39	1724.39
441.59	1720.29
441.80	1892.32
442.00	1742.82
442.21	1857.51
442.41	1648.61
442.62	1816.55
442.82	1687.53
443.02	1732.58
443.23	1718.25
443.43	1775.59
443.64	1773.54
443.84	1699.81
444.05	1802.21
444.25	1634.28
444.46	1656.81
444.66	1724.39
444.87	1959.91
445.07	1640.42
445.28	1755.11
445.48	1841.12
445.69	1804.26
445.89	1845.22
446.09	1783.78
446.30	2070.50
446.50	2605.02
446.71	3762.12
446.91	4294.59
447.12	4728.76
447.32	4874.17
447.53	4155.33
447.73	3770.31
447.93	3469.26
448.14	3299.28
448.34	3215.31
448.55	2836.44
448.75	2879.44
448.96	2680.79
449.16	2435.03
449.36	2289.63
449.57	2035.68
449.77	1953.76
449.98	1783.78
450.18	1828.84
450.39	1843.17
450.59	1738.73
450.79	1714.15
451.00	1734.63
451.20	1701.86
451.41	1777.64
451.61	1716.20
451.81	1703.91
452.02	1710.05
452.22	1656.81
452.43	1728.49
452.63	1679.33
452.84	1787.88
453.04	1777.64
453.24	1757.16
453.45	1720.29
453.65	1802.21
453.86	1710.05
454.06	1742.82
454.26	1751.01
454.47	1767.40
454.67	1740.77
454.87	1763.30
455.08	1679.33
455.28	1837.03
455.49	1781.73
455.69	1701.86
455.89	1832.93
456.10	1884.13
456.30	1734.63
456.51	1820.64
456.71	1681.38
456.91	1767.40
457.12	1751.01
457.32	1712.10
457.52	1593.32
457.73	1775.59
457.93	1783.78
458.14	1685.48
458.34	1630.18
458.54	1763.30
458.75	1718.25
458.95	1789.92
459.15	1701.86
459.36	1796.07
459.56	1800.16
459.76	1804.26
459.97	1744.87
460.17	1720.29
460.37	1808.36
460.58	1699.81
460.78	1683.43
460.99	1685.48
461.19	1732.58
461.39	1775.59
461.60	1699.81
461.80	1769.44
462.00	1683.43
462.21	1724.39
462.41	1640.42
462.61	1665.00
462.82	1636.33
463.02	1742.82
463.22	1732.58
463.43	1785.83
463.63	1660.90
463.83	1791.97
464.04	1701.86
464.24	1712.10
464.44	1624.04
464.64	1703.91
464.85	1769.44
465.05	1779.68
465.25	1726.44
465.46	1638.38
465.66	1785.83
465.86	1742.82
466.07	1724.39
466.27	1665.00
466.47	1673.19
466.68	1632.23
466.88	1763.30
467.08	1697.77
467.29	1722.34
467.49	1777.64
467.69	1671.14
467.89	1765.35
468.10	1710.05
468.30	1714.15
468.50	1828.84
468.71	1718.25
468.91	1634.28
469.11	1857.51
469.31	1701.86
469.52	1642.47
469.72	1748.97
469.92	1834.98
470.13	1685.48
470.33	1742.82
470.53	1841.12
470.73	2193.37
470.94	2250.72
471.14	2359.26
471.34	2471.90
471.54	2512.86
471.75	2246.62
471.95	2144.22
472.15	2039.78
472.36	2140.13
472.56	2066.40
472.76	2066.40
472.96	2023.39
473.17	1939.43
473.37	1902.56
473.57	1753.06
473.77	1763.30
473.98	1759.21
474.18	1806.31
474.38	1912.80
474.58	1716.20
474.79	1716.20
474.99	1693.67
475.19	1775.59
475.39	1699.81
475.60	1730.53
475.80	1748.97
476.00	1720.29
476.20	1681.38
476.41	1730.53
476.61	1773.54
476.81	1837.03
477.01	1695.72
477.21	1769.44
477.42	1787.88
477.62	1656.81
477.82	1865.70
478.02	1705.96
478.23	1748.97
478.43	1636.33
478.63	1738.73
478.83	1650.66
479.03	1726.44
479.24	1769.44
479.44	1818.60
479.64	1656.81
479.84	1601.51
480.04	1712.10
480.25	1742.82
480.45	1648.61
480.65	1626.09
480.85	1753.06
481.06	1673.19
481.26	1755.11
481.46	1789.92
481.66	1673.19
481.86	1681.38
482.06	1759.21
482.27	1712.10
482.47	1689.57
482.67	1669.09
482.87	1781.73
483.07	1775.59
483.28	1716.20
483.48	1626.09
483.68	1714.15
483.88	1648.61
484.08	1681.38
484.29	1691.62
484.49	1703.91
484.69	1679.33
484.89	1736.68
485.09	1798.12
485.29	1757.16
485.50	1708.01
485.70	1695.72
485.90	1734.63
486.10	1722.34
486.30	1689.57
486.50	1757.16
486.71	1775.59
486.91	1806.31
487.11	1828.84
487.31	1626.09
487.51	1789.92
487.71	1716.20
487.91	1679.33
488.12	1683.43
488.32	1607.66
488.52	1615.85
488.72	1636.33
488.92	1691.62
489.12	1714.15
489.32	1757.16
489.53	1708.01
489.73	1611.75
489.93	1765.35
490.13	1646.57
490.33	1583.08
490.53	1746.92
490.73	1802.21
490.94	1705.96
491.14	1740.77
491.34	1804.26
491.54	2136.03
491.74	2516.95
491.94	2922.45
492.14	2969.55
492.34	3035.09
492.54	2754.52
492.75	2471.90
492.95	2420.70
493.15	2303.96
493.35	2230.24
493.55	2179.04
493.75	2097.12
493.95	2111.46
494.15	1935.33
494.35	1898.47
494.56	1832.93
494.76	1777.64
494.96	1773.54
495.16	1796.07
495.36	1689.57
495.56	1730.53
495.76	1732.58
495.96	1673.19
496.16	1685.48
496.36	1783.78
496.56	1662.95
496.77	1765.35
496.97	1673.19
497.17	1718.25
497.37	1689.57
497.57	1724.39
497.77	1595.37
497.97	1685.48
498.17	1746.92
498.37	1728.49
498.57	1736.68
498.77	1783.78
498.97	1746.92
499.17	1853.41
499.38	1742.82
499.58	1773.54
499.78	1748.97
499.98	1869.80
500.18	1757.16
500.38	1732.58
500.58	1929.19
500.78	2510.81
500.98	4421.56
501.18	5719.98
501.38	6621.08
501.58	7006.10
501.78	6559.64
501.98	5484.46
502.18	4892.60
502.38	4452.28
502.58	4114.37
502.78	3686.34
502.98	3610.57
503.18	3436.49
503.38	3186.64
503.59	2729.94
503.79	2660.31
503.99	2490.33
504.19	2297.82
504.39	2172.89
504.59	2166.75
504.79	2119.65
504.99	2054.11
505.19	1892.32
505.39	1904.61
505.59	1927.14
505.79	1976.29
505.99	1910.75
506.19	1798.12
506.39	1761.25
506.59	1771.49
506.79	1767.40
506.99	1808.36
507.19	1796.07
507.39	1814.50
507.59	1710.05
507.79	1720.29
507.99	1728.49
508.19	1687.53
508.39	1681.38
508.59	1771.49
508.79	1884.13
508.99	1767.40
509.19	1671.14
509.39	1812.45
509.59	1685.48
509.79	1677.29
509.99	1791.97
510.19	1800.16
510.39	1820.64
510.59	1744.87
510.79	1683.43
510.99	1662.95
511.19	1791.97
511.39	1845.22
511.59	1722.34
511.79	1812.45
511.99	1789.92
512.19	1875.94
512.38	1732.58
512.58	1683.43
512.78	1697.77
512.98	1740.77
513.18	1853.41
513.38	1589.22
513.58	1789.92
513.78	1798.12
513.98	1708.01
514.18	1800.16
514.38	1689.57
514.58	1779.68
514.78	1751.01
514.98	1654.76
515.18	1742.82
515.38	1716.20
515.58	1796.07
515.78	1636.33
515.98	1742.82
516.18	1789.92
516.38	1683.43
516.57	1677.29
516.77	1761.25
516.97	1730.53
517.17	1734.63
517.37	1599.46
517.57	1748.97
517.77	1728.49
517.97	1775.59
518.17	1759.21
518.37	1740.77
518.57	1646.57
518.77	1787.88
518.97	1673.19
519.16	1689.57
519.36	1789.92
519.56	1751.01
519.76	1701.86
519.96	1712.10
520.16	1787.88
520.36	1699.81
520.56	1769.44
520.76	1759.21
520.96	1685.48
521.16	1763.30
521.35	1873.89
521.55	1882.08
521.75	1800.16
521.95	1738.73
522.15	1720.29
522.35	1613.80
522.55	1714.15
522.75	1755.11
522.95	1732.58
523.14	1759.21
523.34	1740.77
523.54	1644.52
523.74	1783.78
523.94	1708.01
524.14	1587.18
524.34	1812.45
524.54	1769.44
524.73	1744.87
524.93	1818.60
525.13	1761.25
525.33	1708.01
525.53	1869.80
525.73	1679.33
525.93	1718.25
526.13	1689.57
526.32	1648.61
526.52	1828.84
526.72	1755.11
526.92	1751.01
527.12	1705.96
527.32	1642.47
527.52	1806.31
527.71	1791.97
527.91	1708.01
528.11	1740.77
528.31	1722.34
528.51	1667.05
528.71	1806.31
528.90	1740.77
529.10	1722.34
529.30	1742.82
529.50	1564.65
529.70	1740.77
529.90	1677.29
530.09	1722.34
530.29	1615.85
530.49	1722.34
530.69	1861.60
530.89	1777.64
531.09	1814.50
531.28	1724.39
531.48	1767.40
531.68	1722.34
531.88	1759.21
532.08	1783.78
532.28	1710.05
532.47	1722.34
532.67	1740.77
532.87	1748.97
533.07	1660.90
533.27	1705.96
533.46	1722.34
533.66	1683.43
533.86	1738.73
534.06	1775.59
534.26	1738.73
534.45	1710.05
534.65	1720.29
534.85	1662.95
535.05	1691.62
535.25	1771.49
535.44	1648.61
535.64	1736.68
535.84	1644.52
536.04	1718.25
536.24	1652.71
536.43	1703.91
536.63	1841.12
536.83	1624.04
537.03	1673.19
537.22	1658.85
537.42	1595.37
537.62	1789.92
537.82	1638.38
538.02	1783.78
538.21	1861.60
538.41	1886.18
538.61	1746.92
538.81	1730.53
539.00	1808.36
539.20	1656.81
539.40	1708.01
539.60	1746.92
539.79	1722.34
539.99	1712.10
540.19	1718.25
540.39	1757.16
540.58	1773.54
540.78	1769.44
540.98	1712.10
541.18	1736.68
541.37	1789.92
541.57	1644.52
541.77	1689.57
541.97	1769.44
542.16	1609.70
542.36	1673.19
542.56	1710.05
542.76	1873.89
542.95	1882.08
543.15	1783.78
543.35	1746.92
543.54	1712.10
543.74	1742.82
543.94	1771.49
544.14	1716.20
544.33	1767.40
544.53	1677.29
544.73	1736.68
544.93	1665.00
545.12	1669.09
545.32	1716.20
545.52	1716.20
545.71	1705.96
545.91	1726.44
546.11	1662.95
546.30	1687.53
546.50	1757.16
546.70	1722.34
546.90	1683.43
547.09	1607.66
547.29	1755.11
547.49	1728.49
547.68	1789.92
547.88	1611.75
548.08	1808.36
548.27	2215.90
548.47	1722.34
548.67	1751.01
548.87	1730.53
549.06	1671.14
549.26	1669.09
549.46	1716.20
549.65	1689.57
549.85	1738.73
550.05	1894.37
550.24	1714.15
550.44	1791.97
550.64	1677.29
550.83	1744.87
551.03	1851.36
551.23	1837.03
551.42	1804.26
551.62	1705.96
551.82	1759.21
552.01	1699.81
552.21	1781.73
552.41	1738.73
552.60	1826.79
552.80	1800.16
553.00	1746.92
553.19	1703.91
553.39	1845.22
553.59	1640.42
553.78	1757.16
553.98	1753.06
554.17	1595.37
554.37	1673.19
554.57	1734.63
554.76	1626.09
554.96	1650.66
555.16	1777.64
555.35	1693.67
555.55	1748.97
555.75	1806.31
555.94	1689.57
556.14	1636.33
556.33	1744.87
556.53	1642.47
556.73	1722.34
556.92	1759.21
557.12	1837.03
557.32	1775.59
557.51	1808.36
557.71	1742.82
557.90	1857.51
558.10	1785.83
558.30	1701.86
558.49	1740.77
558.69	1757.16
558.88	1810.40
559.08	1755.11
559.28	1701.86
559.47	1779.68
559.67	1744.87
559.86	1859.56
560.06	1763.30
560.26	1705.96
560.45	1724.39
560.65	1755.11
560.84	1863.65
561.04	1718.25
561.24	1714.15
561.43	1705.96
561.63	1834.98
561.82	1810.40
562.02	1783.78
562.22	1683.43
562.41	1724.39
562.61	1759.21
562.80	1726.44
563.00	1855.46
563.19	1724.39
563.39	1818.60
563.59	1822.69
563.78	1714.15
563.98	1636.33
564.17	1773.54
564.37	1720.29
564.56	1708.01
564.76	1708.01
564.96	1814.50
565.15	1708.01
565.35	1812.45
565.54	1669.09
565.74	1693.67
565.93	1765.35
566.13	1675.24
566.32	1777.64
566.52	1759.21
566.71	1710.05
566.91	1761.25
567.11	1812.45
567.30	1681.38
567.50	1748.97
567.69	1744.87
567.89	1787.88
568.08	1708.01
568.28	1763.30
568.47	1771.49
568.67	1736.68
568.86	1722.34
569.06	1828.84
569.25	1742.82
569.45	1732.58
569.64	1744.87
569.84	1767.40
570.04	1800.16
570.23	1705.96
570.43	1683.43
570.62	1755.11
570.82	1841.12
571.01	1566.70
571.21	1746.92
571.40	1718.25
571.60	1839.08
571.79	1751.01
571.99	1783.78
572.18	1638.38
572.38	1742.82
572.57	1675.24
572.77	1839.08
572.96	1857.51
573.16	1726.44
573.35	1671.14
573.55	1863.65
573.74	1853.41
573.94	1771.49
574.13	1687.53
574.33	1787.88
574.52	1771.49
574.71	1763.30
574.91	1732.58
575.10	1705.96
575.30	1740.77
575.49	1648.61
575.69	1716.20
575.88	1798.12
576.08	1746.92
576.27	1751.01
576.47	1746.92
576.66	1767.40
576.86	1757.16
577.05	1697.77
577.25	1812.45
577.44	1828.84
577.64	1701.86
577.83	1765.35
578.02	1638.38
578.22	1767.40
578.41	1927.14
578.61	1738.73
578.80	1695.72
579.00	1791.97
579.19	1720.29
579.39	1820.64
579.58	1843.17
579.77	1773.54
579.97	1802.21
580.16	1822.69
580.36	1779.68
580.55	1834.98
580.75	1673.19
580.94	1728.49
581.13	1802.21
581.33	1839.08
581.52	1724.39
581.72	1902.56
581.91	1820.64
582.11	1732.58
582.30	1765.35
582.49	1779.68
582.69	1798.12
582.88	1796.07
583.08	1761.25
583.27	1837.03
583.47	1791.97
583.66	1761.25
583.85	1726.44
584.05	1665.00
584.24	1853.41
584.44	1779.68
584.63	1783.78
584.82	1871.84
585.02	1824.74
585.21	1775.59
585.41	1857.51
585.60	1763.30
585.79	1910.75
585.99	1937.38
586.18	1906.66
586.37	2170.85
586.57	3325.90
586.76	9867.11
586.96	24069.78
587.15	33996.28
587.34	39513.51
587.54	41268.62
587.73	35708.38
587.93	25489.02
588.12	21255.87
588.31	17968.88
588.51	15931.15
588.70	14989.08
588.89	13834.03
589.09	12545.86
589.28	10794.84
589.47	9267.06
589.67	7815.05
589.86	6342.56
590.06	4886.45
590.25	3913.67
590.44	3166.16
590.64	2500.57
590.83	2207.71
591.02	2093.02
591.22	1925.09
591.41	1931.23
591.60	1771.49
591.80	1959.91
591.99	1714.15
592.18	1800.16
592.38	1834.98
592.57	1740.77
592.76	1755.11
592.96	1886.18
593.15	1742.82
593.34	1783.78
593.54	1753.06
593.73	1796.07
593.92	1796.07
594.12	1746.92
594.31	1814.50
594.50	1783.78
594.70	1804.26
594.89	1902.56
595.08	1638.38
595.28	1761.25
595.47	1947.62
595.66	1800.16
595.86	1675.24
596.05	1677.29
596.24	1726.44
596.43	1845.22
596.63	1882.08
596.82	1699.81
597.01	1726.44
597.21	1839.08
597.40	1767.40
597.59	1781.73
597.79	1738.73
597.98	1783.78
598.17	1716.20
598.36	1701.86
598.56	1673.19
598.75	1689.57
598.94	1769.44
599.14	1767.40
599.33	1693.67
599.52	1738.73
599.71	1726.44
599.91	1800.16
600.10	1740.77
600.29	1677.29
600.48	1826.79
600.68	1779.68
600.87	1738.73
601.06	1751.01
601.26	1765.35
601.45	1796.07
601.64	1693.67
601.83	1812.45
602.03	1671.14
602.22	1656.81
602.41	1841.12
602.60	1738.73
602.80	1869.80
602.99	1746.92
603.18	1665.00
603.37	1667.05
603.57	1765.35
603.76	1777.64
603.95	1718.25
604.14	1677.29
604.34	1751.01
604.53	1736.68
604.72	1730.53
604.91	1787.88
605.10	1755.11
605.30	1642.47
605.49	1828.84
605.68	1791.97
605.87	1781.73
606.07	1767.40
606.26	1798.12
606.45	1806.31
606.64	1734.63
606.84	1691.62
607.03	1765.35
607.22	1724.39
607.41	1697.77
607.60	1695.72
607.80	1865.70
607.99	1791.97
608.18	1740.77
608.37	1726.44
608.56	1710.05
608.76	1808.36
608.95	1869.80
609.14	1710.05
609.33	1761.25
609.52	1798.12
609.72	1748.97
609.91	1812.45
610.10	1726.44
610.29	1783.78
610.48	1714.15
610.68	1724.39
610.87	1718.25
611.06	1730.53
611.25	1740.77
611.44	1849.32
611.63	1665.00
611.83	1761.25
612.02	1683.43
612.21	1877.99
612.40	1638.38
612.59	1667.05
612.79	1691.62
612.98	1705.96
613.17	1867.75
613.36	1689.57
613.55	1832.93
613.74	1779.68
613.93	1658.85
614.13	1761.25
614.32	1748.97
614.51	1820.64
614.70	1753.06
614.89	1708.01
615.08	1748.97
615.28	1978.34
615.47	1734.63
615.66	1675.24
615.85	1705.96
616.04	1802.21
616.23	1632.23
616.42	1736.68
616.62	1744.87
616.81	1744.87
617.00	1761.25
617.19	1761.25
617.38	1667.05
617.57	1648.61
617.76	1730.53
617.95	1769.44
618.15	1771.49
618.34	1812.45
618.53	1640.42
618.72	1763.30
618.91	1779.68
619.10	1714.15
619.29	1734.63
619.48	1771.49
619.68	1693.67
619.87	1755.11
620.06	1722.34
620.25	1744.87
620.44	1697.77
620.63	1720.29
620.82	1765.35
621.01	1665.00
621.20	1763.30
621.39	1798.12
621.59	1757.16
621.78	1658.85
621.97	1667.05
622.16	1771.49
622.35	1736.68
622.54	1697.77
622.73	1685.48
622.92	1669.09
623.11	1775.59
623.30	1648.61
623.49	1730.53
623.68	1624.04
623.88	1791.97
624.07	1798.12
624.26	1703.91
624.45	1769.44
624.64	1716.20
624.83	1763.30
625.02	1724.39
625.21	1767.40
625.40	1726.44
625.59	1757.16
625.78	1712.10
625.97	1769.44
626.16	1806.31
626.35	1705.96
626.54	1724.39
626.74	1847.27
626.93	1689.57
627.12	1732.58
627.31	1779.68
627.50	1665.00
627.69	1828.84
627.88	1638.38
628.07	1734.63
628.26	1628.14
628.45	1755.11
628.64	1701.86
628.83	1794.02
629.02	1662.95
629.21	1714.15
629.40	1722.34
629.59	1669.09
629.78	1751.01
629.97	1734.63
630.16	1689.57
630.35	1691.62
630.54	1695.72
630.73	1691.62
630.92	1730.53
631.11	1693.67
631.30	1753.06
631.49	1748.97
631.68	1765.35
631.87	1693.67
632.06	1662.95
632.25	1787.88
632.44	1771.49
632.63	1667.05
632.82	1685.48
633.01	1617.90
633.20	1738.73
633.39	1646.57
633.58	1689.57
633.77	1701.86
633.96	1697.77
634.15	1765.35
634.34	1742.82
634.53	1681.38
634.72	1720.29
634.91	1703.91
635.10	1791.97
635.29	1789.92
635.48	1716.20
635.67	1599.46
635.86	1650.66
636.05	1781.73
636.24	1761.25
636.43	1748.97
636.62	1718.25
636.81	1581.03
637.00	1744.87
637.19	1716.20
637.38	1738.73
637.57	1660.90
637.76	1701.86
637.95	1712.10
638.14	1691.62
638.33	1689.57
638.52	1724.39
638.71	1660.90
638.89	1644.52
639.08	1908.71
639.27	1812.45
639.46	1646.57
639.65	1787.88
639.84	1802.21
640.03	1773.54
640.22	1685.48
640.41	1765.35
640.60	1603.56
640.79	1712.10
640.98	1708.01
641.17	1724.39
641.36	1701.86
641.55	1705.96
641.74	1724.39
641.92	1673.19
642.11	1675.24
642.30	1634.28
642.49	1710.05
642.68	1699.81
642.87	1785.83
643.06	1732.58
643.25	1644.52
643.44	1720.29
643.63	1667.05
643.82	1783.78
644.00	1718.25
644.19	1769.44
644.38	1734.63
644.57	1773.54
644.76	1773.54
644.95	1611.75
645.14	1697.77
645.33	1771.49
645.52	1740.77
645.71	1695.72
645.89	1730.53
646.08	1689.57
646.27	1740.77
646.46	1767.40
646.65	1624.04
646.84	1720.29
647.03	1703.91
647.22	1759.21
647.40	1734.63
647.59	1697.77
647.78	1662.95
647.97	1755.11
648.16	1632.23
648.35	1816.55
648.54	1812.45
648.73	1701.86
648.91	1765.35
649.10	1726.44
649.29	1615.85
649.48	1746.92
649.67	1714.15
649.86	1705.96
650.05	1656.81
650.23	1658.85
650.42	1642.47
650.61	1748.97
650.80	1689.57
650.99	1855.46
651.18	1738.73
651.36	1748.97
651.55	1656.81
651.74	1837.03
651.93	1710.05
652.12	1658.85
652.31	1654.76
652.49	1705.96
652.68	1728.49
652.87	1722.34
653.06	1761.25
653.25	1869.80
653.44	1722.34
653.62	1798.12
653.81	1722.34
654.00	1759.21
654.19	1720.29
654.38	1832.93
654.56	1734.63
654.75	1646.57
654.94	1794.02
655.13	1703.91
655.32	1787.88
655.51	1771.49
655.69	1669.09
655.88	1771.49
656.07	1699.81
656.26	1818.60
656.45	1650.66
656.63	1693.67
656.82	1726.44
657.01	1847.27
657.20	1757.16
657.38	1789.92
657.57	1665.00
657.76	1710.05
657.95	1828.84
658.14	1673.19
658.32	1718.25
658.51	1642.47
658.70	1730.53
658.89	1734.63
659.08	1708.01
659.26	1834.98
659.45	1654.76
659.64	1732.58
659.83	1626.09
660.01	1882.08
660.20	1722.34
660.39	1837.03
660.58	1634.28
660.76	1759.21
660.95	1632.23
661.14	1767.40
661.33	1687.53
661.51	1720.29
661.70	1712.10
661.89	1738.73
662.08	1687.53
662.26	1626.09
662.45	1699.81
662.64	1828.84
662.83	1765.35
663.01	1648.61
663.20	1673.19
663.39	1806.31
663.58	1716.20
663.76	1689.57
663.95	1697.77
664.14	1652.71
664.32	1675.24
664.51	1714.15
664.70	1581.03
664.89	1628.14
665.07	1640.42
665.26	1751.01
665.45	1685.48
665.64	1755.11
665.82	1677.29
666.01	1767.40
666.20	1671.14
666.38	1777.64
666.57	1761.25
666.76	2086.88
666.95	4519.87
667.13	10055.53
667.32	14903.07
667.51	17590.00
667.69	18775.78
667.88	17252.09
668.07	12146.50
668.25	9430.90
668.44	7905.16
668.63	7237.52
668.81	6913.94
669.00	6221.73
669.19	5597.10
669.38	5019.57
669.56	4390.84
669.75	3968.96
669.94	3336.14
670.12	2858.96
670.31	2519.00
670.50	2193.37
670.68	2041.82
670.87	1970.15
671.06	1871.84
671.24	1824.74
671.43	1798.12
671.62	1730.53
671.80	1667.05
671.99	1708.01
672.18	1755.11
672.36	1738.73
672.55	1705.96
672.74	1734.63
672.92	1730.53
673.11	1755.11
673.29	1732.58
673.48	1796.07
673.67	1705.96
673.85	1751.01
674.04	1570.79
674.23	1683.43
674.41	1837.03
674.60	1640.42
674.79	1611.75
674.97	1746.92
675.16	1730.53
675.34	1763.30
675.53	1656.81
675.72	1759.21
675.90	1863.65
676.09	1677.29
676.28	1685.48
676.46	1667.05
676.65	1714.15
676.83	1607.66
677.02	1677.29
677.21	1730.53
677.39	1687.53
677.58	1691.62
677.77	1613.80
677.95	1724.39
678.14	1742.82
678.32	1718.25
678.51	1681.38
678.70	1789.92
678.88	1646.57
679.07	1781.73
679.25	1783.78
679.44	1697.77
679.63	1716.20
679.81	1667.05
680.00	1716.20
680.18	1755.11
680.37	1794.02
680.55	1730.53
680.74	1677.29
680.93	1679.33
681.11	1675.24
681.30	1681.38
681.48	1669.09
681.67	1736.68
681.85	1656.81
682.04	1603.56
682.23	1771.49
682.41	1720.29
682.60	1667.05
682.78	1730.53
682.97	1638.38
683.15	1771.49
683.34	1720.29
683.53	1857.51
683.71	1650.66
683.90	1794.02
684.08	1818.60
684.27	1658.85
684.45	1716.20
684.64	1763.30
684.82	1673.19
685.01	1718.25
685.19	1732.58
685.38	1773.54
685.57	1734.63
685.75	1714.15
685.94	1716.20
686.12	1662.95
686.31	1673.19
686.49	1837.03
686.68	1535.98
686.86	1669.09
687.05	1693.67
687.23	1794.02
687.42	1669.09
687.60	1552.36
687.79	1759.21
687.97	1808.36
688.16	1753.06
688.34	1798.12
688.53	1603.56
688.71	1697.77
688.90	1755.11
689.08	1665.00
689.27	1533.93
689.45	1730.53
689.64	1812.45
689.82	1779.68
690.01	1771.49
690.19	1771.49
690.38	1722.34
690.56	1736.68
690.75	1699.81
690.93	1552.36
691.12	1679.33
691.30	1791.97
691.49	1658.85
691.67	1691.62
691.86	1837.03
692.04	1617.90
692.23	1783.78
692.41	1619.94
692.60	1828.84
692.78	1781.73
692.97	1636.33
693.15	1699.81
693.34	1867.75
693.52	1773.54
693.71	1757.16
693.89	1708.01
694.08	1568.74
694.26	1755.11
694.44	1789.92
694.63	1701.86
694.81	1691.62
695.00	1736.68
695.18	1722.34
695.37	1757.16
695.55	1734.63
695.74	1751.01
695.92	1650.66
696.10	1771.49
696.29	1691.62
696.47	1718.25
696.66	1630.18
696.84	1609.70
697.03	1720.29
697.21	1810.40
697.40	2263.01
697.58	1796.07
697.76	1630.18
697.95	1699.81
698.13	1621.99
698.32	1658.85
698.50	1867.75
698.68	1748.97
698.87	1693.67
699.05	1820.64
699.24	1701.86
699.42	1683.43
699.61	1730.53
699.79	1697.77
699.97	1751.01
700.16	1640.42
700.34	1642.47
700.53	1761.25
700.71	1851.36
700.89	1742.82
701.08	1726.44
701.26	1744.87
701.45	2099.17
701.63	1685.48
701.81	1687.53
702.00	1581.03
702.18	1654.76
702.37	1650.66
702.55	1779.68
702.73	1701.86
702.92	1617.90
703.10	1738.73
703.28	1708.01
703.47	1685.48
703.65	1687.53
703.84	1755.11
704.02	1714.15
704.20	1806.31
704.39	1636.33
704.57	1693.67
704.75	1755.11
704.94	1648.61
705.12	1677.29
705.30	1806.31
705.49	2263.01
705.67	4315.07
705.86	9213.81
706.04	12398.40
706.22	14139.18
706.41	14989.08
706.59	13793.07
706.77	9490.29
706.96	7042.96
707.14	6530.97
707.32	5738.41
707.51	5580.71
707.69	4851.64
707.87	4106.18
708.06	3424.20
708.24	2830.29
708.42	2402.27
708.61	2215.90
708.79	1941.47
708.97	1789.92
709.16	1800.16
709.34	1775.59
709.52	1751.01
709.71	1755.11
709.89	1759.21
710.07	1665.00
710.26	1621.99
710.44	1626.09
710.62	1810.40
710.80	1789.92
710.99	1798.12
711.17	1779.68
711.35	1759.21
711.54	1685.48
711.72	1822.69
711.90	1755.11
712.09	1714.15
712.27	1685.48
712.45	1763.30
712.63	1732.58
712.82	1751.01
713.00	1675.24
713.18	1732.58
713.37	1806.31
713.55	1781.73
713.73	1763.30
713.91	1767.40
714.10	1681.38
714.28	1697.77
714.46	1710.05
714.65	1726.44
714.83	1759.21
715.01	1685.48
715.19	1697.77
715.38	1650.66
715.56	1759.21
715.74	1658.85
715.92	1665.00
716.11	1761.25
716.29	1550.31
716.47	1681.38
716.65	1673.19
716.84	1593.32
717.02	1648.61
717.20	1587.18
717.38	1638.38
717.57	1724.39
717.75	1636.33
717.93	1679.33
718.11	1769.44
718.30	1628.14
718.48	1761.25
718.66	1710.05
718.84	1699.81
719.03	1769.44
719.21	1720.29
719.39	1787.88
719.57	1722.34
719.75	1804.26
719.94	1738.73
720.12	1712.10
720.30	1724.39
720.48	1712.10
720.67	1681.38
720.85	1615.85
721.03	1615.85
721.21	1685.48
721.39	1718.25
721.58	1687.53
721.76	1671.14
721.94	1660.90
722.12	1683.43
722.30	1847.27
722.49	1728.49
722.67	1757.16
722.85	1785.83
723.03	1660.90
723.21	1609.70
723.40	1755.11
723.58	1730.53
723.76	1779.68
723.94	1744.87
724.12	1759.21
724.30	1732.58
724.49	1755.11
724.67	1667.05
724.85	1710.05
725.03	1654.76
725.21	1679.33
725.40	1796.07
725.58	1689.57
725.76	1701.86
725.94	1769.44
726.12	1685.48
726.30	1742.82
726.49	1708.01
726.67	1638.38
726.85	1722.34
727.03	1751.01
727.21	2209.76
727.39	2893.78
727.57	3684.30
727.76	4059.07
727.94	4405.18
728.12	4237.25
728.30	3721.16
728.48	2969.55
728.66	2783.19
728.84	2484.19
729.03	2260.96
729.21	2154.46
729.39	1964.00
729.57	1853.41
729.75	1800.16
729.93	1845.22
730.11	1718.25
730.30	1662.95
730.48	1726.44
730.66	1796.07
730.84	1763.30
731.02	1699.81
731.20	1652.71
731.38	1724.39
731.56	1648.61
731.74	1603.56
731.93	1732.58
732.11	1716.20
732.29	1748.97
732.47	1732.58
732.65	1669.09
732.83	1787.88
733.01	1744.87
733.19	1679.33
733.37	1714.15
733.56	1759.21
733.74	1759.21
733.92	1746.92
734.10	1710.05
734.28	1722.34
734.46	1636.33
734.64	1675.24
734.82	1595.37
735.00	1621.99
735.18	1617.90
735.36	1740.77
735.54	1648.61
735.73	1746.92
735.91	1730.53
736.09	1726.44
736.27	1665.00
736.45	1806.31
736.63	1642.47
736.81	1691.62
736.99	1730.53
737.17	1716.20
737.35	1738.73
737.53	1742.82
737.71	1667.05
737.89	1824.74
738.07	1634.28
738.25	1673.19
738.43	1630.18
738.61	1658.85
738.80	1691.62
738.98	1665.00
739.16	1658.85
739.34	1628.14
739.52	1724.39
739.70	1724.39
739.88	1705.96
740.06	1708.01
740.24	1587.18
740.42	1806.31
740.60	1615.85
740.78	1738.73
740.96	1609.70
741.14	1679.33
741.32	1718.25
741.50	1619.94
741.68	1767.40
741.86	1757.16
742.04	1652.71
742.22	1611.75
742.40	1732.58
742.58	1671.14
742.76	1589.22
742.94	1773.54
743.12	1630.18
743.30	1673.19
743.48	1759.21
743.66	1597.42
743.84	1705.96
744.02	1734.63
744.20	1718.25
744.38	1638.38
744.56	1628.14
744.74	1742.82
744.92	1669.09
745.10	1716.20
745.28	1746.92
745.46	1763.30
745.64	1787.88
745.82	1701.86
746.00	1767.40
746.18	1718.25
746.36	1640.42
746.54	1794.02
746.72	1673.19
746.90	1632.23
747.08	1751.01
747.26	1730.53
747.44	1787.88
747.62	1726.44
747.80	1636.33
747.98	1740.77
748.15	1697.77
748.33	1769.44
748.51	1765.35
748.69	1746.92
748.87	1665.00
749.05	1718.25
749.23	1742.82
749.41	1697.77
749.59	1720.29
749.77	1708.01
749.95	1701.86
750.13	1644.52
750.31	1751.01
750.49	1728.49
750.67	1763.30
750.85	1783.78
751.03	1673.19
751.20	1800.16
751.38	1722.34
751.56	1669.09
751.74	1681.38
751.92	1736.68
752.10	1677.29
752.28	1832.93
752.46	1722.34
752.64	1695.72
752.82	1652.71
753.00	1775.59
753.18	1740.77
753.35	1736.68
753.53	1708.01
753.71	1714.15
753.89	1755.11
754.07	1728.49
754.25	1826.79
754.43	1677.29
754.61	1593.32
754.79	1716.20
754.97	1636.33
755.14	1781.73
755.32	1699.81
755.50	1736.68
755.68	1665.00
755.86	1722.34
756.04	1601.51
756.22	1597.42
756.40	1773.54
756.57	1806.31
756.75	1652.71
756.93	1693.67
757.11	1703.91
757.29	1621.99
757.47	1669.09
757.65	1652.71
757.82	1601.51
758.00	1648.61
758.18	1619.94
758.36	1652.71
758.54	1742.82
758.72	1673.19
758.90	1763.30
759.07	1732.58
759.25	1679.33
759.43	1695.72
759.61	1615.85
759.79	2205.66
759.97	1748.97
760.15	1732.58
760.32	1703.91
760.50	1724.39
760.68	1755.11
760.86	1619.94
761.04	1755.11
761.22	1736.68
761.39	1716.20
761.57	1738.73
761.75	1734.63
761.93	1671.14
762.11	1654.76
762.28	1753.06
762.46	1648.61
762.64	1751.01
762.82	1589.22
763.00	1683.43
763.18	1800.16
763.35	1632.23
763.53	1753.06
763.71	1703.91
763.89	1751.01
764.07	1685.48
764.24	1748.97
764.42	1720.29
764.60	1564.65
764.78	1742.82
764.96	1740.77
765.13	1722.34
765.31	1658.85
765.49	1685.48
765.67	1683.43
765.84	1671.14
766.02	1615.85
766.20	1673.19
766.38	1744.87
766.56	1708.01
766.73	1712.10
766.91	1691.62
767.09	1675.24
767.27	1710.05
767.44	1681.38
767.62	1851.36
767.80	1748.97
767.98	1712.10
768.15	1669.09
768.33	1806.31
768.51	1714.15
768.69	1732.58
768.87	1744.87
769.04	1716.20
769.22	1783.78
769.40	1796.07
769.58	1851.36
769.75	1705.96
769.93	1765.35
770.11	1642.47
770.28	1681.38
770.46	1753.06
770.64	1712.10
770.82	1640.42
770.99	1685.48
771.17	1787.88
771.35	1689.57
771.53	1669.09
771.70	1697.77
771.88	1695.72
772.06	1632.23
772.23	1705.96
772.41	1763.30
772.59	1693.67
772.77	1669.09
772.94	1681.38
773.12	1615.85
773.30	1574.89
773.47	1773.54
773.65	1656.81
773.83	1794.02
774.01	1736.68
774.18	1607.66
774.36	1736.68
774.54	1624.04
774.71	1742.82
774.89	1585.13
775.07	1701.86
775.24	1734.63
775.42	1724.39
775.60	1791.97
775.78	1660.90
775.95	1669.09
776.13	1533.93
776.31	1533.93
776.48	1742.82
776.66	1759.21
776.84	1605.61
777.01	1636.33
777.19	1665.00
777.37	1677.29
777.54	1710.05
777.72	1814.50
777.90	1714.15
778.07	1660.90
778.25	1873.89
778.43	1755.11
778.60	1673.19
778.78	1720.29
778.96	1785.83
779.13	1681.38
779.31	1726.44
779.49	1732.58
779.66	1771.49
779.84	1726.44
780.01	1658.85
780.19	1619.94
780.37	1875.94
780.54	1652.71
780.72	1640.42
780.90	1746.92
781.07	1710.05
781.25	1677.29
781.43	1789.92
781.60	1644.52
781.78	1746.92
781.95	1724.39
782.13	1640.42
782.31	1646.57
782.48	1667.05
782.66	1744.87
782.83	1869.80
783.01	1658.85
783.19	1701.86
783.36	1671.14
783.54	1583.08
783.72	1699.81
783.89	1685.48
784.07	1730.53
784.24	1617.90
784.42	1896.42
784.60	1710.05
784.77	1757.16
784.95	1564.65
785.12	1646.57
785.30	1681.38
785.47	1669.09
785.65	1626.09
785.83	1665.00
786.00	1669.09
786.18	1724.39
786.35	1599.46
786.53	1605.61
786.71	1701.86
786.88	1730.53
787.06	1736.68
787.23	1632.23
787.41	1644.52
787.58	1642.47
787.76	1665.00
787.94	1718.25
788.11	1689.57
788.29	1660.90
788.46	1652.71
788.64	1613.80
788.81	1689.57
788.99	1677.29
789.16	1691.62
789.34	1724.39
789.52	1650.66
789.69	1679.33
789.87	1576.94
790.04	1689.57
790.22	1673.19
790.39	1814.50
790.57	1701.86
790.74	1730.53
790.92	1693.67
791.09	1611.75
791.27	1662.95
791.44	1726.44
791.62	1722.34
791.79	1779.68
791.97	1746.92
792.15	1861.60
792.32	1779.68
792.50	1761.25
792.67	1843.17
792.85	1785.83
793.02	1656.81
793.20	1738.73
793.37	1576.94
793.55	1621.99
793.72	1615.85
793.90	1669.09
794.07	1621.99
794.25	1671.14
794.42	1753.06
794.60	1650.66
794.77	1697.77
794.95	1730.53
795.12	1699.81
795.30	1753.06
795.47	1662.95
795.65	1853.41
795.82	1673.19
796.00	1708.01
796.17	1748.97
796.34	1699.81
796.52	1681.38
796.69	1708.01
796.87	1748.97
797.04	1718.25
797.22	1820.64
797.39	1669.09
797.57	1677.29
797.74	1732.58
797.92	1708.01
798.09	1693.67
798.27	1796.07
798.44	1689.57
798.62	1656.81
798.79	1722.34
798.96	1730.53
799.14	1800.16
799.31	1765.35
799.49	1652.71
799.66	1726.44
799.84	1720.29
800.01	1634.28
800.19	1746.92
800.36	1581.03
800.53	1755.11
800.71	1728.49
800.88	1791.97
801.06	1630.18
801.23	1695.72
801.41	1669.09
801.58	1581.03
801.75	1681.38
801.93	1695.72
802.10	1771.49
802.28	1652.71
802.45	1642.47
802.63	1722.34
802.80	1843.17
802.97	1685.48
803.15	1652.71
803.32	1695.72
803.50	1619.94
803.67	1687.53
803.84	1699.81
804.02	1656.81
804.19	1677.29
804.37	1546.22
804.54	1624.04
804.71	1607.66
804.89	1669.09
805.06	1669.09
805.24	1667.05
805.41	1640.42
805.58	1611.75
805.76	1882.08
805.93	1701.86
806.10	1736.68
806.28	1744.87
806.45	1691.62
806.63	1689.57
806.80	1673.19
806.97	1808.36
807.15	1687.53
807.32	1691.62
807.49	1763.30
807.67	1681.38
807.84	1736.68
808.01	1619.94
808.19	1791.97
808.36	1845.22
808.54	1746.92
808.71	1652.71
808.88	1724.39
809.06	1746.92
809.23	1734.63
809.40	1613.80
809.58	1839.08
809.75	1673.19
809.92	1646.57
810.10	1781.73
810.27	1689.57
810.44	1730.53
810.62	1765.35
810.79	1748.97
810.96	1710.05
811.14	1683.43
811.31	1724.39
811.48	1652.71
811.66	1722.34
811.83	1755.11
812.00	1730.53
812.18	1755.11
812.35	1771.49
812.52	1689.57
812.69	1671.14
812.87	1632.23
813.04	1665.00
813.21	1744.87
813.39	1662.95
813.56	1589.22
813.73	1775.59
813.91	1626.09
814.08	1728.49
814.25	1613.80
814.42	1566.70
814.60	1687.53
814.77	1675.24
814.94	1705.96
815.12	1728.49
815.29	1816.55
815.46	1753.06
815.63	1691.62
815.81	1753.06
815.98	1697.77
816.15	1687.53
816.33	1734.63
816.50	1742.82
816.67	1726.44
816.84	1693.67
817.02	1632.23
817.19	1710.05
817.36	1654.76
817.53	1701.86
817.71	1757.16
817.88	1677.29
818.05	1656.81
818.22	1734.63
818.40	1787.88
818.57	1701.86
818.74	1685.48
818.91	1648.61
819.09	1677.29
819.26	1710.05
819.43	1652.71
819.60	1695.72
819.78	1744.87
819.95	1804.26
820.12	1619.94
820.29	1773.54
820.47	1800.16
820.64	1669.09
820.81	1613.80
820.98	1636.33
821.15	1710.05
821.33	1841.12
821.50	1613.80
821.67	1779.68
821.84	1710.05
822.02	1708.01
822.19	1816.55
822.36	1710.05
822.53	1705.96
822.70	1658.85
822.88	1732.58
823.05	1787.88
823.22	1630.18
823.39	1732.58
823.56	1685.48
823.74	1755.11
823.91	1693.67
824.08	1673.19
824.25	1628.14
824.42	1820.64
824.60	1626.09
824.77	1699.81
824.94	1689.57
825.11	1722.34
825.28	1587.18
825.45	1652.71
825.63	1703.91
825.80	1654.76
825.97	1732.58
826.14	1656.81
826.31	1585.13
826.48	1769.44
826.66	1617.90
826.83	1648.61
827.00	1796.07
827.17	1642.47
827.34	1791.97
827.51	1685.48
827.69	1712.10
827.86	1660.90
828.03	1646.57
828.20	1789.92
828.37	1656.81
828.54	1771.49
828.71	1667.05
828.89	1837.03
829.06	1691.62
829.23	1712.10
829.40	1624.04
829.57	1667.05
829.74	1755.11
829.91	1644.52
830.09	1650.66
830.26	1662.95
830.43	1806.31
830.60	1740.77
830.77	1667.05
830.94	1751.01
831.11	1787.88
831.28	1693.67
831.46	1775.59
831.63	1705.96
831.80	1769.44
831.97	1683.43
832.14	1714.15
832.31	1751.01
832.48	1665.00
832.65	1771.49
832.82	1726.44
832.99	1765.35
833.17	1652.71
833.34	1683.43
833.51	1679.33
833.68	1628.14
833.85	1734.63
834.02	1581.03
834.19	1548.26
834.36	1748.97
834.53	1693.67
834.70	1781.73
834.87	1753.06
835.04	1703.91
835.22	1619.94
835.39	1726.44
835.56	1677.29
835.73	1652.71
835.90	1753.06
836.07	1630.18
836.24	1769.44
836.41	1648.61
836.58	1636.33
836.75	1724.39
836.92	1705.96
837.09	1712.10
837.26	1681.38
837.43	1724.39
837.60	1701.86
837.77	1638.38
837.94	1779.68
838.12	1722.34
838.29	1726.44
838.46	1619.94
838.63	1619.94
838.80	1730.53
838.97	1781.73
839.14	1730.53
839.31	1697.77
839.48	1751.01
839.65	1654.76
839.82	1761.25
839.99	1669.09
840.16	1753.06
840.33	1738.73
840.50	1763.30
840.67	1665.00
840.84	1535.98
841.01	1679.33
841.18	1779.68
841.35	1708.01
841.52	1736.68
841.69	1765.35
841.86	1720.29
842.03	1675.24
842.20	1775.59
842.37	1718.25
842.54	1681.38
842.71	1746.92
842.88	1642.47
843.05	1736.68
843.22	1593.32
843.39	1734.63
843.56	1648.61
843.73	1677.29
843.90	1683.43
844.07	1720.29
844.24	1689.57
844.41	1742.82
844.58	1783.78
844.75	1722.34
844.92	1671.14
845.09	1652.71
845.26	1656.81
845.43	1689.57
845.60	1701.86
845.77	1728.49
845.94	1761.25
846.10	1742.82
846.27	1593.32
846.44	1630.18
846.61	1624.04
846.78	1656.81
846.95	1748.97
847.12	1660.90
847.29	1689.57
847.46	1687.53
847.63	1732.58
847.80	1656.81
847.97	1613.80
848.14	1740.77
848.31	1634.28
848.48	1587.18
848.65	1728.49
848.82	1562.60
848.98	1816.55
849.15	1714.15
849.32	1765.35
849.49	1746.92
849.66	1669.09
849.83	1759.21
850.00	1642.47
850.17	1673.19
850.34	1689.57
850.51	1593.32
850.68	1673.19
850.85	1769.44
851.01	1716.20
851.18	1730.53
851.35	1619.94
851.52	1697.77
851.69	1736.68
851.86	1613.80
852.03	1712.10
852.20	1693.67
852.37	1677.29
852.53	1671.14
852.70	1669.09
852.87	1701.86
853.04	1812.45
853.21	1712.10
853.38	1730.53
853.55	1810.40
853.72	1724.39
853.89	1660.90
854.05	1656.81
854.22	1665.00
854.39	1712.10
854.56	1691.62
854.73	1791.97
854.90	1720.29
855.07	1687.53
855.23	1726.44
855.40	1671.14
855.57	1697.77
855.74	1626.09
855.91	1875.94
856.08	1615.85
856.25	1601.51
856.41	1703.91
856.58	1587.18
856.75	1703.91
856.92	1624.04
857.09	1794.02
857.26	1667.05
857.42	1697.77
857.59	1693.67
857.76	1656.81
857.93	1705.96
858.10	1804.26
858.27	1773.54
858.43	1701.86
858.60	1603.56
858.77	1617.90
858.94	1652.71
859.11	1808.36
859.27	1605.61
859.44	1679.33
859.61	1796.07
859.78	1751.01
859.95	1673.19
860.12	1681.38
860.28	1818.60
860.45	1839.08
860.62	1751.01
860.79	1767.40
860.95	1658.85
861.12	1648.61
861.29	1697.77
861.46	1642.47
861.63	1757.16
861.79	1732.58
861.96	1671.14
862.13	1650.66
862.30	1798.12
862.47	1615.85
862.63	1613.80
862.80	1808.36
862.97	1736.68
863.14	1771.49
863.30	1757.16
863.47	1734.63
863.64	1769.44
863.81	1691.62
863.97	1638.38
864.14	1759.21
864.31	1691.62
864.48	1683.43
864.65	1767.40
864.81	1787.88
864.98	1662.95
865.15	1718.25
865.32	1734.63
865.48	1773.54
865.65	1742.82
865.82	1665.00
865.98	1652.71
866.15	1761.25
866.32	1699.81
866.49	1652.71
866.65	1785.83
866.82	1615.85
866.99	1740.77
867.16	1599.46
867.32	1740.77
867.49	1828.84
867.66	1701.86
867.83	1650.66
867.99	1607.66
868.16	1642.47
868.33	1681.38
868.49	1656.81
868.66	1671.14
868.83	1701.86
868.99	1701.86
869.16	1732.58
869.33	1767.40
869.50	1759.21
869.66	1691.62
869.83	1667.05
870.00	1607.66
870.16	1748.97
870.33	1726.44
870.50	1705.96
870.66	1581.03
870.83	1822.69
871.00	1710.05
871.17	1685.48
871.33	1699.81
871.50	1683.43
871.67	1673.19
871.83	1607.66
872.00	1794.02
872.17	1634.28
872.33	1816.55
872.50	1771.49
872.67	1660.90
872.83	1665.00
873.00	1740.77
873.17	1634.28
873.33	1753.06
873.50	1804.26
873.67	1673.19
873.83	1681.38
874.00	1726.44
874.16	1734.63
874.33	1693.67
874.50	1673.19
874.66	1738.73
874.83	1685.48
875.00	1652.71
875.16	1789.92
875.33	1753.06
875.50	1583.08
875.66	1689.57
875.83	1738.73
875.99	1665.00
876.16	1742.82
876.33	1652.71
876.49	1720.29
876.66	1746.92
876.83	1724.39
876.99	1630.18
877.16	1615.85
877.32	1746.92
877.49	1734.63
877.66	1691.62
877.82	1734.63
877.99	1734.63
878.15	1818.60
878.32	1724.39
878.49	1714.15
878.65	1699.81
878.82	1800.16
878.98	1669.09
879.15	1755.11
879.32	1728.49
879.48	1681.38
879.65	1595.37
879.81	1691.62
879.98	1650.66
880.15	1701.86
880.31	1716.20
880.48	1648.61
880.64	1755.11
880.81	1720.29
880.97	1812.45
881.14	1789.92
881.31	1716.20
881.47	1886.18
881.64	1621.99
881.80	1617.90
881.97	1759.21
882.13	1794.02
882.30	1703.91
882.47	1648.61
882.63	1605.61
882.80	1636.33
882.96	1716.20
883.13	1738.73
883.29	1644.52
883.46	1701.86
883.62	1705.96
883.79	1685.48
883.95	1693.67
884.12	1677.29
884.29	1771.49
884.45	1689.57
884.62	1714.15
884.78	1712.10
884.95	1789.92
885.11	1683.43
885.28	1714.15
885.44	1660.90
885.61	1759.21
885.77	1765.35
885.94	1767.40
886.10	1652.71
886.27	1738.73
886.43	1806.31
886.60	1791.97
886.76	1701.86
886.93	1613.80
887.09	1693.67
887.26	1574.89
887.42	1740.77
887.59	1724.39
887.75	1798.12
887.92	1824.74
888.08	1771.49
888.25	1785.83
888.41	1761.25
888.58	1775.59
888.74	1716.20
888.91	1665.00
>>>>>End Processed Spectral Data<<<<<
