SpectraSuite Data File
++++++++++++++++++++++++++++++++++++
Date: Mon Jun 06 14:37:57 CEST 2016
User: root
Dark Spectrum Present: No
Reference Spectrum Present: No
Number of Sampled Component Spectra: 1
Spectrometers: USB4C02835
Integration Time (usec): 100000 (USB4C02835)
Spectra Averaged: 1 (USB4C02835)
Boxcar Smoothing: 0 (USB4C02835)
Correct for Electrical Dark: No (USB4C02835)
Strobe/Lamp Enabled: No (USB4C02835)
Correct for Detector Non-linearity: No (USB4C02835)
Correct for Stray Light: No (USB4C02835)
Number of Pixels in Processed Spectrum: 3648
>>>>>Begin Processed Spectral Data<<<<<
177.47	1466.35
177.69	1466.35
177.91	1466.35
178.13	1452.01
178.36	1488.87
178.58	1673.19
178.80	1693.67
179.02	1644.52
179.24	1650.66
179.46	1640.42
179.68	1730.53
179.90	1695.72
180.13	1728.49
180.35	1652.71
180.57	1685.48
180.79	1722.34
181.01	1785.83
181.23	1724.39
181.45	1800.16
181.67	1724.39
181.90	1654.76
182.12	1662.95
182.34	1591.27
182.56	1642.47
182.78	1724.39
183.00	1714.15
183.22	1701.86
183.44	1564.65
183.66	1818.60
183.89	1746.92
184.11	1765.35
184.33	1712.10
184.55	1787.88
184.77	1751.01
184.99	1665.00
185.21	1722.34
185.43	1824.74
185.65	1683.43
185.87	1654.76
186.10	1806.31
186.32	1855.46
186.54	1718.25
186.76	1699.81
186.98	1837.03
187.20	1759.21
187.42	1705.96
187.64	1693.67
187.86	1724.39
188.08	1761.25
188.30	1710.05
188.52	1708.01
188.75	1810.40
188.97	1804.26
189.19	1683.43
189.41	1681.38
189.63	1708.01
189.85	1701.86
190.07	1714.15
190.29	1677.29
190.51	1732.58
190.73	1701.86
190.95	1832.93
191.17	1695.72
191.39	1671.14
191.61	1675.24
191.84	1654.76
192.06	1701.86
192.28	1574.89
192.50	1843.17
192.72	1693.67
192.94	1740.77
193.16	1738.73
193.38	1705.96
193.60	1626.09
193.82	1716.20
194.04	1761.25
194.26	1683.43
194.48	1656.81
194.70	1718.25
194.92	1667.05
195.14	1697.77
195.36	1716.20
195.58	1685.48
195.80	1703.91
196.02	1638.38
196.24	1669.09
196.46	1757.16
196.69	1656.81
196.91	1873.89
197.13	1732.58
197.35	1689.57
197.57	1798.12
197.79	1757.16
198.01	1767.40
198.23	1667.05
198.45	1675.24
198.67	1683.43
198.89	1687.53
199.11	1697.77
199.33	1587.18
199.55	1535.98
199.77	1673.19
199.99	1794.02
200.21	1671.14
200.43	1691.62
200.65	1640.42
200.87	1673.19
201.09	1744.87
201.31	1722.34
201.53	1720.29
201.75	1722.34
201.97	1677.29
202.19	1740.77
202.41	1708.01
202.63	1783.78
202.85	1691.62
203.07	1691.62
203.29	1689.57
203.51	1640.42
203.73	1630.18
203.95	1877.99
204.17	1718.25
204.39	1691.62
204.61	1667.05
204.83	1681.38
205.05	1660.90
205.27	1773.54
205.49	1787.88
205.71	1798.12
205.93	1710.05
206.15	1607.66
206.37	1697.77
206.59	1689.57
206.81	1683.43
207.03	1681.38
207.25	1693.67
207.47	1744.87
207.69	1652.71
207.91	1777.64
208.13	1779.68
208.34	1716.20
208.56	1708.01
208.78	1728.49
209.00	1652.71
209.22	1667.05
209.44	1628.14
209.66	1693.67
209.88	1691.62
210.10	1626.09
210.32	1671.14
210.54	1695.72
210.76	1734.63
210.98	1802.21
211.20	1591.27
211.42	1757.16
211.64	1775.59
211.86	1804.26
212.08	1689.57
212.30	1667.05
212.52	1734.63
212.74	1673.19
212.96	1714.15
213.17	1796.07
213.39	1746.92
213.61	1802.21
213.83	1671.14
214.05	1601.51
214.27	1775.59
214.49	1662.95
214.71	1716.20
214.93	1787.88
215.15	1716.20
215.37	1789.92
215.59	1587.18
215.81	1695.72
216.03	1798.12
216.24	1665.00
216.46	1652.71
216.68	1767.40
216.90	1736.68
217.12	1724.39
217.34	1685.48
217.56	1732.58
217.78	1763.30
218.00	1781.73
218.22	1851.36
218.44	1628.14
218.66	1732.58
218.87	1847.27
219.09	1699.81
219.31	1732.58
219.53	1681.38
219.75	1654.76
219.97	1683.43
220.19	1681.38
220.41	1660.90
220.63	1738.73
220.85	1689.57
221.06	1695.72
221.28	1738.73
221.50	1789.92
221.72	1626.09
221.94	1648.61
222.16	1730.53
222.38	1757.16
222.60	1773.54
222.82	1677.29
223.03	1746.92
223.25	1601.51
223.47	1814.50
223.69	1791.97
223.91	1701.86
224.13	1673.19
224.35	1761.25
224.57	1789.92
224.78	1773.54
225.00	1630.18
225.22	1665.00
225.44	1689.57
225.66	1724.39
225.88	1699.81
226.10	1748.97
226.32	1779.68
226.53	1798.12
226.75	1699.81
226.97	1701.86
227.19	1740.77
227.41	1771.49
227.63	1673.19
227.85	1617.90
228.06	1814.50
228.28	1671.14
228.50	1751.01
228.72	1683.43
228.94	1615.85
229.16	1605.61
229.37	1751.01
229.59	1667.05
229.81	1779.68
230.03	1673.19
230.25	1624.04
230.47	1624.04
230.69	1617.90
230.90	1765.35
231.12	1667.05
231.34	1779.68
231.56	1818.60
231.78	1626.09
232.00	1673.19
232.21	1722.34
232.43	1667.05
232.65	1548.26
232.87	1699.81
233.09	1679.33
233.30	1714.15
233.52	1751.01
233.74	1705.96
233.96	1718.25
234.18	1712.10
234.40	1681.38
234.61	1810.40
234.83	1671.14
235.05	1621.99
235.27	1763.30
235.49	1785.83
235.70	1722.34
235.92	1800.16
236.14	1767.40
236.36	1808.36
236.58	1720.29
236.79	1703.91
237.01	1705.96
237.23	1636.33
237.45	1800.16
237.67	1699.81
237.88	1732.58
238.10	1779.68
238.32	1628.14
238.54	1705.96
238.76	1589.22
238.97	1697.77
239.19	1648.61
239.41	1738.73
239.63	1781.73
239.85	1703.91
240.06	1759.21
240.28	1611.75
240.50	1714.15
240.72	1738.73
240.93	1642.47
241.15	1783.78
241.37	1621.99
241.59	1796.07
241.81	1781.73
242.02	1693.67
242.24	1755.11
242.46	1751.01
242.68	1650.66
242.89	1673.19
243.11	1722.34
243.33	1718.25
243.55	1746.92
243.76	1695.72
243.98	1660.90
244.20	1755.11
244.42	1636.33
244.64	1675.24
244.85	1599.46
245.07	1624.04
245.29	1689.57
245.51	1660.90
245.72	1695.72
245.94	1730.53
246.16	1720.29
246.38	1738.73
246.59	1656.81
246.81	1701.86
247.03	1714.15
247.24	1667.05
247.46	1718.25
247.68	1771.49
247.90	1642.47
248.11	1753.06
248.33	1679.33
248.55	1722.34
248.77	1753.06
248.98	1738.73
249.20	1746.92
249.42	1759.21
249.64	1740.77
249.85	1691.62
250.07	1689.57
250.29	1724.39
250.50	1765.35
250.72	1621.99
250.94	1632.23
251.16	1814.50
251.37	1722.34
251.59	1714.15
251.81	1746.92
252.02	1804.26
252.24	1728.49
252.46	1724.39
252.68	1687.53
252.89	1640.42
253.11	1626.09
253.33	1818.60
253.54	1742.82
253.76	1671.14
253.98	1597.42
254.20	1646.57
254.41	1671.14
254.63	1726.44
254.85	1617.90
255.06	1753.06
255.28	1687.53
255.50	1759.21
255.71	1660.90
255.93	1675.24
256.15	1689.57
256.36	1699.81
256.58	1638.38
256.80	1763.30
257.02	1630.18
257.23	1624.04
257.45	1771.49
257.67	1812.45
257.88	1718.25
258.10	1677.29
258.32	1728.49
258.53	1740.77
258.75	1820.64
258.97	1703.91
259.18	1681.38
259.40	1636.33
259.62	1816.55
259.83	1742.82
260.05	1726.44
260.27	1966.05
260.48	1703.91
260.70	1675.24
260.92	1685.48
261.13	1753.06
261.35	1597.42
261.57	1734.63
261.78	1613.80
262.00	1609.70
262.22	1705.96
262.43	1656.81
262.65	1798.12
262.86	1656.81
263.08	1843.17
263.30	1701.86
263.51	1548.26
263.73	1693.67
263.95	1800.16
264.16	1732.58
264.38	1576.94
264.60	1705.96
264.81	1722.34
265.03	1759.21
265.25	1734.63
265.46	1658.85
265.68	1814.50
265.89	1697.77
266.11	1595.37
266.33	1738.73
266.54	1806.31
266.76	1665.00
266.98	1775.59
267.19	1804.26
267.41	1769.44
267.62	1703.91
267.84	1681.38
268.06	1714.15
268.27	1693.67
268.49	1787.88
268.70	1732.58
268.92	1718.25
269.14	1660.90
269.35	1648.61
269.57	1611.75
269.79	1689.57
270.00	1665.00
270.22	1777.64
270.43	1652.71
270.65	1554.41
270.87	1681.38
271.08	1771.49
271.30	1728.49
271.51	1712.10
271.73	1789.92
271.95	1716.20
272.16	1669.09
272.38	1720.29
272.59	1681.38
272.81	1787.88
273.02	1736.68
273.24	1710.05
273.46	1796.07
273.67	1652.71
273.89	1681.38
274.10	1624.04
274.32	1722.34
274.54	1683.43
274.75	1683.43
274.97	1681.38
275.18	1681.38
275.40	1730.53
275.61	1660.90
275.83	1624.04
276.05	1626.09
276.26	1681.38
276.48	1687.53
276.69	1695.72
276.91	1675.24
277.12	1785.83
277.34	1771.49
277.55	1755.11
277.77	1748.97
277.99	1689.57
278.20	1644.52
278.42	1560.55
278.63	1714.15
278.85	1689.57
279.06	1716.20
279.28	1691.62
279.49	1785.83
279.71	1755.11
279.93	1697.77
280.14	1654.76
280.36	1652.71
280.57	1697.77
280.79	1744.87
281.00	1669.09
281.22	1665.00
281.43	1724.39
281.65	1611.75
281.86	1638.38
282.08	1748.97
282.29	1746.92
282.51	1630.18
282.73	1679.33
282.94	1654.76
283.16	1751.01
283.37	1822.69
283.59	1708.01
283.80	1669.09
284.02	1660.90
284.23	1722.34
284.45	1693.67
284.66	1632.23
284.88	1585.13
285.09	1693.67
285.31	1746.92
285.52	1699.81
285.74	1665.00
285.95	1765.35
286.17	1601.51
286.38	1789.92
286.60	1595.37
286.81	1679.33
287.03	1681.38
287.24	1699.81
287.46	1699.81
287.67	1708.01
287.89	1861.60
288.10	1634.28
288.32	1710.05
288.53	1667.05
288.75	1644.52
288.96	1722.34
289.18	1630.18
289.39	1755.11
289.61	1779.68
289.82	1791.97
290.04	1828.84
290.25	1658.85
290.47	1722.34
290.68	1740.77
290.90	1736.68
291.11	1630.18
291.33	1751.01
291.54	1683.43
291.76	1613.80
291.97	1697.77
292.18	1765.35
292.40	1656.81
292.61	1656.81
292.83	1853.41
293.04	1730.53
293.26	1742.82
293.47	1736.68
293.69	1652.71
293.90	1712.10
294.12	1761.25
294.33	1667.05
294.55	1658.85
294.76	1818.60
294.97	1783.78
295.19	1857.51
295.40	1644.52
295.62	1679.33
295.83	1753.06
296.05	1613.80
296.26	1802.21
296.48	1669.09
296.69	1669.09
296.90	1677.29
297.12	1777.64
297.33	1746.92
297.55	1650.66
297.76	1714.15
297.98	1701.86
298.19	1693.67
298.41	1757.16
298.62	1667.05
298.83	1728.49
299.05	1726.44
299.26	1568.74
299.48	1652.71
299.69	1769.44
299.90	1732.58
300.12	1660.90
300.33	1703.91
300.55	1753.06
300.76	1726.44
300.98	1636.33
301.19	1816.55
301.40	1695.72
301.62	1681.38
301.83	1697.77
302.05	1679.33
302.26	1669.09
302.47	1730.53
302.69	1724.39
302.90	1699.81
303.12	1589.22
303.33	1687.53
303.54	1791.97
303.76	1714.15
303.97	1767.40
304.19	1751.01
304.40	1695.72
304.61	1718.25
304.83	1812.45
305.04	1722.34
305.26	1738.73
305.47	1669.09
305.68	1638.38
305.90	1656.81
306.11	1765.35
306.33	1667.05
306.54	1791.97
306.75	1740.77
306.97	1587.18
307.18	1636.33
307.39	1687.53
307.61	1722.34
307.82	1712.10
308.04	1726.44
308.25	1572.84
308.46	1701.86
308.68	1755.11
308.89	1751.01
309.10	1783.78
309.32	1691.62
309.53	1748.97
309.74	1744.87
309.96	1718.25
310.17	1839.08
310.39	1695.72
310.60	1724.39
310.81	1789.92
311.03	1648.61
311.24	1726.44
311.45	1701.86
311.67	1781.73
311.88	1730.53
312.09	1636.33
312.31	1679.33
312.52	1767.40
312.73	1695.72
312.95	1656.81
313.16	1558.50
313.37	1757.16
313.59	1779.68
313.80	1734.63
314.01	1806.31
314.23	1665.00
314.44	1697.77
314.65	1640.42
314.87	1685.48
315.08	1730.53
315.29	1734.63
315.51	1660.90
315.72	1626.09
315.93	1742.82
316.15	1828.84
316.36	1683.43
316.57	1728.49
316.79	1728.49
317.00	1683.43
317.21	1763.30
317.43	1697.77
317.64	1710.05
317.85	1654.76
318.07	1667.05
318.28	1705.96
318.49	1865.70
318.70	1906.66
318.92	1830.88
319.13	1796.07
319.34	1863.65
319.56	1763.30
319.77	1863.65
319.98	1789.92
320.20	1798.12
320.41	1775.59
320.62	1761.25
320.83	1742.82
321.05	1824.74
321.26	1734.63
321.47	1697.77
321.69	1763.30
321.90	1687.53
322.11	1675.24
322.32	1699.81
322.54	1794.02
322.75	1658.85
322.96	1744.87
323.18	1632.23
323.39	1630.18
323.60	1628.14
323.81	1787.88
324.03	1652.71
324.24	1722.34
324.45	1648.61
324.66	1640.42
324.88	1765.35
325.09	1787.88
325.30	1722.34
325.52	1767.40
325.73	1710.05
325.94	1689.57
326.15	1619.94
326.37	1687.53
326.58	1736.68
326.79	1826.79
327.00	1621.99
327.22	1681.38
327.43	1632.23
327.64	1640.42
327.85	1673.19
328.07	1753.06
328.28	1837.03
328.49	1648.61
328.70	1796.07
328.92	1587.18
329.13	1724.39
329.34	1791.97
329.55	1847.27
329.76	1808.36
329.98	1744.87
330.19	1767.40
330.40	1677.29
330.61	1738.73
330.83	1763.30
331.04	1667.05
331.25	1710.05
331.46	1640.42
331.68	1665.00
331.89	1806.31
332.10	1667.05
332.31	1619.94
332.52	1683.43
332.74	1699.81
332.95	1703.91
333.16	1718.25
333.37	1734.63
333.58	1654.76
333.80	1693.67
334.01	1593.32
334.22	1697.77
334.43	1669.09
334.64	1720.29
334.86	1656.81
335.07	1556.46
335.28	1796.07
335.49	1560.55
335.70	1746.92
335.92	1673.19
336.13	1814.50
336.34	1632.23
336.55	1724.39
336.76	1755.11
336.98	1621.99
337.19	1673.19
337.40	1710.05
337.61	1888.23
337.82	1699.81
338.04	1734.63
338.25	1626.09
338.46	1716.20
338.67	1724.39
338.88	1654.76
339.09	1607.66
339.31	1671.14
339.52	1605.61
339.73	1687.53
339.94	1710.05
340.15	1765.35
340.36	1681.38
340.58	1671.14
340.79	1683.43
341.00	1832.93
341.21	1685.48
341.42	1832.93
341.63	1648.61
341.85	1757.16
342.06	1650.66
342.27	1728.49
342.48	1759.21
342.69	1634.28
342.90	1695.72
343.12	1759.21
343.33	1667.05
343.54	1697.77
343.75	1705.96
343.96	1662.95
344.17	1730.53
344.38	1673.19
344.60	1587.18
344.81	1650.66
345.02	1634.28
345.23	1757.16
345.44	1791.97
345.65	1740.77
345.86	1722.34
346.07	1640.42
346.29	1691.62
346.50	1761.25
346.71	1724.39
346.92	1802.21
347.13	1884.13
347.34	1714.15
347.55	1638.38
347.76	1775.59
347.98	1617.90
348.19	1738.73
348.40	1775.59
348.61	1642.47
348.82	1777.64
349.03	1742.82
349.24	1679.33
349.45	1800.16
349.66	1607.66
349.88	1673.19
350.09	1630.18
350.30	1800.16
350.51	1794.02
350.72	1675.24
350.93	1740.77
351.14	1650.66
351.35	1675.24
351.56	1685.48
351.77	1648.61
351.99	1681.38
352.20	1826.79
352.41	1734.63
352.62	1669.09
352.83	1722.34
353.04	1665.00
353.25	1628.14
353.46	1718.25
353.67	1714.15
353.88	1589.22
354.09	1728.49
354.30	1683.43
354.52	1753.06
354.73	1730.53
354.94	1689.57
355.15	1697.77
355.36	1722.34
355.57	1675.24
355.78	1746.92
355.99	1601.51
356.20	1689.57
356.41	1757.16
356.62	1701.86
356.83	1705.96
357.04	1785.83
357.25	1658.85
357.46	1628.14
357.68	1685.48
357.89	1734.63
358.10	1701.86
358.31	1650.66
358.52	1687.53
358.73	1662.95
358.94	1660.90
359.15	1720.29
359.36	1701.86
359.57	1681.38
359.78	1708.01
359.99	1761.25
360.20	1652.71
360.41	1687.53
360.62	1755.11
360.83	1763.30
361.04	1722.34
361.25	1740.77
361.46	1746.92
361.67	1767.40
361.88	1705.96
362.09	1751.01
362.30	1773.54
362.51	1611.75
362.72	1753.06
362.93	1718.25
363.14	1755.11
363.35	1638.38
363.56	1634.28
363.78	1765.35
363.99	1677.29
364.20	1644.52
364.41	1740.77
364.62	1796.07
364.83	1777.64
365.04	1738.73
365.25	1671.14
365.46	1789.92
365.67	1681.38
365.88	1615.85
366.09	1681.38
366.30	1675.24
366.51	1714.15
366.72	1640.42
366.93	1730.53
367.14	1640.42
367.35	1771.49
367.56	1662.95
367.77	1746.92
367.98	1677.29
368.18	1667.05
368.39	1763.30
368.60	1689.57
368.81	1804.26
369.02	1718.25
369.23	1685.48
369.44	1589.22
369.65	1685.48
369.86	1771.49
370.07	1714.15
370.28	1673.19
370.49	1632.23
370.70	1742.82
370.91	1617.90
371.12	1585.13
371.33	1783.78
371.54	1716.20
371.75	1798.12
371.96	1570.79
372.17	1634.28
372.38	1722.34
372.59	1716.20
372.80	1716.20
373.01	1746.92
373.22	1644.52
373.43	1667.05
373.64	1677.29
373.85	1777.64
374.06	1742.82
374.26	1728.49
374.47	1724.39
374.68	1785.83
374.89	1740.77
375.10	1673.19
375.31	1697.77
375.52	1718.25
375.73	1703.91
375.94	1603.56
376.15	1798.12
376.36	1677.29
376.57	1753.06
376.78	1626.09
376.99	1675.24
377.20	1714.15
377.40	1617.90
377.61	1800.16
377.82	1652.71
378.03	1806.31
378.24	1730.53
378.45	1724.39
378.66	1624.04
378.87	1636.33
379.08	1538.02
379.29	1710.05
379.50	1738.73
379.71	1673.19
379.91	1714.15
380.12	1746.92
380.33	1662.95
380.54	1677.29
380.75	1734.63
380.96	1722.34
381.17	1746.92
381.38	1681.38
381.59	1800.16
381.80	1759.21
382.00	1787.88
382.21	1789.92
382.42	1773.54
382.63	1789.92
382.84	1730.53
383.05	1630.18
383.26	1757.16
383.47	1751.01
383.68	1734.63
383.88	1828.84
384.09	1736.68
384.30	1781.73
384.51	1789.92
384.72	1669.09
384.93	1615.85
385.14	1683.43
385.35	1759.21
385.55	1685.48
385.76	1781.73
385.97	1617.90
386.18	1695.72
386.39	1693.67
386.60	1687.53
386.81	1703.91
387.02	1683.43
387.22	1708.01
387.43	1757.16
387.64	1769.44
387.85	1867.75
388.06	2160.61
388.27	4276.16
388.48	6870.94
388.68	8212.35
388.89	9670.51
389.10	9807.72
389.31	8576.89
389.52	7620.49
389.73	6670.23
389.93	6225.82
390.14	5871.53
390.35	5310.38
390.56	4552.63
390.77	3854.28
390.98	3020.75
391.18	2396.12
391.39	2117.60
391.60	1898.47
391.81	1822.69
392.02	1726.44
392.23	1818.60
392.43	1761.25
392.64	1802.21
392.85	1701.86
393.06	1822.69
393.27	1730.53
393.47	1640.42
393.68	1697.77
393.89	1683.43
394.10	1769.44
394.31	1699.81
394.52	1650.66
394.72	1794.02
394.93	1841.12
395.14	1605.61
395.35	1796.07
395.56	1691.62
395.76	1714.15
395.97	1855.46
396.18	1853.41
396.39	1916.90
396.60	2000.87
396.80	1890.28
397.01	1796.07
397.22	1871.84
397.43	1816.55
397.64	1744.87
397.84	1832.93
398.05	1853.41
398.26	1705.96
398.47	1787.88
398.67	1716.20
398.88	1755.11
399.09	1724.39
399.30	1673.19
399.51	1771.49
399.71	1607.66
399.92	1650.66
400.13	1759.21
400.34	1656.81
400.54	1677.29
400.75	1804.26
400.96	1769.44
401.17	1765.35
401.37	1755.11
401.58	1695.72
401.79	1757.16
402.00	1873.89
402.21	1998.82
402.41	1877.99
402.62	1978.34
402.83	2093.02
403.04	2009.06
403.24	2082.78
403.45	1824.74
403.66	1929.19
403.87	1910.75
404.07	1976.29
404.28	1865.70
404.49	1845.22
404.70	1806.31
404.90	1837.03
405.11	1765.35
405.32	1718.25
405.52	1679.33
405.73	1652.71
405.94	1654.76
406.15	1785.83
406.35	1744.87
406.56	1734.63
406.77	1673.19
406.98	1763.30
407.18	1693.67
407.39	1794.02
407.60	1671.14
407.80	1724.39
408.01	1665.00
408.22	1699.81
408.43	1650.66
408.63	1763.30
408.84	1794.02
409.05	1759.21
409.25	1605.61
409.46	1708.01
409.67	1705.96
409.88	1720.29
410.08	1738.73
410.29	1728.49
410.50	1755.11
410.70	1703.91
410.91	1693.67
411.12	1689.57
411.32	1724.39
411.53	1755.11
411.74	1812.45
411.95	1695.72
412.15	1736.68
412.36	1785.83
412.57	1742.82
412.77	1771.49
412.98	1791.97
413.19	1611.75
413.39	1736.68
413.60	1873.89
413.81	1816.55
414.01	1714.15
414.22	1648.61
414.43	1791.97
414.63	1796.07
414.84	1751.01
415.05	1771.49
415.25	1624.04
415.46	1779.68
415.67	1665.00
415.87	1712.10
416.08	1691.62
416.29	1701.86
416.49	1822.69
416.70	1648.61
416.91	1687.53
417.11	1740.77
417.32	1822.69
417.53	1726.44
417.73	1665.00
417.94	1705.96
418.15	1746.92
418.35	1716.20
418.56	1665.00
418.77	1824.74
418.97	1609.70
419.18	1763.30
419.38	1587.18
419.59	1730.53
419.80	1806.31
420.00	1734.63
420.21	1699.81
420.42	1726.44
420.62	1703.91
420.83	1708.01
421.04	1697.77
421.24	1630.18
421.45	1757.16
421.65	1763.30
421.86	1669.09
422.07	1794.02
422.27	1796.07
422.48	1677.29
422.69	1652.71
422.89	1791.97
423.10	1634.28
423.30	1677.29
423.51	1775.59
423.72	1697.77
423.92	1720.29
424.13	1660.90
424.33	1703.91
424.54	1759.21
424.75	1621.99
424.95	1718.25
425.16	1718.25
425.36	1638.38
425.57	1748.97
425.78	1765.35
425.98	1650.66
426.19	1628.14
426.39	1650.66
426.60	1703.91
426.81	1834.98
427.01	1634.28
427.22	1701.86
427.42	1613.80
427.63	1634.28
427.83	1804.26
428.04	1771.49
428.25	1794.02
428.45	1759.21
428.66	1671.14
428.86	1740.77
429.07	1675.24
429.28	1722.34
429.48	1693.67
429.69	1642.47
429.89	1714.15
430.10	1681.38
430.30	1714.15
430.51	1781.73
430.71	1660.90
430.92	1613.80
431.13	1710.05
431.33	1796.07
431.54	1701.86
431.74	1894.37
431.95	1877.99
432.15	1693.67
432.36	1732.58
432.56	1818.60
432.77	1822.69
432.98	1812.45
433.18	1728.49
433.39	1730.53
433.59	1650.66
433.80	1837.03
434.00	1810.40
434.21	1683.43
434.41	1712.10
434.62	1837.03
434.82	1621.99
435.03	1710.05
435.23	1720.29
435.44	1591.27
435.64	1632.23
435.85	1673.19
436.06	1673.19
436.26	1800.16
436.47	1689.57
436.67	1648.61
436.88	1681.38
437.08	1701.86
437.29	1845.22
437.49	1710.05
437.70	1769.44
437.90	1705.96
438.11	1839.08
438.31	1832.93
438.52	1914.85
438.72	1869.80
438.93	1900.52
439.13	1859.56
439.34	1798.12
439.54	1730.53
439.75	1845.22
439.95	1742.82
440.16	1789.92
440.36	1769.44
440.57	1751.01
440.77	1710.05
440.98	1771.49
441.18	1726.44
441.39	1607.66
441.59	1689.57
441.80	1902.56
442.00	1732.58
442.21	1802.21
442.41	1712.10
442.62	1783.78
442.82	1699.81
443.02	1753.06
443.23	1726.44
443.43	1728.49
443.64	1830.88
443.84	1632.23
444.05	1794.02
444.25	1755.11
444.46	1675.24
444.66	1767.40
444.87	1839.08
445.07	1658.85
445.28	1771.49
445.48	1787.88
445.69	1767.40
445.89	1869.80
446.09	1787.88
446.30	2017.25
446.50	2633.69
446.71	3704.78
446.91	4362.17
447.12	4755.38
447.32	4841.40
447.53	4403.13
447.73	3921.86
447.93	3643.34
448.14	3295.18
448.34	3162.06
448.55	2861.01
448.75	2852.82
448.96	2674.65
449.16	2422.75
449.36	2324.44
449.57	2058.21
449.77	1859.56
449.98	1755.11
450.18	1781.73
450.39	1818.60
450.59	1798.12
450.79	1763.30
451.00	1759.21
451.20	1734.63
451.41	1732.58
451.61	1736.68
451.81	1816.55
452.02	1705.96
452.22	1736.68
452.43	1708.01
452.63	1712.10
452.84	1740.77
453.04	1621.99
453.24	1777.64
453.45	1660.90
453.65	1728.49
453.86	1705.96
454.06	1724.39
454.26	1730.53
454.47	1710.05
454.67	1791.97
454.87	1730.53
455.08	1697.77
455.28	1857.51
455.49	1736.68
455.69	1695.72
455.89	1759.21
456.10	1816.55
456.30	1732.58
456.51	1744.87
456.71	1736.68
456.91	1763.30
457.12	1751.01
457.32	1689.57
457.52	1716.20
457.73	1808.36
457.93	1806.31
458.14	1712.10
458.34	1566.70
458.54	1714.15
458.75	1691.62
458.95	1834.98
459.15	1699.81
459.36	1761.25
459.56	1771.49
459.76	1794.02
459.97	1769.44
460.17	1744.87
460.37	1773.54
460.58	1703.91
460.78	1757.16
460.99	1660.90
461.19	1722.34
461.39	1705.96
461.60	1730.53
461.80	1720.29
462.00	1650.66
462.21	1695.72
462.41	1738.73
462.61	1589.22
462.82	1642.47
463.02	1769.44
463.22	1744.87
463.43	1767.40
463.63	1640.42
463.83	1843.17
464.04	1712.10
464.24	1697.77
464.44	1812.45
464.64	1734.63
464.85	1753.06
465.05	1820.64
465.25	1779.68
465.46	1689.57
465.66	1730.53
465.86	1808.36
466.07	1691.62
466.27	1687.53
466.47	1644.52
466.68	1595.37
466.88	1832.93
467.08	1759.21
467.29	1685.48
467.49	1697.77
467.69	1673.19
467.89	1748.97
468.10	1710.05
468.30	1650.66
468.50	1777.64
468.71	1775.59
468.91	1628.14
469.11	1877.99
469.31	1732.58
469.52	1626.09
469.72	1738.73
469.92	1896.42
470.13	1794.02
470.33	1718.25
470.53	1777.64
470.73	2113.50
470.94	2314.20
471.14	2365.40
471.34	2451.42
471.54	2488.28
471.75	2213.85
471.95	2117.60
472.15	2136.03
472.36	2101.22
472.56	2111.46
472.76	2050.02
472.96	2041.82
473.17	1941.47
473.37	1871.84
473.57	1804.26
473.77	1892.32
473.98	1773.54
474.18	1773.54
474.38	1875.94
474.58	1734.63
474.79	1673.19
474.99	1736.68
475.19	1767.40
475.39	1613.80
475.60	1714.15
475.80	1771.49
476.00	1681.38
476.20	1646.57
476.41	1695.72
476.61	1818.60
476.81	1826.79
477.01	1732.58
477.21	1873.89
477.42	1804.26
477.62	1693.67
477.82	1816.55
478.02	1681.38
478.23	1703.91
478.43	1646.57
478.63	1695.72
478.83	1724.39
479.03	1693.67
479.24	1763.30
479.44	1710.05
479.64	1714.15
479.84	1642.47
480.04	1665.00
480.25	1828.84
480.45	1703.91
480.65	1746.92
480.85	1785.83
481.06	1675.24
481.26	1765.35
481.46	1800.16
481.66	1765.35
481.86	1683.43
482.06	1757.16
482.27	1669.09
482.47	1757.16
482.67	1808.36
482.87	1685.48
483.07	1812.45
483.28	1665.00
483.48	1628.14
483.68	1775.59
483.88	1644.52
484.08	1632.23
484.29	1673.19
484.49	1800.16
484.69	1607.66
484.89	1804.26
485.09	1740.77
485.29	1781.73
485.50	1753.06
485.70	1658.85
485.90	1826.79
486.10	1728.49
486.30	1828.84
486.50	1804.26
486.71	1681.38
486.91	1763.30
487.11	1787.88
487.31	1603.56
487.51	1794.02
487.71	1644.52
487.91	1669.09
488.12	1685.48
488.32	1603.56
488.52	1677.29
488.72	1624.04
488.92	1746.92
489.12	1796.07
489.32	1765.35
489.53	1697.77
489.73	1636.33
489.93	1761.25
490.13	1642.47
490.33	1683.43
490.53	1718.25
490.73	1736.68
490.94	1650.66
491.14	1730.53
491.34	1865.70
491.54	2160.61
491.74	2539.48
491.94	2942.93
492.14	3033.04
492.34	3022.80
492.54	2772.95
492.75	2457.56
492.95	2545.63
493.15	2330.59
493.35	2236.38
493.55	2095.07
493.75	2088.93
493.95	2226.14
494.15	2080.74
494.35	1908.71
494.56	1890.28
494.76	1892.32
494.96	1769.44
495.16	1757.16
495.36	1777.64
495.56	1724.39
495.76	1746.92
495.96	1710.05
496.16	1712.10
496.36	1742.82
496.56	1767.40
496.77	1732.58
496.97	1726.44
497.17	1796.07
497.37	1656.81
497.57	1779.68
497.77	1777.64
497.97	1691.62
498.17	1789.92
498.37	1722.34
498.57	1716.20
498.77	1724.39
498.97	1771.49
499.17	1837.03
499.38	1742.82
499.58	1732.58
499.78	1771.49
499.98	1763.30
500.18	1714.15
500.38	1734.63
500.58	1865.70
500.78	2492.38
500.98	4569.02
501.18	5867.43
501.38	6711.19
501.58	7169.94
501.78	6743.96
501.98	5584.81
502.18	4945.84
502.38	4335.55
502.58	4167.62
502.78	3876.80
502.98	3659.72
503.18	3487.69
503.38	3248.08
503.59	2904.02
503.79	2758.61
503.99	2500.57
504.19	2287.58
504.39	2234.33
504.59	2172.89
504.79	2115.55
504.99	2095.07
505.19	1931.23
505.39	1916.90
505.59	2025.44
505.79	1951.71
505.99	1816.55
506.19	1771.49
506.39	1759.21
506.59	1777.64
506.79	1667.05
506.99	1808.36
507.19	1777.64
507.39	1742.82
507.59	1624.04
507.79	1734.63
507.99	1638.38
508.19	1765.35
508.39	1634.28
508.59	1720.29
508.79	1824.74
508.99	1869.80
509.19	1705.96
509.39	1800.16
509.59	1662.95
509.79	1740.77
509.99	1691.62
510.19	1716.20
510.39	1728.49
510.59	1757.16
510.79	1773.54
510.99	1660.90
511.19	1789.92
511.39	1853.41
511.59	1834.98
511.79	1857.51
511.99	1699.81
512.19	1785.83
512.38	1728.49
512.58	1648.61
512.78	1710.05
512.98	1763.30
513.18	1855.46
513.38	1638.38
513.58	1738.73
513.78	1755.11
513.98	1677.29
514.18	1708.01
514.38	1736.68
514.58	1699.81
514.78	1677.29
514.98	1660.90
515.18	1669.09
515.38	1705.96
515.58	1783.78
515.78	1656.81
515.98	1673.19
516.18	1796.07
516.38	1658.85
516.57	1732.58
516.77	1703.91
516.97	1767.40
517.17	1716.20
517.37	1681.38
517.57	1724.39
517.77	1763.30
517.97	1667.05
518.17	1767.40
518.37	1734.63
518.57	1757.16
518.77	1679.33
518.97	1722.34
519.16	1738.73
519.36	1759.21
519.56	1751.01
519.76	1681.38
519.96	1726.44
520.16	1791.97
520.36	1683.43
520.56	1701.86
520.76	1642.47
520.96	1669.09
521.16	1804.26
521.35	1769.44
521.55	1789.92
521.75	1744.87
521.95	1722.34
522.15	1763.30
522.35	1658.85
522.55	1603.56
522.75	1740.77
522.95	1734.63
523.14	1730.53
523.34	1738.73
523.54	1652.71
523.74	1773.54
523.94	1730.53
524.14	1736.68
524.34	1697.77
524.54	1781.73
524.73	1673.19
524.93	1736.68
525.13	1703.91
525.33	1662.95
525.53	1837.03
525.73	1718.25
525.93	1693.67
526.13	1683.43
526.32	1695.72
526.52	1753.06
526.72	1832.93
526.92	1720.29
527.12	1675.24
527.32	1636.33
527.52	1753.06
527.71	1720.29
527.91	1683.43
528.11	1662.95
528.31	1726.44
528.51	1656.81
528.71	1837.03
528.90	1806.31
529.10	1845.22
529.30	1820.64
529.50	1636.33
529.70	1722.34
529.90	1796.07
530.09	1671.14
530.29	1728.49
530.49	1583.08
530.69	1916.90
530.89	1777.64
531.09	1767.40
531.28	1767.40
531.48	1824.74
531.68	1740.77
531.88	1746.92
532.08	1804.26
532.28	1712.10
532.47	1738.73
532.67	1767.40
532.87	1685.48
533.07	1648.61
533.27	1767.40
533.46	1763.30
533.66	1740.77
533.86	1695.72
534.06	1781.73
534.26	1765.35
534.45	1722.34
534.65	1779.68
534.85	1679.33
535.05	1681.38
535.25	1767.40
535.44	1621.99
535.64	1845.22
535.84	1736.68
536.04	1675.24
536.24	1710.05
536.43	1736.68
536.63	1789.92
536.83	1669.09
537.03	1757.16
537.22	1665.00
537.42	1660.90
537.62	1705.96
537.82	1648.61
538.02	1716.20
538.21	1877.99
538.41	1945.57
538.61	1681.38
538.81	1744.87
539.00	1779.68
539.20	1748.97
539.40	1687.53
539.60	1734.63
539.79	1787.88
539.99	1740.77
540.19	1589.22
540.39	1712.10
540.58	1656.81
540.78	1734.63
540.98	1738.73
541.18	1701.86
541.37	1662.95
541.57	1710.05
541.77	1722.34
541.97	1724.39
542.16	1574.89
542.36	1738.73
542.56	1730.53
542.76	1845.22
542.95	1755.11
543.15	1683.43
543.35	1722.34
543.54	1691.62
543.74	1759.21
543.94	1791.97
544.14	1744.87
544.33	1744.87
544.53	1671.14
544.73	1708.01
544.93	1724.39
545.12	1726.44
545.32	1728.49
545.52	1671.14
545.71	1771.49
545.91	1728.49
546.11	1712.10
546.30	1656.81
546.50	1699.81
546.70	1804.26
546.90	1691.62
547.09	1650.66
547.29	1773.54
547.49	1724.39
547.68	1796.07
547.88	1705.96
548.08	1740.77
548.27	2176.99
548.47	1708.01
548.67	1697.77
548.87	1816.55
549.06	1705.96
549.26	1828.84
549.46	1734.63
549.65	1708.01
549.85	1798.12
550.05	1732.58
550.24	1679.33
550.44	1730.53
550.64	1708.01
550.83	1712.10
551.03	1853.41
551.23	1736.68
551.42	1736.68
551.62	1693.67
551.82	1796.07
552.01	1757.16
552.21	1832.93
552.41	1738.73
552.60	1794.02
552.80	1691.62
553.00	1660.90
553.19	1740.77
553.39	1820.64
553.59	1669.09
553.78	1701.86
553.98	1810.40
554.17	1611.75
554.37	1738.73
554.57	1800.16
554.76	1689.57
554.96	1652.71
555.16	1812.45
555.35	1683.43
555.55	1775.59
555.75	1839.08
555.94	1802.21
556.14	1660.90
556.33	1761.25
556.53	1759.21
556.73	1726.44
556.92	1771.49
557.12	1837.03
557.32	1820.64
557.51	1837.03
557.71	1751.01
557.90	1806.31
558.10	1775.59
558.30	1720.29
558.49	1689.57
558.69	1701.86
558.88	1697.77
559.08	1761.25
559.28	1687.53
559.47	1730.53
559.67	1716.20
559.86	1857.51
560.06	1767.40
560.26	1771.49
560.45	1746.92
560.65	1730.53
560.84	1783.78
561.04	1718.25
561.24	1742.82
561.43	1656.81
561.63	1841.12
561.82	1699.81
562.02	1728.49
562.22	1693.67
562.41	1705.96
562.61	1759.21
562.80	1697.77
563.00	1939.43
563.19	1720.29
563.39	1775.59
563.59	1732.58
563.78	1718.25
563.98	1667.05
564.17	1638.38
564.37	1558.50
564.56	1763.30
564.76	1652.71
564.96	1882.08
565.15	1718.25
565.35	1824.74
565.54	1775.59
565.74	1767.40
565.93	1724.39
566.13	1759.21
566.32	1781.73
566.52	1775.59
566.71	1744.87
566.91	1767.40
567.11	1796.07
567.30	1679.33
567.50	1736.68
567.69	1699.81
567.89	1718.25
568.08	1660.90
568.28	1755.11
568.47	1755.11
568.67	1748.97
568.86	1685.48
569.06	1847.27
569.25	1693.67
569.45	1722.34
569.64	1746.92
569.84	1751.01
570.04	1777.64
570.23	1716.20
570.43	1748.97
570.62	1765.35
570.82	1812.45
571.01	1675.24
571.21	1718.25
571.40	1746.92
571.60	1787.88
571.79	1800.16
571.99	1701.86
572.18	1687.53
572.38	1761.25
572.57	1720.29
572.77	1757.16
572.96	1875.94
573.16	1718.25
573.35	1685.48
573.55	1834.98
573.74	1814.50
573.94	1791.97
574.13	1712.10
574.33	1767.40
574.52	1847.27
574.71	1730.53
574.91	1753.06
575.10	1759.21
575.30	1755.11
575.49	1736.68
575.69	1703.91
575.88	1722.34
576.08	1724.39
576.27	1748.97
576.47	1724.39
576.66	1871.84
576.86	1826.79
577.05	1705.96
577.25	1810.40
577.44	1933.28
577.64	1765.35
577.83	1830.88
578.02	1763.30
578.22	1734.63
578.41	1808.36
578.61	1708.01
578.80	1716.20
579.00	1738.73
579.19	1693.67
579.39	1767.40
579.58	1781.73
579.77	1787.88
579.97	1814.50
580.16	1765.35
580.36	1849.32
580.55	1824.74
580.75	1804.26
580.94	1742.82
581.13	1855.46
581.33	1884.13
581.52	1744.87
581.72	1861.60
581.91	1804.26
582.11	1624.04
582.30	1728.49
582.49	1755.11
582.69	1906.66
582.88	1757.16
583.08	1769.44
583.27	1794.02
583.47	1742.82
583.66	1705.96
583.85	1669.09
584.05	1759.21
584.24	1763.30
584.44	1724.39
584.63	1822.69
584.82	1873.89
585.02	1759.21
585.21	1822.69
585.41	1865.70
585.60	1884.13
585.79	1949.67
585.99	1972.19
586.18	1910.75
586.37	2238.43
586.57	3360.72
586.76	10119.01
586.96	24501.90
587.15	34397.68
587.34	40844.69
587.54	42323.32
587.73	37131.72
587.93	26429.04
588.12	21831.35
588.31	18419.43
588.51	16520.96
588.70	15142.68
588.89	14128.94
589.09	12623.68
589.28	11200.34
589.47	9490.29
589.67	8064.90
589.86	6436.77
590.06	4945.84
590.25	3962.82
590.44	3039.19
590.64	2615.26
590.83	2357.21
591.02	2162.66
591.22	2000.87
591.41	1931.23
591.60	1834.98
591.80	1945.57
591.99	1746.92
592.18	1673.19
592.38	1832.93
592.57	1781.73
592.76	1736.68
592.96	1746.92
593.15	1818.60
593.34	1791.97
593.54	1757.16
593.73	1740.77
593.92	1681.38
594.12	1761.25
594.31	1703.91
594.50	1865.70
594.70	1712.10
594.89	1855.46
595.08	1665.00
595.28	1773.54
595.47	1935.33
595.66	1796.07
595.86	1636.33
596.05	1775.59
596.24	1718.25
596.43	1861.60
596.63	1800.16
596.82	1794.02
597.01	1746.92
597.21	1812.45
597.40	1755.11
597.59	1708.01
597.79	1683.43
597.98	1767.40
598.17	1718.25
598.36	1718.25
598.56	1783.78
598.75	1710.05
598.94	1712.10
599.14	1765.35
599.33	1761.25
599.52	1726.44
599.71	1746.92
599.91	1755.11
600.10	1777.64
600.29	1748.97
600.48	1828.84
600.68	1798.12
600.87	1726.44
601.06	1728.49
601.26	1753.06
601.45	1763.30
601.64	1744.87
601.83	1802.21
602.03	1728.49
602.22	1705.96
602.41	1773.54
602.60	1888.23
602.80	1740.77
602.99	1748.97
603.18	1671.14
603.37	1736.68
603.57	1761.25
603.76	1767.40
603.95	1791.97
604.14	1726.44
604.34	1648.61
604.53	1689.57
604.72	1763.30
604.91	1759.21
605.10	1753.06
605.30	1740.77
605.49	1828.84
605.68	1773.54
605.87	1775.59
606.07	1751.01
606.26	1720.29
606.45	1697.77
606.64	1681.38
606.84	1761.25
607.03	1736.68
607.22	1718.25
607.41	1712.10
607.60	1660.90
607.80	1814.50
607.99	1798.12
608.18	1798.12
608.37	1751.01
608.56	1677.29
608.76	1763.30
608.95	1802.21
609.14	1718.25
609.33	1794.02
609.52	1705.96
609.72	1753.06
609.91	1748.97
610.10	1783.78
610.29	1826.79
610.48	1744.87
610.68	1746.92
610.87	1769.44
611.06	1771.49
611.25	1714.15
611.44	1687.53
611.63	1681.38
611.83	1806.31
612.02	1665.00
612.21	1828.84
612.40	1572.84
612.59	1640.42
612.79	1730.53
612.98	1771.49
613.17	1869.80
613.36	1677.29
613.55	1779.68
613.74	1740.77
613.93	1652.71
614.13	1699.81
614.32	1763.30
614.51	1775.59
614.70	1705.96
614.89	1765.35
615.08	1748.97
615.28	2093.02
615.47	1689.57
615.66	1775.59
615.85	1722.34
616.04	1794.02
616.23	1736.68
616.42	1742.82
616.62	1732.58
616.81	1785.83
617.00	1677.29
617.19	1675.24
617.38	1714.15
617.57	1734.63
617.76	1724.39
617.95	1730.53
618.15	1763.30
618.34	1824.74
618.53	1640.42
618.72	1826.79
618.91	1828.84
619.10	1843.17
619.29	1769.44
619.48	1720.29
619.68	1695.72
619.87	1712.10
620.06	1671.14
620.25	1740.77
620.44	1732.58
620.63	1613.80
620.82	1746.92
621.01	1730.53
621.20	1687.53
621.39	1746.92
621.59	1693.67
621.78	1695.72
621.97	1718.25
622.16	1783.78
622.35	1710.05
622.54	1763.30
622.73	1765.35
622.92	1617.90
623.11	1753.06
623.30	1783.78
623.49	1746.92
623.68	1640.42
623.88	1765.35
624.07	1710.05
624.26	1654.76
624.45	1693.67
624.64	1716.20
624.83	1769.44
625.02	1693.67
625.21	1685.48
625.40	1738.73
625.59	1810.40
625.78	1742.82
625.97	1748.97
626.16	1751.01
626.35	1791.97
626.54	1667.05
626.74	1734.63
626.93	1677.29
627.12	1763.30
627.31	1775.59
627.50	1781.73
627.69	1845.22
627.88	1662.95
628.07	1716.20
628.26	1724.39
628.45	1683.43
628.64	1714.15
628.83	1718.25
629.02	1660.90
629.21	1742.82
629.40	1689.57
629.59	1636.33
629.78	1728.49
629.97	1660.90
630.16	1769.44
630.35	1656.81
630.54	1708.01
630.73	1683.43
630.92	1673.19
631.11	1673.19
631.30	1794.02
631.49	1785.83
631.68	1712.10
631.87	1755.11
632.06	1640.42
632.25	1812.45
632.44	1675.24
632.63	1673.19
632.82	1648.61
633.01	1660.90
633.20	1748.97
633.39	1683.43
633.58	1574.89
633.77	1703.91
633.96	1761.25
634.15	1761.25
634.34	1697.77
634.53	1730.53
634.72	1708.01
634.91	1619.94
635.10	1732.58
635.29	1710.05
635.48	1726.44
635.67	1689.57
635.86	1632.23
636.05	1796.07
636.24	1802.21
636.43	1763.30
636.62	1871.84
636.81	1538.02
637.00	1761.25
637.19	1755.11
637.38	1710.05
637.57	1722.34
637.76	1656.81
637.95	1753.06
638.14	1609.70
638.33	1693.67
638.52	1716.20
638.71	1626.09
638.89	1585.13
639.08	1871.84
639.27	1779.68
639.46	1693.67
639.65	1789.92
639.84	1775.59
640.03	1785.83
640.22	1771.49
640.41	1796.07
640.60	1691.62
640.79	1695.72
640.98	1720.29
641.17	1724.39
641.36	1642.47
641.55	1800.16
641.74	1619.94
641.92	1671.14
642.11	1658.85
642.30	1742.82
642.49	1675.24
642.68	1681.38
642.87	1683.43
643.06	1812.45
643.25	1703.91
643.44	1710.05
643.63	1652.71
643.82	1718.25
644.00	1607.66
644.19	1673.19
644.38	1673.19
644.57	1765.35
644.76	1738.73
644.95	1691.62
645.14	1714.15
645.33	1712.10
645.52	1751.01
645.71	1697.77
645.89	1675.24
646.08	1708.01
646.27	1679.33
646.46	1781.73
646.65	1611.75
646.84	1695.72
647.03	1650.66
647.22	1800.16
647.40	1734.63
647.59	1642.47
647.78	1693.67
647.97	1697.77
648.16	1650.66
648.35	1789.92
648.54	1734.63
648.73	1642.47
648.91	1769.44
649.10	1730.53
649.29	1640.42
649.48	1744.87
649.67	1746.92
649.86	1796.07
650.05	1675.24
650.23	1808.36
650.42	1671.14
650.61	1679.33
650.80	1683.43
650.99	1785.83
651.18	1744.87
651.36	1716.20
651.55	1662.95
651.74	1744.87
651.93	1697.77
652.12	1652.71
652.31	1722.34
652.49	1748.97
652.68	1697.77
652.87	1796.07
653.06	1699.81
653.25	1841.12
653.44	1697.77
653.62	1814.50
653.81	1720.29
654.00	1742.82
654.19	1738.73
654.38	1845.22
654.56	1701.86
654.75	1710.05
654.94	1695.72
655.13	1791.97
655.32	1775.59
655.51	1736.68
655.69	1708.01
655.88	1728.49
656.07	1710.05
656.26	1761.25
656.45	1660.90
656.63	1710.05
656.82	1638.38
657.01	1787.88
657.20	1718.25
657.38	1732.58
657.57	1687.53
657.76	1712.10
657.95	1718.25
658.14	1720.29
658.32	1677.29
658.51	1644.52
658.70	1699.81
658.89	1728.49
659.08	1728.49
659.26	1769.44
659.45	1667.05
659.64	1734.63
659.83	1703.91
660.01	1890.28
660.20	1660.90
660.39	1779.68
660.58	1613.80
660.76	1753.06
660.95	1681.38
661.14	1699.81
661.33	1667.05
661.51	1718.25
661.70	1802.21
661.89	1646.57
662.08	1720.29
662.26	1703.91
662.45	1650.66
662.64	1865.70
662.83	1714.15
663.01	1673.19
663.20	1751.01
663.39	1746.92
663.58	1691.62
663.76	1689.57
663.95	1894.37
664.14	1615.85
664.32	1634.28
664.51	1714.15
664.70	1644.52
664.89	1785.83
665.07	1660.90
665.26	1800.16
665.45	1574.89
665.64	1742.82
665.82	1710.05
666.01	1732.58
666.20	1734.63
666.38	1814.50
666.57	1812.45
666.76	2211.81
666.95	4413.37
667.13	10188.64
667.32	15202.07
667.51	17985.26
667.69	19275.48
667.88	17655.54
668.07	12369.73
668.25	9533.29
668.44	8226.69
668.63	7380.88
668.81	6784.92
669.00	6234.02
669.19	5769.13
669.38	5085.11
669.56	4530.11
669.75	3946.44
669.94	3391.44
670.12	2910.16
670.31	2568.15
670.50	2289.63
670.68	2060.26
670.87	1927.14
671.06	1808.36
671.24	1781.73
671.43	1863.65
671.62	1728.49
671.80	1720.29
671.99	1734.63
672.18	1736.68
672.36	1783.78
672.55	1761.25
672.74	1738.73
672.92	1658.85
673.11	1699.81
673.29	1656.81
673.48	1755.11
673.67	1658.85
673.85	1828.84
674.04	1660.90
674.23	1767.40
674.41	1822.69
674.60	1675.24
674.79	1560.55
674.97	1660.90
675.16	1822.69
675.34	1824.74
675.53	1642.47
675.72	1761.25
675.90	1755.11
676.09	1660.90
676.28	1640.42
676.46	1621.99
676.65	1677.29
676.83	1689.57
677.02	1687.53
677.21	1722.34
677.39	1769.44
677.58	1564.65
677.77	1748.97
677.95	1564.65
678.14	1675.24
678.32	1746.92
678.51	1679.33
678.70	1744.87
678.88	1652.71
679.07	1716.20
679.25	1640.42
679.44	1742.82
679.63	1667.05
679.81	1771.49
680.00	1724.39
680.18	1765.35
680.37	1773.54
680.55	1712.10
680.74	1648.61
680.93	1533.93
681.11	1714.15
681.30	1734.63
681.48	1746.92
681.67	1632.23
681.85	1652.71
682.04	1716.20
682.23	1755.11
682.41	1798.12
682.60	1665.00
682.78	1705.96
682.97	1646.57
683.15	1722.34
683.34	1656.81
683.53	1736.68
683.71	1642.47
683.90	1769.44
684.08	1814.50
684.27	1673.19
684.45	1701.86
684.64	1796.07
684.82	1710.05
685.01	1732.58
685.19	1673.19
685.38	1740.77
685.57	1710.05
685.75	1636.33
685.94	1734.63
686.12	1638.38
686.31	1640.42
686.49	1789.92
686.68	1640.42
686.86	1767.40
687.05	1578.98
687.23	1816.55
687.42	1710.05
687.60	1646.57
687.79	1740.77
687.97	1736.68
688.16	1781.73
688.34	1800.16
688.53	1665.00
688.71	1820.64
688.90	1761.25
689.08	1697.77
689.27	1576.94
689.45	1738.73
689.64	1767.40
689.82	1724.39
690.01	1718.25
690.19	1789.92
690.38	1705.96
690.56	1765.35
690.75	1665.00
690.93	1718.25
691.12	1689.57
691.30	1648.61
691.49	1632.23
691.67	1697.77
691.86	1785.83
692.04	1656.81
692.23	1718.25
692.41	1728.49
692.60	1886.18
692.78	1710.05
692.97	1634.28
693.15	1751.01
693.34	1822.69
693.52	1742.82
693.71	1648.61
693.89	1693.67
694.08	1624.04
694.26	1791.97
694.44	1763.30
694.63	1769.44
694.81	1697.77
695.00	1640.42
695.18	1705.96
695.37	1816.55
695.55	1755.11
695.74	1718.25
695.92	1624.04
696.10	1773.54
696.29	1595.37
696.47	1650.66
696.66	1591.27
696.84	1689.57
697.03	1802.21
697.21	1824.74
697.40	2242.53
697.58	1732.58
697.76	1669.09
697.95	1599.46
698.13	1544.17
698.32	1566.70
698.50	1671.14
698.68	1775.59
698.87	1748.97
699.05	1724.39
699.24	1751.01
699.42	1585.13
699.61	1775.59
699.79	1722.34
699.97	1736.68
700.16	1687.53
700.34	1552.36
700.53	1636.33
700.71	1857.51
700.89	1773.54
701.08	1662.95
701.26	1644.52
701.45	2099.17
701.63	1699.81
701.81	1699.81
702.00	1658.85
702.18	1730.53
702.37	1699.81
702.55	1755.11
702.73	1669.09
702.92	1646.57
703.10	1744.87
703.28	1689.57
703.47	1677.29
703.65	1847.27
703.84	1783.78
704.02	1703.91
704.20	1767.40
704.39	1673.19
704.57	1714.15
704.75	1773.54
704.94	1677.29
705.12	1699.81
705.30	1845.22
705.49	2291.68
705.67	4462.52
705.86	9408.37
706.04	12635.97
706.22	14685.98
706.41	15615.76
706.59	13874.99
706.77	9824.11
706.96	7409.55
707.14	6573.98
707.32	5973.92
707.51	5685.16
707.69	4966.32
707.87	4345.79
708.06	3540.94
708.24	2910.16
708.42	2406.36
708.61	2326.49
708.79	1955.81
708.97	1851.36
709.16	1810.40
709.34	1757.16
709.52	1714.15
709.71	1751.01
709.89	1783.78
710.07	1699.81
710.26	1718.25
710.44	1691.62
710.62	1796.07
710.80	1771.49
710.99	1742.82
711.17	1705.96
711.35	1652.71
711.54	1634.28
711.72	1808.36
711.90	1693.67
712.09	1665.00
712.27	1644.52
712.45	1761.25
712.63	1689.57
712.82	1736.68
713.00	1728.49
713.18	1755.11
713.37	1755.11
713.55	1740.77
713.73	1740.77
713.91	1738.73
714.10	1644.52
714.28	1648.61
714.46	1697.77
714.65	1724.39
714.83	1783.78
715.01	1746.92
715.19	1681.38
715.38	1722.34
715.56	1781.73
715.74	1724.39
715.92	1578.98
716.11	1853.41
716.29	1685.48
716.47	1689.57
716.65	1658.85
716.84	1636.33
717.02	1765.35
717.20	1638.38
717.38	1605.61
717.57	1708.01
717.75	1722.34
717.93	1665.00
718.11	1718.25
718.30	1603.56
718.48	1781.73
718.66	1689.57
718.84	1705.96
719.03	1742.82
719.21	1638.38
719.39	1763.30
719.57	1710.05
719.75	1777.64
719.94	1634.28
720.12	1724.39
720.30	1675.24
720.48	1714.15
720.67	1673.19
720.85	1679.33
721.03	1673.19
721.21	1560.55
721.39	1771.49
721.58	1755.11
721.76	1734.63
721.94	1697.77
722.12	1720.29
722.30	1716.20
722.49	1642.47
722.67	1763.30
722.85	1759.21
723.03	1589.22
723.21	1646.57
723.40	1718.25
723.58	1822.69
723.76	1738.73
723.94	1712.10
724.12	1779.68
724.30	1724.39
724.49	1746.92
724.67	1669.09
724.85	1845.22
725.03	1601.51
725.21	1591.27
725.40	1781.73
725.58	1671.14
725.76	1812.45
725.94	1683.43
726.12	1656.81
726.30	1665.00
726.49	1767.40
726.67	1736.68
726.85	1757.16
727.03	1763.30
727.21	2082.78
727.39	2867.16
727.57	3885.00
727.76	4208.58
727.94	4433.85
728.12	4468.67
728.30	3643.34
728.48	2926.55
728.66	2721.75
728.84	2527.19
729.03	2297.82
729.21	2115.55
729.39	1978.34
729.57	1900.52
729.75	1851.36
729.93	1751.01
730.11	1744.87
730.30	1673.19
730.48	1665.00
730.66	1826.79
730.84	1734.63
731.02	1673.19
731.20	1634.28
731.38	1710.05
731.56	1646.57
731.74	1607.66
731.93	1742.82
732.11	1703.91
732.29	1722.34
732.47	1734.63
732.65	1699.81
732.83	1775.59
733.01	1789.92
733.19	1689.57
733.37	1812.45
733.56	1705.96
733.74	1648.61
733.92	1718.25
734.10	1685.48
734.28	1796.07
734.46	1660.90
734.64	1624.04
734.82	1665.00
735.00	1718.25
735.18	1593.32
735.36	1628.14
735.54	1691.62
735.73	1673.19
735.91	1779.68
736.09	1763.30
736.27	1658.85
736.45	1683.43
736.63	1640.42
736.81	1648.61
736.99	1773.54
737.17	1830.88
737.35	1681.38
737.53	1734.63
737.71	1669.09
737.89	1673.19
738.07	1671.14
738.25	1712.10
738.43	1658.85
738.61	1728.49
738.80	1611.75
738.98	1597.42
739.16	1677.29
739.34	1714.15
739.52	1800.16
739.70	1583.08
739.88	1724.39
740.06	1810.40
740.24	1613.80
740.42	1746.92
740.60	1521.64
740.78	1677.29
740.96	1646.57
741.14	1630.18
741.32	1693.67
741.50	1695.72
741.68	1800.16
741.86	1806.31
742.04	1662.95
742.22	1619.94
742.40	1718.25
742.58	1794.02
742.76	1677.29
742.94	1732.58
743.12	1665.00
743.30	1730.53
743.48	1701.86
743.66	1699.81
743.84	1716.20
744.02	1634.28
744.20	1734.63
744.38	1648.61
744.56	1689.57
744.74	1855.46
744.92	1705.96
745.10	1800.16
745.28	1781.73
745.46	1834.98
745.64	1638.38
745.82	1718.25
746.00	1683.43
746.18	1703.91
746.36	1646.57
746.54	1763.30
746.72	1669.09
746.90	1636.33
747.08	1736.68
747.26	1732.58
747.44	1726.44
747.62	1736.68
747.80	1714.15
747.98	1710.05
748.15	1708.01
748.33	1734.63
748.51	1669.09
748.69	1710.05
748.87	1687.53
749.05	1671.14
749.23	1705.96
749.41	1763.30
749.59	1693.67
749.77	1718.25
749.95	1632.23
750.13	1630.18
750.31	1769.44
750.49	1662.95
750.67	1753.06
750.85	1804.26
751.03	1746.92
751.20	1796.07
751.38	1689.57
751.56	1652.71
751.74	1753.06
751.92	1652.71
752.10	1652.71
752.28	1759.21
752.46	1605.61
752.64	1638.38
752.82	1626.09
753.00	1724.39
753.18	1708.01
753.35	1617.90
753.53	1640.42
753.71	1691.62
753.89	1765.35
754.07	1671.14
754.25	1767.40
754.43	1703.91
754.61	1615.85
754.79	1769.44
754.97	1667.05
755.14	1722.34
755.32	1601.51
755.50	1703.91
755.68	1691.62
755.86	1644.52
756.04	1615.85
756.22	1613.80
756.40	1763.30
756.57	1839.08
756.75	1703.91
756.93	1796.07
757.11	1857.51
757.29	1626.09
757.47	1697.77
757.65	1615.85
757.82	1566.70
758.00	1662.95
758.18	1701.86
758.36	1593.32
758.54	1853.41
758.72	1630.18
758.90	1757.16
759.07	1667.05
759.25	1726.44
759.43	1710.05
759.61	1626.09
759.79	2164.70
759.97	1773.54
760.15	1642.47
760.32	1724.39
760.50	1675.24
760.68	1767.40
760.86	1634.28
761.04	1781.73
761.22	1712.10
761.39	1730.53
761.57	1703.91
761.75	1689.57
761.93	1746.92
762.11	1673.19
762.28	1748.97
762.46	1636.33
762.64	1826.79
762.82	1619.94
763.00	1667.05
763.18	1765.35
763.35	1650.66
763.53	1671.14
763.71	1771.49
763.89	1693.67
764.07	1748.97
764.24	1726.44
764.42	1787.88
764.60	1732.58
764.78	1765.35
764.96	1798.12
765.13	1726.44
765.31	1755.11
765.49	1767.40
765.67	1665.00
765.84	1687.53
766.02	1611.75
766.20	1583.08
766.38	1748.97
766.56	1775.59
766.73	1734.63
766.91	1730.53
767.09	1697.77
767.27	1757.16
767.44	1626.09
767.62	1716.20
767.80	1769.44
767.98	1705.96
768.15	1773.54
768.33	1738.73
768.51	1710.05
768.69	1746.92
768.87	1789.92
769.04	1736.68
769.22	1781.73
769.40	1763.30
769.58	1802.21
769.75	1730.53
769.93	1763.30
770.11	1601.51
770.28	1722.34
770.46	1677.29
770.64	1701.86
770.82	1681.38
770.99	1679.33
771.17	1769.44
771.35	1710.05
771.53	1736.68
771.70	1710.05
771.88	1794.02
772.06	1677.29
772.23	1660.90
772.41	1726.44
772.59	1677.29
772.77	1687.53
772.94	1759.21
773.12	1808.36
773.30	1665.00
773.47	1798.12
773.65	1669.09
773.83	1730.53
774.01	1714.15
774.18	1615.85
774.36	1708.01
774.54	1693.67
774.71	1724.39
774.89	1632.23
775.07	1730.53
775.24	1648.61
775.42	1650.66
775.60	1812.45
775.78	1689.57
775.95	1677.29
776.13	1595.37
776.31	1607.66
776.48	1732.58
776.66	1712.10
776.84	1662.95
777.01	1746.92
777.19	1634.28
777.37	1660.90
777.54	1691.62
777.72	1902.56
777.90	1716.20
778.07	1718.25
778.25	1828.84
778.43	1718.25
778.60	1609.70
778.78	1763.30
778.96	1796.07
779.13	1689.57
779.31	1693.67
779.49	1679.33
779.66	1724.39
779.84	1708.01
780.01	1679.33
780.19	1681.38
780.37	1779.68
780.54	1734.63
780.72	1615.85
780.90	1697.77
781.07	1689.57
781.25	1671.14
781.43	1794.02
781.60	1683.43
781.78	1806.31
781.95	1677.29
782.13	1673.19
782.31	1675.24
782.48	1607.66
782.66	1648.61
782.83	1789.92
783.01	1691.62
783.19	1730.53
783.36	1781.73
783.54	1640.42
783.72	1746.92
783.89	1652.71
784.07	1685.48
784.24	1777.64
784.42	1751.01
784.60	1710.05
784.77	1665.00
784.95	1662.95
785.12	1732.58
785.30	1646.57
785.47	1607.66
785.65	1652.71
785.83	1695.72
786.00	1599.46
786.18	1699.81
786.35	1646.57
786.53	1689.57
786.71	1701.86
786.88	1705.96
787.06	1714.15
787.23	1673.19
787.41	1628.14
787.58	1626.09
787.76	1658.85
787.94	1708.01
788.11	1730.53
788.29	1710.05
788.46	1669.09
788.64	1587.18
788.81	1738.73
788.99	1652.71
789.16	1677.29
789.34	1665.00
789.52	1699.81
789.69	1667.05
789.87	1615.85
790.04	1648.61
790.22	1634.28
790.39	1779.68
790.57	1585.13
790.74	1626.09
790.92	1804.26
791.09	1642.47
791.27	1710.05
791.44	1771.49
791.62	1761.25
791.79	1742.82
791.97	1644.52
792.15	1849.32
792.32	1726.44
792.50	1746.92
792.67	1810.40
792.85	1804.26
793.02	1734.63
793.20	1697.77
793.37	1640.42
793.55	1677.29
793.72	1667.05
793.90	1765.35
794.07	1703.91
794.25	1673.19
794.42	1665.00
794.60	1603.56
794.77	1783.78
794.95	1722.34
795.12	1787.88
795.30	1642.47
795.47	1624.04
795.65	1882.08
795.82	1675.24
796.00	1656.81
796.17	1660.90
796.34	1705.96
796.52	1699.81
796.69	1783.78
796.87	1755.11
797.04	1832.93
797.22	1763.30
797.39	1718.25
797.57	1701.86
797.74	1689.57
797.92	1740.77
798.09	1724.39
798.27	1808.36
798.44	1722.34
798.62	1660.90
798.79	1679.33
798.96	1755.11
799.14	1669.09
799.31	1824.74
799.49	1738.73
799.66	1642.47
799.84	1738.73
800.01	1673.19
800.19	1656.81
800.36	1626.09
800.53	1720.29
800.71	1720.29
800.88	1716.20
801.06	1732.58
801.23	1675.24
801.41	1683.43
801.58	1701.86
801.75	1738.73
801.93	1763.30
802.10	1734.63
802.28	1734.63
802.45	1640.42
802.63	1691.62
802.80	1789.92
802.97	1665.00
803.15	1673.19
803.32	1648.61
803.50	1732.58
803.67	1685.48
803.84	1624.04
804.02	1691.62
804.19	1658.85
804.37	1503.21
804.54	1630.18
804.71	1705.96
804.89	1722.34
805.06	1632.23
805.24	1636.33
805.41	1650.66
805.58	1712.10
805.76	1791.97
805.93	1646.57
806.10	1800.16
806.28	1765.35
806.45	1644.52
806.63	1689.57
806.80	1665.00
806.97	1710.05
807.15	1748.97
807.32	1705.96
807.49	1781.73
807.67	1626.09
807.84	1724.39
808.01	1634.28
808.19	1859.56
808.36	1812.45
808.54	1626.09
808.71	1650.66
808.88	1654.76
809.06	1718.25
809.23	1859.56
809.40	1570.79
809.58	1753.06
809.75	1628.14
809.92	1632.23
810.10	1775.59
810.27	1656.81
810.44	1697.77
810.62	1730.53
810.79	1656.81
810.96	1720.29
811.14	1665.00
811.31	1730.53
811.48	1734.63
811.66	1619.94
811.83	1740.77
812.00	1656.81
812.18	1724.39
812.35	1869.80
812.52	1656.81
812.69	1697.77
812.87	1626.09
813.04	1699.81
813.21	1693.67
813.39	1642.47
813.56	1605.61
813.73	1636.33
813.91	1632.23
814.08	1740.77
814.25	1746.92
814.42	1644.52
814.60	1665.00
814.77	1667.05
814.94	1695.72
815.12	1718.25
815.29	1830.88
815.46	1693.67
815.63	1681.38
815.81	1691.62
815.98	1636.33
816.15	1742.82
816.33	1689.57
816.50	1763.30
816.67	1624.04
816.84	1761.25
817.02	1605.61
817.19	1667.05
817.36	1714.15
817.53	1720.29
817.71	1667.05
817.88	1783.78
818.05	1642.47
818.22	1662.95
818.40	1812.45
818.57	1732.58
818.74	1761.25
818.91	1771.49
819.09	1689.57
819.26	1740.77
819.43	1693.67
819.60	1728.49
819.78	1757.16
819.95	1673.19
820.12	1632.23
820.29	1765.35
820.47	1798.12
820.64	1611.75
820.81	1673.19
820.98	1642.47
821.15	1693.67
821.33	1677.29
821.50	1607.66
821.67	1730.53
821.84	1636.33
822.02	1759.21
822.19	1779.68
822.36	1644.52
822.53	1679.33
822.70	1634.28
822.88	1675.24
823.05	1761.25
823.22	1697.77
823.39	1681.38
823.56	1681.38
823.74	1832.93
823.91	1611.75
824.08	1632.23
824.25	1673.19
824.42	1812.45
824.60	1640.42
824.77	1701.86
824.94	1646.57
825.11	1691.62
825.28	1624.04
825.45	1720.29
825.63	1699.81
825.80	1695.72
825.97	1615.85
826.14	1710.05
826.31	1599.46
826.48	1722.34
826.66	1611.75
826.83	1675.24
827.00	1710.05
827.17	1632.23
827.34	1609.70
827.51	1673.19
827.69	1665.00
827.86	1589.22
828.03	1726.44
828.20	1677.29
828.37	1599.46
828.54	1697.77
828.71	1638.38
828.89	1738.73
829.06	1691.62
829.23	1767.40
829.40	1665.00
829.57	1712.10
829.74	1720.29
829.91	1660.90
830.09	1667.05
830.26	1699.81
830.43	1708.01
830.60	1685.48
830.77	1689.57
830.94	1783.78
831.11	1681.38
831.28	1746.92
831.46	1822.69
831.63	1693.67
831.80	1744.87
831.97	1705.96
832.14	1654.76
832.31	1837.03
832.48	1687.53
832.65	1822.69
832.82	1681.38
832.99	1732.58
833.17	1634.28
833.34	1732.58
833.51	1771.49
833.68	1640.42
833.85	1667.05
834.02	1644.52
834.19	1685.48
834.36	1603.56
834.53	1615.85
834.70	1816.55
834.87	1716.20
835.04	1687.53
835.22	1615.85
835.39	1740.77
835.56	1679.33
835.73	1681.38
835.90	1775.59
836.07	1589.22
836.24	1751.01
836.41	1587.18
836.58	1656.81
836.75	1710.05
836.92	1697.77
837.09	1656.81
837.26	1714.15
837.43	1712.10
837.60	1703.91
837.77	1646.57
837.94	1705.96
838.12	1837.03
838.29	1693.67
838.46	1650.66
838.63	1673.19
838.80	1769.44
838.97	1660.90
839.14	1677.29
839.31	1710.05
839.48	1767.40
839.65	1601.51
839.82	1720.29
839.99	1650.66
840.16	1726.44
840.33	1665.00
840.50	1765.35
840.67	1642.47
840.84	1603.56
841.01	1648.61
841.18	1660.90
841.35	1751.01
841.52	1736.68
841.69	1820.64
841.86	1712.10
842.03	1603.56
842.20	1701.86
842.37	1687.53
842.54	1736.68
842.71	1685.48
842.88	1648.61
843.05	1767.40
843.22	1765.35
843.39	1593.32
843.56	1656.81
843.73	1708.01
843.90	1730.53
844.07	1777.64
844.24	1705.96
844.41	1705.96
844.58	1740.77
844.75	1699.81
844.92	1802.21
845.09	1769.44
845.26	1642.47
845.43	1695.72
845.60	1673.19
845.77	1712.10
845.94	1710.05
846.10	1751.01
846.27	1632.23
846.44	1669.09
846.61	1581.03
846.78	1718.25
846.95	1730.53
847.12	1660.90
847.29	1669.09
847.46	1724.39
847.63	1730.53
847.80	1667.05
847.97	1677.29
848.14	1820.64
848.31	1724.39
848.48	1593.32
848.65	1699.81
848.82	1607.66
848.98	1869.80
849.15	1771.49
849.32	1665.00
849.49	1689.57
849.66	1695.72
849.83	1701.86
850.00	1583.08
850.17	1701.86
850.34	1652.71
850.51	1677.29
850.68	1736.68
850.85	1853.41
851.01	1753.06
851.18	1734.63
851.35	1722.34
851.52	1736.68
851.69	1755.11
851.86	1587.18
852.03	1701.86
852.20	1748.97
852.37	1650.66
852.53	1583.08
852.70	1730.53
852.87	1665.00
853.04	1673.19
853.21	1767.40
853.38	1669.09
853.55	1859.56
853.72	1726.44
853.89	1611.75
854.05	1648.61
854.22	1693.67
854.39	1591.27
854.56	1671.14
854.73	1765.35
854.90	1681.38
855.07	1679.33
855.23	1689.57
855.40	1693.67
855.57	1644.52
855.74	1603.56
855.91	1904.61
856.08	1681.38
856.25	1634.28
856.41	1644.52
856.58	1726.44
856.75	1699.81
856.92	1662.95
857.09	1822.69
857.26	1685.48
857.42	1732.58
857.59	1695.72
857.76	1632.23
857.93	1726.44
858.10	1746.92
858.27	1630.18
858.43	1669.09
858.60	1656.81
858.77	1587.18
858.94	1724.39
859.11	1796.07
859.27	1681.38
859.44	1730.53
859.61	1746.92
859.78	1742.82
859.95	1759.21
860.12	1619.94
860.28	1787.88
860.45	1816.55
860.62	1687.53
860.79	1632.23
860.95	1683.43
861.12	1656.81
861.29	1671.14
861.46	1642.47
861.63	1634.28
861.79	1705.96
861.96	1693.67
862.13	1673.19
862.30	1798.12
862.47	1619.94
862.63	1660.90
862.80	1751.01
862.97	1656.81
863.14	1673.19
863.30	1703.91
863.47	1646.57
863.64	1767.40
863.81	1710.05
863.97	1708.01
864.14	1703.91
864.31	1673.19
864.48	1783.78
864.65	1603.56
864.81	1718.25
864.98	1732.58
865.15	1685.48
865.32	1785.83
865.48	1679.33
865.65	1802.21
865.82	1619.94
865.98	1744.87
866.15	1740.77
866.32	1708.01
866.49	1681.38
866.65	1779.68
866.82	1599.46
866.99	1679.33
867.16	1673.19
867.32	1679.33
867.49	1658.85
867.66	1642.47
867.83	1675.24
867.99	1583.08
868.16	1591.27
868.33	1595.37
868.49	1685.48
868.66	1732.58
868.83	1761.25
868.99	1730.53
869.16	1597.42
869.33	1824.74
869.50	1673.19
869.66	1695.72
869.83	1718.25
870.00	1640.42
870.16	1771.49
870.33	1679.33
870.50	1728.49
870.66	1730.53
870.83	1753.06
871.00	1658.85
871.17	1710.05
871.33	1738.73
871.50	1636.33
871.67	1681.38
871.83	1730.53
872.00	1720.29
872.17	1679.33
872.33	1822.69
872.50	1746.92
872.67	1710.05
872.83	1685.48
873.00	1746.92
873.17	1648.61
873.33	1798.12
873.50	1697.77
873.67	1630.18
873.83	1705.96
874.00	1654.76
874.16	1699.81
874.33	1662.95
874.50	1660.90
874.66	1732.58
874.83	1738.73
875.00	1783.78
875.16	1677.29
875.33	1791.97
875.50	1566.70
875.66	1677.29
875.83	1697.77
875.99	1683.43
876.16	1642.47
876.33	1624.04
876.49	1708.01
876.66	1732.58
876.83	1746.92
876.99	1611.75
877.16	1679.33
877.32	1673.19
877.49	1683.43
877.66	1701.86
877.82	1869.80
877.99	1710.05
878.15	1802.21
878.32	1705.96
878.49	1710.05
878.65	1716.20
878.82	1748.97
878.98	1746.92
879.15	1697.77
879.32	1777.64
879.48	1763.30
879.65	1699.81
879.81	1673.19
879.98	1710.05
880.15	1689.57
880.31	1742.82
880.48	1628.14
880.64	1744.87
880.81	1712.10
880.97	1759.21
881.14	1820.64
881.31	1591.27
881.47	1837.03
881.64	1634.28
881.80	1660.90
881.97	1683.43
882.13	1746.92
882.30	1640.42
882.47	1716.20
882.63	1632.23
882.80	1714.15
882.96	1703.91
883.13	1763.30
883.29	1681.38
883.46	1757.16
883.62	1794.02
883.79	1742.82
883.95	1779.68
884.12	1697.77
884.29	1740.77
884.45	1757.16
884.62	1703.91
884.78	1624.04
884.95	1714.15
885.11	1720.29
885.28	1775.59
885.44	1634.28
885.61	1779.68
885.77	1804.26
885.94	1765.35
886.10	1689.57
886.27	1740.77
886.43	1787.88
886.60	1796.07
886.76	1642.47
886.93	1652.71
887.09	1718.25
887.26	1652.71
887.42	1646.57
887.59	1771.49
887.75	1787.88
887.92	1757.16
888.08	1781.73
888.25	1818.60
888.41	1748.97
888.58	1742.82
888.74	1634.28
888.91	1585.13
>>>>>End Processed Spectral Data<<<<<
