SpectraSuite Data File
++++++++++++++++++++++++++++++++++++
Date: Mon Jun 06 12:36:57 CEST 2016
User: root
Dark Spectrum Present: No
Reference Spectrum Present: No
Number of Sampled Component Spectra: 1
Spectrometers: USB4C02835
Integration Time (usec): 100000 (USB4C02835)
Spectra Averaged: 1 (USB4C02835)
Boxcar Smoothing: 0 (USB4C02835)
Correct for Electrical Dark: No (USB4C02835)
Strobe/Lamp Enabled: No (USB4C02835)
Correct for Detector Non-linearity: No (USB4C02835)
Correct for Stray Light: No (USB4C02835)
Number of Pixels in Processed Spectrum: 3648
>>>>>Begin Processed Spectral Data<<<<<
177.47	1490.92
177.69	1490.92
177.91	1490.92
178.13	1445.87
178.36	1501.16
178.58	1591.27
178.80	1693.67
179.02	1656.81
179.24	1640.42
179.46	1699.81
179.68	1728.49
179.90	1648.61
180.13	1771.49
180.35	1556.46
180.57	1753.06
180.79	1630.18
181.01	1701.86
181.23	1800.16
181.45	1800.16
181.67	1714.15
181.90	1738.73
182.12	1652.71
182.34	1638.38
182.56	1802.21
182.78	1720.29
183.00	1691.62
183.22	1726.44
183.44	1683.43
183.66	1751.01
183.89	1832.93
184.11	1658.85
184.33	1759.21
184.55	1724.39
184.77	1794.02
184.99	1697.77
185.21	1669.09
185.43	1877.99
185.65	1699.81
185.87	1697.77
186.10	1851.36
186.32	1867.75
186.54	1695.72
186.76	1742.82
186.98	1748.97
187.20	1724.39
187.42	1669.09
187.64	1695.72
187.86	1730.53
188.08	1685.48
188.30	1701.86
188.52	1624.04
188.75	1775.59
188.97	1746.92
189.19	1640.42
189.41	1679.33
189.63	1699.81
189.85	1624.04
190.07	1560.55
190.29	1621.99
190.51	1746.92
190.73	1646.57
190.95	1736.68
191.17	1753.06
191.39	1568.74
191.61	1730.53
191.84	1679.33
192.06	1773.54
192.28	1648.61
192.50	1880.04
192.72	1685.48
192.94	1632.23
193.16	1716.20
193.38	1718.25
193.60	1599.46
193.82	1634.28
194.04	1736.68
194.26	1736.68
194.48	1716.20
194.70	1669.09
194.92	1642.47
195.14	1685.48
195.36	1695.72
195.58	1634.28
195.80	1634.28
196.02	1632.23
196.24	1656.81
196.46	1697.77
196.69	1628.14
196.91	1849.32
197.13	1722.34
197.35	1650.66
197.57	1761.25
197.79	1726.44
198.01	1642.47
198.23	1736.68
198.45	1681.38
198.67	1619.94
198.89	1665.00
199.11	1697.77
199.33	1669.09
199.55	1624.04
199.77	1601.51
199.99	1730.53
200.21	1662.95
200.43	1714.15
200.65	1652.71
200.87	1695.72
201.09	1675.24
201.31	1658.85
201.53	1724.39
201.75	1669.09
201.97	1695.72
202.19	1730.53
202.41	1720.29
202.63	1837.03
202.85	1720.29
203.07	1699.81
203.29	1693.67
203.51	1712.10
203.73	1585.13
203.95	1843.17
204.17	1755.11
204.39	1722.34
204.61	1685.48
204.83	1574.89
205.05	1742.82
205.27	1724.39
205.49	1802.21
205.71	1671.14
205.93	1624.04
206.15	1681.38
206.37	1675.24
206.59	1687.53
206.81	1636.33
207.03	1595.37
207.25	1619.94
207.47	1669.09
207.69	1683.43
207.91	1753.06
208.13	1781.73
208.34	1648.61
208.56	1656.81
208.78	1705.96
209.00	1648.61
209.22	1529.83
209.44	1718.25
209.66	1648.61
209.88	1685.48
210.10	1736.68
210.32	1687.53
210.54	1732.58
210.76	1665.00
210.98	1697.77
211.20	1613.80
211.42	1791.97
211.64	1748.97
211.86	1673.19
212.08	1720.29
212.30	1751.01
212.52	1652.71
212.74	1730.53
212.96	1705.96
213.17	1789.92
213.39	1796.07
213.61	1734.63
213.83	1699.81
214.05	1673.19
214.27	1742.82
214.49	1578.98
214.71	1656.81
214.93	1796.07
215.15	1738.73
215.37	1712.10
215.59	1568.74
215.81	1765.35
216.03	1818.60
216.24	1734.63
216.46	1708.01
216.68	1714.15
216.90	1769.44
217.12	1705.96
217.34	1708.01
217.56	1671.14
217.78	1775.59
218.00	1730.53
218.22	1759.21
218.44	1697.77
218.66	1667.05
218.87	1812.45
219.09	1626.09
219.31	1693.67
219.53	1683.43
219.75	1677.29
219.97	1728.49
220.19	1609.70
220.41	1662.95
220.63	1798.12
220.85	1757.16
221.06	1677.29
221.28	1744.87
221.50	1728.49
221.72	1656.81
221.94	1621.99
222.16	1611.75
222.38	1746.92
222.60	1738.73
222.82	1689.57
223.03	1748.97
223.25	1697.77
223.47	1775.59
223.69	1755.11
223.91	1650.66
224.13	1675.24
224.35	1673.19
224.57	1804.26
224.78	1720.29
225.00	1638.38
225.22	1712.10
225.44	1665.00
225.66	1789.92
225.88	1710.05
226.10	1726.44
226.32	1769.44
226.53	1744.87
226.75	1712.10
226.97	1699.81
227.19	1642.47
227.41	1716.20
227.63	1703.91
227.85	1595.37
228.06	1730.53
228.28	1720.29
228.50	1646.57
228.72	1673.19
228.94	1712.10
229.16	1570.79
229.37	1662.95
229.59	1607.66
229.81	1816.55
230.03	1654.76
230.25	1646.57
230.47	1632.23
230.69	1665.00
230.90	1738.73
231.12	1660.90
231.34	1746.92
231.56	1697.77
231.78	1681.38
232.00	1746.92
232.21	1671.14
232.43	1642.47
232.65	1552.36
232.87	1732.58
233.09	1703.91
233.30	1599.46
233.52	1714.15
233.74	1669.09
233.96	1642.47
234.18	1705.96
234.40	1652.71
234.61	1824.74
234.83	1718.25
235.05	1613.80
235.27	1785.83
235.49	1804.26
235.70	1634.28
235.92	1763.30
236.14	1695.72
236.36	1814.50
236.58	1630.18
236.79	1798.12
237.01	1683.43
237.23	1658.85
237.45	1787.88
237.67	1720.29
237.88	1673.19
238.10	1759.21
238.32	1634.28
238.54	1722.34
238.76	1693.67
238.97	1732.58
239.19	1675.24
239.41	1722.34
239.63	1761.25
239.85	1656.81
240.06	1695.72
240.28	1644.52
240.50	1773.54
240.72	1687.53
240.93	1644.52
241.15	1714.15
241.37	1658.85
241.59	1777.64
241.81	1669.09
242.02	1648.61
242.24	1748.97
242.46	1691.62
242.68	1656.81
242.89	1746.92
243.11	1712.10
243.33	1642.47
243.55	1671.14
243.76	1740.77
243.98	1671.14
244.20	1722.34
244.42	1683.43
244.64	1685.48
244.85	1681.38
245.07	1607.66
245.29	1712.10
245.51	1689.57
245.72	1667.05
245.94	1701.86
246.16	1724.39
246.38	1761.25
246.59	1681.38
246.81	1626.09
247.03	1701.86
247.24	1642.47
247.46	1722.34
247.68	1689.57
247.90	1593.32
248.11	1673.19
248.33	1775.59
248.55	1673.19
248.77	1779.68
248.98	1751.01
249.20	1808.36
249.42	1738.73
249.64	1705.96
249.85	1722.34
250.07	1669.09
250.29	1720.29
250.50	1839.08
250.72	1632.23
250.94	1734.63
251.16	1816.55
251.37	1695.72
251.59	1697.77
251.81	1765.35
252.02	1845.22
252.24	1695.72
252.46	1728.49
252.68	1652.71
252.89	1675.24
253.11	1603.56
253.33	1859.56
253.54	1757.16
253.76	1675.24
253.98	1695.72
254.20	1697.77
254.41	1587.18
254.63	1652.71
254.85	1611.75
255.06	1660.90
255.28	1652.71
255.50	1755.11
255.71	1730.53
255.93	1634.28
256.15	1673.19
256.36	1740.77
256.58	1671.14
256.80	1728.49
257.02	1662.95
257.23	1652.71
257.45	1681.38
257.67	1656.81
257.88	1695.72
258.10	1703.91
258.32	1712.10
258.53	1738.73
258.75	1839.08
258.97	1650.66
259.18	1751.01
259.40	1634.28
259.62	1769.44
259.83	1742.82
260.05	1736.68
260.27	1947.62
260.48	1730.53
260.70	1591.27
260.92	1689.57
261.13	1691.62
261.35	1654.76
261.57	1755.11
261.78	1624.04
262.00	1552.36
262.22	1742.82
262.43	1599.46
262.65	1640.42
262.86	1699.81
263.08	1787.88
263.30	1669.09
263.51	1609.70
263.73	1630.18
263.95	1791.97
264.16	1632.23
264.38	1665.00
264.60	1732.58
264.81	1677.29
265.03	1796.07
265.25	1740.77
265.46	1730.53
265.68	1720.29
265.89	1695.72
266.11	1626.09
266.33	1718.25
266.54	1734.63
266.76	1712.10
266.98	1759.21
267.19	1708.01
267.41	1804.26
267.62	1658.85
267.84	1570.79
268.06	1714.15
268.27	1687.53
268.49	1798.12
268.70	1771.49
268.92	1681.38
269.14	1634.28
269.35	1626.09
269.57	1681.38
269.79	1708.01
270.00	1603.56
270.22	1708.01
270.43	1697.77
270.65	1597.42
270.87	1681.38
271.08	1681.38
271.30	1718.25
271.51	1724.39
271.73	1720.29
271.95	1755.11
272.16	1675.24
272.38	1683.43
272.59	1683.43
272.81	1671.14
273.02	1722.34
273.24	1701.86
273.46	1759.21
273.67	1581.03
273.89	1646.57
274.10	1640.42
274.32	1755.11
274.54	1714.15
274.75	1755.11
274.97	1697.77
275.18	1687.53
275.40	1740.77
275.61	1740.77
275.83	1822.69
276.05	1603.56
276.26	1712.10
276.48	1785.83
276.69	1708.01
276.91	1689.57
277.12	1769.44
277.34	1783.78
277.55	1734.63
277.77	1726.44
277.99	1689.57
278.20	1640.42
278.42	1593.32
278.63	1660.90
278.85	1673.19
279.06	1605.61
279.28	1761.25
279.49	1728.49
279.71	1695.72
279.93	1669.09
280.14	1673.19
280.36	1648.61
280.57	1759.21
280.79	1724.39
281.00	1687.53
281.22	1671.14
281.43	1726.44
281.65	1611.75
281.86	1648.61
282.08	1650.66
282.29	1820.64
282.51	1611.75
282.73	1628.14
282.94	1658.85
283.16	1791.97
283.37	1796.07
283.59	1703.91
283.80	1652.71
284.02	1693.67
284.23	1796.07
284.45	1720.29
284.66	1624.04
284.88	1630.18
285.09	1675.24
285.31	1679.33
285.52	1734.63
285.74	1628.14
285.95	1767.40
286.17	1791.97
286.38	1771.49
286.60	1654.76
286.81	1621.99
287.03	1736.68
287.24	1673.19
287.46	1742.82
287.67	1748.97
287.89	1800.16
288.10	1701.86
288.32	1703.91
288.53	1755.11
288.75	1736.68
288.96	1708.01
289.18	1748.97
289.39	1673.19
289.61	1748.97
289.82	1882.08
290.04	1837.03
290.25	1677.29
290.47	1697.77
290.68	1677.29
290.90	1785.83
291.11	1642.47
291.33	1736.68
291.54	1681.38
291.76	1630.18
291.97	1703.91
292.18	1718.25
292.40	1650.66
292.61	1710.05
292.83	1804.26
293.04	1673.19
293.26	1673.19
293.47	1746.92
293.69	1685.48
293.90	1736.68
294.12	1791.97
294.33	1724.39
294.55	1699.81
294.76	1726.44
294.97	1769.44
295.19	1808.36
295.40	1669.09
295.62	1742.82
295.83	1710.05
296.05	1607.66
296.26	1779.68
296.48	1662.95
296.69	1738.73
296.90	1710.05
297.12	1722.34
297.33	1810.40
297.55	1703.91
297.76	1753.06
297.98	1775.59
298.19	1681.38
298.41	1687.53
298.62	1658.85
298.83	1773.54
299.05	1662.95
299.26	1669.09
299.48	1634.28
299.69	1751.01
299.90	1724.39
300.12	1683.43
300.33	1746.92
300.55	1708.01
300.76	1740.77
300.98	1552.36
301.19	1751.01
301.40	1701.86
301.62	1763.30
301.83	1667.05
302.05	1746.92
302.26	1675.24
302.47	1738.73
302.69	1644.52
302.90	1660.90
303.12	1644.52
303.33	1710.05
303.54	1742.82
303.76	1615.85
303.97	1714.15
304.19	1744.87
304.40	1617.90
304.61	1730.53
304.83	1791.97
305.04	1779.68
305.26	1675.24
305.47	1652.71
305.68	1714.15
305.90	1628.14
306.11	1718.25
306.33	1687.53
306.54	1648.61
306.75	1681.38
306.97	1648.61
307.18	1650.66
307.39	1679.33
307.61	1656.81
307.82	1693.67
308.04	1763.30
308.25	1650.66
308.46	1695.72
308.68	1665.00
308.89	1705.96
309.10	1753.06
309.32	1724.39
309.53	1630.18
309.74	1769.44
309.96	1677.29
310.17	1767.40
310.39	1701.86
310.60	1714.15
310.81	1748.97
311.03	1640.42
311.24	1687.53
311.45	1701.86
311.67	1816.55
311.88	1699.81
312.09	1767.40
312.31	1646.57
312.52	1689.57
312.73	1632.23
312.95	1603.56
313.16	1681.38
313.37	1765.35
313.59	1787.88
313.80	1751.01
314.01	1816.55
314.23	1708.01
314.44	1646.57
314.65	1638.38
314.87	1654.76
315.08	1755.11
315.29	1644.52
315.51	1619.94
315.72	1667.05
315.93	1767.40
316.15	1738.73
316.36	1757.16
316.57	1761.25
316.79	1744.87
317.00	1708.01
317.21	1681.38
317.43	1658.85
317.64	1771.49
317.85	1746.92
318.07	1634.28
318.28	1798.12
318.49	1765.35
318.70	1886.18
318.92	1834.98
319.13	1722.34
319.34	1865.70
319.56	1808.36
319.77	1763.30
319.98	1773.54
320.20	1701.86
320.41	1691.62
320.62	1763.30
320.83	1665.00
321.05	1824.74
321.26	1705.96
321.47	1681.38
321.69	1812.45
321.90	1615.85
322.11	1689.57
322.32	1689.57
322.54	1759.21
322.75	1689.57
322.96	1834.98
323.18	1578.98
323.39	1662.95
323.60	1644.52
323.81	1763.30
324.03	1705.96
324.24	1736.68
324.45	1701.86
324.66	1654.76
324.88	1683.43
325.09	1759.21
325.30	1658.85
325.52	1742.82
325.73	1722.34
325.94	1589.22
326.15	1595.37
326.37	1712.10
326.58	1777.64
326.79	1761.25
327.00	1648.61
327.22	1718.25
327.43	1652.71
327.64	1619.94
327.85	1710.05
328.07	1681.38
328.28	1708.01
328.49	1640.42
328.70	1679.33
328.92	1708.01
329.13	1705.96
329.34	1718.25
329.55	1755.11
329.76	1726.44
329.98	1710.05
330.19	1806.31
330.40	1791.97
330.61	1636.33
330.83	1636.33
331.04	1685.48
331.25	1726.44
331.46	1609.70
331.68	1607.66
331.89	1716.20
332.10	1773.54
332.31	1609.70
332.52	1619.94
332.74	1689.57
332.95	1628.14
333.16	1705.96
333.37	1689.57
333.58	1722.34
333.80	1693.67
334.01	1656.81
334.22	1607.66
334.43	1652.71
334.64	1693.67
334.86	1599.46
335.07	1740.77
335.28	1710.05
335.49	1673.19
335.70	1665.00
335.92	1837.03
336.13	1839.08
336.34	1763.30
336.55	1734.63
336.76	1699.81
336.98	1597.42
337.19	1652.71
337.40	1775.59
337.61	1732.58
337.82	1693.67
338.04	1818.60
338.25	1607.66
338.46	1689.57
338.67	1683.43
338.88	1607.66
339.09	1652.71
339.31	1642.47
339.52	1624.04
339.73	1634.28
339.94	1624.04
340.15	1703.91
340.36	1648.61
340.58	1726.44
340.79	1648.61
341.00	1662.95
341.21	1656.81
341.42	1785.83
341.63	1740.77
341.85	1832.93
342.06	1738.73
342.27	1609.70
342.48	1775.59
342.69	1636.33
342.90	1685.48
343.12	1701.86
343.33	1656.81
343.54	1681.38
343.75	1722.34
343.96	1697.77
344.17	1708.01
344.38	1726.44
344.60	1675.24
344.81	1683.43
345.02	1681.38
345.23	1791.97
345.44	1789.92
345.65	1759.21
345.86	1728.49
346.07	1683.43
346.29	1601.51
346.50	1732.58
346.71	1705.96
346.92	1736.68
347.13	1857.51
347.34	1640.42
347.55	1687.53
347.76	1703.91
347.98	1628.14
348.19	1619.94
348.40	1742.82
348.61	1609.70
348.82	1800.16
349.03	1699.81
349.24	1687.53
349.45	1822.69
349.66	1583.08
349.88	1755.11
350.09	1669.09
350.30	1714.15
350.51	1853.41
350.72	1648.61
350.93	1705.96
351.14	1683.43
351.35	1722.34
351.56	1669.09
351.77	1695.72
351.99	1724.39
352.20	1783.78
352.41	1720.29
352.62	1525.74
352.83	1669.09
353.04	1742.82
353.25	1708.01
353.46	1759.21
353.67	1712.10
353.88	1636.33
354.09	1681.38
354.30	1712.10
354.52	1726.44
354.73	1691.62
354.94	1716.20
355.15	1714.15
355.36	1806.31
355.57	1615.85
355.78	1775.59
355.99	1693.67
356.20	1691.62
356.41	1718.25
356.62	1746.92
356.83	1710.05
357.04	1767.40
357.25	1644.52
357.46	1689.57
357.68	1613.80
357.89	1697.77
358.10	1716.20
358.31	1740.77
358.52	1695.72
358.73	1603.56
358.94	1640.42
359.15	1644.52
359.36	1722.34
359.57	1677.29
359.78	1619.94
359.99	1740.77
360.20	1654.76
360.41	1681.38
360.62	1667.05
360.83	1701.86
361.04	1751.01
361.25	1705.96
361.46	1785.83
361.67	1736.68
361.88	1783.78
362.09	1746.92
362.30	1697.77
362.51	1603.56
362.72	1652.71
362.93	1722.34
363.14	1656.81
363.35	1712.10
363.56	1744.87
363.78	1732.58
363.99	1767.40
364.20	1652.71
364.41	1724.39
364.62	1775.59
364.83	1701.86
365.04	1685.48
365.25	1710.05
365.46	1728.49
365.67	1636.33
365.88	1540.07
366.09	1705.96
366.30	1744.87
366.51	1667.05
366.72	1607.66
366.93	1710.05
367.14	1701.86
367.35	1759.21
367.56	1722.34
367.77	1804.26
367.98	1796.07
368.18	1640.42
368.39	1732.58
368.60	1556.46
368.81	1755.11
369.02	1699.81
369.23	1683.43
369.44	1640.42
369.65	1656.81
369.86	1751.01
370.07	1671.14
370.28	1624.04
370.49	1705.96
370.70	1755.11
370.91	1714.15
371.12	1626.09
371.33	1748.97
371.54	1714.15
371.75	1783.78
371.96	1533.93
372.17	1693.67
372.38	1693.67
372.59	1751.01
372.80	1601.51
373.01	1677.29
373.22	1714.15
373.43	1701.86
373.64	1583.08
373.85	1773.54
374.06	1796.07
374.26	1818.60
374.47	1730.53
374.68	1796.07
374.89	1679.33
375.10	1736.68
375.31	1681.38
375.52	1697.77
375.73	1738.73
375.94	1667.05
376.15	1820.64
376.36	1652.71
376.57	1646.57
376.78	1630.18
376.99	1624.04
377.20	1789.92
377.40	1701.86
377.61	1818.60
377.82	1613.80
378.03	1798.12
378.24	1726.44
378.45	1730.53
378.66	1701.86
378.87	1636.33
379.08	1634.28
379.29	1728.49
379.50	1765.35
379.71	1701.86
379.91	1740.77
380.12	1597.42
380.33	1708.01
380.54	1638.38
380.75	1689.57
380.96	1675.24
381.17	1726.44
381.38	1771.49
381.59	1748.97
381.80	1689.57
382.00	1806.31
382.21	1697.77
382.42	1808.36
382.63	1888.23
382.84	1718.25
383.05	1779.68
383.26	1816.55
383.47	1724.39
383.68	1730.53
383.88	1744.87
384.09	1755.11
384.30	1814.50
384.51	1679.33
384.72	1673.19
384.93	1693.67
385.14	1685.48
385.35	1697.77
385.55	1681.38
385.76	1761.25
385.97	1746.92
386.18	1617.90
386.39	1628.14
386.60	1712.10
386.81	1742.82
387.02	1718.25
387.22	1712.10
387.43	1744.87
387.64	1787.88
387.85	1824.74
388.06	2203.61
388.27	4351.93
388.48	7051.16
388.68	8480.64
388.89	9729.90
389.10	10168.16
389.31	8796.03
389.52	7767.95
389.73	6801.30
389.93	6432.67
390.14	6006.69
390.35	5330.86
390.56	4636.60
390.77	3852.23
390.98	3000.27
391.18	2586.58
391.39	2043.87
391.60	1828.84
391.81	1787.88
392.02	1710.05
392.23	1771.49
392.43	1732.58
392.64	1787.88
392.85	1785.83
393.06	1851.36
393.27	1685.48
393.47	1675.24
393.68	1746.92
393.89	1667.05
394.10	1832.93
394.31	1665.00
394.52	1681.38
394.72	1755.11
394.93	1765.35
395.14	1658.85
395.35	1744.87
395.56	1656.81
395.76	1753.06
395.97	1847.27
396.18	1763.30
396.39	1775.59
396.60	2002.91
396.80	1888.23
397.01	1857.51
397.22	1806.31
397.43	1859.56
397.64	1837.03
397.84	1763.30
398.05	1886.18
398.26	1785.83
398.47	1726.44
398.67	1746.92
398.88	1736.68
399.09	1738.73
399.30	1669.09
399.51	1757.16
399.71	1669.09
399.92	1716.20
400.13	1701.86
400.34	1660.90
400.54	1644.52
400.75	1773.54
400.96	1791.97
401.17	1861.60
401.37	1787.88
401.58	1730.53
401.79	1736.68
402.00	1867.75
402.21	1943.52
402.41	1900.52
402.62	2041.82
402.83	2064.35
403.04	1968.10
403.24	2086.88
403.45	1814.50
403.66	1966.05
403.87	1886.18
404.07	1869.80
404.28	1791.97
404.49	1859.56
404.70	1820.64
404.90	1738.73
405.11	1808.36
405.32	1742.82
405.52	1605.61
405.73	1650.66
405.94	1615.85
406.15	1708.01
406.35	1679.33
406.56	1728.49
406.77	1716.20
406.98	1755.11
407.18	1624.04
407.39	1808.36
407.60	1636.33
407.80	1722.34
408.01	1730.53
408.22	1689.57
408.43	1677.29
408.63	1748.97
408.84	1789.92
409.05	1814.50
409.25	1669.09
409.46	1689.57
409.67	1722.34
409.88	1632.23
410.08	1697.77
410.29	1730.53
410.50	1687.53
410.70	1740.77
410.91	1656.81
411.12	1691.62
411.32	1640.42
411.53	1628.14
411.74	1781.73
411.95	1716.20
412.15	1791.97
412.36	1695.72
412.57	1777.64
412.77	1798.12
412.98	1677.29
413.19	1712.10
413.39	1763.30
413.60	1669.09
413.81	1761.25
414.01	1648.61
414.22	1726.44
414.43	1787.88
414.63	1621.99
414.84	1857.51
415.05	1775.59
415.25	1683.43
415.46	1800.16
415.67	1640.42
415.87	1769.44
416.08	1710.05
416.29	1656.81
416.49	1791.97
416.70	1669.09
416.91	1695.72
417.11	1677.29
417.32	1736.68
417.53	1814.50
417.73	1730.53
417.94	1695.72
418.15	1683.43
418.35	1703.91
418.56	1701.86
418.77	1851.36
418.97	1703.91
419.18	1726.44
419.38	1548.26
419.59	1683.43
419.80	1853.41
420.00	1634.28
420.21	1716.20
420.42	1796.07
420.62	1757.16
420.83	1708.01
421.04	1693.67
421.24	1744.87
421.45	1810.40
421.65	1744.87
421.86	1679.33
422.07	1734.63
422.27	1808.36
422.48	1722.34
422.69	1636.33
422.89	1685.48
423.10	1656.81
423.30	1654.76
423.51	1673.19
423.72	1701.86
423.92	1722.34
424.13	1626.09
424.33	1681.38
424.54	1791.97
424.75	1695.72
424.95	1810.40
425.16	1624.04
425.36	1703.91
425.57	1736.68
425.78	1746.92
425.98	1705.96
426.19	1648.61
426.39	1611.75
426.60	1701.86
426.81	1732.58
427.01	1673.19
427.22	1640.42
427.42	1685.48
427.63	1673.19
427.83	1804.26
428.04	1867.75
428.25	1771.49
428.45	1685.48
428.66	1683.43
428.86	1675.24
429.07	1746.92
429.28	1834.98
429.48	1695.72
429.69	1632.23
429.89	1673.19
430.10	1578.98
430.30	1701.86
430.51	1742.82
430.71	1746.92
430.92	1759.21
431.13	1671.14
431.33	1757.16
431.54	1748.97
431.74	1802.21
431.95	1777.64
432.15	1648.61
432.36	1736.68
432.56	1755.11
432.77	1837.03
432.98	1824.74
433.18	1662.95
433.39	1751.01
433.59	1742.82
433.80	1769.44
434.00	1873.89
434.21	1673.19
434.41	1705.96
434.62	1794.02
434.82	1722.34
435.03	1646.57
435.23	1712.10
435.44	1656.81
435.64	1683.43
435.85	1665.00
436.06	1759.21
436.26	1763.30
436.47	1722.34
436.67	1597.42
436.88	1720.29
437.08	1771.49
437.29	1796.07
437.49	1714.15
437.70	1701.86
437.90	1701.86
438.11	1839.08
438.31	1775.59
438.52	1753.06
438.72	1804.26
438.93	1908.71
439.13	1734.63
439.34	1849.32
439.54	1697.77
439.75	1732.58
439.95	1755.11
440.16	1677.29
440.36	1740.77
440.57	1802.21
440.77	1746.92
440.98	1724.39
441.18	1679.33
441.39	1742.82
441.59	1605.61
441.80	1834.98
442.00	1804.26
442.21	1851.36
442.41	1716.20
442.62	1763.30
442.82	1705.96
443.02	1773.54
443.23	1675.24
443.43	1705.96
443.64	1824.74
443.84	1648.61
444.05	1785.83
444.25	1673.19
444.46	1746.92
444.66	1738.73
444.87	1837.03
445.07	1648.61
445.28	1671.14
445.48	1804.26
445.69	1767.40
445.89	1837.03
446.09	1769.44
446.30	2017.25
446.50	2729.94
446.71	3690.44
446.91	4470.72
447.12	4757.43
447.32	4908.98
447.53	4444.09
447.73	3923.91
447.93	3502.03
448.14	3313.61
448.34	3250.13
448.55	2916.31
448.75	2975.70
448.96	2680.79
449.16	2412.51
449.36	2320.35
449.57	2041.82
449.77	1978.34
449.98	1814.50
450.18	1822.69
450.39	1773.54
450.59	1771.49
450.79	1730.53
451.00	1662.95
451.20	1738.73
451.41	1722.34
451.61	1751.01
451.81	1787.88
452.02	1720.29
452.22	1712.10
452.43	1773.54
452.63	1814.50
452.84	1695.72
453.04	1744.87
453.24	1757.16
453.45	1687.53
453.65	1724.39
453.86	1800.16
454.06	1718.25
454.26	1724.39
454.47	1673.19
454.67	1812.45
454.87	1683.43
455.08	1675.24
455.28	1810.40
455.49	1722.34
455.69	1714.15
455.89	1873.89
456.10	1757.16
456.30	1730.53
456.51	1689.57
456.71	1718.25
456.91	1724.39
457.12	1763.30
457.32	1720.29
457.52	1677.29
457.73	1775.59
457.93	1837.03
458.14	1703.91
458.34	1581.03
458.54	1712.10
458.75	1714.15
458.95	1781.73
459.15	1748.97
459.36	1771.49
459.56	1763.30
459.76	1875.94
459.97	1757.16
460.17	1753.06
460.37	1761.25
460.58	1710.05
460.78	1771.49
460.99	1603.56
461.19	1748.97
461.39	1652.71
461.60	1736.68
461.80	1734.63
462.00	1650.66
462.21	1671.14
462.41	1722.34
462.61	1697.77
462.82	1626.09
463.02	1753.06
463.22	1765.35
463.43	1804.26
463.63	1757.16
463.83	1759.21
464.04	1816.55
464.24	1736.68
464.44	1703.91
464.64	1710.05
464.85	1734.63
465.05	1748.97
465.25	1736.68
465.46	1697.77
465.66	1765.35
465.86	1800.16
466.07	1736.68
466.27	1710.05
466.47	1646.57
466.68	1718.25
466.88	1796.07
467.08	1699.81
467.29	1775.59
467.49	1783.78
467.69	1726.44
467.89	1818.60
468.10	1697.77
468.30	1761.25
468.50	1779.68
468.71	1783.78
468.91	1681.38
469.11	1855.46
469.31	1726.44
469.52	1679.33
469.72	1777.64
469.92	1869.80
470.13	1714.15
470.33	1685.48
470.53	1828.84
470.73	2066.40
470.94	2328.54
471.14	2326.49
471.34	2566.10
471.54	2369.50
471.75	2181.09
471.95	2133.98
472.15	2148.32
472.36	2070.50
472.56	2062.30
472.76	1986.53
472.96	1904.61
473.17	1920.99
473.37	1902.56
473.57	1810.40
473.77	1785.83
473.98	1771.49
474.18	1746.92
474.38	1875.94
474.58	1681.38
474.79	1712.10
474.99	1804.26
475.19	1761.25
475.39	1710.05
475.60	1732.58
475.80	1710.05
476.00	1779.68
476.20	1681.38
476.41	1697.77
476.61	1822.69
476.81	1748.97
477.01	1685.48
477.21	1824.74
477.42	1808.36
477.62	1652.71
477.82	1802.21
478.02	1699.81
478.23	1740.77
478.43	1632.23
478.63	1708.01
478.83	1693.67
479.03	1734.63
479.24	1708.01
479.44	1857.51
479.64	1675.24
479.84	1695.72
480.04	1683.43
480.25	1779.68
480.45	1705.96
480.65	1746.92
480.85	1785.83
481.06	1691.62
481.26	1726.44
481.46	1763.30
481.66	1730.53
481.86	1626.09
482.06	1769.44
482.27	1697.77
482.47	1679.33
482.67	1728.49
482.87	1609.70
483.07	1837.03
483.28	1683.43
483.48	1675.24
483.68	1767.40
483.88	1595.37
484.08	1603.56
484.29	1732.58
484.49	1708.01
484.69	1687.53
484.89	1789.92
485.09	1794.02
485.29	1753.06
485.50	1765.35
485.70	1654.76
485.90	1783.78
486.10	1742.82
486.30	1763.30
486.50	1742.82
486.71	1710.05
486.91	1789.92
487.11	1822.69
487.31	1691.62
487.51	1767.40
487.71	1619.94
487.91	1691.62
488.12	1621.99
488.32	1621.99
488.52	1640.42
488.72	1654.76
488.92	1753.06
489.12	1773.54
489.32	1826.79
489.53	1763.30
489.73	1650.66
489.93	1832.93
490.13	1656.81
490.33	1603.56
490.53	1716.20
490.73	1783.78
490.94	1648.61
491.14	1794.02
491.34	1814.50
491.54	2113.50
491.74	2469.85
491.94	2994.13
492.14	3057.62
492.34	3053.52
492.54	2852.82
492.75	2389.98
492.95	2496.47
493.15	2224.09
493.35	2222.05
493.55	2187.23
493.75	2095.07
493.95	2158.56
494.15	2023.39
494.35	1918.95
494.56	1884.13
494.76	1785.83
494.96	1789.92
495.16	1773.54
495.36	1753.06
495.56	1751.01
495.76	1738.73
495.96	1757.16
496.16	1624.04
496.36	1812.45
496.56	1701.86
496.77	1744.87
496.97	1691.62
497.17	1820.64
497.37	1656.81
497.57	1742.82
497.77	1712.10
497.97	1693.67
498.17	1753.06
498.37	1724.39
498.57	1789.92
498.77	1796.07
498.97	1824.74
499.17	1791.97
499.38	1751.01
499.58	1763.30
499.78	1802.21
499.98	1796.07
500.18	1728.49
500.38	1681.38
500.58	1935.33
500.78	2635.74
500.98	4556.73
501.18	6049.70
501.38	7098.26
501.58	7362.45
501.78	6797.21
501.98	5703.59
502.18	5060.53
502.38	4474.81
502.58	4169.66
502.78	3856.33
502.98	3708.87
503.18	3463.12
503.38	3284.94
503.59	2799.57
503.79	2627.54
503.99	2541.53
504.19	2287.58
504.39	2277.34
504.59	2154.46
504.79	2129.89
504.99	2072.54
505.19	1941.47
505.39	1847.27
505.59	1943.52
505.79	1972.19
505.99	1826.79
506.19	1822.69
506.39	1845.22
506.59	1724.39
506.79	1679.33
506.99	1675.24
507.19	1728.49
507.39	1820.64
507.59	1613.80
507.79	1679.33
507.99	1701.86
508.19	1697.77
508.39	1691.62
508.59	1742.82
508.79	1736.68
508.99	1834.98
509.19	1724.39
509.39	1777.64
509.59	1740.77
509.79	1724.39
509.99	1699.81
510.19	1757.16
510.39	1798.12
510.59	1716.20
510.79	1693.67
510.99	1658.85
511.19	1746.92
511.39	1834.98
511.59	1755.11
511.79	1771.49
511.99	1691.62
512.19	1849.32
512.38	1775.59
512.58	1720.29
512.78	1742.82
512.98	1818.60
513.18	1900.52
513.38	1669.09
513.58	1765.35
513.78	1677.29
513.98	1691.62
514.18	1820.64
514.38	1689.57
514.58	1759.21
514.78	1718.25
514.98	1665.00
515.18	1669.09
515.38	1708.01
515.58	1853.41
515.78	1718.25
515.98	1701.86
516.18	1738.73
516.38	1656.81
516.57	1722.34
516.77	1722.34
516.97	1800.16
517.17	1738.73
517.37	1581.03
517.57	1787.88
517.77	1740.77
517.97	1671.14
518.17	1798.12
518.37	1603.56
518.57	1642.47
518.77	1695.72
518.97	1718.25
519.16	1746.92
519.36	1767.40
519.56	1714.15
519.76	1613.80
519.96	1742.82
520.16	1791.97
520.36	1665.00
520.56	1814.50
520.76	1660.90
520.96	1660.90
521.16	1773.54
521.35	1710.05
521.55	1759.21
521.75	1738.73
521.95	1673.19
522.15	1712.10
522.35	1632.23
522.55	1783.78
522.75	1691.62
522.95	1617.90
523.14	1685.48
523.34	1781.73
523.54	1687.53
523.74	1742.82
523.94	1832.93
524.14	1636.33
524.34	1804.26
524.54	1785.83
524.73	1699.81
524.93	1779.68
525.13	1705.96
525.33	1650.66
525.53	1847.27
525.73	1785.83
525.93	1689.57
526.13	1656.81
526.32	1734.63
526.52	1824.74
526.72	1779.68
526.92	1730.53
527.12	1714.15
527.32	1667.05
527.52	1736.68
527.71	1787.88
527.91	1701.86
528.11	1712.10
528.31	1751.01
528.51	1695.72
528.71	1705.96
528.90	1761.25
529.10	1714.15
529.30	1812.45
529.50	1708.01
529.70	1826.79
529.90	1716.20
530.09	1728.49
530.29	1640.42
530.49	1693.67
530.69	1859.56
530.89	1703.91
531.09	1708.01
531.28	1724.39
531.48	1818.60
531.68	1796.07
531.88	1777.64
532.08	1812.45
532.28	1703.91
532.47	1783.78
532.67	1812.45
532.87	1691.62
533.07	1734.63
533.27	1748.97
533.46	1757.16
533.66	1718.25
533.86	1720.29
534.06	1720.29
534.26	1712.10
534.45	1724.39
534.65	1798.12
534.85	1843.17
535.05	1624.04
535.25	1832.93
535.44	1660.90
535.64	1740.77
535.84	1712.10
536.04	1685.48
536.24	1681.38
536.43	1632.23
536.63	1708.01
536.83	1724.39
537.03	1683.43
537.22	1648.61
537.42	1646.57
537.62	1724.39
537.82	1667.05
538.02	1677.29
538.21	1832.93
538.41	1796.07
538.61	1826.79
538.81	1714.15
539.00	1779.68
539.20	1669.09
539.40	1730.53
539.60	1755.11
539.79	1755.11
539.99	1724.39
540.19	1732.58
540.39	1742.82
540.58	1681.38
540.78	1837.03
540.98	1802.21
541.18	1744.87
541.37	1796.07
541.57	1667.05
541.77	1763.30
541.97	1710.05
542.16	1624.04
542.36	1712.10
542.56	1675.24
542.76	1906.66
542.95	1761.25
543.15	1726.44
543.35	1730.53
543.54	1736.68
543.74	1726.44
543.94	1748.97
544.14	1724.39
544.33	1787.88
544.53	1658.85
544.73	1734.63
544.93	1732.58
545.12	1757.16
545.32	1703.91
545.52	1718.25
545.71	1640.42
545.91	1660.90
546.11	1675.24
546.30	1669.09
546.50	1761.25
546.70	1722.34
546.90	1726.44
547.09	1662.95
547.29	1665.00
547.49	1859.56
547.68	1701.86
547.88	1718.25
548.08	1757.16
548.27	2170.85
548.47	1673.19
548.67	1751.01
548.87	1730.53
549.06	1724.39
549.26	1681.38
549.46	1632.23
549.65	1769.44
549.85	1720.29
550.05	1753.06
550.24	1699.81
550.44	1728.49
550.64	1662.95
550.83	1785.83
551.03	1773.54
551.23	1865.70
551.42	1734.63
551.62	1701.86
551.82	1726.44
552.01	1757.16
552.21	1830.88
552.41	1755.11
552.60	1798.12
552.80	1734.63
553.00	1738.73
553.19	1691.62
553.39	1759.21
553.59	1753.06
553.78	1734.63
553.98	1740.77
554.17	1650.66
554.37	1714.15
554.57	1816.55
554.76	1609.70
554.96	1673.19
555.16	1746.92
555.35	1769.44
555.55	1716.20
555.75	1742.82
555.94	1808.36
556.14	1615.85
556.33	1785.83
556.53	1687.53
556.73	1781.73
556.92	1714.15
557.12	1826.79
557.32	1804.26
557.51	1740.77
557.71	1761.25
557.90	1828.84
558.10	1847.27
558.30	1687.53
558.49	1724.39
558.69	1683.43
558.88	1785.83
559.08	1718.25
559.28	1740.77
559.47	1812.45
559.67	1832.93
559.86	1877.99
560.06	1685.48
560.26	1808.36
560.45	1755.11
560.65	1656.81
560.84	1773.54
561.04	1693.67
561.24	1755.11
561.43	1681.38
561.63	1779.68
561.82	1789.92
562.02	1773.54
562.22	1652.71
562.41	1656.81
562.61	1697.77
562.80	1677.29
563.00	1882.08
563.19	1777.64
563.39	1824.74
563.59	1740.77
563.78	1693.67
563.98	1617.90
564.17	1685.48
564.37	1697.77
564.56	1685.48
564.76	1697.77
564.96	1787.88
565.15	1714.15
565.35	1855.46
565.54	1710.05
565.74	1798.12
565.93	1781.73
566.13	1675.24
566.32	1765.35
566.52	1804.26
566.71	1691.62
566.91	1789.92
567.11	1744.87
567.30	1718.25
567.50	1732.58
567.69	1798.12
567.89	1701.86
568.08	1675.24
568.28	1714.15
568.47	1751.01
568.67	1687.53
568.86	1712.10
569.06	1839.08
569.25	1710.05
569.45	1701.86
569.64	1708.01
569.84	1753.06
570.04	1761.25
570.23	1736.68
570.43	1646.57
570.62	1705.96
570.82	1867.75
571.01	1718.25
571.21	1759.21
571.40	1644.52
571.60	1845.22
571.79	1724.39
571.99	1736.68
572.18	1691.62
572.38	1726.44
572.57	1734.63
572.77	1775.59
572.96	1787.88
573.16	1765.35
573.35	1753.06
573.55	1839.08
573.74	1804.26
573.94	1677.29
574.13	1728.49
574.33	1779.68
574.52	1751.01
574.71	1695.72
574.91	1746.92
575.10	1695.72
575.30	1667.05
575.49	1716.20
575.69	1650.66
575.88	1759.21
576.08	1761.25
576.27	1748.97
576.47	1726.44
576.66	1765.35
576.86	1773.54
577.05	1783.78
577.25	1763.30
577.44	1914.85
577.64	1751.01
577.83	1796.07
578.02	1677.29
578.22	1806.31
578.41	1787.88
578.61	1744.87
578.80	1685.48
579.00	1763.30
579.19	1775.59
579.39	1773.54
579.58	1847.27
579.77	1767.40
579.97	1802.21
580.16	1787.88
580.36	1845.22
580.55	1742.82
580.75	1763.30
580.94	1791.97
581.13	1857.51
581.33	1787.88
581.52	1667.05
581.72	1873.89
581.91	1789.92
582.11	1728.49
582.30	1781.73
582.49	1691.62
582.69	1775.59
582.88	1787.88
583.08	1728.49
583.27	1869.80
583.47	1720.29
583.66	1705.96
583.85	1691.62
584.05	1738.73
584.24	1787.88
584.44	1771.49
584.63	1853.41
584.82	1861.60
585.02	1789.92
585.21	1771.49
585.41	1826.79
585.60	1767.40
585.79	1998.82
585.99	1849.32
586.18	1884.13
586.37	2238.43
586.57	3411.92
586.76	10282.85
586.96	25306.75
587.15	35550.69
587.34	41895.30
587.54	43754.85
587.73	37651.91
587.93	27254.37
588.12	21923.51
588.31	18859.74
588.51	16709.38
588.70	15609.62
588.89	14335.78
589.09	12986.17
589.28	11186.01
589.47	9561.97
589.67	8200.07
589.86	6561.69
590.06	5013.43
590.25	4011.97
590.44	3145.68
590.64	2637.78
590.83	2306.01
591.02	2035.68
591.22	1918.95
591.41	1853.41
591.60	1873.89
591.80	1937.38
591.99	1701.86
592.18	1796.07
592.38	1855.46
592.57	1724.39
592.76	1816.55
592.96	1779.68
593.15	1714.15
593.34	1779.68
593.54	1693.67
593.73	1808.36
593.92	1800.16
594.12	1769.44
594.31	1744.87
594.50	1791.97
594.70	1759.21
594.89	1894.37
595.08	1701.86
595.28	1853.41
595.47	1959.91
595.66	1759.21
595.86	1677.29
596.05	1728.49
596.24	1724.39
596.43	1822.69
596.63	1804.26
596.82	1738.73
597.01	1751.01
597.21	1794.02
597.40	1740.77
597.59	1656.81
597.79	1753.06
597.98	1685.48
598.17	1806.31
598.36	1757.16
598.56	1773.54
598.75	1732.58
598.94	1765.35
599.14	1781.73
599.33	1697.77
599.52	1753.06
599.71	1730.53
599.91	1812.45
600.10	1751.01
600.29	1726.44
600.48	1744.87
600.68	1812.45
600.87	1720.29
601.06	1773.54
601.26	1734.63
601.45	1751.01
601.64	1763.30
601.83	1861.60
602.03	1699.81
602.22	1607.66
602.41	1742.82
602.60	1900.52
602.80	1748.97
602.99	1718.25
603.18	1640.42
603.37	1699.81
603.57	1800.16
603.76	1746.92
603.95	1757.16
604.14	1722.34
604.34	1681.38
604.53	1730.53
604.72	1703.91
604.91	1710.05
605.10	1675.24
605.30	1691.62
605.49	1810.40
605.68	1714.15
605.87	1791.97
606.07	1677.29
606.26	1753.06
606.45	1748.97
606.64	1767.40
606.84	1660.90
607.03	1691.62
607.22	1736.68
607.41	1703.91
607.60	1697.77
607.80	1785.83
607.99	1691.62
608.18	1751.01
608.37	1730.53
608.56	1693.67
608.76	1693.67
608.95	1834.98
609.14	1740.77
609.33	1757.16
609.52	1757.16
609.72	1677.29
609.91	1777.64
610.10	1705.96
610.29	1820.64
610.48	1849.32
610.68	1742.82
610.87	1648.61
611.06	1732.58
611.25	1724.39
611.44	1738.73
611.63	1744.87
611.83	1785.83
612.02	1597.42
612.21	1767.40
612.40	1570.79
612.59	1662.95
612.79	1724.39
612.98	1669.09
613.17	1789.92
613.36	1738.73
613.55	1751.01
613.74	1675.24
613.93	1685.48
614.13	1628.14
614.32	1662.95
614.51	1724.39
614.70	1681.38
614.89	1695.72
615.08	1787.88
615.28	2029.54
615.47	1701.86
615.66	1697.77
615.85	1699.81
616.04	1755.11
616.23	1624.04
616.42	1773.54
616.62	1722.34
616.81	1759.21
617.00	1765.35
617.19	1798.12
617.38	1574.89
617.57	1683.43
617.76	1683.43
617.95	1685.48
618.15	1785.83
618.34	1808.36
618.53	1621.99
618.72	1826.79
618.91	1773.54
619.10	1746.92
619.29	1689.57
619.48	1652.71
619.68	1574.89
619.87	1730.53
620.06	1660.90
620.25	1806.31
620.44	1705.96
620.63	1681.38
620.82	1724.39
621.01	1748.97
621.20	1738.73
621.39	1699.81
621.59	1675.24
621.78	1722.34
621.97	1841.12
622.16	1757.16
622.35	1660.90
622.54	1781.73
622.73	1802.21
622.92	1646.57
623.11	1689.57
623.30	1675.24
623.49	1796.07
623.68	1753.06
623.88	1775.59
624.07	1601.51
624.26	1638.38
624.45	1665.00
624.64	1708.01
624.83	1705.96
625.02	1693.67
625.21	1748.97
625.40	1691.62
625.59	1742.82
625.78	1720.29
625.97	1732.58
626.16	1826.79
626.35	1720.29
626.54	1689.57
626.74	1800.16
626.93	1693.67
627.12	1675.24
627.31	1789.92
627.50	1742.82
627.69	1802.21
627.88	1662.95
628.07	1714.15
628.26	1675.24
628.45	1585.13
628.64	1648.61
628.83	1730.53
629.02	1652.71
629.21	1703.91
629.40	1757.16
629.59	1689.57
629.78	1740.77
629.97	1708.01
630.16	1724.39
630.35	1673.19
630.54	1712.10
630.73	1675.24
630.92	1689.57
631.11	1667.05
631.30	1746.92
631.49	1798.12
631.68	1685.48
631.87	1783.78
632.06	1634.28
632.25	1882.08
632.44	1787.88
632.63	1742.82
632.82	1634.28
633.01	1605.61
633.20	1728.49
633.39	1621.99
633.58	1611.75
633.77	1726.44
633.96	1751.01
634.15	1785.83
634.34	1787.88
634.53	1804.26
634.72	1714.15
634.91	1570.79
635.10	1714.15
635.29	1757.16
635.48	1701.86
635.67	1726.44
635.86	1671.14
636.05	1820.64
636.24	1728.49
636.43	1742.82
636.62	1703.91
636.81	1572.84
637.00	1718.25
637.19	1630.18
637.38	1726.44
637.57	1642.47
637.76	1697.77
637.95	1757.16
638.14	1726.44
638.33	1681.38
638.52	1742.82
638.71	1693.67
638.89	1710.05
639.08	1853.41
639.27	1796.07
639.46	1634.28
639.65	1763.30
639.84	1671.14
640.03	1755.11
640.22	1730.53
640.41	1861.60
640.60	1640.42
640.79	1662.95
640.98	1677.29
641.17	1746.92
641.36	1703.91
641.55	1716.20
641.74	1609.70
641.92	1667.05
642.11	1716.20
642.30	1734.63
642.49	1640.42
642.68	1652.71
642.87	1775.59
643.06	1746.92
643.25	1640.42
643.44	1630.18
643.63	1718.25
643.82	1736.68
644.00	1718.25
644.19	1685.48
644.38	1617.90
644.57	1699.81
644.76	1699.81
644.95	1675.24
645.14	1785.83
645.33	1667.05
645.52	1763.30
645.71	1656.81
645.89	1654.76
646.08	1695.72
646.27	1730.53
646.46	1800.16
646.65	1626.09
646.84	1689.57
647.03	1624.04
647.22	1767.40
647.40	1785.83
647.59	1634.28
647.78	1605.61
647.97	1609.70
648.16	1658.85
648.35	1773.54
648.54	1738.73
648.73	1591.27
648.91	1679.33
649.10	1755.11
649.29	1699.81
649.48	1599.46
649.67	1767.40
649.86	1650.66
650.05	1619.94
650.23	1767.40
650.42	1705.96
650.61	1740.77
650.80	1742.82
650.99	1812.45
651.18	1734.63
651.36	1751.01
651.55	1716.20
651.74	1783.78
651.93	1654.76
652.12	1646.57
652.31	1710.05
652.49	1738.73
652.68	1746.92
652.87	1816.55
653.06	1708.01
653.25	1839.08
653.44	1746.92
653.62	1834.98
653.81	1671.14
654.00	1677.29
654.19	1775.59
654.38	1890.28
654.56	1689.57
654.75	1705.96
654.94	1775.59
655.13	1730.53
655.32	1740.77
655.51	1785.83
655.69	1716.20
655.88	1828.84
656.07	1673.19
656.26	1789.92
656.45	1665.00
656.63	1687.53
656.82	1703.91
657.01	1796.07
657.20	1705.96
657.38	1736.68
657.57	1699.81
657.76	1701.86
657.95	1761.25
658.14	1626.09
658.32	1705.96
658.51	1652.71
658.70	1748.97
658.89	1738.73
659.08	1779.68
659.26	1832.93
659.45	1630.18
659.64	1773.54
659.83	1636.33
660.01	1869.80
660.20	1757.16
660.39	1800.16
660.58	1628.14
660.76	1757.16
660.95	1644.52
661.14	1730.53
661.33	1558.50
661.51	1699.81
661.70	1705.96
661.89	1679.33
662.08	1701.86
662.26	1617.90
662.45	1605.61
662.64	1820.64
662.83	1734.63
663.01	1613.80
663.20	1714.15
663.39	1724.39
663.58	1703.91
663.76	1648.61
663.95	1673.19
664.14	1658.85
664.32	1658.85
664.51	1724.39
664.70	1675.24
664.89	1804.26
665.07	1679.33
665.26	1820.64
665.45	1624.04
665.64	1738.73
665.82	1783.78
666.01	1755.11
666.20	1714.15
666.38	1787.88
666.57	1830.88
666.76	2205.66
666.95	4665.27
667.13	10805.08
667.32	15650.58
667.51	18284.26
667.69	19574.49
667.88	18310.89
668.07	12842.81
668.25	9922.41
668.44	8304.51
668.63	7514.00
668.81	7045.01
669.00	6451.10
669.19	5879.72
669.38	5195.70
669.56	4648.89
669.75	4081.60
669.94	3413.96
670.12	2969.55
670.31	2506.71
670.50	2222.05
670.68	2052.06
670.87	1945.57
671.06	1834.98
671.24	1824.74
671.43	1738.73
671.62	1779.68
671.80	1703.91
671.99	1732.58
672.18	1705.96
672.36	1746.92
672.55	1742.82
672.74	1671.14
672.92	1675.24
673.11	1665.00
673.29	1644.52
673.48	1802.21
673.67	1716.20
673.85	1783.78
674.04	1701.86
674.23	1732.58
674.41	1810.40
674.60	1652.71
674.79	1607.66
674.97	1796.07
675.16	1863.65
675.34	1742.82
675.53	1681.38
675.72	1734.63
675.90	1855.46
676.09	1691.62
676.28	1693.67
676.46	1646.57
676.65	1755.11
676.83	1638.38
677.02	1720.29
677.21	1751.01
677.39	1781.73
677.58	1681.38
677.77	1701.86
677.95	1716.20
678.14	1775.59
678.32	1742.82
678.51	1677.29
678.70	1834.98
678.88	1718.25
679.07	1767.40
679.25	1701.86
679.44	1757.16
679.63	1673.19
679.81	1728.49
680.00	1744.87
680.18	1722.34
680.37	1796.07
680.55	1710.05
680.74	1646.57
680.93	1480.68
681.11	1685.48
681.30	1730.53
681.48	1728.49
681.67	1714.15
681.85	1761.25
682.04	1720.29
682.23	1714.15
682.41	1806.31
682.60	1669.09
682.78	1699.81
682.97	1726.44
683.15	1726.44
683.34	1660.90
683.53	1714.15
683.71	1599.46
683.90	1783.78
684.08	1812.45
684.27	1701.86
684.45	1708.01
684.64	1812.45
684.82	1687.53
685.01	1738.73
685.19	1708.01
685.38	1789.92
685.57	1632.23
685.75	1689.57
685.94	1693.67
686.12	1683.43
686.31	1673.19
686.49	1828.84
686.68	1644.52
686.86	1673.19
687.05	1652.71
687.23	1802.21
687.42	1634.28
687.60	1646.57
687.79	1738.73
687.97	1740.77
688.16	1724.39
688.34	1820.64
688.53	1687.53
688.71	1662.95
688.90	1732.58
689.08	1734.63
689.27	1636.33
689.45	1687.53
689.64	1722.34
689.82	1742.82
690.01	1755.11
690.19	1732.58
690.38	1669.09
690.56	1789.92
690.75	1685.48
690.93	1681.38
691.12	1689.57
691.30	1665.00
691.49	1748.97
691.67	1681.38
691.86	1789.92
692.04	1693.67
692.23	1685.48
692.41	1656.81
692.60	1802.21
692.78	1705.96
692.97	1722.34
693.15	1683.43
693.34	1808.36
693.52	1708.01
693.71	1673.19
693.89	1669.09
694.08	1665.00
694.26	1685.48
694.44	1748.97
694.63	1669.09
694.81	1687.53
695.00	1720.29
695.18	1667.05
695.37	1832.93
695.55	1755.11
695.74	1710.05
695.92	1667.05
696.10	1708.01
696.29	1609.70
696.47	1632.23
696.66	1722.34
696.84	1675.24
697.03	1714.15
697.21	1771.49
697.40	2250.72
697.58	1740.77
697.76	1644.52
697.95	1658.85
698.13	1646.57
698.32	1677.29
698.50	1718.25
698.68	1697.77
698.87	1779.68
699.05	1822.69
699.24	1642.47
699.42	1642.47
699.61	1728.49
699.79	1673.19
699.97	1677.29
700.16	1671.14
700.34	1570.79
700.53	1662.95
700.71	1763.30
700.89	1671.14
701.08	1714.15
701.26	1746.92
701.45	2058.21
701.63	1675.24
701.81	1732.58
702.00	1621.99
702.18	1708.01
702.37	1583.08
702.55	1703.91
702.73	1644.52
702.92	1675.24
703.10	1746.92
703.28	1753.06
703.47	1638.38
703.65	1796.07
703.84	1781.73
704.02	1685.48
704.20	1816.55
704.39	1650.66
704.57	1712.10
704.75	1849.32
704.94	1824.74
705.12	1728.49
705.30	1767.40
705.49	2154.46
705.67	4542.39
705.86	9670.51
706.04	13367.09
706.22	15257.37
706.41	15763.22
706.59	14159.66
706.77	9865.07
706.96	7600.01
707.14	6776.73
707.32	5994.40
707.51	5681.07
707.69	4958.13
707.87	4237.25
708.06	3518.41
708.24	3065.81
708.42	2455.51
708.61	2283.49
708.79	1902.56
708.97	1834.98
709.16	1855.46
709.34	1783.78
709.52	1734.63
709.71	1783.78
709.89	1699.81
710.07	1646.57
710.26	1630.18
710.44	1765.35
710.62	1712.10
710.80	1734.63
710.99	1734.63
711.17	1761.25
711.35	1701.86
711.54	1691.62
711.72	1744.87
711.90	1748.97
712.09	1714.15
712.27	1681.38
712.45	1748.97
712.63	1675.24
712.82	1644.52
713.00	1687.53
713.18	1751.01
713.37	1699.81
713.55	1722.34
713.73	1730.53
713.91	1720.29
714.10	1781.73
714.28	1699.81
714.46	1765.35
714.65	1722.34
714.83	1697.77
715.01	1716.20
715.19	1683.43
715.38	1671.14
715.56	1716.20
715.74	1695.72
715.92	1636.33
716.11	1802.21
716.29	1585.13
716.47	1730.53
716.65	1650.66
716.84	1689.57
717.02	1736.68
717.20	1601.51
717.38	1632.23
717.57	1734.63
717.75	1722.34
717.93	1726.44
718.11	1701.86
718.30	1665.00
718.48	1691.62
718.66	1798.12
718.84	1646.57
719.03	1734.63
719.21	1597.42
719.39	1761.25
719.57	1742.82
719.75	1757.16
719.94	1619.94
720.12	1683.43
720.30	1787.88
720.48	1720.29
720.67	1648.61
720.85	1636.33
721.03	1603.56
721.21	1681.38
721.39	1814.50
721.58	1765.35
721.76	1681.38
721.94	1712.10
722.12	1724.39
722.30	1800.16
722.49	1695.72
722.67	1652.71
722.85	1695.72
723.03	1644.52
723.21	1677.29
723.40	1689.57
723.58	1767.40
723.76	1667.05
723.94	1710.05
724.12	1810.40
724.30	1794.02
724.49	1753.06
724.67	1607.66
724.85	1746.92
725.03	1667.05
725.21	1654.76
725.40	1804.26
725.58	1662.95
725.76	1791.97
725.94	1753.06
726.12	1560.55
726.30	1755.11
726.49	1705.96
726.67	1632.23
726.85	1738.73
727.03	1767.40
727.21	2193.37
727.39	3067.86
727.57	3942.34
727.76	4192.19
727.94	4528.06
728.12	4388.80
728.30	3698.63
728.48	3102.67
728.66	2729.94
728.84	2598.87
729.03	2320.35
729.21	2183.13
729.39	2017.25
729.57	1859.56
729.75	1814.50
729.93	1759.21
730.11	1738.73
730.30	1671.14
730.48	1699.81
730.66	1806.31
730.84	1767.40
731.02	1689.57
731.20	1687.53
731.38	1757.16
731.56	1656.81
731.74	1665.00
731.93	1724.39
732.11	1685.48
732.29	1726.44
732.47	1699.81
732.65	1697.77
732.83	1779.68
733.01	1726.44
733.19	1656.81
733.37	1789.92
733.56	1808.36
733.74	1683.43
733.92	1843.17
734.10	1685.48
734.28	1740.77
734.46	1662.95
734.64	1716.20
734.82	1697.77
735.00	1726.44
735.18	1671.14
735.36	1716.20
735.54	1714.15
735.73	1628.14
735.91	1783.78
736.09	1728.49
736.27	1730.53
736.45	1712.10
736.63	1644.52
736.81	1703.91
736.99	1705.96
737.17	1748.97
737.35	1685.48
737.53	1763.30
737.71	1699.81
737.89	1705.96
738.07	1681.38
738.25	1652.71
738.43	1671.14
738.61	1632.23
738.80	1634.28
738.98	1626.09
739.16	1669.09
739.34	1728.49
739.52	1828.84
739.70	1656.81
739.88	1724.39
740.06	1814.50
740.24	1599.46
740.42	1794.02
740.60	1570.79
740.78	1640.42
740.96	1609.70
741.14	1714.15
741.32	1685.48
741.50	1654.76
741.68	1880.04
741.86	1761.25
742.04	1642.47
742.22	1644.52
742.40	1671.14
742.58	1710.05
742.76	1642.47
742.94	1748.97
743.12	1640.42
743.30	1722.34
743.48	1722.34
743.66	1650.66
743.84	1740.77
744.02	1656.81
744.20	1669.09
744.38	1638.38
744.56	1656.81
744.74	1794.02
744.92	1738.73
745.10	1853.41
745.28	1812.45
745.46	1742.82
745.64	1624.04
745.82	1783.78
746.00	1646.57
746.18	1703.91
746.36	1714.15
746.54	1720.29
746.72	1718.25
746.90	1685.48
747.08	1830.88
747.26	1708.01
747.44	1775.59
747.62	1662.95
747.80	1732.58
747.98	1796.07
748.15	1710.05
748.33	1751.01
748.51	1697.77
748.69	1763.30
748.87	1576.94
749.05	1697.77
749.23	1615.85
749.41	1746.92
749.59	1613.80
749.77	1632.23
749.95	1699.81
750.13	1665.00
750.31	1775.59
750.49	1636.33
750.67	1675.24
750.85	1834.98
751.03	1777.64
751.20	1910.75
751.38	1677.29
751.56	1632.23
751.74	1751.01
751.92	1681.38
752.10	1630.18
752.28	1779.68
752.46	1722.34
752.64	1644.52
752.82	1736.68
753.00	1773.54
753.18	1693.67
753.35	1699.81
753.53	1669.09
753.71	1724.39
753.89	1763.30
754.07	1652.71
754.25	1693.67
754.43	1708.01
754.61	1673.19
754.79	1708.01
754.97	1624.04
755.14	1779.68
755.32	1652.71
755.50	1718.25
755.68	1757.16
755.86	1648.61
756.04	1654.76
756.22	1626.09
756.40	1722.34
756.57	1820.64
756.75	1732.58
756.93	1720.29
757.11	1730.53
757.29	1570.79
757.47	1624.04
757.65	1611.75
757.82	1578.98
758.00	1648.61
758.18	1714.15
758.36	1689.57
758.54	1775.59
758.72	1607.66
758.90	1753.06
759.07	1736.68
759.25	1558.50
759.43	1665.00
759.61	1574.89
759.79	2217.95
759.97	1757.16
760.15	1634.28
760.32	1714.15
760.50	1705.96
760.68	1740.77
760.86	1677.29
761.04	1714.15
761.22	1767.40
761.39	1722.34
761.57	1757.16
761.75	1632.23
761.93	1769.44
762.11	1658.85
762.28	1689.57
762.46	1710.05
762.64	1779.68
762.82	1656.81
763.00	1699.81
763.18	1769.44
763.35	1597.42
763.53	1714.15
763.71	1742.82
763.89	1732.58
764.07	1703.91
764.24	1685.48
764.42	1740.77
764.60	1683.43
764.78	1720.29
764.96	1751.01
765.13	1701.86
765.31	1689.57
765.49	1763.30
765.67	1671.14
765.84	1632.23
766.02	1685.48
766.20	1654.76
766.38	1751.01
766.56	1742.82
766.73	1673.19
766.91	1705.96
767.09	1724.39
767.27	1699.81
767.44	1705.96
767.62	1669.09
767.80	1665.00
767.98	1626.09
768.15	1630.18
768.33	1802.21
768.51	1714.15
768.69	1738.73
768.87	1714.15
769.04	1677.29
769.22	1796.07
769.40	1765.35
769.58	1798.12
769.75	1746.92
769.93	1814.50
770.11	1746.92
770.28	1677.29
770.46	1759.21
770.64	1712.10
770.82	1767.40
770.99	1691.62
771.17	1726.44
771.35	1673.19
771.53	1730.53
771.70	1656.81
771.88	1744.87
772.06	1699.81
772.23	1691.62
772.41	1771.49
772.59	1697.77
772.77	1585.13
772.94	1640.42
773.12	1789.92
773.30	1705.96
773.47	1675.24
773.65	1636.33
773.83	1796.07
774.01	1726.44
774.18	1632.23
774.36	1648.61
774.54	1599.46
774.71	1665.00
774.89	1558.50
775.07	1556.46
775.24	1720.29
775.42	1726.44
775.60	1773.54
775.78	1716.20
775.95	1619.94
776.13	1611.75
776.31	1699.81
776.48	1720.29
776.66	1722.34
776.84	1624.04
777.01	1697.77
777.19	1720.29
777.37	1724.39
777.54	1728.49
777.72	1775.59
777.90	1710.05
778.07	1716.20
778.25	1888.23
778.43	1736.68
778.60	1648.61
778.78	1753.06
778.96	1720.29
779.13	1636.33
779.31	1693.67
779.49	1673.19
779.66	1621.99
779.84	1691.62
780.01	1695.72
780.19	1667.05
780.37	1769.44
780.54	1759.21
780.72	1669.09
780.90	1677.29
781.07	1716.20
781.25	1642.47
781.43	1759.21
781.60	1699.81
781.78	1855.46
781.95	1746.92
782.13	1626.09
782.31	1648.61
782.48	1566.70
782.66	1765.35
782.83	1775.59
783.01	1681.38
783.19	1683.43
783.36	1757.16
783.54	1714.15
783.72	1730.53
783.89	1771.49
784.07	1673.19
784.24	1665.00
784.42	1783.78
784.60	1679.33
784.77	1769.44
784.95	1615.85
785.12	1677.29
785.30	1708.01
785.47	1574.89
785.65	1638.38
785.83	1705.96
786.00	1665.00
786.18	1767.40
786.35	1656.81
786.53	1675.24
786.71	1763.30
786.88	1675.24
787.06	1728.49
787.23	1636.33
787.41	1656.81
787.58	1695.72
787.76	1599.46
787.94	1632.23
788.11	1646.57
788.29	1652.71
788.46	1665.00
788.64	1638.38
788.81	1638.38
788.99	1615.85
789.16	1640.42
789.34	1646.57
789.52	1695.72
789.69	1718.25
789.87	1644.52
790.04	1734.63
790.22	1716.20
790.39	1751.01
790.57	1640.42
790.74	1603.56
790.92	1732.58
791.09	1648.61
791.27	1675.24
791.44	1824.74
791.62	1712.10
791.79	1755.11
791.97	1718.25
792.15	1861.60
792.32	1757.16
792.50	1658.85
792.67	1822.69
792.85	1789.92
793.02	1656.81
793.20	1673.19
793.37	1650.66
793.55	1724.39
793.72	1665.00
793.90	1781.73
794.07	1589.22
794.25	1656.81
794.42	1681.38
794.60	1775.59
794.77	1722.34
794.95	1718.25
795.12	1755.11
795.30	1648.61
795.47	1593.32
795.65	1748.97
795.82	1716.20
796.00	1675.24
796.17	1611.75
796.34	1679.33
796.52	1708.01
796.69	1789.92
796.87	1677.29
797.04	1718.25
797.22	1710.05
797.39	1691.62
797.57	1703.91
797.74	1683.43
797.92	1687.53
798.09	1638.38
798.27	1812.45
798.44	1667.05
798.62	1701.86
798.79	1691.62
798.96	1679.33
799.14	1714.15
799.31	1828.84
799.49	1669.09
799.66	1626.09
799.84	1748.97
800.01	1669.09
800.19	1691.62
800.36	1611.75
800.53	1693.67
800.71	1724.39
800.88	1779.68
801.06	1742.82
801.23	1617.90
801.41	1705.96
801.58	1673.19
801.75	1554.41
801.93	1746.92
802.10	1693.67
802.28	1689.57
802.45	1628.14
802.63	1722.34
802.80	1787.88
802.97	1662.95
803.15	1683.43
803.32	1681.38
803.50	1599.46
803.67	1726.44
803.84	1619.94
804.02	1689.57
804.19	1693.67
804.37	1548.26
804.54	1654.76
804.71	1675.24
804.89	1757.16
805.06	1648.61
805.24	1675.24
805.41	1617.90
805.58	1654.76
805.76	1753.06
805.93	1671.14
806.10	1781.73
806.28	1794.02
806.45	1685.48
806.63	1724.39
806.80	1652.71
806.97	1718.25
807.15	1695.72
807.32	1755.11
807.49	1781.73
807.67	1607.66
807.84	1726.44
808.01	1669.09
808.19	1837.03
808.36	1787.88
808.54	1611.75
808.71	1611.75
808.88	1693.67
809.06	1689.57
809.23	1751.01
809.40	1669.09
809.58	1779.68
809.75	1689.57
809.92	1621.99
810.10	1826.79
810.27	1652.71
810.44	1642.47
810.62	1712.10
810.79	1681.38
810.96	1642.47
811.14	1665.00
811.31	1714.15
811.48	1802.21
811.66	1701.86
811.83	1804.26
812.00	1693.67
812.18	1724.39
812.35	1810.40
812.52	1708.01
812.69	1609.70
812.87	1640.42
813.04	1642.47
813.21	1720.29
813.39	1636.33
813.56	1673.19
813.73	1740.77
813.91	1595.37
814.08	1640.42
814.25	1632.23
814.42	1603.56
814.60	1699.81
814.77	1691.62
814.94	1597.42
815.12	1665.00
815.29	1726.44
815.46	1675.24
815.63	1712.10
815.81	1669.09
815.98	1654.76
816.15	1701.86
816.33	1720.29
816.50	1683.43
816.67	1708.01
816.84	1656.81
817.02	1640.42
817.19	1607.66
817.36	1650.66
817.53	1740.77
817.71	1693.67
817.88	1710.05
818.05	1679.33
818.22	1673.19
818.40	1814.50
818.57	1746.92
818.74	1710.05
818.91	1636.33
819.09	1791.97
819.26	1755.11
819.43	1648.61
819.60	1615.85
819.78	1751.01
819.95	1777.64
820.12	1585.13
820.29	1742.82
820.47	1724.39
820.64	1699.81
820.81	1560.55
820.98	1648.61
821.15	1714.15
821.33	1679.33
821.50	1648.61
821.67	1697.77
821.84	1708.01
822.02	1708.01
822.19	1722.34
822.36	1687.53
822.53	1691.62
822.70	1558.50
822.88	1746.92
823.05	1794.02
823.22	1708.01
823.39	1726.44
823.56	1658.85
823.74	1738.73
823.91	1587.18
824.08	1730.53
824.25	1626.09
824.42	1703.91
824.60	1662.95
824.77	1677.29
824.94	1677.29
825.11	1757.16
825.28	1607.66
825.45	1630.18
825.63	1648.61
825.80	1634.28
825.97	1640.42
826.14	1644.52
826.31	1603.56
826.48	1787.88
826.66	1603.56
826.83	1669.09
827.00	1685.48
827.17	1611.75
827.34	1734.63
827.51	1673.19
827.69	1599.46
827.86	1699.81
828.03	1683.43
828.20	1689.57
828.37	1654.76
828.54	1714.15
828.71	1658.85
828.89	1775.59
829.06	1656.81
829.23	1783.78
829.40	1677.29
829.57	1648.61
829.74	1720.29
829.91	1734.63
830.09	1683.43
830.26	1751.01
830.43	1794.02
830.60	1648.61
830.77	1689.57
830.94	1740.77
831.11	1730.53
831.28	1675.24
831.46	1775.59
831.63	1705.96
831.80	1779.68
831.97	1740.77
832.14	1697.77
832.31	1665.00
832.48	1648.61
832.65	1767.40
832.82	1662.95
832.99	1673.19
833.17	1691.62
833.34	1714.15
833.51	1710.05
833.68	1624.04
833.85	1751.01
834.02	1650.66
834.19	1603.56
834.36	1691.62
834.53	1695.72
834.70	1826.79
834.87	1775.59
835.04	1648.61
835.22	1595.37
835.39	1638.38
835.56	1628.14
835.73	1677.29
835.90	1761.25
836.07	1705.96
836.24	1632.23
836.41	1658.85
836.58	1585.13
836.75	1796.07
836.92	1669.09
837.09	1681.38
837.26	1699.81
837.43	1685.48
837.60	1683.43
837.77	1630.18
837.94	1734.63
838.12	1775.59
838.29	1726.44
838.46	1609.70
838.63	1601.51
838.80	1757.16
838.97	1748.97
839.14	1734.63
839.31	1673.19
839.48	1757.16
839.65	1701.86
839.82	1736.68
839.99	1691.62
840.16	1763.30
840.33	1556.46
840.50	1705.96
840.67	1669.09
840.84	1624.04
841.01	1722.34
841.18	1574.89
841.35	1673.19
841.52	1751.01
841.69	1822.69
841.86	1728.49
842.03	1630.18
842.20	1730.53
842.37	1689.57
842.54	1648.61
842.71	1613.80
842.88	1646.57
843.05	1726.44
843.22	1703.91
843.39	1746.92
843.56	1609.70
843.73	1683.43
843.90	1701.86
844.07	1681.38
844.24	1769.44
844.41	1716.20
844.58	1775.59
844.75	1699.81
844.92	1691.62
845.09	1669.09
845.26	1638.38
845.43	1751.01
845.60	1675.24
845.77	1693.67
845.94	1738.73
846.10	1714.15
846.27	1609.70
846.44	1576.94
846.61	1669.09
846.78	1665.00
846.95	1753.06
847.12	1673.19
847.29	1681.38
847.46	1671.14
847.63	1708.01
847.80	1656.81
847.97	1689.57
848.14	1818.60
848.31	1648.61
848.48	1648.61
848.65	1689.57
848.82	1656.81
848.98	1867.75
849.15	1767.40
849.32	1763.30
849.49	1769.44
849.66	1701.86
849.83	1665.00
850.00	1722.34
850.17	1734.63
850.34	1646.57
850.51	1701.86
850.68	1609.70
850.85	1847.27
851.01	1730.53
851.18	1759.21
851.35	1660.90
851.52	1742.82
851.69	1822.69
851.86	1605.61
852.03	1689.57
852.20	1673.19
852.37	1630.18
852.53	1669.09
852.70	1705.96
852.87	1699.81
853.04	1755.11
853.21	1724.39
853.38	1757.16
853.55	1683.43
853.72	1757.16
853.89	1710.05
854.05	1669.09
854.22	1693.67
854.39	1705.96
854.56	1775.59
854.73	1798.12
854.90	1626.09
855.07	1701.86
855.23	1662.95
855.40	1652.71
855.57	1671.14
855.74	1581.03
855.91	1855.46
856.08	1632.23
856.25	1611.75
856.41	1667.05
856.58	1689.57
856.75	1722.34
856.92	1632.23
857.09	1660.90
857.26	1613.80
857.42	1708.01
857.59	1744.87
857.76	1689.57
857.93	1724.39
858.10	1798.12
858.27	1636.33
858.43	1726.44
858.60	1691.62
858.77	1603.56
858.94	1677.29
859.11	1755.11
859.27	1609.70
859.44	1701.86
859.61	1861.60
859.78	1757.16
859.95	1665.00
860.12	1677.29
860.28	1812.45
860.45	1787.88
860.62	1654.76
860.79	1726.44
860.95	1701.86
861.12	1699.81
861.29	1675.24
861.46	1583.08
861.63	1624.04
861.79	1658.85
861.96	1628.14
862.13	1638.38
862.30	1769.44
862.47	1603.56
862.63	1626.09
862.80	1722.34
862.97	1710.05
863.14	1789.92
863.30	1759.21
863.47	1648.61
863.64	1814.50
863.81	1648.61
863.97	1701.86
864.14	1726.44
864.31	1642.47
864.48	1783.78
864.65	1611.75
864.81	1679.33
864.98	1759.21
865.15	1726.44
865.32	1740.77
865.48	1697.77
865.65	1806.31
865.82	1638.38
865.98	1646.57
866.15	1751.01
866.32	1697.77
866.49	1691.62
866.65	1822.69
866.82	1630.18
866.99	1697.77
867.16	1687.53
867.32	1714.15
867.49	1630.18
867.66	1634.28
867.83	1669.09
867.99	1701.86
868.16	1685.48
868.33	1605.61
868.49	1714.15
868.66	1673.19
868.83	1714.15
868.99	1617.90
869.16	1654.76
869.33	1734.63
869.50	1732.58
869.66	1681.38
869.83	1732.58
870.00	1626.09
870.16	1716.20
870.33	1728.49
870.50	1814.50
870.66	1791.97
870.83	1871.84
871.00	1660.90
871.17	1669.09
871.33	1697.77
871.50	1617.90
871.67	1652.71
871.83	1689.57
872.00	1736.68
872.17	1665.00
872.33	1808.36
872.50	1716.20
872.67	1667.05
872.83	1650.66
873.00	1761.25
873.17	1687.53
873.33	1802.21
873.50	1736.68
873.67	1644.52
873.83	1636.33
874.00	1654.76
874.16	1724.39
874.33	1753.06
874.50	1646.57
874.66	1744.87
874.83	1759.21
875.00	1734.63
875.16	1753.06
875.33	1746.92
875.50	1611.75
875.66	1708.01
875.83	1728.49
875.99	1699.81
876.16	1705.96
876.33	1660.90
876.49	1714.15
876.66	1720.29
876.83	1644.52
876.99	1601.51
877.16	1705.96
877.32	1689.57
877.49	1607.66
877.66	1726.44
877.82	1806.31
877.99	1781.73
878.15	1685.48
878.32	1695.72
878.49	1740.77
878.65	1675.24
878.82	1789.92
878.98	1638.38
879.15	1708.01
879.32	1738.73
879.48	1734.63
879.65	1708.01
879.81	1619.94
879.98	1730.53
880.15	1658.85
880.31	1806.31
880.48	1564.65
880.64	1712.10
880.81	1714.15
880.97	1712.10
881.14	1740.77
881.31	1667.05
881.47	1812.45
881.64	1669.09
881.80	1634.28
881.97	1640.42
882.13	1736.68
882.30	1599.46
882.47	1687.53
882.63	1697.77
882.80	1669.09
882.96	1732.58
883.13	1677.29
883.29	1605.61
883.46	1773.54
883.62	1751.01
883.79	1681.38
883.95	1757.16
884.12	1683.43
884.29	1742.82
884.45	1724.39
884.62	1697.77
884.78	1640.42
884.95	1738.73
885.11	1599.46
885.28	1615.85
885.44	1667.05
885.61	1671.14
885.77	1736.68
885.94	1736.68
886.10	1757.16
886.27	1689.57
886.43	1765.35
886.60	1818.60
886.76	1658.85
886.93	1800.16
887.09	1748.97
887.26	1656.81
887.42	1665.00
887.59	1748.97
887.75	1851.36
887.92	1761.25
888.08	1730.53
888.25	1734.63
888.41	1650.66
888.58	1759.21
888.74	1691.62
888.91	1613.80
>>>>>End Processed Spectral Data<<<<<
