SpectraSuite Data File
++++++++++++++++++++++++++++++++++++
Date: Mon Jun 06 17:32:37 CEST 2016
User: root
Dark Spectrum Present: No
Reference Spectrum Present: No
Number of Sampled Component Spectra: 1
Spectrometers: USB4C02835
Integration Time (usec): 100000 (USB4C02835)
Spectra Averaged: 1 (USB4C02835)
Boxcar Smoothing: 0 (USB4C02835)
Correct for Electrical Dark: No (USB4C02835)
Strobe/Lamp Enabled: No (USB4C02835)
Correct for Detector Non-linearity: No (USB4C02835)
Correct for Stray Light: No (USB4C02835)
Number of Pixels in Processed Spectrum: 3648
>>>>>Begin Processed Spectral Data<<<<<
177.47	1437.67
177.69	1437.67
177.91	1437.67
178.13	1476.59
178.36	1478.63
178.58	1624.04
178.80	1746.92
179.02	1593.32
179.24	1644.52
179.46	1761.25
179.68	1757.16
179.90	1687.53
180.13	1675.24
180.35	1662.95
180.57	1777.64
180.79	1830.88
181.01	1671.14
181.23	1828.84
181.45	1763.30
181.67	1656.81
181.90	1695.72
182.12	1681.38
182.34	1638.38
182.56	1798.12
182.78	1724.39
183.00	1671.14
183.22	1708.01
183.44	1626.09
183.66	1787.88
183.89	1798.12
184.11	1798.12
184.33	1714.15
184.55	1814.50
184.77	1652.71
184.99	1804.26
185.21	1705.96
185.43	1800.16
185.65	1683.43
185.87	1722.34
186.10	1789.92
186.32	1841.12
186.54	1654.76
186.76	1798.12
186.98	1718.25
187.20	1658.85
187.42	1669.09
187.64	1724.39
187.86	1781.73
188.08	1845.22
188.30	1677.29
188.52	1697.77
188.75	1746.92
188.97	1818.60
189.19	1677.29
189.41	1730.53
189.63	1734.63
189.85	1669.09
190.07	1591.27
190.29	1560.55
190.51	1720.29
190.73	1648.61
190.95	1791.97
191.17	1714.15
191.39	1617.90
191.61	1716.20
191.84	1757.16
192.06	1775.59
192.28	1605.61
192.50	1859.56
192.72	1710.05
192.94	1656.81
193.16	1701.86
193.38	1802.21
193.60	1646.57
193.82	1732.58
194.04	1785.83
194.26	1722.34
194.48	1671.14
194.70	1607.66
194.92	1632.23
195.14	1753.06
195.36	1648.61
195.58	1722.34
195.80	1736.68
196.02	1677.29
196.24	1779.68
196.46	1732.58
196.69	1662.95
196.91	1826.79
197.13	1724.39
197.35	1701.86
197.57	1740.77
197.79	1734.63
198.01	1769.44
198.23	1689.57
198.45	1746.92
198.67	1705.96
198.89	1660.90
199.11	1648.61
199.33	1658.85
199.55	1587.18
199.77	1734.63
199.99	1798.12
200.21	1759.21
200.43	1730.53
200.65	1681.38
200.87	1613.80
201.09	1603.56
201.31	1724.39
201.53	1730.53
201.75	1771.49
201.97	1742.82
202.19	1714.15
202.41	1726.44
202.63	1964.00
202.85	1808.36
203.07	1783.78
203.29	1742.82
203.51	1644.52
203.73	1681.38
203.95	1865.70
204.17	1646.57
204.39	1763.30
204.61	1644.52
204.83	1628.14
205.05	1742.82
205.27	1742.82
205.49	1914.85
205.71	1724.39
205.93	1697.77
206.15	1724.39
206.37	1761.25
206.59	1734.63
206.81	1656.81
207.03	1652.71
207.25	1748.97
207.47	1763.30
207.69	1720.29
207.91	1814.50
208.13	1796.07
208.34	1734.63
208.56	1626.09
208.78	1710.05
209.00	1763.30
209.22	1683.43
209.44	1748.97
209.66	1701.86
209.88	1697.77
210.10	1722.34
210.32	1697.77
210.54	1828.84
210.76	1734.63
210.98	1730.53
211.20	1576.94
211.42	1728.49
211.64	1789.92
211.86	1679.33
212.08	1742.82
212.30	1685.48
212.52	1671.14
212.74	1746.92
212.96	1783.78
213.17	1755.11
213.39	1826.79
213.61	1777.64
213.83	1714.15
214.05	1658.85
214.27	1732.58
214.49	1638.38
214.71	1693.67
214.93	1796.07
215.15	1701.86
215.37	1779.68
215.59	1671.14
215.81	1828.84
216.03	1742.82
216.24	1732.58
216.46	1722.34
216.68	1656.81
216.90	1716.20
217.12	1771.49
217.34	1679.33
217.56	1724.39
217.78	1865.70
218.00	1728.49
218.22	1695.72
218.44	1738.73
218.66	1722.34
218.87	1808.36
219.09	1650.66
219.31	1796.07
219.53	1716.20
219.75	1763.30
219.97	1783.78
220.19	1714.15
220.41	1685.48
220.63	1798.12
220.85	1744.87
221.06	1689.57
221.28	1816.55
221.50	1718.25
221.72	1730.53
221.94	1742.82
222.16	1730.53
222.38	1779.68
222.60	1767.40
222.82	1740.77
223.03	1820.64
223.25	1689.57
223.47	1804.26
223.69	1808.36
223.91	1783.78
224.13	1746.92
224.35	1687.53
224.57	1806.31
224.78	1765.35
225.00	1658.85
225.22	1693.67
225.44	1665.00
225.66	1683.43
225.88	1732.58
226.10	1687.53
226.32	1773.54
226.53	1740.77
226.75	1697.77
226.97	1687.53
227.19	1689.57
227.41	1781.73
227.63	1744.87
227.85	1595.37
228.06	1814.50
228.28	1660.90
228.50	1693.67
228.72	1673.19
228.94	1675.24
229.16	1548.26
229.37	1648.61
229.59	1736.68
229.81	1748.97
230.03	1658.85
230.25	1624.04
230.47	1652.71
230.69	1630.18
230.90	1722.34
231.12	1652.71
231.34	1703.91
231.56	1804.26
231.78	1599.46
232.00	1777.64
232.21	1660.90
232.43	1746.92
232.65	1619.94
232.87	1705.96
233.09	1763.30
233.30	1683.43
233.52	1734.63
233.74	1697.77
233.96	1744.87
234.18	1714.15
234.40	1648.61
234.61	1847.27
234.83	1634.28
235.05	1605.61
235.27	1796.07
235.49	1787.88
235.70	1759.21
235.92	1849.32
236.14	1673.19
236.36	1832.93
236.58	1650.66
236.79	1736.68
237.01	1791.97
237.23	1736.68
237.45	1824.74
237.67	1697.77
237.88	1755.11
238.10	1869.80
238.32	1617.90
238.54	1726.44
238.76	1695.72
238.97	1701.86
239.19	1697.77
239.41	1652.71
239.63	1734.63
239.85	1761.25
240.06	1693.67
240.28	1685.48
240.50	1828.84
240.72	1734.63
240.93	1722.34
241.15	1806.31
241.37	1798.12
241.59	1777.64
241.81	1689.57
242.02	1738.73
242.24	1740.77
242.46	1726.44
242.68	1701.86
242.89	1777.64
243.11	1720.29
243.33	1697.77
243.55	1697.77
243.76	1759.21
243.98	1667.05
244.20	1671.14
244.42	1804.26
244.64	1814.50
244.85	1660.90
245.07	1705.96
245.29	1753.06
245.51	1769.44
245.72	1714.15
245.94	1765.35
246.16	1763.30
246.38	1806.31
246.59	1701.86
246.81	1783.78
247.03	1769.44
247.24	1619.94
247.46	1755.11
247.68	1648.61
247.90	1730.53
248.11	1759.21
248.33	1769.44
248.55	1705.96
248.77	1773.54
248.98	1773.54
249.20	1863.65
249.42	1665.00
249.64	1777.64
249.85	1691.62
250.07	1601.51
250.29	1720.29
250.50	1796.07
250.72	1638.38
250.94	1748.97
251.16	1847.27
251.37	1773.54
251.59	1705.96
251.81	1789.92
252.02	1767.40
252.24	1689.57
252.46	1812.45
252.68	1699.81
252.89	1648.61
253.11	1556.46
253.33	1871.84
253.54	1820.64
253.76	1722.34
253.98	1675.24
254.20	1714.15
254.41	1611.75
254.63	1728.49
254.85	1708.01
255.06	1701.86
255.28	1804.26
255.50	1722.34
255.71	1650.66
255.93	1634.28
256.15	1665.00
256.36	1732.58
256.58	1681.38
256.80	1761.25
257.02	1695.72
257.23	1710.05
257.45	1714.15
257.67	1822.69
257.88	1638.38
258.10	1753.06
258.32	1705.96
258.53	1712.10
258.75	1814.50
258.97	1685.48
259.18	1675.24
259.40	1714.15
259.62	1869.80
259.83	1748.97
260.05	1730.53
260.27	2013.15
260.48	1714.15
260.70	1701.86
260.92	1753.06
261.13	1830.88
261.35	1691.62
261.57	1730.53
261.78	1599.46
262.00	1617.90
262.22	1656.81
262.43	1748.97
262.65	1763.30
262.86	1820.64
263.08	1810.40
263.30	1730.53
263.51	1603.56
263.73	1687.53
263.95	1816.55
264.16	1748.97
264.38	1640.42
264.60	1734.63
264.81	1744.87
265.03	1779.68
265.25	1812.45
265.46	1775.59
265.68	1759.21
265.89	1816.55
266.11	1630.18
266.33	1705.96
266.54	1746.92
266.76	1740.77
266.98	1804.26
267.19	1738.73
267.41	1843.17
267.62	1701.86
267.84	1652.71
268.06	1814.50
268.27	1703.91
268.49	1804.26
268.70	1837.03
268.92	1716.20
269.14	1673.19
269.35	1617.90
269.57	1720.29
269.79	1689.57
270.00	1748.97
270.22	1775.59
270.43	1673.19
270.65	1589.22
270.87	1691.62
271.08	1746.92
271.30	1777.64
271.51	1705.96
271.73	1691.62
271.95	1714.15
272.16	1748.97
272.38	1734.63
272.59	1722.34
272.81	1730.53
273.02	1722.34
273.24	1796.07
273.46	1806.31
273.67	1652.71
273.89	1636.33
274.10	1591.27
274.32	1832.93
274.54	1683.43
274.75	1720.29
274.97	1730.53
275.18	1789.92
275.40	1738.73
275.61	1693.67
275.83	1755.11
276.05	1656.81
276.26	1671.14
276.48	1738.73
276.69	1691.62
276.91	1695.72
277.12	1806.31
277.34	1824.74
277.55	1802.21
277.77	1787.88
277.99	1685.48
278.20	1675.24
278.42	1679.33
278.63	1599.46
278.85	1642.47
279.06	1662.95
279.28	1751.01
279.49	1740.77
279.71	1802.21
279.93	1654.76
280.14	1703.91
280.36	1732.58
280.57	1761.25
280.79	1806.31
281.00	1675.24
281.22	1695.72
281.43	1787.88
281.65	1658.85
281.86	1669.09
282.08	1705.96
282.29	1828.84
282.51	1636.33
282.73	1654.76
282.94	1648.61
283.16	1671.14
283.37	1740.77
283.59	1738.73
283.80	1712.10
284.02	1753.06
284.23	1673.19
284.45	1734.63
284.66	1624.04
284.88	1675.24
285.09	1724.39
285.31	1699.81
285.52	1665.00
285.74	1597.42
285.95	1728.49
286.17	1634.28
286.38	1771.49
286.60	1644.52
286.81	1738.73
287.03	1681.38
287.24	1753.06
287.46	1712.10
287.67	1738.73
287.89	1773.54
288.10	1755.11
288.32	1765.35
288.53	1816.55
288.75	1759.21
288.96	1800.16
289.18	1652.71
289.39	1689.57
289.61	1787.88
289.82	1822.69
290.04	1822.69
290.25	1660.90
290.47	1634.28
290.68	1683.43
290.90	1744.87
291.11	1646.57
291.33	1818.60
291.54	1673.19
291.76	1656.81
291.97	1777.64
292.18	1730.53
292.40	1724.39
292.61	1736.68
292.83	1843.17
293.04	1765.35
293.26	1724.39
293.47	1710.05
293.69	1695.72
293.90	1648.61
294.12	1722.34
294.33	1767.40
294.55	1705.96
294.76	1783.78
294.97	1789.92
295.19	1722.34
295.40	1710.05
295.62	1665.00
295.83	1820.64
296.05	1628.14
296.26	1777.64
296.48	1689.57
296.69	1724.39
296.90	1724.39
297.12	1779.68
297.33	1722.34
297.55	1763.30
297.76	1730.53
297.98	1785.83
298.19	1751.01
298.41	1697.77
298.62	1785.83
298.83	1869.80
299.05	1742.82
299.26	1638.38
299.48	1679.33
299.69	1789.92
299.90	1714.15
300.12	1691.62
300.33	1703.91
300.55	1708.01
300.76	1699.81
300.98	1683.43
301.19	1757.16
301.40	1665.00
301.62	1710.05
301.83	1730.53
302.05	1675.24
302.26	1716.20
302.47	1652.71
302.69	1718.25
302.90	1730.53
303.12	1607.66
303.33	1812.45
303.54	1810.40
303.76	1685.48
303.97	1738.73
304.19	1796.07
304.40	1652.71
304.61	1730.53
304.83	1869.80
305.04	1730.53
305.26	1755.11
305.47	1685.48
305.68	1718.25
305.90	1667.05
306.11	1767.40
306.33	1689.57
306.54	1691.62
306.75	1673.19
306.97	1624.04
307.18	1734.63
307.39	1650.66
307.61	1742.82
307.82	1685.48
308.04	1820.64
308.25	1665.00
308.46	1746.92
308.68	1708.01
308.89	1794.02
309.10	1791.97
309.32	1730.53
309.53	1722.34
309.74	1763.30
309.96	1746.92
310.17	1730.53
310.39	1699.81
310.60	1751.01
310.81	1753.06
311.03	1656.81
311.24	1769.44
311.45	1740.77
311.67	1796.07
311.88	1724.39
312.09	1673.19
312.31	1691.62
312.52	1685.48
312.73	1695.72
312.95	1660.90
313.16	1675.24
313.37	1804.26
313.59	1763.30
313.80	1789.92
314.01	1732.58
314.23	1683.43
314.44	1695.72
314.65	1605.61
314.87	1718.25
315.08	1714.15
315.29	1689.57
315.51	1597.42
315.72	1658.85
315.93	1767.40
316.15	1730.53
316.36	1632.23
316.57	1720.29
316.79	1748.97
317.00	1730.53
317.21	1734.63
317.43	1695.72
317.64	1677.29
317.85	1693.67
318.07	1695.72
318.28	1785.83
318.49	1861.60
318.70	1863.65
318.92	1742.82
319.13	1812.45
319.34	1748.97
319.56	1812.45
319.77	1763.30
319.98	1751.01
320.20	1802.21
320.41	1779.68
320.62	1699.81
320.83	1691.62
321.05	1920.99
321.26	1738.73
321.47	1689.57
321.69	1757.16
321.90	1689.57
322.11	1744.87
322.32	1759.21
322.54	1853.41
322.75	1689.57
322.96	1832.93
323.18	1726.44
323.39	1689.57
323.60	1658.85
323.81	1716.20
324.03	1689.57
324.24	1722.34
324.45	1677.29
324.66	1755.11
324.88	1761.25
325.09	1796.07
325.30	1771.49
325.52	1720.29
325.73	1775.59
325.94	1677.29
326.15	1642.47
326.37	1732.58
326.58	1771.49
326.79	1851.36
327.00	1638.38
327.22	1810.40
327.43	1716.20
327.64	1626.09
327.85	1744.87
328.07	1773.54
328.28	1810.40
328.49	1742.82
328.70	1693.67
328.92	1748.97
329.13	1665.00
329.34	1726.44
329.55	1775.59
329.76	1834.98
329.98	1728.49
330.19	1771.49
330.40	1779.68
330.61	1685.48
330.83	1744.87
331.04	1613.80
331.25	1746.92
331.46	1683.43
331.68	1619.94
331.89	1787.88
332.10	1779.68
332.31	1665.00
332.52	1734.63
332.74	1824.74
332.95	1599.46
333.16	1718.25
333.37	1791.97
333.58	1728.49
333.80	1777.64
334.01	1652.71
334.22	1695.72
334.43	1697.77
334.64	1648.61
334.86	1695.72
335.07	1624.04
335.28	1769.44
335.49	1638.38
335.70	1728.49
335.92	1816.55
336.13	1863.65
336.34	1683.43
336.55	1701.86
336.76	1746.92
336.98	1611.75
337.19	1619.94
337.40	1851.36
337.61	1851.36
337.82	1685.48
338.04	1757.16
338.25	1669.09
338.46	1720.29
338.67	1693.67
338.88	1701.86
339.09	1738.73
339.31	1701.86
339.52	1599.46
339.73	1669.09
339.94	1753.06
340.15	1886.18
340.36	1679.33
340.58	1724.39
340.79	1740.77
341.00	1841.12
341.21	1699.81
341.42	1773.54
341.63	1658.85
341.85	1746.92
342.06	1718.25
342.27	1685.48
342.48	1789.92
342.69	1720.29
342.90	1763.30
343.12	1730.53
343.33	1681.38
343.54	1791.97
343.75	1781.73
343.96	1759.21
344.17	1671.14
344.38	1710.05
344.60	1677.29
344.81	1683.43
345.02	1763.30
345.23	1763.30
345.44	1832.93
345.65	1650.66
345.86	1740.77
346.07	1671.14
346.29	1683.43
346.50	1746.92
346.71	1783.78
346.92	1789.92
347.13	1888.23
347.34	1734.63
347.55	1779.68
347.76	1771.49
347.98	1693.67
348.19	1632.23
348.40	1834.98
348.61	1658.85
348.82	1828.84
349.03	1775.59
349.24	1658.85
349.45	1814.50
349.66	1564.65
349.88	1732.58
350.09	1718.25
350.30	1804.26
350.51	1773.54
350.72	1771.49
350.93	1720.29
351.14	1716.20
351.35	1783.78
351.56	1714.15
351.77	1748.97
351.99	1742.82
352.20	1794.02
352.41	1773.54
352.62	1648.61
352.83	1665.00
353.04	1660.90
353.25	1673.19
353.46	1738.73
353.67	1791.97
353.88	1609.70
354.09	1701.86
354.30	1665.00
354.52	1640.42
354.73	1687.53
354.94	1716.20
355.15	1718.25
355.36	1726.44
355.57	1652.71
355.78	1783.78
355.99	1695.72
356.20	1763.30
356.41	1802.21
356.62	1736.68
356.83	1724.39
357.04	1830.88
357.25	1693.67
357.46	1710.05
357.68	1669.09
357.89	1683.43
358.10	1714.15
358.31	1716.20
358.52	1691.62
358.73	1650.66
358.94	1662.95
359.15	1671.14
359.36	1771.49
359.57	1710.05
359.78	1712.10
359.99	1804.26
360.20	1642.47
360.41	1693.67
360.62	1695.72
360.83	1736.68
361.04	1722.34
361.25	1748.97
361.46	1779.68
361.67	1712.10
361.88	1685.48
362.09	1689.57
362.30	1775.59
362.51	1685.48
362.72	1746.92
362.93	1761.25
363.14	1740.77
363.35	1740.77
363.56	1697.77
363.78	1818.60
363.99	1775.59
364.20	1679.33
364.41	1730.53
364.62	1796.07
364.83	1757.16
365.04	1742.82
365.25	1675.24
365.46	1837.03
365.67	1644.52
365.88	1642.47
366.09	1677.29
366.30	1665.00
366.51	1695.72
366.72	1613.80
366.93	1681.38
367.14	1769.44
367.35	1804.26
367.56	1640.42
367.77	1761.25
367.98	1712.10
368.18	1771.49
368.39	1763.30
368.60	1656.81
368.81	1744.87
369.02	1753.06
369.23	1695.72
369.44	1714.15
369.65	1697.77
369.86	1769.44
370.07	1857.51
370.28	1671.14
370.49	1808.36
370.70	1812.45
370.91	1624.04
371.12	1636.33
371.33	1826.79
371.54	1796.07
371.75	1794.02
371.96	1599.46
372.17	1683.43
372.38	1740.77
372.59	1789.92
372.80	1689.57
373.01	1660.90
373.22	1748.97
373.43	1714.15
373.64	1718.25
373.85	1787.88
374.06	1796.07
374.26	1773.54
374.47	1740.77
374.68	1769.44
374.89	1736.68
375.10	1757.16
375.31	1798.12
375.52	1800.16
375.73	1726.44
375.94	1667.05
376.15	1755.11
376.36	1648.61
376.57	1587.18
376.78	1728.49
376.99	1636.33
377.20	1828.84
377.40	1679.33
377.61	1775.59
377.82	1662.95
378.03	1798.12
378.24	1714.15
378.45	1748.97
378.66	1742.82
378.87	1646.57
379.08	1710.05
379.29	1673.19
379.50	1736.68
379.71	1716.20
379.91	1763.30
380.12	1757.16
380.33	1742.82
380.54	1728.49
380.75	1654.76
380.96	1667.05
381.17	1744.87
381.38	1775.59
381.59	1796.07
381.80	1722.34
382.00	1843.17
382.21	1738.73
382.42	1841.12
382.63	1916.90
382.84	1769.44
383.05	1769.44
383.26	1785.83
383.47	1724.39
383.68	1796.07
383.88	1734.63
384.09	1691.62
384.30	1798.12
384.51	1716.20
384.72	1714.15
384.93	1619.94
385.14	1744.87
385.35	1798.12
385.55	1673.19
385.76	1767.40
385.97	1761.25
386.18	1632.23
386.39	1689.57
386.60	1753.06
386.81	1695.72
387.02	1716.20
387.22	1703.91
387.43	1828.84
387.64	1806.31
387.85	1837.03
388.06	2131.94
388.27	4216.77
388.48	6703.00
388.68	8228.74
388.89	9615.21
389.10	9832.30
389.31	8562.56
389.52	7520.14
389.73	6735.77
389.93	6145.95
390.14	5765.03
390.35	5189.55
390.56	4544.44
390.77	3831.75
390.98	2973.65
391.18	2637.78
391.39	2099.17
391.60	1884.13
391.81	1810.40
392.02	1683.43
392.23	1855.46
392.43	1691.62
392.64	1861.60
392.85	1677.29
393.06	1851.36
393.27	1693.67
393.47	1730.53
393.68	1673.19
393.89	1708.01
394.10	1771.49
394.31	1703.91
394.52	1650.66
394.72	1665.00
394.93	1841.12
395.14	1599.46
395.35	1783.78
395.56	1687.53
395.76	1701.86
395.97	1771.49
396.18	1877.99
396.39	1853.41
396.60	2060.26
396.80	1900.52
397.01	1869.80
397.22	1910.75
397.43	1894.37
397.64	1787.88
397.84	1853.41
398.05	1906.66
398.26	1820.64
398.47	1736.68
398.67	1755.11
398.88	1783.78
399.09	1757.16
399.30	1656.81
399.51	1736.68
399.71	1718.25
399.92	1746.92
400.13	1847.27
400.34	1685.48
400.54	1687.53
400.75	1906.66
400.96	1738.73
401.17	1787.88
401.37	1714.15
401.58	1736.68
401.79	1755.11
402.00	1892.32
402.21	2013.15
402.41	1935.33
402.62	1943.52
402.83	2072.54
403.04	2029.54
403.24	2084.83
403.45	1892.32
403.66	1968.10
403.87	1943.52
404.07	1884.13
404.28	1857.51
404.49	1871.84
404.70	1810.40
404.90	1738.73
405.11	1789.92
405.32	1648.61
405.52	1605.61
405.73	1691.62
405.94	1673.19
406.15	1742.82
406.35	1740.77
406.56	1771.49
406.77	1720.29
406.98	1761.25
407.18	1673.19
407.39	1804.26
407.60	1728.49
407.80	1781.73
408.01	1722.34
408.22	1734.63
408.43	1683.43
408.63	1730.53
408.84	1746.92
409.05	1789.92
409.25	1681.38
409.46	1665.00
409.67	1685.48
409.88	1716.20
410.08	1722.34
410.29	1708.01
410.50	1779.68
410.70	1791.97
410.91	1718.25
411.12	1763.30
411.32	1708.01
411.53	1708.01
411.74	1794.02
411.95	1832.93
412.15	1816.55
412.36	1779.68
412.57	1783.78
412.77	1771.49
412.98	1763.30
413.19	1742.82
413.39	1746.92
413.60	1830.88
413.81	1894.37
414.01	1708.01
414.22	1794.02
414.43	1804.26
414.63	1697.77
414.84	1785.83
415.05	1714.15
415.25	1646.57
415.46	1746.92
415.67	1734.63
415.87	1771.49
416.08	1716.20
416.29	1718.25
416.49	1734.63
416.70	1763.30
416.91	1763.30
417.11	1658.85
417.32	1802.21
417.53	1761.25
417.73	1689.57
417.94	1718.25
418.15	1794.02
418.35	1689.57
418.56	1730.53
418.77	1847.27
418.97	1785.83
419.18	1708.01
419.38	1570.79
419.59	1658.85
419.80	1798.12
420.00	1794.02
420.21	1763.30
420.42	1746.92
420.62	1650.66
420.83	1736.68
421.04	1705.96
421.24	1703.91
421.45	1705.96
421.65	1701.86
421.86	1804.26
422.07	1812.45
422.27	1812.45
422.48	1767.40
422.69	1697.77
422.89	1773.54
423.10	1689.57
423.30	1691.62
423.51	1728.49
423.72	1675.24
423.92	1798.12
424.13	1701.86
424.33	1773.54
424.54	1812.45
424.75	1726.44
424.95	1865.70
425.16	1742.82
425.36	1699.81
425.57	1736.68
425.78	1740.77
425.98	1787.88
426.19	1710.05
426.39	1708.01
426.60	1755.11
426.81	1837.03
427.01	1708.01
427.22	1673.19
427.42	1656.81
427.63	1685.48
427.83	1796.07
428.04	1845.22
428.25	1841.12
428.45	1771.49
428.66	1753.06
428.86	1716.20
429.07	1769.44
429.28	1779.68
429.48	1656.81
429.69	1662.95
429.89	1818.60
430.10	1691.62
430.30	1718.25
430.51	1814.50
430.71	1769.44
430.92	1716.20
431.13	1708.01
431.33	1722.34
431.54	1726.44
431.74	1783.78
431.95	1798.12
432.15	1691.62
432.36	1669.09
432.56	1804.26
432.77	1798.12
432.98	1824.74
433.18	1761.25
433.39	1738.73
433.59	1652.71
433.80	1832.93
434.00	1816.55
434.21	1703.91
434.41	1804.26
434.62	1826.79
434.82	1714.15
435.03	1642.47
435.23	1716.20
435.44	1658.85
435.64	1757.16
435.85	1669.09
436.06	1775.59
436.26	1818.60
436.47	1710.05
436.67	1718.25
436.88	1753.06
437.08	1816.55
437.29	1859.56
437.49	1755.11
437.70	1777.64
437.90	1738.73
438.11	1753.06
438.31	1761.25
438.52	1820.64
438.72	1871.84
438.93	1867.75
439.13	1730.53
439.34	1826.79
439.54	1730.53
439.75	1810.40
439.95	1781.73
440.16	1742.82
440.36	1744.87
440.57	1701.86
440.77	1761.25
440.98	1777.64
441.18	1777.64
441.39	1708.01
441.59	1705.96
441.80	1837.03
442.00	1720.29
442.21	1841.12
442.41	1697.77
442.62	1845.22
442.82	1658.85
443.02	1730.53
443.23	1751.01
443.43	1677.29
443.64	1847.27
443.84	1701.86
444.05	1816.55
444.25	1806.31
444.46	1722.34
444.66	1753.06
444.87	1820.64
445.07	1570.79
445.28	1732.58
445.48	1738.73
445.69	1734.63
445.89	1853.41
446.09	1841.12
446.30	1988.58
446.50	2654.17
446.71	3669.96
446.91	4425.66
447.12	4712.38
447.32	4720.57
447.53	4384.70
447.73	3835.85
447.93	3510.22
448.14	3231.69
448.34	3229.65
448.55	2926.55
448.75	2758.61
448.96	2629.59
449.16	2424.80
449.36	2267.10
449.57	2103.26
449.77	1939.43
449.98	1800.16
450.18	1882.08
450.39	1828.84
450.59	1789.92
450.79	1757.16
451.00	1722.34
451.20	1785.83
451.41	1742.82
451.61	1746.92
451.81	1740.77
452.02	1703.91
452.22	1710.05
452.43	1718.25
452.63	1712.10
452.84	1800.16
453.04	1757.16
453.24	1796.07
453.45	1667.05
453.65	1775.59
453.86	1753.06
454.06	1740.77
454.26	1685.48
454.47	1710.05
454.67	1865.70
454.87	1746.92
455.08	1806.31
455.28	1847.27
455.49	1796.07
455.69	1681.38
455.89	1816.55
456.10	1794.02
456.30	1677.29
456.51	1697.77
456.71	1767.40
456.91	1783.78
457.12	1843.17
457.32	1738.73
457.52	1650.66
457.73	1736.68
457.93	1771.49
458.14	1781.73
458.34	1626.09
458.54	1789.92
458.75	1730.53
458.95	1834.98
459.15	1781.73
459.36	1804.26
459.56	1736.68
459.76	1902.56
459.97	1740.77
460.17	1710.05
460.37	1834.98
460.58	1802.21
460.78	1832.93
460.99	1736.68
461.19	1691.62
461.39	1755.11
461.60	1662.95
461.80	1714.15
462.00	1705.96
462.21	1744.87
462.41	1720.29
462.61	1673.19
462.82	1603.56
463.02	1820.64
463.22	1705.96
463.43	1849.32
463.63	1728.49
463.83	1839.08
464.04	1757.16
464.24	1765.35
464.44	1701.86
464.64	1687.53
464.85	1796.07
465.05	1779.68
465.25	1853.41
465.46	1730.53
465.66	1785.83
465.86	1787.88
466.07	1699.81
466.27	1722.34
466.47	1652.71
466.68	1632.23
466.88	1937.38
467.08	1828.84
467.29	1818.60
467.49	1794.02
467.69	1669.09
467.89	1794.02
468.10	1662.95
468.30	1714.15
468.50	1820.64
468.71	1693.67
468.91	1644.52
469.11	1791.97
469.31	1740.77
469.52	1693.67
469.72	1841.12
469.92	1923.04
470.13	1734.63
470.33	1734.63
470.53	1763.30
470.73	2146.27
470.94	2203.61
471.14	2271.20
471.34	2650.07
471.54	2488.28
471.75	2193.37
471.95	2099.17
472.15	2103.26
472.36	2099.17
472.56	2099.17
472.76	2070.50
472.96	2015.20
473.17	1906.66
473.37	1914.85
473.57	1767.40
473.77	1802.21
473.98	1783.78
474.18	1710.05
474.38	1931.23
474.58	1650.66
474.79	1720.29
474.99	1824.74
475.19	1714.15
475.39	1691.62
475.60	1812.45
475.80	1769.44
476.00	1681.38
476.20	1751.01
476.41	1789.92
476.61	1734.63
476.81	1746.92
477.01	1671.14
477.21	1945.57
477.42	1873.89
477.62	1656.81
477.82	1724.39
478.02	1687.53
478.23	1812.45
478.43	1693.67
478.63	1675.24
478.83	1732.58
479.03	1685.48
479.24	1808.36
479.44	1845.22
479.64	1679.33
479.84	1673.19
480.04	1648.61
480.25	1869.80
480.45	1658.85
480.65	1671.14
480.85	1814.50
481.06	1736.68
481.26	1660.90
481.46	1714.15
481.66	1740.77
481.86	1718.25
482.06	1767.40
482.27	1755.11
482.47	1644.52
482.67	1761.25
482.87	1693.67
483.07	1761.25
483.28	1677.29
483.48	1763.30
483.68	1712.10
483.88	1755.11
484.08	1675.24
484.29	1669.09
484.49	1705.96
484.69	1667.05
484.89	1765.35
485.09	1853.41
485.29	1724.39
485.50	1708.01
485.70	1681.38
485.90	1818.60
486.10	1695.72
486.30	1753.06
486.50	1783.78
486.71	1705.96
486.91	1785.83
487.11	1761.25
487.31	1697.77
487.51	1765.35
487.71	1693.67
487.91	1697.77
488.12	1712.10
488.32	1675.24
488.52	1730.53
488.72	1615.85
488.92	1763.30
489.12	1775.59
489.32	1818.60
489.53	1753.06
489.73	1626.09
489.93	1837.03
490.13	1730.53
490.33	1656.81
490.53	1796.07
490.73	1777.64
490.94	1701.86
491.14	1751.01
491.34	1910.75
491.54	2052.06
491.74	2605.02
491.94	2830.29
492.14	3104.72
492.34	3018.71
492.54	2818.00
492.75	2533.34
492.95	2490.33
493.15	2359.26
493.35	2303.96
493.55	2230.24
493.75	2093.02
493.95	2050.02
494.15	2076.64
494.35	1941.47
494.56	1855.46
494.76	1755.11
494.96	1820.64
495.16	1798.12
495.36	1722.34
495.56	1740.77
495.76	1765.35
495.96	1701.86
496.16	1585.13
496.36	1824.74
496.56	1738.73
496.77	1769.44
496.97	1683.43
497.17	1837.03
497.37	1683.43
497.57	1783.78
497.77	1761.25
497.97	1665.00
498.17	1738.73
498.37	1718.25
498.57	1732.58
498.77	1742.82
498.97	1789.92
499.17	1824.74
499.38	1718.25
499.58	1755.11
499.78	1796.07
499.98	1785.83
500.18	1755.11
500.38	1703.91
500.58	1964.00
500.78	2525.15
500.98	4472.76
501.18	5879.72
501.38	6780.82
501.58	6858.65
501.78	6639.51
501.98	5545.90
502.18	4968.37
502.38	4511.68
502.58	4071.36
502.78	3796.93
502.98	3676.10
503.18	3524.55
503.38	3164.11
503.59	2791.38
503.79	2731.99
503.99	2443.23
504.19	2330.59
504.39	2228.19
504.59	2191.33
504.79	2207.71
504.99	2099.17
505.19	1886.18
505.39	1845.22
505.59	1982.43
505.79	1888.23
505.99	1849.32
506.19	1781.73
506.39	1822.69
506.59	1773.54
506.79	1773.54
506.99	1886.18
507.19	1744.87
507.39	1812.45
507.59	1658.85
507.79	1695.72
507.99	1685.48
508.19	1718.25
508.39	1695.72
508.59	1710.05
508.79	1820.64
508.99	1814.50
509.19	1738.73
509.39	1775.59
509.59	1662.95
509.79	1681.38
509.99	1781.73
510.19	1763.30
510.39	1734.63
510.59	1773.54
510.79	1673.19
510.99	1667.05
511.19	1728.49
511.39	1880.04
511.59	1771.49
511.79	1828.84
511.99	1751.01
512.19	1884.13
512.38	1796.07
512.58	1685.48
512.78	1783.78
512.98	1779.68
513.18	1798.12
513.38	1738.73
513.58	1804.26
513.78	1726.44
513.98	1748.97
514.18	1814.50
514.38	1699.81
514.58	1759.21
514.78	1703.91
514.98	1669.09
515.18	1767.40
515.38	1738.73
515.58	1826.79
515.78	1736.68
515.98	1751.01
516.18	1753.06
516.38	1769.44
516.57	1671.14
516.77	1740.77
516.97	1806.31
517.17	1742.82
517.37	1705.96
517.57	1759.21
517.77	1701.86
517.97	1714.15
518.17	1789.92
518.37	1675.24
518.57	1730.53
518.77	1759.21
518.97	1730.53
519.16	1720.29
519.36	1832.93
519.56	1742.82
519.76	1757.16
519.96	1757.16
520.16	1773.54
520.36	1800.16
520.56	1818.60
520.76	1667.05
520.96	1744.87
521.16	1810.40
521.35	1834.98
521.55	1929.19
521.75	1734.63
521.95	1718.25
522.15	1726.44
522.35	1656.81
522.55	1699.81
522.75	1791.97
522.95	1685.48
523.14	1705.96
523.34	1771.49
523.54	1804.26
523.74	1826.79
523.94	1808.36
524.14	1728.49
524.34	1695.72
524.54	1808.36
524.73	1746.92
524.93	1800.16
525.13	1720.29
525.33	1654.76
525.53	1875.94
525.73	1783.78
525.93	1804.26
526.13	1705.96
526.32	1734.63
526.52	1757.16
526.72	1798.12
526.92	1751.01
527.12	1710.05
527.32	1660.90
527.52	1712.10
527.71	1759.21
527.91	1687.53
528.11	1703.91
528.31	1763.30
528.51	1693.67
528.71	1746.92
528.90	1761.25
529.10	1812.45
529.30	1837.03
529.50	1677.29
529.70	1759.21
529.90	1724.39
530.09	1751.01
530.29	1662.95
530.49	1677.29
530.69	1865.70
530.89	1765.35
531.09	1748.97
531.28	1726.44
531.48	1859.56
531.68	1759.21
531.88	1748.97
532.08	1767.40
532.28	1681.38
532.47	1779.68
532.67	1812.45
532.87	1794.02
533.07	1718.25
533.27	1796.07
533.46	1724.39
533.66	1775.59
533.86	1687.53
534.06	1718.25
534.26	1665.00
534.45	1708.01
534.65	1732.58
534.85	1734.63
535.05	1771.49
535.25	1767.40
535.44	1669.09
535.64	1691.62
535.84	1744.87
536.04	1777.64
536.24	1753.06
536.43	1775.59
536.63	1710.05
536.83	1730.53
537.03	1791.97
537.22	1685.48
537.42	1583.08
537.62	1781.73
537.82	1753.06
538.02	1765.35
538.21	1845.22
538.41	1980.39
538.61	1732.58
538.81	1787.88
539.00	1775.59
539.20	1681.38
539.40	1787.88
539.60	1753.06
539.79	1804.26
539.99	1712.10
540.19	1746.92
540.39	1701.86
540.58	1783.78
540.78	1787.88
540.98	1732.58
541.18	1730.53
541.37	1769.44
541.57	1699.81
541.77	1708.01
541.97	1771.49
542.16	1638.38
542.36	1628.14
542.56	1783.78
542.76	1826.79
542.95	1781.73
543.15	1734.63
543.35	1824.74
543.54	1730.53
543.74	1673.19
543.94	1804.26
544.14	1714.15
544.33	1781.73
544.53	1783.78
544.73	1781.73
544.93	1685.48
545.12	1730.53
545.32	1746.92
545.52	1755.11
545.71	1716.20
545.91	1712.10
546.11	1708.01
546.30	1771.49
546.50	1751.01
546.70	1791.97
546.90	1802.21
547.09	1699.81
547.29	1765.35
547.49	1796.07
547.68	1781.73
547.88	1677.29
548.08	1824.74
548.27	2260.96
548.47	1722.34
548.67	1736.68
548.87	1771.49
549.06	1732.58
549.26	1730.53
549.46	1748.97
549.65	1753.06
549.85	1779.68
550.05	1855.46
550.24	1755.11
550.44	1787.88
550.64	1738.73
550.83	1785.83
551.03	1834.98
551.23	1783.78
551.42	1796.07
551.62	1789.92
551.82	1761.25
552.01	1712.10
552.21	1800.16
552.41	1746.92
552.60	1820.64
552.80	1761.25
553.00	1761.25
553.19	1738.73
553.39	1832.93
553.59	1585.13
553.78	1781.73
553.98	1798.12
554.17	1687.53
554.37	1826.79
554.57	1800.16
554.76	1677.29
554.96	1726.44
555.16	1759.21
555.35	1765.35
555.55	1794.02
555.75	1773.54
555.94	1765.35
556.14	1695.72
556.33	1820.64
556.53	1769.44
556.73	1734.63
556.92	1890.28
557.12	1781.73
557.32	1783.78
557.51	1861.60
557.71	1787.88
557.90	1812.45
558.10	1808.36
558.30	1742.82
558.49	1804.26
558.69	1701.86
558.88	1734.63
559.08	1779.68
559.28	1789.92
559.47	1712.10
559.67	1841.12
559.86	1820.64
560.06	1808.36
560.26	1742.82
560.45	1804.26
560.65	1689.57
560.84	1839.08
561.04	1675.24
561.24	1789.92
561.43	1705.96
561.63	1894.37
561.82	1759.21
562.02	1744.87
562.22	1689.57
562.41	1665.00
562.61	1689.57
562.80	1718.25
563.00	1853.41
563.19	1781.73
563.39	1802.21
563.59	1800.16
563.78	1736.68
563.98	1652.71
564.17	1648.61
564.37	1685.48
564.56	1726.44
564.76	1751.01
564.96	1839.08
565.15	1708.01
565.35	1886.18
565.54	1699.81
565.74	1865.70
565.93	1779.68
566.13	1753.06
566.32	1828.84
566.52	1722.34
566.71	1861.60
566.91	1777.64
567.11	1726.44
567.30	1658.85
567.50	1796.07
567.69	1779.68
567.89	1775.59
568.08	1759.21
568.28	1728.49
568.47	1722.34
568.67	1796.07
568.86	1736.68
569.06	1796.07
569.25	1734.63
569.45	1734.63
569.64	1751.01
569.84	1695.72
570.04	1710.05
570.23	1689.57
570.43	1773.54
570.62	1800.16
570.82	1804.26
571.01	1677.29
571.21	1730.53
571.40	1691.62
571.60	1818.60
571.79	1748.97
571.99	1804.26
572.18	1755.11
572.38	1779.68
572.57	1722.34
572.77	1761.25
572.96	1961.95
573.16	1783.78
573.35	1730.53
573.55	1800.16
573.74	1843.17
573.94	1773.54
574.13	1679.33
574.33	1822.69
574.52	1779.68
574.71	1695.72
574.91	1802.21
575.10	1708.01
575.30	1789.92
575.49	1722.34
575.69	1685.48
575.88	1806.31
576.08	1748.97
576.27	1794.02
576.47	1703.91
576.66	1849.32
576.86	1853.41
577.05	1771.49
577.25	1755.11
577.44	1923.04
577.64	1658.85
577.83	1800.16
578.02	1738.73
578.22	1937.38
578.41	1873.89
578.61	1798.12
578.80	1755.11
579.00	1839.08
579.19	1779.68
579.39	1783.78
579.58	1841.12
579.77	1769.44
579.97	1859.56
580.16	1880.04
580.36	1808.36
580.55	1783.78
580.75	1753.06
580.94	1843.17
581.13	1806.31
581.33	1802.21
581.52	1753.06
581.72	1830.88
581.91	1851.36
582.11	1691.62
582.30	1810.40
582.49	1757.16
582.69	1890.28
582.88	1765.35
583.08	1882.08
583.27	1808.36
583.47	1759.21
583.66	1763.30
583.85	1691.62
584.05	1798.12
584.24	1818.60
584.44	1822.69
584.63	1732.58
584.82	1841.12
585.02	1843.17
585.21	1890.28
585.41	1748.97
585.60	1806.31
585.79	1982.43
585.99	1959.91
586.18	1902.56
586.37	2265.05
586.57	3340.24
586.76	9949.03
586.96	24211.09
587.15	33940.99
587.34	39968.16
587.54	41790.85
587.73	36199.90
587.93	26005.11
588.12	21219.00
588.31	18032.36
588.51	16178.95
588.70	14708.51
588.89	13788.97
589.09	12449.60
589.28	11108.18
589.47	9338.74
589.67	7837.58
589.86	6221.73
590.06	4829.11
590.25	3895.24
590.44	3078.10
590.64	2594.78
590.83	2230.24
591.02	2152.42
591.22	2041.82
591.41	1902.56
591.60	1857.51
591.80	1957.86
591.99	1753.06
592.18	1738.73
592.38	1785.83
592.57	1677.29
592.76	1783.78
592.96	1814.50
593.15	1843.17
593.34	1894.37
593.54	1738.73
593.73	1767.40
593.92	1771.49
594.12	1765.35
594.31	1736.68
594.50	1855.46
594.70	1783.78
594.89	1908.71
595.08	1703.91
595.28	1812.45
595.47	1978.34
595.66	1808.36
595.86	1687.53
596.05	1775.59
596.24	1755.11
596.43	1789.92
596.63	1837.03
596.82	1789.92
597.01	1851.36
597.21	1794.02
597.40	1736.68
597.59	1859.56
597.79	1722.34
597.98	1798.12
598.17	1742.82
598.36	1775.59
598.56	1802.21
598.75	1724.39
598.94	1761.25
599.14	1802.21
599.33	1740.77
599.52	1845.22
599.71	1810.40
599.91	1798.12
600.10	1783.78
600.29	1771.49
600.48	1740.77
600.68	1775.59
600.87	1806.31
601.06	1759.21
601.26	1826.79
601.45	1771.49
601.64	1789.92
601.83	1820.64
602.03	1773.54
602.22	1755.11
602.41	1859.56
602.60	1910.75
602.80	1781.73
602.99	1781.73
603.18	1759.21
603.37	1697.77
603.57	1779.68
603.76	1822.69
603.95	1841.12
604.14	1746.92
604.34	1681.38
604.53	1755.11
604.72	1763.30
604.91	1822.69
605.10	1787.88
605.30	1640.42
605.49	1832.93
605.68	1853.41
605.87	1796.07
606.07	1718.25
606.26	1757.16
606.45	1712.10
606.64	1746.92
606.84	1730.53
607.03	1798.12
607.22	1783.78
607.41	1734.63
607.60	1648.61
607.80	1828.84
607.99	1771.49
608.18	1726.44
608.37	1710.05
608.56	1669.09
608.76	1779.68
608.95	1798.12
609.14	1748.97
609.33	1783.78
609.52	1800.16
609.72	1755.11
609.91	1789.92
610.10	1775.59
610.29	1845.22
610.48	1826.79
610.68	1751.01
610.87	1677.29
611.06	1755.11
611.25	1802.21
611.44	1877.99
611.63	1673.19
611.83	1828.84
612.02	1697.77
612.21	1826.79
612.40	1658.85
612.59	1691.62
612.79	1703.91
612.98	1710.05
613.17	1744.87
613.36	1748.97
613.55	1834.98
613.74	1669.09
613.93	1714.15
614.13	1677.29
614.32	1726.44
614.51	1785.83
614.70	1726.44
614.89	1679.33
615.08	1755.11
615.28	2133.98
615.47	1740.77
615.66	1785.83
615.85	1718.25
616.04	1888.23
616.23	1742.82
616.42	1767.40
616.62	1808.36
616.81	1720.29
617.00	1824.74
617.19	1806.31
617.38	1718.25
617.57	1796.07
617.76	1806.31
617.95	1767.40
618.15	1769.44
618.34	1757.16
618.53	1603.56
618.72	1828.84
618.91	1898.47
619.10	1814.50
619.29	1699.81
619.48	1746.92
619.68	1648.61
619.87	1701.86
620.06	1787.88
620.25	1806.31
620.44	1708.01
620.63	1728.49
620.82	1732.58
621.01	1775.59
621.20	1767.40
621.39	1826.79
621.59	1773.54
621.78	1744.87
621.97	1791.97
622.16	1755.11
622.35	1746.92
622.54	1742.82
622.73	1769.44
622.92	1617.90
623.11	1847.27
623.30	1798.12
623.49	1798.12
623.68	1648.61
623.88	1796.07
624.07	1710.05
624.26	1652.71
624.45	1712.10
624.64	1697.77
624.83	1730.53
625.02	1665.00
625.21	1761.25
625.40	1785.83
625.59	1757.16
625.78	1755.11
625.97	1800.16
626.16	1824.74
626.35	1748.97
626.54	1710.05
626.74	1724.39
626.93	1730.53
627.12	1683.43
627.31	1867.75
627.50	1853.41
627.69	1783.78
627.88	1689.57
628.07	1714.15
628.26	1646.57
628.45	1638.38
628.64	1708.01
628.83	1755.11
629.02	1714.15
629.21	1804.26
629.40	1744.87
629.59	1658.85
629.78	1695.72
629.97	1712.10
630.16	1753.06
630.35	1781.73
630.54	1759.21
630.73	1734.63
630.92	1720.29
631.11	1718.25
631.30	1746.92
631.49	1834.98
631.68	1775.59
631.87	1720.29
632.06	1601.51
632.25	1828.84
632.44	1736.68
632.63	1767.40
632.82	1693.67
633.01	1671.14
633.20	1763.30
633.39	1687.53
633.58	1636.33
633.77	1755.11
633.96	1736.68
634.15	1771.49
634.34	1699.81
634.53	1779.68
634.72	1699.81
634.91	1703.91
635.10	1812.45
635.29	1714.15
635.48	1697.77
635.67	1683.43
635.86	1691.62
636.05	1798.12
636.24	1791.97
636.43	1785.83
636.62	1652.71
636.81	1716.20
637.00	1718.25
637.19	1789.92
637.38	1740.77
637.57	1648.61
637.76	1732.58
637.95	1730.53
638.14	1687.53
638.33	1699.81
638.52	1755.11
638.71	1673.19
638.89	1722.34
639.08	1834.98
639.27	1763.30
639.46	1767.40
639.65	1800.16
639.84	1757.16
640.03	1828.84
640.22	1683.43
640.41	1828.84
640.60	1656.81
640.79	1722.34
640.98	1617.90
641.17	1722.34
641.36	1738.73
641.55	1751.01
641.74	1636.33
641.92	1708.01
642.11	1697.77
642.30	1726.44
642.49	1722.34
642.68	1726.44
642.87	1714.15
643.06	1798.12
643.25	1640.42
643.44	1681.38
643.63	1736.68
643.82	1779.68
644.00	1736.68
644.19	1751.01
644.38	1689.57
644.57	1789.92
644.76	1765.35
644.95	1689.57
645.14	1714.15
645.33	1726.44
645.52	1714.15
645.71	1667.05
645.89	1652.71
646.08	1765.35
646.27	1646.57
646.46	1873.89
646.65	1667.05
646.84	1689.57
647.03	1722.34
647.22	1787.88
647.40	1804.26
647.59	1681.38
647.78	1593.32
647.97	1712.10
648.16	1685.48
648.35	1812.45
648.54	1738.73
648.73	1742.82
648.91	1845.22
649.10	1732.58
649.29	1705.96
649.48	1744.87
649.67	1652.71
649.86	1755.11
650.05	1685.48
650.23	1859.56
650.42	1675.24
650.61	1736.68
650.80	1789.92
650.99	1828.84
651.18	1775.59
651.36	1720.29
651.55	1763.30
651.74	1773.54
651.93	1771.49
652.12	1765.35
652.31	1736.68
652.49	1681.38
652.68	1691.62
652.87	1822.69
653.06	1755.11
653.25	1882.08
653.44	1734.63
653.62	1832.93
653.81	1724.39
654.00	1763.30
654.19	1781.73
654.38	1880.04
654.56	1720.29
654.75	1718.25
654.94	1779.68
655.13	1681.38
655.32	1804.26
655.51	1843.17
655.69	1720.29
655.88	1888.23
656.07	1628.14
656.26	1787.88
656.45	1603.56
656.63	1763.30
656.82	1787.88
657.01	1712.10
657.20	1667.05
657.38	1814.50
657.57	1689.57
657.76	1677.29
657.95	1740.77
658.14	1650.66
658.32	1718.25
658.51	1726.44
658.70	1761.25
658.89	1755.11
659.08	1785.83
659.26	1765.35
659.45	1708.01
659.64	1746.92
659.83	1687.53
660.01	1908.71
660.20	1703.91
660.39	1834.98
660.58	1617.90
660.76	1751.01
660.95	1665.00
661.14	1714.15
661.33	1607.66
661.51	1665.00
661.70	1699.81
661.89	1767.40
662.08	1685.48
662.26	1675.24
662.45	1640.42
662.64	1841.12
662.83	1744.87
663.01	1673.19
663.20	1679.33
663.39	1859.56
663.58	1695.72
663.76	1779.68
663.95	1748.97
664.14	1689.57
664.32	1746.92
664.51	1716.20
664.70	1697.77
664.89	1726.44
665.07	1632.23
665.26	1773.54
665.45	1685.48
665.64	1742.82
665.82	1660.90
666.01	1744.87
666.20	1705.96
666.38	1789.92
666.57	1857.51
666.76	2174.94
666.95	4616.12
667.13	10504.03
667.32	15359.77
667.51	17911.53
667.69	19101.40
667.88	17905.39
668.07	12285.76
668.25	9521.01
668.44	8136.58
668.63	7350.16
668.81	6719.39
669.00	6246.30
669.19	5765.03
669.38	5076.91
669.56	4491.20
669.75	3993.54
669.94	3446.73
670.12	2895.83
670.31	2566.10
670.50	2346.97
670.68	2115.55
670.87	1923.04
671.06	1832.93
671.24	1791.97
671.43	1863.65
671.62	1767.40
671.80	1775.59
671.99	1718.25
672.18	1708.01
672.36	1796.07
672.55	1712.10
672.74	1724.39
672.92	1685.48
673.11	1771.49
673.29	1595.37
673.48	1798.12
673.67	1703.91
673.85	1767.40
674.04	1703.91
674.23	1757.16
674.41	1775.59
674.60	1636.33
674.79	1624.04
674.97	1609.70
675.16	1796.07
675.34	1783.78
675.53	1673.19
675.72	1851.36
675.90	1857.51
676.09	1705.96
676.28	1712.10
676.46	1613.80
676.65	1791.97
676.83	1652.71
677.02	1757.16
677.21	1724.39
677.39	1699.81
677.58	1691.62
677.77	1730.53
677.95	1734.63
678.14	1736.68
678.32	1646.57
678.51	1703.91
678.70	1849.32
678.88	1742.82
679.07	1822.69
679.25	1689.57
679.44	1726.44
679.63	1615.85
679.81	1718.25
680.00	1845.22
680.18	1767.40
680.37	1777.64
680.55	1728.49
680.74	1632.23
680.93	1595.37
681.11	1867.75
681.30	1667.05
681.48	1718.25
681.67	1714.15
681.85	1689.57
682.04	1714.15
682.23	1767.40
682.41	1730.53
682.60	1716.20
682.78	1697.77
682.97	1665.00
683.15	1789.92
683.34	1705.96
683.53	1824.74
683.71	1650.66
683.90	1798.12
684.08	1822.69
684.27	1716.20
684.45	1751.01
684.64	1890.28
684.82	1697.77
685.01	1763.30
685.19	1759.21
685.38	1857.51
685.57	1705.96
685.75	1628.14
685.94	1736.68
686.12	1693.67
686.31	1718.25
686.49	1818.60
686.68	1648.61
686.86	1710.05
687.05	1757.16
687.23	1884.13
687.42	1775.59
687.60	1665.00
687.79	1804.26
687.97	1800.16
688.16	1777.64
688.34	1861.60
688.53	1611.75
688.71	1767.40
688.90	1826.79
689.08	1757.16
689.27	1617.90
689.45	1771.49
689.64	1738.73
689.82	1671.14
690.01	1834.98
690.19	1710.05
690.38	1742.82
690.56	1832.93
690.75	1701.86
690.93	1683.43
691.12	1669.09
691.30	1742.82
691.49	1779.68
691.67	1796.07
691.86	1783.78
692.04	1697.77
692.23	1738.73
692.41	1697.77
692.60	1912.80
692.78	1841.12
692.97	1689.57
693.15	1779.68
693.34	1820.64
693.52	1810.40
693.71	1658.85
693.89	1621.99
694.08	1654.76
694.26	1765.35
694.44	1777.64
694.63	1763.30
694.81	1683.43
695.00	1705.96
695.18	1824.74
695.37	1791.97
695.55	1779.68
695.74	1771.49
695.92	1640.42
696.10	1812.45
696.29	1691.62
696.47	1646.57
696.66	1724.39
696.84	1699.81
697.03	1697.77
697.21	1845.22
697.40	2326.49
697.58	1779.68
697.76	1689.57
697.95	1773.54
698.13	1689.57
698.32	1728.49
698.50	1746.92
698.68	1689.57
698.87	1714.15
699.05	1839.08
699.24	1761.25
699.42	1607.66
699.61	1642.47
699.79	1763.30
699.97	1722.34
700.16	1712.10
700.34	1708.01
700.53	1789.92
700.71	1837.03
700.89	1740.77
701.08	1660.90
701.26	1775.59
701.45	2166.75
701.63	1685.48
701.81	1701.86
702.00	1691.62
702.18	1675.24
702.37	1632.23
702.55	1730.53
702.73	1751.01
702.92	1611.75
703.10	1802.21
703.28	1804.26
703.47	1576.94
703.65	1746.92
703.84	1834.98
704.02	1654.76
704.20	1816.55
704.39	1710.05
704.57	1708.01
704.75	1775.59
704.94	1804.26
705.12	1705.96
705.30	1804.26
705.49	2246.62
705.67	4513.72
705.86	9449.33
706.04	12545.86
706.22	14386.98
706.41	15304.47
706.59	13690.67
706.77	9480.05
706.96	7401.36
707.14	6508.44
707.32	5846.95
707.51	5486.51
707.69	4917.17
707.87	4186.05
708.06	3471.31
708.24	2918.36
708.42	2445.27
708.61	2318.30
708.79	1914.85
708.97	1789.92
709.16	1834.98
709.34	1742.82
709.52	1779.68
709.71	1650.66
709.89	1779.68
710.07	1712.10
710.26	1742.82
710.44	1753.06
710.62	1812.45
710.80	1708.01
710.99	1800.16
711.17	1789.92
711.35	1685.48
711.54	1671.14
711.72	1761.25
711.90	1746.92
712.09	1773.54
712.27	1746.92
712.45	1710.05
712.63	1699.81
712.82	1718.25
713.00	1701.86
713.18	1771.49
713.37	1837.03
713.55	1775.59
713.73	1812.45
713.91	1791.97
714.10	1718.25
714.28	1732.58
714.46	1740.77
714.65	1742.82
714.83	1736.68
715.01	1689.57
715.19	1626.09
715.38	1648.61
715.56	1755.11
715.74	1765.35
715.92	1689.57
716.11	1791.97
716.29	1617.90
716.47	1769.44
716.65	1734.63
716.84	1576.94
717.02	1775.59
717.20	1589.22
717.38	1705.96
717.57	1693.67
717.75	1697.77
717.93	1708.01
718.11	1742.82
718.30	1701.86
718.48	1660.90
718.66	1716.20
718.84	1804.26
719.03	1683.43
719.21	1615.85
719.39	1787.88
719.57	1759.21
719.75	1755.11
719.94	1730.53
720.12	1714.15
720.30	1705.96
720.48	1785.83
720.67	1673.19
720.85	1603.56
721.03	1716.20
721.21	1648.61
721.39	1781.73
721.58	1753.06
721.76	1796.07
721.94	1855.46
722.12	1728.49
722.30	1796.07
722.49	1667.05
722.67	1730.53
722.85	1687.53
723.03	1650.66
723.21	1740.77
723.40	1736.68
723.58	1734.63
723.76	1800.16
723.94	1798.12
724.12	1763.30
724.30	1748.97
724.49	1746.92
724.67	1673.19
724.85	1730.53
725.03	1583.08
725.21	1703.91
725.40	1783.78
725.58	1632.23
725.76	1785.83
725.94	1757.16
726.12	1654.76
726.30	1718.25
726.49	1732.58
726.67	1710.05
726.85	1679.33
727.03	1757.16
727.21	2191.33
727.39	2965.46
727.57	3794.89
727.76	4157.38
727.94	4405.18
728.12	4274.11
728.30	3618.76
728.48	2975.70
728.66	2607.06
728.84	2652.12
729.03	2318.30
729.21	2187.23
729.39	2066.40
729.57	1855.46
729.75	1789.92
729.93	1796.07
730.11	1738.73
730.30	1726.44
730.48	1748.97
730.66	1845.22
730.84	1783.78
731.02	1746.92
731.20	1683.43
731.38	1753.06
731.56	1603.56
731.74	1712.10
731.93	1767.40
732.11	1804.26
732.29	1779.68
732.47	1720.29
732.65	1718.25
732.83	1746.92
733.01	1822.69
733.19	1636.33
733.37	1726.44
733.56	1675.24
733.74	1718.25
733.92	1777.64
734.10	1685.48
734.28	1765.35
734.46	1662.95
734.64	1722.34
734.82	1755.11
735.00	1722.34
735.18	1748.97
735.36	1689.57
735.54	1677.29
735.73	1751.01
735.91	1767.40
736.09	1820.64
736.27	1724.39
736.45	1730.53
736.63	1587.18
736.81	1755.11
736.99	1765.35
737.17	1765.35
737.35	1683.43
737.53	1662.95
737.71	1658.85
737.89	1824.74
738.07	1697.77
738.25	1636.33
738.43	1607.66
738.61	1679.33
738.80	1699.81
738.98	1658.85
739.16	1693.67
739.34	1605.61
739.52	1753.06
739.70	1697.77
739.88	1800.16
740.06	1841.12
740.24	1576.94
740.42	1796.07
740.60	1550.31
740.78	1613.80
740.96	1624.04
741.14	1710.05
741.32	1771.49
741.50	1710.05
741.68	1882.08
741.86	1802.21
742.04	1644.52
742.22	1609.70
742.40	1658.85
742.58	1757.16
742.76	1697.77
742.94	1734.63
743.12	1658.85
743.30	1691.62
743.48	1671.14
743.66	1710.05
743.84	1697.77
744.02	1621.99
744.20	1746.92
744.38	1681.38
744.56	1693.67
744.74	1882.08
744.92	1746.92
745.10	1834.98
745.28	1800.16
745.46	1775.59
745.64	1628.14
745.82	1783.78
746.00	1693.67
746.18	1808.36
746.36	1679.33
746.54	1701.86
746.72	1751.01
746.90	1699.81
747.08	1751.01
747.26	1734.63
747.44	1740.77
747.62	1722.34
747.80	1738.73
747.98	1798.12
748.15	1730.53
748.33	1845.22
748.51	1724.39
748.69	1726.44
748.87	1675.24
749.05	1732.58
749.23	1646.57
749.41	1808.36
749.59	1669.09
749.77	1824.74
749.95	1701.86
750.13	1708.01
750.31	1697.77
750.49	1734.63
750.67	1804.26
750.85	1841.12
751.03	1775.59
751.20	1880.04
751.38	1712.10
751.56	1738.73
751.74	1724.39
751.92	1695.72
752.10	1656.81
752.28	1812.45
752.46	1683.43
752.64	1720.29
752.82	1724.39
753.00	1789.92
753.18	1703.91
753.35	1720.29
753.53	1662.95
753.71	1746.92
753.89	1765.35
754.07	1771.49
754.25	1800.16
754.43	1720.29
754.61	1652.71
754.79	1812.45
754.97	1712.10
755.14	1777.64
755.32	1673.19
755.50	1695.72
755.68	1757.16
755.86	1671.14
756.04	1718.25
756.22	1632.23
756.40	1720.29
756.57	1796.07
756.75	1714.15
756.93	1781.73
757.11	1783.78
757.29	1683.43
757.47	1658.85
757.65	1644.52
757.82	1638.38
758.00	1648.61
758.18	1687.53
758.36	1738.73
758.54	1820.64
758.72	1675.24
758.90	1802.21
759.07	1767.40
759.25	1753.06
759.43	1789.92
759.61	1695.72
759.79	2328.54
759.97	1767.40
760.15	1621.99
760.32	1712.10
760.50	1740.77
760.68	1785.83
760.86	1652.71
761.04	1763.30
761.22	1796.07
761.39	1734.63
761.57	1730.53
761.75	1662.95
761.93	1755.11
762.11	1738.73
762.28	1736.68
762.46	1597.42
762.64	1796.07
762.82	1685.48
763.00	1720.29
763.18	1808.36
763.35	1648.61
763.53	1755.11
763.71	1718.25
763.89	1755.11
764.07	1759.21
764.24	1703.91
764.42	1720.29
764.60	1771.49
764.78	1746.92
764.96	1828.84
765.13	1736.68
765.31	1675.24
765.49	1685.48
765.67	1701.86
765.84	1705.96
766.02	1589.22
766.20	1574.89
766.38	1796.07
766.56	1810.40
766.73	1808.36
766.91	1701.86
767.09	1748.97
767.27	1697.77
767.44	1705.96
767.62	1800.16
767.80	1699.81
767.98	1665.00
768.15	1697.77
768.33	1710.05
768.51	1767.40
768.69	1789.92
768.87	1775.59
769.04	1716.20
769.22	1920.99
769.40	1841.12
769.58	1824.74
769.75	1679.33
769.93	1728.49
770.11	1656.81
770.28	1693.67
770.46	1818.60
770.64	1751.01
770.82	1689.57
770.99	1691.62
771.17	1773.54
771.35	1693.67
771.53	1812.45
771.70	1703.91
771.88	1675.24
772.06	1722.34
772.23	1712.10
772.41	1740.77
772.59	1693.67
772.77	1609.70
772.94	1732.58
773.12	1751.01
773.30	1708.01
773.47	1787.88
773.65	1640.42
773.83	1742.82
774.01	1705.96
774.18	1675.24
774.36	1689.57
774.54	1773.54
774.71	1714.15
774.89	1601.51
775.07	1626.09
775.24	1689.57
775.42	1691.62
775.60	1808.36
775.78	1763.30
775.95	1705.96
776.13	1556.46
776.31	1558.50
776.48	1755.11
776.66	1826.79
776.84	1669.09
777.01	1800.16
777.19	1576.94
777.37	1671.14
777.54	1708.01
777.72	1806.31
777.90	1705.96
778.07	1669.09
778.25	1890.28
778.43	1791.97
778.60	1689.57
778.78	1726.44
778.96	1734.63
779.13	1656.81
779.31	1781.73
779.49	1673.19
779.66	1685.48
779.84	1736.68
780.01	1695.72
780.19	1638.38
780.37	1804.26
780.54	1718.25
780.72	1662.95
780.90	1726.44
781.07	1730.53
781.25	1691.62
781.43	1779.68
781.60	1779.68
781.78	1767.40
781.95	1746.92
782.13	1658.85
782.31	1783.78
782.48	1667.05
782.66	1732.58
782.83	1810.40
783.01	1695.72
783.19	1761.25
783.36	1734.63
783.54	1718.25
783.72	1791.97
783.89	1693.67
784.07	1818.60
784.24	1744.87
784.42	1812.45
784.60	1708.01
784.77	1732.58
784.95	1605.61
785.12	1691.62
785.30	1753.06
785.47	1615.85
785.65	1718.25
785.83	1730.53
786.00	1689.57
786.18	1738.73
786.35	1615.85
786.53	1728.49
786.71	1722.34
786.88	1767.40
787.06	1667.05
787.23	1732.58
787.41	1751.01
787.58	1675.24
787.76	1699.81
787.94	1728.49
788.11	1837.03
788.29	1667.05
788.46	1701.86
788.64	1648.61
788.81	1712.10
788.99	1636.33
789.16	1701.86
789.34	1742.82
789.52	1722.34
789.69	1708.01
789.87	1730.53
790.04	1636.33
790.22	1689.57
790.39	1834.98
790.57	1638.38
790.74	1701.86
790.92	1744.87
791.09	1615.85
791.27	1738.73
791.44	1753.06
791.62	1703.91
791.79	1738.73
791.97	1730.53
792.15	1849.32
792.32	1742.82
792.50	1767.40
792.67	1746.92
792.85	1814.50
793.02	1681.38
793.20	1691.62
793.37	1714.15
793.55	1685.48
793.72	1675.24
793.90	1773.54
794.07	1697.77
794.25	1626.09
794.42	1708.01
794.60	1681.38
794.77	1751.01
794.95	1658.85
795.12	1859.56
795.30	1646.57
795.47	1611.75
795.65	1900.52
795.82	1781.73
796.00	1714.15
796.17	1722.34
796.34	1689.57
796.52	1703.91
796.69	1746.92
796.87	1769.44
797.04	1726.44
797.22	1652.71
797.39	1771.49
797.57	1808.36
797.74	1669.09
797.92	1761.25
798.09	1679.33
798.27	1767.40
798.44	1712.10
798.62	1662.95
798.79	1708.01
798.96	1738.73
799.14	1714.15
799.31	1927.14
799.49	1667.05
799.66	1718.25
799.84	1732.58
800.01	1744.87
800.19	1693.67
800.36	1626.09
800.53	1748.97
800.71	1736.68
800.88	1898.47
801.06	1722.34
801.23	1689.57
801.41	1783.78
801.58	1677.29
801.75	1703.91
801.93	1687.53
802.10	1732.58
802.28	1681.38
802.45	1693.67
802.63	1783.78
802.80	1828.84
802.97	1648.61
803.15	1669.09
803.32	1708.01
803.50	1675.24
803.67	1609.70
803.84	1572.84
804.02	1757.16
804.19	1699.81
804.37	1677.29
804.54	1693.67
804.71	1665.00
804.89	1658.85
805.06	1646.57
805.24	1646.57
805.41	1667.05
805.58	1634.28
805.76	1804.26
805.93	1732.58
806.10	1818.60
806.28	1718.25
806.45	1755.11
806.63	1718.25
806.80	1726.44
806.97	1753.06
807.15	1759.21
807.32	1748.97
807.49	1732.58
807.67	1648.61
807.84	1718.25
808.01	1656.81
808.19	1816.55
808.36	1798.12
808.54	1632.23
808.71	1617.90
808.88	1736.68
809.06	1732.58
809.23	1773.54
809.40	1656.81
809.58	1728.49
809.75	1718.25
809.92	1724.39
810.10	1900.52
810.27	1726.44
810.44	1679.33
810.62	1728.49
810.79	1732.58
810.96	1681.38
811.14	1802.21
811.31	1791.97
811.48	1728.49
811.66	1724.39
811.83	1769.44
812.00	1773.54
812.18	1697.77
812.35	1875.94
812.52	1689.57
812.69	1683.43
812.87	1628.14
813.04	1634.28
813.21	1718.25
813.39	1667.05
813.56	1642.47
813.73	1746.92
813.91	1595.37
814.08	1673.19
814.25	1832.93
814.42	1699.81
814.60	1703.91
814.77	1740.77
814.94	1736.68
815.12	1665.00
815.29	1787.88
815.46	1714.15
815.63	1755.11
815.81	1759.21
815.98	1705.96
816.15	1796.07
816.33	1705.96
816.50	1771.49
816.67	1718.25
816.84	1667.05
817.02	1619.94
817.19	1755.11
817.36	1746.92
817.53	1734.63
817.71	1705.96
817.88	1763.30
818.05	1697.77
818.22	1716.20
818.40	1834.98
818.57	1699.81
818.74	1798.12
818.91	1767.40
819.09	1755.11
819.26	1777.64
819.43	1671.14
819.60	1722.34
819.78	1775.59
819.95	1853.41
820.12	1667.05
820.29	1826.79
820.47	1794.02
820.64	1619.94
820.81	1646.57
820.98	1634.28
821.15	1724.39
821.33	1759.21
821.50	1714.15
821.67	1847.27
821.84	1740.77
822.02	1751.01
822.19	1703.91
822.36	1718.25
822.53	1656.81
822.70	1699.81
822.88	1751.01
823.05	1787.88
823.22	1744.87
823.39	1753.06
823.56	1679.33
823.74	1871.84
823.91	1650.66
824.08	1660.90
824.25	1638.38
824.42	1781.73
824.60	1671.14
824.77	1726.44
824.94	1673.19
825.11	1757.16
825.28	1607.66
825.45	1746.92
825.63	1765.35
825.80	1728.49
825.97	1798.12
826.14	1783.78
826.31	1671.14
826.48	1677.29
826.66	1626.09
826.83	1697.77
827.00	1730.53
827.17	1665.00
827.34	1761.25
827.51	1650.66
827.69	1685.48
827.86	1646.57
828.03	1716.20
828.20	1777.64
828.37	1734.63
828.54	1705.96
828.71	1640.42
828.89	1812.45
829.06	1732.58
829.23	1794.02
829.40	1691.62
829.57	1673.19
829.74	1820.64
829.91	1732.58
830.09	1693.67
830.26	1703.91
830.43	1794.02
830.60	1728.49
830.77	1787.88
830.94	1789.92
831.11	1820.64
831.28	1679.33
831.46	1753.06
831.63	1740.77
831.80	1818.60
831.97	1617.90
832.14	1624.04
832.31	1771.49
832.48	1687.53
832.65	1839.08
832.82	1718.25
832.99	1767.40
833.17	1687.53
833.34	1748.97
833.51	1779.68
833.68	1591.27
833.85	1767.40
834.02	1656.81
834.19	1677.29
834.36	1699.81
834.53	1665.00
834.70	1865.70
834.87	1759.21
835.04	1665.00
835.22	1646.57
835.39	1689.57
835.56	1705.96
835.73	1611.75
835.90	1697.77
836.07	1687.53
836.24	1708.01
836.41	1671.14
836.58	1691.62
836.75	1761.25
836.92	1771.49
837.09	1720.29
837.26	1699.81
837.43	1697.77
837.60	1687.53
837.77	1695.72
837.94	1689.57
838.12	1726.44
838.29	1773.54
838.46	1669.09
838.63	1640.42
838.80	1820.64
838.97	1740.77
839.14	1722.34
839.31	1767.40
839.48	1769.44
839.65	1697.77
839.82	1800.16
839.99	1736.68
840.16	1619.94
840.33	1730.53
840.50	1734.63
840.67	1671.14
840.84	1665.00
841.01	1654.76
841.18	1689.57
841.35	1693.67
841.52	1771.49
841.69	1865.70
841.86	1716.20
842.03	1710.05
842.20	1689.57
842.37	1708.01
842.54	1615.85
842.71	1687.53
842.88	1699.81
843.05	1712.10
843.22	1665.00
843.39	1759.21
843.56	1728.49
843.73	1669.09
843.90	1683.43
844.07	1669.09
844.24	1705.96
844.41	1722.34
844.58	1669.09
844.75	1777.64
844.92	1773.54
845.09	1722.34
845.26	1640.42
845.43	1667.05
845.60	1619.94
845.77	1759.21
845.94	1730.53
846.10	1697.77
846.27	1701.86
846.44	1662.95
846.61	1683.43
846.78	1740.77
846.95	1806.31
847.12	1710.05
847.29	1697.77
847.46	1685.48
847.63	1769.44
847.80	1683.43
847.97	1712.10
848.14	1779.68
848.31	1636.33
848.48	1632.23
848.65	1787.88
848.82	1642.47
848.98	1849.32
849.15	1740.77
849.32	1771.49
849.49	1761.25
849.66	1689.57
849.83	1769.44
850.00	1607.66
850.17	1763.30
850.34	1699.81
850.51	1632.23
850.68	1650.66
850.85	1804.26
851.01	1687.53
851.18	1746.92
851.35	1699.81
851.52	1761.25
851.69	1828.84
851.86	1636.33
852.03	1730.53
852.20	1734.63
852.37	1658.85
852.53	1677.29
852.70	1710.05
852.87	1767.40
853.04	1783.78
853.21	1724.39
853.38	1773.54
853.55	1734.63
853.72	1779.68
853.89	1576.94
854.05	1619.94
854.22	1681.38
854.39	1626.09
854.56	1714.15
854.73	1822.69
854.90	1660.90
855.07	1626.09
855.23	1658.85
855.40	1652.71
855.57	1738.73
855.74	1658.85
855.91	1949.67
856.08	1677.29
856.25	1611.75
856.41	1703.91
856.58	1742.82
856.75	1769.44
856.92	1669.09
857.09	1730.53
857.26	1603.56
857.42	1673.19
857.59	1732.58
857.76	1791.97
857.93	1710.05
858.10	1626.09
858.27	1665.00
858.43	1767.40
858.60	1617.90
858.77	1634.28
858.94	1687.53
859.11	1724.39
859.27	1667.05
859.44	1705.96
859.61	1892.32
859.78	1779.68
859.95	1714.15
860.12	1609.70
860.28	1845.22
860.45	1845.22
860.62	1591.27
860.79	1734.63
860.95	1673.19
861.12	1722.34
861.29	1679.33
861.46	1710.05
861.63	1667.05
861.79	1689.57
861.96	1720.29
862.13	1710.05
862.30	1834.98
862.47	1624.04
862.63	1683.43
862.80	1740.77
862.97	1812.45
863.14	1742.82
863.30	1738.73
863.47	1619.94
863.64	1742.82
863.81	1742.82
863.97	1644.52
864.14	1736.68
864.31	1705.96
864.48	1789.92
864.65	1669.09
864.81	1806.31
864.98	1730.53
865.15	1695.72
865.32	1810.40
865.48	1798.12
865.65	1820.64
865.82	1718.25
865.98	1738.73
866.15	1757.16
866.32	1662.95
866.49	1656.81
866.65	1736.68
866.82	1673.19
866.99	1660.90
867.16	1658.85
867.32	1671.14
867.49	1654.76
867.66	1716.20
867.83	1697.77
867.99	1722.34
868.16	1652.71
868.33	1667.05
868.49	1728.49
868.66	1681.38
868.83	1765.35
868.99	1662.95
869.16	1730.53
869.33	1775.59
869.50	1761.25
869.66	1652.71
869.83	1773.54
870.00	1675.24
870.16	1746.92
870.33	1740.77
870.50	1732.58
870.66	1693.67
870.83	1834.98
871.00	1718.25
871.17	1720.29
871.33	1722.34
871.50	1761.25
871.67	1701.86
871.83	1740.77
872.00	1759.21
872.17	1667.05
872.33	1898.47
872.50	1775.59
872.67	1671.14
872.83	1724.39
873.00	1728.49
873.17	1714.15
873.33	1806.31
873.50	1722.34
873.67	1660.90
873.83	1658.85
874.00	1771.49
874.16	1820.64
874.33	1851.36
874.50	1669.09
874.66	1714.15
874.83	1665.00
875.00	1765.35
875.16	1777.64
875.33	1767.40
875.50	1583.08
875.66	1689.57
875.83	1726.44
875.99	1849.32
876.16	1658.85
876.33	1669.09
876.49	1755.11
876.66	1751.01
876.83	1742.82
876.99	1605.61
877.16	1673.19
877.32	1667.05
877.49	1728.49
877.66	1687.53
877.82	1773.54
877.99	1697.77
878.15	1746.92
878.32	1693.67
878.49	1751.01
878.65	1587.18
878.82	1783.78
878.98	1642.47
879.15	1720.29
879.32	1742.82
879.48	1769.44
879.65	1611.75
879.81	1665.00
879.98	1646.57
880.15	1712.10
880.31	1705.96
880.48	1675.24
880.64	1726.44
880.81	1687.53
880.97	1859.56
881.14	1882.08
881.31	1634.28
881.47	1904.61
881.64	1724.39
881.80	1656.81
881.97	1695.72
882.13	1742.82
882.30	1699.81
882.47	1720.29
882.63	1628.14
882.80	1689.57
882.96	1675.24
883.13	1753.06
883.29	1681.38
883.46	1796.07
883.62	1804.26
883.79	1748.97
883.95	1849.32
884.12	1716.20
884.29	1753.06
884.45	1658.85
884.62	1763.30
884.78	1730.53
884.95	1630.18
885.11	1673.19
885.28	1744.87
885.44	1636.33
885.61	1751.01
885.77	1853.41
885.94	1730.53
886.10	1796.07
886.27	1673.19
886.43	1726.44
886.60	1787.88
886.76	1714.15
886.93	1632.23
887.09	1763.30
887.26	1644.52
887.42	1685.48
887.59	1767.40
887.75	1802.21
887.92	1832.93
888.08	1734.63
888.25	1787.88
888.41	1775.59
888.58	1695.72
888.74	1665.00
888.91	1701.86
>>>>>End Processed Spectral Data<<<<<
