SpectraSuite Data File
++++++++++++++++++++++++++++++++++++
Date: Mon Jun 06 14:54:37 CEST 2016
User: root
Dark Spectrum Present: No
Reference Spectrum Present: No
Number of Sampled Component Spectra: 1
Spectrometers: USB4C02835
Integration Time (usec): 100000 (USB4C02835)
Spectra Averaged: 1 (USB4C02835)
Boxcar Smoothing: 0 (USB4C02835)
Correct for Electrical Dark: No (USB4C02835)
Strobe/Lamp Enabled: No (USB4C02835)
Correct for Detector Non-linearity: No (USB4C02835)
Correct for Stray Light: No (USB4C02835)
Number of Pixels in Processed Spectrum: 3648
>>>>>Begin Processed Spectral Data<<<<<
177.47	1490.92
177.69	1490.92
177.91	1490.92
178.13	1495.02
178.36	1406.95
178.58	1648.61
178.80	1652.71
179.02	1636.33
179.24	1617.90
179.46	1607.66
179.68	1769.44
179.90	1730.53
180.13	1626.09
180.35	1730.53
180.57	1724.39
180.79	1701.86
181.01	1701.86
181.23	1734.63
181.45	1806.31
181.67	1789.92
181.90	1697.77
182.12	1640.42
182.34	1638.38
182.56	1769.44
182.78	1753.06
183.00	1640.42
183.22	1740.77
183.44	1589.22
183.66	1855.46
183.89	1822.69
184.11	1650.66
184.33	1787.88
184.55	1771.49
184.77	1681.38
184.99	1710.05
185.21	1646.57
185.43	1851.36
185.65	1708.01
185.87	1634.28
186.10	1785.83
186.32	1869.80
186.54	1736.68
186.76	1767.40
186.98	1771.49
187.20	1695.72
187.42	1667.05
187.64	1615.85
187.86	1675.24
188.08	1705.96
188.30	1710.05
188.52	1652.71
188.75	1767.40
188.97	1753.06
189.19	1677.29
189.41	1724.39
189.63	1710.05
189.85	1685.48
190.07	1716.20
190.29	1658.85
190.51	1810.40
190.73	1624.04
190.95	1812.45
191.17	1701.86
191.39	1603.56
191.61	1624.04
191.84	1593.32
192.06	1673.19
192.28	1603.56
192.50	1843.17
192.72	1675.24
192.94	1703.91
193.16	1689.57
193.38	1683.43
193.60	1708.01
193.82	1751.01
194.04	1697.77
194.26	1763.30
194.48	1679.33
194.70	1609.70
194.92	1624.04
195.14	1859.56
195.36	1701.86
195.58	1689.57
195.80	1675.24
196.02	1789.92
196.24	1748.97
196.46	1697.77
196.69	1697.77
196.91	1824.74
197.13	1685.48
197.35	1691.62
197.57	1763.30
197.79	1710.05
198.01	1699.81
198.23	1765.35
198.45	1636.33
198.67	1701.86
198.89	1652.71
199.11	1699.81
199.33	1630.18
199.55	1564.65
199.77	1703.91
199.99	1771.49
200.21	1644.52
200.43	1763.30
200.65	1572.84
200.87	1566.70
201.09	1763.30
201.31	1705.96
201.53	1705.96
201.75	1689.57
201.97	1720.29
202.19	1679.33
202.41	1779.68
202.63	1781.73
202.85	1718.25
203.07	1718.25
203.29	1640.42
203.51	1681.38
203.73	1624.04
203.95	1810.40
204.17	1683.43
204.39	1802.21
204.61	1669.09
204.83	1701.86
205.05	1665.00
205.27	1810.40
205.49	1826.79
205.71	1662.95
205.93	1665.00
206.15	1619.94
206.37	1728.49
206.59	1740.77
206.81	1599.46
207.03	1660.90
207.25	1662.95
207.47	1763.30
207.69	1660.90
207.91	1791.97
208.13	1791.97
208.34	1650.66
208.56	1671.14
208.78	1753.06
209.00	1761.25
209.22	1681.38
209.44	1673.19
209.66	1693.67
209.88	1675.24
210.10	1671.14
210.32	1763.30
210.54	1800.16
210.76	1722.34
210.98	1730.53
211.20	1566.70
211.42	1681.38
211.64	1755.11
211.86	1712.10
212.08	1763.30
212.30	1710.05
212.52	1710.05
212.74	1751.01
212.96	1697.77
213.17	1736.68
213.39	1771.49
213.61	1816.55
213.83	1710.05
214.05	1632.23
214.27	1730.53
214.49	1699.81
214.71	1691.62
214.93	1720.29
215.15	1683.43
215.37	1775.59
215.59	1609.70
215.81	1703.91
216.03	1742.82
216.24	1724.39
216.46	1619.94
216.68	1703.91
216.90	1773.54
217.12	1705.96
217.34	1736.68
217.56	1755.11
217.78	1771.49
218.00	1734.63
218.22	1708.01
218.44	1673.19
218.66	1626.09
218.87	1689.57
219.09	1730.53
219.31	1738.73
219.53	1726.44
219.75	1644.52
219.97	1660.90
220.19	1751.01
220.41	1712.10
220.63	1730.53
220.85	1742.82
221.06	1720.29
221.28	1744.87
221.50	1667.05
221.72	1728.49
221.94	1761.25
222.16	1744.87
222.38	1701.86
222.60	1656.81
222.82	1703.91
223.03	1720.29
223.25	1615.85
223.47	1662.95
223.69	1818.60
223.91	1746.92
224.13	1681.38
224.35	1599.46
224.57	1785.83
224.78	1763.30
225.00	1652.71
225.22	1720.29
225.44	1615.85
225.66	1773.54
225.88	1611.75
226.10	1697.77
226.32	1730.53
226.53	1648.61
226.75	1736.68
226.97	1650.66
227.19	1660.90
227.41	1693.67
227.63	1550.31
227.85	1636.33
228.06	1677.29
228.28	1667.05
228.50	1757.16
228.72	1642.47
228.94	1763.30
229.16	1538.02
229.37	1650.66
229.59	1611.75
229.81	1767.40
230.03	1624.04
230.25	1648.61
230.47	1613.80
230.69	1619.94
230.90	1712.10
231.12	1732.58
231.34	1705.96
231.56	1787.88
231.78	1632.23
232.00	1691.62
232.21	1650.66
232.43	1693.67
232.65	1542.12
232.87	1708.01
233.09	1662.95
233.30	1701.86
233.52	1767.40
233.74	1718.25
233.96	1701.86
234.18	1675.24
234.40	1681.38
234.61	1828.84
234.83	1619.94
235.05	1617.90
235.27	1794.02
235.49	1732.58
235.70	1677.29
235.92	1771.49
236.14	1800.16
236.36	1812.45
236.58	1603.56
236.79	1718.25
237.01	1714.15
237.23	1746.92
237.45	1796.07
237.67	1626.09
237.88	1742.82
238.10	1755.11
238.32	1681.38
238.54	1681.38
238.76	1687.53
238.97	1624.04
239.19	1681.38
239.41	1699.81
239.63	1738.73
239.85	1699.81
240.06	1738.73
240.28	1708.01
240.50	1665.00
240.72	1681.38
240.93	1667.05
241.15	1693.67
241.37	1636.33
241.59	1779.68
241.81	1673.19
242.02	1617.90
242.24	1726.44
242.46	1767.40
242.68	1708.01
242.89	1759.21
243.11	1726.44
243.33	1609.70
243.55	1728.49
243.76	1660.90
243.98	1628.14
244.20	1695.72
244.42	1714.15
244.64	1705.96
244.85	1607.66
245.07	1636.33
245.29	1691.62
245.51	1652.71
245.72	1691.62
245.94	1779.68
246.16	1693.67
246.38	1732.58
246.59	1619.94
246.81	1658.85
247.03	1708.01
247.24	1603.56
247.46	1708.01
247.68	1785.83
247.90	1632.23
248.11	1671.14
248.33	1689.57
248.55	1728.49
248.77	1810.40
248.98	1724.39
249.20	1781.73
249.42	1757.16
249.64	1708.01
249.85	1689.57
250.07	1677.29
250.29	1679.33
250.50	1761.25
250.72	1558.50
250.94	1693.67
251.16	1849.32
251.37	1705.96
251.59	1701.86
251.81	1720.29
252.02	1746.92
252.24	1679.33
252.46	1757.16
252.68	1656.81
252.89	1701.86
253.11	1619.94
253.33	1771.49
253.54	1773.54
253.76	1562.60
253.98	1621.99
254.20	1734.63
254.41	1699.81
254.63	1652.71
254.85	1673.19
255.06	1759.21
255.28	1662.95
255.50	1667.05
255.71	1632.23
255.93	1665.00
256.15	1632.23
256.36	1726.44
256.58	1712.10
256.80	1671.14
257.02	1697.77
257.23	1677.29
257.45	1624.04
257.67	1775.59
257.88	1681.38
258.10	1751.01
258.32	1712.10
258.53	1697.77
258.75	1867.75
258.97	1646.57
259.18	1705.96
259.40	1609.70
259.62	1748.97
259.83	1789.92
260.05	1714.15
260.27	1904.61
260.48	1744.87
260.70	1652.71
260.92	1679.33
261.13	1705.96
261.35	1726.44
261.57	1751.01
261.78	1595.37
262.00	1589.22
262.22	1791.97
262.43	1656.81
262.65	1628.14
262.86	1712.10
263.08	1810.40
263.30	1728.49
263.51	1601.51
263.73	1636.33
263.95	1787.88
264.16	1615.85
264.38	1607.66
264.60	1728.49
264.81	1656.81
265.03	1787.88
265.25	1685.48
265.46	1736.68
265.68	1765.35
265.89	1705.96
266.11	1599.46
266.33	1726.44
266.54	1796.07
266.76	1730.53
266.98	1728.49
267.19	1810.40
267.41	1746.92
267.62	1730.53
267.84	1615.85
268.06	1699.81
268.27	1753.06
268.49	1705.96
268.70	1742.82
268.92	1671.14
269.14	1595.37
269.35	1646.57
269.57	1705.96
269.79	1714.15
270.00	1693.67
270.22	1818.60
270.43	1648.61
270.65	1566.70
270.87	1755.11
271.08	1779.68
271.30	1728.49
271.51	1697.77
271.73	1714.15
271.95	1736.68
272.16	1665.00
272.38	1685.48
272.59	1677.29
272.81	1742.82
273.02	1708.01
273.24	1712.10
273.46	1761.25
273.67	1673.19
273.89	1677.29
274.10	1603.56
274.32	1763.30
274.54	1697.77
274.75	1685.48
274.97	1740.77
275.18	1748.97
275.40	1808.36
275.61	1593.32
275.83	1798.12
276.05	1615.85
276.26	1730.53
276.48	1740.77
276.69	1644.52
276.91	1722.34
277.12	1796.07
277.34	1728.49
277.55	1724.39
277.77	1759.21
277.99	1636.33
278.20	1646.57
278.42	1683.43
278.63	1662.95
278.85	1640.42
279.06	1593.32
279.28	1665.00
279.49	1757.16
279.71	1697.77
279.93	1679.33
280.14	1703.91
280.36	1667.05
280.57	1699.81
280.79	1744.87
281.00	1607.66
281.22	1671.14
281.43	1789.92
281.65	1595.37
281.86	1683.43
282.08	1703.91
282.29	1783.78
282.51	1605.61
282.73	1611.75
282.94	1558.50
283.16	1638.38
283.37	1785.83
283.59	1722.34
283.80	1732.58
284.02	1593.32
284.23	1691.62
284.45	1738.73
284.66	1669.09
284.88	1642.47
285.09	1703.91
285.31	1736.68
285.52	1763.30
285.74	1636.33
285.95	1720.29
286.17	1738.73
286.38	1714.15
286.60	1654.76
286.81	1636.33
287.03	1679.33
287.24	1757.16
287.46	1755.11
287.67	1677.29
287.89	1800.16
288.10	1738.73
288.32	1712.10
288.53	1787.88
288.75	1652.71
288.96	1734.63
289.18	1685.48
289.39	1724.39
289.61	1687.53
289.82	1834.98
290.04	1736.68
290.25	1630.18
290.47	1679.33
290.68	1705.96
290.90	1732.58
291.11	1673.19
291.33	1693.67
291.54	1636.33
291.76	1570.79
291.97	1652.71
292.18	1689.57
292.40	1705.96
292.61	1675.24
292.83	1834.98
293.04	1746.92
293.26	1691.62
293.47	1712.10
293.69	1665.00
293.90	1644.52
294.12	1716.20
294.33	1740.77
294.55	1685.48
294.76	1820.64
294.97	1804.26
295.19	1843.17
295.40	1660.90
295.62	1736.68
295.83	1814.50
296.05	1636.33
296.26	1767.40
296.48	1632.23
296.69	1675.24
296.90	1654.76
297.12	1646.57
297.33	1804.26
297.55	1681.38
297.76	1724.39
297.98	1804.26
298.19	1705.96
298.41	1673.19
298.62	1656.81
298.83	1761.25
299.05	1724.39
299.26	1720.29
299.48	1705.96
299.69	1716.20
299.90	1669.09
300.12	1665.00
300.33	1681.38
300.55	1738.73
300.76	1744.87
300.98	1693.67
301.19	1736.68
301.40	1679.33
301.62	1650.66
301.83	1660.90
302.05	1691.62
302.26	1697.77
302.47	1728.49
302.69	1652.71
302.90	1697.77
303.12	1593.32
303.33	1722.34
303.54	1775.59
303.76	1695.72
303.97	1697.77
304.19	1781.73
304.40	1685.48
304.61	1718.25
304.83	1855.46
305.04	1671.14
305.26	1726.44
305.47	1628.14
305.68	1701.86
305.90	1675.24
306.11	1773.54
306.33	1755.11
306.54	1607.66
306.75	1644.52
306.97	1619.94
307.18	1603.56
307.39	1681.38
307.61	1722.34
307.82	1685.48
308.04	1724.39
308.25	1615.85
308.46	1767.40
308.68	1703.91
308.89	1773.54
309.10	1796.07
309.32	1755.11
309.53	1685.48
309.74	1751.01
309.96	1642.47
310.17	1742.82
310.39	1720.29
310.60	1679.33
310.81	1677.29
311.03	1671.14
311.24	1699.81
311.45	1669.09
311.67	1800.16
311.88	1697.77
312.09	1691.62
312.31	1599.46
312.52	1689.57
312.73	1648.61
312.95	1630.18
313.16	1646.57
313.37	1708.01
313.59	1779.68
313.80	1710.05
314.01	1771.49
314.23	1636.33
314.44	1611.75
314.65	1695.72
314.87	1693.67
315.08	1638.38
315.29	1699.81
315.51	1665.00
315.72	1660.90
315.93	1798.12
316.15	1816.55
316.36	1675.24
316.57	1673.19
316.79	1722.34
317.00	1669.09
317.21	1751.01
317.43	1683.43
317.64	1710.05
317.85	1718.25
318.07	1665.00
318.28	1681.38
318.49	1757.16
318.70	1884.13
318.92	1779.68
319.13	1751.01
319.34	1820.64
319.56	1820.64
319.77	1806.31
319.98	1720.29
320.20	1767.40
320.41	1730.53
320.62	1794.02
320.83	1673.19
321.05	1771.49
321.26	1708.01
321.47	1755.11
321.69	1802.21
321.90	1658.85
322.11	1609.70
322.32	1665.00
322.54	1789.92
322.75	1683.43
322.96	1847.27
323.18	1628.14
323.39	1601.51
323.60	1656.81
323.81	1693.67
324.03	1654.76
324.24	1691.62
324.45	1665.00
324.66	1767.40
324.88	1724.39
325.09	1646.57
325.30	1722.34
325.52	1714.15
325.73	1669.09
325.94	1624.04
326.15	1550.31
326.37	1658.85
326.58	1738.73
326.79	1810.40
327.00	1632.23
327.22	1714.15
327.43	1650.66
327.64	1716.20
327.85	1779.68
328.07	1738.73
328.28	1802.21
328.49	1640.42
328.70	1611.75
328.92	1703.91
329.13	1681.38
329.34	1728.49
329.55	1781.73
329.76	1744.87
329.98	1656.81
330.19	1783.78
330.40	1710.05
330.61	1726.44
330.83	1765.35
331.04	1640.42
331.25	1691.62
331.46	1640.42
331.68	1611.75
331.89	1763.30
332.10	1636.33
332.31	1607.66
332.52	1722.34
332.74	1761.25
332.95	1607.66
333.16	1720.29
333.37	1746.92
333.58	1603.56
333.80	1708.01
334.01	1693.67
334.22	1671.14
334.43	1658.85
334.64	1632.23
334.86	1660.90
335.07	1583.08
335.28	1757.16
335.49	1576.94
335.70	1705.96
335.92	1740.77
336.13	1808.36
336.34	1712.10
336.55	1710.05
336.76	1724.39
336.98	1619.94
337.19	1679.33
337.40	1785.83
337.61	1877.99
337.82	1671.14
338.04	1765.35
338.25	1615.85
338.46	1730.53
338.67	1681.38
338.88	1603.56
339.09	1611.75
339.31	1615.85
339.52	1619.94
339.73	1658.85
339.94	1755.11
340.15	1611.75
340.36	1728.49
340.58	1767.40
340.79	1673.19
341.00	1701.86
341.21	1628.14
341.42	1783.78
341.63	1748.97
341.85	1662.95
342.06	1708.01
342.27	1619.94
342.48	1677.29
342.69	1589.22
342.90	1720.29
343.12	1720.29
343.33	1744.87
343.54	1738.73
343.75	1779.68
343.96	1652.71
344.17	1701.86
344.38	1724.39
344.60	1615.85
344.81	1695.72
345.02	1697.77
345.23	1746.92
345.44	1867.75
345.65	1697.77
345.86	1710.05
346.07	1751.01
346.29	1679.33
346.50	1726.44
346.71	1834.98
346.92	1771.49
347.13	1808.36
347.34	1775.59
347.55	1667.05
347.76	1732.58
347.98	1607.66
348.19	1675.24
348.40	1742.82
348.61	1658.85
348.82	1767.40
349.03	1751.01
349.24	1722.34
349.45	1732.58
349.66	1574.89
349.88	1718.25
350.09	1638.38
350.30	1724.39
350.51	1734.63
350.72	1740.77
350.93	1746.92
351.14	1771.49
351.35	1714.15
351.56	1718.25
351.77	1753.06
351.99	1767.40
352.20	1873.89
352.41	1771.49
352.62	1642.47
352.83	1769.44
353.04	1697.77
353.25	1665.00
353.46	1691.62
353.67	1712.10
353.88	1556.46
354.09	1734.63
354.30	1701.86
354.52	1689.57
354.73	1693.67
354.94	1695.72
355.15	1685.48
355.36	1769.44
355.57	1720.29
355.78	1734.63
355.99	1712.10
356.20	1599.46
356.41	1718.25
356.62	1767.40
356.83	1687.53
357.04	1830.88
357.25	1591.27
357.46	1673.19
357.68	1632.23
357.89	1716.20
358.10	1658.85
358.31	1681.38
358.52	1705.96
358.73	1644.52
358.94	1656.81
359.15	1673.19
359.36	1677.29
359.57	1708.01
359.78	1730.53
359.99	1677.29
360.20	1636.33
360.41	1679.33
360.62	1755.11
360.83	1806.31
361.04	1779.68
361.25	1671.14
361.46	1755.11
361.67	1710.05
361.88	1738.73
362.09	1718.25
362.30	1691.62
362.51	1646.57
362.72	1714.15
362.93	1783.78
363.14	1699.81
363.35	1705.96
363.56	1619.94
363.78	1751.01
363.99	1705.96
364.20	1677.29
364.41	1714.15
364.62	1783.78
364.83	1761.25
365.04	1730.53
365.25	1783.78
365.46	1853.41
365.67	1642.47
365.88	1611.75
366.09	1673.19
366.30	1671.14
366.51	1738.73
366.72	1621.99
366.93	1738.73
367.14	1689.57
367.35	1822.69
367.56	1683.43
367.77	1822.69
367.98	1740.77
368.18	1730.53
368.39	1744.87
368.60	1628.14
368.81	1689.57
369.02	1703.91
369.23	1665.00
369.44	1615.85
369.65	1673.19
369.86	1789.92
370.07	1732.58
370.28	1601.51
370.49	1724.39
370.70	1755.11
370.91	1626.09
371.12	1673.19
371.33	1753.06
371.54	1660.90
371.75	1775.59
371.96	1601.51
372.17	1675.24
372.38	1634.28
372.59	1779.68
372.80	1634.28
373.01	1648.61
373.22	1794.02
373.43	1714.15
373.64	1726.44
373.85	1738.73
374.06	1796.07
374.26	1730.53
374.47	1675.24
374.68	1746.92
374.89	1763.30
375.10	1710.05
375.31	1755.11
375.52	1665.00
375.73	1681.38
375.94	1669.09
376.15	1771.49
376.36	1624.04
376.57	1693.67
376.78	1689.57
376.99	1638.38
377.20	1751.01
377.40	1607.66
377.61	1834.98
377.82	1603.56
378.03	1794.02
378.24	1703.91
378.45	1697.77
378.66	1714.15
378.87	1728.49
379.08	1624.04
379.29	1660.90
379.50	1769.44
379.71	1624.04
379.91	1783.78
380.12	1722.34
380.33	1685.48
380.54	1669.09
380.75	1689.57
380.96	1705.96
381.17	1744.87
381.38	1763.30
381.59	1730.53
381.80	1677.29
382.00	1775.59
382.21	1705.96
382.42	1828.84
382.63	1851.36
382.84	1703.91
383.05	1705.96
383.26	1820.64
383.47	1714.15
383.68	1800.16
383.88	1697.77
384.09	1669.09
384.30	1816.55
384.51	1697.77
384.72	1669.09
384.93	1615.85
385.14	1775.59
385.35	1753.06
385.55	1693.67
385.76	1753.06
385.97	1701.86
386.18	1652.71
386.39	1671.14
386.60	1607.66
386.81	1683.43
387.02	1699.81
387.22	1656.81
387.43	1769.44
387.64	1767.40
387.85	1929.19
388.06	2260.96
388.27	4132.80
388.48	6651.80
388.68	7860.10
388.89	9285.49
389.10	9588.59
389.31	8333.18
389.52	7520.14
389.73	6582.17
389.93	6178.72
390.14	5775.27
390.35	5089.20
390.56	4470.72
390.77	3704.78
390.98	2930.64
391.18	2533.34
391.39	2189.28
391.60	1837.03
391.81	1802.21
392.02	1724.39
392.23	1875.94
392.43	1671.14
392.64	1789.92
392.85	1718.25
393.06	1785.83
393.27	1765.35
393.47	1654.76
393.68	1705.96
393.89	1691.62
394.10	1796.07
394.31	1624.04
394.52	1656.81
394.72	1701.86
394.93	1824.74
395.14	1677.29
395.35	1697.77
395.56	1708.01
395.76	1734.63
395.97	1832.93
396.18	1773.54
396.39	1791.97
396.60	2000.87
396.80	1796.07
397.01	1804.26
397.22	1820.64
397.43	1810.40
397.64	1667.05
397.84	1820.64
398.05	1812.45
398.26	1748.97
398.47	1796.07
398.67	1705.96
398.88	1665.00
399.09	1804.26
399.30	1624.04
399.51	1787.88
399.71	1599.46
399.92	1732.58
400.13	1683.43
400.34	1667.05
400.54	1671.14
400.75	1791.97
400.96	1699.81
401.17	1851.36
401.37	1683.43
401.58	1757.16
401.79	1687.53
402.00	1847.27
402.21	2045.92
402.41	1988.58
402.62	1939.43
402.83	2027.49
403.04	1939.43
403.24	2068.45
403.45	1865.70
403.66	1929.19
403.87	1884.13
404.07	1834.98
404.28	1859.56
404.49	1882.08
404.70	1740.77
404.90	1777.64
405.11	1697.77
405.32	1759.21
405.52	1638.38
405.73	1665.00
405.94	1636.33
406.15	1738.73
406.35	1673.19
406.56	1742.82
406.77	1667.05
406.98	1734.63
407.18	1669.09
407.39	1791.97
407.60	1724.39
407.80	1697.77
408.01	1626.09
408.22	1738.73
408.43	1660.90
408.63	1697.77
408.84	1773.54
409.05	1730.53
409.25	1644.52
409.46	1632.23
409.67	1669.09
409.88	1628.14
410.08	1632.23
410.29	1640.42
410.50	1847.27
410.70	1697.77
410.91	1693.67
411.12	1710.05
411.32	1738.73
411.53	1636.33
411.74	1798.12
411.95	1837.03
412.15	1775.59
412.36	1775.59
412.57	1730.53
412.77	1828.84
412.98	1701.86
413.19	1771.49
413.39	1724.39
413.60	1728.49
413.81	1775.59
414.01	1654.76
414.22	1736.68
414.43	1757.16
414.63	1748.97
414.84	1789.92
415.05	1701.86
415.25	1597.42
415.46	1667.05
415.67	1619.94
415.87	1767.40
416.08	1761.25
416.29	1619.94
416.49	1708.01
416.70	1728.49
416.91	1691.62
417.11	1681.38
417.32	1812.45
417.53	1699.81
417.73	1755.11
417.94	1673.19
418.15	1726.44
418.35	1683.43
418.56	1646.57
418.77	1771.49
418.97	1701.86
419.18	1693.67
419.38	1566.70
419.59	1689.57
419.80	1849.32
420.00	1716.20
420.21	1757.16
420.42	1714.15
420.62	1740.77
420.83	1662.95
421.04	1708.01
421.24	1658.85
421.45	1724.39
421.65	1730.53
421.86	1730.53
422.07	1722.34
422.27	1701.86
422.48	1734.63
422.69	1595.37
422.89	1640.42
423.10	1716.20
423.30	1576.94
423.51	1695.72
423.72	1732.58
423.92	1669.09
424.13	1691.62
424.33	1665.00
424.54	1843.17
424.75	1626.09
424.95	1814.50
425.16	1705.96
425.36	1626.09
425.57	1775.59
425.78	1755.11
425.98	1771.49
426.19	1710.05
426.39	1662.95
426.60	1716.20
426.81	1763.30
427.01	1775.59
427.22	1746.92
427.42	1585.13
427.63	1626.09
427.83	1791.97
428.04	1738.73
428.25	1777.64
428.45	1812.45
428.66	1806.31
428.86	1671.14
429.07	1703.91
429.28	1767.40
429.48	1652.71
429.69	1630.18
429.89	1644.52
430.10	1609.70
430.30	1742.82
430.51	1800.16
430.71	1673.19
430.92	1732.58
431.13	1675.24
431.33	1701.86
431.54	1734.63
431.74	1759.21
431.95	1812.45
432.15	1634.28
432.36	1687.53
432.56	1714.15
432.77	1806.31
432.98	1794.02
433.18	1644.52
433.39	1722.34
433.59	1626.09
433.80	1808.36
434.00	1859.56
434.21	1683.43
434.41	1710.05
434.62	1845.22
434.82	1662.95
435.03	1679.33
435.23	1722.34
435.44	1597.42
435.64	1775.59
435.85	1648.61
436.06	1744.87
436.26	1773.54
436.47	1675.24
436.67	1654.76
436.88	1669.09
437.08	1783.78
437.29	1812.45
437.49	1716.20
437.70	1867.75
437.90	1697.77
438.11	1832.93
438.31	1767.40
438.52	1798.12
438.72	1851.36
438.93	1925.09
439.13	1777.64
439.34	1828.84
439.54	1800.16
439.75	1822.69
439.95	1808.36
440.16	1716.20
440.36	1802.21
440.57	1804.26
440.77	1751.01
440.98	1703.91
441.18	1673.19
441.39	1701.86
441.59	1736.68
441.80	1884.13
442.00	1755.11
442.21	1802.21
442.41	1671.14
442.62	1777.64
442.82	1757.16
443.02	1785.83
443.23	1736.68
443.43	1710.05
443.64	1779.68
443.84	1640.42
444.05	1837.03
444.25	1748.97
444.46	1705.96
444.66	1755.11
444.87	1861.60
445.07	1656.81
445.28	1681.38
445.48	1814.50
445.69	1708.01
445.89	1927.14
446.09	1701.86
446.30	1964.00
446.50	2680.79
446.71	3696.58
446.91	4325.31
447.12	4540.35
447.32	4761.53
447.53	4310.97
447.73	3903.43
447.93	3487.69
448.14	3252.17
448.34	3215.31
448.55	2848.72
448.75	2744.28
448.96	2805.72
449.16	2328.54
449.36	2310.11
449.57	2105.31
449.77	1837.03
449.98	1804.26
450.18	1861.60
450.39	1808.36
450.59	1798.12
450.79	1691.62
451.00	1740.77
451.20	1810.40
451.41	1636.33
451.61	1751.01
451.81	1771.49
452.02	1763.30
452.22	1736.68
452.43	1689.57
452.63	1628.14
452.84	1722.34
453.04	1759.21
453.24	1683.43
453.45	1746.92
453.65	1796.07
453.86	1755.11
454.06	1796.07
454.26	1718.25
454.47	1761.25
454.67	1785.83
454.87	1712.10
455.08	1708.01
455.28	1824.74
455.49	1714.15
455.69	1667.05
455.89	1812.45
456.10	1783.78
456.30	1718.25
456.51	1656.81
456.71	1726.44
456.91	1822.69
457.12	1759.21
457.32	1695.72
457.52	1675.24
457.73	1779.68
457.93	1681.38
458.14	1658.85
458.34	1708.01
458.54	1734.63
458.75	1759.21
458.95	1773.54
459.15	1800.16
459.36	1769.44
459.56	1751.01
459.76	1873.89
459.97	1720.29
460.17	1751.01
460.37	1785.83
460.58	1642.47
460.78	1740.77
460.99	1718.25
461.19	1689.57
461.39	1712.10
461.60	1724.39
461.80	1714.15
462.00	1654.76
462.21	1765.35
462.41	1697.77
462.61	1673.19
462.82	1705.96
463.02	1781.73
463.22	1705.96
463.43	1820.64
463.63	1773.54
463.83	1820.64
464.04	1746.92
464.24	1714.15
464.44	1677.29
464.64	1734.63
464.85	1718.25
465.05	1806.31
465.25	1742.82
465.46	1679.33
465.66	1701.86
465.86	1746.92
466.07	1779.68
466.27	1697.77
466.47	1675.24
466.68	1650.66
466.88	1775.59
467.08	1748.97
467.29	1757.16
467.49	1783.78
467.69	1802.21
467.89	1656.81
468.10	1601.51
468.30	1742.82
468.50	1849.32
468.71	1736.68
468.91	1710.05
469.11	1877.99
469.31	1730.53
469.52	1603.56
469.72	1783.78
469.92	1839.08
470.13	1708.01
470.33	1732.58
470.53	1820.64
470.73	2117.60
470.94	2254.81
471.14	2285.53
471.34	2385.88
471.54	2418.65
471.75	2148.32
471.95	2047.97
472.15	1990.63
472.36	2021.35
472.56	2027.49
472.76	1951.71
472.96	1978.34
473.17	1888.23
473.37	1861.60
473.57	1886.18
473.77	1845.22
473.98	1841.12
474.18	1710.05
474.38	1941.47
474.58	1662.95
474.79	1619.94
474.99	1798.12
475.19	1705.96
475.39	1705.96
475.60	1767.40
475.80	1656.81
476.00	1705.96
476.20	1615.85
476.41	1728.49
476.61	1912.80
476.81	1806.31
477.01	1611.75
477.21	1781.73
477.42	1748.97
477.62	1673.19
477.82	1787.88
478.02	1738.73
478.23	1728.49
478.43	1767.40
478.63	1730.53
478.83	1697.77
479.03	1658.85
479.24	1853.41
479.44	1800.16
479.64	1665.00
479.84	1667.05
480.04	1722.34
480.25	1763.30
480.45	1693.67
480.65	1691.62
480.85	1769.44
481.06	1763.30
481.26	1755.11
481.46	1675.24
481.66	1705.96
481.86	1595.37
482.06	1763.30
482.27	1609.70
482.47	1718.25
482.67	1755.11
482.87	1685.48
483.07	1867.75
483.28	1683.43
483.48	1665.00
483.68	1695.72
483.88	1689.57
484.08	1617.90
484.29	1656.81
484.49	1695.72
484.69	1656.81
484.89	1767.40
485.09	1771.49
485.29	1800.16
485.50	1708.01
485.70	1656.81
485.90	1791.97
486.10	1712.10
486.30	1683.43
486.50	1757.16
486.71	1720.29
486.91	1769.44
487.11	1769.44
487.31	1638.38
487.51	1738.73
487.71	1652.71
487.91	1681.38
488.12	1630.18
488.32	1529.83
488.52	1640.42
488.72	1683.43
488.92	1652.71
489.12	1708.01
489.32	1828.84
489.53	1837.03
489.73	1660.90
489.93	1777.64
490.13	1677.29
490.33	1644.52
490.53	1744.87
490.73	1695.72
490.94	1769.44
491.14	1816.55
491.34	1779.68
491.54	2095.07
491.74	2533.34
491.94	2906.07
492.14	3024.85
492.34	2985.94
492.54	2705.37
492.75	2531.29
492.95	2502.62
493.15	2318.30
493.35	2172.89
493.55	2117.60
493.75	2176.99
493.95	2148.32
494.15	2019.30
494.35	1855.46
494.56	1812.45
494.76	1767.40
494.96	1820.64
495.16	1765.35
495.36	1718.25
495.56	1734.63
495.76	1736.68
495.96	1656.81
496.16	1710.05
496.36	1796.07
496.56	1669.09
496.77	1761.25
496.97	1753.06
497.17	1753.06
497.37	1714.15
497.57	1751.01
497.77	1685.48
497.97	1648.61
498.17	1679.33
498.37	1763.30
498.57	1687.53
498.77	1718.25
498.97	1828.84
499.17	1812.45
499.38	1730.53
499.58	1730.53
499.78	1802.21
499.98	1865.70
500.18	1703.91
500.38	1681.38
500.58	1886.18
500.78	2508.76
500.98	4462.52
501.18	5767.08
501.38	6686.62
501.58	7022.48
501.78	6469.53
501.98	5431.21
502.18	4849.59
502.38	4286.40
502.58	3964.87
502.78	3708.87
502.98	3545.03
503.18	3395.53
503.38	3069.91
503.59	2824.15
503.79	2621.40
503.99	2410.46
504.19	2152.42
504.39	2166.75
504.59	2150.37
504.79	2121.70
504.99	2017.25
505.19	1980.39
505.39	1818.60
505.59	1902.56
505.79	1904.61
505.99	1873.89
506.19	1804.26
506.39	1853.41
506.59	1689.57
506.79	1767.40
506.99	1746.92
507.19	1693.67
507.39	1712.10
507.59	1718.25
507.79	1722.34
507.99	1734.63
508.19	1712.10
508.39	1644.52
508.59	1695.72
508.79	1888.23
508.99	1877.99
509.19	1648.61
509.39	1789.92
509.59	1712.10
509.79	1748.97
509.99	1804.26
510.19	1738.73
510.39	1810.40
510.59	1794.02
510.79	1714.15
510.99	1689.57
511.19	1740.77
511.39	1785.83
511.59	1751.01
511.79	1775.59
511.99	1714.15
512.19	1830.88
512.38	1685.48
512.58	1685.48
512.78	1683.43
512.98	1773.54
513.18	1861.60
513.38	1646.57
513.58	1718.25
513.78	1755.11
513.98	1675.24
514.18	1728.49
514.38	1675.24
514.58	1720.29
514.78	1740.77
514.98	1730.53
515.18	1667.05
515.38	1695.72
515.58	1853.41
515.78	1644.52
515.98	1761.25
516.18	1722.34
516.38	1738.73
516.57	1665.00
516.77	1746.92
516.97	1779.68
517.17	1701.86
517.37	1689.57
517.57	1810.40
517.77	1689.57
517.97	1691.62
518.17	1800.16
518.37	1665.00
518.57	1701.86
518.77	1650.66
518.97	1718.25
519.16	1781.73
519.36	1748.97
519.56	1691.62
519.76	1734.63
519.96	1732.58
520.16	1789.92
520.36	1646.57
520.56	1789.92
520.76	1730.53
520.96	1736.68
521.16	1724.39
521.35	1775.59
521.55	1863.65
521.75	1720.29
521.95	1691.62
522.15	1742.82
522.35	1662.95
522.55	1687.53
522.75	1806.31
522.95	1681.38
523.14	1652.71
523.34	1740.77
523.54	1683.43
523.74	1769.44
523.94	1859.56
524.14	1660.90
524.34	1824.74
524.54	1824.74
524.73	1656.81
524.93	1781.73
525.13	1828.84
525.33	1644.52
525.53	1843.17
525.73	1808.36
525.93	1800.16
526.13	1703.91
526.32	1681.38
526.52	1742.82
526.72	1701.86
526.92	1773.54
527.12	1712.10
527.32	1636.33
527.52	1732.58
527.71	1808.36
527.91	1757.16
528.11	1755.11
528.31	1681.38
528.51	1734.63
528.71	1783.78
528.90	1718.25
529.10	1843.17
529.30	1769.44
529.50	1558.50
529.70	1665.00
529.90	1753.06
530.09	1705.96
530.29	1677.29
530.49	1632.23
530.69	1877.99
530.89	1738.73
531.09	1748.97
531.28	1712.10
531.48	1798.12
531.68	1714.15
531.88	1781.73
532.08	1804.26
532.28	1675.24
532.47	1726.44
532.67	1755.11
532.87	1726.44
533.07	1652.71
533.27	1773.54
533.46	1636.33
533.66	1816.55
533.86	1667.05
534.06	1777.64
534.26	1638.38
534.45	1660.90
534.65	1783.78
534.85	1736.68
535.05	1714.15
535.25	1802.21
535.44	1609.70
535.64	1773.54
535.84	1605.61
536.04	1685.48
536.24	1701.86
536.43	1718.25
536.63	1839.08
536.83	1656.81
537.03	1712.10
537.22	1714.15
537.42	1630.18
537.62	1714.15
537.82	1675.24
538.02	1712.10
538.21	1759.21
538.41	1869.80
538.61	1767.40
538.81	1642.47
539.00	1777.64
539.20	1646.57
539.40	1691.62
539.60	1705.96
539.79	1771.49
539.99	1765.35
540.19	1697.77
540.39	1697.77
540.58	1755.11
540.78	1783.78
540.98	1675.24
541.18	1765.35
541.37	1744.87
541.57	1791.97
541.77	1748.97
541.97	1662.95
542.16	1701.86
542.36	1638.38
542.56	1662.95
542.76	1886.18
542.95	1767.40
543.15	1775.59
543.35	1798.12
543.54	1695.72
543.74	1710.05
543.94	1691.62
544.14	1695.72
544.33	1726.44
544.53	1759.21
544.73	1746.92
544.93	1732.58
545.12	1761.25
545.32	1822.69
545.52	1679.33
545.71	1705.96
545.91	1675.24
546.11	1699.81
546.30	1720.29
546.50	1751.01
546.70	1779.68
546.90	1767.40
547.09	1621.99
547.29	1738.73
547.49	1806.31
547.68	1796.07
547.88	1652.71
548.08	1816.55
548.27	2226.14
548.47	1585.13
548.67	1763.30
548.87	1673.19
549.06	1708.01
549.26	1791.97
549.46	1697.77
549.65	1710.05
549.85	1781.73
550.05	1763.30
550.24	1662.95
550.44	1742.82
550.64	1765.35
550.83	1660.90
551.03	1812.45
551.23	1810.40
551.42	1841.12
551.62	1730.53
551.82	1781.73
552.01	1654.76
552.21	1826.79
552.41	1759.21
552.60	1824.74
552.80	1834.98
553.00	1708.01
553.19	1832.93
553.39	1869.80
553.59	1656.81
553.78	1761.25
553.98	1791.97
554.17	1683.43
554.37	1697.77
554.57	1755.11
554.76	1652.71
554.96	1640.42
555.16	1769.44
555.35	1646.57
555.55	1746.92
555.75	1820.64
555.94	1791.97
556.14	1656.81
556.33	1832.93
556.53	1763.30
556.73	1720.29
556.92	1769.44
557.12	1800.16
557.32	1865.70
557.51	1712.10
557.71	1775.59
557.90	1800.16
558.10	1832.93
558.30	1710.05
558.49	1689.57
558.69	1730.53
558.88	1763.30
559.08	1773.54
559.28	1736.68
559.47	1652.71
559.67	1839.08
559.86	1892.32
560.06	1779.68
560.26	1761.25
560.45	1775.59
560.65	1714.15
560.84	1824.74
561.04	1705.96
561.24	1810.40
561.43	1691.62
561.63	1738.73
561.82	1726.44
562.02	1804.26
562.22	1679.33
562.41	1695.72
562.61	1695.72
562.80	1638.38
563.00	1890.28
563.19	1714.15
563.39	1853.41
563.59	1693.67
563.78	1642.47
563.98	1652.71
564.17	1708.01
564.37	1681.38
564.56	1705.96
564.76	1710.05
564.96	1791.97
565.15	1742.82
565.35	1830.88
565.54	1697.77
565.74	1804.26
565.93	1740.77
566.13	1853.41
566.32	1744.87
566.52	1773.54
566.71	1716.20
566.91	1783.78
567.11	1701.86
567.30	1744.87
567.50	1757.16
567.69	1763.30
567.89	1718.25
568.08	1681.38
568.28	1732.58
568.47	1720.29
568.67	1755.11
568.86	1724.39
569.06	1814.50
569.25	1738.73
569.45	1763.30
569.64	1761.25
569.84	1759.21
570.04	1759.21
570.23	1714.15
570.43	1705.96
570.62	1744.87
570.82	1800.16
571.01	1714.15
571.21	1734.63
571.40	1665.00
571.60	1783.78
571.79	1744.87
571.99	1673.19
572.18	1755.11
572.38	1755.11
572.57	1738.73
572.77	1800.16
572.96	1787.88
573.16	1808.36
573.35	1695.72
573.55	1853.41
573.74	1748.97
573.94	1710.05
574.13	1771.49
574.33	1804.26
574.52	1796.07
574.71	1708.01
574.91	1710.05
575.10	1644.52
575.30	1740.77
575.49	1652.71
575.69	1683.43
575.88	1761.25
576.08	1744.87
576.27	1761.25
576.47	1771.49
576.66	1865.70
576.86	1763.30
577.05	1763.30
577.25	1812.45
577.44	1855.46
577.64	1683.43
577.83	1828.84
578.02	1796.07
578.22	1841.12
578.41	1800.16
578.61	1744.87
578.80	1644.52
579.00	1789.92
579.19	1798.12
579.39	1796.07
579.58	1800.16
579.77	1734.63
579.97	1791.97
580.16	1839.08
580.36	1841.12
580.55	1824.74
580.75	1812.45
580.94	1746.92
581.13	1869.80
581.33	1832.93
581.52	1714.15
581.72	1931.23
581.91	1806.31
582.11	1832.93
582.30	1783.78
582.49	1806.31
582.69	1859.56
582.88	1759.21
583.08	1730.53
583.27	1849.32
583.47	1773.54
583.66	1757.16
583.85	1675.24
584.05	1699.81
584.24	1812.45
584.44	1787.88
584.63	1767.40
584.82	1800.16
585.02	1810.40
585.21	1796.07
585.41	1904.61
585.60	1755.11
585.79	1824.74
585.99	1951.71
586.18	1796.07
586.37	2127.84
586.57	3301.33
586.76	9686.89
586.96	23953.04
587.15	33584.64
587.34	39550.37
587.54	41299.34
587.73	35864.03
587.93	25822.84
588.12	21120.70
588.31	17733.36
588.51	16090.89
588.70	14784.29
588.89	13799.21
589.09	12013.38
589.28	10835.80
589.47	9332.59
589.67	7884.68
589.86	6285.22
590.06	4796.34
590.25	3819.46
590.44	3098.58
590.64	2570.20
590.83	2230.24
591.02	2050.02
591.22	1916.90
591.41	1908.71
591.60	1886.18
591.80	1871.84
591.99	1785.83
592.18	1767.40
592.38	1920.99
592.57	1695.72
592.76	1802.21
592.96	1800.16
593.15	1798.12
593.34	1855.46
593.54	1740.77
593.73	1722.34
593.92	1804.26
594.12	1744.87
594.31	1748.97
594.50	1775.59
594.70	1761.25
594.89	1904.61
595.08	1701.86
595.28	1667.05
595.47	1902.56
595.66	1789.92
595.86	1708.01
596.05	1718.25
596.24	1720.29
596.43	1820.64
596.63	1736.68
596.82	1716.20
597.01	1667.05
597.21	1814.50
597.40	1773.54
597.59	1775.59
597.79	1748.97
597.98	1785.83
598.17	1796.07
598.36	1775.59
598.56	1769.44
598.75	1705.96
598.94	1753.06
599.14	1769.44
599.33	1671.14
599.52	1806.31
599.71	1730.53
599.91	1804.26
600.10	1818.60
600.29	1763.30
600.48	1853.41
600.68	1763.30
600.87	1779.68
601.06	1718.25
601.26	1693.67
601.45	1781.73
601.64	1734.63
601.83	1755.11
602.03	1703.91
602.22	1644.52
602.41	1824.74
602.60	1755.11
602.80	1789.92
602.99	1730.53
603.18	1660.90
603.37	1738.73
603.57	1751.01
603.76	1773.54
603.95	1769.44
604.14	1679.33
604.34	1646.57
604.53	1779.68
604.72	1771.49
604.91	1740.77
605.10	1732.58
605.30	1632.23
605.49	1857.51
605.68	1751.01
605.87	1771.49
606.07	1697.77
606.26	1740.77
606.45	1773.54
606.64	1744.87
606.84	1630.18
607.03	1695.72
607.22	1777.64
607.41	1669.09
607.60	1730.53
607.80	1720.29
607.99	1648.61
608.18	1755.11
608.37	1785.83
608.56	1701.86
608.76	1761.25
608.95	1814.50
609.14	1787.88
609.33	1755.11
609.52	1871.84
609.72	1781.73
609.91	1775.59
610.10	1808.36
610.29	1834.98
610.48	1730.53
610.68	1710.05
610.87	1685.48
611.06	1746.92
611.25	1740.77
611.44	1863.65
611.63	1767.40
611.83	1753.06
612.02	1683.43
612.21	1800.16
612.40	1617.90
612.59	1722.34
612.79	1681.38
612.98	1724.39
613.17	1865.70
613.36	1775.59
613.55	1802.21
613.74	1722.34
613.93	1728.49
614.13	1720.29
614.32	1755.11
614.51	1779.68
614.70	1681.38
614.89	1679.33
615.08	1742.82
615.28	2066.40
615.47	1634.28
615.66	1763.30
615.85	1724.39
616.04	1859.56
616.23	1660.90
616.42	1781.73
616.62	1685.48
616.81	1722.34
617.00	1755.11
617.19	1734.63
617.38	1742.82
617.57	1777.64
617.76	1769.44
617.95	1708.01
618.15	1769.44
618.34	1812.45
618.53	1636.33
618.72	1712.10
618.91	1791.97
619.10	1794.02
619.29	1726.44
619.48	1742.82
619.68	1681.38
619.87	1660.90
620.06	1665.00
620.25	1769.44
620.44	1783.78
620.63	1687.53
620.82	1728.49
621.01	1724.39
621.20	1679.33
621.39	1779.68
621.59	1796.07
621.78	1673.19
621.97	1679.33
622.16	1839.08
622.35	1710.05
622.54	1744.87
622.73	1806.31
622.92	1634.28
623.11	1753.06
623.30	1757.16
623.49	1748.97
623.68	1697.77
623.88	1826.79
624.07	1679.33
624.26	1652.71
624.45	1710.05
624.64	1693.67
624.83	1720.29
625.02	1722.34
625.21	1705.96
625.40	1755.11
625.59	1759.21
625.78	1714.15
625.97	1767.40
626.16	1726.44
626.35	1746.92
626.54	1685.48
626.74	1800.16
626.93	1689.57
627.12	1748.97
627.31	1712.10
627.50	1724.39
627.69	1759.21
627.88	1693.67
628.07	1732.58
628.26	1656.81
628.45	1667.05
628.64	1650.66
628.83	1705.96
629.02	1662.95
629.21	1757.16
629.40	1726.44
629.59	1613.80
629.78	1693.67
629.97	1812.45
630.16	1769.44
630.35	1669.09
630.54	1628.14
630.73	1665.00
630.92	1681.38
631.11	1687.53
631.30	1818.60
631.49	1802.21
631.68	1773.54
631.87	1783.78
632.06	1697.77
632.25	1818.60
632.44	1746.92
632.63	1675.24
632.82	1716.20
633.01	1644.52
633.20	1738.73
633.39	1695.72
633.58	1736.68
633.77	1734.63
633.96	1787.88
634.15	1751.01
634.34	1765.35
634.53	1748.97
634.72	1712.10
634.91	1679.33
635.10	1800.16
635.29	1767.40
635.48	1771.49
635.67	1757.16
635.86	1628.14
636.05	1718.25
636.24	1724.39
636.43	1785.83
636.62	1726.44
636.81	1619.94
637.00	1746.92
637.19	1787.88
637.38	1665.00
637.57	1689.57
637.76	1697.77
637.95	1767.40
638.14	1658.85
638.33	1705.96
638.52	1708.01
638.71	1642.47
638.89	1673.19
639.08	1900.52
639.27	1816.55
639.46	1669.09
639.65	1810.40
639.84	1699.81
640.03	1824.74
640.22	1689.57
640.41	1832.93
640.60	1685.48
640.79	1746.92
640.98	1675.24
641.17	1712.10
641.36	1783.78
641.55	1710.05
641.74	1646.57
641.92	1619.94
642.11	1656.81
642.30	1736.68
642.49	1669.09
642.68	1689.57
642.87	1755.11
643.06	1804.26
643.25	1730.53
643.44	1718.25
643.63	1650.66
643.82	1689.57
644.00	1677.29
644.19	1722.34
644.38	1648.61
644.57	1767.40
644.76	1736.68
644.95	1673.19
645.14	1732.58
645.33	1726.44
645.52	1703.91
645.71	1634.28
645.89	1599.46
646.08	1591.27
646.27	1716.20
646.46	1765.35
646.65	1605.61
646.84	1753.06
647.03	1671.14
647.22	1816.55
647.40	1689.57
647.59	1847.27
647.78	1605.61
647.97	1646.57
648.16	1595.37
648.35	1810.40
648.54	1746.92
648.73	1665.00
648.91	1748.97
649.10	1701.86
649.29	1660.90
649.48	1660.90
649.67	1697.77
649.86	1683.43
650.05	1652.71
650.23	1742.82
650.42	1685.48
650.61	1738.73
650.80	1705.96
650.99	1822.69
651.18	1832.93
651.36	1765.35
651.55	1712.10
651.74	1777.64
651.93	1701.86
652.12	1697.77
652.31	1683.43
652.49	1798.12
652.68	1665.00
652.87	1716.20
653.06	1679.33
653.25	1828.84
653.44	1628.14
653.62	1785.83
653.81	1730.53
654.00	1685.48
654.19	1822.69
654.38	1816.55
654.56	1753.06
654.75	1722.34
654.94	1834.98
655.13	1720.29
655.32	1687.53
655.51	1773.54
655.69	1738.73
655.88	1703.91
656.07	1621.99
656.26	1765.35
656.45	1566.70
656.63	1710.05
656.82	1738.73
657.01	1757.16
657.20	1693.67
657.38	1789.92
657.57	1621.99
657.76	1697.77
657.95	1720.29
658.14	1695.72
658.32	1714.15
658.51	1617.90
658.70	1757.16
658.89	1742.82
659.08	1748.97
659.26	1755.11
659.45	1671.14
659.64	1697.77
659.83	1665.00
660.01	1949.67
660.20	1701.86
660.39	1806.31
660.58	1638.38
660.76	1777.64
660.95	1705.96
661.14	1800.16
661.33	1658.85
661.51	1667.05
661.70	1687.53
661.89	1689.57
662.08	1777.64
662.26	1665.00
662.45	1634.28
662.64	1732.58
662.83	1810.40
663.01	1662.95
663.20	1724.39
663.39	1794.02
663.58	1695.72
663.76	1662.95
663.95	1693.67
664.14	1679.33
664.32	1716.20
664.51	1615.85
664.70	1662.95
664.89	1716.20
665.07	1669.09
665.26	1820.64
665.45	1644.52
665.64	1767.40
665.82	1746.92
666.01	1718.25
666.20	1708.01
666.38	1740.77
666.57	1759.21
666.76	2125.79
666.95	4360.13
667.13	10000.23
667.32	14989.08
667.51	17274.62
667.69	18425.57
667.88	17098.49
668.07	12019.53
668.25	9279.35
668.44	7915.40
668.63	7296.91
668.81	6715.29
669.00	6115.23
669.19	5597.10
669.38	5027.76
669.56	4442.04
669.75	3780.55
669.94	3395.53
670.12	2832.34
670.31	2416.60
670.50	2279.39
670.68	2019.30
670.87	1888.23
671.06	1763.30
671.24	1777.64
671.43	1837.03
671.62	1736.68
671.80	1748.97
671.99	1769.44
672.18	1751.01
672.36	1714.15
672.55	1812.45
672.74	1695.72
672.92	1679.33
673.11	1736.68
673.29	1675.24
673.48	1751.01
673.67	1771.49
673.85	1796.07
674.04	1712.10
674.23	1763.30
674.41	1847.27
674.60	1648.61
674.79	1540.07
674.97	1687.53
675.16	1763.30
675.34	1720.29
675.53	1597.42
675.72	1685.48
675.90	1877.99
676.09	1710.05
676.28	1669.09
676.46	1705.96
676.65	1728.49
676.83	1675.24
677.02	1673.19
677.21	1746.92
677.39	1708.01
677.58	1705.96
677.77	1671.14
677.95	1646.57
678.14	1722.34
678.32	1757.16
678.51	1648.61
678.70	1839.08
678.88	1691.62
679.07	1751.01
679.25	1724.39
679.44	1683.43
679.63	1615.85
679.81	1716.20
680.00	1794.02
680.18	1738.73
680.37	1746.92
680.55	1701.86
680.74	1603.56
680.93	1607.66
681.11	1714.15
681.30	1724.39
681.48	1677.29
681.67	1701.86
681.85	1687.53
682.04	1660.90
682.23	1708.01
682.41	1773.54
682.60	1630.18
682.78	1695.72
682.97	1714.15
683.15	1710.05
683.34	1720.29
683.53	1779.68
683.71	1671.14
683.90	1812.45
684.08	1810.40
684.27	1665.00
684.45	1601.51
684.64	1759.21
684.82	1691.62
685.01	1648.61
685.19	1609.70
685.38	1787.88
685.57	1705.96
685.75	1726.44
685.94	1628.14
686.12	1624.04
686.31	1697.77
686.49	1789.92
686.68	1638.38
686.86	1722.34
687.05	1714.15
687.23	1810.40
687.42	1744.87
687.60	1642.47
687.79	1826.79
687.97	1802.21
688.16	1693.67
688.34	1710.05
688.53	1611.75
688.71	1644.52
688.90	1726.44
689.08	1724.39
689.27	1626.09
689.45	1775.59
689.64	1697.77
689.82	1767.40
690.01	1744.87
690.19	1636.33
690.38	1714.15
690.56	1779.68
690.75	1615.85
690.93	1732.58
691.12	1640.42
691.30	1640.42
691.49	1720.29
691.67	1708.01
691.86	1820.64
692.04	1701.86
692.23	1640.42
692.41	1683.43
692.60	1826.79
692.78	1791.97
692.97	1691.62
693.15	1748.97
693.34	1800.16
693.52	1769.44
693.71	1691.62
693.89	1722.34
694.08	1656.81
694.26	1755.11
694.44	1771.49
694.63	1728.49
694.81	1587.18
695.00	1630.18
695.18	1759.21
695.37	1882.08
695.55	1789.92
695.74	1683.43
695.92	1665.00
696.10	1802.21
696.29	1662.95
696.47	1638.38
696.66	1628.14
696.84	1679.33
697.03	1730.53
697.21	1783.78
697.40	2234.33
697.58	1789.92
697.76	1667.05
697.95	1628.14
698.13	1677.29
698.32	1652.71
698.50	1761.25
698.68	1685.48
698.87	1771.49
699.05	1798.12
699.24	1636.33
699.42	1701.86
699.61	1789.92
699.79	1779.68
699.97	1617.90
700.16	1646.57
700.34	1628.14
700.53	1710.05
700.71	1748.97
700.89	1769.44
701.08	1677.29
701.26	1697.77
701.45	2084.83
701.63	1650.66
701.81	1710.05
702.00	1703.91
702.18	1660.90
702.37	1583.08
702.55	1730.53
702.73	1779.68
702.92	1675.24
703.10	1746.92
703.28	1710.05
703.47	1675.24
703.65	1734.63
703.84	1705.96
704.02	1683.43
704.20	1837.03
704.39	1755.11
704.57	1683.43
704.75	1761.25
704.94	1746.92
705.12	1708.01
705.30	1761.25
705.49	2207.71
705.67	4206.53
705.86	9215.86
706.04	12578.62
706.22	14251.81
706.41	14952.22
706.59	13303.60
706.77	9332.59
706.96	7202.71
707.14	6557.60
707.32	5789.61
707.51	5566.38
707.69	4921.27
707.87	4044.74
708.06	3471.31
708.24	2983.89
708.42	2459.61
708.61	2215.90
708.79	1910.75
708.97	1892.32
709.16	1824.74
709.34	1699.81
709.52	1699.81
709.71	1689.57
709.89	1769.44
710.07	1714.15
710.26	1669.09
710.44	1761.25
710.62	1767.40
710.80	1740.77
710.99	1738.73
711.17	1708.01
711.35	1675.24
711.54	1681.38
711.72	1738.73
711.90	1732.58
712.09	1722.34
712.27	1730.53
712.45	1708.01
712.63	1697.77
712.82	1714.15
713.00	1744.87
713.18	1773.54
713.37	1662.95
713.55	1771.49
713.73	1669.09
713.91	1675.24
714.10	1669.09
714.28	1681.38
714.46	1802.21
714.65	1746.92
714.83	1761.25
715.01	1757.16
715.19	1722.34
715.38	1691.62
715.56	1771.49
715.74	1632.23
715.92	1683.43
716.11	1841.12
716.29	1624.04
716.47	1667.05
716.65	1691.62
716.84	1621.99
717.02	1828.84
717.20	1619.94
717.38	1746.92
717.57	1712.10
717.75	1708.01
717.93	1683.43
718.11	1757.16
718.30	1673.19
718.48	1724.39
718.66	1720.29
718.84	1751.01
719.03	1699.81
719.21	1628.14
719.39	1794.02
719.57	1691.62
719.75	1802.21
719.94	1624.04
720.12	1675.24
720.30	1736.68
720.48	1800.16
720.67	1650.66
720.85	1669.09
721.03	1619.94
721.21	1665.00
721.39	1794.02
721.58	1757.16
721.76	1738.73
721.94	1716.20
722.12	1755.11
722.30	1757.16
722.49	1689.57
722.67	1724.39
722.85	1732.58
723.03	1642.47
723.21	1691.62
723.40	1763.30
723.58	1716.20
723.76	1775.59
723.94	1773.54
724.12	1716.20
724.30	1722.34
724.49	1773.54
724.67	1609.70
724.85	1767.40
725.03	1578.98
725.21	1703.91
725.40	1787.88
725.58	1665.00
725.76	1736.68
725.94	1701.86
726.12	1589.22
726.30	1722.34
726.49	1757.16
726.67	1632.23
726.85	1744.87
727.03	1705.96
727.21	2101.22
727.39	2830.29
727.57	3733.45
727.76	4124.61
727.94	4310.97
728.12	4323.26
728.30	3674.06
728.48	2858.96
728.66	2734.04
728.84	2553.82
729.03	2252.77
729.21	2164.70
729.39	1896.42
729.57	1867.75
729.75	1804.26
729.93	1828.84
730.11	1689.57
730.30	1710.05
730.48	1722.34
730.66	1775.59
730.84	1779.68
731.02	1771.49
731.20	1714.15
731.38	1757.16
731.56	1570.79
731.74	1675.24
731.93	1716.20
732.11	1689.57
732.29	1726.44
732.47	1652.71
732.65	1691.62
732.83	1791.97
733.01	1736.68
733.19	1605.61
733.37	1683.43
733.56	1712.10
733.74	1656.81
733.92	1773.54
734.10	1705.96
734.28	1652.71
734.46	1599.46
734.64	1679.33
734.82	1738.73
735.00	1630.18
735.18	1609.70
735.36	1742.82
735.54	1658.85
735.73	1734.63
735.91	1755.11
736.09	1751.01
736.27	1720.29
736.45	1757.16
736.63	1634.28
736.81	1705.96
736.99	1732.58
737.17	1787.88
737.35	1675.24
737.53	1826.79
737.71	1740.77
737.89	1722.34
738.07	1697.77
738.25	1703.91
738.43	1583.08
738.61	1734.63
738.80	1619.94
738.98	1607.66
739.16	1617.90
739.34	1656.81
739.52	1777.64
739.70	1609.70
739.88	1826.79
740.06	1783.78
740.24	1640.42
740.42	1712.10
740.60	1634.28
740.78	1660.90
740.96	1665.00
741.14	1677.29
741.32	1681.38
741.50	1642.47
741.68	1800.16
741.86	1822.69
742.04	1626.09
742.22	1722.34
742.40	1673.19
742.58	1777.64
742.76	1636.33
742.94	1738.73
743.12	1603.56
743.30	1726.44
743.48	1658.85
743.66	1624.04
743.84	1718.25
744.02	1656.81
744.20	1632.23
744.38	1644.52
744.56	1634.28
744.74	1800.16
744.92	1744.87
745.10	1775.59
745.28	1736.68
745.46	1783.78
745.64	1667.05
745.82	1777.64
746.00	1738.73
746.18	1677.29
746.36	1671.14
746.54	1763.30
746.72	1710.05
746.90	1679.33
747.08	1736.68
747.26	1665.00
747.44	1810.40
747.62	1730.53
747.80	1703.91
747.98	1712.10
748.15	1660.90
748.33	1763.30
748.51	1738.73
748.69	1726.44
748.87	1648.61
749.05	1613.80
749.23	1699.81
749.41	1714.15
749.59	1669.09
749.77	1701.86
749.95	1714.15
750.13	1660.90
750.31	1699.81
750.49	1718.25
750.67	1787.88
750.85	1703.91
751.03	1740.77
751.20	1761.25
751.38	1626.09
751.56	1722.34
751.74	1732.58
751.92	1716.20
752.10	1642.47
752.28	1816.55
752.46	1689.57
752.64	1703.91
752.82	1656.81
753.00	1748.97
753.18	1665.00
753.35	1693.67
753.53	1755.11
753.71	1656.81
753.89	1673.19
754.07	1705.96
754.25	1673.19
754.43	1624.04
754.61	1638.38
754.79	1701.86
754.97	1671.14
755.14	1679.33
755.32	1587.18
755.50	1656.81
755.68	1644.52
755.86	1673.19
756.04	1615.85
756.22	1613.80
756.40	1738.73
756.57	1789.92
756.75	1660.90
756.93	1753.06
757.11	1718.25
757.29	1710.05
757.47	1710.05
757.65	1605.61
757.82	1587.18
758.00	1673.19
758.18	1636.33
758.36	1716.20
758.54	1779.68
758.72	1595.37
758.90	1689.57
759.07	1687.53
759.25	1632.23
759.43	1683.43
759.61	1662.95
759.79	2191.33
759.97	1734.63
760.15	1685.48
760.32	1714.15
760.50	1683.43
760.68	1802.21
760.86	1695.72
761.04	1724.39
761.22	1695.72
761.39	1691.62
761.57	1710.05
761.75	1687.53
761.93	1652.71
762.11	1742.82
762.28	1701.86
762.46	1634.28
762.64	1791.97
762.82	1658.85
763.00	1685.48
763.18	1779.68
763.35	1662.95
763.53	1695.72
763.71	1654.76
763.89	1695.72
764.07	1708.01
764.24	1720.29
764.42	1787.88
764.60	1691.62
764.78	1671.14
764.96	1755.11
765.13	1765.35
765.31	1699.81
765.49	1695.72
765.67	1632.23
765.84	1697.77
766.02	1695.72
766.20	1595.37
766.38	1665.00
766.56	1714.15
766.73	1693.67
766.91	1728.49
767.09	1712.10
767.27	1660.90
767.44	1689.57
767.62	1765.35
767.80	1701.86
767.98	1701.86
768.15	1710.05
768.33	1734.63
768.51	1736.68
768.69	1751.01
768.87	1714.15
769.04	1738.73
769.22	1857.51
769.40	1787.88
769.58	1806.31
769.75	1658.85
769.93	1796.07
770.11	1748.97
770.28	1658.85
770.46	1640.42
770.64	1748.97
770.82	1673.19
770.99	1640.42
771.17	1730.53
771.35	1722.34
771.53	1675.24
771.70	1660.90
771.88	1660.90
772.06	1759.21
772.23	1619.94
772.41	1718.25
772.59	1665.00
772.77	1650.66
772.94	1691.62
773.12	1681.38
773.30	1669.09
773.47	1761.25
773.65	1689.57
773.83	1744.87
774.01	1667.05
774.18	1656.81
774.36	1640.42
774.54	1687.53
774.71	1759.21
774.89	1650.66
775.07	1720.29
775.24	1716.20
775.42	1730.53
775.60	1791.97
775.78	1638.38
775.95	1589.22
776.13	1636.33
776.31	1578.98
776.48	1767.40
776.66	1746.92
776.84	1734.63
777.01	1652.71
777.19	1607.66
777.37	1701.86
777.54	1675.24
777.72	1812.45
777.90	1740.77
778.07	1581.03
778.25	1818.60
778.43	1658.85
778.60	1650.66
778.78	1757.16
778.96	1748.97
779.13	1581.03
779.31	1720.29
779.49	1761.25
779.66	1652.71
779.84	1693.67
780.01	1703.91
780.19	1652.71
780.37	1734.63
780.54	1742.82
780.72	1642.47
780.90	1689.57
781.07	1718.25
781.25	1667.05
781.43	1755.11
781.60	1681.38
781.78	1746.92
781.95	1736.68
782.13	1624.04
782.31	1691.62
782.48	1595.37
782.66	1611.75
782.83	1765.35
783.01	1687.53
783.19	1800.16
783.36	1712.10
783.54	1632.23
783.72	1886.18
783.89	1669.09
784.07	1636.33
784.24	1787.88
784.42	1753.06
784.60	1765.35
784.77	1759.21
784.95	1554.41
785.12	1624.04
785.30	1673.19
785.47	1634.28
785.65	1685.48
785.83	1658.85
786.00	1652.71
786.18	1648.61
786.35	1642.47
786.53	1656.81
786.71	1738.73
786.88	1724.39
787.06	1730.53
787.23	1705.96
787.41	1648.61
787.58	1730.53
787.76	1650.66
787.94	1746.92
788.11	1742.82
788.29	1595.37
788.46	1634.28
788.64	1693.67
788.81	1746.92
788.99	1705.96
789.16	1562.60
789.34	1714.15
789.52	1705.96
789.69	1689.57
789.87	1562.60
790.04	1730.53
790.22	1669.09
790.39	1763.30
790.57	1626.09
790.74	1685.48
790.92	1757.16
791.09	1632.23
791.27	1724.39
791.44	1763.30
791.62	1662.95
791.79	1748.97
791.97	1636.33
792.15	1812.45
792.32	1804.26
792.50	1716.20
792.67	1814.50
792.85	1816.55
793.02	1669.09
793.20	1665.00
793.37	1630.18
793.55	1751.01
793.72	1662.95
793.90	1748.97
794.07	1660.90
794.25	1697.77
794.42	1718.25
794.60	1677.29
794.77	1705.96
794.95	1748.97
795.12	1763.30
795.30	1710.05
795.47	1636.33
795.65	1808.36
795.82	1685.48
796.00	1705.96
796.17	1626.09
796.34	1634.28
796.52	1728.49
796.69	1726.44
796.87	1773.54
797.04	1712.10
797.22	1734.63
797.39	1683.43
797.57	1714.15
797.74	1673.19
797.92	1708.01
798.09	1744.87
798.27	1740.77
798.44	1746.92
798.62	1628.14
798.79	1699.81
798.96	1656.81
799.14	1654.76
799.31	1832.93
799.49	1685.48
799.66	1695.72
799.84	1796.07
800.01	1693.67
800.19	1669.09
800.36	1634.28
800.53	1738.73
800.71	1628.14
800.88	1791.97
801.06	1748.97
801.23	1714.15
801.41	1712.10
801.58	1658.85
801.75	1626.09
801.93	1794.02
802.10	1744.87
802.28	1744.87
802.45	1705.96
802.63	1759.21
802.80	1736.68
802.97	1701.86
803.15	1791.97
803.32	1665.00
803.50	1650.66
803.67	1619.94
803.84	1599.46
804.02	1689.57
804.19	1689.57
804.37	1626.09
804.54	1636.33
804.71	1667.05
804.89	1658.85
805.06	1630.18
805.24	1634.28
805.41	1624.04
805.58	1695.72
805.76	1814.50
805.93	1732.58
806.10	1806.31
806.28	1732.58
806.45	1738.73
806.63	1759.21
806.80	1718.25
806.97	1699.81
807.15	1722.34
807.32	1726.44
807.49	1789.92
807.67	1644.52
807.84	1746.92
808.01	1693.67
808.19	1863.65
808.36	1767.40
808.54	1650.66
808.71	1726.44
808.88	1599.46
809.06	1683.43
809.23	1802.21
809.40	1597.42
809.58	1701.86
809.75	1675.24
809.92	1654.76
810.10	1816.55
810.27	1638.38
810.44	1716.20
810.62	1724.39
810.79	1642.47
810.96	1697.77
811.14	1716.20
811.31	1773.54
811.48	1683.43
811.66	1697.77
811.83	1796.07
812.00	1722.34
812.18	1736.68
812.35	1839.08
812.52	1648.61
812.69	1677.29
812.87	1701.86
813.04	1642.47
813.21	1619.94
813.39	1673.19
813.56	1642.47
813.73	1755.11
813.91	1648.61
814.08	1683.43
814.25	1691.62
814.42	1648.61
814.60	1765.35
814.77	1755.11
814.94	1693.67
815.12	1726.44
815.29	1763.30
815.46	1634.28
815.63	1714.15
815.81	1652.71
815.98	1617.90
816.15	1687.53
816.33	1699.81
816.50	1626.09
816.67	1746.92
816.84	1691.62
817.02	1683.43
817.19	1640.42
817.36	1718.25
817.53	1708.01
817.71	1650.66
817.88	1681.38
818.05	1681.38
818.22	1708.01
818.40	1828.84
818.57	1699.81
818.74	1697.77
818.91	1644.52
819.09	1691.62
819.26	1742.82
819.43	1660.90
819.60	1662.95
819.78	1685.48
819.95	1804.26
820.12	1562.60
820.29	1736.68
820.47	1703.91
820.64	1695.72
820.81	1695.72
820.98	1665.00
821.15	1665.00
821.33	1746.92
821.50	1652.71
821.67	1746.92
821.84	1705.96
822.02	1742.82
822.19	1724.39
822.36	1689.57
822.53	1607.66
822.70	1714.15
822.88	1617.90
823.05	1787.88
823.22	1689.57
823.39	1681.38
823.56	1714.15
823.74	1804.26
823.91	1619.94
824.08	1617.90
824.25	1624.04
824.42	1736.68
824.60	1708.01
824.77	1787.88
824.94	1644.52
825.11	1656.81
825.28	1644.52
825.45	1787.88
825.63	1720.29
825.80	1624.04
825.97	1761.25
826.14	1658.85
826.31	1626.09
826.48	1673.19
826.66	1669.09
826.83	1648.61
827.00	1681.38
827.17	1609.70
827.34	1656.81
827.51	1648.61
827.69	1650.66
827.86	1624.04
828.03	1624.04
828.20	1626.09
828.37	1689.57
828.54	1730.53
828.71	1658.85
828.89	1843.17
829.06	1675.24
829.23	1703.91
829.40	1701.86
829.57	1648.61
829.74	1701.86
829.91	1644.52
830.09	1605.61
830.26	1730.53
830.43	1791.97
830.60	1722.34
830.77	1804.26
830.94	1722.34
831.11	1818.60
831.28	1619.94
831.46	1785.83
831.63	1712.10
831.80	1751.01
831.97	1595.37
832.14	1701.86
832.31	1777.64
832.48	1673.19
832.65	1710.05
832.82	1697.77
832.99	1662.95
833.17	1650.66
833.34	1746.92
833.51	1628.14
833.68	1601.51
833.85	1763.30
834.02	1662.95
834.19	1644.52
834.36	1658.85
834.53	1763.30
834.70	1734.63
834.87	1722.34
835.04	1722.34
835.22	1648.61
835.39	1669.09
835.56	1619.94
835.73	1732.58
835.90	1759.21
836.07	1581.03
836.24	1718.25
836.41	1650.66
836.58	1662.95
836.75	1726.44
836.92	1681.38
837.09	1650.66
837.26	1650.66
837.43	1656.81
837.60	1746.92
837.77	1681.38
837.94	1677.29
838.12	1724.39
838.29	1705.96
838.46	1628.14
838.63	1591.27
838.80	1828.84
838.97	1683.43
839.14	1755.11
839.31	1732.58
839.48	1691.62
839.65	1697.77
839.82	1810.40
839.99	1689.57
840.16	1685.48
840.33	1642.47
840.50	1763.30
840.67	1611.75
840.84	1613.80
841.01	1730.53
841.18	1587.18
841.35	1667.05
841.52	1714.15
841.69	1787.88
841.86	1683.43
842.03	1656.81
842.20	1701.86
842.37	1708.01
842.54	1728.49
842.71	1656.81
842.88	1619.94
843.05	1699.81
843.22	1681.38
843.39	1712.10
843.56	1660.90
843.73	1726.44
843.90	1740.77
844.07	1726.44
844.24	1724.39
844.41	1753.06
844.58	1638.38
844.75	1662.95
844.92	1746.92
845.09	1671.14
845.26	1652.71
845.43	1691.62
845.60	1652.71
845.77	1751.01
845.94	1683.43
846.10	1783.78
846.27	1566.70
846.44	1660.90
846.61	1634.28
846.78	1693.67
846.95	1699.81
847.12	1695.72
847.29	1677.29
847.46	1703.91
847.63	1714.15
847.80	1691.62
847.97	1701.86
848.14	1826.79
848.31	1673.19
848.48	1587.18
848.65	1710.05
848.82	1697.77
848.98	1896.42
849.15	1738.73
849.32	1773.54
849.49	1787.88
849.66	1710.05
849.83	1677.29
850.00	1611.75
850.17	1691.62
850.34	1673.19
850.51	1697.77
850.68	1660.90
850.85	1763.30
851.01	1726.44
851.18	1708.01
851.35	1689.57
851.52	1712.10
851.69	1759.21
851.86	1652.71
852.03	1669.09
852.20	1640.42
852.37	1693.67
852.53	1730.53
852.70	1681.38
852.87	1687.53
853.04	1742.82
853.21	1753.06
853.38	1703.91
853.55	1808.36
853.72	1765.35
853.89	1617.90
854.05	1724.39
854.22	1685.48
854.39	1722.34
854.56	1648.61
854.73	1771.49
854.90	1718.25
855.07	1689.57
855.23	1597.42
855.40	1693.67
855.57	1683.43
855.74	1671.14
855.91	1875.94
856.08	1601.51
856.25	1697.77
856.41	1648.61
856.58	1665.00
856.75	1703.91
856.92	1652.71
857.09	1720.29
857.26	1669.09
857.42	1671.14
857.59	1757.16
857.76	1718.25
857.93	1718.25
858.10	1740.77
858.27	1669.09
858.43	1685.48
858.60	1628.14
858.77	1599.46
858.94	1619.94
859.11	1814.50
859.27	1728.49
859.44	1748.97
859.61	1744.87
859.78	1771.49
859.95	1648.61
860.12	1695.72
860.28	1748.97
860.45	1822.69
860.62	1699.81
860.79	1699.81
860.95	1693.67
861.12	1675.24
861.29	1650.66
861.46	1679.33
861.63	1667.05
861.79	1730.53
861.96	1624.04
862.13	1669.09
862.30	1755.11
862.47	1615.85
862.63	1640.42
862.80	1710.05
862.97	1738.73
863.14	1712.10
863.30	1769.44
863.47	1683.43
863.64	1763.30
863.81	1787.88
863.97	1705.96
864.14	1722.34
864.31	1677.29
864.48	1771.49
864.65	1683.43
864.81	1736.68
864.98	1728.49
865.15	1722.34
865.32	1708.01
865.48	1708.01
865.65	1802.21
865.82	1691.62
865.98	1708.01
866.15	1720.29
866.32	1755.11
866.49	1691.62
866.65	1712.10
866.82	1626.09
866.99	1669.09
867.16	1652.71
867.32	1693.67
867.49	1673.19
867.66	1736.68
867.83	1607.66
867.99	1583.08
868.16	1658.85
868.33	1671.14
868.49	1705.96
868.66	1748.97
868.83	1769.44
868.99	1705.96
869.16	1761.25
869.33	1849.32
869.50	1738.73
869.66	1773.54
869.83	1679.33
870.00	1599.46
870.16	1734.63
870.33	1648.61
870.50	1767.40
870.66	1689.57
870.83	1898.47
871.00	1791.97
871.17	1652.71
871.33	1652.71
871.50	1751.01
871.67	1665.00
871.83	1624.04
872.00	1777.64
872.17	1656.81
872.33	1757.16
872.50	1791.97
872.67	1681.38
872.83	1708.01
873.00	1697.77
873.17	1677.29
873.33	1697.77
873.50	1669.09
873.67	1619.94
873.83	1628.14
874.00	1644.52
874.16	1738.73
874.33	1742.82
874.50	1652.71
874.66	1773.54
874.83	1693.67
875.00	1808.36
875.16	1718.25
875.33	1751.01
875.50	1665.00
875.66	1660.90
875.83	1708.01
875.99	1712.10
876.16	1689.57
876.33	1660.90
876.49	1669.09
876.66	1787.88
876.83	1642.47
876.99	1583.08
877.16	1652.71
877.32	1734.63
877.49	1642.47
877.66	1656.81
877.82	1818.60
877.99	1708.01
878.15	1771.49
878.32	1712.10
878.49	1701.86
878.65	1730.53
878.82	1755.11
878.98	1665.00
879.15	1734.63
879.32	1746.92
879.48	1787.88
879.65	1683.43
879.81	1726.44
879.98	1615.85
880.15	1701.86
880.31	1722.34
880.48	1673.19
880.64	1726.44
880.81	1767.40
880.97	1783.78
881.14	1798.12
881.31	1669.09
881.47	1800.16
881.64	1705.96
881.80	1705.96
881.97	1724.39
882.13	1751.01
882.30	1638.38
882.47	1675.24
882.63	1683.43
882.80	1611.75
882.96	1597.42
883.13	1755.11
883.29	1658.85
883.46	1701.86
883.62	1800.16
883.79	1699.81
883.95	1687.53
884.12	1665.00
884.29	1816.55
884.45	1720.29
884.62	1771.49
884.78	1654.76
884.95	1695.72
885.11	1656.81
885.28	1775.59
885.44	1714.15
885.61	1662.95
885.77	1738.73
885.94	1712.10
886.10	1718.25
886.27	1695.72
886.43	1791.97
886.60	1718.25
886.76	1642.47
886.93	1585.13
887.09	1708.01
887.26	1681.38
887.42	1662.95
887.59	1724.39
887.75	1773.54
887.92	1722.34
888.08	1699.81
888.25	1746.92
888.41	1755.11
888.58	1728.49
888.74	1644.52
888.91	1689.57
>>>>>End Processed Spectral Data<<<<<
