SpectraSuite Data File
++++++++++++++++++++++++++++++++++++
Date: Mon Jun 06 15:26:57 CEST 2016
User: root
Dark Spectrum Present: No
Reference Spectrum Present: No
Number of Sampled Component Spectra: 1
Spectrometers: USB4C02835
Integration Time (usec): 100000 (USB4C02835)
Spectra Averaged: 1 (USB4C02835)
Boxcar Smoothing: 0 (USB4C02835)
Correct for Electrical Dark: No (USB4C02835)
Strobe/Lamp Enabled: No (USB4C02835)
Correct for Detector Non-linearity: No (USB4C02835)
Correct for Stray Light: No (USB4C02835)
Number of Pixels in Processed Spectrum: 3648
>>>>>Begin Processed Spectral Data<<<<<
177.47	1470.44
177.69	1470.44
177.91	1470.44
178.13	1476.59
178.36	1462.25
178.58	1605.61
178.80	1656.81
179.02	1595.37
179.24	1632.23
179.46	1791.97
179.68	1724.39
179.90	1687.53
180.13	1724.39
180.35	1603.56
180.57	1742.82
180.79	1822.69
181.01	1708.01
181.23	1742.82
181.45	1841.12
181.67	1751.01
181.90	1753.06
182.12	1710.05
182.34	1644.52
182.56	1767.40
182.78	1746.92
183.00	1703.91
183.22	1691.62
183.44	1648.61
183.66	1898.47
183.89	1798.12
184.11	1791.97
184.33	1783.78
184.55	1781.73
184.77	1738.73
184.99	1660.90
185.21	1720.29
185.43	1886.18
185.65	1681.38
185.87	1722.34
186.10	1855.46
186.32	1845.22
186.54	1660.90
186.76	1755.11
186.98	1746.92
187.20	1638.38
187.42	1660.90
187.64	1695.72
187.86	1779.68
188.08	1708.01
188.30	1716.20
188.52	1640.42
188.75	1808.36
188.97	1871.84
189.19	1708.01
189.41	1640.42
189.63	1800.16
189.85	1689.57
190.07	1708.01
190.29	1718.25
190.51	1775.59
190.73	1648.61
190.95	1757.16
191.17	1830.88
191.39	1578.98
191.61	1697.77
191.84	1642.47
192.06	1767.40
192.28	1597.42
192.50	1853.41
192.72	1736.68
192.94	1714.15
193.16	1834.98
193.38	1798.12
193.60	1695.72
193.82	1667.05
194.04	1865.70
194.26	1769.44
194.48	1732.58
194.70	1671.14
194.92	1716.20
195.14	1765.35
195.36	1722.34
195.58	1705.96
195.80	1736.68
196.02	1605.61
196.24	1748.97
196.46	1701.86
196.69	1626.09
196.91	1900.52
197.13	1718.25
197.35	1708.01
197.57	1787.88
197.79	1757.16
198.01	1681.38
198.23	1804.26
198.45	1781.73
198.67	1642.47
198.89	1679.33
199.11	1724.39
199.33	1636.33
199.55	1607.66
199.77	1736.68
199.99	1763.30
200.21	1695.72
200.43	1732.58
200.65	1685.48
200.87	1593.32
201.09	1724.39
201.31	1724.39
201.53	1746.92
201.75	1748.97
201.97	1652.71
202.19	1669.09
202.41	1667.05
202.63	1845.22
202.85	1738.73
203.07	1738.73
203.29	1677.29
203.51	1685.48
203.73	1685.48
203.95	1898.47
204.17	1779.68
204.39	1791.97
204.61	1644.52
204.83	1687.53
205.05	1685.48
205.27	1783.78
205.49	1902.56
205.71	1816.55
205.93	1701.86
206.15	1675.24
206.37	1630.18
206.59	1685.48
206.81	1714.15
207.03	1726.44
207.25	1630.18
207.47	1751.01
207.69	1693.67
207.91	1769.44
208.13	1808.36
208.34	1667.05
208.56	1697.77
208.78	1740.77
209.00	1685.48
209.22	1660.90
209.44	1628.14
209.66	1615.85
209.88	1742.82
210.10	1705.96
210.32	1667.05
210.54	1794.02
210.76	1738.73
210.98	1720.29
211.20	1578.98
211.42	1677.29
211.64	1818.60
211.86	1699.81
212.08	1753.06
212.30	1746.92
212.52	1701.86
212.74	1796.07
212.96	1802.21
213.17	1773.54
213.39	1701.86
213.61	1810.40
213.83	1720.29
214.05	1679.33
214.27	1755.11
214.49	1671.14
214.71	1699.81
214.93	1701.86
215.15	1722.34
215.37	1738.73
215.59	1648.61
215.81	1851.36
216.03	1701.86
216.24	1742.82
216.46	1710.05
216.68	1705.96
216.90	1767.40
217.12	1785.83
217.34	1665.00
217.56	1689.57
217.78	1808.36
218.00	1738.73
218.22	1759.21
218.44	1683.43
218.66	1767.40
218.87	1773.54
219.09	1714.15
219.31	1720.29
219.53	1765.35
219.75	1722.34
219.97	1767.40
220.19	1734.63
220.41	1701.86
220.63	1687.53
220.85	1658.85
221.06	1716.20
221.28	1746.92
221.50	1728.49
221.72	1689.57
221.94	1701.86
222.16	1751.01
222.38	1640.42
222.60	1693.67
222.82	1687.53
223.03	1734.63
223.25	1691.62
223.47	1783.78
223.69	1859.56
223.91	1751.01
224.13	1701.86
224.35	1710.05
224.57	1806.31
224.78	1699.81
225.00	1677.29
225.22	1705.96
225.44	1730.53
225.66	1779.68
225.88	1642.47
226.10	1714.15
226.32	1722.34
226.53	1824.74
226.75	1753.06
226.97	1742.82
227.19	1722.34
227.41	1644.52
227.63	1712.10
227.85	1701.86
228.06	1673.19
228.28	1724.39
228.50	1853.41
228.72	1660.90
228.94	1697.77
229.16	1689.57
229.37	1710.05
229.59	1648.61
229.81	1771.49
230.03	1578.98
230.25	1652.71
230.47	1669.09
230.69	1667.05
230.90	1841.12
231.12	1689.57
231.34	1679.33
231.56	1767.40
231.78	1599.46
232.00	1703.91
232.21	1716.20
232.43	1720.29
232.65	1648.61
232.87	1701.86
233.09	1638.38
233.30	1644.52
233.52	1828.84
233.74	1753.06
233.96	1673.19
234.18	1720.29
234.40	1705.96
234.61	1812.45
234.83	1671.14
235.05	1566.70
235.27	1900.52
235.49	1736.68
235.70	1746.92
235.92	1820.64
236.14	1712.10
236.36	1816.55
236.58	1673.19
236.79	1787.88
237.01	1681.38
237.23	1712.10
237.45	1746.92
237.67	1632.23
237.88	1681.38
238.10	1888.23
238.32	1624.04
238.54	1695.72
238.76	1712.10
238.97	1716.20
239.19	1601.51
239.41	1783.78
239.63	1722.34
239.85	1646.57
240.06	1650.66
240.28	1759.21
240.50	1808.36
240.72	1695.72
240.93	1742.82
241.15	1785.83
241.37	1677.29
241.59	1787.88
241.81	1685.48
242.02	1683.43
242.24	1683.43
242.46	1767.40
242.68	1636.33
242.89	1714.15
243.11	1705.96
243.33	1697.77
243.55	1677.29
243.76	1658.85
243.98	1693.67
244.20	1746.92
244.42	1740.77
244.64	1789.92
244.85	1624.04
245.07	1675.24
245.29	1720.29
245.51	1632.23
245.72	1662.95
245.94	1730.53
246.16	1751.01
246.38	1695.72
246.59	1671.14
246.81	1574.89
247.03	1652.71
247.24	1607.66
247.46	1714.15
247.68	1687.53
247.90	1705.96
248.11	1662.95
248.33	1765.35
248.55	1748.97
248.77	1701.86
248.98	1791.97
249.20	1712.10
249.42	1742.82
249.64	1732.58
249.85	1738.73
250.07	1689.57
250.29	1730.53
250.50	1714.15
250.72	1656.81
250.94	1724.39
251.16	1810.40
251.37	1746.92
251.59	1742.82
251.81	1789.92
252.02	1808.36
252.24	1675.24
252.46	1820.64
252.68	1671.14
252.89	1683.43
253.11	1632.23
253.33	1763.30
253.54	1779.68
253.76	1648.61
253.98	1714.15
254.20	1689.57
254.41	1673.19
254.63	1716.20
254.85	1685.48
255.06	1779.68
255.28	1697.77
255.50	1628.14
255.71	1667.05
255.93	1685.48
256.15	1689.57
256.36	1714.15
256.58	1640.42
256.80	1708.01
257.02	1689.57
257.23	1665.00
257.45	1716.20
257.67	1830.88
257.88	1685.48
258.10	1767.40
258.32	1759.21
258.53	1814.50
258.75	1822.69
258.97	1665.00
259.18	1744.87
259.40	1705.96
259.62	1818.60
259.83	1732.58
260.05	1800.16
260.27	1992.67
260.48	1826.79
260.70	1689.57
260.92	1742.82
261.13	1740.77
261.35	1800.16
261.57	1697.77
261.78	1638.38
262.00	1716.20
262.22	1767.40
262.43	1589.22
262.65	1761.25
262.86	1689.57
263.08	1822.69
263.30	1693.67
263.51	1634.28
263.73	1660.90
263.95	1884.13
264.16	1617.90
264.38	1697.77
264.60	1751.01
264.81	1679.33
265.03	1785.83
265.25	1763.30
265.46	1685.48
265.68	1765.35
265.89	1724.39
266.11	1578.98
266.33	1714.15
266.54	1771.49
266.76	1791.97
266.98	1757.16
267.19	1841.12
267.41	1734.63
267.62	1656.81
267.84	1687.53
268.06	1746.92
268.27	1689.57
268.49	1806.31
268.70	1791.97
268.92	1730.53
269.14	1683.43
269.35	1669.09
269.57	1712.10
269.79	1767.40
270.00	1658.85
270.22	1763.30
270.43	1714.15
270.65	1562.60
270.87	1738.73
271.08	1716.20
271.30	1779.68
271.51	1718.25
271.73	1757.16
271.95	1849.32
272.16	1753.06
272.38	1769.44
272.59	1646.57
272.81	1724.39
273.02	1763.30
273.24	1830.88
273.46	1806.31
273.67	1652.71
273.89	1736.68
274.10	1656.81
274.32	1748.97
274.54	1757.16
274.75	1748.97
274.97	1658.85
275.18	1791.97
275.40	1744.87
275.61	1710.05
275.83	1675.24
276.05	1697.77
276.26	1673.19
276.48	1701.86
276.69	1691.62
276.91	1738.73
277.12	1853.41
277.34	1722.34
277.55	1855.46
277.77	1724.39
277.99	1763.30
278.20	1621.99
278.42	1699.81
278.63	1705.96
278.85	1662.95
279.06	1726.44
279.28	1689.57
279.49	1763.30
279.71	1755.11
279.93	1734.63
280.14	1763.30
280.36	1669.09
280.57	1744.87
280.79	1796.07
281.00	1630.18
281.22	1605.61
281.43	1785.83
281.65	1587.18
281.86	1648.61
282.08	1697.77
282.29	1824.74
282.51	1744.87
282.73	1634.28
282.94	1542.12
283.16	1730.53
283.37	1830.88
283.59	1759.21
283.80	1724.39
284.02	1701.86
284.23	1740.77
284.45	1671.14
284.66	1679.33
284.88	1740.77
285.09	1710.05
285.31	1783.78
285.52	1781.73
285.74	1677.29
285.95	1783.78
286.17	1658.85
286.38	1736.68
286.60	1724.39
286.81	1611.75
287.03	1699.81
287.24	1648.61
287.46	1787.88
287.67	1673.19
287.89	1814.50
288.10	1720.29
288.32	1714.15
288.53	1804.26
288.75	1695.72
288.96	1791.97
289.18	1656.81
289.39	1716.20
289.61	1804.26
289.82	1814.50
290.04	1738.73
290.25	1656.81
290.47	1689.57
290.68	1667.05
290.90	1759.21
291.11	1681.38
291.33	1763.30
291.54	1675.24
291.76	1689.57
291.97	1761.25
292.18	1714.15
292.40	1738.73
292.61	1689.57
292.83	1843.17
293.04	1708.01
293.26	1751.01
293.47	1662.95
293.69	1599.46
293.90	1671.14
294.12	1855.46
294.33	1734.63
294.55	1695.72
294.76	1757.16
294.97	1726.44
295.19	1802.21
295.40	1640.42
295.62	1748.97
295.83	1722.34
296.05	1656.81
296.26	1753.06
296.48	1689.57
296.69	1718.25
296.90	1779.68
297.12	1716.20
297.33	1804.26
297.55	1828.84
297.76	1728.49
297.98	1753.06
298.19	1718.25
298.41	1724.39
298.62	1716.20
298.83	1826.79
299.05	1845.22
299.26	1701.86
299.48	1648.61
299.69	1714.15
299.90	1685.48
300.12	1701.86
300.33	1703.91
300.55	1755.11
300.76	1800.16
300.98	1644.52
301.19	1755.11
301.40	1671.14
301.62	1740.77
301.83	1738.73
302.05	1763.30
302.26	1714.15
302.47	1804.26
302.69	1695.72
302.90	1730.53
303.12	1673.19
303.33	1771.49
303.54	1753.06
303.76	1685.48
303.97	1742.82
304.19	1806.31
304.40	1740.77
304.61	1697.77
304.83	1806.31
305.04	1812.45
305.26	1744.87
305.47	1695.72
305.68	1669.09
305.90	1685.48
306.11	1722.34
306.33	1685.48
306.54	1701.86
306.75	1644.52
306.97	1603.56
307.18	1697.77
307.39	1683.43
307.61	1796.07
307.82	1773.54
308.04	1763.30
308.25	1679.33
308.46	1771.49
308.68	1753.06
308.89	1710.05
309.10	1789.92
309.32	1748.97
309.53	1769.44
309.74	1787.88
309.96	1730.53
310.17	1843.17
310.39	1697.77
310.60	1712.10
310.81	1693.67
311.03	1658.85
311.24	1736.68
311.45	1726.44
311.67	1828.84
311.88	1767.40
312.09	1662.95
312.31	1708.01
312.52	1665.00
312.73	1718.25
312.95	1599.46
313.16	1562.60
313.37	1814.50
313.59	1755.11
313.80	1810.40
314.01	1839.08
314.23	1673.19
314.44	1603.56
314.65	1611.75
314.87	1724.39
315.08	1705.96
315.29	1675.24
315.51	1638.38
315.72	1687.53
315.93	1877.99
316.15	1748.97
316.36	1767.40
316.57	1691.62
316.79	1742.82
317.00	1671.14
317.21	1714.15
317.43	1755.11
317.64	1660.90
317.85	1689.57
318.07	1685.48
318.28	1734.63
318.49	1834.98
318.70	1863.65
318.92	1740.77
319.13	1886.18
319.34	1888.23
319.56	1779.68
319.77	1748.97
319.98	1722.34
320.20	1765.35
320.41	1828.84
320.62	1839.08
320.83	1710.05
321.05	1906.66
321.26	1693.67
321.47	1746.92
321.69	1877.99
321.90	1630.18
322.11	1726.44
322.32	1748.97
322.54	1691.62
322.75	1671.14
322.96	1787.88
323.18	1656.81
323.39	1650.66
323.60	1660.90
323.81	1732.58
324.03	1724.39
324.24	1726.44
324.45	1740.77
324.66	1675.24
324.88	1705.96
325.09	1740.77
325.30	1710.05
325.52	1744.87
325.73	1742.82
325.94	1617.90
326.15	1734.63
326.37	1677.29
326.58	1794.02
326.79	1777.64
327.00	1697.77
327.22	1705.96
327.43	1660.90
327.64	1648.61
327.85	1697.77
328.07	1740.77
328.28	1859.56
328.49	1642.47
328.70	1693.67
328.92	1712.10
329.13	1685.48
329.34	1732.58
329.55	1767.40
329.76	1779.68
329.98	1652.71
330.19	1785.83
330.40	1763.30
330.61	1746.92
330.83	1812.45
331.04	1638.38
331.25	1804.26
331.46	1703.91
331.68	1665.00
331.89	1705.96
332.10	1658.85
332.31	1646.57
332.52	1722.34
332.74	1722.34
332.95	1724.39
333.16	1816.55
333.37	1701.86
333.58	1716.20
333.80	1787.88
334.01	1574.89
334.22	1734.63
334.43	1685.48
334.64	1687.53
334.86	1632.23
335.07	1642.47
335.28	1806.31
335.49	1677.29
335.70	1689.57
335.92	1814.50
336.13	1839.08
336.34	1671.14
336.55	1773.54
336.76	1703.91
336.98	1527.78
337.19	1697.77
337.40	1775.59
337.61	1824.74
337.82	1724.39
338.04	1748.97
338.25	1589.22
338.46	1671.14
338.67	1648.61
338.88	1701.86
339.09	1656.81
339.31	1722.34
339.52	1595.37
339.73	1679.33
339.94	1681.38
340.15	1742.82
340.36	1681.38
340.58	1718.25
340.79	1689.57
341.00	1744.87
341.21	1603.56
341.42	1802.21
341.63	1716.20
341.85	1798.12
342.06	1742.82
342.27	1681.38
342.48	1781.73
342.69	1654.76
342.90	1701.86
343.12	1759.21
343.33	1681.38
343.54	1769.44
343.75	1798.12
343.96	1703.91
344.17	1705.96
344.38	1710.05
344.60	1726.44
344.81	1660.90
345.02	1724.39
345.23	1693.67
345.44	1814.50
345.65	1802.21
345.86	1732.58
346.07	1744.87
346.29	1669.09
346.50	1714.15
346.71	1716.20
346.92	1783.78
347.13	1841.12
347.34	1691.62
347.55	1771.49
347.76	1728.49
347.98	1601.51
348.19	1658.85
348.40	1777.64
348.61	1748.97
348.82	1816.55
349.03	1722.34
349.24	1638.38
349.45	1787.88
349.66	1570.79
349.88	1671.14
350.09	1734.63
350.30	1736.68
350.51	1775.59
350.72	1671.14
350.93	1732.58
351.14	1603.56
351.35	1816.55
351.56	1753.06
351.77	1732.58
351.99	1773.54
352.20	1794.02
352.41	1691.62
352.62	1628.14
352.83	1714.15
353.04	1632.23
353.25	1718.25
353.46	1722.34
353.67	1794.02
353.88	1544.17
354.09	1732.58
354.30	1642.47
354.52	1742.82
354.73	1681.38
354.94	1748.97
355.15	1742.82
355.36	1796.07
355.57	1689.57
355.78	1687.53
355.99	1726.44
356.20	1669.09
356.41	1814.50
356.62	1736.68
356.83	1654.76
357.04	1769.44
357.25	1720.29
357.46	1722.34
357.68	1632.23
357.89	1716.20
358.10	1763.30
358.31	1718.25
358.52	1708.01
358.73	1652.71
358.94	1646.57
359.15	1677.29
359.36	1740.77
359.57	1759.21
359.78	1724.39
359.99	1699.81
360.20	1667.05
360.41	1648.61
360.62	1744.87
360.83	1611.75
361.04	1714.15
361.25	1773.54
361.46	1832.93
361.67	1718.25
361.88	1736.68
362.09	1775.59
362.30	1751.01
362.51	1615.85
362.72	1755.11
362.93	1791.97
363.14	1767.40
363.35	1648.61
363.56	1685.48
363.78	1755.11
363.99	1804.26
364.20	1691.62
364.41	1775.59
364.62	1802.21
364.83	1755.11
365.04	1691.62
365.25	1644.52
365.46	1755.11
365.67	1673.19
365.88	1658.85
366.09	1677.29
366.30	1658.85
366.51	1681.38
366.72	1642.47
366.93	1714.15
367.14	1748.97
367.35	1748.97
367.56	1628.14
367.77	1849.32
367.98	1673.19
368.18	1800.16
368.39	1740.77
368.60	1640.42
368.81	1812.45
369.02	1679.33
369.23	1640.42
369.44	1587.18
369.65	1734.63
369.86	1662.95
370.07	1710.05
370.28	1685.48
370.49	1677.29
370.70	1814.50
370.91	1673.19
371.12	1705.96
371.33	1791.97
371.54	1685.48
371.75	1781.73
371.96	1564.65
372.17	1714.15
372.38	1738.73
372.59	1732.58
372.80	1699.81
373.01	1693.67
373.22	1730.53
373.43	1738.73
373.64	1687.53
373.85	1789.92
374.06	1839.08
374.26	1744.87
374.47	1812.45
374.68	1771.49
374.89	1667.05
375.10	1697.77
375.31	1738.73
375.52	1738.73
375.73	1708.01
375.94	1613.80
376.15	1748.97
376.36	1685.48
376.57	1599.46
376.78	1677.29
376.99	1703.91
377.20	1802.21
377.40	1650.66
377.61	1863.65
377.82	1689.57
378.03	1767.40
378.24	1765.35
378.45	1679.33
378.66	1673.19
378.87	1593.32
379.08	1642.47
379.29	1669.09
379.50	1769.44
379.71	1720.29
379.91	1779.68
380.12	1726.44
380.33	1734.63
380.54	1691.62
380.75	1763.30
380.96	1740.77
381.17	1798.12
381.38	1667.05
381.59	1783.78
381.80	1681.38
382.00	1804.26
382.21	1734.63
382.42	1810.40
382.63	1837.03
382.84	1740.77
383.05	1822.69
383.26	1761.25
383.47	1775.59
383.68	1826.79
383.88	1757.16
384.09	1763.30
384.30	1787.88
384.51	1701.86
384.72	1656.81
384.93	1654.76
385.14	1746.92
385.35	1812.45
385.55	1695.72
385.76	1755.11
385.97	1718.25
386.18	1669.09
386.39	1724.39
386.60	1681.38
386.81	1751.01
387.02	1599.46
387.22	1656.81
387.43	1787.88
387.64	1806.31
387.85	1877.99
388.06	2263.01
388.27	4114.37
388.48	6686.62
388.68	8183.68
388.89	9482.10
389.10	9811.82
389.31	8542.08
389.52	7485.33
389.73	6670.23
389.93	6182.82
390.14	5799.85
390.35	5167.03
390.56	4796.34
390.77	3786.69
390.98	3057.62
391.18	2559.96
391.39	2113.50
391.60	1820.64
391.81	1892.32
392.02	1744.87
392.23	1869.80
392.43	1681.38
392.64	1857.51
392.85	1726.44
393.06	1810.40
393.27	1814.50
393.47	1650.66
393.68	1796.07
393.89	1617.90
394.10	1748.97
394.31	1630.18
394.52	1685.48
394.72	1708.01
394.93	1814.50
395.14	1660.90
395.35	1722.34
395.56	1665.00
395.76	1697.77
395.97	1755.11
396.18	1767.40
396.39	1755.11
396.60	2041.82
396.80	1914.85
397.01	1851.36
397.22	1822.69
397.43	1882.08
397.64	1685.48
397.84	1781.73
398.05	1822.69
398.26	1746.92
398.47	1761.25
398.67	1798.12
398.88	1665.00
399.09	1783.78
399.30	1697.77
399.51	1777.64
399.71	1675.24
399.92	1656.81
400.13	1736.68
400.34	1683.43
400.54	1705.96
400.75	1847.27
400.96	1732.58
401.17	1736.68
401.37	1730.53
401.58	1755.11
401.79	1730.53
402.00	1863.65
402.21	1986.53
402.41	2000.87
402.62	2000.87
402.83	2009.06
403.04	2084.83
403.24	2068.45
403.45	1810.40
403.66	1912.80
403.87	1951.71
404.07	1941.47
404.28	1900.52
404.49	1843.17
404.70	1779.68
404.90	1761.25
405.11	1843.17
405.32	1744.87
405.52	1714.15
405.73	1646.57
405.94	1648.61
406.15	1681.38
406.35	1718.25
406.56	1656.81
406.77	1757.16
406.98	1765.35
407.18	1652.71
407.39	1791.97
407.60	1685.48
407.80	1716.20
408.01	1654.76
408.22	1798.12
408.43	1665.00
408.63	1746.92
408.84	1740.77
409.05	1777.64
409.25	1681.38
409.46	1632.23
409.67	1732.58
409.88	1673.19
410.08	1722.34
410.29	1658.85
410.50	1771.49
410.70	1753.06
410.91	1636.33
411.12	1787.88
411.32	1689.57
411.53	1701.86
411.74	1877.99
411.95	1779.68
412.15	1746.92
412.36	1763.30
412.57	1767.40
412.77	1861.60
412.98	1665.00
413.19	1693.67
413.39	1796.07
413.60	1751.01
413.81	1734.63
414.01	1626.09
414.22	1837.03
414.43	1812.45
414.63	1771.49
414.84	1708.01
415.05	1755.11
415.25	1667.05
415.46	1804.26
415.67	1703.91
415.87	1839.08
416.08	1681.38
416.29	1656.81
416.49	1763.30
416.70	1675.24
416.91	1677.29
417.11	1730.53
417.32	1718.25
417.53	1787.88
417.73	1646.57
417.94	1673.19
418.15	1759.21
418.35	1687.53
418.56	1789.92
418.77	1853.41
418.97	1687.53
419.18	1796.07
419.38	1615.85
419.59	1759.21
419.80	1863.65
420.00	1763.30
420.21	1763.30
420.42	1798.12
420.62	1755.11
420.83	1665.00
421.04	1769.44
421.24	1691.62
421.45	1718.25
421.65	1816.55
421.86	1673.19
422.07	1708.01
422.27	1740.77
422.48	1781.73
422.69	1751.01
422.89	1724.39
423.10	1697.77
423.30	1656.81
423.51	1730.53
423.72	1755.11
423.92	1757.16
424.13	1613.80
424.33	1716.20
424.54	1755.11
424.75	1804.26
424.95	1834.98
425.16	1679.33
425.36	1685.48
425.57	1742.82
425.78	1751.01
425.98	1804.26
426.19	1718.25
426.39	1628.14
426.60	1748.97
426.81	1886.18
427.01	1734.63
427.22	1662.95
427.42	1628.14
427.63	1687.53
427.83	1765.35
428.04	1873.89
428.25	1730.53
428.45	1816.55
428.66	1791.97
428.86	1718.25
429.07	1691.62
429.28	1724.39
429.48	1705.96
429.69	1810.40
429.89	1669.09
430.10	1671.14
430.30	1765.35
430.51	1751.01
430.71	1638.38
430.92	1697.77
431.13	1681.38
431.33	1769.44
431.54	1710.05
431.74	1804.26
431.95	1761.25
432.15	1697.77
432.36	1777.64
432.56	1767.40
432.77	1820.64
432.98	1820.64
433.18	1714.15
433.39	1665.00
433.59	1740.77
433.80	1816.55
434.00	1830.88
434.21	1730.53
434.41	1669.09
434.62	1853.41
434.82	1581.03
435.03	1683.43
435.23	1673.19
435.44	1697.77
435.64	1679.33
435.85	1679.33
436.06	1691.62
436.26	1757.16
436.47	1685.48
436.67	1675.24
436.88	1677.29
437.08	1794.02
437.29	1871.84
437.49	1677.29
437.70	1851.36
437.90	1705.96
438.11	1859.56
438.31	1857.51
438.52	1877.99
438.72	1880.04
438.93	1892.32
439.13	1804.26
439.34	1806.31
439.54	1757.16
439.75	1794.02
439.95	1796.07
440.16	1724.39
440.36	1746.92
440.57	1736.68
440.77	1755.11
440.98	1722.34
441.18	1791.97
441.39	1667.05
441.59	1669.09
441.80	1753.06
442.00	1777.64
442.21	1822.69
442.41	1652.71
442.62	1767.40
442.82	1615.85
443.02	1736.68
443.23	1769.44
443.43	1746.92
443.64	1796.07
443.84	1691.62
444.05	1828.84
444.25	1736.68
444.46	1699.81
444.66	1693.67
444.87	1845.22
445.07	1617.90
445.28	1812.45
445.48	1839.08
445.69	1722.34
445.89	1804.26
446.09	1755.11
446.30	1982.43
446.50	2658.26
446.71	3739.59
446.91	4337.60
447.12	4665.27
447.32	4779.96
447.53	4280.25
447.73	3833.80
447.93	3438.54
448.14	3327.95
448.34	3123.15
448.55	2990.03
448.75	2805.72
448.96	2729.94
449.16	2400.22
449.36	2260.96
449.57	1968.10
449.77	1900.52
449.98	1875.94
450.18	1787.88
450.39	1773.54
450.59	1738.73
450.79	1761.25
451.00	1701.86
451.20	1812.45
451.41	1705.96
451.61	1888.23
451.81	1779.68
452.02	1681.38
452.22	1726.44
452.43	1675.24
452.63	1714.15
452.84	1724.39
453.04	1660.90
453.24	1748.97
453.45	1693.67
453.65	1720.29
453.86	1759.21
454.06	1744.87
454.26	1738.73
454.47	1759.21
454.67	1812.45
454.87	1738.73
455.08	1710.05
455.28	1832.93
455.49	1830.88
455.69	1732.58
455.89	1787.88
456.10	1841.12
456.30	1773.54
456.51	1736.68
456.71	1783.78
456.91	1775.59
457.12	1773.54
457.32	1753.06
457.52	1783.78
457.73	1871.84
457.93	1769.44
458.14	1679.33
458.34	1679.33
458.54	1738.73
458.75	1699.81
458.95	1742.82
459.15	1697.77
459.36	1712.10
459.56	1779.68
459.76	1877.99
459.97	1740.77
460.17	1759.21
460.37	1794.02
460.58	1769.44
460.78	1812.45
460.99	1781.73
461.19	1705.96
461.39	1656.81
461.60	1751.01
461.80	1759.21
462.00	1701.86
462.21	1714.15
462.41	1699.81
462.61	1718.25
462.82	1611.75
463.02	1816.55
463.22	1656.81
463.43	1785.83
463.63	1701.86
463.83	1771.49
464.04	1808.36
464.24	1767.40
464.44	1736.68
464.64	1714.15
464.85	1791.97
465.05	1804.26
465.25	1693.67
465.46	1673.19
465.66	1763.30
465.86	1800.16
466.07	1724.39
466.27	1781.73
466.47	1638.38
466.68	1710.05
466.88	1826.79
467.08	1753.06
467.29	1757.16
467.49	1710.05
467.69	1712.10
467.89	1767.40
468.10	1681.38
468.30	1734.63
468.50	1787.88
468.71	1826.79
468.91	1630.18
469.11	1849.32
469.31	1712.10
469.52	1736.68
469.72	1877.99
469.92	1816.55
470.13	1746.92
470.33	1673.19
470.53	1843.17
470.73	2045.92
470.94	2267.10
471.14	2369.50
471.34	2455.51
471.54	2404.32
471.75	2265.05
471.95	2131.94
472.15	2117.60
472.36	2015.20
472.56	1986.53
472.76	2025.44
472.96	2007.01
473.17	1951.71
473.37	1961.95
473.57	1748.97
473.77	1802.21
473.98	1730.53
474.18	1708.01
474.38	1818.60
474.58	1669.09
474.79	1667.05
474.99	1740.77
475.19	1775.59
475.39	1701.86
475.60	1703.91
475.80	1734.63
476.00	1722.34
476.20	1687.53
476.41	1730.53
476.61	1824.74
476.81	1816.55
477.01	1669.09
477.21	1845.22
477.42	1853.41
477.62	1677.29
477.82	1775.59
478.02	1726.44
478.23	1820.64
478.43	1693.67
478.63	1675.24
478.83	1746.92
479.03	1669.09
479.24	1796.07
479.44	1841.12
479.64	1671.14
479.84	1656.81
480.04	1679.33
480.25	1755.11
480.45	1738.73
480.65	1722.34
480.85	1796.07
481.06	1695.72
481.26	1722.34
481.46	1734.63
481.66	1810.40
481.86	1757.16
482.06	1785.83
482.27	1763.30
482.47	1728.49
482.67	1746.92
482.87	1746.92
483.07	1787.88
483.28	1685.48
483.48	1679.33
483.68	1708.01
483.88	1677.29
484.08	1669.09
484.29	1775.59
484.49	1773.54
484.69	1630.18
484.89	1818.60
485.09	1740.77
485.29	1681.38
485.50	1746.92
485.70	1697.77
485.90	1896.42
486.10	1769.44
486.30	1685.48
486.50	1796.07
486.71	1724.39
486.91	1796.07
487.11	1777.64
487.31	1654.76
487.51	1804.26
487.71	1656.81
487.91	1716.20
488.12	1732.58
488.32	1599.46
488.52	1724.39
488.72	1601.51
488.92	1730.53
489.12	1816.55
489.32	1798.12
489.53	1804.26
489.73	1689.57
489.93	1851.36
490.13	1660.90
490.33	1660.90
490.53	1724.39
490.73	1744.87
490.94	1613.80
491.14	1783.78
491.34	1859.56
491.54	2164.70
491.74	2502.62
491.94	2901.97
492.14	3018.71
492.34	3045.33
492.54	2762.71
492.75	2465.75
492.95	2428.89
493.15	2394.08
493.35	2299.87
493.55	2244.57
493.75	2107.36
493.95	2150.37
494.15	2052.06
494.35	1824.74
494.56	1961.95
494.76	1773.54
494.96	1841.12
495.16	1818.60
495.36	1687.53
495.56	1724.39
495.76	1798.12
495.96	1742.82
496.16	1767.40
496.36	1863.65
496.56	1771.49
496.77	1761.25
496.97	1726.44
497.17	1759.21
497.37	1665.00
497.57	1748.97
497.77	1814.50
497.97	1724.39
498.17	1796.07
498.37	1800.16
498.57	1837.03
498.77	1728.49
498.97	1843.17
499.17	1732.58
499.38	1736.68
499.58	1767.40
499.78	1802.21
499.98	1751.01
500.18	1763.30
500.38	1769.44
500.58	1982.43
500.78	2500.57
500.98	4495.29
501.18	5795.75
501.38	6756.25
501.58	7006.10
501.78	6430.62
501.98	5359.53
502.18	4974.52
502.38	4405.18
502.58	4065.22
502.78	3743.69
502.98	3563.47
503.18	3502.03
503.38	3213.26
503.59	2758.61
503.79	2660.31
503.99	2451.42
504.19	2283.49
504.39	2224.09
504.59	2179.04
504.79	2172.89
504.99	2125.79
505.19	1910.75
505.39	1894.37
505.59	2009.06
505.79	1918.95
505.99	1812.45
506.19	1781.73
506.39	1888.23
506.59	1800.16
506.79	1740.77
506.99	1757.16
507.19	1789.92
507.39	1714.15
507.59	1742.82
507.79	1712.10
507.99	1677.29
508.19	1757.16
508.39	1673.19
508.59	1689.57
508.79	1822.69
508.99	1843.17
509.19	1621.99
509.39	1794.02
509.59	1734.63
509.79	1677.29
509.99	1699.81
510.19	1806.31
510.39	1738.73
510.59	1767.40
510.79	1771.49
510.99	1767.40
511.19	1726.44
511.39	1798.12
511.59	1812.45
511.79	1828.84
511.99	1816.55
512.19	1804.26
512.38	1681.38
512.58	1642.47
512.78	1683.43
512.98	1802.21
513.18	1886.18
513.38	1677.29
513.58	1710.05
513.78	1687.53
513.98	1726.44
514.18	1746.92
514.38	1724.39
514.58	1759.21
514.78	1691.62
514.98	1755.11
515.18	1761.25
515.38	1689.57
515.58	1828.84
515.78	1728.49
515.98	1718.25
516.18	1769.44
516.38	1722.34
516.57	1781.73
516.77	1738.73
516.97	1701.86
517.17	1695.72
517.37	1632.23
517.57	1800.16
517.77	1802.21
517.97	1697.77
518.17	1781.73
518.37	1738.73
518.57	1730.53
518.77	1714.15
518.97	1708.01
519.16	1701.86
519.36	1861.60
519.56	1703.91
519.76	1808.36
519.96	1718.25
520.16	1800.16
520.36	1724.39
520.56	1806.31
520.76	1687.53
520.96	1667.05
521.16	1783.78
521.35	1783.78
521.55	1826.79
521.75	1665.00
521.95	1759.21
522.15	1673.19
522.35	1724.39
522.55	1697.77
522.75	1763.30
522.95	1722.34
523.14	1693.67
523.34	1720.29
523.54	1677.29
523.74	1843.17
523.94	1683.43
524.14	1617.90
524.34	1818.60
524.54	1791.97
524.73	1746.92
524.93	1751.01
525.13	1701.86
525.33	1626.09
525.53	1882.08
525.73	1769.44
525.93	1705.96
526.13	1763.30
526.32	1744.87
526.52	1761.25
526.72	1738.73
526.92	1656.81
527.12	1636.33
527.32	1640.42
527.52	1830.88
527.71	1689.57
527.91	1724.39
528.11	1732.58
528.31	1783.78
528.51	1712.10
528.71	1710.05
528.90	1740.77
529.10	1787.88
529.30	1746.92
529.50	1587.18
529.70	1767.40
529.90	1765.35
530.09	1630.18
530.29	1660.90
530.49	1683.43
530.69	1937.38
530.89	1779.68
531.09	1845.22
531.28	1716.20
531.48	1796.07
531.68	1757.16
531.88	1746.92
532.08	1779.68
532.28	1740.77
532.47	1761.25
532.67	1781.73
532.87	1734.63
533.07	1697.77
533.27	1736.68
533.46	1732.58
533.66	1814.50
533.86	1656.81
534.06	1781.73
534.26	1814.50
534.45	1724.39
534.65	1802.21
534.85	1777.64
535.05	1730.53
535.25	1742.82
535.44	1617.90
535.64	1753.06
535.84	1710.05
536.04	1761.25
536.24	1708.01
536.43	1611.75
536.63	1820.64
536.83	1751.01
537.03	1718.25
537.22	1673.19
537.42	1630.18
537.62	1716.20
537.82	1710.05
538.02	1832.93
538.21	1810.40
538.41	1953.76
538.61	1763.30
538.81	1726.44
539.00	1828.84
539.20	1695.72
539.40	1718.25
539.60	1736.68
539.79	1742.82
539.99	1665.00
540.19	1679.33
540.39	1757.16
540.58	1753.06
540.78	1791.97
540.98	1736.68
541.18	1886.18
541.37	1722.34
541.57	1771.49
541.77	1804.26
541.97	1660.90
542.16	1716.20
542.36	1740.77
542.56	1697.77
542.76	1863.65
542.95	1748.97
543.15	1755.11
543.35	1777.64
543.54	1654.76
543.74	1687.53
543.94	1789.92
544.14	1687.53
544.33	1812.45
544.53	1773.54
544.73	1798.12
544.93	1693.67
545.12	1746.92
545.32	1712.10
545.52	1726.44
545.71	1656.81
545.91	1644.52
546.11	1710.05
546.30	1656.81
546.50	1691.62
546.70	1736.68
546.90	1761.25
547.09	1628.14
547.29	1779.68
547.49	1853.41
547.68	1806.31
547.88	1697.77
548.08	1748.97
548.27	2160.61
548.47	1720.29
548.67	1728.49
548.87	1777.64
549.06	1791.97
549.26	1755.11
549.46	1779.68
549.65	1736.68
549.85	1779.68
550.05	1791.97
550.24	1656.81
550.44	1761.25
550.64	1761.25
550.83	1740.77
551.03	1830.88
551.23	1845.22
551.42	1798.12
551.62	1783.78
551.82	1740.77
552.01	1730.53
552.21	1806.31
552.41	1769.44
552.60	1863.65
552.80	1751.01
553.00	1671.14
553.19	1728.49
553.39	1843.17
553.59	1615.85
553.78	1738.73
553.98	1791.97
554.17	1705.96
554.37	1796.07
554.57	1818.60
554.76	1683.43
554.96	1746.92
555.16	1769.44
555.35	1775.59
555.55	1798.12
555.75	1771.49
555.94	1822.69
556.14	1730.53
556.33	1798.12
556.53	1765.35
556.73	1665.00
556.92	1834.98
557.12	1783.78
557.32	1820.64
557.51	1859.56
557.71	1751.01
557.90	1820.64
558.10	1828.84
558.30	1746.92
558.49	1748.97
558.69	1742.82
558.88	1683.43
559.08	1773.54
559.28	1755.11
559.47	1787.88
559.67	1775.59
559.86	1849.32
560.06	1665.00
560.26	1775.59
560.45	1746.92
560.65	1687.53
560.84	1853.41
561.04	1667.05
561.24	1744.87
561.43	1761.25
561.63	1771.49
561.82	1761.25
562.02	1828.84
562.22	1681.38
562.41	1798.12
562.61	1746.92
562.80	1722.34
563.00	1875.94
563.19	1757.16
563.39	1775.59
563.59	1761.25
563.78	1701.86
563.98	1640.42
564.17	1699.81
564.37	1626.09
564.56	1687.53
564.76	1652.71
564.96	1892.32
565.15	1757.16
565.35	1920.99
565.54	1748.97
565.74	1814.50
565.93	1800.16
566.13	1738.73
566.32	1824.74
566.52	1724.39
566.71	1699.81
566.91	1785.83
567.11	1712.10
567.30	1724.39
567.50	1794.02
567.69	1742.82
567.89	1783.78
568.08	1626.09
568.28	1814.50
568.47	1640.42
568.67	1693.67
568.86	1703.91
569.06	1789.92
569.25	1763.30
569.45	1628.14
569.64	1712.10
569.84	1738.73
570.04	1755.11
570.23	1677.29
570.43	1744.87
570.62	1673.19
570.82	1824.74
571.01	1634.28
571.21	1687.53
571.40	1648.61
571.60	1775.59
571.79	1732.58
571.99	1779.68
572.18	1665.00
572.38	1791.97
572.57	1701.86
572.77	1710.05
572.96	1869.80
573.16	1755.11
573.35	1736.68
573.55	1787.88
573.74	1814.50
573.94	1757.16
574.13	1757.16
574.33	1869.80
574.52	1812.45
574.71	1783.78
574.91	1718.25
575.10	1693.67
575.30	1705.96
575.49	1712.10
575.69	1748.97
575.88	1791.97
576.08	1738.73
576.27	1818.60
576.47	1728.49
576.66	1857.51
576.86	1781.73
577.05	1822.69
577.25	1839.08
577.44	1882.08
577.64	1687.53
577.83	1843.17
578.02	1779.68
578.22	1853.41
578.41	1816.55
578.61	1697.77
578.80	1669.09
579.00	1765.35
579.19	1763.30
579.39	1796.07
579.58	1794.02
579.77	1763.30
579.97	1853.41
580.16	1841.12
580.36	1820.64
580.55	1794.02
580.75	1804.26
580.94	1773.54
581.13	1859.56
581.33	1910.75
581.52	1695.72
581.72	1882.08
581.91	1820.64
582.11	1740.77
582.30	1783.78
582.49	1794.02
582.69	1882.08
582.88	1730.53
583.08	1812.45
583.27	1886.18
583.47	1781.73
583.66	1746.92
583.85	1697.77
584.05	1744.87
584.24	1779.68
584.44	1742.82
584.63	1841.12
584.82	1761.25
585.02	1863.65
585.21	1824.74
585.41	1832.93
585.60	1820.64
585.79	1978.34
585.99	1951.71
586.18	1794.02
586.37	2097.12
586.57	3350.48
586.76	10051.43
586.96	24088.21
587.15	34330.10
587.34	40017.31
587.54	41973.12
587.73	36320.73
587.93	26199.66
588.12	21343.93
588.31	18120.43
588.51	16066.31
588.70	14769.95
588.89	14057.26
589.09	12570.43
589.28	10968.92
589.47	9334.64
589.67	7712.65
589.86	6344.61
590.06	4741.05
590.25	3889.09
590.44	3110.86
590.64	2600.92
590.83	2326.49
591.02	2127.84
591.22	1939.43
591.41	1824.74
591.60	1785.83
591.80	1982.43
591.99	1755.11
592.18	1734.63
592.38	1812.45
592.57	1814.50
592.76	1837.03
592.96	1753.06
593.15	1767.40
593.34	1798.12
593.54	1759.21
593.73	1789.92
593.92	1779.68
594.12	1751.01
594.31	1855.46
594.50	1851.36
594.70	1861.60
594.89	1828.84
595.08	1736.68
595.28	1783.78
595.47	1925.09
595.66	1794.02
595.86	1646.57
596.05	1748.97
596.24	1736.68
596.43	1873.89
596.63	1818.60
596.82	1785.83
597.01	1705.96
597.21	1820.64
597.40	1789.92
597.59	1775.59
597.79	1787.88
597.98	1732.58
598.17	1785.83
598.36	1775.59
598.56	1746.92
598.75	1730.53
598.94	1810.40
599.14	1724.39
599.33	1746.92
599.52	1746.92
599.71	1738.73
599.91	1837.03
600.10	1824.74
600.29	1888.23
600.48	1683.43
600.68	1728.49
600.87	1705.96
601.06	1771.49
601.26	1783.78
601.45	1732.58
601.64	1728.49
601.83	1818.60
602.03	1648.61
602.22	1646.57
602.41	1853.41
602.60	1861.60
602.80	1843.17
602.99	1763.30
603.18	1718.25
603.37	1834.98
603.57	1740.77
603.76	1816.55
603.95	1861.60
604.14	1718.25
604.34	1679.33
604.53	1742.82
604.72	1779.68
604.91	1783.78
605.10	1789.92
605.30	1626.09
605.49	1906.66
605.68	1705.96
605.87	1765.35
606.07	1765.35
606.26	1765.35
606.45	1791.97
606.64	1767.40
606.84	1673.19
607.03	1677.29
607.22	1777.64
607.41	1722.34
607.60	1701.86
607.80	1796.07
607.99	1708.01
608.18	1808.36
608.37	1740.77
608.56	1689.57
608.76	1753.06
608.95	1857.51
609.14	1787.88
609.33	1722.34
609.52	1736.68
609.72	1732.58
609.91	1787.88
610.10	1736.68
610.29	1765.35
610.48	1812.45
610.68	1759.21
610.87	1624.04
611.06	1738.73
611.25	1751.01
611.44	1783.78
611.63	1765.35
611.83	1804.26
612.02	1740.77
612.21	1798.12
612.40	1724.39
612.59	1644.52
612.79	1679.33
612.98	1773.54
613.17	1826.79
613.36	1759.21
613.55	1861.60
613.74	1671.14
613.93	1683.43
614.13	1710.05
614.32	1695.72
614.51	1769.44
614.70	1712.10
614.89	1751.01
615.08	1746.92
615.28	2117.60
615.47	1667.05
615.66	1757.16
615.85	1705.96
616.04	1816.55
616.23	1701.86
616.42	1677.29
616.62	1779.68
616.81	1779.68
617.00	1746.92
617.19	1740.77
617.38	1728.49
617.57	1828.84
617.76	1681.38
617.95	1794.02
618.15	1722.34
618.34	1861.60
618.53	1669.09
618.72	1789.92
618.91	1900.52
619.10	1845.22
619.29	1701.86
619.48	1767.40
619.68	1724.39
619.87	1626.09
620.06	1677.29
620.25	1763.30
620.44	1671.14
620.63	1751.01
620.82	1796.07
621.01	1740.77
621.20	1820.64
621.39	1740.77
621.59	1779.68
621.78	1701.86
621.97	1783.78
622.16	1787.88
622.35	1757.16
622.54	1816.55
622.73	1828.84
622.92	1677.29
623.11	1796.07
623.30	1771.49
623.49	1732.58
623.68	1730.53
623.88	1824.74
624.07	1740.77
624.26	1808.36
624.45	1738.73
624.64	1746.92
624.83	1726.44
625.02	1642.47
625.21	1746.92
625.40	1726.44
625.59	1796.07
625.78	1703.91
625.97	1748.97
626.16	1886.18
626.35	1843.17
626.54	1742.82
626.74	1859.56
626.93	1753.06
627.12	1679.33
627.31	1828.84
627.50	1714.15
627.69	1892.32
627.88	1665.00
628.07	1687.53
628.26	1611.75
628.45	1669.09
628.64	1665.00
628.83	1753.06
629.02	1712.10
629.21	1773.54
629.40	1712.10
629.59	1708.01
629.78	1781.73
629.97	1785.83
630.16	1736.68
630.35	1681.38
630.54	1708.01
630.73	1740.77
630.92	1773.54
631.11	1716.20
631.30	1712.10
631.49	1660.90
631.68	1779.68
631.87	1781.73
632.06	1669.09
632.25	1927.14
632.44	1691.62
632.63	1701.86
632.82	1685.48
633.01	1716.20
633.20	1720.29
633.39	1691.62
633.58	1689.57
633.77	1771.49
633.96	1816.55
634.15	1755.11
634.34	1812.45
634.53	1808.36
634.72	1699.81
634.91	1583.08
635.10	1794.02
635.29	1818.60
635.48	1685.48
635.67	1681.38
635.86	1646.57
636.05	1843.17
636.24	1740.77
636.43	1740.77
636.62	1832.93
636.81	1576.94
637.00	1763.30
637.19	1765.35
637.38	1671.14
637.57	1714.15
637.76	1753.06
637.95	1693.67
638.14	1693.67
638.33	1751.01
638.52	1759.21
638.71	1683.43
638.89	1611.75
639.08	1910.75
639.27	1718.25
639.46	1787.88
639.65	1769.44
639.84	1742.82
640.03	1779.68
640.22	1697.77
640.41	1828.84
640.60	1703.91
640.79	1691.62
640.98	1644.52
641.17	1744.87
641.36	1673.19
641.55	1728.49
641.74	1624.04
641.92	1695.72
642.11	1632.23
642.30	1724.39
642.49	1710.05
642.68	1708.01
642.87	1683.43
643.06	1787.88
643.25	1695.72
643.44	1634.28
643.63	1718.25
643.82	1775.59
644.00	1699.81
644.19	1726.44
644.38	1638.38
644.57	1714.15
644.76	1755.11
644.95	1654.76
645.14	1753.06
645.33	1787.88
645.52	1697.77
645.71	1683.43
645.89	1671.14
646.08	1697.77
646.27	1734.63
646.46	1886.18
646.65	1675.24
646.84	1751.01
647.03	1617.90
647.22	1847.27
647.40	1759.21
647.59	1687.53
647.78	1691.62
647.97	1669.09
648.16	1714.15
648.35	1845.22
648.54	1810.40
648.73	1708.01
648.91	1765.35
649.10	1685.48
649.29	1671.14
649.48	1798.12
649.67	1742.82
649.86	1714.15
650.05	1675.24
650.23	1773.54
650.42	1673.19
650.61	1810.40
650.80	1781.73
650.99	1888.23
651.18	1718.25
651.36	1931.23
651.55	1705.96
651.74	1716.20
651.93	1689.57
652.12	1701.86
652.31	1802.21
652.49	1783.78
652.68	1738.73
652.87	1769.44
653.06	1753.06
653.25	1755.11
653.44	1695.72
653.62	1894.37
653.81	1730.53
654.00	1724.39
654.19	1759.21
654.38	1802.21
654.56	1732.58
654.75	1738.73
654.94	1765.35
655.13	1755.11
655.32	1775.59
655.51	1787.88
655.69	1665.00
655.88	1798.12
656.07	1753.06
656.26	1785.83
656.45	1589.22
656.63	1785.83
656.82	1738.73
657.01	1806.31
657.20	1681.38
657.38	1845.22
657.57	1701.86
657.76	1662.95
657.95	1826.79
658.14	1667.05
658.32	1669.09
658.51	1665.00
658.70	1720.29
658.89	1746.92
659.08	1671.14
659.26	1824.74
659.45	1673.19
659.64	1755.11
659.83	1708.01
660.01	1959.91
660.20	1695.72
660.39	1800.16
660.58	1656.81
660.76	1722.34
660.95	1705.96
661.14	1759.21
661.33	1671.14
661.51	1665.00
661.70	1665.00
661.89	1789.92
662.08	1695.72
662.26	1714.15
662.45	1738.73
662.64	1832.93
662.83	1730.53
663.01	1640.42
663.20	1671.14
663.39	1791.97
663.58	1621.99
663.76	1734.63
663.95	1789.92
664.14	1675.24
664.32	1687.53
664.51	1724.39
664.70	1619.94
664.89	1712.10
665.07	1759.21
665.26	1800.16
665.45	1619.94
665.64	1716.20
665.82	1689.57
666.01	1755.11
666.20	1681.38
666.38	1845.22
666.57	1877.99
666.76	2174.94
666.95	4573.11
667.13	10397.54
667.32	15087.39
667.51	17708.79
667.69	18929.38
667.88	17403.64
668.07	12121.93
668.25	9242.48
668.44	8257.41
668.63	7319.44
668.81	6805.40
669.00	6096.80
669.19	5676.97
669.38	5017.52
669.56	4446.14
669.75	3997.64
669.94	3346.38
670.12	2834.39
670.31	2510.81
670.50	2170.85
670.68	1980.39
670.87	1896.42
671.06	1814.50
671.24	1816.55
671.43	1869.80
671.62	1742.82
671.80	1734.63
671.99	1710.05
672.18	1787.88
672.36	1757.16
672.55	1718.25
672.74	1753.06
672.92	1779.68
673.11	1791.97
673.29	1673.19
673.48	1755.11
673.67	1742.82
673.85	1802.21
674.04	1662.95
674.23	1753.06
674.41	1888.23
674.60	1656.81
674.79	1609.70
674.97	1652.71
675.16	1755.11
675.34	1753.06
675.53	1730.53
675.72	1773.54
675.90	1853.41
676.09	1667.05
676.28	1769.44
676.46	1652.71
676.65	1685.48
676.83	1652.71
677.02	1720.29
677.21	1685.48
677.39	1794.02
677.58	1691.62
677.77	1662.95
677.95	1705.96
678.14	1683.43
678.32	1634.28
678.51	1650.66
678.70	1875.94
678.88	1685.48
679.07	1740.77
679.25	1611.75
679.44	1703.91
679.63	1615.85
679.81	1757.16
680.00	1751.01
680.18	1865.70
680.37	1800.16
680.55	1783.78
680.74	1626.09
680.93	1609.70
681.11	1722.34
681.30	1724.39
681.48	1791.97
681.67	1699.81
681.85	1699.81
682.04	1710.05
682.23	1785.83
682.41	1757.16
682.60	1665.00
682.78	1701.86
682.97	1609.70
683.15	1834.98
683.34	1751.01
683.53	1787.88
683.71	1673.19
683.90	1824.74
684.08	1873.89
684.27	1677.29
684.45	1718.25
684.64	1843.17
684.82	1740.77
685.01	1828.84
685.19	1732.58
685.38	1822.69
685.57	1720.29
685.75	1708.01
685.94	1714.15
686.12	1701.86
686.31	1679.33
686.49	1832.93
686.68	1689.57
686.86	1787.88
687.05	1642.47
687.23	1837.03
687.42	1736.68
687.60	1671.14
687.79	1824.74
687.97	1777.64
688.16	1755.11
688.34	1824.74
688.53	1609.70
688.71	1714.15
688.90	1824.74
689.08	1734.63
689.27	1683.43
689.45	1759.21
689.64	1712.10
689.82	1744.87
690.01	1771.49
690.19	1738.73
690.38	1671.14
690.56	1771.49
690.75	1648.61
690.93	1769.44
691.12	1662.95
691.30	1662.95
691.49	1626.09
691.67	1736.68
691.86	1710.05
692.04	1656.81
692.23	1636.33
692.41	1705.96
692.60	1841.12
692.78	1757.16
692.97	1755.11
693.15	1789.92
693.34	1832.93
693.52	1779.68
693.71	1632.23
693.89	1654.76
694.08	1583.08
694.26	1824.74
694.44	1775.59
694.63	1810.40
694.81	1583.08
695.00	1617.90
695.18	1738.73
695.37	1873.89
695.55	1722.34
695.74	1687.53
695.92	1679.33
696.10	1806.31
696.29	1693.67
696.47	1712.10
696.66	1683.43
696.84	1718.25
697.03	1726.44
697.21	1794.02
697.40	2281.44
697.58	1837.03
697.76	1636.33
697.95	1675.24
698.13	1662.95
698.32	1683.43
698.50	1714.15
698.68	1751.01
698.87	1796.07
699.05	1861.60
699.24	1730.53
699.42	1730.53
699.61	1732.58
699.79	1755.11
699.97	1660.90
700.16	1722.34
700.34	1726.44
700.53	1736.68
700.71	1832.93
700.89	1671.14
701.08	1730.53
701.26	1677.29
701.45	2133.98
701.63	1665.00
701.81	1734.63
702.00	1644.52
702.18	1724.39
702.37	1738.73
702.55	1779.68
702.73	1791.97
702.92	1679.33
703.10	1753.06
703.28	1826.79
703.47	1701.86
703.65	1845.22
703.84	1812.45
704.02	1660.90
704.20	1814.50
704.39	1679.33
704.57	1794.02
704.75	1742.82
704.94	1757.16
705.12	1730.53
705.30	1839.08
705.49	2242.53
705.67	4556.73
705.86	9502.58
706.04	12470.08
706.22	14180.14
706.41	15130.39
706.59	13512.50
706.77	9463.66
706.96	7407.50
707.14	6436.77
707.32	5781.42
707.51	5672.87
707.69	4782.01
707.87	4161.47
708.06	3362.76
708.24	2893.78
708.42	2332.64
708.61	2232.29
708.79	1918.95
708.97	1849.32
709.16	1880.04
709.34	1746.92
709.52	1695.72
709.71	1822.69
709.89	1789.92
710.07	1708.01
710.26	1662.95
710.44	1689.57
710.62	1742.82
710.80	1732.58
710.99	1730.53
711.17	1744.87
711.35	1703.91
711.54	1742.82
711.72	1738.73
711.90	1732.58
712.09	1718.25
712.27	1660.90
712.45	1683.43
712.63	1755.11
712.82	1773.54
713.00	1714.15
713.18	1794.02
713.37	1773.54
713.55	1767.40
713.73	1736.68
713.91	1798.12
714.10	1710.05
714.28	1673.19
714.46	1726.44
714.65	1744.87
714.83	1820.64
715.01	1726.44
715.19	1714.15
715.38	1677.29
715.56	1798.12
715.74	1648.61
715.92	1712.10
716.11	1769.44
716.29	1744.87
716.47	1730.53
716.65	1763.30
716.84	1656.81
717.02	1755.11
717.20	1624.04
717.38	1716.20
717.57	1730.53
717.75	1732.58
717.93	1693.67
718.11	1742.82
718.30	1675.24
718.48	1732.58
718.66	1695.72
718.84	1726.44
719.03	1691.62
719.21	1591.27
719.39	1826.79
719.57	1728.49
719.75	1796.07
719.94	1708.01
720.12	1742.82
720.30	1708.01
720.48	1693.67
720.67	1712.10
720.85	1671.14
721.03	1603.56
721.21	1673.19
721.39	1734.63
721.58	1771.49
721.76	1685.48
721.94	1724.39
722.12	1789.92
722.30	1767.40
722.49	1714.15
722.67	1701.86
722.85	1687.53
723.03	1650.66
723.21	1675.24
723.40	1722.34
723.58	1771.49
723.76	1746.92
723.94	1720.29
724.12	1673.19
724.30	1714.15
724.49	1714.15
724.67	1656.81
724.85	1779.68
725.03	1634.28
725.21	1781.73
725.40	1871.84
725.58	1667.05
725.76	1789.92
725.94	1716.20
726.12	1632.23
726.30	1726.44
726.49	1708.01
726.67	1714.15
726.85	1767.40
727.03	1761.25
727.21	2193.37
727.39	3059.67
727.57	3737.54
727.76	4243.39
727.94	4411.32
728.12	4315.07
728.30	3753.93
728.48	2940.88
728.66	2734.04
728.84	2494.43
729.03	2256.86
729.21	2170.85
729.39	1978.34
729.57	1900.52
729.75	1828.84
729.93	1777.64
730.11	1720.29
730.30	1763.30
730.48	1740.77
730.66	1759.21
730.84	1787.88
731.02	1677.29
731.20	1615.85
731.38	1736.68
731.56	1662.95
731.74	1611.75
731.93	1796.07
732.11	1783.78
732.29	1689.57
732.47	1650.66
732.65	1781.73
732.83	1822.69
733.01	1777.64
733.19	1624.04
733.37	1710.05
733.56	1746.92
733.74	1697.77
733.92	1791.97
734.10	1767.40
734.28	1730.53
734.46	1595.37
734.64	1705.96
734.82	1685.48
735.00	1728.49
735.18	1617.90
735.36	1587.18
735.54	1759.21
735.73	1755.11
735.91	1787.88
736.09	1785.83
736.27	1781.73
736.45	1783.78
736.63	1634.28
736.81	1675.24
736.99	1726.44
737.17	1787.88
737.35	1710.05
737.53	1759.21
737.71	1722.34
737.89	1802.21
738.07	1648.61
738.25	1755.11
738.43	1658.85
738.61	1705.96
738.80	1730.53
738.98	1716.20
739.16	1638.38
739.34	1660.90
739.52	1824.74
739.70	1660.90
739.88	1669.09
740.06	1779.68
740.24	1546.22
740.42	1763.30
740.60	1578.98
740.78	1699.81
740.96	1626.09
741.14	1722.34
741.32	1771.49
741.50	1650.66
741.68	1853.41
741.86	1775.59
742.04	1660.90
742.22	1662.95
742.40	1744.87
742.58	1775.59
742.76	1687.53
742.94	1687.53
743.12	1654.76
743.30	1671.14
743.48	1759.21
743.66	1652.71
743.84	1708.01
744.02	1683.43
744.20	1695.72
744.38	1609.70
744.56	1667.05
744.74	1869.80
744.92	1697.77
745.10	1775.59
745.28	1769.44
745.46	1791.97
745.64	1648.61
745.82	1806.31
746.00	1689.57
746.18	1720.29
746.36	1658.85
746.54	1746.92
746.72	1697.77
746.90	1621.99
747.08	1796.07
747.26	1748.97
747.44	1744.87
747.62	1667.05
747.80	1695.72
747.98	1763.30
748.15	1601.51
748.33	1841.12
748.51	1683.43
748.69	1761.25
748.87	1636.33
749.05	1695.72
749.23	1718.25
749.41	1730.53
749.59	1755.11
749.77	1753.06
749.95	1628.14
750.13	1703.91
750.31	1761.25
750.49	1695.72
750.67	1796.07
750.85	1734.63
751.03	1730.53
751.20	1810.40
751.38	1740.77
751.56	1769.44
751.74	1669.09
751.92	1695.72
752.10	1665.00
752.28	1789.92
752.46	1658.85
752.64	1736.68
752.82	1761.25
753.00	1800.16
753.18	1658.85
753.35	1656.81
753.53	1728.49
753.71	1691.62
753.89	1777.64
754.07	1675.24
754.25	1779.68
754.43	1726.44
754.61	1611.75
754.79	1705.96
754.97	1728.49
755.14	1748.97
755.32	1644.52
755.50	1738.73
755.68	1755.11
755.86	1675.24
756.04	1665.00
756.22	1601.51
756.40	1779.68
756.57	1814.50
756.75	1730.53
756.93	1755.11
757.11	1708.01
757.29	1634.28
757.47	1595.37
757.65	1605.61
757.82	1642.47
758.00	1744.87
758.18	1669.09
758.36	1673.19
758.54	1789.92
758.72	1691.62
758.90	1832.93
759.07	1751.01
759.25	1681.38
759.43	1697.77
759.61	1691.62
759.79	2297.82
759.97	1722.34
760.15	1712.10
760.32	1759.21
760.50	1794.02
760.68	1802.21
760.86	1687.53
761.04	1785.83
761.22	1689.57
761.39	1693.67
761.57	1701.86
761.75	1716.20
761.93	1722.34
762.11	1714.15
762.28	1691.62
762.46	1705.96
762.64	1763.30
762.82	1724.39
763.00	1726.44
763.18	1751.01
763.35	1667.05
763.53	1783.78
763.71	1665.00
763.89	1685.48
764.07	1734.63
764.24	1701.86
764.42	1742.82
764.60	1728.49
764.78	1695.72
764.96	1769.44
765.13	1746.92
765.31	1699.81
765.49	1728.49
765.67	1683.43
765.84	1550.31
766.02	1660.90
766.20	1603.56
766.38	1718.25
766.56	1716.20
766.73	1716.20
766.91	1642.47
767.09	1722.34
767.27	1767.40
767.44	1689.57
767.62	1736.68
767.80	1693.67
767.98	1732.58
768.15	1710.05
768.33	1773.54
768.51	1769.44
768.69	1712.10
768.87	1734.63
769.04	1734.63
769.22	1869.80
769.40	1789.92
769.58	1880.04
769.75	1746.92
769.93	1728.49
770.11	1701.86
770.28	1642.47
770.46	1826.79
770.64	1665.00
770.82	1736.68
770.99	1683.43
771.17	1699.81
771.35	1705.96
771.53	1746.92
771.70	1775.59
771.88	1708.01
772.06	1726.44
772.23	1689.57
772.41	1734.63
772.59	1763.30
772.77	1734.63
772.94	1705.96
773.12	1806.31
773.30	1687.53
773.47	1728.49
773.65	1632.23
773.83	1841.12
774.01	1634.28
774.18	1572.84
774.36	1644.52
774.54	1716.20
774.71	1736.68
774.89	1646.57
775.07	1703.91
775.24	1708.01
775.42	1710.05
775.60	1814.50
775.78	1722.34
775.95	1621.99
776.13	1644.52
776.31	1578.98
776.48	1705.96
776.66	1814.50
776.84	1708.01
777.01	1685.48
777.19	1691.62
777.37	1748.97
777.54	1767.40
777.72	1767.40
777.90	1732.58
778.07	1675.24
778.25	1886.18
778.43	1730.53
778.60	1587.18
778.78	1816.55
778.96	1708.01
779.13	1685.48
779.31	1783.78
779.49	1726.44
779.66	1712.10
779.84	1701.86
780.01	1701.86
780.19	1652.71
780.37	1796.07
780.54	1722.34
780.72	1687.53
780.90	1683.43
781.07	1699.81
781.25	1654.76
781.43	1845.22
781.60	1716.20
781.78	1822.69
781.95	1714.15
782.13	1714.15
782.31	1648.61
782.48	1662.95
782.66	1728.49
782.83	1722.34
783.01	1681.38
783.19	1763.30
783.36	1656.81
783.54	1644.52
783.72	1767.40
783.89	1738.73
784.07	1718.25
784.24	1724.39
784.42	1828.84
784.60	1791.97
784.77	1683.43
784.95	1578.98
785.12	1675.24
785.30	1697.77
785.47	1703.91
785.65	1714.15
785.83	1724.39
786.00	1714.15
786.18	1744.87
786.35	1697.77
786.53	1660.90
786.71	1746.92
786.88	1740.77
787.06	1695.72
787.23	1781.73
787.41	1748.97
787.58	1693.67
787.76	1656.81
787.94	1771.49
788.11	1742.82
788.29	1640.42
788.46	1667.05
788.64	1673.19
788.81	1671.14
788.99	1609.70
789.16	1740.77
789.34	1697.77
789.52	1701.86
789.69	1677.29
789.87	1593.32
790.04	1724.39
790.22	1693.67
790.39	1777.64
790.57	1652.71
790.74	1687.53
790.92	1738.73
791.09	1617.90
791.27	1710.05
791.44	1744.87
791.62	1673.19
791.79	1683.43
791.97	1746.92
792.15	1877.99
792.32	1699.81
792.50	1875.94
792.67	1808.36
792.85	1742.82
793.02	1701.86
793.20	1669.09
793.37	1683.43
793.55	1791.97
793.72	1626.09
793.90	1740.77
794.07	1650.66
794.25	1685.48
794.42	1746.92
794.60	1677.29
794.77	1779.68
794.95	1718.25
795.12	1732.58
795.30	1681.38
795.47	1652.71
795.65	1920.99
795.82	1751.01
796.00	1607.66
796.17	1638.38
796.34	1701.86
796.52	1732.58
796.69	1675.24
796.87	1755.11
797.04	1648.61
797.22	1755.11
797.39	1751.01
797.57	1802.21
797.74	1718.25
797.92	1701.86
798.09	1695.72
798.27	1757.16
798.44	1718.25
798.62	1642.47
798.79	1716.20
798.96	1728.49
799.14	1699.81
799.31	1808.36
799.49	1714.15
799.66	1660.90
799.84	1722.34
800.01	1736.68
800.19	1708.01
800.36	1593.32
800.53	1716.20
800.71	1730.53
800.88	1742.82
801.06	1644.52
801.23	1648.61
801.41	1755.11
801.58	1689.57
801.75	1726.44
801.93	1755.11
802.10	1689.57
802.28	1673.19
802.45	1667.05
802.63	1769.44
802.80	1798.12
802.97	1851.36
803.15	1712.10
803.32	1683.43
803.50	1679.33
803.67	1718.25
803.84	1632.23
804.02	1771.49
804.19	1689.57
804.37	1640.42
804.54	1724.39
804.71	1671.14
804.89	1691.62
805.06	1681.38
805.24	1673.19
805.41	1638.38
805.58	1665.00
805.76	1837.03
805.93	1714.15
806.10	1779.68
806.28	1785.83
806.45	1732.58
806.63	1736.68
806.80	1675.24
806.97	1691.62
807.15	1693.67
807.32	1673.19
807.49	1806.31
807.67	1681.38
807.84	1746.92
808.01	1636.33
808.19	1894.37
808.36	1859.56
808.54	1638.38
808.71	1665.00
808.88	1751.01
809.06	1722.34
809.23	1791.97
809.40	1716.20
809.58	1767.40
809.75	1746.92
809.92	1648.61
810.10	1853.41
810.27	1736.68
810.44	1677.29
810.62	1677.29
810.79	1740.77
810.96	1658.85
811.14	1652.71
811.31	1736.68
811.48	1748.97
811.66	1683.43
811.83	1826.79
812.00	1716.20
812.18	1804.26
812.35	1822.69
812.52	1681.38
812.69	1648.61
812.87	1687.53
813.04	1669.09
813.21	1644.52
813.39	1740.77
813.56	1681.38
813.73	1763.30
813.91	1599.46
814.08	1665.00
814.25	1712.10
814.42	1611.75
814.60	1705.96
814.77	1785.83
814.94	1660.90
815.12	1689.57
815.29	1796.07
815.46	1607.66
815.63	1722.34
815.81	1703.91
815.98	1656.81
816.15	1734.63
816.33	1746.92
816.50	1740.77
816.67	1744.87
816.84	1689.57
817.02	1662.95
817.19	1695.72
817.36	1810.40
817.53	1732.58
817.71	1662.95
817.88	1708.01
818.05	1642.47
818.22	1699.81
818.40	1855.46
818.57	1669.09
818.74	1771.49
818.91	1705.96
819.09	1808.36
819.26	1775.59
819.43	1634.28
819.60	1673.19
819.78	1716.20
819.95	1744.87
820.12	1677.29
820.29	1710.05
820.47	1751.01
820.64	1708.01
820.81	1601.51
820.98	1675.24
821.15	1763.30
821.33	1796.07
821.50	1574.89
821.67	1798.12
821.84	1662.95
822.02	1837.03
822.19	1796.07
822.36	1660.90
822.53	1755.11
822.70	1624.04
822.88	1722.34
823.05	1738.73
823.22	1802.21
823.39	1744.87
823.56	1796.07
823.74	1830.88
823.91	1650.66
824.08	1671.14
824.25	1632.23
824.42	1757.16
824.60	1642.47
824.77	1714.15
824.94	1632.23
825.11	1794.02
825.28	1660.90
825.45	1685.48
825.63	1687.53
825.80	1636.33
825.97	1767.40
826.14	1646.57
826.31	1697.77
826.48	1738.73
826.66	1617.90
826.83	1734.63
827.00	1718.25
827.17	1673.19
827.34	1718.25
827.51	1673.19
827.69	1703.91
827.86	1550.31
828.03	1652.71
828.20	1724.39
828.37	1619.94
828.54	1763.30
828.71	1658.85
828.89	1783.78
829.06	1693.67
829.23	1791.97
829.40	1648.61
829.57	1761.25
829.74	1757.16
829.91	1652.71
830.09	1656.81
830.26	1728.49
830.43	1845.22
830.60	1710.05
830.77	1767.40
830.94	1773.54
831.11	1732.58
831.28	1650.66
831.46	1781.73
831.63	1705.96
831.80	1736.68
831.97	1703.91
832.14	1669.09
832.31	1767.40
832.48	1742.82
832.65	1828.84
832.82	1648.61
832.99	1701.86
833.17	1650.66
833.34	1791.97
833.51	1728.49
833.68	1550.31
833.85	1732.58
834.02	1658.85
834.19	1654.76
834.36	1675.24
834.53	1728.49
834.70	1847.27
834.87	1738.73
835.04	1714.15
835.22	1675.24
835.39	1703.91
835.56	1660.90
835.73	1632.23
835.90	1675.24
836.07	1605.61
836.24	1777.64
836.41	1681.38
836.58	1626.09
836.75	1755.11
836.92	1802.21
837.09	1708.01
837.26	1710.05
837.43	1773.54
837.60	1714.15
837.77	1701.86
837.94	1757.16
838.12	1714.15
838.29	1718.25
838.46	1603.56
838.63	1671.14
838.80	1869.80
838.97	1748.97
839.14	1744.87
839.31	1742.82
839.48	1740.77
839.65	1644.52
839.82	1769.44
839.99	1742.82
840.16	1699.81
840.33	1685.48
840.50	1701.86
840.67	1658.85
840.84	1521.64
841.01	1685.48
841.18	1681.38
841.35	1714.15
841.52	1787.88
841.69	1828.84
841.86	1652.71
842.03	1705.96
842.20	1699.81
842.37	1771.49
842.54	1744.87
842.71	1712.10
842.88	1626.09
843.05	1771.49
843.22	1630.18
843.39	1783.78
843.56	1685.48
843.73	1777.64
843.90	1705.96
844.07	1712.10
844.24	1779.68
844.41	1746.92
844.58	1769.44
844.75	1689.57
844.92	1726.44
845.09	1660.90
845.26	1765.35
845.43	1671.14
845.60	1699.81
845.77	1757.16
845.94	1746.92
846.10	1751.01
846.27	1714.15
846.44	1671.14
846.61	1632.23
846.78	1730.53
846.95	1828.84
847.12	1695.72
847.29	1662.95
847.46	1665.00
847.63	1751.01
847.80	1646.57
847.97	1689.57
848.14	1816.55
848.31	1617.90
848.48	1646.57
848.65	1652.71
848.82	1669.09
848.98	1808.36
849.15	1751.01
849.32	1789.92
849.49	1771.49
849.66	1730.53
849.83	1775.59
850.00	1683.43
850.17	1662.95
850.34	1748.97
850.51	1701.86
850.68	1658.85
850.85	1863.65
851.01	1695.72
851.18	1697.77
851.35	1671.14
851.52	1732.58
851.69	1798.12
851.86	1667.05
852.03	1630.18
852.20	1814.50
852.37	1769.44
852.53	1683.43
852.70	1724.39
852.87	1736.68
853.04	1759.21
853.21	1658.85
853.38	1759.21
853.55	1728.49
853.72	1785.83
853.89	1619.94
854.05	1728.49
854.22	1624.04
854.39	1746.92
854.56	1800.16
854.73	1816.55
854.90	1701.86
855.07	1673.19
855.23	1671.14
855.40	1716.20
855.57	1646.57
855.74	1640.42
855.91	1861.60
856.08	1685.48
856.25	1714.15
856.41	1662.95
856.58	1722.34
856.75	1751.01
856.92	1576.94
857.09	1814.50
857.26	1671.14
857.42	1722.34
857.59	1744.87
857.76	1742.82
857.93	1675.24
858.10	1755.11
858.27	1693.67
858.43	1718.25
858.60	1720.29
858.77	1585.13
858.94	1705.96
859.11	1716.20
859.27	1673.19
859.44	1693.67
859.61	1845.22
859.78	1705.96
859.95	1656.81
860.12	1695.72
860.28	1849.32
860.45	1849.32
860.62	1640.42
860.79	1757.16
860.95	1714.15
861.12	1648.61
861.29	1697.77
861.46	1667.05
861.63	1724.39
861.79	1722.34
861.96	1662.95
862.13	1611.75
862.30	1763.30
862.47	1728.49
862.63	1648.61
862.80	1789.92
862.97	1812.45
863.14	1730.53
863.30	1648.61
863.47	1697.77
863.64	1845.22
863.81	1693.67
863.97	1634.28
864.14	1710.05
864.31	1585.13
864.48	1740.77
864.65	1722.34
864.81	1738.73
864.98	1665.00
865.15	1669.09
865.32	1830.88
865.48	1787.88
865.65	1767.40
865.82	1710.05
865.98	1677.29
866.15	1753.06
866.32	1710.05
866.49	1695.72
866.65	1753.06
866.82	1669.09
866.99	1701.86
867.16	1597.42
867.32	1691.62
867.49	1689.57
867.66	1691.62
867.83	1695.72
867.99	1632.23
868.16	1708.01
868.33	1601.51
868.49	1644.52
868.66	1791.97
868.83	1730.53
868.99	1667.05
869.16	1648.61
869.33	1777.64
869.50	1755.11
869.66	1726.44
869.83	1705.96
870.00	1607.66
870.16	1738.73
870.33	1744.87
870.50	1757.16
870.66	1683.43
870.83	1900.52
871.00	1681.38
871.17	1777.64
871.33	1808.36
871.50	1689.57
871.67	1718.25
871.83	1654.76
872.00	1863.65
872.17	1716.20
872.33	1837.03
872.50	1783.78
872.67	1638.38
872.83	1716.20
873.00	1671.14
873.17	1718.25
873.33	1718.25
873.50	1824.74
873.67	1648.61
873.83	1716.20
874.00	1708.01
874.16	1728.49
874.33	1773.54
874.50	1660.90
874.66	1675.24
874.83	1791.97
875.00	1863.65
875.16	1738.73
875.33	1781.73
875.50	1658.85
875.66	1566.70
875.83	1701.86
875.99	1697.77
876.16	1720.29
876.33	1675.24
876.49	1724.39
876.66	1769.44
876.83	1705.96
876.99	1611.75
877.16	1783.78
877.32	1699.81
877.49	1699.81
877.66	1722.34
877.82	1783.78
877.99	1744.87
878.15	1787.88
878.32	1794.02
878.49	1701.86
878.65	1630.18
878.82	1740.77
878.98	1658.85
879.15	1783.78
879.32	1746.92
879.48	1726.44
879.65	1708.01
879.81	1648.61
879.98	1734.63
880.15	1671.14
880.31	1826.79
880.48	1677.29
880.64	1812.45
880.81	1810.40
880.97	1822.69
881.14	1837.03
881.31	1677.29
881.47	1837.03
881.64	1570.79
881.80	1644.52
881.97	1789.92
882.13	1714.15
882.30	1656.81
882.47	1656.81
882.63	1701.86
882.80	1658.85
882.96	1824.74
883.13	1718.25
883.29	1669.09
883.46	1730.53
883.62	1783.78
883.79	1619.94
883.95	1734.63
884.12	1695.72
884.29	1763.30
884.45	1716.20
884.62	1763.30
884.78	1703.91
884.95	1740.77
885.11	1683.43
885.28	1742.82
885.44	1730.53
885.61	1675.24
885.77	1824.74
885.94	1775.59
886.10	1710.05
886.27	1720.29
886.43	1761.25
886.60	1820.64
886.76	1740.77
886.93	1619.94
887.09	1691.62
887.26	1712.10
887.42	1705.96
887.59	1753.06
887.75	1884.13
887.92	1867.75
888.08	1701.86
888.25	1769.44
888.41	1828.84
888.58	1693.67
888.74	1669.09
888.91	1671.14
>>>>>End Processed Spectral Data<<<<<
