SpectraSuite Data File
++++++++++++++++++++++++++++++++++++
Date: Mon Jun 06 14:03:57 CEST 2016
User: root
Dark Spectrum Present: No
Reference Spectrum Present: No
Number of Sampled Component Spectra: 1
Spectrometers: USB4C02835
Integration Time (usec): 100000 (USB4C02835)
Spectra Averaged: 1 (USB4C02835)
Boxcar Smoothing: 0 (USB4C02835)
Correct for Electrical Dark: No (USB4C02835)
Strobe/Lamp Enabled: No (USB4C02835)
Correct for Detector Non-linearity: No (USB4C02835)
Correct for Stray Light: No (USB4C02835)
Number of Pixels in Processed Spectrum: 3648
>>>>>Begin Processed Spectral Data<<<<<
177.47	1435.63
177.69	1435.63
177.91	1435.63
178.13	1480.68
178.36	1404.91
178.58	1621.99
178.80	1806.31
179.02	1740.77
179.24	1585.13
179.46	1566.70
179.68	1759.21
179.90	1681.38
180.13	1730.53
180.35	1648.61
180.57	1724.39
180.79	1734.63
181.01	1705.96
181.23	1779.68
181.45	1712.10
181.67	1710.05
181.90	1783.78
182.12	1638.38
182.34	1693.67
182.56	1769.44
182.78	1669.09
183.00	1673.19
183.22	1699.81
183.44	1521.64
183.66	1785.83
183.89	1763.30
184.11	1718.25
184.33	1746.92
184.55	1849.32
184.77	1728.49
184.99	1673.19
185.21	1767.40
185.43	1800.16
185.65	1628.14
185.87	1779.68
186.10	1873.89
186.32	1798.12
186.54	1708.01
186.76	1744.87
186.98	1810.40
187.20	1689.57
187.42	1652.71
187.64	1681.38
187.86	1675.24
188.08	1708.01
188.30	1632.23
188.52	1636.33
188.75	1775.59
188.97	1720.29
189.19	1689.57
189.41	1669.09
189.63	1697.77
189.85	1652.71
190.07	1669.09
190.29	1589.22
190.51	1679.33
190.73	1683.43
190.95	1800.16
191.17	1656.81
191.39	1581.03
191.61	1738.73
191.84	1646.57
192.06	1699.81
192.28	1669.09
192.50	1923.04
192.72	1759.21
192.94	1662.95
193.16	1740.77
193.38	1763.30
193.60	1701.86
193.82	1697.77
194.04	1738.73
194.26	1697.77
194.48	1742.82
194.70	1712.10
194.92	1693.67
195.14	1804.26
195.36	1673.19
195.58	1599.46
195.80	1693.67
196.02	1687.53
196.24	1714.15
196.46	1732.58
196.69	1701.86
196.91	1849.32
197.13	1681.38
197.35	1599.46
197.57	1773.54
197.79	1765.35
198.01	1705.96
198.23	1677.29
198.45	1748.97
198.67	1574.89
198.89	1697.77
199.11	1783.78
199.33	1654.76
199.55	1599.46
199.77	1705.96
199.99	1798.12
200.21	1689.57
200.43	1779.68
200.65	1621.99
200.87	1581.03
201.09	1691.62
201.31	1683.43
201.53	1746.92
201.75	1765.35
201.97	1730.53
202.19	1675.24
202.41	1681.38
202.63	1828.84
202.85	1732.58
203.07	1800.16
203.29	1765.35
203.51	1710.05
203.73	1636.33
203.95	1736.68
204.17	1728.49
204.39	1732.58
204.61	1740.77
204.83	1734.63
205.05	1806.31
205.27	1765.35
205.49	1814.50
205.71	1744.87
205.93	1585.13
206.15	1595.37
206.37	1755.11
206.59	1626.09
206.81	1660.90
207.03	1665.00
207.25	1650.66
207.47	1701.86
207.69	1746.92
207.91	1847.27
208.13	1804.26
208.34	1624.04
208.56	1640.42
208.78	1771.49
209.00	1621.99
209.22	1722.34
209.44	1761.25
209.66	1708.01
209.88	1730.53
210.10	1701.86
210.32	1687.53
210.54	1804.26
210.76	1693.67
210.98	1765.35
211.20	1652.71
211.42	1638.38
211.64	1783.78
211.86	1736.68
212.08	1783.78
212.30	1730.53
212.52	1679.33
212.74	1673.19
212.96	1781.73
213.17	1757.16
213.39	1671.14
213.61	1716.20
213.83	1732.58
214.05	1648.61
214.27	1662.95
214.49	1605.61
214.71	1693.67
214.93	1757.16
215.15	1654.76
215.37	1742.82
215.59	1640.42
215.81	1687.53
216.03	1746.92
216.24	1703.91
216.46	1650.66
216.68	1734.63
216.90	1785.83
217.12	1703.91
217.34	1742.82
217.56	1660.90
217.78	1710.05
218.00	1832.93
218.22	1677.29
218.44	1701.86
218.66	1712.10
218.87	1714.15
219.09	1554.41
219.31	1667.05
219.53	1751.01
219.75	1730.53
219.97	1681.38
220.19	1759.21
220.41	1730.53
220.63	1857.51
220.85	1632.23
221.06	1691.62
221.28	1789.92
221.50	1746.92
221.72	1718.25
221.94	1728.49
222.16	1646.57
222.38	1681.38
222.60	1779.68
222.82	1734.63
223.03	1681.38
223.25	1671.14
223.47	1794.02
223.69	1826.79
223.91	1671.14
224.13	1611.75
224.35	1673.19
224.57	1718.25
224.78	1714.15
225.00	1665.00
225.22	1673.19
225.44	1718.25
225.66	1681.38
225.88	1683.43
226.10	1710.05
226.32	1660.90
226.53	1787.88
226.75	1781.73
226.97	1669.09
227.19	1636.33
227.41	1673.19
227.63	1669.09
227.85	1634.28
228.06	1671.14
228.28	1646.57
228.50	1724.39
228.72	1681.38
228.94	1681.38
229.16	1595.37
229.37	1652.71
229.59	1640.42
229.81	1755.11
230.03	1746.92
230.25	1689.57
230.47	1615.85
230.69	1601.51
230.90	1744.87
231.12	1705.96
231.34	1685.48
231.56	1751.01
231.78	1683.43
232.00	1787.88
232.21	1693.67
232.43	1705.96
232.65	1621.99
232.87	1789.92
233.09	1667.05
233.30	1654.76
233.52	1701.86
233.74	1677.29
233.96	1697.77
234.18	1624.04
234.40	1644.52
234.61	1804.26
234.83	1695.72
235.05	1665.00
235.27	1730.53
235.49	1806.31
235.70	1689.57
235.92	1765.35
236.14	1675.24
236.36	1845.22
236.58	1640.42
236.79	1798.12
237.01	1699.81
237.23	1675.24
237.45	1757.16
237.67	1677.29
237.88	1712.10
238.10	1796.07
238.32	1607.66
238.54	1591.27
238.76	1685.48
238.97	1691.62
239.19	1662.95
239.41	1763.30
239.63	1759.21
239.85	1648.61
240.06	1658.85
240.28	1615.85
240.50	1757.16
240.72	1716.20
240.93	1636.33
241.15	1816.55
241.37	1701.86
241.59	1720.29
241.81	1574.89
242.02	1654.76
242.24	1718.25
242.46	1773.54
242.68	1685.48
242.89	1673.19
243.11	1763.30
243.33	1646.57
243.55	1671.14
243.76	1691.62
243.98	1654.76
244.20	1619.94
244.42	1673.19
244.64	1769.44
244.85	1689.57
245.07	1667.05
245.29	1755.11
245.51	1732.58
245.72	1712.10
245.94	1716.20
246.16	1806.31
246.38	1810.40
246.59	1675.24
246.81	1603.56
247.03	1691.62
247.24	1589.22
247.46	1693.67
247.68	1740.77
247.90	1667.05
248.11	1687.53
248.33	1763.30
248.55	1691.62
248.77	1757.16
248.98	1767.40
249.20	1753.06
249.42	1744.87
249.64	1751.01
249.85	1685.48
250.07	1699.81
250.29	1753.06
250.50	1718.25
250.72	1603.56
250.94	1742.82
251.16	1871.84
251.37	1773.54
251.59	1718.25
251.81	1775.59
252.02	1738.73
252.24	1708.01
252.46	1757.16
252.68	1658.85
252.89	1654.76
253.11	1675.24
253.33	1796.07
253.54	1710.05
253.76	1636.33
253.98	1630.18
254.20	1624.04
254.41	1626.09
254.63	1763.30
254.85	1615.85
255.06	1662.95
255.28	1714.15
255.50	1689.57
255.71	1630.18
255.93	1597.42
256.15	1662.95
256.36	1697.77
256.58	1691.62
256.80	1710.05
257.02	1697.77
257.23	1656.81
257.45	1757.16
257.67	1691.62
257.88	1665.00
258.10	1734.63
258.32	1675.24
258.53	1738.73
258.75	1806.31
258.97	1728.49
259.18	1759.21
259.40	1673.19
259.62	1728.49
259.83	1845.22
260.05	1714.15
260.27	1927.14
260.48	1787.88
260.70	1701.86
260.92	1697.77
261.13	1722.34
261.35	1744.87
261.57	1744.87
261.78	1640.42
262.00	1652.71
262.22	1791.97
262.43	1636.33
262.65	1632.23
262.86	1697.77
263.08	1845.22
263.30	1609.70
263.51	1603.56
263.73	1624.04
263.95	1685.48
264.16	1734.63
264.38	1656.81
264.60	1775.59
264.81	1771.49
265.03	1726.44
265.25	1718.25
265.46	1738.73
265.68	1771.49
265.89	1667.05
266.11	1744.87
266.33	1708.01
266.54	1775.59
266.76	1742.82
266.98	1693.67
267.19	1771.49
267.41	1783.78
267.62	1755.11
267.84	1624.04
268.06	1720.29
268.27	1699.81
268.49	1697.77
268.70	1753.06
268.92	1679.33
269.14	1681.38
269.35	1595.37
269.57	1632.23
269.79	1755.11
270.00	1722.34
270.22	1804.26
270.43	1671.14
270.65	1601.51
270.87	1714.15
271.08	1705.96
271.30	1763.30
271.51	1751.01
271.73	1771.49
271.95	1738.73
272.16	1697.77
272.38	1673.19
272.59	1693.67
272.81	1740.77
273.02	1724.39
273.24	1728.49
273.46	1730.53
273.67	1695.72
273.89	1681.38
274.10	1728.49
274.32	1843.17
274.54	1767.40
274.75	1779.68
274.97	1683.43
275.18	1669.09
275.40	1744.87
275.61	1724.39
275.83	1687.53
276.05	1699.81
276.26	1738.73
276.48	1708.01
276.69	1722.34
276.91	1722.34
277.12	1748.97
277.34	1787.88
277.55	1705.96
277.77	1712.10
277.99	1621.99
278.20	1595.37
278.42	1644.52
278.63	1673.19
278.85	1652.71
279.06	1708.01
279.28	1710.05
279.49	1712.10
279.71	1771.49
279.93	1714.15
280.14	1677.29
280.36	1658.85
280.57	1742.82
280.79	1689.57
281.00	1693.67
281.22	1685.48
281.43	1849.32
281.65	1564.65
281.86	1601.51
282.08	1738.73
282.29	1804.26
282.51	1624.04
282.73	1630.18
282.94	1564.65
283.16	1804.26
283.37	1826.79
283.59	1665.00
283.80	1740.77
284.02	1734.63
284.23	1746.92
284.45	1646.57
284.66	1615.85
284.88	1650.66
285.09	1763.30
285.31	1738.73
285.52	1722.34
285.74	1617.90
285.95	1767.40
286.17	1675.24
286.38	1695.72
286.60	1658.85
286.81	1681.38
287.03	1675.24
287.24	1681.38
287.46	1771.49
287.67	1689.57
287.89	1830.88
288.10	1642.47
288.32	1714.15
288.53	1783.78
288.75	1740.77
288.96	1765.35
289.18	1632.23
289.39	1722.34
289.61	1744.87
289.82	1722.34
290.04	1810.40
290.25	1648.61
290.47	1724.39
290.68	1734.63
290.90	1687.53
291.11	1607.66
291.33	1732.58
291.54	1607.66
291.76	1660.90
291.97	1652.71
292.18	1824.74
292.40	1660.90
292.61	1687.53
292.83	1806.31
293.04	1710.05
293.26	1693.67
293.47	1677.29
293.69	1660.90
293.90	1683.43
294.12	1859.56
294.33	1701.86
294.55	1714.15
294.76	1804.26
294.97	1800.16
295.19	1839.08
295.40	1728.49
295.62	1685.48
295.83	1787.88
296.05	1685.48
296.26	1787.88
296.48	1730.53
296.69	1621.99
296.90	1779.68
297.12	1738.73
297.33	1777.64
297.55	1718.25
297.76	1720.29
297.98	1798.12
298.19	1669.09
298.41	1714.15
298.62	1677.29
298.83	1894.37
299.05	1761.25
299.26	1681.38
299.48	1732.58
299.69	1748.97
299.90	1679.33
300.12	1642.47
300.33	1773.54
300.55	1728.49
300.76	1781.73
300.98	1589.22
301.19	1724.39
301.40	1679.33
301.62	1669.09
301.83	1724.39
302.05	1718.25
302.26	1685.48
302.47	1759.21
302.69	1619.94
302.90	1738.73
303.12	1654.76
303.33	1718.25
303.54	1847.27
303.76	1648.61
303.97	1736.68
304.19	1787.88
304.40	1597.42
304.61	1759.21
304.83	1781.73
305.04	1724.39
305.26	1675.24
305.47	1654.76
305.68	1755.11
305.90	1693.67
306.11	1699.81
306.33	1755.11
306.54	1699.81
306.75	1669.09
306.97	1673.19
307.18	1658.85
307.39	1669.09
307.61	1763.30
307.82	1669.09
308.04	1687.53
308.25	1685.48
308.46	1746.92
308.68	1693.67
308.89	1671.14
309.10	1728.49
309.32	1716.20
309.53	1722.34
309.74	1691.62
309.96	1642.47
310.17	1728.49
310.39	1632.23
310.60	1699.81
310.81	1697.77
311.03	1624.04
311.24	1734.63
311.45	1683.43
311.67	1837.03
311.88	1714.15
312.09	1644.52
312.31	1624.04
312.52	1701.86
312.73	1673.19
312.95	1589.22
313.16	1710.05
313.37	1724.39
313.59	1753.06
313.80	1722.34
314.01	1875.94
314.23	1677.29
314.44	1652.71
314.65	1617.90
314.87	1611.75
315.08	1656.81
315.29	1669.09
315.51	1648.61
315.72	1640.42
315.93	1783.78
316.15	1759.21
316.36	1677.29
316.57	1726.44
316.79	1751.01
317.00	1759.21
317.21	1789.92
317.43	1632.23
317.64	1681.38
317.85	1626.09
318.07	1626.09
318.28	1736.68
318.49	1783.78
318.70	1851.36
318.92	1804.26
319.13	1810.40
319.34	1884.13
319.56	1818.60
319.77	1853.41
319.98	1734.63
320.20	1802.21
320.41	1816.55
320.62	1687.53
320.83	1665.00
321.05	1804.26
321.26	1687.53
321.47	1705.96
321.69	1755.11
321.90	1693.67
322.11	1632.23
322.32	1687.53
322.54	1744.87
322.75	1689.57
322.96	1779.68
323.18	1621.99
323.39	1634.28
323.60	1609.70
323.81	1759.21
324.03	1693.67
324.24	1671.14
324.45	1730.53
324.66	1701.86
324.88	1738.73
325.09	1816.55
325.30	1720.29
325.52	1773.54
325.73	1681.38
325.94	1679.33
326.15	1599.46
326.37	1656.81
326.58	1734.63
326.79	1894.37
327.00	1611.75
327.22	1777.64
327.43	1644.52
327.64	1665.00
327.85	1677.29
328.07	1671.14
328.28	1796.07
328.49	1783.78
328.70	1716.20
328.92	1693.67
329.13	1746.92
329.34	1650.66
329.55	1847.27
329.76	1736.68
329.98	1726.44
330.19	1789.92
330.40	1691.62
330.61	1718.25
330.83	1804.26
331.04	1656.81
331.25	1658.85
331.46	1699.81
331.68	1654.76
331.89	1763.30
332.10	1679.33
332.31	1658.85
332.52	1683.43
332.74	1783.78
332.95	1677.29
333.16	1687.53
333.37	1802.21
333.58	1685.48
333.80	1751.01
334.01	1648.61
334.22	1621.99
334.43	1644.52
334.64	1712.10
334.86	1652.71
335.07	1646.57
335.28	1787.88
335.49	1650.66
335.70	1734.63
335.92	1755.11
336.13	1800.16
336.34	1714.15
336.55	1740.77
336.76	1765.35
336.98	1599.46
337.19	1748.97
337.40	1826.79
337.61	1902.56
337.82	1683.43
338.04	1773.54
338.25	1632.23
338.46	1683.43
338.67	1648.61
338.88	1648.61
339.09	1669.09
339.31	1714.15
339.52	1652.71
339.73	1675.24
339.94	1705.96
340.15	1777.64
340.36	1669.09
340.58	1665.00
340.79	1566.70
341.00	1761.25
341.21	1662.95
341.42	1767.40
341.63	1708.01
341.85	1685.48
342.06	1648.61
342.27	1607.66
342.48	1849.32
342.69	1685.48
342.90	1710.05
343.12	1699.81
343.33	1722.34
343.54	1732.58
343.75	1763.30
343.96	1708.01
344.17	1726.44
344.38	1751.01
344.60	1662.95
344.81	1595.37
345.02	1732.58
345.23	1748.97
345.44	1802.21
345.65	1738.73
345.86	1779.68
346.07	1689.57
346.29	1718.25
346.50	1665.00
346.71	1712.10
346.92	1808.36
347.13	1865.70
347.34	1712.10
347.55	1675.24
347.76	1812.45
347.98	1609.70
348.19	1636.33
348.40	1732.58
348.61	1689.57
348.82	1814.50
349.03	1718.25
349.24	1665.00
349.45	1791.97
349.66	1611.75
349.88	1761.25
350.09	1677.29
350.30	1669.09
350.51	1767.40
350.72	1689.57
350.93	1677.29
351.14	1648.61
351.35	1722.34
351.56	1656.81
351.77	1691.62
351.99	1683.43
352.20	1796.07
352.41	1703.91
352.62	1572.84
352.83	1701.86
353.04	1683.43
353.25	1654.76
353.46	1773.54
353.67	1734.63
353.88	1599.46
354.09	1789.92
354.30	1636.33
354.52	1757.16
354.73	1736.68
354.94	1718.25
355.15	1740.77
355.36	1808.36
355.57	1636.33
355.78	1611.75
355.99	1673.19
356.20	1738.73
356.41	1748.97
356.62	1679.33
356.83	1687.53
357.04	1830.88
357.25	1566.70
357.46	1697.77
357.68	1621.99
357.89	1605.61
358.10	1708.01
358.31	1705.96
358.52	1619.94
358.73	1617.90
358.94	1675.24
359.15	1667.05
359.36	1830.88
359.57	1710.05
359.78	1738.73
359.99	1708.01
360.20	1628.14
360.41	1751.01
360.62	1687.53
360.83	1640.42
361.04	1675.24
361.25	1660.90
361.46	1849.32
361.67	1703.91
361.88	1767.40
362.09	1771.49
362.30	1724.39
362.51	1673.19
362.72	1699.81
362.93	1654.76
363.14	1771.49
363.35	1681.38
363.56	1681.38
363.78	1730.53
363.99	1726.44
364.20	1630.18
364.41	1654.76
364.62	1802.21
364.83	1761.25
365.04	1720.29
365.25	1708.01
365.46	1796.07
365.67	1658.85
365.88	1611.75
366.09	1693.67
366.30	1578.98
366.51	1646.57
366.72	1687.53
366.93	1675.24
367.14	1714.15
367.35	1812.45
367.56	1701.86
367.77	1820.64
367.98	1701.86
368.18	1691.62
368.39	1724.39
368.60	1673.19
368.81	1761.25
369.02	1646.57
369.23	1671.14
369.44	1607.66
369.65	1656.81
369.86	1767.40
370.07	1697.77
370.28	1634.28
370.49	1755.11
370.70	1675.24
370.91	1691.62
371.12	1636.33
371.33	1714.15
371.54	1681.38
371.75	1734.63
371.96	1632.23
372.17	1687.53
372.38	1718.25
372.59	1636.33
372.80	1710.05
373.01	1617.90
373.22	1740.77
373.43	1685.48
373.64	1669.09
373.85	1748.97
374.06	1789.92
374.26	1736.68
374.47	1728.49
374.68	1763.30
374.89	1738.73
375.10	1652.71
375.31	1740.77
375.52	1654.76
375.73	1697.77
375.94	1675.24
376.15	1742.82
376.36	1634.28
376.57	1705.96
376.78	1714.15
376.99	1736.68
377.20	1763.30
377.40	1720.29
377.61	1804.26
377.82	1624.04
378.03	1765.35
378.24	1746.92
378.45	1658.85
378.66	1687.53
378.87	1615.85
379.08	1642.47
379.29	1667.05
379.50	1800.16
379.71	1626.09
379.91	1683.43
380.12	1662.95
380.33	1619.94
380.54	1738.73
380.75	1628.14
380.96	1701.86
381.17	1781.73
381.38	1697.77
381.59	1675.24
381.80	1755.11
382.00	1832.93
382.21	1716.20
382.42	1806.31
382.63	1906.66
382.84	1722.34
383.05	1746.92
383.26	1830.88
383.47	1767.40
383.68	1726.44
383.88	1683.43
384.09	1705.96
384.30	1757.16
384.51	1697.77
384.72	1669.09
384.93	1695.72
385.14	1677.29
385.35	1777.64
385.55	1662.95
385.76	1796.07
385.97	1705.96
386.18	1601.51
386.39	1712.10
386.60	1742.82
386.81	1638.38
387.02	1693.67
387.22	1671.14
387.43	1718.25
387.64	1787.88
387.85	1841.12
388.06	2203.61
388.27	4321.21
388.48	6848.41
388.68	8064.90
388.89	9656.17
389.10	9697.13
389.31	8503.17
389.52	7657.36
389.73	6557.60
389.93	6193.06
390.14	5838.76
390.35	5154.74
390.56	4636.60
390.77	3723.21
390.98	3012.56
391.18	2613.21
391.39	2074.59
391.60	1830.88
391.81	1902.56
392.02	1728.49
392.23	1900.52
392.43	1693.67
392.64	1826.79
392.85	1697.77
393.06	1837.03
393.27	1763.30
393.47	1677.29
393.68	1720.29
393.89	1638.38
394.10	1765.35
394.31	1708.01
394.52	1677.29
394.72	1697.77
394.93	1824.74
395.14	1667.05
395.35	1699.81
395.56	1611.75
395.76	1751.01
395.97	1748.97
396.18	1820.64
396.39	1777.64
396.60	2023.39
396.80	1953.76
397.01	1794.02
397.22	1779.68
397.43	1820.64
397.64	1748.97
397.84	1773.54
398.05	1859.56
398.26	1712.10
398.47	1765.35
398.67	1787.88
398.88	1765.35
399.09	1718.25
399.30	1726.44
399.51	1777.64
399.71	1658.85
399.92	1662.95
400.13	1753.06
400.34	1701.86
400.54	1681.38
400.75	1804.26
400.96	1710.05
401.17	1726.44
401.37	1726.44
401.58	1681.38
401.79	1714.15
402.00	1880.04
402.21	2029.54
402.41	1976.29
402.62	2011.11
402.83	2084.83
403.04	2064.35
403.24	2080.74
403.45	1820.64
403.66	1859.56
403.87	1882.08
404.07	1861.60
404.28	1920.99
404.49	1859.56
404.70	1732.58
404.90	1740.77
405.11	1701.86
405.32	1722.34
405.52	1689.57
405.73	1597.42
405.94	1654.76
406.15	1742.82
406.35	1837.03
406.56	1722.34
406.77	1683.43
406.98	1736.68
407.18	1662.95
407.39	1773.54
407.60	1740.77
407.80	1734.63
408.01	1654.76
408.22	1763.30
408.43	1710.05
408.63	1746.92
408.84	1746.92
409.05	1728.49
409.25	1660.90
409.46	1685.48
409.67	1759.21
409.88	1753.06
410.08	1720.29
410.29	1671.14
410.50	1681.38
410.70	1769.44
410.91	1644.52
411.12	1691.62
411.32	1667.05
411.53	1650.66
411.74	1841.12
411.95	1806.31
412.15	1699.81
412.36	1728.49
412.57	1728.49
412.77	1877.99
412.98	1746.92
413.19	1648.61
413.39	1718.25
413.60	1695.72
413.81	1830.88
414.01	1626.09
414.22	1736.68
414.43	1798.12
414.63	1679.33
414.84	1804.26
415.05	1763.30
415.25	1615.85
415.46	1697.77
415.67	1710.05
415.87	1755.11
416.08	1765.35
416.29	1632.23
416.49	1730.53
416.70	1679.33
416.91	1640.42
417.11	1761.25
417.32	1701.86
417.53	1665.00
417.73	1753.06
417.94	1636.33
418.15	1628.14
418.35	1689.57
418.56	1701.86
418.77	1796.07
418.97	1722.34
419.18	1689.57
419.38	1642.47
419.59	1755.11
419.80	1748.97
420.00	1693.67
420.21	1726.44
420.42	1734.63
420.62	1720.29
420.83	1677.29
421.04	1626.09
421.24	1677.29
421.45	1775.59
421.65	1734.63
421.86	1738.73
422.07	1808.36
422.27	1730.53
422.48	1734.63
422.69	1685.48
422.89	1679.33
423.10	1648.61
423.30	1722.34
423.51	1630.18
423.72	1755.11
423.92	1767.40
424.13	1667.05
424.33	1738.73
424.54	1689.57
424.75	1710.05
424.95	1744.87
425.16	1734.63
425.36	1724.39
425.57	1767.40
425.78	1767.40
425.98	1798.12
426.19	1775.59
426.39	1654.76
426.60	1685.48
426.81	1806.31
427.01	1718.25
427.22	1669.09
427.42	1650.66
427.63	1665.00
427.83	1722.34
428.04	1771.49
428.25	1665.00
428.45	1724.39
428.66	1781.73
428.86	1691.62
429.07	1656.81
429.28	1673.19
429.48	1626.09
429.69	1626.09
429.89	1718.25
430.10	1650.66
430.30	1804.26
430.51	1748.97
430.71	1650.66
430.92	1708.01
431.13	1710.05
431.33	1734.63
431.54	1714.15
431.74	1853.41
431.95	1812.45
432.15	1621.99
432.36	1722.34
432.56	1746.92
432.77	1771.49
432.98	1783.78
433.18	1783.78
433.39	1708.01
433.59	1724.39
433.80	1830.88
434.00	1857.51
434.21	1628.14
434.41	1712.10
434.62	1822.69
434.82	1578.98
435.03	1593.32
435.23	1787.88
435.44	1615.85
435.64	1697.77
435.85	1804.26
436.06	1708.01
436.26	1761.25
436.47	1718.25
436.67	1736.68
436.88	1691.62
437.08	1798.12
437.29	1757.16
437.49	1671.14
437.70	1716.20
437.90	1742.82
438.11	1839.08
438.31	1763.30
438.52	1964.00
438.72	1873.89
438.93	1925.09
439.13	1812.45
439.34	1802.21
439.54	1763.30
439.75	1814.50
439.95	1847.27
440.16	1763.30
440.36	1726.44
440.57	1714.15
440.77	1755.11
440.98	1665.00
441.18	1724.39
441.39	1689.57
441.59	1607.66
441.80	1804.26
442.00	1730.53
442.21	1783.78
442.41	1673.19
442.62	1662.95
442.82	1681.38
443.02	1722.34
443.23	1736.68
443.43	1755.11
443.64	1873.89
443.84	1681.38
444.05	1828.84
444.25	1677.29
444.46	1699.81
444.66	1730.53
444.87	1761.25
445.07	1691.62
445.28	1685.48
445.48	1771.49
445.69	1816.55
445.89	1812.45
446.09	1757.16
446.30	2033.63
446.50	2514.91
446.71	3680.20
446.91	4245.44
447.12	4716.47
447.32	4802.49
447.53	4227.01
447.73	3762.12
447.93	3575.75
448.14	3286.99
448.34	3276.75
448.55	2983.89
448.75	2791.38
448.96	2635.74
449.16	2387.93
449.36	2269.15
449.57	2060.26
449.77	1880.04
449.98	1761.25
450.18	1783.78
450.39	1910.75
450.59	1810.40
450.79	1800.16
451.00	1701.86
451.20	1769.44
451.41	1732.58
451.61	1691.62
451.81	1712.10
452.02	1769.44
452.22	1751.01
452.43	1718.25
452.63	1714.15
452.84	1718.25
453.04	1726.44
453.24	1738.73
453.45	1730.53
453.65	1701.86
453.86	1753.06
454.06	1703.91
454.26	1767.40
454.47	1744.87
454.67	1796.07
454.87	1656.81
455.08	1687.53
455.28	1816.55
455.49	1771.49
455.69	1691.62
455.89	1851.36
456.10	1802.21
456.30	1763.30
456.51	1742.82
456.71	1734.63
456.91	1814.50
457.12	1732.58
457.32	1775.59
457.52	1642.47
457.73	1720.29
457.93	1798.12
458.14	1665.00
458.34	1697.77
458.54	1748.97
458.75	1671.14
458.95	1742.82
459.15	1757.16
459.36	1722.34
459.56	1724.39
459.76	1826.79
459.97	1738.73
460.17	1765.35
460.37	1767.40
460.58	1708.01
460.78	1734.63
460.99	1728.49
461.19	1695.72
461.39	1705.96
461.60	1701.86
461.80	1748.97
462.00	1642.47
462.21	1654.76
462.41	1693.67
462.61	1640.42
462.82	1619.94
463.02	1771.49
463.22	1769.44
463.43	1746.92
463.63	1769.44
463.83	1787.88
464.04	1703.91
464.24	1736.68
464.44	1675.24
464.64	1714.15
464.85	1800.16
465.05	1826.79
465.25	1753.06
465.46	1710.05
465.66	1746.92
465.86	1785.83
466.07	1705.96
466.27	1736.68
466.47	1665.00
466.68	1615.85
466.88	1841.12
467.08	1738.73
467.29	1822.69
467.49	1738.73
467.69	1679.33
467.89	1718.25
468.10	1751.01
468.30	1738.73
468.50	1740.77
468.71	1820.64
468.91	1675.24
469.11	1849.32
469.31	1701.86
469.52	1665.00
469.72	1779.68
469.92	1847.27
470.13	1714.15
470.33	1710.05
470.53	1851.36
470.73	2058.21
470.94	2336.73
471.14	2277.34
471.34	2537.43
471.54	2531.29
471.75	2220.00
471.95	2115.55
472.15	2031.58
472.36	2107.36
472.56	2027.49
472.76	2025.44
472.96	2011.11
473.17	2004.96
473.37	1939.43
473.57	1755.11
473.77	1886.18
473.98	1769.44
474.18	1593.32
474.38	1949.67
474.58	1662.95
474.79	1712.10
474.99	1742.82
475.19	1841.12
475.39	1693.67
475.60	1701.86
475.80	1759.21
476.00	1775.59
476.20	1697.77
476.41	1718.25
476.61	1769.44
476.81	1757.16
477.01	1667.05
477.21	1794.02
477.42	1867.75
477.62	1609.70
477.82	1722.34
478.02	1583.08
478.23	1828.84
478.43	1714.15
478.63	1714.15
478.83	1773.54
479.03	1744.87
479.24	1808.36
479.44	1851.36
479.64	1677.29
479.84	1652.71
480.04	1660.90
480.25	1791.97
480.45	1677.29
480.65	1695.72
480.85	1734.63
481.06	1693.67
481.26	1738.73
481.46	1685.48
481.66	1740.77
481.86	1636.33
482.06	1810.40
482.27	1714.15
482.47	1687.53
482.67	1738.73
482.87	1714.15
483.07	1771.49
483.28	1689.57
483.48	1669.09
483.68	1695.72
483.88	1718.25
484.08	1603.56
484.29	1677.29
484.49	1665.00
484.69	1710.05
484.89	1787.88
485.09	1773.54
485.29	1732.58
485.50	1791.97
485.70	1734.63
485.90	1853.41
486.10	1832.93
486.30	1718.25
486.50	1777.64
486.71	1740.77
486.91	1798.12
487.11	1757.16
487.31	1669.09
487.51	1773.54
487.71	1687.53
487.91	1667.05
488.12	1626.09
488.32	1585.13
488.52	1691.62
488.72	1619.94
488.92	1802.21
489.12	1796.07
489.32	1748.97
489.53	1763.30
489.73	1599.46
489.93	1849.32
490.13	1654.76
490.33	1640.42
490.53	1734.63
490.73	1808.36
490.94	1626.09
491.14	1796.07
491.34	1867.75
491.54	2187.23
491.74	2562.01
491.94	2885.59
492.14	3041.23
492.34	2910.16
492.54	2770.90
492.75	2529.24
492.95	2486.23
493.15	2353.12
493.35	2295.77
493.55	2289.63
493.75	2119.65
493.95	2111.46
494.15	2060.26
494.35	1882.08
494.56	1933.28
494.76	1814.50
494.96	1787.88
495.16	1798.12
495.36	1673.19
495.56	1783.78
495.76	1703.91
495.96	1681.38
496.16	1675.24
496.36	1816.55
496.56	1712.10
496.77	1757.16
496.97	1722.34
497.17	1791.97
497.37	1673.19
497.57	1746.92
497.77	1710.05
497.97	1693.67
498.17	1714.15
498.37	1677.29
498.57	1800.16
498.77	1650.66
498.97	1699.81
499.17	1845.22
499.38	1767.40
499.58	1832.93
499.78	1820.64
499.98	1816.55
500.18	1732.58
500.38	1689.57
500.58	1908.71
500.78	2557.91
500.98	4472.76
501.18	5795.75
501.38	6780.82
501.58	7065.49
501.78	6537.12
501.98	5552.04
502.18	5038.00
502.38	4403.13
502.58	4116.42
502.78	3737.54
502.98	3657.67
503.18	3442.64
503.38	3106.77
503.59	2836.44
503.79	2699.22
503.99	2506.71
504.19	2246.62
504.39	2217.95
504.59	2176.99
504.79	2086.88
504.99	2068.45
505.19	1941.47
505.39	1894.37
505.59	2031.58
505.79	1910.75
505.99	1812.45
506.19	1804.26
506.39	1869.80
506.59	1699.81
506.79	1751.01
506.99	1845.22
507.19	1769.44
507.39	1677.29
507.59	1708.01
507.79	1701.86
507.99	1708.01
508.19	1781.73
508.39	1710.05
508.59	1708.01
508.79	1834.98
508.99	1824.74
509.19	1677.29
509.39	1777.64
509.59	1689.57
509.79	1708.01
509.99	1689.57
510.19	1865.70
510.39	1796.07
510.59	1701.86
510.79	1705.96
510.99	1624.04
511.19	1642.47
511.39	1757.16
511.59	1763.30
511.79	1794.02
511.99	1775.59
512.19	1794.02
512.38	1724.39
512.58	1708.01
512.78	1746.92
512.98	1763.30
513.18	1763.30
513.38	1689.57
513.58	1693.67
513.78	1796.07
513.98	1759.21
514.18	1712.10
514.38	1716.20
514.58	1789.92
514.78	1720.29
514.98	1710.05
515.18	1751.01
515.38	1718.25
515.58	1771.49
515.78	1748.97
515.98	1748.97
516.18	1798.12
516.38	1744.87
516.57	1632.23
516.77	1648.61
516.97	1773.54
517.17	1746.92
517.37	1730.53
517.57	1798.12
517.77	1681.38
517.97	1746.92
518.17	1802.21
518.37	1685.48
518.57	1576.94
518.77	1703.91
518.97	1779.68
519.16	1822.69
519.36	1806.31
519.56	1726.44
519.76	1673.19
519.96	1771.49
520.16	1820.64
520.36	1718.25
520.56	1804.26
520.76	1697.77
520.96	1746.92
521.16	1763.30
521.35	1761.25
521.55	1771.49
521.75	1693.67
521.95	1691.62
522.15	1724.39
522.35	1609.70
522.55	1697.77
522.75	1771.49
522.95	1669.09
523.14	1685.48
523.34	1775.59
523.54	1689.57
523.74	1814.50
523.94	1714.15
524.14	1609.70
524.34	1751.01
524.54	1853.41
524.73	1771.49
524.93	1718.25
525.13	1779.68
525.33	1617.90
525.53	1851.36
525.73	1808.36
525.93	1796.07
526.13	1714.15
526.32	1810.40
526.52	1773.54
526.72	1802.21
526.92	1679.33
527.12	1726.44
527.32	1632.23
527.52	1783.78
527.71	1757.16
527.91	1820.64
528.11	1689.57
528.31	1765.35
528.51	1703.91
528.71	1751.01
528.90	1791.97
529.10	1767.40
529.30	1765.35
529.50	1654.76
529.70	1689.57
529.90	1720.29
530.09	1693.67
530.29	1677.29
530.49	1685.48
530.69	1871.84
530.89	1718.25
531.09	1820.64
531.28	1714.15
531.48	1839.08
531.68	1718.25
531.88	1724.39
532.08	1767.40
532.28	1753.06
532.47	1746.92
532.67	1806.31
532.87	1814.50
533.07	1626.09
533.27	1767.40
533.46	1697.77
533.66	1738.73
533.86	1695.72
534.06	1669.09
534.26	1746.92
534.45	1759.21
534.65	1695.72
534.85	1814.50
535.05	1691.62
535.25	1888.23
535.44	1712.10
535.64	1691.62
535.84	1677.29
536.04	1642.47
536.24	1689.57
536.43	1658.85
536.63	1800.16
536.83	1761.25
537.03	1763.30
537.22	1638.38
537.42	1607.66
537.62	1642.47
537.82	1722.34
538.02	1796.07
538.21	1751.01
538.41	1916.90
538.61	1804.26
538.81	1642.47
539.00	1798.12
539.20	1658.85
539.40	1712.10
539.60	1787.88
539.79	1787.88
539.99	1726.44
540.19	1712.10
540.39	1724.39
540.58	1730.53
540.78	1728.49
540.98	1724.39
541.18	1753.06
541.37	1826.79
541.57	1775.59
541.77	1724.39
541.97	1683.43
542.16	1640.42
542.36	1609.70
542.56	1708.01
542.76	1806.31
542.95	1789.92
543.15	1734.63
543.35	1763.30
543.54	1716.20
543.74	1662.95
543.94	1767.40
544.14	1732.58
544.33	1777.64
544.53	1785.83
544.73	1722.34
544.93	1679.33
545.12	1671.14
545.32	1804.26
545.52	1732.58
545.71	1667.05
545.91	1775.59
546.11	1650.66
546.30	1693.67
546.50	1675.24
546.70	1763.30
546.90	1730.53
547.09	1681.38
547.29	1718.25
547.49	1656.81
547.68	1791.97
547.88	1658.85
548.08	1708.01
548.27	2160.61
548.47	1671.14
548.67	1746.92
548.87	1787.88
549.06	1681.38
549.26	1705.96
549.46	1697.77
549.65	1710.05
549.85	1759.21
550.05	1763.30
550.24	1644.52
550.44	1675.24
550.64	1763.30
550.83	1755.11
551.03	1753.06
551.23	1738.73
551.42	1744.87
551.62	1673.19
551.82	1726.44
552.01	1824.74
552.21	1810.40
552.41	1724.39
552.60	1814.50
552.80	1728.49
553.00	1658.85
553.19	1714.15
553.39	1787.88
553.59	1613.80
553.78	1791.97
553.98	1798.12
554.17	1724.39
554.37	1769.44
554.57	1765.35
554.76	1640.42
554.96	1716.20
555.16	1693.67
555.35	1828.84
555.55	1814.50
555.75	1742.82
555.94	1832.93
556.14	1648.61
556.33	1726.44
556.53	1708.01
556.73	1742.82
556.92	1804.26
557.12	1816.55
557.32	1820.64
557.51	1800.16
557.71	1761.25
557.90	1816.55
558.10	1783.78
558.30	1669.09
558.49	1765.35
558.69	1783.78
558.88	1798.12
559.08	1761.25
559.28	1734.63
559.47	1671.14
559.67	1839.08
559.86	1845.22
560.06	1732.58
560.26	1800.16
560.45	1701.86
560.65	1695.72
560.84	1812.45
561.04	1650.66
561.24	1728.49
561.43	1611.75
561.63	1853.41
561.82	1761.25
562.02	1812.45
562.22	1640.42
562.41	1720.29
562.61	1716.20
562.80	1687.53
563.00	1837.03
563.19	1806.31
563.39	1779.68
563.59	1775.59
563.78	1675.24
563.98	1609.70
564.17	1693.67
564.37	1662.95
564.56	1746.92
564.76	1679.33
564.96	1818.60
565.15	1759.21
565.35	1896.42
565.54	1701.86
565.74	1798.12
565.93	1718.25
566.13	1701.86
566.32	1785.83
566.52	1812.45
566.71	1710.05
566.91	1744.87
567.11	1726.44
567.30	1673.19
567.50	1736.68
567.69	1693.67
567.89	1695.72
568.08	1718.25
568.28	1767.40
568.47	1648.61
568.67	1808.36
568.86	1712.10
569.06	1804.26
569.25	1724.39
569.45	1679.33
569.64	1732.58
569.84	1695.72
570.04	1761.25
570.23	1660.90
570.43	1736.68
570.62	1720.29
570.82	1820.64
571.01	1675.24
571.21	1773.54
571.40	1656.81
571.60	1755.11
571.79	1808.36
571.99	1701.86
572.18	1742.82
572.38	1738.73
572.57	1716.20
572.77	1781.73
572.96	1849.32
573.16	1763.30
573.35	1677.29
573.55	1812.45
573.74	1744.87
573.94	1732.58
574.13	1648.61
574.33	1781.73
574.52	1767.40
574.71	1744.87
574.91	1722.34
575.10	1775.59
575.30	1742.82
575.49	1757.16
575.69	1722.34
575.88	1679.33
576.08	1746.92
576.27	1728.49
576.47	1738.73
576.66	1816.55
576.86	1746.92
577.05	1734.63
577.25	1794.02
577.44	1826.79
577.64	1703.91
577.83	1828.84
578.02	1718.25
578.22	1791.97
578.41	1800.16
578.61	1744.87
578.80	1753.06
579.00	1779.68
579.19	1724.39
579.39	1804.26
579.58	1753.06
579.77	1705.96
579.97	1779.68
580.16	1806.31
580.36	1796.07
580.55	1892.32
580.75	1736.68
580.94	1820.64
581.13	1927.14
581.33	1884.13
581.52	1726.44
581.72	1757.16
581.91	1875.94
582.11	1681.38
582.30	1859.56
582.49	1742.82
582.69	1847.27
582.88	1763.30
583.08	1767.40
583.27	1869.80
583.47	1746.92
583.66	1781.73
583.85	1675.24
584.05	1753.06
584.24	1814.50
584.44	1775.59
584.63	1804.26
584.82	1830.88
585.02	1873.89
585.21	1935.33
585.41	1892.32
585.60	1757.16
585.79	1912.80
585.99	1929.19
586.18	1904.61
586.37	2156.51
586.57	3377.10
586.76	9846.63
586.96	24563.34
587.15	34532.85
587.34	40625.56
587.54	42128.77
587.73	36081.11
587.93	26459.76
588.12	21419.71
588.31	18058.99
588.51	16221.96
588.70	15206.17
588.89	14155.56
589.09	12597.06
589.28	11147.09
589.47	9434.99
589.67	7905.16
589.86	6451.10
590.06	4964.28
590.25	3891.14
590.44	3084.24
590.64	2650.07
590.83	2275.29
591.02	2156.51
591.22	1941.47
591.41	1931.23
591.60	1763.30
591.80	2037.73
591.99	1785.83
592.18	1748.97
592.38	1818.60
592.57	1771.49
592.76	1789.92
592.96	1759.21
593.15	1785.83
593.34	1847.27
593.54	1798.12
593.73	1779.68
593.92	1757.16
594.12	1787.88
594.31	1787.88
594.50	1828.84
594.70	1753.06
594.89	1859.56
595.08	1634.28
595.28	1820.64
595.47	1933.28
595.66	1773.54
595.86	1595.37
596.05	1808.36
596.24	1761.25
596.43	1816.55
596.63	1834.98
596.82	1789.92
597.01	1746.92
597.21	1828.84
597.40	1755.11
597.59	1746.92
597.79	1689.57
597.98	1806.31
598.17	1751.01
598.36	1785.83
598.56	1718.25
598.75	1722.34
598.94	1769.44
599.14	1753.06
599.33	1738.73
599.52	1841.12
599.71	1679.33
599.91	1853.41
600.10	1763.30
600.29	1699.81
600.48	1695.72
600.68	1755.11
600.87	1740.77
601.06	1695.72
601.26	1753.06
601.45	1740.77
601.64	1701.86
601.83	1822.69
602.03	1667.05
602.22	1673.19
602.41	1814.50
602.60	1882.08
602.80	1775.59
602.99	1834.98
603.18	1751.01
603.37	1771.49
603.57	1767.40
603.76	1765.35
603.95	1771.49
604.14	1763.30
604.34	1722.34
604.53	1742.82
604.72	1802.21
604.91	1755.11
605.10	1759.21
605.30	1638.38
605.49	1828.84
605.68	1753.06
605.87	1841.12
606.07	1708.01
606.26	1732.58
606.45	1765.35
606.64	1777.64
606.84	1697.77
607.03	1708.01
607.22	1685.48
607.41	1736.68
607.60	1726.44
607.80	1751.01
607.99	1675.24
608.18	1728.49
608.37	1775.59
608.56	1689.57
608.76	1781.73
608.95	1816.55
609.14	1673.19
609.33	1785.83
609.52	1828.84
609.72	1703.91
609.91	1748.97
610.10	1744.87
610.29	1857.51
610.48	1685.48
610.68	1738.73
610.87	1669.09
611.06	1744.87
611.25	1794.02
611.44	1769.44
611.63	1724.39
611.83	1787.88
612.02	1636.33
612.21	1773.54
612.40	1626.09
612.59	1611.75
612.79	1677.29
612.98	1681.38
613.17	1800.16
613.36	1642.47
613.55	1849.32
613.74	1761.25
613.93	1703.91
614.13	1722.34
614.32	1705.96
614.51	1804.26
614.70	1656.81
614.89	1710.05
615.08	1744.87
615.28	2041.82
615.47	1757.16
615.66	1695.72
615.85	1708.01
616.04	1771.49
616.23	1693.67
616.42	1691.62
616.62	1720.29
616.81	1722.34
617.00	1660.90
617.19	1724.39
617.38	1732.58
617.57	1738.73
617.76	1753.06
617.95	1771.49
618.15	1738.73
618.34	1824.74
618.53	1796.07
618.72	1710.05
618.91	1779.68
619.10	1779.68
619.29	1720.29
619.48	1626.09
619.68	1730.53
619.87	1791.97
620.06	1671.14
620.25	1777.64
620.44	1640.42
620.63	1699.81
620.82	1769.44
621.01	1808.36
621.20	1742.82
621.39	1738.73
621.59	1738.73
621.78	1716.20
621.97	1697.77
622.16	1787.88
622.35	1763.30
622.54	1818.60
622.73	1765.35
622.92	1619.94
623.11	1746.92
623.30	1734.63
623.49	1748.97
623.68	1738.73
623.88	1724.39
624.07	1660.90
624.26	1773.54
624.45	1773.54
624.64	1656.81
624.83	1705.96
625.02	1746.92
625.21	1748.97
625.40	1652.71
625.59	1783.78
625.78	1753.06
625.97	1771.49
626.16	1787.88
626.35	1718.25
626.54	1673.19
626.74	1847.27
626.93	1765.35
627.12	1687.53
627.31	1761.25
627.50	1736.68
627.69	1775.59
627.88	1689.57
628.07	1748.97
628.26	1724.39
628.45	1736.68
628.64	1697.77
628.83	1693.67
629.02	1718.25
629.21	1736.68
629.40	1763.30
629.59	1677.29
629.78	1726.44
629.97	1669.09
630.16	1781.73
630.35	1759.21
630.54	1621.99
630.73	1632.23
630.92	1718.25
631.11	1658.85
631.30	1748.97
631.49	1837.03
631.68	1656.81
631.87	1722.34
632.06	1613.80
632.25	1849.32
632.44	1746.92
632.63	1732.58
632.82	1607.66
633.01	1638.38
633.20	1714.15
633.39	1728.49
633.58	1568.74
633.77	1775.59
633.96	1689.57
634.15	1791.97
634.34	1757.16
634.53	1791.97
634.72	1695.72
634.91	1708.01
635.10	1730.53
635.29	1800.16
635.48	1771.49
635.67	1671.14
635.86	1703.91
636.05	1783.78
636.24	1720.29
636.43	1718.25
636.62	1714.15
636.81	1617.90
637.00	1691.62
637.19	1785.83
637.38	1720.29
637.57	1726.44
637.76	1705.96
637.95	1697.77
638.14	1656.81
638.33	1761.25
638.52	1718.25
638.71	1648.61
638.89	1660.90
639.08	1902.56
639.27	1791.97
639.46	1658.85
639.65	1804.26
639.84	1703.91
640.03	1746.92
640.22	1683.43
640.41	1763.30
640.60	1685.48
640.79	1746.92
640.98	1716.20
641.17	1748.97
641.36	1746.92
641.55	1775.59
641.74	1669.09
641.92	1654.76
642.11	1728.49
642.30	1757.16
642.49	1660.90
642.68	1714.15
642.87	1693.67
643.06	1759.21
643.25	1738.73
643.44	1671.14
643.63	1763.30
643.82	1724.39
644.00	1712.10
644.19	1748.97
644.38	1665.00
644.57	1771.49
644.76	1716.20
644.95	1740.77
645.14	1687.53
645.33	1708.01
645.52	1701.86
645.71	1652.71
645.89	1720.29
646.08	1738.73
646.27	1665.00
646.46	1828.84
646.65	1624.04
646.84	1685.48
647.03	1652.71
647.22	1757.16
647.40	1665.00
647.59	1714.15
647.78	1673.19
647.97	1634.28
648.16	1644.52
648.35	1818.60
648.54	1779.68
648.73	1628.14
648.91	1718.25
649.10	1703.91
649.29	1636.33
649.48	1677.29
649.67	1685.48
649.86	1718.25
650.05	1730.53
650.23	1718.25
650.42	1665.00
650.61	1830.88
650.80	1673.19
650.99	1828.84
651.18	1730.53
651.36	1769.44
651.55	1775.59
651.74	1767.40
651.93	1681.38
652.12	1619.94
652.31	1734.63
652.49	1701.86
652.68	1669.09
652.87	1724.39
653.06	1693.67
653.25	1816.55
653.44	1662.95
653.62	1798.12
653.81	1595.37
654.00	1748.97
654.19	1771.49
654.38	1789.92
654.56	1806.31
654.75	1701.86
654.94	1728.49
655.13	1771.49
655.32	1734.63
655.51	1781.73
655.69	1644.52
655.88	1753.06
656.07	1585.13
656.26	1773.54
656.45	1681.38
656.63	1771.49
656.82	1759.21
657.01	1832.93
657.20	1720.29
657.38	1744.87
657.57	1687.53
657.76	1716.20
657.95	1800.16
658.14	1695.72
658.32	1763.30
658.51	1681.38
658.70	1693.67
658.89	1683.43
659.08	1636.33
659.26	1837.03
659.45	1681.38
659.64	1755.11
659.83	1705.96
660.01	1884.13
660.20	1648.61
660.39	1771.49
660.58	1587.18
660.76	1746.92
660.95	1677.29
661.14	1708.01
661.33	1566.70
661.51	1673.19
661.70	1742.82
661.89	1656.81
662.08	1710.05
662.26	1642.47
662.45	1660.90
662.64	1804.26
662.83	1722.34
663.01	1597.42
663.20	1642.47
663.39	1775.59
663.58	1677.29
663.76	1685.48
663.95	1808.36
664.14	1630.18
664.32	1667.05
664.51	1601.51
664.70	1662.95
664.89	1839.08
665.07	1681.38
665.26	1718.25
665.45	1687.53
665.64	1710.05
665.82	1824.74
666.01	1798.12
666.20	1685.48
666.38	1751.01
666.57	1832.93
666.76	2181.09
666.95	4460.48
667.13	10346.34
667.32	15071.00
667.51	17878.77
667.69	19013.34
667.88	17491.70
668.07	12353.35
668.25	9496.43
668.44	8179.59
668.63	7350.16
668.81	6926.23
669.00	6207.39
669.19	5744.55
669.38	5044.15
669.56	4597.69
669.75	3954.63
669.94	3413.96
670.12	2959.31
670.31	2490.33
670.50	2310.11
670.68	2068.45
670.87	1953.76
671.06	1849.32
671.24	1796.07
671.43	1755.11
671.62	1738.73
671.80	1697.77
671.99	1714.15
672.18	1748.97
672.36	1789.92
672.55	1740.77
672.74	1734.63
672.92	1726.44
673.11	1820.64
673.29	1617.90
673.48	1777.64
673.67	1697.77
673.85	1789.92
674.04	1724.39
674.23	1732.58
674.41	1869.80
674.60	1675.24
674.79	1574.89
674.97	1679.33
675.16	1734.63
675.34	1746.92
675.53	1673.19
675.72	1691.62
675.90	1812.45
676.09	1681.38
676.28	1656.81
676.46	1644.52
676.65	1738.73
676.83	1701.86
677.02	1677.29
677.21	1755.11
677.39	1771.49
677.58	1675.24
677.77	1693.67
677.95	1714.15
678.14	1722.34
678.32	1687.53
678.51	1730.53
678.70	1781.73
678.88	1624.04
679.07	1738.73
679.25	1701.86
679.44	1710.05
679.63	1564.65
679.81	1703.91
680.00	1787.88
680.18	1683.43
680.37	1759.21
680.55	1689.57
680.74	1560.55
680.93	1527.78
681.11	1701.86
681.30	1669.09
681.48	1785.83
681.67	1615.85
681.85	1730.53
682.04	1665.00
682.23	1738.73
682.41	1722.34
682.60	1728.49
682.78	1650.66
682.97	1710.05
683.15	1738.73
683.34	1732.58
683.53	1785.83
683.71	1646.57
683.90	1796.07
684.08	1779.68
684.27	1681.38
684.45	1677.29
684.64	1818.60
684.82	1654.76
685.01	1699.81
685.19	1748.97
685.38	1937.38
685.57	1753.06
685.75	1691.62
685.94	1751.01
686.12	1609.70
686.31	1691.62
686.49	1853.41
686.68	1593.32
686.86	1665.00
687.05	1689.57
687.23	1773.54
687.42	1681.38
687.60	1675.24
687.79	1783.78
687.97	1841.12
688.16	1810.40
688.34	1787.88
688.53	1599.46
688.71	1730.53
688.90	1851.36
689.08	1691.62
689.27	1662.95
689.45	1767.40
689.64	1681.38
689.82	1744.87
690.01	1681.38
690.19	1695.72
690.38	1675.24
690.56	1785.83
690.75	1667.05
690.93	1726.44
691.12	1611.75
691.30	1734.63
691.49	1697.77
691.67	1660.90
691.86	1837.03
692.04	1695.72
692.23	1615.85
692.41	1656.81
692.60	1785.83
692.78	1757.16
692.97	1679.33
693.15	1738.73
693.34	1738.73
693.52	1740.77
693.71	1626.09
693.89	1599.46
694.08	1640.42
694.26	1703.91
694.44	1742.82
694.63	1751.01
694.81	1722.34
695.00	1726.44
695.18	1779.68
695.37	1824.74
695.55	1771.49
695.74	1695.72
695.92	1660.90
696.10	1822.69
696.29	1581.03
696.47	1644.52
696.66	1650.66
696.84	1714.15
697.03	1640.42
697.21	1814.50
697.40	2383.84
697.58	1808.36
697.76	1699.81
697.95	1665.00
698.13	1648.61
698.32	1689.57
698.50	1738.73
698.68	1689.57
698.87	1742.82
699.05	1789.92
699.24	1751.01
699.42	1697.77
699.61	1773.54
699.79	1773.54
699.97	1751.01
700.16	1644.52
700.34	1638.38
700.53	1640.42
700.71	1789.92
700.89	1794.02
701.08	1685.48
701.26	1675.24
701.45	2150.37
701.63	1615.85
701.81	1705.96
702.00	1683.43
702.18	1726.44
702.37	1660.90
702.55	1730.53
702.73	1726.44
702.92	1648.61
703.10	1744.87
703.28	1761.25
703.47	1558.50
703.65	1728.49
703.84	1703.91
704.02	1673.19
704.20	1812.45
704.39	1667.05
704.57	1634.28
704.75	1806.31
704.94	1783.78
705.12	1759.21
705.30	1810.40
705.49	2154.46
705.67	4274.11
705.86	9244.53
706.04	12601.15
706.22	14475.04
706.41	15232.79
706.59	13711.15
706.77	9537.39
706.96	7348.11
707.14	6522.78
707.32	6033.32
707.51	5568.43
707.69	4915.12
707.87	4272.06
708.06	3463.12
708.24	3006.42
708.42	2400.22
708.61	2353.12
708.79	1884.13
708.97	1910.75
709.16	1791.97
709.34	1771.49
709.52	1714.15
709.71	1800.16
709.89	1699.81
710.07	1636.33
710.26	1728.49
710.44	1687.53
710.62	1771.49
710.80	1763.30
710.99	1798.12
711.17	1722.34
711.35	1736.68
711.54	1720.29
711.72	1660.90
711.90	1677.29
712.09	1748.97
712.27	1683.43
712.45	1714.15
712.63	1726.44
712.82	1738.73
713.00	1671.14
713.18	1759.21
713.37	1763.30
713.55	1812.45
713.73	1697.77
713.91	1779.68
714.10	1636.33
714.28	1695.72
714.46	1689.57
714.65	1730.53
714.83	1689.57
715.01	1726.44
715.19	1705.96
715.38	1650.66
715.56	1779.68
715.74	1660.90
715.92	1665.00
716.11	1818.60
716.29	1626.09
716.47	1665.00
716.65	1701.86
716.84	1654.76
717.02	1773.54
717.20	1593.32
717.38	1554.41
717.57	1679.33
717.75	1800.16
717.93	1681.38
718.11	1726.44
718.30	1626.09
718.48	1703.91
718.66	1783.78
718.84	1714.15
719.03	1681.38
719.21	1642.47
719.39	1814.50
719.57	1730.53
719.75	1753.06
719.94	1644.52
720.12	1697.77
720.30	1730.53
720.48	1806.31
720.67	1617.90
720.85	1718.25
721.03	1714.15
721.21	1638.38
721.39	1738.73
721.58	1714.15
721.76	1716.20
721.94	1691.62
722.12	1753.06
722.30	1738.73
722.49	1669.09
722.67	1712.10
722.85	1699.81
723.03	1626.09
723.21	1632.23
723.40	1716.20
723.58	1765.35
723.76	1656.81
723.94	1808.36
724.12	1771.49
724.30	1740.77
724.49	1732.58
724.67	1566.70
724.85	1744.87
725.03	1576.94
725.21	1789.92
725.40	1798.12
725.58	1613.80
725.76	1787.88
725.94	1738.73
726.12	1685.48
726.30	1720.29
726.49	1658.85
726.67	1714.15
726.85	1697.77
727.03	1775.59
727.21	2238.43
727.39	2922.45
727.57	3770.31
727.76	4052.93
727.94	4427.71
728.12	4464.57
728.30	3549.13
728.48	2975.70
728.66	2619.35
728.84	2598.87
729.03	2324.44
729.21	2146.27
729.39	2007.01
729.57	1873.89
729.75	1892.32
729.93	1853.41
730.11	1816.55
730.30	1769.44
730.48	1728.49
730.66	1753.06
730.84	1736.68
731.02	1652.71
731.20	1619.94
731.38	1734.63
731.56	1701.86
731.74	1673.19
731.93	1777.64
732.11	1642.47
732.29	1681.38
732.47	1697.77
732.65	1701.86
732.83	1773.54
733.01	1693.67
733.19	1607.66
733.37	1710.05
733.56	1736.68
733.74	1722.34
733.92	1867.75
734.10	1662.95
734.28	1757.16
734.46	1601.51
734.64	1697.77
734.82	1681.38
735.00	1634.28
735.18	1695.72
735.36	1728.49
735.54	1697.77
735.73	1726.44
735.91	1748.97
736.09	1720.29
736.27	1583.08
736.45	1763.30
736.63	1615.85
736.81	1646.57
736.99	1771.49
737.17	1804.26
737.35	1703.91
737.53	1705.96
737.71	1675.24
737.89	1767.40
738.07	1732.58
738.25	1591.27
738.43	1624.04
738.61	1662.95
738.80	1564.65
738.98	1644.52
739.16	1671.14
739.34	1632.23
739.52	1763.30
739.70	1755.11
739.88	1755.11
740.06	1710.05
740.24	1632.23
740.42	1751.01
740.60	1593.32
740.78	1703.91
740.96	1634.28
741.14	1710.05
741.32	1691.62
741.50	1599.46
741.68	1787.88
741.86	1814.50
742.04	1671.14
742.22	1638.38
742.40	1730.53
742.58	1769.44
742.76	1697.77
742.94	1787.88
743.12	1609.70
743.30	1728.49
743.48	1699.81
743.66	1675.24
743.84	1703.91
744.02	1714.15
744.20	1660.90
744.38	1673.19
744.56	1671.14
744.74	1771.49
744.92	1681.38
745.10	1771.49
745.28	1740.77
745.46	1798.12
745.64	1724.39
745.82	1705.96
746.00	1753.06
746.18	1728.49
746.36	1591.27
746.54	1675.24
746.72	1677.29
746.90	1632.23
747.08	1777.64
747.26	1679.33
747.44	1720.29
747.62	1730.53
747.80	1705.96
747.98	1701.86
748.15	1765.35
748.33	1753.06
748.51	1708.01
748.69	1689.57
748.87	1665.00
749.05	1753.06
749.23	1695.72
749.41	1726.44
749.59	1679.33
749.77	1800.16
749.95	1697.77
750.13	1695.72
750.31	1759.21
750.49	1685.48
750.67	1652.71
750.85	1810.40
751.03	1746.92
751.20	1869.80
751.38	1673.19
751.56	1755.11
751.74	1677.29
751.92	1689.57
752.10	1589.22
752.28	1771.49
752.46	1642.47
752.64	1677.29
752.82	1765.35
753.00	1679.33
753.18	1677.29
753.35	1632.23
753.53	1642.47
753.71	1681.38
753.89	1777.64
754.07	1636.33
754.25	1738.73
754.43	1673.19
754.61	1673.19
754.79	1728.49
754.97	1738.73
755.14	1810.40
755.32	1624.04
755.50	1685.48
755.68	1740.77
755.86	1718.25
756.04	1689.57
756.22	1609.70
756.40	1701.86
756.57	1751.01
756.75	1681.38
756.93	1806.31
757.11	1718.25
757.29	1611.75
757.47	1677.29
757.65	1595.37
757.82	1593.32
758.00	1683.43
758.18	1648.61
758.36	1652.71
758.54	1728.49
758.72	1593.32
758.90	1728.49
759.07	1765.35
759.25	1619.94
759.43	1716.20
759.61	1617.90
759.79	2179.04
759.97	1732.58
760.15	1738.73
760.32	1607.66
760.50	1748.97
760.68	1837.03
760.86	1703.91
761.04	1732.58
761.22	1681.38
761.39	1701.86
761.57	1800.16
761.75	1679.33
761.93	1796.07
762.11	1673.19
762.28	1705.96
762.46	1601.51
762.64	1769.44
762.82	1642.47
763.00	1767.40
763.18	1691.62
763.35	1656.81
763.53	1687.53
763.71	1669.09
763.89	1757.16
764.07	1613.80
764.24	1726.44
764.42	1722.34
764.60	1669.09
764.78	1648.61
764.96	1697.77
765.13	1765.35
765.31	1632.23
765.49	1800.16
765.67	1669.09
765.84	1619.94
766.02	1669.09
766.20	1548.26
766.38	1636.33
766.56	1804.26
766.73	1746.92
766.91	1718.25
767.09	1675.24
767.27	1710.05
767.44	1695.72
767.62	1738.73
767.80	1644.52
767.98	1732.58
768.15	1732.58
768.33	1857.51
768.51	1693.67
768.69	1730.53
768.87	1746.92
769.04	1665.00
769.22	1845.22
769.40	1818.60
769.58	1808.36
769.75	1695.72
769.93	1740.77
770.11	1730.53
770.28	1738.73
770.46	1740.77
770.64	1710.05
770.82	1759.21
770.99	1675.24
771.17	1751.01
771.35	1679.33
771.53	1660.90
771.70	1720.29
771.88	1675.24
772.06	1710.05
772.23	1755.11
772.41	1693.67
772.59	1642.47
772.77	1667.05
772.94	1665.00
773.12	1726.44
773.30	1630.18
773.47	1789.92
773.65	1673.19
773.83	1744.87
774.01	1646.57
774.18	1632.23
774.36	1665.00
774.54	1650.66
774.71	1650.66
774.89	1605.61
775.07	1660.90
775.24	1619.94
775.42	1673.19
775.60	1794.02
775.78	1570.79
775.95	1656.81
776.13	1705.96
776.31	1576.94
776.48	1665.00
776.66	1734.63
776.84	1662.95
777.01	1660.90
777.19	1656.81
777.37	1624.04
777.54	1751.01
777.72	1828.84
777.90	1708.01
778.07	1720.29
778.25	1828.84
778.43	1720.29
778.60	1624.04
778.78	1828.84
778.96	1755.11
779.13	1671.14
779.31	1738.73
779.49	1632.23
779.66	1757.16
779.84	1738.73
780.01	1636.33
780.19	1689.57
780.37	1734.63
780.54	1691.62
780.72	1697.77
780.90	1667.05
781.07	1728.49
781.25	1712.10
781.43	1708.01
781.60	1632.23
781.78	1716.20
781.95	1685.48
782.13	1642.47
782.31	1693.67
782.48	1621.99
782.66	1648.61
782.83	1783.78
783.01	1693.67
783.19	1705.96
783.36	1699.81
783.54	1640.42
783.72	1775.59
783.89	1646.57
784.07	1746.92
784.24	1701.86
784.42	1730.53
784.60	1681.38
784.77	1689.57
784.95	1585.13
785.12	1660.90
785.30	1732.58
785.47	1646.57
785.65	1673.19
785.83	1720.29
786.00	1728.49
786.18	1734.63
786.35	1628.14
786.53	1615.85
786.71	1771.49
786.88	1751.01
787.06	1744.87
787.23	1691.62
787.41	1642.47
787.58	1753.06
787.76	1738.73
787.94	1742.82
788.11	1755.11
788.29	1654.76
788.46	1703.91
788.64	1642.47
788.81	1675.24
788.99	1599.46
789.16	1624.04
789.34	1722.34
789.52	1734.63
789.69	1718.25
789.87	1603.56
790.04	1710.05
790.22	1757.16
790.39	1781.73
790.57	1712.10
790.74	1714.15
790.92	1693.67
791.09	1648.61
791.27	1736.68
791.44	1710.05
791.62	1718.25
791.79	1763.30
791.97	1689.57
792.15	1927.14
792.32	1683.43
792.50	1759.21
792.67	1849.32
792.85	1824.74
793.02	1667.05
793.20	1712.10
793.37	1658.85
793.55	1712.10
793.72	1705.96
793.90	1656.81
794.07	1632.23
794.25	1617.90
794.42	1779.68
794.60	1611.75
794.77	1722.34
794.95	1732.58
795.12	1734.63
795.30	1722.34
795.47	1560.55
795.65	1839.08
795.82	1720.29
796.00	1585.13
796.17	1675.24
796.34	1712.10
796.52	1724.39
796.69	1763.30
796.87	1812.45
797.04	1679.33
797.22	1781.73
797.39	1683.43
797.57	1705.96
797.74	1742.82
797.92	1654.76
798.09	1683.43
798.27	1765.35
798.44	1779.68
798.62	1673.19
798.79	1759.21
798.96	1767.40
799.14	1650.66
799.31	1857.51
799.49	1708.01
799.66	1679.33
799.84	1767.40
800.01	1581.03
800.19	1699.81
800.36	1638.38
800.53	1689.57
800.71	1624.04
800.88	1806.31
801.06	1658.85
801.23	1669.09
801.41	1650.66
801.58	1724.39
801.75	1687.53
801.93	1773.54
802.10	1830.88
802.28	1708.01
802.45	1697.77
802.63	1714.15
802.80	1785.83
802.97	1677.29
803.15	1646.57
803.32	1746.92
803.50	1572.84
803.67	1615.85
803.84	1634.28
804.02	1603.56
804.19	1660.90
804.37	1566.70
804.54	1673.19
804.71	1665.00
804.89	1708.01
805.06	1679.33
805.24	1669.09
805.41	1677.29
805.58	1617.90
805.76	1783.78
805.93	1738.73
806.10	1843.17
806.28	1722.34
806.45	1652.71
806.63	1724.39
806.80	1648.61
806.97	1769.44
807.15	1779.68
807.32	1714.15
807.49	1648.61
807.67	1714.15
807.84	1660.90
808.01	1607.66
808.19	1740.77
808.36	1783.78
808.54	1734.63
808.71	1675.24
808.88	1712.10
809.06	1744.87
809.23	1722.34
809.40	1691.62
809.58	1726.44
809.75	1765.35
809.92	1640.42
810.10	1914.85
810.27	1693.67
810.44	1687.53
810.62	1648.61
810.79	1701.86
810.96	1689.57
811.14	1605.61
811.31	1763.30
811.48	1691.62
811.66	1599.46
811.83	1769.44
812.00	1771.49
812.18	1648.61
812.35	1794.02
812.52	1718.25
812.69	1652.71
812.87	1705.96
813.04	1640.42
813.21	1638.38
813.39	1673.19
813.56	1644.52
813.73	1755.11
813.91	1603.56
814.08	1751.01
814.25	1701.86
814.42	1611.75
814.60	1755.11
814.77	1654.76
814.94	1712.10
815.12	1675.24
815.29	1740.77
815.46	1689.57
815.63	1744.87
815.81	1699.81
815.98	1697.77
816.15	1746.92
816.33	1718.25
816.50	1646.57
816.67	1640.42
816.84	1681.38
817.02	1701.86
817.19	1652.71
817.36	1757.16
817.53	1714.15
817.71	1642.47
817.88	1710.05
818.05	1681.38
818.22	1687.53
818.40	1812.45
818.57	1640.42
818.74	1740.77
818.91	1779.68
819.09	1746.92
819.26	1740.77
819.43	1736.68
819.60	1699.81
819.78	1742.82
819.95	1834.98
820.12	1624.04
820.29	1730.53
820.47	1710.05
820.64	1732.58
820.81	1677.29
820.98	1591.27
821.15	1638.38
821.33	1705.96
821.50	1599.46
821.67	1746.92
821.84	1646.57
822.02	1763.30
822.19	1742.82
822.36	1640.42
822.53	1658.85
822.70	1578.98
822.88	1638.38
823.05	1732.58
823.22	1722.34
823.39	1710.05
823.56	1669.09
823.74	1798.12
823.91	1691.62
824.08	1613.80
824.25	1632.23
824.42	1802.21
824.60	1652.71
824.77	1665.00
824.94	1624.04
825.11	1691.62
825.28	1665.00
825.45	1730.53
825.63	1734.63
825.80	1712.10
825.97	1783.78
826.14	1734.63
826.31	1656.81
826.48	1646.57
826.66	1613.80
826.83	1714.15
827.00	1701.86
827.17	1646.57
827.34	1662.95
827.51	1732.58
827.69	1705.96
827.86	1673.19
828.03	1681.38
828.20	1742.82
828.37	1757.16
828.54	1683.43
828.71	1599.46
828.89	1769.44
829.06	1638.38
829.23	1785.83
829.40	1638.38
829.57	1699.81
829.74	1720.29
829.91	1642.47
830.09	1642.47
830.26	1742.82
830.43	1804.26
830.60	1787.88
830.77	1736.68
830.94	1716.20
831.11	1759.21
831.28	1673.19
831.46	1789.92
831.63	1644.52
831.80	1767.40
831.97	1628.14
832.14	1689.57
832.31	1685.48
832.48	1720.29
832.65	1763.30
832.82	1769.44
832.99	1740.77
833.17	1665.00
833.34	1744.87
833.51	1736.68
833.68	1595.37
833.85	1785.83
834.02	1601.51
834.19	1644.52
834.36	1634.28
834.53	1669.09
834.70	1818.60
834.87	1771.49
835.04	1710.05
835.22	1587.18
835.39	1691.62
835.56	1640.42
835.73	1722.34
835.90	1716.20
836.07	1656.81
836.24	1740.77
836.41	1648.61
836.58	1636.33
836.75	1757.16
836.92	1718.25
837.09	1665.00
837.26	1695.72
837.43	1703.91
837.60	1738.73
837.77	1689.57
837.94	1701.86
838.12	1746.92
838.29	1736.68
838.46	1626.09
838.63	1613.80
838.80	1748.97
838.97	1697.77
839.14	1689.57
839.31	1691.62
839.48	1742.82
839.65	1669.09
839.82	1718.25
839.99	1728.49
840.16	1705.96
840.33	1593.32
840.50	1722.34
840.67	1624.04
840.84	1646.57
841.01	1753.06
841.18	1656.81
841.35	1677.29
841.52	1650.66
841.69	1853.41
841.86	1654.76
842.03	1732.58
842.20	1609.70
842.37	1665.00
842.54	1701.86
842.71	1644.52
842.88	1505.26
843.05	1730.53
843.22	1646.57
843.39	1681.38
843.56	1667.05
843.73	1695.72
843.90	1708.01
844.07	1642.47
844.24	1744.87
844.41	1746.92
844.58	1687.53
844.75	1726.44
844.92	1689.57
845.09	1697.77
845.26	1673.19
845.43	1710.05
845.60	1648.61
845.77	1773.54
845.94	1757.16
846.10	1748.97
846.27	1621.99
846.44	1667.05
846.61	1632.23
846.78	1675.24
846.95	1746.92
847.12	1648.61
847.29	1679.33
847.46	1626.09
847.63	1757.16
847.80	1605.61
847.97	1787.88
848.14	1814.50
848.31	1685.48
848.48	1587.18
848.65	1638.38
848.82	1632.23
848.98	1869.80
849.15	1720.29
849.32	1794.02
849.49	1777.64
849.66	1705.96
849.83	1763.30
850.00	1656.81
850.17	1744.87
850.34	1691.62
850.51	1689.57
850.68	1710.05
850.85	1808.36
851.01	1685.48
851.18	1671.14
851.35	1640.42
851.52	1755.11
851.69	1775.59
851.86	1570.79
852.03	1714.15
852.20	1693.67
852.37	1677.29
852.53	1570.79
852.70	1652.71
852.87	1720.29
853.04	1746.92
853.21	1714.15
853.38	1757.16
853.55	1791.97
853.72	1775.59
853.89	1683.43
854.05	1660.90
854.22	1669.09
854.39	1734.63
854.56	1773.54
854.73	1681.38
854.90	1642.47
855.07	1699.81
855.23	1593.32
855.40	1708.01
855.57	1644.52
855.74	1650.66
855.91	1794.02
856.08	1603.56
856.25	1654.76
856.41	1681.38
856.58	1638.38
856.75	1650.66
856.92	1568.74
857.09	1744.87
857.26	1601.51
857.42	1630.18
857.59	1777.64
857.76	1665.00
857.93	1681.38
858.10	1753.06
858.27	1658.85
858.43	1673.19
858.60	1626.09
858.77	1640.42
858.94	1685.48
859.11	1705.96
859.27	1681.38
859.44	1646.57
859.61	1802.21
859.78	1794.02
859.95	1710.05
860.12	1656.81
860.28	1796.07
860.45	1873.89
860.62	1681.38
860.79	1761.25
860.95	1726.44
861.12	1685.48
861.29	1607.66
861.46	1632.23
861.63	1730.53
861.79	1710.05
861.96	1648.61
862.13	1705.96
862.30	1712.10
862.47	1679.33
862.63	1578.98
862.80	1783.78
862.97	1665.00
863.14	1787.88
863.30	1687.53
863.47	1665.00
863.64	1693.67
863.81	1705.96
863.97	1683.43
864.14	1748.97
864.31	1720.29
864.48	1781.73
864.65	1722.34
864.81	1701.86
864.98	1738.73
865.15	1746.92
865.32	1699.81
865.48	1722.34
865.65	1832.93
865.82	1636.33
865.98	1671.14
866.15	1771.49
866.32	1712.10
866.49	1667.05
866.65	1796.07
866.82	1636.33
866.99	1761.25
867.16	1630.18
867.32	1701.86
867.49	1619.94
867.66	1656.81
867.83	1689.57
867.99	1574.89
868.16	1675.24
868.33	1621.99
868.49	1751.01
868.66	1638.38
868.83	1724.39
868.99	1705.96
869.16	1716.20
869.33	1791.97
869.50	1697.77
869.66	1714.15
869.83	1673.19
870.00	1624.04
870.16	1693.67
870.33	1714.15
870.50	1667.05
870.66	1740.77
870.83	1888.23
871.00	1746.92
871.17	1679.33
871.33	1753.06
871.50	1681.38
871.67	1765.35
871.83	1632.23
872.00	1822.69
872.17	1697.77
872.33	1832.93
872.50	1773.54
872.67	1636.33
872.83	1673.19
873.00	1726.44
873.17	1726.44
873.33	1779.68
873.50	1720.29
873.67	1671.14
873.83	1640.42
874.00	1644.52
874.16	1685.48
874.33	1722.34
874.50	1648.61
874.66	1687.53
874.83	1697.77
875.00	1806.31
875.16	1843.17
875.33	1701.86
875.50	1527.78
875.66	1681.38
875.83	1705.96
875.99	1763.30
876.16	1574.89
876.33	1611.75
876.49	1689.57
876.66	1826.79
876.83	1679.33
876.99	1656.81
877.16	1708.01
877.32	1708.01
877.49	1720.29
877.66	1753.06
877.82	1728.49
877.99	1761.25
878.15	1736.68
878.32	1789.92
878.49	1701.86
878.65	1693.67
878.82	1808.36
878.98	1687.53
879.15	1834.98
879.32	1714.15
879.48	1761.25
879.65	1759.21
879.81	1687.53
879.98	1701.86
880.15	1660.90
880.31	1767.40
880.48	1640.42
880.64	1755.11
880.81	1734.63
880.97	1738.73
881.14	1773.54
881.31	1642.47
881.47	1855.46
881.64	1652.71
881.80	1603.56
881.97	1673.19
882.13	1701.86
882.30	1656.81
882.47	1710.05
882.63	1642.47
882.80	1636.33
882.96	1658.85
883.13	1763.30
883.29	1673.19
883.46	1691.62
883.62	1798.12
883.79	1679.33
883.95	1728.49
884.12	1724.39
884.29	1697.77
884.45	1732.58
884.62	1720.29
884.78	1660.90
884.95	1753.06
885.11	1699.81
885.28	1744.87
885.44	1634.28
885.61	1738.73
885.77	1781.73
885.94	1730.53
886.10	1720.29
886.27	1660.90
886.43	1812.45
886.60	1748.97
886.76	1683.43
886.93	1683.43
887.09	1722.34
887.26	1578.98
887.42	1677.29
887.59	1671.14
887.75	1830.88
887.92	1789.92
888.08	1671.14
888.25	1804.26
888.41	1785.83
888.58	1648.61
888.74	1613.80
888.91	1626.09
>>>>>End Processed Spectral Data<<<<<
