SpectraSuite Data File
++++++++++++++++++++++++++++++++++++
Date: Mon Jun 06 16:59:57 CEST 2016
User: root
Dark Spectrum Present: No
Reference Spectrum Present: No
Number of Sampled Component Spectra: 1
Spectrometers: USB4C02835
Integration Time (usec): 100000 (USB4C02835)
Spectra Averaged: 1 (USB4C02835)
Boxcar Smoothing: 0 (USB4C02835)
Correct for Electrical Dark: No (USB4C02835)
Strobe/Lamp Enabled: No (USB4C02835)
Correct for Detector Non-linearity: No (USB4C02835)
Correct for Stray Light: No (USB4C02835)
Number of Pixels in Processed Spectrum: 3648
>>>>>Begin Processed Spectral Data<<<<<
177.47	1476.59
177.69	1476.59
177.91	1476.59
178.13	1386.47
178.36	1521.64
178.58	1669.09
178.80	1718.25
179.02	1638.38
179.24	1642.47
179.46	1730.53
179.68	1665.00
179.90	1693.67
180.13	1636.33
180.35	1708.01
180.57	1640.42
180.79	1767.40
181.01	1675.24
181.23	1798.12
181.45	1724.39
181.67	1697.77
181.90	1761.25
182.12	1701.86
182.34	1665.00
182.56	1779.68
182.78	1769.44
183.00	1689.57
183.22	1736.68
183.44	1576.94
183.66	1886.18
183.89	1818.60
184.11	1720.29
184.33	1785.83
184.55	1726.44
184.77	1802.21
184.99	1705.96
185.21	1683.43
185.43	1804.26
185.65	1716.20
185.87	1708.01
186.10	1824.74
186.32	1863.65
186.54	1738.73
186.76	1726.44
186.98	1794.02
187.20	1665.00
187.42	1650.66
187.64	1734.63
187.86	1705.96
188.08	1748.97
188.30	1660.90
188.52	1708.01
188.75	1794.02
188.97	1718.25
189.19	1683.43
189.41	1720.29
189.63	1785.83
189.85	1611.75
190.07	1585.13
190.29	1679.33
190.51	1755.11
190.73	1644.52
190.95	1796.07
191.17	1761.25
191.39	1683.43
191.61	1724.39
191.84	1691.62
192.06	1751.01
192.28	1660.90
192.50	1867.75
192.72	1710.05
192.94	1720.29
193.16	1751.01
193.38	1671.14
193.60	1677.29
193.82	1685.48
194.04	1730.53
194.26	1681.38
194.48	1712.10
194.70	1695.72
194.92	1685.48
195.14	1765.35
195.36	1724.39
195.58	1726.44
195.80	1656.81
196.02	1689.57
196.24	1714.15
196.46	1724.39
196.69	1613.80
196.91	1814.50
197.13	1744.87
197.35	1703.91
197.57	1728.49
197.79	1742.82
198.01	1708.01
198.23	1773.54
198.45	1658.85
198.67	1626.09
198.89	1662.95
199.11	1787.88
199.33	1687.53
199.55	1581.03
199.77	1687.53
199.99	1822.69
200.21	1802.21
200.43	1738.73
200.65	1607.66
200.87	1535.98
201.09	1732.58
201.31	1652.71
201.53	1761.25
201.75	1742.82
201.97	1744.87
202.19	1652.71
202.41	1761.25
202.63	1865.70
202.85	1734.63
203.07	1685.48
203.29	1646.57
203.51	1671.14
203.73	1746.92
203.95	1910.75
204.17	1722.34
204.39	1697.77
204.61	1802.21
204.83	1644.52
205.05	1759.21
205.27	1763.30
205.49	1814.50
205.71	1716.20
205.93	1624.04
206.15	1685.48
206.37	1687.53
206.59	1679.33
206.81	1634.28
207.03	1607.66
207.25	1671.14
207.47	1798.12
207.69	1675.24
207.91	1779.68
208.13	1734.63
208.34	1615.85
208.56	1669.09
208.78	1722.34
209.00	1644.52
209.22	1738.73
209.44	1656.81
209.66	1650.66
209.88	1626.09
210.10	1742.82
210.32	1658.85
210.54	1773.54
210.76	1697.77
210.98	1724.39
211.20	1673.19
211.42	1714.15
211.64	1763.30
211.86	1714.15
212.08	1736.68
212.30	1703.91
212.52	1630.18
212.74	1714.15
212.96	1777.64
213.17	1794.02
213.39	1742.82
213.61	1816.55
213.83	1677.29
214.05	1640.42
214.27	1828.84
214.49	1603.56
214.71	1662.95
214.93	1726.44
215.15	1689.57
215.37	1689.57
215.59	1716.20
215.81	1667.05
216.03	1775.59
216.24	1626.09
216.46	1671.14
216.68	1794.02
216.90	1757.16
217.12	1791.97
217.34	1753.06
217.56	1712.10
217.78	1722.34
218.00	1701.86
218.22	1685.48
218.44	1798.12
218.66	1734.63
218.87	1853.41
219.09	1644.52
219.31	1767.40
219.53	1744.87
219.75	1685.48
219.97	1769.44
220.19	1822.69
220.41	1695.72
220.63	1814.50
220.85	1683.43
221.06	1660.90
221.28	1806.31
221.50	1722.34
221.72	1642.47
221.94	1767.40
222.16	1685.48
222.38	1691.62
222.60	1720.29
222.82	1609.70
223.03	1695.72
223.25	1689.57
223.47	1830.88
223.69	1863.65
223.91	1716.20
224.13	1689.57
224.35	1677.29
224.57	1763.30
224.78	1753.06
225.00	1689.57
225.22	1728.49
225.44	1646.57
225.66	1771.49
225.88	1783.78
226.10	1810.40
226.32	1738.73
226.53	1814.50
226.75	1722.34
226.97	1736.68
227.19	1736.68
227.41	1757.16
227.63	1714.15
227.85	1697.77
228.06	1771.49
228.28	1716.20
228.50	1789.92
228.72	1705.96
228.94	1751.01
229.16	1648.61
229.37	1638.38
229.59	1642.47
229.81	1841.12
230.03	1687.53
230.25	1677.29
230.47	1646.57
230.69	1636.33
230.90	1734.63
231.12	1708.01
231.34	1730.53
231.56	1724.39
231.78	1660.90
232.00	1677.29
232.21	1673.19
232.43	1732.58
232.65	1656.81
232.87	1761.25
233.09	1656.81
233.30	1617.90
233.52	1777.64
233.74	1701.86
233.96	1699.81
234.18	1740.77
234.40	1695.72
234.61	1794.02
234.83	1667.05
235.05	1607.66
235.27	1820.64
235.49	1798.12
235.70	1757.16
235.92	1718.25
236.14	1712.10
236.36	1789.92
236.58	1679.33
236.79	1748.97
237.01	1669.09
237.23	1607.66
237.45	1775.59
237.67	1654.76
237.88	1695.72
238.10	1753.06
238.32	1634.28
238.54	1767.40
238.76	1673.19
238.97	1652.71
239.19	1632.23
239.41	1710.05
239.63	1798.12
239.85	1708.01
240.06	1738.73
240.28	1632.23
240.50	1714.15
240.72	1748.97
240.93	1689.57
241.15	1716.20
241.37	1597.42
241.59	1761.25
241.81	1695.72
242.02	1662.95
242.24	1677.29
242.46	1757.16
242.68	1677.29
242.89	1716.20
243.11	1783.78
243.33	1763.30
243.55	1738.73
243.76	1761.25
243.98	1642.47
244.20	1787.88
244.42	1656.81
244.64	1742.82
244.85	1662.95
245.07	1615.85
245.29	1765.35
245.51	1675.24
245.72	1699.81
245.94	1769.44
246.16	1716.20
246.38	1744.87
246.59	1673.19
246.81	1609.70
247.03	1673.19
247.24	1607.66
247.46	1710.05
247.68	1703.91
247.90	1669.09
248.11	1714.15
248.33	1710.05
248.55	1681.38
248.77	1757.16
248.98	1763.30
249.20	1855.46
249.42	1753.06
249.64	1771.49
249.85	1802.21
250.07	1689.57
250.29	1759.21
250.50	1751.01
250.72	1640.42
250.94	1693.67
251.16	1818.60
251.37	1796.07
251.59	1740.77
251.81	1693.67
252.02	1744.87
252.24	1742.82
252.46	1796.07
252.68	1640.42
252.89	1712.10
253.11	1662.95
253.33	1841.12
253.54	1800.16
253.76	1673.19
253.98	1705.96
254.20	1714.15
254.41	1697.77
254.63	1607.66
254.85	1632.23
255.06	1656.81
255.28	1738.73
255.50	1687.53
255.71	1656.81
255.93	1607.66
256.15	1644.52
256.36	1751.01
256.58	1755.11
256.80	1693.67
257.02	1628.14
257.23	1669.09
257.45	1695.72
257.67	1781.73
257.88	1705.96
258.10	1701.86
258.32	1722.34
258.53	1697.77
258.75	1755.11
258.97	1673.19
259.18	1822.69
259.40	1714.15
259.62	1794.02
259.83	1755.11
260.05	1755.11
260.27	1927.14
260.48	1781.73
260.70	1681.38
260.92	1771.49
261.13	1710.05
261.35	1744.87
261.57	1703.91
261.78	1632.23
262.00	1673.19
262.22	1730.53
262.43	1669.09
262.65	1646.57
262.86	1761.25
263.08	1761.25
263.30	1718.25
263.51	1693.67
263.73	1705.96
263.95	1798.12
264.16	1644.52
264.38	1677.29
264.60	1779.68
264.81	1648.61
265.03	1765.35
265.25	1759.21
265.46	1697.77
265.68	1763.30
265.89	1826.79
266.11	1603.56
266.33	1742.82
266.54	1796.07
266.76	1728.49
266.98	1699.81
267.19	1751.01
267.41	1814.50
267.62	1695.72
267.84	1609.70
268.06	1701.86
268.27	1695.72
268.49	1701.86
268.70	1755.11
268.92	1734.63
269.14	1576.94
269.35	1669.09
269.57	1722.34
269.79	1681.38
270.00	1671.14
270.22	1789.92
270.43	1642.47
270.65	1638.38
270.87	1712.10
271.08	1802.21
271.30	1716.20
271.51	1644.52
271.73	1705.96
271.95	1734.63
272.16	1636.33
272.38	1736.68
272.59	1728.49
272.81	1701.86
273.02	1701.86
273.24	1685.48
273.46	1828.84
273.67	1689.57
273.89	1650.66
274.10	1644.52
274.32	1845.22
274.54	1691.62
274.75	1720.29
274.97	1714.15
275.18	1744.87
275.40	1683.43
275.61	1720.29
275.83	1675.24
276.05	1601.51
276.26	1716.20
276.48	1753.06
276.69	1783.78
276.91	1699.81
277.12	1712.10
277.34	1763.30
277.55	1722.34
277.77	1677.29
277.99	1787.88
278.20	1609.70
278.42	1697.77
278.63	1615.85
278.85	1701.86
279.06	1605.61
279.28	1722.34
279.49	1761.25
279.71	1708.01
279.93	1648.61
280.14	1693.67
280.36	1722.34
280.57	1775.59
280.79	1722.34
281.00	1624.04
281.22	1646.57
281.43	1796.07
281.65	1609.70
281.86	1656.81
282.08	1757.16
282.29	1853.41
282.51	1648.61
282.73	1703.91
282.94	1583.08
283.16	1738.73
283.37	1863.65
283.59	1746.92
283.80	1726.44
284.02	1691.62
284.23	1703.91
284.45	1689.57
284.66	1726.44
284.88	1619.94
285.09	1769.44
285.31	1720.29
285.52	1773.54
285.74	1576.94
285.95	1798.12
286.17	1703.91
286.38	1777.64
286.60	1755.11
286.81	1644.52
287.03	1642.47
287.24	1652.71
287.46	1781.73
287.67	1693.67
287.89	1847.27
288.10	1724.39
288.32	1761.25
288.53	1804.26
288.75	1775.59
288.96	1775.59
289.18	1621.99
289.39	1757.16
289.61	1757.16
289.82	1894.37
290.04	1742.82
290.25	1562.60
290.47	1722.34
290.68	1687.53
290.90	1658.85
291.11	1607.66
291.33	1697.77
291.54	1685.48
291.76	1722.34
291.97	1724.39
292.18	1738.73
292.40	1736.68
292.61	1746.92
292.83	1757.16
293.04	1777.64
293.26	1755.11
293.47	1691.62
293.69	1619.94
293.90	1757.16
294.12	1802.21
294.33	1697.77
294.55	1751.01
294.76	1775.59
294.97	1771.49
295.19	1824.74
295.40	1759.21
295.62	1714.15
295.83	1722.34
296.05	1726.44
296.26	1738.73
296.48	1695.72
296.69	1699.81
296.90	1738.73
297.12	1808.36
297.33	1820.64
297.55	1722.34
297.76	1738.73
297.98	1742.82
298.19	1730.53
298.41	1714.15
298.62	1736.68
298.83	1753.06
299.05	1685.48
299.26	1767.40
299.48	1681.38
299.69	1673.19
299.90	1642.47
300.12	1650.66
300.33	1689.57
300.55	1714.15
300.76	1699.81
300.98	1621.99
301.19	1697.77
301.40	1681.38
301.62	1718.25
301.83	1757.16
302.05	1662.95
302.26	1689.57
302.47	1769.44
302.69	1654.76
302.90	1656.81
303.12	1581.03
303.33	1781.73
303.54	1777.64
303.76	1650.66
303.97	1783.78
304.19	1861.60
304.40	1755.11
304.61	1656.81
304.83	1841.12
305.04	1714.15
305.26	1665.00
305.47	1669.09
305.68	1744.87
305.90	1617.90
306.11	1736.68
306.33	1714.15
306.54	1632.23
306.75	1613.80
306.97	1691.62
307.18	1644.52
307.39	1705.96
307.61	1736.68
307.82	1642.47
308.04	1746.92
308.25	1710.05
308.46	1728.49
308.68	1650.66
308.89	1751.01
309.10	1728.49
309.32	1703.91
309.53	1693.67
309.74	1748.97
309.96	1759.21
310.17	1746.92
310.39	1654.76
310.60	1699.81
310.81	1695.72
311.03	1660.90
311.24	1748.97
311.45	1728.49
311.67	1861.60
311.88	1703.91
312.09	1724.39
312.31	1763.30
312.52	1753.06
312.73	1730.53
312.95	1667.05
313.16	1697.77
313.37	1806.31
313.59	1712.10
313.80	1689.57
314.01	1767.40
314.23	1701.86
314.44	1722.34
314.65	1695.72
314.87	1675.24
315.08	1728.49
315.29	1675.24
315.51	1589.22
315.72	1611.75
315.93	1794.02
316.15	1804.26
316.36	1675.24
316.57	1728.49
316.79	1796.07
317.00	1685.48
317.21	1771.49
317.43	1654.76
317.64	1691.62
317.85	1640.42
318.07	1675.24
318.28	1740.77
318.49	1910.75
318.70	1880.04
318.92	1720.29
319.13	1855.46
319.34	1869.80
319.56	1841.12
319.77	1761.25
319.98	1849.32
320.20	1785.83
320.41	1820.64
320.62	1820.64
320.83	1689.57
321.05	1822.69
321.26	1746.92
321.47	1722.34
321.69	1796.07
321.90	1564.65
322.11	1730.53
322.32	1748.97
322.54	1806.31
322.75	1650.66
322.96	1802.21
323.18	1763.30
323.39	1599.46
323.60	1619.94
323.81	1759.21
324.03	1718.25
324.24	1710.05
324.45	1789.92
324.66	1720.29
324.88	1828.84
325.09	1748.97
325.30	1783.78
325.52	1728.49
325.73	1769.44
325.94	1624.04
326.15	1650.66
326.37	1640.42
326.58	1767.40
326.79	1798.12
327.00	1665.00
327.22	1693.67
327.43	1689.57
327.64	1665.00
327.85	1771.49
328.07	1732.58
328.28	1777.64
328.49	1712.10
328.70	1740.77
328.92	1703.91
329.13	1724.39
329.34	1718.25
329.55	1822.69
329.76	1708.01
329.98	1726.44
330.19	1806.31
330.40	1798.12
330.61	1665.00
330.83	1730.53
331.04	1712.10
331.25	1685.48
331.46	1673.19
331.68	1621.99
331.89	1685.48
332.10	1755.11
332.31	1597.42
332.52	1693.67
332.74	1806.31
332.95	1593.32
333.16	1714.15
333.37	1730.53
333.58	1679.33
333.80	1759.21
334.01	1683.43
334.22	1673.19
334.43	1656.81
334.64	1685.48
334.86	1603.56
335.07	1753.06
335.28	1740.77
335.49	1636.33
335.70	1796.07
335.92	1740.77
336.13	1900.52
336.34	1716.20
336.55	1751.01
336.76	1720.29
336.98	1634.28
337.19	1755.11
337.40	1855.46
337.61	1918.95
337.82	1718.25
338.04	1744.87
338.25	1646.57
338.46	1726.44
338.67	1755.11
338.88	1683.43
339.09	1628.14
339.31	1640.42
339.52	1576.94
339.73	1732.58
339.94	1701.86
340.15	1826.79
340.36	1652.71
340.58	1710.05
340.79	1599.46
341.00	1773.54
341.21	1681.38
341.42	1914.85
341.63	1742.82
341.85	1722.34
342.06	1699.81
342.27	1679.33
342.48	1828.84
342.69	1673.19
342.90	1679.33
343.12	1689.57
343.33	1697.77
343.54	1800.16
343.75	1787.88
343.96	1632.23
344.17	1689.57
344.38	1708.01
344.60	1648.61
344.81	1658.85
345.02	1671.14
345.23	1724.39
345.44	1744.87
345.65	1767.40
345.86	1681.38
346.07	1740.77
346.29	1681.38
346.50	1769.44
346.71	1746.92
346.92	1816.55
347.13	1769.44
347.34	1701.86
347.55	1738.73
347.76	1732.58
347.98	1660.90
348.19	1660.90
348.40	1757.16
348.61	1701.86
348.82	1818.60
349.03	1751.01
349.24	1759.21
349.45	1812.45
349.66	1538.02
349.88	1730.53
350.09	1673.19
350.30	1785.83
350.51	1734.63
350.72	1708.01
350.93	1660.90
351.14	1679.33
351.35	1800.16
351.56	1755.11
351.77	1724.39
351.99	1783.78
352.20	1753.06
352.41	1714.15
352.62	1669.09
352.83	1695.72
353.04	1648.61
353.25	1708.01
353.46	1734.63
353.67	1734.63
353.88	1601.51
354.09	1716.20
354.30	1769.44
354.52	1753.06
354.73	1689.57
354.94	1677.29
355.15	1685.48
355.36	1802.21
355.57	1718.25
355.78	1759.21
355.99	1648.61
356.20	1628.14
356.41	1816.55
356.62	1720.29
356.83	1761.25
357.04	1796.07
357.25	1687.53
357.46	1734.63
357.68	1556.46
357.89	1634.28
358.10	1738.73
358.31	1667.05
358.52	1691.62
358.73	1632.23
358.94	1689.57
359.15	1648.61
359.36	1708.01
359.57	1718.25
359.78	1689.57
359.99	1691.62
360.20	1599.46
360.41	1732.58
360.62	1712.10
360.83	1695.72
361.04	1710.05
361.25	1755.11
361.46	1832.93
361.67	1677.29
361.88	1798.12
362.09	1781.73
362.30	1771.49
362.51	1642.47
362.72	1705.96
362.93	1798.12
363.14	1732.58
363.35	1716.20
363.56	1603.56
363.78	1806.31
363.99	1783.78
364.20	1695.72
364.41	1689.57
364.62	1828.84
364.83	1693.67
365.04	1693.67
365.25	1677.29
365.46	1869.80
365.67	1671.14
365.88	1701.86
366.09	1701.86
366.30	1697.77
366.51	1607.66
366.72	1562.60
366.93	1722.34
367.14	1783.78
367.35	1810.40
367.56	1652.71
367.77	1796.07
367.98	1642.47
368.18	1777.64
368.39	1718.25
368.60	1628.14
368.81	1720.29
369.02	1734.63
369.23	1763.30
369.44	1665.00
369.65	1683.43
369.86	1689.57
370.07	1697.77
370.28	1654.76
370.49	1746.92
370.70	1769.44
370.91	1558.50
371.12	1607.66
371.33	1722.34
371.54	1658.85
371.75	1796.07
371.96	1593.32
372.17	1687.53
372.38	1624.04
372.59	1679.33
372.80	1640.42
373.01	1683.43
373.22	1673.19
373.43	1681.38
373.64	1632.23
373.85	1857.51
374.06	1748.97
374.26	1716.20
374.47	1689.57
374.68	1802.21
374.89	1759.21
375.10	1665.00
375.31	1779.68
375.52	1773.54
375.73	1732.58
375.94	1751.01
376.15	1843.17
376.36	1667.05
376.57	1767.40
376.78	1640.42
376.99	1699.81
377.20	1773.54
377.40	1640.42
377.61	1789.92
377.82	1665.00
378.03	1751.01
378.24	1808.36
378.45	1675.24
378.66	1722.34
378.87	1615.85
379.08	1685.48
379.29	1722.34
379.50	1857.51
379.71	1691.62
379.91	1710.05
380.12	1675.24
380.33	1722.34
380.54	1751.01
380.75	1710.05
380.96	1718.25
381.17	1808.36
381.38	1718.25
381.59	1759.21
381.80	1710.05
382.00	1841.12
382.21	1722.34
382.42	1796.07
382.63	1855.46
382.84	1783.78
383.05	1798.12
383.26	1785.83
383.47	1839.08
383.68	1763.30
383.88	1771.49
384.09	1697.77
384.30	1761.25
384.51	1710.05
384.72	1603.56
384.93	1609.70
385.14	1777.64
385.35	1718.25
385.55	1724.39
385.76	1822.69
385.97	1724.39
386.18	1648.61
386.39	1708.01
386.60	1710.05
386.81	1722.34
387.02	1636.33
387.22	1691.62
387.43	1806.31
387.64	1763.30
387.85	1869.80
388.06	2246.62
388.27	4194.24
388.48	6844.31
388.68	8146.82
388.89	9641.84
389.10	9854.83
389.31	8447.87
389.52	7628.68
389.73	6686.62
389.93	6371.23
390.14	6021.03
390.35	5140.40
390.56	4597.69
390.77	3870.66
390.98	2967.51
391.18	2623.45
391.39	2127.84
391.60	1861.60
391.81	1810.40
392.02	1648.61
392.23	1857.51
392.43	1775.59
392.64	1857.51
392.85	1746.92
393.06	1748.97
393.27	1703.91
393.47	1660.90
393.68	1781.73
393.89	1701.86
394.10	1830.88
394.31	1691.62
394.52	1675.24
394.72	1693.67
394.93	1806.31
395.14	1615.85
395.35	1812.45
395.56	1708.01
395.76	1798.12
395.97	1746.92
396.18	1843.17
396.39	1853.41
396.60	1996.77
396.80	1925.09
397.01	1875.94
397.22	1859.56
397.43	1824.74
397.64	1732.58
397.84	1794.02
398.05	1943.52
398.26	1806.31
398.47	1814.50
398.67	1763.30
398.88	1751.01
399.09	1787.88
399.30	1720.29
399.51	1787.88
399.71	1658.85
399.92	1787.88
400.13	1791.97
400.34	1703.91
400.54	1736.68
400.75	1775.59
400.96	1744.87
401.17	1820.64
401.37	1736.68
401.58	1720.29
401.79	1757.16
402.00	1839.08
402.21	1900.52
402.41	1912.80
402.62	1992.67
402.83	2150.37
403.04	2039.78
403.24	2064.35
403.45	1894.37
403.66	1918.95
403.87	1859.56
404.07	1908.71
404.28	1902.56
404.49	1906.66
404.70	1824.74
404.90	1810.40
405.11	1775.59
405.32	1697.77
405.52	1693.67
405.73	1671.14
405.94	1652.71
406.15	1732.58
406.35	1718.25
406.56	1787.88
406.77	1716.20
406.98	1787.88
407.18	1607.66
407.39	1800.16
407.60	1705.96
407.80	1798.12
408.01	1673.19
408.22	1726.44
408.43	1691.62
408.63	1726.44
408.84	1800.16
409.05	1763.30
409.25	1689.57
409.46	1632.23
409.67	1769.44
409.88	1699.81
410.08	1802.21
410.29	1642.47
410.50	1771.49
410.70	1738.73
410.91	1683.43
411.12	1738.73
411.32	1701.86
411.53	1671.14
411.74	1734.63
411.95	1837.03
412.15	1693.67
412.36	1689.57
412.57	1783.78
412.77	1798.12
412.98	1638.38
413.19	1701.86
413.39	1746.92
413.60	1732.58
413.81	1800.16
414.01	1705.96
414.22	1765.35
414.43	1748.97
414.63	1701.86
414.84	1771.49
415.05	1744.87
415.25	1665.00
415.46	1708.01
415.67	1624.04
415.87	1619.94
416.08	1771.49
416.29	1708.01
416.49	1761.25
416.70	1621.99
416.91	1560.55
417.11	1710.05
417.32	1757.16
417.53	1794.02
417.73	1640.42
417.94	1697.77
418.15	1714.15
418.35	1732.58
418.56	1724.39
418.77	1865.70
418.97	1724.39
419.18	1673.19
419.38	1677.29
419.59	1734.63
419.80	1884.13
420.00	1652.71
420.21	1683.43
420.42	1718.25
420.62	1677.29
420.83	1746.92
421.04	1695.72
421.24	1728.49
421.45	1787.88
421.65	1763.30
421.86	1748.97
422.07	1814.50
422.27	1718.25
422.48	1740.77
422.69	1699.81
422.89	1734.63
423.10	1710.05
423.30	1644.52
423.51	1720.29
423.72	1734.63
423.92	1742.82
424.13	1693.67
424.33	1746.92
424.54	1722.34
424.75	1720.29
424.95	1869.80
425.16	1791.97
425.36	1722.34
425.57	1828.84
425.78	1785.83
425.98	1738.73
426.19	1720.29
426.39	1658.85
426.60	1712.10
426.81	1810.40
427.01	1724.39
427.22	1642.47
427.42	1603.56
427.63	1648.61
427.83	1789.92
428.04	1918.95
428.25	1757.16
428.45	1824.74
428.66	1804.26
428.86	1705.96
429.07	1683.43
429.28	1681.38
429.48	1699.81
429.69	1722.34
429.89	1728.49
430.10	1613.80
430.30	1746.92
430.51	1759.21
430.71	1673.19
430.92	1650.66
431.13	1767.40
431.33	1722.34
431.54	1689.57
431.74	1771.49
431.95	1794.02
432.15	1640.42
432.36	1773.54
432.56	1728.49
432.77	1806.31
432.98	1806.31
433.18	1710.05
433.39	1718.25
433.59	1708.01
433.80	1875.94
434.00	1902.56
434.21	1683.43
434.41	1710.05
434.62	1861.60
434.82	1660.90
435.03	1722.34
435.23	1722.34
435.44	1705.96
435.64	1691.62
435.85	1654.76
436.06	1689.57
436.26	1822.69
436.47	1652.71
436.67	1722.34
436.88	1720.29
437.08	1761.25
437.29	1726.44
437.49	1787.88
437.70	1734.63
437.90	1693.67
438.11	1837.03
438.31	1804.26
438.52	1927.14
438.72	1832.93
438.93	1900.52
439.13	1841.12
439.34	1820.64
439.54	1820.64
439.75	1794.02
439.95	1787.88
440.16	1728.49
440.36	1757.16
440.57	1857.51
440.77	1769.44
440.98	1724.39
441.18	1710.05
441.39	1757.16
441.59	1611.75
441.80	1851.36
442.00	1736.68
442.21	1822.69
442.41	1665.00
442.62	1689.57
442.82	1650.66
443.02	1746.92
443.23	1769.44
443.43	1695.72
443.64	1771.49
443.84	1652.71
444.05	1781.73
444.25	1746.92
444.46	1679.33
444.66	1789.92
444.87	1777.64
445.07	1595.37
445.28	1787.88
445.48	1802.21
445.69	1740.77
445.89	1851.36
446.09	1738.73
446.30	2058.21
446.50	2594.78
446.71	3815.37
446.91	4249.54
447.12	4685.75
447.32	4888.50
447.53	4358.08
447.73	3858.37
447.93	3573.71
448.14	3420.11
448.34	3225.55
448.55	2996.18
448.75	2775.00
448.96	2715.61
449.16	2441.18
449.36	2314.20
449.57	2056.16
449.77	1845.22
449.98	1839.08
450.18	1873.89
450.39	1814.50
450.59	1742.82
450.79	1740.77
451.00	1730.53
451.20	1755.11
451.41	1708.01
451.61	1808.36
451.81	1740.77
452.02	1714.15
452.22	1689.57
452.43	1703.91
452.63	1632.23
452.84	1691.62
453.04	1708.01
453.24	1761.25
453.45	1724.39
453.65	1720.29
453.86	1673.19
454.06	1814.50
454.26	1812.45
454.47	1685.48
454.67	1765.35
454.87	1730.53
455.08	1615.85
455.28	1859.56
455.49	1726.44
455.69	1642.47
455.89	1857.51
456.10	1746.92
456.30	1718.25
456.51	1794.02
456.71	1783.78
456.91	1796.07
457.12	1697.77
457.32	1816.55
457.52	1687.53
457.73	1853.41
457.93	1814.50
458.14	1742.82
458.34	1652.71
458.54	1654.76
458.75	1660.90
458.95	1771.49
459.15	1779.68
459.36	1814.50
459.56	1822.69
459.76	1902.56
459.97	1744.87
460.17	1757.16
460.37	1763.30
460.58	1730.53
460.78	1722.34
460.99	1736.68
461.19	1779.68
461.39	1654.76
461.60	1816.55
461.80	1798.12
462.00	1773.54
462.21	1785.83
462.41	1751.01
462.61	1710.05
462.82	1597.42
463.02	1816.55
463.22	1740.77
463.43	1806.31
463.63	1753.06
463.83	1773.54
464.04	1687.53
464.24	1802.21
464.44	1755.11
464.64	1691.62
464.85	1687.53
465.05	1787.88
465.25	1701.86
465.46	1714.15
465.66	1763.30
465.86	1796.07
466.07	1804.26
466.27	1708.01
466.47	1589.22
466.68	1689.57
466.88	1742.82
467.08	1748.97
467.29	1746.92
467.49	1816.55
467.69	1734.63
467.89	1832.93
468.10	1667.05
468.30	1744.87
468.50	1796.07
468.71	1812.45
468.91	1654.76
469.11	1828.84
469.31	1771.49
469.52	1671.14
469.72	1812.45
469.92	1830.88
470.13	1748.97
470.33	1769.44
470.53	1904.61
470.73	2011.11
470.94	2324.44
471.14	2344.92
471.34	2570.20
471.54	2396.12
471.75	2160.61
471.95	2082.78
472.15	2074.59
472.36	2117.60
472.56	2025.44
472.76	2074.59
472.96	1949.67
473.17	1904.61
473.37	1902.56
473.57	1865.70
473.77	1845.22
473.98	1712.10
474.18	1746.92
474.38	1906.66
474.58	1658.85
474.79	1783.78
474.99	1769.44
475.19	1759.21
475.39	1636.33
475.60	1759.21
475.80	1783.78
476.00	1742.82
476.20	1730.53
476.41	1789.92
476.61	1882.08
476.81	1771.49
477.01	1705.96
477.21	1841.12
477.42	1814.50
477.62	1644.52
477.82	1826.79
478.02	1644.52
478.23	1738.73
478.43	1634.28
478.63	1742.82
478.83	1777.64
479.03	1667.05
479.24	1773.54
479.44	1781.73
479.64	1669.09
479.84	1724.39
480.04	1742.82
480.25	1693.67
480.45	1689.57
480.65	1734.63
480.85	1832.93
481.06	1665.00
481.26	1769.44
481.46	1755.11
481.66	1718.25
481.86	1640.42
482.06	1906.66
482.27	1681.38
482.47	1695.72
482.67	1763.30
482.87	1767.40
483.07	1783.78
483.28	1746.92
483.48	1681.38
483.68	1759.21
483.88	1658.85
484.08	1611.75
484.29	1648.61
484.49	1777.64
484.69	1656.81
484.89	1880.04
485.09	1777.64
485.29	1771.49
485.50	1732.58
485.70	1693.67
485.90	1791.97
486.10	1794.02
486.30	1710.05
486.50	1804.26
486.71	1734.63
486.91	1705.96
487.11	1820.64
487.31	1685.48
487.51	1822.69
487.71	1683.43
487.91	1679.33
488.12	1687.53
488.32	1562.60
488.52	1722.34
488.72	1552.36
488.92	1642.47
489.12	1820.64
489.32	1796.07
489.53	1710.05
489.73	1695.72
489.93	1812.45
490.13	1662.95
490.33	1654.76
490.53	1742.82
490.73	1839.08
490.94	1695.72
491.14	1826.79
491.34	1859.56
491.54	2158.56
491.74	2594.78
491.94	2934.74
492.14	3006.42
492.34	2916.31
492.54	2785.24
492.75	2568.15
492.95	2437.08
493.15	2269.15
493.35	2312.16
493.55	2306.01
493.75	2129.89
493.95	2189.28
494.15	2033.63
494.35	1933.28
494.56	1888.23
494.76	1726.44
494.96	1826.79
495.16	1761.25
495.36	1789.92
495.56	1767.40
495.76	1763.30
495.96	1708.01
496.16	1714.15
496.36	1824.74
496.56	1716.20
496.77	1820.64
496.97	1683.43
497.17	1783.78
497.37	1683.43
497.57	1847.27
497.77	1705.96
497.97	1591.27
498.17	1693.67
498.37	1671.14
498.57	1755.11
498.77	1791.97
498.97	1789.92
499.17	1814.50
499.38	1789.92
499.58	1818.60
499.78	1810.40
499.98	1773.54
500.18	1751.01
500.38	1701.86
500.58	1882.08
500.78	2609.11
500.98	4564.92
501.18	5926.82
501.38	6760.34
501.58	7176.08
501.78	6707.10
501.98	5638.06
502.18	5056.43
502.38	4450.24
502.58	4220.86
502.78	3772.36
502.98	3633.10
503.18	3373.00
503.38	3157.97
503.59	2940.88
503.79	2662.36
503.99	2475.99
504.19	2318.30
504.39	2275.29
504.59	2197.47
504.79	2168.80
504.99	2054.11
505.19	1894.37
505.39	1861.60
505.59	1957.86
505.79	1871.84
505.99	1894.37
506.19	1802.21
506.39	1841.12
506.59	1753.06
506.79	1800.16
506.99	1839.08
507.19	1839.08
507.39	1712.10
507.59	1712.10
507.79	1777.64
507.99	1662.95
508.19	1710.05
508.39	1687.53
508.59	1755.11
508.79	1837.03
508.99	1822.69
509.19	1755.11
509.39	1832.93
509.59	1753.06
509.79	1769.44
509.99	1798.12
510.19	1802.21
510.39	1742.82
510.59	1787.88
510.79	1744.87
510.99	1693.67
511.19	1820.64
511.39	1841.12
511.59	1847.27
511.79	1769.44
511.99	1798.12
512.19	1796.07
512.38	1738.73
512.58	1667.05
512.78	1689.57
512.98	1779.68
513.18	1820.64
513.38	1665.00
513.58	1806.31
513.78	1689.57
513.98	1675.24
514.18	1748.97
514.38	1714.15
514.58	1714.15
514.78	1691.62
514.98	1734.63
515.18	1703.91
515.38	1691.62
515.58	1796.07
515.78	1720.29
515.98	1730.53
516.18	1767.40
516.38	1761.25
516.57	1665.00
516.77	1763.30
516.97	1746.92
517.17	1691.62
517.37	1658.85
517.57	1853.41
517.77	1779.68
517.97	1767.40
518.17	1746.92
518.37	1757.16
518.57	1687.53
518.77	1742.82
518.97	1777.64
519.16	1695.72
519.36	1751.01
519.56	1695.72
519.76	1714.15
519.96	1742.82
520.16	1751.01
520.36	1665.00
520.56	1882.08
520.76	1753.06
520.96	1781.73
521.16	1773.54
521.35	1791.97
521.55	1800.16
521.75	1755.11
521.95	1691.62
522.15	1730.53
522.35	1644.52
522.55	1724.39
522.75	1828.84
522.95	1677.29
523.14	1716.20
523.34	1775.59
523.54	1751.01
523.74	1720.29
523.94	1808.36
524.14	1611.75
524.34	1738.73
524.54	1794.02
524.73	1665.00
524.93	1716.20
525.13	1740.77
525.33	1660.90
525.53	1906.66
525.73	1755.11
525.93	1798.12
526.13	1771.49
526.32	1714.15
526.52	1800.16
526.72	1753.06
526.92	1726.44
527.12	1708.01
527.32	1710.05
527.52	1740.77
527.71	1751.01
527.91	1679.33
528.11	1746.92
528.31	1697.77
528.51	1601.51
528.71	1771.49
528.90	1693.67
529.10	1751.01
529.30	1732.58
529.50	1656.81
529.70	1753.06
529.90	1722.34
530.09	1687.53
530.29	1687.53
530.49	1681.38
530.69	1877.99
530.89	1777.64
531.09	1730.53
531.28	1736.68
531.48	1828.84
531.68	1748.97
531.88	1722.34
532.08	1806.31
532.28	1642.47
532.47	1734.63
532.67	1787.88
532.87	1748.97
533.07	1673.19
533.27	1767.40
533.46	1755.11
533.66	1732.58
533.86	1775.59
534.06	1759.21
534.26	1765.35
534.45	1761.25
534.65	1828.84
534.85	1708.01
535.05	1654.76
535.25	1753.06
535.44	1658.85
535.64	1781.73
535.84	1765.35
536.04	1730.53
536.24	1736.68
536.43	1671.14
536.63	1796.07
536.83	1751.01
537.03	1658.85
537.22	1644.52
537.42	1656.81
537.62	1779.68
537.82	1722.34
538.02	1826.79
538.21	1796.07
538.41	1882.08
538.61	1742.82
538.81	1705.96
539.00	1871.84
539.20	1691.62
539.40	1783.78
539.60	1787.88
539.79	1687.53
539.99	1779.68
540.19	1697.77
540.39	1726.44
540.58	1722.34
540.78	1798.12
540.98	1675.24
541.18	1816.55
541.37	1822.69
541.57	1771.49
541.77	1732.58
541.97	1615.85
542.16	1665.00
542.36	1726.44
542.56	1701.86
542.76	1851.36
542.95	1830.88
543.15	1744.87
543.35	1785.83
543.54	1730.53
543.74	1738.73
543.94	1798.12
544.14	1751.01
544.33	1896.42
544.53	1753.06
544.73	1767.40
544.93	1691.62
545.12	1685.48
545.32	1722.34
545.52	1671.14
545.71	1669.09
545.91	1773.54
546.11	1714.15
546.30	1675.24
546.50	1703.91
546.70	1794.02
546.90	1746.92
547.09	1566.70
547.29	1748.97
547.49	1714.15
547.68	1779.68
547.88	1740.77
548.08	1708.01
548.27	2158.56
548.47	1730.53
548.67	1728.49
548.87	1775.59
549.06	1619.94
549.26	1804.26
549.46	1720.29
549.65	1753.06
549.85	1777.64
550.05	1814.50
550.24	1642.47
550.44	1722.34
550.64	1734.63
550.83	1779.68
551.03	1849.32
551.23	1834.98
551.42	1759.21
551.62	1740.77
551.82	1748.97
552.01	1757.16
552.21	1744.87
552.41	1798.12
552.60	1812.45
552.80	1738.73
553.00	1660.90
553.19	1748.97
553.39	1789.92
553.59	1705.96
553.78	1775.59
553.98	1726.44
554.17	1636.33
554.37	1824.74
554.57	1796.07
554.76	1685.48
554.96	1669.09
555.16	1738.73
555.35	1738.73
555.55	1763.30
555.75	1728.49
555.94	1794.02
556.14	1630.18
556.33	1787.88
556.53	1814.50
556.73	1716.20
556.92	1828.84
557.12	1816.55
557.32	1873.89
557.51	1798.12
557.71	1761.25
557.90	1841.12
558.10	1859.56
558.30	1759.21
558.49	1785.83
558.69	1828.84
558.88	1769.44
559.08	1800.16
559.28	1685.48
559.47	1675.24
559.67	1769.44
559.86	1834.98
560.06	1800.16
560.26	1718.25
560.45	1796.07
560.65	1728.49
560.84	1873.89
561.04	1714.15
561.24	1814.50
561.43	1744.87
561.63	1847.27
561.82	1763.30
562.02	1714.15
562.22	1748.97
562.41	1767.40
562.61	1734.63
562.80	1734.63
563.00	1931.23
563.19	1761.25
563.39	1804.26
563.59	1679.33
563.78	1761.25
563.98	1658.85
564.17	1716.20
564.37	1656.81
564.56	1740.77
564.76	1746.92
564.96	1755.11
565.15	1755.11
565.35	1890.28
565.54	1638.38
565.74	1746.92
565.93	1847.27
566.13	1802.21
566.32	1755.11
566.52	1744.87
566.71	1710.05
566.91	1726.44
567.11	1687.53
567.30	1705.96
567.50	1794.02
567.69	1816.55
567.89	1765.35
568.08	1687.53
568.28	1810.40
568.47	1710.05
568.67	1742.82
568.86	1755.11
569.06	1736.68
569.25	1771.49
569.45	1665.00
569.64	1716.20
569.84	1767.40
570.04	1812.45
570.23	1740.77
570.43	1734.63
570.62	1759.21
570.82	1816.55
571.01	1732.58
571.21	1765.35
571.40	1621.99
571.60	1744.87
571.79	1853.41
571.99	1759.21
572.18	1701.86
572.38	1755.11
572.57	1701.86
572.77	1822.69
572.96	1943.52
573.16	1822.69
573.35	1720.29
573.55	1837.03
573.74	1802.21
573.94	1656.81
574.13	1806.31
574.33	1814.50
574.52	1720.29
574.71	1806.31
574.91	1859.56
575.10	1671.14
575.30	1789.92
575.49	1710.05
575.69	1687.53
575.88	1783.78
576.08	1753.06
576.27	1796.07
576.47	1705.96
576.66	1808.36
576.86	1781.73
577.05	1771.49
577.25	1781.73
577.44	1961.95
577.64	1746.92
577.83	1783.78
578.02	1738.73
578.22	1789.92
578.41	1779.68
578.61	1648.61
578.80	1710.05
579.00	1746.92
579.19	1730.53
579.39	1855.46
579.58	1787.88
579.77	1726.44
579.97	1904.61
580.16	1769.44
580.36	1849.32
580.55	1867.75
580.75	1779.68
580.94	1812.45
581.13	1869.80
581.33	1794.02
581.52	1763.30
581.72	1789.92
581.91	1851.36
582.11	1746.92
582.30	1867.75
582.49	1783.78
582.69	1771.49
582.88	1828.84
583.08	1701.86
583.27	1828.84
583.47	1783.78
583.66	1658.85
583.85	1689.57
584.05	1734.63
584.24	1861.60
584.44	1820.64
584.63	1765.35
584.82	1806.31
585.02	1816.55
585.21	1757.16
585.41	1822.69
585.60	1857.51
585.79	1906.66
585.99	1927.14
586.18	1912.80
586.37	2138.08
586.57	3346.38
586.76	9774.95
586.96	24583.82
587.15	34266.61
587.34	40347.03
587.54	42161.53
587.73	36556.24
587.93	26443.37
588.12	21515.96
588.31	18378.47
588.51	16248.58
588.70	15038.23
588.89	14073.64
589.09	12638.02
589.28	11099.99
589.47	9355.12
589.67	7847.82
589.86	6457.25
590.06	4999.09
590.25	3923.91
590.44	3192.78
590.64	2572.25
590.83	2287.58
591.02	2074.59
591.22	1904.61
591.41	2000.87
591.60	1828.84
591.80	1972.19
591.99	1683.43
592.18	1820.64
592.38	1822.69
592.57	1812.45
592.76	1869.80
592.96	1783.78
593.15	1794.02
593.34	1777.64
593.54	1843.17
593.73	1796.07
593.92	1802.21
594.12	1798.12
594.31	1718.25
594.50	1783.78
594.70	1724.39
594.89	1882.08
595.08	1681.38
595.28	1841.12
595.47	1951.71
595.66	1794.02
595.86	1693.67
596.05	1765.35
596.24	1695.72
596.43	1841.12
596.63	1839.08
596.82	1832.93
597.01	1839.08
597.21	1882.08
597.40	1796.07
597.59	1722.34
597.79	1683.43
597.98	1785.83
598.17	1808.36
598.36	1775.59
598.56	1783.78
598.75	1699.81
598.94	1755.11
599.14	1871.84
599.33	1685.48
599.52	1789.92
599.71	1785.83
599.91	1800.16
600.10	1779.68
600.29	1740.77
600.48	1730.53
600.68	1826.79
600.87	1726.44
601.06	1703.91
601.26	1736.68
601.45	1830.88
601.64	1665.00
601.83	1847.27
602.03	1683.43
602.22	1689.57
602.41	1806.31
602.60	1916.90
602.80	1728.49
602.99	1761.25
603.18	1728.49
603.37	1757.16
603.57	1765.35
603.76	1710.05
603.95	1820.64
604.14	1656.81
604.34	1665.00
604.53	1761.25
604.72	1705.96
604.91	1759.21
605.10	1783.78
605.30	1671.14
605.49	1787.88
605.68	1787.88
605.87	1773.54
606.07	1695.72
606.26	1734.63
606.45	1740.77
606.64	1775.59
606.84	1734.63
607.03	1732.58
607.22	1708.01
607.41	1720.29
607.60	1722.34
607.80	1769.44
607.99	1689.57
608.18	1796.07
608.37	1722.34
608.56	1703.91
608.76	1800.16
608.95	1857.51
609.14	1828.84
609.33	1873.89
609.52	1814.50
609.72	1722.34
609.91	1806.31
610.10	1765.35
610.29	1820.64
610.48	1802.21
610.68	1705.96
610.87	1775.59
611.06	1798.12
611.25	1697.77
611.44	1751.01
611.63	1816.55
611.83	1804.26
612.02	1738.73
612.21	1761.25
612.40	1632.23
612.59	1742.82
612.79	1591.27
612.98	1763.30
613.17	1777.64
613.36	1724.39
613.55	1902.56
613.74	1685.48
613.93	1748.97
614.13	1794.02
614.32	1753.06
614.51	1763.30
614.70	1753.06
614.89	1697.77
615.08	1832.93
615.28	2105.31
615.47	1689.57
615.66	1718.25
615.85	1771.49
616.04	1828.84
616.23	1746.92
616.42	1689.57
616.62	1685.48
616.81	1777.64
617.00	1755.11
617.19	1798.12
617.38	1716.20
617.57	1751.01
617.76	1691.62
617.95	1753.06
618.15	1705.96
618.34	1742.82
618.53	1673.19
618.72	1779.68
618.91	1791.97
619.10	1845.22
619.29	1746.92
619.48	1779.68
619.68	1662.95
619.87	1683.43
620.06	1656.81
620.25	1710.05
620.44	1730.53
620.63	1806.31
620.82	1775.59
621.01	1769.44
621.20	1720.29
621.39	1738.73
621.59	1718.25
621.78	1638.38
621.97	1687.53
622.16	1681.38
622.35	1675.24
622.54	1810.40
622.73	1863.65
622.92	1662.95
623.11	1796.07
623.30	1669.09
623.49	1800.16
623.68	1726.44
623.88	1751.01
624.07	1662.95
624.26	1689.57
624.45	1740.77
624.64	1714.15
624.83	1730.53
625.02	1798.12
625.21	1765.35
625.40	1763.30
625.59	1841.12
625.78	1705.96
625.97	1755.11
626.16	1730.53
626.35	1777.64
626.54	1771.49
626.74	1828.84
626.93	1675.24
627.12	1736.68
627.31	1761.25
627.50	1773.54
627.69	1771.49
627.88	1687.53
628.07	1667.05
628.26	1683.43
628.45	1669.09
628.64	1679.33
628.83	1724.39
629.02	1689.57
629.21	1810.40
629.40	1769.44
629.59	1689.57
629.78	1675.24
629.97	1683.43
630.16	1755.11
630.35	1730.53
630.54	1705.96
630.73	1714.15
630.92	1728.49
631.11	1675.24
631.30	1640.42
631.49	1726.44
631.68	1728.49
631.87	1759.21
632.06	1695.72
632.25	1923.04
632.44	1773.54
632.63	1744.87
632.82	1724.39
633.01	1591.27
633.20	1751.01
633.39	1691.62
633.58	1685.48
633.77	1759.21
633.96	1757.16
634.15	1794.02
634.34	1708.01
634.53	1705.96
634.72	1681.38
634.91	1710.05
635.10	1703.91
635.29	1732.58
635.48	1669.09
635.67	1755.11
635.86	1638.38
636.05	1861.60
636.24	1728.49
636.43	1791.97
636.62	1705.96
636.81	1687.53
637.00	1736.68
637.19	1744.87
637.38	1671.14
637.57	1662.95
637.76	1697.77
637.95	1720.29
638.14	1628.14
638.33	1769.44
638.52	1742.82
638.71	1599.46
638.89	1677.29
639.08	1865.70
639.27	1818.60
639.46	1722.34
639.65	1794.02
639.84	1736.68
640.03	1718.25
640.22	1714.15
640.41	1767.40
640.60	1705.96
640.79	1677.29
640.98	1619.94
641.17	1779.68
641.36	1746.92
641.55	1722.34
641.74	1630.18
641.92	1619.94
642.11	1617.90
642.30	1662.95
642.49	1685.48
642.68	1714.15
642.87	1734.63
643.06	1736.68
643.25	1673.19
643.44	1681.38
643.63	1689.57
643.82	1748.97
644.00	1673.19
644.19	1667.05
644.38	1636.33
644.57	1738.73
644.76	1732.58
644.95	1757.16
645.14	1671.14
645.33	1714.15
645.52	1748.97
645.71	1609.70
645.89	1654.76
646.08	1693.67
646.27	1689.57
646.46	1814.50
646.65	1632.23
646.84	1751.01
647.03	1722.34
647.22	1751.01
647.40	1751.01
647.59	1763.30
647.78	1605.61
647.97	1675.24
648.16	1654.76
648.35	1787.88
648.54	1787.88
648.73	1718.25
648.91	1824.74
649.10	1734.63
649.29	1646.57
649.48	1742.82
649.67	1652.71
649.86	1781.73
650.05	1685.48
650.23	1849.32
650.42	1683.43
650.61	1767.40
650.80	1804.26
650.99	1886.18
651.18	1693.67
651.36	1724.39
651.55	1699.81
651.74	1775.59
651.93	1806.31
652.12	1759.21
652.31	1724.39
652.49	1683.43
652.68	1667.05
652.87	1712.10
653.06	1689.57
653.25	1810.40
653.44	1703.91
653.62	1880.04
653.81	1800.16
654.00	1716.20
654.19	1779.68
654.38	1787.88
654.56	1759.21
654.75	1650.66
654.94	1765.35
655.13	1761.25
655.32	1671.14
655.51	1802.21
655.69	1675.24
655.88	1820.64
656.07	1638.38
656.26	1751.01
656.45	1730.53
656.63	1687.53
656.82	1765.35
657.01	1724.39
657.20	1640.42
657.38	1841.12
657.57	1744.87
657.76	1669.09
657.95	1730.53
658.14	1669.09
658.32	1728.49
658.51	1720.29
658.70	1773.54
658.89	1740.77
659.08	1716.20
659.26	1875.94
659.45	1665.00
659.64	1726.44
659.83	1665.00
660.01	1877.99
660.20	1740.77
660.39	1794.02
660.58	1689.57
660.76	1759.21
660.95	1644.52
661.14	1714.15
661.33	1714.15
661.51	1765.35
661.70	1667.05
661.89	1755.11
662.08	1710.05
662.26	1660.90
662.45	1691.62
662.64	1767.40
662.83	1685.48
663.01	1576.94
663.20	1681.38
663.39	1802.21
663.58	1632.23
663.76	1615.85
663.95	1705.96
664.14	1636.33
664.32	1652.71
664.51	1617.90
664.70	1673.19
664.89	1796.07
665.07	1697.77
665.26	1755.11
665.45	1703.91
665.64	1787.88
665.82	1763.30
666.01	1798.12
666.20	1691.62
666.38	1808.36
666.57	1796.07
666.76	2156.51
666.95	4517.82
667.13	10512.22
667.32	15214.36
667.51	18089.71
667.69	19246.81
667.88	17643.25
668.07	12595.01
668.25	9453.42
668.44	8136.58
668.63	7245.71
668.81	6864.79
669.00	6231.97
669.19	5701.54
669.38	5181.36
669.56	4612.03
669.75	4003.78
669.94	3383.24
670.12	2922.45
670.31	2570.20
670.50	2265.05
670.68	2054.11
670.87	1918.95
671.06	1765.35
671.24	1804.26
671.43	1757.16
671.62	1746.92
671.80	1636.33
671.99	1820.64
672.18	1751.01
672.36	1849.32
672.55	1777.64
672.74	1648.61
672.92	1755.11
673.11	1632.23
673.29	1656.81
673.48	1787.88
673.67	1761.25
673.85	1869.80
674.04	1685.48
674.23	1746.92
674.41	1847.27
674.60	1646.57
674.79	1632.23
674.97	1759.21
675.16	1687.53
675.34	1789.92
675.53	1685.48
675.72	1732.58
675.90	1712.10
676.09	1695.72
676.28	1759.21
676.46	1734.63
676.65	1732.58
676.83	1687.53
677.02	1757.16
677.21	1726.44
677.39	1705.96
677.58	1644.52
677.77	1675.24
677.95	1689.57
678.14	1718.25
678.32	1695.72
678.51	1662.95
678.70	1845.22
678.88	1703.91
679.07	1681.38
679.25	1736.68
679.44	1671.14
679.63	1630.18
679.81	1675.24
680.00	1806.31
680.18	1724.39
680.37	1746.92
680.55	1667.05
680.74	1648.61
680.93	1558.50
681.11	1800.16
681.30	1687.53
681.48	1714.15
681.67	1763.30
681.85	1816.55
682.04	1673.19
682.23	1761.25
682.41	1832.93
682.60	1701.86
682.78	1753.06
682.97	1603.56
683.15	1714.15
683.34	1763.30
683.53	1744.87
683.71	1660.90
683.90	1814.50
684.08	1748.97
684.27	1718.25
684.45	1744.87
684.64	1847.27
684.82	1685.48
685.01	1816.55
685.19	1791.97
685.38	1705.96
685.57	1722.34
685.75	1722.34
685.94	1732.58
686.12	1665.00
686.31	1673.19
686.49	1853.41
686.68	1597.42
686.86	1787.88
687.05	1771.49
687.23	1779.68
687.42	1652.71
687.60	1697.77
687.79	1802.21
687.97	1773.54
688.16	1810.40
688.34	1863.65
688.53	1624.04
688.71	1681.38
688.90	1804.26
689.08	1746.92
689.27	1572.84
689.45	1689.57
689.64	1728.49
689.82	1722.34
690.01	1767.40
690.19	1691.62
690.38	1695.72
690.56	1806.31
690.75	1681.38
690.93	1687.53
691.12	1681.38
691.30	1738.73
691.49	1720.29
691.67	1689.57
691.86	1861.60
692.04	1691.62
692.23	1738.73
692.41	1693.67
692.60	1824.74
692.78	1796.07
692.97	1685.48
693.15	1738.73
693.34	1873.89
693.52	1779.68
693.71	1644.52
693.89	1679.33
694.08	1634.28
694.26	1834.98
694.44	1748.97
694.63	1763.30
694.81	1691.62
695.00	1697.77
695.18	1771.49
695.37	1861.60
695.55	1697.77
695.74	1748.97
695.92	1691.62
696.10	1765.35
696.29	1662.95
696.47	1763.30
696.66	1644.52
696.84	1697.77
697.03	1691.62
697.21	1818.60
697.40	2318.30
697.58	1804.26
697.76	1751.01
697.95	1589.22
698.13	1660.90
698.32	1658.85
698.50	1720.29
698.68	1748.97
698.87	1744.87
699.05	1818.60
699.24	1714.15
699.42	1640.42
699.61	1769.44
699.79	1701.86
699.97	1779.68
700.16	1665.00
700.34	1652.71
700.53	1675.24
700.71	1892.32
700.89	1720.29
701.08	1753.06
701.26	1691.62
701.45	2066.40
701.63	1669.09
701.81	1732.58
702.00	1685.48
702.18	1718.25
702.37	1699.81
702.55	1787.88
702.73	1679.33
702.92	1665.00
703.10	1830.88
703.28	1755.11
703.47	1644.52
703.65	1722.34
703.84	1855.46
704.02	1798.12
704.20	1699.81
704.39	1658.85
704.57	1734.63
704.75	1796.07
704.94	1753.06
705.12	1814.50
705.30	1808.36
705.49	2242.53
705.67	4483.00
705.86	9428.85
706.04	12633.92
706.22	14501.67
706.41	15263.51
706.59	13834.03
706.77	9430.90
706.96	7323.54
707.14	6641.56
707.32	5867.43
707.51	5605.29
707.69	4958.13
707.87	4265.92
708.06	3510.22
708.24	3010.51
708.42	2508.76
708.61	2340.83
708.79	1953.76
708.97	1865.70
709.16	1849.32
709.34	1769.44
709.52	1710.05
709.71	1710.05
709.89	1775.59
710.07	1712.10
710.26	1619.94
710.44	1724.39
710.62	1828.84
710.80	1673.19
710.99	1783.78
711.17	1822.69
711.35	1673.19
711.54	1789.92
711.72	1816.55
711.90	1740.77
712.09	1720.29
712.27	1683.43
712.45	1759.21
712.63	1669.09
712.82	1656.81
713.00	1705.96
713.18	1775.59
713.37	1755.11
713.55	1705.96
713.73	1738.73
713.91	1767.40
714.10	1605.61
714.28	1679.33
714.46	1703.91
714.65	1712.10
714.83	1781.73
715.01	1648.61
715.19	1734.63
715.38	1683.43
715.56	1726.44
715.74	1689.57
715.92	1652.71
716.11	1763.30
716.29	1613.80
716.47	1642.47
716.65	1722.34
716.84	1650.66
717.02	1757.16
717.20	1685.48
717.38	1630.18
717.57	1767.40
717.75	1767.40
717.93	1662.95
718.11	1779.68
718.30	1658.85
718.48	1773.54
718.66	1716.20
718.84	1822.69
719.03	1646.57
719.21	1609.70
719.39	1808.36
719.57	1697.77
719.75	1716.20
719.94	1681.38
720.12	1712.10
720.30	1779.68
720.48	1814.50
720.67	1634.28
720.85	1525.74
721.03	1632.23
721.21	1720.29
721.39	1759.21
721.58	1751.01
721.76	1701.86
721.94	1740.77
722.12	1748.97
722.30	1857.51
722.49	1763.30
722.67	1685.48
722.85	1791.97
723.03	1658.85
723.21	1630.18
723.40	1665.00
723.58	1839.08
723.76	1759.21
723.94	1824.74
724.12	1697.77
724.30	1705.96
724.49	1775.59
724.67	1640.42
724.85	1810.40
725.03	1660.90
725.21	1740.77
725.40	1791.97
725.58	1689.57
725.76	1798.12
725.94	1724.39
726.12	1632.23
726.30	1718.25
726.49	1624.04
726.67	1669.09
726.85	1708.01
727.03	1822.69
727.21	2183.13
727.39	2904.02
727.57	3766.21
727.76	4153.28
727.94	4341.69
728.12	4329.41
728.30	3712.97
728.48	2914.26
728.66	2705.37
728.84	2521.05
729.03	2308.06
729.21	2242.53
729.39	2015.20
729.57	1828.84
729.75	1839.08
729.93	1830.88
730.11	1642.47
730.30	1746.92
730.48	1658.85
730.66	1794.02
730.84	1730.53
731.02	1718.25
731.20	1728.49
731.38	1732.58
731.56	1640.42
731.74	1671.14
731.93	1746.92
732.11	1628.14
732.29	1710.05
732.47	1693.67
732.65	1765.35
732.83	1767.40
733.01	1640.42
733.19	1613.80
733.37	1685.48
733.56	1656.81
733.74	1726.44
733.92	1779.68
734.10	1593.32
734.28	1685.48
734.46	1626.09
734.64	1695.72
734.82	1744.87
735.00	1701.86
735.18	1648.61
735.36	1710.05
735.54	1660.90
735.73	1726.44
735.91	1703.91
736.09	1748.97
736.27	1738.73
736.45	1802.21
736.63	1640.42
736.81	1689.57
736.99	1740.77
737.17	1812.45
737.35	1652.71
737.53	1648.61
737.71	1697.77
737.89	1746.92
738.07	1685.48
738.25	1691.62
738.43	1658.85
738.61	1683.43
738.80	1665.00
738.98	1564.65
739.16	1679.33
739.34	1605.61
739.52	1763.30
739.70	1714.15
739.88	1714.15
740.06	1804.26
740.24	1615.85
740.42	1722.34
740.60	1648.61
740.78	1646.57
740.96	1574.89
741.14	1693.67
741.32	1705.96
741.50	1628.14
741.68	1806.31
741.86	1791.97
742.04	1613.80
742.22	1587.18
742.40	1755.11
742.58	1685.48
742.76	1687.53
742.94	1767.40
743.12	1531.88
743.30	1757.16
743.48	1693.67
743.66	1656.81
743.84	1771.49
744.02	1691.62
744.20	1767.40
744.38	1640.42
744.56	1714.15
744.74	1812.45
744.92	1742.82
745.10	1746.92
745.28	1845.22
745.46	1802.21
745.64	1783.78
745.82	1796.07
746.00	1769.44
746.18	1738.73
746.36	1632.23
746.54	1720.29
746.72	1697.77
746.90	1708.01
747.08	1736.68
747.26	1675.24
747.44	1716.20
747.62	1781.73
747.80	1761.25
747.98	1775.59
748.15	1667.05
748.33	1802.21
748.51	1712.10
748.69	1730.53
748.87	1660.90
749.05	1730.53
749.23	1675.24
749.41	1828.84
749.59	1681.38
749.77	1691.62
749.95	1681.38
750.13	1708.01
750.31	1718.25
750.49	1712.10
750.67	1781.73
750.85	1802.21
751.03	1830.88
751.20	1787.88
751.38	1718.25
751.56	1693.67
751.74	1732.58
751.92	1728.49
752.10	1665.00
752.28	1730.53
752.46	1714.15
752.64	1712.10
752.82	1728.49
753.00	1806.31
753.18	1681.38
753.35	1712.10
753.53	1648.61
753.71	1685.48
753.89	1816.55
754.07	1683.43
754.25	1828.84
754.43	1738.73
754.61	1697.77
754.79	1761.25
754.97	1726.44
755.14	1755.11
755.32	1587.18
755.50	1722.34
755.68	1744.87
755.86	1617.90
756.04	1734.63
756.22	1683.43
756.40	1738.73
756.57	1765.35
756.75	1665.00
756.93	1806.31
757.11	1785.83
757.29	1744.87
757.47	1667.05
757.65	1630.18
757.82	1609.70
758.00	1681.38
758.18	1662.95
758.36	1671.14
758.54	1916.90
758.72	1648.61
758.90	1808.36
759.07	1669.09
759.25	1607.66
759.43	1720.29
759.61	1726.44
759.79	2150.37
759.97	1767.40
760.15	1669.09
760.32	1712.10
760.50	1769.44
760.68	1859.56
760.86	1662.95
761.04	1884.13
761.22	1732.58
761.39	1722.34
761.57	1699.81
761.75	1724.39
761.93	1744.87
762.11	1740.77
762.28	1683.43
762.46	1675.24
762.64	1712.10
762.82	1607.66
763.00	1720.29
763.18	1755.11
763.35	1640.42
763.53	1808.36
763.71	1662.95
763.89	1708.01
764.07	1689.57
764.24	1714.15
764.42	1732.58
764.60	1718.25
764.78	1691.62
764.96	1716.20
765.13	1683.43
765.31	1732.58
765.49	1701.86
765.67	1669.09
765.84	1691.62
766.02	1628.14
766.20	1599.46
766.38	1744.87
766.56	1804.26
766.73	1816.55
766.91	1695.72
767.09	1595.37
767.27	1708.01
767.44	1675.24
767.62	1767.40
767.80	1736.68
767.98	1689.57
768.15	1658.85
768.33	1751.01
768.51	1687.53
768.69	1744.87
768.87	1767.40
769.04	1746.92
769.22	1871.84
769.40	1791.97
769.58	1871.84
769.75	1794.02
769.93	1787.88
770.11	1689.57
770.28	1701.86
770.46	1761.25
770.64	1771.49
770.82	1742.82
770.99	1724.39
771.17	1708.01
771.35	1662.95
771.53	1742.82
771.70	1714.15
771.88	1650.66
772.06	1708.01
772.23	1613.80
772.41	1699.81
772.59	1658.85
772.77	1671.14
772.94	1705.96
773.12	1660.90
773.30	1679.33
773.47	1689.57
773.65	1652.71
773.83	1820.64
774.01	1689.57
774.18	1583.08
774.36	1683.43
774.54	1665.00
774.71	1765.35
774.89	1570.79
775.07	1689.57
775.24	1701.86
775.42	1662.95
775.60	1800.16
775.78	1650.66
775.95	1642.47
776.13	1576.94
776.31	1660.90
776.48	1720.29
776.66	1822.69
776.84	1654.76
777.01	1667.05
777.19	1751.01
777.37	1665.00
777.54	1656.81
777.72	1828.84
777.90	1761.25
778.07	1695.72
778.25	1861.60
778.43	1740.77
778.60	1705.96
778.78	1767.40
778.96	1791.97
779.13	1667.05
779.31	1783.78
779.49	1691.62
779.66	1675.24
779.84	1767.40
780.01	1675.24
780.19	1662.95
780.37	1808.36
780.54	1728.49
780.72	1761.25
780.90	1689.57
781.07	1665.00
781.25	1667.05
781.43	1843.17
781.60	1755.11
781.78	1798.12
781.95	1642.47
782.13	1703.91
782.31	1689.57
782.48	1613.80
782.66	1744.87
782.83	1755.11
783.01	1644.52
783.19	1697.77
783.36	1732.58
783.54	1656.81
783.72	1798.12
783.89	1703.91
784.07	1734.63
784.24	1685.48
784.42	1701.86
784.60	1681.38
784.77	1673.19
784.95	1570.79
785.12	1660.90
785.30	1736.68
785.47	1673.19
785.65	1621.99
785.83	1677.29
786.00	1679.33
786.18	1732.58
786.35	1609.70
786.53	1677.29
786.71	1695.72
786.88	1734.63
787.06	1757.16
787.23	1736.68
787.41	1681.38
787.58	1699.81
787.76	1667.05
787.94	1732.58
788.11	1775.59
788.29	1624.04
788.46	1695.72
788.64	1548.26
788.81	1714.15
788.99	1648.61
789.16	1656.81
789.34	1740.77
789.52	1689.57
789.69	1701.86
789.87	1581.03
790.04	1714.15
790.22	1677.29
790.39	1869.80
790.57	1609.70
790.74	1675.24
790.92	1759.21
791.09	1609.70
791.27	1791.97
791.44	1789.92
791.62	1742.82
791.79	1720.29
791.97	1705.96
792.15	1869.80
792.32	1779.68
792.50	1662.95
792.67	1802.21
792.85	1820.64
793.02	1693.67
793.20	1697.77
793.37	1689.57
793.55	1683.43
793.72	1669.09
793.90	1708.01
794.07	1624.04
794.25	1654.76
794.42	1716.20
794.60	1658.85
794.77	1662.95
794.95	1652.71
795.12	1693.67
795.30	1683.43
795.47	1578.98
795.65	1867.75
795.82	1689.57
796.00	1697.77
796.17	1601.51
796.34	1712.10
796.52	1677.29
796.69	1746.92
796.87	1722.34
797.04	1761.25
797.22	1671.14
797.39	1777.64
797.57	1781.73
797.74	1671.14
797.92	1714.15
798.09	1667.05
798.27	1787.88
798.44	1722.34
798.62	1578.98
798.79	1693.67
798.96	1624.04
799.14	1681.38
799.31	1740.77
799.49	1724.39
799.66	1726.44
799.84	1726.44
800.01	1738.73
800.19	1716.20
800.36	1558.50
800.53	1703.91
800.71	1728.49
800.88	1755.11
801.06	1660.90
801.23	1689.57
801.41	1689.57
801.58	1628.14
801.75	1716.20
801.93	1677.29
802.10	1734.63
802.28	1699.81
802.45	1701.86
802.63	1738.73
802.80	1748.97
802.97	1724.39
803.15	1734.63
803.32	1724.39
803.50	1714.15
803.67	1718.25
803.84	1681.38
804.02	1746.92
804.19	1642.47
804.37	1650.66
804.54	1628.14
804.71	1677.29
804.89	1681.38
805.06	1673.19
805.24	1646.57
805.41	1683.43
805.58	1642.47
805.76	1867.75
805.93	1781.73
806.10	1753.06
806.28	1748.97
806.45	1710.05
806.63	1820.64
806.80	1757.16
806.97	1726.44
807.15	1724.39
807.32	1710.05
807.49	1763.30
807.67	1675.24
807.84	1689.57
808.01	1603.56
808.19	1818.60
808.36	1882.08
808.54	1667.05
808.71	1587.18
808.88	1841.12
809.06	1759.21
809.23	1857.51
809.40	1687.53
809.58	1693.67
809.75	1705.96
809.92	1697.77
810.10	1808.36
810.27	1777.64
810.44	1714.15
810.62	1716.20
810.79	1716.20
810.96	1669.09
811.14	1607.66
811.31	1779.68
811.48	1693.67
811.66	1701.86
811.83	1769.44
812.00	1761.25
812.18	1796.07
812.35	1841.12
812.52	1751.01
812.69	1683.43
812.87	1689.57
813.04	1644.52
813.21	1746.92
813.39	1710.05
813.56	1634.28
813.73	1724.39
813.91	1652.71
814.08	1748.97
814.25	1646.57
814.42	1607.66
814.60	1712.10
814.77	1681.38
814.94	1681.38
815.12	1740.77
815.29	1693.67
815.46	1673.19
815.63	1748.97
815.81	1673.19
815.98	1714.15
816.15	1685.48
816.33	1714.15
816.50	1705.96
816.67	1632.23
816.84	1738.73
817.02	1597.42
817.19	1632.23
817.36	1658.85
817.53	1730.53
817.71	1615.85
817.88	1751.01
818.05	1697.77
818.22	1640.42
818.40	1781.73
818.57	1716.20
818.74	1703.91
818.91	1748.97
819.09	1611.75
819.26	1734.63
819.43	1656.81
819.60	1646.57
819.78	1794.02
819.95	1806.31
820.12	1607.66
820.29	1798.12
820.47	1744.87
820.64	1675.24
820.81	1626.09
820.98	1714.15
821.15	1728.49
821.33	1748.97
821.50	1632.23
821.67	1773.54
821.84	1708.01
822.02	1818.60
822.19	1738.73
822.36	1660.90
822.53	1734.63
822.70	1615.85
822.88	1714.15
823.05	1812.45
823.22	1699.81
823.39	1722.34
823.56	1703.91
823.74	1785.83
823.91	1677.29
824.08	1675.24
824.25	1722.34
824.42	1787.88
824.60	1591.27
824.77	1722.34
824.94	1673.19
825.11	1689.57
825.28	1701.86
825.45	1703.91
825.63	1753.06
825.80	1710.05
825.97	1806.31
826.14	1777.64
826.31	1642.47
826.48	1775.59
826.66	1695.72
826.83	1705.96
827.00	1710.05
827.17	1640.42
827.34	1669.09
827.51	1712.10
827.69	1658.85
827.86	1662.95
828.03	1621.99
828.20	1673.19
828.37	1660.90
828.54	1734.63
828.71	1611.75
828.89	1857.51
829.06	1761.25
829.23	1751.01
829.40	1712.10
829.57	1636.33
829.74	1697.77
829.91	1677.29
830.09	1634.28
830.26	1677.29
830.43	1744.87
830.60	1697.77
830.77	1779.68
830.94	1689.57
831.11	1712.10
831.28	1685.48
831.46	1775.59
831.63	1632.23
831.80	1775.59
831.97	1636.33
832.14	1607.66
832.31	1759.21
832.48	1679.33
832.65	1800.16
832.82	1697.77
832.99	1753.06
833.17	1720.29
833.34	1796.07
833.51	1726.44
833.68	1617.90
833.85	1748.97
834.02	1689.57
834.19	1644.52
834.36	1621.99
834.53	1705.96
834.70	1710.05
834.87	1824.74
835.04	1656.81
835.22	1710.05
835.39	1658.85
835.56	1697.77
835.73	1740.77
835.90	1712.10
836.07	1607.66
836.24	1734.63
836.41	1636.33
836.58	1662.95
836.75	1791.97
836.92	1738.73
837.09	1662.95
837.26	1769.44
837.43	1632.23
837.60	1697.77
837.77	1671.14
837.94	1794.02
838.12	1798.12
838.29	1781.73
838.46	1632.23
838.63	1644.52
838.80	1771.49
838.97	1654.76
839.14	1738.73
839.31	1734.63
839.48	1718.25
839.65	1624.04
839.82	1724.39
839.99	1679.33
840.16	1712.10
840.33	1744.87
840.50	1673.19
840.67	1628.14
840.84	1628.14
841.01	1720.29
841.18	1667.05
841.35	1683.43
841.52	1779.68
841.69	1755.11
841.86	1761.25
842.03	1669.09
842.20	1748.97
842.37	1728.49
842.54	1716.20
842.71	1697.77
842.88	1648.61
843.05	1724.39
843.22	1746.92
843.39	1687.53
843.56	1636.33
843.73	1652.71
843.90	1738.73
844.07	1703.91
844.24	1808.36
844.41	1724.39
844.58	1730.53
844.75	1660.90
844.92	1794.02
845.09	1648.61
845.26	1660.90
845.43	1730.53
845.60	1675.24
845.77	1744.87
845.94	1720.29
846.10	1746.92
846.27	1642.47
846.44	1660.90
846.61	1601.51
846.78	1720.29
846.95	1775.59
847.12	1599.46
847.29	1642.47
847.46	1617.90
847.63	1751.01
847.80	1644.52
847.97	1691.62
848.14	1865.70
848.31	1703.91
848.48	1636.33
848.65	1710.05
848.82	1693.67
848.98	1804.26
849.15	1765.35
849.32	1744.87
849.49	1693.67
849.66	1718.25
849.83	1644.52
850.00	1581.03
850.17	1669.09
850.34	1712.10
850.51	1681.38
850.68	1691.62
850.85	1812.45
851.01	1644.52
851.18	1755.11
851.35	1587.18
851.52	1718.25
851.69	1804.26
851.86	1642.47
852.03	1691.62
852.20	1767.40
852.37	1701.86
852.53	1591.27
852.70	1691.62
852.87	1697.77
853.04	1765.35
853.21	1753.06
853.38	1724.39
853.55	1785.83
853.72	1761.25
853.89	1619.94
854.05	1701.86
854.22	1673.19
854.39	1603.56
854.56	1710.05
854.73	1783.78
854.90	1699.81
855.07	1667.05
855.23	1685.48
855.40	1644.52
855.57	1621.99
855.74	1634.28
855.91	1839.08
856.08	1665.00
856.25	1646.57
856.41	1675.24
856.58	1689.57
856.75	1716.20
856.92	1624.04
857.09	1638.38
857.26	1624.04
857.42	1632.23
857.59	1763.30
857.76	1693.67
857.93	1759.21
858.10	1705.96
858.27	1679.33
858.43	1667.05
858.60	1671.14
858.77	1605.61
858.94	1648.61
859.11	1714.15
859.27	1712.10
859.44	1714.15
859.61	1828.84
859.78	1787.88
859.95	1728.49
860.12	1617.90
860.28	1791.97
860.45	1755.11
860.62	1630.18
860.79	1767.40
860.95	1665.00
861.12	1634.28
861.29	1689.57
861.46	1669.09
861.63	1718.25
861.79	1726.44
861.96	1646.57
862.13	1648.61
862.30	1804.26
862.47	1595.37
862.63	1710.05
862.80	1701.86
862.97	1746.92
863.14	1660.90
863.30	1751.01
863.47	1597.42
863.64	1714.15
863.81	1722.34
863.97	1662.95
864.14	1697.77
864.31	1693.67
864.48	1816.55
864.65	1597.42
864.81	1730.53
864.98	1675.24
865.15	1734.63
865.32	1761.25
865.48	1681.38
865.65	1705.96
865.82	1603.56
865.98	1800.16
866.15	1826.79
866.32	1714.15
866.49	1744.87
866.65	1781.73
866.82	1738.73
866.99	1724.39
867.16	1660.90
867.32	1650.66
867.49	1716.20
867.66	1693.67
867.83	1691.62
867.99	1599.46
868.16	1658.85
868.33	1710.05
868.49	1681.38
868.66	1640.42
868.83	1708.01
868.99	1716.20
869.16	1722.34
869.33	1787.88
869.50	1701.86
869.66	1767.40
869.83	1697.77
870.00	1546.22
870.16	1728.49
870.33	1679.33
870.50	1802.21
870.66	1777.64
870.83	1851.36
871.00	1689.57
871.17	1708.01
871.33	1751.01
871.50	1718.25
871.67	1683.43
871.83	1703.91
872.00	1771.49
872.17	1665.00
872.33	1820.64
872.50	1826.79
872.67	1691.62
872.83	1654.76
873.00	1693.67
873.17	1714.15
873.33	1802.21
873.50	1773.54
873.67	1691.62
873.83	1728.49
874.00	1716.20
874.16	1802.21
874.33	1693.67
874.50	1734.63
874.66	1763.30
874.83	1744.87
875.00	1808.36
875.16	1734.63
875.33	1705.96
875.50	1617.90
875.66	1607.66
875.83	1699.81
875.99	1775.59
876.16	1689.57
876.33	1667.05
876.49	1638.38
876.66	1742.82
876.83	1789.92
876.99	1603.56
877.16	1726.44
877.32	1718.25
877.49	1726.44
877.66	1720.29
877.82	1691.62
877.99	1722.34
878.15	1785.83
878.32	1740.77
878.49	1679.33
878.65	1689.57
878.82	1697.77
878.98	1630.18
879.15	1720.29
879.32	1693.67
879.48	1744.87
879.65	1701.86
879.81	1691.62
879.98	1716.20
880.15	1705.96
880.31	1699.81
880.48	1687.53
880.64	1720.29
880.81	1724.39
880.97	1728.49
881.14	1699.81
881.31	1634.28
881.47	1773.54
881.64	1648.61
881.80	1656.81
881.97	1720.29
882.13	1779.68
882.30	1701.86
882.47	1671.14
882.63	1607.66
882.80	1673.19
882.96	1675.24
883.13	1802.21
883.29	1691.62
883.46	1781.73
883.62	1759.21
883.79	1638.38
883.95	1779.68
884.12	1667.05
884.29	1839.08
884.45	1658.85
884.62	1738.73
884.78	1669.09
884.95	1834.98
885.11	1626.09
885.28	1662.95
885.44	1742.82
885.61	1740.77
885.77	1791.97
885.94	1773.54
886.10	1654.76
886.27	1703.91
886.43	1781.73
886.60	1767.40
886.76	1572.84
886.93	1722.34
887.09	1738.73
887.26	1552.36
887.42	1738.73
887.59	1746.92
887.75	1849.32
887.92	1800.16
888.08	1789.92
888.25	1785.83
888.41	1681.38
888.58	1769.44
888.74	1626.09
888.91	1669.09
>>>>>End Processed Spectral Data<<<<<
