SpectraSuite Data File
++++++++++++++++++++++++++++++++++++
Date: Mon Jun 06 14:36:17 CEST 2016
User: root
Dark Spectrum Present: No
Reference Spectrum Present: No
Number of Sampled Component Spectra: 1
Spectrometers: USB4C02835
Integration Time (usec): 100000 (USB4C02835)
Spectra Averaged: 1 (USB4C02835)
Boxcar Smoothing: 0 (USB4C02835)
Correct for Electrical Dark: No (USB4C02835)
Strobe/Lamp Enabled: No (USB4C02835)
Correct for Detector Non-linearity: No (USB4C02835)
Correct for Stray Light: No (USB4C02835)
Number of Pixels in Processed Spectrum: 3648
>>>>>Begin Processed Spectral Data<<<<<
177.47	1480.68
177.69	1480.68
177.91	1480.68
178.13	1480.68
178.36	1490.92
178.58	1660.90
178.80	1697.77
179.02	1568.74
179.24	1652.71
179.46	1714.15
179.68	1738.73
179.90	1763.30
180.13	1640.42
180.35	1742.82
180.57	1791.97
180.79	1734.63
181.01	1732.58
181.23	1753.06
181.45	1742.82
181.67	1671.14
181.90	1738.73
182.12	1646.57
182.34	1587.18
182.56	1687.53
182.78	1701.86
183.00	1687.53
183.22	1697.77
183.44	1587.18
183.66	1830.88
183.89	1824.74
184.11	1673.19
184.33	1703.91
184.55	1759.21
184.77	1755.11
184.99	1746.92
185.21	1667.05
185.43	1849.32
185.65	1646.57
185.87	1697.77
186.10	1773.54
186.32	1824.74
186.54	1751.01
186.76	1767.40
186.98	1800.16
187.20	1687.53
187.42	1687.53
187.64	1658.85
187.86	1716.20
188.08	1767.40
188.30	1677.29
188.52	1732.58
188.75	1722.34
188.97	1765.35
189.19	1642.47
189.41	1632.23
189.63	1705.96
189.85	1581.03
190.07	1640.42
190.29	1615.85
190.51	1746.92
190.73	1726.44
190.95	1734.63
191.17	1697.77
191.39	1595.37
191.61	1718.25
191.84	1630.18
192.06	1673.19
192.28	1615.85
192.50	1912.80
192.72	1722.34
192.94	1697.77
193.16	1738.73
193.38	1746.92
193.60	1650.66
193.82	1679.33
194.04	1783.78
194.26	1767.40
194.48	1648.61
194.70	1572.84
194.92	1613.80
195.14	1718.25
195.36	1722.34
195.58	1783.78
195.80	1697.77
196.02	1685.48
196.24	1708.01
196.46	1683.43
196.69	1636.33
196.91	1843.17
197.13	1757.16
197.35	1691.62
197.57	1796.07
197.79	1755.11
198.01	1693.67
198.23	1695.72
198.45	1796.07
198.67	1708.01
198.89	1677.29
199.11	1691.62
199.33	1617.90
199.55	1550.31
199.77	1640.42
199.99	1703.91
200.21	1650.66
200.43	1705.96
200.65	1624.04
200.87	1605.61
201.09	1705.96
201.31	1748.97
201.53	1714.15
201.75	1755.11
201.97	1681.38
202.19	1775.59
202.41	1740.77
202.63	1783.78
202.85	1675.24
203.07	1693.67
203.29	1650.66
203.51	1642.47
203.73	1642.47
203.95	1914.85
204.17	1673.19
204.39	1640.42
204.61	1699.81
204.83	1734.63
205.05	1744.87
205.27	1722.34
205.49	1779.68
205.71	1665.00
205.93	1607.66
206.15	1708.01
206.37	1671.14
206.59	1689.57
206.81	1607.66
207.03	1619.94
207.25	1652.71
207.47	1736.68
207.69	1705.96
207.91	1785.83
208.13	1746.92
208.34	1667.05
208.56	1660.90
208.78	1755.11
209.00	1761.25
209.22	1640.42
209.44	1685.48
209.66	1646.57
209.88	1638.38
210.10	1665.00
210.32	1677.29
210.54	1822.69
210.76	1642.47
210.98	1781.73
211.20	1624.04
211.42	1726.44
211.64	1755.11
211.86	1759.21
212.08	1775.59
212.30	1757.16
212.52	1705.96
212.74	1681.38
212.96	1751.01
213.17	1796.07
213.39	1738.73
213.61	1763.30
213.83	1726.44
214.05	1593.32
214.27	1779.68
214.49	1675.24
214.71	1681.38
214.93	1812.45
215.15	1656.81
215.37	1746.92
215.59	1628.14
215.81	1697.77
216.03	1763.30
216.24	1705.96
216.46	1673.19
216.68	1685.48
216.90	1773.54
217.12	1738.73
217.34	1722.34
217.56	1751.01
217.78	1757.16
218.00	1744.87
218.22	1681.38
218.44	1718.25
218.66	1730.53
218.87	1869.80
219.09	1691.62
219.31	1791.97
219.53	1738.73
219.75	1626.09
219.97	1665.00
220.19	1691.62
220.41	1716.20
220.63	1712.10
220.85	1798.12
221.06	1675.24
221.28	1724.39
221.50	1742.82
221.72	1728.49
221.94	1714.15
222.16	1712.10
222.38	1837.03
222.60	1773.54
222.82	1634.28
223.03	1705.96
223.25	1683.43
223.47	1802.21
223.69	1787.88
223.91	1726.44
224.13	1738.73
224.35	1742.82
224.57	1703.91
224.78	1691.62
225.00	1640.42
225.22	1689.57
225.44	1730.53
225.66	1794.02
225.88	1654.76
226.10	1746.92
226.32	1710.05
226.53	1822.69
226.75	1675.24
226.97	1722.34
227.19	1771.49
227.41	1677.29
227.63	1689.57
227.85	1607.66
228.06	1685.48
228.28	1611.75
228.50	1802.21
228.72	1615.85
228.94	1601.51
229.16	1568.74
229.37	1681.38
229.59	1695.72
229.81	1802.21
230.03	1699.81
230.25	1613.80
230.47	1681.38
230.69	1585.13
230.90	1691.62
231.12	1650.66
231.34	1669.09
231.56	1794.02
231.78	1660.90
232.00	1697.77
232.21	1693.67
232.43	1681.38
232.65	1591.27
232.87	1726.44
233.09	1658.85
233.30	1755.11
233.52	1691.62
233.74	1755.11
233.96	1662.95
234.18	1730.53
234.40	1654.76
234.61	1851.36
234.83	1585.13
235.05	1595.37
235.27	1755.11
235.49	1798.12
235.70	1693.67
235.92	1771.49
236.14	1738.73
236.36	1816.55
236.58	1568.74
236.79	1794.02
237.01	1730.53
237.23	1683.43
237.45	1814.50
237.67	1636.33
237.88	1699.81
238.10	1812.45
238.32	1628.14
238.54	1667.05
238.76	1683.43
238.97	1669.09
239.19	1748.97
239.41	1699.81
239.63	1777.64
239.85	1656.81
240.06	1726.44
240.28	1658.85
240.50	1734.63
240.72	1726.44
240.93	1658.85
241.15	1744.87
241.37	1687.53
241.59	1755.11
241.81	1714.15
242.02	1697.77
242.24	1718.25
242.46	1673.19
242.68	1648.61
242.89	1722.34
243.11	1789.92
243.33	1703.91
243.55	1703.91
243.76	1757.16
243.98	1630.18
244.20	1738.73
244.42	1755.11
244.64	1701.86
244.85	1677.29
245.07	1677.29
245.29	1763.30
245.51	1652.71
245.72	1703.91
245.94	1736.68
246.16	1675.24
246.38	1845.22
246.59	1679.33
246.81	1640.42
247.03	1685.48
247.24	1546.22
247.46	1724.39
247.68	1677.29
247.90	1626.09
248.11	1673.19
248.33	1720.29
248.55	1726.44
248.77	1660.90
248.98	1705.96
249.20	1802.21
249.42	1695.72
249.64	1675.24
249.85	1662.95
250.07	1697.77
250.29	1714.15
250.50	1722.34
250.72	1634.28
250.94	1695.72
251.16	1834.98
251.37	1755.11
251.59	1722.34
251.81	1789.92
252.02	1806.31
252.24	1671.14
252.46	1785.83
252.68	1636.33
252.89	1695.72
253.11	1595.37
253.33	1867.75
253.54	1783.78
253.76	1626.09
253.98	1652.71
254.20	1718.25
254.41	1583.08
254.63	1722.34
254.85	1642.47
255.06	1761.25
255.28	1626.09
255.50	1638.38
255.71	1671.14
255.93	1660.90
256.15	1665.00
256.36	1730.53
256.58	1689.57
256.80	1667.05
257.02	1638.38
257.23	1732.58
257.45	1691.62
257.67	1742.82
257.88	1681.38
258.10	1689.57
258.32	1726.44
258.53	1734.63
258.75	1767.40
258.97	1701.86
259.18	1673.19
259.40	1697.77
259.62	1826.79
259.83	1771.49
260.05	1744.87
260.27	1959.91
260.48	1761.25
260.70	1632.23
260.92	1656.81
261.13	1685.48
261.35	1681.38
261.57	1789.92
261.78	1525.74
262.00	1671.14
262.22	1787.88
262.43	1689.57
262.65	1740.77
262.86	1658.85
263.08	1880.04
263.30	1681.38
263.51	1667.05
263.73	1765.35
263.95	1761.25
264.16	1648.61
264.38	1681.38
264.60	1718.25
264.81	1724.39
265.03	1671.14
265.25	1751.01
265.46	1716.20
265.68	1775.59
265.89	1732.58
266.11	1648.61
266.33	1781.73
266.54	1722.34
266.76	1708.01
266.98	1773.54
267.19	1783.78
267.41	1722.34
267.62	1677.29
267.84	1705.96
268.06	1689.57
268.27	1691.62
268.49	1794.02
268.70	1748.97
268.92	1611.75
269.14	1685.48
269.35	1621.99
269.57	1656.81
269.79	1783.78
270.00	1646.57
270.22	1855.46
270.43	1718.25
270.65	1585.13
270.87	1716.20
271.08	1703.91
271.30	1708.01
271.51	1662.95
271.73	1693.67
271.95	1761.25
272.16	1789.92
272.38	1730.53
272.59	1697.77
272.81	1738.73
273.02	1759.21
273.24	1708.01
273.46	1736.68
273.67	1605.61
273.89	1730.53
274.10	1685.48
274.32	1808.36
274.54	1716.20
274.75	1679.33
274.97	1613.80
275.18	1796.07
275.40	1693.67
275.61	1705.96
275.83	1646.57
276.05	1591.27
276.26	1718.25
276.48	1644.52
276.69	1724.39
276.91	1689.57
277.12	1755.11
277.34	1814.50
277.55	1773.54
277.77	1712.10
277.99	1681.38
278.20	1613.80
278.42	1691.62
278.63	1658.85
278.85	1691.62
279.06	1609.70
279.28	1685.48
279.49	1779.68
279.71	1714.15
279.93	1742.82
280.14	1691.62
280.36	1681.38
280.57	1677.29
280.79	1689.57
281.00	1685.48
281.22	1722.34
281.43	1828.84
281.65	1570.79
281.86	1615.85
282.08	1746.92
282.29	1859.56
282.51	1621.99
282.73	1656.81
282.94	1558.50
283.16	1765.35
283.37	1771.49
283.59	1634.28
283.80	1728.49
284.02	1658.85
284.23	1716.20
284.45	1654.76
284.66	1691.62
284.88	1681.38
285.09	1738.73
285.31	1761.25
285.52	1753.06
285.74	1667.05
285.95	1771.49
286.17	1765.35
286.38	1691.62
286.60	1662.95
286.81	1683.43
287.03	1703.91
287.24	1718.25
287.46	1730.53
287.67	1701.86
287.89	1822.69
288.10	1697.77
288.32	1716.20
288.53	1681.38
288.75	1636.33
288.96	1728.49
289.18	1650.66
289.39	1751.01
289.61	1669.09
289.82	1744.87
290.04	1748.97
290.25	1581.03
290.47	1667.05
290.68	1806.31
290.90	1718.25
291.11	1650.66
291.33	1742.82
291.54	1685.48
291.76	1689.57
291.97	1718.25
292.18	1685.48
292.40	1714.15
292.61	1675.24
292.83	1820.64
293.04	1708.01
293.26	1662.95
293.47	1687.53
293.69	1644.52
293.90	1687.53
294.12	1808.36
294.33	1699.81
294.55	1701.86
294.76	1767.40
294.97	1751.01
295.19	1789.92
295.40	1746.92
295.62	1724.39
295.83	1718.25
296.05	1652.71
296.26	1832.93
296.48	1609.70
296.69	1642.47
296.90	1689.57
297.12	1683.43
297.33	1804.26
297.55	1675.24
297.76	1708.01
297.98	1710.05
298.19	1722.34
298.41	1667.05
298.62	1730.53
298.83	1775.59
299.05	1683.43
299.26	1714.15
299.48	1695.72
299.69	1732.58
299.90	1662.95
300.12	1714.15
300.33	1783.78
300.55	1710.05
300.76	1728.49
300.98	1679.33
301.19	1687.53
301.40	1630.18
301.62	1703.91
301.83	1746.92
302.05	1755.11
302.26	1660.90
302.47	1712.10
302.69	1681.38
302.90	1710.05
303.12	1562.60
303.33	1681.38
303.54	1812.45
303.76	1642.47
303.97	1683.43
304.19	1769.44
304.40	1636.33
304.61	1740.77
304.83	1808.36
305.04	1656.81
305.26	1806.31
305.47	1697.77
305.68	1681.38
305.90	1693.67
306.11	1705.96
306.33	1691.62
306.54	1652.71
306.75	1634.28
306.97	1578.98
307.18	1685.48
307.39	1644.52
307.61	1820.64
307.82	1685.48
308.04	1697.77
308.25	1634.28
308.46	1716.20
308.68	1759.21
308.89	1738.73
309.10	1757.16
309.32	1705.96
309.53	1701.86
309.74	1748.97
309.96	1718.25
310.17	1691.62
310.39	1669.09
310.60	1689.57
310.81	1650.66
311.03	1658.85
311.24	1787.88
311.45	1640.42
311.67	1845.22
311.88	1734.63
312.09	1775.59
312.31	1656.81
312.52	1693.67
312.73	1634.28
312.95	1566.70
313.16	1697.77
313.37	1810.40
313.59	1818.60
313.80	1787.88
314.01	1726.44
314.23	1703.91
314.44	1599.46
314.65	1648.61
314.87	1710.05
315.08	1714.15
315.29	1646.57
315.51	1701.86
315.72	1650.66
315.93	1861.60
316.15	1724.39
316.36	1660.90
316.57	1791.97
316.79	1787.88
317.00	1669.09
317.21	1726.44
317.43	1667.05
317.64	1767.40
317.85	1648.61
318.07	1660.90
318.28	1683.43
318.49	1826.79
318.70	1914.85
318.92	1832.93
319.13	1755.11
319.34	1857.51
319.56	1775.59
319.77	1775.59
319.98	1748.97
320.20	1822.69
320.41	1748.97
320.62	1765.35
320.83	1583.08
321.05	1781.73
321.26	1751.01
321.47	1720.29
321.69	1783.78
321.90	1578.98
322.11	1646.57
322.32	1671.14
322.54	1732.58
322.75	1673.19
322.96	1820.64
323.18	1540.07
323.39	1615.85
323.60	1615.85
323.81	1720.29
324.03	1673.19
324.24	1718.25
324.45	1636.33
324.66	1681.38
324.88	1806.31
325.09	1736.68
325.30	1683.43
325.52	1667.05
325.73	1691.62
325.94	1675.24
326.15	1695.72
326.37	1675.24
326.58	1779.68
326.79	1857.51
327.00	1587.18
327.22	1695.72
327.43	1650.66
327.64	1632.23
327.85	1767.40
328.07	1806.31
328.28	1763.30
328.49	1708.01
328.70	1669.09
328.92	1667.05
329.13	1634.28
329.34	1755.11
329.55	1748.97
329.76	1787.88
329.98	1742.82
330.19	1773.54
330.40	1746.92
330.61	1714.15
330.83	1705.96
331.04	1714.15
331.25	1687.53
331.46	1658.85
331.68	1673.19
331.89	1718.25
332.10	1685.48
332.31	1650.66
332.52	1689.57
332.74	1763.30
332.95	1636.33
333.16	1601.51
333.37	1763.30
333.58	1753.06
333.80	1697.77
334.01	1601.51
334.22	1642.47
334.43	1652.71
334.64	1640.42
334.86	1609.70
335.07	1675.24
335.28	1845.22
335.49	1611.75
335.70	1791.97
335.92	1701.86
336.13	1804.26
336.34	1761.25
336.55	1665.00
336.76	1703.91
336.98	1628.14
337.19	1681.38
337.40	1789.92
337.61	1869.80
337.82	1665.00
338.04	1773.54
338.25	1660.90
338.46	1687.53
338.67	1728.49
338.88	1636.33
339.09	1687.53
339.31	1632.23
339.52	1591.27
339.73	1722.34
339.94	1824.74
340.15	1804.26
340.36	1687.53
340.58	1677.29
340.79	1689.57
341.00	1755.11
341.21	1665.00
341.42	1783.78
341.63	1628.14
341.85	1736.68
342.06	1746.92
342.27	1615.85
342.48	1816.55
342.69	1636.33
342.90	1753.06
343.12	1722.34
343.33	1701.86
343.54	1757.16
343.75	1845.22
343.96	1701.86
344.17	1652.71
344.38	1640.42
344.60	1648.61
344.81	1693.67
345.02	1652.71
345.23	1785.83
345.44	1703.91
345.65	1751.01
345.86	1656.81
346.07	1726.44
346.29	1673.19
346.50	1759.21
346.71	1798.12
346.92	1769.44
347.13	1861.60
347.34	1669.09
347.55	1742.82
347.76	1708.01
347.98	1572.84
348.19	1714.15
348.40	1712.10
348.61	1695.72
348.82	1697.77
349.03	1736.68
349.24	1652.71
349.45	1796.07
349.66	1568.74
349.88	1648.61
350.09	1693.67
350.30	1806.31
350.51	1808.36
350.72	1726.44
350.93	1826.79
351.14	1673.19
351.35	1685.48
351.56	1753.06
351.77	1742.82
351.99	1751.01
352.20	1794.02
352.41	1796.07
352.62	1607.66
352.83	1753.06
353.04	1714.15
353.25	1673.19
353.46	1744.87
353.67	1812.45
353.88	1626.09
354.09	1703.91
354.30	1726.44
354.52	1732.58
354.73	1691.62
354.94	1665.00
355.15	1767.40
355.36	1822.69
355.57	1718.25
355.78	1703.91
355.99	1656.81
356.20	1621.99
356.41	1746.92
356.62	1781.73
356.83	1734.63
357.04	1771.49
357.25	1644.52
357.46	1701.86
357.68	1648.61
357.89	1667.05
358.10	1689.57
358.31	1679.33
358.52	1714.15
358.73	1669.09
358.94	1740.77
359.15	1652.71
359.36	1783.78
359.57	1671.14
359.78	1705.96
359.99	1724.39
360.20	1560.55
360.41	1603.56
360.62	1701.86
360.83	1630.18
361.04	1689.57
361.25	1697.77
361.46	1802.21
361.67	1783.78
361.88	1734.63
362.09	1742.82
362.30	1771.49
362.51	1599.46
362.72	1628.14
362.93	1814.50
363.14	1734.63
363.35	1703.91
363.56	1671.14
363.78	1863.65
363.99	1740.77
364.20	1669.09
364.41	1753.06
364.62	1777.64
364.83	1712.10
365.04	1701.86
365.25	1708.01
365.46	1777.64
365.67	1595.37
365.88	1656.81
366.09	1677.29
366.30	1726.44
366.51	1724.39
366.72	1509.35
366.93	1667.05
367.14	1724.39
367.35	1740.77
367.56	1757.16
367.77	1777.64
367.98	1732.58
368.18	1687.53
368.39	1673.19
368.60	1644.52
368.81	1724.39
369.02	1671.14
369.23	1638.38
369.44	1648.61
369.65	1705.96
369.86	1718.25
370.07	1751.01
370.28	1681.38
370.49	1658.85
370.70	1781.73
370.91	1665.00
371.12	1638.38
371.33	1685.48
371.54	1665.00
371.75	1814.50
371.96	1671.14
372.17	1697.77
372.38	1683.43
372.59	1656.81
372.80	1636.33
373.01	1695.72
373.22	1669.09
373.43	1679.33
373.64	1587.18
373.85	1789.92
374.06	1871.84
374.26	1718.25
374.47	1734.63
374.68	1767.40
374.89	1746.92
375.10	1697.77
375.31	1748.97
375.52	1757.16
375.73	1751.01
375.94	1662.95
376.15	1789.92
376.36	1665.00
376.57	1734.63
376.78	1654.76
376.99	1748.97
377.20	1753.06
377.40	1652.71
377.61	1837.03
377.82	1646.57
378.03	1798.12
378.24	1781.73
378.45	1662.95
378.66	1701.86
378.87	1660.90
379.08	1615.85
379.29	1728.49
379.50	1748.97
379.71	1681.38
379.91	1759.21
380.12	1650.66
380.33	1673.19
380.54	1677.29
380.75	1660.90
380.96	1710.05
381.17	1832.93
381.38	1697.77
381.59	1787.88
381.80	1722.34
382.00	1816.55
382.21	1716.20
382.42	1794.02
382.63	1957.86
382.84	1656.81
383.05	1734.63
383.26	1746.92
383.47	1701.86
383.68	1767.40
383.88	1677.29
384.09	1724.39
384.30	1775.59
384.51	1701.86
384.72	1697.77
384.93	1650.66
385.14	1628.14
385.35	1763.30
385.55	1593.32
385.76	1832.93
385.97	1677.29
386.18	1656.81
386.39	1681.38
386.60	1646.57
386.81	1775.59
387.02	1621.99
387.22	1650.66
387.43	1744.87
387.64	1761.25
387.85	1914.85
388.06	2191.33
388.27	4132.80
388.48	6862.74
388.68	8462.21
388.89	9699.18
389.10	10026.86
389.31	8548.22
389.52	7552.91
389.73	6838.17
389.93	6188.96
390.14	5980.07
390.35	5142.45
390.56	4528.06
390.77	3766.21
390.98	3067.86
391.18	2553.82
391.39	2170.85
391.60	1773.54
391.81	1822.69
392.02	1681.38
392.23	1791.97
392.43	1712.10
392.64	1748.97
392.85	1703.91
393.06	1847.27
393.27	1734.63
393.47	1646.57
393.68	1765.35
393.89	1662.95
394.10	1695.72
394.31	1699.81
394.52	1662.95
394.72	1705.96
394.93	1777.64
395.14	1656.81
395.35	1755.11
395.56	1683.43
395.76	1804.26
395.97	1722.34
396.18	1820.64
396.39	1814.50
396.60	2035.68
396.80	1918.95
397.01	1820.64
397.22	1755.11
397.43	1845.22
397.64	1689.57
397.84	1841.12
398.05	1886.18
398.26	1708.01
398.47	1818.60
398.67	1818.60
398.88	1683.43
399.09	1775.59
399.30	1710.05
399.51	1742.82
399.71	1638.38
399.92	1714.15
400.13	1673.19
400.34	1712.10
400.54	1677.29
400.75	1732.58
400.96	1697.77
401.17	1779.68
401.37	1757.16
401.58	1658.85
401.79	1714.15
402.00	1785.83
402.21	1953.76
402.41	1894.37
402.62	2009.06
402.83	2097.12
403.04	1918.95
403.24	2074.59
403.45	1837.03
403.66	1920.99
403.87	1865.70
404.07	1863.65
404.28	1914.85
404.49	1785.83
404.70	1830.88
404.90	1785.83
405.11	1804.26
405.32	1748.97
405.52	1650.66
405.73	1652.71
405.94	1687.53
406.15	1755.11
406.35	1726.44
406.56	1730.53
406.77	1712.10
406.98	1759.21
407.18	1660.90
407.39	1773.54
407.60	1740.77
407.80	1665.00
408.01	1687.53
408.22	1693.67
408.43	1691.62
408.63	1804.26
408.84	1705.96
409.05	1796.07
409.25	1628.14
409.46	1611.75
409.67	1759.21
409.88	1689.57
410.08	1683.43
410.29	1662.95
410.50	1789.92
410.70	1742.82
410.91	1673.19
411.12	1724.39
411.32	1699.81
411.53	1648.61
411.74	1800.16
411.95	1763.30
412.15	1710.05
412.36	1751.01
412.57	1746.92
412.77	1751.01
412.98	1697.77
413.19	1712.10
413.39	1693.67
413.60	1705.96
413.81	1742.82
414.01	1683.43
414.22	1744.87
414.43	1781.73
414.63	1718.25
414.84	1734.63
415.05	1687.53
415.25	1632.23
415.46	1726.44
415.67	1669.09
415.87	1763.30
416.08	1759.21
416.29	1644.52
416.49	1703.91
416.70	1648.61
416.91	1712.10
417.11	1730.53
417.32	1675.24
417.53	1712.10
417.73	1648.61
417.94	1724.39
418.15	1796.07
418.35	1716.20
418.56	1726.44
418.77	1843.17
418.97	1710.05
419.18	1662.95
419.38	1568.74
419.59	1656.81
419.80	1742.82
420.00	1718.25
420.21	1734.63
420.42	1830.88
420.62	1658.85
420.83	1695.72
421.04	1757.16
421.24	1697.77
421.45	1771.49
421.65	1775.59
421.86	1695.72
422.07	1773.54
422.27	1726.44
422.48	1705.96
422.69	1677.29
422.89	1658.85
423.10	1751.01
423.30	1644.52
423.51	1722.34
423.72	1742.82
423.92	1804.26
424.13	1701.86
424.33	1656.81
424.54	1740.77
424.75	1759.21
424.95	1728.49
425.16	1665.00
425.36	1689.57
425.57	1675.24
425.78	1742.82
425.98	1765.35
426.19	1679.33
426.39	1714.15
426.60	1728.49
426.81	1791.97
427.01	1779.68
427.22	1634.28
427.42	1685.48
427.63	1697.77
427.83	1746.92
428.04	1755.11
428.25	1712.10
428.45	1789.92
428.66	1710.05
428.86	1697.77
429.07	1681.38
429.28	1718.25
429.48	1693.67
429.69	1658.85
429.89	1800.16
430.10	1626.09
430.30	1779.68
430.51	1753.06
430.71	1673.19
430.92	1773.54
431.13	1701.86
431.33	1724.39
431.54	1742.82
431.74	1773.54
431.95	1791.97
432.15	1648.61
432.36	1636.33
432.56	1796.07
432.77	1794.02
432.98	1804.26
433.18	1675.24
433.39	1726.44
433.59	1689.57
433.80	1832.93
434.00	1861.60
434.21	1673.19
434.41	1615.85
434.62	1806.31
434.82	1712.10
435.03	1665.00
435.23	1806.31
435.44	1650.66
435.64	1812.45
435.85	1722.34
436.06	1771.49
436.26	1744.87
436.47	1681.38
436.67	1667.05
436.88	1695.72
437.08	1748.97
437.29	1757.16
437.49	1724.39
437.70	1785.83
437.90	1699.81
438.11	1837.03
438.31	1785.83
438.52	1896.42
438.72	1837.03
438.93	1939.43
439.13	1802.21
439.34	1863.65
439.54	1769.44
439.75	1742.82
439.95	1828.84
440.16	1650.66
440.36	1773.54
440.57	1761.25
440.77	1777.64
440.98	1720.29
441.18	1796.07
441.39	1652.71
441.59	1648.61
441.80	1828.84
442.00	1687.53
442.21	1832.93
442.41	1636.33
442.62	1816.55
442.82	1720.29
443.02	1736.68
443.23	1712.10
443.43	1691.62
443.64	1902.56
443.84	1675.24
444.05	1798.12
444.25	1685.48
444.46	1732.58
444.66	1755.11
444.87	1802.21
445.07	1640.42
445.28	1765.35
445.48	1794.02
445.69	1789.92
445.89	1900.52
446.09	1714.15
446.30	2033.63
446.50	2600.92
446.71	3807.17
446.91	4255.68
447.12	4638.65
447.32	4861.88
447.53	4339.65
447.73	3829.70
447.93	3624.90
448.14	3239.89
448.34	3344.33
448.55	2932.69
448.75	2863.06
448.96	2754.52
449.16	2451.42
449.36	2256.86
449.57	2060.26
449.77	1855.46
449.98	1824.74
450.18	1880.04
450.39	1808.36
450.59	1714.15
450.79	1738.73
451.00	1685.48
451.20	1783.78
451.41	1656.81
451.61	1804.26
451.81	1716.20
452.02	1660.90
452.22	1652.71
452.43	1769.44
452.63	1648.61
452.84	1722.34
453.04	1724.39
453.24	1787.88
453.45	1730.53
453.65	1701.86
453.86	1742.82
454.06	1791.97
454.26	1804.26
454.47	1703.91
454.67	1779.68
454.87	1755.11
455.08	1703.91
455.28	1894.37
455.49	1740.77
455.69	1708.01
455.89	1837.03
456.10	1800.16
456.30	1714.15
456.51	1726.44
456.71	1699.81
456.91	1724.39
457.12	1734.63
457.32	1705.96
457.52	1705.96
457.73	1736.68
457.93	1806.31
458.14	1644.52
458.34	1708.01
458.54	1738.73
458.75	1681.38
458.95	1763.30
459.15	1740.77
459.36	1722.34
459.56	1832.93
459.76	1808.36
459.97	1691.62
460.17	1751.01
460.37	1775.59
460.58	1771.49
460.78	1787.88
460.99	1701.86
461.19	1701.86
461.39	1738.73
461.60	1787.88
461.80	1710.05
462.00	1712.10
462.21	1714.15
462.41	1693.67
462.61	1648.61
462.82	1638.38
463.02	1761.25
463.22	1771.49
463.43	1771.49
463.63	1748.97
463.83	1761.25
464.04	1712.10
464.24	1693.67
464.44	1736.68
464.64	1765.35
464.85	1718.25
465.05	1763.30
465.25	1710.05
465.46	1681.38
465.66	1830.88
465.86	1802.21
466.07	1703.91
466.27	1673.19
466.47	1644.52
466.68	1646.57
466.88	1746.92
467.08	1757.16
467.29	1800.16
467.49	1669.09
467.69	1722.34
467.89	1738.73
468.10	1660.90
468.30	1800.16
468.50	1689.57
468.71	1718.25
468.91	1718.25
469.11	1769.44
469.31	1746.92
469.52	1714.15
469.72	1794.02
469.92	1839.08
470.13	1708.01
470.33	1810.40
470.53	1816.55
470.73	2009.06
470.94	2287.58
471.14	2256.86
471.34	2508.76
471.54	2314.20
471.75	2220.00
471.95	2174.94
472.15	2039.78
472.36	2146.27
472.56	2136.03
472.76	2033.63
472.96	2019.30
473.17	1939.43
473.37	1851.36
473.57	1812.45
473.77	1849.32
473.98	1820.64
474.18	1708.01
474.38	1845.22
474.58	1665.00
474.79	1701.86
474.99	1689.57
475.19	1738.73
475.39	1617.90
475.60	1720.29
475.80	1796.07
476.00	1693.67
476.20	1787.88
476.41	1804.26
476.61	1808.36
476.81	1746.92
477.01	1730.53
477.21	1880.04
477.42	1769.44
477.62	1624.04
477.82	1853.41
478.02	1722.34
478.23	1763.30
478.43	1671.14
478.63	1751.01
478.83	1695.72
479.03	1716.20
479.24	1773.54
479.44	1742.82
479.64	1726.44
479.84	1632.23
480.04	1665.00
480.25	1767.40
480.45	1701.86
480.65	1728.49
480.85	1804.26
481.06	1658.85
481.26	1708.01
481.46	1734.63
481.66	1818.60
481.86	1671.14
482.06	1794.02
482.27	1726.44
482.47	1708.01
482.67	1759.21
482.87	1800.16
483.07	1746.92
483.28	1675.24
483.48	1624.04
483.68	1751.01
483.88	1611.75
484.08	1636.33
484.29	1673.19
484.49	1705.96
484.69	1691.62
484.89	1746.92
485.09	1728.49
485.29	1767.40
485.50	1791.97
485.70	1652.71
485.90	1832.93
486.10	1701.86
486.30	1742.82
486.50	1857.51
486.71	1753.06
486.91	1753.06
487.11	1753.06
487.31	1640.42
487.51	1751.01
487.71	1705.96
487.91	1701.86
488.12	1615.85
488.32	1613.80
488.52	1599.46
488.72	1650.66
488.92	1656.81
489.12	1755.11
489.32	1740.77
489.53	1746.92
489.73	1630.18
489.93	1751.01
490.13	1726.44
490.33	1609.70
490.53	1816.55
490.73	1841.12
490.94	1601.51
491.14	1722.34
491.34	1857.51
491.54	2150.37
491.74	2549.72
491.94	2893.78
492.14	3078.10
492.34	3035.09
492.54	2781.14
492.75	2529.24
492.95	2379.74
493.15	2332.64
493.35	2306.01
493.55	2260.96
493.75	2195.42
493.95	2185.18
494.15	2011.11
494.35	1953.76
494.56	1871.84
494.76	1849.32
494.96	1818.60
495.16	1832.93
495.36	1738.73
495.56	1732.58
495.76	1738.73
495.96	1665.00
496.16	1632.23
496.36	1830.88
496.56	1648.61
496.77	1789.92
496.97	1728.49
497.17	1736.68
497.37	1679.33
497.57	1708.01
497.77	1722.34
497.97	1621.99
498.17	1658.85
498.37	1785.83
498.57	1738.73
498.77	1771.49
498.97	1738.73
499.17	1812.45
499.38	1781.73
499.58	1744.87
499.78	1722.34
499.98	1796.07
500.18	1769.44
500.38	1765.35
500.58	1978.34
500.78	2506.71
500.98	4591.55
501.18	5787.56
501.38	6678.43
501.58	7190.42
501.78	6786.97
501.98	5406.64
502.18	4976.56
502.38	4304.83
502.58	4175.81
502.78	3819.46
502.98	3747.78
503.18	3485.64
503.38	3131.34
503.59	2953.17
503.79	2729.94
503.99	2463.71
504.19	2230.24
504.39	2189.28
504.59	2129.89
504.79	2103.26
504.99	2066.40
505.19	1896.42
505.39	1916.90
505.59	2013.15
505.79	1861.60
505.99	1929.19
506.19	1748.97
506.39	1867.75
506.59	1728.49
506.79	1773.54
506.99	1779.68
507.19	1708.01
507.39	1761.25
507.59	1722.34
507.79	1738.73
507.99	1716.20
508.19	1759.21
508.39	1667.05
508.59	1732.58
508.79	1828.84
508.99	1845.22
509.19	1720.29
509.39	1744.87
509.59	1708.01
509.79	1761.25
509.99	1794.02
510.19	1779.68
510.39	1781.73
510.59	1748.97
510.79	1710.05
510.99	1697.77
511.19	1828.84
511.39	1949.67
511.59	1781.73
511.79	1753.06
511.99	1740.77
512.19	1861.60
512.38	1744.87
512.58	1699.81
512.78	1708.01
512.98	1804.26
513.18	1826.79
513.38	1671.14
513.58	1785.83
513.78	1730.53
513.98	1697.77
514.18	1759.21
514.38	1773.54
514.58	1763.30
514.78	1685.48
514.98	1710.05
515.18	1691.62
515.38	1632.23
515.58	1845.22
515.78	1740.77
515.98	1665.00
516.18	1800.16
516.38	1746.92
516.57	1714.15
516.77	1730.53
516.97	1779.68
517.17	1714.15
517.37	1689.57
517.57	1798.12
517.77	1742.82
517.97	1640.42
518.17	1755.11
518.37	1751.01
518.57	1693.67
518.77	1710.05
518.97	1722.34
519.16	1718.25
519.36	1808.36
519.56	1722.34
519.76	1740.77
519.96	1755.11
520.16	1689.57
520.36	1705.96
520.56	1751.01
520.76	1665.00
520.96	1732.58
521.16	1763.30
521.35	1783.78
521.55	1839.08
521.75	1656.81
521.95	1634.28
522.15	1728.49
522.35	1642.47
522.55	1710.05
522.75	1767.40
522.95	1677.29
523.14	1701.86
523.34	1738.73
523.54	1626.09
523.74	1728.49
523.94	1787.88
524.14	1654.76
524.34	1763.30
524.54	1777.64
524.73	1665.00
524.93	1800.16
525.13	1714.15
525.33	1656.81
525.53	1886.18
525.73	1789.92
525.93	1705.96
526.13	1761.25
526.32	1722.34
526.52	1746.92
526.72	1767.40
526.92	1720.29
527.12	1761.25
527.32	1656.81
527.52	1773.54
527.71	1732.58
527.91	1701.86
528.11	1617.90
528.31	1742.82
528.51	1626.09
528.71	1761.25
528.90	1738.73
529.10	1738.73
529.30	1861.60
529.50	1587.18
529.70	1708.01
529.90	1753.06
530.09	1716.20
530.29	1683.43
530.49	1708.01
530.69	1824.74
530.89	1699.81
531.09	1734.63
531.28	1724.39
531.48	1798.12
531.68	1789.92
531.88	1736.68
532.08	1851.36
532.28	1671.14
532.47	1783.78
532.67	1714.15
532.87	1802.21
533.07	1660.90
533.27	1724.39
533.46	1753.06
533.66	1804.26
533.86	1787.88
534.06	1703.91
534.26	1791.97
534.45	1791.97
534.65	1751.01
534.85	1714.15
535.05	1740.77
535.25	1769.44
535.44	1705.96
535.64	1810.40
535.84	1699.81
536.04	1697.77
536.24	1744.87
536.43	1652.71
536.63	1765.35
536.83	1708.01
537.03	1748.97
537.22	1568.74
537.42	1640.42
537.62	1775.59
537.82	1730.53
538.02	1740.77
538.21	1812.45
538.41	1890.28
538.61	1785.83
538.81	1714.15
539.00	1779.68
539.20	1667.05
539.40	1677.29
539.60	1800.16
539.79	1794.02
539.99	1710.05
540.19	1718.25
540.39	1742.82
540.58	1843.17
540.78	1746.92
540.98	1734.63
541.18	1765.35
541.37	1785.83
541.57	1718.25
541.77	1824.74
541.97	1665.00
542.16	1675.24
542.36	1746.92
542.56	1757.16
542.76	1927.14
542.95	1675.24
543.15	1763.30
543.35	1826.79
543.54	1710.05
543.74	1636.33
543.94	1787.88
544.14	1738.73
544.33	1746.92
544.53	1714.15
544.73	1738.73
544.93	1632.23
545.12	1781.73
545.32	1697.77
545.52	1769.44
545.71	1634.28
545.91	1718.25
546.11	1757.16
546.30	1703.91
546.50	1656.81
546.70	1755.11
546.90	1724.39
547.09	1648.61
547.29	1773.54
547.49	1714.15
547.68	1693.67
547.88	1701.86
548.08	1808.36
548.27	2232.29
548.47	1710.05
548.67	1755.11
548.87	1763.30
549.06	1671.14
549.26	1796.07
549.46	1763.30
549.65	1730.53
549.85	1726.44
550.05	1753.06
550.24	1691.62
550.44	1726.44
550.64	1722.34
550.83	1705.96
551.03	1767.40
551.23	1783.78
551.42	1775.59
551.62	1689.57
551.82	1791.97
552.01	1791.97
552.21	1773.54
552.41	1693.67
552.60	1791.97
552.80	1755.11
553.00	1693.67
553.19	1777.64
553.39	1845.22
553.59	1691.62
553.78	1724.39
553.98	1714.15
554.17	1671.14
554.37	1769.44
554.57	1828.84
554.76	1673.19
554.96	1683.43
555.16	1791.97
555.35	1665.00
555.55	1759.21
555.75	1763.30
555.94	1794.02
556.14	1636.33
556.33	1763.30
556.53	1662.95
556.73	1701.86
556.92	1798.12
557.12	1775.59
557.32	1830.88
557.51	1789.92
557.71	1718.25
557.90	1869.80
558.10	1808.36
558.30	1757.16
558.49	1716.20
558.69	1669.09
558.88	1779.68
559.08	1724.39
559.28	1677.29
559.47	1665.00
559.67	1837.03
559.86	1894.37
560.06	1824.74
560.26	1771.49
560.45	1816.55
560.65	1665.00
560.84	1785.83
561.04	1708.01
561.24	1716.20
561.43	1673.19
561.63	1869.80
561.82	1722.34
562.02	1734.63
562.22	1755.11
562.41	1621.99
562.61	1761.25
562.80	1654.76
563.00	1935.33
563.19	1701.86
563.39	1771.49
563.59	1753.06
563.78	1773.54
563.98	1708.01
564.17	1732.58
564.37	1720.29
564.56	1714.15
564.76	1673.19
564.96	1800.16
565.15	1734.63
565.35	1865.70
565.54	1703.91
565.74	1820.64
565.93	1736.68
566.13	1734.63
566.32	1804.26
566.52	1697.77
566.71	1759.21
566.91	1771.49
567.11	1675.24
567.30	1740.77
567.50	1775.59
567.69	1738.73
567.89	1712.10
568.08	1738.73
568.28	1705.96
568.47	1681.38
568.67	1656.81
568.86	1710.05
569.06	1777.64
569.25	1746.92
569.45	1736.68
569.64	1673.19
569.84	1681.38
570.04	1724.39
570.23	1710.05
570.43	1634.28
570.62	1724.39
570.82	1851.36
571.01	1624.04
571.21	1712.10
571.40	1740.77
571.60	1734.63
571.79	1705.96
571.99	1794.02
572.18	1628.14
572.38	1677.29
572.57	1611.75
572.77	1873.89
572.96	1904.61
573.16	1742.82
573.35	1718.25
573.55	1830.88
573.74	1687.53
573.94	1837.03
574.13	1716.20
574.33	1773.54
574.52	1783.78
574.71	1660.90
574.91	1814.50
575.10	1755.11
575.30	1753.06
575.49	1683.43
575.69	1630.18
575.88	1783.78
576.08	1697.77
576.27	1810.40
576.47	1751.01
576.66	1902.56
576.86	1787.88
577.05	1746.92
577.25	1773.54
577.44	1796.07
577.64	1658.85
577.83	1726.44
578.02	1669.09
578.22	1802.21
578.41	1781.73
578.61	1794.02
578.80	1712.10
579.00	1781.73
579.19	1667.05
579.39	1730.53
579.58	1818.60
579.77	1832.93
579.97	1724.39
580.16	1845.22
580.36	1865.70
580.55	1863.65
580.75	1744.87
580.94	1794.02
581.13	1857.51
581.33	1861.60
581.52	1748.97
581.72	1869.80
581.91	1861.60
582.11	1728.49
582.30	1826.79
582.49	1748.97
582.69	1763.30
582.88	1796.07
583.08	1746.92
583.27	1826.79
583.47	1755.11
583.66	1667.05
583.85	1718.25
584.05	1697.77
584.24	1816.55
584.44	1763.30
584.63	1796.07
584.82	1781.73
585.02	1849.32
585.21	1877.99
585.41	1871.84
585.60	1804.26
585.79	1900.52
585.99	1871.84
586.18	1855.46
586.37	2140.13
586.57	3434.44
586.76	9906.02
586.96	24467.08
587.15	34674.16
587.34	40639.89
587.54	42405.24
587.73	36681.17
587.93	26588.78
588.12	21718.71
588.31	18339.56
588.51	16240.39
588.70	15298.33
588.89	14194.47
589.09	12750.65
589.28	11050.84
589.47	9428.85
589.67	7989.13
589.86	6322.08
590.06	4995.00
590.25	3989.44
590.44	3151.82
590.64	2562.01
590.83	2332.64
591.02	2095.07
591.22	2041.82
591.41	1945.57
591.60	1812.45
591.80	1939.43
591.99	1759.21
592.18	1730.53
592.38	1906.66
592.57	1755.11
592.76	1738.73
592.96	1810.40
593.15	1761.25
593.34	1855.46
593.54	1763.30
593.73	1849.32
593.92	1765.35
594.12	1740.77
594.31	1810.40
594.50	1818.60
594.70	1705.96
594.89	1888.23
595.08	1703.91
595.28	1775.59
595.47	1882.08
595.66	1830.88
595.86	1730.53
596.05	1718.25
596.24	1732.58
596.43	1779.68
596.63	1837.03
596.82	1853.41
597.01	1759.21
597.21	1867.75
597.40	1773.54
597.59	1783.78
597.79	1701.86
597.98	1751.01
598.17	1703.91
598.36	1787.88
598.56	1798.12
598.75	1705.96
598.94	1759.21
599.14	1689.57
599.33	1716.20
599.52	1802.21
599.71	1798.12
599.91	1800.16
600.10	1740.77
600.29	1759.21
600.48	1736.68
600.68	1746.92
600.87	1761.25
601.06	1652.71
601.26	1740.77
601.45	1779.68
601.64	1683.43
601.83	1804.26
602.03	1791.97
602.22	1697.77
602.41	1746.92
602.60	1800.16
602.80	1742.82
602.99	1744.87
603.18	1726.44
603.37	1841.12
603.57	1705.96
603.76	1851.36
603.95	1771.49
604.14	1658.85
604.34	1699.81
604.53	1751.01
604.72	1751.01
604.91	1767.40
605.10	1738.73
605.30	1654.76
605.49	1830.88
605.68	1720.29
605.87	1796.07
606.07	1665.00
606.26	1740.77
606.45	1796.07
606.64	1724.39
606.84	1755.11
607.03	1722.34
607.22	1712.10
607.41	1732.58
607.60	1636.33
607.80	1716.20
607.99	1732.58
608.18	1724.39
608.37	1742.82
608.56	1708.01
608.76	1857.51
608.95	1894.37
609.14	1665.00
609.33	1769.44
609.52	1775.59
609.72	1671.14
609.91	1787.88
610.10	1738.73
610.29	1871.84
610.48	1804.26
610.68	1816.55
610.87	1769.44
611.06	1767.40
611.25	1671.14
611.44	1843.17
611.63	1703.91
611.83	1769.44
612.02	1689.57
612.21	1802.21
612.40	1636.33
612.59	1646.57
612.79	1671.14
612.98	1699.81
613.17	1812.45
613.36	1703.91
613.55	1789.92
613.74	1716.20
613.93	1751.01
614.13	1738.73
614.32	1689.57
614.51	1738.73
614.70	1669.09
614.89	1720.29
615.08	1724.39
615.28	2099.17
615.47	1728.49
615.66	1683.43
615.85	1734.63
616.04	1806.31
616.23	1632.23
616.42	1693.67
616.62	1736.68
616.81	1740.77
617.00	1740.77
617.19	1763.30
617.38	1726.44
617.57	1744.87
617.76	1771.49
617.95	1732.58
618.15	1742.82
618.34	1867.75
618.53	1601.51
618.72	1796.07
618.91	1800.16
619.10	1830.88
619.29	1675.24
619.48	1732.58
619.68	1675.24
619.87	1712.10
620.06	1650.66
620.25	1726.44
620.44	1714.15
620.63	1689.57
620.82	1679.33
621.01	1708.01
621.20	1730.53
621.39	1787.88
621.59	1755.11
621.78	1693.67
621.97	1785.83
622.16	1781.73
622.35	1685.48
622.54	1843.17
622.73	1748.97
622.92	1615.85
623.11	1828.84
623.30	1728.49
623.49	1755.11
623.68	1714.15
623.88	1761.25
624.07	1740.77
624.26	1638.38
624.45	1791.97
624.64	1685.48
624.83	1791.97
625.02	1654.76
625.21	1765.35
625.40	1785.83
625.59	1787.88
625.78	1783.78
625.97	1787.88
626.16	1710.05
626.35	1720.29
626.54	1683.43
626.74	1822.69
626.93	1705.96
627.12	1744.87
627.31	1794.02
627.50	1783.78
627.69	1789.92
627.88	1732.58
628.07	1726.44
628.26	1648.61
628.45	1615.85
628.64	1662.95
628.83	1779.68
629.02	1695.72
629.21	1734.63
629.40	1757.16
629.59	1671.14
629.78	1720.29
629.97	1703.91
630.16	1722.34
630.35	1667.05
630.54	1718.25
630.73	1726.44
630.92	1722.34
631.11	1714.15
631.30	1742.82
631.49	1806.31
631.68	1736.68
631.87	1746.92
632.06	1601.51
632.25	1814.50
632.44	1755.11
632.63	1667.05
632.82	1730.53
633.01	1603.56
633.20	1681.38
633.39	1662.95
633.58	1632.23
633.77	1773.54
633.96	1708.01
634.15	1783.78
634.34	1699.81
634.53	1759.21
634.72	1648.61
634.91	1638.38
635.10	1716.20
635.29	1730.53
635.48	1753.06
635.67	1652.71
635.86	1603.56
636.05	1783.78
636.24	1763.30
636.43	1697.77
636.62	1744.87
636.81	1689.57
637.00	1759.21
637.19	1695.72
637.38	1767.40
637.57	1705.96
637.76	1652.71
637.95	1687.53
638.14	1675.24
638.33	1683.43
638.52	1691.62
638.71	1695.72
638.89	1628.14
639.08	1800.16
639.27	1773.54
639.46	1630.18
639.65	1832.93
639.84	1759.21
640.03	1738.73
640.22	1730.53
640.41	1808.36
640.60	1703.91
640.79	1683.43
640.98	1722.34
641.17	1820.64
641.36	1712.10
641.55	1681.38
641.74	1593.32
641.92	1673.19
642.11	1650.66
642.30	1714.15
642.49	1613.80
642.68	1705.96
642.87	1767.40
643.06	1705.96
643.25	1687.53
643.44	1705.96
643.63	1660.90
643.82	1753.06
644.00	1726.44
644.19	1691.62
644.38	1636.33
644.57	1736.68
644.76	1761.25
644.95	1734.63
645.14	1724.39
645.33	1779.68
645.52	1789.92
645.71	1685.48
645.89	1632.23
646.08	1716.20
646.27	1595.37
646.46	1857.51
646.65	1642.47
646.84	1763.30
647.03	1665.00
647.22	1753.06
647.40	1712.10
647.59	1765.35
647.78	1587.18
647.97	1658.85
648.16	1642.47
648.35	1710.05
648.54	1806.31
648.73	1703.91
648.91	1800.16
649.10	1751.01
649.29	1697.77
649.48	1691.62
649.67	1722.34
649.86	1644.52
650.05	1695.72
650.23	1789.92
650.42	1667.05
650.61	1800.16
650.80	1730.53
650.99	1837.03
651.18	1718.25
651.36	1816.55
651.55	1701.86
651.74	1748.97
651.93	1695.72
652.12	1734.63
652.31	1699.81
652.49	1710.05
652.68	1695.72
652.87	1802.21
653.06	1806.31
653.25	1794.02
653.44	1763.30
653.62	1791.97
653.81	1769.44
654.00	1779.68
654.19	1732.58
654.38	1843.17
654.56	1751.01
654.75	1638.38
654.94	1744.87
655.13	1708.01
655.32	1720.29
655.51	1763.30
655.69	1621.99
655.88	1757.16
656.07	1630.18
656.26	1703.91
656.45	1673.19
656.63	1740.77
656.82	1646.57
657.01	1755.11
657.20	1701.86
657.38	1744.87
657.57	1660.90
657.76	1560.55
657.95	1732.58
658.14	1628.14
658.32	1673.19
658.51	1646.57
658.70	1843.17
658.89	1728.49
659.08	1630.18
659.26	1742.82
659.45	1683.43
659.64	1695.72
659.83	1769.44
660.01	1877.99
660.20	1718.25
660.39	1814.50
660.58	1583.08
660.76	1697.77
660.95	1550.31
661.14	1714.15
661.33	1691.62
661.51	1742.82
661.70	1804.26
661.89	1669.09
662.08	1773.54
662.26	1675.24
662.45	1632.23
662.64	1826.79
662.83	1796.07
663.01	1613.80
663.20	1665.00
663.39	1841.12
663.58	1681.38
663.76	1673.19
663.95	1779.68
664.14	1697.77
664.32	1710.05
664.51	1658.85
664.70	1601.51
664.89	1718.25
665.07	1691.62
665.26	1757.16
665.45	1693.67
665.64	1812.45
665.82	1650.66
666.01	1810.40
666.20	1644.52
666.38	1746.92
666.57	1777.64
666.76	2217.95
666.95	4378.56
667.13	10354.53
667.32	15460.12
667.51	18046.70
667.69	19068.64
667.88	17901.29
668.07	12531.52
668.25	9521.01
668.44	8085.38
668.63	7276.43
668.81	6815.64
669.00	6205.35
669.19	5789.61
669.38	5054.39
669.56	4714.42
669.75	3907.52
669.94	3375.05
670.12	2959.31
670.31	2631.64
670.50	2256.86
670.68	2062.30
670.87	1925.09
671.06	1796.07
671.24	1777.64
671.43	1804.26
671.62	1763.30
671.80	1697.77
671.99	1718.25
672.18	1830.88
672.36	1765.35
672.55	1671.14
672.74	1787.88
672.92	1708.01
673.11	1763.30
673.29	1628.14
673.48	1785.83
673.67	1656.81
673.85	1800.16
674.04	1658.85
674.23	1738.73
674.41	1798.12
674.60	1683.43
674.79	1697.77
674.97	1642.47
675.16	1791.97
675.34	1724.39
675.53	1675.24
675.72	1724.39
675.90	1845.22
676.09	1660.90
676.28	1726.44
676.46	1595.37
676.65	1710.05
676.83	1660.90
677.02	1710.05
677.21	1759.21
677.39	1822.69
677.58	1605.61
677.77	1789.92
677.95	1708.01
678.14	1710.05
678.32	1705.96
678.51	1687.53
678.70	1804.26
678.88	1689.57
679.07	1714.15
679.25	1708.01
679.44	1697.77
679.63	1609.70
679.81	1740.77
680.00	1746.92
680.18	1720.29
680.37	1826.79
680.55	1697.77
680.74	1689.57
680.93	1634.28
681.11	1755.11
681.30	1714.15
681.48	1734.63
681.67	1675.24
681.85	1662.95
682.04	1660.90
682.23	1708.01
682.41	1658.85
682.60	1718.25
682.78	1679.33
682.97	1691.62
683.15	1716.20
683.34	1669.09
683.53	1763.30
683.71	1673.19
683.90	1787.88
684.08	1761.25
684.27	1675.24
684.45	1705.96
684.64	1824.74
684.82	1714.15
685.01	1751.01
685.19	1658.85
685.38	1804.26
685.57	1644.52
685.75	1689.57
685.94	1699.81
686.12	1660.90
686.31	1683.43
686.49	1779.68
686.68	1681.38
686.86	1757.16
687.05	1703.91
687.23	1763.30
687.42	1681.38
687.60	1658.85
687.79	1705.96
687.97	1802.21
688.16	1763.30
688.34	1822.69
688.53	1636.33
688.71	1687.53
688.90	1783.78
689.08	1685.48
689.27	1601.51
689.45	1738.73
689.64	1730.53
689.82	1751.01
690.01	1642.47
690.19	1734.63
690.38	1734.63
690.56	1789.92
690.75	1724.39
690.93	1699.81
691.12	1693.67
691.30	1693.67
691.49	1699.81
691.67	1695.72
691.86	1787.88
692.04	1648.61
692.23	1644.52
692.41	1681.38
692.60	1902.56
692.78	1716.20
692.97	1646.57
693.15	1732.58
693.34	1830.88
693.52	1726.44
693.71	1673.19
693.89	1728.49
694.08	1585.13
694.26	1769.44
694.44	1718.25
694.63	1652.71
694.81	1611.75
695.00	1720.29
695.18	1757.16
695.37	1841.12
695.55	1613.80
695.74	1681.38
695.92	1615.85
696.10	1820.64
696.29	1652.71
696.47	1744.87
696.66	1646.57
696.84	1665.00
697.03	1724.39
697.21	1826.79
697.40	2273.25
697.58	1796.07
697.76	1667.05
697.95	1699.81
698.13	1679.33
698.32	1712.10
698.50	1695.72
698.68	1705.96
698.87	1665.00
699.05	1712.10
699.24	1695.72
699.42	1650.66
699.61	1650.66
699.79	1669.09
699.97	1714.15
700.16	1630.18
700.34	1630.18
700.53	1781.73
700.71	1726.44
700.89	1794.02
701.08	1669.09
701.26	1699.81
701.45	2176.99
701.63	1728.49
701.81	1687.53
702.00	1648.61
702.18	1679.33
702.37	1665.00
702.55	1767.40
702.73	1689.57
702.92	1685.48
703.10	1738.73
703.28	1738.73
703.47	1607.66
703.65	1720.29
703.84	1804.26
704.02	1648.61
704.20	1779.68
704.39	1736.68
704.57	1722.34
704.75	1791.97
704.94	1773.54
705.12	1742.82
705.30	1734.63
705.49	2185.18
705.67	4302.78
705.86	9391.98
706.04	12640.06
706.22	14370.60
706.41	15390.49
706.59	13948.72
706.77	9746.28
706.96	7395.22
707.14	6606.75
707.32	5975.97
707.51	5625.77
707.69	4958.13
707.87	4290.49
708.06	3598.28
708.24	3035.09
708.42	2422.75
708.61	2222.05
708.79	1892.32
708.97	1865.70
709.16	1828.84
709.34	1822.69
709.52	1748.97
709.71	1677.29
709.89	1822.69
710.07	1656.81
710.26	1667.05
710.44	1730.53
710.62	1822.69
710.80	1669.09
710.99	1777.64
711.17	1818.60
711.35	1650.66
711.54	1634.28
711.72	1755.11
711.90	1763.30
712.09	1757.16
712.27	1722.34
712.45	1730.53
712.63	1699.81
712.82	1744.87
713.00	1695.72
713.18	1703.91
713.37	1787.88
713.55	1736.68
713.73	1628.14
713.91	1767.40
714.10	1714.15
714.28	1660.90
714.46	1705.96
714.65	1652.71
714.83	1691.62
715.01	1705.96
715.19	1726.44
715.38	1650.66
715.56	1738.73
715.74	1695.72
715.92	1658.85
716.11	1824.74
716.29	1570.79
716.47	1763.30
716.65	1675.24
716.84	1601.51
717.02	1722.34
717.20	1662.95
717.38	1697.77
717.57	1791.97
717.75	1783.78
717.93	1746.92
718.11	1748.97
718.30	1628.14
718.48	1650.66
718.66	1736.68
718.84	1765.35
719.03	1658.85
719.21	1591.27
719.39	1689.57
719.57	1718.25
719.75	1751.01
719.94	1634.28
720.12	1603.56
720.30	1720.29
720.48	1763.30
720.67	1681.38
720.85	1640.42
721.03	1687.53
721.21	1687.53
721.39	1765.35
721.58	1716.20
721.76	1660.90
721.94	1724.39
722.12	1728.49
722.30	1806.31
722.49	1603.56
722.67	1689.57
722.85	1683.43
723.03	1669.09
723.21	1632.23
723.40	1640.42
723.58	1716.20
723.76	1667.05
723.94	1759.21
724.12	1783.78
724.30	1763.30
724.49	1712.10
724.67	1722.34
724.85	1800.16
725.03	1566.70
725.21	1748.97
725.40	1781.73
725.58	1677.29
725.76	1710.05
725.94	1779.68
726.12	1630.18
726.30	1691.62
726.49	1644.52
726.67	1689.57
726.85	1636.33
727.03	1837.03
727.21	2140.13
727.39	2832.34
727.57	3745.73
727.76	4241.34
727.94	4458.43
728.12	4390.84
728.30	3887.04
728.48	2949.08
728.66	2721.75
728.84	2598.87
729.03	2281.44
729.21	2201.57
729.39	1951.71
729.57	1845.22
729.75	1837.03
729.93	1822.69
730.11	1732.58
730.30	1689.57
730.48	1646.57
730.66	1724.39
730.84	1761.25
731.02	1693.67
731.20	1703.91
731.38	1783.78
731.56	1699.81
731.74	1617.90
731.93	1730.53
732.11	1695.72
732.29	1632.23
732.47	1695.72
732.65	1714.15
732.83	1791.97
733.01	1687.53
733.19	1617.90
733.37	1724.39
733.56	1767.40
733.74	1648.61
733.92	1775.59
734.10	1630.18
734.28	1773.54
734.46	1624.04
734.64	1697.77
734.82	1691.62
735.00	1605.61
735.18	1642.47
735.36	1583.08
735.54	1636.33
735.73	1681.38
735.91	1742.82
736.09	1681.38
736.27	1619.94
736.45	1796.07
736.63	1628.14
736.81	1669.09
736.99	1710.05
737.17	1767.40
737.35	1683.43
737.53	1726.44
737.71	1679.33
737.89	1794.02
738.07	1691.62
738.25	1558.50
738.43	1611.75
738.61	1660.90
738.80	1648.61
738.98	1656.81
739.16	1656.81
739.34	1712.10
739.52	1806.31
739.70	1683.43
739.88	1718.25
740.06	1796.07
740.24	1603.56
740.42	1775.59
740.60	1583.08
740.78	1656.81
740.96	1609.70
741.14	1683.43
741.32	1667.05
741.50	1683.43
741.68	1781.73
741.86	1765.35
742.04	1642.47
742.22	1626.09
742.40	1671.14
742.58	1724.39
742.76	1628.14
742.94	1746.92
743.12	1615.85
743.30	1687.53
743.48	1697.77
743.66	1648.61
743.84	1767.40
744.02	1708.01
744.20	1736.68
744.38	1605.61
744.56	1722.34
744.74	1810.40
744.92	1656.81
745.10	1794.02
745.28	1703.91
745.46	1785.83
745.64	1679.33
745.82	1759.21
746.00	1751.01
746.18	1658.85
746.36	1744.87
746.54	1746.92
746.72	1705.96
746.90	1611.75
747.08	1755.11
747.26	1669.09
747.44	1757.16
747.62	1746.92
747.80	1673.19
747.98	1791.97
748.15	1646.57
748.33	1753.06
748.51	1728.49
748.69	1738.73
748.87	1632.23
749.05	1636.33
749.23	1648.61
749.41	1705.96
749.59	1689.57
749.77	1705.96
749.95	1644.52
750.13	1642.47
750.31	1695.72
750.49	1658.85
750.67	1759.21
750.85	1732.58
751.03	1705.96
751.20	1828.84
751.38	1710.05
751.56	1740.77
751.74	1816.55
751.92	1814.50
752.10	1718.25
752.28	1753.06
752.46	1591.27
752.64	1734.63
752.82	1673.19
753.00	1777.64
753.18	1683.43
753.35	1701.86
753.53	1640.42
753.71	1681.38
753.89	1763.30
754.07	1691.62
754.25	1779.68
754.43	1748.97
754.61	1646.57
754.79	1689.57
754.97	1607.66
755.14	1763.30
755.32	1685.48
755.50	1773.54
755.68	1712.10
755.86	1705.96
756.04	1683.43
756.22	1646.57
756.40	1714.15
756.57	1837.03
756.75	1738.73
756.93	1839.08
757.11	1757.16
757.29	1624.04
757.47	1640.42
757.65	1660.90
757.82	1540.07
758.00	1675.24
758.18	1714.15
758.36	1634.28
758.54	1736.68
758.72	1570.79
758.90	1685.48
759.07	1769.44
759.25	1689.57
759.43	1679.33
759.61	1705.96
759.79	2246.62
759.97	1748.97
760.15	1630.18
760.32	1751.01
760.50	1730.53
760.68	1753.06
760.86	1613.80
761.04	1824.74
761.22	1701.86
761.39	1720.29
761.57	1730.53
761.75	1685.48
761.93	1697.77
762.11	1634.28
762.28	1724.39
762.46	1617.90
762.64	1755.11
762.82	1572.84
763.00	1603.56
763.18	1798.12
763.35	1572.84
763.53	1697.77
763.71	1732.58
763.89	1736.68
764.07	1683.43
764.24	1699.81
764.42	1656.81
764.60	1718.25
764.78	1693.67
764.96	1785.83
765.13	1681.38
765.31	1699.81
765.49	1722.34
765.67	1601.51
765.84	1695.72
766.02	1613.80
766.20	1626.09
766.38	1734.63
766.56	1724.39
766.73	1822.69
766.91	1722.34
767.09	1679.33
767.27	1669.09
767.44	1669.09
767.62	1722.34
767.80	1787.88
767.98	1656.81
768.15	1767.40
768.33	1771.49
768.51	1667.05
768.69	1751.01
768.87	1693.67
769.04	1765.35
769.22	1812.45
769.40	1798.12
769.58	1867.75
769.75	1726.44
769.93	1724.39
770.11	1681.38
770.28	1728.49
770.46	1759.21
770.64	1681.38
770.82	1708.01
770.99	1718.25
771.17	1730.53
771.35	1689.57
771.53	1751.01
771.70	1685.48
771.88	1730.53
772.06	1640.42
772.23	1677.29
772.41	1773.54
772.59	1607.66
772.77	1599.46
772.94	1695.72
773.12	1710.05
773.30	1728.49
773.47	1714.15
773.65	1689.57
773.83	1775.59
774.01	1677.29
774.18	1619.94
774.36	1697.77
774.54	1662.95
774.71	1714.15
774.89	1587.18
775.07	1646.57
775.24	1656.81
775.42	1626.09
775.60	1734.63
775.78	1691.62
775.95	1673.19
776.13	1574.89
776.31	1636.33
776.48	1679.33
776.66	1714.15
776.84	1681.38
777.01	1667.05
777.19	1662.95
777.37	1648.61
777.54	1710.05
777.72	1787.88
777.90	1712.10
778.07	1675.24
778.25	1976.29
778.43	1726.44
778.60	1681.38
778.78	1771.49
778.96	1759.21
779.13	1581.03
779.31	1804.26
779.49	1730.53
779.66	1746.92
779.84	1732.58
780.01	1652.71
780.19	1607.66
780.37	1824.74
780.54	1695.72
780.72	1658.85
780.90	1761.25
781.07	1736.68
781.25	1656.81
781.43	1748.97
781.60	1660.90
781.78	1783.78
781.95	1726.44
782.13	1630.18
782.31	1763.30
782.48	1607.66
782.66	1728.49
782.83	1769.44
783.01	1767.40
783.19	1699.81
783.36	1662.95
783.54	1576.94
783.72	1765.35
783.89	1691.62
784.07	1703.91
784.24	1755.11
784.42	1765.35
784.60	1685.48
784.77	1761.25
784.95	1574.89
785.12	1662.95
785.30	1675.24
785.47	1624.04
785.65	1578.98
785.83	1687.53
786.00	1761.25
786.18	1722.34
786.35	1652.71
786.53	1697.77
786.71	1742.82
786.88	1740.77
787.06	1724.39
787.23	1783.78
787.41	1648.61
787.58	1632.23
787.76	1665.00
787.94	1660.90
788.11	1701.86
788.29	1636.33
788.46	1693.67
788.64	1597.42
788.81	1738.73
788.99	1660.90
789.16	1673.19
789.34	1638.38
789.52	1609.70
789.69	1589.22
789.87	1578.98
790.04	1609.70
790.22	1615.85
790.39	1775.59
790.57	1669.09
790.74	1665.00
790.92	1691.62
791.09	1630.18
791.27	1681.38
791.44	1738.73
791.62	1720.29
791.79	1742.82
791.97	1632.23
792.15	1900.52
792.32	1705.96
792.50	1761.25
792.67	1771.49
792.85	1742.82
793.02	1648.61
793.20	1689.57
793.37	1669.09
793.55	1689.57
793.72	1621.99
793.90	1708.01
794.07	1626.09
794.25	1609.70
794.42	1683.43
794.60	1699.81
794.77	1771.49
794.95	1683.43
795.12	1791.97
795.30	1710.05
795.47	1673.19
795.65	1859.56
795.82	1677.29
796.00	1626.09
796.17	1693.67
796.34	1689.57
796.52	1818.60
796.69	1742.82
796.87	1685.48
797.04	1730.53
797.22	1691.62
797.39	1718.25
797.57	1751.01
797.74	1841.12
797.92	1691.62
798.09	1720.29
798.27	1712.10
798.44	1720.29
798.62	1701.86
798.79	1691.62
798.96	1685.48
799.14	1652.71
799.31	1865.70
799.49	1683.43
799.66	1656.81
799.84	1738.73
800.01	1589.22
800.19	1697.77
800.36	1603.56
800.53	1660.90
800.71	1660.90
800.88	1742.82
801.06	1656.81
801.23	1685.48
801.41	1693.67
801.58	1716.20
801.75	1720.29
801.93	1693.67
802.10	1779.68
802.28	1667.05
802.45	1683.43
802.63	1701.86
802.80	1800.16
802.97	1720.29
803.15	1679.33
803.32	1679.33
803.50	1607.66
803.67	1619.94
803.84	1677.29
804.02	1761.25
804.19	1560.55
804.37	1597.42
804.54	1624.04
804.71	1705.96
804.89	1724.39
805.06	1681.38
805.24	1589.22
805.41	1630.18
805.58	1685.48
805.76	1810.40
805.93	1640.42
806.10	1753.06
806.28	1699.81
806.45	1699.81
806.63	1755.11
806.80	1712.10
806.97	1806.31
807.15	1673.19
807.32	1785.83
807.49	1769.44
807.67	1650.66
807.84	1812.45
808.01	1597.42
808.19	1839.08
808.36	1781.73
808.54	1710.05
808.71	1652.71
808.88	1724.39
809.06	1722.34
809.23	1779.68
809.40	1689.57
809.58	1832.93
809.75	1693.67
809.92	1648.61
810.10	1791.97
810.27	1681.38
810.44	1710.05
810.62	1761.25
810.79	1695.72
810.96	1669.09
811.14	1724.39
811.31	1648.61
811.48	1705.96
811.66	1734.63
811.83	1736.68
812.00	1742.82
812.18	1675.24
812.35	1857.51
812.52	1665.00
812.69	1755.11
812.87	1689.57
813.04	1689.57
813.21	1742.82
813.39	1728.49
813.56	1642.47
813.73	1699.81
813.91	1617.90
814.08	1718.25
814.25	1716.20
814.42	1558.50
814.60	1695.72
814.77	1746.92
814.94	1730.53
815.12	1744.87
815.29	1853.41
815.46	1716.20
815.63	1734.63
815.81	1685.48
815.98	1718.25
816.15	1695.72
816.33	1695.72
816.50	1634.28
816.67	1710.05
816.84	1705.96
817.02	1636.33
817.19	1708.01
817.36	1693.67
817.53	1701.86
817.71	1775.59
817.88	1744.87
818.05	1751.01
818.22	1654.76
818.40	1742.82
818.57	1665.00
818.74	1794.02
818.91	1679.33
819.09	1726.44
819.26	1746.92
819.43	1683.43
819.60	1701.86
819.78	1732.58
819.95	1781.73
820.12	1646.57
820.29	1789.92
820.47	1736.68
820.64	1681.38
820.81	1560.55
820.98	1585.13
821.15	1648.61
821.33	1808.36
821.50	1636.33
821.67	1693.67
821.84	1634.28
822.02	1755.11
822.19	1734.63
822.36	1634.28
822.53	1673.19
822.70	1597.42
822.88	1693.67
823.05	1730.53
823.22	1673.19
823.39	1763.30
823.56	1683.43
823.74	1771.49
823.91	1558.50
824.08	1718.25
824.25	1628.14
824.42	1753.06
824.60	1675.24
824.77	1683.43
824.94	1634.28
825.11	1718.25
825.28	1644.52
825.45	1722.34
825.63	1699.81
825.80	1652.71
825.97	1791.97
826.14	1644.52
826.31	1583.08
826.48	1652.71
826.66	1576.94
826.83	1751.01
827.00	1767.40
827.17	1681.38
827.34	1665.00
827.51	1716.20
827.69	1724.39
827.86	1642.47
828.03	1679.33
828.20	1705.96
828.37	1705.96
828.54	1777.64
828.71	1628.14
828.89	1820.64
829.06	1712.10
829.23	1777.64
829.40	1650.66
829.57	1646.57
829.74	1734.63
829.91	1697.77
830.09	1566.70
830.26	1697.77
830.43	1863.65
830.60	1648.61
830.77	1773.54
830.94	1808.36
831.11	1763.30
831.28	1673.19
831.46	1746.92
831.63	1650.66
831.80	1808.36
831.97	1681.38
832.14	1656.81
832.31	1828.84
832.48	1697.77
832.65	1783.78
832.82	1626.09
832.99	1691.62
833.17	1628.14
833.34	1789.92
833.51	1689.57
833.68	1554.41
833.85	1779.68
834.02	1685.48
834.19	1656.81
834.36	1714.15
834.53	1689.57
834.70	1767.40
834.87	1716.20
835.04	1740.77
835.22	1585.13
835.39	1705.96
835.56	1617.90
835.73	1724.39
835.90	1781.73
836.07	1673.19
836.24	1769.44
836.41	1648.61
836.58	1621.99
836.75	1726.44
836.92	1693.67
837.09	1738.73
837.26	1759.21
837.43	1689.57
837.60	1755.11
837.77	1781.73
837.94	1679.33
838.12	1820.64
838.29	1724.39
838.46	1636.33
838.63	1607.66
838.80	1775.59
838.97	1759.21
839.14	1724.39
839.31	1675.24
839.48	1730.53
839.65	1646.57
839.82	1765.35
839.99	1732.58
840.16	1716.20
840.33	1656.81
840.50	1667.05
840.67	1681.38
840.84	1617.90
841.01	1683.43
841.18	1714.15
841.35	1705.96
841.52	1705.96
841.69	1759.21
841.86	1667.05
842.03	1642.47
842.20	1738.73
842.37	1669.09
842.54	1650.66
842.71	1703.91
842.88	1691.62
843.05	1722.34
843.22	1609.70
843.39	1736.68
843.56	1648.61
843.73	1673.19
843.90	1755.11
844.07	1568.74
844.24	1771.49
844.41	1738.73
844.58	1708.01
844.75	1699.81
844.92	1693.67
845.09	1656.81
845.26	1722.34
845.43	1712.10
845.60	1648.61
845.77	1781.73
845.94	1656.81
846.10	1736.68
846.27	1699.81
846.44	1654.76
846.61	1624.04
846.78	1685.48
846.95	1779.68
847.12	1671.14
847.29	1662.95
847.46	1587.18
847.63	1783.78
847.80	1658.85
847.97	1667.05
848.14	1804.26
848.31	1648.61
848.48	1632.23
848.65	1675.24
848.82	1642.47
848.98	1832.93
849.15	1748.97
849.32	1742.82
849.49	1716.20
849.66	1673.19
849.83	1714.15
850.00	1667.05
850.17	1755.11
850.34	1683.43
850.51	1769.44
850.68	1724.39
850.85	1830.88
851.01	1628.14
851.18	1705.96
851.35	1697.77
851.52	1757.16
851.69	1748.97
851.86	1642.47
852.03	1685.48
852.20	1734.63
852.37	1665.00
852.53	1675.24
852.70	1662.95
852.87	1771.49
853.04	1703.91
853.21	1701.86
853.38	1753.06
853.55	1679.33
853.72	1826.79
853.89	1648.61
854.05	1656.81
854.22	1689.57
854.39	1697.77
854.56	1671.14
854.73	1720.29
854.90	1570.79
855.07	1714.15
855.23	1658.85
855.40	1730.53
855.57	1648.61
855.74	1529.83
855.91	1834.98
856.08	1708.01
856.25	1564.65
856.41	1759.21
856.58	1652.71
856.75	1701.86
856.92	1732.58
857.09	1781.73
857.26	1646.57
857.42	1695.72
857.59	1732.58
857.76	1619.94
857.93	1742.82
858.10	1744.87
858.27	1681.38
858.43	1800.16
858.60	1693.67
858.77	1552.36
858.94	1734.63
859.11	1763.30
859.27	1667.05
859.44	1689.57
859.61	1845.22
859.78	1718.25
859.95	1656.81
860.12	1599.46
860.28	1800.16
860.45	1855.46
860.62	1628.14
860.79	1669.09
860.95	1587.18
861.12	1687.53
861.29	1662.95
861.46	1644.52
861.63	1628.14
861.79	1740.77
861.96	1611.75
862.13	1667.05
862.30	1769.44
862.47	1640.42
862.63	1669.09
862.80	1734.63
862.97	1845.22
863.14	1708.01
863.30	1675.24
863.47	1675.24
863.64	1748.97
863.81	1697.77
863.97	1701.86
864.14	1820.64
864.31	1708.01
864.48	1697.77
864.65	1755.11
864.81	1757.16
864.98	1730.53
865.15	1738.73
865.32	1724.39
865.48	1734.63
865.65	1771.49
865.82	1583.08
865.98	1673.19
866.15	1791.97
866.32	1718.25
866.49	1675.24
866.65	1757.16
866.82	1628.14
866.99	1691.62
867.16	1652.71
867.32	1683.43
867.49	1673.19
867.66	1697.77
867.83	1769.44
867.99	1529.83
868.16	1701.86
868.33	1603.56
868.49	1708.01
868.66	1646.57
868.83	1685.48
868.99	1716.20
869.16	1691.62
869.33	1839.08
869.50	1759.21
869.66	1644.52
869.83	1638.38
870.00	1587.18
870.16	1648.61
870.33	1712.10
870.50	1822.69
870.66	1665.00
870.83	1861.60
871.00	1738.73
871.17	1677.29
871.33	1736.68
871.50	1660.90
871.67	1748.97
871.83	1638.38
872.00	1789.92
872.17	1726.44
872.33	1736.68
872.50	1710.05
872.67	1630.18
872.83	1681.38
873.00	1718.25
873.17	1685.48
873.33	1716.20
873.50	1783.78
873.67	1693.67
873.83	1619.94
874.00	1691.62
874.16	1728.49
874.33	1677.29
874.50	1595.37
874.66	1757.16
874.83	1724.39
875.00	1722.34
875.16	1773.54
875.33	1781.73
875.50	1640.42
875.66	1601.51
875.83	1734.63
875.99	1699.81
876.16	1654.76
876.33	1658.85
876.49	1679.33
876.66	1748.97
876.83	1724.39
876.99	1673.19
877.16	1587.18
877.32	1640.42
877.49	1681.38
877.66	1740.77
877.82	1705.96
877.99	1716.20
878.15	1767.40
878.32	1648.61
878.49	1722.34
878.65	1669.09
878.82	1837.03
878.98	1744.87
879.15	1738.73
879.32	1740.77
879.48	1652.71
879.65	1716.20
879.81	1628.14
879.98	1646.57
880.15	1656.81
880.31	1708.01
880.48	1685.48
880.64	1746.92
880.81	1794.02
880.97	1787.88
881.14	1710.05
881.31	1669.09
881.47	1847.27
881.64	1699.81
881.80	1626.09
881.97	1673.19
882.13	1720.29
882.30	1689.57
882.47	1687.53
882.63	1632.23
882.80	1656.81
882.96	1599.46
883.13	1718.25
883.29	1619.94
883.46	1755.11
883.62	1779.68
883.79	1665.00
883.95	1734.63
884.12	1677.29
884.29	1744.87
884.45	1732.58
884.62	1718.25
884.78	1658.85
884.95	1712.10
885.11	1578.98
885.28	1697.77
885.44	1689.57
885.61	1705.96
885.77	1710.05
885.94	1615.85
886.10	1656.81
886.27	1703.91
886.43	1744.87
886.60	1810.40
886.76	1759.21
886.93	1673.19
887.09	1748.97
887.26	1560.55
887.42	1583.08
887.59	1738.73
887.75	1841.12
887.92	1728.49
888.08	1769.44
888.25	1847.27
888.41	1714.15
888.58	1716.20
888.74	1681.38
888.91	1634.28
>>>>>End Processed Spectral Data<<<<<
