SpectraSuite Data File
++++++++++++++++++++++++++++++++++++
Date: Mon Jun 06 13:58:57 CEST 2016
User: root
Dark Spectrum Present: No
Reference Spectrum Present: No
Number of Sampled Component Spectra: 1
Spectrometers: USB4C02835
Integration Time (usec): 100000 (USB4C02835)
Spectra Averaged: 1 (USB4C02835)
Boxcar Smoothing: 0 (USB4C02835)
Correct for Electrical Dark: No (USB4C02835)
Strobe/Lamp Enabled: No (USB4C02835)
Correct for Detector Non-linearity: No (USB4C02835)
Correct for Stray Light: No (USB4C02835)
Number of Pixels in Processed Spectrum: 3648
>>>>>Begin Processed Spectral Data<<<<<
177.47	1372.14
177.69	1372.14
177.91	1372.14
178.13	1519.59
178.36	1437.67
178.58	1626.09
178.80	1685.48
179.02	1599.46
179.24	1658.85
179.46	1689.57
179.68	1779.68
179.90	1720.29
180.13	1783.78
180.35	1644.52
180.57	1751.01
180.79	1746.92
181.01	1624.04
181.23	1724.39
181.45	1695.72
181.67	1783.78
181.90	1740.77
182.12	1685.48
182.34	1601.51
182.56	1740.77
182.78	1773.54
183.00	1685.48
183.22	1748.97
183.44	1673.19
183.66	1857.51
183.89	1771.49
184.11	1683.43
184.33	1693.67
184.55	1742.82
184.77	1736.68
184.99	1718.25
185.21	1712.10
185.43	1826.79
185.65	1689.57
185.87	1736.68
186.10	1794.02
186.32	1830.88
186.54	1677.29
186.76	1714.15
186.98	1820.64
187.20	1710.05
187.42	1693.67
187.64	1679.33
187.86	1765.35
188.08	1751.01
188.30	1673.19
188.52	1730.53
188.75	1769.44
188.97	1843.17
189.19	1626.09
189.41	1697.77
189.63	1767.40
189.85	1695.72
190.07	1714.15
190.29	1665.00
190.51	1761.25
190.73	1669.09
190.95	1800.16
191.17	1701.86
191.39	1658.85
191.61	1675.24
191.84	1708.01
192.06	1693.67
192.28	1626.09
192.50	1888.23
192.72	1726.44
192.94	1708.01
193.16	1730.53
193.38	1665.00
193.60	1628.14
193.82	1667.05
194.04	1781.73
194.26	1669.09
194.48	1736.68
194.70	1685.48
194.92	1712.10
195.14	1783.78
195.36	1673.19
195.58	1785.83
195.80	1650.66
196.02	1689.57
196.24	1650.66
196.46	1777.64
196.69	1693.67
196.91	1845.22
197.13	1650.66
197.35	1671.14
197.57	1826.79
197.79	1699.81
198.01	1705.96
198.23	1779.68
198.45	1689.57
198.67	1626.09
198.89	1656.81
199.11	1722.34
199.33	1601.51
199.55	1611.75
199.77	1734.63
199.99	1734.63
200.21	1609.70
200.43	1742.82
200.65	1632.23
200.87	1574.89
201.09	1705.96
201.31	1679.33
201.53	1673.19
201.75	1789.92
201.97	1767.40
202.19	1642.47
202.41	1710.05
202.63	1796.07
202.85	1679.33
203.07	1675.24
203.29	1677.29
203.51	1665.00
203.73	1671.14
203.95	1875.94
204.17	1779.68
204.39	1746.92
204.61	1763.30
204.83	1681.38
205.05	1718.25
205.27	1740.77
205.49	1814.50
205.71	1665.00
205.93	1632.23
206.15	1689.57
206.37	1701.86
206.59	1673.19
206.81	1552.36
207.03	1605.61
207.25	1671.14
207.47	1738.73
207.69	1691.62
207.91	1755.11
208.13	1791.97
208.34	1634.28
208.56	1660.90
208.78	1755.11
209.00	1683.43
209.22	1753.06
209.44	1708.01
209.66	1611.75
209.88	1691.62
210.10	1751.01
210.32	1701.86
210.54	1740.77
210.76	1755.11
210.98	1753.06
211.20	1591.27
211.42	1736.68
211.64	1804.26
211.86	1705.96
212.08	1785.83
212.30	1779.68
212.52	1705.96
212.74	1701.86
212.96	1677.29
213.17	1667.05
213.39	1685.48
213.61	1822.69
213.83	1781.73
214.05	1665.00
214.27	1705.96
214.49	1583.08
214.71	1673.19
214.93	1779.68
215.15	1691.62
215.37	1800.16
215.59	1669.09
215.81	1705.96
216.03	1714.15
216.24	1658.85
216.46	1689.57
216.68	1742.82
216.90	1757.16
217.12	1812.45
217.34	1763.30
217.56	1724.39
217.78	1771.49
218.00	1738.73
218.22	1738.73
218.44	1748.97
218.66	1689.57
218.87	1789.92
219.09	1683.43
219.31	1730.53
219.53	1718.25
219.75	1699.81
219.97	1679.33
220.19	1710.05
220.41	1755.11
220.63	1806.31
220.85	1828.84
221.06	1667.05
221.28	1783.78
221.50	1738.73
221.72	1667.05
221.94	1716.20
222.16	1738.73
222.38	1718.25
222.60	1769.44
222.82	1714.15
223.03	1763.30
223.25	1714.15
223.47	1755.11
223.69	1855.46
223.91	1683.43
224.13	1708.01
224.35	1656.81
224.57	1828.84
224.78	1773.54
225.00	1695.72
225.22	1642.47
225.44	1685.48
225.66	1740.77
225.88	1658.85
226.10	1662.95
226.32	1681.38
226.53	1748.97
226.75	1681.38
226.97	1673.19
227.19	1662.95
227.41	1615.85
227.63	1679.33
227.85	1566.70
228.06	1691.62
228.28	1683.43
228.50	1796.07
228.72	1671.14
228.94	1685.48
229.16	1644.52
229.37	1603.56
229.59	1642.47
229.81	1769.44
230.03	1685.48
230.25	1693.67
230.47	1665.00
230.69	1595.37
230.90	1755.11
231.12	1724.39
231.34	1779.68
231.56	1724.39
231.78	1640.42
232.00	1677.29
232.21	1638.38
232.43	1642.47
232.65	1642.47
232.87	1712.10
233.09	1675.24
233.30	1626.09
233.52	1755.11
233.74	1626.09
233.96	1695.72
234.18	1689.57
234.40	1621.99
234.61	1841.12
234.83	1576.94
235.05	1601.51
235.27	1871.84
235.49	1742.82
235.70	1665.00
235.92	1839.08
236.14	1730.53
236.36	1859.56
236.58	1665.00
236.79	1685.48
237.01	1775.59
237.23	1619.94
237.45	1787.88
237.67	1638.38
237.88	1689.57
238.10	1814.50
238.32	1730.53
238.54	1673.19
238.76	1656.81
238.97	1691.62
239.19	1681.38
239.41	1759.21
239.63	1751.01
239.85	1677.29
240.06	1783.78
240.28	1722.34
240.50	1671.14
240.72	1710.05
240.93	1603.56
241.15	1812.45
241.37	1701.86
241.59	1755.11
241.81	1585.13
242.02	1677.29
242.24	1730.53
242.46	1763.30
242.68	1650.66
242.89	1634.28
243.11	1728.49
243.33	1689.57
243.55	1691.62
243.76	1714.15
243.98	1658.85
244.20	1720.29
244.42	1736.68
244.64	1730.53
244.85	1638.38
245.07	1683.43
245.29	1726.44
245.51	1703.91
245.72	1759.21
245.94	1847.27
246.16	1681.38
246.38	1687.53
246.59	1679.33
246.81	1638.38
247.03	1613.80
247.24	1630.18
247.46	1701.86
247.68	1710.05
247.90	1683.43
248.11	1716.20
248.33	1728.49
248.55	1673.19
248.77	1708.01
248.98	1734.63
249.20	1789.92
249.42	1730.53
249.64	1759.21
249.85	1718.25
250.07	1681.38
250.29	1691.62
250.50	1816.55
250.72	1652.71
250.94	1724.39
251.16	1822.69
251.37	1804.26
251.59	1699.81
251.81	1679.33
252.02	1853.41
252.24	1626.09
252.46	1845.22
252.68	1650.66
252.89	1636.33
253.11	1613.80
253.33	1781.73
253.54	1751.01
253.76	1640.42
253.98	1740.77
254.20	1720.29
254.41	1701.86
254.63	1687.53
254.85	1634.28
255.06	1693.67
255.28	1726.44
255.50	1656.81
255.71	1712.10
255.93	1665.00
256.15	1722.34
256.36	1751.01
256.58	1611.75
256.80	1689.57
257.02	1726.44
257.23	1662.95
257.45	1689.57
257.67	1724.39
257.88	1648.61
258.10	1665.00
258.32	1728.49
258.53	1640.42
258.75	1695.72
258.97	1656.81
259.18	1685.48
259.40	1658.85
259.62	1757.16
259.83	1787.88
260.05	1751.01
260.27	1990.63
260.48	1738.73
260.70	1576.94
260.92	1691.62
261.13	1722.34
261.35	1765.35
261.57	1708.01
261.78	1681.38
262.00	1642.47
262.22	1728.49
262.43	1673.19
262.65	1714.15
262.86	1732.58
263.08	1845.22
263.30	1640.42
263.51	1595.37
263.73	1644.52
263.95	1773.54
264.16	1634.28
264.38	1734.63
264.60	1617.90
264.81	1650.66
265.03	1736.68
265.25	1714.15
265.46	1644.52
265.68	1767.40
265.89	1722.34
266.11	1611.75
266.33	1691.62
266.54	1798.12
266.76	1769.44
266.98	1779.68
267.19	1773.54
267.41	1753.06
267.62	1718.25
267.84	1640.42
268.06	1757.16
268.27	1703.91
268.49	1771.49
268.70	1779.68
268.92	1648.61
269.14	1593.32
269.35	1607.66
269.57	1734.63
269.79	1755.11
270.00	1699.81
270.22	1775.59
270.43	1648.61
270.65	1599.46
270.87	1681.38
271.08	1828.84
271.30	1785.83
271.51	1640.42
271.73	1708.01
271.95	1783.78
272.16	1724.39
272.38	1722.34
272.59	1734.63
272.81	1712.10
273.02	1751.01
273.24	1748.97
273.46	1818.60
273.67	1660.90
273.89	1677.29
274.10	1683.43
274.32	1759.21
274.54	1679.33
274.75	1697.77
274.97	1693.67
275.18	1701.86
275.40	1714.15
275.61	1591.27
275.83	1728.49
276.05	1578.98
276.26	1685.48
276.48	1779.68
276.69	1665.00
276.91	1642.47
277.12	1769.44
277.34	1779.68
277.55	1812.45
277.77	1714.15
277.99	1658.85
278.20	1626.09
278.42	1595.37
278.63	1626.09
278.85	1644.52
279.06	1654.76
279.28	1703.91
279.49	1779.68
279.71	1787.88
279.93	1675.24
280.14	1681.38
280.36	1603.56
280.57	1767.40
280.79	1738.73
281.00	1718.25
281.22	1667.05
281.43	1787.88
281.65	1472.49
281.86	1667.05
282.08	1646.57
282.29	1822.69
282.51	1630.18
282.73	1687.53
282.94	1583.08
283.16	1773.54
283.37	1812.45
283.59	1691.62
283.80	1740.77
284.02	1722.34
284.23	1644.52
284.45	1673.19
284.66	1650.66
284.88	1716.20
285.09	1748.97
285.31	1691.62
285.52	1630.18
285.74	1640.42
285.95	1757.16
286.17	1705.96
286.38	1740.77
286.60	1701.86
286.81	1771.49
287.03	1695.72
287.24	1583.08
287.46	1673.19
287.67	1660.90
287.89	1812.45
288.10	1677.29
288.32	1695.72
288.53	1736.68
288.75	1689.57
288.96	1826.79
289.18	1675.24
289.39	1656.81
289.61	1722.34
289.82	1851.36
290.04	1755.11
290.25	1632.23
290.47	1738.73
290.68	1789.92
290.90	1779.68
291.11	1619.94
291.33	1705.96
291.54	1708.01
291.76	1658.85
291.97	1656.81
292.18	1771.49
292.40	1705.96
292.61	1644.52
292.83	1859.56
293.04	1785.83
293.26	1744.87
293.47	1703.91
293.69	1695.72
293.90	1689.57
294.12	1703.91
294.33	1652.71
294.55	1681.38
294.76	1775.59
294.97	1763.30
295.19	1773.54
295.40	1669.09
295.62	1703.91
295.83	1714.15
296.05	1689.57
296.26	1773.54
296.48	1650.66
296.69	1665.00
296.90	1648.61
297.12	1763.30
297.33	1697.77
297.55	1775.59
297.76	1804.26
297.98	1732.58
298.19	1689.57
298.41	1634.28
298.62	1691.62
298.83	1779.68
299.05	1726.44
299.26	1755.11
299.48	1691.62
299.69	1763.30
299.90	1714.15
300.12	1638.38
300.33	1677.29
300.55	1787.88
300.76	1708.01
300.98	1703.91
301.19	1677.29
301.40	1679.33
301.62	1697.77
301.83	1755.11
302.05	1601.51
302.26	1710.05
302.47	1587.18
302.69	1693.67
302.90	1634.28
303.12	1669.09
303.33	1710.05
303.54	1841.12
303.76	1726.44
303.97	1742.82
304.19	1824.74
304.40	1720.29
304.61	1763.30
304.83	1724.39
305.04	1765.35
305.26	1767.40
305.47	1681.38
305.68	1734.63
305.90	1632.23
306.11	1732.58
306.33	1675.24
306.54	1693.67
306.75	1619.94
306.97	1624.04
307.18	1697.77
307.39	1660.90
307.61	1796.07
307.82	1644.52
308.04	1726.44
308.25	1669.09
308.46	1718.25
308.68	1669.09
308.89	1656.81
309.10	1677.29
309.32	1714.15
309.53	1767.40
309.74	1673.19
309.96	1656.81
310.17	1697.77
310.39	1558.50
310.60	1681.38
310.81	1673.19
311.03	1693.67
311.24	1667.05
311.45	1683.43
311.67	1742.82
311.88	1738.73
312.09	1578.98
312.31	1646.57
312.52	1691.62
312.73	1724.39
312.95	1576.94
313.16	1658.85
313.37	1753.06
313.59	1714.15
313.80	1757.16
314.01	1681.38
314.23	1652.71
314.44	1667.05
314.65	1662.95
314.87	1671.14
315.08	1716.20
315.29	1607.66
315.51	1658.85
315.72	1640.42
315.93	1751.01
316.15	1771.49
316.36	1722.34
316.57	1665.00
316.79	1671.14
317.00	1703.91
317.21	1712.10
317.43	1632.23
317.64	1722.34
317.85	1687.53
318.07	1621.99
318.28	1726.44
318.49	1820.64
318.70	1896.42
318.92	1826.79
319.13	1775.59
319.34	1851.36
319.56	1761.25
319.77	1763.30
319.98	1806.31
320.20	1785.83
320.41	1781.73
320.62	1767.40
320.83	1695.72
321.05	1839.08
321.26	1697.77
321.47	1685.48
321.69	1699.81
321.90	1654.76
322.11	1644.52
322.32	1658.85
322.54	1785.83
322.75	1701.86
322.96	1855.46
323.18	1652.71
323.39	1595.37
323.60	1621.99
323.81	1746.92
324.03	1628.14
324.24	1695.72
324.45	1681.38
324.66	1732.58
324.88	1748.97
325.09	1773.54
325.30	1693.67
325.52	1699.81
325.73	1804.26
325.94	1646.57
326.15	1632.23
326.37	1677.29
326.58	1712.10
326.79	1789.92
327.00	1650.66
327.22	1732.58
327.43	1613.80
327.64	1667.05
327.85	1712.10
328.07	1712.10
328.28	1869.80
328.49	1703.91
328.70	1697.77
328.92	1669.09
329.13	1679.33
329.34	1773.54
329.55	1822.69
329.76	1703.91
329.98	1650.66
330.19	1791.97
330.40	1724.39
330.61	1662.95
330.83	1812.45
331.04	1632.23
331.25	1761.25
331.46	1671.14
331.68	1585.13
331.89	1744.87
332.10	1695.72
332.31	1601.51
332.52	1689.57
332.74	1802.21
332.95	1615.85
333.16	1730.53
333.37	1742.82
333.58	1708.01
333.80	1779.68
334.01	1652.71
334.22	1732.58
334.43	1734.63
334.64	1728.49
334.86	1699.81
335.07	1667.05
335.28	1802.21
335.49	1603.56
335.70	1734.63
335.92	1728.49
336.13	1886.18
336.34	1695.72
336.55	1691.62
336.76	1708.01
336.98	1599.46
337.19	1644.52
337.40	1794.02
337.61	1830.88
337.82	1591.27
338.04	1773.54
338.25	1636.33
338.46	1644.52
338.67	1783.78
338.88	1640.42
339.09	1601.51
339.31	1691.62
339.52	1550.31
339.73	1626.09
339.94	1710.05
340.15	1716.20
340.36	1726.44
340.58	1726.44
340.79	1648.61
341.00	1716.20
341.21	1611.75
341.42	1798.12
341.63	1667.05
341.85	1728.49
342.06	1798.12
342.27	1652.71
342.48	1751.01
342.69	1628.14
342.90	1763.30
343.12	1675.24
343.33	1634.28
343.54	1779.68
343.75	1744.87
343.96	1658.85
344.17	1615.85
344.38	1650.66
344.60	1703.91
344.81	1644.52
345.02	1689.57
345.23	1761.25
345.44	1812.45
345.65	1712.10
345.86	1753.06
346.07	1742.82
346.29	1757.16
346.50	1695.72
346.71	1783.78
346.92	1789.92
347.13	1828.84
347.34	1777.64
347.55	1644.52
347.76	1755.11
347.98	1615.85
348.19	1630.18
348.40	1738.73
348.61	1656.81
348.82	1746.92
349.03	1753.06
349.24	1621.99
349.45	1738.73
349.66	1648.61
349.88	1718.25
350.09	1626.09
350.30	1791.97
350.51	1787.88
350.72	1658.85
350.93	1787.88
351.14	1705.96
351.35	1730.53
351.56	1665.00
351.77	1632.23
351.99	1683.43
352.20	1816.55
352.41	1746.92
352.62	1568.74
352.83	1665.00
353.04	1648.61
353.25	1677.29
353.46	1775.59
353.67	1765.35
353.88	1583.08
354.09	1636.33
354.30	1703.91
354.52	1771.49
354.73	1681.38
354.94	1632.23
355.15	1705.96
355.36	1753.06
355.57	1683.43
355.78	1710.05
355.99	1621.99
356.20	1671.14
356.41	1814.50
356.62	1753.06
356.83	1787.88
357.04	1765.35
357.25	1640.42
357.46	1642.47
357.68	1685.48
357.89	1640.42
358.10	1681.38
358.31	1683.43
358.52	1667.05
358.73	1738.73
358.94	1652.71
359.15	1648.61
359.36	1757.16
359.57	1722.34
359.78	1695.72
359.99	1796.07
360.20	1689.57
360.41	1683.43
360.62	1691.62
360.83	1718.25
361.04	1751.01
361.25	1724.39
361.46	1837.03
361.67	1726.44
361.88	1724.39
362.09	1685.48
362.30	1757.16
362.51	1619.94
362.72	1703.91
362.93	1738.73
363.14	1722.34
363.35	1652.71
363.56	1697.77
363.78	1724.39
363.99	1763.30
364.20	1705.96
364.41	1703.91
364.62	1800.16
364.83	1699.81
365.04	1701.86
365.25	1742.82
365.46	1810.40
365.67	1714.15
365.88	1667.05
366.09	1712.10
366.30	1691.62
366.51	1742.82
366.72	1681.38
366.93	1671.14
367.14	1734.63
367.35	1816.55
367.56	1689.57
367.77	1779.68
367.98	1667.05
368.18	1636.33
368.39	1746.92
368.60	1681.38
368.81	1683.43
369.02	1744.87
369.23	1695.72
369.44	1746.92
369.65	1705.96
369.86	1685.48
370.07	1712.10
370.28	1658.85
370.49	1755.11
370.70	1738.73
370.91	1691.62
371.12	1601.51
371.33	1767.40
371.54	1609.70
371.75	1822.69
371.96	1578.98
372.17	1644.52
372.38	1701.86
372.59	1718.25
372.80	1714.15
373.01	1660.90
373.22	1665.00
373.43	1730.53
373.64	1652.71
373.85	1744.87
374.06	1761.25
374.26	1806.31
374.47	1701.86
374.68	1818.60
374.89	1708.01
375.10	1673.19
375.31	1722.34
375.52	1675.24
375.73	1683.43
375.94	1669.09
376.15	1787.88
376.36	1607.66
376.57	1603.56
376.78	1677.29
376.99	1755.11
377.20	1687.53
377.40	1726.44
377.61	1857.51
377.82	1665.00
378.03	1746.92
378.24	1683.43
378.45	1720.29
378.66	1718.25
378.87	1581.03
379.08	1566.70
379.29	1746.92
379.50	1720.29
379.71	1673.19
379.91	1785.83
380.12	1714.15
380.33	1677.29
380.54	1687.53
380.75	1736.68
380.96	1683.43
381.17	1695.72
381.38	1708.01
381.59	1796.07
381.80	1656.81
382.00	1861.60
382.21	1798.12
382.42	1775.59
382.63	1824.74
382.84	1738.73
383.05	1751.01
383.26	1882.08
383.47	1765.35
383.68	1814.50
383.88	1746.92
384.09	1783.78
384.30	1771.49
384.51	1687.53
384.72	1712.10
384.93	1677.29
385.14	1775.59
385.35	1775.59
385.55	1595.37
385.76	1826.79
385.97	1714.15
386.18	1660.90
386.39	1687.53
386.60	1734.63
386.81	1726.44
387.02	1654.76
387.22	1701.86
387.43	1746.92
387.64	1791.97
387.85	1779.68
388.06	2158.56
388.27	4204.48
388.48	6823.83
388.68	8114.05
388.89	9654.12
389.10	9785.19
389.31	8570.75
389.52	7487.37
389.73	6662.04
389.93	6158.24
390.14	5951.40
390.35	5257.14
390.56	4669.37
390.77	3819.46
390.98	3037.14
391.18	2482.14
391.39	2131.94
391.60	1837.03
391.81	1826.79
392.02	1726.44
392.23	1859.56
392.43	1703.91
392.64	1839.08
392.85	1748.97
393.06	1724.39
393.27	1609.70
393.47	1736.68
393.68	1730.53
393.89	1621.99
394.10	1820.64
394.31	1705.96
394.52	1691.62
394.72	1658.85
394.93	1753.06
395.14	1654.76
395.35	1697.77
395.56	1718.25
395.76	1677.29
395.97	1796.07
396.18	1818.60
396.39	1882.08
396.60	2013.15
396.80	1918.95
397.01	1875.94
397.22	1839.08
397.43	1789.92
397.64	1812.45
397.84	1853.41
398.05	1859.56
398.26	1732.58
398.47	1748.97
398.67	1763.30
398.88	1734.63
399.09	1798.12
399.30	1665.00
399.51	1746.92
399.71	1675.24
399.92	1656.81
400.13	1777.64
400.34	1621.99
400.54	1677.29
400.75	1818.60
400.96	1791.97
401.17	1865.70
401.37	1591.27
401.58	1685.48
401.79	1675.24
402.00	1791.97
402.21	1976.29
402.41	1929.19
402.62	2009.06
402.83	1976.29
403.04	1943.52
403.24	2111.46
403.45	1851.36
403.66	1925.09
403.87	1806.31
404.07	1863.65
404.28	1972.19
404.49	1843.17
404.70	1775.59
404.90	1767.40
405.11	1705.96
405.32	1714.15
405.52	1687.53
405.73	1681.38
405.94	1630.18
406.15	1730.53
406.35	1751.01
406.56	1742.82
406.77	1751.01
406.98	1646.57
407.18	1689.57
407.39	1738.73
407.60	1701.86
407.80	1724.39
408.01	1642.47
408.22	1701.86
408.43	1638.38
408.63	1689.57
408.84	1796.07
409.05	1794.02
409.25	1673.19
409.46	1640.42
409.67	1669.09
409.88	1650.66
410.08	1669.09
410.29	1681.38
410.50	1742.82
410.70	1828.84
410.91	1644.52
411.12	1720.29
411.32	1624.04
411.53	1716.20
411.74	1775.59
411.95	1751.01
412.15	1712.10
412.36	1779.68
412.57	1724.39
412.77	1877.99
412.98	1816.55
413.19	1662.95
413.39	1734.63
413.60	1718.25
413.81	1847.27
414.01	1724.39
414.22	1744.87
414.43	1726.44
414.63	1665.00
414.84	1726.44
415.05	1705.96
415.25	1701.86
415.46	1814.50
415.67	1617.90
415.87	1679.33
416.08	1632.23
416.29	1703.91
416.49	1714.15
416.70	1628.14
416.91	1632.23
417.11	1652.71
417.32	1724.39
417.53	1804.26
417.73	1660.90
417.94	1728.49
418.15	1681.38
418.35	1591.27
418.56	1718.25
418.77	1806.31
418.97	1656.81
419.18	1730.53
419.38	1540.07
419.59	1708.01
419.80	1746.92
420.00	1693.67
420.21	1746.92
420.42	1785.83
420.62	1703.91
420.83	1716.20
421.04	1742.82
421.24	1671.14
421.45	1763.30
421.65	1779.68
421.86	1677.29
422.07	1742.82
422.27	1730.53
422.48	1701.86
422.69	1689.57
422.89	1722.34
423.10	1708.01
423.30	1605.61
423.51	1720.29
423.72	1755.11
423.92	1810.40
424.13	1650.66
424.33	1730.53
424.54	1820.64
424.75	1722.34
424.95	1767.40
425.16	1685.48
425.36	1691.62
425.57	1742.82
425.78	1726.44
425.98	1714.15
426.19	1720.29
426.39	1626.09
426.60	1710.05
426.81	1849.32
427.01	1685.48
427.22	1724.39
427.42	1667.05
427.63	1603.56
427.83	1759.21
428.04	1853.41
428.25	1804.26
428.45	1763.30
428.66	1777.64
428.86	1693.67
429.07	1660.90
429.28	1714.15
429.48	1701.86
429.69	1615.85
429.89	1699.81
430.10	1646.57
430.30	1761.25
430.51	1798.12
430.71	1665.00
430.92	1683.43
431.13	1671.14
431.33	1789.92
431.54	1740.77
431.74	1851.36
431.95	1834.98
432.15	1662.95
432.36	1808.36
432.56	1734.63
432.77	1822.69
432.98	1761.25
433.18	1716.20
433.39	1685.48
433.59	1701.86
433.80	1806.31
434.00	1886.18
434.21	1624.04
434.41	1656.81
434.62	1877.99
434.82	1662.95
435.03	1722.34
435.23	1740.77
435.44	1595.37
435.64	1689.57
435.85	1693.67
436.06	1712.10
436.26	1744.87
436.47	1712.10
436.67	1642.47
436.88	1679.33
437.08	1808.36
437.29	1861.60
437.49	1671.14
437.70	1800.16
437.90	1748.97
438.11	1882.08
438.31	1822.69
438.52	1853.41
438.72	1783.78
438.93	1886.18
439.13	1773.54
439.34	1751.01
439.54	1765.35
439.75	1839.08
439.95	1814.50
440.16	1765.35
440.36	1834.98
440.57	1712.10
440.77	1689.57
440.98	1689.57
441.18	1759.21
441.39	1748.97
441.59	1673.19
441.80	1810.40
442.00	1841.12
442.21	1826.79
442.41	1656.81
442.62	1851.36
442.82	1779.68
443.02	1701.86
443.23	1751.01
443.43	1701.86
443.64	1779.68
443.84	1673.19
444.05	1810.40
444.25	1748.97
444.46	1730.53
444.66	1689.57
444.87	1869.80
445.07	1646.57
445.28	1722.34
445.48	1802.21
445.69	1730.53
445.89	1822.69
446.09	1755.11
446.30	2002.91
446.50	2623.45
446.71	3725.26
446.91	4315.07
447.12	4777.91
447.32	4863.93
447.53	4347.84
447.73	3887.04
447.93	3426.25
448.14	3219.41
448.34	3170.26
448.55	2828.24
448.75	2848.72
448.96	2713.56
449.16	2475.99
449.36	2396.12
449.57	2043.87
449.77	1853.41
449.98	1859.56
450.18	1882.08
450.39	1794.02
450.59	1703.91
450.79	1693.67
451.00	1697.77
451.20	1789.92
451.41	1742.82
451.61	1701.86
451.81	1660.90
452.02	1716.20
452.22	1648.61
452.43	1701.86
452.63	1714.15
452.84	1761.25
453.04	1718.25
453.24	1781.73
453.45	1665.00
453.65	1757.16
453.86	1765.35
454.06	1761.25
454.26	1710.05
454.47	1701.86
454.67	1744.87
454.87	1724.39
455.08	1787.88
455.28	1765.35
455.49	1783.78
455.69	1660.90
455.89	1884.13
456.10	1787.88
456.30	1693.67
456.51	1736.68
456.71	1839.08
456.91	1787.88
457.12	1785.83
457.32	1728.49
457.52	1642.47
457.73	1802.21
457.93	1691.62
458.14	1687.53
458.34	1648.61
458.54	1738.73
458.75	1748.97
458.95	1736.68
459.15	1738.73
459.36	1718.25
459.56	1781.73
459.76	1761.25
459.97	1798.12
460.17	1712.10
460.37	1734.63
460.58	1748.97
460.78	1763.30
460.99	1695.72
461.19	1730.53
461.39	1720.29
461.60	1642.47
461.80	1763.30
462.00	1619.94
462.21	1708.01
462.41	1716.20
462.61	1624.04
462.82	1621.99
463.02	1785.83
463.22	1626.09
463.43	1810.40
463.63	1738.73
463.83	1814.50
464.04	1751.01
464.24	1755.11
464.44	1656.81
464.64	1705.96
464.85	1759.21
465.05	1820.64
465.25	1826.79
465.46	1716.20
465.66	1753.06
465.86	1716.20
466.07	1652.71
466.27	1751.01
466.47	1597.42
466.68	1673.19
466.88	1853.41
467.08	1753.06
467.29	1726.44
467.49	1851.36
467.69	1802.21
467.89	1783.78
468.10	1759.21
468.30	1757.16
468.50	1738.73
468.71	1681.38
468.91	1636.33
469.11	1853.41
469.31	1644.52
469.52	1628.14
469.72	1834.98
469.92	1884.13
470.13	1701.86
470.33	1777.64
470.53	1865.70
470.73	2099.17
470.94	2332.64
471.14	2285.53
471.34	2580.44
471.54	2369.50
471.75	2240.48
471.95	2154.46
472.15	1939.43
472.36	2140.13
472.56	2054.11
472.76	2093.02
472.96	1931.23
473.17	1978.34
473.37	1906.66
473.57	1714.15
473.77	1882.08
473.98	1812.45
474.18	1652.71
474.38	1923.04
474.58	1685.48
474.79	1685.48
474.99	1701.86
475.19	1738.73
475.39	1681.38
475.60	1728.49
475.80	1757.16
476.00	1710.05
476.20	1609.70
476.41	1685.48
476.61	1791.97
476.81	1834.98
477.01	1755.11
477.21	1837.03
477.42	1767.40
477.62	1607.66
477.82	1800.16
478.02	1642.47
478.23	1730.53
478.43	1632.23
478.63	1789.92
478.83	1683.43
479.03	1681.38
479.24	1861.60
479.44	1865.70
479.64	1667.05
479.84	1640.42
480.04	1656.81
480.25	1791.97
480.45	1621.99
480.65	1738.73
480.85	1832.93
481.06	1646.57
481.26	1734.63
481.46	1722.34
481.66	1697.77
481.86	1697.77
482.06	1751.01
482.27	1722.34
482.47	1687.53
482.67	1748.97
482.87	1722.34
483.07	1771.49
483.28	1708.01
483.48	1607.66
483.68	1695.72
483.88	1675.24
484.08	1607.66
484.29	1642.47
484.49	1658.85
484.69	1644.52
484.89	1734.63
485.09	1804.26
485.29	1785.83
485.50	1769.44
485.70	1722.34
485.90	1777.64
486.10	1685.48
486.30	1757.16
486.50	1728.49
486.71	1806.31
486.91	1722.34
487.11	1800.16
487.31	1679.33
487.51	1730.53
487.71	1720.29
487.91	1667.05
488.12	1714.15
488.32	1595.37
488.52	1640.42
488.72	1589.22
488.92	1712.10
489.12	1738.73
489.32	1787.88
489.53	1796.07
489.73	1695.72
489.93	1746.92
490.13	1681.38
490.33	1658.85
490.53	1773.54
490.73	1705.96
490.94	1642.47
491.14	1740.77
491.34	1902.56
491.54	2258.91
491.74	2500.57
491.94	2934.74
492.14	2961.36
492.34	2951.12
492.54	2684.89
492.75	2416.60
492.95	2381.79
493.15	2275.29
493.35	2361.31
493.55	2232.29
493.75	2166.75
493.95	2093.02
494.15	1966.05
494.35	1898.47
494.56	1841.12
494.76	1796.07
494.96	1826.79
495.16	1751.01
495.36	1730.53
495.56	1773.54
495.76	1720.29
495.96	1712.10
496.16	1722.34
496.36	1867.75
496.56	1806.31
496.77	1796.07
496.97	1775.59
497.17	1759.21
497.37	1671.14
497.57	1787.88
497.77	1757.16
497.97	1673.19
498.17	1736.68
498.37	1714.15
498.57	1738.73
498.77	1759.21
498.97	1787.88
499.17	1834.98
499.38	1712.10
499.58	1730.53
499.78	1783.78
499.98	1763.30
500.18	1773.54
500.38	1695.72
500.58	1877.99
500.78	2473.95
500.98	4595.64
501.18	5640.11
501.38	6801.30
501.58	7034.77
501.78	6721.43
501.98	5498.80
502.18	5007.28
502.38	4409.28
502.58	4077.51
502.78	3667.91
502.98	3631.05
503.18	3407.82
503.38	3063.76
503.59	2877.40
503.79	2682.84
503.99	2437.08
504.19	2187.23
504.39	2183.13
504.59	2111.46
504.79	2107.36
504.99	2121.70
505.19	1898.47
505.39	1880.04
505.59	1927.14
505.79	1892.32
505.99	1834.98
506.19	1796.07
506.39	1873.89
506.59	1738.73
506.79	1783.78
506.99	1757.16
507.19	1751.01
507.39	1763.30
507.59	1677.29
507.79	1662.95
507.99	1705.96
508.19	1705.96
508.39	1691.62
508.59	1724.39
508.79	1834.98
508.99	1818.60
509.19	1687.53
509.39	1732.58
509.59	1687.53
509.79	1656.81
509.99	1734.63
510.19	1816.55
510.39	1808.36
510.59	1728.49
510.79	1757.16
510.99	1679.33
511.19	1691.62
511.39	1771.49
511.59	1798.12
511.79	1736.68
511.99	1789.92
512.19	1845.22
512.38	1710.05
512.58	1755.11
512.78	1671.14
512.98	1683.43
513.18	1798.12
513.38	1724.39
513.58	1705.96
513.78	1761.25
513.98	1695.72
514.18	1687.53
514.38	1685.48
514.58	1718.25
514.78	1746.92
514.98	1708.01
515.18	1724.39
515.38	1736.68
515.58	1787.88
515.78	1751.01
515.98	1726.44
516.18	1802.21
516.38	1814.50
516.57	1724.39
516.77	1667.05
516.97	1703.91
517.17	1677.29
517.37	1591.27
517.57	1855.46
517.77	1777.64
517.97	1751.01
518.17	1759.21
518.37	1714.15
518.57	1669.09
518.77	1705.96
518.97	1595.37
519.16	1816.55
519.36	1800.16
519.56	1687.53
519.76	1705.96
519.96	1703.91
520.16	1828.84
520.36	1755.11
520.56	1814.50
520.76	1607.66
520.96	1767.40
521.16	1746.92
521.35	1806.31
521.55	1816.55
521.75	1728.49
521.95	1742.82
522.15	1714.15
522.35	1697.77
522.55	1648.61
522.75	1761.25
522.95	1755.11
523.14	1685.48
523.34	1765.35
523.54	1652.71
523.74	1742.82
523.94	1767.40
524.14	1708.01
524.34	1769.44
524.54	1771.49
524.73	1734.63
524.93	1794.02
525.13	1740.77
525.33	1644.52
525.53	1910.75
525.73	1812.45
525.93	1777.64
526.13	1724.39
526.32	1681.38
526.52	1806.31
526.72	1837.03
526.92	1742.82
527.12	1679.33
527.32	1677.29
527.52	1738.73
527.71	1714.15
527.91	1695.72
528.11	1681.38
528.31	1650.66
528.51	1648.61
528.71	1763.30
528.90	1718.25
529.10	1804.26
529.30	1826.79
529.50	1599.46
529.70	1740.77
529.90	1673.19
530.09	1605.61
530.29	1601.51
530.49	1697.77
530.69	1828.84
530.89	1718.25
531.09	1695.72
531.28	1658.85
531.48	1767.40
531.68	1748.97
531.88	1699.81
532.08	1808.36
532.28	1712.10
532.47	1771.49
532.67	1810.40
532.87	1726.44
533.07	1703.91
533.27	1810.40
533.46	1748.97
533.66	1665.00
533.86	1708.01
534.06	1652.71
534.26	1689.57
534.45	1732.58
534.65	1779.68
534.85	1763.30
535.05	1751.01
535.25	1757.16
535.44	1624.04
535.64	1757.16
535.84	1665.00
536.04	1677.29
536.24	1740.77
536.43	1714.15
536.63	1787.88
536.83	1712.10
537.03	1730.53
537.22	1626.09
537.42	1681.38
537.62	1660.90
537.82	1679.33
538.02	1818.60
538.21	1855.46
538.41	1861.60
538.61	1755.11
538.81	1712.10
539.00	1779.68
539.20	1673.19
539.40	1724.39
539.60	1742.82
539.79	1857.51
539.99	1687.53
540.19	1675.24
540.39	1771.49
540.58	1785.83
540.78	1787.88
540.98	1665.00
541.18	1851.36
541.37	1804.26
541.57	1740.77
541.77	1765.35
541.97	1652.71
542.16	1685.48
542.36	1656.81
542.56	1798.12
542.76	1884.13
542.95	1714.15
543.15	1820.64
543.35	1742.82
543.54	1708.01
543.74	1732.58
543.94	1787.88
544.14	1742.82
544.33	1794.02
544.53	1722.34
544.73	1646.57
544.93	1718.25
545.12	1763.30
545.32	1722.34
545.52	1701.86
545.71	1681.38
545.91	1746.92
546.11	1724.39
546.30	1701.86
546.50	1728.49
546.70	1804.26
546.90	1695.72
547.09	1667.05
547.29	1751.01
547.49	1814.50
547.68	1751.01
547.88	1640.42
548.08	1718.25
548.27	2189.28
548.47	1685.48
548.67	1718.25
548.87	1742.82
549.06	1671.14
549.26	1673.19
549.46	1738.73
549.65	1769.44
549.85	1697.77
550.05	1730.53
550.24	1607.66
550.44	1748.97
550.64	1781.73
550.83	1779.68
551.03	1787.88
551.23	1757.16
551.42	1728.49
551.62	1748.97
551.82	1718.25
552.01	1648.61
552.21	1785.83
552.41	1765.35
552.60	1818.60
552.80	1751.01
553.00	1716.20
553.19	1705.96
553.39	1865.70
553.59	1640.42
553.78	1810.40
553.98	1824.74
554.17	1693.67
554.37	1722.34
554.57	1720.29
554.76	1689.57
554.96	1689.57
555.16	1697.77
555.35	1765.35
555.55	1779.68
555.75	1746.92
555.94	1734.63
556.14	1699.81
556.33	1716.20
556.53	1802.21
556.73	1767.40
556.92	1740.77
557.12	1822.69
557.32	1834.98
557.51	1875.94
557.71	1759.21
557.90	1822.69
558.10	1800.16
558.30	1669.09
558.49	1734.63
558.69	1746.92
558.88	1693.67
559.08	1673.19
559.28	1720.29
559.47	1722.34
559.67	1794.02
559.86	1816.55
560.06	1816.55
560.26	1683.43
560.45	1779.68
560.65	1652.71
560.84	1685.48
561.04	1626.09
561.24	1726.44
561.43	1724.39
561.63	1916.90
561.82	1783.78
562.02	1755.11
562.22	1675.24
562.41	1640.42
562.61	1648.61
562.80	1751.01
563.00	1773.54
563.19	1816.55
563.39	1746.92
563.59	1740.77
563.78	1689.57
563.98	1597.42
564.17	1796.07
564.37	1568.74
564.56	1683.43
564.76	1796.07
564.96	1777.64
565.15	1738.73
565.35	1875.94
565.54	1644.52
565.74	1757.16
565.93	1757.16
566.13	1761.25
566.32	1755.11
566.52	1742.82
566.71	1771.49
566.91	1781.73
567.11	1798.12
567.30	1650.66
567.50	1812.45
567.69	1796.07
567.89	1736.68
568.08	1644.52
568.28	1781.73
568.47	1634.28
568.67	1794.02
568.86	1726.44
569.06	1736.68
569.25	1685.48
569.45	1642.47
569.64	1736.68
569.84	1736.68
570.04	1765.35
570.23	1687.53
570.43	1746.92
570.62	1734.63
570.82	1818.60
571.01	1593.32
571.21	1751.01
571.40	1720.29
571.60	1757.16
571.79	1705.96
571.99	1732.58
572.18	1671.14
572.38	1724.39
572.57	1728.49
572.77	1791.97
572.96	1918.95
573.16	1736.68
573.35	1695.72
573.55	1820.64
573.74	1699.81
573.94	1718.25
574.13	1701.86
574.33	1732.58
574.52	1873.89
574.71	1708.01
574.91	1787.88
575.10	1712.10
575.30	1753.06
575.49	1656.81
575.69	1660.90
575.88	1746.92
576.08	1718.25
576.27	1761.25
576.47	1701.86
576.66	1841.12
576.86	1767.40
577.05	1757.16
577.25	1761.25
577.44	1828.84
577.64	1673.19
577.83	1816.55
578.02	1771.49
578.22	1816.55
578.41	1818.60
578.61	1652.71
578.80	1681.38
579.00	1736.68
579.19	1671.14
579.39	1812.45
579.58	1857.51
579.77	1765.35
579.97	1783.78
580.16	1804.26
580.36	1824.74
580.55	1771.49
580.75	1736.68
580.94	1746.92
581.13	1849.32
581.33	1894.37
581.52	1675.24
581.72	1871.84
581.91	1857.51
582.11	1708.01
582.30	1728.49
582.49	1705.96
582.69	1798.12
582.88	1824.74
583.08	1734.63
583.27	1851.36
583.47	1773.54
583.66	1681.38
583.85	1806.31
584.05	1787.88
584.24	1701.86
584.44	1812.45
584.63	1822.69
584.82	1787.88
585.02	1871.84
585.21	1759.21
585.41	1890.28
585.60	1861.60
585.79	1882.08
585.99	1890.28
586.18	1914.85
586.37	2176.99
586.57	3295.18
586.76	9996.14
586.96	24479.37
587.15	34008.57
587.34	40050.08
587.54	41749.89
587.73	36675.02
587.93	26078.83
588.12	21386.94
588.31	18192.11
588.51	16148.23
588.70	15015.71
588.89	14081.83
589.09	12439.36
589.28	11143.00
589.47	9539.44
589.67	8015.75
589.86	6485.92
590.06	5048.24
590.25	3979.20
590.44	3164.11
590.64	2584.54
590.83	2265.05
591.02	2045.92
591.22	1974.24
591.41	1953.76
591.60	1771.49
591.80	1863.65
591.99	1777.64
592.18	1787.88
592.38	1773.54
592.57	1775.59
592.76	1802.21
592.96	1724.39
593.15	1730.53
593.34	1751.01
593.54	1753.06
593.73	1779.68
593.92	1708.01
594.12	1730.53
594.31	1783.78
594.50	1779.68
594.70	1771.49
594.89	1900.52
595.08	1687.53
595.28	1810.40
595.47	1923.04
595.66	1800.16
595.86	1689.57
596.05	1687.53
596.24	1691.62
596.43	1839.08
596.63	1859.56
596.82	1673.19
597.01	1791.97
597.21	1810.40
597.40	1849.32
597.59	1744.87
597.79	1701.86
597.98	1738.73
598.17	1718.25
598.36	1712.10
598.56	1808.36
598.75	1665.00
598.94	1675.24
599.14	1765.35
599.33	1742.82
599.52	1796.07
599.71	1681.38
599.91	1794.02
600.10	1730.53
600.29	1656.81
600.48	1853.41
600.68	1773.54
600.87	1691.62
601.06	1763.30
601.26	1695.72
601.45	1757.16
601.64	1714.15
601.83	1783.78
602.03	1726.44
602.22	1660.90
602.41	1781.73
602.60	1843.17
602.80	1730.53
602.99	1744.87
603.18	1671.14
603.37	1691.62
603.57	1687.53
603.76	1812.45
603.95	1828.84
604.14	1738.73
604.34	1681.38
604.53	1701.86
604.72	1753.06
604.91	1789.92
605.10	1683.43
605.30	1771.49
605.49	1783.78
605.68	1824.74
605.87	1781.73
606.07	1720.29
606.26	1720.29
606.45	1824.74
606.64	1746.92
606.84	1699.81
607.03	1710.05
607.22	1779.68
607.41	1693.67
607.60	1650.66
607.80	1718.25
607.99	1798.12
608.18	1708.01
608.37	1734.63
608.56	1693.67
608.76	1783.78
608.95	1796.07
609.14	1691.62
609.33	1802.21
609.52	1771.49
609.72	1755.11
609.91	1705.96
610.10	1705.96
610.29	1839.08
610.48	1808.36
610.68	1828.84
610.87	1718.25
611.06	1781.73
611.25	1718.25
611.44	1767.40
611.63	1695.72
611.83	1796.07
612.02	1753.06
612.21	1828.84
612.40	1658.85
612.59	1679.33
612.79	1671.14
612.98	1708.01
613.17	1806.31
613.36	1759.21
613.55	1800.16
613.74	1738.73
613.93	1746.92
614.13	1679.33
614.32	1720.29
614.51	1832.93
614.70	1689.57
614.89	1720.29
615.08	1718.25
615.28	2064.35
615.47	1738.73
615.66	1742.82
615.85	1736.68
616.04	1832.93
616.23	1675.24
616.42	1722.34
616.62	1710.05
616.81	1771.49
617.00	1681.38
617.19	1783.78
617.38	1669.09
617.57	1673.19
617.76	1798.12
617.95	1818.60
618.15	1732.58
618.34	1796.07
618.53	1744.87
618.72	1841.12
618.91	1828.84
619.10	1855.46
619.29	1738.73
619.48	1736.68
619.68	1648.61
619.87	1773.54
620.06	1646.57
620.25	1775.59
620.44	1751.01
620.63	1712.10
620.82	1746.92
621.01	1726.44
621.20	1697.77
621.39	1734.63
621.59	1753.06
621.78	1644.52
621.97	1691.62
622.16	1787.88
622.35	1767.40
622.54	1845.22
622.73	1832.93
622.92	1673.19
623.11	1718.25
623.30	1728.49
623.49	1791.97
623.68	1687.53
623.88	1763.30
624.07	1773.54
624.26	1699.81
624.45	1738.73
624.64	1755.11
624.83	1714.15
625.02	1685.48
625.21	1708.01
625.40	1781.73
625.59	1796.07
625.78	1665.00
625.97	1742.82
626.16	1791.97
626.35	1732.58
626.54	1660.90
626.74	1769.44
626.93	1679.33
627.12	1646.57
627.31	1820.64
627.50	1716.20
627.69	1734.63
627.88	1730.53
628.07	1654.76
628.26	1669.09
628.45	1710.05
628.64	1595.37
628.83	1665.00
629.02	1578.98
629.21	1767.40
629.40	1787.88
629.59	1624.04
629.78	1746.92
629.97	1787.88
630.16	1714.15
630.35	1724.39
630.54	1648.61
630.73	1714.15
630.92	1669.09
631.11	1650.66
631.30	1685.48
631.49	1732.58
631.68	1767.40
631.87	1701.86
632.06	1619.94
632.25	1755.11
632.44	1755.11
632.63	1708.01
632.82	1714.15
633.01	1652.71
633.20	1724.39
633.39	1771.49
633.58	1624.04
633.77	1699.81
633.96	1724.39
634.15	1722.34
634.34	1722.34
634.53	1734.63
634.72	1624.04
634.91	1644.52
635.10	1726.44
635.29	1798.12
635.48	1665.00
635.67	1730.53
635.86	1574.89
636.05	1755.11
636.24	1626.09
636.43	1718.25
636.62	1658.85
636.81	1624.04
637.00	1740.77
637.19	1814.50
637.38	1722.34
637.57	1689.57
637.76	1695.72
637.95	1705.96
638.14	1634.28
638.33	1724.39
638.52	1718.25
638.71	1671.14
638.89	1679.33
639.08	1822.69
639.27	1742.82
639.46	1699.81
639.65	1798.12
639.84	1738.73
640.03	1748.97
640.22	1646.57
640.41	1845.22
640.60	1626.09
640.79	1703.91
640.98	1716.20
641.17	1753.06
641.36	1755.11
641.55	1746.92
641.74	1710.05
641.92	1689.57
642.11	1685.48
642.30	1691.62
642.49	1734.63
642.68	1650.66
642.87	1769.44
643.06	1791.97
643.25	1693.67
643.44	1714.15
643.63	1640.42
643.82	1665.00
644.00	1662.95
644.19	1638.38
644.38	1626.09
644.57	1716.20
644.76	1755.11
644.95	1765.35
645.14	1679.33
645.33	1662.95
645.52	1730.53
645.71	1638.38
645.89	1701.86
646.08	1636.33
646.27	1730.53
646.46	1843.17
646.65	1724.39
646.84	1724.39
647.03	1718.25
647.22	1853.41
647.40	1677.29
647.59	1689.57
647.78	1644.52
647.97	1671.14
648.16	1667.05
648.35	1818.60
648.54	1742.82
648.73	1722.34
648.91	1753.06
649.10	1691.62
649.29	1701.86
649.48	1720.29
649.67	1685.48
649.86	1630.18
650.05	1691.62
650.23	1726.44
650.42	1710.05
650.61	1734.63
650.80	1773.54
650.99	1851.36
651.18	1695.72
651.36	1722.34
651.55	1648.61
651.74	1777.64
651.93	1685.48
652.12	1769.44
652.31	1648.61
652.49	1691.62
652.68	1757.16
652.87	1818.60
653.06	1681.38
653.25	1794.02
653.44	1746.92
653.62	1798.12
653.81	1742.82
654.00	1781.73
654.19	1720.29
654.38	1859.56
654.56	1677.29
654.75	1724.39
654.94	1810.40
655.13	1755.11
655.32	1714.15
655.51	1712.10
655.69	1677.29
655.88	1810.40
656.07	1621.99
656.26	1738.73
656.45	1611.75
656.63	1638.38
656.82	1703.91
657.01	1812.45
657.20	1658.85
657.38	1804.26
657.57	1626.09
657.76	1578.98
657.95	1812.45
658.14	1685.48
658.32	1714.15
658.51	1617.90
658.70	1714.15
658.89	1718.25
659.08	1693.67
659.26	1832.93
659.45	1673.19
659.64	1714.15
659.83	1753.06
660.01	1818.60
660.20	1738.73
660.39	1736.68
660.58	1626.09
660.76	1722.34
660.95	1603.56
661.14	1738.73
661.33	1626.09
661.51	1685.48
661.70	1714.15
661.89	1798.12
662.08	1697.77
662.26	1675.24
662.45	1705.96
662.64	1779.68
662.83	1804.26
663.01	1603.56
663.20	1662.95
663.39	1779.68
663.58	1673.19
663.76	1722.34
663.95	1648.61
664.14	1703.91
664.32	1726.44
664.51	1640.42
664.70	1648.61
664.89	1753.06
665.07	1611.75
665.26	1773.54
665.45	1720.29
665.64	1767.40
665.82	1636.33
666.01	1779.68
666.20	1656.81
666.38	1800.16
666.57	1791.97
666.76	2172.89
666.95	4417.47
667.13	10176.36
667.32	15247.13
667.51	17596.15
667.69	18966.24
667.88	17651.44
668.07	12281.67
668.25	9547.63
668.44	7991.17
668.63	7348.11
668.81	6678.43
669.00	6107.04
669.19	5588.91
669.38	5095.35
669.56	4603.83
669.75	3930.05
669.94	3473.36
670.12	2951.12
670.31	2521.05
670.50	2263.01
670.68	2074.59
670.87	1884.13
671.06	1789.92
671.24	1753.06
671.43	1832.93
671.62	1751.01
671.80	1699.81
671.99	1787.88
672.18	1775.59
672.36	1757.16
672.55	1763.30
672.74	1656.81
672.92	1705.96
673.11	1791.97
673.29	1660.90
673.48	1738.73
673.67	1736.68
673.85	1820.64
674.04	1628.14
674.23	1736.68
674.41	1783.78
674.60	1599.46
674.79	1560.55
674.97	1699.81
675.16	1734.63
675.34	1740.77
675.53	1646.57
675.72	1783.78
675.90	1796.07
676.09	1677.29
676.28	1687.53
676.46	1632.23
676.65	1691.62
676.83	1636.33
677.02	1705.96
677.21	1691.62
677.39	1730.53
677.58	1732.58
677.77	1638.38
677.95	1675.24
678.14	1775.59
678.32	1681.38
678.51	1662.95
678.70	1804.26
678.88	1703.91
679.07	1720.29
679.25	1718.25
679.44	1693.67
679.63	1654.76
679.81	1687.53
680.00	1794.02
680.18	1726.44
680.37	1783.78
680.55	1726.44
680.74	1681.38
680.93	1630.18
681.11	1744.87
681.30	1734.63
681.48	1728.49
681.67	1683.43
681.85	1794.02
682.04	1669.09
682.23	1777.64
682.41	1765.35
682.60	1718.25
682.78	1718.25
682.97	1742.82
683.15	1693.67
683.34	1662.95
683.53	1800.16
683.71	1722.34
683.90	1763.30
684.08	1789.92
684.27	1703.91
684.45	1724.39
684.64	1763.30
684.82	1683.43
685.01	1759.21
685.19	1744.87
685.38	1824.74
685.57	1701.86
685.75	1757.16
685.94	1695.72
686.12	1667.05
686.31	1626.09
686.49	1853.41
686.68	1591.27
686.86	1785.83
687.05	1695.72
687.23	1832.93
687.42	1673.19
687.60	1730.53
687.79	1732.58
687.97	1849.32
688.16	1806.31
688.34	1765.35
688.53	1560.55
688.71	1712.10
688.90	1761.25
689.08	1726.44
689.27	1683.43
689.45	1714.15
689.64	1804.26
689.82	1740.77
690.01	1714.15
690.19	1718.25
690.38	1683.43
690.56	1800.16
690.75	1593.32
690.93	1611.75
691.12	1646.57
691.30	1697.77
691.49	1785.83
691.67	1734.63
691.86	1785.83
692.04	1652.71
692.23	1673.19
692.41	1732.58
692.60	1873.89
692.78	1763.30
692.97	1640.42
693.15	1783.78
693.34	1816.55
693.52	1710.05
693.71	1714.15
693.89	1720.29
694.08	1503.21
694.26	1660.90
694.44	1744.87
694.63	1714.15
694.81	1630.18
695.00	1607.66
695.18	1763.30
695.37	1787.88
695.55	1679.33
695.74	1675.24
695.92	1742.82
696.10	1779.68
696.29	1658.85
696.47	1687.53
696.66	1656.81
696.84	1624.04
697.03	1710.05
697.21	1738.73
697.40	2185.18
697.58	1763.30
697.76	1710.05
697.95	1628.14
698.13	1589.22
698.32	1656.81
698.50	1726.44
698.68	1748.97
698.87	1740.77
699.05	1746.92
699.24	1654.76
699.42	1720.29
699.61	1673.19
699.79	1714.15
699.97	1734.63
700.16	1669.09
700.34	1626.09
700.53	1685.48
700.71	1777.64
700.89	1806.31
701.08	1712.10
701.26	1599.46
701.45	2117.60
701.63	1583.08
701.81	1705.96
702.00	1624.04
702.18	1667.05
702.37	1642.47
702.55	1681.38
702.73	1736.68
702.92	1572.84
703.10	1757.16
703.28	1722.34
703.47	1619.94
703.65	1861.60
703.84	1738.73
704.02	1763.30
704.20	1703.91
704.39	1718.25
704.57	1681.38
704.75	1832.93
704.94	1779.68
705.12	1730.53
705.30	1765.35
705.49	2166.75
705.67	4368.32
705.86	9541.49
706.04	12631.87
706.22	14323.49
706.41	15476.50
706.59	13879.08
706.77	9666.41
706.96	7366.54
707.14	6686.62
707.32	5914.53
707.51	5533.61
707.69	4986.80
707.87	4296.64
708.06	3469.26
708.24	2953.17
708.42	2437.08
708.61	2289.63
708.79	1945.57
708.97	1898.47
709.16	1824.74
709.34	1738.73
709.52	1638.38
709.71	1734.63
709.89	1746.92
710.07	1703.91
710.26	1640.42
710.44	1681.38
710.62	1816.55
710.80	1718.25
710.99	1753.06
711.17	1738.73
711.35	1697.77
711.54	1677.29
711.72	1841.12
711.90	1705.96
712.09	1777.64
712.27	1693.67
712.45	1744.87
712.63	1665.00
712.82	1765.35
713.00	1773.54
713.18	1734.63
713.37	1816.55
713.55	1751.01
713.73	1712.10
713.91	1720.29
714.10	1685.48
714.28	1691.62
714.46	1763.30
714.65	1724.39
714.83	1699.81
715.01	1767.40
715.19	1683.43
715.38	1693.67
715.56	1763.30
715.74	1673.19
715.92	1609.70
716.11	1828.84
716.29	1665.00
716.47	1734.63
716.65	1714.15
716.84	1673.19
717.02	1777.64
717.20	1646.57
717.38	1665.00
717.57	1728.49
717.75	1712.10
717.93	1634.28
718.11	1767.40
718.30	1701.86
718.48	1763.30
718.66	1773.54
718.84	1732.58
719.03	1736.68
719.21	1693.67
719.39	1820.64
719.57	1730.53
719.75	1771.49
719.94	1597.42
720.12	1730.53
720.30	1679.33
720.48	1718.25
720.67	1644.52
720.85	1687.53
721.03	1675.24
721.21	1734.63
721.39	1816.55
721.58	1681.38
721.76	1718.25
721.94	1767.40
722.12	1730.53
722.30	1830.88
722.49	1665.00
722.67	1726.44
722.85	1804.26
723.03	1560.55
723.21	1716.20
723.40	1652.71
723.58	1724.39
723.76	1685.48
723.94	1710.05
724.12	1652.71
724.30	1716.20
724.49	1718.25
724.67	1611.75
724.85	1751.01
725.03	1578.98
725.21	1755.11
725.40	1656.81
725.58	1675.24
725.76	1718.25
725.94	1714.15
726.12	1660.90
726.30	1728.49
726.49	1751.01
726.67	1708.01
726.85	1769.44
727.03	1677.29
727.21	2176.99
727.39	2785.24
727.57	3755.97
727.76	4145.09
727.94	4448.19
728.12	4386.75
728.30	3766.21
728.48	2858.96
728.66	2752.47
728.84	2496.47
729.03	2394.08
729.21	2152.42
729.39	2000.87
729.57	1867.75
729.75	1841.12
729.93	1828.84
730.11	1675.24
730.30	1665.00
730.48	1697.77
730.66	1687.53
730.84	1718.25
731.02	1683.43
731.20	1626.09
731.38	1710.05
731.56	1642.47
731.74	1640.42
731.93	1736.68
732.11	1701.86
732.29	1697.77
732.47	1761.25
732.65	1673.19
732.83	1751.01
733.01	1736.68
733.19	1667.05
733.37	1695.72
733.56	1769.44
733.74	1693.67
733.92	1736.68
734.10	1718.25
734.28	1667.05
734.46	1607.66
734.64	1705.96
734.82	1755.11
735.00	1665.00
735.18	1640.42
735.36	1726.44
735.54	1634.28
735.73	1720.29
735.91	1703.91
736.09	1734.63
736.27	1681.38
736.45	1738.73
736.63	1591.27
736.81	1701.86
736.99	1744.87
737.17	1683.43
737.35	1601.51
737.53	1736.68
737.71	1714.15
737.89	1767.40
738.07	1687.53
738.25	1662.95
738.43	1607.66
738.61	1691.62
738.80	1689.57
738.98	1642.47
739.16	1644.52
739.34	1587.18
739.52	1775.59
739.70	1685.48
739.88	1746.92
740.06	1716.20
740.24	1599.46
740.42	1794.02
740.60	1583.08
740.78	1624.04
740.96	1685.48
741.14	1691.62
741.32	1667.05
741.50	1632.23
741.68	1767.40
741.86	1697.77
742.04	1624.04
742.22	1650.66
742.40	1734.63
742.58	1765.35
742.76	1730.53
742.94	1748.97
743.12	1581.03
743.30	1687.53
743.48	1779.68
743.66	1644.52
743.84	1771.49
744.02	1703.91
744.20	1720.29
744.38	1701.86
744.56	1718.25
744.74	1730.53
744.92	1689.57
745.10	1779.68
745.28	1789.92
745.46	1734.63
745.64	1677.29
745.82	1736.68
746.00	1732.58
746.18	1708.01
746.36	1677.29
746.54	1679.33
746.72	1685.48
746.90	1734.63
747.08	1828.84
747.26	1699.81
747.44	1748.97
747.62	1716.20
747.80	1687.53
747.98	1783.78
748.15	1648.61
748.33	1861.60
748.51	1720.29
748.69	1794.02
748.87	1656.81
749.05	1677.29
749.23	1675.24
749.41	1761.25
749.59	1654.76
749.77	1701.86
749.95	1669.09
750.13	1708.01
750.31	1693.67
750.49	1662.95
750.67	1769.44
750.85	1787.88
751.03	1677.29
751.20	1843.17
751.38	1748.97
751.56	1673.19
751.74	1665.00
751.92	1708.01
752.10	1665.00
752.28	1615.85
752.46	1697.77
752.64	1712.10
752.82	1695.72
753.00	1808.36
753.18	1671.14
753.35	1689.57
753.53	1695.72
753.71	1720.29
753.89	1787.88
754.07	1705.96
754.25	1744.87
754.43	1753.06
754.61	1648.61
754.79	1722.34
754.97	1640.42
755.14	1828.84
755.32	1576.94
755.50	1701.86
755.68	1669.09
755.86	1617.90
756.04	1673.19
756.22	1624.04
756.40	1730.53
756.57	1832.93
756.75	1650.66
756.93	1761.25
757.11	1742.82
757.29	1652.71
757.47	1652.71
757.65	1611.75
757.82	1601.51
758.00	1632.23
758.18	1753.06
758.36	1601.51
758.54	1802.21
758.72	1667.05
758.90	1703.91
759.07	1714.15
759.25	1585.13
759.43	1705.96
759.61	1665.00
759.79	2127.84
759.97	1689.57
760.15	1757.16
760.32	1701.86
760.50	1687.53
760.68	1837.03
760.86	1650.66
761.04	1783.78
761.22	1677.29
761.39	1748.97
761.57	1730.53
761.75	1675.24
761.93	1699.81
762.11	1624.04
762.28	1648.61
762.46	1658.85
762.64	1748.97
762.82	1636.33
763.00	1722.34
763.18	1765.35
763.35	1660.90
763.53	1619.94
763.71	1746.92
763.89	1714.15
764.07	1681.38
764.24	1724.39
764.42	1734.63
764.60	1652.71
764.78	1740.77
764.96	1746.92
765.13	1767.40
765.31	1673.19
765.49	1716.20
765.67	1615.85
765.84	1650.66
766.02	1652.71
766.20	1665.00
766.38	1703.91
766.56	1759.21
766.73	1757.16
766.91	1656.81
767.09	1699.81
767.27	1761.25
767.44	1685.48
767.62	1716.20
767.80	1681.38
767.98	1642.47
768.15	1662.95
768.33	1716.20
768.51	1818.60
768.69	1665.00
768.87	1683.43
769.04	1699.81
769.22	1785.83
769.40	1722.34
769.58	1886.18
769.75	1683.43
769.93	1773.54
770.11	1675.24
770.28	1708.01
770.46	1773.54
770.64	1783.78
770.82	1632.23
770.99	1642.47
771.17	1705.96
771.35	1652.71
771.53	1656.81
771.70	1665.00
771.88	1804.26
772.06	1675.24
772.23	1734.63
772.41	1791.97
772.59	1609.70
772.77	1589.22
772.94	1662.95
773.12	1755.11
773.30	1724.39
773.47	1720.29
773.65	1615.85
773.83	1802.21
774.01	1697.77
774.18	1544.17
774.36	1705.96
774.54	1636.33
774.71	1714.15
774.89	1640.42
775.07	1648.61
775.24	1652.71
775.42	1628.14
775.60	1771.49
775.78	1619.94
775.95	1599.46
776.13	1619.94
776.31	1560.55
776.48	1734.63
776.66	1787.88
776.84	1646.57
777.01	1656.81
777.19	1687.53
777.37	1675.24
777.54	1724.39
777.72	1894.37
777.90	1671.14
778.07	1658.85
778.25	1751.01
778.43	1722.34
778.60	1685.48
778.78	1759.21
778.96	1861.60
779.13	1566.70
779.31	1781.73
779.49	1669.09
779.66	1687.53
779.84	1738.73
780.01	1779.68
780.19	1667.05
780.37	1785.83
780.54	1665.00
780.72	1638.38
780.90	1673.19
781.07	1705.96
781.25	1652.71
781.43	1755.11
781.60	1624.04
781.78	1759.21
781.95	1742.82
782.13	1699.81
782.31	1773.54
782.48	1568.74
782.66	1751.01
782.83	1812.45
783.01	1683.43
783.19	1757.16
783.36	1632.23
783.54	1605.61
783.72	1773.54
783.89	1652.71
784.07	1658.85
784.24	1771.49
784.42	1769.44
784.60	1652.71
784.77	1705.96
784.95	1603.56
785.12	1748.97
785.30	1738.73
785.47	1640.42
785.65	1701.86
785.83	1689.57
786.00	1581.03
786.18	1605.61
786.35	1656.81
786.53	1665.00
786.71	1714.15
786.88	1665.00
787.06	1728.49
787.23	1718.25
787.41	1611.75
787.58	1738.73
787.76	1677.29
787.94	1689.57
788.11	1730.53
788.29	1607.66
788.46	1675.24
788.64	1656.81
788.81	1669.09
788.99	1615.85
789.16	1685.48
789.34	1689.57
789.52	1640.42
789.69	1673.19
789.87	1671.14
790.04	1673.19
790.22	1728.49
790.39	1877.99
790.57	1646.57
790.74	1665.00
790.92	1796.07
791.09	1634.28
791.27	1708.01
791.44	1757.16
791.62	1640.42
791.79	1755.11
791.97	1673.19
792.15	1865.70
792.32	1748.97
792.50	1763.30
792.67	1796.07
792.85	1767.40
793.02	1708.01
793.20	1607.66
793.37	1624.04
793.55	1677.29
793.72	1632.23
793.90	1765.35
794.07	1746.92
794.25	1669.09
794.42	1689.57
794.60	1658.85
794.77	1785.83
794.95	1652.71
795.12	1710.05
795.30	1687.53
795.47	1613.80
795.65	1906.66
795.82	1671.14
796.00	1654.76
796.17	1724.39
796.34	1626.09
796.52	1662.95
796.69	1736.68
796.87	1759.21
797.04	1722.34
797.22	1685.48
797.39	1662.95
797.57	1689.57
797.74	1658.85
797.92	1701.86
798.09	1681.38
798.27	1757.16
798.44	1718.25
798.62	1665.00
798.79	1751.01
798.96	1785.83
799.14	1658.85
799.31	1828.84
799.49	1671.14
799.66	1687.53
799.84	1748.97
800.01	1683.43
800.19	1738.73
800.36	1626.09
800.53	1685.48
800.71	1685.48
800.88	1767.40
801.06	1621.99
801.23	1687.53
801.41	1656.81
801.58	1724.39
801.75	1665.00
801.93	1769.44
802.10	1765.35
802.28	1726.44
802.45	1677.29
802.63	1650.66
802.80	1826.79
802.97	1656.81
803.15	1730.53
803.32	1630.18
803.50	1658.85
803.67	1619.94
803.84	1646.57
804.02	1634.28
804.19	1687.53
804.37	1611.75
804.54	1624.04
804.71	1669.09
804.89	1617.90
805.06	1644.52
805.24	1734.63
805.41	1644.52
805.58	1697.77
805.76	1824.74
805.93	1728.49
806.10	1748.97
806.28	1765.35
806.45	1689.57
806.63	1718.25
806.80	1730.53
806.97	1671.14
807.15	1710.05
807.32	1675.24
807.49	1714.15
807.67	1597.42
807.84	1746.92
808.01	1628.14
808.19	1845.22
808.36	1748.97
808.54	1673.19
808.71	1697.77
808.88	1761.25
809.06	1703.91
809.23	1724.39
809.40	1697.77
809.58	1642.47
809.75	1814.50
809.92	1564.65
810.10	1748.97
810.27	1683.43
810.44	1736.68
810.62	1791.97
810.79	1675.24
810.96	1650.66
811.14	1667.05
811.31	1720.29
811.48	1718.25
811.66	1691.62
811.83	1712.10
812.00	1732.58
812.18	1765.35
812.35	1843.17
812.52	1646.57
812.69	1701.86
812.87	1740.77
813.04	1660.90
813.21	1660.90
813.39	1617.90
813.56	1658.85
813.73	1771.49
813.91	1578.98
814.08	1710.05
814.25	1615.85
814.42	1556.46
814.60	1607.66
814.77	1718.25
814.94	1630.18
815.12	1648.61
815.29	1742.82
815.46	1607.66
815.63	1642.47
815.81	1689.57
815.98	1646.57
816.15	1687.53
816.33	1697.77
816.50	1669.09
816.67	1708.01
816.84	1652.71
817.02	1607.66
817.19	1652.71
817.36	1732.58
817.53	1701.86
817.71	1642.47
817.88	1722.34
818.05	1767.40
818.22	1673.19
818.40	1894.37
818.57	1648.61
818.74	1705.96
818.91	1689.57
819.09	1785.83
819.26	1726.44
819.43	1636.33
819.60	1662.95
819.78	1701.86
819.95	1816.55
820.12	1560.55
820.29	1697.77
820.47	1853.41
820.64	1667.05
820.81	1648.61
820.98	1667.05
821.15	1648.61
821.33	1665.00
821.50	1652.71
821.67	1675.24
821.84	1681.38
822.02	1789.92
822.19	1779.68
822.36	1648.61
822.53	1636.33
822.70	1505.26
822.88	1667.05
823.05	1771.49
823.22	1652.71
823.39	1681.38
823.56	1660.90
823.74	1720.29
823.91	1632.23
824.08	1644.52
824.25	1634.28
824.42	1787.88
824.60	1648.61
824.77	1753.06
824.94	1708.01
825.11	1748.97
825.28	1636.33
825.45	1753.06
825.63	1691.62
825.80	1652.71
825.97	1738.73
826.14	1665.00
826.31	1589.22
826.48	1728.49
826.66	1712.10
826.83	1654.76
827.00	1710.05
827.17	1658.85
827.34	1695.72
827.51	1714.15
827.69	1671.14
827.86	1644.52
828.03	1685.48
828.20	1755.11
828.37	1642.47
828.54	1740.77
828.71	1687.53
828.89	1791.97
829.06	1697.77
829.23	1738.73
829.40	1716.20
829.57	1611.75
829.74	1720.29
829.91	1652.71
830.09	1652.71
830.26	1755.11
830.43	1673.19
830.60	1642.47
830.77	1738.73
830.94	1693.67
831.11	1691.62
831.28	1609.70
831.46	1708.01
831.63	1665.00
831.80	1732.58
831.97	1662.95
832.14	1615.85
832.31	1718.25
832.48	1695.72
832.65	1722.34
832.82	1683.43
832.99	1703.91
833.17	1599.46
833.34	1730.53
833.51	1607.66
833.68	1636.33
833.85	1705.96
834.02	1640.42
834.19	1601.51
834.36	1693.67
834.53	1693.67
834.70	1675.24
834.87	1720.29
835.04	1789.92
835.22	1617.90
835.39	1785.83
835.56	1687.53
835.73	1640.42
835.90	1728.49
836.07	1648.61
836.24	1724.39
836.41	1589.22
836.58	1724.39
836.75	1644.52
836.92	1617.90
837.09	1665.00
837.26	1714.15
837.43	1646.57
837.60	1722.34
837.77	1640.42
837.94	1687.53
838.12	1753.06
838.29	1689.57
838.46	1572.84
838.63	1628.14
838.80	1759.21
838.97	1703.91
839.14	1699.81
839.31	1742.82
839.48	1769.44
839.65	1722.34
839.82	1759.21
839.99	1693.67
840.16	1683.43
840.33	1738.73
840.50	1656.81
840.67	1648.61
840.84	1591.27
841.01	1744.87
841.18	1689.57
841.35	1716.20
841.52	1703.91
841.69	1769.44
841.86	1669.09
842.03	1738.73
842.20	1681.38
842.37	1671.14
842.54	1701.86
842.71	1669.09
842.88	1640.42
843.05	1818.60
843.22	1734.63
843.39	1726.44
843.56	1734.63
843.73	1697.77
843.90	1652.71
844.07	1703.91
844.24	1691.62
844.41	1712.10
844.58	1710.05
844.75	1681.38
844.92	1648.61
845.09	1738.73
845.26	1617.90
845.43	1677.29
845.60	1656.81
845.77	1802.21
845.94	1757.16
846.10	1732.58
846.27	1671.14
846.44	1611.75
846.61	1738.73
846.78	1759.21
846.95	1730.53
847.12	1687.53
847.29	1710.05
847.46	1615.85
847.63	1746.92
847.80	1710.05
847.97	1677.29
848.14	1789.92
848.31	1783.78
848.48	1615.85
848.65	1681.38
848.82	1689.57
848.98	1779.68
849.15	1736.68
849.32	1802.21
849.49	1755.11
849.66	1695.72
849.83	1761.25
850.00	1714.15
850.17	1697.77
850.34	1695.72
850.51	1720.29
850.68	1619.94
850.85	1798.12
851.01	1830.88
851.18	1685.48
851.35	1576.94
851.52	1720.29
851.69	1771.49
851.86	1755.11
852.03	1660.90
852.20	1687.53
852.37	1689.57
852.53	1603.56
852.70	1673.19
852.87	1726.44
853.04	1681.38
853.21	1665.00
853.38	1748.97
853.55	1732.58
853.72	1730.53
853.89	1642.47
854.05	1675.24
854.22	1675.24
854.39	1665.00
854.56	1730.53
854.73	1755.11
854.90	1712.10
855.07	1763.30
855.23	1644.52
855.40	1718.25
855.57	1728.49
855.74	1525.74
855.91	1841.12
856.08	1591.27
856.25	1603.56
856.41	1673.19
856.58	1662.95
856.75	1675.24
856.92	1601.51
857.09	1759.21
857.26	1652.71
857.42	1732.58
857.59	1816.55
857.76	1628.14
857.93	1738.73
858.10	1685.48
858.27	1617.90
858.43	1624.04
858.60	1650.66
858.77	1642.47
858.94	1699.81
859.11	1728.49
859.27	1748.97
859.44	1632.23
859.61	1808.36
859.78	1732.58
859.95	1714.15
860.12	1697.77
860.28	1816.55
860.45	1804.26
860.62	1605.61
860.79	1724.39
860.95	1617.90
861.12	1691.62
861.29	1658.85
861.46	1724.39
861.63	1665.00
861.79	1718.25
861.96	1615.85
862.13	1679.33
862.30	1730.53
862.47	1691.62
862.63	1576.94
862.80	1722.34
862.97	1714.15
863.14	1730.53
863.30	1710.05
863.47	1605.61
863.64	1785.83
863.81	1667.05
863.97	1648.61
864.14	1761.25
864.31	1673.19
864.48	1757.16
864.65	1716.20
864.81	1771.49
864.98	1759.21
865.15	1742.82
865.32	1689.57
865.48	1738.73
865.65	1783.78
865.82	1615.85
865.98	1662.95
866.15	1816.55
866.32	1703.91
866.49	1806.31
866.65	1804.26
866.82	1722.34
866.99	1740.77
867.16	1697.77
867.32	1669.09
867.49	1689.57
867.66	1697.77
867.83	1722.34
867.99	1644.52
868.16	1716.20
868.33	1656.81
868.49	1675.24
868.66	1658.85
868.83	1724.39
868.99	1753.06
869.16	1656.81
869.33	1832.93
869.50	1755.11
869.66	1683.43
869.83	1703.91
870.00	1634.28
870.16	1683.43
870.33	1738.73
870.50	1693.67
870.66	1705.96
870.83	1775.59
871.00	1642.47
871.17	1736.68
871.33	1697.77
871.50	1677.29
871.67	1714.15
871.83	1699.81
872.00	1800.16
872.17	1677.29
872.33	1726.44
872.50	1818.60
872.67	1708.01
872.83	1601.51
873.00	1693.67
873.17	1677.29
873.33	1736.68
873.50	1763.30
873.67	1652.71
873.83	1626.09
874.00	1675.24
874.16	1742.82
874.33	1726.44
874.50	1589.22
874.66	1691.62
874.83	1722.34
875.00	1841.12
875.16	1753.06
875.33	1834.98
875.50	1615.85
875.66	1628.14
875.83	1716.20
875.99	1796.07
876.16	1691.62
876.33	1624.04
876.49	1708.01
876.66	1740.77
876.83	1689.57
876.99	1581.03
877.16	1634.28
877.32	1738.73
877.49	1667.05
877.66	1642.47
877.82	1820.64
877.99	1642.47
878.15	1773.54
878.32	1724.39
878.49	1751.01
878.65	1691.62
878.82	1830.88
878.98	1669.09
879.15	1738.73
879.32	1796.07
879.48	1681.38
879.65	1638.38
879.81	1597.42
879.98	1632.23
880.15	1646.57
880.31	1744.87
880.48	1689.57
880.64	1751.01
880.81	1806.31
880.97	1779.68
881.14	1742.82
881.31	1634.28
881.47	1824.74
881.64	1734.63
881.80	1599.46
881.97	1769.44
882.13	1732.58
882.30	1642.47
882.47	1667.05
882.63	1570.79
882.80	1648.61
882.96	1609.70
883.13	1685.48
883.29	1677.29
883.46	1722.34
883.62	1767.40
883.79	1673.19
883.95	1757.16
884.12	1652.71
884.29	1765.35
884.45	1662.95
884.62	1765.35
884.78	1648.61
884.95	1763.30
885.11	1607.66
885.28	1722.34
885.44	1634.28
885.61	1669.09
885.77	1738.73
885.94	1783.78
886.10	1683.43
886.27	1675.24
886.43	1824.74
886.60	1751.01
886.76	1701.86
886.93	1605.61
887.09	1675.24
887.26	1624.04
887.42	1726.44
887.59	1826.79
887.75	1841.12
887.92	1755.11
888.08	1757.16
888.25	1728.49
888.41	1748.97
888.58	1691.62
888.74	1699.81
888.91	1732.58
>>>>>End Processed Spectral Data<<<<<
