SpectraSuite Data File
++++++++++++++++++++++++++++++++++++
Date: Mon Jun 06 15:04:57 CEST 2016
User: root
Dark Spectrum Present: No
Reference Spectrum Present: No
Number of Sampled Component Spectra: 1
Spectrometers: USB4C02835
Integration Time (usec): 100000 (USB4C02835)
Spectra Averaged: 1 (USB4C02835)
Boxcar Smoothing: 0 (USB4C02835)
Correct for Electrical Dark: No (USB4C02835)
Strobe/Lamp Enabled: No (USB4C02835)
Correct for Detector Non-linearity: No (USB4C02835)
Correct for Stray Light: No (USB4C02835)
Number of Pixels in Processed Spectrum: 3648
>>>>>Begin Processed Spectral Data<<<<<
177.47	1404.91
177.69	1404.91
177.91	1404.91
178.13	1449.96
178.36	1470.44
178.58	1703.91
178.80	1769.44
179.02	1607.66
179.24	1681.38
179.46	1693.67
179.68	1738.73
179.90	1673.19
180.13	1646.57
180.35	1693.67
180.57	1640.42
180.79	1753.06
181.01	1671.14
181.23	1742.82
181.45	1722.34
181.67	1775.59
181.90	1724.39
182.12	1652.71
182.34	1621.99
182.56	1638.38
182.78	1689.57
183.00	1667.05
183.22	1785.83
183.44	1609.70
183.66	1798.12
183.89	1789.92
184.11	1703.91
184.33	1779.68
184.55	1748.97
184.77	1642.47
184.99	1742.82
185.21	1732.58
185.43	1800.16
185.65	1744.87
185.87	1718.25
186.10	1783.78
186.32	1769.44
186.54	1705.96
186.76	1724.39
186.98	1800.16
187.20	1693.67
187.42	1689.57
187.64	1738.73
187.86	1740.77
188.08	1724.39
188.30	1708.01
188.52	1693.67
188.75	1812.45
188.97	1726.44
189.19	1693.67
189.41	1691.62
189.63	1755.11
189.85	1646.57
190.07	1685.48
190.29	1609.70
190.51	1671.14
190.73	1683.43
190.95	1769.44
191.17	1802.21
191.39	1626.09
191.61	1667.05
191.84	1691.62
192.06	1740.77
192.28	1638.38
192.50	1847.27
192.72	1689.57
192.94	1718.25
193.16	1832.93
193.38	1701.86
193.60	1642.47
193.82	1638.38
194.04	1798.12
194.26	1703.91
194.48	1681.38
194.70	1701.86
194.92	1597.42
195.14	1798.12
195.36	1718.25
195.58	1624.04
195.80	1648.61
196.02	1751.01
196.24	1636.33
196.46	1646.57
196.69	1640.42
196.91	1849.32
197.13	1673.19
197.35	1669.09
197.57	1826.79
197.79	1742.82
198.01	1751.01
198.23	1734.63
198.45	1718.25
198.67	1705.96
198.89	1603.56
199.11	1751.01
199.33	1732.58
199.55	1576.94
199.77	1683.43
199.99	1757.16
200.21	1611.75
200.43	1699.81
200.65	1603.56
200.87	1617.90
201.09	1701.86
201.31	1667.05
201.53	1732.58
201.75	1738.73
201.97	1705.96
202.19	1763.30
202.41	1791.97
202.63	1808.36
202.85	1703.91
203.07	1773.54
203.29	1695.72
203.51	1589.22
203.73	1665.00
203.95	1855.46
204.17	1652.71
204.39	1697.77
204.61	1636.33
204.83	1710.05
205.05	1791.97
205.27	1712.10
205.49	1841.12
205.71	1746.92
205.93	1673.19
206.15	1765.35
206.37	1744.87
206.59	1681.38
206.81	1615.85
207.03	1734.63
207.25	1662.95
207.47	1673.19
207.69	1689.57
207.91	1820.64
208.13	1802.21
208.34	1658.85
208.56	1671.14
208.78	1767.40
209.00	1681.38
209.22	1673.19
209.44	1644.52
209.66	1714.15
209.88	1656.81
210.10	1662.95
210.32	1679.33
210.54	1765.35
210.76	1646.57
210.98	1763.30
211.20	1595.37
211.42	1646.57
211.64	1753.06
211.86	1689.57
212.08	1697.77
212.30	1691.62
212.52	1691.62
212.74	1693.67
212.96	1701.86
213.17	1771.49
213.39	1724.39
213.61	1781.73
213.83	1667.05
214.05	1632.23
214.27	1689.57
214.49	1708.01
214.71	1708.01
214.93	1779.68
215.15	1746.92
215.37	1691.62
215.59	1648.61
215.81	1746.92
216.03	1728.49
216.24	1769.44
216.46	1710.05
216.68	1736.68
216.90	1685.48
217.12	1736.68
217.34	1714.15
217.56	1751.01
217.78	1785.83
218.00	1779.68
218.22	1691.62
218.44	1726.44
218.66	1695.72
218.87	1869.80
219.09	1773.54
219.31	1724.39
219.53	1689.57
219.75	1695.72
219.97	1710.05
220.19	1646.57
220.41	1728.49
220.63	1777.64
220.85	1685.48
221.06	1619.94
221.28	1755.11
221.50	1705.96
221.72	1699.81
221.94	1712.10
222.16	1742.82
222.38	1718.25
222.60	1667.05
222.82	1685.48
223.03	1771.49
223.25	1632.23
223.47	1732.58
223.69	1820.64
223.91	1757.16
224.13	1667.05
224.35	1712.10
224.57	1769.44
224.78	1816.55
225.00	1630.18
225.22	1697.77
225.44	1767.40
225.66	1658.85
225.88	1621.99
226.10	1759.21
226.32	1648.61
226.53	1740.77
226.75	1728.49
226.97	1656.81
227.19	1609.70
227.41	1736.68
227.63	1595.37
227.85	1546.22
228.06	1656.81
228.28	1744.87
228.50	1796.07
228.72	1669.09
228.94	1660.90
229.16	1570.79
229.37	1587.18
229.59	1638.38
229.81	1718.25
230.03	1705.96
230.25	1611.75
230.47	1656.81
230.69	1728.49
230.90	1730.53
231.12	1632.23
231.34	1720.29
231.56	1771.49
231.78	1595.37
232.00	1714.15
232.21	1656.81
232.43	1658.85
232.65	1667.05
232.87	1699.81
233.09	1697.77
233.30	1630.18
233.52	1757.16
233.74	1718.25
233.96	1744.87
234.18	1773.54
234.40	1718.25
234.61	1849.32
234.83	1644.52
235.05	1613.80
235.27	1822.69
235.49	1791.97
235.70	1724.39
235.92	1822.69
236.14	1728.49
236.36	1822.69
236.58	1660.90
236.79	1753.06
237.01	1683.43
237.23	1695.72
237.45	1781.73
237.67	1699.81
237.88	1654.76
238.10	1781.73
238.32	1705.96
238.54	1691.62
238.76	1767.40
238.97	1665.00
239.19	1605.61
239.41	1718.25
239.63	1724.39
239.85	1636.33
240.06	1652.71
240.28	1695.72
240.50	1763.30
240.72	1671.14
240.93	1732.58
241.15	1724.39
241.37	1734.63
241.59	1767.40
241.81	1654.76
242.02	1691.62
242.24	1669.09
242.46	1767.40
242.68	1654.76
242.89	1781.73
243.11	1718.25
243.33	1728.49
243.55	1695.72
243.76	1685.48
243.98	1691.62
244.20	1718.25
244.42	1705.96
244.64	1667.05
244.85	1599.46
245.07	1644.52
245.29	1726.44
245.51	1634.28
245.72	1683.43
245.94	1701.86
246.16	1648.61
246.38	1771.49
246.59	1644.52
246.81	1652.71
247.03	1671.14
247.24	1619.94
247.46	1648.61
247.68	1644.52
247.90	1718.25
248.11	1705.96
248.33	1767.40
248.55	1697.77
248.77	1720.29
248.98	1763.30
249.20	1753.06
249.42	1783.78
249.64	1757.16
249.85	1667.05
250.07	1628.14
250.29	1791.97
250.50	1712.10
250.72	1611.75
250.94	1763.30
251.16	1832.93
251.37	1753.06
251.59	1730.53
251.81	1683.43
252.02	1779.68
252.24	1720.29
252.46	1722.34
252.68	1605.61
252.89	1642.47
253.11	1638.38
253.33	1765.35
253.54	1783.78
253.76	1601.51
253.98	1611.75
254.20	1763.30
254.41	1671.14
254.63	1755.11
254.85	1646.57
255.06	1679.33
255.28	1695.72
255.50	1654.76
255.71	1652.71
255.93	1636.33
256.15	1679.33
256.36	1748.97
256.58	1593.32
256.80	1804.26
257.02	1722.34
257.23	1681.38
257.45	1716.20
257.67	1781.73
257.88	1677.29
258.10	1697.77
258.32	1736.68
258.53	1785.83
258.75	1787.88
258.97	1634.28
259.18	1718.25
259.40	1712.10
259.62	1775.59
259.83	1751.01
260.05	1755.11
260.27	1910.75
260.48	1740.77
260.70	1593.32
260.92	1705.96
261.13	1714.15
261.35	1738.73
261.57	1751.01
261.78	1585.13
262.00	1660.90
262.22	1763.30
262.43	1624.04
262.65	1615.85
262.86	1734.63
263.08	1886.18
263.30	1757.16
263.51	1681.38
263.73	1669.09
263.95	1751.01
264.16	1658.85
264.38	1689.57
264.60	1693.67
264.81	1720.29
265.03	1734.63
265.25	1730.53
265.46	1650.66
265.68	1834.98
265.89	1708.01
266.11	1621.99
266.33	1796.07
266.54	1736.68
266.76	1802.21
266.98	1732.58
267.19	1832.93
267.41	1771.49
267.62	1693.67
267.84	1613.80
268.06	1714.15
268.27	1718.25
268.49	1757.16
268.70	1777.64
268.92	1718.25
269.14	1669.09
269.35	1648.61
269.57	1753.06
269.79	1746.92
270.00	1681.38
270.22	1769.44
270.43	1703.91
270.65	1595.37
270.87	1630.18
271.08	1710.05
271.30	1771.49
271.51	1767.40
271.73	1701.86
271.95	1765.35
272.16	1703.91
272.38	1755.11
272.59	1695.72
272.81	1667.05
273.02	1726.44
273.24	1757.16
273.46	1701.86
273.67	1687.53
273.89	1660.90
274.10	1699.81
274.32	1773.54
274.54	1714.15
274.75	1773.54
274.97	1681.38
275.18	1716.20
275.40	1697.77
275.61	1685.48
275.83	1740.77
276.05	1591.27
276.26	1665.00
276.48	1710.05
276.69	1621.99
276.91	1667.05
277.12	1771.49
277.34	1732.58
277.55	1783.78
277.77	1769.44
277.99	1689.57
278.20	1714.15
278.42	1650.66
278.63	1658.85
278.85	1619.94
279.06	1591.27
279.28	1671.14
279.49	1798.12
279.71	1759.21
279.93	1679.33
280.14	1714.15
280.36	1773.54
280.57	1726.44
280.79	1740.77
281.00	1742.82
281.22	1605.61
281.43	1767.40
281.65	1560.55
281.86	1650.66
282.08	1656.81
282.29	1818.60
282.51	1583.08
282.73	1562.60
282.94	1705.96
283.16	1744.87
283.37	1771.49
283.59	1804.26
283.80	1679.33
284.02	1712.10
284.23	1705.96
284.45	1683.43
284.66	1687.53
284.88	1693.67
285.09	1705.96
285.31	1806.31
285.52	1697.77
285.74	1710.05
285.95	1722.34
286.17	1767.40
286.38	1718.25
286.60	1615.85
286.81	1628.14
287.03	1671.14
287.24	1730.53
287.46	1746.92
287.67	1781.73
287.89	1828.84
288.10	1730.53
288.32	1699.81
288.53	1783.78
288.75	1718.25
288.96	1730.53
289.18	1703.91
289.39	1724.39
289.61	1763.30
289.82	1859.56
290.04	1849.32
290.25	1585.13
290.47	1708.01
290.68	1675.24
290.90	1714.15
291.11	1671.14
291.33	1689.57
291.54	1619.94
291.76	1591.27
291.97	1601.51
292.18	1703.91
292.40	1701.86
292.61	1648.61
292.83	1732.58
293.04	1695.72
293.26	1699.81
293.47	1705.96
293.69	1699.81
293.90	1662.95
294.12	1771.49
294.33	1763.30
294.55	1667.05
294.76	1705.96
294.97	1837.03
295.19	1847.27
295.40	1679.33
295.62	1730.53
295.83	1753.06
296.05	1640.42
296.26	1716.20
296.48	1714.15
296.69	1646.57
296.90	1673.19
297.12	1730.53
297.33	1746.92
297.55	1746.92
297.76	1695.72
297.98	1708.01
298.19	1677.29
298.41	1642.47
298.62	1718.25
298.83	1853.41
299.05	1726.44
299.26	1710.05
299.48	1669.09
299.69	1722.34
299.90	1699.81
300.12	1681.38
300.33	1812.45
300.55	1708.01
300.76	1738.73
300.98	1644.52
301.19	1761.25
301.40	1652.71
301.62	1671.14
301.83	1683.43
302.05	1761.25
302.26	1705.96
302.47	1701.86
302.69	1634.28
302.90	1748.97
303.12	1611.75
303.33	1722.34
303.54	1748.97
303.76	1675.24
303.97	1775.59
304.19	1849.32
304.40	1611.75
304.61	1736.68
304.83	1867.75
305.04	1787.88
305.26	1748.97
305.47	1701.86
305.68	1708.01
305.90	1593.32
306.11	1724.39
306.33	1675.24
306.54	1736.68
306.75	1669.09
306.97	1617.90
307.18	1662.95
307.39	1740.77
307.61	1716.20
307.82	1654.76
308.04	1654.76
308.25	1716.20
308.46	1740.77
308.68	1701.86
308.89	1703.91
309.10	1810.40
309.32	1738.73
309.53	1703.91
309.74	1753.06
309.96	1685.48
310.17	1773.54
310.39	1621.99
310.60	1763.30
310.81	1693.67
311.03	1660.90
311.24	1726.44
311.45	1716.20
311.67	1773.54
311.88	1705.96
312.09	1742.82
312.31	1712.10
312.52	1673.19
312.73	1712.10
312.95	1636.33
313.16	1732.58
313.37	1767.40
313.59	1759.21
313.80	1789.92
314.01	1787.88
314.23	1697.77
314.44	1695.72
314.65	1611.75
314.87	1675.24
315.08	1648.61
315.29	1673.19
315.51	1636.33
315.72	1619.94
315.93	1798.12
316.15	1724.39
316.36	1677.29
316.57	1789.92
316.79	1742.82
317.00	1677.29
317.21	1775.59
317.43	1630.18
317.64	1730.53
317.85	1624.04
318.07	1665.00
318.28	1763.30
318.49	1800.16
318.70	1875.94
318.92	1832.93
319.13	1818.60
319.34	1914.85
319.56	1757.16
319.77	1777.64
319.98	1779.68
320.20	1781.73
320.41	1703.91
320.62	1683.43
320.83	1634.28
321.05	1751.01
321.26	1701.86
321.47	1683.43
321.69	1751.01
321.90	1652.71
322.11	1681.38
322.32	1701.86
322.54	1783.78
322.75	1716.20
322.96	1845.22
323.18	1638.38
323.39	1640.42
323.60	1677.29
323.81	1746.92
324.03	1642.47
324.24	1683.43
324.45	1730.53
324.66	1609.70
324.88	1716.20
325.09	1828.84
325.30	1705.96
325.52	1748.97
325.73	1693.67
325.94	1632.23
326.15	1585.13
326.37	1722.34
326.58	1830.88
326.79	1742.82
327.00	1685.48
327.22	1740.77
327.43	1697.77
327.64	1656.81
327.85	1734.63
328.07	1742.82
328.28	1808.36
328.49	1665.00
328.70	1636.33
328.92	1695.72
329.13	1665.00
329.34	1710.05
329.55	1785.83
329.76	1763.30
329.98	1730.53
330.19	1816.55
330.40	1789.92
330.61	1763.30
330.83	1771.49
331.04	1658.85
331.25	1763.30
331.46	1669.09
331.68	1689.57
331.89	1775.59
332.10	1714.15
332.31	1640.42
332.52	1669.09
332.74	1759.21
332.95	1613.80
333.16	1742.82
333.37	1695.72
333.58	1693.67
333.80	1728.49
334.01	1640.42
334.22	1683.43
334.43	1632.23
334.64	1701.86
334.86	1697.77
335.07	1705.96
335.28	1802.21
335.49	1644.52
335.70	1722.34
335.92	1724.39
336.13	1884.13
336.34	1744.87
336.55	1726.44
336.76	1665.00
336.98	1589.22
337.19	1759.21
337.40	1849.32
337.61	1849.32
337.82	1642.47
338.04	1703.91
338.25	1587.18
338.46	1718.25
338.67	1777.64
338.88	1710.05
339.09	1595.37
339.31	1640.42
339.52	1599.46
339.73	1710.05
339.94	1691.62
340.15	1738.73
340.36	1660.90
340.58	1724.39
340.79	1669.09
341.00	1724.39
341.21	1624.04
341.42	1775.59
341.63	1734.63
341.85	1736.68
342.06	1654.76
342.27	1626.09
342.48	1746.92
342.69	1566.70
342.90	1722.34
343.12	1730.53
343.33	1705.96
343.54	1730.53
343.75	1826.79
343.96	1619.94
344.17	1558.50
344.38	1730.53
344.60	1714.15
344.81	1609.70
345.02	1724.39
345.23	1665.00
345.44	1765.35
345.65	1769.44
345.86	1753.06
346.07	1693.67
346.29	1609.70
346.50	1722.34
346.71	1757.16
346.92	1746.92
347.13	1785.83
347.34	1697.77
347.55	1734.63
347.76	1765.35
347.98	1628.14
348.19	1660.90
348.40	1834.98
348.61	1689.57
348.82	1751.01
349.03	1744.87
349.24	1701.86
349.45	1904.61
349.66	1656.81
349.88	1722.34
350.09	1669.09
350.30	1724.39
350.51	1726.44
350.72	1699.81
350.93	1640.42
351.14	1656.81
351.35	1708.01
351.56	1685.48
351.77	1746.92
351.99	1726.44
352.20	1783.78
352.41	1652.71
352.62	1685.48
352.83	1687.53
353.04	1642.47
353.25	1628.14
353.46	1740.77
353.67	1726.44
353.88	1628.14
354.09	1796.07
354.30	1722.34
354.52	1708.01
354.73	1699.81
354.94	1681.38
355.15	1656.81
355.36	1734.63
355.57	1636.33
355.78	1763.30
355.99	1652.71
356.20	1722.34
356.41	1742.82
356.62	1732.58
356.83	1683.43
357.04	1808.36
357.25	1632.23
357.46	1738.73
357.68	1591.27
357.89	1665.00
358.10	1734.63
358.31	1730.53
358.52	1779.68
358.73	1650.66
358.94	1593.32
359.15	1648.61
359.36	1751.01
359.57	1708.01
359.78	1658.85
359.99	1736.68
360.20	1654.76
360.41	1646.57
360.62	1716.20
360.83	1679.33
361.04	1656.81
361.25	1785.83
361.46	1794.02
361.67	1734.63
361.88	1769.44
362.09	1734.63
362.30	1722.34
362.51	1693.67
362.72	1726.44
362.93	1755.11
363.14	1810.40
363.35	1665.00
363.56	1714.15
363.78	1796.07
363.99	1689.57
364.20	1619.94
364.41	1728.49
364.62	1880.04
364.83	1734.63
365.04	1662.95
365.25	1658.85
365.46	1820.64
365.67	1648.61
365.88	1626.09
366.09	1708.01
366.30	1734.63
366.51	1736.68
366.72	1693.67
366.93	1681.38
367.14	1646.57
367.35	1767.40
367.56	1695.72
367.77	1761.25
367.98	1720.29
368.18	1710.05
368.39	1746.92
368.60	1609.70
368.81	1822.69
369.02	1724.39
369.23	1714.15
369.44	1531.88
369.65	1734.63
369.86	1771.49
370.07	1773.54
370.28	1613.80
370.49	1687.53
370.70	1652.71
370.91	1714.15
371.12	1695.72
371.33	1763.30
371.54	1691.62
371.75	1783.78
371.96	1560.55
372.17	1777.64
372.38	1705.96
372.59	1685.48
372.80	1705.96
373.01	1640.42
373.22	1701.86
373.43	1708.01
373.64	1621.99
373.85	1845.22
374.06	1839.08
374.26	1714.15
374.47	1728.49
374.68	1701.86
374.89	1654.76
375.10	1671.14
375.31	1796.07
375.52	1654.76
375.73	1701.86
375.94	1646.57
376.15	1808.36
376.36	1691.62
376.57	1691.62
376.78	1619.94
376.99	1714.15
377.20	1789.92
377.40	1714.15
377.61	1839.08
377.82	1595.37
378.03	1789.92
378.24	1689.57
378.45	1650.66
378.66	1703.91
378.87	1542.12
379.08	1621.99
379.29	1646.57
379.50	1736.68
379.71	1642.47
379.91	1726.44
380.12	1656.81
380.33	1740.77
380.54	1697.77
380.75	1722.34
380.96	1693.67
381.17	1779.68
381.38	1660.90
381.59	1732.58
381.80	1753.06
382.00	1791.97
382.21	1708.01
382.42	1816.55
382.63	1818.60
382.84	1806.31
383.05	1742.82
383.26	1767.40
383.47	1703.91
383.68	1746.92
383.88	1695.72
384.09	1730.53
384.30	1812.45
384.51	1781.73
384.72	1638.38
384.93	1667.05
385.14	1734.63
385.35	1665.00
385.55	1687.53
385.76	1808.36
385.97	1705.96
386.18	1705.96
386.39	1685.48
386.60	1695.72
386.81	1718.25
387.02	1665.00
387.22	1644.52
387.43	1773.54
387.64	1714.15
387.85	1818.60
388.06	2209.76
388.27	4237.25
388.48	6530.97
388.68	7948.17
388.89	9226.10
389.10	9533.29
389.31	8376.19
389.52	7409.55
389.73	6471.58
389.93	6047.65
390.14	5554.09
390.35	5035.96
390.56	4452.28
390.77	3700.68
390.98	2906.07
391.18	2439.13
391.39	2084.83
391.60	1888.23
391.81	1769.44
392.02	1726.44
392.23	1959.91
392.43	1777.64
392.64	1816.55
392.85	1722.34
393.06	1789.92
393.27	1804.26
393.47	1677.29
393.68	1703.91
393.89	1656.81
394.10	1767.40
394.31	1646.57
394.52	1613.80
394.72	1638.38
394.93	1832.93
395.14	1673.19
395.35	1724.39
395.56	1683.43
395.76	1804.26
395.97	1738.73
396.18	1855.46
396.39	1820.64
396.60	2021.35
396.80	1867.75
397.01	1826.79
397.22	1771.49
397.43	1849.32
397.64	1763.30
397.84	1812.45
398.05	1830.88
398.26	1734.63
398.47	1755.11
398.67	1798.12
398.88	1722.34
399.09	1785.83
399.30	1691.62
399.51	1763.30
399.71	1648.61
399.92	1626.09
400.13	1742.82
400.34	1701.86
400.54	1722.34
400.75	1808.36
400.96	1701.86
401.17	1837.03
401.37	1773.54
401.58	1693.67
401.79	1656.81
402.00	1806.31
402.21	1996.77
402.41	1896.42
402.62	2015.20
402.83	2045.92
403.04	2004.96
403.24	2009.06
403.45	1746.92
403.66	1947.62
403.87	1810.40
404.07	1865.70
404.28	1964.00
404.49	1839.08
404.70	1748.97
404.90	1785.83
405.11	1718.25
405.32	1658.85
405.52	1660.90
405.73	1650.66
405.94	1568.74
406.15	1732.58
406.35	1738.73
406.56	1769.44
406.77	1783.78
406.98	1763.30
407.18	1638.38
407.39	1796.07
407.60	1687.53
407.80	1755.11
408.01	1734.63
408.22	1732.58
408.43	1662.95
408.63	1808.36
408.84	1728.49
409.05	1759.21
409.25	1673.19
409.46	1650.66
409.67	1722.34
409.88	1720.29
410.08	1748.97
410.29	1665.00
410.50	1716.20
410.70	1798.12
410.91	1658.85
411.12	1781.73
411.32	1656.81
411.53	1705.96
411.74	1683.43
411.95	1744.87
412.15	1708.01
412.36	1757.16
412.57	1771.49
412.77	1748.97
412.98	1722.34
413.19	1724.39
413.39	1755.11
413.60	1785.83
413.81	1830.88
414.01	1753.06
414.22	1691.62
414.43	1742.82
414.63	1757.16
414.84	1787.88
415.05	1730.53
415.25	1640.42
415.46	1689.57
415.67	1681.38
415.87	1736.68
416.08	1681.38
416.29	1632.23
416.49	1720.29
416.70	1705.96
416.91	1671.14
417.11	1644.52
417.32	1798.12
417.53	1800.16
417.73	1751.01
417.94	1650.66
418.15	1697.77
418.35	1656.81
418.56	1673.19
418.77	1818.60
418.97	1714.15
419.18	1675.24
419.38	1564.65
419.59	1703.91
419.80	1734.63
420.00	1730.53
420.21	1701.86
420.42	1785.83
420.62	1673.19
420.83	1685.48
421.04	1675.24
421.24	1720.29
421.45	1779.68
421.65	1761.25
421.86	1705.96
422.07	1736.68
422.27	1730.53
422.48	1738.73
422.69	1619.94
422.89	1775.59
423.10	1671.14
423.30	1597.42
423.51	1724.39
423.72	1746.92
423.92	1718.25
424.13	1628.14
424.33	1732.58
424.54	1738.73
424.75	1708.01
424.95	1859.56
425.16	1753.06
425.36	1628.14
425.57	1759.21
425.78	1744.87
425.98	1734.63
426.19	1755.11
426.39	1730.53
426.60	1665.00
426.81	1751.01
427.01	1687.53
427.22	1636.33
427.42	1599.46
427.63	1671.14
427.83	1789.92
428.04	1773.54
428.25	1753.06
428.45	1767.40
428.66	1796.07
428.86	1740.77
429.07	1650.66
429.28	1740.77
429.48	1683.43
429.69	1658.85
429.89	1697.77
430.10	1636.33
430.30	1769.44
430.51	1773.54
430.71	1648.61
430.92	1619.94
431.13	1679.33
431.33	1779.68
431.54	1636.33
431.74	1757.16
431.95	1822.69
432.15	1746.92
432.36	1712.10
432.56	1732.58
432.77	1779.68
432.98	1865.70
433.18	1800.16
433.39	1636.33
433.59	1730.53
433.80	1814.50
434.00	1865.70
434.21	1693.67
434.41	1656.81
434.62	1773.54
434.82	1665.00
435.03	1697.77
435.23	1681.38
435.44	1656.81
435.64	1736.68
435.85	1736.68
436.06	1765.35
436.26	1783.78
436.47	1632.23
436.67	1636.33
436.88	1708.01
437.08	1746.92
437.29	1849.32
437.49	1667.05
437.70	1837.03
437.90	1681.38
438.11	1900.52
438.31	1759.21
438.52	1880.04
438.72	1820.64
438.93	1869.80
439.13	1798.12
439.34	1738.73
439.54	1738.73
439.75	1779.68
439.95	1781.73
440.16	1742.82
440.36	1699.81
440.57	1730.53
440.77	1796.07
440.98	1714.15
441.18	1724.39
441.39	1738.73
441.59	1695.72
441.80	1769.44
442.00	1716.20
442.21	1781.73
442.41	1695.72
442.62	1771.49
442.82	1703.91
443.02	1701.86
443.23	1722.34
443.43	1755.11
443.64	1791.97
443.84	1667.05
444.05	1843.17
444.25	1718.25
444.46	1787.88
444.66	1789.92
444.87	1908.71
445.07	1669.09
445.28	1708.01
445.48	1865.70
445.69	1787.88
445.89	1871.84
446.09	1705.96
446.30	2025.44
446.50	2588.63
446.71	3622.86
446.91	4151.23
447.12	4593.59
447.32	4673.46
447.53	4263.87
447.73	3674.06
447.93	3491.79
448.14	3131.34
448.34	2947.03
448.55	2838.48
448.75	2754.52
448.96	2658.26
449.16	2480.09
449.36	2271.20
449.57	2099.17
449.77	1902.56
449.98	1802.21
450.18	1861.60
450.39	1812.45
450.59	1777.64
450.79	1689.57
451.00	1730.53
451.20	1794.02
451.41	1685.48
451.61	1822.69
451.81	1738.73
452.02	1705.96
452.22	1685.48
452.43	1677.29
452.63	1705.96
452.84	1755.11
453.04	1658.85
453.24	1751.01
453.45	1744.87
453.65	1693.67
453.86	1787.88
454.06	1722.34
454.26	1644.52
454.47	1757.16
454.67	1796.07
454.87	1734.63
455.08	1759.21
455.28	1877.99
455.49	1746.92
455.69	1732.58
455.89	1816.55
456.10	1824.74
456.30	1646.57
456.51	1771.49
456.71	1796.07
456.91	1755.11
457.12	1718.25
457.32	1757.16
457.52	1658.85
457.73	1703.91
457.93	1746.92
458.14	1699.81
458.34	1685.48
458.54	1710.05
458.75	1714.15
458.95	1828.84
459.15	1728.49
459.36	1746.92
459.56	1720.29
459.76	1845.22
459.97	1667.05
460.17	1714.15
460.37	1765.35
460.58	1689.57
460.78	1710.05
460.99	1648.61
461.19	1718.25
461.39	1722.34
461.60	1656.81
461.80	1771.49
462.00	1722.34
462.21	1691.62
462.41	1660.90
462.61	1714.15
462.82	1681.38
463.02	1718.25
463.22	1773.54
463.43	1783.78
463.63	1699.81
463.83	1814.50
464.04	1779.68
464.24	1730.53
464.44	1634.28
464.64	1726.44
464.85	1724.39
465.05	1791.97
465.25	1716.20
465.46	1681.38
465.66	1722.34
465.86	1720.29
466.07	1732.58
466.27	1677.29
466.47	1640.42
466.68	1650.66
466.88	1828.84
467.08	1834.98
467.29	1767.40
467.49	1771.49
467.69	1783.78
467.89	1806.31
468.10	1697.77
468.30	1800.16
468.50	1708.01
468.71	1798.12
468.91	1648.61
469.11	1802.21
469.31	1722.34
469.52	1681.38
469.72	1744.87
469.92	1818.60
470.13	1759.21
470.33	1722.34
470.53	1769.44
470.73	1961.95
470.94	2353.12
471.14	2314.20
471.34	2547.67
471.54	2359.26
471.75	2263.01
471.95	2119.65
472.15	2093.02
472.36	2033.63
472.56	2090.98
472.76	2035.68
472.96	1943.52
473.17	1914.85
473.37	1880.04
473.57	1783.78
473.77	1791.97
473.98	1744.87
474.18	1757.16
474.38	1875.94
474.58	1716.20
474.79	1708.01
474.99	1775.59
475.19	1826.79
475.39	1658.85
475.60	1744.87
475.80	1734.63
476.00	1722.34
476.20	1634.28
476.41	1732.58
476.61	1785.83
476.81	1755.11
477.01	1619.94
477.21	1826.79
477.42	1798.12
477.62	1689.57
477.82	1681.38
478.02	1705.96
478.23	1722.34
478.43	1697.77
478.63	1718.25
478.83	1746.92
479.03	1765.35
479.24	1718.25
479.44	1861.60
479.64	1701.86
479.84	1572.84
480.04	1669.09
480.25	1765.35
480.45	1724.39
480.65	1767.40
480.85	1724.39
481.06	1732.58
481.26	1789.92
481.46	1724.39
481.66	1726.44
481.86	1658.85
482.06	1826.79
482.27	1650.66
482.47	1677.29
482.67	1718.25
482.87	1693.67
483.07	1826.79
483.28	1720.29
483.48	1732.58
483.68	1693.67
483.88	1648.61
484.08	1646.57
484.29	1724.39
484.49	1712.10
484.69	1652.71
484.89	1845.22
485.09	1794.02
485.29	1730.53
485.50	1832.93
485.70	1642.47
485.90	1828.84
486.10	1755.11
486.30	1736.68
486.50	1775.59
486.71	1767.40
486.91	1701.86
487.11	1785.83
487.31	1640.42
487.51	1730.53
487.71	1683.43
487.91	1660.90
488.12	1675.24
488.32	1624.04
488.52	1628.14
488.72	1558.50
488.92	1751.01
489.12	1828.84
489.32	1724.39
489.53	1642.47
489.73	1628.14
489.93	1865.70
490.13	1710.05
490.33	1650.66
490.53	1730.53
490.73	1771.49
490.94	1665.00
491.14	1726.44
491.34	1916.90
491.54	2088.93
491.74	2490.33
491.94	2942.93
492.14	2969.55
492.34	2998.23
492.54	2713.56
492.75	2484.19
492.95	2445.27
493.15	2314.20
493.35	2234.33
493.55	2238.43
493.75	2072.54
493.95	2105.31
494.15	1980.39
494.35	1920.99
494.56	1781.73
494.76	1796.07
494.96	1849.32
495.16	1755.11
495.36	1718.25
495.56	1761.25
495.76	1716.20
495.96	1734.63
496.16	1654.76
496.36	1769.44
496.56	1726.44
496.77	1812.45
496.97	1785.83
497.17	1812.45
497.37	1621.99
497.57	1802.21
497.77	1740.77
497.97	1597.42
498.17	1748.97
498.37	1714.15
498.57	1705.96
498.77	1697.77
498.97	1687.53
499.17	1845.22
499.38	1673.19
499.58	1794.02
499.78	1812.45
499.98	1781.73
500.18	1718.25
500.38	1705.96
500.58	1867.75
500.78	2447.32
500.98	4517.82
501.18	5586.86
501.38	6580.12
501.58	6934.42
501.78	6436.77
501.98	5359.53
502.18	4691.90
502.38	4216.77
502.58	4071.36
502.78	3723.21
502.98	3555.27
503.18	3379.15
503.38	3151.82
503.59	2721.75
503.79	2545.63
503.99	2422.75
504.19	2306.01
504.39	2191.33
504.59	2179.04
504.79	2029.54
504.99	2066.40
505.19	1937.38
505.39	1925.09
505.59	1966.05
505.79	1904.61
505.99	1861.60
506.19	1800.16
506.39	1894.37
506.59	1652.71
506.79	1724.39
506.99	1794.02
507.19	1773.54
507.39	1789.92
507.59	1628.14
507.79	1636.33
507.99	1636.33
508.19	1722.34
508.39	1730.53
508.59	1757.16
508.79	1798.12
508.99	1787.88
509.19	1677.29
509.39	1839.08
509.59	1724.39
509.79	1746.92
509.99	1665.00
510.19	1820.64
510.39	1824.74
510.59	1753.06
510.79	1714.15
510.99	1683.43
511.19	1810.40
511.39	1808.36
511.59	1722.34
511.79	1740.77
511.99	1673.19
512.19	1845.22
512.38	1779.68
512.58	1689.57
512.78	1767.40
512.98	1791.97
513.18	1890.28
513.38	1634.28
513.58	1763.30
513.78	1726.44
513.98	1658.85
514.18	1712.10
514.38	1724.39
514.58	1779.68
514.78	1705.96
514.98	1701.86
515.18	1742.82
515.38	1685.48
515.58	1941.47
515.78	1724.39
515.98	1662.95
516.18	1740.77
516.38	1748.97
516.57	1718.25
516.77	1730.53
516.97	1806.31
517.17	1761.25
517.37	1646.57
517.57	1802.21
517.77	1794.02
517.97	1701.86
518.17	1779.68
518.37	1665.00
518.57	1765.35
518.77	1693.67
518.97	1665.00
519.16	1808.36
519.36	1845.22
519.56	1718.25
519.76	1671.14
519.96	1699.81
520.16	1812.45
520.36	1689.57
520.56	1826.79
520.76	1685.48
520.96	1681.38
521.16	1787.88
521.35	1791.97
521.55	1882.08
521.75	1773.54
521.95	1640.42
522.15	1699.81
522.35	1660.90
522.55	1802.21
522.75	1736.68
522.95	1730.53
523.14	1648.61
523.34	1695.72
523.54	1699.81
523.74	1718.25
523.94	1814.50
524.14	1665.00
524.34	1794.02
524.54	1787.88
524.73	1814.50
524.93	1810.40
525.13	1757.16
525.33	1697.77
525.53	1875.94
525.73	1814.50
525.93	1722.34
526.13	1648.61
526.32	1695.72
526.52	1785.83
526.72	1742.82
526.92	1683.43
527.12	1724.39
527.32	1638.38
527.52	1822.69
527.71	1771.49
527.91	1738.73
528.11	1705.96
528.31	1730.53
528.51	1683.43
528.71	1771.49
528.90	1830.88
529.10	1828.84
529.30	1857.51
529.50	1638.38
529.70	1693.67
529.90	1779.68
530.09	1691.62
530.29	1705.96
530.49	1652.71
530.69	1875.94
530.89	1822.69
531.09	1783.78
531.28	1734.63
531.48	1771.49
531.68	1697.77
531.88	1748.97
532.08	1722.34
532.28	1732.58
532.47	1734.63
532.67	1802.21
532.87	1658.85
533.07	1740.77
533.27	1763.30
533.46	1726.44
533.66	1798.12
533.86	1730.53
534.06	1742.82
534.26	1744.87
534.45	1662.95
534.65	1783.78
534.85	1808.36
535.05	1611.75
535.25	1761.25
535.44	1665.00
535.64	1667.05
535.84	1693.67
536.04	1712.10
536.24	1730.53
536.43	1708.01
536.63	1685.48
536.83	1753.06
537.03	1714.15
537.22	1669.09
537.42	1595.37
537.62	1652.71
537.82	1638.38
538.02	1875.94
538.21	1810.40
538.41	1882.08
538.61	1796.07
538.81	1722.34
539.00	1832.93
539.20	1658.85
539.40	1677.29
539.60	1777.64
539.79	1816.55
539.99	1755.11
540.19	1718.25
540.39	1691.62
540.58	1787.88
540.78	1767.40
540.98	1755.11
541.18	1767.40
541.37	1759.21
541.57	1705.96
541.77	1759.21
541.97	1703.91
542.16	1615.85
542.36	1746.92
542.56	1894.37
542.76	1888.23
542.95	1777.64
543.15	1763.30
543.35	1779.68
543.54	1701.86
543.74	1693.67
543.94	1812.45
544.14	1695.72
544.33	1775.59
544.53	1730.53
544.73	1744.87
544.93	1685.48
545.12	1748.97
545.32	1726.44
545.52	1732.58
545.71	1689.57
545.91	1701.86
546.11	1871.84
546.30	1634.28
546.50	1763.30
546.70	1708.01
546.90	1724.39
547.09	1660.90
547.29	1755.11
547.49	1794.02
547.68	1744.87
547.88	1654.76
548.08	1757.16
548.27	2232.29
548.47	1740.77
548.67	1736.68
548.87	1744.87
549.06	1724.39
549.26	1771.49
549.46	1785.83
549.65	1658.85
549.85	1808.36
550.05	1800.16
550.24	1660.90
550.44	1730.53
550.64	1767.40
550.83	1683.43
551.03	1800.16
551.23	1781.73
551.42	1728.49
551.62	1849.32
551.82	1759.21
552.01	1787.88
552.21	1794.02
552.41	1716.20
552.60	1798.12
552.80	1724.39
553.00	1669.09
553.19	1830.88
553.39	1814.50
553.59	1691.62
553.78	1662.95
553.98	1730.53
554.17	1632.23
554.37	1767.40
554.57	1697.77
554.76	1617.90
554.96	1640.42
555.16	1705.96
555.35	1763.30
555.55	1789.92
555.75	1691.62
555.94	1796.07
556.14	1681.38
556.33	1804.26
556.53	1738.73
556.73	1726.44
556.92	1732.58
557.12	1828.84
557.32	1775.59
557.51	1804.26
557.71	1679.33
557.90	1818.60
558.10	1771.49
558.30	1742.82
558.49	1693.67
558.69	1767.40
558.88	1751.01
559.08	1730.53
559.28	1673.19
559.47	1726.44
559.67	1796.07
559.86	1816.55
560.06	1746.92
560.26	1761.25
560.45	1781.73
560.65	1714.15
560.84	1832.93
561.04	1632.23
561.24	1787.88
561.43	1660.90
561.63	1779.68
561.82	1781.73
562.02	1767.40
562.22	1689.57
562.41	1783.78
562.61	1769.44
562.80	1648.61
563.00	1951.71
563.19	1732.58
563.39	1834.98
563.59	1785.83
563.78	1701.86
563.98	1595.37
564.17	1714.15
564.37	1644.52
564.56	1703.91
564.76	1667.05
564.96	1918.95
565.15	1718.25
565.35	1767.40
565.54	1724.39
565.74	1726.44
565.93	1845.22
566.13	1722.34
566.32	1751.01
566.52	1757.16
566.71	1681.38
566.91	1740.77
567.11	1691.62
567.30	1705.96
567.50	1753.06
567.69	1767.40
567.89	1753.06
568.08	1542.12
568.28	1673.19
568.47	1626.09
568.67	1755.11
568.86	1701.86
569.06	1787.88
569.25	1738.73
569.45	1630.18
569.64	1730.53
569.84	1781.73
570.04	1738.73
570.23	1701.86
570.43	1697.77
570.62	1798.12
570.82	1890.28
571.01	1697.77
571.21	1714.15
571.40	1671.14
571.60	1783.78
571.79	1849.32
571.99	1720.29
572.18	1714.15
572.38	1763.30
572.57	1726.44
572.77	1765.35
572.96	1912.80
573.16	1740.77
573.35	1716.20
573.55	1757.16
573.74	1777.64
573.94	1748.97
574.13	1751.01
574.33	1837.03
574.52	1877.99
574.71	1667.05
574.91	1808.36
575.10	1681.38
575.30	1689.57
575.49	1759.21
575.69	1730.53
575.88	1730.53
576.08	1781.73
576.27	1814.50
576.47	1806.31
576.66	1834.98
576.86	1804.26
577.05	1794.02
577.25	1669.09
577.44	1888.23
577.64	1755.11
577.83	1804.26
578.02	1730.53
578.22	1753.06
578.41	1775.59
578.61	1728.49
578.80	1632.23
579.00	1765.35
579.19	1763.30
579.39	1765.35
579.58	1851.36
579.77	1765.35
579.97	1855.46
580.16	1824.74
580.36	1849.32
580.55	1894.37
580.75	1771.49
580.94	1740.77
581.13	1824.74
581.33	1894.37
581.52	1673.19
581.72	1855.46
581.91	1886.18
582.11	1767.40
582.30	1816.55
582.49	1865.70
582.69	1949.67
582.88	1812.45
583.08	1775.59
583.27	1757.16
583.47	1714.15
583.66	1742.82
583.85	1785.83
584.05	1828.84
584.24	1789.92
584.44	1798.12
584.63	1845.22
584.82	1824.74
585.02	1853.41
585.21	1808.36
585.41	1751.01
585.60	1855.46
585.79	1873.89
585.99	1996.77
586.18	1902.56
586.37	2279.39
586.57	3368.91
586.76	9490.29
586.96	23803.54
587.15	33023.50
587.34	38731.18
587.54	40732.05
587.73	34952.68
587.93	25349.76
588.12	20639.43
588.31	17465.08
588.51	15572.75
588.70	14503.71
588.89	13508.40
589.09	12058.44
589.28	10774.36
589.47	9113.46
589.67	7626.64
589.86	6104.99
590.06	4808.63
590.25	3782.60
590.44	2969.55
590.64	2545.63
590.83	2248.67
591.02	2097.12
591.22	1937.38
591.41	1943.52
591.60	1787.88
591.80	1988.58
591.99	1773.54
592.18	1785.83
592.38	1865.70
592.57	1763.30
592.76	1710.05
592.96	1812.45
593.15	1828.84
593.34	1794.02
593.54	1755.11
593.73	1832.93
593.92	1832.93
594.12	1751.01
594.31	1751.01
594.50	1839.08
594.70	1822.69
594.89	1904.61
595.08	1701.86
595.28	1847.27
595.47	1920.99
595.66	1826.79
595.86	1665.00
596.05	1763.30
596.24	1691.62
596.43	1880.04
596.63	1781.73
596.82	1734.63
597.01	1738.73
597.21	1830.88
597.40	1787.88
597.59	1730.53
597.79	1673.19
597.98	1703.91
598.17	1865.70
598.36	1744.87
598.56	1757.16
598.75	1726.44
598.94	1683.43
599.14	1765.35
599.33	1718.25
599.52	1683.43
599.71	1734.63
599.91	1769.44
600.10	1730.53
600.29	1705.96
600.48	1767.40
600.68	1708.01
600.87	1783.78
601.06	1630.18
601.26	1703.91
601.45	1767.40
601.64	1726.44
601.83	1818.60
602.03	1710.05
602.22	1687.53
602.41	1761.25
602.60	1869.80
602.80	1804.26
602.99	1730.53
603.18	1677.29
603.37	1806.31
603.57	1726.44
603.76	1796.07
603.95	1804.26
604.14	1751.01
604.34	1673.19
604.53	1665.00
604.72	1738.73
604.91	1769.44
605.10	1751.01
605.30	1732.58
605.49	1888.23
605.68	1744.87
605.87	1837.03
606.07	1615.85
606.26	1746.92
606.45	1798.12
606.64	1722.34
606.84	1755.11
607.03	1720.29
607.22	1798.12
607.41	1652.71
607.60	1662.95
607.80	1718.25
607.99	1720.29
608.18	1763.30
608.37	1669.09
608.56	1730.53
608.76	1789.92
608.95	1796.07
609.14	1755.11
609.33	1746.92
609.52	1810.40
609.72	1685.48
609.91	1839.08
610.10	1773.54
610.29	1671.14
610.48	1796.07
610.68	1765.35
610.87	1818.60
611.06	1681.38
611.25	1826.79
611.44	1789.92
611.63	1621.99
611.83	1734.63
612.02	1599.46
612.21	1724.39
612.40	1621.99
612.59	1757.16
612.79	1652.71
612.98	1740.77
613.17	1869.80
613.36	1648.61
613.55	1794.02
613.74	1644.52
613.93	1658.85
614.13	1748.97
614.32	1679.33
614.51	1728.49
614.70	1679.33
614.89	1689.57
615.08	1791.97
615.28	2060.26
615.47	1613.80
615.66	1769.44
615.85	1724.39
616.04	1822.69
616.23	1755.11
616.42	1761.25
616.62	1701.86
616.81	1763.30
617.00	1681.38
617.19	1730.53
617.38	1751.01
617.57	1753.06
617.76	1708.01
617.95	1775.59
618.15	1705.96
618.34	1820.64
618.53	1615.85
618.72	1816.55
618.91	1800.16
619.10	1771.49
619.29	1652.71
619.48	1708.01
619.68	1630.18
619.87	1720.29
620.06	1652.71
620.25	1687.53
620.44	1701.86
620.63	1708.01
620.82	1712.10
621.01	1712.10
621.20	1734.63
621.39	1787.88
621.59	1697.77
621.78	1751.01
621.97	1687.53
622.16	1783.78
622.35	1693.67
622.54	1812.45
622.73	1796.07
622.92	1671.14
623.11	1810.40
623.30	1615.85
623.49	1771.49
623.68	1685.48
623.88	1845.22
624.07	1699.81
624.26	1705.96
624.45	1634.28
624.64	1769.44
624.83	1720.29
625.02	1712.10
625.21	1730.53
625.40	1679.33
625.59	1767.40
625.78	1773.54
625.97	1814.50
626.16	1869.80
626.35	1738.73
626.54	1665.00
626.74	1816.55
626.93	1615.85
627.12	1708.01
627.31	1757.16
627.50	1677.29
627.69	1722.34
627.88	1599.46
628.07	1783.78
628.26	1638.38
628.45	1712.10
628.64	1710.05
628.83	1654.76
629.02	1630.18
629.21	1845.22
629.40	1765.35
629.59	1693.67
629.78	1697.77
629.97	1712.10
630.16	1628.14
630.35	1687.53
630.54	1687.53
630.73	1648.61
630.92	1763.30
631.11	1728.49
631.30	1816.55
631.49	1781.73
631.68	1654.76
631.87	1845.22
632.06	1628.14
632.25	1828.84
632.44	1701.86
632.63	1798.12
632.82	1748.97
633.01	1628.14
633.20	1689.57
633.39	1746.92
633.58	1554.41
633.77	1722.34
633.96	1798.12
634.15	1728.49
634.34	1722.34
634.53	1751.01
634.72	1755.11
634.91	1675.24
635.10	1730.53
635.29	1816.55
635.48	1714.15
635.67	1679.33
635.86	1628.14
636.05	1763.30
636.24	1689.57
636.43	1662.95
636.62	1730.53
636.81	1603.56
637.00	1718.25
637.19	1742.82
637.38	1705.96
637.57	1710.05
637.76	1732.58
637.95	1679.33
638.14	1722.34
638.33	1710.05
638.52	1708.01
638.71	1652.71
638.89	1619.94
639.08	1830.88
639.27	1681.38
639.46	1619.94
639.65	1771.49
639.84	1781.73
640.03	1787.88
640.22	1703.91
640.41	1849.32
640.60	1658.85
640.79	1751.01
640.98	1693.67
641.17	1708.01
641.36	1677.29
641.55	1665.00
641.74	1693.67
641.92	1650.66
642.11	1705.96
642.30	1640.42
642.49	1585.13
642.68	1640.42
642.87	1791.97
643.06	1789.92
643.25	1710.05
643.44	1656.81
643.63	1656.81
643.82	1751.01
644.00	1697.77
644.19	1808.36
644.38	1656.81
644.57	1734.63
644.76	1695.72
644.95	1718.25
645.14	1732.58
645.33	1689.57
645.52	1746.92
645.71	1697.77
645.89	1705.96
646.08	1738.73
646.27	1689.57
646.46	1837.03
646.65	1697.77
646.84	1705.96
647.03	1667.05
647.22	1806.31
647.40	1726.44
647.59	1677.29
647.78	1636.33
647.97	1705.96
648.16	1656.81
648.35	1808.36
648.54	1771.49
648.73	1744.87
648.91	1720.29
649.10	1718.25
649.29	1767.40
649.48	1724.39
649.67	1697.77
649.86	1705.96
650.05	1681.38
650.23	1734.63
650.42	1693.67
650.61	1796.07
650.80	1769.44
650.99	1861.60
651.18	1710.05
651.36	1816.55
651.55	1669.09
651.74	1751.01
651.93	1662.95
652.12	1656.81
652.31	1742.82
652.49	1736.68
652.68	1646.57
652.87	1742.82
653.06	1812.45
653.25	1884.13
653.44	1660.90
653.62	1755.11
653.81	1656.81
654.00	1755.11
654.19	1796.07
654.38	1875.94
654.56	1787.88
654.75	1685.48
654.94	1794.02
655.13	1759.21
655.32	1710.05
655.51	1794.02
655.69	1667.05
655.88	1875.94
656.07	1683.43
656.26	1804.26
656.45	1667.05
656.63	1757.16
656.82	1734.63
657.01	1736.68
657.20	1644.52
657.38	1751.01
657.57	1732.58
657.76	1658.85
657.95	1779.68
658.14	1667.05
658.32	1730.53
658.51	1681.38
658.70	1665.00
658.89	1679.33
659.08	1693.67
659.26	1791.97
659.45	1716.20
659.64	1740.77
659.83	1759.21
660.01	1929.19
660.20	1697.77
660.39	1865.70
660.58	1605.61
660.76	1757.16
660.95	1699.81
661.14	1687.53
661.33	1662.95
661.51	1785.83
661.70	1771.49
661.89	1714.15
662.08	1751.01
662.26	1650.66
662.45	1691.62
662.64	1814.50
662.83	1767.40
663.01	1699.81
663.20	1742.82
663.39	1839.08
663.58	1689.57
663.76	1738.73
663.95	1751.01
664.14	1658.85
664.32	1681.38
664.51	1683.43
664.70	1665.00
664.89	1640.42
665.07	1656.81
665.26	1734.63
665.45	1665.00
665.64	1742.82
665.82	1730.53
666.01	1769.44
666.20	1705.96
666.38	1785.83
666.57	1785.83
666.76	2228.19
666.95	4446.14
667.13	10159.97
667.32	14706.46
667.51	17186.55
667.69	18509.54
667.88	17174.27
668.07	11763.53
668.25	9160.56
668.44	7894.92
668.63	7038.87
668.81	6637.47
669.00	5980.07
669.19	5535.66
669.38	4988.85
669.56	4427.71
669.75	3919.81
669.94	3309.52
670.12	2815.96
670.31	2586.58
670.50	2238.43
670.68	2013.15
670.87	1935.33
671.06	1718.25
671.24	1826.79
671.43	1877.99
671.62	1804.26
671.80	1691.62
671.99	1787.88
672.18	1767.40
672.36	1787.88
672.55	1740.77
672.74	1675.24
672.92	1687.53
673.11	1722.34
673.29	1673.19
673.48	1734.63
673.67	1652.71
673.85	1904.61
674.04	1632.23
674.23	1722.34
674.41	1845.22
674.60	1673.19
674.79	1695.72
674.97	1683.43
675.16	1748.97
675.34	1751.01
675.53	1648.61
675.72	1728.49
675.90	1751.01
676.09	1662.95
676.28	1640.42
676.46	1603.56
676.65	1724.39
676.83	1677.29
677.02	1736.68
677.21	1699.81
677.39	1699.81
677.58	1726.44
677.77	1687.53
677.95	1640.42
678.14	1779.68
678.32	1691.62
678.51	1753.06
678.70	1869.80
678.88	1646.57
679.07	1652.71
679.25	1644.52
679.44	1740.77
679.63	1605.61
679.81	1683.43
680.00	1787.88
680.18	1730.53
680.37	1826.79
680.55	1689.57
680.74	1662.95
680.93	1595.37
681.11	1687.53
681.30	1658.85
681.48	1773.54
681.67	1751.01
681.85	1791.97
682.04	1650.66
682.23	1910.75
682.41	1705.96
682.60	1648.61
682.78	1673.19
682.97	1624.04
683.15	1693.67
683.34	1646.57
683.53	1740.77
683.71	1726.44
683.90	1736.68
684.08	1834.98
684.27	1769.44
684.45	1748.97
684.64	1761.25
684.82	1697.77
685.01	1759.21
685.19	1673.19
685.38	1734.63
685.57	1714.15
685.75	1748.97
685.94	1693.67
686.12	1685.48
686.31	1710.05
686.49	1812.45
686.68	1578.98
686.86	1746.92
687.05	1740.77
687.23	1826.79
687.42	1724.39
687.60	1636.33
687.79	1722.34
687.97	1791.97
688.16	1699.81
688.34	1732.58
688.53	1640.42
688.71	1751.01
688.90	1804.26
689.08	1714.15
689.27	1656.81
689.45	1685.48
689.64	1697.77
689.82	1675.24
690.01	1646.57
690.19	1716.20
690.38	1683.43
690.56	1703.91
690.75	1617.90
690.93	1675.24
691.12	1662.95
691.30	1691.62
691.49	1634.28
691.67	1763.30
691.86	1794.02
692.04	1662.95
692.23	1714.15
692.41	1695.72
692.60	1789.92
692.78	1800.16
692.97	1775.59
693.15	1775.59
693.34	1818.60
693.52	1658.85
693.71	1683.43
693.89	1722.34
694.08	1624.04
694.26	1705.96
694.44	1751.01
694.63	1789.92
694.81	1613.80
695.00	1632.23
695.18	1738.73
695.37	1847.27
695.55	1718.25
695.74	1611.75
695.92	1626.09
696.10	1804.26
696.29	1550.31
696.47	1708.01
696.66	1632.23
696.84	1710.05
697.03	1669.09
697.21	1796.07
697.40	2342.88
697.58	1773.54
697.76	1693.67
697.95	1695.72
698.13	1703.91
698.32	1714.15
698.50	1644.52
698.68	1720.29
698.87	1693.67
699.05	1849.32
699.24	1699.81
699.42	1697.77
699.61	1679.33
699.79	1621.99
699.97	1691.62
700.16	1607.66
700.34	1630.18
700.53	1705.96
700.71	1751.01
700.89	1767.40
701.08	1648.61
701.26	1685.48
701.45	2162.66
701.63	1648.61
701.81	1746.92
702.00	1656.81
702.18	1648.61
702.37	1718.25
702.55	1681.38
702.73	1736.68
702.92	1609.70
703.10	1800.16
703.28	1662.95
703.47	1656.81
703.65	1759.21
703.84	1777.64
704.02	1632.23
704.20	1781.73
704.39	1736.68
704.57	1648.61
704.75	1712.10
704.94	1710.05
705.12	1662.95
705.30	1783.78
705.49	2269.15
705.67	4263.87
705.86	9336.69
706.04	12240.71
706.22	14022.44
706.41	14817.05
706.59	13369.14
706.77	9512.81
706.96	6942.61
707.14	6461.34
707.32	5875.62
707.51	5371.82
707.69	4782.01
707.87	4143.04
708.06	3588.04
708.24	2840.53
708.42	2441.18
708.61	2240.48
708.79	1933.28
708.97	1826.79
709.16	1808.36
709.34	1787.88
709.52	1755.11
709.71	1724.39
709.89	1761.25
710.07	1722.34
710.26	1683.43
710.44	1681.38
710.62	1781.73
710.80	1654.76
710.99	1755.11
711.17	1769.44
711.35	1708.01
711.54	1634.28
711.72	1794.02
711.90	1691.62
712.09	1732.58
712.27	1632.23
712.45	1681.38
712.63	1656.81
712.82	1597.42
713.00	1667.05
713.18	1738.73
713.37	1781.73
713.55	1738.73
713.73	1767.40
713.91	1738.73
714.10	1740.77
714.28	1751.01
714.46	1669.09
714.65	1789.92
714.83	1699.81
715.01	1775.59
715.19	1728.49
715.38	1695.72
715.56	1710.05
715.74	1708.01
715.92	1685.48
716.11	1800.16
716.29	1660.90
716.47	1703.91
716.65	1695.72
716.84	1642.47
717.02	1738.73
717.20	1677.29
717.38	1650.66
717.57	1689.57
717.75	1718.25
717.93	1681.38
718.11	1740.77
718.30	1621.99
718.48	1703.91
718.66	1730.53
718.84	1746.92
719.03	1726.44
719.21	1585.13
719.39	1820.64
719.57	1812.45
719.75	1763.30
719.94	1658.85
720.12	1712.10
720.30	1716.20
720.48	1732.58
720.67	1705.96
720.85	1609.70
721.03	1662.95
721.21	1652.71
721.39	1761.25
721.58	1687.53
721.76	1615.85
721.94	1732.58
722.12	1730.53
722.30	1834.98
722.49	1642.47
722.67	1736.68
722.85	1757.16
723.03	1509.35
723.21	1587.18
723.40	1730.53
723.58	1767.40
723.76	1734.63
723.94	1710.05
724.12	1658.85
724.30	1755.11
724.49	1779.68
724.67	1667.05
724.85	1714.15
725.03	1581.03
725.21	1806.31
725.40	1687.53
725.58	1611.75
725.76	1779.68
725.94	1636.33
726.12	1693.67
726.30	1718.25
726.49	1695.72
726.67	1716.20
726.85	1607.66
727.03	1820.64
727.21	2125.79
727.39	2932.69
727.57	3807.17
727.76	4104.13
727.94	4456.38
728.12	4313.02
728.30	3606.47
728.48	2912.21
728.66	2672.60
728.84	2504.67
729.03	2250.72
729.21	2148.32
729.39	1968.10
729.57	1869.80
729.75	1773.54
729.93	1849.32
730.11	1693.67
730.30	1730.53
730.48	1646.57
730.66	1873.89
730.84	1738.73
731.02	1712.10
731.20	1642.47
731.38	1765.35
731.56	1671.14
731.74	1697.77
731.93	1732.58
732.11	1703.91
732.29	1675.24
732.47	1744.87
732.65	1714.15
732.83	1773.54
733.01	1748.97
733.19	1681.38
733.37	1787.88
733.56	1732.58
733.74	1691.62
733.92	1828.84
734.10	1648.61
734.28	1703.91
734.46	1589.22
734.64	1699.81
734.82	1665.00
735.00	1693.67
735.18	1677.29
735.36	1697.77
735.54	1701.86
735.73	1716.20
735.91	1740.77
736.09	1755.11
736.27	1712.10
736.45	1724.39
736.63	1619.94
736.81	1763.30
736.99	1779.68
737.17	1734.63
737.35	1724.39
737.53	1720.29
737.71	1714.15
737.89	1763.30
738.07	1689.57
738.25	1650.66
738.43	1607.66
738.61	1632.23
738.80	1652.71
738.98	1636.33
739.16	1734.63
739.34	1656.81
739.52	1775.59
739.70	1742.82
739.88	1701.86
740.06	1724.39
740.24	1624.04
740.42	1714.15
740.60	1626.09
740.78	1658.85
740.96	1757.16
741.14	1697.77
741.32	1755.11
741.50	1683.43
741.68	1759.21
741.86	1644.52
742.04	1724.39
742.22	1624.04
742.40	1669.09
742.58	1746.92
742.76	1656.81
742.94	1779.68
743.12	1617.90
743.30	1697.77
743.48	1712.10
743.66	1691.62
743.84	1724.39
744.02	1677.29
744.20	1736.68
744.38	1603.56
744.56	1724.39
744.74	1859.56
744.92	1732.58
745.10	1765.35
745.28	1705.96
745.46	1693.67
745.64	1701.86
745.82	1742.82
746.00	1675.24
746.18	1712.10
746.36	1593.32
746.54	1748.97
746.72	1705.96
746.90	1619.94
747.08	1773.54
747.26	1660.90
747.44	1755.11
747.62	1783.78
747.80	1734.63
747.98	1773.54
748.15	1654.76
748.33	1814.50
748.51	1701.86
748.69	1789.92
748.87	1634.28
749.05	1624.04
749.23	1652.71
749.41	1763.30
749.59	1685.48
749.77	1769.44
749.95	1650.66
750.13	1613.80
750.31	1701.86
750.49	1779.68
750.67	1800.16
750.85	1808.36
751.03	1708.01
751.20	1832.93
751.38	1689.57
751.56	1640.42
751.74	1648.61
751.92	1650.66
752.10	1646.57
752.28	1712.10
752.46	1662.95
752.64	1652.71
752.82	1683.43
753.00	1736.68
753.18	1703.91
753.35	1650.66
753.53	1726.44
753.71	1601.51
753.89	1744.87
754.07	1726.44
754.25	1744.87
754.43	1736.68
754.61	1615.85
754.79	1652.71
754.97	1638.38
755.14	1808.36
755.32	1636.33
755.50	1781.73
755.68	1656.81
755.86	1593.32
756.04	1697.77
756.22	1650.66
756.40	1705.96
756.57	1865.70
756.75	1800.16
756.93	1775.59
757.11	1761.25
757.29	1681.38
757.47	1683.43
757.65	1578.98
757.82	1581.03
758.00	1578.98
758.18	1705.96
758.36	1718.25
758.54	1777.64
758.72	1630.18
758.90	1753.06
759.07	1710.05
759.25	1628.14
759.43	1673.19
759.61	1683.43
759.79	2248.67
759.97	1714.15
760.15	1703.91
760.32	1673.19
760.50	1681.38
760.68	1789.92
760.86	1703.91
761.04	1796.07
761.22	1740.77
761.39	1740.77
761.57	1746.92
761.75	1710.05
761.93	1724.39
762.11	1634.28
762.28	1726.44
762.46	1648.61
762.64	1699.81
762.82	1609.70
763.00	1726.44
763.18	1861.60
763.35	1667.05
763.53	1761.25
763.71	1607.66
763.89	1656.81
764.07	1775.59
764.24	1699.81
764.42	1734.63
764.60	1716.20
764.78	1796.07
764.96	1767.40
765.13	1761.25
765.31	1654.76
765.49	1667.05
765.67	1640.42
765.84	1615.85
766.02	1640.42
766.20	1675.24
766.38	1751.01
766.56	1832.93
766.73	1656.81
766.91	1640.42
767.09	1738.73
767.27	1677.29
767.44	1724.39
767.62	1722.34
767.80	1689.57
767.98	1640.42
768.15	1667.05
768.33	1800.16
768.51	1773.54
768.69	1669.09
768.87	1759.21
769.04	1703.91
769.22	1791.97
769.40	1832.93
769.58	1851.36
769.75	1656.81
769.93	1755.11
770.11	1675.24
770.28	1603.56
770.46	1675.24
770.64	1703.91
770.82	1660.90
770.99	1705.96
771.17	1691.62
771.35	1599.46
771.53	1708.01
771.70	1718.25
771.88	1722.34
772.06	1648.61
772.23	1757.16
772.41	1740.77
772.59	1691.62
772.77	1654.76
772.94	1675.24
773.12	1746.92
773.30	1658.85
773.47	1736.68
773.65	1619.94
773.83	1724.39
774.01	1712.10
774.18	1583.08
774.36	1673.19
774.54	1603.56
774.71	1691.62
774.89	1681.38
775.07	1656.81
775.24	1658.85
775.42	1665.00
775.60	1802.21
775.78	1648.61
775.95	1535.98
776.13	1656.81
776.31	1531.88
776.48	1777.64
776.66	1771.49
776.84	1642.47
777.01	1648.61
777.19	1617.90
777.37	1689.57
777.54	1810.40
777.72	1791.97
777.90	1656.81
778.07	1705.96
778.25	1898.47
778.43	1740.77
778.60	1660.90
778.78	1751.01
778.96	1810.40
779.13	1656.81
779.31	1734.63
779.49	1689.57
779.66	1689.57
779.84	1718.25
780.01	1681.38
780.19	1644.52
780.37	1742.82
780.54	1710.05
780.72	1675.24
780.90	1732.58
781.07	1656.81
781.25	1640.42
781.43	1757.16
781.60	1691.62
781.78	1781.73
781.95	1691.62
782.13	1695.72
782.31	1718.25
782.48	1593.32
782.66	1695.72
782.83	1834.98
783.01	1701.86
783.19	1718.25
783.36	1714.15
783.54	1656.81
783.72	1714.15
783.89	1667.05
784.07	1683.43
784.24	1753.06
784.42	1738.73
784.60	1591.27
784.77	1705.96
784.95	1624.04
785.12	1585.13
785.30	1671.14
785.47	1613.80
785.65	1605.61
785.83	1744.87
786.00	1710.05
786.18	1738.73
786.35	1675.24
786.53	1640.42
786.71	1773.54
786.88	1755.11
787.06	1785.83
787.23	1724.39
787.41	1722.34
787.58	1660.90
787.76	1640.42
787.94	1742.82
788.11	1701.86
788.29	1660.90
788.46	1701.86
788.64	1656.81
788.81	1697.77
788.99	1560.55
789.16	1650.66
789.34	1736.68
789.52	1578.98
789.69	1736.68
789.87	1656.81
790.04	1677.29
790.22	1652.71
790.39	1859.56
790.57	1642.47
790.74	1681.38
790.92	1720.29
791.09	1624.04
791.27	1693.67
791.44	1841.12
791.62	1619.94
791.79	1665.00
791.97	1646.57
792.15	1849.32
792.32	1675.24
792.50	1738.73
792.67	1763.30
792.85	1820.64
793.02	1673.19
793.20	1662.95
793.37	1601.51
793.55	1779.68
793.72	1601.51
793.90	1710.05
794.07	1667.05
794.25	1685.48
794.42	1673.19
794.60	1656.81
794.77	1730.53
794.95	1734.63
795.12	1722.34
795.30	1705.96
795.47	1640.42
795.65	1841.12
795.82	1708.01
796.00	1634.28
796.17	1673.19
796.34	1650.66
796.52	1753.06
796.69	1716.20
796.87	1773.54
797.04	1650.66
797.22	1748.97
797.39	1751.01
797.57	1740.77
797.74	1738.73
797.92	1746.92
798.09	1675.24
798.27	1742.82
798.44	1673.19
798.62	1644.52
798.79	1665.00
798.96	1783.78
799.14	1701.86
799.31	1736.68
799.49	1722.34
799.66	1667.05
799.84	1699.81
800.01	1636.33
800.19	1716.20
800.36	1654.76
800.53	1656.81
800.71	1609.70
800.88	1814.50
801.06	1665.00
801.23	1714.15
801.41	1697.77
801.58	1693.67
801.75	1730.53
801.93	1746.92
802.10	1755.11
802.28	1785.83
802.45	1685.48
802.63	1714.15
802.80	1843.17
802.97	1691.62
803.15	1654.76
803.32	1619.94
803.50	1611.75
803.67	1685.48
803.84	1624.04
804.02	1656.81
804.19	1732.58
804.37	1609.70
804.54	1667.05
804.71	1703.91
804.89	1693.67
805.06	1646.57
805.24	1656.81
805.41	1611.75
805.58	1720.29
805.76	1789.92
805.93	1673.19
806.10	1734.63
806.28	1673.19
806.45	1748.97
806.63	1673.19
806.80	1683.43
806.97	1734.63
807.15	1708.01
807.32	1781.73
807.49	1738.73
807.67	1669.09
807.84	1742.82
808.01	1609.70
808.19	1748.97
808.36	1808.36
808.54	1697.77
808.71	1648.61
808.88	1677.29
809.06	1765.35
809.23	1826.79
809.40	1767.40
809.58	1734.63
809.75	1742.82
809.92	1634.28
810.10	1787.88
810.27	1665.00
810.44	1718.25
810.62	1646.57
810.79	1708.01
810.96	1658.85
811.14	1695.72
811.31	1746.92
811.48	1705.96
811.66	1726.44
811.83	1789.92
812.00	1691.62
812.18	1777.64
812.35	1804.26
812.52	1650.66
812.69	1609.70
812.87	1685.48
813.04	1675.24
813.21	1775.59
813.39	1632.23
813.56	1669.09
813.73	1726.44
813.91	1646.57
814.08	1722.34
814.25	1718.25
814.42	1574.89
814.60	1683.43
814.77	1742.82
814.94	1679.33
815.12	1738.73
815.29	1710.05
815.46	1640.42
815.63	1662.95
815.81	1630.18
815.98	1703.91
816.15	1685.48
816.33	1757.16
816.50	1701.86
816.67	1693.67
816.84	1660.90
817.02	1675.24
817.19	1753.06
817.36	1677.29
817.53	1796.07
817.71	1679.33
817.88	1738.73
818.05	1658.85
818.22	1720.29
818.40	1808.36
818.57	1626.09
818.74	1730.53
818.91	1665.00
819.09	1751.01
819.26	1804.26
819.43	1705.96
819.60	1607.66
819.78	1705.96
819.95	1822.69
820.12	1679.33
820.29	1839.08
820.47	1763.30
820.64	1673.19
820.81	1611.75
820.98	1636.33
821.15	1693.67
821.33	1808.36
821.50	1689.57
821.67	1781.73
821.84	1683.43
822.02	1658.85
822.19	1753.06
822.36	1630.18
822.53	1712.10
822.70	1638.38
822.88	1703.91
823.05	1849.32
823.22	1708.01
823.39	1753.06
823.56	1654.76
823.74	1771.49
823.91	1705.96
824.08	1654.76
824.25	1615.85
824.42	1761.25
824.60	1642.47
824.77	1697.77
824.94	1648.61
825.11	1705.96
825.28	1669.09
825.45	1765.35
825.63	1626.09
825.80	1607.66
825.97	1726.44
826.14	1652.71
826.31	1533.93
826.48	1634.28
826.66	1665.00
826.83	1746.92
827.00	1744.87
827.17	1654.76
827.34	1613.80
827.51	1728.49
827.69	1611.75
827.86	1570.79
828.03	1740.77
828.20	1675.24
828.37	1730.53
828.54	1685.48
828.71	1718.25
828.89	1757.16
829.06	1722.34
829.23	1738.73
829.40	1662.95
829.57	1675.24
829.74	1673.19
829.91	1581.03
830.09	1744.87
830.26	1662.95
830.43	1777.64
830.60	1634.28
830.77	1701.86
830.94	1763.30
831.11	1744.87
831.28	1724.39
831.46	1716.20
831.63	1650.66
831.80	1740.77
831.97	1730.53
832.14	1671.14
832.31	1722.34
832.48	1779.68
832.65	1826.79
832.82	1695.72
832.99	1697.77
833.17	1611.75
833.34	1761.25
833.51	1728.49
833.68	1626.09
833.85	1701.86
834.02	1673.19
834.19	1662.95
834.36	1628.14
834.53	1683.43
834.70	1753.06
834.87	1685.48
835.04	1675.24
835.22	1640.42
835.39	1673.19
835.56	1589.22
835.73	1636.33
835.90	1773.54
836.07	1712.10
836.24	1810.40
836.41	1558.50
836.58	1662.95
836.75	1789.92
836.92	1734.63
837.09	1665.00
837.26	1695.72
837.43	1642.47
837.60	1767.40
837.77	1746.92
837.94	1726.44
838.12	1708.01
838.29	1753.06
838.46	1634.28
838.63	1658.85
838.80	1771.49
838.97	1757.16
839.14	1738.73
839.31	1710.05
839.48	1724.39
839.65	1634.28
839.82	1679.33
839.99	1695.72
840.16	1699.81
840.33	1671.14
840.50	1746.92
840.67	1650.66
840.84	1527.78
841.01	1673.19
841.18	1730.53
841.35	1691.62
841.52	1775.59
841.69	1791.97
841.86	1734.63
842.03	1656.81
842.20	1775.59
842.37	1656.81
842.54	1685.48
842.71	1728.49
842.88	1607.66
843.05	1722.34
843.22	1654.76
843.39	1740.77
843.56	1740.77
843.73	1738.73
843.90	1669.09
844.07	1810.40
844.24	1757.16
844.41	1693.67
844.58	1701.86
844.75	1640.42
844.92	1751.01
845.09	1701.86
845.26	1603.56
845.43	1714.15
845.60	1705.96
845.77	1693.67
845.94	1695.72
846.10	1720.29
846.27	1636.33
846.44	1634.28
846.61	1640.42
846.78	1722.34
846.95	1779.68
847.12	1630.18
847.29	1667.05
847.46	1679.33
847.63	1746.92
847.80	1677.29
847.97	1691.62
848.14	1845.22
848.31	1718.25
848.48	1691.62
848.65	1746.92
848.82	1632.23
848.98	1818.60
849.15	1697.77
849.32	1714.15
849.49	1744.87
849.66	1718.25
849.83	1722.34
850.00	1667.05
850.17	1746.92
850.34	1679.33
850.51	1619.94
850.68	1665.00
850.85	1785.83
851.01	1701.86
851.18	1695.72
851.35	1767.40
851.52	1734.63
851.69	1744.87
851.86	1595.37
852.03	1697.77
852.20	1759.21
852.37	1724.39
852.53	1685.48
852.70	1660.90
852.87	1716.20
853.04	1757.16
853.21	1669.09
853.38	1761.25
853.55	1791.97
853.72	1888.23
853.89	1593.32
854.05	1611.75
854.22	1605.61
854.39	1691.62
854.56	1738.73
854.73	1744.87
854.90	1617.90
855.07	1705.96
855.23	1736.68
855.40	1687.53
855.57	1689.57
855.74	1636.33
855.91	1873.89
856.08	1632.23
856.25	1630.18
856.41	1714.15
856.58	1738.73
856.75	1667.05
856.92	1621.99
857.09	1746.92
857.26	1605.61
857.42	1710.05
857.59	1806.31
857.76	1677.29
857.93	1767.40
858.10	1701.86
858.27	1652.71
858.43	1689.57
858.60	1677.29
858.77	1587.18
858.94	1681.38
859.11	1763.30
859.27	1705.96
859.44	1712.10
859.61	1740.77
859.78	1748.97
859.95	1740.77
860.12	1607.66
860.28	1832.93
860.45	1777.64
860.62	1601.51
860.79	1720.29
860.95	1624.04
861.12	1681.38
861.29	1630.18
861.46	1607.66
861.63	1621.99
861.79	1744.87
861.96	1626.09
862.13	1679.33
862.30	1736.68
862.47	1691.62
862.63	1716.20
862.80	1791.97
862.97	1734.63
863.14	1697.77
863.30	1783.78
863.47	1636.33
863.64	1763.30
863.81	1699.81
863.97	1701.86
864.14	1654.76
864.31	1658.85
864.48	1824.74
864.65	1646.57
864.81	1757.16
864.98	1726.44
865.15	1675.24
865.32	1791.97
865.48	1748.97
865.65	1738.73
865.82	1640.42
865.98	1779.68
866.15	1740.77
866.32	1675.24
866.49	1634.28
866.65	1826.79
866.82	1679.33
866.99	1681.38
867.16	1667.05
867.32	1662.95
867.49	1662.95
867.66	1677.29
867.83	1576.94
867.99	1521.64
868.16	1714.15
868.33	1574.89
868.49	1658.85
868.66	1720.29
868.83	1787.88
868.99	1697.77
869.16	1705.96
869.33	1691.62
869.50	1822.69
869.66	1685.48
869.83	1751.01
870.00	1701.86
870.16	1738.73
870.33	1730.53
870.50	1746.92
870.66	1734.63
870.83	1830.88
871.00	1722.34
871.17	1699.81
871.33	1714.15
871.50	1689.57
871.67	1646.57
871.83	1677.29
872.00	1775.59
872.17	1681.38
872.33	1837.03
872.50	1763.30
872.67	1660.90
872.83	1656.81
873.00	1746.92
873.17	1740.77
873.33	1679.33
873.50	1755.11
873.67	1632.23
873.83	1646.57
874.00	1669.09
874.16	1697.77
874.33	1769.44
874.50	1617.90
874.66	1734.63
874.83	1757.16
875.00	1761.25
875.16	1802.21
875.33	1785.83
875.50	1642.47
875.66	1658.85
875.83	1650.66
875.99	1693.67
876.16	1660.90
876.33	1589.22
876.49	1791.97
876.66	1724.39
876.83	1730.53
876.99	1644.52
877.16	1740.77
877.32	1697.77
877.49	1703.91
877.66	1722.34
877.82	1773.54
877.99	1708.01
878.15	1742.82
878.32	1763.30
878.49	1699.81
878.65	1681.38
878.82	1722.34
878.98	1691.62
879.15	1820.64
879.32	1718.25
879.48	1705.96
879.65	1646.57
879.81	1660.90
879.98	1607.66
880.15	1658.85
880.31	1753.06
880.48	1687.53
880.64	1771.49
880.81	1677.29
880.97	1722.34
881.14	1699.81
881.31	1626.09
881.47	1849.32
881.64	1796.07
881.80	1650.66
881.97	1605.61
882.13	1722.34
882.30	1646.57
882.47	1677.29
882.63	1617.90
882.80	1642.47
882.96	1708.01
883.13	1781.73
883.29	1767.40
883.46	1736.68
883.62	1796.07
883.79	1724.39
883.95	1710.05
884.12	1685.48
884.29	1748.97
884.45	1712.10
884.62	1695.72
884.78	1677.29
884.95	1787.88
885.11	1656.81
885.28	1722.34
885.44	1619.94
885.61	1777.64
885.77	1734.63
885.94	1699.81
886.10	1640.42
886.27	1679.33
886.43	1843.17
886.60	1753.06
886.76	1607.66
886.93	1650.66
887.09	1771.49
887.26	1617.90
887.42	1726.44
887.59	1755.11
887.75	1841.12
887.92	1699.81
888.08	1755.11
888.25	1796.07
888.41	1724.39
888.58	1701.86
888.74	1693.67
888.91	1681.38
>>>>>End Processed Spectral Data<<<<<
