SpectraSuite Data File
++++++++++++++++++++++++++++++++++++
Date: Mon Jun 06 17:10:37 CEST 2016
User: root
Dark Spectrum Present: No
Reference Spectrum Present: No
Number of Sampled Component Spectra: 1
Spectrometers: USB4C02835
Integration Time (usec): 100000 (USB4C02835)
Spectra Averaged: 1 (USB4C02835)
Boxcar Smoothing: 0 (USB4C02835)
Correct for Electrical Dark: No (USB4C02835)
Strobe/Lamp Enabled: No (USB4C02835)
Correct for Detector Non-linearity: No (USB4C02835)
Correct for Stray Light: No (USB4C02835)
Number of Pixels in Processed Spectrum: 3648
>>>>>Begin Processed Spectral Data<<<<<
177.47	1456.11
177.69	1456.11
177.91	1456.11
178.13	1413.10
178.36	1466.35
178.58	1671.14
178.80	1746.92
179.02	1603.56
179.24	1671.14
179.46	1744.87
179.68	1775.59
179.90	1665.00
180.13	1722.34
180.35	1769.44
180.57	1671.14
180.79	1787.88
181.01	1730.53
181.23	1708.01
181.45	1847.27
181.67	1781.73
181.90	1617.90
182.12	1624.04
182.34	1568.74
182.56	1779.68
182.78	1693.67
183.00	1755.11
183.22	1718.25
183.44	1601.51
183.66	1859.56
183.89	1812.45
184.11	1648.61
184.33	1775.59
184.55	1785.83
184.77	1730.53
184.99	1742.82
185.21	1689.57
185.43	1861.60
185.65	1640.42
185.87	1683.43
186.10	1794.02
186.32	1822.69
186.54	1744.87
186.76	1771.49
186.98	1783.78
187.20	1714.15
187.42	1640.42
187.64	1701.86
187.86	1697.77
188.08	1767.40
188.30	1701.86
188.52	1687.53
188.75	1847.27
188.97	1839.08
189.19	1751.01
189.41	1673.19
189.63	1781.73
189.85	1703.91
190.07	1699.81
190.29	1628.14
190.51	1609.70
190.73	1699.81
190.95	1794.02
191.17	1681.38
191.39	1632.23
191.61	1679.33
191.84	1720.29
192.06	1740.77
192.28	1613.80
192.50	1865.70
192.72	1710.05
192.94	1765.35
193.16	1826.79
193.38	1785.83
193.60	1677.29
193.82	1632.23
194.04	1753.06
194.26	1712.10
194.48	1689.57
194.70	1701.86
194.92	1644.52
195.14	1736.68
195.36	1732.58
195.58	1777.64
195.80	1738.73
196.02	1716.20
196.24	1695.72
196.46	1648.61
196.69	1708.01
196.91	1839.08
197.13	1673.19
197.35	1705.96
197.57	1828.84
197.79	1746.92
198.01	1812.45
198.23	1773.54
198.45	1726.44
198.67	1599.46
198.89	1701.86
199.11	1724.39
199.33	1695.72
199.55	1671.14
199.77	1785.83
199.99	1746.92
200.21	1689.57
200.43	1726.44
200.65	1703.91
200.87	1599.46
201.09	1742.82
201.31	1701.86
201.53	1755.11
201.75	1665.00
201.97	1728.49
202.19	1699.81
202.41	1755.11
202.63	1865.70
202.85	1722.34
203.07	1689.57
203.29	1697.77
203.51	1705.96
203.73	1703.91
203.95	1763.30
204.17	1744.87
204.39	1736.68
204.61	1720.29
204.83	1759.21
205.05	1753.06
205.27	1761.25
205.49	1781.73
205.71	1665.00
205.93	1632.23
206.15	1714.15
206.37	1703.91
206.59	1677.29
206.81	1669.09
207.03	1603.56
207.25	1650.66
207.47	1783.78
207.69	1740.77
207.91	1767.40
208.13	1769.44
208.34	1714.15
208.56	1626.09
208.78	1742.82
209.00	1671.14
209.22	1673.19
209.44	1646.57
209.66	1660.90
209.88	1703.91
210.10	1710.05
210.32	1734.63
210.54	1757.16
210.76	1683.43
210.98	1812.45
211.20	1718.25
211.42	1673.19
211.64	1888.23
211.86	1683.43
212.08	1783.78
212.30	1701.86
212.52	1689.57
212.74	1800.16
212.96	1695.72
213.17	1765.35
213.39	1736.68
213.61	1832.93
213.83	1804.26
214.05	1652.71
214.27	1771.49
214.49	1619.94
214.71	1665.00
214.93	1773.54
215.15	1683.43
215.37	1761.25
215.59	1621.99
215.81	1679.33
216.03	1708.01
216.24	1691.62
216.46	1691.62
216.68	1722.34
216.90	1814.50
217.12	1753.06
217.34	1732.58
217.56	1818.60
217.78	1779.68
218.00	1763.30
218.22	1763.30
218.44	1689.57
218.66	1720.29
218.87	1837.03
219.09	1695.72
219.31	1695.72
219.53	1669.09
219.75	1722.34
219.97	1720.29
220.19	1730.53
220.41	1705.96
220.63	1783.78
220.85	1765.35
221.06	1673.19
221.28	1837.03
221.50	1761.25
221.72	1796.07
221.94	1660.90
222.16	1679.33
222.38	1796.07
222.60	1746.92
222.82	1685.48
223.03	1767.40
223.25	1658.85
223.47	1675.24
223.69	1791.97
223.91	1748.97
224.13	1669.09
224.35	1669.09
224.57	1789.92
224.78	1800.16
225.00	1636.33
225.22	1712.10
225.44	1691.62
225.66	1740.77
225.88	1730.53
226.10	1794.02
226.32	1744.87
226.53	1794.02
226.75	1658.85
226.97	1720.29
227.19	1712.10
227.41	1654.76
227.63	1628.14
227.85	1619.94
228.06	1708.01
228.28	1701.86
228.50	1675.24
228.72	1603.56
228.94	1781.73
229.16	1613.80
229.37	1642.47
229.59	1673.19
229.81	1757.16
230.03	1673.19
230.25	1609.70
230.47	1726.44
230.69	1644.52
230.90	1808.36
231.12	1691.62
231.34	1724.39
231.56	1787.88
231.78	1636.33
232.00	1732.58
232.21	1697.77
232.43	1642.47
232.65	1654.76
232.87	1705.96
233.09	1705.96
233.30	1697.77
233.52	1755.11
233.74	1701.86
233.96	1738.73
234.18	1652.71
234.40	1732.58
234.61	1796.07
234.83	1697.77
235.05	1687.53
235.27	1794.02
235.49	1769.44
235.70	1675.24
235.92	1804.26
236.14	1710.05
236.36	1763.30
236.58	1667.05
236.79	1714.15
237.01	1714.15
237.23	1724.39
237.45	1800.16
237.67	1644.52
237.88	1748.97
238.10	1771.49
238.32	1695.72
238.54	1644.52
238.76	1718.25
238.97	1697.77
239.19	1673.19
239.41	1751.01
239.63	1736.68
239.85	1685.48
240.06	1738.73
240.28	1730.53
240.50	1681.38
240.72	1708.01
240.93	1695.72
241.15	1720.29
241.37	1714.15
241.59	1763.30
241.81	1748.97
242.02	1738.73
242.24	1718.25
242.46	1726.44
242.68	1679.33
242.89	1722.34
243.11	1828.84
243.33	1746.92
243.55	1734.63
243.76	1757.16
243.98	1685.48
244.20	1681.38
244.42	1738.73
244.64	1751.01
244.85	1609.70
245.07	1679.33
245.29	1753.06
245.51	1642.47
245.72	1660.90
245.94	1796.07
246.16	1681.38
246.38	1748.97
246.59	1732.58
246.81	1673.19
247.03	1693.67
247.24	1642.47
247.46	1730.53
247.68	1765.35
247.90	1650.66
248.11	1673.19
248.33	1769.44
248.55	1751.01
248.77	1734.63
248.98	1767.40
249.20	1746.92
249.42	1722.34
249.64	1755.11
249.85	1691.62
250.07	1687.53
250.29	1740.77
250.50	1728.49
250.72	1558.50
250.94	1777.64
251.16	1824.74
251.37	1746.92
251.59	1701.86
251.81	1699.81
252.02	1806.31
252.24	1701.86
252.46	1773.54
252.68	1689.57
252.89	1638.38
253.11	1621.99
253.33	1804.26
253.54	1751.01
253.76	1660.90
253.98	1736.68
254.20	1769.44
254.41	1595.37
254.63	1685.48
254.85	1669.09
255.06	1685.48
255.28	1642.47
255.50	1685.48
255.71	1697.77
255.93	1658.85
256.15	1652.71
256.36	1712.10
256.58	1662.95
256.80	1675.24
257.02	1669.09
257.23	1673.19
257.45	1699.81
257.67	1759.21
257.88	1644.52
258.10	1787.88
258.32	1687.53
258.53	1767.40
258.75	1777.64
258.97	1730.53
259.18	1705.96
259.40	1705.96
259.62	1767.40
259.83	1763.30
260.05	1771.49
260.27	1937.38
260.48	1781.73
260.70	1746.92
260.92	1845.22
261.13	1699.81
261.35	1744.87
261.57	1753.06
261.78	1656.81
262.00	1677.29
262.22	1732.58
262.43	1718.25
262.65	1714.15
262.86	1665.00
263.08	1892.32
263.30	1753.06
263.51	1587.18
263.73	1673.19
263.95	1796.07
264.16	1652.71
264.38	1701.86
264.60	1685.48
264.81	1734.63
265.03	1810.40
265.25	1759.21
265.46	1662.95
265.68	1785.83
265.89	1671.14
266.11	1611.75
266.33	1783.78
266.54	1734.63
266.76	1736.68
266.98	1753.06
267.19	1826.79
267.41	1761.25
267.62	1718.25
267.84	1609.70
268.06	1724.39
268.27	1720.29
268.49	1783.78
268.70	1753.06
268.92	1730.53
269.14	1660.90
269.35	1689.57
269.57	1730.53
269.79	1839.08
270.00	1722.34
270.22	1830.88
270.43	1658.85
270.65	1630.18
270.87	1699.81
271.08	1736.68
271.30	1761.25
271.51	1693.67
271.73	1712.10
271.95	1753.06
272.16	1716.20
272.38	1728.49
272.59	1601.51
272.81	1753.06
273.02	1679.33
273.24	1658.85
273.46	1753.06
273.67	1693.67
273.89	1681.38
274.10	1759.21
274.32	1834.98
274.54	1722.34
274.75	1757.16
274.97	1681.38
275.18	1814.50
275.40	1837.03
275.61	1701.86
275.83	1718.25
276.05	1652.71
276.26	1673.19
276.48	1751.01
276.69	1673.19
276.91	1718.25
277.12	1716.20
277.34	1789.92
277.55	1808.36
277.77	1691.62
277.99	1701.86
278.20	1718.25
278.42	1611.75
278.63	1654.76
278.85	1716.20
279.06	1675.24
279.28	1769.44
279.49	1759.21
279.71	1771.49
279.93	1697.77
280.14	1722.34
280.36	1619.94
280.57	1693.67
280.79	1763.30
281.00	1701.86
281.22	1642.47
281.43	1787.88
281.65	1638.38
281.86	1665.00
282.08	1732.58
282.29	1794.02
282.51	1636.33
282.73	1683.43
282.94	1603.56
283.16	1744.87
283.37	1845.22
283.59	1656.81
283.80	1718.25
284.02	1710.05
284.23	1708.01
284.45	1691.62
284.66	1636.33
284.88	1638.38
285.09	1695.72
285.31	1705.96
285.52	1708.01
285.74	1574.89
285.95	1683.43
286.17	1685.48
286.38	1816.55
286.60	1644.52
286.81	1652.71
287.03	1677.29
287.24	1710.05
287.46	1718.25
287.67	1779.68
287.89	1834.98
288.10	1769.44
288.32	1794.02
288.53	1742.82
288.75	1718.25
288.96	1708.01
289.18	1648.61
289.39	1740.77
289.61	1738.73
289.82	1822.69
290.04	1763.30
290.25	1687.53
290.47	1718.25
290.68	1730.53
290.90	1755.11
291.11	1621.99
291.33	1751.01
291.54	1683.43
291.76	1679.33
291.97	1787.88
292.18	1689.57
292.40	1693.67
292.61	1722.34
292.83	1867.75
293.04	1777.64
293.26	1691.62
293.47	1681.38
293.69	1697.77
293.90	1699.81
294.12	1773.54
294.33	1736.68
294.55	1703.91
294.76	1771.49
294.97	1800.16
295.19	1804.26
295.40	1654.76
295.62	1712.10
295.83	1767.40
296.05	1689.57
296.26	1763.30
296.48	1650.66
296.69	1675.24
296.90	1710.05
297.12	1722.34
297.33	1785.83
297.55	1728.49
297.76	1781.73
297.98	1740.77
298.19	1710.05
298.41	1746.92
298.62	1681.38
298.83	1755.11
299.05	1834.98
299.26	1708.01
299.48	1638.38
299.69	1775.59
299.90	1705.96
300.12	1671.14
300.33	1740.77
300.55	1685.48
300.76	1728.49
300.98	1732.58
301.19	1787.88
301.40	1652.71
301.62	1691.62
301.83	1753.06
302.05	1720.29
302.26	1759.21
302.47	1720.29
302.69	1685.48
302.90	1740.77
303.12	1595.37
303.33	1732.58
303.54	1798.12
303.76	1691.62
303.97	1738.73
304.19	1755.11
304.40	1746.92
304.61	1763.30
304.83	1841.12
305.04	1843.17
305.26	1757.16
305.47	1685.48
305.68	1730.53
305.90	1728.49
306.11	1804.26
306.33	1734.63
306.54	1703.91
306.75	1679.33
306.97	1695.72
307.18	1679.33
307.39	1703.91
307.61	1765.35
307.82	1685.48
308.04	1695.72
308.25	1685.48
308.46	1810.40
308.68	1708.01
308.89	1714.15
309.10	1718.25
309.32	1705.96
309.53	1701.86
309.74	1689.57
309.96	1662.95
310.17	1783.78
310.39	1738.73
310.60	1746.92
310.81	1720.29
311.03	1611.75
311.24	1730.53
311.45	1820.64
311.67	1828.84
311.88	1697.77
312.09	1677.29
312.31	1691.62
312.52	1712.10
312.73	1677.29
312.95	1691.62
313.16	1724.39
313.37	1748.97
313.59	1705.96
313.80	1726.44
314.01	1791.97
314.23	1662.95
314.44	1656.81
314.65	1683.43
314.87	1736.68
315.08	1658.85
315.29	1691.62
315.51	1609.70
315.72	1662.95
315.93	1802.21
316.15	1828.84
316.36	1638.38
316.57	1791.97
316.79	1767.40
317.00	1703.91
317.21	1740.77
317.43	1660.90
317.64	1685.48
317.85	1681.38
318.07	1656.81
318.28	1767.40
318.49	1730.53
318.70	1935.33
318.92	1798.12
319.13	1914.85
319.34	1910.75
319.56	1746.92
319.77	1914.85
319.98	1779.68
320.20	1802.21
320.41	1820.64
320.62	1757.16
320.83	1640.42
321.05	1834.98
321.26	1751.01
321.47	1728.49
321.69	1773.54
321.90	1632.23
322.11	1648.61
322.32	1787.88
322.54	1859.56
322.75	1658.85
322.96	1869.80
323.18	1593.32
323.39	1601.51
323.60	1736.68
323.81	1753.06
324.03	1734.63
324.24	1732.58
324.45	1683.43
324.66	1734.63
324.88	1767.40
325.09	1789.92
325.30	1736.68
325.52	1732.58
325.73	1751.01
325.94	1675.24
326.15	1619.94
326.37	1701.86
326.58	1718.25
326.79	1798.12
327.00	1685.48
327.22	1699.81
327.43	1595.37
327.64	1701.86
327.85	1804.26
328.07	1728.49
328.28	1734.63
328.49	1726.44
328.70	1732.58
328.92	1714.15
329.13	1677.29
329.34	1705.96
329.55	1791.97
329.76	1755.11
329.98	1628.14
330.19	1763.30
330.40	1730.53
330.61	1773.54
330.83	1802.21
331.04	1597.42
331.25	1695.72
331.46	1658.85
331.68	1648.61
331.89	1800.16
332.10	1734.63
332.31	1640.42
332.52	1722.34
332.74	1783.78
332.95	1683.43
333.16	1722.34
333.37	1746.92
333.58	1679.33
333.80	1722.34
334.01	1708.01
334.22	1691.62
334.43	1732.58
334.64	1652.71
334.86	1705.96
335.07	1609.70
335.28	1812.45
335.49	1685.48
335.70	1746.92
335.92	1734.63
336.13	1814.50
336.34	1798.12
336.55	1691.62
336.76	1751.01
336.98	1603.56
337.19	1732.58
337.40	1834.98
337.61	1800.16
337.82	1697.77
338.04	1742.82
338.25	1710.05
338.46	1671.14
338.67	1667.05
338.88	1687.53
339.09	1634.28
339.31	1677.29
339.52	1640.42
339.73	1734.63
339.94	1677.29
340.15	1812.45
340.36	1718.25
340.58	1759.21
340.79	1621.99
341.00	1789.92
341.21	1619.94
341.42	1857.51
341.63	1728.49
341.85	1738.73
342.06	1646.57
342.27	1658.85
342.48	1816.55
342.69	1611.75
342.90	1656.81
343.12	1667.05
343.33	1685.48
343.54	1783.78
343.75	1775.59
343.96	1691.62
344.17	1679.33
344.38	1734.63
344.60	1607.66
344.81	1648.61
345.02	1705.96
345.23	1722.34
345.44	1816.55
345.65	1787.88
345.86	1708.01
346.07	1769.44
346.29	1724.39
346.50	1791.97
346.71	1800.16
346.92	1820.64
347.13	1925.09
347.34	1751.01
347.55	1650.66
347.76	1728.49
347.98	1687.53
348.19	1724.39
348.40	1859.56
348.61	1646.57
348.82	1820.64
349.03	1742.82
349.24	1593.32
349.45	1875.94
349.66	1644.52
349.88	1691.62
350.09	1679.33
350.30	1824.74
350.51	1812.45
350.72	1718.25
350.93	1697.77
351.14	1626.09
351.35	1714.15
351.56	1812.45
351.77	1714.15
351.99	1652.71
352.20	1763.30
352.41	1730.53
352.62	1587.18
352.83	1710.05
353.04	1685.48
353.25	1669.09
353.46	1796.07
353.67	1689.57
353.88	1669.09
354.09	1703.91
354.30	1679.33
354.52	1783.78
354.73	1691.62
354.94	1718.25
355.15	1759.21
355.36	1771.49
355.57	1738.73
355.78	1730.53
355.99	1681.38
356.20	1650.66
356.41	1814.50
356.62	1697.77
356.83	1677.29
357.04	1761.25
357.25	1658.85
357.46	1640.42
357.68	1605.61
357.89	1673.19
358.10	1730.53
358.31	1703.91
358.52	1736.68
358.73	1734.63
358.94	1665.00
359.15	1628.14
359.36	1832.93
359.57	1673.19
359.78	1662.95
359.99	1742.82
360.20	1673.19
360.41	1703.91
360.62	1675.24
360.83	1693.67
361.04	1708.01
361.25	1732.58
361.46	1783.78
361.67	1718.25
361.88	1722.34
362.09	1687.53
362.30	1773.54
362.51	1677.29
362.72	1708.01
362.93	1814.50
363.14	1675.24
363.35	1703.91
363.56	1673.19
363.78	1834.98
363.99	1820.64
364.20	1613.80
364.41	1701.86
364.62	1808.36
364.83	1771.49
365.04	1693.67
365.25	1736.68
365.46	1853.41
365.67	1644.52
365.88	1662.95
366.09	1691.62
366.30	1732.58
366.51	1689.57
366.72	1615.85
366.93	1736.68
367.14	1787.88
367.35	1761.25
367.56	1691.62
367.77	1718.25
367.98	1626.09
368.18	1740.77
368.39	1818.60
368.60	1656.81
368.81	1712.10
369.02	1746.92
369.23	1781.73
369.44	1667.05
369.65	1650.66
369.86	1740.77
370.07	1814.50
370.28	1673.19
370.49	1791.97
370.70	1732.58
370.91	1683.43
371.12	1624.04
371.33	1732.58
371.54	1685.48
371.75	1775.59
371.96	1599.46
372.17	1660.90
372.38	1712.10
372.59	1740.77
372.80	1660.90
373.01	1714.15
373.22	1652.71
373.43	1806.31
373.64	1574.89
373.85	1724.39
374.06	1861.60
374.26	1734.63
374.47	1720.29
374.68	1773.54
374.89	1710.05
375.10	1748.97
375.31	1841.12
375.52	1718.25
375.73	1675.24
375.94	1638.38
376.15	1853.41
376.36	1701.86
376.57	1654.76
376.78	1683.43
376.99	1720.29
377.20	1834.98
377.40	1712.10
377.61	1806.31
377.82	1689.57
378.03	1781.73
378.24	1765.35
378.45	1748.97
378.66	1812.45
378.87	1603.56
379.08	1697.77
379.29	1724.39
379.50	1796.07
379.71	1720.29
379.91	1746.92
380.12	1683.43
380.33	1732.58
380.54	1642.47
380.75	1746.92
380.96	1648.61
381.17	1773.54
381.38	1734.63
381.59	1746.92
381.80	1728.49
382.00	1849.32
382.21	1802.21
382.42	1859.56
382.63	1867.75
382.84	1796.07
383.05	1677.29
383.26	1826.79
383.47	1740.77
383.68	1744.87
383.88	1724.39
384.09	1746.92
384.30	1818.60
384.51	1701.86
384.72	1748.97
384.93	1691.62
385.14	1714.15
385.35	1789.92
385.55	1615.85
385.76	1759.21
385.97	1675.24
386.18	1701.86
386.39	1720.29
386.60	1720.29
386.81	1705.96
387.02	1683.43
387.22	1619.94
387.43	1775.59
387.64	1779.68
387.85	1900.52
388.06	2238.43
388.27	4257.73
388.48	6797.21
388.68	8308.61
388.89	9725.80
389.10	10037.09
389.31	8859.51
389.52	7880.58
389.73	6711.19
389.93	6150.05
390.14	5941.16
390.35	5078.96
390.56	4618.17
390.77	3829.70
390.98	3012.56
391.18	2490.33
391.39	2150.37
391.60	1822.69
391.81	1800.16
392.02	1714.15
392.23	1863.65
392.43	1746.92
392.64	1810.40
392.85	1759.21
393.06	1798.12
393.27	1759.21
393.47	1699.81
393.68	1757.16
393.89	1626.09
394.10	1828.84
394.31	1675.24
394.52	1783.78
394.72	1683.43
394.93	1751.01
395.14	1730.53
395.35	1685.48
395.56	1710.05
395.76	1720.29
395.97	1787.88
396.18	1888.23
396.39	1800.16
396.60	2009.06
396.80	1877.99
397.01	1798.12
397.22	1820.64
397.43	1830.88
397.64	1689.57
397.84	1763.30
398.05	1837.03
398.26	1708.01
398.47	1804.26
398.67	1812.45
398.88	1755.11
399.09	1724.39
399.30	1681.38
399.51	1720.29
399.71	1695.72
399.92	1689.57
400.13	1791.97
400.34	1687.53
400.54	1677.29
400.75	1824.74
400.96	1759.21
401.17	1851.36
401.37	1771.49
401.58	1630.18
401.79	1724.39
402.00	1822.69
402.21	2027.49
402.41	2000.87
402.62	1961.95
402.83	2002.91
403.04	2095.07
403.24	2068.45
403.45	1796.07
403.66	1849.32
403.87	1886.18
404.07	1961.95
404.28	1931.23
404.49	1900.52
404.70	1771.49
404.90	1806.31
405.11	1681.38
405.32	1701.86
405.52	1650.66
405.73	1689.57
405.94	1705.96
406.15	1705.96
406.35	1775.59
406.56	1779.68
406.77	1681.38
406.98	1732.58
407.18	1675.24
407.39	1818.60
407.60	1744.87
407.80	1716.20
408.01	1673.19
408.22	1671.14
408.43	1675.24
408.63	1626.09
408.84	1765.35
409.05	1769.44
409.25	1732.58
409.46	1685.48
409.67	1708.01
409.88	1718.25
410.08	1791.97
410.29	1681.38
410.50	1755.11
410.70	1761.25
410.91	1693.67
411.12	1804.26
411.32	1761.25
411.53	1765.35
411.74	1820.64
411.95	1767.40
412.15	1785.83
412.36	1804.26
412.57	1763.30
412.77	1800.16
412.98	1742.82
413.19	1669.09
413.39	1796.07
413.60	1820.64
413.81	1783.78
414.01	1640.42
414.22	1683.43
414.43	1714.15
414.63	1624.04
414.84	1775.59
415.05	1781.73
415.25	1607.66
415.46	1697.77
415.67	1654.76
415.87	1775.59
416.08	1681.38
416.29	1779.68
416.49	1728.49
416.70	1722.34
416.91	1650.66
417.11	1703.91
417.32	1744.87
417.53	1783.78
417.73	1726.44
417.94	1630.18
418.15	1753.06
418.35	1679.33
418.56	1751.01
418.77	1894.37
418.97	1642.47
419.18	1599.46
419.38	1593.32
419.59	1732.58
419.80	1789.92
420.00	1640.42
420.21	1720.29
420.42	1841.12
420.62	1759.21
420.83	1603.56
421.04	1787.88
421.24	1712.10
421.45	1734.63
421.65	1759.21
421.86	1703.91
422.07	1732.58
422.27	1693.67
422.48	1775.59
422.69	1691.62
422.89	1708.01
423.10	1716.20
423.30	1689.57
423.51	1742.82
423.72	1726.44
423.92	1789.92
424.13	1681.38
424.33	1759.21
424.54	1763.30
424.75	1751.01
424.95	1869.80
425.16	1665.00
425.36	1724.39
425.57	1695.72
425.78	1738.73
425.98	1796.07
426.19	1736.68
426.39	1669.09
426.60	1734.63
426.81	1763.30
427.01	1710.05
427.22	1701.86
427.42	1628.14
427.63	1642.47
427.83	1800.16
428.04	1796.07
428.25	1806.31
428.45	1839.08
428.66	1740.77
428.86	1794.02
429.07	1705.96
429.28	1751.01
429.48	1687.53
429.69	1677.29
429.89	1654.76
430.10	1691.62
430.30	1748.97
430.51	1708.01
430.71	1660.90
430.92	1730.53
431.13	1681.38
431.33	1765.35
431.54	1710.05
431.74	1884.13
431.95	1839.08
432.15	1695.72
432.36	1740.77
432.56	1740.77
432.77	1779.68
432.98	1771.49
433.18	1765.35
433.39	1720.29
433.59	1765.35
433.80	1804.26
434.00	1824.74
434.21	1675.24
434.41	1658.85
434.62	1859.56
434.82	1708.01
435.03	1658.85
435.23	1714.15
435.44	1660.90
435.64	1724.39
435.85	1796.07
436.06	1736.68
436.26	1769.44
436.47	1775.59
436.67	1673.19
436.88	1751.01
437.08	1738.73
437.29	1814.50
437.49	1767.40
437.70	1716.20
437.90	1781.73
438.11	1822.69
438.31	1710.05
438.52	1822.69
438.72	1845.22
438.93	1923.04
439.13	1851.36
439.34	1857.51
439.54	1808.36
439.75	1808.36
439.95	1824.74
440.16	1654.76
440.36	1771.49
440.57	1728.49
440.77	1757.16
440.98	1806.31
441.18	1828.84
441.39	1687.53
441.59	1673.19
441.80	1886.18
442.00	1736.68
442.21	1837.03
442.41	1628.14
442.62	1789.92
442.82	1755.11
443.02	1722.34
443.23	1744.87
443.43	1718.25
443.64	1736.68
443.84	1701.86
444.05	1851.36
444.25	1789.92
444.46	1708.01
444.66	1675.24
444.87	1765.35
445.07	1736.68
445.28	1779.68
445.48	1822.69
445.69	1859.56
445.89	1841.12
446.09	1718.25
446.30	2099.17
446.50	2596.82
446.71	3733.45
446.91	4351.93
447.12	4880.31
447.32	4853.69
447.53	4327.36
447.73	3762.12
447.93	3647.43
448.14	3303.37
448.34	3211.22
448.55	2951.12
448.75	2899.92
448.96	2727.89
449.16	2385.88
449.36	2389.98
449.57	2047.97
449.77	1816.55
449.98	1779.68
450.18	1820.64
450.39	1822.69
450.59	1822.69
450.79	1791.97
451.00	1681.38
451.20	1832.93
451.41	1771.49
451.61	1794.02
451.81	1783.78
452.02	1667.05
452.22	1708.01
452.43	1734.63
452.63	1740.77
452.84	1761.25
453.04	1746.92
453.24	1777.64
453.45	1708.01
453.65	1781.73
453.86	1730.53
454.06	1812.45
454.26	1751.01
454.47	1693.67
454.67	1746.92
454.87	1832.93
455.08	1701.86
455.28	1748.97
455.49	1726.44
455.69	1751.01
455.89	1822.69
456.10	1814.50
456.30	1699.81
456.51	1773.54
456.71	1773.54
456.91	1746.92
457.12	1714.15
457.32	1673.19
457.52	1619.94
457.73	1785.83
457.93	1742.82
458.14	1687.53
458.34	1638.38
458.54	1789.92
458.75	1763.30
458.95	1818.60
459.15	1751.01
459.36	1771.49
459.56	1759.21
459.76	1798.12
459.97	1742.82
460.17	1751.01
460.37	1798.12
460.58	1712.10
460.78	1730.53
460.99	1658.85
461.19	1789.92
461.39	1685.48
461.60	1837.03
461.80	1791.97
462.00	1609.70
462.21	1699.81
462.41	1679.33
462.61	1701.86
462.82	1658.85
463.02	1787.88
463.22	1705.96
463.43	1785.83
463.63	1669.09
463.83	1834.98
464.04	1773.54
464.24	1724.39
464.44	1667.05
464.64	1804.26
464.85	1746.92
465.05	1800.16
465.25	1695.72
465.46	1669.09
465.66	1699.81
465.86	1734.63
466.07	1697.77
466.27	1771.49
466.47	1626.09
466.68	1613.80
466.88	1822.69
467.08	1720.29
467.29	1742.82
467.49	1802.21
467.69	1742.82
467.89	1808.36
468.10	1708.01
468.30	1759.21
468.50	1785.83
468.71	1691.62
468.91	1644.52
469.11	1775.59
469.31	1728.49
469.52	1683.43
469.72	1775.59
469.92	1875.94
470.13	1728.49
470.33	1689.57
470.53	1861.60
470.73	2168.80
470.94	2322.40
471.14	2408.41
471.34	2580.44
471.54	2486.23
471.75	2238.43
471.95	2207.71
472.15	2084.83
472.36	2095.07
472.56	2056.16
472.76	2088.93
472.96	2019.30
473.17	1945.57
473.37	1943.52
473.57	1820.64
473.77	1791.97
473.98	1810.40
474.18	1718.25
474.38	1927.14
474.58	1734.63
474.79	1687.53
474.99	1789.92
475.19	1814.50
475.39	1650.66
475.60	1679.33
475.80	1767.40
476.00	1734.63
476.20	1665.00
476.41	1748.97
476.61	1810.40
476.81	1802.21
477.01	1724.39
477.21	1888.23
477.42	1791.97
477.62	1660.90
477.82	1775.59
478.02	1699.81
478.23	1736.68
478.43	1652.71
478.63	1724.39
478.83	1816.55
479.03	1705.96
479.24	1796.07
479.44	1804.26
479.64	1738.73
479.84	1675.24
480.04	1740.77
480.25	1814.50
480.45	1675.24
480.65	1716.20
480.85	1802.21
481.06	1714.15
481.26	1679.33
481.46	1738.73
481.66	1777.64
481.86	1644.52
482.06	1789.92
482.27	1708.01
482.47	1679.33
482.67	1685.48
482.87	1685.48
483.07	1787.88
483.28	1742.82
483.48	1675.24
483.68	1624.04
483.88	1677.29
484.08	1687.53
484.29	1705.96
484.49	1722.34
484.69	1658.85
484.89	1804.26
485.09	1757.16
485.29	1765.35
485.50	1824.74
485.70	1714.15
485.90	1798.12
486.10	1759.21
486.30	1708.01
486.50	1777.64
486.71	1767.40
486.91	1705.96
487.11	1794.02
487.31	1658.85
487.51	1683.43
487.71	1683.43
487.91	1685.48
488.12	1652.71
488.32	1554.41
488.52	1650.66
488.72	1689.57
488.92	1771.49
489.12	1757.16
489.32	1814.50
489.53	1755.11
489.73	1593.32
489.93	1802.21
490.13	1687.53
490.33	1718.25
490.53	1789.92
490.73	1822.69
490.94	1570.79
491.14	1814.50
491.34	1857.51
491.54	2140.13
491.74	2578.39
491.94	2887.64
492.14	3082.19
492.34	3051.47
492.54	2756.57
492.75	2562.01
492.95	2428.89
493.15	2379.74
493.35	2357.21
493.55	2269.15
493.75	2138.08
493.95	2205.66
494.15	2111.46
494.35	1959.91
494.56	1800.16
494.76	1765.35
494.96	1814.50
495.16	1847.27
495.36	1785.83
495.56	1716.20
495.76	1746.92
495.96	1669.09
496.16	1693.67
496.36	1826.79
496.56	1691.62
496.77	1816.55
496.97	1722.34
497.17	1753.06
497.37	1699.81
497.57	1757.16
497.77	1714.15
497.97	1726.44
498.17	1769.44
498.37	1708.01
498.57	1785.83
498.77	1689.57
498.97	1796.07
499.17	1855.46
499.38	1771.49
499.58	1777.64
499.78	1789.92
499.98	1812.45
500.18	1675.24
500.38	1691.62
500.58	1923.04
500.78	2416.60
500.98	4626.36
501.18	5787.56
501.38	6930.33
501.58	7274.38
501.78	6645.66
501.98	5683.11
502.18	5081.01
502.38	4343.74
502.58	4313.02
502.78	3803.08
502.98	3762.12
503.18	3504.07
503.38	3141.58
503.59	2904.02
503.79	2740.18
503.99	2553.82
504.19	2363.36
504.39	2224.09
504.59	2150.37
504.79	2111.46
504.99	2078.69
505.19	1982.43
505.39	1910.75
505.59	2056.16
505.79	1927.14
505.99	1849.32
506.19	1734.63
506.39	1914.85
506.59	1710.05
506.79	1761.25
506.99	1789.92
507.19	1710.05
507.39	1761.25
507.59	1726.44
507.79	1757.16
507.99	1730.53
508.19	1769.44
508.39	1716.20
508.59	1705.96
508.79	1902.56
508.99	1929.19
509.19	1626.09
509.39	1824.74
509.59	1665.00
509.79	1765.35
509.99	1779.68
510.19	1828.84
510.39	1873.89
510.59	1779.68
510.79	1601.51
510.99	1724.39
511.19	1691.62
511.39	1861.60
511.59	1734.63
511.79	1798.12
511.99	1699.81
512.19	1871.84
512.38	1759.21
512.58	1677.29
512.78	1697.77
512.98	1759.21
513.18	1798.12
513.38	1628.14
513.58	1771.49
513.78	1808.36
513.98	1722.34
514.18	1722.34
514.38	1734.63
514.58	1759.21
514.78	1714.15
514.98	1591.27
515.18	1759.21
515.38	1703.91
515.58	1787.88
515.78	1693.67
515.98	1736.68
516.18	1720.29
516.38	1794.02
516.57	1660.90
516.77	1722.34
516.97	1732.58
517.17	1716.20
517.37	1691.62
517.57	1734.63
517.77	1777.64
517.97	1718.25
518.17	1771.49
518.37	1708.01
518.57	1767.40
518.77	1705.96
518.97	1679.33
519.16	1718.25
519.36	1746.92
519.56	1697.77
519.76	1728.49
519.96	1746.92
520.16	1818.60
520.36	1716.20
520.56	1783.78
520.76	1675.24
520.96	1689.57
521.16	1834.98
521.35	1886.18
521.55	1800.16
521.75	1701.86
521.95	1691.62
522.15	1726.44
522.35	1677.29
522.55	1722.34
522.75	1777.64
522.95	1634.28
523.14	1662.95
523.34	1736.68
523.54	1703.91
523.74	1765.35
523.94	1818.60
524.14	1646.57
524.34	1726.44
524.54	1767.40
524.73	1775.59
524.93	1767.40
525.13	1751.01
525.33	1699.81
525.53	1908.71
525.73	1781.73
525.93	1767.40
526.13	1738.73
526.32	1716.20
526.52	1769.44
526.72	1785.83
526.92	1734.63
527.12	1728.49
527.32	1589.22
527.52	1730.53
527.71	1748.97
527.91	1808.36
528.11	1669.09
528.31	1714.15
528.51	1681.38
528.71	1765.35
528.90	1744.87
529.10	1763.30
529.30	1753.06
529.50	1669.09
529.70	1746.92
529.90	1740.77
530.09	1652.71
530.29	1662.95
530.49	1708.01
530.69	1886.18
530.89	1783.78
531.09	1740.77
531.28	1755.11
531.48	1730.53
531.68	1785.83
531.88	1804.26
532.08	1789.92
532.28	1695.72
532.47	1773.54
532.67	1751.01
532.87	1734.63
533.07	1642.47
533.27	1828.84
533.46	1767.40
533.66	1826.79
533.86	1771.49
534.06	1724.39
534.26	1765.35
534.45	1699.81
534.65	1863.65
534.85	1814.50
535.05	1722.34
535.25	1708.01
535.44	1724.39
535.64	1857.51
535.84	1679.33
536.04	1769.44
536.24	1802.21
536.43	1683.43
536.63	1826.79
536.83	1791.97
537.03	1738.73
537.22	1648.61
537.42	1658.85
537.62	1697.77
537.82	1689.57
538.02	1828.84
538.21	1783.78
538.41	1865.70
538.61	1820.64
538.81	1693.67
539.00	1796.07
539.20	1652.71
539.40	1667.05
539.60	1699.81
539.79	1765.35
539.99	1699.81
540.19	1720.29
540.39	1775.59
540.58	1789.92
540.78	1781.73
540.98	1777.64
541.18	1732.58
541.37	1798.12
541.57	1703.91
541.77	1765.35
541.97	1656.81
542.16	1665.00
542.36	1732.58
542.56	1705.96
542.76	1869.80
542.95	1796.07
543.15	1761.25
543.35	1785.83
543.54	1683.43
543.74	1818.60
543.94	1753.06
544.14	1728.49
544.33	1767.40
544.53	1708.01
544.73	1751.01
544.93	1687.53
545.12	1734.63
545.32	1712.10
545.52	1703.91
545.71	1611.75
545.91	1759.21
546.11	1765.35
546.30	1662.95
546.50	1755.11
546.70	1753.06
546.90	1738.73
547.09	1669.09
547.29	1734.63
547.49	1791.97
547.68	1687.53
547.88	1689.57
548.08	1785.83
548.27	2258.91
548.47	1734.63
548.67	1724.39
548.87	1753.06
549.06	1806.31
549.26	1689.57
549.46	1834.98
549.65	1687.53
549.85	1791.97
550.05	1810.40
550.24	1712.10
550.44	1820.64
550.64	1738.73
550.83	1693.67
551.03	1738.73
551.23	1818.60
551.42	1783.78
551.62	1691.62
551.82	1712.10
552.01	1744.87
552.21	1818.60
552.41	1695.72
552.60	1779.68
552.80	1734.63
553.00	1751.01
553.19	1771.49
553.39	1861.60
553.59	1624.04
553.78	1781.73
553.98	1783.78
554.17	1662.95
554.37	1785.83
554.57	1734.63
554.76	1720.29
554.96	1769.44
555.16	1718.25
555.35	1703.91
555.55	1734.63
555.75	1781.73
555.94	1742.82
556.14	1738.73
556.33	1714.15
556.53	1812.45
556.73	1800.16
556.92	1738.73
557.12	1763.30
557.32	1814.50
557.51	1767.40
557.71	1759.21
557.90	1812.45
558.10	1845.22
558.30	1755.11
558.49	1806.31
558.69	1734.63
558.88	1738.73
559.08	1753.06
559.28	1751.01
559.47	1755.11
559.67	1769.44
559.86	1861.60
560.06	1757.16
560.26	1695.72
560.45	1800.16
560.65	1718.25
560.84	1828.84
561.04	1681.38
561.24	1753.06
561.43	1714.15
561.63	1888.23
561.82	1785.83
562.02	1794.02
562.22	1738.73
562.41	1642.47
562.61	1771.49
562.80	1740.77
563.00	1918.95
563.19	1798.12
563.39	1765.35
563.59	1740.77
563.78	1681.38
563.98	1621.99
564.17	1724.39
564.37	1710.05
564.56	1804.26
564.76	1726.44
564.96	1839.08
565.15	1794.02
565.35	1859.56
565.54	1703.91
565.74	1802.21
565.93	1789.92
566.13	1751.01
566.32	1716.20
566.52	1748.97
566.71	1697.77
566.91	1787.88
567.11	1755.11
567.30	1710.05
567.50	1800.16
567.69	1724.39
567.89	1744.87
568.08	1656.81
568.28	1726.44
568.47	1755.11
568.67	1775.59
568.86	1783.78
569.06	1794.02
569.25	1779.68
569.45	1689.57
569.64	1726.44
569.84	1757.16
570.04	1791.97
570.23	1689.57
570.43	1714.15
570.62	1722.34
570.82	1888.23
571.01	1730.53
571.21	1734.63
571.40	1673.19
571.60	1789.92
571.79	1808.36
571.99	1779.68
572.18	1718.25
572.38	1773.54
572.57	1703.91
572.77	1841.12
572.96	1910.75
573.16	1710.05
573.35	1703.91
573.55	1812.45
573.74	1685.48
573.94	1673.19
574.13	1783.78
574.33	1800.16
574.52	1843.17
574.71	1654.76
574.91	1761.25
575.10	1761.25
575.30	1738.73
575.49	1822.69
575.69	1769.44
575.88	1724.39
576.08	1703.91
576.27	1783.78
576.47	1701.86
576.66	1886.18
576.86	1751.01
577.05	1740.77
577.25	1771.49
577.44	1892.32
577.64	1693.67
577.83	1871.84
578.02	1746.92
578.22	1824.74
578.41	1849.32
578.61	1796.07
578.80	1656.81
579.00	1714.15
579.19	1806.31
579.39	1802.21
579.58	1820.64
579.77	1771.49
579.97	1882.08
580.16	1837.03
580.36	1832.93
580.55	1853.41
580.75	1849.32
580.94	1798.12
581.13	1857.51
581.33	1816.55
581.52	1785.83
581.72	1843.17
581.91	1785.83
582.11	1751.01
582.30	1728.49
582.49	1789.92
582.69	1865.70
582.88	1826.79
583.08	1802.21
583.27	1849.32
583.47	1800.16
583.66	1757.16
583.85	1779.68
584.05	1765.35
584.24	1779.68
584.44	1834.98
584.63	1810.40
584.82	1953.76
585.02	1828.84
585.21	1875.94
585.41	1791.97
585.60	1824.74
585.79	1906.66
585.99	1953.76
586.18	1886.18
586.37	2215.90
586.57	3489.74
586.76	9928.55
586.96	24579.72
587.15	34651.63
587.34	40680.85
587.54	42521.98
587.73	36773.33
587.93	26814.05
588.12	21587.64
588.31	18532.07
588.51	16469.76
588.70	15374.10
588.89	14024.49
589.09	12545.86
589.28	11241.30
589.47	9449.33
589.67	7899.02
589.86	6367.13
590.06	5023.67
590.25	3942.34
590.44	3151.82
590.64	2607.06
590.83	2275.29
591.02	2125.79
591.22	2002.91
591.41	1959.91
591.60	1834.98
591.80	1845.22
591.99	1656.81
592.18	1816.55
592.38	1843.17
592.57	1791.97
592.76	1787.88
592.96	1796.07
593.15	1773.54
593.34	1843.17
593.54	1736.68
593.73	1802.21
593.92	1691.62
594.12	1669.09
594.31	1705.96
594.50	1816.55
594.70	1847.27
594.89	1918.95
595.08	1697.77
595.28	1787.88
595.47	1914.85
595.66	1791.97
595.86	1705.96
596.05	1755.11
596.24	1656.81
596.43	1847.27
596.63	1810.40
596.82	1755.11
597.01	1804.26
597.21	1843.17
597.40	1824.74
597.59	1734.63
597.79	1773.54
597.98	1753.06
598.17	1701.86
598.36	1763.30
598.56	1751.01
598.75	1755.11
598.94	1695.72
599.14	1708.01
599.33	1658.85
599.52	1759.21
599.71	1726.44
599.91	1746.92
600.10	1791.97
600.29	1734.63
600.48	1810.40
600.68	1751.01
600.87	1779.68
601.06	1681.38
601.26	1789.92
601.45	1724.39
601.64	1767.40
601.83	1730.53
602.03	1650.66
602.22	1667.05
602.41	1800.16
602.60	1796.07
602.80	1804.26
602.99	1734.63
603.18	1701.86
603.37	1824.74
603.57	1699.81
603.76	1845.22
603.95	1804.26
604.14	1742.82
604.34	1724.39
604.53	1740.77
604.72	1800.16
604.91	1765.35
605.10	1771.49
605.30	1746.92
605.49	1834.98
605.68	1839.08
605.87	1742.82
606.07	1685.48
606.26	1791.97
606.45	1767.40
606.64	1740.77
606.84	1757.16
607.03	1775.59
607.22	1746.92
607.41	1703.91
607.60	1771.49
607.80	1738.73
607.99	1751.01
608.18	1660.90
608.37	1677.29
608.56	1730.53
608.76	1861.60
608.95	1843.17
609.14	1751.01
609.33	1769.44
609.52	1773.54
609.72	1779.68
609.91	1796.07
610.10	1746.92
610.29	1814.50
610.48	1812.45
610.68	1751.01
610.87	1755.11
611.06	1783.78
611.25	1773.54
611.44	1761.25
611.63	1740.77
611.83	1810.40
612.02	1689.57
612.21	1802.21
612.40	1574.89
612.59	1740.77
612.79	1701.86
612.98	1787.88
613.17	1851.36
613.36	1826.79
613.55	1880.04
613.74	1714.15
613.93	1697.77
614.13	1658.85
614.32	1710.05
614.51	1714.15
614.70	1714.15
614.89	1683.43
615.08	1740.77
615.28	2066.40
615.47	1621.99
615.66	1728.49
615.85	1777.64
616.04	1837.03
616.23	1753.06
616.42	1753.06
616.62	1824.74
616.81	1740.77
617.00	1730.53
617.19	1751.01
617.38	1742.82
617.57	1734.63
617.76	1726.44
617.95	1822.69
618.15	1757.16
618.34	1859.56
618.53	1728.49
618.72	1794.02
618.91	1769.44
619.10	1873.89
619.29	1738.73
619.48	1687.53
619.68	1751.01
619.87	1744.87
620.06	1675.24
620.25	1781.73
620.44	1744.87
620.63	1769.44
620.82	1658.85
621.01	1703.91
621.20	1791.97
621.39	1763.30
621.59	1732.58
621.78	1685.48
621.97	1652.71
622.16	1744.87
622.35	1796.07
622.54	1802.21
622.73	1777.64
622.92	1693.67
623.11	1751.01
623.30	1751.01
623.49	1742.82
623.68	1705.96
623.88	1822.69
624.07	1757.16
624.26	1785.83
624.45	1724.39
624.64	1726.44
624.83	1763.30
625.02	1677.29
625.21	1773.54
625.40	1685.48
625.59	1824.74
625.78	1769.44
625.97	1738.73
626.16	1798.12
626.35	1716.20
626.54	1689.57
626.74	1767.40
626.93	1728.49
627.12	1730.53
627.31	1796.07
627.50	1744.87
627.69	1861.60
627.88	1701.86
628.07	1681.38
628.26	1632.23
628.45	1677.29
628.64	1683.43
628.83	1656.81
629.02	1691.62
629.21	1755.11
629.40	1814.50
629.59	1615.85
629.78	1736.68
629.97	1716.20
630.16	1679.33
630.35	1667.05
630.54	1718.25
630.73	1665.00
630.92	1675.24
631.11	1736.68
631.30	1656.81
631.49	1847.27
631.68	1720.29
631.87	1781.73
632.06	1732.58
632.25	1839.08
632.44	1703.91
632.63	1796.07
632.82	1650.66
633.01	1621.99
633.20	1769.44
633.39	1621.99
633.58	1650.66
633.77	1736.68
633.96	1714.15
634.15	1794.02
634.34	1751.01
634.53	1763.30
634.72	1662.95
634.91	1595.37
635.10	1728.49
635.29	1728.49
635.48	1773.54
635.67	1673.19
635.86	1619.94
636.05	1755.11
636.24	1746.92
636.43	1665.00
636.62	1798.12
636.81	1574.89
637.00	1767.40
637.19	1726.44
637.38	1722.34
637.57	1683.43
637.76	1726.44
637.95	1763.30
638.14	1720.29
638.33	1714.15
638.52	1839.08
638.71	1640.42
638.89	1669.09
639.08	1796.07
639.27	1730.53
639.46	1619.94
639.65	1779.68
639.84	1751.01
640.03	1728.49
640.22	1669.09
640.41	1773.54
640.60	1771.49
640.79	1777.64
640.98	1685.48
641.17	1693.67
641.36	1726.44
641.55	1712.10
641.74	1652.71
641.92	1621.99
642.11	1716.20
642.30	1751.01
642.49	1658.85
642.68	1667.05
642.87	1753.06
643.06	1775.59
643.25	1667.05
643.44	1712.10
643.63	1720.29
643.82	1744.87
644.00	1566.70
644.19	1740.77
644.38	1638.38
644.57	1697.77
644.76	1687.53
644.95	1652.71
645.14	1710.05
645.33	1712.10
645.52	1673.19
645.71	1662.95
645.89	1669.09
646.08	1701.86
646.27	1703.91
646.46	1798.12
646.65	1681.38
646.84	1710.05
647.03	1685.48
647.22	1853.41
647.40	1779.68
647.59	1685.48
647.78	1710.05
647.97	1693.67
648.16	1634.28
648.35	1802.21
648.54	1824.74
648.73	1740.77
648.91	1751.01
649.10	1767.40
649.29	1697.77
649.48	1724.39
649.67	1673.19
649.86	1724.39
650.05	1720.29
650.23	1708.01
650.42	1695.72
650.61	1763.30
650.80	1798.12
650.99	1894.37
651.18	1777.64
651.36	1841.12
651.55	1689.57
651.74	1794.02
651.93	1730.53
652.12	1734.63
652.31	1710.05
652.49	1665.00
652.68	1705.96
652.87	1738.73
653.06	1763.30
653.25	1828.84
653.44	1769.44
653.62	1822.69
653.81	1726.44
654.00	1720.29
654.19	1773.54
654.38	1877.99
654.56	1728.49
654.75	1738.73
654.94	1712.10
655.13	1787.88
655.32	1691.62
655.51	1767.40
655.69	1718.25
655.88	1791.97
656.07	1660.90
656.26	1716.20
656.45	1675.24
656.63	1697.77
656.82	1681.38
657.01	1802.21
657.20	1648.61
657.38	1861.60
657.57	1683.43
657.76	1654.76
657.95	1726.44
658.14	1650.66
658.32	1767.40
658.51	1685.48
658.70	1781.73
658.89	1679.33
659.08	1693.67
659.26	1742.82
659.45	1742.82
659.64	1689.57
659.83	1759.21
660.01	1906.66
660.20	1738.73
660.39	1855.46
660.58	1626.09
660.76	1771.49
660.95	1701.86
661.14	1718.25
661.33	1695.72
661.51	1808.36
661.70	1767.40
661.89	1730.53
662.08	1679.33
662.26	1718.25
662.45	1679.33
662.64	1779.68
662.83	1882.08
663.01	1734.63
663.20	1660.90
663.39	1734.63
663.58	1746.92
663.76	1701.86
663.95	1740.77
664.14	1722.34
664.32	1679.33
664.51	1650.66
664.70	1714.15
664.89	1779.68
665.07	1693.67
665.26	1837.03
665.45	1691.62
665.64	1710.05
665.82	1728.49
666.01	1685.48
666.20	1685.48
666.38	1771.49
666.57	1863.65
666.76	2226.14
666.95	4552.63
667.13	10737.50
667.32	15535.89
667.51	18036.46
667.69	19359.45
667.88	18034.41
668.07	12308.29
668.25	9586.54
668.44	8298.37
668.63	7333.78
668.81	6805.40
669.00	6424.48
669.19	5740.46
669.38	5314.48
669.56	4726.71
669.75	4032.45
669.94	3448.78
670.12	2990.03
670.31	2527.19
670.50	2256.86
670.68	2021.35
670.87	1933.28
671.06	1837.03
671.24	1765.35
671.43	1855.46
671.62	1669.09
671.80	1654.76
671.99	1691.62
672.18	1769.44
672.36	1755.11
672.55	1822.69
672.74	1689.57
672.92	1714.15
673.11	1802.21
673.29	1687.53
673.48	1722.34
673.67	1730.53
673.85	1714.15
674.04	1675.24
674.23	1798.12
674.41	1847.27
674.60	1642.47
674.79	1595.37
674.97	1742.82
675.16	1761.25
675.34	1708.01
675.53	1621.99
675.72	1712.10
675.90	1791.97
676.09	1697.77
676.28	1689.57
676.46	1609.70
676.65	1789.92
676.83	1662.95
677.02	1732.58
677.21	1738.73
677.39	1730.53
677.58	1656.81
677.77	1724.39
677.95	1744.87
678.14	1683.43
678.32	1660.90
678.51	1677.29
678.70	1818.60
678.88	1646.57
679.07	1759.21
679.25	1685.48
679.44	1771.49
679.63	1644.52
679.81	1720.29
680.00	1808.36
680.18	1687.53
680.37	1834.98
680.55	1722.34
680.74	1677.29
680.93	1669.09
681.11	1722.34
681.30	1785.83
681.48	1689.57
681.67	1677.29
681.85	1759.21
682.04	1658.85
682.23	1705.96
682.41	1742.82
682.60	1730.53
682.78	1609.70
682.97	1689.57
683.15	1730.53
683.34	1740.77
683.53	1798.12
683.71	1570.79
683.90	1843.17
684.08	1832.93
684.27	1689.57
684.45	1742.82
684.64	1843.17
684.82	1671.14
685.01	1769.44
685.19	1773.54
685.38	1824.74
685.57	1732.58
685.75	1689.57
685.94	1710.05
686.12	1665.00
686.31	1740.77
686.49	1732.58
686.68	1658.85
686.86	1794.02
687.05	1685.48
687.23	1822.69
687.42	1656.81
687.60	1619.94
687.79	1773.54
687.97	1802.21
688.16	1761.25
688.34	1761.25
688.53	1572.84
688.71	1828.84
688.90	1816.55
689.08	1703.91
689.27	1624.04
689.45	1742.82
689.64	1816.55
689.82	1751.01
690.01	1693.67
690.19	1730.53
690.38	1710.05
690.56	1855.46
690.75	1710.05
690.93	1675.24
691.12	1671.14
691.30	1773.54
691.49	1699.81
691.67	1734.63
691.86	1826.79
692.04	1681.38
692.23	1677.29
692.41	1714.15
692.60	1828.84
692.78	1781.73
692.97	1740.77
693.15	1816.55
693.34	1791.97
693.52	1812.45
693.71	1681.38
693.89	1710.05
694.08	1599.46
694.26	1783.78
694.44	1730.53
694.63	1746.92
694.81	1685.48
695.00	1581.03
695.18	1839.08
695.37	1816.55
695.55	1796.07
695.74	1767.40
695.92	1697.77
696.10	1779.68
696.29	1693.67
696.47	1742.82
696.66	1695.72
696.84	1697.77
697.03	1738.73
697.21	1845.22
697.40	2273.25
697.58	1787.88
697.76	1681.38
697.95	1630.18
698.13	1728.49
698.32	1685.48
698.50	1705.96
698.68	1796.07
698.87	1716.20
699.05	1787.88
699.24	1722.34
699.42	1673.19
699.61	1775.59
699.79	1759.21
699.97	1738.73
700.16	1654.76
700.34	1728.49
700.53	1738.73
700.71	1781.73
700.89	1693.67
701.08	1753.06
701.26	1734.63
701.45	2158.56
701.63	1705.96
701.81	1714.15
702.00	1689.57
702.18	1746.92
702.37	1775.59
702.55	1822.69
702.73	1783.78
702.92	1669.09
703.10	1783.78
703.28	1798.12
703.47	1628.14
703.65	1794.02
703.84	1765.35
704.02	1679.33
704.20	1751.01
704.39	1585.13
704.57	1697.77
704.75	1685.48
704.94	1775.59
705.12	1759.21
705.30	1808.36
705.49	2256.86
705.67	4413.37
705.86	9387.89
706.04	12592.96
706.22	14614.30
706.41	15570.71
706.59	13860.65
706.77	9727.85
706.96	7499.66
707.14	6576.03
707.32	6057.89
707.51	5715.88
707.69	4896.69
707.87	4153.28
708.06	3581.90
708.24	2938.84
708.42	2408.41
708.61	2258.91
708.79	1927.14
708.97	1943.52
709.16	1800.16
709.34	1771.49
709.52	1683.43
709.71	1783.78
709.89	1789.92
710.07	1658.85
710.26	1728.49
710.44	1658.85
710.62	1794.02
710.80	1773.54
710.99	1767.40
711.17	1744.87
711.35	1621.99
711.54	1697.77
711.72	1810.40
711.90	1779.68
712.09	1755.11
712.27	1685.48
712.45	1761.25
712.63	1687.53
712.82	1787.88
713.00	1689.57
713.18	1789.92
713.37	1808.36
713.55	1740.77
713.73	1712.10
713.91	1759.21
714.10	1722.34
714.28	1671.14
714.46	1746.92
714.65	1753.06
714.83	1648.61
715.01	1742.82
715.19	1757.16
715.38	1624.04
715.56	1787.88
715.74	1697.77
715.92	1607.66
716.11	1810.40
716.29	1589.22
716.47	1660.90
716.65	1673.19
716.84	1710.05
717.02	1794.02
717.20	1621.99
717.38	1652.71
717.57	1703.91
717.75	1699.81
717.93	1738.73
718.11	1648.61
718.30	1728.49
718.48	1837.03
718.66	1779.68
718.84	1761.25
719.03	1689.57
719.21	1673.19
719.39	1744.87
719.57	1748.97
719.75	1798.12
719.94	1679.33
720.12	1685.48
720.30	1714.15
720.48	1740.77
720.67	1632.23
720.85	1630.18
721.03	1720.29
721.21	1632.23
721.39	1806.31
721.58	1748.97
721.76	1787.88
721.94	1699.81
722.12	1765.35
722.30	1832.93
722.49	1662.95
722.67	1734.63
722.85	1689.57
723.03	1675.24
723.21	1673.19
723.40	1726.44
723.58	1744.87
723.76	1712.10
723.94	1777.64
724.12	1769.44
724.30	1720.29
724.49	1800.16
724.67	1671.14
724.85	1771.49
725.03	1714.15
725.21	1734.63
725.40	1789.92
725.58	1693.67
725.76	1806.31
725.94	1720.29
726.12	1583.08
726.30	1701.86
726.49	1804.26
726.67	1722.34
726.85	1800.16
727.03	1740.77
727.21	2201.57
727.39	2848.72
727.57	3952.58
727.76	4177.86
727.94	4655.03
728.12	4476.86
728.30	3712.97
728.48	3061.71
728.66	2754.52
728.84	2539.48
729.03	2361.31
729.21	2160.61
729.39	2009.06
729.57	1841.12
729.75	1832.93
729.93	1841.12
730.11	1681.38
730.30	1740.77
730.48	1710.05
730.66	1785.83
730.84	1759.21
731.02	1771.49
731.20	1757.16
731.38	1730.53
731.56	1601.51
731.74	1681.38
731.93	1789.92
732.11	1779.68
732.29	1673.19
732.47	1710.05
732.65	1728.49
732.83	1845.22
733.01	1732.58
733.19	1701.86
733.37	1681.38
733.56	1808.36
733.74	1693.67
733.92	1746.92
734.10	1695.72
734.28	1732.58
734.46	1669.09
734.64	1728.49
734.82	1695.72
735.00	1562.60
735.18	1712.10
735.36	1691.62
735.54	1671.14
735.73	1769.44
735.91	1728.49
736.09	1763.30
736.27	1751.01
736.45	1705.96
736.63	1570.79
736.81	1693.67
736.99	1695.72
737.17	1832.93
737.35	1675.24
737.53	1724.39
737.71	1652.71
737.89	1769.44
738.07	1673.19
738.25	1693.67
738.43	1583.08
738.61	1640.42
738.80	1665.00
738.98	1691.62
739.16	1679.33
739.34	1683.43
739.52	1794.02
739.70	1714.15
739.88	1726.44
740.06	1785.83
740.24	1552.36
740.42	1763.30
740.60	1613.80
740.78	1671.14
740.96	1648.61
741.14	1714.15
741.32	1681.38
741.50	1646.57
741.68	1816.55
741.86	1736.68
742.04	1632.23
742.22	1642.47
742.40	1687.53
742.58	1808.36
742.76	1673.19
742.94	1832.93
743.12	1599.46
743.30	1712.10
743.48	1755.11
743.66	1726.44
743.84	1701.86
744.02	1705.96
744.20	1691.62
744.38	1697.77
744.56	1685.48
744.74	1771.49
744.92	1710.05
745.10	1796.07
745.28	1808.36
745.46	1753.06
745.64	1638.38
745.82	1740.77
746.00	1699.81
746.18	1658.85
746.36	1673.19
746.54	1714.15
746.72	1742.82
746.90	1632.23
747.08	1773.54
747.26	1720.29
747.44	1744.87
747.62	1751.01
747.80	1695.72
747.98	1787.88
748.15	1617.90
748.33	1767.40
748.51	1667.05
748.69	1673.19
748.87	1595.37
749.05	1646.57
749.23	1689.57
749.41	1789.92
749.59	1736.68
749.77	1824.74
749.95	1753.06
750.13	1691.62
750.31	1802.21
750.49	1691.62
750.67	1744.87
750.85	1871.84
751.03	1669.09
751.20	1822.69
751.38	1722.34
751.56	1681.38
751.74	1683.43
751.92	1714.15
752.10	1742.82
752.28	1767.40
752.46	1728.49
752.64	1679.33
752.82	1675.24
753.00	1818.60
753.18	1685.48
753.35	1712.10
753.53	1763.30
753.71	1691.62
753.89	1681.38
754.07	1730.53
754.25	1695.72
754.43	1656.81
754.61	1718.25
754.79	1726.44
754.97	1759.21
755.14	1761.25
755.32	1591.27
755.50	1748.97
755.68	1708.01
755.86	1624.04
756.04	1683.43
756.22	1599.46
756.40	1734.63
756.57	1808.36
756.75	1751.01
756.93	1744.87
757.11	1849.32
757.29	1605.61
757.47	1677.29
757.65	1603.56
757.82	1615.85
758.00	1652.71
758.18	1619.94
758.36	1683.43
758.54	1755.11
758.72	1542.12
758.90	1785.83
759.07	1697.77
759.25	1695.72
759.43	1722.34
759.61	1671.14
759.79	2224.09
759.97	1843.17
760.15	1773.54
760.32	1683.43
760.50	1726.44
760.68	1869.80
760.86	1609.70
761.04	1767.40
761.22	1732.58
761.39	1724.39
761.57	1712.10
761.75	1716.20
761.93	1734.63
762.11	1689.57
762.28	1734.63
762.46	1667.05
762.64	1722.34
762.82	1615.85
763.00	1646.57
763.18	1718.25
763.35	1632.23
763.53	1722.34
763.71	1726.44
763.89	1642.47
764.07	1710.05
764.24	1724.39
764.42	1832.93
764.60	1703.91
764.78	1720.29
764.96	1720.29
765.13	1720.29
765.31	1751.01
765.49	1779.68
765.67	1683.43
765.84	1660.90
766.02	1660.90
766.20	1660.90
766.38	1763.30
766.56	1730.53
766.73	1748.97
766.91	1724.39
767.09	1769.44
767.27	1748.97
767.44	1638.38
767.62	1794.02
767.80	1751.01
767.98	1705.96
768.15	1724.39
768.33	1689.57
768.51	1724.39
768.69	1714.15
768.87	1757.16
769.04	1662.95
769.22	1904.61
769.40	1859.56
769.58	1800.16
769.75	1755.11
769.93	1816.55
770.11	1687.53
770.28	1660.90
770.46	1763.30
770.64	1755.11
770.82	1669.09
770.99	1640.42
771.17	1701.86
771.35	1732.58
771.53	1677.29
771.70	1675.24
771.88	1791.97
772.06	1744.87
772.23	1714.15
772.41	1748.97
772.59	1697.77
772.77	1710.05
772.94	1751.01
773.12	1779.68
773.30	1716.20
773.47	1724.39
773.65	1581.03
773.83	1773.54
774.01	1665.00
774.18	1572.84
774.36	1699.81
774.54	1697.77
774.71	1748.97
774.89	1624.04
775.07	1636.33
775.24	1671.14
775.42	1699.81
775.60	1849.32
775.78	1695.72
775.95	1621.99
776.13	1642.47
776.31	1615.85
776.48	1732.58
776.66	1755.11
776.84	1658.85
777.01	1636.33
777.19	1648.61
777.37	1630.18
777.54	1703.91
777.72	1812.45
777.90	1701.86
778.07	1677.29
778.25	1847.27
778.43	1746.92
778.60	1652.71
778.78	1732.58
778.96	1775.59
779.13	1689.57
779.31	1787.88
779.49	1691.62
779.66	1689.57
779.84	1748.97
780.01	1656.81
780.19	1652.71
780.37	1732.58
780.54	1769.44
780.72	1669.09
780.90	1726.44
781.07	1705.96
781.25	1720.29
781.43	1773.54
781.60	1685.48
781.78	1865.70
781.95	1650.66
782.13	1697.77
782.31	1693.67
782.48	1624.04
782.66	1767.40
782.83	1849.32
783.01	1695.72
783.19	1775.59
783.36	1693.67
783.54	1648.61
783.72	1703.91
783.89	1683.43
784.07	1755.11
784.24	1685.48
784.42	1859.56
784.60	1789.92
784.77	1785.83
784.95	1634.28
785.12	1751.01
785.30	1800.16
785.47	1699.81
785.65	1730.53
785.83	1757.16
786.00	1697.77
786.18	1681.38
786.35	1609.70
786.53	1683.43
786.71	1746.92
786.88	1714.15
787.06	1738.73
787.23	1708.01
787.41	1667.05
787.58	1626.09
787.76	1669.09
787.94	1748.97
788.11	1759.21
788.29	1675.24
788.46	1650.66
788.64	1640.42
788.81	1732.58
788.99	1613.80
789.16	1662.95
789.34	1699.81
789.52	1683.43
789.69	1681.38
789.87	1636.33
790.04	1572.84
790.22	1753.06
790.39	1812.45
790.57	1689.57
790.74	1691.62
790.92	1806.31
791.09	1703.91
791.27	1691.62
791.44	1755.11
791.62	1718.25
791.79	1765.35
791.97	1677.29
792.15	1892.32
792.32	1736.68
792.50	1730.53
792.67	1783.78
792.85	1746.92
793.02	1656.81
793.20	1656.81
793.37	1597.42
793.55	1771.49
793.72	1648.61
793.90	1718.25
794.07	1685.48
794.25	1656.81
794.42	1708.01
794.60	1695.72
794.77	1705.96
794.95	1724.39
795.12	1777.64
795.30	1675.24
795.47	1603.56
795.65	1841.12
795.82	1693.67
796.00	1658.85
796.17	1660.90
796.34	1640.42
796.52	1736.68
796.69	1800.16
796.87	1785.83
797.04	1806.31
797.22	1808.36
797.39	1740.77
797.57	1767.40
797.74	1697.77
797.92	1787.88
798.09	1642.47
798.27	1757.16
798.44	1787.88
798.62	1628.14
798.79	1734.63
798.96	1791.97
799.14	1665.00
799.31	1927.14
799.49	1673.19
799.66	1646.57
799.84	1771.49
800.01	1617.90
800.19	1779.68
800.36	1636.33
800.53	1667.05
800.71	1726.44
800.88	1810.40
801.06	1662.95
801.23	1662.95
801.41	1714.15
801.58	1714.15
801.75	1714.15
801.93	1714.15
802.10	1646.57
802.28	1724.39
802.45	1613.80
802.63	1689.57
802.80	1755.11
802.97	1693.67
803.15	1658.85
803.32	1626.09
803.50	1646.57
803.67	1695.72
803.84	1714.15
804.02	1578.98
804.19	1728.49
804.37	1583.08
804.54	1656.81
804.71	1591.27
804.89	1781.73
805.06	1695.72
805.24	1681.38
805.41	1689.57
805.58	1675.24
805.76	1824.74
805.93	1751.01
806.10	1765.35
806.28	1767.40
806.45	1740.77
806.63	1732.58
806.80	1734.63
806.97	1665.00
807.15	1677.29
807.32	1671.14
807.49	1740.77
807.67	1683.43
807.84	1691.62
808.01	1644.52
808.19	1857.51
808.36	1824.74
808.54	1724.39
808.71	1669.09
808.88	1716.20
809.06	1699.81
809.23	1759.21
809.40	1699.81
809.58	1699.81
809.75	1703.91
809.92	1712.10
810.10	1834.98
810.27	1730.53
810.44	1785.83
810.62	1673.19
810.79	1662.95
810.96	1691.62
811.14	1720.29
811.31	1751.01
811.48	1740.77
811.66	1703.91
811.83	1796.07
812.00	1658.85
812.18	1697.77
812.35	1880.04
812.52	1650.66
812.69	1669.09
812.87	1671.14
813.04	1607.66
813.21	1736.68
813.39	1640.42
813.56	1585.13
813.73	1779.68
813.91	1646.57
814.08	1683.43
814.25	1697.77
814.42	1617.90
814.60	1677.29
814.77	1697.77
814.94	1669.09
815.12	1740.77
815.29	1755.11
815.46	1685.48
815.63	1708.01
815.81	1726.44
815.98	1673.19
816.15	1656.81
816.33	1710.05
816.50	1660.90
816.67	1632.23
816.84	1673.19
817.02	1724.39
817.19	1677.29
817.36	1740.77
817.53	1718.25
817.71	1595.37
817.88	1730.53
818.05	1746.92
818.22	1705.96
818.40	1812.45
818.57	1660.90
818.74	1714.15
818.91	1767.40
819.09	1722.34
819.26	1736.68
819.43	1564.65
819.60	1701.86
819.78	1665.00
819.95	1779.68
820.12	1574.89
820.29	1761.25
820.47	1714.15
820.64	1683.43
820.81	1648.61
820.98	1708.01
821.15	1691.62
821.33	1753.06
821.50	1646.57
821.67	1785.83
821.84	1718.25
822.02	1724.39
822.19	1681.38
822.36	1687.53
822.53	1722.34
822.70	1685.48
822.88	1732.58
823.05	1861.60
823.22	1615.85
823.39	1775.59
823.56	1738.73
823.74	1763.30
823.91	1662.95
824.08	1621.99
824.25	1628.14
824.42	1751.01
824.60	1673.19
824.77	1708.01
824.94	1773.54
825.11	1705.96
825.28	1646.57
825.45	1714.15
825.63	1730.53
825.80	1648.61
825.97	1755.11
826.14	1691.62
826.31	1669.09
826.48	1804.26
826.66	1628.14
826.83	1718.25
827.00	1689.57
827.17	1658.85
827.34	1669.09
827.51	1687.53
827.69	1779.68
827.86	1626.09
828.03	1708.01
828.20	1644.52
828.37	1621.99
828.54	1783.78
828.71	1685.48
828.89	1746.92
829.06	1699.81
829.23	1740.77
829.40	1732.58
829.57	1652.71
829.74	1699.81
829.91	1650.66
830.09	1679.33
830.26	1718.25
830.43	1767.40
830.60	1642.47
830.77	1763.30
830.94	1789.92
831.11	1740.77
831.28	1712.10
831.46	1718.25
831.63	1701.86
831.80	1787.88
831.97	1634.28
832.14	1714.15
832.31	1738.73
832.48	1751.01
832.65	1742.82
832.82	1773.54
832.99	1798.12
833.17	1626.09
833.34	1791.97
833.51	1732.58
833.68	1564.65
833.85	1738.73
834.02	1677.29
834.19	1619.94
834.36	1632.23
834.53	1697.77
834.70	1722.34
834.87	1810.40
835.04	1701.86
835.22	1644.52
835.39	1708.01
835.56	1619.94
835.73	1671.14
835.90	1886.18
836.07	1597.42
836.24	1728.49
836.41	1628.14
836.58	1591.27
836.75	1738.73
836.92	1826.79
837.09	1695.72
837.26	1757.16
837.43	1695.72
837.60	1757.16
837.77	1687.53
837.94	1751.01
838.12	1781.73
838.29	1732.58
838.46	1656.81
838.63	1624.04
838.80	1804.26
838.97	1787.88
839.14	1708.01
839.31	1695.72
839.48	1740.77
839.65	1660.90
839.82	1724.39
839.99	1789.92
840.16	1732.58
840.33	1712.10
840.50	1746.92
840.67	1697.77
840.84	1552.36
841.01	1665.00
841.18	1683.43
841.35	1642.47
841.52	1785.83
841.69	1806.31
841.86	1697.77
842.03	1708.01
842.20	1755.11
842.37	1722.34
842.54	1679.33
842.71	1710.05
842.88	1640.42
843.05	1755.11
843.22	1621.99
843.39	1693.67
843.56	1703.91
843.73	1779.68
843.90	1636.33
844.07	1693.67
844.24	1796.07
844.41	1775.59
844.58	1783.78
844.75	1693.67
844.92	1748.97
845.09	1673.19
845.26	1650.66
845.43	1658.85
845.60	1675.24
845.77	1748.97
845.94	1751.01
846.10	1800.16
846.27	1640.42
846.44	1644.52
846.61	1677.29
846.78	1746.92
846.95	1777.64
847.12	1652.71
847.29	1681.38
847.46	1722.34
847.63	1826.79
847.80	1699.81
847.97	1708.01
848.14	1800.16
848.31	1660.90
848.48	1689.57
848.65	1724.39
848.82	1587.18
848.98	1824.74
849.15	1722.34
849.32	1785.83
849.49	1734.63
849.66	1759.21
849.83	1726.44
850.00	1652.71
850.17	1656.81
850.34	1730.53
850.51	1705.96
850.68	1677.29
850.85	1767.40
851.01	1744.87
851.18	1710.05
851.35	1748.97
851.52	1742.82
851.69	1847.27
851.86	1611.75
852.03	1589.22
852.20	1691.62
852.37	1769.44
852.53	1615.85
852.70	1654.76
852.87	1718.25
853.04	1722.34
853.21	1748.97
853.38	1781.73
853.55	1818.60
853.72	1681.38
853.89	1716.20
854.05	1701.86
854.22	1712.10
854.39	1697.77
854.56	1708.01
854.73	1759.21
854.90	1720.29
855.07	1748.97
855.23	1675.24
855.40	1605.61
855.57	1763.30
855.74	1658.85
855.91	1910.75
856.08	1699.81
856.25	1662.95
856.41	1738.73
856.58	1712.10
856.75	1800.16
856.92	1679.33
857.09	1777.64
857.26	1585.13
857.42	1708.01
857.59	1683.43
857.76	1646.57
857.93	1652.71
858.10	1703.91
858.27	1644.52
858.43	1642.47
858.60	1746.92
858.77	1572.84
858.94	1683.43
859.11	1751.01
859.27	1665.00
859.44	1736.68
859.61	1810.40
859.78	1730.53
859.95	1714.15
860.12	1603.56
860.28	1849.32
860.45	1748.97
860.62	1638.38
860.79	1759.21
860.95	1705.96
861.12	1572.84
861.29	1626.09
861.46	1621.99
861.63	1607.66
861.79	1673.19
861.96	1613.80
862.13	1697.77
862.30	1746.92
862.47	1662.95
862.63	1630.18
862.80	1746.92
862.97	1785.83
863.14	1714.15
863.30	1687.53
863.47	1675.24
863.64	1783.78
863.81	1671.14
863.97	1632.23
864.14	1755.11
864.31	1689.57
864.48	1748.97
864.65	1708.01
864.81	1714.15
864.98	1759.21
865.15	1765.35
865.32	1751.01
865.48	1738.73
865.65	1820.64
865.82	1685.48
865.98	1757.16
866.15	1841.12
866.32	1689.57
866.49	1687.53
866.65	1800.16
866.82	1615.85
866.99	1683.43
867.16	1705.96
867.32	1644.52
867.49	1632.23
867.66	1640.42
867.83	1730.53
867.99	1679.33
868.16	1695.72
868.33	1646.57
868.49	1665.00
868.66	1576.94
868.83	1720.29
868.99	1744.87
869.16	1740.77
869.33	1773.54
869.50	1812.45
869.66	1744.87
869.83	1683.43
870.00	1515.50
870.16	1828.84
870.33	1691.62
870.50	1742.82
870.66	1710.05
870.83	1824.74
871.00	1697.77
871.17	1769.44
871.33	1730.53
871.50	1679.33
871.67	1712.10
871.83	1648.61
872.00	1834.98
872.17	1718.25
872.33	1847.27
872.50	1736.68
872.67	1730.53
872.83	1660.90
873.00	1787.88
873.17	1738.73
873.33	1771.49
873.50	1746.92
873.67	1621.99
873.83	1722.34
874.00	1665.00
874.16	1808.36
874.33	1650.66
874.50	1681.38
874.66	1820.64
874.83	1746.92
875.00	1748.97
875.16	1773.54
875.33	1755.11
875.50	1628.14
875.66	1693.67
875.83	1675.24
875.99	1802.21
876.16	1685.48
876.33	1687.53
876.49	1714.15
876.66	1777.64
876.83	1720.29
876.99	1646.57
877.16	1658.85
877.32	1677.29
877.49	1685.48
877.66	1740.77
877.82	1851.36
877.99	1720.29
878.15	1738.73
878.32	1751.01
878.49	1703.91
878.65	1722.34
878.82	1767.40
878.98	1662.95
879.15	1839.08
879.32	1800.16
879.48	1675.24
879.65	1677.29
879.81	1742.82
879.98	1716.20
880.15	1662.95
880.31	1814.50
880.48	1634.28
880.64	1665.00
880.81	1714.15
880.97	1748.97
881.14	1744.87
881.31	1650.66
881.47	1824.74
881.64	1708.01
881.80	1566.70
881.97	1755.11
882.13	1734.63
882.30	1675.24
882.47	1646.57
882.63	1687.53
882.80	1673.19
882.96	1712.10
883.13	1736.68
883.29	1675.24
883.46	1669.09
883.62	1861.60
883.79	1656.81
883.95	1763.30
884.12	1669.09
884.29	1734.63
884.45	1769.44
884.62	1748.97
884.78	1660.90
884.95	1751.01
885.11	1705.96
885.28	1687.53
885.44	1689.57
885.61	1726.44
885.77	1697.77
885.94	1714.15
886.10	1814.50
886.27	1710.05
886.43	1724.39
886.60	1720.29
886.76	1726.44
886.93	1626.09
887.09	1658.85
887.26	1640.42
887.42	1705.96
887.59	1787.88
887.75	1798.12
887.92	1800.16
888.08	1730.53
888.25	1748.97
888.41	1724.39
888.58	1703.91
888.74	1665.00
888.91	1642.47
>>>>>End Processed Spectral Data<<<<<
