SpectraSuite Data File
++++++++++++++++++++++++++++++++++++
Date: Mon Jun 06 14:07:37 CEST 2016
User: root
Dark Spectrum Present: No
Reference Spectrum Present: No
Number of Sampled Component Spectra: 1
Spectrometers: USB4C02835
Integration Time (usec): 100000 (USB4C02835)
Spectra Averaged: 1 (USB4C02835)
Boxcar Smoothing: 0 (USB4C02835)
Correct for Electrical Dark: No (USB4C02835)
Strobe/Lamp Enabled: No (USB4C02835)
Correct for Detector Non-linearity: No (USB4C02835)
Correct for Stray Light: No (USB4C02835)
Number of Pixels in Processed Spectrum: 3648
>>>>>Begin Processed Spectral Data<<<<<
177.47	1435.63
177.69	1435.63
177.91	1435.63
178.13	1447.91
178.36	1466.35
178.58	1669.09
178.80	1687.53
179.02	1665.00
179.24	1611.75
179.46	1679.33
179.68	1746.92
179.90	1648.61
180.13	1665.00
180.35	1683.43
180.57	1744.87
180.79	1742.82
181.01	1652.71
181.23	1722.34
181.45	1757.16
181.67	1722.34
181.90	1798.12
182.12	1638.38
182.34	1640.42
182.56	1701.86
182.78	1695.72
183.00	1574.89
183.22	1677.29
183.44	1570.79
183.66	1849.32
183.89	1841.12
184.11	1685.48
184.33	1714.15
184.55	1769.44
184.77	1726.44
184.99	1701.86
185.21	1615.85
185.43	1771.49
185.65	1626.09
185.87	1724.39
186.10	1849.32
186.32	1830.88
186.54	1697.77
186.76	1703.91
186.98	1726.44
187.20	1654.76
187.42	1583.08
187.64	1710.05
187.86	1718.25
188.08	1763.30
188.30	1705.96
188.52	1656.81
188.75	1857.51
188.97	1751.01
189.19	1685.48
189.41	1708.01
189.63	1746.92
189.85	1665.00
190.07	1626.09
190.29	1601.51
190.51	1728.49
190.73	1599.46
190.95	1791.97
191.17	1769.44
191.39	1585.13
191.61	1685.48
191.84	1621.99
192.06	1701.86
192.28	1585.13
192.50	1890.28
192.72	1722.34
192.94	1683.43
193.16	1724.39
193.38	1685.48
193.60	1665.00
193.82	1675.24
194.04	1724.39
194.26	1732.58
194.48	1775.59
194.70	1685.48
194.92	1710.05
195.14	1783.78
195.36	1621.99
195.58	1665.00
195.80	1679.33
196.02	1703.91
196.24	1710.05
196.46	1695.72
196.69	1613.80
196.91	1898.47
197.13	1648.61
197.35	1730.53
197.57	1826.79
197.79	1722.34
198.01	1806.31
198.23	1691.62
198.45	1734.63
198.67	1611.75
198.89	1691.62
199.11	1683.43
199.33	1714.15
199.55	1626.09
199.77	1671.14
199.99	1777.64
200.21	1718.25
200.43	1740.77
200.65	1685.48
200.87	1560.55
201.09	1708.01
201.31	1697.77
201.53	1800.16
201.75	1724.39
201.97	1738.73
202.19	1705.96
202.41	1800.16
202.63	1763.30
202.85	1751.01
203.07	1671.14
203.29	1644.52
203.51	1630.18
203.73	1650.66
203.95	1849.32
204.17	1681.38
204.39	1755.11
204.61	1701.86
204.83	1708.01
205.05	1775.59
205.27	1742.82
205.49	1781.73
205.71	1689.57
205.93	1644.52
206.15	1648.61
206.37	1728.49
206.59	1716.20
206.81	1654.76
207.03	1667.05
207.25	1652.71
207.47	1771.49
207.69	1724.39
207.91	1734.63
208.13	1791.97
208.34	1640.42
208.56	1630.18
208.78	1763.30
209.00	1695.72
209.22	1689.57
209.44	1660.90
209.66	1714.15
209.88	1789.92
210.10	1724.39
210.32	1693.67
210.54	1734.63
210.76	1675.24
210.98	1677.29
211.20	1626.09
211.42	1677.29
211.64	1808.36
211.86	1712.10
212.08	1722.34
212.30	1718.25
212.52	1673.19
212.74	1732.58
212.96	1660.90
213.17	1732.58
213.39	1673.19
213.61	1806.31
213.83	1744.87
214.05	1703.91
214.27	1744.87
214.49	1642.47
214.71	1615.85
214.93	1673.19
215.15	1640.42
215.37	1673.19
215.59	1589.22
215.81	1718.25
216.03	1769.44
216.24	1665.00
216.46	1736.68
216.68	1693.67
216.90	1789.92
217.12	1783.78
217.34	1708.01
217.56	1779.68
217.78	1824.74
218.00	1689.57
218.22	1724.39
218.44	1794.02
218.66	1738.73
218.87	1765.35
219.09	1595.37
219.31	1695.72
219.53	1722.34
219.75	1677.29
219.97	1636.33
220.19	1714.15
220.41	1626.09
220.63	1730.53
220.85	1740.77
221.06	1716.20
221.28	1832.93
221.50	1773.54
221.72	1722.34
221.94	1671.14
222.16	1634.28
222.38	1851.36
222.60	1679.33
222.82	1642.47
223.03	1710.05
223.25	1677.29
223.47	1763.30
223.69	1798.12
223.91	1728.49
224.13	1650.66
224.35	1703.91
224.57	1697.77
224.78	1705.96
225.00	1583.08
225.22	1751.01
225.44	1636.33
225.66	1744.87
225.88	1738.73
226.10	1757.16
226.32	1746.92
226.53	1755.11
226.75	1630.18
226.97	1753.06
227.19	1701.86
227.41	1636.33
227.63	1726.44
227.85	1693.67
228.06	1671.14
228.28	1636.33
228.50	1753.06
228.72	1671.14
228.94	1613.80
229.16	1619.94
229.37	1679.33
229.59	1685.48
229.81	1656.81
230.03	1673.19
230.25	1640.42
230.47	1634.28
230.69	1607.66
230.90	1683.43
231.12	1689.57
231.34	1744.87
231.56	1656.81
231.78	1632.23
232.00	1755.11
232.21	1765.35
232.43	1683.43
232.65	1570.79
232.87	1669.09
233.09	1656.81
233.30	1591.27
233.52	1730.53
233.74	1740.77
233.96	1689.57
234.18	1697.77
234.40	1712.10
234.61	1800.16
234.83	1593.32
235.05	1621.99
235.27	1806.31
235.49	1757.16
235.70	1736.68
235.92	1847.27
236.14	1794.02
236.36	1828.84
236.58	1591.27
236.79	1785.83
237.01	1652.71
237.23	1738.73
237.45	1763.30
237.67	1689.57
237.88	1722.34
238.10	1802.21
238.32	1656.81
238.54	1597.42
238.76	1771.49
238.97	1607.66
239.19	1705.96
239.41	1775.59
239.63	1800.16
239.85	1683.43
240.06	1669.09
240.28	1746.92
240.50	1714.15
240.72	1710.05
240.93	1644.52
241.15	1730.53
241.37	1701.86
241.59	1724.39
241.81	1638.38
242.02	1775.59
242.24	1753.06
242.46	1724.39
242.68	1679.33
242.89	1730.53
243.11	1730.53
243.33	1656.81
243.55	1646.57
243.76	1798.12
243.98	1650.66
244.20	1574.89
244.42	1773.54
244.64	1689.57
244.85	1742.82
245.07	1619.94
245.29	1710.05
245.51	1665.00
245.72	1718.25
245.94	1779.68
246.16	1724.39
246.38	1771.49
246.59	1585.13
246.81	1617.90
247.03	1675.24
247.24	1558.50
247.46	1724.39
247.68	1746.92
247.90	1722.34
248.11	1681.38
248.33	1746.92
248.55	1699.81
248.77	1710.05
248.98	1742.82
249.20	1773.54
249.42	1777.64
249.64	1693.67
249.85	1693.67
250.07	1615.85
250.29	1769.44
250.50	1800.16
250.72	1679.33
250.94	1671.14
251.16	1849.32
251.37	1869.80
251.59	1710.05
251.81	1736.68
252.02	1804.26
252.24	1656.81
252.46	1767.40
252.68	1607.66
252.89	1644.52
253.11	1630.18
253.33	1796.07
253.54	1724.39
253.76	1652.71
253.98	1677.29
254.20	1730.53
254.41	1699.81
254.63	1601.51
254.85	1587.18
255.06	1701.86
255.28	1671.14
255.50	1722.34
255.71	1644.52
255.93	1638.38
256.15	1701.86
256.36	1734.63
256.58	1613.80
256.80	1607.66
257.02	1734.63
257.23	1730.53
257.45	1716.20
257.67	1740.77
257.88	1642.47
258.10	1759.21
258.32	1718.25
258.53	1718.25
258.75	1724.39
258.97	1687.53
259.18	1708.01
259.40	1699.81
259.62	1777.64
259.83	1777.64
260.05	1757.16
260.27	1957.86
260.48	1787.88
260.70	1650.66
260.92	1693.67
261.13	1619.94
261.35	1714.15
261.57	1755.11
261.78	1597.42
262.00	1681.38
262.22	1748.97
262.43	1693.67
262.65	1650.66
262.86	1703.91
263.08	1841.12
263.30	1671.14
263.51	1650.66
263.73	1710.05
263.95	1894.37
264.16	1718.25
264.38	1677.29
264.60	1708.01
264.81	1685.48
265.03	1796.07
265.25	1798.12
265.46	1665.00
265.68	1830.88
265.89	1730.53
266.11	1535.98
266.33	1722.34
266.54	1732.58
266.76	1720.29
266.98	1771.49
267.19	1746.92
267.41	1785.83
267.62	1624.04
267.84	1650.66
268.06	1722.34
268.27	1693.67
268.49	1769.44
268.70	1736.68
268.92	1673.19
269.14	1656.81
269.35	1615.85
269.57	1703.91
269.79	1708.01
270.00	1667.05
270.22	1716.20
270.43	1660.90
270.65	1615.85
270.87	1714.15
271.08	1759.21
271.30	1691.62
271.51	1675.24
271.73	1660.90
271.95	1765.35
272.16	1718.25
272.38	1669.09
272.59	1693.67
272.81	1656.81
273.02	1724.39
273.24	1675.24
273.46	1759.21
273.67	1615.85
273.89	1689.57
274.10	1654.76
274.32	1699.81
274.54	1667.05
274.75	1761.25
274.97	1699.81
275.18	1691.62
275.40	1763.30
275.61	1671.14
275.83	1804.26
276.05	1634.28
276.26	1683.43
276.48	1767.40
276.69	1644.52
276.91	1595.37
277.12	1773.54
277.34	1751.01
277.55	1769.44
277.77	1671.14
277.99	1685.48
278.20	1636.33
278.42	1601.51
278.63	1662.95
278.85	1636.33
279.06	1628.14
279.28	1734.63
279.49	1757.16
279.71	1759.21
279.93	1658.85
280.14	1705.96
280.36	1642.47
280.57	1730.53
280.79	1816.55
281.00	1650.66
281.22	1654.76
281.43	1767.40
281.65	1630.18
281.86	1621.99
282.08	1742.82
282.29	1810.40
282.51	1714.15
282.73	1640.42
282.94	1617.90
283.16	1755.11
283.37	1763.30
283.59	1708.01
283.80	1748.97
284.02	1697.77
284.23	1652.71
284.45	1673.19
284.66	1615.85
284.88	1736.68
285.09	1689.57
285.31	1718.25
285.52	1714.15
285.74	1621.99
285.95	1773.54
286.17	1775.59
286.38	1742.82
286.60	1669.09
286.81	1658.85
287.03	1740.77
287.24	1679.33
287.46	1681.38
287.67	1677.29
287.89	1767.40
288.10	1708.01
288.32	1710.05
288.53	1751.01
288.75	1716.20
288.96	1654.76
289.18	1648.61
289.39	1683.43
289.61	1718.25
289.82	1857.51
290.04	1738.73
290.25	1673.19
290.47	1730.53
290.68	1667.05
290.90	1736.68
291.11	1636.33
291.33	1744.87
291.54	1691.62
291.76	1619.94
291.97	1671.14
292.18	1699.81
292.40	1695.72
292.61	1665.00
292.83	1832.93
293.04	1710.05
293.26	1671.14
293.47	1701.86
293.69	1605.61
293.90	1722.34
294.12	1691.62
294.33	1669.09
294.55	1685.48
294.76	1722.34
294.97	1714.15
295.19	1791.97
295.40	1699.81
295.62	1841.12
295.83	1722.34
296.05	1693.67
296.26	1712.10
296.48	1667.05
296.69	1703.91
296.90	1677.29
297.12	1728.49
297.33	1730.53
297.55	1738.73
297.76	1736.68
297.98	1705.96
298.19	1775.59
298.41	1652.71
298.62	1533.93
298.83	1769.44
299.05	1695.72
299.26	1630.18
299.48	1638.38
299.69	1748.97
299.90	1740.77
300.12	1703.91
300.33	1714.15
300.55	1718.25
300.76	1738.73
300.98	1638.38
301.19	1705.96
301.40	1759.21
301.62	1771.49
301.83	1777.64
302.05	1671.14
302.26	1712.10
302.47	1691.62
302.69	1607.66
302.90	1683.43
303.12	1572.84
303.33	1738.73
303.54	1779.68
303.76	1665.00
303.97	1753.06
304.19	1806.31
304.40	1687.53
304.61	1773.54
304.83	1812.45
305.04	1732.58
305.26	1714.15
305.47	1603.56
305.68	1726.44
305.90	1628.14
306.11	1765.35
306.33	1734.63
306.54	1671.14
306.75	1628.14
306.97	1683.43
307.18	1732.58
307.39	1697.77
307.61	1695.72
307.82	1828.84
308.04	1738.73
308.25	1648.61
308.46	1695.72
308.68	1644.52
308.89	1728.49
309.10	1753.06
309.32	1724.39
309.53	1675.24
309.74	1728.49
309.96	1630.18
310.17	1820.64
310.39	1705.96
310.60	1742.82
310.81	1722.34
311.03	1669.09
311.24	1644.52
311.45	1683.43
311.67	1767.40
311.88	1728.49
312.09	1710.05
312.31	1712.10
312.52	1714.15
312.73	1689.57
312.95	1607.66
313.16	1691.62
313.37	1783.78
313.59	1691.62
313.80	1783.78
314.01	1798.12
314.23	1667.05
314.44	1658.85
314.65	1636.33
314.87	1628.14
315.08	1703.91
315.29	1611.75
315.51	1681.38
315.72	1589.22
315.93	1867.75
316.15	1726.44
316.36	1673.19
316.57	1679.33
316.79	1673.19
317.00	1652.71
317.21	1730.53
317.43	1669.09
317.64	1757.16
317.85	1677.29
318.07	1701.86
318.28	1736.68
318.49	1830.88
318.70	1929.19
318.92	1783.78
319.13	1853.41
319.34	1841.12
319.56	1769.44
319.77	1789.92
319.98	1832.93
320.20	1824.74
320.41	1806.31
320.62	1665.00
320.83	1652.71
321.05	1834.98
321.26	1691.62
321.47	1691.62
321.69	1761.25
321.90	1724.39
322.11	1685.48
322.32	1746.92
322.54	1740.77
322.75	1611.75
322.96	1849.32
323.18	1611.75
323.39	1591.27
323.60	1667.05
323.81	1710.05
324.03	1728.49
324.24	1728.49
324.45	1791.97
324.66	1701.86
324.88	1728.49
325.09	1777.64
325.30	1697.77
325.52	1683.43
325.73	1697.77
325.94	1675.24
326.15	1679.33
326.37	1601.51
326.58	1740.77
326.79	1771.49
327.00	1701.86
327.22	1697.77
327.43	1593.32
327.64	1595.37
327.85	1703.91
328.07	1726.44
328.28	1824.74
328.49	1587.18
328.70	1574.89
328.92	1718.25
329.13	1705.96
329.34	1755.11
329.55	1841.12
329.76	1714.15
329.98	1689.57
330.19	1865.70
330.40	1755.11
330.61	1693.67
330.83	1703.91
331.04	1671.14
331.25	1650.66
331.46	1708.01
331.68	1617.90
331.89	1765.35
332.10	1681.38
332.31	1648.61
332.52	1703.91
332.74	1710.05
332.95	1761.25
333.16	1642.47
333.37	1841.12
333.58	1718.25
333.80	1732.58
334.01	1671.14
334.22	1697.77
334.43	1648.61
334.64	1683.43
334.86	1681.38
335.07	1574.89
335.28	1761.25
335.49	1572.84
335.70	1796.07
335.92	1714.15
336.13	1839.08
336.34	1705.96
336.55	1685.48
336.76	1724.39
336.98	1599.46
337.19	1753.06
337.40	1841.12
337.61	1855.46
337.82	1636.33
338.04	1765.35
338.25	1609.70
338.46	1681.38
338.67	1685.48
338.88	1738.73
339.09	1638.38
339.31	1665.00
339.52	1695.72
339.73	1650.66
339.94	1703.91
340.15	1783.78
340.36	1660.90
340.58	1708.01
340.79	1705.96
341.00	1767.40
341.21	1583.08
341.42	1705.96
341.63	1687.53
341.85	1726.44
342.06	1648.61
342.27	1652.71
342.48	1730.53
342.69	1648.61
342.90	1665.00
343.12	1658.85
343.33	1677.29
343.54	1667.05
343.75	1808.36
343.96	1689.57
344.17	1683.43
344.38	1695.72
344.60	1681.38
344.81	1662.95
345.02	1703.91
345.23	1781.73
345.44	1794.02
345.65	1765.35
345.86	1693.67
346.07	1728.49
346.29	1654.76
346.50	1708.01
346.71	1755.11
346.92	1757.16
347.13	1834.98
347.34	1736.68
347.55	1669.09
347.76	1787.88
347.98	1642.47
348.19	1730.53
348.40	1783.78
348.61	1665.00
348.82	1828.84
349.03	1804.26
349.24	1626.09
349.45	1789.92
349.66	1593.32
349.88	1699.81
350.09	1734.63
350.30	1837.03
350.51	1771.49
350.72	1712.10
350.93	1751.01
351.14	1679.33
351.35	1691.62
351.56	1662.95
351.77	1652.71
351.99	1763.30
352.20	1785.83
352.41	1812.45
352.62	1599.46
352.83	1665.00
353.04	1679.33
353.25	1693.67
353.46	1746.92
353.67	1765.35
353.88	1562.60
354.09	1779.68
354.30	1656.81
354.52	1751.01
354.73	1691.62
354.94	1665.00
355.15	1705.96
355.36	1886.18
355.57	1687.53
355.78	1742.82
355.99	1677.29
356.20	1662.95
356.41	1781.73
356.62	1708.01
356.83	1730.53
357.04	1798.12
357.25	1685.48
357.46	1712.10
357.68	1667.05
357.89	1550.31
358.10	1779.68
358.31	1716.20
358.52	1648.61
358.73	1669.09
358.94	1665.00
359.15	1603.56
359.36	1675.24
359.57	1681.38
359.78	1726.44
359.99	1701.86
360.20	1699.81
360.41	1693.67
360.62	1761.25
360.83	1701.86
361.04	1705.96
361.25	1660.90
361.46	1855.46
361.67	1761.25
361.88	1730.53
362.09	1748.97
362.30	1681.38
362.51	1669.09
362.72	1644.52
362.93	1753.06
363.14	1689.57
363.35	1648.61
363.56	1759.21
363.78	1732.58
363.99	1718.25
364.20	1683.43
364.41	1656.81
364.62	1761.25
364.83	1689.57
365.04	1658.85
365.25	1718.25
365.46	1814.50
365.67	1662.95
365.88	1615.85
366.09	1667.05
366.30	1583.08
366.51	1685.48
366.72	1646.57
366.93	1710.05
367.14	1769.44
367.35	1757.16
367.56	1667.05
367.77	1832.93
367.98	1718.25
368.18	1722.34
368.39	1705.96
368.60	1642.47
368.81	1763.30
369.02	1722.34
369.23	1673.19
369.44	1576.94
369.65	1648.61
369.86	1712.10
370.07	1791.97
370.28	1673.19
370.49	1751.01
370.70	1732.58
370.91	1683.43
371.12	1646.57
371.33	1730.53
371.54	1669.09
371.75	1785.83
371.96	1568.74
372.17	1703.91
372.38	1669.09
372.59	1744.87
372.80	1646.57
373.01	1669.09
373.22	1660.90
373.43	1667.05
373.64	1667.05
373.85	1822.69
374.06	1789.92
374.26	1818.60
374.47	1773.54
374.68	1753.06
374.89	1665.00
375.10	1705.96
375.31	1828.84
375.52	1767.40
375.73	1765.35
375.94	1685.48
376.15	1718.25
376.36	1638.38
376.57	1703.91
376.78	1603.56
376.99	1740.77
377.20	1708.01
377.40	1712.10
377.61	1822.69
377.82	1621.99
378.03	1806.31
378.24	1748.97
378.45	1701.86
378.66	1796.07
378.87	1617.90
379.08	1665.00
379.29	1603.56
379.50	1787.88
379.71	1652.71
379.91	1822.69
380.12	1632.23
380.33	1660.90
380.54	1656.81
380.75	1800.16
380.96	1646.57
381.17	1722.34
381.38	1665.00
381.59	1779.68
381.80	1755.11
382.00	1814.50
382.21	1755.11
382.42	1816.55
382.63	1867.75
382.84	1771.49
383.05	1822.69
383.26	1759.21
383.47	1689.57
383.68	1779.68
383.88	1773.54
384.09	1730.53
384.30	1779.68
384.51	1671.14
384.72	1617.90
384.93	1673.19
385.14	1632.23
385.35	1769.44
385.55	1665.00
385.76	1808.36
385.97	1630.18
386.18	1583.08
386.39	1697.77
386.60	1687.53
386.81	1667.05
387.02	1613.80
387.22	1652.71
387.43	1787.88
387.64	1777.64
387.85	1882.08
388.06	2148.32
388.27	4143.04
388.48	6645.66
388.68	8163.20
388.89	9578.35
389.10	9557.87
389.31	8376.19
389.52	7452.56
389.73	6614.94
389.93	6096.80
390.14	5824.42
390.35	5193.65
390.56	4462.52
390.77	3741.64
390.98	3102.67
391.18	2611.16
391.39	2125.79
391.60	1841.12
391.81	1918.95
392.02	1718.25
392.23	1855.46
392.43	1716.20
392.64	1822.69
392.85	1708.01
393.06	1773.54
393.27	1708.01
393.47	1648.61
393.68	1757.16
393.89	1701.86
394.10	1787.88
394.31	1591.27
394.52	1642.47
394.72	1648.61
394.93	1845.22
395.14	1691.62
395.35	1802.21
395.56	1673.19
395.76	1798.12
395.97	1789.92
396.18	1767.40
396.39	1796.07
396.60	2058.21
396.80	1978.34
397.01	1916.90
397.22	1869.80
397.43	1841.12
397.64	1757.16
397.84	1822.69
398.05	1902.56
398.26	1787.88
398.47	1789.92
398.67	1804.26
398.88	1689.57
399.09	1722.34
399.30	1677.29
399.51	1728.49
399.71	1685.48
399.92	1593.32
400.13	1697.77
400.34	1691.62
400.54	1710.05
400.75	1796.07
400.96	1703.91
401.17	1830.88
401.37	1685.48
401.58	1699.81
401.79	1775.59
402.00	1861.60
402.21	2025.44
402.41	2025.44
402.62	2058.21
402.83	1990.63
403.04	2000.87
403.24	2123.74
403.45	1826.79
403.66	1853.41
403.87	1910.75
404.07	1914.85
404.28	1931.23
404.49	1855.46
404.70	1742.82
404.90	1808.36
405.11	1748.97
405.32	1710.05
405.52	1677.29
405.73	1708.01
405.94	1628.14
406.15	1751.01
406.35	1753.06
406.56	1769.44
406.77	1722.34
406.98	1740.77
407.18	1626.09
407.39	1808.36
407.60	1724.39
407.80	1742.82
408.01	1685.48
408.22	1718.25
408.43	1656.81
408.63	1681.38
408.84	1705.96
409.05	1710.05
409.25	1662.95
409.46	1671.14
409.67	1748.97
409.88	1757.16
410.08	1748.97
410.29	1669.09
410.50	1656.81
410.70	1673.19
410.91	1595.37
411.12	1673.19
411.32	1738.73
411.53	1673.19
411.74	1814.50
411.95	1779.68
412.15	1705.96
412.36	1812.45
412.57	1769.44
412.77	1712.10
412.98	1693.67
413.19	1660.90
413.39	1765.35
413.60	1794.02
413.81	1769.44
414.01	1656.81
414.22	1708.01
414.43	1763.30
414.63	1759.21
414.84	1693.67
415.05	1716.20
415.25	1656.81
415.46	1748.97
415.67	1681.38
415.87	1779.68
416.08	1732.58
416.29	1708.01
416.49	1755.11
416.70	1746.92
416.91	1650.66
417.11	1687.53
417.32	1738.73
417.53	1763.30
417.73	1769.44
417.94	1728.49
418.15	1736.68
418.35	1685.48
418.56	1646.57
418.77	1812.45
418.97	1646.57
419.18	1710.05
419.38	1628.14
419.59	1685.48
419.80	1818.60
420.00	1650.66
420.21	1779.68
420.42	1806.31
420.62	1746.92
420.83	1734.63
421.04	1681.38
421.24	1771.49
421.45	1771.49
421.65	1691.62
421.86	1712.10
422.07	1660.90
422.27	1691.62
422.48	1746.92
422.69	1697.77
422.89	1736.68
423.10	1648.61
423.30	1624.04
423.51	1687.53
423.72	1755.11
423.92	1771.49
424.13	1624.04
424.33	1771.49
424.54	1681.38
424.75	1685.48
424.95	1816.55
425.16	1732.58
425.36	1697.77
425.57	1791.97
425.78	1759.21
425.98	1757.16
426.19	1720.29
426.39	1687.53
426.60	1710.05
426.81	1787.88
427.01	1732.58
427.22	1708.01
427.42	1613.80
427.63	1683.43
427.83	1732.58
428.04	1791.97
428.25	1822.69
428.45	1818.60
428.66	1783.78
428.86	1701.86
429.07	1636.33
429.28	1697.77
429.48	1697.77
429.69	1603.56
429.89	1705.96
430.10	1695.72
430.30	1777.64
430.51	1791.97
430.71	1679.33
430.92	1703.91
431.13	1722.34
431.33	1785.83
431.54	1716.20
431.74	1804.26
431.95	1781.73
432.15	1613.80
432.36	1705.96
432.56	1773.54
432.77	1794.02
432.98	1718.25
433.18	1679.33
433.39	1689.57
433.59	1753.06
433.80	1820.64
434.00	1818.60
434.21	1710.05
434.41	1648.61
434.62	1830.88
434.82	1701.86
435.03	1697.77
435.23	1759.21
435.44	1648.61
435.64	1681.38
435.85	1726.44
436.06	1710.05
436.26	1816.55
436.47	1716.20
436.67	1748.97
436.88	1705.96
437.08	1810.40
437.29	1808.36
437.49	1593.32
437.70	1714.15
437.90	1730.53
438.11	1865.70
438.31	1791.97
438.52	1845.22
438.72	1863.65
438.93	1890.28
439.13	1789.92
439.34	1785.83
439.54	1779.68
439.75	1863.65
439.95	1751.01
440.16	1716.20
440.36	1783.78
440.57	1779.68
440.77	1757.16
440.98	1708.01
441.18	1779.68
441.39	1599.46
441.59	1673.19
441.80	1746.92
442.00	1738.73
442.21	1753.06
442.41	1701.86
442.62	1662.95
442.82	1697.77
443.02	1703.91
443.23	1734.63
443.43	1710.05
443.64	1714.15
443.84	1665.00
444.05	1736.68
444.25	1685.48
444.46	1710.05
444.66	1683.43
444.87	1804.26
445.07	1679.33
445.28	1693.67
445.48	1761.25
445.69	1748.97
445.89	1877.99
446.09	1761.25
446.30	2035.68
446.50	2486.23
446.71	3643.34
446.91	4382.65
447.12	4775.86
447.32	4851.64
447.53	4253.63
447.73	3932.10
447.93	3514.31
448.14	3260.37
448.34	3147.73
448.55	2836.44
448.75	2772.95
448.96	2695.13
449.16	2301.92
449.36	2289.63
449.57	2111.46
449.77	1939.43
449.98	1822.69
450.18	1810.40
450.39	1826.79
450.59	1765.35
450.79	1716.20
451.00	1740.77
451.20	1826.79
451.41	1695.72
451.61	1787.88
451.81	1699.81
452.02	1714.15
452.22	1736.68
452.43	1748.97
452.63	1757.16
452.84	1751.01
453.04	1665.00
453.24	1787.88
453.45	1736.68
453.65	1724.39
453.86	1708.01
454.06	1763.30
454.26	1746.92
454.47	1630.18
454.67	1843.17
454.87	1751.01
455.08	1714.15
455.28	1839.08
455.49	1826.79
455.69	1603.56
455.89	1888.23
456.10	1769.44
456.30	1693.67
456.51	1789.92
456.71	1796.07
456.91	1818.60
457.12	1673.19
457.32	1718.25
457.52	1662.95
457.73	1755.11
457.93	1783.78
458.14	1722.34
458.34	1595.37
458.54	1669.09
458.75	1720.29
458.95	1771.49
459.15	1718.25
459.36	1783.78
459.56	1818.60
459.76	1861.60
459.97	1695.72
460.17	1705.96
460.37	1724.39
460.58	1726.44
460.78	1783.78
460.99	1699.81
461.19	1714.15
461.39	1736.68
461.60	1732.58
461.80	1744.87
462.00	1656.81
462.21	1722.34
462.41	1693.67
462.61	1689.57
462.82	1683.43
463.02	1769.44
463.22	1767.40
463.43	1814.50
463.63	1812.45
463.83	1826.79
464.04	1781.73
464.24	1677.29
464.44	1658.85
464.64	1748.97
464.85	1746.92
465.05	1765.35
465.25	1699.81
465.46	1693.67
465.66	1837.03
465.86	1841.12
466.07	1697.77
466.27	1652.71
466.47	1687.53
466.68	1636.33
466.88	1802.21
467.08	1759.21
467.29	1816.55
467.49	1765.35
467.69	1695.72
467.89	1748.97
468.10	1701.86
468.30	1642.47
468.50	1880.04
468.71	1763.30
468.91	1656.81
469.11	1812.45
469.31	1720.29
469.52	1660.90
469.72	1822.69
469.92	1873.89
470.13	1812.45
470.33	1820.64
470.53	1804.26
470.73	2082.78
470.94	2285.53
471.14	2232.29
471.34	2521.05
471.54	2383.84
471.75	2240.48
471.95	2129.89
472.15	2052.06
472.36	2076.64
472.56	2023.39
472.76	2031.58
472.96	2017.25
473.17	1908.71
473.37	1910.75
473.57	1798.12
473.77	1736.68
473.98	1785.83
474.18	1718.25
474.38	1884.13
474.58	1689.57
474.79	1644.52
474.99	1804.26
475.19	1728.49
475.39	1718.25
475.60	1761.25
475.80	1775.59
476.00	1691.62
476.20	1781.73
476.41	1746.92
476.61	1730.53
476.81	1900.52
477.01	1667.05
477.21	1806.31
477.42	1820.64
477.62	1710.05
477.82	1789.92
478.02	1660.90
478.23	1689.57
478.43	1669.09
478.63	1726.44
478.83	1699.81
479.03	1681.38
479.24	1798.12
479.44	1798.12
479.64	1591.27
479.84	1589.22
480.04	1646.57
480.25	1791.97
480.45	1687.53
480.65	1714.15
480.85	1781.73
481.06	1710.05
481.26	1738.73
481.46	1886.18
481.66	1748.97
481.86	1685.48
482.06	1742.82
482.27	1732.58
482.47	1624.04
482.67	1740.77
482.87	1669.09
483.07	1834.98
483.28	1689.57
483.48	1624.04
483.68	1681.38
483.88	1640.42
484.08	1597.42
484.29	1660.90
484.49	1779.68
484.69	1615.85
484.89	1718.25
485.09	1734.63
485.29	1744.87
485.50	1769.44
485.70	1703.91
485.90	1845.22
486.10	1734.63
486.30	1742.82
486.50	1673.19
486.71	1771.49
486.91	1765.35
487.11	1791.97
487.31	1665.00
487.51	1732.58
487.71	1691.62
487.91	1642.47
488.12	1660.90
488.32	1540.07
488.52	1740.77
488.72	1638.38
488.92	1820.64
489.12	1791.97
489.32	1800.16
489.53	1822.69
489.73	1671.14
489.93	1816.55
490.13	1693.67
490.33	1609.70
490.53	1740.77
490.73	1787.88
490.94	1644.52
491.14	1808.36
491.34	1873.89
491.54	2172.89
491.74	2580.44
491.94	2920.40
492.14	2934.74
492.34	3049.43
492.54	2811.86
492.75	2492.38
492.95	2398.17
493.15	2308.06
493.35	2224.09
493.55	2123.74
493.75	2138.08
493.95	2080.74
494.15	2000.87
494.35	1957.86
494.56	1906.66
494.76	1794.02
494.96	1794.02
495.16	1796.07
495.36	1742.82
495.56	1740.77
495.76	1755.11
495.96	1726.44
496.16	1732.58
496.36	1843.17
496.56	1730.53
496.77	1718.25
496.97	1615.85
497.17	1767.40
497.37	1699.81
497.57	1724.39
497.77	1679.33
497.97	1597.42
498.17	1734.63
498.37	1654.76
498.57	1757.16
498.77	1712.10
498.97	1716.20
499.17	1800.16
499.38	1628.14
499.58	1822.69
499.78	1828.84
499.98	1789.92
500.18	1675.24
500.38	1665.00
500.58	1968.10
500.78	2574.30
500.98	4562.87
501.18	5742.50
501.38	6895.51
501.58	7057.30
501.78	6528.92
501.98	5420.97
502.18	4984.76
502.38	4388.80
502.58	4104.13
502.78	3831.75
502.98	3606.47
503.18	3493.83
503.38	3178.45
503.59	2867.16
503.79	2674.65
503.99	2422.75
504.19	2265.05
504.39	2242.53
504.59	2146.27
504.79	2164.70
504.99	2086.88
505.19	1908.71
505.39	1935.33
505.59	1996.77
505.79	1890.28
505.99	1871.84
506.19	1767.40
506.39	1896.42
506.59	1746.92
506.79	1755.11
506.99	1781.73
507.19	1755.11
507.39	1759.21
507.59	1687.53
507.79	1660.90
507.99	1753.06
508.19	1785.83
508.39	1650.66
508.59	1728.49
508.79	1855.46
508.99	1777.64
509.19	1662.95
509.39	1755.11
509.59	1699.81
509.79	1687.53
509.99	1740.77
510.19	1806.31
510.39	1816.55
510.59	1705.96
510.79	1746.92
510.99	1667.05
511.19	1769.44
511.39	1845.22
511.59	1777.64
511.79	1794.02
511.99	1761.25
512.19	1789.92
512.38	1757.16
512.58	1730.53
512.78	1734.63
512.98	1814.50
513.18	1812.45
513.38	1681.38
513.58	1773.54
513.78	1722.34
513.98	1667.05
514.18	1726.44
514.38	1714.15
514.58	1839.08
514.78	1699.81
514.98	1681.38
515.18	1687.53
515.38	1632.23
515.58	1779.68
515.78	1712.10
515.98	1693.67
516.18	1734.63
516.38	1665.00
516.57	1662.95
516.77	1683.43
516.97	1724.39
517.17	1710.05
517.37	1632.23
517.57	1775.59
517.77	1812.45
517.97	1624.04
518.17	1794.02
518.37	1740.77
518.57	1820.64
518.77	1726.44
518.97	1757.16
519.16	1759.21
519.36	1798.12
519.56	1634.28
519.76	1705.96
519.96	1699.81
520.16	1779.68
520.36	1730.53
520.56	1746.92
520.76	1677.29
520.96	1742.82
521.16	1773.54
521.35	1824.74
521.55	1837.03
521.75	1701.86
521.95	1693.67
522.15	1740.77
522.35	1650.66
522.55	1640.42
522.75	1699.81
522.95	1679.33
523.14	1730.53
523.34	1748.97
523.54	1689.57
523.74	1763.30
523.94	1773.54
524.14	1665.00
524.34	1687.53
524.54	1759.21
524.73	1669.09
524.93	1744.87
525.13	1714.15
525.33	1679.33
525.53	1804.26
525.73	1777.64
525.93	1693.67
526.13	1720.29
526.32	1697.77
526.52	1761.25
526.72	1841.12
526.92	1642.47
527.12	1695.72
527.32	1665.00
527.52	1740.77
527.71	1775.59
527.91	1753.06
528.11	1734.63
528.31	1730.53
528.51	1732.58
528.71	1765.35
528.90	1773.54
529.10	1759.21
529.30	1820.64
529.50	1681.38
529.70	1738.73
529.90	1736.68
530.09	1701.86
530.29	1669.09
530.49	1667.05
530.69	1841.12
530.89	1675.24
531.09	1777.64
531.28	1726.44
531.48	1785.83
531.68	1757.16
531.88	1732.58
532.08	1759.21
532.28	1705.96
532.47	1769.44
532.67	1804.26
532.87	1753.06
533.07	1640.42
533.27	1806.31
533.46	1763.30
533.66	1773.54
533.86	1783.78
534.06	1771.49
534.26	1746.92
534.45	1671.14
534.65	1718.25
534.85	1736.68
535.05	1728.49
535.25	1734.63
535.44	1607.66
535.64	1726.44
535.84	1710.05
536.04	1621.99
536.24	1736.68
536.43	1607.66
536.63	1777.64
536.83	1798.12
537.03	1730.53
537.22	1675.24
537.42	1558.50
537.62	1769.44
537.82	1708.01
538.02	1822.69
538.21	1810.40
538.41	1890.28
538.61	1769.44
538.81	1708.01
539.00	1800.16
539.20	1640.42
539.40	1718.25
539.60	1681.38
539.79	1746.92
539.99	1761.25
540.19	1613.80
540.39	1732.58
540.58	1783.78
540.78	1824.74
540.98	1730.53
541.18	1849.32
541.37	1703.91
541.57	1660.90
541.77	1710.05
541.97	1703.91
542.16	1687.53
542.36	1701.86
542.56	1757.16
542.76	1884.13
542.95	1732.58
543.15	1742.82
543.35	1761.25
543.54	1689.57
543.74	1675.24
543.94	1865.70
544.14	1746.92
544.33	1769.44
544.53	1732.58
544.73	1640.42
544.93	1736.68
545.12	1710.05
545.32	1748.97
545.52	1724.39
545.71	1712.10
545.91	1726.44
546.11	1775.59
546.30	1619.94
546.50	1736.68
546.70	1691.62
546.90	1798.12
547.09	1626.09
547.29	1736.68
547.49	1736.68
547.68	1785.83
547.88	1685.48
548.08	1828.84
548.27	2156.51
548.47	1714.15
548.67	1624.04
548.87	1687.53
549.06	1697.77
549.26	1708.01
549.46	1732.58
549.65	1640.42
549.85	1693.67
550.05	1734.63
550.24	1660.90
550.44	1710.05
550.64	1705.96
550.83	1722.34
551.03	1751.01
551.23	1769.44
551.42	1748.97
551.62	1728.49
551.82	1759.21
552.01	1736.68
552.21	1773.54
552.41	1767.40
552.60	1769.44
552.80	1695.72
553.00	1767.40
553.19	1736.68
553.39	1806.31
553.59	1654.76
553.78	1740.77
553.98	1699.81
554.17	1771.49
554.37	1734.63
554.57	1822.69
554.76	1697.77
554.96	1693.67
555.16	1757.16
555.35	1847.27
555.55	1738.73
555.75	1744.87
555.94	1820.64
556.14	1673.19
556.33	1796.07
556.53	1744.87
556.73	1779.68
556.92	1761.25
557.12	1828.84
557.32	1834.98
557.51	1810.40
557.71	1779.68
557.90	1812.45
558.10	1769.44
558.30	1740.77
558.49	1726.44
558.69	1697.77
558.88	1779.68
559.08	1744.87
559.28	1751.01
559.47	1701.86
559.67	1736.68
559.86	1791.97
560.06	1724.39
560.26	1777.64
560.45	1753.06
560.65	1751.01
560.84	1804.26
561.04	1773.54
561.24	1837.03
561.43	1787.88
561.63	1859.56
561.82	1771.49
562.02	1787.88
562.22	1724.39
562.41	1679.33
562.61	1648.61
562.80	1701.86
563.00	1925.09
563.19	1726.44
563.39	1771.49
563.59	1824.74
563.78	1652.71
563.98	1689.57
564.17	1677.29
564.37	1644.52
564.56	1744.87
564.76	1636.33
564.96	1806.31
565.15	1712.10
565.35	1925.09
565.54	1724.39
565.74	1763.30
565.93	1824.74
566.13	1732.58
566.32	1804.26
566.52	1751.01
566.71	1726.44
566.91	1822.69
567.11	1683.43
567.30	1691.62
567.50	1783.78
567.69	1708.01
567.89	1746.92
568.08	1705.96
568.28	1726.44
568.47	1779.68
568.67	1796.07
568.86	1755.11
569.06	1834.98
569.25	1785.83
569.45	1769.44
569.64	1701.86
569.84	1705.96
570.04	1718.25
570.23	1650.66
570.43	1734.63
570.62	1755.11
570.82	1849.32
571.01	1701.86
571.21	1710.05
571.40	1671.14
571.60	1724.39
571.79	1732.58
571.99	1722.34
572.18	1718.25
572.38	1736.68
572.57	1669.09
572.77	1734.63
572.96	1927.14
573.16	1710.05
573.35	1775.59
573.55	1824.74
573.74	1804.26
573.94	1724.39
574.13	1744.87
574.33	1789.92
574.52	1857.51
574.71	1738.73
574.91	1789.92
575.10	1724.39
575.30	1718.25
575.49	1699.81
575.69	1669.09
575.88	1789.92
576.08	1710.05
576.27	1820.64
576.47	1646.57
576.66	1886.18
576.86	1794.02
577.05	1755.11
577.25	1804.26
577.44	1808.36
577.64	1638.38
577.83	1877.99
578.02	1767.40
578.22	1779.68
578.41	1837.03
578.61	1775.59
578.80	1656.81
579.00	1695.72
579.19	1693.67
579.39	1730.53
579.58	1796.07
579.77	1767.40
579.97	1877.99
580.16	1839.08
580.36	1785.83
580.55	1841.12
580.75	1722.34
580.94	1771.49
581.13	1867.75
581.33	1886.18
581.52	1740.77
581.72	1826.79
581.91	1832.93
582.11	1748.97
582.30	1841.12
582.49	1738.73
582.69	1859.56
582.88	1771.49
583.08	1779.68
583.27	1867.75
583.47	1742.82
583.66	1732.58
583.85	1654.76
584.05	1701.86
584.24	1787.88
584.44	1828.84
584.63	1808.36
584.82	1857.51
585.02	1869.80
585.21	1802.21
585.41	1755.11
585.60	1791.97
585.79	1853.41
585.99	1914.85
586.18	1847.27
586.37	2195.42
586.57	3340.24
586.76	9660.27
586.96	24065.68
587.15	34002.43
587.34	40111.52
587.54	41717.12
587.73	36384.21
587.93	26132.08
588.12	21374.65
588.31	18015.98
588.51	16314.12
588.70	15247.13
588.89	14141.22
589.09	12617.54
589.28	11065.18
589.47	9265.01
589.67	7907.21
589.86	6461.34
590.06	4831.16
590.25	3870.66
590.44	3088.34
590.64	2559.96
590.83	2263.01
591.02	2064.35
591.22	1900.52
591.41	1861.60
591.60	1869.80
591.80	1957.86
591.99	1798.12
592.18	1775.59
592.38	1824.74
592.57	1648.61
592.76	1781.73
592.96	1857.51
593.15	1744.87
593.34	1794.02
593.54	1767.40
593.73	1834.98
593.92	1687.53
594.12	1734.63
594.31	1775.59
594.50	1798.12
594.70	1820.64
594.89	1839.08
595.08	1755.11
595.28	1804.26
595.47	1886.18
595.66	1763.30
595.86	1671.14
596.05	1740.77
596.24	1722.34
596.43	1880.04
596.63	1839.08
596.82	1740.77
597.01	1820.64
597.21	1796.07
597.40	1767.40
597.59	1767.40
597.79	1685.48
597.98	1781.73
598.17	1763.30
598.36	1716.20
598.56	1730.53
598.75	1634.28
598.94	1734.63
599.14	1710.05
599.33	1726.44
599.52	1810.40
599.71	1839.08
599.91	1761.25
600.10	1808.36
600.29	1806.31
600.48	1730.53
600.68	1746.92
600.87	1785.83
601.06	1789.92
601.26	1742.82
601.45	1763.30
601.64	1775.59
601.83	1800.16
602.03	1759.21
602.22	1677.29
602.41	1785.83
602.60	1888.23
602.80	1765.35
602.99	1791.97
603.18	1656.81
603.37	1681.38
603.57	1781.73
603.76	1791.97
603.95	1880.04
604.14	1751.01
604.34	1677.29
604.53	1634.28
604.72	1718.25
604.91	1794.02
605.10	1769.44
605.30	1685.48
605.49	1890.28
605.68	1732.58
605.87	1785.83
606.07	1734.63
606.26	1744.87
606.45	1710.05
606.64	1695.72
606.84	1601.51
607.03	1724.39
607.22	1796.07
607.41	1748.97
607.60	1730.53
607.80	1763.30
607.99	1658.85
608.18	1718.25
608.37	1728.49
608.56	1626.09
608.76	1705.96
608.95	1865.70
609.14	1701.86
609.33	1853.41
609.52	1806.31
609.72	1722.34
609.91	1839.08
610.10	1738.73
610.29	1857.51
610.48	1810.40
610.68	1740.77
610.87	1744.87
611.06	1767.40
611.25	1742.82
611.44	1746.92
611.63	1714.15
611.83	1824.74
612.02	1640.42
612.21	1691.62
612.40	1644.52
612.59	1685.48
612.79	1667.05
612.98	1759.21
613.17	1785.83
613.36	1701.86
613.55	1800.16
613.74	1632.23
613.93	1693.67
614.13	1746.92
614.32	1708.01
614.51	1701.86
614.70	1701.86
614.89	1730.53
615.08	1748.97
615.28	2062.30
615.47	1617.90
615.66	1740.77
615.85	1716.20
616.04	1923.04
616.23	1697.77
616.42	1734.63
616.62	1775.59
616.81	1722.34
617.00	1689.57
617.19	1748.97
617.38	1689.57
617.57	1730.53
617.76	1789.92
617.95	1701.86
618.15	1693.67
618.34	1757.16
618.53	1615.85
618.72	1751.01
618.91	1818.60
619.10	1810.40
619.29	1734.63
619.48	1773.54
619.68	1642.47
619.87	1775.59
620.06	1587.18
620.25	1822.69
620.44	1699.81
620.63	1689.57
620.82	1748.97
621.01	1769.44
621.20	1728.49
621.39	1789.92
621.59	1834.98
621.78	1699.81
621.97	1738.73
622.16	1722.34
622.35	1822.69
622.54	1669.09
622.73	1787.88
622.92	1607.66
623.11	1660.90
623.30	1691.62
623.49	1802.21
623.68	1703.91
623.88	1828.84
624.07	1681.38
624.26	1748.97
624.45	1695.72
624.64	1789.92
624.83	1751.01
625.02	1779.68
625.21	1740.77
625.40	1697.77
625.59	1802.21
625.78	1773.54
625.97	1742.82
626.16	1775.59
626.35	1769.44
626.54	1742.82
626.74	1767.40
626.93	1675.24
627.12	1662.95
627.31	1742.82
627.50	1722.34
627.69	1714.15
627.88	1701.86
628.07	1716.20
628.26	1603.56
628.45	1785.83
628.64	1673.19
628.83	1681.38
629.02	1724.39
629.21	1689.57
629.40	1814.50
629.59	1632.23
629.78	1738.73
629.97	1724.39
630.16	1759.21
630.35	1734.63
630.54	1644.52
630.73	1638.38
630.92	1763.30
631.11	1714.15
631.30	1791.97
631.49	1730.53
631.68	1701.86
631.87	1845.22
632.06	1640.42
632.25	1822.69
632.44	1677.29
632.63	1734.63
632.82	1609.70
633.01	1630.18
633.20	1781.73
633.39	1679.33
633.58	1687.53
633.77	1624.04
633.96	1794.02
634.15	1714.15
634.34	1708.01
634.53	1781.73
634.72	1656.81
634.91	1662.95
635.10	1718.25
635.29	1607.66
635.48	1712.10
635.67	1751.01
635.86	1624.04
636.05	1763.30
636.24	1710.05
636.43	1769.44
636.62	1722.34
636.81	1550.31
637.00	1687.53
637.19	1710.05
637.38	1677.29
637.57	1646.57
637.76	1667.05
637.95	1685.48
638.14	1632.23
638.33	1740.77
638.52	1671.14
638.71	1621.99
638.89	1628.14
639.08	1853.41
639.27	1736.68
639.46	1740.77
639.65	1814.50
639.84	1705.96
640.03	1785.83
640.22	1675.24
640.41	1828.84
640.60	1722.34
640.79	1722.34
640.98	1689.57
641.17	1834.98
641.36	1683.43
641.55	1810.40
641.74	1607.66
641.92	1632.23
642.11	1693.67
642.30	1771.49
642.49	1607.66
642.68	1734.63
642.87	1691.62
643.06	1667.05
643.25	1685.48
643.44	1595.37
643.63	1761.25
643.82	1716.20
644.00	1642.47
644.19	1738.73
644.38	1607.66
644.57	1705.96
644.76	1769.44
644.95	1607.66
645.14	1683.43
645.33	1685.48
645.52	1683.43
645.71	1660.90
645.89	1636.33
646.08	1703.91
646.27	1732.58
646.46	1818.60
646.65	1705.96
646.84	1677.29
647.03	1701.86
647.22	1773.54
647.40	1746.92
647.59	1673.19
647.78	1658.85
647.97	1619.94
648.16	1634.28
648.35	1851.36
648.54	1814.50
648.73	1656.81
648.91	1685.48
649.10	1728.49
649.29	1656.81
649.48	1736.68
649.67	1726.44
649.86	1675.24
650.05	1730.53
650.23	1789.92
650.42	1634.28
650.61	1748.97
650.80	1722.34
650.99	1810.40
651.18	1718.25
651.36	1699.81
651.55	1755.11
651.74	1695.72
651.93	1611.75
652.12	1619.94
652.31	1730.53
652.49	1701.86
652.68	1748.97
652.87	1755.11
653.06	1755.11
653.25	1744.87
653.44	1720.29
653.62	1818.60
653.81	1654.76
654.00	1763.30
654.19	1796.07
654.38	1804.26
654.56	1791.97
654.75	1742.82
654.94	1828.84
655.13	1671.14
655.32	1646.57
655.51	1742.82
655.69	1673.19
655.88	1783.78
656.07	1667.05
656.26	1724.39
656.45	1683.43
656.63	1662.95
656.82	1591.27
657.01	1716.20
657.20	1673.19
657.38	1837.03
657.57	1744.87
657.76	1654.76
657.95	1818.60
658.14	1705.96
658.32	1744.87
658.51	1671.14
658.70	1722.34
658.89	1736.68
659.08	1718.25
659.26	1771.49
659.45	1734.63
659.64	1779.68
659.83	1624.04
660.01	1865.70
660.20	1685.48
660.39	1742.82
660.58	1605.61
660.76	1843.17
660.95	1638.38
661.14	1624.04
661.33	1660.90
661.51	1615.85
661.70	1656.81
661.89	1740.77
662.08	1705.96
662.26	1589.22
662.45	1681.38
662.64	1789.92
662.83	1791.97
663.01	1634.28
663.20	1607.66
663.39	1781.73
663.58	1716.20
663.76	1685.48
663.95	1779.68
664.14	1740.77
664.32	1742.82
664.51	1755.11
664.70	1724.39
664.89	1722.34
665.07	1665.00
665.26	1834.98
665.45	1677.29
665.64	1675.24
665.82	1806.31
666.01	1738.73
666.20	1650.66
666.38	1742.82
666.57	1810.40
666.76	2127.84
666.95	4509.63
667.13	10188.64
667.32	14960.41
667.51	17616.63
667.69	18837.22
667.88	17286.90
668.07	12152.65
668.25	9437.04
668.44	7917.45
668.63	7225.23
668.81	6612.89
669.00	6221.73
669.19	5603.24
669.38	4894.65
669.56	4448.19
669.75	3940.29
669.94	3471.31
670.12	2854.87
670.31	2609.11
670.50	2240.48
670.68	2058.21
670.87	1863.65
671.06	1769.44
671.24	1798.12
671.43	1755.11
671.62	1697.77
671.80	1734.63
671.99	1746.92
672.18	1753.06
672.36	1828.84
672.55	1742.82
672.74	1703.91
672.92	1773.54
673.11	1771.49
673.29	1632.23
673.48	1763.30
673.67	1658.85
673.85	1697.77
674.04	1683.43
674.23	1683.43
674.41	1798.12
674.60	1658.85
674.79	1654.76
674.97	1654.76
675.16	1808.36
675.34	1744.87
675.53	1671.14
675.72	1746.92
675.90	1845.22
676.09	1683.43
676.28	1695.72
676.46	1615.85
676.65	1705.96
676.83	1665.00
677.02	1660.90
677.21	1791.97
677.39	1710.05
677.58	1646.57
677.77	1689.57
677.95	1619.94
678.14	1613.80
678.32	1722.34
678.51	1716.20
678.70	1806.31
678.88	1656.81
679.07	1769.44
679.25	1724.39
679.44	1679.33
679.63	1648.61
679.81	1726.44
680.00	1726.44
680.18	1755.11
680.37	1724.39
680.55	1691.62
680.74	1613.80
680.93	1576.94
681.11	1785.83
681.30	1736.68
681.48	1728.49
681.67	1718.25
681.85	1734.63
682.04	1654.76
682.23	1796.07
682.41	1673.19
682.60	1683.43
682.78	1669.09
682.97	1654.76
683.15	1667.05
683.34	1712.10
683.53	1755.11
683.71	1638.38
683.90	1783.78
684.08	1787.88
684.27	1648.61
684.45	1798.12
684.64	1632.23
684.82	1691.62
685.01	1673.19
685.19	1744.87
685.38	1871.84
685.57	1716.20
685.75	1675.24
685.94	1701.86
686.12	1689.57
686.31	1742.82
686.49	1783.78
686.68	1660.90
686.86	1728.49
687.05	1685.48
687.23	1841.12
687.42	1656.81
687.60	1601.51
687.79	1753.06
687.97	1787.88
688.16	1773.54
688.34	1746.92
688.53	1603.56
688.71	1669.09
688.90	1720.29
689.08	1742.82
689.27	1634.28
689.45	1810.40
689.64	1781.73
689.82	1710.05
690.01	1736.68
690.19	1736.68
690.38	1673.19
690.56	1794.02
690.75	1695.72
690.93	1650.66
691.12	1683.43
691.30	1697.77
691.49	1689.57
691.67	1718.25
691.86	1824.74
692.04	1691.62
692.23	1638.38
692.41	1720.29
692.60	1837.03
692.78	1808.36
692.97	1718.25
693.15	1681.38
693.34	1877.99
693.52	1765.35
693.71	1687.53
693.89	1679.33
694.08	1619.94
694.26	1738.73
694.44	1808.36
694.63	1806.31
694.81	1669.09
695.00	1701.86
695.18	1697.77
695.37	1855.46
695.55	1708.01
695.74	1693.67
695.92	1654.76
696.10	1759.21
696.29	1665.00
696.47	1626.09
696.66	1628.14
696.84	1767.40
697.03	1673.19
697.21	1785.83
697.40	2306.01
697.58	1798.12
697.76	1669.09
697.95	1619.94
698.13	1671.14
698.32	1626.09
698.50	1683.43
698.68	1726.44
698.87	1650.66
699.05	1748.97
699.24	1714.15
699.42	1679.33
699.61	1665.00
699.79	1740.77
699.97	1710.05
700.16	1714.15
700.34	1613.80
700.53	1638.38
700.71	1843.17
700.89	1726.44
701.08	1693.67
701.26	1708.01
701.45	2109.41
701.63	1703.91
701.81	1683.43
702.00	1695.72
702.18	1703.91
702.37	1755.11
702.55	1775.59
702.73	1697.77
702.92	1626.09
703.10	1708.01
703.28	1648.61
703.47	1593.32
703.65	1742.82
703.84	1759.21
704.02	1744.87
704.20	1820.64
704.39	1634.28
704.57	1599.46
704.75	1738.73
704.94	1763.30
705.12	1722.34
705.30	1781.73
705.49	2181.09
705.67	4409.28
705.86	9154.42
706.04	12422.98
706.22	14352.16
706.41	15257.37
706.59	13846.32
706.77	9459.57
706.96	7376.78
707.14	6569.88
707.32	5924.77
707.51	5584.81
707.69	4747.19
707.87	4274.11
708.06	3463.12
708.24	2959.31
708.42	2408.41
708.61	2295.77
708.79	1918.95
708.97	1884.13
709.16	1742.82
709.34	1759.21
709.52	1701.86
709.71	1673.19
709.89	1765.35
710.07	1699.81
710.26	1636.33
710.44	1662.95
710.62	1808.36
710.80	1691.62
710.99	1757.16
711.17	1728.49
711.35	1675.24
711.54	1697.77
711.72	1734.63
711.90	1748.97
712.09	1765.35
712.27	1722.34
712.45	1773.54
712.63	1675.24
712.82	1728.49
713.00	1683.43
713.18	1730.53
713.37	1785.83
713.55	1683.43
713.73	1740.77
713.91	1734.63
714.10	1763.30
714.28	1732.58
714.46	1705.96
714.65	1800.16
714.83	1781.73
715.01	1753.06
715.19	1681.38
715.38	1669.09
715.56	1703.91
715.74	1644.52
715.92	1705.96
716.11	1796.07
716.29	1583.08
716.47	1619.94
716.65	1742.82
716.84	1654.76
717.02	1714.15
717.20	1605.61
717.38	1685.48
717.57	1687.53
717.75	1675.24
717.93	1658.85
718.11	1726.44
718.30	1626.09
718.48	1771.49
718.66	1751.01
718.84	1794.02
719.03	1732.58
719.21	1738.73
719.39	1744.87
719.57	1771.49
719.75	1826.79
719.94	1650.66
720.12	1705.96
720.30	1628.14
720.48	1744.87
720.67	1673.19
720.85	1665.00
721.03	1665.00
721.21	1654.76
721.39	1773.54
721.58	1708.01
721.76	1685.48
721.94	1751.01
722.12	1693.67
722.30	1777.64
722.49	1703.91
722.67	1693.67
722.85	1638.38
723.03	1619.94
723.21	1665.00
723.40	1681.38
723.58	1710.05
723.76	1667.05
723.94	1787.88
724.12	1679.33
724.30	1761.25
724.49	1742.82
724.67	1638.38
724.85	1781.73
725.03	1613.80
725.21	1744.87
725.40	1751.01
725.58	1621.99
725.76	1746.92
725.94	1705.96
726.12	1716.20
726.30	1648.61
726.49	1681.38
726.67	1665.00
726.85	1822.69
727.03	1751.01
727.21	2244.57
727.39	2934.74
727.57	3753.93
727.76	4212.67
727.94	4427.71
728.12	4411.32
728.30	3712.97
728.48	2977.75
728.66	2680.79
728.84	2582.49
729.03	2303.96
729.21	2199.52
729.39	2066.40
729.57	1839.08
729.75	1865.70
729.93	1812.45
730.11	1712.10
730.30	1742.82
730.48	1671.14
730.66	1877.99
730.84	1712.10
731.02	1685.48
731.20	1648.61
731.38	1734.63
731.56	1589.22
731.74	1628.14
731.93	1820.64
732.11	1695.72
732.29	1701.86
732.47	1728.49
732.65	1763.30
732.83	1730.53
733.01	1773.54
733.19	1648.61
733.37	1642.47
733.56	1634.28
733.74	1626.09
733.92	1781.73
734.10	1722.34
734.28	1748.97
734.46	1638.38
734.64	1732.58
734.82	1683.43
735.00	1599.46
735.18	1687.53
735.36	1652.71
735.54	1654.76
735.73	1605.61
735.91	1699.81
736.09	1724.39
736.27	1697.77
736.45	1716.20
736.63	1626.09
736.81	1675.24
736.99	1820.64
737.17	1765.35
737.35	1722.34
737.53	1693.67
737.71	1730.53
737.89	1777.64
738.07	1677.29
738.25	1658.85
738.43	1701.86
738.61	1687.53
738.80	1593.32
738.98	1662.95
739.16	1714.15
739.34	1667.05
739.52	1699.81
739.70	1638.38
739.88	1722.34
740.06	1746.92
740.24	1601.51
740.42	1708.01
740.60	1587.18
740.78	1679.33
740.96	1703.91
741.14	1599.46
741.32	1738.73
741.50	1646.57
741.68	1779.68
741.86	1726.44
742.04	1689.57
742.22	1656.81
742.40	1701.86
742.58	1820.64
742.76	1679.33
742.94	1775.59
743.12	1558.50
743.30	1732.58
743.48	1642.47
743.66	1658.85
743.84	1726.44
744.02	1681.38
744.20	1681.38
744.38	1685.48
744.56	1576.94
744.74	1834.98
744.92	1697.77
745.10	1773.54
745.28	1718.25
745.46	1798.12
745.64	1746.92
745.82	1800.16
746.00	1755.11
746.18	1689.57
746.36	1683.43
746.54	1769.44
746.72	1677.29
746.90	1708.01
747.08	1708.01
747.26	1626.09
747.44	1763.30
747.62	1753.06
747.80	1734.63
747.98	1804.26
748.15	1636.33
748.33	1783.78
748.51	1703.91
748.69	1800.16
748.87	1660.90
749.05	1728.49
749.23	1734.63
749.41	1791.97
749.59	1691.62
749.77	1755.11
749.95	1640.42
750.13	1728.49
750.31	1751.01
750.49	1685.48
750.67	1759.21
750.85	1783.78
751.03	1757.16
751.20	1781.73
751.38	1644.52
751.56	1763.30
751.74	1705.96
751.92	1626.09
752.10	1587.18
752.28	1742.82
752.46	1656.81
752.64	1689.57
752.82	1665.00
753.00	1677.29
753.18	1683.43
753.35	1632.23
753.53	1708.01
753.71	1679.33
753.89	1656.81
754.07	1687.53
754.25	1789.92
754.43	1755.11
754.61	1681.38
754.79	1718.25
754.97	1728.49
755.14	1759.21
755.32	1626.09
755.50	1728.49
755.68	1787.88
755.86	1632.23
756.04	1681.38
756.22	1591.27
756.40	1701.86
756.57	1794.02
756.75	1656.81
756.93	1773.54
757.11	1746.92
757.29	1603.56
757.47	1685.48
757.65	1601.51
757.82	1566.70
758.00	1679.33
758.18	1656.81
758.36	1726.44
758.54	1775.59
758.72	1712.10
758.90	1761.25
759.07	1689.57
759.25	1597.42
759.43	1710.05
759.61	1648.61
759.79	2191.33
759.97	1798.12
760.15	1679.33
760.32	1740.77
760.50	1632.23
760.68	1873.89
760.86	1644.52
761.04	1798.12
761.22	1703.91
761.39	1689.57
761.57	1710.05
761.75	1736.68
761.93	1767.40
762.11	1710.05
762.28	1691.62
762.46	1599.46
762.64	1742.82
762.82	1679.33
763.00	1755.11
763.18	1738.73
763.35	1675.24
763.53	1771.49
763.71	1667.05
763.89	1673.19
764.07	1689.57
764.24	1689.57
764.42	1738.73
764.60	1632.23
764.78	1738.73
764.96	1742.82
765.13	1722.34
765.31	1679.33
765.49	1759.21
765.67	1574.89
765.84	1617.90
766.02	1646.57
766.20	1556.46
766.38	1695.72
766.56	1798.12
766.73	1759.21
766.91	1726.44
767.09	1677.29
767.27	1783.78
767.44	1763.30
767.62	1681.38
767.80	1665.00
767.98	1728.49
768.15	1757.16
768.33	1789.92
768.51	1789.92
768.69	1761.25
768.87	1718.25
769.04	1742.82
769.22	1865.70
769.40	1765.35
769.58	1855.46
769.75	1722.34
769.93	1748.97
770.11	1732.58
770.28	1648.61
770.46	1699.81
770.64	1740.77
770.82	1673.19
770.99	1705.96
771.17	1751.01
771.35	1687.53
771.53	1652.71
771.70	1615.85
771.88	1697.77
772.06	1671.14
772.23	1701.86
772.41	1732.58
772.59	1638.38
772.77	1660.90
772.94	1685.48
773.12	1837.03
773.30	1685.48
773.47	1710.05
773.65	1613.80
773.83	1847.27
774.01	1705.96
774.18	1685.48
774.36	1751.01
774.54	1638.38
774.71	1699.81
774.89	1644.52
775.07	1652.71
775.24	1683.43
775.42	1593.32
775.60	1765.35
775.78	1624.04
775.95	1560.55
776.13	1601.51
776.31	1615.85
776.48	1693.67
776.66	1734.63
776.84	1730.53
777.01	1673.19
777.19	1552.36
777.37	1640.42
777.54	1724.39
777.72	1808.36
777.90	1800.16
778.07	1662.95
778.25	1933.28
778.43	1730.53
778.60	1681.38
778.78	1796.07
778.96	1755.11
779.13	1646.57
779.31	1787.88
779.49	1722.34
779.66	1773.54
779.84	1685.48
780.01	1740.77
780.19	1671.14
780.37	1761.25
780.54	1726.44
780.72	1599.46
780.90	1718.25
781.07	1671.14
781.25	1613.80
781.43	1753.06
781.60	1648.61
781.78	1726.44
781.95	1728.49
782.13	1660.90
782.31	1699.81
782.48	1656.81
782.66	1732.58
782.83	1814.50
783.01	1730.53
783.19	1669.09
783.36	1609.70
783.54	1632.23
783.72	1714.15
783.89	1736.68
784.07	1691.62
784.24	1726.44
784.42	1746.92
784.60	1746.92
784.77	1773.54
784.95	1640.42
785.12	1689.57
785.30	1751.01
785.47	1585.13
785.65	1603.56
785.83	1667.05
786.00	1617.90
786.18	1689.57
786.35	1628.14
786.53	1734.63
786.71	1734.63
786.88	1742.82
787.06	1763.30
787.23	1697.77
787.41	1642.47
787.58	1718.25
787.76	1662.95
787.94	1675.24
788.11	1617.90
788.29	1722.34
788.46	1640.42
788.64	1667.05
788.81	1728.49
788.99	1701.86
789.16	1708.01
789.34	1667.05
789.52	1630.18
789.69	1683.43
789.87	1660.90
790.04	1613.80
790.22	1718.25
790.39	1841.12
790.57	1597.42
790.74	1683.43
790.92	1732.58
791.09	1691.62
791.27	1689.57
791.44	1734.63
791.62	1710.05
791.79	1683.43
791.97	1658.85
792.15	1877.99
792.32	1730.53
792.50	1722.34
792.67	1781.73
792.85	1779.68
793.02	1712.10
793.20	1699.81
793.37	1632.23
793.55	1701.86
793.72	1662.95
793.90	1751.01
794.07	1638.38
794.25	1742.82
794.42	1677.29
794.60	1697.77
794.77	1779.68
794.95	1832.93
795.12	1724.39
795.30	1761.25
795.47	1607.66
795.65	1839.08
795.82	1695.72
796.00	1660.90
796.17	1675.24
796.34	1673.19
796.52	1665.00
796.69	1800.16
796.87	1697.77
797.04	1746.92
797.22	1832.93
797.39	1736.68
797.57	1681.38
797.74	1697.77
797.92	1712.10
798.09	1697.77
798.27	1798.12
798.44	1779.68
798.62	1626.09
798.79	1697.77
798.96	1730.53
799.14	1705.96
799.31	1804.26
799.49	1673.19
799.66	1671.14
799.84	1675.24
800.01	1585.13
800.19	1751.01
800.36	1638.38
800.53	1730.53
800.71	1785.83
800.88	1794.02
801.06	1642.47
801.23	1660.90
801.41	1644.52
801.58	1714.15
801.75	1683.43
801.93	1697.77
802.10	1701.86
802.28	1689.57
802.45	1662.95
802.63	1732.58
802.80	1873.89
802.97	1675.24
803.15	1732.58
803.32	1742.82
803.50	1642.47
803.67	1697.77
803.84	1701.86
804.02	1722.34
804.19	1669.09
804.37	1599.46
804.54	1685.48
804.71	1744.87
804.89	1667.05
805.06	1648.61
805.24	1638.38
805.41	1593.32
805.58	1640.42
805.76	1853.41
805.93	1718.25
806.10	1738.73
806.28	1785.83
806.45	1679.33
806.63	1712.10
806.80	1722.34
806.97	1652.71
807.15	1740.77
807.32	1703.91
807.49	1660.90
807.67	1603.56
807.84	1705.96
808.01	1658.85
808.19	1783.78
808.36	1814.50
808.54	1609.70
808.71	1650.66
808.88	1695.72
809.06	1648.61
809.23	1755.11
809.40	1644.52
809.58	1734.63
809.75	1736.68
809.92	1687.53
810.10	1853.41
810.27	1665.00
810.44	1730.53
810.62	1755.11
810.79	1740.77
810.96	1697.77
811.14	1669.09
811.31	1693.67
811.48	1726.44
811.66	1773.54
811.83	1769.44
812.00	1722.34
812.18	1681.38
812.35	1785.83
812.52	1701.86
812.69	1636.33
812.87	1710.05
813.04	1609.70
813.21	1732.58
813.39	1673.19
813.56	1605.61
813.73	1728.49
813.91	1650.66
814.08	1738.73
814.25	1636.33
814.42	1585.13
814.60	1603.56
814.77	1730.53
814.94	1689.57
815.12	1697.77
815.29	1738.73
815.46	1691.62
815.63	1669.09
815.81	1673.19
815.98	1671.14
816.15	1589.22
816.33	1705.96
816.50	1669.09
816.67	1697.77
816.84	1679.33
817.02	1669.09
817.19	1695.72
817.36	1742.82
817.53	1710.05
817.71	1599.46
817.88	1748.97
818.05	1718.25
818.22	1712.10
818.40	1736.68
818.57	1621.99
818.74	1748.97
818.91	1665.00
819.09	1773.54
819.26	1761.25
819.43	1648.61
819.60	1708.01
819.78	1798.12
819.95	1761.25
820.12	1738.73
820.29	1779.68
820.47	1724.39
820.64	1687.53
820.81	1634.28
820.98	1624.04
821.15	1693.67
821.33	1779.68
821.50	1632.23
821.67	1722.34
821.84	1742.82
822.02	1695.72
822.19	1759.21
822.36	1736.68
822.53	1665.00
822.70	1669.09
822.88	1769.44
823.05	1730.53
823.22	1710.05
823.39	1683.43
823.56	1689.57
823.74	1708.01
823.91	1656.81
824.08	1585.13
824.25	1585.13
824.42	1765.35
824.60	1748.97
824.77	1716.20
824.94	1599.46
825.11	1705.96
825.28	1617.90
825.45	1697.77
825.63	1658.85
825.80	1705.96
825.97	1746.92
826.14	1636.33
826.31	1605.61
826.48	1697.77
826.66	1585.13
826.83	1640.42
827.00	1714.15
827.17	1609.70
827.34	1744.87
827.51	1675.24
827.69	1693.67
827.86	1595.37
828.03	1697.77
828.20	1697.77
828.37	1648.61
828.54	1636.33
828.71	1697.77
828.89	1710.05
829.06	1724.39
829.23	1839.08
829.40	1640.42
829.57	1726.44
829.74	1726.44
829.91	1685.48
830.09	1681.38
830.26	1722.34
830.43	1773.54
830.60	1632.23
830.77	1767.40
830.94	1765.35
831.11	1767.40
831.28	1638.38
831.46	1777.64
831.63	1662.95
831.80	1736.68
831.97	1599.46
832.14	1683.43
832.31	1796.07
832.48	1720.29
832.65	1763.30
832.82	1730.53
832.99	1742.82
833.17	1624.04
833.34	1822.69
833.51	1691.62
833.68	1650.66
833.85	1716.20
834.02	1638.38
834.19	1642.47
834.36	1642.47
834.53	1767.40
834.70	1691.62
834.87	1679.33
835.04	1755.11
835.22	1677.29
835.39	1587.18
835.56	1609.70
835.73	1728.49
835.90	1757.16
836.07	1611.75
836.24	1724.39
836.41	1642.47
836.58	1599.46
836.75	1699.81
836.92	1697.77
837.09	1652.71
837.26	1771.49
837.43	1773.54
837.60	1732.58
837.77	1718.25
837.94	1722.34
838.12	1701.86
838.29	1738.73
838.46	1632.23
838.63	1650.66
838.80	1843.17
838.97	1767.40
839.14	1685.48
839.31	1675.24
839.48	1730.53
839.65	1665.00
839.82	1777.64
839.99	1710.05
840.16	1705.96
840.33	1673.19
840.50	1679.33
840.67	1708.01
840.84	1611.75
841.01	1693.67
841.18	1673.19
841.35	1681.38
841.52	1683.43
841.69	1769.44
841.86	1705.96
842.03	1675.24
842.20	1742.82
842.37	1683.43
842.54	1738.73
842.71	1755.11
842.88	1546.22
843.05	1804.26
843.22	1650.66
843.39	1677.29
843.56	1658.85
843.73	1777.64
843.90	1748.97
844.07	1703.91
844.24	1689.57
844.41	1779.68
844.58	1732.58
844.75	1740.77
844.92	1751.01
845.09	1648.61
845.26	1642.47
845.43	1787.88
845.60	1671.14
845.77	1812.45
845.94	1757.16
846.10	1785.83
846.27	1621.99
846.44	1669.09
846.61	1611.75
846.78	1597.42
846.95	1757.16
847.12	1660.90
847.29	1730.53
847.46	1656.81
847.63	1736.68
847.80	1662.95
847.97	1708.01
848.14	1796.07
848.31	1759.21
848.48	1648.61
848.65	1757.16
848.82	1669.09
848.98	1841.12
849.15	1769.44
849.32	1806.31
849.49	1726.44
849.66	1730.53
849.83	1791.97
850.00	1669.09
850.17	1650.66
850.34	1638.38
850.51	1654.76
850.68	1695.72
850.85	1820.64
851.01	1771.49
851.18	1705.96
851.35	1726.44
851.52	1714.15
851.69	1798.12
851.86	1578.98
852.03	1667.05
852.20	1748.97
852.37	1660.90
852.53	1632.23
852.70	1687.53
852.87	1701.86
853.04	1746.92
853.21	1746.92
853.38	1746.92
853.55	1755.11
853.72	1812.45
853.89	1658.85
854.05	1683.43
854.22	1718.25
854.39	1681.38
854.56	1720.29
854.73	1789.92
854.90	1654.76
855.07	1714.15
855.23	1675.24
855.40	1689.57
855.57	1685.48
855.74	1619.94
855.91	1845.22
856.08	1619.94
856.25	1583.08
856.41	1718.25
856.58	1638.38
856.75	1716.20
856.92	1646.57
857.09	1701.86
857.26	1578.98
857.42	1738.73
857.59	1724.39
857.76	1746.92
857.93	1716.20
858.10	1665.00
858.27	1689.57
858.43	1746.92
858.60	1607.66
858.77	1583.08
858.94	1761.25
859.11	1796.07
859.27	1675.24
859.44	1662.95
859.61	1785.83
859.78	1697.77
859.95	1730.53
860.12	1677.29
860.28	1771.49
860.45	1785.83
860.62	1722.34
860.79	1689.57
860.95	1619.94
861.12	1703.91
861.29	1535.98
861.46	1665.00
861.63	1628.14
861.79	1705.96
861.96	1673.19
862.13	1675.24
862.30	1765.35
862.47	1665.00
862.63	1654.76
862.80	1751.01
862.97	1751.01
863.14	1720.29
863.30	1587.18
863.47	1734.63
863.64	1753.06
863.81	1685.48
863.97	1730.53
864.14	1636.33
864.31	1652.71
864.48	1679.33
864.65	1660.90
864.81	1755.11
864.98	1748.97
865.15	1785.83
865.32	1722.34
865.48	1783.78
865.65	1759.21
865.82	1652.71
865.98	1757.16
866.15	1751.01
866.32	1728.49
866.49	1667.05
866.65	1730.53
866.82	1712.10
866.99	1726.44
867.16	1652.71
867.32	1552.36
867.49	1708.01
867.66	1650.66
867.83	1705.96
867.99	1636.33
868.16	1724.39
868.33	1613.80
868.49	1656.81
868.66	1621.99
868.83	1740.77
868.99	1630.18
869.16	1724.39
869.33	1828.84
869.50	1751.01
869.66	1681.38
869.83	1550.31
870.00	1609.70
870.16	1791.97
870.33	1748.97
870.50	1734.63
870.66	1695.72
870.83	1794.02
871.00	1677.29
871.17	1658.85
871.33	1687.53
871.50	1744.87
871.67	1640.42
871.83	1648.61
872.00	1818.60
872.17	1693.67
872.33	1789.92
872.50	1730.53
872.67	1722.34
872.83	1662.95
873.00	1740.77
873.17	1746.92
873.33	1738.73
873.50	1791.97
873.67	1601.51
873.83	1669.09
874.00	1679.33
874.16	1773.54
874.33	1712.10
874.50	1703.91
874.66	1753.06
874.83	1671.14
875.00	1755.11
875.16	1742.82
875.33	1761.25
875.50	1562.60
875.66	1681.38
875.83	1701.86
875.99	1787.88
876.16	1656.81
876.33	1656.81
876.49	1687.53
876.66	1755.11
876.83	1585.13
876.99	1589.22
877.16	1722.34
877.32	1710.05
877.49	1638.38
877.66	1687.53
877.82	1748.97
877.99	1677.29
878.15	1652.71
878.32	1708.01
878.49	1662.95
878.65	1658.85
878.82	1701.86
878.98	1708.01
879.15	1744.87
879.32	1732.58
879.48	1730.53
879.65	1640.42
879.81	1611.75
879.98	1660.90
880.15	1669.09
880.31	1675.24
880.48	1665.00
880.64	1753.06
880.81	1714.15
880.97	1806.31
881.14	1755.11
881.31	1638.38
881.47	1746.92
881.64	1660.90
881.80	1564.65
881.97	1722.34
882.13	1755.11
882.30	1658.85
882.47	1662.95
882.63	1689.57
882.80	1675.24
882.96	1726.44
883.13	1771.49
883.29	1787.88
883.46	1734.63
883.62	1753.06
883.79	1716.20
883.95	1726.44
884.12	1728.49
884.29	1779.68
884.45	1652.71
884.62	1646.57
884.78	1650.66
884.95	1800.16
885.11	1638.38
885.28	1665.00
885.44	1624.04
885.61	1730.53
885.77	1775.59
885.94	1730.53
886.10	1693.67
886.27	1751.01
886.43	1740.77
886.60	1683.43
886.76	1685.48
886.93	1634.28
887.09	1691.62
887.26	1611.75
887.42	1708.01
887.59	1763.30
887.75	1814.50
887.92	1693.67
888.08	1810.40
888.25	1783.78
888.41	1787.88
888.58	1712.10
888.74	1601.51
888.91	1689.57
>>>>>End Processed Spectral Data<<<<<
