SpectraSuite Data File
++++++++++++++++++++++++++++++++++++
Date: Mon Jun 06 13:15:57 CEST 2016
User: root
Dark Spectrum Present: No
Reference Spectrum Present: No
Number of Sampled Component Spectra: 1
Spectrometers: USB4C02835
Integration Time (usec): 100000 (USB4C02835)
Spectra Averaged: 1 (USB4C02835)
Boxcar Smoothing: 0 (USB4C02835)
Correct for Electrical Dark: No (USB4C02835)
Strobe/Lamp Enabled: No (USB4C02835)
Correct for Detector Non-linearity: No (USB4C02835)
Correct for Stray Light: No (USB4C02835)
Number of Pixels in Processed Spectrum: 3648
>>>>>Begin Processed Spectral Data<<<<<
177.47	1456.11
177.69	1456.11
177.91	1456.11
178.13	1501.16
178.36	1538.02
178.58	1621.99
178.80	1716.20
179.02	1619.94
179.24	1615.85
179.46	1710.05
179.68	1746.92
179.90	1705.96
180.13	1667.05
180.35	1689.57
180.57	1789.92
180.79	1736.68
181.01	1724.39
181.23	1699.81
181.45	1755.11
181.67	1693.67
181.90	1765.35
182.12	1589.22
182.34	1599.46
182.56	1695.72
182.78	1755.11
183.00	1689.57
183.22	1720.29
183.44	1574.89
183.66	1773.54
183.89	1791.97
184.11	1671.14
184.33	1736.68
184.55	1740.77
184.77	1611.75
184.99	1740.77
185.21	1714.15
185.43	1740.77
185.65	1665.00
185.87	1691.62
186.10	1816.55
186.32	1849.32
186.54	1695.72
186.76	1671.14
186.98	1742.82
187.20	1626.09
187.42	1683.43
187.64	1683.43
187.86	1695.72
188.08	1744.87
188.30	1669.09
188.52	1677.29
188.75	1732.58
188.97	1755.11
189.19	1640.42
189.41	1703.91
189.63	1677.29
189.85	1691.62
190.07	1640.42
190.29	1675.24
190.51	1703.91
190.73	1626.09
190.95	1789.92
191.17	1585.13
191.39	1589.22
191.61	1634.28
191.84	1716.20
192.06	1767.40
192.28	1640.42
192.50	1875.94
192.72	1718.25
192.94	1705.96
193.16	1814.50
193.38	1703.91
193.60	1667.05
193.82	1722.34
194.04	1716.20
194.26	1789.92
194.48	1728.49
194.70	1703.91
194.92	1660.90
195.14	1720.29
195.36	1644.52
195.58	1640.42
195.80	1660.90
196.02	1665.00
196.24	1685.48
196.46	1705.96
196.69	1693.67
196.91	1773.54
197.13	1648.61
197.35	1658.85
197.57	1720.29
197.79	1726.44
198.01	1660.90
198.23	1820.64
198.45	1740.77
198.67	1648.61
198.89	1734.63
199.11	1714.15
199.33	1695.72
199.55	1615.85
199.77	1751.01
199.99	1753.06
200.21	1632.23
200.43	1714.15
200.65	1617.90
200.87	1538.02
201.09	1775.59
201.31	1693.67
201.53	1812.45
201.75	1751.01
201.97	1699.81
202.19	1728.49
202.41	1669.09
202.63	1839.08
202.85	1806.31
203.07	1767.40
203.29	1681.38
203.51	1701.86
203.73	1634.28
203.95	1855.46
204.17	1738.73
204.39	1714.15
204.61	1722.34
204.83	1660.90
205.05	1767.40
205.27	1697.77
205.49	1802.21
205.71	1632.23
205.93	1673.19
206.15	1703.91
206.37	1632.23
206.59	1689.57
206.81	1607.66
207.03	1701.86
207.25	1634.28
207.47	1691.62
207.69	1630.18
207.91	1783.78
208.13	1755.11
208.34	1673.19
208.56	1646.57
208.78	1746.92
209.00	1724.39
209.22	1710.05
209.44	1669.09
209.66	1632.23
209.88	1734.63
210.10	1648.61
210.32	1679.33
210.54	1800.16
210.76	1714.15
210.98	1787.88
211.20	1556.46
211.42	1714.15
211.64	1701.86
211.86	1724.39
212.08	1726.44
212.30	1742.82
212.52	1683.43
212.74	1777.64
212.96	1673.19
213.17	1712.10
213.39	1634.28
213.61	1744.87
213.83	1771.49
214.05	1634.28
214.27	1804.26
214.49	1673.19
214.71	1628.14
214.93	1738.73
215.15	1689.57
215.37	1681.38
215.59	1648.61
215.81	1736.68
216.03	1824.74
216.24	1685.48
216.46	1710.05
216.68	1736.68
216.90	1685.48
217.12	1828.84
217.34	1683.43
217.56	1636.33
217.78	1748.97
218.00	1734.63
218.22	1644.52
218.44	1632.23
218.66	1730.53
218.87	1710.05
219.09	1636.33
219.31	1638.38
219.53	1726.44
219.75	1689.57
219.97	1683.43
220.19	1730.53
220.41	1701.86
220.63	1751.01
220.85	1701.86
221.06	1708.01
221.28	1748.97
221.50	1773.54
221.72	1689.57
221.94	1697.77
222.16	1667.05
222.38	1796.07
222.60	1744.87
222.82	1628.14
223.03	1724.39
223.25	1601.51
223.47	1748.97
223.69	1765.35
223.91	1796.07
224.13	1705.96
224.35	1687.53
224.57	1820.64
224.78	1658.85
225.00	1691.62
225.22	1708.01
225.44	1687.53
225.66	1812.45
225.88	1679.33
226.10	1708.01
226.32	1755.11
226.53	1742.82
226.75	1726.44
226.97	1607.66
227.19	1712.10
227.41	1671.14
227.63	1656.81
227.85	1630.18
228.06	1621.99
228.28	1724.39
228.50	1785.83
228.72	1640.42
228.94	1615.85
229.16	1603.56
229.37	1644.52
229.59	1689.57
229.81	1732.58
230.03	1644.52
230.25	1581.03
230.47	1617.90
230.69	1615.85
230.90	1742.82
231.12	1703.91
231.34	1665.00
231.56	1828.84
231.78	1636.33
232.00	1730.53
232.21	1681.38
232.43	1640.42
232.65	1595.37
232.87	1730.53
233.09	1675.24
233.30	1613.80
233.52	1730.53
233.74	1658.85
233.96	1632.23
234.18	1697.77
234.40	1765.35
234.61	1820.64
234.83	1574.89
235.05	1675.24
235.27	1820.64
235.49	1726.44
235.70	1681.38
235.92	1755.11
236.14	1685.48
236.36	1746.92
236.58	1628.14
236.79	1757.16
237.01	1779.68
237.23	1695.72
237.45	1892.32
237.67	1730.53
237.88	1679.33
238.10	1882.08
238.32	1675.24
238.54	1669.09
238.76	1755.11
238.97	1669.09
239.19	1677.29
239.41	1691.62
239.63	1699.81
239.85	1728.49
240.06	1746.92
240.28	1665.00
240.50	1794.02
240.72	1794.02
240.93	1652.71
241.15	1755.11
241.37	1632.23
241.59	1787.88
241.81	1642.47
242.02	1697.77
242.24	1718.25
242.46	1720.29
242.68	1665.00
242.89	1722.34
243.11	1761.25
243.33	1708.01
243.55	1751.01
243.76	1665.00
243.98	1724.39
244.20	1740.77
244.42	1665.00
244.64	1730.53
244.85	1628.14
245.07	1695.72
245.29	1687.53
245.51	1759.21
245.72	1734.63
245.94	1779.68
246.16	1703.91
246.38	1677.29
246.59	1665.00
246.81	1689.57
247.03	1671.14
247.24	1607.66
247.46	1689.57
247.68	1714.15
247.90	1687.53
248.11	1685.48
248.33	1683.43
248.55	1732.58
248.77	1619.94
248.98	1714.15
249.20	1804.26
249.42	1691.62
249.64	1703.91
249.85	1650.66
250.07	1634.28
250.29	1714.15
250.50	1773.54
250.72	1572.84
250.94	1701.86
251.16	1843.17
251.37	1791.97
251.59	1716.20
251.81	1753.06
252.02	1738.73
252.24	1722.34
252.46	1703.91
252.68	1607.66
252.89	1644.52
253.11	1601.51
253.33	1802.21
253.54	1781.73
253.76	1677.29
253.98	1654.76
254.20	1658.85
254.41	1603.56
254.63	1751.01
254.85	1550.31
255.06	1722.34
255.28	1757.16
255.50	1642.47
255.71	1705.96
255.93	1636.33
256.15	1601.51
256.36	1742.82
256.58	1681.38
256.80	1734.63
257.02	1728.49
257.23	1708.01
257.45	1718.25
257.67	1798.12
257.88	1671.14
258.10	1708.01
258.32	1681.38
258.53	1665.00
258.75	1718.25
258.97	1642.47
259.18	1660.90
259.40	1746.92
259.62	1816.55
259.83	1789.92
260.05	1728.49
260.27	2007.01
260.48	1791.97
260.70	1628.14
260.92	1689.57
261.13	1695.72
261.35	1665.00
261.57	1718.25
261.78	1626.09
262.00	1673.19
262.22	1736.68
262.43	1660.90
262.65	1726.44
262.86	1681.38
263.08	1814.50
263.30	1656.81
263.51	1675.24
263.73	1624.04
263.95	1691.62
264.16	1714.15
264.38	1679.33
264.60	1751.01
264.81	1617.90
265.03	1732.58
265.25	1742.82
265.46	1683.43
265.68	1726.44
265.89	1806.31
266.11	1689.57
266.33	1748.97
266.54	1783.78
266.76	1712.10
266.98	1665.00
267.19	1751.01
267.41	1697.77
267.62	1669.09
267.84	1628.14
268.06	1712.10
268.27	1712.10
268.49	1708.01
268.70	1808.36
268.92	1732.58
269.14	1667.05
269.35	1585.13
269.57	1703.91
269.79	1769.44
270.00	1636.33
270.22	1767.40
270.43	1665.00
270.65	1615.85
270.87	1701.86
271.08	1710.05
271.30	1693.67
271.51	1669.09
271.73	1789.92
271.95	1822.69
272.16	1724.39
272.38	1724.39
272.59	1746.92
272.81	1722.34
273.02	1705.96
273.24	1726.44
273.46	1757.16
273.67	1638.38
273.89	1687.53
274.10	1677.29
274.32	1800.16
274.54	1705.96
274.75	1677.29
274.97	1654.76
275.18	1812.45
275.40	1683.43
275.61	1734.63
275.83	1675.24
276.05	1599.46
276.26	1687.53
276.48	1677.29
276.69	1732.58
276.91	1658.85
277.12	1732.58
277.34	1785.83
277.55	1755.11
277.77	1693.67
277.99	1609.70
278.20	1660.90
278.42	1679.33
278.63	1660.90
278.85	1669.09
279.06	1621.99
279.28	1789.92
279.49	1761.25
279.71	1771.49
279.93	1712.10
280.14	1669.09
280.36	1671.14
280.57	1738.73
280.79	1757.16
281.00	1693.67
281.22	1687.53
281.43	1804.26
281.65	1617.90
281.86	1615.85
282.08	1685.48
282.29	1714.15
282.51	1615.85
282.73	1652.71
282.94	1601.51
283.16	1701.86
283.37	1746.92
283.59	1656.81
283.80	1685.48
284.02	1689.57
284.23	1685.48
284.45	1685.48
284.66	1660.90
284.88	1685.48
285.09	1685.48
285.31	1783.78
285.52	1738.73
285.74	1595.37
285.95	1722.34
286.17	1632.23
286.38	1697.77
286.60	1691.62
286.81	1624.04
287.03	1773.54
287.24	1742.82
287.46	1777.64
287.67	1699.81
287.89	1843.17
288.10	1728.49
288.32	1693.67
288.53	1736.68
288.75	1669.09
288.96	1761.25
289.18	1669.09
289.39	1636.33
289.61	1785.83
289.82	1837.03
290.04	1804.26
290.25	1667.05
290.47	1689.57
290.68	1705.96
290.90	1800.16
291.11	1626.09
291.33	1789.92
291.54	1607.66
291.76	1714.15
291.97	1695.72
292.18	1691.62
292.40	1710.05
292.61	1744.87
292.83	1869.80
293.04	1808.36
293.26	1716.20
293.47	1726.44
293.69	1613.80
293.90	1681.38
294.12	1769.44
294.33	1689.57
294.55	1722.34
294.76	1701.86
294.97	1769.44
295.19	1744.87
295.40	1689.57
295.62	1736.68
295.83	1734.63
296.05	1626.09
296.26	1761.25
296.48	1753.06
296.69	1691.62
296.90	1681.38
297.12	1699.81
297.33	1728.49
297.55	1773.54
297.76	1748.97
297.98	1800.16
298.19	1656.81
298.41	1667.05
298.62	1619.94
298.83	1689.57
299.05	1746.92
299.26	1650.66
299.48	1716.20
299.69	1736.68
299.90	1691.62
300.12	1640.42
300.33	1714.15
300.55	1673.19
300.76	1722.34
300.98	1675.24
301.19	1724.39
301.40	1683.43
301.62	1648.61
301.83	1763.30
302.05	1738.73
302.26	1650.66
302.47	1771.49
302.69	1652.71
302.90	1769.44
303.12	1626.09
303.33	1726.44
303.54	1753.06
303.76	1697.77
303.97	1716.20
304.19	1769.44
304.40	1624.04
304.61	1726.44
304.83	1734.63
305.04	1746.92
305.26	1738.73
305.47	1566.70
305.68	1685.48
305.90	1689.57
306.11	1695.72
306.33	1685.48
306.54	1703.91
306.75	1615.85
306.97	1599.46
307.18	1665.00
307.39	1654.76
307.61	1800.16
307.82	1660.90
308.04	1724.39
308.25	1642.47
308.46	1781.73
308.68	1675.24
308.89	1658.85
309.10	1775.59
309.32	1705.96
309.53	1691.62
309.74	1796.07
309.96	1755.11
310.17	1773.54
310.39	1693.67
310.60	1712.10
310.81	1695.72
311.03	1656.81
311.24	1724.39
311.45	1681.38
311.67	1794.02
311.88	1718.25
312.09	1671.14
312.31	1660.90
312.52	1681.38
312.73	1660.90
312.95	1529.83
313.16	1693.67
313.37	1796.07
313.59	1781.73
313.80	1757.16
314.01	1812.45
314.23	1593.32
314.44	1701.86
314.65	1687.53
314.87	1626.09
315.08	1636.33
315.29	1710.05
315.51	1712.10
315.72	1701.86
315.93	1853.41
316.15	1771.49
316.36	1681.38
316.57	1783.78
316.79	1710.05
317.00	1724.39
317.21	1726.44
317.43	1728.49
317.64	1673.19
317.85	1636.33
318.07	1617.90
318.28	1708.01
318.49	1781.73
318.70	1910.75
318.92	1824.74
319.13	1714.15
319.34	1841.12
319.56	1746.92
319.77	1781.73
319.98	1779.68
320.20	1785.83
320.41	1759.21
320.62	1732.58
320.83	1611.75
321.05	1814.50
321.26	1667.05
321.47	1654.76
321.69	1724.39
321.90	1652.71
322.11	1669.09
322.32	1703.91
322.54	1810.40
322.75	1675.24
322.96	1806.31
323.18	1566.70
323.39	1667.05
323.60	1677.29
323.81	1748.97
324.03	1677.29
324.24	1669.09
324.45	1734.63
324.66	1591.27
324.88	1785.83
325.09	1732.58
325.30	1695.72
325.52	1718.25
325.73	1705.96
325.94	1654.76
326.15	1603.56
326.37	1722.34
326.58	1742.82
326.79	1783.78
327.00	1642.47
327.22	1722.34
327.43	1667.05
327.64	1634.28
327.85	1763.30
328.07	1712.10
328.28	1777.64
328.49	1681.38
328.70	1665.00
328.92	1695.72
329.13	1685.48
329.34	1753.06
329.55	1898.47
329.76	1712.10
329.98	1742.82
330.19	1751.01
330.40	1787.88
330.61	1689.57
330.83	1773.54
331.04	1675.24
331.25	1718.25
331.46	1738.73
331.68	1607.66
331.89	1710.05
332.10	1665.00
332.31	1621.99
332.52	1728.49
332.74	1701.86
332.95	1673.19
333.16	1634.28
333.37	1748.97
333.58	1658.85
333.80	1730.53
334.01	1595.37
334.22	1681.38
334.43	1642.47
334.64	1746.92
334.86	1658.85
335.07	1566.70
335.28	1726.44
335.49	1607.66
335.70	1822.69
335.92	1718.25
336.13	1818.60
336.34	1720.29
336.55	1759.21
336.76	1687.53
336.98	1581.03
337.19	1708.01
337.40	1732.58
337.61	1882.08
337.82	1691.62
338.04	1742.82
338.25	1566.70
338.46	1685.48
338.67	1679.33
338.88	1630.18
339.09	1705.96
339.31	1662.95
339.52	1626.09
339.73	1714.15
339.94	1677.29
340.15	1824.74
340.36	1695.72
340.58	1742.82
340.79	1626.09
341.00	1693.67
341.21	1630.18
341.42	1816.55
341.63	1728.49
341.85	1689.57
342.06	1691.62
342.27	1603.56
342.48	1699.81
342.69	1628.14
342.90	1689.57
343.12	1726.44
343.33	1701.86
343.54	1732.58
343.75	1791.97
343.96	1640.42
344.17	1617.90
344.38	1716.20
344.60	1626.09
344.81	1630.18
345.02	1665.00
345.23	1759.21
345.44	1841.12
345.65	1710.05
345.86	1730.53
346.07	1701.86
346.29	1748.97
346.50	1718.25
346.71	1718.25
346.92	1751.01
347.13	1794.02
347.34	1693.67
347.55	1689.57
347.76	1757.16
347.98	1656.81
348.19	1665.00
348.40	1820.64
348.61	1589.22
348.82	1845.22
349.03	1693.67
349.24	1708.01
349.45	1824.74
349.66	1632.23
349.88	1734.63
350.09	1718.25
350.30	1765.35
350.51	1804.26
350.72	1710.05
350.93	1753.06
351.14	1689.57
351.35	1695.72
351.56	1658.85
351.77	1708.01
351.99	1759.21
352.20	1751.01
352.41	1705.96
352.62	1652.71
352.83	1636.33
353.04	1644.52
353.25	1611.75
353.46	1775.59
353.67	1783.78
353.88	1601.51
354.09	1681.38
354.30	1722.34
354.52	1728.49
354.73	1667.05
354.94	1708.01
355.15	1705.96
355.36	1791.97
355.57	1624.04
355.78	1691.62
355.99	1660.90
356.20	1701.86
356.41	1783.78
356.62	1662.95
356.83	1722.34
357.04	1804.26
357.25	1636.33
357.46	1742.82
357.68	1587.18
357.89	1673.19
358.10	1675.24
358.31	1617.90
358.52	1693.67
358.73	1619.94
358.94	1665.00
359.15	1673.19
359.36	1722.34
359.57	1654.76
359.78	1730.53
359.99	1806.31
360.20	1656.81
360.41	1611.75
360.62	1789.92
360.83	1808.36
361.04	1660.90
361.25	1742.82
361.46	1763.30
361.67	1732.58
361.88	1681.38
362.09	1742.82
362.30	1677.29
362.51	1636.33
362.72	1699.81
362.93	1767.40
363.14	1705.96
363.35	1724.39
363.56	1656.81
363.78	1781.73
363.99	1726.44
364.20	1675.24
364.41	1701.86
364.62	1826.79
364.83	1736.68
365.04	1716.20
365.25	1656.81
365.46	1796.07
365.67	1648.61
365.88	1617.90
366.09	1681.38
366.30	1667.05
366.51	1658.85
366.72	1605.61
366.93	1648.61
367.14	1671.14
367.35	1820.64
367.56	1775.59
367.77	1841.12
367.98	1716.20
368.18	1708.01
368.39	1751.01
368.60	1624.04
368.81	1714.15
369.02	1767.40
369.23	1644.52
369.44	1691.62
369.65	1650.66
369.86	1751.01
370.07	1681.38
370.28	1634.28
370.49	1722.34
370.70	1767.40
370.91	1681.38
371.12	1667.05
371.33	1751.01
371.54	1705.96
371.75	1810.40
371.96	1615.85
372.17	1759.21
372.38	1773.54
372.59	1683.43
372.80	1730.53
373.01	1679.33
373.22	1669.09
373.43	1718.25
373.64	1665.00
373.85	1787.88
374.06	1765.35
374.26	1734.63
374.47	1775.59
374.68	1726.44
374.89	1632.23
375.10	1662.95
375.31	1789.92
375.52	1644.52
375.73	1671.14
375.94	1685.48
376.15	1789.92
376.36	1689.57
376.57	1695.72
376.78	1667.05
376.99	1689.57
377.20	1730.53
377.40	1691.62
377.61	1914.85
377.82	1683.43
378.03	1781.73
378.24	1732.58
378.45	1656.81
378.66	1691.62
378.87	1574.89
379.08	1640.42
379.29	1615.85
379.50	1722.34
379.71	1724.39
379.91	1751.01
380.12	1740.77
380.33	1796.07
380.54	1767.40
380.75	1748.97
380.96	1605.61
381.17	1753.06
381.38	1716.20
381.59	1732.58
381.80	1703.91
382.00	1787.88
382.21	1767.40
382.42	1769.44
382.63	1869.80
382.84	1726.44
383.05	1751.01
383.26	1796.07
383.47	1726.44
383.68	1816.55
383.88	1726.44
384.09	1642.47
384.30	1818.60
384.51	1779.68
384.72	1695.72
384.93	1689.57
385.14	1708.01
385.35	1722.34
385.55	1691.62
385.76	1751.01
385.97	1722.34
386.18	1679.33
386.39	1617.90
386.60	1755.11
386.81	1683.43
387.02	1693.67
387.22	1601.51
387.43	1777.64
387.64	1697.77
387.85	1914.85
388.06	2179.04
388.27	4378.56
388.48	6756.25
388.68	8261.51
388.89	9557.87
389.10	9731.95
389.31	8425.34
389.52	7702.41
389.73	6698.91
389.93	6279.07
390.14	5892.01
390.35	5158.83
390.56	4392.89
390.77	3774.41
390.98	3069.91
391.18	2545.63
391.39	2144.22
391.60	1857.51
391.81	1888.23
392.02	1728.49
392.23	1834.98
392.43	1718.25
392.64	1794.02
392.85	1617.90
393.06	1781.73
393.27	1720.29
393.47	1738.73
393.68	1708.01
393.89	1687.53
394.10	1740.77
394.31	1658.85
394.52	1632.23
394.72	1658.85
394.93	1845.22
395.14	1603.56
395.35	1650.66
395.56	1650.66
395.76	1746.92
395.97	1869.80
396.18	1785.83
396.39	1794.02
396.60	1951.71
396.80	1927.14
397.01	1818.60
397.22	1771.49
397.43	1855.46
397.64	1775.59
397.84	1861.60
398.05	1933.28
398.26	1708.01
398.47	1771.49
398.67	1718.25
398.88	1783.78
399.09	1740.77
399.30	1736.68
399.51	1712.10
399.71	1685.48
399.92	1708.01
400.13	1677.29
400.34	1695.72
400.54	1683.43
400.75	1812.45
400.96	1765.35
401.17	1843.17
401.37	1845.22
401.58	1791.97
401.79	1632.23
402.00	1810.40
402.21	1986.53
402.41	1941.47
402.62	1945.57
402.83	2060.26
403.04	1966.05
403.24	2119.65
403.45	1841.12
403.66	1910.75
403.87	1830.88
404.07	1873.89
404.28	1882.08
404.49	1841.12
404.70	1761.25
404.90	1828.84
405.11	1746.92
405.32	1746.92
405.52	1595.37
405.73	1658.85
405.94	1636.33
406.15	1693.67
406.35	1714.15
406.56	1779.68
406.77	1679.33
406.98	1714.15
407.18	1728.49
407.39	1732.58
407.60	1703.91
407.80	1804.26
408.01	1779.68
408.22	1714.15
408.43	1638.38
408.63	1771.49
408.84	1789.92
409.05	1689.57
409.25	1765.35
409.46	1681.38
409.67	1724.39
409.88	1669.09
410.08	1675.24
410.29	1695.72
410.50	1714.15
410.70	1708.01
410.91	1738.73
411.12	1726.44
411.32	1748.97
411.53	1722.34
411.74	1708.01
411.95	1718.25
412.15	1769.44
412.36	1691.62
412.57	1761.25
412.77	1789.92
412.98	1708.01
413.19	1665.00
413.39	1767.40
413.60	1757.16
413.81	1779.68
414.01	1685.48
414.22	1767.40
414.43	1718.25
414.63	1683.43
414.84	1771.49
415.05	1701.86
415.25	1660.90
415.46	1732.58
415.67	1736.68
415.87	1736.68
416.08	1724.39
416.29	1658.85
416.49	1658.85
416.70	1681.38
416.91	1701.86
417.11	1695.72
417.32	1701.86
417.53	1767.40
417.73	1697.77
417.94	1701.86
418.15	1734.63
418.35	1720.29
418.56	1689.57
418.77	1804.26
418.97	1644.52
419.18	1673.19
419.38	1640.42
419.59	1771.49
419.80	1755.11
420.00	1621.99
420.21	1697.77
420.42	1734.63
420.62	1742.82
420.83	1767.40
421.04	1730.53
421.24	1667.05
421.45	1734.63
421.65	1746.92
421.86	1648.61
422.07	1775.59
422.27	1705.96
422.48	1662.95
422.69	1677.29
422.89	1701.86
423.10	1722.34
423.30	1621.99
423.51	1746.92
423.72	1730.53
423.92	1787.88
424.13	1697.77
424.33	1665.00
424.54	1744.87
424.75	1744.87
424.95	1814.50
425.16	1714.15
425.36	1660.90
425.57	1783.78
425.78	1730.53
425.98	1771.49
426.19	1660.90
426.39	1617.90
426.60	1703.91
426.81	1785.83
427.01	1783.78
427.22	1669.09
427.42	1597.42
427.63	1603.56
427.83	1734.63
428.04	1779.68
428.25	1783.78
428.45	1814.50
428.66	1746.92
428.86	1685.48
429.07	1685.48
429.28	1722.34
429.48	1634.28
429.69	1718.25
429.89	1748.97
430.10	1652.71
430.30	1802.21
430.51	1787.88
430.71	1662.95
430.92	1673.19
431.13	1701.86
431.33	1814.50
431.54	1777.64
431.74	1730.53
431.95	1824.74
432.15	1628.14
432.36	1685.48
432.56	1828.84
432.77	1824.74
432.98	1847.27
433.18	1742.82
433.39	1730.53
433.59	1763.30
433.80	1777.64
434.00	1830.88
434.21	1619.94
434.41	1656.81
434.62	1818.60
434.82	1669.09
435.03	1675.24
435.23	1753.06
435.44	1611.75
435.64	1712.10
435.85	1734.63
436.06	1767.40
436.26	1802.21
436.47	1718.25
436.67	1665.00
436.88	1730.53
437.08	1763.30
437.29	1837.03
437.49	1785.83
437.70	1812.45
437.90	1587.18
438.11	1877.99
438.31	1746.92
438.52	1869.80
438.72	1728.49
438.93	1945.57
439.13	1742.82
439.34	1773.54
439.54	1773.54
439.75	1794.02
439.95	1761.25
440.16	1630.18
440.36	1718.25
440.57	1744.87
440.77	1701.86
440.98	1677.29
441.18	1800.16
441.39	1736.68
441.59	1648.61
441.80	1880.04
442.00	1714.15
442.21	1748.97
442.41	1626.09
442.62	1765.35
442.82	1736.68
443.02	1755.11
443.23	1828.84
443.43	1671.14
443.64	1765.35
443.84	1693.67
444.05	1755.11
444.25	1740.77
444.46	1665.00
444.66	1650.66
444.87	1877.99
445.07	1638.38
445.28	1728.49
445.48	1767.40
445.69	1730.53
445.89	1898.47
446.09	1837.03
446.30	2103.26
446.50	2578.39
446.71	3733.45
446.91	4292.54
447.12	4702.14
447.32	4820.92
447.53	4249.54
447.73	3852.23
447.93	3604.42
448.14	3307.47
448.34	3278.80
448.55	2963.41
448.75	2869.20
448.96	2639.83
449.16	2484.19
449.36	2346.97
449.57	2045.92
449.77	1839.08
449.98	1837.03
450.18	1837.03
450.39	1839.08
450.59	1857.51
450.79	1671.14
451.00	1619.94
451.20	1716.20
451.41	1751.01
451.61	1781.73
451.81	1740.77
452.02	1755.11
452.22	1687.53
452.43	1726.44
452.63	1681.38
452.84	1787.88
453.04	1765.35
453.24	1669.09
453.45	1656.81
453.65	1710.05
453.86	1658.85
454.06	1718.25
454.26	1742.82
454.47	1636.33
454.67	1736.68
454.87	1791.97
455.08	1701.86
455.28	1798.12
455.49	1787.88
455.69	1677.29
455.89	1826.79
456.10	1767.40
456.30	1746.92
456.51	1761.25
456.71	1812.45
456.91	1744.87
457.12	1787.88
457.32	1722.34
457.52	1701.86
457.73	1689.57
457.93	1771.49
458.14	1777.64
458.34	1665.00
458.54	1714.15
458.75	1712.10
458.95	1798.12
459.15	1722.34
459.36	1716.20
459.56	1773.54
459.76	1849.32
459.97	1714.15
460.17	1755.11
460.37	1763.30
460.58	1732.58
460.78	1691.62
460.99	1693.67
461.19	1812.45
461.39	1714.15
461.60	1800.16
461.80	1744.87
462.00	1630.18
462.21	1796.07
462.41	1697.77
462.61	1695.72
462.82	1701.86
463.02	1689.57
463.22	1773.54
463.43	1751.01
463.63	1806.31
463.83	1855.46
464.04	1726.44
464.24	1757.16
464.44	1693.67
464.64	1703.91
464.85	1757.16
465.05	1800.16
465.25	1722.34
465.46	1703.91
465.66	1699.81
465.86	1769.44
466.07	1740.77
466.27	1738.73
466.47	1589.22
466.68	1658.85
466.88	1802.21
467.08	1734.63
467.29	1800.16
467.49	1748.97
467.69	1699.81
467.89	1714.15
468.10	1705.96
468.30	1685.48
468.50	1806.31
468.71	1691.62
468.91	1685.48
469.11	1814.50
469.31	1720.29
469.52	1710.05
469.72	1789.92
469.92	1828.84
470.13	1759.21
470.33	1691.62
470.53	1898.47
470.73	2162.66
470.94	2359.26
471.14	2344.92
471.34	2508.76
471.54	2406.36
471.75	2197.47
471.95	2129.89
472.15	2082.78
472.36	2119.65
472.56	2123.74
472.76	2107.36
472.96	2072.54
473.17	1974.24
473.37	1880.04
473.57	1800.16
473.77	1808.36
473.98	1718.25
474.18	1691.62
474.38	1902.56
474.58	1701.86
474.79	1736.68
474.99	1771.49
475.19	1755.11
475.39	1630.18
475.60	1720.29
475.80	1724.39
476.00	1693.67
476.20	1773.54
476.41	1732.58
476.61	1849.32
476.81	1759.21
477.01	1609.70
477.21	1892.32
477.42	1787.88
477.62	1632.23
477.82	1757.16
478.02	1695.72
478.23	1693.67
478.43	1716.20
478.63	1732.58
478.83	1710.05
479.03	1601.51
479.24	1834.98
479.44	1896.42
479.64	1697.77
479.84	1597.42
480.04	1654.76
480.25	1800.16
480.45	1687.53
480.65	1701.86
480.85	1777.64
481.06	1695.72
481.26	1728.49
481.46	1789.92
481.66	1636.33
481.86	1652.71
482.06	1826.79
482.27	1830.88
482.47	1720.29
482.67	1695.72
482.87	1630.18
483.07	1798.12
483.28	1714.15
483.48	1716.20
483.68	1697.77
483.88	1665.00
484.08	1554.41
484.29	1716.20
484.49	1667.05
484.69	1667.05
484.89	1816.55
485.09	1716.20
485.29	1665.00
485.50	1716.20
485.70	1683.43
485.90	1742.82
486.10	1640.42
486.30	1740.77
486.50	1796.07
486.71	1755.11
486.91	1773.54
487.11	1748.97
487.31	1656.81
487.51	1767.40
487.71	1708.01
487.91	1617.90
488.12	1693.67
488.32	1583.08
488.52	1679.33
488.72	1591.27
488.92	1695.72
489.12	1765.35
489.32	1796.07
489.53	1765.35
489.73	1648.61
489.93	1822.69
490.13	1644.52
490.33	1605.61
490.53	1716.20
490.73	1771.49
490.94	1693.67
491.14	1701.86
491.34	1832.93
491.54	2158.56
491.74	2510.81
491.94	2867.16
492.14	3194.83
492.34	2897.88
492.54	2719.70
492.75	2437.08
492.95	2318.30
493.15	2353.12
493.35	2267.10
493.55	2230.24
493.75	2183.13
493.95	2115.55
494.15	2000.87
494.35	1861.60
494.56	1898.47
494.76	1757.16
494.96	1863.65
495.16	1761.25
495.36	1714.15
495.56	1785.83
495.76	1689.57
495.96	1724.39
496.16	1675.24
496.36	1849.32
496.56	1757.16
496.77	1703.91
496.97	1720.29
497.17	1775.59
497.37	1638.38
497.57	1722.34
497.77	1644.52
497.97	1695.72
498.17	1705.96
498.37	1658.85
498.57	1734.63
498.77	1759.21
498.97	1751.01
499.17	1806.31
499.38	1736.68
499.58	1757.16
499.78	1818.60
499.98	1769.44
500.18	1767.40
500.38	1710.05
500.58	1882.08
500.78	2578.39
500.98	4659.13
501.18	5869.48
501.38	6756.25
501.58	7141.27
501.78	6727.58
501.98	5578.67
502.18	4902.84
502.38	4337.60
502.58	4089.79
502.78	3798.98
502.98	3774.41
503.18	3463.12
503.38	3192.78
503.59	2861.01
503.79	2703.32
503.99	2445.27
504.19	2248.67
504.39	2183.13
504.59	2195.42
504.79	2170.85
504.99	2007.01
505.19	1951.71
505.39	1918.95
505.59	1961.95
505.79	1933.28
505.99	1841.12
506.19	1859.56
506.39	1820.64
506.59	1757.16
506.79	1730.53
506.99	1714.15
507.19	1810.40
507.39	1791.97
507.59	1726.44
507.79	1685.48
507.99	1730.53
508.19	1714.15
508.39	1726.44
508.59	1751.01
508.79	1888.23
508.99	1822.69
509.19	1701.86
509.39	1757.16
509.59	1703.91
509.79	1687.53
509.99	1738.73
510.19	1800.16
510.39	1753.06
510.59	1701.86
510.79	1619.94
510.99	1654.76
511.19	1775.59
511.39	1744.87
511.59	1800.16
511.79	1787.88
511.99	1732.58
512.19	1814.50
512.38	1738.73
512.58	1693.67
512.78	1681.38
512.98	1816.55
513.18	1820.64
513.38	1574.89
513.58	1798.12
513.78	1673.19
513.98	1730.53
514.18	1740.77
514.38	1759.21
514.58	1691.62
514.78	1662.95
514.98	1791.97
515.18	1734.63
515.38	1677.29
515.58	1900.52
515.78	1732.58
515.98	1738.73
516.18	1693.67
516.38	1708.01
516.57	1687.53
516.77	1765.35
516.97	1697.77
517.17	1656.81
517.37	1617.90
517.57	1787.88
517.77	1716.20
517.97	1742.82
518.17	1781.73
518.37	1722.34
518.57	1669.09
518.77	1667.05
518.97	1767.40
519.16	1697.77
519.36	1828.84
519.56	1673.19
519.76	1728.49
519.96	1701.86
520.16	1783.78
520.36	1708.01
520.56	1726.44
520.76	1599.46
520.96	1681.38
521.16	1839.08
521.35	1755.11
521.55	1837.03
521.75	1767.40
521.95	1734.63
522.15	1710.05
522.35	1658.85
522.55	1689.57
522.75	1685.48
522.95	1607.66
523.14	1681.38
523.34	1787.88
523.54	1712.10
523.74	1781.73
523.94	1767.40
524.14	1632.23
524.34	1746.92
524.54	1830.88
524.73	1716.20
524.93	1777.64
525.13	1697.77
525.33	1742.82
525.53	1855.46
525.73	1777.64
525.93	1705.96
526.13	1822.69
526.32	1734.63
526.52	1816.55
526.72	1761.25
526.92	1740.77
527.12	1800.16
527.32	1667.05
527.52	1765.35
527.71	1722.34
527.91	1708.01
528.11	1681.38
528.31	1712.10
528.51	1656.81
528.71	1744.87
528.90	1800.16
529.10	1783.78
529.30	1798.12
529.50	1587.18
529.70	1695.72
529.90	1759.21
530.09	1748.97
530.29	1658.85
530.49	1724.39
530.69	1996.77
530.89	1763.30
531.09	1763.30
531.28	1658.85
531.48	1837.03
531.68	1742.82
531.88	1820.64
532.08	1736.68
532.28	1644.52
532.47	1722.34
532.67	1744.87
532.87	1734.63
533.07	1667.05
533.27	1695.72
533.46	1773.54
533.66	1697.77
533.86	1658.85
534.06	1673.19
534.26	1761.25
534.45	1667.05
534.65	1818.60
534.85	1710.05
535.05	1697.77
535.25	1744.87
535.44	1720.29
535.64	1742.82
535.84	1681.38
536.04	1701.86
536.24	1744.87
536.43	1763.30
536.63	1791.97
536.83	1722.34
537.03	1656.81
537.22	1644.52
537.42	1669.09
537.62	1763.30
537.82	1697.77
538.02	1816.55
538.21	1751.01
538.41	1882.08
538.61	1767.40
538.81	1669.09
539.00	1775.59
539.20	1667.05
539.40	1736.68
539.60	1728.49
539.79	1718.25
539.99	1714.15
540.19	1710.05
540.39	1751.01
540.58	1775.59
540.78	1748.97
540.98	1714.15
541.18	1757.16
541.37	1769.44
541.57	1683.43
541.77	1718.25
541.97	1673.19
542.16	1677.29
542.36	1708.01
542.56	1675.24
542.76	1841.12
542.95	1689.57
543.15	1755.11
543.35	1781.73
543.54	1771.49
543.74	1701.86
543.94	1826.79
544.14	1554.41
544.33	1755.11
544.53	1693.67
544.73	1812.45
544.93	1726.44
545.12	1673.19
545.32	1746.92
545.52	1705.96
545.71	1673.19
545.91	1728.49
546.11	1697.77
546.30	1685.48
546.50	1785.83
546.70	1789.92
546.90	1722.34
547.09	1687.53
547.29	1746.92
547.49	1697.77
547.68	1714.15
547.88	1665.00
548.08	1820.64
548.27	2222.05
548.47	1781.73
548.67	1683.43
548.87	1742.82
549.06	1611.75
549.26	1806.31
549.46	1716.20
549.65	1648.61
549.85	1724.39
550.05	1804.26
550.24	1705.96
550.44	1746.92
550.64	1724.39
550.83	1701.86
551.03	1779.68
551.23	1783.78
551.42	1787.88
551.62	1650.66
551.82	1679.33
552.01	1734.63
552.21	1812.45
552.41	1714.15
552.60	1736.68
552.80	1759.21
553.00	1757.16
553.19	1771.49
553.39	1773.54
553.59	1712.10
553.78	1781.73
553.98	1710.05
554.17	1693.67
554.37	1742.82
554.57	1773.54
554.76	1667.05
554.96	1685.48
555.16	1789.92
555.35	1722.34
555.55	1714.15
555.75	1777.64
555.94	1779.68
556.14	1755.11
556.33	1765.35
556.53	1769.44
556.73	1677.29
556.92	1722.34
557.12	1755.11
557.32	1814.50
557.51	1806.31
557.71	1751.01
557.90	1816.55
558.10	1751.01
558.30	1781.73
558.49	1628.14
558.69	1714.15
558.88	1755.11
559.08	1755.11
559.28	1769.44
559.47	1665.00
559.67	1732.58
559.86	1847.27
560.06	1855.46
560.26	1736.68
560.45	1712.10
560.65	1681.38
560.84	1880.04
561.04	1679.33
561.24	1759.21
561.43	1621.99
561.63	1742.82
561.82	1736.68
562.02	1787.88
562.22	1626.09
562.41	1744.87
562.61	1646.57
562.80	1726.44
563.00	1886.18
563.19	1746.92
563.39	1798.12
563.59	1740.77
563.78	1595.37
563.98	1636.33
564.17	1599.46
564.37	1617.90
564.56	1730.53
564.76	1660.90
564.96	1783.78
565.15	1744.87
565.35	1812.45
565.54	1685.48
565.74	1851.36
565.93	1734.63
566.13	1742.82
566.32	1806.31
566.52	1771.49
566.71	1724.39
566.91	1748.97
567.11	1787.88
567.30	1658.85
567.50	1755.11
567.69	1710.05
567.89	1718.25
568.08	1714.15
568.28	1761.25
568.47	1751.01
568.67	1722.34
568.86	1703.91
569.06	1710.05
569.25	1736.68
569.45	1699.81
569.64	1767.40
569.84	1693.67
570.04	1732.58
570.23	1685.48
570.43	1751.01
570.62	1767.40
570.82	1851.36
571.01	1710.05
571.21	1773.54
571.40	1648.61
571.60	1767.40
571.79	1724.39
571.99	1751.01
572.18	1679.33
572.38	1783.78
572.57	1716.20
572.77	1783.78
572.96	1943.52
573.16	1765.35
573.35	1767.40
573.55	1783.78
573.74	1775.59
573.94	1679.33
574.13	1763.30
574.33	1824.74
574.52	1802.21
574.71	1783.78
574.91	1761.25
575.10	1656.81
575.30	1720.29
575.49	1667.05
575.69	1695.72
575.88	1652.71
576.08	1705.96
576.27	1769.44
576.47	1765.35
576.66	1935.33
576.86	1812.45
577.05	1726.44
577.25	1775.59
577.44	1923.04
577.64	1646.57
577.83	1884.13
578.02	1761.25
578.22	1781.73
578.41	1828.84
578.61	1691.62
578.80	1710.05
579.00	1812.45
579.19	1777.64
579.39	1779.68
579.58	1732.58
579.77	1726.44
579.97	1845.22
580.16	1849.32
580.36	1767.40
580.55	1871.84
580.75	1816.55
580.94	1771.49
581.13	1818.60
581.33	1890.28
581.52	1734.63
581.72	1851.36
581.91	1787.88
582.11	1736.68
582.30	1738.73
582.49	1779.68
582.69	1837.03
582.88	1845.22
583.08	1771.49
583.27	1787.88
583.47	1744.87
583.66	1722.34
583.85	1730.53
584.05	1855.46
584.24	1796.07
584.44	1689.57
584.63	1798.12
584.82	1800.16
585.02	1839.08
585.21	1769.44
585.41	1787.88
585.60	1830.88
585.79	1892.32
585.99	1949.67
586.18	1841.12
586.37	2117.60
586.57	3549.13
586.76	9842.54
586.96	24278.67
587.15	34586.10
587.34	40627.60
587.54	42749.30
587.73	36863.44
587.93	26357.36
588.12	21524.15
588.31	18532.07
588.51	16371.46
588.70	15101.72
588.89	14221.10
589.09	12758.85
589.28	10973.02
589.47	9430.90
589.67	8030.09
589.86	6391.71
590.06	4882.36
590.25	3860.42
590.44	3258.32
590.64	2570.20
590.83	2310.11
591.02	2109.41
591.22	1898.47
591.41	1892.32
591.60	1837.03
591.80	1970.15
591.99	1730.53
592.18	1802.21
592.38	1892.32
592.57	1718.25
592.76	1734.63
592.96	1744.87
593.15	1796.07
593.34	1783.78
593.54	1734.63
593.73	1783.78
593.92	1746.92
594.12	1781.73
594.31	1701.86
594.50	1816.55
594.70	1773.54
594.89	1896.42
595.08	1738.73
595.28	1796.07
595.47	1894.37
595.66	1804.26
595.86	1699.81
596.05	1697.77
596.24	1675.24
596.43	1787.88
596.63	1814.50
596.82	1736.68
597.01	1775.59
597.21	1845.22
597.40	1798.12
597.59	1746.92
597.79	1771.49
597.98	1718.25
598.17	1738.73
598.36	1744.87
598.56	1787.88
598.75	1693.67
598.94	1755.11
599.14	1695.72
599.33	1712.10
599.52	1734.63
599.71	1824.74
599.91	1804.26
600.10	1757.16
600.29	1761.25
600.48	1820.64
600.68	1800.16
600.87	1679.33
601.06	1662.95
601.26	1755.11
601.45	1728.49
601.64	1728.49
601.83	1845.22
602.03	1773.54
602.22	1646.57
602.41	1789.92
602.60	1886.18
602.80	1841.12
602.99	1691.62
603.18	1724.39
603.37	1783.78
603.57	1761.25
603.76	1783.78
603.95	1779.68
604.14	1697.77
604.34	1652.71
604.53	1677.29
604.72	1785.83
604.91	1746.92
605.10	1800.16
605.30	1740.77
605.49	1822.69
605.68	1769.44
605.87	1746.92
606.07	1665.00
606.26	1708.01
606.45	1689.57
606.64	1628.14
606.84	1730.53
607.03	1714.15
607.22	1683.43
607.41	1619.94
607.60	1691.62
607.80	1783.78
607.99	1765.35
608.18	1755.11
608.37	1689.57
608.56	1654.76
608.76	1734.63
608.95	1834.98
609.14	1730.53
609.33	1777.64
609.52	1693.67
609.72	1710.05
609.91	1746.92
610.10	1781.73
610.29	1806.31
610.48	1734.63
610.68	1683.43
610.87	1681.38
611.06	1798.12
611.25	1677.29
611.44	1837.03
611.63	1638.38
611.83	1828.84
612.02	1609.70
612.21	1812.45
612.40	1630.18
612.59	1636.33
612.79	1650.66
612.98	1705.96
613.17	1742.82
613.36	1642.47
613.55	1812.45
613.74	1619.94
613.93	1738.73
614.13	1751.01
614.32	1806.31
614.51	1796.07
614.70	1714.15
614.89	1658.85
615.08	1759.21
615.28	1990.63
615.47	1697.77
615.66	1734.63
615.85	1650.66
616.04	1775.59
616.23	1701.86
616.42	1685.48
616.62	1794.02
616.81	1808.36
617.00	1638.38
617.19	1742.82
617.38	1665.00
617.57	1734.63
617.76	1777.64
617.95	1738.73
618.15	1794.02
618.34	1781.73
618.53	1669.09
618.72	1824.74
618.91	1810.40
619.10	1753.06
619.29	1642.47
619.48	1710.05
619.68	1718.25
619.87	1726.44
620.06	1628.14
620.25	1773.54
620.44	1693.67
620.63	1785.83
620.82	1800.16
621.01	1812.45
621.20	1710.05
621.39	1728.49
621.59	1843.17
621.78	1693.67
621.97	1701.86
622.16	1775.59
622.35	1708.01
622.54	1748.97
622.73	1794.02
622.92	1710.05
623.11	1767.40
623.30	1716.20
623.49	1755.11
623.68	1722.34
623.88	1746.92
624.07	1748.97
624.26	1771.49
624.45	1634.28
624.64	1722.34
624.83	1652.71
625.02	1656.81
625.21	1744.87
625.40	1691.62
625.59	1798.12
625.78	1705.96
625.97	1787.88
626.16	1722.34
626.35	1720.29
626.54	1716.20
626.74	1796.07
626.93	1751.01
627.12	1648.61
627.31	1765.35
627.50	1740.77
627.69	1722.34
627.88	1669.09
628.07	1677.29
628.26	1626.09
628.45	1667.05
628.64	1656.81
628.83	1738.73
629.02	1642.47
629.21	1712.10
629.40	1761.25
629.59	1677.29
629.78	1744.87
629.97	1755.11
630.16	1773.54
630.35	1710.05
630.54	1681.38
630.73	1773.54
630.92	1748.97
631.11	1710.05
631.30	1712.10
631.49	1765.35
631.68	1722.34
631.87	1751.01
632.06	1605.61
632.25	1802.21
632.44	1775.59
632.63	1755.11
632.82	1671.14
633.01	1689.57
633.20	1728.49
633.39	1730.53
633.58	1689.57
633.77	1767.40
633.96	1644.52
634.15	1748.97
634.34	1746.92
634.53	1689.57
634.72	1642.47
634.91	1652.71
635.10	1679.33
635.29	1738.73
635.48	1728.49
635.67	1679.33
635.86	1654.76
636.05	1730.53
636.24	1677.29
636.43	1775.59
636.62	1742.82
636.81	1617.90
637.00	1716.20
637.19	1779.68
637.38	1673.19
637.57	1695.72
637.76	1728.49
637.95	1708.01
638.14	1703.91
638.33	1748.97
638.52	1730.53
638.71	1705.96
638.89	1667.05
639.08	1814.50
639.27	1761.25
639.46	1662.95
639.65	1785.83
639.84	1806.31
640.03	1708.01
640.22	1708.01
640.41	1865.70
640.60	1630.18
640.79	1736.68
640.98	1662.95
641.17	1773.54
641.36	1734.63
641.55	1767.40
641.74	1650.66
641.92	1583.08
642.11	1671.14
642.30	1726.44
642.49	1654.76
642.68	1615.85
642.87	1693.67
643.06	1753.06
643.25	1689.57
643.44	1722.34
643.63	1687.53
643.82	1761.25
644.00	1669.09
644.19	1767.40
644.38	1611.75
644.57	1726.44
644.76	1732.58
644.95	1732.58
645.14	1773.54
645.33	1724.39
645.52	1710.05
645.71	1667.05
645.89	1665.00
646.08	1687.53
646.27	1701.86
646.46	1863.65
646.65	1628.14
646.84	1712.10
647.03	1632.23
647.22	1775.59
647.40	1677.29
647.59	1658.85
647.78	1634.28
647.97	1648.61
648.16	1685.48
648.35	1816.55
648.54	1820.64
648.73	1675.24
648.91	1798.12
649.10	1789.92
649.29	1671.14
649.48	1746.92
649.67	1730.53
649.86	1767.40
650.05	1724.39
650.23	1701.86
650.42	1724.39
650.61	1771.49
650.80	1718.25
650.99	1746.92
651.18	1816.55
651.36	1705.96
651.55	1665.00
651.74	1722.34
651.93	1689.57
652.12	1718.25
652.31	1681.38
652.49	1714.15
652.68	1744.87
652.87	1683.43
653.06	1724.39
653.25	1796.07
653.44	1683.43
653.62	1824.74
653.81	1759.21
654.00	1701.86
654.19	1726.44
654.38	1857.51
654.56	1724.39
654.75	1708.01
654.94	1777.64
655.13	1687.53
655.32	1712.10
655.51	1742.82
655.69	1669.09
655.88	1759.21
656.07	1687.53
656.26	1724.39
656.45	1619.94
656.63	1665.00
656.82	1787.88
657.01	1765.35
657.20	1724.39
657.38	1867.75
657.57	1689.57
657.76	1648.61
657.95	1796.07
658.14	1656.81
658.32	1712.10
658.51	1656.81
658.70	1744.87
658.89	1746.92
659.08	1662.95
659.26	1822.69
659.45	1683.43
659.64	1673.19
659.83	1716.20
660.01	1851.36
660.20	1742.82
660.39	1703.91
660.58	1636.33
660.76	1726.44
660.95	1636.33
661.14	1621.99
661.33	1695.72
661.51	1705.96
661.70	1671.14
661.89	1718.25
662.08	1673.19
662.26	1722.34
662.45	1724.39
662.64	1785.83
662.83	1796.07
663.01	1585.13
663.20	1658.85
663.39	1816.55
663.58	1644.52
663.76	1787.88
663.95	1769.44
664.14	1671.14
664.32	1746.92
664.51	1607.66
664.70	1636.33
664.89	1701.86
665.07	1673.19
665.26	1755.11
665.45	1578.98
665.64	1753.06
665.82	1718.25
666.01	1730.53
666.20	1712.10
666.38	1798.12
666.57	1763.30
666.76	2166.75
666.95	4407.23
667.13	10413.92
667.32	15312.66
667.51	18044.65
667.69	19072.73
667.88	17587.96
668.07	12511.04
668.25	9580.40
668.44	8187.78
668.63	7274.38
668.81	6825.88
669.00	6291.36
669.19	5672.87
669.38	5250.99
669.56	4700.09
669.75	3991.49
669.94	3432.40
670.12	2836.44
670.31	2492.38
670.50	2299.87
670.68	1992.67
670.87	1880.04
671.06	1806.31
671.24	1812.45
671.43	1863.65
671.62	1757.16
671.80	1689.57
671.99	1687.53
672.18	1689.57
672.36	1816.55
672.55	1800.16
672.74	1751.01
672.92	1687.53
673.11	1769.44
673.29	1673.19
673.48	1751.01
673.67	1683.43
673.85	1779.68
674.04	1665.00
674.23	1701.86
674.41	1738.73
674.60	1708.01
674.79	1644.52
674.97	1716.20
675.16	1789.92
675.34	1718.25
675.53	1671.14
675.72	1667.05
675.90	1796.07
676.09	1662.95
676.28	1697.77
676.46	1656.81
676.65	1718.25
676.83	1693.67
677.02	1734.63
677.21	1695.72
677.39	1669.09
677.58	1624.04
677.77	1646.57
677.95	1636.33
678.14	1681.38
678.32	1742.82
678.51	1660.90
678.70	1826.79
678.88	1730.53
679.07	1675.24
679.25	1746.92
679.44	1718.25
679.63	1560.55
679.81	1697.77
680.00	1787.88
680.18	1699.81
680.37	1730.53
680.55	1693.67
680.74	1693.67
680.93	1613.80
681.11	1646.57
681.30	1689.57
681.48	1757.16
681.67	1697.77
681.85	1636.33
682.04	1656.81
682.23	1742.82
682.41	1751.01
682.60	1650.66
682.78	1656.81
682.97	1701.86
683.15	1734.63
683.34	1693.67
683.53	1740.77
683.71	1662.95
683.90	1810.40
684.08	1791.97
684.27	1665.00
684.45	1730.53
684.64	1763.30
684.82	1697.77
685.01	1751.01
685.19	1677.29
685.38	1824.74
685.57	1746.92
685.75	1638.38
685.94	1613.80
686.12	1656.81
686.31	1705.96
686.49	1873.89
686.68	1630.18
686.86	1722.34
687.05	1634.28
687.23	1837.03
687.42	1710.05
687.60	1617.90
687.79	1734.63
687.97	1796.07
688.16	1800.16
688.34	1781.73
688.53	1605.61
688.71	1714.15
688.90	1771.49
689.08	1677.29
689.27	1644.52
689.45	1751.01
689.64	1748.97
689.82	1708.01
690.01	1693.67
690.19	1736.68
690.38	1714.15
690.56	1759.21
690.75	1642.47
690.93	1675.24
691.12	1665.00
691.30	1748.97
691.49	1679.33
691.67	1701.86
691.86	1822.69
692.04	1632.23
692.23	1669.09
692.41	1679.33
692.60	1861.60
692.78	1783.78
692.97	1742.82
693.15	1710.05
693.34	1714.15
693.52	1681.38
693.71	1673.19
693.89	1701.86
694.08	1679.33
694.26	1695.72
694.44	1765.35
694.63	1734.63
694.81	1665.00
695.00	1669.09
695.18	1730.53
695.37	1859.56
695.55	1708.01
695.74	1646.57
695.92	1601.51
696.10	1738.73
696.29	1638.38
696.47	1652.71
696.66	1673.19
696.84	1662.95
697.03	1742.82
697.21	1763.30
697.40	2275.29
697.58	1791.97
697.76	1665.00
697.95	1687.53
698.13	1646.57
698.32	1783.78
698.50	1693.67
698.68	1669.09
698.87	1720.29
699.05	1728.49
699.24	1662.95
699.42	1642.47
699.61	1689.57
699.79	1765.35
699.97	1736.68
700.16	1671.14
700.34	1605.61
700.53	1703.91
700.71	1828.84
700.89	1771.49
701.08	1800.16
701.26	1662.95
701.45	2152.42
701.63	1660.90
701.81	1734.63
702.00	1699.81
702.18	1757.16
702.37	1650.66
702.55	1814.50
702.73	1691.62
702.92	1685.48
703.10	1654.76
703.28	1744.87
703.47	1656.81
703.65	1744.87
703.84	1714.15
704.02	1683.43
704.20	1828.84
704.39	1652.71
704.57	1824.74
704.75	1724.39
704.94	1804.26
705.12	1820.64
705.30	1757.16
705.49	2260.96
705.67	4358.08
705.86	9537.39
706.04	12683.07
706.22	14554.91
706.41	15306.52
706.59	14016.30
706.77	9533.29
706.96	7339.92
707.14	6645.66
707.32	6014.88
707.51	5672.87
707.69	4929.46
707.87	4222.91
708.06	3600.33
708.24	2994.13
708.42	2461.66
708.61	2222.05
708.79	1898.47
708.97	1849.32
709.16	1759.21
709.34	1705.96
709.52	1742.82
709.71	1724.39
709.89	1748.97
710.07	1644.52
710.26	1644.52
710.44	1656.81
710.62	1767.40
710.80	1730.53
710.99	1732.58
711.17	1720.29
711.35	1650.66
711.54	1724.39
711.72	1871.84
711.90	1640.42
712.09	1732.58
712.27	1685.48
712.45	1783.78
712.63	1693.67
712.82	1697.77
713.00	1775.59
713.18	1695.72
713.37	1798.12
713.55	1755.11
713.73	1691.62
713.91	1683.43
714.10	1650.66
714.28	1759.21
714.46	1675.24
714.65	1767.40
714.83	1675.24
715.01	1677.29
715.19	1671.14
715.38	1587.18
715.56	1771.49
715.74	1611.75
715.92	1728.49
716.11	1761.25
716.29	1607.66
716.47	1732.58
716.65	1636.33
716.84	1675.24
717.02	1804.26
717.20	1640.42
717.38	1679.33
717.57	1658.85
717.75	1705.96
717.93	1683.43
718.11	1658.85
718.30	1628.14
718.48	1689.57
718.66	1791.97
718.84	1746.92
719.03	1705.96
719.21	1638.38
719.39	1804.26
719.57	1771.49
719.75	1757.16
719.94	1699.81
720.12	1742.82
720.30	1796.07
720.48	1687.53
720.67	1617.90
720.85	1624.04
721.03	1724.39
721.21	1654.76
721.39	1726.44
721.58	1742.82
721.76	1665.00
721.94	1769.44
722.12	1701.86
722.30	1798.12
722.49	1634.28
722.67	1697.77
722.85	1675.24
723.03	1601.51
723.21	1632.23
723.40	1789.92
723.58	1691.62
723.76	1740.77
723.94	1746.92
724.12	1671.14
724.30	1753.06
724.49	1839.08
724.67	1550.31
724.85	1755.11
725.03	1589.22
725.21	1710.05
725.40	1720.29
725.58	1703.91
725.76	1697.77
725.94	1701.86
726.12	1675.24
726.30	1730.53
726.49	1730.53
726.67	1619.94
726.85	1736.68
727.03	1687.53
727.21	2131.94
727.39	2820.05
727.57	3762.12
727.76	4190.14
727.94	4356.03
728.12	4419.52
728.30	3676.10
728.48	3057.62
728.66	2736.09
728.84	2576.34
729.03	2265.05
729.21	2174.94
729.39	1982.43
729.57	1918.95
729.75	1820.64
729.93	1861.60
730.11	1771.49
730.30	1660.90
730.48	1658.85
730.66	1751.01
730.84	1687.53
731.02	1697.77
731.20	1718.25
731.38	1718.25
731.56	1716.20
731.74	1624.04
731.93	1726.44
732.11	1751.01
732.29	1621.99
732.47	1679.33
732.65	1689.57
732.83	1791.97
733.01	1724.39
733.19	1648.61
733.37	1724.39
733.56	1722.34
733.74	1624.04
733.92	1734.63
734.10	1695.72
734.28	1765.35
734.46	1615.85
734.64	1701.86
734.82	1703.91
735.00	1736.68
735.18	1650.66
735.36	1708.01
735.54	1734.63
735.73	1714.15
735.91	1738.73
736.09	1730.53
736.27	1677.29
736.45	1773.54
736.63	1574.89
736.81	1646.57
736.99	1753.06
737.17	1789.92
737.35	1656.81
737.53	1683.43
737.71	1697.77
737.89	1767.40
738.07	1673.19
738.25	1650.66
738.43	1591.27
738.61	1626.09
738.80	1679.33
738.98	1652.71
739.16	1687.53
739.34	1658.85
739.52	1683.43
739.70	1673.19
739.88	1759.21
740.06	1755.11
740.24	1652.71
740.42	1800.16
740.60	1558.50
740.78	1665.00
740.96	1687.53
741.14	1662.95
741.32	1740.77
741.50	1677.29
741.68	1822.69
741.86	1734.63
742.04	1624.04
742.22	1683.43
742.40	1691.62
742.58	1654.76
742.76	1660.90
742.94	1734.63
743.12	1656.81
743.30	1695.72
743.48	1677.29
743.66	1605.61
743.84	1740.77
744.02	1665.00
744.20	1689.57
744.38	1642.47
744.56	1636.33
744.74	1716.20
744.92	1742.82
745.10	1849.32
745.28	1722.34
745.46	1748.97
745.64	1738.73
745.82	1712.10
746.00	1640.42
746.18	1650.66
746.36	1679.33
746.54	1759.21
746.72	1701.86
746.90	1689.57
747.08	1732.58
747.26	1679.33
747.44	1767.40
747.62	1726.44
747.80	1705.96
747.98	1822.69
748.15	1660.90
748.33	1796.07
748.51	1632.23
748.69	1734.63
748.87	1673.19
749.05	1642.47
749.23	1708.01
749.41	1759.21
749.59	1699.81
749.77	1755.11
749.95	1699.81
750.13	1607.66
750.31	1763.30
750.49	1716.20
750.67	1748.97
750.85	1748.97
751.03	1736.68
751.20	1789.92
751.38	1650.66
751.56	1613.80
751.74	1699.81
751.92	1705.96
752.10	1587.18
752.28	1753.06
752.46	1753.06
752.64	1679.33
752.82	1638.38
753.00	1728.49
753.18	1636.33
753.35	1632.23
753.53	1658.85
753.71	1660.90
753.89	1755.11
754.07	1679.33
754.25	1757.16
754.43	1773.54
754.61	1634.28
754.79	1660.90
754.97	1742.82
755.14	1748.97
755.32	1626.09
755.50	1683.43
755.68	1744.87
755.86	1642.47
756.04	1621.99
756.22	1603.56
756.40	1714.15
756.57	1810.40
756.75	1652.71
756.93	1734.63
757.11	1716.20
757.29	1660.90
757.47	1718.25
757.65	1697.77
757.82	1558.50
758.00	1689.57
758.18	1667.05
758.36	1675.24
758.54	1873.89
758.72	1660.90
758.90	1714.15
759.07	1693.67
759.25	1660.90
759.43	1705.96
759.61	1697.77
759.79	2226.14
759.97	1742.82
760.15	1673.19
760.32	1683.43
760.50	1746.92
760.68	1798.12
760.86	1630.18
761.04	1751.01
761.22	1738.73
761.39	1705.96
761.57	1724.39
761.75	1626.09
761.93	1619.94
762.11	1695.72
762.28	1693.67
762.46	1675.24
762.64	1746.92
762.82	1583.08
763.00	1675.24
763.18	1812.45
763.35	1630.18
763.53	1724.39
763.71	1677.29
763.89	1802.21
764.07	1732.58
764.24	1636.33
764.42	1755.11
764.60	1703.91
764.78	1753.06
764.96	1787.88
765.13	1703.91
765.31	1687.53
765.49	1736.68
765.67	1660.90
765.84	1669.09
766.02	1679.33
766.20	1687.53
766.38	1759.21
766.56	1652.71
766.73	1802.21
766.91	1718.25
767.09	1726.44
767.27	1697.77
767.44	1691.62
767.62	1742.82
767.80	1708.01
767.98	1673.19
768.15	1636.33
768.33	1742.82
768.51	1759.21
768.69	1751.01
768.87	1656.81
769.04	1708.01
769.22	1808.36
769.40	1726.44
769.58	1859.56
769.75	1691.62
769.93	1714.15
770.11	1718.25
770.28	1728.49
770.46	1699.81
770.64	1716.20
770.82	1697.77
770.99	1757.16
771.17	1705.96
771.35	1716.20
771.53	1759.21
771.70	1675.24
771.88	1783.78
772.06	1669.09
772.23	1679.33
772.41	1820.64
772.59	1753.06
772.77	1689.57
772.94	1687.53
773.12	1724.39
773.30	1646.57
773.47	1722.34
773.65	1544.17
773.83	1761.25
774.01	1650.66
774.18	1646.57
774.36	1720.29
774.54	1611.75
774.71	1691.62
774.89	1595.37
775.07	1656.81
775.24	1675.24
775.42	1685.48
775.60	1777.64
775.78	1697.77
775.95	1687.53
776.13	1630.18
776.31	1615.85
776.48	1691.62
776.66	1785.83
776.84	1634.28
777.01	1724.39
777.19	1669.09
777.37	1720.29
777.54	1748.97
777.72	1730.53
777.90	1685.48
778.07	1701.86
778.25	1851.36
778.43	1708.01
778.60	1716.20
778.78	1697.77
778.96	1771.49
779.13	1642.47
779.31	1800.16
779.49	1648.61
779.66	1714.15
779.84	1677.29
780.01	1687.53
780.19	1681.38
780.37	1767.40
780.54	1705.96
780.72	1656.81
780.90	1665.00
781.07	1638.38
781.25	1685.48
781.43	1759.21
781.60	1585.13
781.78	1787.88
781.95	1665.00
782.13	1697.77
782.31	1744.87
782.48	1654.76
782.66	1755.11
782.83	1744.87
783.01	1693.67
783.19	1746.92
783.36	1693.67
783.54	1667.05
783.72	1708.01
783.89	1626.09
784.07	1765.35
784.24	1708.01
784.42	1740.77
784.60	1791.97
784.77	1730.53
784.95	1626.09
785.12	1624.04
785.30	1662.95
785.47	1619.94
785.65	1675.24
785.83	1697.77
786.00	1673.19
786.18	1658.85
786.35	1660.90
786.53	1681.38
786.71	1785.83
786.88	1763.30
787.06	1763.30
787.23	1652.71
787.41	1697.77
787.58	1689.57
787.76	1638.38
787.94	1724.39
788.11	1687.53
788.29	1724.39
788.46	1621.99
788.64	1650.66
788.81	1675.24
788.99	1636.33
789.16	1585.13
789.34	1683.43
789.52	1671.14
789.69	1640.42
789.87	1595.37
790.04	1759.21
790.22	1708.01
790.39	1832.93
790.57	1724.39
790.74	1634.28
790.92	1708.01
791.09	1560.55
791.27	1677.29
791.44	1722.34
791.62	1665.00
791.79	1705.96
791.97	1718.25
792.15	1851.36
792.32	1710.05
792.50	1771.49
792.67	1787.88
792.85	1796.07
793.02	1767.40
793.20	1687.53
793.37	1601.51
793.55	1712.10
793.72	1609.70
793.90	1761.25
794.07	1652.71
794.25	1675.24
794.42	1738.73
794.60	1701.86
794.77	1681.38
794.95	1708.01
795.12	1740.77
795.30	1695.72
795.47	1669.09
795.65	1875.94
795.82	1740.77
796.00	1665.00
796.17	1640.42
796.34	1642.47
796.52	1736.68
796.69	1777.64
796.87	1742.82
797.04	1708.01
797.22	1718.25
797.39	1671.14
797.57	1806.31
797.74	1771.49
797.92	1703.91
798.09	1673.19
798.27	1724.39
798.44	1742.82
798.62	1673.19
798.79	1730.53
798.96	1667.05
799.14	1714.15
799.31	1796.07
799.49	1658.85
799.66	1595.37
799.84	1763.30
800.01	1638.38
800.19	1697.77
800.36	1572.84
800.53	1693.67
800.71	1746.92
800.88	1677.29
801.06	1624.04
801.23	1681.38
801.41	1705.96
801.58	1667.05
801.75	1699.81
801.93	1755.11
802.10	1738.73
802.28	1710.05
802.45	1572.84
802.63	1683.43
802.80	1728.49
802.97	1691.62
803.15	1736.68
803.32	1656.81
803.50	1628.14
803.67	1669.09
803.84	1597.42
804.02	1624.04
804.19	1736.68
804.37	1533.93
804.54	1562.60
804.71	1685.48
804.89	1710.05
805.06	1626.09
805.24	1652.71
805.41	1576.94
805.58	1681.38
805.76	1826.79
805.93	1683.43
806.10	1785.83
806.28	1716.20
806.45	1624.04
806.63	1710.05
806.80	1705.96
806.97	1773.54
807.15	1675.24
807.32	1603.56
807.49	1726.44
807.67	1660.90
807.84	1832.93
808.01	1687.53
808.19	1841.12
808.36	1759.21
808.54	1710.05
808.71	1662.95
808.88	1673.19
809.06	1722.34
809.23	1693.67
809.40	1703.91
809.58	1763.30
809.75	1687.53
809.92	1665.00
810.10	1800.16
810.27	1632.23
810.44	1746.92
810.62	1730.53
810.79	1742.82
810.96	1646.57
811.14	1683.43
811.31	1736.68
811.48	1679.33
811.66	1642.47
811.83	1658.85
812.00	1720.29
812.18	1728.49
812.35	1826.79
812.52	1675.24
812.69	1726.44
812.87	1609.70
813.04	1660.90
813.21	1705.96
813.39	1607.66
813.56	1615.85
813.73	1806.31
813.91	1677.29
814.08	1667.05
814.25	1761.25
814.42	1603.56
814.60	1640.42
814.77	1681.38
814.94	1705.96
815.12	1755.11
815.29	1832.93
815.46	1648.61
815.63	1734.63
815.81	1654.76
815.98	1742.82
816.15	1685.48
816.33	1619.94
816.50	1691.62
816.67	1673.19
816.84	1632.23
817.02	1671.14
817.19	1585.13
817.36	1687.53
817.53	1730.53
817.71	1656.81
817.88	1724.39
818.05	1644.52
818.22	1716.20
818.40	1814.50
818.57	1796.07
818.74	1679.33
818.91	1753.06
819.09	1777.64
819.26	1818.60
819.43	1566.70
819.60	1642.47
819.78	1734.63
819.95	1828.84
820.12	1656.81
820.29	1683.43
820.47	1693.67
820.64	1703.91
820.81	1644.52
820.98	1689.57
821.15	1644.52
821.33	1726.44
821.50	1724.39
821.67	1763.30
821.84	1695.72
822.02	1699.81
822.19	1769.44
822.36	1687.53
822.53	1683.43
822.70	1654.76
822.88	1703.91
823.05	1832.93
823.22	1712.10
823.39	1808.36
823.56	1746.92
823.74	1781.73
823.91	1697.77
824.08	1685.48
824.25	1644.52
824.42	1751.01
824.60	1652.71
824.77	1626.09
824.94	1662.95
825.11	1755.11
825.28	1675.24
825.45	1644.52
825.63	1689.57
825.80	1609.70
825.97	1789.92
826.14	1667.05
826.31	1665.00
826.48	1736.68
826.66	1656.81
826.83	1697.77
827.00	1662.95
827.17	1605.61
827.34	1705.96
827.51	1665.00
827.69	1714.15
827.86	1603.56
828.03	1638.38
828.20	1716.20
828.37	1597.42
828.54	1689.57
828.71	1671.14
828.89	1781.73
829.06	1675.24
829.23	1742.82
829.40	1687.53
829.57	1636.33
829.74	1777.64
829.91	1583.08
830.09	1695.72
830.26	1728.49
830.43	1814.50
830.60	1624.04
830.77	1757.16
830.94	1826.79
831.11	1742.82
831.28	1701.86
831.46	1714.15
831.63	1640.42
831.80	1736.68
831.97	1681.38
832.14	1669.09
832.31	1705.96
832.48	1691.62
832.65	1716.20
832.82	1751.01
832.99	1701.86
833.17	1650.66
833.34	1763.30
833.51	1755.11
833.68	1607.66
833.85	1742.82
834.02	1587.18
834.19	1691.62
834.36	1720.29
834.53	1667.05
834.70	1777.64
834.87	1712.10
835.04	1697.77
835.22	1685.48
835.39	1593.32
835.56	1701.86
835.73	1683.43
835.90	1744.87
836.07	1640.42
836.24	1683.43
836.41	1697.77
836.58	1665.00
836.75	1716.20
836.92	1652.71
837.09	1652.71
837.26	1720.29
837.43	1716.20
837.60	1689.57
837.77	1630.18
837.94	1716.20
838.12	1724.39
838.29	1734.63
838.46	1589.22
838.63	1697.77
838.80	1763.30
838.97	1763.30
839.14	1648.61
839.31	1671.14
839.48	1685.48
839.65	1683.43
839.82	1761.25
839.99	1710.05
840.16	1759.21
840.33	1654.76
840.50	1775.59
840.67	1636.33
840.84	1609.70
841.01	1708.01
841.18	1677.29
841.35	1669.09
841.52	1746.92
841.69	1738.73
841.86	1648.61
842.03	1662.95
842.20	1748.97
842.37	1648.61
842.54	1642.47
842.71	1683.43
842.88	1601.51
843.05	1673.19
843.22	1699.81
843.39	1710.05
843.56	1679.33
843.73	1740.77
843.90	1665.00
844.07	1662.95
844.24	1746.92
844.41	1753.06
844.58	1638.38
844.75	1632.23
844.92	1740.77
845.09	1722.34
845.26	1669.09
845.43	1583.08
845.60	1667.05
845.77	1736.68
845.94	1708.01
846.10	1775.59
846.27	1701.86
846.44	1701.86
846.61	1617.90
846.78	1724.39
846.95	1730.53
847.12	1767.40
847.29	1665.00
847.46	1675.24
847.63	1726.44
847.80	1669.09
847.97	1724.39
848.14	1845.22
848.31	1636.33
848.48	1660.90
848.65	1763.30
848.82	1607.66
848.98	1828.84
849.15	1689.57
849.32	1779.68
849.49	1718.25
849.66	1652.71
849.83	1748.97
850.00	1617.90
850.17	1785.83
850.34	1669.09
850.51	1652.71
850.68	1599.46
850.85	1810.40
851.01	1714.15
851.18	1701.86
851.35	1662.95
851.52	1677.29
851.69	1783.78
851.86	1593.32
852.03	1736.68
852.20	1703.91
852.37	1665.00
852.53	1718.25
852.70	1617.90
852.87	1738.73
853.04	1771.49
853.21	1697.77
853.38	1701.86
853.55	1806.31
853.72	1828.84
853.89	1691.62
854.05	1712.10
854.22	1685.48
854.39	1693.67
854.56	1757.16
854.73	1765.35
854.90	1708.01
855.07	1708.01
855.23	1699.81
855.40	1683.43
855.57	1665.00
855.74	1578.98
855.91	1875.94
856.08	1601.51
856.25	1683.43
856.41	1714.15
856.58	1632.23
856.75	1705.96
856.92	1624.04
857.09	1767.40
857.26	1560.55
857.42	1724.39
857.59	1767.40
857.76	1689.57
857.93	1701.86
858.10	1732.58
858.27	1681.38
858.43	1740.77
858.60	1597.42
858.77	1671.14
858.94	1640.42
859.11	1771.49
859.27	1677.29
859.44	1714.15
859.61	1894.37
859.78	1806.31
859.95	1714.15
860.12	1742.82
860.28	1775.59
860.45	1755.11
860.62	1693.67
860.79	1648.61
860.95	1660.90
861.12	1665.00
861.29	1689.57
861.46	1691.62
861.63	1689.57
861.79	1660.90
861.96	1703.91
862.13	1656.81
862.30	1656.81
862.47	1556.46
862.63	1621.99
862.80	1759.21
862.97	1781.73
863.14	1708.01
863.30	1718.25
863.47	1673.19
863.64	1789.92
863.81	1728.49
863.97	1667.05
864.14	1753.06
864.31	1728.49
864.48	1640.42
864.65	1630.18
864.81	1703.91
864.98	1720.29
865.15	1785.83
865.32	1728.49
865.48	1779.68
865.65	1789.92
865.82	1714.15
865.98	1710.05
866.15	1712.10
866.32	1726.44
866.49	1687.53
866.65	1761.25
866.82	1648.61
866.99	1734.63
867.16	1658.85
867.32	1671.14
867.49	1761.25
867.66	1624.04
867.83	1673.19
867.99	1673.19
868.16	1701.86
868.33	1644.52
868.49	1798.12
868.66	1755.11
868.83	1746.92
868.99	1699.81
869.16	1640.42
869.33	1779.68
869.50	1751.01
869.66	1658.85
869.83	1730.53
870.00	1597.42
870.16	1660.90
870.33	1654.76
870.50	1738.73
870.66	1746.92
870.83	1796.07
871.00	1695.72
871.17	1660.90
871.33	1732.58
871.50	1726.44
871.67	1646.57
871.83	1677.29
872.00	1783.78
872.17	1705.96
872.33	1802.21
872.50	1832.93
872.67	1636.33
872.83	1691.62
873.00	1740.77
873.17	1695.72
873.33	1714.15
873.50	1681.38
873.67	1714.15
873.83	1687.53
874.00	1701.86
874.16	1734.63
874.33	1687.53
874.50	1656.81
874.66	1763.30
874.83	1755.11
875.00	1685.48
875.16	1718.25
875.33	1748.97
875.50	1505.26
875.66	1615.85
875.83	1695.72
875.99	1726.44
876.16	1738.73
876.33	1638.38
876.49	1648.61
876.66	1652.71
876.83	1712.10
876.99	1689.57
877.16	1679.33
877.32	1605.61
877.49	1673.19
877.66	1740.77
877.82	1724.39
877.99	1730.53
878.15	1708.01
878.32	1746.92
878.49	1714.15
878.65	1705.96
878.82	1726.44
878.98	1615.85
879.15	1783.78
879.32	1787.88
879.48	1724.39
879.65	1652.71
879.81	1667.05
879.98	1673.19
880.15	1624.04
880.31	1710.05
880.48	1656.81
880.64	1693.67
880.81	1658.85
880.97	1808.36
881.14	1757.16
881.31	1673.19
881.47	1773.54
881.64	1675.24
881.80	1646.57
881.97	1699.81
882.13	1787.88
882.30	1658.85
882.47	1662.95
882.63	1681.38
882.80	1634.28
882.96	1662.95
883.13	1804.26
883.29	1615.85
883.46	1736.68
883.62	1791.97
883.79	1597.42
883.95	1726.44
884.12	1681.38
884.29	1767.40
884.45	1710.05
884.62	1648.61
884.78	1669.09
884.95	1796.07
885.11	1701.86
885.28	1779.68
885.44	1650.66
885.61	1673.19
885.77	1767.40
885.94	1724.39
886.10	1738.73
886.27	1714.15
886.43	1695.72
886.60	1722.34
886.76	1634.28
886.93	1595.37
887.09	1724.39
887.26	1665.00
887.42	1673.19
887.59	1748.97
887.75	1800.16
887.92	1765.35
888.08	1714.15
888.25	1841.12
888.41	1689.57
888.58	1722.34
888.74	1654.76
888.91	1726.44
>>>>>End Processed Spectral Data<<<<<
