SpectraSuite Data File
++++++++++++++++++++++++++++++++++++
Date: Mon Jun 06 12:56:57 CEST 2016
User: root
Dark Spectrum Present: No
Reference Spectrum Present: No
Number of Sampled Component Spectra: 1
Spectrometers: USB4C02835
Integration Time (usec): 100000 (USB4C02835)
Spectra Averaged: 1 (USB4C02835)
Boxcar Smoothing: 0 (USB4C02835)
Correct for Electrical Dark: No (USB4C02835)
Strobe/Lamp Enabled: No (USB4C02835)
Correct for Detector Non-linearity: No (USB4C02835)
Correct for Stray Light: No (USB4C02835)
Number of Pixels in Processed Spectrum: 3648
>>>>>Begin Processed Spectral Data<<<<<
177.47	1415.15
177.69	1415.15
177.91	1415.15
178.13	1447.91
178.36	1495.02
178.58	1695.72
178.80	1646.57
179.02	1581.03
179.24	1671.14
179.46	1634.28
179.68	1789.92
179.90	1689.57
180.13	1681.38
180.35	1632.23
180.57	1685.48
180.79	1732.58
181.01	1605.61
181.23	1691.62
181.45	1798.12
181.67	1714.15
181.90	1771.49
182.12	1755.11
182.34	1613.80
182.56	1722.34
182.78	1765.35
183.00	1695.72
183.22	1714.15
183.44	1593.32
183.66	1904.61
183.89	1783.78
184.11	1732.58
184.33	1662.95
184.55	1726.44
184.77	1718.25
184.99	1654.76
185.21	1685.48
185.43	1810.40
185.65	1683.43
185.87	1693.67
186.10	1800.16
186.32	1808.36
186.54	1736.68
186.76	1736.68
186.98	1757.16
187.20	1656.81
187.42	1701.86
187.64	1691.62
187.86	1695.72
188.08	1824.74
188.30	1634.28
188.52	1757.16
188.75	1757.16
188.97	1820.64
189.19	1734.63
189.41	1689.57
189.63	1697.77
189.85	1675.24
190.07	1609.70
190.29	1634.28
190.51	1746.92
190.73	1685.48
190.95	1828.84
191.17	1724.39
191.39	1611.75
191.61	1628.14
191.84	1642.47
192.06	1636.33
192.28	1669.09
192.50	1832.93
192.72	1812.45
192.94	1691.62
193.16	1742.82
193.38	1740.77
193.60	1617.90
193.82	1693.67
194.04	1736.68
194.26	1742.82
194.48	1689.57
194.70	1660.90
194.92	1636.33
195.14	1722.34
195.36	1662.95
195.58	1783.78
195.80	1695.72
196.02	1624.04
196.24	1619.94
196.46	1777.64
196.69	1593.32
196.91	1865.70
197.13	1642.47
197.35	1677.29
197.57	1832.93
197.79	1665.00
198.01	1738.73
198.23	1783.78
198.45	1742.82
198.67	1636.33
198.89	1671.14
199.11	1718.25
199.33	1691.62
199.55	1583.08
199.77	1646.57
199.99	1767.40
200.21	1679.33
200.43	1673.19
200.65	1738.73
200.87	1572.84
201.09	1640.42
201.31	1751.01
201.53	1740.77
201.75	1746.92
201.97	1677.29
202.19	1693.67
202.41	1701.86
202.63	1748.97
202.85	1708.01
203.07	1783.78
203.29	1693.67
203.51	1632.23
203.73	1714.15
203.95	1949.67
204.17	1689.57
204.39	1724.39
204.61	1716.20
204.83	1722.34
205.05	1767.40
205.27	1808.36
205.49	1867.75
205.71	1734.63
205.93	1656.81
206.15	1705.96
206.37	1665.00
206.59	1740.77
206.81	1621.99
207.03	1665.00
207.25	1648.61
207.47	1740.77
207.69	1724.39
207.91	1806.31
208.13	1789.92
208.34	1652.71
208.56	1603.56
208.78	1708.01
209.00	1671.14
209.22	1746.92
209.44	1720.29
209.66	1660.90
209.88	1683.43
210.10	1601.51
210.32	1742.82
210.54	1748.97
210.76	1722.34
210.98	1759.21
211.20	1599.46
211.42	1730.53
211.64	1724.39
211.86	1757.16
212.08	1775.59
212.30	1732.58
212.52	1624.04
212.74	1757.16
212.96	1748.97
213.17	1734.63
213.39	1726.44
213.61	1779.68
213.83	1685.48
214.05	1605.61
214.27	1767.40
214.49	1632.23
214.71	1587.18
214.93	1722.34
215.15	1724.39
215.37	1777.64
215.59	1578.98
215.81	1712.10
216.03	1777.64
216.24	1689.57
216.46	1716.20
216.68	1652.71
216.90	1724.39
217.12	1789.92
217.34	1763.30
217.56	1738.73
217.78	1726.44
218.00	1759.21
218.22	1679.33
218.44	1701.86
218.66	1720.29
218.87	1763.30
219.09	1685.48
219.31	1644.52
219.53	1802.21
219.75	1691.62
219.97	1724.39
220.19	1753.06
220.41	1775.59
220.63	1806.31
220.85	1744.87
221.06	1693.67
221.28	1724.39
221.50	1755.11
221.72	1693.67
221.94	1665.00
222.16	1738.73
222.38	1775.59
222.60	1761.25
222.82	1636.33
223.03	1767.40
223.25	1667.05
223.47	1796.07
223.69	1798.12
223.91	1708.01
224.13	1710.05
224.35	1632.23
224.57	1783.78
224.78	1744.87
225.00	1656.81
225.22	1710.05
225.44	1714.15
225.66	1632.23
225.88	1687.53
226.10	1746.92
226.32	1691.62
226.53	1763.30
226.75	1673.19
226.97	1687.53
227.19	1615.85
227.41	1624.04
227.63	1615.85
227.85	1546.22
228.06	1726.44
228.28	1730.53
228.50	1773.54
228.72	1703.91
228.94	1714.15
229.16	1568.74
229.37	1650.66
229.59	1624.04
229.81	1722.34
230.03	1587.18
230.25	1640.42
230.47	1603.56
230.69	1632.23
230.90	1871.84
231.12	1765.35
231.34	1697.77
231.56	1724.39
231.78	1677.29
232.00	1646.57
232.21	1656.81
232.43	1720.29
232.65	1607.66
232.87	1798.12
233.09	1658.85
233.30	1691.62
233.52	1746.92
233.74	1693.67
233.96	1673.19
234.18	1681.38
234.40	1726.44
234.61	1794.02
234.83	1601.51
235.05	1683.43
235.27	1824.74
235.49	1779.68
235.70	1742.82
235.92	1734.63
236.14	1769.44
236.36	1804.26
236.58	1669.09
236.79	1689.57
237.01	1720.29
237.23	1644.52
237.45	1781.73
237.67	1665.00
237.88	1732.58
238.10	1761.25
238.32	1662.95
238.54	1712.10
238.76	1681.38
238.97	1615.85
239.19	1662.95
239.41	1728.49
239.63	1712.10
239.85	1652.71
240.06	1679.33
240.28	1654.76
240.50	1779.68
240.72	1683.43
240.93	1701.86
241.15	1742.82
241.37	1740.77
241.59	1816.55
241.81	1617.90
242.02	1669.09
242.24	1718.25
242.46	1662.95
242.68	1619.94
242.89	1787.88
243.11	1720.29
243.33	1705.96
243.55	1654.76
243.76	1714.15
243.98	1636.33
244.20	1673.19
244.42	1679.33
244.64	1656.81
244.85	1617.90
245.07	1736.68
245.29	1703.91
245.51	1673.19
245.72	1783.78
245.94	1767.40
246.16	1689.57
246.38	1642.47
246.59	1654.76
246.81	1619.94
247.03	1642.47
247.24	1591.27
247.46	1624.04
247.68	1697.77
247.90	1730.53
248.11	1583.08
248.33	1808.36
248.55	1753.06
248.77	1679.33
248.98	1789.92
249.20	1773.54
249.42	1679.33
249.64	1718.25
249.85	1697.77
250.07	1716.20
250.29	1746.92
250.50	1773.54
250.72	1615.85
250.94	1800.16
251.16	1804.26
251.37	1767.40
251.59	1681.38
251.81	1681.38
252.02	1828.84
252.24	1662.95
252.46	1767.40
252.68	1654.76
252.89	1673.19
253.11	1626.09
253.33	1746.92
253.54	1789.92
253.76	1628.14
253.98	1619.94
254.20	1708.01
254.41	1634.28
254.63	1736.68
254.85	1630.18
255.06	1689.57
255.28	1685.48
255.50	1695.72
255.71	1658.85
255.93	1671.14
256.15	1718.25
256.36	1697.77
256.58	1644.52
256.80	1742.82
257.02	1742.82
257.23	1648.61
257.45	1761.25
257.67	1650.66
257.88	1667.05
258.10	1705.96
258.32	1701.86
258.53	1724.39
258.75	1759.21
258.97	1714.15
259.18	1724.39
259.40	1646.57
259.62	1802.21
259.83	1810.40
260.05	1697.77
260.27	1949.67
260.48	1732.58
260.70	1615.85
260.92	1734.63
261.13	1679.33
261.35	1761.25
261.57	1814.50
261.78	1574.89
262.00	1650.66
262.22	1751.01
262.43	1751.01
262.65	1642.47
262.86	1732.58
263.08	1791.97
263.30	1738.73
263.51	1578.98
263.73	1636.33
263.95	1810.40
264.16	1705.96
264.38	1701.86
264.60	1718.25
264.81	1652.71
265.03	1757.16
265.25	1765.35
265.46	1712.10
265.68	1773.54
265.89	1665.00
266.11	1644.52
266.33	1757.16
266.54	1714.15
266.76	1716.20
266.98	1669.09
267.19	1785.83
267.41	1746.92
267.62	1669.09
267.84	1675.24
268.06	1710.05
268.27	1722.34
268.49	1736.68
268.70	1785.83
268.92	1736.68
269.14	1654.76
269.35	1654.76
269.57	1787.88
269.79	1757.16
270.00	1716.20
270.22	1675.24
270.43	1697.77
270.65	1652.71
270.87	1722.34
271.08	1738.73
271.30	1722.34
271.51	1769.44
271.73	1701.86
271.95	1755.11
272.16	1671.14
272.38	1714.15
272.59	1689.57
272.81	1730.53
273.02	1687.53
273.24	1665.00
273.46	1742.82
273.67	1660.90
273.89	1673.19
274.10	1671.14
274.32	1710.05
274.54	1685.48
274.75	1755.11
274.97	1621.99
275.18	1779.68
275.40	1767.40
275.61	1691.62
275.83	1699.81
276.05	1648.61
276.26	1738.73
276.48	1708.01
276.69	1665.00
276.91	1609.70
277.12	1732.58
277.34	1761.25
277.55	1720.29
277.77	1718.25
277.99	1650.66
278.20	1683.43
278.42	1619.94
278.63	1648.61
278.85	1665.00
279.06	1599.46
279.28	1757.16
279.49	1683.43
279.71	1779.68
279.93	1714.15
280.14	1669.09
280.36	1699.81
280.57	1781.73
280.79	1773.54
281.00	1621.99
281.22	1697.77
281.43	1757.16
281.65	1609.70
281.86	1615.85
282.08	1748.97
282.29	1816.55
282.51	1634.28
282.73	1621.99
282.94	1630.18
283.16	1724.39
283.37	1796.07
283.59	1662.95
283.80	1753.06
284.02	1699.81
284.23	1734.63
284.45	1683.43
284.66	1683.43
284.88	1640.42
285.09	1738.73
285.31	1722.34
285.52	1738.73
285.74	1591.27
285.95	1732.58
286.17	1691.62
286.38	1740.77
286.60	1656.81
286.81	1705.96
287.03	1605.61
287.24	1677.29
287.46	1724.39
287.67	1740.77
287.89	1738.73
288.10	1640.42
288.32	1695.72
288.53	1802.21
288.75	1734.63
288.96	1701.86
289.18	1665.00
289.39	1660.90
289.61	1730.53
289.82	1800.16
290.04	1763.30
290.25	1613.80
290.47	1705.96
290.68	1748.97
290.90	1738.73
291.11	1607.66
291.33	1791.97
291.54	1665.00
291.76	1681.38
291.97	1714.15
292.18	1734.63
292.40	1658.85
292.61	1646.57
292.83	1855.46
293.04	1730.53
293.26	1712.10
293.47	1699.81
293.69	1720.29
293.90	1693.67
294.12	1740.77
294.33	1748.97
294.55	1744.87
294.76	1691.62
294.97	1775.59
295.19	1783.78
295.40	1675.24
295.62	1730.53
295.83	1761.25
296.05	1662.95
296.26	1703.91
296.48	1687.53
296.69	1714.15
296.90	1710.05
297.12	1732.58
297.33	1773.54
297.55	1673.19
297.76	1724.39
297.98	1791.97
298.19	1705.96
298.41	1673.19
298.62	1595.37
298.83	1712.10
299.05	1685.48
299.26	1587.18
299.48	1632.23
299.69	1650.66
299.90	1728.49
300.12	1634.28
300.33	1615.85
300.55	1714.15
300.76	1697.77
300.98	1667.05
301.19	1726.44
301.40	1701.86
301.62	1617.90
301.83	1722.34
302.05	1728.49
302.26	1703.91
302.47	1708.01
302.69	1652.71
302.90	1652.71
303.12	1621.99
303.33	1732.58
303.54	1779.68
303.76	1656.81
303.97	1732.58
304.19	1771.49
304.40	1607.66
304.61	1724.39
304.83	1828.84
305.04	1773.54
305.26	1665.00
305.47	1748.97
305.68	1654.76
305.90	1593.32
306.11	1755.11
306.33	1644.52
306.54	1652.71
306.75	1658.85
306.97	1634.28
307.18	1644.52
307.39	1718.25
307.61	1789.92
307.82	1665.00
308.04	1697.77
308.25	1638.38
308.46	1665.00
308.68	1677.29
308.89	1665.00
309.10	1757.16
309.32	1685.48
309.53	1681.38
309.74	1732.58
309.96	1628.14
310.17	1716.20
310.39	1724.39
310.60	1683.43
310.81	1660.90
311.03	1501.16
311.24	1757.16
311.45	1693.67
311.67	1873.89
311.88	1765.35
312.09	1587.18
312.31	1718.25
312.52	1738.73
312.73	1685.48
312.95	1617.90
313.16	1714.15
313.37	1740.77
313.59	1736.68
313.80	1769.44
314.01	1871.84
314.23	1662.95
314.44	1697.77
314.65	1654.76
314.87	1673.19
315.08	1689.57
315.29	1771.49
315.51	1652.71
315.72	1636.33
315.93	1779.68
316.15	1722.34
316.36	1607.66
316.57	1732.58
316.79	1644.52
317.00	1628.14
317.21	1705.96
317.43	1708.01
317.64	1701.86
317.85	1708.01
318.07	1648.61
318.28	1761.25
318.49	1810.40
318.70	1970.15
318.92	1708.01
319.13	1837.03
319.34	1857.51
319.56	1724.39
319.77	1738.73
319.98	1783.78
320.20	1748.97
320.41	1679.33
320.62	1705.96
320.83	1662.95
321.05	1818.60
321.26	1748.97
321.47	1621.99
321.69	1724.39
321.90	1734.63
322.11	1714.15
322.32	1665.00
322.54	1753.06
322.75	1660.90
322.96	1832.93
323.18	1619.94
323.39	1562.60
323.60	1650.66
323.81	1738.73
324.03	1652.71
324.24	1650.66
324.45	1714.15
324.66	1689.57
324.88	1724.39
325.09	1748.97
325.30	1691.62
325.52	1675.24
325.73	1718.25
325.94	1648.61
326.15	1572.84
326.37	1751.01
326.58	1746.92
326.79	1722.34
327.00	1591.27
327.22	1755.11
327.43	1654.76
327.64	1595.37
327.85	1712.10
328.07	1683.43
328.28	1837.03
328.49	1681.38
328.70	1638.38
328.92	1673.19
329.13	1687.53
329.34	1781.73
329.55	1783.78
329.76	1800.16
329.98	1732.58
330.19	1748.97
330.40	1687.53
330.61	1693.67
330.83	1724.39
331.04	1720.29
331.25	1712.10
331.46	1693.67
331.68	1609.70
331.89	1724.39
332.10	1673.19
332.31	1658.85
332.52	1669.09
332.74	1730.53
332.95	1626.09
333.16	1587.18
333.37	1761.25
333.58	1677.29
333.80	1728.49
334.01	1568.74
334.22	1632.23
334.43	1687.53
334.64	1650.66
334.86	1648.61
335.07	1570.79
335.28	1730.53
335.49	1574.89
335.70	1722.34
335.92	1697.77
336.13	1828.84
336.34	1640.42
336.55	1697.77
336.76	1685.48
336.98	1667.05
337.19	1693.67
337.40	1824.74
337.61	1869.80
337.82	1689.57
338.04	1785.83
338.25	1640.42
338.46	1757.16
338.67	1675.24
338.88	1621.99
339.09	1626.09
339.31	1665.00
339.52	1607.66
339.73	1601.51
339.94	1728.49
340.15	1697.77
340.36	1595.37
340.58	1695.72
340.79	1669.09
341.00	1771.49
341.21	1652.71
341.42	1804.26
341.63	1697.77
341.85	1789.92
342.06	1734.63
342.27	1683.43
342.48	1769.44
342.69	1632.23
342.90	1767.40
343.12	1796.07
343.33	1656.81
343.54	1710.05
343.75	1757.16
343.96	1669.09
344.17	1740.77
344.38	1654.76
344.60	1714.15
344.81	1693.67
345.02	1791.97
345.23	1781.73
345.44	1744.87
345.65	1665.00
345.86	1679.33
346.07	1716.20
346.29	1746.92
346.50	1742.82
346.71	1720.29
346.92	1767.40
347.13	1834.98
347.34	1597.42
347.55	1673.19
347.76	1732.58
347.98	1636.33
348.19	1632.23
348.40	1781.73
348.61	1693.67
348.82	1783.78
349.03	1716.20
349.24	1642.47
349.45	1843.17
349.66	1599.46
349.88	1703.91
350.09	1636.33
350.30	1742.82
350.51	1744.87
350.72	1714.15
350.93	1730.53
351.14	1619.94
351.35	1705.96
351.56	1695.72
351.77	1632.23
351.99	1712.10
352.20	1771.49
352.41	1744.87
352.62	1617.90
352.83	1730.53
353.04	1697.77
353.25	1703.91
353.46	1810.40
353.67	1857.51
353.88	1654.76
354.09	1699.81
354.30	1673.19
354.52	1742.82
354.73	1628.14
354.94	1677.29
355.15	1667.05
355.36	1834.98
355.57	1667.05
355.78	1787.88
355.99	1642.47
356.20	1665.00
356.41	1740.77
356.62	1665.00
356.83	1687.53
357.04	1722.34
357.25	1609.70
357.46	1636.33
357.68	1564.65
357.89	1738.73
358.10	1691.62
358.31	1728.49
358.52	1734.63
358.73	1656.81
358.94	1646.57
359.15	1673.19
359.36	1714.15
359.57	1722.34
359.78	1675.24
359.99	1742.82
360.20	1615.85
360.41	1656.81
360.62	1697.77
360.83	1712.10
361.04	1665.00
361.25	1818.60
361.46	1746.92
361.67	1718.25
361.88	1742.82
362.09	1751.01
362.30	1716.20
362.51	1708.01
362.72	1705.96
362.93	1773.54
363.14	1755.11
363.35	1693.67
363.56	1642.47
363.78	1730.53
363.99	1775.59
364.20	1660.90
364.41	1779.68
364.62	1828.84
364.83	1730.53
365.04	1675.24
365.25	1703.91
365.46	1755.11
365.67	1720.29
365.88	1658.85
366.09	1691.62
366.30	1738.73
366.51	1681.38
366.72	1636.33
366.93	1660.90
367.14	1736.68
367.35	1787.88
367.56	1734.63
367.77	1775.59
367.98	1687.53
368.18	1779.68
368.39	1771.49
368.60	1720.29
368.81	1755.11
369.02	1730.53
369.23	1703.91
369.44	1607.66
369.65	1720.29
369.86	1753.06
370.07	1771.49
370.28	1615.85
370.49	1705.96
370.70	1779.68
370.91	1595.37
371.12	1638.38
371.33	1779.68
371.54	1685.48
371.75	1765.35
371.96	1619.94
372.17	1675.24
372.38	1736.68
372.59	1757.16
372.80	1669.09
373.01	1656.81
373.22	1685.48
373.43	1746.92
373.64	1605.61
373.85	1837.03
374.06	1783.78
374.26	1669.09
374.47	1718.25
374.68	1738.73
374.89	1687.53
375.10	1701.86
375.31	1824.74
375.52	1632.23
375.73	1660.90
375.94	1695.72
376.15	1822.69
376.36	1681.38
376.57	1697.77
376.78	1689.57
376.99	1708.01
377.20	1744.87
377.40	1630.18
377.61	1777.64
377.82	1634.28
378.03	1767.40
378.24	1660.90
378.45	1746.92
378.66	1732.58
378.87	1632.23
379.08	1648.61
379.29	1667.05
379.50	1824.74
379.71	1783.78
379.91	1765.35
380.12	1695.72
380.33	1710.05
380.54	1691.62
380.75	1695.72
380.96	1644.52
381.17	1755.11
381.38	1742.82
381.59	1798.12
381.80	1718.25
382.00	1826.79
382.21	1710.05
382.42	1873.89
382.63	1923.04
382.84	1775.59
383.05	1818.60
383.26	1806.31
383.47	1697.77
383.68	1791.97
383.88	1751.01
384.09	1665.00
384.30	1832.93
384.51	1740.77
384.72	1708.01
384.93	1632.23
385.14	1730.53
385.35	1736.68
385.55	1648.61
385.76	1777.64
385.97	1771.49
386.18	1685.48
386.39	1687.53
386.60	1712.10
386.81	1638.38
387.02	1687.53
387.22	1662.95
387.43	1748.97
387.64	1810.40
387.85	1841.12
388.06	2125.79
388.27	4263.87
388.48	6780.82
388.68	8013.70
388.89	9621.36
389.10	9785.19
389.31	8529.79
389.52	7667.60
389.73	6555.55
389.93	6174.63
390.14	6002.60
390.35	5189.55
390.56	4509.63
390.77	3827.65
390.98	3125.20
391.18	2525.15
391.39	2043.87
391.60	1798.12
391.81	1816.55
392.02	1714.15
392.23	1837.03
392.43	1703.91
392.64	1765.35
392.85	1701.86
393.06	1873.89
393.27	1644.52
393.47	1685.48
393.68	1695.72
393.89	1724.39
394.10	1789.92
394.31	1665.00
394.52	1691.62
394.72	1624.04
394.93	1820.64
395.14	1662.95
395.35	1658.85
395.56	1669.09
395.76	1691.62
395.97	1800.16
396.18	1822.69
396.39	1804.26
396.60	2062.30
396.80	1828.84
397.01	1871.84
397.22	1761.25
397.43	1906.66
397.64	1761.25
397.84	1826.79
398.05	1888.23
398.26	1705.96
398.47	1767.40
398.67	1832.93
398.88	1726.44
399.09	1775.59
399.30	1697.77
399.51	1734.63
399.71	1658.85
399.92	1665.00
400.13	1744.87
400.34	1722.34
400.54	1765.35
400.75	1808.36
400.96	1714.15
401.17	1884.13
401.37	1751.01
401.58	1699.81
401.79	1665.00
402.00	1816.55
402.21	2054.11
402.41	1867.75
402.62	1955.81
402.83	2021.35
403.04	2037.73
403.24	2041.82
403.45	1894.37
403.66	1964.00
403.87	1886.18
404.07	1871.84
404.28	1861.60
404.49	1875.94
404.70	1710.05
404.90	1783.78
405.11	1689.57
405.32	1718.25
405.52	1665.00
405.73	1644.52
405.94	1669.09
406.15	1669.09
406.35	1748.97
406.56	1765.35
406.77	1701.86
406.98	1757.16
407.18	1593.32
407.39	1830.88
407.60	1673.19
407.80	1736.68
408.01	1697.77
408.22	1685.48
408.43	1667.05
408.63	1703.91
408.84	1648.61
409.05	1759.21
409.25	1652.71
409.46	1689.57
409.67	1720.29
409.88	1660.90
410.08	1716.20
410.29	1699.81
410.50	1771.49
410.70	1767.40
410.91	1703.91
411.12	1712.10
411.32	1712.10
411.53	1675.24
411.74	1828.84
411.95	1785.83
412.15	1646.57
412.36	1804.26
412.57	1759.21
412.77	1822.69
412.98	1744.87
413.19	1708.01
413.39	1740.77
413.60	1781.73
413.81	1775.59
414.01	1597.42
414.22	1722.34
414.43	1746.92
414.63	1619.94
414.84	1787.88
415.05	1775.59
415.25	1624.04
415.46	1779.68
415.67	1701.86
415.87	1722.34
416.08	1701.86
416.29	1646.57
416.49	1736.68
416.70	1650.66
416.91	1677.29
417.11	1689.57
417.32	1703.91
417.53	1802.21
417.73	1808.36
417.94	1681.38
418.15	1771.49
418.35	1677.29
418.56	1714.15
418.77	1837.03
418.97	1783.78
419.18	1732.58
419.38	1554.41
419.59	1701.86
419.80	1851.36
420.00	1689.57
420.21	1679.33
420.42	1746.92
420.62	1730.53
420.83	1660.90
421.04	1669.09
421.24	1705.96
421.45	1853.41
421.65	1695.72
421.86	1746.92
422.07	1705.96
422.27	1722.34
422.48	1775.59
422.69	1701.86
422.89	1697.77
423.10	1724.39
423.30	1634.28
423.51	1703.91
423.72	1671.14
423.92	1767.40
424.13	1605.61
424.33	1800.16
424.54	1712.10
424.75	1761.25
424.95	1787.88
425.16	1755.11
425.36	1732.58
425.57	1705.96
425.78	1759.21
425.98	1781.73
426.19	1716.20
426.39	1662.95
426.60	1667.05
426.81	1769.44
427.01	1744.87
427.22	1675.24
427.42	1581.03
427.63	1751.01
427.83	1753.06
428.04	1746.92
428.25	1804.26
428.45	1751.01
428.66	1781.73
428.86	1683.43
429.07	1671.14
429.28	1685.48
429.48	1712.10
429.69	1722.34
429.89	1697.77
430.10	1708.01
430.30	1726.44
430.51	1726.44
430.71	1675.24
430.92	1783.78
431.13	1644.52
431.33	1738.73
431.54	1681.38
431.74	1751.01
431.95	1800.16
432.15	1714.15
432.36	1695.72
432.56	1779.68
432.77	1845.22
432.98	1755.11
433.18	1697.77
433.39	1730.53
433.59	1638.38
433.80	1718.25
434.00	1830.88
434.21	1716.20
434.41	1691.62
434.62	1812.45
434.82	1667.05
435.03	1636.33
435.23	1660.90
435.44	1550.31
435.64	1701.86
435.85	1732.58
436.06	1757.16
436.26	1814.50
436.47	1650.66
436.67	1656.81
436.88	1681.38
437.08	1779.68
437.29	1748.97
437.49	1777.64
437.70	1824.74
437.90	1634.28
438.11	1773.54
438.31	1738.73
438.52	1804.26
438.72	1841.12
438.93	1877.99
439.13	1814.50
439.34	1830.88
439.54	1769.44
439.75	1744.87
439.95	1761.25
440.16	1740.77
440.36	1789.92
440.57	1794.02
440.77	1656.81
440.98	1705.96
441.18	1726.44
441.39	1718.25
441.59	1730.53
441.80	1828.84
442.00	1658.85
442.21	1847.27
442.41	1605.61
442.62	1779.68
442.82	1675.24
443.02	1785.83
443.23	1646.57
443.43	1734.63
443.64	1849.32
443.84	1619.94
444.05	1761.25
444.25	1705.96
444.46	1660.90
444.66	1705.96
444.87	1806.31
445.07	1683.43
445.28	1691.62
445.48	1853.41
445.69	1779.68
445.89	1787.88
446.09	1734.63
446.30	1996.77
446.50	2688.98
446.71	3762.12
446.91	4229.06
447.12	4726.71
447.32	4761.53
447.53	4321.21
447.73	3803.08
447.93	3524.55
448.14	3272.65
448.34	3186.64
448.55	2955.22
448.75	2832.34
448.96	2674.65
449.16	2426.84
449.36	2351.07
449.57	2093.02
449.77	1882.08
449.98	1736.68
450.18	1812.45
450.39	1814.50
450.59	1841.12
450.79	1697.77
451.00	1693.67
451.20	1771.49
451.41	1615.85
451.61	1699.81
451.81	1783.78
452.02	1708.01
452.22	1724.39
452.43	1683.43
452.63	1753.06
452.84	1681.38
453.04	1771.49
453.24	1761.25
453.45	1583.08
453.65	1667.05
453.86	1714.15
454.06	1798.12
454.26	1710.05
454.47	1708.01
454.67	1873.89
454.87	1742.82
455.08	1771.49
455.28	1884.13
455.49	1761.25
455.69	1701.86
455.89	1927.14
456.10	1810.40
456.30	1699.81
456.51	1779.68
456.71	1687.53
456.91	1724.39
457.12	1785.83
457.32	1755.11
457.52	1701.86
457.73	1701.86
457.93	1828.84
458.14	1689.57
458.34	1646.57
458.54	1716.20
458.75	1691.62
458.95	1789.92
459.15	1798.12
459.36	1703.91
459.56	1699.81
459.76	1804.26
459.97	1736.68
460.17	1714.15
460.37	1783.78
460.58	1724.39
460.78	1759.21
460.99	1728.49
461.19	1722.34
461.39	1718.25
461.60	1730.53
461.80	1777.64
462.00	1726.44
462.21	1722.34
462.41	1753.06
462.61	1683.43
462.82	1656.81
463.02	1724.39
463.22	1748.97
463.43	1738.73
463.63	1697.77
463.83	1839.08
464.04	1748.97
464.24	1720.29
464.44	1626.09
464.64	1765.35
464.85	1761.25
465.05	1828.84
465.25	1714.15
465.46	1685.48
465.66	1736.68
465.86	1806.31
466.07	1685.48
466.27	1660.90
466.47	1628.14
466.68	1636.33
466.88	1791.97
467.08	1724.39
467.29	1800.16
467.49	1746.92
467.69	1701.86
467.89	1775.59
468.10	1712.10
468.30	1783.78
468.50	1744.87
468.71	1884.13
468.91	1658.85
469.11	1763.30
469.31	1761.25
469.52	1636.33
469.72	1751.01
469.92	1818.60
470.13	1656.81
470.33	1738.73
470.53	1804.26
470.73	2131.94
470.94	2322.40
471.14	2297.82
471.34	2512.86
471.54	2377.69
471.75	2125.79
471.95	2101.22
472.15	2103.26
472.36	2142.18
472.56	1992.67
472.76	2062.30
472.96	2009.06
473.17	1935.33
473.37	1834.98
473.57	1880.04
473.77	1718.25
473.98	1730.53
474.18	1720.29
474.38	1892.32
474.58	1734.63
474.79	1708.01
474.99	1714.15
475.19	1738.73
475.39	1697.77
475.60	1734.63
475.80	1746.92
476.00	1771.49
476.20	1751.01
476.41	1787.88
476.61	1806.31
476.81	1816.55
477.01	1667.05
477.21	1783.78
477.42	1763.30
477.62	1630.18
477.82	1748.97
478.02	1699.81
478.23	1787.88
478.43	1716.20
478.63	1708.01
478.83	1669.09
479.03	1695.72
479.24	1787.88
479.44	1822.69
479.64	1673.19
479.84	1646.57
480.04	1654.76
480.25	1771.49
480.45	1667.05
480.65	1771.49
480.85	1816.55
481.06	1789.92
481.26	1693.67
481.46	1691.62
481.66	1691.62
481.86	1720.29
482.06	1808.36
482.27	1751.01
482.47	1763.30
482.67	1773.54
482.87	1714.15
483.07	1779.68
483.28	1679.33
483.48	1611.75
483.68	1740.77
483.88	1654.76
484.08	1544.17
484.29	1632.23
484.49	1681.38
484.69	1677.29
484.89	1781.73
485.09	1826.79
485.29	1783.78
485.50	1712.10
485.70	1710.05
485.90	1798.12
486.10	1724.39
486.30	1720.29
486.50	1791.97
486.71	1769.44
486.91	1759.21
487.11	1794.02
487.31	1693.67
487.51	1753.06
487.71	1699.81
487.91	1658.85
488.12	1640.42
488.32	1542.12
488.52	1687.53
488.72	1595.37
488.92	1746.92
489.12	1763.30
489.32	1720.29
489.53	1767.40
489.73	1665.00
489.93	1798.12
490.13	1775.59
490.33	1601.51
490.53	1724.39
490.73	1841.12
490.94	1626.09
491.14	1771.49
491.34	1849.32
491.54	2168.80
491.74	2478.04
491.94	2889.68
492.14	2981.84
492.34	2934.74
492.54	2660.31
492.75	2484.19
492.95	2404.32
493.15	2316.25
493.35	2187.23
493.55	2195.42
493.75	2136.03
493.95	2097.12
494.15	1949.67
494.35	1929.19
494.56	1886.18
494.76	1789.92
494.96	1796.07
495.16	1746.92
495.36	1816.55
495.56	1781.73
495.76	1728.49
495.96	1716.20
496.16	1644.52
496.36	1849.32
496.56	1771.49
496.77	1710.05
496.97	1761.25
497.17	1800.16
497.37	1724.39
497.57	1785.83
497.77	1767.40
497.97	1673.19
498.17	1738.73
498.37	1646.57
498.57	1761.25
498.77	1705.96
498.97	1720.29
499.17	1755.11
499.38	1701.86
499.58	1761.25
499.78	1730.53
499.98	1845.22
500.18	1732.58
500.38	1632.23
500.58	1896.42
500.78	2551.77
500.98	4560.83
501.18	5705.64
501.38	6823.83
501.58	7212.95
501.78	6616.99
501.98	5480.36
502.18	4947.89
502.38	4157.38
502.58	4048.83
502.78	3768.26
502.98	3698.63
503.18	3420.11
503.38	3110.86
503.59	2754.52
503.79	2609.11
503.99	2426.84
504.19	2242.53
504.39	2156.51
504.59	2197.47
504.79	2187.23
504.99	2076.64
505.19	1894.37
505.39	1892.32
505.59	1953.76
505.79	1898.47
505.99	1828.84
506.19	1820.64
506.39	1837.03
506.59	1736.68
506.79	1726.44
506.99	1753.06
507.19	1671.14
507.39	1681.38
507.59	1722.34
507.79	1687.53
507.99	1693.67
508.19	1705.96
508.39	1652.71
508.59	1751.01
508.79	1802.21
508.99	1783.78
509.19	1660.90
509.39	1748.97
509.59	1681.38
509.79	1703.91
509.99	1771.49
510.19	1763.30
510.39	1755.11
510.59	1755.11
510.79	1667.05
510.99	1712.10
511.19	1730.53
511.39	1837.03
511.59	1822.69
511.79	1746.92
511.99	1691.62
512.19	1769.44
512.38	1724.39
512.58	1701.86
512.78	1665.00
512.98	1785.83
513.18	1837.03
513.38	1669.09
513.58	1820.64
513.78	1779.68
513.98	1685.48
514.18	1708.01
514.38	1630.18
514.58	1746.92
514.78	1581.03
514.98	1701.86
515.18	1691.62
515.38	1726.44
515.58	1773.54
515.78	1757.16
515.98	1714.15
516.18	1755.11
516.38	1710.05
516.57	1763.30
516.77	1708.01
516.97	1701.86
517.17	1800.16
517.37	1533.93
517.57	1820.64
517.77	1722.34
517.97	1675.24
518.17	1779.68
518.37	1677.29
518.57	1650.66
518.77	1726.44
518.97	1759.21
519.16	1744.87
519.36	1824.74
519.56	1761.25
519.76	1689.57
519.96	1769.44
520.16	1773.54
520.36	1636.33
520.56	1857.51
520.76	1679.33
520.96	1691.62
521.16	1832.93
521.35	1773.54
521.55	1781.73
521.75	1757.16
521.95	1722.34
522.15	1751.01
522.35	1624.04
522.55	1718.25
522.75	1757.16
522.95	1751.01
523.14	1630.18
523.34	1816.55
523.54	1708.01
523.74	1787.88
523.94	1710.05
524.14	1669.09
524.34	1806.31
524.54	1814.50
524.73	1730.53
524.93	1705.96
525.13	1689.57
525.33	1714.15
525.53	1810.40
525.73	1818.60
525.93	1734.63
526.13	1748.97
526.32	1689.57
526.52	1781.73
526.72	1765.35
526.92	1701.86
527.12	1765.35
527.32	1669.09
527.52	1714.15
527.71	1708.01
527.91	1710.05
528.11	1705.96
528.31	1691.62
528.51	1667.05
528.71	1761.25
528.90	1722.34
529.10	1814.50
529.30	1810.40
529.50	1626.09
529.70	1722.34
529.90	1703.91
530.09	1677.29
530.29	1714.15
530.49	1660.90
530.69	1851.36
530.89	1710.05
531.09	1773.54
531.28	1751.01
531.48	1808.36
531.68	1730.53
531.88	1751.01
532.08	1740.77
532.28	1701.86
532.47	1857.51
532.67	1787.88
532.87	1691.62
533.07	1724.39
533.27	1703.91
533.46	1769.44
533.66	1732.58
533.86	1675.24
534.06	1742.82
534.26	1732.58
534.45	1712.10
534.65	1738.73
534.85	1777.64
535.05	1669.09
535.25	1798.12
535.44	1681.38
535.64	1787.88
535.84	1624.04
536.04	1724.39
536.24	1724.39
536.43	1652.71
536.63	1736.68
536.83	1673.19
537.03	1779.68
537.22	1636.33
537.42	1626.09
537.62	1765.35
537.82	1728.49
538.02	1955.81
538.21	1839.08
538.41	1855.46
538.61	1689.57
538.81	1748.97
539.00	1785.83
539.20	1660.90
539.40	1712.10
539.60	1716.20
539.79	1765.35
539.99	1695.72
540.19	1654.76
540.39	1691.62
540.58	1765.35
540.78	1826.79
540.98	1746.92
541.18	1806.31
541.37	1769.44
541.57	1722.34
541.77	1755.11
541.97	1603.56
542.16	1687.53
542.36	1714.15
542.56	1767.40
542.76	1808.36
542.95	1781.73
543.15	1808.36
543.35	1761.25
543.54	1751.01
543.74	1722.34
543.94	1708.01
544.14	1738.73
544.33	1757.16
544.53	1757.16
544.73	1615.85
544.93	1695.72
545.12	1708.01
545.32	1738.73
545.52	1832.93
545.71	1675.24
545.91	1718.25
546.11	1640.42
546.30	1730.53
546.50	1791.97
546.70	1794.02
546.90	1812.45
547.09	1642.47
547.29	1730.53
547.49	1779.68
547.68	1665.00
547.88	1677.29
548.08	1759.21
548.27	2129.89
548.47	1718.25
548.67	1775.59
548.87	1806.31
549.06	1720.29
549.26	1734.63
549.46	1753.06
549.65	1718.25
549.85	1742.82
550.05	1787.88
550.24	1626.09
550.44	1697.77
550.64	1730.53
550.83	1730.53
551.03	1865.70
551.23	1789.92
551.42	1755.11
551.62	1675.24
551.82	1767.40
552.01	1748.97
552.21	1787.88
552.41	1742.82
552.60	1800.16
552.80	1736.68
553.00	1730.53
553.19	1769.44
553.39	1877.99
553.59	1658.85
553.78	1728.49
553.98	1718.25
554.17	1689.57
554.37	1718.25
554.57	1800.16
554.76	1710.05
554.96	1759.21
555.16	1718.25
555.35	1798.12
555.55	1779.68
555.75	1765.35
555.94	1705.96
556.14	1636.33
556.33	1726.44
556.53	1765.35
556.73	1763.30
556.92	1744.87
557.12	1779.68
557.32	1820.64
557.51	1841.12
557.71	1722.34
557.90	1845.22
558.10	1861.60
558.30	1708.01
558.49	1748.97
558.69	1658.85
558.88	1740.77
559.08	1697.77
559.28	1726.44
559.47	1787.88
559.67	1845.22
559.86	1937.38
560.06	1701.86
560.26	1771.49
560.45	1812.45
560.65	1781.73
560.84	1857.51
561.04	1730.53
561.24	1722.34
561.43	1773.54
561.63	1861.60
561.82	1794.02
562.02	1798.12
562.22	1705.96
562.41	1722.34
562.61	1765.35
562.80	1638.38
563.00	1929.19
563.19	1728.49
563.39	1755.11
563.59	1736.68
563.78	1642.47
563.98	1671.14
564.17	1705.96
564.37	1636.33
564.56	1705.96
564.76	1720.29
564.96	1816.55
565.15	1751.01
565.35	1871.84
565.54	1699.81
565.74	1800.16
565.93	1775.59
566.13	1775.59
566.32	1763.30
566.52	1732.58
566.71	1759.21
566.91	1757.16
567.11	1689.57
567.30	1632.23
567.50	1771.49
567.69	1746.92
567.89	1718.25
568.08	1708.01
568.28	1769.44
568.47	1648.61
568.67	1759.21
568.86	1781.73
569.06	1800.16
569.25	1681.38
569.45	1677.29
569.64	1697.77
569.84	1720.29
570.04	1789.92
570.23	1761.25
570.43	1675.24
570.62	1738.73
570.82	1847.27
571.01	1669.09
571.21	1660.90
571.40	1701.86
571.60	1732.58
571.79	1777.64
571.99	1812.45
572.18	1705.96
572.38	1771.49
572.57	1699.81
572.77	1759.21
572.96	1898.47
573.16	1796.07
573.35	1800.16
573.55	1841.12
573.74	1777.64
573.94	1777.64
574.13	1742.82
574.33	1800.16
574.52	1687.53
574.71	1734.63
574.91	1794.02
575.10	1599.46
575.30	1675.24
575.49	1591.27
575.69	1734.63
575.88	1718.25
576.08	1740.77
576.27	1705.96
576.47	1724.39
576.66	1802.21
576.86	1851.36
577.05	1769.44
577.25	1734.63
577.44	1882.08
577.64	1755.11
577.83	1810.40
578.02	1714.15
578.22	1857.51
578.41	1769.44
578.61	1718.25
578.80	1734.63
579.00	1705.96
579.19	1716.20
579.39	1929.19
579.58	1798.12
579.77	1755.11
579.97	1826.79
580.16	1863.65
580.36	1791.97
580.55	1837.03
580.75	1712.10
580.94	1738.73
581.13	1800.16
581.33	1845.22
581.52	1773.54
581.72	1787.88
581.91	1882.08
582.11	1730.53
582.30	1804.26
582.49	1755.11
582.69	1863.65
582.88	1841.12
583.08	1787.88
583.27	1857.51
583.47	1777.64
583.66	1689.57
583.85	1710.05
584.05	1724.39
584.24	1726.44
584.44	1755.11
584.63	1804.26
584.82	1857.51
585.02	1845.22
585.21	1824.74
585.41	1847.27
585.60	1751.01
585.79	1900.52
585.99	1908.71
586.18	1890.28
586.37	2183.13
586.57	3432.40
586.76	9914.22
586.96	24630.92
587.15	34328.05
587.34	40373.66
587.54	42270.08
587.73	36484.56
587.93	26248.82
588.12	21644.98
588.31	18366.18
588.51	16170.76
588.70	15054.62
588.89	14337.83
589.09	12508.99
589.28	11003.74
589.47	9310.07
589.67	7776.14
589.86	6494.11
590.06	4870.07
590.25	3928.00
590.44	3123.15
590.64	2629.59
590.83	2195.42
591.02	2129.89
591.22	1904.61
591.41	1994.72
591.60	1824.74
591.80	1910.75
591.99	1814.50
592.18	1849.32
592.38	1800.16
592.57	1640.42
592.76	1740.77
592.96	1798.12
593.15	1701.86
593.34	1853.41
593.54	1824.74
593.73	1796.07
593.92	1777.64
594.12	1773.54
594.31	1742.82
594.50	1806.31
594.70	1791.97
594.89	1927.14
595.08	1765.35
595.28	1728.49
595.47	1947.62
595.66	1757.16
595.86	1636.33
596.05	1708.01
596.24	1761.25
596.43	1787.88
596.63	1843.17
596.82	1746.92
597.01	1728.49
597.21	1832.93
597.40	1720.29
597.59	1697.77
597.79	1714.15
597.98	1759.21
598.17	1773.54
598.36	1757.16
598.56	1726.44
598.75	1695.72
598.94	1681.38
599.14	1771.49
599.33	1763.30
599.52	1761.25
599.71	1738.73
599.91	1798.12
600.10	1779.68
600.29	1740.77
600.48	1796.07
600.68	1705.96
600.87	1728.49
601.06	1710.05
601.26	1730.53
601.45	1708.01
601.64	1699.81
601.83	1800.16
602.03	1673.19
602.22	1669.09
602.41	1763.30
602.60	1845.22
602.80	1771.49
602.99	1781.73
603.18	1669.09
603.37	1800.16
603.57	1736.68
603.76	1834.98
603.95	1818.60
604.14	1675.24
604.34	1667.05
604.53	1679.33
604.72	1767.40
604.91	1779.68
605.10	1746.92
605.30	1574.89
605.49	1927.14
605.68	1761.25
605.87	1775.59
606.07	1673.19
606.26	1791.97
606.45	1853.41
606.64	1753.06
606.84	1669.09
607.03	1679.33
607.22	1810.40
607.41	1697.77
607.60	1687.53
607.80	1804.26
607.99	1689.57
608.18	1724.39
608.37	1746.92
608.56	1548.26
608.76	1798.12
608.95	1800.16
609.14	1710.05
609.33	1656.81
609.52	1791.97
609.72	1759.21
609.91	1783.78
610.10	1722.34
610.29	1775.59
610.48	1789.92
610.68	1744.87
610.87	1824.74
611.06	1695.72
611.25	1804.26
611.44	1730.53
611.63	1740.77
611.83	1746.92
612.02	1751.01
612.21	1738.73
612.40	1570.79
612.59	1714.15
612.79	1685.48
612.98	1685.48
613.17	1884.13
613.36	1697.77
613.55	1814.50
613.74	1599.46
613.93	1710.05
614.13	1687.53
614.32	1769.44
614.51	1800.16
614.70	1679.33
614.89	1728.49
615.08	1738.73
615.28	2062.30
615.47	1603.56
615.66	1771.49
615.85	1640.42
616.04	1832.93
616.23	1714.15
616.42	1730.53
616.62	1751.01
616.81	1726.44
617.00	1861.60
617.19	1777.64
617.38	1685.48
617.57	1765.35
617.76	1683.43
617.95	1767.40
618.15	1755.11
618.34	1849.32
618.53	1701.86
618.72	1791.97
618.91	1761.25
619.10	1834.98
619.29	1718.25
619.48	1742.82
619.68	1687.53
619.87	1845.22
620.06	1681.38
620.25	1699.81
620.44	1699.81
620.63	1662.95
620.82	1751.01
621.01	1753.06
621.20	1757.16
621.39	1681.38
621.59	1722.34
621.78	1773.54
621.97	1671.14
622.16	1738.73
622.35	1769.44
622.54	1738.73
622.73	1810.40
622.92	1662.95
623.11	1769.44
623.30	1683.43
623.49	1759.21
623.68	1720.29
623.88	1757.16
624.07	1673.19
624.26	1687.53
624.45	1685.48
624.64	1673.19
624.83	1640.42
625.02	1748.97
625.21	1658.85
625.40	1638.38
625.59	1781.73
625.78	1689.57
625.97	1804.26
626.16	1669.09
626.35	1773.54
626.54	1671.14
626.74	1773.54
626.93	1755.11
627.12	1767.40
627.31	1828.84
627.50	1826.79
627.69	1755.11
627.88	1609.70
628.07	1699.81
628.26	1671.14
628.45	1654.76
628.64	1615.85
628.83	1759.21
629.02	1705.96
629.21	1730.53
629.40	1767.40
629.59	1662.95
629.78	1697.77
629.97	1769.44
630.16	1722.34
630.35	1728.49
630.54	1683.43
630.73	1697.77
630.92	1771.49
631.11	1703.91
631.30	1779.68
631.49	1755.11
631.68	1642.47
631.87	1755.11
632.06	1626.09
632.25	1904.61
632.44	1765.35
632.63	1748.97
632.82	1708.01
633.01	1685.48
633.20	1701.86
633.39	1710.05
633.58	1578.98
633.77	1740.77
633.96	1794.02
634.15	1722.34
634.34	1746.92
634.53	1763.30
634.72	1699.81
634.91	1654.76
635.10	1714.15
635.29	1744.87
635.48	1736.68
635.67	1716.20
635.86	1626.09
636.05	1759.21
636.24	1763.30
636.43	1785.83
636.62	1738.73
636.81	1613.80
637.00	1722.34
637.19	1724.39
637.38	1642.47
637.57	1718.25
637.76	1708.01
637.95	1650.66
638.14	1669.09
638.33	1652.71
638.52	1751.01
638.71	1630.18
638.89	1693.67
639.08	1771.49
639.27	1718.25
639.46	1695.72
639.65	1714.15
639.84	1681.38
640.03	1773.54
640.22	1736.68
640.41	1828.84
640.60	1687.53
640.79	1708.01
640.98	1662.95
641.17	1769.44
641.36	1646.57
641.55	1730.53
641.74	1665.00
641.92	1703.91
642.11	1636.33
642.30	1701.86
642.49	1658.85
642.68	1642.47
642.87	1742.82
643.06	1791.97
643.25	1712.10
643.44	1677.29
643.63	1677.29
643.82	1765.35
644.00	1675.24
644.19	1730.53
644.38	1562.60
644.57	1716.20
644.76	1714.15
644.95	1708.01
645.14	1759.21
645.33	1683.43
645.52	1679.33
645.71	1677.29
645.89	1652.71
646.08	1697.77
646.27	1689.57
646.46	1875.94
646.65	1675.24
646.84	1705.96
647.03	1628.14
647.22	1746.92
647.40	1748.97
647.59	1718.25
647.78	1578.98
647.97	1759.21
648.16	1613.80
648.35	1746.92
648.54	1781.73
648.73	1732.58
648.91	1703.91
649.10	1779.68
649.29	1603.56
649.48	1710.05
649.67	1773.54
649.86	1667.05
650.05	1660.90
650.23	1738.73
650.42	1640.42
650.61	1705.96
650.80	1767.40
650.99	1863.65
651.18	1718.25
651.36	1763.30
651.55	1740.77
651.74	1779.68
651.93	1753.06
652.12	1736.68
652.31	1691.62
652.49	1708.01
652.68	1693.67
652.87	1828.84
653.06	1708.01
653.25	1796.07
653.44	1763.30
653.62	1712.10
653.81	1761.25
654.00	1751.01
654.19	1791.97
654.38	1845.22
654.56	1710.05
654.75	1687.53
654.94	1802.21
655.13	1671.14
655.32	1667.05
655.51	1730.53
655.69	1683.43
655.88	1759.21
656.07	1644.52
656.26	1665.00
656.45	1681.38
656.63	1624.04
656.82	1738.73
657.01	1708.01
657.20	1710.05
657.38	1775.59
657.57	1718.25
657.76	1650.66
657.95	1714.15
658.14	1679.33
658.32	1730.53
658.51	1683.43
658.70	1716.20
658.89	1708.01
659.08	1738.73
659.26	1753.06
659.45	1660.90
659.64	1736.68
659.83	1642.47
660.01	1902.56
660.20	1693.67
660.39	1757.16
660.58	1613.80
660.76	1734.63
660.95	1644.52
661.14	1710.05
661.33	1599.46
661.51	1671.14
661.70	1675.24
661.89	1789.92
662.08	1722.34
662.26	1744.87
662.45	1744.87
662.64	1828.84
662.83	1769.44
663.01	1677.29
663.20	1685.48
663.39	1822.69
663.58	1689.57
663.76	1626.09
663.95	1763.30
664.14	1658.85
664.32	1697.77
664.51	1693.67
664.70	1654.76
664.89	1843.17
665.07	1650.66
665.26	1763.30
665.45	1652.71
665.64	1755.11
665.82	1761.25
666.01	1812.45
666.20	1636.33
666.38	1804.26
666.57	1746.92
666.76	2199.52
666.95	4515.77
667.13	10346.34
667.32	15169.30
667.51	17833.71
667.69	19078.88
667.88	17440.50
668.07	12056.39
668.25	9344.88
668.44	7993.22
668.63	7378.83
668.81	6924.18
669.00	6240.16
669.19	5574.57
669.38	5054.39
669.56	4556.73
669.75	4018.11
669.94	3459.02
670.12	2959.31
670.31	2504.67
670.50	2320.35
670.68	2054.11
670.87	1888.23
671.06	1851.36
671.24	1746.92
671.43	1875.94
671.62	1667.05
671.80	1740.77
671.99	1806.31
672.18	1769.44
672.36	1755.11
672.55	1753.06
672.74	1652.71
672.92	1718.25
673.11	1695.72
673.29	1699.81
673.48	1718.25
673.67	1765.35
673.85	1796.07
674.04	1595.37
674.23	1720.29
674.41	1730.53
674.60	1697.77
674.79	1601.51
674.97	1656.81
675.16	1703.91
675.34	1738.73
675.53	1701.86
675.72	1783.78
675.90	1832.93
676.09	1699.81
676.28	1716.20
676.46	1574.89
676.65	1724.39
676.83	1611.75
677.02	1591.27
677.21	1718.25
677.39	1740.77
677.58	1724.39
677.77	1632.23
677.95	1691.62
678.14	1722.34
678.32	1720.29
678.51	1640.42
678.70	1861.60
678.88	1699.81
679.07	1746.92
679.25	1628.14
679.44	1746.92
679.63	1640.42
679.81	1669.09
680.00	1832.93
680.18	1656.81
680.37	1722.34
680.55	1665.00
680.74	1652.71
680.93	1652.71
681.11	1746.92
681.30	1669.09
681.48	1687.53
681.67	1669.09
681.85	1710.05
682.04	1691.62
682.23	1820.64
682.41	1705.96
682.60	1710.05
682.78	1796.07
682.97	1665.00
683.15	1683.43
683.34	1753.06
683.53	1767.40
683.71	1587.18
683.90	1781.73
684.08	1824.74
684.27	1695.72
684.45	1695.72
684.64	1724.39
684.82	1693.67
685.01	1714.15
685.19	1683.43
685.38	1886.18
685.57	1630.18
685.75	1654.76
685.94	1705.96
686.12	1705.96
686.31	1656.81
686.49	1769.44
686.68	1595.37
686.86	1751.01
687.05	1712.10
687.23	1775.59
687.42	1673.19
687.60	1691.62
687.79	1785.83
687.97	1775.59
688.16	1761.25
688.34	1738.73
688.53	1540.07
688.71	1753.06
688.90	1828.84
689.08	1619.94
689.27	1628.14
689.45	1765.35
689.64	1716.20
689.82	1802.21
690.01	1708.01
690.19	1724.39
690.38	1742.82
690.56	1777.64
690.75	1572.84
690.93	1699.81
691.12	1669.09
691.30	1710.05
691.49	1675.24
691.67	1689.57
691.86	1789.92
692.04	1705.96
692.23	1634.28
692.41	1753.06
692.60	1757.16
692.78	1746.92
692.97	1722.34
693.15	1734.63
693.34	1857.51
693.52	1746.92
693.71	1646.57
693.89	1626.09
694.08	1718.25
694.26	1753.06
694.44	1699.81
694.63	1777.64
694.81	1630.18
695.00	1660.90
695.18	1775.59
695.37	1869.80
695.55	1677.29
695.74	1691.62
695.92	1689.57
696.10	1742.82
696.29	1609.70
696.47	1640.42
696.66	1660.90
696.84	1654.76
697.03	1710.05
697.21	1751.01
697.40	2293.72
697.58	1738.73
697.76	1697.77
697.95	1660.90
698.13	1691.62
698.32	1751.01
698.50	1613.80
698.68	1798.12
698.87	1712.10
699.05	1722.34
699.24	1738.73
699.42	1675.24
699.61	1689.57
699.79	1710.05
699.97	1726.44
700.16	1632.23
700.34	1626.09
700.53	1763.30
700.71	1767.40
700.89	1683.43
701.08	1695.72
701.26	1656.81
701.45	2117.60
701.63	1624.04
701.81	1748.97
702.00	1730.53
702.18	1609.70
702.37	1658.85
702.55	1699.81
702.73	1720.29
702.92	1662.95
703.10	1755.11
703.28	1736.68
703.47	1748.97
703.65	1751.01
703.84	1740.77
704.02	1662.95
704.20	1767.40
704.39	1697.77
704.57	1685.48
704.75	1769.44
704.94	1681.38
705.12	1755.11
705.30	1755.11
705.49	2217.95
705.67	4437.95
705.86	9324.40
706.04	12658.49
706.22	14559.01
706.41	15410.96
706.59	13899.56
706.77	9473.90
706.96	7335.82
707.14	6657.95
707.32	5955.49
707.51	5597.10
707.69	4779.96
707.87	4159.42
708.06	3542.99
708.24	2928.60
708.42	2457.56
708.61	2254.81
708.79	1957.86
708.97	1855.46
709.16	1890.28
709.34	1794.02
709.52	1714.15
709.71	1787.88
709.89	1685.48
710.07	1740.77
710.26	1648.61
710.44	1677.29
710.62	1718.25
710.80	1732.58
710.99	1804.26
711.17	1730.53
711.35	1724.39
711.54	1634.28
711.72	1810.40
711.90	1769.44
712.09	1767.40
712.27	1669.09
712.45	1736.68
712.63	1677.29
712.82	1699.81
713.00	1689.57
713.18	1693.67
713.37	1710.05
713.55	1710.05
713.73	1695.72
713.91	1765.35
714.10	1712.10
714.28	1626.09
714.46	1691.62
714.65	1734.63
714.83	1785.83
715.01	1751.01
715.19	1783.78
715.38	1638.38
715.56	1714.15
715.74	1665.00
715.92	1626.09
716.11	1720.29
716.29	1599.46
716.47	1689.57
716.65	1716.20
716.84	1638.38
717.02	1808.36
717.20	1642.47
717.38	1652.71
717.57	1712.10
717.75	1730.53
717.93	1699.81
718.11	1726.44
718.30	1648.61
718.48	1720.29
718.66	1703.91
718.84	1785.83
719.03	1695.72
719.21	1652.71
719.39	1787.88
719.57	1724.39
719.75	1665.00
719.94	1603.56
720.12	1677.29
720.30	1732.58
720.48	1720.29
720.67	1660.90
720.85	1646.57
721.03	1761.25
721.21	1654.76
721.39	1730.53
721.58	1697.77
721.76	1730.53
721.94	1681.38
722.12	1755.11
722.30	1761.25
722.49	1732.58
722.67	1697.77
722.85	1742.82
723.03	1605.61
723.21	1656.81
723.40	1693.67
723.58	1796.07
723.76	1705.96
723.94	1837.03
724.12	1708.01
724.30	1751.01
724.49	1671.14
724.67	1681.38
724.85	1781.73
725.03	1714.15
725.21	1693.67
725.40	1771.49
725.58	1599.46
725.76	1773.54
725.94	1736.68
726.12	1624.04
726.30	1724.39
726.49	1691.62
726.67	1652.71
726.85	1740.77
727.03	1734.63
727.21	2189.28
727.39	2881.49
727.57	3807.17
727.76	4067.27
727.94	4329.41
728.12	4212.67
728.30	3704.78
728.48	2928.60
728.66	2711.51
728.84	2543.58
729.03	2271.20
729.21	2199.52
729.39	1927.14
729.57	1787.88
729.75	1789.92
729.93	1877.99
730.11	1665.00
730.30	1621.99
730.48	1785.83
730.66	1789.92
730.84	1761.25
731.02	1718.25
731.20	1705.96
731.38	1703.91
731.56	1660.90
731.74	1628.14
731.93	1755.11
732.11	1677.29
732.29	1703.91
732.47	1818.60
732.65	1705.96
732.83	1806.31
733.01	1691.62
733.19	1689.57
733.37	1714.15
733.56	1773.54
733.74	1701.86
733.92	1771.49
734.10	1675.24
734.28	1730.53
734.46	1581.03
734.64	1642.47
734.82	1730.53
735.00	1626.09
735.18	1691.62
735.36	1679.33
735.54	1656.81
735.73	1732.58
735.91	1728.49
736.09	1689.57
736.27	1687.53
736.45	1761.25
736.63	1595.37
736.81	1697.77
736.99	1671.14
737.17	1759.21
737.35	1603.56
737.53	1753.06
737.71	1660.90
737.89	1781.73
738.07	1636.33
738.25	1675.24
738.43	1640.42
738.61	1665.00
738.80	1654.76
738.98	1611.75
739.16	1726.44
739.34	1699.81
739.52	1738.73
739.70	1703.91
739.88	1771.49
740.06	1665.00
740.24	1558.50
740.42	1734.63
740.60	1624.04
740.78	1658.85
740.96	1578.98
741.14	1619.94
741.32	1695.72
741.50	1671.14
741.68	1925.09
741.86	1787.88
742.04	1665.00
742.22	1691.62
742.40	1746.92
742.58	1617.90
742.76	1650.66
742.94	1794.02
743.12	1607.66
743.30	1753.06
743.48	1724.39
743.66	1654.76
743.84	1736.68
744.02	1611.75
744.20	1669.09
744.38	1675.24
744.56	1697.77
744.74	1826.79
744.92	1738.73
745.10	1814.50
745.28	1746.92
745.46	1720.29
745.64	1630.18
745.82	1771.49
746.00	1673.19
746.18	1658.85
746.36	1605.61
746.54	1738.73
746.72	1742.82
746.90	1654.76
747.08	1787.88
747.26	1652.71
747.44	1746.92
747.62	1726.44
747.80	1705.96
747.98	1757.16
748.15	1662.95
748.33	1720.29
748.51	1689.57
748.69	1714.15
748.87	1587.18
749.05	1644.52
749.23	1677.29
749.41	1708.01
749.59	1662.95
749.77	1734.63
749.95	1632.23
750.13	1648.61
750.31	1667.05
750.49	1705.96
750.67	1777.64
750.85	1798.12
751.03	1722.34
751.20	1820.64
751.38	1697.77
751.56	1683.43
751.74	1748.97
751.92	1699.81
752.10	1615.85
752.28	1738.73
752.46	1689.57
752.64	1724.39
752.82	1703.91
753.00	1738.73
753.18	1699.81
753.35	1640.42
753.53	1677.29
753.71	1708.01
753.89	1708.01
754.07	1681.38
754.25	1734.63
754.43	1689.57
754.61	1640.42
754.79	1746.92
754.97	1767.40
755.14	1783.78
755.32	1648.61
755.50	1660.90
755.68	1699.81
755.86	1693.67
756.04	1626.09
756.22	1566.70
756.40	1775.59
756.57	1816.55
756.75	1693.67
756.93	1730.53
757.11	1771.49
757.29	1677.29
757.47	1691.62
757.65	1683.43
757.82	1683.43
758.00	1699.81
758.18	1640.42
758.36	1615.85
758.54	1839.08
758.72	1652.71
758.90	1759.21
759.07	1679.33
759.25	1611.75
759.43	1681.38
759.61	1624.04
759.79	2232.29
759.97	1701.86
760.15	1699.81
760.32	1718.25
760.50	1660.90
760.68	1783.78
760.86	1628.14
761.04	1705.96
761.22	1722.34
761.39	1658.85
761.57	1722.34
761.75	1781.73
761.93	1771.49
762.11	1687.53
762.28	1748.97
762.46	1574.89
762.64	1767.40
762.82	1681.38
763.00	1656.81
763.18	1746.92
763.35	1626.09
763.53	1791.97
763.71	1730.53
763.89	1734.63
764.07	1757.16
764.24	1742.82
764.42	1783.78
764.60	1742.82
764.78	1681.38
764.96	1705.96
765.13	1783.78
765.31	1728.49
765.49	1710.05
765.67	1685.48
765.84	1632.23
766.02	1648.61
766.20	1669.09
766.38	1689.57
766.56	1681.38
766.73	1724.39
766.91	1697.77
767.09	1708.01
767.27	1710.05
767.44	1564.65
767.62	1710.05
767.80	1730.53
767.98	1675.24
768.15	1638.38
768.33	1716.20
768.51	1834.98
768.69	1708.01
768.87	1789.92
769.04	1636.33
769.22	1783.78
769.40	1757.16
769.58	1808.36
769.75	1779.68
769.93	1726.44
770.11	1671.14
770.28	1628.14
770.46	1746.92
770.64	1685.48
770.82	1697.77
770.99	1687.53
771.17	1753.06
771.35	1677.29
771.53	1685.48
771.70	1673.19
771.88	1716.20
772.06	1701.86
772.23	1697.77
772.41	1697.77
772.59	1669.09
772.77	1636.33
772.94	1703.91
773.12	1705.96
773.30	1597.42
773.47	1732.58
773.65	1605.61
773.83	1822.69
774.01	1662.95
774.18	1591.27
774.36	1603.56
774.54	1562.60
774.71	1753.06
774.89	1611.75
775.07	1576.94
775.24	1669.09
775.42	1693.67
775.60	1783.78
775.78	1748.97
775.95	1585.13
776.13	1640.42
776.31	1601.51
776.48	1744.87
776.66	1773.54
776.84	1726.44
777.01	1648.61
777.19	1689.57
777.37	1681.38
777.54	1744.87
777.72	1820.64
777.90	1740.77
778.07	1642.47
778.25	1904.61
778.43	1755.11
778.60	1654.76
778.78	1708.01
778.96	1845.22
779.13	1656.81
779.31	1705.96
779.49	1751.01
779.66	1683.43
779.84	1605.61
780.01	1689.57
780.19	1636.33
780.37	1738.73
780.54	1730.53
780.72	1665.00
780.90	1673.19
781.07	1632.23
781.25	1740.77
781.43	1761.25
781.60	1730.53
781.78	1708.01
781.95	1662.95
782.13	1628.14
782.31	1667.05
782.48	1607.66
782.66	1628.14
782.83	1900.52
783.01	1699.81
783.19	1712.10
783.36	1681.38
783.54	1634.28
783.72	1765.35
783.89	1679.33
784.07	1744.87
784.24	1738.73
784.42	1794.02
784.60	1710.05
784.77	1722.34
784.95	1628.14
785.12	1683.43
785.30	1636.33
785.47	1714.15
785.65	1644.52
785.83	1613.80
786.00	1638.38
786.18	1724.39
786.35	1660.90
786.53	1642.47
786.71	1755.11
786.88	1642.47
787.06	1716.20
787.23	1693.67
787.41	1658.85
787.58	1652.71
787.76	1662.95
787.94	1658.85
788.11	1736.68
788.29	1720.29
788.46	1675.24
788.64	1660.90
788.81	1673.19
788.99	1658.85
789.16	1681.38
789.34	1632.23
789.52	1652.71
789.69	1660.90
789.87	1570.79
790.04	1640.42
790.22	1669.09
790.39	1875.94
790.57	1617.90
790.74	1681.38
790.92	1742.82
791.09	1558.50
791.27	1722.34
791.44	1748.97
791.62	1648.61
791.79	1724.39
791.97	1689.57
792.15	1861.60
792.32	1650.66
792.50	1732.58
792.67	1800.16
792.85	1771.49
793.02	1732.58
793.20	1660.90
793.37	1591.27
793.55	1685.48
793.72	1638.38
793.90	1734.63
794.07	1660.90
794.25	1601.51
794.42	1677.29
794.60	1609.70
794.77	1757.16
794.95	1677.29
795.12	1679.33
795.30	1644.52
795.47	1624.04
795.65	1910.75
795.82	1755.11
796.00	1652.71
796.17	1656.81
796.34	1656.81
796.52	1687.53
796.69	1755.11
796.87	1785.83
797.04	1658.85
797.22	1722.34
797.39	1699.81
797.57	1775.59
797.74	1798.12
797.92	1710.05
798.09	1720.29
798.27	1677.29
798.44	1763.30
798.62	1699.81
798.79	1691.62
798.96	1748.97
799.14	1763.30
799.31	1761.25
799.49	1683.43
799.66	1705.96
799.84	1724.39
800.01	1574.89
800.19	1740.77
800.36	1576.94
800.53	1718.25
800.71	1677.29
800.88	1744.87
801.06	1679.33
801.23	1619.94
801.41	1652.71
801.58	1689.57
801.75	1540.07
801.93	1845.22
802.10	1718.25
802.28	1681.38
802.45	1669.09
802.63	1781.73
802.80	1775.59
802.97	1677.29
803.15	1646.57
803.32	1685.48
803.50	1660.90
803.67	1718.25
803.84	1656.81
804.02	1734.63
804.19	1640.42
804.37	1570.79
804.54	1662.95
804.71	1695.72
804.89	1648.61
805.06	1652.71
805.24	1619.94
805.41	1654.76
805.58	1652.71
805.76	1798.12
805.93	1603.56
806.10	1746.92
806.28	1720.29
806.45	1767.40
806.63	1712.10
806.80	1732.58
806.97	1734.63
807.15	1722.34
807.32	1708.01
807.49	1673.19
807.67	1566.70
807.84	1720.29
808.01	1593.32
808.19	1810.40
808.36	1830.88
808.54	1665.00
808.71	1621.99
808.88	1718.25
809.06	1650.66
809.23	1755.11
809.40	1675.24
809.58	1710.05
809.75	1697.77
809.92	1699.81
810.10	1845.22
810.27	1734.63
810.44	1765.35
810.62	1697.77
810.79	1736.68
810.96	1654.76
811.14	1597.42
811.31	1722.34
811.48	1710.05
811.66	1621.99
811.83	1796.07
812.00	1740.77
812.18	1779.68
812.35	1820.64
812.52	1669.09
812.69	1701.86
812.87	1701.86
813.04	1697.77
813.21	1642.47
813.39	1652.71
813.56	1607.66
813.73	1691.62
813.91	1644.52
814.08	1697.77
814.25	1699.81
814.42	1665.00
814.60	1587.18
814.77	1724.39
814.94	1726.44
815.12	1732.58
815.29	1726.44
815.46	1685.48
815.63	1742.82
815.81	1718.25
815.98	1671.14
816.15	1716.20
816.33	1734.63
816.50	1636.33
816.67	1658.85
816.84	1652.71
817.02	1695.72
817.19	1708.01
817.36	1726.44
817.53	1697.77
817.71	1683.43
817.88	1742.82
818.05	1685.48
818.22	1652.71
818.40	1775.59
818.57	1675.24
818.74	1701.86
818.91	1703.91
819.09	1800.16
819.26	1728.49
819.43	1685.48
819.60	1765.35
819.78	1746.92
819.95	1767.40
820.12	1683.43
820.29	1718.25
820.47	1734.63
820.64	1710.05
820.81	1652.71
820.98	1652.71
821.15	1728.49
821.33	1777.64
821.50	1613.80
821.67	1673.19
821.84	1693.67
822.02	1740.77
822.19	1751.01
822.36	1644.52
822.53	1636.33
822.70	1634.28
822.88	1669.09
823.05	1759.21
823.22	1648.61
823.39	1730.53
823.56	1683.43
823.74	1734.63
823.91	1763.30
824.08	1683.43
824.25	1607.66
824.42	1757.16
824.60	1648.61
824.77	1681.38
824.94	1712.10
825.11	1748.97
825.28	1587.18
825.45	1757.16
825.63	1671.14
825.80	1619.94
825.97	1773.54
826.14	1734.63
826.31	1687.53
826.48	1683.43
826.66	1693.67
826.83	1683.43
827.00	1734.63
827.17	1626.09
827.34	1667.05
827.51	1746.92
827.69	1654.76
827.86	1617.90
828.03	1701.86
828.20	1722.34
828.37	1628.14
828.54	1662.95
828.71	1617.90
828.89	1791.97
829.06	1722.34
829.23	1847.27
829.40	1613.80
829.57	1617.90
829.74	1757.16
829.91	1703.91
830.09	1667.05
830.26	1763.30
830.43	1753.06
830.60	1710.05
830.77	1748.97
830.94	1812.45
831.11	1722.34
831.28	1697.77
831.46	1789.92
831.63	1656.81
831.80	1751.01
831.97	1679.33
832.14	1667.05
832.31	1742.82
832.48	1720.29
832.65	1742.82
832.82	1714.15
832.99	1658.85
833.17	1601.51
833.34	1798.12
833.51	1685.48
833.68	1535.98
833.85	1798.12
834.02	1628.14
834.19	1681.38
834.36	1648.61
834.53	1669.09
834.70	1777.64
834.87	1771.49
835.04	1718.25
835.22	1662.95
835.39	1695.72
835.56	1521.64
835.73	1640.42
835.90	1738.73
836.07	1787.88
836.24	1695.72
836.41	1601.51
836.58	1638.38
836.75	1742.82
836.92	1785.83
837.09	1701.86
837.26	1769.44
837.43	1744.87
837.60	1673.19
837.77	1662.95
837.94	1753.06
838.12	1769.44
838.29	1693.67
838.46	1568.74
838.63	1603.56
838.80	1886.18
838.97	1775.59
839.14	1710.05
839.31	1779.68
839.48	1699.81
839.65	1675.24
839.82	1765.35
839.99	1748.97
840.16	1701.86
840.33	1630.18
840.50	1652.71
840.67	1654.76
840.84	1540.07
841.01	1671.14
841.18	1681.38
841.35	1714.15
841.52	1728.49
841.69	1751.01
841.86	1738.73
842.03	1724.39
842.20	1712.10
842.37	1662.95
842.54	1638.38
842.71	1607.66
842.88	1648.61
843.05	1726.44
843.22	1705.96
843.39	1726.44
843.56	1615.85
843.73	1716.20
843.90	1679.33
844.07	1726.44
844.24	1705.96
844.41	1660.90
844.58	1742.82
844.75	1685.48
844.92	1736.68
845.09	1677.29
845.26	1679.33
845.43	1605.61
845.60	1744.87
845.77	1738.73
845.94	1687.53
846.10	1677.29
846.27	1599.46
846.44	1538.02
846.61	1591.27
846.78	1724.39
846.95	1755.11
847.12	1722.34
847.29	1642.47
847.46	1665.00
847.63	1761.25
847.80	1751.01
847.97	1726.44
848.14	1888.23
848.31	1677.29
848.48	1689.57
848.65	1683.43
848.82	1693.67
848.98	1898.47
849.15	1787.88
849.32	1718.25
849.49	1755.11
849.66	1726.44
849.83	1681.38
850.00	1583.08
850.17	1765.35
850.34	1595.37
850.51	1681.38
850.68	1669.09
850.85	1798.12
851.01	1701.86
851.18	1746.92
851.35	1669.09
851.52	1742.82
851.69	1712.10
851.86	1662.95
852.03	1656.81
852.20	1695.72
852.37	1705.96
852.53	1554.41
852.70	1720.29
852.87	1722.34
853.04	1724.39
853.21	1689.57
853.38	1763.30
853.55	1791.97
853.72	1806.31
853.89	1656.81
854.05	1673.19
854.22	1734.63
854.39	1658.85
854.56	1683.43
854.73	1742.82
854.90	1642.47
855.07	1642.47
855.23	1630.18
855.40	1599.46
855.57	1675.24
855.74	1615.85
855.91	1816.55
856.08	1710.05
856.25	1693.67
856.41	1722.34
856.58	1755.11
856.75	1730.53
856.92	1644.52
857.09	1746.92
857.26	1701.86
857.42	1734.63
857.59	1779.68
857.76	1662.95
857.93	1613.80
858.10	1697.77
858.27	1613.80
858.43	1726.44
858.60	1585.13
858.77	1640.42
858.94	1626.09
859.11	1796.07
859.27	1675.24
859.44	1667.05
859.61	1789.92
859.78	1673.19
859.95	1679.33
860.12	1624.04
860.28	1841.12
860.45	1794.02
860.62	1673.19
860.79	1705.96
860.95	1656.81
861.12	1697.77
861.29	1650.66
861.46	1689.57
861.63	1699.81
861.79	1773.54
861.96	1689.57
862.13	1624.04
862.30	1761.25
862.47	1652.71
862.63	1648.61
862.80	1740.77
862.97	1726.44
863.14	1675.24
863.30	1779.68
863.47	1656.81
863.64	1783.78
863.81	1671.14
863.97	1669.09
864.14	1705.96
864.31	1685.48
864.48	1675.24
864.65	1681.38
864.81	1789.92
864.98	1726.44
865.15	1681.38
865.32	1701.86
865.48	1728.49
865.65	1736.68
865.82	1609.70
865.98	1669.09
866.15	1724.39
866.32	1730.53
866.49	1630.18
866.65	1734.63
866.82	1687.53
866.99	1640.42
867.16	1640.42
867.32	1630.18
867.49	1701.86
867.66	1693.67
867.83	1667.05
867.99	1570.79
868.16	1687.53
868.33	1669.09
868.49	1765.35
868.66	1746.92
868.83	1697.77
868.99	1673.19
869.16	1683.43
869.33	1748.97
869.50	1771.49
869.66	1710.05
869.83	1654.76
870.00	1619.94
870.16	1751.01
870.33	1730.53
870.50	1697.77
870.66	1687.53
870.83	1771.49
871.00	1632.23
871.17	1773.54
871.33	1683.43
871.50	1697.77
871.67	1751.01
871.83	1634.28
872.00	1753.06
872.17	1720.29
872.33	1761.25
872.50	1748.97
872.67	1681.38
872.83	1677.29
873.00	1759.21
873.17	1716.20
873.33	1691.62
873.50	1740.77
873.67	1722.34
873.83	1693.67
874.00	1738.73
874.16	1761.25
874.33	1699.81
874.50	1603.56
874.66	1714.15
874.83	1710.05
875.00	1720.29
875.16	1769.44
875.33	1751.01
875.50	1593.32
875.66	1654.76
875.83	1673.19
875.99	1818.60
876.16	1669.09
876.33	1630.18
876.49	1640.42
876.66	1699.81
876.83	1681.38
876.99	1574.89
877.16	1683.43
877.32	1783.78
877.49	1585.13
877.66	1722.34
877.82	1796.07
877.99	1650.66
878.15	1794.02
878.32	1681.38
878.49	1683.43
878.65	1724.39
878.82	1796.07
878.98	1687.53
879.15	1718.25
879.32	1781.73
879.48	1626.09
879.65	1701.86
879.81	1669.09
879.98	1744.87
880.15	1632.23
880.31	1773.54
880.48	1636.33
880.64	1755.11
880.81	1755.11
880.97	1812.45
881.14	1732.58
881.31	1656.81
881.47	1824.74
881.64	1691.62
881.80	1675.24
881.97	1744.87
882.13	1720.29
882.30	1660.90
882.47	1658.85
882.63	1628.14
882.80	1701.86
882.96	1665.00
883.13	1757.16
883.29	1660.90
883.46	1705.96
883.62	1753.06
883.79	1722.34
883.95	1736.68
884.12	1611.75
884.29	1824.74
884.45	1720.29
884.62	1683.43
884.78	1619.94
884.95	1769.44
885.11	1683.43
885.28	1748.97
885.44	1626.09
885.61	1708.01
885.77	1761.25
885.94	1757.16
886.10	1687.53
886.27	1693.67
886.43	1785.83
886.60	1771.49
886.76	1617.90
886.93	1683.43
887.09	1701.86
887.26	1652.71
887.42	1619.94
887.59	1769.44
887.75	1816.55
887.92	1771.49
888.08	1681.38
888.25	1732.58
888.41	1763.30
888.58	1728.49
888.74	1732.58
888.91	1675.24
>>>>>End Processed Spectral Data<<<<<
