SpectraSuite Data File
++++++++++++++++++++++++++++++++++++
Date: Mon Jun 06 14:16:37 CEST 2016
User: root
Dark Spectrum Present: No
Reference Spectrum Present: No
Number of Sampled Component Spectra: 1
Spectrometers: USB4C02835
Integration Time (usec): 100000 (USB4C02835)
Spectra Averaged: 1 (USB4C02835)
Boxcar Smoothing: 0 (USB4C02835)
Correct for Electrical Dark: No (USB4C02835)
Strobe/Lamp Enabled: No (USB4C02835)
Correct for Detector Non-linearity: No (USB4C02835)
Correct for Stray Light: No (USB4C02835)
Number of Pixels in Processed Spectrum: 3648
>>>>>Begin Processed Spectral Data<<<<<
177.47	1402.86
177.69	1402.86
177.91	1402.86
178.13	1378.28
178.36	1449.96
178.58	1640.42
178.80	1667.05
179.02	1601.51
179.24	1689.57
179.46	1685.48
179.68	1757.16
179.90	1644.52
180.13	1736.68
180.35	1640.42
180.57	1718.25
180.79	1685.48
181.01	1720.29
181.23	1734.63
181.45	1779.68
181.67	1640.42
181.90	1671.14
182.12	1632.23
182.34	1689.57
182.56	1701.86
182.78	1728.49
183.00	1697.77
183.22	1665.00
183.44	1656.81
183.66	1882.08
183.89	1736.68
184.11	1708.01
184.33	1751.01
184.55	1863.65
184.77	1775.59
184.99	1648.61
185.21	1634.28
185.43	1701.86
185.65	1708.01
185.87	1710.05
186.10	1818.60
186.32	1841.12
186.54	1742.82
186.76	1728.49
186.98	1757.16
187.20	1710.05
187.42	1671.14
187.64	1703.91
187.86	1687.53
188.08	1763.30
188.30	1708.01
188.52	1730.53
188.75	1785.83
188.97	1738.73
189.19	1658.85
189.41	1658.85
189.63	1759.21
189.85	1595.37
190.07	1644.52
190.29	1599.46
190.51	1724.39
190.73	1654.76
190.95	1767.40
191.17	1728.49
191.39	1699.81
191.61	1611.75
191.84	1634.28
192.06	1740.77
192.28	1556.46
192.50	1982.43
192.72	1687.53
192.94	1716.20
193.16	1744.87
193.38	1757.16
193.60	1615.85
193.82	1697.77
194.04	1755.11
194.26	1697.77
194.48	1783.78
194.70	1632.23
194.92	1626.09
195.14	1714.15
195.36	1720.29
195.58	1617.90
195.80	1658.85
196.02	1619.94
196.24	1701.86
196.46	1726.44
196.69	1595.37
196.91	1839.08
197.13	1681.38
197.35	1722.34
197.57	1759.21
197.79	1722.34
198.01	1677.29
198.23	1751.01
198.45	1665.00
198.67	1689.57
198.89	1607.66
199.11	1724.39
199.33	1636.33
199.55	1517.54
199.77	1650.66
199.99	1705.96
200.21	1703.91
200.43	1615.85
200.65	1636.33
200.87	1673.19
201.09	1630.18
201.31	1646.57
201.53	1763.30
201.75	1656.81
201.97	1761.25
202.19	1695.72
202.41	1716.20
202.63	1771.49
202.85	1697.77
203.07	1718.25
203.29	1742.82
203.51	1673.19
203.73	1665.00
203.95	1918.95
204.17	1771.49
204.39	1730.53
204.61	1712.10
204.83	1660.90
205.05	1738.73
205.27	1697.77
205.49	1814.50
205.71	1714.15
205.93	1638.38
206.15	1648.61
206.37	1720.29
206.59	1675.24
206.81	1640.42
207.03	1724.39
207.25	1648.61
207.47	1689.57
207.69	1673.19
207.91	1771.49
208.13	1779.68
208.34	1619.94
208.56	1722.34
208.78	1691.62
209.00	1705.96
209.22	1693.67
209.44	1611.75
209.66	1628.14
209.88	1798.12
210.10	1634.28
210.32	1673.19
210.54	1767.40
210.76	1701.86
210.98	1703.91
211.20	1646.57
211.42	1714.15
211.64	1759.21
211.86	1697.77
212.08	1740.77
212.30	1744.87
212.52	1628.14
212.74	1687.53
212.96	1767.40
213.17	1769.44
213.39	1708.01
213.61	1720.29
213.83	1763.30
214.05	1640.42
214.27	1722.34
214.49	1624.04
214.71	1630.18
214.93	1812.45
215.15	1714.15
215.37	1798.12
215.59	1595.37
215.81	1665.00
216.03	1822.69
216.24	1671.14
216.46	1716.20
216.68	1751.01
216.90	1730.53
217.12	1771.49
217.34	1701.86
217.56	1771.49
217.78	1796.07
218.00	1738.73
218.22	1669.09
218.44	1724.39
218.66	1759.21
218.87	1779.68
219.09	1726.44
219.31	1689.57
219.53	1705.96
219.75	1669.09
219.97	1636.33
220.19	1773.54
220.41	1744.87
220.63	1740.77
220.85	1783.78
221.06	1640.42
221.28	1808.36
221.50	1755.11
221.72	1716.20
221.94	1662.95
222.16	1669.09
222.38	1646.57
222.60	1744.87
222.82	1665.00
223.03	1703.91
223.25	1599.46
223.47	1718.25
223.69	1802.21
223.91	1730.53
224.13	1722.34
224.35	1648.61
224.57	1753.06
224.78	1736.68
225.00	1640.42
225.22	1716.20
225.44	1658.85
225.66	1734.63
225.88	1650.66
226.10	1751.01
226.32	1710.05
226.53	1751.01
226.75	1757.16
226.97	1685.48
227.19	1710.05
227.41	1734.63
227.63	1658.85
227.85	1599.46
228.06	1689.57
228.28	1683.43
228.50	1732.58
228.72	1671.14
228.94	1705.96
229.16	1546.22
229.37	1632.23
229.59	1667.05
229.81	1787.88
230.03	1624.04
230.25	1603.56
230.47	1734.63
230.69	1609.70
230.90	1777.64
231.12	1640.42
231.34	1716.20
231.56	1773.54
231.78	1634.28
232.00	1761.25
232.21	1695.72
232.43	1595.37
232.65	1642.47
232.87	1705.96
233.09	1576.94
233.30	1595.37
233.52	1759.21
233.74	1636.33
233.96	1652.71
234.18	1716.20
234.40	1693.67
234.61	1802.21
234.83	1626.09
235.05	1665.00
235.27	1961.95
235.49	1738.73
235.70	1734.63
235.92	1757.16
236.14	1722.34
236.36	1855.46
236.58	1576.94
236.79	1720.29
237.01	1761.25
237.23	1730.53
237.45	1828.84
237.67	1654.76
237.88	1689.57
238.10	1853.41
238.32	1642.47
238.54	1634.28
238.76	1716.20
238.97	1581.03
239.19	1642.47
239.41	1708.01
239.63	1751.01
239.85	1691.62
240.06	1693.67
240.28	1691.62
240.50	1726.44
240.72	1744.87
240.93	1695.72
241.15	1804.26
241.37	1728.49
241.59	1740.77
241.81	1689.57
242.02	1738.73
242.24	1726.44
242.46	1695.72
242.68	1566.70
242.89	1738.73
243.11	1779.68
243.33	1617.90
243.55	1759.21
243.76	1681.38
243.98	1710.05
244.20	1746.92
244.42	1730.53
244.64	1718.25
244.85	1687.53
245.07	1665.00
245.29	1669.09
245.51	1718.25
245.72	1665.00
245.94	1724.39
246.16	1701.86
246.38	1814.50
246.59	1669.09
246.81	1648.61
247.03	1732.58
247.24	1638.38
247.46	1683.43
247.68	1744.87
247.90	1742.82
248.11	1675.24
248.33	1777.64
248.55	1677.29
248.77	1628.14
248.98	1699.81
249.20	1828.84
249.42	1730.53
249.64	1794.02
249.85	1642.47
250.07	1634.28
250.29	1744.87
250.50	1628.14
250.72	1535.98
250.94	1660.90
251.16	1777.64
251.37	1755.11
251.59	1767.40
251.81	1720.29
252.02	1871.84
252.24	1646.57
252.46	1746.92
252.68	1628.14
252.89	1693.67
253.11	1570.79
253.33	1763.30
253.54	1726.44
253.76	1591.27
253.98	1675.24
254.20	1695.72
254.41	1636.33
254.63	1630.18
254.85	1591.27
255.06	1646.57
255.28	1701.86
255.50	1640.42
255.71	1656.81
255.93	1564.65
256.15	1656.81
256.36	1718.25
256.58	1667.05
256.80	1681.38
257.02	1767.40
257.23	1667.05
257.45	1699.81
257.67	1720.29
257.88	1632.23
258.10	1722.34
258.32	1644.52
258.53	1681.38
258.75	1824.74
258.97	1675.24
259.18	1687.53
259.40	1710.05
259.62	1867.75
259.83	1796.07
260.05	1779.68
260.27	1951.71
260.48	1781.73
260.70	1697.77
260.92	1691.62
261.13	1710.05
261.35	1693.67
261.57	1787.88
261.78	1574.89
262.00	1671.14
262.22	1714.15
262.43	1640.42
262.65	1714.15
262.86	1716.20
263.08	1806.31
263.30	1763.30
263.51	1689.57
263.73	1613.80
263.95	1732.58
264.16	1681.38
264.38	1640.42
264.60	1763.30
264.81	1681.38
265.03	1722.34
265.25	1753.06
265.46	1708.01
265.68	1779.68
265.89	1769.44
266.11	1619.94
266.33	1757.16
266.54	1777.64
266.76	1722.34
266.98	1712.10
267.19	1773.54
267.41	1755.11
267.62	1740.77
267.84	1558.50
268.06	1695.72
268.27	1681.38
268.49	1724.39
268.70	1730.53
268.92	1679.33
269.14	1636.33
269.35	1634.28
269.57	1687.53
269.79	1697.77
270.00	1634.28
270.22	1812.45
270.43	1767.40
270.65	1531.88
270.87	1779.68
271.08	1755.11
271.30	1662.95
271.51	1746.92
271.73	1699.81
271.95	1734.63
272.16	1695.72
272.38	1705.96
272.59	1677.29
272.81	1718.25
273.02	1671.14
273.24	1779.68
273.46	1751.01
273.67	1595.37
273.89	1683.43
274.10	1628.14
274.32	1708.01
274.54	1673.19
274.75	1746.92
274.97	1658.85
275.18	1658.85
275.40	1669.09
275.61	1648.61
275.83	1650.66
276.05	1564.65
276.26	1652.71
276.48	1779.68
276.69	1650.66
276.91	1695.72
277.12	1683.43
277.34	1771.49
277.55	1718.25
277.77	1636.33
277.99	1705.96
278.20	1576.94
278.42	1648.61
278.63	1644.52
278.85	1681.38
279.06	1675.24
279.28	1804.26
279.49	1755.11
279.71	1773.54
279.93	1714.15
280.14	1695.72
280.36	1662.95
280.57	1734.63
280.79	1732.58
281.00	1617.90
281.22	1755.11
281.43	1796.07
281.65	1667.05
281.86	1603.56
282.08	1712.10
282.29	1853.41
282.51	1630.18
282.73	1642.47
282.94	1718.25
283.16	1701.86
283.37	1832.93
283.59	1720.29
283.80	1722.34
284.02	1787.88
284.23	1677.29
284.45	1665.00
284.66	1693.67
284.88	1626.09
285.09	1724.39
285.31	1701.86
285.52	1730.53
285.74	1626.09
285.95	1759.21
286.17	1691.62
286.38	1738.73
286.60	1697.77
286.81	1669.09
287.03	1669.09
287.24	1665.00
287.46	1652.71
287.67	1710.05
287.89	1882.08
288.10	1742.82
288.32	1689.57
288.53	1796.07
288.75	1714.15
288.96	1734.63
289.18	1714.15
289.39	1730.53
289.61	1746.92
289.82	1820.64
290.04	1751.01
290.25	1646.57
290.47	1771.49
290.68	1638.38
290.90	1845.22
291.11	1669.09
291.33	1755.11
291.54	1632.23
291.76	1599.46
291.97	1771.49
292.18	1759.21
292.40	1718.25
292.61	1628.14
292.83	1773.54
293.04	1742.82
293.26	1677.29
293.47	1703.91
293.69	1595.37
293.90	1751.01
294.12	1820.64
294.33	1681.38
294.55	1648.61
294.76	1748.97
294.97	1714.15
295.19	1800.16
295.40	1691.62
295.62	1753.06
295.83	1730.53
296.05	1660.90
296.26	1728.49
296.48	1689.57
296.69	1712.10
296.90	1740.77
297.12	1824.74
297.33	1798.12
297.55	1679.33
297.76	1740.77
297.98	1734.63
298.19	1658.85
298.41	1714.15
298.62	1632.23
298.83	1839.08
299.05	1628.14
299.26	1710.05
299.48	1740.77
299.69	1726.44
299.90	1714.15
300.12	1734.63
300.33	1759.21
300.55	1787.88
300.76	1755.11
300.98	1566.70
301.19	1765.35
301.40	1679.33
301.62	1671.14
301.83	1722.34
302.05	1689.57
302.26	1693.67
302.47	1794.02
302.69	1638.38
302.90	1699.81
303.12	1535.98
303.33	1818.60
303.54	1769.44
303.76	1656.81
303.97	1714.15
304.19	1814.50
304.40	1636.33
304.61	1665.00
304.83	1855.46
305.04	1740.77
305.26	1683.43
305.47	1642.47
305.68	1638.38
305.90	1601.51
306.11	1802.21
306.33	1777.64
306.54	1697.77
306.75	1648.61
306.97	1546.22
307.18	1691.62
307.39	1699.81
307.61	1746.92
307.82	1677.29
308.04	1673.19
308.25	1640.42
308.46	1693.67
308.68	1683.43
308.89	1705.96
309.10	1849.32
309.32	1660.90
309.53	1687.53
309.74	1734.63
309.96	1630.18
310.17	1751.01
310.39	1728.49
310.60	1636.33
310.81	1611.75
311.03	1665.00
311.24	1742.82
311.45	1691.62
311.67	1769.44
311.88	1728.49
312.09	1708.01
312.31	1652.71
312.52	1693.67
312.73	1646.57
312.95	1716.20
313.16	1665.00
313.37	1755.11
313.59	1742.82
313.80	1734.63
314.01	1796.07
314.23	1660.90
314.44	1589.22
314.65	1679.33
314.87	1626.09
315.08	1642.47
315.29	1724.39
315.51	1656.81
315.72	1650.66
315.93	1708.01
316.15	1722.34
316.36	1689.57
316.57	1716.20
316.79	1736.68
317.00	1732.58
317.21	1673.19
317.43	1650.66
317.64	1728.49
317.85	1697.77
318.07	1642.47
318.28	1716.20
318.49	1822.69
318.70	1820.64
318.92	1804.26
319.13	1861.60
319.34	1783.78
319.56	1798.12
319.77	1777.64
319.98	1773.54
320.20	1712.10
320.41	1746.92
320.62	1722.34
320.83	1632.23
321.05	1814.50
321.26	1822.69
321.47	1699.81
321.69	1771.49
321.90	1714.15
322.11	1638.38
322.32	1744.87
322.54	1806.31
322.75	1669.09
322.96	1884.13
323.18	1615.85
323.39	1642.47
323.60	1677.29
323.81	1755.11
324.03	1673.19
324.24	1798.12
324.45	1712.10
324.66	1636.33
324.88	1785.83
325.09	1814.50
325.30	1675.24
325.52	1714.15
325.73	1689.57
325.94	1601.51
326.15	1652.71
326.37	1648.61
326.58	1775.59
326.79	1814.50
327.00	1650.66
327.22	1632.23
327.43	1652.71
327.64	1705.96
327.85	1820.64
328.07	1714.15
328.28	1771.49
328.49	1710.05
328.70	1712.10
328.92	1701.86
329.13	1650.66
329.34	1730.53
329.55	1761.25
329.76	1777.64
329.98	1681.38
330.19	1724.39
330.40	1746.92
330.61	1667.05
330.83	1783.78
331.04	1654.76
331.25	1681.38
331.46	1689.57
331.68	1652.71
331.89	1789.92
332.10	1695.72
332.31	1642.47
332.52	1787.88
332.74	1736.68
332.95	1619.94
333.16	1740.77
333.37	1783.78
333.58	1658.85
333.80	1626.09
334.01	1617.90
334.22	1675.24
334.43	1662.95
334.64	1646.57
334.86	1681.38
335.07	1617.90
335.28	1740.77
335.49	1603.56
335.70	1701.86
335.92	1712.10
336.13	1820.64
336.34	1724.39
336.55	1699.81
336.76	1701.86
336.98	1599.46
337.19	1671.14
337.40	1777.64
337.61	1769.44
337.82	1652.71
338.04	1755.11
338.25	1660.90
338.46	1726.44
338.67	1705.96
338.88	1632.23
339.09	1728.49
339.31	1710.05
339.52	1726.44
339.73	1644.52
339.94	1689.57
340.15	1742.82
340.36	1689.57
340.58	1662.95
340.79	1607.66
341.00	1757.16
341.21	1689.57
341.42	1880.04
341.63	1730.53
341.85	1730.53
342.06	1691.62
342.27	1667.05
342.48	1757.16
342.69	1613.80
342.90	1775.59
343.12	1761.25
343.33	1654.76
343.54	1734.63
343.75	1746.92
343.96	1679.33
344.17	1613.80
344.38	1710.05
344.60	1638.38
344.81	1607.66
345.02	1687.53
345.23	1800.16
345.44	1718.25
345.65	1757.16
345.86	1769.44
346.07	1691.62
346.29	1648.61
346.50	1763.30
346.71	1708.01
346.92	1744.87
347.13	1787.88
347.34	1673.19
347.55	1638.38
347.76	1751.01
347.98	1554.41
348.19	1730.53
348.40	1765.35
348.61	1626.09
348.82	1763.30
349.03	1730.53
349.24	1638.38
349.45	1718.25
349.66	1570.79
349.88	1677.29
350.09	1681.38
350.30	1732.58
350.51	1783.78
350.72	1763.30
350.93	1787.88
351.14	1705.96
351.35	1761.25
351.56	1691.62
351.77	1660.90
351.99	1779.68
352.20	1675.24
352.41	1814.50
352.62	1619.94
352.83	1744.87
353.04	1763.30
353.25	1597.42
353.46	1798.12
353.67	1753.06
353.88	1574.89
354.09	1701.86
354.30	1695.72
354.52	1718.25
354.73	1667.05
354.94	1628.14
355.15	1722.34
355.36	1802.21
355.57	1738.73
355.78	1740.77
355.99	1654.76
356.20	1699.81
356.41	1755.11
356.62	1787.88
356.83	1738.73
357.04	1773.54
357.25	1578.98
357.46	1638.38
357.68	1613.80
357.89	1650.66
358.10	1628.14
358.31	1658.85
358.52	1716.20
358.73	1599.46
358.94	1662.95
359.15	1595.37
359.36	1753.06
359.57	1699.81
359.78	1660.90
359.99	1705.96
360.20	1599.46
360.41	1679.33
360.62	1787.88
360.83	1736.68
361.04	1730.53
361.25	1755.11
361.46	1777.64
361.67	1679.33
361.88	1656.81
362.09	1759.21
362.30	1775.59
362.51	1734.63
362.72	1675.24
362.93	1671.14
363.14	1738.73
363.35	1728.49
363.56	1699.81
363.78	1834.98
363.99	1689.57
364.20	1681.38
364.41	1705.96
364.62	1828.84
364.83	1806.31
365.04	1724.39
365.25	1689.57
365.46	1841.12
365.67	1673.19
365.88	1683.43
366.09	1701.86
366.30	1652.71
366.51	1728.49
366.72	1669.09
366.93	1673.19
367.14	1738.73
367.35	1730.53
367.56	1675.24
367.77	1712.10
367.98	1746.92
368.18	1691.62
368.39	1712.10
368.60	1624.04
368.81	1667.05
369.02	1781.73
369.23	1667.05
369.44	1632.23
369.65	1689.57
369.86	1771.49
370.07	1755.11
370.28	1697.77
370.49	1787.88
370.70	1806.31
370.91	1630.18
371.12	1732.58
371.33	1724.39
371.54	1785.83
371.75	1800.16
371.96	1587.18
372.17	1675.24
372.38	1689.57
372.59	1718.25
372.80	1722.34
373.01	1691.62
373.22	1634.28
373.43	1701.86
373.64	1630.18
373.85	1773.54
374.06	1884.13
374.26	1648.61
374.47	1714.15
374.68	1718.25
374.89	1759.21
375.10	1712.10
375.31	1728.49
375.52	1769.44
375.73	1691.62
375.94	1665.00
376.15	1796.07
376.36	1714.15
376.57	1671.14
376.78	1685.48
376.99	1734.63
377.20	1779.68
377.40	1683.43
377.61	1794.02
377.82	1658.85
378.03	1791.97
378.24	1665.00
378.45	1662.95
378.66	1779.68
378.87	1593.32
379.08	1648.61
379.29	1697.77
379.50	1804.26
379.71	1626.09
379.91	1675.24
380.12	1691.62
380.33	1771.49
380.54	1675.24
380.75	1693.67
380.96	1673.19
381.17	1728.49
381.38	1632.23
381.59	1773.54
381.80	1736.68
382.00	1861.60
382.21	1691.62
382.42	1841.12
382.63	1892.32
382.84	1691.62
383.05	1812.45
383.26	1773.54
383.47	1716.20
383.68	1748.97
383.88	1671.14
384.09	1732.58
384.30	1808.36
384.51	1718.25
384.72	1685.48
384.93	1607.66
385.14	1705.96
385.35	1675.24
385.55	1636.33
385.76	1791.97
385.97	1724.39
386.18	1689.57
386.39	1640.42
386.60	1685.48
386.81	1716.20
387.02	1699.81
387.22	1621.99
387.43	1783.78
387.64	1814.50
387.85	1857.51
388.06	2203.61
388.27	4317.12
388.48	6688.67
388.68	8095.62
388.89	9621.36
389.10	9799.53
389.31	8609.66
389.52	7487.37
389.73	6756.25
389.93	6313.89
390.14	5861.29
390.35	5167.03
390.56	4620.22
390.77	3762.12
390.98	3086.29
391.18	2553.82
391.39	2072.54
391.60	1851.36
391.81	1787.88
392.02	1726.44
392.23	1810.40
392.43	1646.57
392.64	1841.12
392.85	1783.78
393.06	1787.88
393.27	1656.81
393.47	1617.90
393.68	1781.73
393.89	1683.43
394.10	1716.20
394.31	1636.33
394.52	1644.52
394.72	1693.67
394.93	1753.06
395.14	1685.48
395.35	1746.92
395.56	1710.05
395.76	1787.88
395.97	1779.68
396.18	1816.55
396.39	1775.59
396.60	2082.78
396.80	1896.42
397.01	1828.84
397.22	1796.07
397.43	1861.60
397.64	1714.15
397.84	1804.26
398.05	1939.43
398.26	1705.96
398.47	1869.80
398.67	1718.25
398.88	1708.01
399.09	1757.16
399.30	1804.26
399.51	1753.06
399.71	1634.28
399.92	1673.19
400.13	1710.05
400.34	1685.48
400.54	1671.14
400.75	1738.73
400.96	1710.05
401.17	1781.73
401.37	1796.07
401.58	1740.77
401.79	1626.09
402.00	1828.84
402.21	1982.43
402.41	1931.23
402.62	2037.73
402.83	2084.83
403.04	2011.11
403.24	1990.63
403.45	1884.13
403.66	1869.80
403.87	1828.84
404.07	1912.80
404.28	1884.13
404.49	1873.89
404.70	1763.30
404.90	1740.77
405.11	1734.63
405.32	1748.97
405.52	1667.05
405.73	1683.43
405.94	1710.05
406.15	1691.62
406.35	1746.92
406.56	1755.11
406.77	1691.62
406.98	1697.77
407.18	1650.66
407.39	1820.64
407.60	1683.43
407.80	1726.44
408.01	1695.72
408.22	1771.49
408.43	1730.53
408.63	1746.92
408.84	1740.77
409.05	1714.15
409.25	1681.38
409.46	1603.56
409.67	1638.38
409.88	1669.09
410.08	1787.88
410.29	1679.33
410.50	1738.73
410.70	1724.39
410.91	1671.14
411.12	1714.15
411.32	1705.96
411.53	1691.62
411.74	1814.50
411.95	1816.55
412.15	1642.47
412.36	1824.74
412.57	1837.03
412.77	1787.88
412.98	1730.53
413.19	1640.42
413.39	1783.78
413.60	1714.15
413.81	1808.36
414.01	1656.81
414.22	1695.72
414.43	1697.77
414.63	1605.61
414.84	1787.88
415.05	1791.97
415.25	1574.89
415.46	1710.05
415.67	1689.57
415.87	1724.39
416.08	1660.90
416.29	1714.15
416.49	1757.16
416.70	1761.25
416.91	1689.57
417.11	1730.53
417.32	1720.29
417.53	1722.34
417.73	1710.05
417.94	1777.64
418.15	1681.38
418.35	1683.43
418.56	1775.59
418.77	1824.74
418.97	1736.68
419.18	1732.58
419.38	1624.04
419.59	1734.63
419.80	1761.25
420.00	1718.25
420.21	1677.29
420.42	1730.53
420.62	1722.34
420.83	1701.86
421.04	1738.73
421.24	1652.71
421.45	1714.15
421.65	1687.53
421.86	1632.23
422.07	1789.92
422.27	1708.01
422.48	1693.67
422.69	1660.90
422.89	1687.53
423.10	1646.57
423.30	1650.66
423.51	1730.53
423.72	1646.57
423.92	1787.88
424.13	1634.28
424.33	1773.54
424.54	1753.06
424.75	1728.49
424.95	1794.02
425.16	1701.86
425.36	1671.14
425.57	1669.09
425.78	1746.92
425.98	1830.88
426.19	1726.44
426.39	1615.85
426.60	1697.77
426.81	1818.60
427.01	1679.33
427.22	1689.57
427.42	1558.50
427.63	1642.47
427.83	1843.17
428.04	1824.74
428.25	1744.87
428.45	1765.35
428.66	1716.20
428.86	1687.53
429.07	1779.68
429.28	1718.25
429.48	1746.92
429.69	1630.18
429.89	1685.48
430.10	1585.13
430.30	1771.49
430.51	1763.30
430.71	1665.00
430.92	1648.61
431.13	1671.14
431.33	1722.34
431.54	1712.10
431.74	1828.84
431.95	1849.32
432.15	1654.76
432.36	1691.62
432.56	1748.97
432.77	1769.44
432.98	1820.64
433.18	1753.06
433.39	1667.05
433.59	1734.63
433.80	1755.11
434.00	1834.98
434.21	1662.95
434.41	1673.19
434.62	1804.26
434.82	1591.27
435.03	1705.96
435.23	1722.34
435.44	1634.28
435.64	1673.19
435.85	1671.14
436.06	1724.39
436.26	1802.21
436.47	1685.48
436.67	1662.95
436.88	1679.33
437.08	1751.01
437.29	1837.03
437.49	1789.92
437.70	1781.73
437.90	1679.33
438.11	1820.64
438.31	1828.84
438.52	1785.83
438.72	1849.32
438.93	1865.70
439.13	1761.25
439.34	1847.27
439.54	1751.01
439.75	1808.36
439.95	1857.51
440.16	1732.58
440.36	1697.77
440.57	1769.44
440.77	1724.39
440.98	1730.53
441.18	1753.06
441.39	1708.01
441.59	1605.61
441.80	1894.37
442.00	1767.40
442.21	1787.88
442.41	1636.33
442.62	1769.44
442.82	1687.53
443.02	1710.05
443.23	1759.21
443.43	1728.49
443.64	1779.68
443.84	1712.10
444.05	1830.88
444.25	1701.86
444.46	1699.81
444.66	1714.15
444.87	1882.08
445.07	1712.10
445.28	1699.81
445.48	1812.45
445.69	1769.44
445.89	1873.89
446.09	1724.39
446.30	2019.30
446.50	2578.39
446.71	3702.73
446.91	4431.80
447.12	4767.67
447.32	4878.26
447.53	4325.31
447.73	3839.94
447.93	3534.79
448.14	3323.85
448.34	3256.27
448.55	2932.69
448.75	2770.90
448.96	2760.66
449.16	2502.62
449.36	2226.14
449.57	2115.55
449.77	1869.80
449.98	1847.27
450.18	1761.25
450.39	1869.80
450.59	1802.21
450.79	1658.85
451.00	1671.14
451.20	1808.36
451.41	1683.43
451.61	1775.59
451.81	1734.63
452.02	1624.04
452.22	1681.38
452.43	1599.46
452.63	1685.48
452.84	1740.77
453.04	1746.92
453.24	1722.34
453.45	1636.33
453.65	1726.44
453.86	1718.25
454.06	1748.97
454.26	1765.35
454.47	1675.24
454.67	1837.03
454.87	1802.21
455.08	1794.02
455.28	1791.97
455.49	1763.30
455.69	1658.85
455.89	1861.60
456.10	1773.54
456.30	1693.67
456.51	1736.68
456.71	1771.49
456.91	1740.77
457.12	1718.25
457.32	1669.09
457.52	1673.19
457.73	1804.26
457.93	1759.21
458.14	1718.25
458.34	1689.57
458.54	1693.67
458.75	1691.62
458.95	1728.49
459.15	1681.38
459.36	1710.05
459.56	1759.21
459.76	1816.55
459.97	1632.23
460.17	1642.47
460.37	1806.31
460.58	1677.29
460.78	1734.63
460.99	1714.15
461.19	1730.53
461.39	1738.73
461.60	1697.77
461.80	1789.92
462.00	1689.57
462.21	1781.73
462.41	1714.15
462.61	1681.38
462.82	1699.81
463.02	1695.72
463.22	1755.11
463.43	1767.40
463.63	1751.01
463.83	1843.17
464.04	1738.73
464.24	1736.68
464.44	1656.81
464.64	1771.49
464.85	1787.88
465.05	1738.73
465.25	1701.86
465.46	1734.63
465.66	1671.14
465.86	1765.35
466.07	1734.63
466.27	1789.92
466.47	1644.52
466.68	1644.52
466.88	1779.68
467.08	1783.78
467.29	1794.02
467.49	1720.29
467.69	1755.11
467.89	1718.25
468.10	1732.58
468.30	1724.39
468.50	1771.49
468.71	1751.01
468.91	1652.71
469.11	1791.97
469.31	1789.92
469.52	1710.05
469.72	1908.71
469.92	1826.79
470.13	1683.43
470.33	1744.87
470.53	1716.20
470.73	2086.88
470.94	2263.01
471.14	2359.26
471.34	2527.19
471.54	2453.47
471.75	2205.66
471.95	2170.85
472.15	2121.70
472.36	2007.01
472.56	2062.30
472.76	2000.87
472.96	2066.40
473.17	1984.48
473.37	1951.71
473.57	1888.23
473.77	1845.22
473.98	1812.45
474.18	1650.66
474.38	1847.27
474.58	1722.34
474.79	1566.70
474.99	1748.97
475.19	1775.59
475.39	1640.42
475.60	1681.38
475.80	1718.25
476.00	1798.12
476.20	1644.52
476.41	1693.67
476.61	1777.64
476.81	1814.50
477.01	1722.34
477.21	1845.22
477.42	1814.50
477.62	1650.66
477.82	1755.11
478.02	1693.67
478.23	1742.82
478.43	1665.00
478.63	1646.57
478.83	1656.81
479.03	1609.70
479.24	1736.68
479.44	1914.85
479.64	1740.77
479.84	1617.90
480.04	1595.37
480.25	1742.82
480.45	1701.86
480.65	1687.53
480.85	1824.74
481.06	1544.17
481.26	1675.24
481.46	1763.30
481.66	1732.58
481.86	1660.90
482.06	1751.01
482.27	1734.63
482.47	1697.77
482.67	1705.96
482.87	1697.77
483.07	1802.21
483.28	1677.29
483.48	1660.90
483.68	1675.24
483.88	1695.72
484.08	1621.99
484.29	1724.39
484.49	1669.09
484.69	1621.99
484.89	1830.88
485.09	1773.54
485.29	1775.59
485.50	1701.86
485.70	1691.62
485.90	1787.88
486.10	1738.73
486.30	1730.53
486.50	1880.04
486.71	1826.79
486.91	1810.40
487.11	1886.18
487.31	1665.00
487.51	1820.64
487.71	1685.48
487.91	1675.24
488.12	1638.38
488.32	1599.46
488.52	1665.00
488.72	1634.28
488.92	1726.44
489.12	1824.74
489.32	1789.92
489.53	1755.11
489.73	1669.09
489.93	1798.12
490.13	1695.72
490.33	1624.04
490.53	1708.01
490.73	1761.25
490.94	1689.57
491.14	1722.34
491.34	1841.12
491.54	2033.63
491.74	2615.26
491.94	2891.73
492.14	3012.56
492.34	3037.14
492.54	2668.50
492.75	2422.75
492.95	2482.14
493.15	2363.36
493.35	2306.01
493.55	2193.37
493.75	2217.95
493.95	2181.09
494.15	2019.30
494.35	1816.55
494.56	1845.22
494.76	1808.36
494.96	1777.64
495.16	1822.69
495.36	1763.30
495.56	1697.77
495.76	1738.73
495.96	1734.63
496.16	1691.62
496.36	1853.41
496.56	1708.01
496.77	1656.81
496.97	1796.07
497.17	1798.12
497.37	1558.50
497.57	1751.01
497.77	1779.68
497.97	1703.91
498.17	1644.52
498.37	1695.72
498.57	1738.73
498.77	1738.73
498.97	1720.29
499.17	1814.50
499.38	1712.10
499.58	1755.11
499.78	1755.11
499.98	1773.54
500.18	1712.10
500.38	1656.81
500.58	1886.18
500.78	2547.67
500.98	4497.34
501.18	5818.28
501.38	6612.89
501.58	7169.94
501.78	6573.98
501.98	5498.80
502.18	4949.94
502.38	4345.79
502.58	4073.41
502.78	3739.59
502.98	3645.38
503.18	3473.36
503.38	3270.61
503.59	2727.89
503.79	2629.59
503.99	2490.33
504.19	2281.44
504.39	2217.95
504.59	2193.37
504.79	2058.21
504.99	2043.87
505.19	1910.75
505.39	1873.89
505.59	2029.54
505.79	1961.95
505.99	1865.70
506.19	1779.68
506.39	1804.26
506.59	1757.16
506.79	1761.25
506.99	1869.80
507.19	1761.25
507.39	1701.86
507.59	1691.62
507.79	1740.77
507.99	1648.61
508.19	1736.68
508.39	1703.91
508.59	1703.91
508.79	1728.49
508.99	1832.93
509.19	1708.01
509.39	1753.06
509.59	1748.97
509.79	1632.23
509.99	1736.68
510.19	1759.21
510.39	1814.50
510.59	1705.96
510.79	1718.25
510.99	1689.57
511.19	1708.01
511.39	1769.44
511.59	1677.29
511.79	1843.17
511.99	1716.20
512.19	1763.30
512.38	1746.92
512.58	1697.77
512.78	1746.92
512.98	1767.40
513.18	1839.08
513.38	1609.70
513.58	1810.40
513.78	1708.01
513.98	1765.35
514.18	1660.90
514.38	1695.72
514.58	1814.50
514.78	1656.81
514.98	1673.19
515.18	1654.76
515.38	1650.66
515.58	1826.79
515.78	1744.87
515.98	1759.21
516.18	1783.78
516.38	1708.01
516.57	1673.19
516.77	1667.05
516.97	1738.73
517.17	1705.96
517.37	1681.38
517.57	1779.68
517.77	1759.21
517.97	1736.68
518.17	1740.77
518.37	1640.42
518.57	1712.10
518.77	1656.81
518.97	1654.76
519.16	1740.77
519.36	1775.59
519.56	1730.53
519.76	1714.15
519.96	1751.01
520.16	1798.12
520.36	1705.96
520.56	1818.60
520.76	1667.05
520.96	1685.48
521.16	1787.88
521.35	1783.78
521.55	1753.06
521.75	1697.77
521.95	1701.86
522.15	1675.24
522.35	1697.77
522.55	1626.09
522.75	1691.62
522.95	1710.05
523.14	1654.76
523.34	1724.39
523.54	1693.67
523.74	1826.79
523.94	1806.31
524.14	1656.81
524.34	1789.92
524.54	1816.55
524.73	1759.21
524.93	1691.62
525.13	1718.25
525.33	1705.96
525.53	1943.52
525.73	1746.92
525.93	1753.06
526.13	1658.85
526.32	1738.73
526.52	1771.49
526.72	1767.40
526.92	1720.29
527.12	1673.19
527.32	1683.43
527.52	1777.64
527.71	1779.68
527.91	1736.68
528.11	1705.96
528.31	1789.92
528.51	1646.57
528.71	1755.11
528.90	1757.16
529.10	1757.16
529.30	1802.21
529.50	1708.01
529.70	1775.59
529.90	1695.72
530.09	1800.16
530.29	1695.72
530.49	1652.71
530.69	1830.88
530.89	1748.97
531.09	1832.93
531.28	1669.09
531.48	1820.64
531.68	1763.30
531.88	1814.50
532.08	1748.97
532.28	1648.61
532.47	1718.25
532.67	1648.61
532.87	1746.92
533.07	1691.62
533.27	1802.21
533.46	1755.11
533.66	1781.73
533.86	1687.53
534.06	1751.01
534.26	1677.29
534.45	1757.16
534.65	1714.15
534.85	1767.40
535.05	1722.34
535.25	1767.40
535.44	1615.85
535.64	1746.92
535.84	1816.55
536.04	1695.72
536.24	1654.76
536.43	1689.57
536.63	1777.64
536.83	1761.25
537.03	1746.92
537.22	1619.94
537.42	1617.90
537.62	1820.64
537.82	1626.09
538.02	1759.21
538.21	1800.16
538.41	1904.61
538.61	1796.07
538.81	1673.19
539.00	1898.47
539.20	1564.65
539.40	1710.05
539.60	1759.21
539.79	1769.44
539.99	1681.38
540.19	1769.44
540.39	1740.77
540.58	1714.15
540.78	1839.08
540.98	1724.39
541.18	1771.49
541.37	1826.79
541.57	1763.30
541.77	1746.92
541.97	1632.23
542.16	1634.28
542.36	1759.21
542.56	1738.73
542.76	1845.22
542.95	1787.88
543.15	1765.35
543.35	1767.40
543.54	1646.57
543.74	1611.75
543.94	1769.44
544.14	1677.29
544.33	1646.57
544.53	1783.78
544.73	1769.44
544.93	1720.29
545.12	1728.49
545.32	1789.92
545.52	1724.39
545.71	1699.81
545.91	1720.29
546.11	1697.77
546.30	1691.62
546.50	1669.09
546.70	1685.48
546.90	1837.03
547.09	1642.47
547.29	1787.88
547.49	1826.79
547.68	1703.91
547.88	1728.49
548.08	1755.11
548.27	2185.18
548.47	1765.35
548.67	1734.63
548.87	1781.73
549.06	1683.43
549.26	1773.54
549.46	1755.11
549.65	1685.48
549.85	1759.21
550.05	1761.25
550.24	1669.09
550.44	1730.53
550.64	1769.44
550.83	1681.38
551.03	1738.73
551.23	1763.30
551.42	1685.48
551.62	1642.47
551.82	1681.38
552.01	1681.38
552.21	1859.56
552.41	1724.39
552.60	1767.40
552.80	1816.55
553.00	1687.53
553.19	1785.83
553.39	1896.42
553.59	1642.47
553.78	1789.92
553.98	1718.25
554.17	1730.53
554.37	1802.21
554.57	1736.68
554.76	1675.24
554.96	1728.49
555.16	1761.25
555.35	1679.33
555.55	1662.95
555.75	1810.40
555.94	1763.30
556.14	1609.70
556.33	1755.11
556.53	1771.49
556.73	1767.40
556.92	1759.21
557.12	1806.31
557.32	1888.23
557.51	1798.12
557.71	1724.39
557.90	1806.31
558.10	1828.84
558.30	1740.77
558.49	1724.39
558.69	1738.73
558.88	1791.97
559.08	1736.68
559.28	1861.60
559.47	1732.58
559.67	1808.36
559.86	1789.92
560.06	1785.83
560.26	1681.38
560.45	1744.87
560.65	1755.11
560.84	1849.32
561.04	1763.30
561.24	1728.49
561.43	1687.53
561.63	1830.88
561.82	1845.22
562.02	1804.26
562.22	1640.42
562.41	1710.05
562.61	1669.09
562.80	1595.37
563.00	1869.80
563.19	1718.25
563.39	1718.25
563.59	1757.16
563.78	1718.25
563.98	1613.80
564.17	1683.43
564.37	1708.01
564.56	1695.72
564.76	1708.01
564.96	1841.12
565.15	1800.16
565.35	1906.66
565.54	1665.00
565.74	1828.84
565.93	1804.26
566.13	1783.78
566.32	1734.63
566.52	1828.84
566.71	1734.63
566.91	1767.40
567.11	1681.38
567.30	1763.30
567.50	1748.97
567.69	1738.73
567.89	1681.38
568.08	1751.01
568.28	1767.40
568.47	1628.14
568.67	1759.21
568.86	1708.01
569.06	1718.25
569.25	1722.34
569.45	1636.33
569.64	1710.05
569.84	1800.16
570.04	1710.05
570.23	1691.62
570.43	1724.39
570.62	1785.83
570.82	1861.60
571.01	1652.71
571.21	1677.29
571.40	1665.00
571.60	1734.63
571.79	1771.49
571.99	1779.68
572.18	1716.20
572.38	1677.29
572.57	1773.54
572.77	1771.49
572.96	1888.23
573.16	1771.49
573.35	1699.81
573.55	1904.61
573.74	1710.05
573.94	1781.73
574.13	1662.95
574.33	1746.92
574.52	1726.44
574.71	1617.90
574.91	1740.77
575.10	1675.24
575.30	1705.96
575.49	1615.85
575.69	1695.72
575.88	1722.34
576.08	1767.40
576.27	1824.74
576.47	1761.25
576.66	1783.78
576.86	1736.68
577.05	1773.54
577.25	1875.94
577.44	1871.84
577.64	1718.25
577.83	1755.11
578.02	1728.49
578.22	1843.17
578.41	1837.03
578.61	1724.39
578.80	1708.01
579.00	1783.78
579.19	1771.49
579.39	1738.73
579.58	1812.45
579.77	1681.38
579.97	1886.18
580.16	1800.16
580.36	1810.40
580.55	1806.31
580.75	1818.60
580.94	1748.97
581.13	1910.75
581.33	1851.36
581.52	1771.49
581.72	1871.84
581.91	1839.08
582.11	1767.40
582.30	1800.16
582.49	1714.15
582.69	1794.02
582.88	1834.98
583.08	1794.02
583.27	1773.54
583.47	1755.11
583.66	1681.38
583.85	1673.19
584.05	1787.88
584.24	1724.39
584.44	1796.07
584.63	1837.03
584.82	1880.04
585.02	1820.64
585.21	1785.83
585.41	1804.26
585.60	1847.27
585.79	1951.71
585.99	1947.62
586.18	1871.84
586.37	2260.96
586.57	3463.12
586.76	9695.08
586.96	24594.06
587.15	34754.03
587.34	40256.92
587.54	42335.61
587.73	36849.10
587.93	26556.01
588.12	21667.51
588.31	18231.02
588.51	16551.68
588.70	15056.67
588.89	14249.77
589.09	12756.80
589.28	11093.85
589.47	9523.05
589.67	8167.30
589.86	6625.18
590.06	5033.91
590.25	3960.77
590.44	3182.54
590.64	2588.63
590.83	2277.34
591.02	2035.68
591.22	1902.56
591.41	1896.42
591.60	1839.08
591.80	1929.19
591.99	1751.01
592.18	1808.36
592.38	1890.28
592.57	1771.49
592.76	1843.17
592.96	1800.16
593.15	1767.40
593.34	1853.41
593.54	1757.16
593.73	1861.60
593.92	1822.69
594.12	1755.11
594.31	1800.16
594.50	1767.40
594.70	1789.92
594.89	1900.52
595.08	1730.53
595.28	1761.25
595.47	1826.79
595.66	1830.88
595.86	1673.19
596.05	1671.14
596.24	1718.25
596.43	1863.65
596.63	1826.79
596.82	1798.12
597.01	1804.26
597.21	1834.98
597.40	1837.03
597.59	1730.53
597.79	1785.83
597.98	1810.40
598.17	1802.21
598.36	1787.88
598.56	1705.96
598.75	1687.53
598.94	1746.92
599.14	1751.01
599.33	1755.11
599.52	1759.21
599.71	1685.48
599.91	1718.25
600.10	1738.73
600.29	1736.68
600.48	1755.11
600.68	1804.26
600.87	1787.88
601.06	1691.62
601.26	1773.54
601.45	1722.34
601.64	1722.34
601.83	1812.45
602.03	1705.96
602.22	1662.95
602.41	1712.10
602.60	1861.60
602.80	1832.93
602.99	1726.44
603.18	1699.81
603.37	1724.39
603.57	1734.63
603.76	1783.78
603.95	1771.49
604.14	1724.39
604.34	1671.14
604.53	1779.68
604.72	1781.73
604.91	1798.12
605.10	1746.92
605.30	1660.90
605.49	1855.46
605.68	1763.30
605.87	1810.40
606.07	1685.48
606.26	1755.11
606.45	1675.24
606.64	1765.35
606.84	1708.01
607.03	1720.29
607.22	1761.25
607.41	1642.47
607.60	1683.43
607.80	1771.49
607.99	1716.20
608.18	1781.73
608.37	1732.58
608.56	1677.29
608.76	1865.70
608.95	1822.69
609.14	1736.68
609.33	1763.30
609.52	1781.73
609.72	1794.02
609.91	1732.58
610.10	1742.82
610.29	1841.12
610.48	1755.11
610.68	1742.82
610.87	1632.23
611.06	1851.36
611.25	1697.77
611.44	1724.39
611.63	1738.73
611.83	1757.16
612.02	1619.94
612.21	1789.92
612.40	1562.60
612.59	1628.14
612.79	1732.58
612.98	1720.29
613.17	1763.30
613.36	1691.62
613.55	1808.36
613.74	1671.14
613.93	1667.05
614.13	1701.86
614.32	1714.15
614.51	1785.83
614.70	1748.97
614.89	1720.29
615.08	1736.68
615.28	2062.30
615.47	1681.38
615.66	1746.92
615.85	1705.96
616.04	1796.07
616.23	1779.68
616.42	1675.24
616.62	1734.63
616.81	1796.07
617.00	1705.96
617.19	1767.40
617.38	1665.00
617.57	1701.86
617.76	1757.16
617.95	1742.82
618.15	1746.92
618.34	1851.36
618.53	1611.75
618.72	1746.92
618.91	1802.21
619.10	1814.50
619.29	1759.21
619.48	1714.15
619.68	1667.05
619.87	1730.53
620.06	1644.52
620.25	1763.30
620.44	1658.85
620.63	1691.62
620.82	1746.92
621.01	1705.96
621.20	1701.86
621.39	1693.67
621.59	1685.48
621.78	1779.68
621.97	1669.09
622.16	1744.87
622.35	1726.44
622.54	1773.54
622.73	1779.68
622.92	1566.70
623.11	1748.97
623.30	1695.72
623.49	1783.78
623.68	1632.23
623.88	1744.87
624.07	1708.01
624.26	1665.00
624.45	1730.53
624.64	1665.00
624.83	1806.31
625.02	1687.53
625.21	1697.77
625.40	1708.01
625.59	1806.31
625.78	1763.30
625.97	1787.88
626.16	1796.07
626.35	1724.39
626.54	1769.44
626.74	1785.83
626.93	1665.00
627.12	1665.00
627.31	1798.12
627.50	1812.45
627.69	1779.68
627.88	1718.25
628.07	1677.29
628.26	1648.61
628.45	1662.95
628.64	1617.90
628.83	1771.49
629.02	1558.50
629.21	1781.73
629.40	1775.59
629.59	1656.81
629.78	1705.96
629.97	1720.29
630.16	1732.58
630.35	1742.82
630.54	1746.92
630.73	1699.81
630.92	1669.09
631.11	1740.77
631.30	1705.96
631.49	1767.40
631.68	1718.25
631.87	1738.73
632.06	1632.23
632.25	1751.01
632.44	1665.00
632.63	1777.64
632.82	1626.09
633.01	1691.62
633.20	1773.54
633.39	1703.91
633.58	1640.42
633.77	1699.81
633.96	1765.35
634.15	1751.01
634.34	1734.63
634.53	1759.21
634.72	1669.09
634.91	1665.00
635.10	1757.16
635.29	1742.82
635.48	1804.26
635.67	1716.20
635.86	1587.18
636.05	1771.49
636.24	1751.01
636.43	1687.53
636.62	1787.88
636.81	1578.98
637.00	1654.76
637.19	1804.26
637.38	1726.44
637.57	1652.71
637.76	1746.92
637.95	1736.68
638.14	1648.61
638.33	1644.52
638.52	1779.68
638.71	1654.76
638.89	1652.71
639.08	1753.06
639.27	1794.02
639.46	1718.25
639.65	1769.44
639.84	1728.49
640.03	1732.58
640.22	1630.18
640.41	1785.83
640.60	1656.81
640.79	1669.09
640.98	1697.77
641.17	1753.06
641.36	1650.66
641.55	1761.25
641.74	1693.67
641.92	1687.53
642.11	1591.27
642.30	1734.63
642.49	1673.19
642.68	1689.57
642.87	1687.53
643.06	1853.41
643.25	1720.29
643.44	1617.90
643.63	1679.33
643.82	1751.01
644.00	1712.10
644.19	1732.58
644.38	1705.96
644.57	1757.16
644.76	1761.25
644.95	1671.14
645.14	1724.39
645.33	1691.62
645.52	1753.06
645.71	1681.38
645.89	1617.90
646.08	1701.86
646.27	1607.66
646.46	1832.93
646.65	1621.99
646.84	1732.58
647.03	1712.10
647.22	1689.57
647.40	1738.73
647.59	1738.73
647.78	1656.81
647.97	1669.09
648.16	1691.62
648.35	1814.50
648.54	1775.59
648.73	1773.54
648.91	1742.82
649.10	1705.96
649.29	1679.33
649.48	1697.77
649.67	1693.67
649.86	1693.67
650.05	1738.73
650.23	1828.84
650.42	1685.48
650.61	1769.44
650.80	1699.81
650.99	1843.17
651.18	1761.25
651.36	1677.29
651.55	1744.87
651.74	1798.12
651.93	1714.15
652.12	1740.77
652.31	1761.25
652.49	1656.81
652.68	1665.00
652.87	1773.54
653.06	1722.34
653.25	1820.64
653.44	1755.11
653.62	1810.40
653.81	1751.01
654.00	1767.40
654.19	1722.34
654.38	1830.88
654.56	1734.63
654.75	1695.72
654.94	1740.77
655.13	1673.19
655.32	1748.97
655.51	1751.01
655.69	1734.63
655.88	1734.63
656.07	1705.96
656.26	1734.63
656.45	1652.71
656.63	1726.44
656.82	1734.63
657.01	1736.68
657.20	1744.87
657.38	1705.96
657.57	1763.30
657.76	1648.61
657.95	1744.87
658.14	1691.62
658.32	1748.97
658.51	1632.23
658.70	1693.67
658.89	1703.91
659.08	1697.77
659.26	1783.78
659.45	1652.71
659.64	1822.69
659.83	1640.42
660.01	1980.39
660.20	1669.09
660.39	1812.45
660.58	1671.14
660.76	1775.59
660.95	1738.73
661.14	1738.73
661.33	1687.53
661.51	1722.34
661.70	1734.63
661.89	1757.16
662.08	1736.68
662.26	1656.81
662.45	1611.75
662.64	1847.27
662.83	1757.16
663.01	1583.08
663.20	1716.20
663.39	1748.97
663.58	1746.92
663.76	1791.97
663.95	1708.01
664.14	1671.14
664.32	1669.09
664.51	1671.14
664.70	1648.61
664.89	1757.16
665.07	1626.09
665.26	1771.49
665.45	1779.68
665.64	1697.77
665.82	1697.77
666.01	1796.07
666.20	1675.24
666.38	1845.22
666.57	1791.97
666.76	2174.94
666.95	4468.67
667.13	10383.20
667.32	15099.67
667.51	17655.54
667.69	18982.62
667.88	17913.58
668.07	12365.64
668.25	9535.34
668.44	8318.85
668.63	7313.30
668.81	6766.49
669.00	6246.30
669.19	5498.80
669.38	5087.15
669.56	4556.73
669.75	4016.07
669.94	3420.11
670.12	2901.97
670.31	2562.01
670.50	2314.20
670.68	2037.73
670.87	1943.52
671.06	1769.44
671.24	1779.68
671.43	1810.40
671.62	1755.11
671.80	1722.34
671.99	1751.01
672.18	1730.53
672.36	1771.49
672.55	1726.44
672.74	1681.38
672.92	1728.49
673.11	1746.92
673.29	1601.51
673.48	1781.73
673.67	1742.82
673.85	1718.25
674.04	1757.16
674.23	1685.48
674.41	1816.55
674.60	1619.94
674.79	1689.57
674.97	1738.73
675.16	1720.29
675.34	1730.53
675.53	1675.24
675.72	1763.30
675.90	1843.17
676.09	1675.24
676.28	1738.73
676.46	1611.75
676.65	1691.62
676.83	1632.23
677.02	1763.30
677.21	1736.68
677.39	1775.59
677.58	1615.85
677.77	1658.85
677.95	1677.29
678.14	1724.39
678.32	1720.29
678.51	1662.95
678.70	1802.21
678.88	1728.49
679.07	1796.07
679.25	1755.11
679.44	1765.35
679.63	1648.61
679.81	1787.88
680.00	1728.49
680.18	1734.63
680.37	1742.82
680.55	1744.87
680.74	1677.29
680.93	1587.18
681.11	1744.87
681.30	1761.25
681.48	1730.53
681.67	1703.91
681.85	1722.34
682.04	1626.09
682.23	1785.83
682.41	1691.62
682.60	1755.11
682.78	1732.58
682.97	1638.38
683.15	1767.40
683.34	1722.34
683.53	1796.07
683.71	1665.00
683.90	1802.21
684.08	1753.06
684.27	1656.81
684.45	1654.76
684.64	1736.68
684.82	1712.10
685.01	1746.92
685.19	1759.21
685.38	1806.31
685.57	1787.88
685.75	1648.61
685.94	1671.14
686.12	1722.34
686.31	1652.71
686.49	1869.80
686.68	1599.46
686.86	1732.58
687.05	1617.90
687.23	1783.78
687.42	1660.90
687.60	1617.90
687.79	1761.25
687.97	1796.07
688.16	1767.40
688.34	1761.25
688.53	1687.53
688.71	1748.97
688.90	1740.77
689.08	1722.34
689.27	1562.60
689.45	1740.77
689.64	1660.90
689.82	1703.91
690.01	1677.29
690.19	1724.39
690.38	1685.48
690.56	1763.30
690.75	1605.61
690.93	1642.47
691.12	1632.23
691.30	1650.66
691.49	1738.73
691.67	1765.35
691.86	1826.79
692.04	1613.80
692.23	1697.77
692.41	1662.95
692.60	1865.70
692.78	1732.58
692.97	1703.91
693.15	1738.73
693.34	1798.12
693.52	1810.40
693.71	1697.77
693.89	1607.66
694.08	1699.81
694.26	1798.12
694.44	1773.54
694.63	1675.24
694.81	1718.25
695.00	1683.43
695.18	1746.92
695.37	1890.28
695.55	1763.30
695.74	1804.26
695.92	1740.77
696.10	1806.31
696.29	1650.66
696.47	1656.81
696.66	1605.61
696.84	1708.01
697.03	1738.73
697.21	1828.84
697.40	2287.58
697.58	1779.68
697.76	1611.75
697.95	1685.48
698.13	1615.85
698.32	1671.14
698.50	1746.92
698.68	1732.58
698.87	1718.25
699.05	1847.27
699.24	1763.30
699.42	1679.33
699.61	1738.73
699.79	1675.24
699.97	1693.67
700.16	1669.09
700.34	1656.81
700.53	1789.92
700.71	1656.81
700.89	1773.54
701.08	1652.71
701.26	1732.58
701.45	2113.50
701.63	1673.19
701.81	1728.49
702.00	1634.28
702.18	1808.36
702.37	1665.00
702.55	1689.57
702.73	1673.19
702.92	1636.33
703.10	1757.16
703.28	1746.92
703.47	1665.00
703.65	1720.29
703.84	1748.97
704.02	1632.23
704.20	1845.22
704.39	1628.14
704.57	1691.62
704.75	1765.35
704.94	1716.20
705.12	1785.83
705.30	1826.79
705.49	2258.91
705.67	4460.48
705.86	9314.16
706.04	12478.27
706.22	14737.18
706.41	15388.44
706.59	13915.95
706.77	9619.31
706.96	7454.61
707.14	6684.57
707.32	5912.49
707.51	5621.67
707.69	4978.61
707.87	4229.06
708.06	3551.18
708.24	2975.70
708.42	2432.99
708.61	2324.44
708.79	2000.87
708.97	1820.64
709.16	1826.79
709.34	1781.73
709.52	1759.21
709.71	1767.40
709.89	1794.02
710.07	1677.29
710.26	1746.92
710.44	1730.53
710.62	1701.86
710.80	1703.91
710.99	1783.78
711.17	1808.36
711.35	1665.00
711.54	1734.63
711.72	1771.49
711.90	1677.29
712.09	1693.67
712.27	1677.29
712.45	1736.68
712.63	1689.57
712.82	1640.42
713.00	1712.10
713.18	1736.68
713.37	1763.30
713.55	1753.06
713.73	1796.07
713.91	1783.78
714.10	1720.29
714.28	1656.81
714.46	1755.11
714.65	1714.15
714.83	1695.72
715.01	1734.63
715.19	1708.01
715.38	1742.82
715.56	1724.39
715.74	1609.70
715.92	1732.58
716.11	1781.73
716.29	1640.42
716.47	1640.42
716.65	1728.49
716.84	1673.19
717.02	1816.55
717.20	1624.04
717.38	1660.90
717.57	1753.06
717.75	1742.82
717.93	1683.43
718.11	1728.49
718.30	1673.19
718.48	1720.29
718.66	1765.35
718.84	1794.02
719.03	1744.87
719.21	1646.57
719.39	1751.01
719.57	1751.01
719.75	1671.14
719.94	1708.01
720.12	1624.04
720.30	1662.95
720.48	1699.81
720.67	1722.34
720.85	1648.61
721.03	1615.85
721.21	1650.66
721.39	1820.64
721.58	1720.29
721.76	1746.92
721.94	1757.16
722.12	1636.33
722.30	1771.49
722.49	1722.34
722.67	1708.01
722.85	1732.58
723.03	1714.15
723.21	1669.09
723.40	1714.15
723.58	1722.34
723.76	1705.96
723.94	1748.97
724.12	1691.62
724.30	1746.92
724.49	1740.77
724.67	1597.42
724.85	1701.86
725.03	1576.94
725.21	1759.21
725.40	1759.21
725.58	1744.87
725.76	1761.25
725.94	1691.62
726.12	1607.66
726.30	1697.77
726.49	1740.77
726.67	1722.34
726.85	1679.33
727.03	1808.36
727.21	2131.94
727.39	2908.12
727.57	3940.29
727.76	4165.57
727.94	4394.94
728.12	4376.51
728.30	3729.35
728.48	2996.18
728.66	2615.26
728.84	2504.67
729.03	2336.73
729.21	2138.08
729.39	1968.10
729.57	1783.78
729.75	1800.16
729.93	1826.79
730.11	1744.87
730.30	1740.77
730.48	1738.73
730.66	1861.60
730.84	1820.64
731.02	1761.25
731.20	1648.61
731.38	1712.10
731.56	1656.81
731.74	1703.91
731.93	1730.53
732.11	1710.05
732.29	1683.43
732.47	1746.92
732.65	1765.35
732.83	1742.82
733.01	1714.15
733.19	1669.09
733.37	1730.53
733.56	1791.97
733.74	1689.57
733.92	1775.59
734.10	1644.52
734.28	1734.63
734.46	1615.85
734.64	1679.33
734.82	1640.42
735.00	1677.29
735.18	1701.86
735.36	1712.10
735.54	1656.81
735.73	1683.43
735.91	1722.34
736.09	1759.21
736.27	1691.62
736.45	1812.45
736.63	1634.28
736.81	1689.57
736.99	1746.92
737.17	1847.27
737.35	1689.57
737.53	1712.10
737.71	1632.23
737.89	1738.73
738.07	1650.66
738.25	1673.19
738.43	1591.27
738.61	1726.44
738.80	1679.33
738.98	1591.27
739.16	1626.09
739.34	1660.90
739.52	1798.12
739.70	1665.00
739.88	1769.44
740.06	1779.68
740.24	1544.17
740.42	1781.73
740.60	1675.24
740.78	1644.52
740.96	1576.94
741.14	1714.15
741.32	1712.10
741.50	1677.29
741.68	1832.93
741.86	1720.29
742.04	1619.94
742.22	1693.67
742.40	1748.97
742.58	1660.90
742.76	1738.73
742.94	1673.19
743.12	1648.61
743.30	1689.57
743.48	1738.73
743.66	1656.81
743.84	1683.43
744.02	1669.09
744.20	1779.68
744.38	1695.72
744.56	1658.85
744.74	1744.87
744.92	1740.77
745.10	1794.02
745.28	1685.48
745.46	1699.81
745.64	1689.57
745.82	1675.24
746.00	1683.43
746.18	1742.82
746.36	1648.61
746.54	1687.53
746.72	1746.92
746.90	1681.38
747.08	1769.44
747.26	1599.46
747.44	1761.25
747.62	1695.72
747.80	1820.64
747.98	1740.77
748.15	1718.25
748.33	1732.58
748.51	1681.38
748.69	1761.25
748.87	1646.57
749.05	1650.66
749.23	1665.00
749.41	1726.44
749.59	1615.85
749.77	1716.20
749.95	1714.15
750.13	1693.67
750.31	1765.35
750.49	1734.63
750.67	1804.26
750.85	1837.03
751.03	1740.77
751.20	1783.78
751.38	1697.77
751.56	1642.47
751.74	1679.33
751.92	1683.43
752.10	1656.81
752.28	1708.01
752.46	1681.38
752.64	1652.71
752.82	1701.86
753.00	1765.35
753.18	1722.34
753.35	1665.00
753.53	1652.71
753.71	1611.75
753.89	1742.82
754.07	1722.34
754.25	1708.01
754.43	1687.53
754.61	1591.27
754.79	1714.15
754.97	1761.25
755.14	1732.58
755.32	1640.42
755.50	1738.73
755.68	1693.67
755.86	1759.21
756.04	1671.14
756.22	1615.85
756.40	1802.21
756.57	1775.59
756.75	1640.42
756.93	1794.02
757.11	1800.16
757.29	1644.52
757.47	1603.56
757.65	1636.33
757.82	1634.28
758.00	1681.38
758.18	1705.96
758.36	1673.19
758.54	1697.77
758.72	1595.37
758.90	1779.68
759.07	1693.67
759.25	1744.87
759.43	1738.73
759.61	1603.56
759.79	2228.19
759.97	1697.77
760.15	1669.09
760.32	1644.52
760.50	1669.09
760.68	1798.12
760.86	1617.90
761.04	1773.54
761.22	1742.82
761.39	1693.67
761.57	1781.73
761.75	1710.05
761.93	1714.15
762.11	1644.52
762.28	1720.29
762.46	1652.71
762.64	1624.04
762.82	1771.49
763.00	1654.76
763.18	1763.30
763.35	1658.85
763.53	1650.66
763.71	1689.57
763.89	1703.91
764.07	1767.40
764.24	1683.43
764.42	1734.63
764.60	1710.05
764.78	1757.16
764.96	1730.53
765.13	1708.01
765.31	1671.14
765.49	1740.77
765.67	1656.81
765.84	1699.81
766.02	1689.57
766.20	1619.94
766.38	1685.48
766.56	1675.24
766.73	1736.68
766.91	1665.00
767.09	1697.77
767.27	1716.20
767.44	1652.71
767.62	1675.24
767.80	1726.44
767.98	1748.97
768.15	1701.86
768.33	1804.26
768.51	1761.25
768.69	1681.38
768.87	1753.06
769.04	1675.24
769.22	1789.92
769.40	1849.32
769.58	1781.73
769.75	1665.00
769.93	1824.74
770.11	1566.70
770.28	1630.18
770.46	1738.73
770.64	1763.30
770.82	1751.01
770.99	1677.29
771.17	1720.29
771.35	1771.49
771.53	1728.49
771.70	1726.44
771.88	1677.29
772.06	1687.53
772.23	1734.63
772.41	1710.05
772.59	1699.81
772.77	1697.77
772.94	1662.95
773.12	1697.77
773.30	1697.77
773.47	1636.33
773.65	1648.61
773.83	1742.82
774.01	1660.90
774.18	1568.74
774.36	1697.77
774.54	1607.66
774.71	1767.40
774.89	1568.74
775.07	1626.09
775.24	1650.66
775.42	1738.73
775.60	1767.40
775.78	1685.48
775.95	1550.31
776.13	1640.42
776.31	1550.31
776.48	1673.19
776.66	1806.31
776.84	1718.25
777.01	1685.48
777.19	1669.09
777.37	1746.92
777.54	1671.14
777.72	1923.04
777.90	1773.54
778.07	1626.09
778.25	1886.18
778.43	1710.05
778.60	1714.15
778.78	1699.81
778.96	1673.19
779.13	1576.94
779.31	1775.59
779.49	1736.68
779.66	1660.90
779.84	1665.00
780.01	1693.67
780.19	1656.81
780.37	1724.39
780.54	1773.54
780.72	1648.61
780.90	1695.72
781.07	1724.39
781.25	1642.47
781.43	1724.39
781.60	1708.01
781.78	1800.16
781.95	1658.85
782.13	1697.77
782.31	1712.10
782.48	1564.65
782.66	1667.05
782.83	1755.11
783.01	1748.97
783.19	1798.12
783.36	1671.14
783.54	1624.04
783.72	1796.07
783.89	1693.67
784.07	1744.87
784.24	1810.40
784.42	1746.92
784.60	1751.01
784.77	1740.77
784.95	1562.60
785.12	1640.42
785.30	1697.77
785.47	1705.96
785.65	1636.33
785.83	1712.10
786.00	1597.42
786.18	1691.62
786.35	1630.18
786.53	1634.28
786.71	1722.34
786.88	1730.53
787.06	1656.81
787.23	1691.62
787.41	1640.42
787.58	1599.46
787.76	1640.42
787.94	1677.29
788.11	1685.48
788.29	1601.51
788.46	1705.96
788.64	1673.19
788.81	1683.43
788.99	1705.96
789.16	1617.90
789.34	1681.38
789.52	1712.10
789.69	1636.33
789.87	1576.94
790.04	1730.53
790.22	1652.71
790.39	1814.50
790.57	1681.38
790.74	1634.28
790.92	1771.49
791.09	1597.42
791.27	1669.09
791.44	1777.64
791.62	1687.53
791.79	1718.25
791.97	1708.01
792.15	1853.41
792.32	1708.01
792.50	1781.73
792.67	1755.11
792.85	1759.21
793.02	1724.39
793.20	1687.53
793.37	1726.44
793.55	1728.49
793.72	1644.52
793.90	1681.38
794.07	1728.49
794.25	1626.09
794.42	1689.57
794.60	1705.96
794.77	1734.63
794.95	1800.16
795.12	1703.91
795.30	1726.44
795.47	1619.94
795.65	1923.04
795.82	1748.97
796.00	1652.71
796.17	1771.49
796.34	1658.85
796.52	1691.62
796.69	1812.45
796.87	1720.29
797.04	1701.86
797.22	1779.68
797.39	1710.05
797.57	1775.59
797.74	1701.86
797.92	1738.73
798.09	1665.00
798.27	1730.53
798.44	1806.31
798.62	1732.58
798.79	1701.86
798.96	1685.48
799.14	1648.61
799.31	1822.69
799.49	1613.80
799.66	1685.48
799.84	1640.42
800.01	1621.99
800.19	1689.57
800.36	1628.14
800.53	1677.29
800.71	1751.01
800.88	1765.35
801.06	1658.85
801.23	1669.09
801.41	1632.23
801.58	1675.24
801.75	1705.96
801.93	1751.01
802.10	1771.49
802.28	1726.44
802.45	1630.18
802.63	1794.02
802.80	1728.49
802.97	1697.77
803.15	1755.11
803.32	1609.70
803.50	1611.75
803.67	1683.43
803.84	1660.90
804.02	1671.14
804.19	1650.66
804.37	1640.42
804.54	1583.08
804.71	1730.53
804.89	1691.62
805.06	1671.14
805.24	1644.52
805.41	1634.28
805.58	1636.33
805.76	1703.91
805.93	1712.10
806.10	1789.92
806.28	1732.58
806.45	1736.68
806.63	1755.11
806.80	1650.66
806.97	1761.25
807.15	1679.33
807.32	1671.14
807.49	1689.57
807.67	1658.85
807.84	1703.91
808.01	1619.94
808.19	1794.02
808.36	1794.02
808.54	1626.09
808.71	1675.24
808.88	1738.73
809.06	1748.97
809.23	1800.16
809.40	1693.67
809.58	1765.35
809.75	1673.19
809.92	1652.71
810.10	1824.74
810.27	1656.81
810.44	1740.77
810.62	1753.06
810.79	1691.62
810.96	1669.09
811.14	1683.43
811.31	1761.25
811.48	1732.58
811.66	1687.53
811.83	1789.92
812.00	1679.33
812.18	1697.77
812.35	1802.21
812.52	1746.92
812.69	1648.61
812.87	1683.43
813.04	1687.53
813.21	1679.33
813.39	1617.90
813.56	1587.18
813.73	1716.20
813.91	1665.00
814.08	1705.96
814.25	1748.97
814.42	1636.33
814.60	1695.72
814.77	1796.07
814.94	1738.73
815.12	1652.71
815.29	1775.59
815.46	1648.61
815.63	1675.24
815.81	1665.00
815.98	1687.53
816.15	1714.15
816.33	1773.54
816.50	1681.38
816.67	1675.24
816.84	1771.49
817.02	1605.61
817.19	1654.76
817.36	1740.77
817.53	1767.40
817.71	1613.80
817.88	1681.38
818.05	1681.38
818.22	1673.19
818.40	1800.16
818.57	1642.47
818.74	1843.17
818.91	1699.81
819.09	1730.53
819.26	1810.40
819.43	1681.38
819.60	1710.05
819.78	1738.73
819.95	1839.08
820.12	1675.24
820.29	1787.88
820.47	1710.05
820.64	1705.96
820.81	1665.00
820.98	1607.66
821.15	1636.33
821.33	1775.59
821.50	1621.99
821.67	1796.07
821.84	1617.90
822.02	1785.83
822.19	1804.26
822.36	1671.14
822.53	1697.77
822.70	1640.42
822.88	1697.77
823.05	1751.01
823.22	1685.48
823.39	1806.31
823.56	1619.94
823.74	1804.26
823.91	1699.81
824.08	1699.81
824.25	1646.57
824.42	1769.44
824.60	1626.09
824.77	1675.24
824.94	1714.15
825.11	1738.73
825.28	1595.37
825.45	1775.59
825.63	1732.58
825.80	1689.57
825.97	1679.33
826.14	1652.71
826.31	1619.94
826.48	1736.68
826.66	1671.14
826.83	1730.53
827.00	1681.38
827.17	1693.67
827.34	1785.83
827.51	1695.72
827.69	1638.38
827.86	1634.28
828.03	1705.96
828.20	1701.86
828.37	1656.81
828.54	1660.90
828.71	1611.75
828.89	1830.88
829.06	1695.72
829.23	1798.12
829.40	1683.43
829.57	1621.99
829.74	1718.25
829.91	1681.38
830.09	1609.70
830.26	1691.62
830.43	1777.64
830.60	1732.58
830.77	1724.39
830.94	1853.41
831.11	1636.33
831.28	1665.00
831.46	1742.82
831.63	1730.53
831.80	1677.29
831.97	1609.70
832.14	1640.42
832.31	1800.16
832.48	1699.81
832.65	1765.35
832.82	1671.14
832.99	1724.39
833.17	1589.22
833.34	1783.78
833.51	1708.01
833.68	1609.70
833.85	1665.00
834.02	1589.22
834.19	1628.14
834.36	1603.56
834.53	1730.53
834.70	1738.73
834.87	1783.78
835.04	1787.88
835.22	1665.00
835.39	1656.81
835.56	1548.26
835.73	1718.25
835.90	1650.66
836.07	1650.66
836.24	1720.29
836.41	1695.72
836.58	1652.71
836.75	1648.61
836.92	1763.30
837.09	1669.09
837.26	1710.05
837.43	1624.04
837.60	1738.73
837.77	1677.29
837.94	1751.01
838.12	1736.68
838.29	1746.92
838.46	1544.17
838.63	1640.42
838.80	1828.84
838.97	1736.68
839.14	1675.24
839.31	1650.66
839.48	1742.82
839.65	1650.66
839.82	1744.87
839.99	1724.39
840.16	1660.90
840.33	1679.33
840.50	1740.77
840.67	1683.43
840.84	1646.57
841.01	1759.21
841.18	1675.24
841.35	1685.48
841.52	1712.10
841.69	1785.83
841.86	1767.40
842.03	1644.52
842.20	1652.71
842.37	1701.86
842.54	1695.72
842.71	1699.81
842.88	1619.94
843.05	1728.49
843.22	1703.91
843.39	1705.96
843.56	1699.81
843.73	1798.12
843.90	1652.71
844.07	1716.20
844.24	1748.97
844.41	1763.30
844.58	1746.92
844.75	1705.96
844.92	1675.24
845.09	1742.82
845.26	1572.84
845.43	1714.15
845.60	1656.81
845.77	1658.85
845.94	1710.05
846.10	1654.76
846.27	1636.33
846.44	1613.80
846.61	1708.01
846.78	1746.92
846.95	1728.49
847.12	1609.70
847.29	1712.10
847.46	1587.18
847.63	1701.86
847.80	1677.29
847.97	1728.49
848.14	1789.92
848.31	1724.39
848.48	1611.75
848.65	1705.96
848.82	1650.66
848.98	1800.16
849.15	1748.97
849.32	1701.86
849.49	1746.92
849.66	1730.53
849.83	1656.81
850.00	1611.75
850.17	1742.82
850.34	1658.85
850.51	1689.57
850.68	1621.99
850.85	1875.94
851.01	1710.05
851.18	1691.62
851.35	1656.81
851.52	1656.81
851.69	1732.58
851.86	1578.98
852.03	1685.48
852.20	1695.72
852.37	1630.18
852.53	1656.81
852.70	1656.81
852.87	1695.72
853.04	1837.03
853.21	1740.77
853.38	1660.90
853.55	1765.35
853.72	1732.58
853.89	1621.99
854.05	1624.04
854.22	1714.15
854.39	1714.15
854.56	1671.14
854.73	1789.92
854.90	1656.81
855.07	1744.87
855.23	1689.57
855.40	1675.24
855.57	1689.57
855.74	1587.18
855.91	1845.22
856.08	1609.70
856.25	1677.29
856.41	1683.43
856.58	1718.25
856.75	1724.39
856.92	1693.67
857.09	1759.21
857.26	1624.04
857.42	1703.91
857.59	1814.50
857.76	1681.38
857.93	1738.73
858.10	1808.36
858.27	1648.61
858.43	1720.29
858.60	1626.09
858.77	1667.05
858.94	1687.53
859.11	1662.95
859.27	1574.89
859.44	1693.67
859.61	1824.74
859.78	1714.15
859.95	1662.95
860.12	1699.81
860.28	1769.44
860.45	1892.32
860.62	1738.73
860.79	1675.24
860.95	1689.57
861.12	1667.05
861.29	1687.53
861.46	1701.86
861.63	1732.58
861.79	1720.29
861.96	1669.09
862.13	1699.81
862.30	1779.68
862.47	1624.04
862.63	1660.90
862.80	1837.03
862.97	1685.48
863.14	1665.00
863.30	1726.44
863.47	1714.15
863.64	1843.17
863.81	1714.15
863.97	1683.43
864.14	1718.25
864.31	1654.76
864.48	1720.29
864.65	1701.86
864.81	1681.38
864.98	1689.57
865.15	1824.74
865.32	1712.10
865.48	1716.20
865.65	1806.31
865.82	1675.24
865.98	1662.95
866.15	1681.38
866.32	1734.63
866.49	1757.16
866.65	1775.59
866.82	1669.09
866.99	1728.49
867.16	1642.47
867.32	1609.70
867.49	1736.68
867.66	1658.85
867.83	1710.05
867.99	1507.30
868.16	1705.96
868.33	1667.05
868.49	1705.96
868.66	1687.53
868.83	1740.77
868.99	1718.25
869.16	1681.38
869.33	1798.12
869.50	1732.58
869.66	1769.44
869.83	1697.77
870.00	1646.57
870.16	1781.73
870.33	1656.81
870.50	1695.72
870.66	1726.44
870.83	1763.30
871.00	1695.72
871.17	1765.35
871.33	1761.25
871.50	1646.57
871.67	1673.19
871.83	1722.34
872.00	1783.78
872.17	1599.46
872.33	1769.44
872.50	1763.30
872.67	1701.86
872.83	1681.38
873.00	1640.42
873.17	1734.63
873.33	1693.67
873.50	1708.01
873.67	1695.72
873.83	1640.42
874.00	1718.25
874.16	1777.64
874.33	1699.81
874.50	1624.04
874.66	1656.81
874.83	1712.10
875.00	1767.40
875.16	1789.92
875.33	1816.55
875.50	1585.13
875.66	1685.48
875.83	1751.01
875.99	1751.01
876.16	1722.34
876.33	1683.43
876.49	1660.90
876.66	1734.63
876.83	1679.33
876.99	1576.94
877.16	1697.77
877.32	1636.33
877.49	1701.86
877.66	1767.40
877.82	1722.34
877.99	1712.10
878.15	1804.26
878.32	1714.15
878.49	1654.76
878.65	1738.73
878.82	1687.53
878.98	1644.52
879.15	1789.92
879.32	1775.59
879.48	1642.47
879.65	1619.94
879.81	1673.19
879.98	1718.25
880.15	1681.38
880.31	1767.40
880.48	1677.29
880.64	1675.24
880.81	1701.86
880.97	1800.16
881.14	1771.49
881.31	1613.80
881.47	1849.32
881.64	1644.52
881.80	1599.46
881.97	1724.39
882.13	1726.44
882.30	1671.14
882.47	1632.23
882.63	1722.34
882.80	1689.57
882.96	1712.10
883.13	1820.64
883.29	1712.10
883.46	1658.85
883.62	1775.59
883.79	1744.87
883.95	1697.77
884.12	1656.81
884.29	1710.05
884.45	1701.86
884.62	1773.54
884.78	1624.04
884.95	1761.25
885.11	1669.09
885.28	1722.34
885.44	1662.95
885.61	1642.47
885.77	1736.68
885.94	1728.49
886.10	1683.43
886.27	1804.26
886.43	1791.97
886.60	1779.68
886.76	1675.24
886.93	1703.91
887.09	1726.44
887.26	1566.70
887.42	1708.01
887.59	1718.25
887.75	1828.84
887.92	1751.01
888.08	1718.25
888.25	1755.11
888.41	1757.16
888.58	1654.76
888.74	1689.57
888.91	1644.52
>>>>>End Processed Spectral Data<<<<<
