SpectraSuite Data File
++++++++++++++++++++++++++++++++++++
Date: Mon Jun 06 13:20:37 CEST 2016
User: root
Dark Spectrum Present: No
Reference Spectrum Present: No
Number of Sampled Component Spectra: 1
Spectrometers: USB4C02835
Integration Time (usec): 100000 (USB4C02835)
Spectra Averaged: 1 (USB4C02835)
Boxcar Smoothing: 0 (USB4C02835)
Correct for Electrical Dark: No (USB4C02835)
Strobe/Lamp Enabled: No (USB4C02835)
Correct for Detector Non-linearity: No (USB4C02835)
Correct for Stray Light: No (USB4C02835)
Number of Pixels in Processed Spectrum: 3648
>>>>>Begin Processed Spectral Data<<<<<
177.47	1515.50
177.69	1515.50
177.91	1515.50
178.13	1552.36
178.36	1495.02
178.58	1675.24
178.80	1769.44
179.02	1642.47
179.24	1628.14
179.46	1656.81
179.68	1740.77
179.90	1718.25
180.13	1724.39
180.35	1642.47
180.57	1701.86
180.79	1722.34
181.01	1753.06
181.23	1767.40
181.45	1738.73
181.67	1763.30
181.90	1708.01
182.12	1615.85
182.34	1601.51
182.56	1726.44
182.78	1689.57
183.00	1759.21
183.22	1740.77
183.44	1607.66
183.66	1914.85
183.89	1857.51
184.11	1701.86
184.33	1671.14
184.55	1740.77
184.77	1656.81
184.99	1718.25
185.21	1638.38
185.43	1941.47
185.65	1671.14
185.87	1673.19
186.10	1828.84
186.32	1777.64
186.54	1703.91
186.76	1730.53
186.98	1718.25
187.20	1646.57
187.42	1679.33
187.64	1699.81
187.86	1683.43
188.08	1726.44
188.30	1677.29
188.52	1683.43
188.75	1740.77
188.97	1759.21
189.19	1613.80
189.41	1714.15
189.63	1740.77
189.85	1787.88
190.07	1558.50
190.29	1617.90
190.51	1662.95
190.73	1677.29
190.95	1814.50
191.17	1683.43
191.39	1597.42
191.61	1722.34
191.84	1722.34
192.06	1640.42
192.28	1595.37
192.50	1857.51
192.72	1722.34
192.94	1675.24
193.16	1791.97
193.38	1734.63
193.60	1568.74
193.82	1634.28
194.04	1767.40
194.26	1665.00
194.48	1669.09
194.70	1673.19
194.92	1703.91
195.14	1767.40
195.36	1714.15
195.58	1665.00
195.80	1679.33
196.02	1665.00
196.24	1681.38
196.46	1677.29
196.69	1703.91
196.91	1767.40
197.13	1703.91
197.35	1701.86
197.57	1755.11
197.79	1736.68
198.01	1650.66
198.23	1773.54
198.45	1718.25
198.67	1587.18
198.89	1632.23
199.11	1787.88
199.33	1630.18
199.55	1576.94
199.77	1675.24
199.99	1759.21
200.21	1722.34
200.43	1728.49
200.65	1656.81
200.87	1636.33
201.09	1662.95
201.31	1697.77
201.53	1771.49
201.75	1671.14
201.97	1679.33
202.19	1671.14
202.41	1712.10
202.63	1837.03
202.85	1714.15
203.07	1718.25
203.29	1609.70
203.51	1638.38
203.73	1699.81
203.95	1853.41
204.17	1693.67
204.39	1746.92
204.61	1738.73
204.83	1697.77
205.05	1763.30
205.27	1720.29
205.49	1814.50
205.71	1705.96
205.93	1644.52
206.15	1693.67
206.37	1691.62
206.59	1677.29
206.81	1593.32
207.03	1652.71
207.25	1595.37
207.47	1755.11
207.69	1628.14
207.91	1791.97
208.13	1783.78
208.34	1689.57
208.56	1642.47
208.78	1765.35
209.00	1656.81
209.22	1646.57
209.44	1646.57
209.66	1658.85
209.88	1648.61
210.10	1656.81
210.32	1689.57
210.54	1783.78
210.76	1775.59
210.98	1742.82
211.20	1583.08
211.42	1720.29
211.64	1802.21
211.86	1722.34
212.08	1681.38
212.30	1669.09
212.52	1652.71
212.74	1732.58
212.96	1800.16
213.17	1726.44
213.39	1687.53
213.61	1738.73
213.83	1765.35
214.05	1626.09
214.27	1703.91
214.49	1656.81
214.71	1705.96
214.93	1693.67
215.15	1669.09
215.37	1738.73
215.59	1660.90
215.81	1738.73
216.03	1685.48
216.24	1726.44
216.46	1730.53
216.68	1710.05
216.90	1855.46
217.12	1810.40
217.34	1753.06
217.56	1765.35
217.78	1753.06
218.00	1685.48
218.22	1665.00
218.44	1796.07
218.66	1701.86
218.87	1695.72
219.09	1697.77
219.31	1685.48
219.53	1791.97
219.75	1601.51
219.97	1705.96
220.19	1734.63
220.41	1732.58
220.63	1791.97
220.85	1665.00
221.06	1751.01
221.28	1769.44
221.50	1765.35
221.72	1693.67
221.94	1689.57
222.16	1710.05
222.38	1716.20
222.60	1800.16
222.82	1716.20
223.03	1693.67
223.25	1677.29
223.47	1712.10
223.69	1806.31
223.91	1734.63
224.13	1757.16
224.35	1648.61
224.57	1720.29
224.78	1773.54
225.00	1726.44
225.22	1769.44
225.44	1701.86
225.66	1740.77
225.88	1763.30
226.10	1824.74
226.32	1769.44
226.53	1716.20
226.75	1634.28
226.97	1705.96
227.19	1677.29
227.41	1685.48
227.63	1662.95
227.85	1597.42
228.06	1697.77
228.28	1665.00
228.50	1716.20
228.72	1624.04
228.94	1691.62
229.16	1583.08
229.37	1708.01
229.59	1665.00
229.81	1775.59
230.03	1695.72
230.25	1640.42
230.47	1675.24
230.69	1634.28
230.90	1714.15
231.12	1665.00
231.34	1730.53
231.56	1777.64
231.78	1599.46
232.00	1718.25
232.21	1742.82
232.43	1722.34
232.65	1589.22
232.87	1732.58
233.09	1667.05
233.30	1660.90
233.52	1730.53
233.74	1667.05
233.96	1677.29
234.18	1654.76
234.40	1703.91
234.61	1779.68
234.83	1615.85
235.05	1632.23
235.27	1851.36
235.49	1812.45
235.70	1675.24
235.92	1849.32
236.14	1722.34
236.36	1820.64
236.58	1642.47
236.79	1708.01
237.01	1667.05
237.23	1658.85
237.45	1742.82
237.67	1648.61
237.88	1783.78
238.10	1843.17
238.32	1656.81
238.54	1773.54
238.76	1763.30
238.97	1609.70
239.19	1640.42
239.41	1755.11
239.63	1777.64
239.85	1718.25
240.06	1624.04
240.28	1658.85
240.50	1697.77
240.72	1673.19
240.93	1708.01
241.15	1787.88
241.37	1712.10
241.59	1804.26
241.81	1734.63
242.02	1650.66
242.24	1716.20
242.46	1667.05
242.68	1619.94
242.89	1712.10
243.11	1748.97
243.33	1691.62
243.55	1693.67
243.76	1724.39
243.98	1689.57
244.20	1697.77
244.42	1699.81
244.64	1693.67
244.85	1630.18
245.07	1701.86
245.29	1701.86
245.51	1740.77
245.72	1720.29
245.94	1673.19
246.16	1714.15
246.38	1710.05
246.59	1683.43
246.81	1650.66
247.03	1718.25
247.24	1591.27
247.46	1665.00
247.68	1615.85
247.90	1683.43
248.11	1572.84
248.33	1734.63
248.55	1679.33
248.77	1746.92
248.98	1763.30
249.20	1714.15
249.42	1673.19
249.64	1626.09
249.85	1683.43
250.07	1705.96
250.29	1679.33
250.50	1744.87
250.72	1603.56
250.94	1742.82
251.16	1804.26
251.37	1800.16
251.59	1736.68
251.81	1695.72
252.02	1726.44
252.24	1693.67
252.46	1824.74
252.68	1609.70
252.89	1654.76
253.11	1605.61
253.33	1740.77
253.54	1761.25
253.76	1605.61
253.98	1710.05
254.20	1708.01
254.41	1644.52
254.63	1791.97
254.85	1660.90
255.06	1656.81
255.28	1748.97
255.50	1710.05
255.71	1599.46
255.93	1605.61
256.15	1705.96
256.36	1718.25
256.58	1644.52
256.80	1742.82
257.02	1662.95
257.23	1564.65
257.45	1718.25
257.67	1763.30
257.88	1665.00
258.10	1757.16
258.32	1697.77
258.53	1683.43
258.75	1732.58
258.97	1642.47
259.18	1705.96
259.40	1675.24
259.62	1730.53
259.83	1861.60
260.05	1701.86
260.27	1845.22
260.48	1708.01
260.70	1632.23
260.92	1722.34
261.13	1705.96
261.35	1697.77
261.57	1624.04
261.78	1583.08
262.00	1679.33
262.22	1742.82
262.43	1710.05
262.65	1644.52
262.86	1708.01
263.08	1806.31
263.30	1703.91
263.51	1603.56
263.73	1632.23
263.95	1724.39
264.16	1677.29
264.38	1669.09
264.60	1734.63
264.81	1710.05
265.03	1695.72
265.25	1796.07
265.46	1681.38
265.68	1779.68
265.89	1746.92
266.11	1615.85
266.33	1757.16
266.54	1818.60
266.76	1804.26
266.98	1730.53
267.19	1804.26
267.41	1728.49
267.62	1689.57
267.84	1552.36
268.06	1689.57
268.27	1746.92
268.49	1810.40
268.70	1763.30
268.92	1693.67
269.14	1621.99
269.35	1578.98
269.57	1720.29
269.79	1763.30
270.00	1710.05
270.22	1814.50
270.43	1603.56
270.65	1562.60
270.87	1646.57
271.08	1746.92
271.30	1671.14
271.51	1656.81
271.73	1718.25
271.95	1777.64
272.16	1716.20
272.38	1689.57
272.59	1681.38
272.81	1677.29
273.02	1730.53
273.24	1794.02
273.46	1722.34
273.67	1638.38
273.89	1732.58
274.10	1726.44
274.32	1796.07
274.54	1796.07
274.75	1763.30
274.97	1636.33
275.18	1699.81
275.40	1767.40
275.61	1695.72
275.83	1751.01
276.05	1581.03
276.26	1662.95
276.48	1667.05
276.69	1705.96
276.91	1695.72
277.12	1812.45
277.34	1738.73
277.55	1712.10
277.77	1654.76
277.99	1691.62
278.20	1640.42
278.42	1607.66
278.63	1703.91
278.85	1650.66
279.06	1593.32
279.28	1660.90
279.49	1826.79
279.71	1759.21
279.93	1697.77
280.14	1728.49
280.36	1662.95
280.57	1757.16
280.79	1724.39
281.00	1665.00
281.22	1613.80
281.43	1755.11
281.65	1578.98
281.86	1640.42
282.08	1783.78
282.29	1757.16
282.51	1574.89
282.73	1644.52
282.94	1603.56
283.16	1716.20
283.37	1826.79
283.59	1751.01
283.80	1746.92
284.02	1708.01
284.23	1757.16
284.45	1671.14
284.66	1587.18
284.88	1763.30
285.09	1722.34
285.31	1779.68
285.52	1697.77
285.74	1615.85
285.95	1740.77
286.17	1679.33
286.38	1751.01
286.60	1665.00
286.81	1658.85
287.03	1705.96
287.24	1751.01
287.46	1834.98
287.67	1656.81
287.89	1775.59
288.10	1650.66
288.32	1683.43
288.53	1810.40
288.75	1642.47
288.96	1744.87
289.18	1710.05
289.39	1712.10
289.61	1734.63
289.82	1812.45
290.04	1802.21
290.25	1648.61
290.47	1736.68
290.68	1693.67
290.90	1755.11
291.11	1658.85
291.33	1714.15
291.54	1628.14
291.76	1759.21
291.97	1699.81
292.18	1710.05
292.40	1761.25
292.61	1644.52
292.83	1791.97
293.04	1695.72
293.26	1685.48
293.47	1746.92
293.69	1650.66
293.90	1699.81
294.12	1783.78
294.33	1617.90
294.55	1730.53
294.76	1742.82
294.97	1720.29
295.19	1806.31
295.40	1744.87
295.62	1759.21
295.83	1753.06
296.05	1648.61
296.26	1740.77
296.48	1583.08
296.69	1681.38
296.90	1677.29
297.12	1740.77
297.33	1751.01
297.55	1740.77
297.76	1773.54
297.98	1757.16
298.19	1705.96
298.41	1615.85
298.62	1642.47
298.83	1779.68
299.05	1693.67
299.26	1701.86
299.48	1724.39
299.69	1695.72
299.90	1642.47
300.12	1648.61
300.33	1691.62
300.55	1730.53
300.76	1753.06
300.98	1675.24
301.19	1677.29
301.40	1714.15
301.62	1693.67
301.83	1662.95
302.05	1644.52
302.26	1736.68
302.47	1720.29
302.69	1626.09
302.90	1632.23
303.12	1615.85
303.33	1755.11
303.54	1830.88
303.76	1695.72
303.97	1662.95
304.19	1787.88
304.40	1714.15
304.61	1730.53
304.83	1820.64
305.04	1771.49
305.26	1681.38
305.47	1650.66
305.68	1634.28
305.90	1650.66
306.11	1734.63
306.33	1654.76
306.54	1673.19
306.75	1607.66
306.97	1673.19
307.18	1675.24
307.39	1705.96
307.61	1742.82
307.82	1656.81
308.04	1742.82
308.25	1652.71
308.46	1718.25
308.68	1687.53
308.89	1687.53
309.10	1787.88
309.32	1662.95
309.53	1720.29
309.74	1771.49
309.96	1650.66
310.17	1728.49
310.39	1705.96
310.60	1669.09
310.81	1722.34
311.03	1601.51
311.24	1734.63
311.45	1812.45
311.67	1796.07
311.88	1689.57
312.09	1685.48
312.31	1660.90
312.52	1644.52
312.73	1714.15
312.95	1677.29
313.16	1583.08
313.37	1783.78
313.59	1767.40
313.80	1769.44
314.01	1777.64
314.23	1677.29
314.44	1697.77
314.65	1634.28
314.87	1656.81
315.08	1673.19
315.29	1673.19
315.51	1665.00
315.72	1621.99
315.93	1843.17
316.15	1705.96
316.36	1705.96
316.57	1726.44
316.79	1779.68
317.00	1724.39
317.21	1730.53
317.43	1662.95
317.64	1654.76
317.85	1705.96
318.07	1726.44
318.28	1648.61
318.49	1759.21
318.70	1861.60
318.92	1798.12
319.13	1802.21
319.34	1730.53
319.56	1822.69
319.77	1812.45
319.98	1777.64
320.20	1816.55
320.41	1746.92
320.62	1685.48
320.83	1683.43
321.05	1775.59
321.26	1769.44
321.47	1638.38
321.69	1787.88
321.90	1607.66
322.11	1691.62
322.32	1669.09
322.54	1718.25
322.75	1693.67
322.96	1789.92
323.18	1677.29
323.39	1648.61
323.60	1636.33
323.81	1726.44
324.03	1675.24
324.24	1630.18
324.45	1720.29
324.66	1695.72
324.88	1710.05
325.09	1738.73
325.30	1699.81
325.52	1650.66
325.73	1677.29
325.94	1689.57
326.15	1591.27
326.37	1675.24
326.58	1697.77
326.79	1777.64
327.00	1619.94
327.22	1665.00
327.43	1630.18
327.64	1632.23
327.85	1714.15
328.07	1685.48
328.28	1791.97
328.49	1650.66
328.70	1765.35
328.92	1800.16
329.13	1736.68
329.34	1619.94
329.55	1853.41
329.76	1695.72
329.98	1654.76
330.19	1787.88
330.40	1689.57
330.61	1658.85
330.83	1722.34
331.04	1638.38
331.25	1662.95
331.46	1710.05
331.68	1701.86
331.89	1767.40
332.10	1677.29
332.31	1613.80
332.52	1654.76
332.74	1748.97
332.95	1650.66
333.16	1685.48
333.37	1730.53
333.58	1703.91
333.80	1646.57
334.01	1638.38
334.22	1671.14
334.43	1740.77
334.64	1697.77
334.86	1624.04
335.07	1671.14
335.28	1812.45
335.49	1591.27
335.70	1757.16
335.92	1746.92
336.13	1851.36
336.34	1759.21
336.55	1759.21
336.76	1718.25
336.98	1558.50
337.19	1712.10
337.40	1810.40
337.61	1841.12
337.82	1738.73
338.04	1759.21
338.25	1697.77
338.46	1771.49
338.67	1685.48
338.88	1642.47
339.09	1695.72
339.31	1646.57
339.52	1607.66
339.73	1669.09
339.94	1699.81
340.15	1742.82
340.36	1652.71
340.58	1724.39
340.79	1675.24
341.00	1710.05
341.21	1626.09
341.42	1830.88
341.63	1662.95
341.85	1679.33
342.06	1755.11
342.27	1646.57
342.48	1794.02
342.69	1654.76
342.90	1718.25
343.12	1734.63
343.33	1740.77
343.54	1732.58
343.75	1730.53
343.96	1710.05
344.17	1689.57
344.38	1626.09
344.60	1646.57
344.81	1652.71
345.02	1751.01
345.23	1732.58
345.44	1785.83
345.65	1773.54
345.86	1724.39
346.07	1611.75
346.29	1775.59
346.50	1771.49
346.71	1724.39
346.92	1689.57
347.13	1812.45
347.34	1693.67
347.55	1730.53
347.76	1640.42
347.98	1642.47
348.19	1673.19
348.40	1781.73
348.61	1695.72
348.82	1800.16
349.03	1665.00
349.24	1691.62
349.45	1736.68
349.66	1597.42
349.88	1673.19
350.09	1681.38
350.30	1814.50
350.51	1773.54
350.72	1738.73
350.93	1642.47
351.14	1638.38
351.35	1730.53
351.56	1650.66
351.77	1650.66
351.99	1630.18
352.20	1828.84
352.41	1708.01
352.62	1609.70
352.83	1632.23
353.04	1691.62
353.25	1646.57
353.46	1757.16
353.67	1767.40
353.88	1593.32
354.09	1628.14
354.30	1691.62
354.52	1693.67
354.73	1669.09
354.94	1656.81
355.15	1730.53
355.36	1742.82
355.57	1642.47
355.78	1714.15
355.99	1626.09
356.20	1710.05
356.41	1746.92
356.62	1683.43
356.83	1765.35
357.04	1712.10
357.25	1667.05
357.46	1644.52
357.68	1640.42
357.89	1644.52
358.10	1705.96
358.31	1693.67
358.52	1642.47
358.73	1722.34
358.94	1611.75
359.15	1613.80
359.36	1716.20
359.57	1736.68
359.78	1673.19
359.99	1679.33
360.20	1642.47
360.41	1669.09
360.62	1718.25
360.83	1603.56
361.04	1636.33
361.25	1740.77
361.46	1804.26
361.67	1687.53
361.88	1685.48
362.09	1689.57
362.30	1732.58
362.51	1695.72
362.72	1755.11
362.93	1804.26
363.14	1708.01
363.35	1710.05
363.56	1669.09
363.78	1791.97
363.99	1755.11
364.20	1710.05
364.41	1734.63
364.62	1898.47
364.83	1607.66
365.04	1701.86
365.25	1611.75
365.46	1816.55
365.67	1644.52
365.88	1632.23
366.09	1687.53
366.30	1685.48
366.51	1665.00
366.72	1576.94
366.93	1705.96
367.14	1697.77
367.35	1804.26
367.56	1677.29
367.77	1771.49
367.98	1677.29
368.18	1759.21
368.39	1712.10
368.60	1605.61
368.81	1714.15
369.02	1699.81
369.23	1642.47
369.44	1617.90
369.65	1613.80
369.86	1724.39
370.07	1765.35
370.28	1650.66
370.49	1718.25
370.70	1773.54
370.91	1638.38
371.12	1630.18
371.33	1785.83
371.54	1642.47
371.75	1703.91
371.96	1638.38
372.17	1652.71
372.38	1607.66
372.59	1773.54
372.80	1603.56
373.01	1730.53
373.22	1736.68
373.43	1662.95
373.64	1665.00
373.85	1777.64
374.06	1738.73
374.26	1730.53
374.47	1755.11
374.68	1759.21
374.89	1695.72
375.10	1705.96
375.31	1812.45
375.52	1691.62
375.73	1763.30
375.94	1607.66
376.15	1773.54
376.36	1667.05
376.57	1689.57
376.78	1720.29
376.99	1685.48
377.20	1699.81
377.40	1701.86
377.61	1763.30
377.82	1632.23
378.03	1789.92
378.24	1667.05
378.45	1693.67
378.66	1710.05
378.87	1533.93
379.08	1599.46
379.29	1642.47
379.50	1730.53
379.71	1736.68
379.91	1689.57
380.12	1621.99
380.33	1675.24
380.54	1701.86
380.75	1646.57
380.96	1687.53
381.17	1705.96
381.38	1718.25
381.59	1748.97
381.80	1716.20
382.00	1828.84
382.21	1703.91
382.42	1832.93
382.63	1865.70
382.84	1771.49
383.05	1759.21
383.26	1742.82
383.47	1712.10
383.68	1728.49
383.88	1734.63
384.09	1714.15
384.30	1822.69
384.51	1681.38
384.72	1632.23
384.93	1621.99
385.14	1730.53
385.35	1720.29
385.55	1683.43
385.76	1757.16
385.97	1695.72
386.18	1634.28
386.39	1660.90
386.60	1599.46
386.81	1777.64
387.02	1667.05
387.22	1609.70
387.43	1806.31
387.64	1828.84
387.85	1877.99
388.06	2248.67
388.27	4329.41
388.48	6825.88
388.68	8189.83
388.89	9623.41
389.10	9908.07
389.31	8705.92
389.52	7399.31
389.73	6776.73
389.93	6092.71
390.14	5760.94
390.35	5169.07
390.56	4652.98
390.77	3764.17
390.98	2981.84
391.18	2514.91
391.39	2101.22
391.60	1861.60
391.81	1851.36
392.02	1748.97
392.23	1865.70
392.43	1673.19
392.64	1851.36
392.85	1665.00
393.06	1714.15
393.27	1757.16
393.47	1718.25
393.68	1714.15
393.89	1644.52
394.10	1732.58
394.31	1732.58
394.52	1646.57
394.72	1681.38
394.93	1822.69
395.14	1705.96
395.35	1765.35
395.56	1687.53
395.76	1796.07
395.97	1828.84
396.18	1830.88
396.39	1843.17
396.60	2090.98
396.80	1898.47
397.01	1832.93
397.22	1865.70
397.43	1875.94
397.64	1738.73
397.84	1789.92
398.05	1765.35
398.26	1734.63
398.47	1753.06
398.67	1691.62
398.88	1652.71
399.09	1685.48
399.30	1720.29
399.51	1757.16
399.71	1552.36
399.92	1705.96
400.13	1751.01
400.34	1699.81
400.54	1626.09
400.75	1759.21
400.96	1705.96
401.17	1794.02
401.37	1742.82
401.58	1691.62
401.79	1697.77
402.00	1863.65
402.21	1972.19
402.41	1986.53
402.62	1966.05
402.83	2009.06
403.04	2035.68
403.24	1990.63
403.45	1849.32
403.66	1933.28
403.87	1847.27
404.07	1951.71
404.28	1894.37
404.49	1787.88
404.70	1767.40
404.90	1830.88
405.11	1759.21
405.32	1712.10
405.52	1683.43
405.73	1660.90
405.94	1708.01
406.15	1753.06
406.35	1685.48
406.56	1685.48
406.77	1806.31
406.98	1675.24
407.18	1642.47
407.39	1837.03
407.60	1581.03
407.80	1779.68
408.01	1601.51
408.22	1714.15
408.43	1621.99
408.63	1765.35
408.84	1849.32
409.05	1845.22
409.25	1611.75
409.46	1716.20
409.67	1730.53
409.88	1708.01
410.08	1705.96
410.29	1671.14
410.50	1673.19
410.70	1697.77
410.91	1636.33
411.12	1722.34
411.32	1634.28
411.53	1689.57
411.74	1832.93
411.95	1759.21
412.15	1671.14
412.36	1800.16
412.57	1753.06
412.77	1800.16
412.98	1714.15
413.19	1765.35
413.39	1808.36
413.60	1785.83
413.81	1814.50
414.01	1648.61
414.22	1738.73
414.43	1662.95
414.63	1667.05
414.84	1755.11
415.05	1648.61
415.25	1636.33
415.46	1671.14
415.67	1730.53
415.87	1779.68
416.08	1656.81
416.29	1665.00
416.49	1714.15
416.70	1578.98
416.91	1695.72
417.11	1693.67
417.32	1718.25
417.53	1755.11
417.73	1728.49
417.94	1724.39
418.15	1740.77
418.35	1675.24
418.56	1699.81
418.77	1927.14
418.97	1667.05
419.18	1681.38
419.38	1578.98
419.59	1746.92
419.80	1822.69
420.00	1660.90
420.21	1720.29
420.42	1720.29
420.62	1746.92
420.83	1587.18
421.04	1740.77
421.24	1636.33
421.45	1724.39
421.65	1798.12
421.86	1621.99
422.07	1740.77
422.27	1738.73
422.48	1736.68
422.69	1665.00
422.89	1626.09
423.10	1710.05
423.30	1613.80
423.51	1681.38
423.72	1660.90
423.92	1701.86
424.13	1660.90
424.33	1673.19
424.54	1722.34
424.75	1738.73
424.95	1855.46
425.16	1796.07
425.36	1691.62
425.57	1736.68
425.78	1689.57
425.98	1763.30
426.19	1673.19
426.39	1658.85
426.60	1646.57
426.81	1794.02
427.01	1800.16
427.22	1726.44
427.42	1648.61
427.63	1638.38
427.83	1728.49
428.04	1767.40
428.25	1783.78
428.45	1775.59
428.66	1728.49
428.86	1742.82
429.07	1687.53
429.28	1691.62
429.48	1687.53
429.69	1673.19
429.89	1691.62
430.10	1617.90
430.30	1689.57
430.51	1763.30
430.71	1632.23
430.92	1724.39
431.13	1755.11
431.33	1732.58
431.54	1660.90
431.74	1787.88
431.95	1845.22
432.15	1599.46
432.36	1726.44
432.56	1765.35
432.77	1730.53
432.98	1728.49
433.18	1771.49
433.39	1708.01
433.59	1687.53
433.80	1800.16
434.00	1775.59
434.21	1681.38
434.41	1673.19
434.62	1839.08
434.82	1660.90
435.03	1615.85
435.23	1734.63
435.44	1603.56
435.64	1771.49
435.85	1648.61
436.06	1810.40
436.26	1708.01
436.47	1701.86
436.67	1660.90
436.88	1693.67
437.08	1796.07
437.29	1851.36
437.49	1689.57
437.70	1742.82
437.90	1574.89
438.11	1808.36
438.31	1816.55
438.52	1806.31
438.72	1820.64
438.93	1880.04
439.13	1812.45
439.34	1746.92
439.54	1746.92
439.75	1798.12
439.95	1720.29
440.16	1722.34
440.36	1710.05
440.57	1697.77
440.77	1763.30
440.98	1740.77
441.18	1787.88
441.39	1656.81
441.59	1662.95
441.80	1834.98
442.00	1746.92
442.21	1812.45
442.41	1712.10
442.62	1794.02
442.82	1665.00
443.02	1726.44
443.23	1744.87
443.43	1734.63
443.64	1746.92
443.84	1691.62
444.05	1748.97
444.25	1736.68
444.46	1732.58
444.66	1738.73
444.87	1757.16
445.07	1681.38
445.28	1757.16
445.48	1855.46
445.69	1828.84
445.89	1832.93
446.09	1746.92
446.30	2072.54
446.50	2623.45
446.71	3596.23
446.91	4329.41
447.12	4667.32
447.32	4790.20
447.53	4464.57
447.73	3848.13
447.93	3540.94
448.14	3303.37
448.34	3168.21
448.55	2906.07
448.75	2801.62
448.96	2697.17
449.16	2338.78
449.36	2224.09
449.57	2031.58
449.77	1896.42
449.98	1767.40
450.18	1808.36
450.39	1798.12
450.59	1796.07
450.79	1728.49
451.00	1687.53
451.20	1763.30
451.41	1767.40
451.61	1746.92
451.81	1724.39
452.02	1648.61
452.22	1695.72
452.43	1667.05
452.63	1775.59
452.84	1716.20
453.04	1665.00
453.24	1814.50
453.45	1681.38
453.65	1720.29
453.86	1748.97
454.06	1703.91
454.26	1738.73
454.47	1691.62
454.67	1759.21
454.87	1724.39
455.08	1722.34
455.28	1822.69
455.49	1789.92
455.69	1595.37
455.89	1882.08
456.10	1728.49
456.30	1726.44
456.51	1787.88
456.71	1779.68
456.91	1714.15
457.12	1710.05
457.32	1679.33
457.52	1718.25
457.73	1757.16
457.93	1746.92
458.14	1724.39
458.34	1669.09
458.54	1763.30
458.75	1662.95
458.95	1724.39
459.15	1748.97
459.36	1761.25
459.56	1757.16
459.76	1935.33
459.97	1740.77
460.17	1738.73
460.37	1779.68
460.58	1753.06
460.78	1832.93
460.99	1673.19
461.19	1816.55
461.39	1701.86
461.60	1654.76
461.80	1779.68
462.00	1634.28
462.21	1710.05
462.41	1658.85
462.61	1726.44
462.82	1591.27
463.02	1775.59
463.22	1714.15
463.43	1757.16
463.63	1820.64
463.83	1722.34
464.04	1779.68
464.24	1626.09
464.44	1667.05
464.64	1740.77
464.85	1716.20
465.05	1789.92
465.25	1769.44
465.46	1677.29
465.66	1722.34
465.86	1705.96
466.07	1722.34
466.27	1759.21
466.47	1601.51
466.68	1689.57
466.88	1753.06
467.08	1787.88
467.29	1865.70
467.49	1777.64
467.69	1720.29
467.89	1751.01
468.10	1705.96
468.30	1763.30
468.50	1748.97
468.71	1773.54
468.91	1660.90
469.11	1820.64
469.31	1794.02
469.52	1763.30
469.72	1777.64
469.92	1849.32
470.13	1687.53
470.33	1712.10
470.53	1775.59
470.73	2095.07
470.94	2301.92
471.14	2361.31
471.34	2447.32
471.54	2392.03
471.75	2260.96
471.95	2146.27
472.15	2088.93
472.36	2136.03
472.56	2045.92
472.76	1990.63
472.96	1984.48
473.17	1961.95
473.37	1951.71
473.57	1761.25
473.77	1843.17
473.98	1779.68
474.18	1658.85
474.38	1847.27
474.58	1634.28
474.79	1665.00
474.99	1800.16
475.19	1845.22
475.39	1652.71
475.60	1681.38
475.80	1665.00
476.00	1742.82
476.20	1691.62
476.41	1708.01
476.61	1763.30
476.81	1789.92
477.01	1656.81
477.21	1806.31
477.42	1769.44
477.62	1638.38
477.82	1732.58
478.02	1753.06
478.23	1736.68
478.43	1630.18
478.63	1693.67
478.83	1662.95
479.03	1701.86
479.24	1781.73
479.44	1798.12
479.64	1689.57
479.84	1714.15
480.04	1626.09
480.25	1781.73
480.45	1667.05
480.65	1646.57
480.85	1824.74
481.06	1660.90
481.26	1746.92
481.46	1755.11
481.66	1712.10
481.86	1681.38
482.06	1777.64
482.27	1708.01
482.47	1683.43
482.67	1742.82
482.87	1683.43
483.07	1826.79
483.28	1714.15
483.48	1624.04
483.68	1701.86
483.88	1671.14
484.08	1619.94
484.29	1660.90
484.49	1669.09
484.69	1642.47
484.89	1738.73
485.09	1734.63
485.29	1773.54
485.50	1728.49
485.70	1726.44
485.90	1796.07
486.10	1685.48
486.30	1714.15
486.50	1738.73
486.71	1652.71
486.91	1800.16
487.11	1814.50
487.31	1697.77
487.51	1681.38
487.71	1728.49
487.91	1568.74
488.12	1662.95
488.32	1576.94
488.52	1673.19
488.72	1611.75
488.92	1644.52
489.12	1863.65
489.32	1781.73
489.53	1738.73
489.73	1677.29
489.93	1765.35
490.13	1669.09
490.33	1615.85
490.53	1689.57
490.73	1759.21
490.94	1683.43
491.14	1734.63
491.34	1857.51
491.54	2090.98
491.74	2600.92
491.94	2856.92
492.14	3008.47
492.34	3028.95
492.54	2693.08
492.75	2590.68
492.95	2451.42
493.15	2316.25
493.35	2293.72
493.55	2213.85
493.75	2201.57
493.95	2146.27
494.15	2062.30
494.35	1918.95
494.56	1853.41
494.76	1789.92
494.96	1769.44
495.16	1814.50
495.36	1775.59
495.56	1785.83
495.76	1701.86
495.96	1638.38
496.16	1685.48
496.36	1810.40
496.56	1705.96
496.77	1746.92
496.97	1744.87
497.17	1746.92
497.37	1681.38
497.57	1712.10
497.77	1714.15
497.97	1689.57
498.17	1671.14
498.37	1669.09
498.57	1787.88
498.77	1716.20
498.97	1632.23
499.17	1773.54
499.38	1644.52
499.58	1789.92
499.78	1855.46
499.98	1824.74
500.18	1771.49
500.38	1730.53
500.58	1904.61
500.78	2633.69
500.98	4505.53
501.18	5873.57
501.38	6913.94
501.58	7116.69
501.78	6682.52
501.98	5468.08
502.18	5105.59
502.38	4396.99
502.58	4122.56
502.78	3827.65
502.98	3706.82
503.18	3373.00
503.38	3055.57
503.59	2770.90
503.79	2590.68
503.99	2424.80
504.19	2295.77
504.39	2263.01
504.59	2152.42
504.79	2136.03
504.99	2078.69
505.19	1865.70
505.39	1834.98
505.59	1937.38
505.79	1837.03
505.99	1877.99
506.19	1781.73
506.39	1927.14
506.59	1710.05
506.79	1753.06
506.99	1820.64
507.19	1759.21
507.39	1791.97
507.59	1626.09
507.79	1681.38
507.99	1699.81
508.19	1730.53
508.39	1718.25
508.59	1644.52
508.79	1800.16
508.99	1863.65
509.19	1665.00
509.39	1791.97
509.59	1581.03
509.79	1652.71
509.99	1738.73
510.19	1814.50
510.39	1779.68
510.59	1714.15
510.79	1730.53
510.99	1593.32
511.19	1710.05
511.39	1890.28
511.59	1740.77
511.79	1824.74
511.99	1650.66
512.19	1757.16
512.38	1771.49
512.58	1689.57
512.78	1722.34
512.98	1761.25
513.18	1796.07
513.38	1658.85
513.58	1724.39
513.78	1642.47
513.98	1665.00
514.18	1695.72
514.38	1785.83
514.58	1748.97
514.78	1644.52
514.98	1722.34
515.18	1730.53
515.38	1632.23
515.58	1806.31
515.78	1730.53
515.98	1785.83
516.18	1736.68
516.38	1812.45
516.57	1761.25
516.77	1724.39
516.97	1763.30
517.17	1642.47
517.37	1603.56
517.57	1775.59
517.77	1665.00
517.97	1734.63
518.17	1779.68
518.37	1732.58
518.57	1712.10
518.77	1726.44
518.97	1763.30
519.16	1632.23
519.36	1787.88
519.56	1705.96
519.76	1734.63
519.96	1708.01
520.16	1857.51
520.36	1726.44
520.56	1716.20
520.76	1746.92
520.96	1742.82
521.16	1736.68
521.35	1841.12
521.55	1808.36
521.75	1738.73
521.95	1789.92
522.15	1667.05
522.35	1675.24
522.55	1685.48
522.75	1757.16
522.95	1665.00
523.14	1712.10
523.34	1755.11
523.54	1710.05
523.74	1783.78
523.94	1730.53
524.14	1609.70
524.34	1710.05
524.54	1859.56
524.73	1677.29
524.93	1746.92
525.13	1816.55
525.33	1646.57
525.53	1906.66
525.73	1755.11
525.93	1759.21
526.13	1695.72
526.32	1767.40
526.52	1847.27
526.72	1775.59
526.92	1722.34
527.12	1701.86
527.32	1615.85
527.52	1681.38
527.71	1714.15
527.91	1755.11
528.11	1767.40
528.31	1710.05
528.51	1597.42
528.71	1703.91
528.90	1763.30
529.10	1781.73
529.30	1783.78
529.50	1638.38
529.70	1722.34
529.90	1744.87
530.09	1726.44
530.29	1656.81
530.49	1589.22
530.69	1880.04
530.89	1742.82
531.09	1730.53
531.28	1644.52
531.48	1804.26
531.68	1812.45
531.88	1808.36
532.08	1789.92
532.28	1732.58
532.47	1785.83
532.67	1736.68
532.87	1806.31
533.07	1679.33
533.27	1828.84
533.46	1773.54
533.66	1746.92
533.86	1734.63
534.06	1701.86
534.26	1662.95
534.45	1703.91
534.65	1757.16
534.85	1708.01
535.05	1640.42
535.25	1810.40
535.44	1607.66
535.64	1669.09
535.84	1714.15
536.04	1720.29
536.24	1683.43
536.43	1695.72
536.63	1767.40
536.83	1720.29
537.03	1697.77
537.22	1697.77
537.42	1642.47
537.62	1753.06
537.82	1658.85
538.02	1824.74
538.21	1802.21
538.41	1886.18
538.61	1689.57
538.81	1718.25
539.00	1779.68
539.20	1730.53
539.40	1695.72
539.60	1755.11
539.79	1779.68
539.99	1748.97
540.19	1628.14
540.39	1718.25
540.58	1798.12
540.78	1748.97
540.98	1808.36
541.18	1800.16
541.37	1800.16
541.57	1742.82
541.77	1705.96
541.97	1675.24
542.16	1677.29
542.36	1757.16
542.56	1802.21
542.76	1886.18
542.95	1740.77
543.15	1738.73
543.35	1791.97
543.54	1716.20
543.74	1656.81
543.94	1841.12
544.14	1671.14
544.33	1746.92
544.53	1699.81
544.73	1691.62
544.93	1675.24
545.12	1712.10
545.32	1703.91
545.52	1734.63
545.71	1738.73
545.91	1738.73
546.11	1705.96
546.30	1703.91
546.50	1693.67
546.70	1802.21
546.90	1726.44
547.09	1652.71
547.29	1730.53
547.49	1755.11
547.68	1689.57
547.88	1693.67
548.08	1789.92
548.27	2191.33
548.47	1683.43
548.67	1658.85
548.87	1740.77
549.06	1710.05
549.26	1773.54
549.46	1808.36
549.65	1697.77
549.85	1804.26
550.05	1714.15
550.24	1683.43
550.44	1708.01
550.64	1806.31
550.83	1769.44
551.03	1751.01
551.23	1763.30
551.42	1800.16
551.62	1712.10
551.82	1767.40
552.01	1724.39
552.21	1755.11
552.41	1751.01
552.60	1748.97
552.80	1673.19
553.00	1624.04
553.19	1669.09
553.39	1804.26
553.59	1714.15
553.78	1767.40
553.98	1757.16
554.17	1638.38
554.37	1726.44
554.57	1759.21
554.76	1634.28
554.96	1701.86
555.16	1789.92
555.35	1726.44
555.55	1738.73
555.75	1757.16
555.94	1730.53
556.14	1669.09
556.33	1736.68
556.53	1744.87
556.73	1779.68
556.92	1759.21
557.12	1849.32
557.32	1802.21
557.51	1808.36
557.71	1765.35
557.90	1798.12
558.10	1796.07
558.30	1683.43
558.49	1779.68
558.69	1710.05
558.88	1732.58
559.08	1755.11
559.28	1736.68
559.47	1728.49
559.67	1783.78
559.86	1830.88
560.06	1728.49
560.26	1767.40
560.45	1753.06
560.65	1675.24
560.84	1767.40
561.04	1673.19
561.24	1814.50
561.43	1695.72
561.63	1787.88
561.82	1679.33
562.02	1816.55
562.22	1673.19
562.41	1681.38
562.61	1718.25
562.80	1675.24
563.00	1863.65
563.19	1783.78
563.39	1738.73
563.59	1730.53
563.78	1628.14
563.98	1646.57
564.17	1742.82
564.37	1607.66
564.56	1710.05
564.76	1695.72
564.96	1800.16
565.15	1779.68
565.35	1837.03
565.54	1650.66
565.74	1785.83
565.93	1736.68
566.13	1716.20
566.32	1781.73
566.52	1763.30
566.71	1812.45
566.91	1814.50
567.11	1726.44
567.30	1681.38
567.50	1832.93
567.69	1771.49
567.89	1730.53
568.08	1632.23
568.28	1787.88
568.47	1581.03
568.67	1785.83
568.86	1677.29
569.06	1804.26
569.25	1685.48
569.45	1726.44
569.64	1724.39
569.84	1732.58
570.04	1718.25
570.23	1667.05
570.43	1708.01
570.62	1794.02
570.82	1810.40
571.01	1658.85
571.21	1718.25
571.40	1714.15
571.60	1810.40
571.79	1738.73
571.99	1814.50
572.18	1683.43
572.38	1718.25
572.57	1744.87
572.77	1697.77
572.96	1832.93
573.16	1681.38
573.35	1683.43
573.55	1837.03
573.74	1775.59
573.94	1738.73
574.13	1755.11
574.33	1783.78
574.52	1804.26
574.71	1728.49
574.91	1722.34
575.10	1665.00
575.30	1757.16
575.49	1714.15
575.69	1671.14
575.88	1755.11
576.08	1650.66
576.27	1845.22
576.47	1720.29
576.66	1773.54
576.86	1775.59
577.05	1783.78
577.25	1767.40
577.44	1796.07
577.64	1726.44
577.83	1742.82
578.02	1656.81
578.22	1800.16
578.41	1808.36
578.61	1652.71
578.80	1697.77
579.00	1775.59
579.19	1683.43
579.39	1732.58
579.58	1763.30
579.77	1701.86
579.97	1763.30
580.16	1791.97
580.36	1787.88
580.55	1855.46
580.75	1832.93
580.94	1781.73
581.13	1751.01
581.33	1822.69
581.52	1734.63
581.72	1855.46
581.91	1861.60
582.11	1787.88
582.30	1751.01
582.49	1794.02
582.69	1826.79
582.88	1787.88
583.08	1720.29
583.27	1841.12
583.47	1765.35
583.66	1665.00
583.85	1660.90
584.05	1769.44
584.24	1769.44
584.44	1755.11
584.63	1794.02
584.82	1720.29
585.02	1800.16
585.21	1845.22
585.41	1861.60
585.60	1779.68
585.79	2004.96
585.99	2015.20
586.18	1861.60
586.37	2254.81
586.57	3393.48
586.76	9629.55
586.96	24327.82
587.15	34538.99
587.34	40078.75
587.54	41837.95
587.73	36599.25
587.93	26461.80
588.12	21575.35
588.31	18314.98
588.51	16283.40
588.70	15081.24
588.89	14047.02
589.09	12648.26
589.28	11016.02
589.47	9441.14
589.67	8064.90
589.86	6453.15
590.06	4943.80
590.25	3930.05
590.44	3139.54
590.64	2602.97
590.83	2281.44
591.02	2066.40
591.22	1941.47
591.41	1896.42
591.60	1761.25
591.80	2021.35
591.99	1781.73
592.18	1730.53
592.38	1830.88
592.57	1773.54
592.76	1771.49
592.96	1759.21
593.15	1746.92
593.34	1787.88
593.54	1775.59
593.73	1746.92
593.92	1779.68
594.12	1734.63
594.31	1808.36
594.50	1841.12
594.70	1828.84
594.89	1877.99
595.08	1638.38
595.28	1708.01
595.47	1949.67
595.66	1771.49
595.86	1730.53
596.05	1806.31
596.24	1656.81
596.43	1824.74
596.63	1808.36
596.82	1802.21
597.01	1761.25
597.21	1855.46
597.40	1777.64
597.59	1716.20
597.79	1679.33
597.98	1716.20
598.17	1763.30
598.36	1763.30
598.56	1759.21
598.75	1748.97
598.94	1755.11
599.14	1753.06
599.33	1724.39
599.52	1816.55
599.71	1755.11
599.91	1736.68
600.10	1800.16
600.29	1738.73
600.48	1796.07
600.68	1781.73
600.87	1736.68
601.06	1689.57
601.26	1730.53
601.45	1837.03
601.64	1703.91
601.83	1814.50
602.03	1724.39
602.22	1652.71
602.41	1814.50
602.60	1869.80
602.80	1730.53
602.99	1722.34
603.18	1699.81
603.37	1722.34
603.57	1767.40
603.76	1775.59
603.95	1845.22
604.14	1755.11
604.34	1677.29
604.53	1814.50
604.72	1730.53
604.91	1753.06
605.10	1787.88
605.30	1654.76
605.49	1804.26
605.68	1748.97
605.87	1710.05
606.07	1705.96
606.26	1722.34
606.45	1771.49
606.64	1757.16
606.84	1736.68
607.03	1746.92
607.22	1785.83
607.41	1636.33
607.60	1730.53
607.80	1810.40
607.99	1740.77
608.18	1705.96
608.37	1660.90
608.56	1718.25
608.76	1861.60
608.95	1882.08
609.14	1701.86
609.33	1810.40
609.52	1873.89
609.72	1808.36
609.91	1673.19
610.10	1705.96
610.29	1810.40
610.48	1720.29
610.68	1787.88
610.87	1810.40
611.06	1718.25
611.25	1724.39
611.44	1843.17
611.63	1710.05
611.83	1824.74
612.02	1628.14
612.21	1873.89
612.40	1583.08
612.59	1710.05
612.79	1722.34
612.98	1712.10
613.17	1822.69
613.36	1675.24
613.55	1785.83
613.74	1646.57
613.93	1693.67
614.13	1742.82
614.32	1744.87
614.51	1742.82
614.70	1701.86
614.89	1648.61
615.08	1714.15
615.28	2002.91
615.47	1640.42
615.66	1730.53
615.85	1671.14
616.04	1849.32
616.23	1683.43
616.42	1734.63
616.62	1787.88
616.81	1740.77
617.00	1679.33
617.19	1736.68
617.38	1669.09
617.57	1755.11
617.76	1642.47
617.95	1802.21
618.15	1779.68
618.34	1832.93
618.53	1726.44
618.72	1748.97
618.91	1796.07
619.10	1796.07
619.29	1693.67
619.48	1665.00
619.68	1679.33
619.87	1757.16
620.06	1628.14
620.25	1759.21
620.44	1677.29
620.63	1714.15
620.82	1757.16
621.01	1798.12
621.20	1710.05
621.39	1759.21
621.59	1714.15
621.78	1751.01
621.97	1718.25
622.16	1736.68
622.35	1761.25
622.54	1759.21
622.73	1822.69
622.92	1744.87
623.11	1771.49
623.30	1691.62
623.49	1769.44
623.68	1609.70
623.88	1732.58
624.07	1730.53
624.26	1740.77
624.45	1732.58
624.64	1738.73
624.83	1685.48
625.02	1691.62
625.21	1718.25
625.40	1642.47
625.59	1824.74
625.78	1769.44
625.97	1742.82
626.16	1724.39
626.35	1742.82
626.54	1730.53
626.74	1726.44
626.93	1738.73
627.12	1720.29
627.31	1783.78
627.50	1755.11
627.69	1679.33
627.88	1716.20
628.07	1710.05
628.26	1673.19
628.45	1624.04
628.64	1648.61
628.83	1669.09
629.02	1712.10
629.21	1685.48
629.40	1802.21
629.59	1660.90
629.78	1675.24
629.97	1796.07
630.16	1722.34
630.35	1759.21
630.54	1695.72
630.73	1679.33
630.92	1744.87
631.11	1632.23
631.30	1742.82
631.49	1759.21
631.68	1738.73
631.87	1630.18
632.06	1634.28
632.25	1824.74
632.44	1744.87
632.63	1726.44
632.82	1705.96
633.01	1691.62
633.20	1689.57
633.39	1652.71
633.58	1665.00
633.77	1714.15
633.96	1818.60
634.15	1751.01
634.34	1783.78
634.53	1681.38
634.72	1730.53
634.91	1607.66
635.10	1724.39
635.29	1689.57
635.48	1761.25
635.67	1665.00
635.86	1632.23
636.05	1789.92
636.24	1722.34
636.43	1724.39
636.62	1716.20
636.81	1531.88
637.00	1726.44
637.19	1728.49
637.38	1693.67
637.57	1689.57
637.76	1759.21
637.95	1734.63
638.14	1595.37
638.33	1742.82
638.52	1677.29
638.71	1615.85
638.89	1626.09
639.08	1832.93
639.27	1734.63
639.46	1673.19
639.65	1761.25
639.84	1728.49
640.03	1761.25
640.22	1716.20
640.41	1757.16
640.60	1693.67
640.79	1693.67
640.98	1705.96
641.17	1695.72
641.36	1748.97
641.55	1779.68
641.74	1607.66
641.92	1626.09
642.11	1677.29
642.30	1738.73
642.49	1638.38
642.68	1646.57
642.87	1726.44
643.06	1701.86
643.25	1720.29
643.44	1712.10
643.63	1744.87
643.82	1734.63
644.00	1724.39
644.19	1744.87
644.38	1652.71
644.57	1763.30
644.76	1701.86
644.95	1658.85
645.14	1726.44
645.33	1736.68
645.52	1658.85
645.71	1718.25
645.89	1677.29
646.08	1730.53
646.27	1611.75
646.46	1791.97
646.65	1634.28
646.84	1748.97
647.03	1708.01
647.22	1742.82
647.40	1695.72
647.59	1609.70
647.78	1697.77
647.97	1740.77
648.16	1642.47
648.35	1804.26
648.54	1732.58
648.73	1699.81
648.91	1775.59
649.10	1734.63
649.29	1652.71
649.48	1685.48
649.67	1669.09
649.86	1638.38
650.05	1634.28
650.23	1775.59
650.42	1597.42
650.61	1826.79
650.80	1781.73
650.99	1855.46
651.18	1759.21
651.36	1775.59
651.55	1675.24
651.74	1822.69
651.93	1662.95
652.12	1726.44
652.31	1746.92
652.49	1691.62
652.68	1691.62
652.87	1759.21
653.06	1736.68
653.25	1837.03
653.44	1744.87
653.62	1771.49
653.81	1685.48
654.00	1697.77
654.19	1701.86
654.38	1839.08
654.56	1738.73
654.75	1728.49
654.94	1738.73
655.13	1765.35
655.32	1716.20
655.51	1763.30
655.69	1652.71
655.88	1759.21
656.07	1638.38
656.26	1683.43
656.45	1650.66
656.63	1783.78
656.82	1714.15
657.01	1738.73
657.20	1609.70
657.38	1765.35
657.57	1642.47
657.76	1634.28
657.95	1812.45
658.14	1689.57
658.32	1681.38
658.51	1599.46
658.70	1808.36
658.89	1654.76
659.08	1718.25
659.26	1765.35
659.45	1705.96
659.64	1822.69
659.83	1626.09
660.01	1935.33
660.20	1683.43
660.39	1765.35
660.58	1644.52
660.76	1738.73
660.95	1630.18
661.14	1759.21
661.33	1648.61
661.51	1763.30
661.70	1773.54
661.89	1742.82
662.08	1785.83
662.26	1738.73
662.45	1636.33
662.64	1757.16
662.83	1777.64
663.01	1624.04
663.20	1693.67
663.39	1794.02
663.58	1710.05
663.76	1693.67
663.95	1744.87
664.14	1697.77
664.32	1718.25
664.51	1660.90
664.70	1671.14
664.89	1665.00
665.07	1648.61
665.26	1769.44
665.45	1607.66
665.64	1718.25
665.82	1708.01
666.01	1755.11
666.20	1642.47
666.38	1794.02
666.57	1847.27
666.76	2150.37
666.95	4462.52
667.13	10297.19
667.32	15095.58
667.51	17755.89
667.69	19025.63
667.88	17641.20
668.07	12218.18
668.25	9838.44
668.44	7980.93
668.63	7335.82
668.81	6866.84
669.00	6352.80
669.19	5689.26
669.38	4986.80
669.56	4661.18
669.75	3909.57
669.94	3442.64
670.12	2912.21
670.31	2531.29
670.50	2252.77
670.68	2078.69
670.87	1951.71
671.06	1734.63
671.24	1828.84
671.43	1847.27
671.62	1763.30
671.80	1695.72
671.99	1761.25
672.18	1677.29
672.36	1757.16
672.55	1699.81
672.74	1714.15
672.92	1683.43
673.11	1718.25
673.29	1619.94
673.48	1769.44
673.67	1658.85
673.85	1794.02
674.04	1673.19
674.23	1669.09
674.41	1791.97
674.60	1708.01
674.79	1634.28
674.97	1636.33
675.16	1841.12
675.34	1720.29
675.53	1724.39
675.72	1789.92
675.90	1738.73
676.09	1693.67
676.28	1728.49
676.46	1640.42
676.65	1716.20
676.83	1689.57
677.02	1675.24
677.21	1712.10
677.39	1679.33
677.58	1673.19
677.77	1708.01
677.95	1751.01
678.14	1669.09
678.32	1724.39
678.51	1640.42
678.70	1880.04
678.88	1662.95
679.07	1773.54
679.25	1763.30
679.44	1693.67
679.63	1634.28
679.81	1675.24
680.00	1777.64
680.18	1751.01
680.37	1812.45
680.55	1685.48
680.74	1624.04
680.93	1603.56
681.11	1757.16
681.30	1757.16
681.48	1701.86
681.67	1714.15
681.85	1658.85
682.04	1681.38
682.23	1818.60
682.41	1755.11
682.60	1724.39
682.78	1665.00
682.97	1718.25
683.15	1751.01
683.34	1724.39
683.53	1767.40
683.71	1681.38
683.90	1787.88
684.08	1814.50
684.27	1691.62
684.45	1785.83
684.64	1734.63
684.82	1716.20
685.01	1748.97
685.19	1751.01
685.38	1806.31
685.57	1818.60
685.75	1662.95
685.94	1646.57
686.12	1624.04
686.31	1656.81
686.49	1804.26
686.68	1583.08
686.86	1771.49
687.05	1695.72
687.23	1744.87
687.42	1697.77
687.60	1585.13
687.79	1652.71
687.97	1761.25
688.16	1732.58
688.34	1751.01
688.53	1675.24
688.71	1757.16
688.90	1667.05
689.08	1689.57
689.27	1626.09
689.45	1730.53
689.64	1667.05
689.82	1746.92
690.01	1732.58
690.19	1718.25
690.38	1718.25
690.56	1759.21
690.75	1722.34
690.93	1787.88
691.12	1734.63
691.30	1671.14
691.49	1714.15
691.67	1751.01
691.86	1892.32
692.04	1640.42
692.23	1636.33
692.41	1673.19
692.60	1832.93
692.78	1761.25
692.97	1722.34
693.15	1746.92
693.34	1851.36
693.52	1765.35
693.71	1746.92
693.89	1574.89
694.08	1593.32
694.26	1724.39
694.44	1716.20
694.63	1763.30
694.81	1658.85
695.00	1599.46
695.18	1763.30
695.37	1880.04
695.55	1710.05
695.74	1726.44
695.92	1626.09
696.10	1794.02
696.29	1695.72
696.47	1708.01
696.66	1632.23
696.84	1693.67
697.03	1726.44
697.21	1791.97
697.40	2248.67
697.58	1714.15
697.76	1705.96
697.95	1724.39
698.13	1662.95
698.32	1693.67
698.50	1669.09
698.68	1773.54
698.87	1728.49
699.05	1742.82
699.24	1730.53
699.42	1624.04
699.61	1701.86
699.79	1691.62
699.97	1732.58
700.16	1662.95
700.34	1716.20
700.53	1677.29
700.71	1789.92
700.89	1779.68
701.08	1646.57
701.26	1757.16
701.45	2090.98
701.63	1644.52
701.81	1695.72
702.00	1687.53
702.18	1724.39
702.37	1603.56
702.55	1742.82
702.73	1728.49
702.92	1611.75
703.10	1746.92
703.28	1693.67
703.47	1595.37
703.65	1775.59
703.84	1763.30
704.02	1642.47
704.20	1871.84
704.39	1669.09
704.57	1724.39
704.75	1703.91
704.94	1808.36
705.12	1699.81
705.30	1783.78
705.49	2258.91
705.67	4272.06
705.86	9363.31
706.04	12801.85
706.22	14249.77
706.41	15462.16
706.59	13862.70
706.77	9627.50
706.96	7165.84
707.14	6530.97
707.32	5943.21
707.51	5672.87
707.69	4845.49
707.87	4239.30
708.06	3596.23
708.24	2967.51
708.42	2455.51
708.61	2265.05
708.79	1873.89
708.97	1812.45
709.16	1802.21
709.34	1812.45
709.52	1722.34
709.71	1744.87
709.89	1712.10
710.07	1667.05
710.26	1703.91
710.44	1734.63
710.62	1785.83
710.80	1736.68
710.99	1781.73
711.17	1742.82
711.35	1679.33
711.54	1652.71
711.72	1773.54
711.90	1710.05
712.09	1697.77
712.27	1626.09
712.45	1732.58
712.63	1808.36
712.82	1712.10
713.00	1695.72
713.18	1673.19
713.37	1732.58
713.55	1785.83
713.73	1693.67
713.91	1832.93
714.10	1679.33
714.28	1662.95
714.46	1640.42
714.65	1812.45
714.83	1757.16
715.01	1712.10
715.19	1742.82
715.38	1640.42
715.56	1699.81
715.74	1652.71
715.92	1621.99
716.11	1808.36
716.29	1601.51
716.47	1665.00
716.65	1714.15
716.84	1593.32
717.02	1755.11
717.20	1630.18
717.38	1746.92
717.57	1701.86
717.75	1769.44
717.93	1755.11
718.11	1744.87
718.30	1656.81
718.48	1652.71
718.66	1722.34
718.84	1708.01
719.03	1652.71
719.21	1628.14
719.39	1814.50
719.57	1675.24
719.75	1736.68
719.94	1685.48
720.12	1615.85
720.30	1693.67
720.48	1701.86
720.67	1671.14
720.85	1613.80
721.03	1656.81
721.21	1636.33
721.39	1800.16
721.58	1701.86
721.76	1705.96
721.94	1736.68
722.12	1726.44
722.30	1783.78
722.49	1683.43
722.67	1638.38
722.85	1710.05
723.03	1697.77
723.21	1705.96
723.40	1740.77
723.58	1787.88
723.76	1714.15
723.94	1781.73
724.12	1773.54
724.30	1853.41
724.49	1830.88
724.67	1671.14
724.85	1765.35
725.03	1658.85
725.21	1755.11
725.40	1767.40
725.58	1642.47
725.76	1769.44
725.94	1798.12
726.12	1583.08
726.30	1826.79
726.49	1693.67
726.67	1695.72
726.85	1771.49
727.03	1724.39
727.21	2168.80
727.39	2838.48
727.57	3817.41
727.76	4052.93
727.94	4323.26
728.12	4364.22
728.30	3776.45
728.48	2938.84
728.66	2770.90
728.84	2525.15
729.03	2320.35
729.21	2129.89
729.39	1978.34
729.57	1894.37
729.75	1820.64
729.93	1822.69
730.11	1714.15
730.30	1705.96
730.48	1683.43
730.66	1814.50
730.84	1796.07
731.02	1720.29
731.20	1734.63
731.38	1773.54
731.56	1660.90
731.74	1675.24
731.93	1689.57
732.11	1679.33
732.29	1703.91
732.47	1736.68
732.65	1697.77
732.83	1771.49
733.01	1730.53
733.19	1611.75
733.37	1765.35
733.56	1675.24
733.74	1624.04
733.92	1757.16
734.10	1671.14
734.28	1669.09
734.46	1640.42
734.64	1677.29
734.82	1730.53
735.00	1685.48
735.18	1689.57
735.36	1761.25
735.54	1796.07
735.73	1757.16
735.91	1687.53
736.09	1679.33
736.27	1767.40
736.45	1673.19
736.63	1535.98
736.81	1730.53
736.99	1787.88
737.17	1802.21
737.35	1710.05
737.53	1710.05
737.71	1708.01
737.89	1746.92
738.07	1658.85
738.25	1652.71
738.43	1640.42
738.61	1572.84
738.80	1689.57
738.98	1566.70
739.16	1738.73
739.34	1693.67
739.52	1763.30
739.70	1640.42
739.88	1693.67
740.06	1730.53
740.24	1660.90
740.42	1738.73
740.60	1654.76
740.78	1654.76
740.96	1589.22
741.14	1718.25
741.32	1701.86
741.50	1587.18
741.68	1753.06
741.86	1779.68
742.04	1687.53
742.22	1708.01
742.40	1787.88
742.58	1748.97
742.76	1642.47
742.94	1728.49
743.12	1675.24
743.30	1730.53
743.48	1730.53
743.66	1621.99
743.84	1744.87
744.02	1724.39
744.20	1732.58
744.38	1697.77
744.56	1705.96
744.74	1814.50
744.92	1740.77
745.10	1738.73
745.28	1683.43
745.46	1818.60
745.64	1638.38
745.82	1714.15
746.00	1755.11
746.18	1777.64
746.36	1599.46
746.54	1712.10
746.72	1638.38
746.90	1689.57
747.08	1767.40
747.26	1716.20
747.44	1738.73
747.62	1738.73
747.80	1734.63
747.98	1695.72
748.15	1642.47
748.33	1775.59
748.51	1660.90
748.69	1685.48
748.87	1615.85
749.05	1683.43
749.23	1722.34
749.41	1669.09
749.59	1685.48
749.77	1789.92
749.95	1665.00
750.13	1652.71
750.31	1708.01
750.49	1658.85
750.67	1796.07
750.85	1728.49
751.03	1771.49
751.20	1798.12
751.38	1693.67
751.56	1630.18
751.74	1714.15
751.92	1671.14
752.10	1605.61
752.28	1804.26
752.46	1642.47
752.64	1759.21
752.82	1626.09
753.00	1787.88
753.18	1718.25
753.35	1646.57
753.53	1658.85
753.71	1679.33
753.89	1693.67
754.07	1656.81
754.25	1699.81
754.43	1808.36
754.61	1646.57
754.79	1775.59
754.97	1689.57
755.14	1738.73
755.32	1642.47
755.50	1730.53
755.68	1730.53
755.86	1679.33
756.04	1640.42
756.22	1609.70
756.40	1748.97
756.57	1765.35
756.75	1660.90
756.93	1761.25
757.11	1689.57
757.29	1697.77
757.47	1667.05
757.65	1646.57
757.82	1624.04
758.00	1652.71
758.18	1671.14
758.36	1687.53
758.54	1771.49
758.72	1558.50
758.90	1832.93
759.07	1665.00
759.25	1642.47
759.43	1744.87
759.61	1689.57
759.79	2226.14
759.97	1708.01
760.15	1589.22
760.32	1761.25
760.50	1730.53
760.68	1714.15
760.86	1648.61
761.04	1798.12
761.22	1748.97
761.39	1708.01
761.57	1775.59
761.75	1718.25
761.93	1740.77
762.11	1667.05
762.28	1748.97
762.46	1669.09
762.64	1781.73
762.82	1662.95
763.00	1642.47
763.18	1714.15
763.35	1660.90
763.53	1658.85
763.71	1718.25
763.89	1677.29
764.07	1679.33
764.24	1724.39
764.42	1771.49
764.60	1718.25
764.78	1716.20
764.96	1726.44
765.13	1722.34
765.31	1685.48
765.49	1703.91
765.67	1665.00
765.84	1662.95
766.02	1708.01
766.20	1607.66
766.38	1787.88
766.56	1734.63
766.73	1820.64
766.91	1724.39
767.09	1673.19
767.27	1767.40
767.44	1687.53
767.62	1714.15
767.80	1712.10
767.98	1697.77
768.15	1669.09
768.33	1763.30
768.51	1708.01
768.69	1705.96
768.87	1699.81
769.04	1744.87
769.22	1841.12
769.40	1773.54
769.58	1816.55
769.75	1765.35
769.93	1730.53
770.11	1744.87
770.28	1712.10
770.46	1693.67
770.64	1662.95
770.82	1734.63
770.99	1677.29
771.17	1759.21
771.35	1701.86
771.53	1660.90
771.70	1613.80
771.88	1656.81
772.06	1677.29
772.23	1738.73
772.41	1779.68
772.59	1646.57
772.77	1669.09
772.94	1681.38
773.12	1708.01
773.30	1712.10
773.47	1798.12
773.65	1658.85
773.83	1822.69
774.01	1681.38
774.18	1638.38
774.36	1687.53
774.54	1662.95
774.71	1650.66
774.89	1710.05
775.07	1650.66
775.24	1648.61
775.42	1667.05
775.60	1769.44
775.78	1644.52
775.95	1640.42
776.13	1644.52
776.31	1533.93
776.48	1654.76
776.66	1808.36
776.84	1751.01
777.01	1673.19
777.19	1652.71
777.37	1671.14
777.54	1687.53
777.72	1808.36
777.90	1693.67
778.07	1624.04
778.25	1777.64
778.43	1773.54
778.60	1718.25
778.78	1730.53
778.96	1808.36
779.13	1644.52
779.31	1748.97
779.49	1603.56
779.66	1736.68
779.84	1683.43
780.01	1624.04
780.19	1589.22
780.37	1837.03
780.54	1775.59
780.72	1589.22
780.90	1669.09
781.07	1695.72
781.25	1650.66
781.43	1751.01
781.60	1681.38
781.78	1753.06
781.95	1689.57
782.13	1646.57
782.31	1681.38
782.48	1576.94
782.66	1738.73
782.83	1812.45
783.01	1681.38
783.19	1742.82
783.36	1695.72
783.54	1605.61
783.72	1755.11
783.89	1658.85
784.07	1613.80
784.24	1718.25
784.42	1708.01
784.60	1712.10
784.77	1726.44
784.95	1603.56
785.12	1658.85
785.30	1746.92
785.47	1642.47
785.65	1679.33
785.83	1742.82
786.00	1591.27
786.18	1775.59
786.35	1595.37
786.53	1601.51
786.71	1755.11
786.88	1720.29
787.06	1646.57
787.23	1662.95
787.41	1660.90
787.58	1705.96
787.76	1667.05
787.94	1634.28
788.11	1699.81
788.29	1714.15
788.46	1665.00
788.64	1642.47
788.81	1652.71
788.99	1656.81
789.16	1677.29
789.34	1685.48
789.52	1683.43
789.69	1685.48
789.87	1540.07
790.04	1710.05
790.22	1718.25
790.39	1746.92
790.57	1644.52
790.74	1677.29
790.92	1794.02
791.09	1681.38
791.27	1746.92
791.44	1808.36
791.62	1738.73
791.79	1665.00
791.97	1697.77
792.15	1841.12
792.32	1746.92
792.50	1665.00
792.67	1777.64
792.85	1775.59
793.02	1724.39
793.20	1791.97
793.37	1648.61
793.55	1710.05
793.72	1644.52
793.90	1660.90
794.07	1669.09
794.25	1728.49
794.42	1669.09
794.60	1646.57
794.77	1751.01
794.95	1732.58
795.12	1781.73
795.30	1675.24
795.47	1585.13
795.65	1875.94
795.82	1712.10
796.00	1648.61
796.17	1646.57
796.34	1734.63
796.52	1693.67
796.69	1769.44
796.87	1779.68
797.04	1656.81
797.22	1685.48
797.39	1722.34
797.57	1720.29
797.74	1701.86
797.92	1703.91
798.09	1644.52
798.27	1726.44
798.44	1734.63
798.62	1611.75
798.79	1677.29
798.96	1738.73
799.14	1710.05
799.31	1816.55
799.49	1652.71
799.66	1724.39
799.84	1660.90
800.01	1611.75
800.19	1718.25
800.36	1630.18
800.53	1724.39
800.71	1642.47
800.88	1705.96
801.06	1726.44
801.23	1718.25
801.41	1703.91
801.58	1716.20
801.75	1609.70
801.93	1697.77
802.10	1710.05
802.28	1691.62
802.45	1640.42
802.63	1771.49
802.80	1738.73
802.97	1665.00
803.15	1716.20
803.32	1701.86
803.50	1652.71
803.67	1570.79
803.84	1644.52
804.02	1730.53
804.19	1730.53
804.37	1595.37
804.54	1640.42
804.71	1724.39
804.89	1712.10
805.06	1660.90
805.24	1624.04
805.41	1656.81
805.58	1671.14
805.76	1820.64
805.93	1734.63
806.10	1765.35
806.28	1677.29
806.45	1765.35
806.63	1714.15
806.80	1718.25
806.97	1675.24
807.15	1757.16
807.32	1710.05
807.49	1697.77
807.67	1628.14
807.84	1718.25
808.01	1611.75
808.19	1830.88
808.36	1859.56
808.54	1697.77
808.71	1624.04
808.88	1730.53
809.06	1701.86
809.23	1744.87
809.40	1646.57
809.58	1742.82
809.75	1662.95
809.92	1554.41
810.10	1830.88
810.27	1665.00
810.44	1728.49
810.62	1720.29
810.79	1726.44
810.96	1654.76
811.14	1611.75
811.31	1738.73
811.48	1693.67
811.66	1751.01
811.83	1789.92
812.00	1720.29
812.18	1665.00
812.35	1837.03
812.52	1658.85
812.69	1665.00
812.87	1720.29
813.04	1691.62
813.21	1654.76
813.39	1615.85
813.56	1630.18
813.73	1714.15
813.91	1634.28
814.08	1693.67
814.25	1693.67
814.42	1619.94
814.60	1681.38
814.77	1744.87
814.94	1697.77
815.12	1699.81
815.29	1789.92
815.46	1617.90
815.63	1789.92
815.81	1679.33
815.98	1617.90
816.15	1677.29
816.33	1705.96
816.50	1640.42
816.67	1689.57
816.84	1730.53
817.02	1634.28
817.19	1634.28
817.36	1767.40
817.53	1693.67
817.71	1708.01
817.88	1744.87
818.05	1636.33
818.22	1710.05
818.40	1798.12
818.57	1648.61
818.74	1679.33
818.91	1673.19
819.09	1748.97
819.26	1798.12
819.43	1693.67
819.60	1746.92
819.78	1665.00
819.95	1734.63
820.12	1599.46
820.29	1744.87
820.47	1701.86
820.64	1669.09
820.81	1640.42
820.98	1624.04
821.15	1710.05
821.33	1767.40
821.50	1630.18
821.67	1806.31
821.84	1665.00
822.02	1697.77
822.19	1761.25
822.36	1722.34
822.53	1697.77
822.70	1619.94
822.88	1701.86
823.05	1681.38
823.22	1634.28
823.39	1718.25
823.56	1720.29
823.74	1773.54
823.91	1669.09
824.08	1642.47
824.25	1576.94
824.42	1851.36
824.60	1562.60
824.77	1761.25
824.94	1640.42
825.11	1697.77
825.28	1679.33
825.45	1650.66
825.63	1628.14
825.80	1673.19
825.97	1679.33
826.14	1789.92
826.31	1578.98
826.48	1748.97
826.66	1644.52
826.83	1665.00
827.00	1687.53
827.17	1630.18
827.34	1691.62
827.51	1671.14
827.69	1695.72
827.86	1589.22
828.03	1699.81
828.20	1619.94
828.37	1691.62
828.54	1730.53
828.71	1605.61
828.89	1759.21
829.06	1708.01
829.23	1759.21
829.40	1669.09
829.57	1601.51
829.74	1703.91
829.91	1644.52
830.09	1650.66
830.26	1732.58
830.43	1789.92
830.60	1677.29
830.77	1642.47
830.94	1693.67
831.11	1728.49
831.28	1667.05
831.46	1810.40
831.63	1714.15
831.80	1765.35
831.97	1712.10
832.14	1722.34
832.31	1734.63
832.48	1669.09
832.65	1781.73
832.82	1687.53
832.99	1703.91
833.17	1648.61
833.34	1744.87
833.51	1728.49
833.68	1595.37
833.85	1714.15
834.02	1617.90
834.19	1728.49
834.36	1685.48
834.53	1669.09
834.70	1734.63
834.87	1779.68
835.04	1677.29
835.22	1656.81
835.39	1583.08
835.56	1689.57
835.73	1587.18
835.90	1763.30
836.07	1654.76
836.24	1695.72
836.41	1595.37
836.58	1726.44
836.75	1718.25
836.92	1718.25
837.09	1640.42
837.26	1771.49
837.43	1703.91
837.60	1646.57
837.77	1648.61
837.94	1687.53
838.12	1732.58
838.29	1656.81
838.46	1576.94
838.63	1595.37
838.80	1802.21
838.97	1621.99
839.14	1695.72
839.31	1578.98
839.48	1742.82
839.65	1714.15
839.82	1755.11
839.99	1673.19
840.16	1703.91
840.33	1669.09
840.50	1796.07
840.67	1683.43
840.84	1628.14
841.01	1744.87
841.18	1640.42
841.35	1652.71
841.52	1697.77
841.69	1779.68
841.86	1734.63
842.03	1640.42
842.20	1646.57
842.37	1726.44
842.54	1658.85
842.71	1705.96
842.88	1628.14
843.05	1753.06
843.22	1603.56
843.39	1755.11
843.56	1691.62
843.73	1703.91
843.90	1748.97
844.07	1759.21
844.24	1683.43
844.41	1742.82
844.58	1646.57
844.75	1619.94
844.92	1679.33
845.09	1845.22
845.26	1720.29
845.43	1734.63
845.60	1689.57
845.77	1697.77
845.94	1646.57
846.10	1705.96
846.27	1632.23
846.44	1693.67
846.61	1615.85
846.78	1662.95
846.95	1734.63
847.12	1769.44
847.29	1705.96
847.46	1689.57
847.63	1710.05
847.80	1632.23
847.97	1705.96
848.14	1855.46
848.31	1710.05
848.48	1535.98
848.65	1736.68
848.82	1679.33
848.98	1826.79
849.15	1734.63
849.32	1775.59
849.49	1751.01
849.66	1685.48
849.83	1673.19
850.00	1634.28
850.17	1773.54
850.34	1689.57
850.51	1685.48
850.68	1726.44
850.85	1826.79
851.01	1673.19
851.18	1710.05
851.35	1644.52
851.52	1742.82
851.69	1822.69
851.86	1576.94
852.03	1669.09
852.20	1699.81
852.37	1673.19
852.53	1615.85
852.70	1675.24
852.87	1712.10
853.04	1716.20
853.21	1691.62
853.38	1730.53
853.55	1824.74
853.72	1695.72
853.89	1591.27
854.05	1548.26
854.22	1652.71
854.39	1677.29
854.56	1734.63
854.73	1789.92
854.90	1636.33
855.07	1722.34
855.23	1669.09
855.40	1673.19
855.57	1675.24
855.74	1589.22
855.91	1847.27
856.08	1691.62
856.25	1585.13
856.41	1652.71
856.58	1658.85
856.75	1703.91
856.92	1581.03
857.09	1683.43
857.26	1673.19
857.42	1593.32
857.59	1722.34
857.76	1697.77
857.93	1681.38
858.10	1619.94
858.27	1712.10
858.43	1601.51
858.60	1662.95
858.77	1658.85
858.94	1589.22
859.11	1755.11
859.27	1619.94
859.44	1675.24
859.61	1804.26
859.78	1746.92
859.95	1621.99
860.12	1585.13
860.28	1761.25
860.45	1787.88
860.62	1701.86
860.79	1720.29
860.95	1691.62
861.12	1691.62
861.29	1667.05
861.46	1683.43
861.63	1624.04
861.79	1667.05
861.96	1531.88
862.13	1613.80
862.30	1751.01
862.47	1689.57
862.63	1644.52
862.80	1740.77
862.97	1744.87
863.14	1710.05
863.30	1718.25
863.47	1691.62
863.64	1716.20
863.81	1734.63
863.97	1697.77
864.14	1705.96
864.31	1646.57
864.48	1744.87
864.65	1662.95
864.81	1753.06
864.98	1695.72
865.15	1744.87
865.32	1732.58
865.48	1830.88
865.65	1783.78
865.82	1693.67
865.98	1695.72
866.15	1738.73
866.32	1607.66
866.49	1619.94
866.65	1689.57
866.82	1650.66
866.99	1654.76
867.16	1613.80
867.32	1611.75
867.49	1646.57
867.66	1693.67
867.83	1681.38
867.99	1601.51
868.16	1681.38
868.33	1667.05
868.49	1689.57
868.66	1689.57
868.83	1640.42
868.99	1705.96
869.16	1665.00
869.33	1746.92
869.50	1746.92
869.66	1613.80
869.83	1679.33
870.00	1611.75
870.16	1757.16
870.33	1669.09
870.50	1771.49
870.66	1632.23
870.83	1816.55
871.00	1773.54
871.17	1665.00
871.33	1738.73
871.50	1765.35
871.67	1656.81
871.83	1671.14
872.00	1787.88
872.17	1699.81
872.33	1841.12
872.50	1724.39
872.67	1640.42
872.83	1697.77
873.00	1722.34
873.17	1744.87
873.33	1695.72
873.50	1710.05
873.67	1624.04
873.83	1660.90
874.00	1683.43
874.16	1820.64
874.33	1675.24
874.50	1644.52
874.66	1755.11
874.83	1720.29
875.00	1800.16
875.16	1755.11
875.33	1697.77
875.50	1609.70
875.66	1714.15
875.83	1697.77
875.99	1656.81
876.16	1708.01
876.33	1540.07
876.49	1730.53
876.66	1708.01
876.83	1626.09
876.99	1621.99
877.16	1677.29
877.32	1757.16
877.49	1636.33
877.66	1689.57
877.82	1734.63
877.99	1699.81
878.15	1791.97
878.32	1660.90
878.49	1691.62
878.65	1619.94
878.82	1757.16
878.98	1660.90
879.15	1724.39
879.32	1738.73
879.48	1673.19
879.65	1677.29
879.81	1681.38
879.98	1687.53
880.15	1650.66
880.31	1822.69
880.48	1681.38
880.64	1744.87
880.81	1822.69
880.97	1759.21
881.14	1695.72
881.31	1576.94
881.47	1822.69
881.64	1699.81
881.80	1609.70
881.97	1697.77
882.13	1708.01
882.30	1611.75
882.47	1615.85
882.63	1689.57
882.80	1611.75
882.96	1673.19
883.13	1777.64
883.29	1681.38
883.46	1728.49
883.62	1804.26
883.79	1701.86
883.95	1808.36
884.12	1718.25
884.29	1705.96
884.45	1636.33
884.62	1619.94
884.78	1617.90
884.95	1779.68
885.11	1656.81
885.28	1740.77
885.44	1773.54
885.61	1685.48
885.77	1757.16
885.94	1708.01
886.10	1681.38
886.27	1665.00
886.43	1812.45
886.60	1796.07
886.76	1667.05
886.93	1646.57
887.09	1757.16
887.26	1574.89
887.42	1722.34
887.59	1779.68
887.75	1859.56
887.92	1785.83
888.08	1755.11
888.25	1755.11
888.41	1751.01
888.58	1732.58
888.74	1619.94
888.91	1689.57
>>>>>End Processed Spectral Data<<<<<
