SpectraSuite Data File
++++++++++++++++++++++++++++++++++++
Date: Mon Jun 06 13:12:37 CEST 2016
User: root
Dark Spectrum Present: No
Reference Spectrum Present: No
Number of Sampled Component Spectra: 1
Spectrometers: USB4C02835
Integration Time (usec): 100000 (USB4C02835)
Spectra Averaged: 1 (USB4C02835)
Boxcar Smoothing: 0 (USB4C02835)
Correct for Electrical Dark: No (USB4C02835)
Strobe/Lamp Enabled: No (USB4C02835)
Correct for Detector Non-linearity: No (USB4C02835)
Correct for Stray Light: No (USB4C02835)
Number of Pixels in Processed Spectrum: 3648
>>>>>Begin Processed Spectral Data<<<<<
177.47	1497.07
177.69	1497.07
177.91	1497.07
178.13	1484.78
178.36	1492.97
178.58	1677.29
178.80	1658.85
179.02	1634.28
179.24	1679.33
179.46	1738.73
179.68	1841.12
179.90	1638.38
180.13	1689.57
180.35	1720.29
180.57	1722.34
180.79	1734.63
181.01	1753.06
181.23	1718.25
181.45	1755.11
181.67	1662.95
181.90	1767.40
182.12	1736.68
182.34	1677.29
182.56	1722.34
182.78	1660.90
183.00	1646.57
183.22	1748.97
183.44	1617.90
183.66	1841.12
183.89	1679.33
184.11	1619.94
184.33	1632.23
184.55	1802.21
184.77	1718.25
184.99	1644.52
185.21	1642.47
185.43	1871.84
185.65	1701.86
185.87	1726.44
186.10	1800.16
186.32	1820.64
186.54	1632.23
186.76	1800.16
186.98	1757.16
187.20	1632.23
187.42	1712.10
187.64	1701.86
187.86	1771.49
188.08	1736.68
188.30	1675.24
188.52	1609.70
188.75	1724.39
188.97	1728.49
189.19	1703.91
189.41	1722.34
189.63	1669.09
189.85	1671.14
190.07	1554.41
190.29	1669.09
190.51	1716.20
190.73	1587.18
190.95	1769.44
191.17	1759.21
191.39	1646.57
191.61	1695.72
191.84	1615.85
192.06	1726.44
192.28	1648.61
192.50	1875.94
192.72	1742.82
192.94	1687.53
193.16	1708.01
193.38	1699.81
193.60	1646.57
193.82	1742.82
194.04	1830.88
194.26	1671.14
194.48	1730.53
194.70	1615.85
194.92	1667.05
195.14	1738.73
195.36	1638.38
195.58	1703.91
195.80	1679.33
196.02	1722.34
196.24	1697.77
196.46	1693.67
196.69	1675.24
196.91	1849.32
197.13	1660.90
197.35	1646.57
197.57	1849.32
197.79	1701.86
198.01	1753.06
198.23	1751.01
198.45	1734.63
198.67	1591.27
198.89	1724.39
199.11	1699.81
199.33	1685.48
199.55	1566.70
199.77	1665.00
199.99	1822.69
200.21	1746.92
200.43	1705.96
200.65	1605.61
200.87	1591.27
201.09	1679.33
201.31	1660.90
201.53	1775.59
201.75	1738.73
201.97	1658.85
202.19	1722.34
202.41	1712.10
202.63	1892.32
202.85	1845.22
203.07	1630.18
203.29	1669.09
203.51	1714.15
203.73	1646.57
203.95	1849.32
204.17	1710.05
204.39	1751.01
204.61	1701.86
204.83	1722.34
205.05	1728.49
205.27	1808.36
205.49	1863.65
205.71	1714.15
205.93	1646.57
206.15	1654.76
206.37	1658.85
206.59	1632.23
206.81	1669.09
207.03	1665.00
207.25	1656.81
207.47	1806.31
207.69	1662.95
207.91	1791.97
208.13	1814.50
208.34	1720.29
208.56	1701.86
208.78	1699.81
209.00	1658.85
209.22	1675.24
209.44	1685.48
209.66	1634.28
209.88	1673.19
210.10	1669.09
210.32	1660.90
210.54	1726.44
210.76	1646.57
210.98	1787.88
211.20	1540.07
211.42	1734.63
211.64	1787.88
211.86	1701.86
212.08	1685.48
212.30	1656.81
212.52	1689.57
212.74	1744.87
212.96	1660.90
213.17	1744.87
213.39	1718.25
213.61	1816.55
213.83	1789.92
214.05	1658.85
214.27	1730.53
214.49	1640.42
214.71	1665.00
214.93	1712.10
215.15	1650.66
215.37	1734.63
215.59	1652.71
215.81	1619.94
216.03	1734.63
216.24	1701.86
216.46	1656.81
216.68	1708.01
216.90	1724.39
217.12	1755.11
217.34	1800.16
217.56	1681.38
217.78	1806.31
218.00	1689.57
218.22	1681.38
218.44	1665.00
218.66	1781.73
218.87	1726.44
219.09	1689.57
219.31	1675.24
219.53	1738.73
219.75	1644.52
219.97	1677.29
220.19	1693.67
220.41	1724.39
220.63	1757.16
220.85	1742.82
221.06	1679.33
221.28	1734.63
221.50	1677.29
221.72	1736.68
221.94	1736.68
222.16	1681.38
222.38	1783.78
222.60	1757.16
222.82	1708.01
223.03	1744.87
223.25	1681.38
223.47	1658.85
223.69	1779.68
223.91	1781.73
224.13	1671.14
224.35	1644.52
224.57	1726.44
224.78	1722.34
225.00	1660.90
225.22	1638.38
225.44	1656.81
225.66	1730.53
225.88	1701.86
226.10	1798.12
226.32	1693.67
226.53	1828.84
226.75	1730.53
226.97	1734.63
227.19	1675.24
227.41	1574.89
227.63	1607.66
227.85	1611.75
228.06	1671.14
228.28	1734.63
228.50	1761.25
228.72	1695.72
228.94	1693.67
229.16	1626.09
229.37	1763.30
229.59	1679.33
229.81	1757.16
230.03	1740.77
230.25	1597.42
230.47	1624.04
230.69	1665.00
230.90	1703.91
231.12	1681.38
231.34	1765.35
231.56	1824.74
231.78	1685.48
232.00	1683.43
232.21	1693.67
232.43	1595.37
232.65	1597.42
232.87	1722.34
233.09	1628.14
233.30	1773.54
233.52	1800.16
233.74	1769.44
233.96	1646.57
234.18	1691.62
234.40	1685.48
234.61	1834.98
234.83	1640.42
235.05	1726.44
235.27	1775.59
235.49	1714.15
235.70	1703.91
235.92	1755.11
236.14	1687.53
236.36	1830.88
236.58	1638.38
236.79	1738.73
237.01	1658.85
237.23	1728.49
237.45	1757.16
237.67	1615.85
237.88	1671.14
238.10	1734.63
238.32	1662.95
238.54	1685.48
238.76	1703.91
238.97	1634.28
239.19	1673.19
239.41	1738.73
239.63	1759.21
239.85	1671.14
240.06	1628.14
240.28	1654.76
240.50	1738.73
240.72	1714.15
240.93	1665.00
241.15	1816.55
241.37	1681.38
241.59	1710.05
241.81	1675.24
242.02	1710.05
242.24	1794.02
242.46	1751.01
242.68	1648.61
242.89	1718.25
243.11	1898.47
243.33	1693.67
243.55	1738.73
243.76	1703.91
243.98	1609.70
244.20	1722.34
244.42	1724.39
244.64	1746.92
244.85	1587.18
245.07	1712.10
245.29	1689.57
245.51	1660.90
245.72	1665.00
245.94	1748.97
246.16	1642.47
246.38	1736.68
246.59	1679.33
246.81	1656.81
247.03	1662.95
247.24	1636.33
247.46	1681.38
247.68	1740.77
247.90	1705.96
248.11	1689.57
248.33	1685.48
248.55	1662.95
248.77	1724.39
248.98	1796.07
249.20	1800.16
249.42	1724.39
249.64	1683.43
249.85	1689.57
250.07	1564.65
250.29	1771.49
250.50	1800.16
250.72	1576.94
250.94	1693.67
251.16	1853.41
251.37	1761.25
251.59	1718.25
251.81	1755.11
252.02	1730.53
252.24	1667.05
252.46	1724.39
252.68	1648.61
252.89	1615.85
253.11	1685.48
253.33	1767.40
253.54	1802.21
253.76	1636.33
253.98	1667.05
254.20	1681.38
254.41	1679.33
254.63	1716.20
254.85	1636.33
255.06	1705.96
255.28	1742.82
255.50	1687.53
255.71	1599.46
255.93	1589.22
256.15	1708.01
256.36	1710.05
256.58	1613.80
256.80	1695.72
257.02	1652.71
257.23	1726.44
257.45	1701.86
257.67	1722.34
257.88	1665.00
258.10	1730.53
258.32	1685.48
258.53	1699.81
258.75	1777.64
258.97	1648.61
259.18	1765.35
259.40	1757.16
259.62	1736.68
259.83	1800.16
260.05	1718.25
260.27	2000.87
260.48	1693.67
260.70	1667.05
260.92	1685.48
261.13	1640.42
261.35	1646.57
261.57	1685.48
261.78	1597.42
262.00	1648.61
262.22	1708.01
262.43	1679.33
262.65	1669.09
262.86	1722.34
263.08	1800.16
263.30	1662.95
263.51	1597.42
263.73	1636.33
263.95	1693.67
264.16	1595.37
264.38	1693.67
264.60	1669.09
264.81	1677.29
265.03	1734.63
265.25	1712.10
265.46	1648.61
265.68	1736.68
265.89	1624.04
266.11	1624.04
266.33	1722.34
266.54	1847.27
266.76	1720.29
266.98	1773.54
267.19	1751.01
267.41	1708.01
267.62	1708.01
267.84	1558.50
268.06	1714.15
268.27	1759.21
268.49	1753.06
268.70	1693.67
268.92	1703.91
269.14	1665.00
269.35	1619.94
269.57	1650.66
269.79	1718.25
270.00	1710.05
270.22	1728.49
270.43	1695.72
270.65	1591.27
270.87	1724.39
271.08	1734.63
271.30	1794.02
271.51	1669.09
271.73	1675.24
271.95	1687.53
272.16	1705.96
272.38	1703.91
272.59	1621.99
272.81	1660.90
273.02	1718.25
273.24	1781.73
273.46	1857.51
273.67	1730.53
273.89	1660.90
274.10	1667.05
274.32	1660.90
274.54	1718.25
274.75	1757.16
274.97	1615.85
275.18	1785.83
275.40	1718.25
275.61	1662.95
275.83	1746.92
276.05	1619.94
276.26	1628.14
276.48	1753.06
276.69	1710.05
276.91	1611.75
277.12	1816.55
277.34	1736.68
277.55	1771.49
277.77	1744.87
277.99	1689.57
278.20	1560.55
278.42	1665.00
278.63	1652.71
278.85	1720.29
279.06	1597.42
279.28	1714.15
279.49	1779.68
279.71	1783.78
279.93	1665.00
280.14	1671.14
280.36	1613.80
280.57	1751.01
280.79	1763.30
281.00	1689.57
281.22	1607.66
281.43	1787.88
281.65	1583.08
281.86	1705.96
282.08	1640.42
282.29	1746.92
282.51	1636.33
282.73	1619.94
282.94	1585.13
283.16	1697.77
283.37	1791.97
283.59	1710.05
283.80	1787.88
284.02	1732.58
284.23	1693.67
284.45	1705.96
284.66	1669.09
284.88	1619.94
285.09	1669.09
285.31	1791.97
285.52	1695.72
285.74	1665.00
285.95	1800.16
286.17	1687.53
286.38	1753.06
286.60	1624.04
286.81	1619.94
287.03	1665.00
287.24	1675.24
287.46	1751.01
287.67	1624.04
287.89	1849.32
288.10	1767.40
288.32	1675.24
288.53	1736.68
288.75	1679.33
288.96	1759.21
289.18	1648.61
289.39	1636.33
289.61	1771.49
289.82	1781.73
290.04	1742.82
290.25	1603.56
290.47	1738.73
290.68	1665.00
290.90	1744.87
291.11	1642.47
291.33	1728.49
291.54	1624.04
291.76	1693.67
291.97	1679.33
292.18	1693.67
292.40	1673.19
292.61	1683.43
292.83	1845.22
293.04	1714.15
293.26	1685.48
293.47	1652.71
293.69	1679.33
293.90	1685.48
294.12	1759.21
294.33	1710.05
294.55	1736.68
294.76	1767.40
294.97	1841.12
295.19	1841.12
295.40	1619.94
295.62	1716.20
295.83	1771.49
296.05	1701.86
296.26	1685.48
296.48	1654.76
296.69	1677.29
296.90	1632.23
297.12	1767.40
297.33	1787.88
297.55	1769.44
297.76	1726.44
297.98	1652.71
298.19	1765.35
298.41	1671.14
298.62	1697.77
298.83	1744.87
299.05	1710.05
299.26	1658.85
299.48	1642.47
299.69	1787.88
299.90	1720.29
300.12	1583.08
300.33	1759.21
300.55	1703.91
300.76	1705.96
300.98	1634.28
301.19	1712.10
301.40	1650.66
301.62	1675.24
301.83	1701.86
302.05	1734.63
302.26	1708.01
302.47	1660.90
302.69	1615.85
302.90	1703.91
303.12	1624.04
303.33	1693.67
303.54	1820.64
303.76	1683.43
303.97	1673.19
304.19	1802.21
304.40	1660.90
304.61	1705.96
304.83	1818.60
305.04	1697.77
305.26	1701.86
305.47	1638.38
305.68	1656.81
305.90	1652.71
306.11	1716.20
306.33	1642.47
306.54	1687.53
306.75	1724.39
306.97	1677.29
307.18	1714.15
307.39	1654.76
307.61	1665.00
307.82	1703.91
308.04	1755.11
308.25	1683.43
308.46	1673.19
308.68	1660.90
308.89	1722.34
309.10	1699.81
309.32	1791.97
309.53	1681.38
309.74	1767.40
309.96	1671.14
310.17	1800.16
310.39	1685.48
310.60	1718.25
310.81	1769.44
311.03	1650.66
311.24	1712.10
311.45	1662.95
311.67	1783.78
311.88	1673.19
312.09	1597.42
312.31	1609.70
312.52	1708.01
312.73	1697.77
312.95	1671.14
313.16	1652.71
313.37	1845.22
313.59	1722.34
313.80	1746.92
314.01	1787.88
314.23	1626.09
314.44	1656.81
314.65	1611.75
314.87	1685.48
315.08	1669.09
315.29	1636.33
315.51	1628.14
315.72	1617.90
315.93	1787.88
316.15	1712.10
316.36	1628.14
316.57	1783.78
316.79	1726.44
317.00	1669.09
317.21	1689.57
317.43	1652.71
317.64	1740.77
317.85	1687.53
318.07	1642.47
318.28	1679.33
318.49	1785.83
318.70	1910.75
318.92	1781.73
319.13	1755.11
319.34	1880.04
319.56	1779.68
319.77	1773.54
319.98	1757.16
320.20	1775.59
320.41	1847.27
320.62	1746.92
320.83	1691.62
321.05	1841.12
321.26	1730.53
321.47	1761.25
321.69	1732.58
321.90	1638.38
322.11	1665.00
322.32	1683.43
322.54	1708.01
322.75	1656.81
322.96	1787.88
323.18	1687.53
323.39	1554.41
323.60	1660.90
323.81	1753.06
324.03	1640.42
324.24	1714.15
324.45	1687.53
324.66	1665.00
324.88	1658.85
325.09	1775.59
325.30	1710.05
325.52	1724.39
325.73	1722.34
325.94	1593.32
326.15	1640.42
326.37	1636.33
326.58	1734.63
326.79	1806.31
327.00	1673.19
327.22	1746.92
327.43	1652.71
327.64	1630.18
327.85	1734.63
328.07	1685.48
328.28	1798.12
328.49	1665.00
328.70	1708.01
328.92	1693.67
329.13	1660.90
329.34	1691.62
329.55	1787.88
329.76	1730.53
329.98	1648.61
330.19	1775.59
330.40	1736.68
330.61	1652.71
330.83	1726.44
331.04	1640.42
331.25	1611.75
331.46	1650.66
331.68	1621.99
331.89	1675.24
332.10	1683.43
332.31	1597.42
332.52	1763.30
332.74	1724.39
332.95	1574.89
333.16	1632.23
333.37	1685.48
333.58	1703.91
333.80	1705.96
334.01	1632.23
334.22	1626.09
334.43	1675.24
334.64	1759.21
334.86	1566.70
335.07	1656.81
335.28	1779.68
335.49	1591.27
335.70	1771.49
335.92	1714.15
336.13	1853.41
336.34	1703.91
336.55	1718.25
336.76	1695.72
336.98	1603.56
337.19	1646.57
337.40	1775.59
337.61	1855.46
337.82	1720.29
338.04	1728.49
338.25	1662.95
338.46	1656.81
338.67	1716.20
338.88	1646.57
339.09	1652.71
339.31	1687.53
339.52	1656.81
339.73	1669.09
339.94	1705.96
340.15	1755.11
340.36	1640.42
340.58	1695.72
340.79	1683.43
341.00	1673.19
341.21	1667.05
341.42	1791.97
341.63	1708.01
341.85	1693.67
342.06	1671.14
342.27	1765.35
342.48	1716.20
342.69	1652.71
342.90	1773.54
343.12	1730.53
343.33	1726.44
343.54	1665.00
343.75	1853.41
343.96	1687.53
344.17	1605.61
344.38	1673.19
344.60	1716.20
344.81	1648.61
345.02	1644.52
345.23	1734.63
345.44	1857.51
345.65	1751.01
345.86	1681.38
346.07	1665.00
346.29	1636.33
346.50	1697.77
346.71	1751.01
346.92	1794.02
347.13	1824.74
347.34	1677.29
347.55	1685.48
347.76	1624.04
347.98	1624.04
348.19	1710.05
348.40	1746.92
348.61	1693.67
348.82	1824.74
349.03	1769.44
349.24	1660.90
349.45	1755.11
349.66	1640.42
349.88	1730.53
350.09	1648.61
350.30	1714.15
350.51	1787.88
350.72	1722.34
350.93	1691.62
351.14	1583.08
351.35	1771.49
351.56	1650.66
351.77	1613.80
351.99	1732.58
352.20	1669.09
352.41	1787.88
352.62	1572.84
352.83	1783.78
353.04	1669.09
353.25	1628.14
353.46	1701.86
353.67	1734.63
353.88	1667.05
354.09	1660.90
354.30	1705.96
354.52	1761.25
354.73	1695.72
354.94	1619.94
355.15	1716.20
355.36	1759.21
355.57	1712.10
355.78	1665.00
355.99	1658.85
356.20	1697.77
356.41	1734.63
356.62	1802.21
356.83	1789.92
357.04	1800.16
357.25	1597.42
357.46	1722.34
357.68	1652.71
357.89	1675.24
358.10	1667.05
358.31	1705.96
358.52	1730.53
358.73	1724.39
358.94	1646.57
359.15	1712.10
359.36	1734.63
359.57	1652.71
359.78	1654.76
359.99	1794.02
360.20	1642.47
360.41	1671.14
360.62	1757.16
360.83	1724.39
361.04	1697.77
361.25	1810.40
361.46	1742.82
361.67	1779.68
361.88	1683.43
362.09	1742.82
362.30	1724.39
362.51	1667.05
362.72	1650.66
362.93	1794.02
363.14	1738.73
363.35	1720.29
363.56	1681.38
363.78	1722.34
363.99	1685.48
364.20	1628.14
364.41	1685.48
364.62	1746.92
364.83	1718.25
365.04	1716.20
365.25	1642.47
365.46	1740.77
365.67	1662.95
365.88	1581.03
366.09	1710.05
366.30	1677.29
366.51	1632.23
366.72	1710.05
366.93	1665.00
367.14	1726.44
367.35	1783.78
367.56	1648.61
367.77	1763.30
367.98	1650.66
368.18	1703.91
368.39	1697.77
368.60	1650.66
368.81	1771.49
369.02	1695.72
369.23	1691.62
369.44	1648.61
369.65	1636.33
369.86	1744.87
370.07	1777.64
370.28	1689.57
370.49	1720.29
370.70	1699.81
370.91	1656.81
371.12	1603.56
371.33	1751.01
371.54	1656.81
371.75	1763.30
371.96	1609.70
372.17	1595.37
372.38	1646.57
372.59	1705.96
372.80	1667.05
373.01	1650.66
373.22	1761.25
373.43	1652.71
373.64	1681.38
373.85	1720.29
374.06	1787.88
374.26	1759.21
374.47	1722.34
374.68	1773.54
374.89	1699.81
375.10	1673.19
375.31	1765.35
375.52	1695.72
375.73	1703.91
375.94	1671.14
376.15	1757.16
376.36	1615.85
376.57	1730.53
376.78	1669.09
376.99	1712.10
377.20	1726.44
377.40	1617.90
377.61	1781.73
377.82	1630.18
378.03	1759.21
378.24	1783.78
378.45	1705.96
378.66	1665.00
378.87	1685.48
379.08	1665.00
379.29	1656.81
379.50	1722.34
379.71	1697.77
379.91	1660.90
380.12	1722.34
380.33	1675.24
380.54	1669.09
380.75	1675.24
380.96	1732.58
381.17	1671.14
381.38	1705.96
381.59	1699.81
381.80	1697.77
382.00	1826.79
382.21	1728.49
382.42	1847.27
382.63	1882.08
382.84	1728.49
383.05	1751.01
383.26	1804.26
383.47	1798.12
383.68	1726.44
383.88	1718.25
384.09	1783.78
384.30	1781.73
384.51	1697.77
384.72	1732.58
384.93	1576.94
385.14	1716.20
385.35	1820.64
385.55	1626.09
385.76	1734.63
385.97	1753.06
386.18	1685.48
386.39	1705.96
386.60	1662.95
386.81	1720.29
387.02	1650.66
387.22	1691.62
387.43	1763.30
387.64	1771.49
387.85	1890.28
388.06	2181.09
388.27	4364.22
388.48	6623.13
388.68	8097.67
388.89	9621.36
389.10	9760.62
389.31	8511.36
389.52	7499.66
389.73	6752.15
389.93	6334.37
390.14	5894.05
390.35	5169.07
390.56	4497.34
390.77	3751.88
390.98	2910.16
391.18	2527.19
391.39	2142.18
391.60	1861.60
391.81	1787.88
392.02	1759.21
392.23	1791.97
392.43	1705.96
392.64	1779.68
392.85	1710.05
393.06	1847.27
393.27	1730.53
393.47	1687.53
393.68	1689.57
393.89	1695.72
394.10	1697.77
394.31	1695.72
394.52	1665.00
394.72	1722.34
394.93	1822.69
395.14	1591.27
395.35	1665.00
395.56	1699.81
395.76	1777.64
395.97	1746.92
396.18	1787.88
396.39	1900.52
396.60	2035.68
396.80	1943.52
397.01	1837.03
397.22	1800.16
397.43	1859.56
397.64	1693.67
397.84	1785.83
398.05	1871.84
398.26	1810.40
398.47	1734.63
398.67	1783.78
398.88	1753.06
399.09	1746.92
399.30	1732.58
399.51	1675.24
399.71	1757.16
399.92	1656.81
400.13	1730.53
400.34	1689.57
400.54	1683.43
400.75	1824.74
400.96	1708.01
401.17	1863.65
401.37	1746.92
401.58	1763.30
401.79	1722.34
402.00	1877.99
402.21	2076.64
402.41	1992.67
402.62	2017.25
402.83	1994.72
403.04	1998.82
403.24	2111.46
403.45	1845.22
403.66	1861.60
403.87	1812.45
404.07	1912.80
404.28	1953.76
404.49	1837.03
404.70	1845.22
404.90	1779.68
405.11	1699.81
405.32	1699.81
405.52	1630.18
405.73	1638.38
405.94	1652.71
406.15	1644.52
406.35	1785.83
406.56	1740.77
406.77	1660.90
406.98	1693.67
407.18	1638.38
407.39	1818.60
407.60	1689.57
407.80	1771.49
408.01	1744.87
408.22	1712.10
408.43	1652.71
408.63	1746.92
408.84	1683.43
409.05	1705.96
409.25	1644.52
409.46	1632.23
409.67	1619.94
409.88	1675.24
410.08	1728.49
410.29	1654.76
410.50	1753.06
410.70	1718.25
410.91	1703.91
411.12	1724.39
411.32	1718.25
411.53	1660.90
411.74	1738.73
411.95	1718.25
412.15	1755.11
412.36	1755.11
412.57	1708.01
412.77	1818.60
412.98	1794.02
413.19	1742.82
413.39	1740.77
413.60	1673.19
413.81	1818.60
414.01	1671.14
414.22	1644.52
414.43	1783.78
414.63	1689.57
414.84	1742.82
415.05	1671.14
415.25	1617.90
415.46	1740.77
415.67	1714.15
415.87	1726.44
416.08	1652.71
416.29	1621.99
416.49	1730.53
416.70	1658.85
416.91	1652.71
417.11	1621.99
417.32	1759.21
417.53	1732.58
417.73	1658.85
417.94	1675.24
418.15	1734.63
418.35	1757.16
418.56	1732.58
418.77	1810.40
418.97	1765.35
419.18	1732.58
419.38	1660.90
419.59	1691.62
419.80	1789.92
420.00	1722.34
420.21	1697.77
420.42	1736.68
420.62	1718.25
420.83	1673.19
421.04	1746.92
421.24	1722.34
421.45	1712.10
421.65	1718.25
421.86	1703.91
422.07	1720.29
422.27	1687.53
422.48	1753.06
422.69	1648.61
422.89	1716.20
423.10	1654.76
423.30	1669.09
423.51	1736.68
423.72	1683.43
423.92	1746.92
424.13	1732.58
424.33	1681.38
424.54	1816.55
424.75	1689.57
424.95	1726.44
425.16	1730.53
425.36	1722.34
425.57	1759.21
425.78	1771.49
425.98	1748.97
426.19	1681.38
426.39	1685.48
426.60	1714.15
426.81	1841.12
427.01	1669.09
427.22	1708.01
427.42	1652.71
427.63	1697.77
427.83	1767.40
428.04	1708.01
428.25	1845.22
428.45	1814.50
428.66	1785.83
428.86	1703.91
429.07	1683.43
429.28	1716.20
429.48	1734.63
429.69	1628.14
429.89	1763.30
430.10	1722.34
430.30	1730.53
430.51	1740.77
430.71	1673.19
430.92	1648.61
431.13	1660.90
431.33	1712.10
431.54	1703.91
431.74	1814.50
431.95	1804.26
432.15	1695.72
432.36	1703.91
432.56	1703.91
432.77	1877.99
432.98	1800.16
433.18	1720.29
433.39	1632.23
433.59	1593.32
433.80	1863.65
434.00	1927.14
434.21	1693.67
434.41	1658.85
434.62	1814.50
434.82	1662.95
435.03	1736.68
435.23	1722.34
435.44	1658.85
435.64	1703.91
435.85	1828.84
436.06	1765.35
436.26	1773.54
436.47	1708.01
436.67	1685.48
436.88	1724.39
437.08	1755.11
437.29	1845.22
437.49	1662.95
437.70	1767.40
437.90	1705.96
438.11	1843.17
438.31	1716.20
438.52	1820.64
438.72	1818.60
438.93	1918.95
439.13	1771.49
439.34	1779.68
439.54	1726.44
439.75	1763.30
439.95	1763.30
440.16	1658.85
440.36	1794.02
440.57	1808.36
440.77	1689.57
440.98	1732.58
441.18	1814.50
441.39	1640.42
441.59	1646.57
441.80	1861.60
442.00	1699.81
442.21	1755.11
442.41	1660.90
442.62	1755.11
442.82	1667.05
443.02	1746.92
443.23	1765.35
443.43	1757.16
443.64	1742.82
443.84	1671.14
444.05	1777.64
444.25	1697.77
444.46	1691.62
444.66	1656.81
444.87	1826.79
445.07	1695.72
445.28	1744.87
445.48	1763.30
445.69	1689.57
445.89	1867.75
446.09	1812.45
446.30	2090.98
446.50	2602.97
446.71	3661.77
446.91	4272.06
447.12	4777.91
447.32	4913.08
447.53	4190.14
447.73	3792.84
447.93	3512.27
448.14	3262.41
448.34	3160.02
448.55	2840.53
448.75	2926.55
448.96	2709.46
449.16	2398.17
449.36	2205.66
449.57	2064.35
449.77	1945.57
449.98	1832.93
450.18	1781.73
450.39	1759.21
450.59	1779.68
450.79	1687.53
451.00	1726.44
451.20	1710.05
451.41	1660.90
451.61	1806.31
451.81	1828.84
452.02	1697.77
452.22	1699.81
452.43	1701.86
452.63	1687.53
452.84	1712.10
453.04	1755.11
453.24	1828.84
453.45	1654.76
453.65	1769.44
453.86	1765.35
454.06	1818.60
454.26	1777.64
454.47	1675.24
454.67	1761.25
454.87	1748.97
455.08	1761.25
455.28	1816.55
455.49	1722.34
455.69	1685.48
455.89	1812.45
456.10	1814.50
456.30	1697.77
456.51	1746.92
456.71	1724.39
456.91	1828.84
457.12	1712.10
457.32	1753.06
457.52	1644.52
457.73	1783.78
457.93	1771.49
458.14	1667.05
458.34	1703.91
458.54	1703.91
458.75	1742.82
458.95	1746.92
459.15	1722.34
459.36	1738.73
459.56	1779.68
459.76	1804.26
459.97	1677.29
460.17	1697.77
460.37	1802.21
460.58	1695.72
460.78	1761.25
460.99	1710.05
461.19	1693.67
461.39	1716.20
461.60	1728.49
461.80	1705.96
462.00	1624.04
462.21	1681.38
462.41	1603.56
462.61	1587.18
462.82	1652.71
463.02	1712.10
463.22	1644.52
463.43	1806.31
463.63	1695.72
463.83	1832.93
464.04	1798.12
464.24	1609.70
464.44	1681.38
464.64	1699.81
464.85	1763.30
465.05	1775.59
465.25	1669.09
465.46	1708.01
465.66	1763.30
465.86	1734.63
466.07	1765.35
466.27	1746.92
466.47	1665.00
466.68	1691.62
466.88	1830.88
467.08	1796.07
467.29	1841.12
467.49	1722.34
467.69	1705.96
467.89	1689.57
468.10	1673.19
468.30	1710.05
468.50	1787.88
468.71	1806.31
468.91	1654.76
469.11	1861.60
469.31	1652.71
469.52	1656.81
469.72	1830.88
469.92	1828.84
470.13	1689.57
470.33	1789.92
470.53	1820.64
470.73	2088.93
470.94	2197.47
471.14	2238.43
471.34	2519.00
471.54	2449.37
471.75	2250.72
471.95	2160.61
472.15	2127.84
472.36	2123.74
472.56	2045.92
472.76	2062.30
472.96	2013.15
473.17	2007.01
473.37	1920.99
473.57	1757.16
473.77	1779.68
473.98	1845.22
474.18	1734.63
474.38	1929.19
474.58	1722.34
474.79	1710.05
474.99	1697.77
475.19	1767.40
475.39	1734.63
475.60	1695.72
475.80	1775.59
476.00	1736.68
476.20	1683.43
476.41	1751.01
476.61	1791.97
476.81	1779.68
477.01	1640.42
477.21	1873.89
477.42	1771.49
477.62	1708.01
477.82	1783.78
478.02	1697.77
478.23	1775.59
478.43	1609.70
478.63	1695.72
478.83	1740.77
479.03	1759.21
479.24	1773.54
479.44	1841.12
479.64	1634.28
479.84	1675.24
480.04	1693.67
480.25	1746.92
480.45	1697.77
480.65	1783.78
480.85	1753.06
481.06	1681.38
481.26	1783.78
481.46	1800.16
481.66	1736.68
481.86	1648.61
482.06	1845.22
482.27	1689.57
482.47	1720.29
482.67	1716.20
482.87	1753.06
483.07	1742.82
483.28	1642.47
483.48	1619.94
483.68	1665.00
483.88	1699.81
484.08	1542.12
484.29	1593.32
484.49	1773.54
484.69	1689.57
484.89	1781.73
485.09	1699.81
485.29	1712.10
485.50	1787.88
485.70	1697.77
485.90	1736.68
486.10	1771.49
486.30	1804.26
486.50	1716.20
486.71	1669.09
486.91	1851.36
487.11	1738.73
487.31	1636.33
487.51	1837.03
487.71	1726.44
487.91	1617.90
488.12	1667.05
488.32	1665.00
488.52	1720.29
488.72	1607.66
488.92	1742.82
489.12	1791.97
489.32	1759.21
489.53	1816.55
489.73	1615.85
489.93	1820.64
490.13	1656.81
490.33	1587.18
490.53	1722.34
490.73	1767.40
490.94	1689.57
491.14	1765.35
491.34	1755.11
491.54	2148.32
491.74	2584.54
491.94	2942.93
492.14	3063.76
492.34	3014.61
492.54	2770.90
492.75	2457.56
492.95	2426.84
493.15	2383.84
493.35	2224.09
493.55	2224.09
493.75	2160.61
493.95	2115.55
494.15	2062.30
494.35	1955.81
494.56	1796.07
494.76	1781.73
494.96	1779.68
495.16	1820.64
495.36	1791.97
495.56	1812.45
495.76	1726.44
495.96	1746.92
496.16	1669.09
496.36	1816.55
496.56	1730.53
496.77	1763.30
496.97	1771.49
497.17	1822.69
497.37	1605.61
497.57	1757.16
497.77	1677.29
497.97	1671.14
498.17	1697.77
498.37	1808.36
498.57	1775.59
498.77	1708.01
498.97	1771.49
499.17	1816.55
499.38	1714.15
499.58	1714.15
499.78	1751.01
499.98	1777.64
500.18	1718.25
500.38	1597.42
500.58	1902.56
500.78	2535.39
500.98	4581.31
501.18	5664.68
501.38	6721.43
501.58	6993.81
501.78	6602.65
501.98	5498.80
502.18	4904.89
502.38	4448.19
502.58	4093.89
502.78	3659.72
502.98	3585.99
503.18	3434.44
503.38	3157.97
503.59	2904.02
503.79	2736.09
503.99	2469.85
504.19	2336.73
504.39	2226.14
504.59	2068.45
504.79	2123.74
504.99	1972.19
505.19	1906.66
505.39	1832.93
505.59	2007.01
505.79	1816.55
505.99	1890.28
506.19	1796.07
506.39	1800.16
506.59	1695.72
506.79	1722.34
506.99	1830.88
507.19	1748.97
507.39	1753.06
507.59	1650.66
507.79	1695.72
507.99	1716.20
508.19	1607.66
508.39	1693.67
508.59	1744.87
508.79	1773.54
508.99	1943.52
509.19	1652.71
509.39	1845.22
509.59	1708.01
509.79	1656.81
509.99	1710.05
510.19	1814.50
510.39	1767.40
510.59	1751.01
510.79	1736.68
510.99	1691.62
511.19	1716.20
511.39	1830.88
511.59	1871.84
511.79	1796.07
511.99	1736.68
512.19	1834.98
512.38	1740.77
512.58	1689.57
512.78	1722.34
512.98	1769.44
513.18	1777.64
513.38	1640.42
513.58	1759.21
513.78	1685.48
513.98	1789.92
514.18	1763.30
514.38	1726.44
514.58	1710.05
514.78	1718.25
514.98	1597.42
515.18	1724.39
515.38	1685.48
515.58	1763.30
515.78	1628.14
515.98	1701.86
516.18	1757.16
516.38	1755.11
516.57	1609.70
516.77	1605.61
516.97	1726.44
517.17	1683.43
517.37	1642.47
517.57	1759.21
517.77	1736.68
517.97	1738.73
518.17	1794.02
518.37	1681.38
518.57	1703.91
518.77	1689.57
518.97	1732.58
519.16	1677.29
519.36	1783.78
519.56	1671.14
519.76	1740.77
519.96	1730.53
520.16	1824.74
520.36	1632.23
520.56	1746.92
520.76	1726.44
520.96	1681.38
521.16	1814.50
521.35	1806.31
521.55	1763.30
521.75	1767.40
521.95	1671.14
522.15	1695.72
522.35	1648.61
522.55	1683.43
522.75	1755.11
522.95	1677.29
523.14	1720.29
523.34	1753.06
523.54	1708.01
523.74	1710.05
523.94	1699.81
524.14	1652.71
524.34	1757.16
524.54	1806.31
524.73	1701.86
524.93	1814.50
525.13	1740.77
525.33	1570.79
525.53	1861.60
525.73	1796.07
525.93	1748.97
526.13	1710.05
526.32	1710.05
526.52	1714.15
526.72	1783.78
526.92	1685.48
527.12	1744.87
527.32	1656.81
527.52	1701.86
527.71	1722.34
527.91	1779.68
528.11	1720.29
528.31	1724.39
528.51	1693.67
528.71	1748.97
528.90	1767.40
529.10	1781.73
529.30	1785.83
529.50	1632.23
529.70	1767.40
529.90	1699.81
530.09	1769.44
530.29	1607.66
530.49	1671.14
530.69	1880.04
530.89	1681.38
531.09	1796.07
531.28	1726.44
531.48	1865.70
531.68	1761.25
531.88	1769.44
532.08	1757.16
532.28	1761.25
532.47	1726.44
532.67	1742.82
532.87	1699.81
533.07	1722.34
533.27	1783.78
533.46	1656.81
533.66	1839.08
533.86	1714.15
534.06	1689.57
534.26	1718.25
534.45	1673.19
534.65	1751.01
534.85	1869.80
535.05	1722.34
535.25	1730.53
535.44	1673.19
535.64	1763.30
535.84	1687.53
536.04	1730.53
536.24	1751.01
536.43	1712.10
536.63	1730.53
536.83	1689.57
537.03	1726.44
537.22	1669.09
537.42	1638.38
537.62	1761.25
537.82	1708.01
538.02	1804.26
538.21	1869.80
538.41	1880.04
538.61	1828.84
538.81	1746.92
539.00	1824.74
539.20	1648.61
539.40	1708.01
539.60	1771.49
539.79	1753.06
539.99	1705.96
540.19	1642.47
540.39	1740.77
540.58	1759.21
540.78	1728.49
540.98	1667.05
541.18	1880.04
541.37	1806.31
541.57	1736.68
541.77	1746.92
541.97	1716.20
542.16	1730.53
542.36	1742.82
542.56	1732.58
542.76	1859.56
542.95	1746.92
543.15	1765.35
543.35	1791.97
543.54	1650.66
543.74	1689.57
543.94	1814.50
544.14	1785.83
544.33	1775.59
544.53	1671.14
544.73	1699.81
544.93	1738.73
545.12	1773.54
545.32	1710.05
545.52	1755.11
545.71	1660.90
545.91	1744.87
546.11	1693.67
546.30	1710.05
546.50	1746.92
546.70	1722.34
546.90	1736.68
547.09	1665.00
547.29	1724.39
547.49	1800.16
547.68	1703.91
547.88	1640.42
548.08	1710.05
548.27	2166.75
548.47	1742.82
548.67	1662.95
548.87	1697.77
549.06	1701.86
549.26	1712.10
549.46	1732.58
549.65	1712.10
549.85	1763.30
550.05	1771.49
550.24	1607.66
550.44	1703.91
550.64	1771.49
550.83	1802.21
551.03	1769.44
551.23	1818.60
551.42	1724.39
551.62	1705.96
551.82	1755.11
552.01	1699.81
552.21	1808.36
552.41	1744.87
552.60	1759.21
552.80	1746.92
553.00	1693.67
553.19	1767.40
553.39	1804.26
553.59	1605.61
553.78	1787.88
553.98	1800.16
554.17	1660.90
554.37	1726.44
554.57	1751.01
554.76	1654.76
554.96	1695.72
555.16	1726.44
555.35	1740.77
555.55	1695.72
555.75	1746.92
555.94	1826.79
556.14	1636.33
556.33	1791.97
556.53	1679.33
556.73	1789.92
556.92	1755.11
557.12	1869.80
557.32	1841.12
557.51	1812.45
557.71	1789.92
557.90	1808.36
558.10	1843.17
558.30	1716.20
558.49	1652.71
558.69	1738.73
558.88	1697.77
559.08	1748.97
559.28	1728.49
559.47	1763.30
559.67	1779.68
559.86	1804.26
560.06	1816.55
560.26	1724.39
560.45	1759.21
560.65	1705.96
560.84	1738.73
561.04	1738.73
561.24	1777.64
561.43	1705.96
561.63	1875.94
561.82	1718.25
562.02	1757.16
562.22	1665.00
562.41	1662.95
562.61	1681.38
562.80	1650.66
563.00	1937.38
563.19	1691.62
563.39	1738.73
563.59	1832.93
563.78	1681.38
563.98	1691.62
564.17	1712.10
564.37	1642.47
564.56	1732.58
564.76	1675.24
564.96	1882.08
565.15	1679.33
565.35	1841.12
565.54	1660.90
565.74	1787.88
565.93	1724.39
566.13	1763.30
566.32	1783.78
566.52	1789.92
566.71	1748.97
566.91	1724.39
567.11	1738.73
567.30	1718.25
567.50	1789.92
567.69	1734.63
567.89	1783.78
568.08	1648.61
568.28	1726.44
568.47	1759.21
568.67	1697.77
568.86	1656.81
569.06	1791.97
569.25	1726.44
569.45	1603.56
569.64	1722.34
569.84	1695.72
570.04	1705.96
570.23	1714.15
570.43	1736.68
570.62	1775.59
570.82	1822.69
571.01	1658.85
571.21	1703.91
571.40	1732.58
571.60	1853.41
571.79	1726.44
571.99	1785.83
572.18	1660.90
572.38	1765.35
572.57	1748.97
572.77	1769.44
572.96	1906.66
573.16	1730.53
573.35	1722.34
573.55	1855.46
573.74	1794.02
573.94	1626.09
574.13	1705.96
574.33	1777.64
574.52	1810.40
574.71	1724.39
574.91	1716.20
575.10	1732.58
575.30	1701.86
575.49	1658.85
575.69	1691.62
575.88	1845.22
576.08	1730.53
576.27	1841.12
576.47	1755.11
576.66	1826.79
576.86	1837.03
577.05	1796.07
577.25	1869.80
577.44	1865.70
577.64	1775.59
577.83	1783.78
578.02	1724.39
578.22	1824.74
578.41	1806.31
578.61	1718.25
578.80	1652.71
579.00	1771.49
579.19	1742.82
579.39	1820.64
579.58	1847.27
579.77	1755.11
579.97	1880.04
580.16	1808.36
580.36	1820.64
580.55	1761.25
580.75	1855.46
580.94	1648.61
581.13	1863.65
581.33	1832.93
581.52	1753.06
581.72	1808.36
581.91	1820.64
582.11	1722.34
582.30	1845.22
582.49	1757.16
582.69	1886.18
582.88	1773.54
583.08	1779.68
583.27	1828.84
583.47	1720.29
583.66	1773.54
583.85	1720.29
584.05	1789.92
584.24	1785.83
584.44	1755.11
584.63	1808.36
584.82	1814.50
585.02	1910.75
585.21	1824.74
585.41	1849.32
585.60	1910.75
585.79	1920.99
585.99	1951.71
586.18	1861.60
586.37	2160.61
586.57	3477.45
586.76	9805.67
586.96	24245.90
587.15	34473.46
587.34	40600.98
587.54	42091.90
587.73	36247.00
587.93	26044.02
588.12	21683.89
588.31	18243.31
588.51	16164.62
588.70	15060.76
588.89	14270.25
589.09	12646.21
589.28	10850.14
589.47	9566.06
589.67	7989.13
589.86	6227.87
590.06	4943.80
590.25	3948.48
590.44	2969.55
590.64	2549.72
590.83	2222.05
591.02	2082.78
591.22	1892.32
591.41	1871.84
591.60	1806.31
591.80	1988.58
591.99	1794.02
592.18	1759.21
592.38	1888.23
592.57	1755.11
592.76	1810.40
592.96	1787.88
593.15	1738.73
593.34	1808.36
593.54	1720.29
593.73	1808.36
593.92	1830.88
594.12	1791.97
594.31	1699.81
594.50	1771.49
594.70	1734.63
594.89	1898.47
595.08	1632.23
595.28	1716.20
595.47	1933.28
595.66	1738.73
595.86	1673.19
596.05	1742.82
596.24	1701.86
596.43	1812.45
596.63	1781.73
596.82	1759.21
597.01	1787.88
597.21	1789.92
597.40	1785.83
597.59	1703.91
597.79	1722.34
597.98	1796.07
598.17	1791.97
598.36	1720.29
598.56	1763.30
598.75	1679.33
598.94	1826.79
599.14	1753.06
599.33	1617.90
599.52	1673.19
599.71	1796.07
599.91	1736.68
600.10	1732.58
600.29	1703.91
600.48	1794.02
600.68	1746.92
600.87	1785.83
601.06	1673.19
601.26	1722.34
601.45	1771.49
601.64	1761.25
601.83	1769.44
602.03	1767.40
602.22	1662.95
602.41	1810.40
602.60	1875.94
602.80	1783.78
602.99	1742.82
603.18	1667.05
603.37	1736.68
603.57	1775.59
603.76	1742.82
603.95	1871.84
604.14	1726.44
604.34	1708.01
604.53	1755.11
604.72	1787.88
604.91	1714.15
605.10	1787.88
605.30	1746.92
605.49	1880.04
605.68	1771.49
605.87	1738.73
606.07	1656.81
606.26	1669.09
606.45	1806.31
606.64	1771.49
606.84	1746.92
607.03	1650.66
607.22	1697.77
607.41	1703.91
607.60	1732.58
607.80	1789.92
607.99	1705.96
608.18	1785.83
608.37	1669.09
608.56	1679.33
608.76	1771.49
608.95	1847.27
609.14	1708.01
609.33	1753.06
609.52	1773.54
609.72	1722.34
609.91	1812.45
610.10	1716.20
610.29	1861.60
610.48	1748.97
610.68	1748.97
610.87	1740.77
611.06	1767.40
611.25	1771.49
611.44	1712.10
611.63	1630.18
611.83	1865.70
612.02	1675.24
612.21	1740.77
612.40	1601.51
612.59	1691.62
612.79	1665.00
612.98	1771.49
613.17	1783.78
613.36	1693.67
613.55	1796.07
613.74	1673.19
613.93	1660.90
614.13	1669.09
614.32	1636.33
614.51	1767.40
614.70	1656.81
614.89	1685.48
615.08	1787.88
615.28	2082.78
615.47	1732.58
615.66	1691.62
615.85	1738.73
616.04	1865.70
616.23	1685.48
616.42	1671.14
616.62	1785.83
616.81	1759.21
617.00	1671.14
617.19	1751.01
617.38	1656.81
617.57	1748.97
617.76	1716.20
617.95	1746.92
618.15	1656.81
618.34	1783.78
618.53	1650.66
618.72	1806.31
618.91	1830.88
619.10	1775.59
619.29	1710.05
619.48	1767.40
619.68	1734.63
619.87	1708.01
620.06	1658.85
620.25	1689.57
620.44	1636.33
620.63	1714.15
620.82	1730.53
621.01	1689.57
621.20	1710.05
621.39	1716.20
621.59	1705.96
621.78	1785.83
621.97	1654.76
622.16	1724.39
622.35	1656.81
622.54	1789.92
622.73	1779.68
622.92	1675.24
623.11	1703.91
623.30	1695.72
623.49	1742.82
623.68	1697.77
623.88	1763.30
624.07	1751.01
624.26	1824.74
624.45	1654.76
624.64	1724.39
624.83	1671.14
625.02	1697.77
625.21	1736.68
625.40	1660.90
625.59	1751.01
625.78	1681.38
625.97	1816.55
626.16	1708.01
626.35	1732.58
626.54	1820.64
626.74	1759.21
626.93	1755.11
627.12	1757.16
627.31	1794.02
627.50	1697.77
627.69	1730.53
627.88	1714.15
628.07	1648.61
628.26	1691.62
628.45	1591.27
628.64	1714.15
628.83	1720.29
629.02	1677.29
629.21	1806.31
629.40	1808.36
629.59	1693.67
629.78	1730.53
629.97	1677.29
630.16	1685.48
630.35	1636.33
630.54	1685.48
630.73	1679.33
630.92	1687.53
631.11	1701.86
631.30	1800.16
631.49	1738.73
631.68	1689.57
631.87	1722.34
632.06	1652.71
632.25	1830.88
632.44	1687.53
632.63	1691.62
632.82	1646.57
633.01	1662.95
633.20	1769.44
633.39	1636.33
633.58	1667.05
633.77	1632.23
633.96	1673.19
634.15	1785.83
634.34	1730.53
634.53	1789.92
634.72	1720.29
634.91	1652.71
635.10	1722.34
635.29	1697.77
635.48	1703.91
635.67	1667.05
635.86	1695.72
636.05	1837.03
636.24	1724.39
636.43	1683.43
636.62	1736.68
636.81	1593.32
637.00	1763.30
637.19	1748.97
637.38	1730.53
637.57	1714.15
637.76	1736.68
637.95	1748.97
638.14	1685.48
638.33	1732.58
638.52	1701.86
638.71	1724.39
638.89	1650.66
639.08	1908.71
639.27	1730.53
639.46	1638.38
639.65	1761.25
639.84	1697.77
640.03	1738.73
640.22	1695.72
640.41	1773.54
640.60	1732.58
640.79	1712.10
640.98	1658.85
641.17	1718.25
641.36	1642.47
641.55	1689.57
641.74	1660.90
641.92	1667.05
642.11	1634.28
642.30	1724.39
642.49	1578.98
642.68	1638.38
642.87	1794.02
643.06	1742.82
643.25	1679.33
643.44	1658.85
643.63	1730.53
643.82	1759.21
644.00	1708.01
644.19	1728.49
644.38	1566.70
644.57	1726.44
644.76	1753.06
644.95	1681.38
645.14	1751.01
645.33	1714.15
645.52	1720.29
645.71	1650.66
645.89	1642.47
646.08	1746.92
646.27	1669.09
646.46	1796.07
646.65	1654.76
646.84	1806.31
647.03	1646.57
647.22	1738.73
647.40	1697.77
647.59	1681.38
647.78	1628.14
647.97	1632.23
648.16	1640.42
648.35	1763.30
648.54	1789.92
648.73	1714.15
648.91	1812.45
649.10	1755.11
649.29	1656.81
649.48	1732.58
649.67	1740.77
649.86	1675.24
650.05	1658.85
650.23	1720.29
650.42	1576.94
650.61	1832.93
650.80	1687.53
650.99	1830.88
651.18	1703.91
651.36	1730.53
651.55	1691.62
651.74	1763.30
651.93	1671.14
652.12	1701.86
652.31	1714.15
652.49	1650.66
652.68	1689.57
652.87	1832.93
653.06	1703.91
653.25	1794.02
653.44	1763.30
653.62	1806.31
653.81	1679.33
654.00	1662.95
654.19	1785.83
654.38	1798.12
654.56	1781.73
654.75	1658.85
654.94	1736.68
655.13	1728.49
655.32	1732.58
655.51	1748.97
655.69	1646.57
655.88	1794.02
656.07	1689.57
656.26	1853.41
656.45	1621.99
656.63	1714.15
656.82	1679.33
657.01	1738.73
657.20	1621.99
657.38	1765.35
657.57	1671.14
657.76	1679.33
657.95	1748.97
658.14	1701.86
658.32	1828.84
658.51	1630.18
658.70	1689.57
658.89	1712.10
659.08	1789.92
659.26	1888.23
659.45	1607.66
659.64	1679.33
659.83	1652.71
660.01	1920.99
660.20	1662.95
660.39	1800.16
660.58	1578.98
660.76	1798.12
660.95	1656.81
661.14	1718.25
661.33	1578.98
661.51	1662.95
661.70	1742.82
661.89	1675.24
662.08	1730.53
662.26	1611.75
662.45	1581.03
662.64	1800.16
662.83	1771.49
663.01	1564.65
663.20	1619.94
663.39	1824.74
663.58	1681.38
663.76	1710.05
663.95	1687.53
664.14	1632.23
664.32	1755.11
664.51	1615.85
664.70	1621.99
664.89	1730.53
665.07	1583.08
665.26	1800.16
665.45	1617.90
665.64	1718.25
665.82	1810.40
666.01	1767.40
666.20	1710.05
666.38	1728.49
666.57	1775.59
666.76	2217.95
666.95	4450.24
667.13	10291.04
667.32	15314.71
667.51	17850.10
667.69	19166.94
667.88	17649.39
668.07	12281.67
668.25	9486.19
668.44	8042.37
668.63	7206.80
668.81	6893.46
669.00	6324.13
669.19	5689.26
669.38	4956.08
669.56	4581.31
669.75	4046.79
669.94	3428.30
670.12	2904.02
670.31	2482.14
670.50	2226.14
670.68	2076.64
670.87	1898.47
671.06	1812.45
671.24	1761.25
671.43	1804.26
671.62	1796.07
671.80	1732.58
671.99	1834.98
672.18	1726.44
672.36	1714.15
672.55	1724.39
672.74	1665.00
672.92	1644.52
673.11	1759.21
673.29	1640.42
673.48	1775.59
673.67	1697.77
673.85	1730.53
674.04	1611.75
674.23	1763.30
674.41	1853.41
674.60	1662.95
674.79	1693.67
674.97	1683.43
675.16	1679.33
675.34	1800.16
675.53	1677.29
675.72	1726.44
675.90	1767.40
676.09	1671.14
676.28	1669.09
676.46	1611.75
676.65	1773.54
676.83	1720.29
677.02	1726.44
677.21	1720.29
677.39	1675.24
677.58	1611.75
677.77	1751.01
677.95	1667.05
678.14	1769.44
678.32	1683.43
678.51	1683.43
678.70	1834.98
678.88	1677.29
679.07	1687.53
679.25	1693.67
679.44	1683.43
679.63	1642.47
679.81	1705.96
680.00	1728.49
680.18	1701.86
680.37	1861.60
680.55	1742.82
680.74	1630.18
680.93	1660.90
681.11	1699.81
681.30	1687.53
681.48	1703.91
681.67	1695.72
681.85	1671.14
682.04	1628.14
682.23	1742.82
682.41	1687.53
682.60	1669.09
682.78	1675.24
682.97	1699.81
683.15	1736.68
683.34	1761.25
683.53	1726.44
683.71	1677.29
683.90	1796.07
684.08	1828.84
684.27	1669.09
684.45	1789.92
684.64	1830.88
684.82	1665.00
685.01	1677.29
685.19	1748.97
685.38	1802.21
685.57	1662.95
685.75	1675.24
685.94	1763.30
686.12	1714.15
686.31	1787.88
686.49	1798.12
686.68	1583.08
686.86	1697.77
687.05	1665.00
687.23	1800.16
687.42	1658.85
687.60	1609.70
687.79	1751.01
687.97	1816.55
688.16	1746.92
688.34	1849.32
688.53	1599.46
688.71	1710.05
688.90	1791.97
689.08	1677.29
689.27	1587.18
689.45	1712.10
689.64	1687.53
689.82	1677.29
690.01	1716.20
690.19	1806.31
690.38	1640.42
690.56	1812.45
690.75	1624.04
690.93	1667.05
691.12	1646.57
691.30	1753.06
691.49	1703.91
691.67	1667.05
691.86	1851.36
692.04	1703.91
692.23	1636.33
692.41	1708.01
692.60	1832.93
692.78	1757.16
692.97	1771.49
693.15	1708.01
693.34	1859.56
693.52	1791.97
693.71	1701.86
693.89	1660.90
694.08	1621.99
694.26	1755.11
694.44	1708.01
694.63	1734.63
694.81	1673.19
695.00	1697.77
695.18	1736.68
695.37	1820.64
695.55	1748.97
695.74	1642.47
695.92	1697.77
696.10	1738.73
696.29	1687.53
696.47	1648.61
696.66	1617.90
696.84	1685.48
697.03	1710.05
697.21	1849.32
697.40	2277.34
697.58	1763.30
697.76	1679.33
697.95	1736.68
698.13	1611.75
698.32	1683.43
698.50	1652.71
698.68	1705.96
698.87	1624.04
699.05	1845.22
699.24	1748.97
699.42	1587.18
699.61	1742.82
699.79	1673.19
699.97	1597.42
700.16	1720.29
700.34	1628.14
700.53	1710.05
700.71	1787.88
700.89	1673.19
701.08	1677.29
701.26	1779.68
701.45	2099.17
701.63	1699.81
701.81	1683.43
702.00	1656.81
702.18	1677.29
702.37	1640.42
702.55	1708.01
702.73	1718.25
702.92	1621.99
703.10	1814.50
703.28	1703.91
703.47	1673.19
703.65	1767.40
703.84	1726.44
704.02	1681.38
704.20	1806.31
704.39	1675.24
704.57	1730.53
704.75	1775.59
704.94	1787.88
705.12	1665.00
705.30	1798.12
705.49	2189.28
705.67	4233.15
705.86	9373.55
706.04	12654.40
706.22	14395.17
706.41	15449.88
706.59	13633.33
706.77	9529.20
706.96	7376.78
707.14	6590.36
707.32	5965.73
707.51	5588.91
707.69	4917.17
707.87	4159.42
708.06	3536.84
708.24	2963.41
708.42	2412.51
708.61	2306.01
708.79	1884.13
708.97	1900.52
709.16	1818.60
709.34	1802.21
709.52	1783.78
709.71	1677.29
709.89	1753.06
710.07	1689.57
710.26	1675.24
710.44	1685.48
710.62	1746.92
710.80	1716.20
710.99	1789.92
711.17	1675.24
711.35	1656.81
711.54	1669.09
711.72	1773.54
711.90	1697.77
712.09	1697.77
712.27	1689.57
712.45	1693.67
712.63	1738.73
712.82	1658.85
713.00	1644.52
713.18	1726.44
713.37	1730.53
713.55	1783.78
713.73	1748.97
713.91	1738.73
714.10	1634.28
714.28	1716.20
714.46	1697.77
714.65	1671.14
714.83	1681.38
715.01	1753.06
715.19	1699.81
715.38	1689.57
715.56	1765.35
715.74	1687.53
715.92	1621.99
716.11	1779.68
716.29	1572.84
716.47	1675.24
716.65	1693.67
716.84	1630.18
717.02	1761.25
717.20	1560.55
717.38	1642.47
717.57	1714.15
717.75	1705.96
717.93	1728.49
718.11	1736.68
718.30	1603.56
718.48	1665.00
718.66	1740.77
718.84	1722.34
719.03	1763.30
719.21	1599.46
719.39	1888.23
719.57	1736.68
719.75	1734.63
719.94	1716.20
720.12	1675.24
720.30	1689.57
720.48	1724.39
720.67	1667.05
720.85	1613.80
721.03	1638.38
721.21	1650.66
721.39	1777.64
721.58	1742.82
721.76	1777.64
721.94	1718.25
722.12	1710.05
722.30	1787.88
722.49	1601.51
722.67	1718.25
722.85	1648.61
723.03	1564.65
723.21	1669.09
723.40	1716.20
723.58	1726.44
723.76	1773.54
723.94	1712.10
724.12	1728.49
724.30	1802.21
724.49	1673.19
724.67	1615.85
724.85	1742.82
725.03	1624.04
725.21	1781.73
725.40	1755.11
725.58	1683.43
725.76	1697.77
725.94	1728.49
726.12	1660.90
726.30	1677.29
726.49	1763.30
726.67	1691.62
726.85	1683.43
727.03	1767.40
727.21	2201.57
727.39	2842.58
727.57	3844.04
727.76	4140.99
727.94	4351.93
728.12	4435.90
728.30	3692.49
728.48	2951.12
728.66	2848.72
728.84	2586.58
729.03	2326.49
729.21	2232.29
729.39	2023.39
729.57	1814.50
729.75	1853.41
729.93	1845.22
730.11	1767.40
730.30	1671.14
730.48	1667.05
730.66	1699.81
730.84	1771.49
731.02	1755.11
731.20	1695.72
731.38	1728.49
731.56	1648.61
731.74	1648.61
731.93	1683.43
732.11	1646.57
732.29	1767.40
732.47	1718.25
732.65	1732.58
732.83	1796.07
733.01	1724.39
733.19	1671.14
733.37	1777.64
733.56	1759.21
733.74	1722.34
733.92	1755.11
734.10	1718.25
734.28	1757.16
734.46	1705.96
734.64	1671.14
734.82	1714.15
735.00	1632.23
735.18	1681.38
735.36	1746.92
735.54	1667.05
735.73	1736.68
735.91	1703.91
736.09	1640.42
736.27	1785.83
736.45	1726.44
736.63	1554.41
736.81	1693.67
736.99	1746.92
737.17	1777.64
737.35	1693.67
737.53	1710.05
737.71	1685.48
737.89	1796.07
738.07	1679.33
738.25	1589.22
738.43	1718.25
738.61	1697.77
738.80	1675.24
738.98	1736.68
739.16	1638.38
739.34	1673.19
739.52	1796.07
739.70	1695.72
739.88	1667.05
740.06	1779.68
740.24	1570.79
740.42	1777.64
740.60	1599.46
740.78	1552.36
740.96	1619.94
741.14	1607.66
741.32	1744.87
741.50	1609.70
741.68	1822.69
741.86	1837.03
742.04	1607.66
742.22	1611.75
742.40	1736.68
742.58	1828.84
742.76	1669.09
742.94	1748.97
743.12	1589.22
743.30	1662.95
743.48	1748.97
743.66	1613.80
743.84	1720.29
744.02	1669.09
744.20	1701.86
744.38	1638.38
744.56	1679.33
744.74	1769.44
744.92	1699.81
745.10	1787.88
745.28	1679.33
745.46	1841.12
745.64	1687.53
745.82	1800.16
746.00	1716.20
746.18	1701.86
746.36	1691.62
746.54	1728.49
746.72	1716.20
746.90	1662.95
747.08	1703.91
747.26	1636.33
747.44	1765.35
747.62	1759.21
747.80	1714.15
747.98	1697.77
748.15	1648.61
748.33	1787.88
748.51	1724.39
748.69	1693.67
748.87	1619.94
749.05	1667.05
749.23	1607.66
749.41	1730.53
749.59	1654.76
749.77	1742.82
749.95	1740.77
750.13	1581.03
750.31	1751.01
750.49	1677.29
750.67	1730.53
750.85	1814.50
751.03	1656.81
751.20	1828.84
751.38	1710.05
751.56	1665.00
751.74	1734.63
751.92	1689.57
752.10	1667.05
752.28	1710.05
752.46	1689.57
752.64	1753.06
752.82	1667.05
753.00	1710.05
753.18	1607.66
753.35	1675.24
753.53	1697.77
753.71	1648.61
753.89	1781.73
754.07	1669.09
754.25	1677.29
754.43	1712.10
754.61	1609.70
754.79	1697.77
754.97	1712.10
755.14	1785.83
755.32	1617.90
755.50	1697.77
755.68	1746.92
755.86	1640.42
756.04	1646.57
756.22	1638.38
756.40	1738.73
756.57	1777.64
756.75	1624.04
756.93	1701.86
757.11	1761.25
757.29	1660.90
757.47	1689.57
757.65	1626.09
757.82	1578.98
758.00	1679.33
758.18	1697.77
758.36	1714.15
758.54	1820.64
758.72	1630.18
758.90	1791.97
759.07	1662.95
759.25	1677.29
759.43	1699.81
759.61	1665.00
759.79	2209.76
759.97	1732.58
760.15	1669.09
760.32	1656.81
760.50	1665.00
760.68	1763.30
760.86	1603.56
761.04	1746.92
761.22	1759.21
761.39	1757.16
761.57	1718.25
761.75	1699.81
761.93	1751.01
762.11	1675.24
762.28	1654.76
762.46	1611.75
762.64	1773.54
762.82	1628.14
763.00	1777.64
763.18	1734.63
763.35	1669.09
763.53	1705.96
763.71	1648.61
763.89	1691.62
764.07	1687.53
764.24	1701.86
764.42	1771.49
764.60	1693.67
764.78	1724.39
764.96	1740.77
765.13	1736.68
765.31	1683.43
765.49	1763.30
765.67	1714.15
765.84	1740.77
766.02	1611.75
766.20	1656.81
766.38	1703.91
766.56	1710.05
766.73	1742.82
766.91	1718.25
767.09	1736.68
767.27	1761.25
767.44	1626.09
767.62	1701.86
767.80	1648.61
767.98	1695.72
768.15	1755.11
768.33	1753.06
768.51	1658.85
768.69	1718.25
768.87	1742.82
769.04	1683.43
769.22	1892.32
769.40	1818.60
769.58	1894.37
769.75	1755.11
769.93	1720.29
770.11	1662.95
770.28	1652.71
770.46	1796.07
770.64	1771.49
770.82	1673.19
770.99	1712.10
771.17	1759.21
771.35	1632.23
771.53	1667.05
771.70	1673.19
771.88	1640.42
772.06	1693.67
772.23	1722.34
772.41	1632.23
772.59	1595.37
772.77	1634.28
772.94	1746.92
773.12	1767.40
773.30	1656.81
773.47	1710.05
773.65	1621.99
773.83	1740.77
774.01	1734.63
774.18	1564.65
774.36	1722.34
774.54	1730.53
774.71	1738.73
774.89	1699.81
775.07	1691.62
775.24	1751.01
775.42	1689.57
775.60	1773.54
775.78	1716.20
775.95	1636.33
776.13	1564.65
776.31	1677.29
776.48	1701.86
776.66	1855.46
776.84	1679.33
777.01	1621.99
777.19	1630.18
777.37	1654.76
777.54	1773.54
777.72	1779.68
777.90	1738.73
778.07	1765.35
778.25	1927.14
778.43	1789.92
778.60	1646.57
778.78	1796.07
778.96	1751.01
779.13	1591.27
779.31	1726.44
779.49	1638.38
779.66	1785.83
779.84	1720.29
780.01	1681.38
780.19	1656.81
780.37	1722.34
780.54	1654.76
780.72	1683.43
780.90	1626.09
781.07	1724.39
781.25	1660.90
781.43	1746.92
781.60	1691.62
781.78	1755.11
781.95	1638.38
782.13	1705.96
782.31	1687.53
782.48	1607.66
782.66	1777.64
782.83	1806.31
783.01	1748.97
783.19	1736.68
783.36	1617.90
783.54	1658.85
783.72	1714.15
783.89	1626.09
784.07	1736.68
784.24	1685.48
784.42	1820.64
784.60	1681.38
784.77	1718.25
784.95	1570.79
785.12	1695.72
785.30	1728.49
785.47	1654.76
785.65	1701.86
785.83	1665.00
786.00	1699.81
786.18	1689.57
786.35	1642.47
786.53	1603.56
786.71	1728.49
786.88	1650.66
787.06	1701.86
787.23	1615.85
787.41	1662.95
787.58	1662.95
787.76	1656.81
787.94	1705.96
788.11	1716.20
788.29	1689.57
788.46	1640.42
788.64	1601.51
788.81	1667.05
788.99	1624.04
789.16	1675.24
789.34	1738.73
789.52	1679.33
789.69	1636.33
789.87	1646.57
790.04	1738.73
790.22	1667.05
790.39	1804.26
790.57	1603.56
790.74	1595.37
790.92	1734.63
791.09	1572.84
791.27	1796.07
791.44	1699.81
791.62	1656.81
791.79	1757.16
791.97	1638.38
792.15	1918.95
792.32	1738.73
792.50	1755.11
792.67	1861.60
792.85	1734.63
793.02	1722.34
793.20	1738.73
793.37	1628.14
793.55	1722.34
793.72	1617.90
793.90	1710.05
794.07	1583.08
794.25	1624.04
794.42	1746.92
794.60	1728.49
794.77	1773.54
794.95	1675.24
795.12	1722.34
795.30	1650.66
795.47	1605.61
795.65	1900.52
795.82	1734.63
796.00	1660.90
796.17	1656.81
796.34	1609.70
796.52	1722.34
796.69	1744.87
796.87	1816.55
797.04	1705.96
797.22	1748.97
797.39	1794.02
797.57	1820.64
797.74	1679.33
797.92	1638.38
798.09	1650.66
798.27	1755.11
798.44	1771.49
798.62	1636.33
798.79	1738.73
798.96	1712.10
799.14	1636.33
799.31	1855.46
799.49	1626.09
799.66	1767.40
799.84	1646.57
800.01	1685.48
800.19	1660.90
800.36	1632.23
800.53	1658.85
800.71	1660.90
800.88	1837.03
801.06	1710.05
801.23	1599.46
801.41	1705.96
801.58	1601.51
801.75	1607.66
801.93	1714.15
802.10	1769.44
802.28	1669.09
802.45	1724.39
802.63	1781.73
802.80	1804.26
802.97	1656.81
803.15	1742.82
803.32	1636.33
803.50	1679.33
803.67	1665.00
803.84	1640.42
804.02	1699.81
804.19	1689.57
804.37	1597.42
804.54	1701.86
804.71	1695.72
804.89	1652.71
805.06	1701.86
805.24	1646.57
805.41	1701.86
805.58	1695.72
805.76	1800.16
805.93	1740.77
806.10	1767.40
806.28	1779.68
806.45	1689.57
806.63	1705.96
806.80	1683.43
806.97	1738.73
807.15	1689.57
807.32	1710.05
807.49	1695.72
807.67	1636.33
807.84	1646.57
808.01	1640.42
808.19	1843.17
808.36	1828.84
808.54	1626.09
808.71	1654.76
808.88	1693.67
809.06	1746.92
809.23	1802.21
809.40	1607.66
809.58	1791.97
809.75	1660.90
809.92	1654.76
810.10	1789.92
810.27	1701.86
810.44	1691.62
810.62	1820.64
810.79	1744.87
810.96	1617.90
811.14	1677.29
811.31	1714.15
811.48	1773.54
811.66	1767.40
811.83	1767.40
812.00	1644.52
812.18	1757.16
812.35	1785.83
812.52	1677.29
812.69	1681.38
812.87	1785.83
813.04	1638.38
813.21	1581.03
813.39	1660.90
813.56	1626.09
813.73	1779.68
813.91	1683.43
814.08	1742.82
814.25	1714.15
814.42	1603.56
814.60	1648.61
814.77	1746.92
814.94	1619.94
815.12	1656.81
815.29	1824.74
815.46	1662.95
815.63	1693.67
815.81	1667.05
815.98	1613.80
816.15	1669.09
816.33	1701.86
816.50	1703.91
816.67	1687.53
816.84	1699.81
817.02	1660.90
817.19	1726.44
817.36	1693.67
817.53	1697.77
817.71	1712.10
817.88	1755.11
818.05	1681.38
818.22	1650.66
818.40	1773.54
818.57	1681.38
818.74	1705.96
818.91	1646.57
819.09	1740.77
819.26	1771.49
819.43	1712.10
819.60	1642.47
819.78	1705.96
819.95	1796.07
820.12	1671.14
820.29	1712.10
820.47	1751.01
820.64	1732.58
820.81	1603.56
820.98	1681.38
821.15	1656.81
821.33	1816.55
821.50	1570.79
821.67	1728.49
821.84	1675.24
822.02	1714.15
822.19	1681.38
822.36	1720.29
822.53	1755.11
822.70	1603.56
822.88	1697.77
823.05	1804.26
823.22	1677.29
823.39	1722.34
823.56	1673.19
823.74	1789.92
823.91	1630.18
824.08	1646.57
824.25	1636.33
824.42	1847.27
824.60	1675.24
824.77	1751.01
824.94	1693.67
825.11	1886.18
825.28	1681.38
825.45	1636.33
825.63	1701.86
825.80	1658.85
825.97	1710.05
826.14	1685.48
826.31	1615.85
826.48	1751.01
826.66	1599.46
826.83	1736.68
827.00	1671.14
827.17	1607.66
827.34	1667.05
827.51	1759.21
827.69	1783.78
827.86	1656.81
828.03	1667.05
828.20	1734.63
828.37	1638.38
828.54	1714.15
828.71	1624.04
828.89	1789.92
829.06	1697.77
829.23	1812.45
829.40	1679.33
829.57	1763.30
829.74	1742.82
829.91	1652.71
830.09	1708.01
830.26	1740.77
830.43	1712.10
830.60	1748.97
830.77	1753.06
830.94	1777.64
831.11	1703.91
831.28	1722.34
831.46	1767.40
831.63	1755.11
831.80	1777.64
831.97	1734.63
832.14	1669.09
832.31	1798.12
832.48	1685.48
832.65	1658.85
832.82	1701.86
832.99	1742.82
833.17	1624.04
833.34	1697.77
833.51	1703.91
833.68	1576.94
833.85	1746.92
834.02	1730.53
834.19	1619.94
834.36	1677.29
834.53	1705.96
834.70	1662.95
834.87	1763.30
835.04	1673.19
835.22	1665.00
835.39	1673.19
835.56	1734.63
835.73	1708.01
835.90	1806.31
836.07	1708.01
836.24	1767.40
836.41	1658.85
836.58	1632.23
836.75	1789.92
836.92	1714.15
837.09	1722.34
837.26	1796.07
837.43	1738.73
837.60	1665.00
837.77	1685.48
837.94	1693.67
838.12	1781.73
838.29	1761.25
838.46	1626.09
838.63	1710.05
838.80	1826.79
838.97	1771.49
839.14	1734.63
839.31	1726.44
839.48	1722.34
839.65	1714.15
839.82	1783.78
839.99	1738.73
840.16	1685.48
840.33	1683.43
840.50	1734.63
840.67	1648.61
840.84	1578.98
841.01	1660.90
841.18	1667.05
841.35	1732.58
841.52	1794.02
841.69	1877.99
841.86	1673.19
842.03	1712.10
842.20	1796.07
842.37	1681.38
842.54	1685.48
842.71	1703.91
842.88	1652.71
843.05	1744.87
843.22	1718.25
843.39	1755.11
843.56	1708.01
843.73	1765.35
843.90	1699.81
844.07	1675.24
844.24	1746.92
844.41	1710.05
844.58	1710.05
844.75	1654.76
844.92	1728.49
845.09	1689.57
845.26	1705.96
845.43	1761.25
845.60	1685.48
845.77	1710.05
845.94	1673.19
846.10	1703.91
846.27	1533.93
846.44	1656.81
846.61	1611.75
846.78	1638.38
846.95	1751.01
847.12	1613.80
847.29	1632.23
847.46	1705.96
847.63	1683.43
847.80	1710.05
847.97	1705.96
848.14	1886.18
848.31	1693.67
848.48	1595.37
848.65	1759.21
848.82	1642.47
848.98	1808.36
849.15	1796.07
849.32	1751.01
849.49	1746.92
849.66	1730.53
849.83	1712.10
850.00	1646.57
850.17	1783.78
850.34	1662.95
850.51	1701.86
850.68	1697.77
850.85	1849.32
851.01	1740.77
851.18	1763.30
851.35	1699.81
851.52	1755.11
851.69	1726.44
851.86	1589.22
852.03	1677.29
852.20	1740.77
852.37	1660.90
852.53	1640.42
852.70	1671.14
852.87	1728.49
853.04	1685.48
853.21	1701.86
853.38	1720.29
853.55	1798.12
853.72	1720.29
853.89	1585.13
854.05	1710.05
854.22	1693.67
854.39	1609.70
854.56	1712.10
854.73	1806.31
854.90	1665.00
855.07	1691.62
855.23	1634.28
855.40	1638.38
855.57	1660.90
855.74	1662.95
855.91	1853.41
856.08	1538.02
856.25	1652.71
856.41	1628.14
856.58	1691.62
856.75	1656.81
856.92	1650.66
857.09	1710.05
857.26	1689.57
857.42	1683.43
857.59	1730.53
857.76	1703.91
857.93	1699.81
858.10	1732.58
858.27	1597.42
858.43	1734.63
858.60	1648.61
858.77	1572.84
858.94	1609.70
859.11	1826.79
859.27	1705.96
859.44	1699.81
859.61	1857.51
859.78	1632.23
859.95	1691.62
860.12	1646.57
860.28	1783.78
860.45	1755.11
860.62	1669.09
860.79	1724.39
860.95	1667.05
861.12	1648.61
861.29	1615.85
861.46	1665.00
861.63	1650.66
861.79	1746.92
861.96	1640.42
862.13	1738.73
862.30	1732.58
862.47	1640.42
862.63	1656.81
862.80	1697.77
862.97	1730.53
863.14	1695.72
863.30	1726.44
863.47	1681.38
863.64	1765.35
863.81	1697.77
863.97	1683.43
864.14	1632.23
864.31	1712.10
864.48	1673.19
864.65	1732.58
864.81	1763.30
864.98	1841.12
865.15	1740.77
865.32	1691.62
865.48	1746.92
865.65	1738.73
865.82	1662.95
865.98	1699.81
866.15	1771.49
866.32	1726.44
866.49	1667.05
866.65	1757.16
866.82	1630.18
866.99	1626.09
867.16	1638.38
867.32	1701.86
867.49	1712.10
867.66	1642.47
867.83	1677.29
867.99	1697.77
868.16	1675.24
868.33	1617.90
868.49	1693.67
868.66	1701.86
868.83	1810.40
868.99	1609.70
869.16	1687.53
869.33	1794.02
869.50	1705.96
869.66	1624.04
869.83	1724.39
870.00	1677.29
870.16	1742.82
870.33	1677.29
870.50	1685.48
870.66	1654.76
870.83	1853.41
871.00	1724.39
871.17	1779.68
871.33	1730.53
871.50	1730.53
871.67	1703.91
871.83	1687.53
872.00	1761.25
872.17	1691.62
872.33	1818.60
872.50	1724.39
872.67	1671.14
872.83	1705.96
873.00	1781.73
873.17	1611.75
873.33	1761.25
873.50	1687.53
873.67	1658.85
873.83	1683.43
874.00	1677.29
874.16	1783.78
874.33	1656.81
874.50	1705.96
874.66	1697.77
874.83	1648.61
875.00	1732.58
875.16	1703.91
875.33	1763.30
875.50	1609.70
875.66	1642.47
875.83	1660.90
875.99	1681.38
876.16	1722.34
876.33	1626.09
876.49	1648.61
876.66	1699.81
876.83	1712.10
876.99	1644.52
877.16	1693.67
877.32	1644.52
877.49	1693.67
877.66	1730.53
877.82	1675.24
877.99	1681.38
878.15	1703.91
878.32	1632.23
878.49	1726.44
878.65	1660.90
878.82	1806.31
878.98	1744.87
879.15	1787.88
879.32	1705.96
879.48	1710.05
879.65	1720.29
879.81	1671.14
879.98	1665.00
880.15	1687.53
880.31	1773.54
880.48	1632.23
880.64	1695.72
880.81	1730.53
880.97	1785.83
881.14	1814.50
881.31	1640.42
881.47	1828.84
881.64	1638.38
881.80	1615.85
881.97	1755.11
882.13	1761.25
882.30	1628.14
882.47	1691.62
882.63	1714.15
882.80	1644.52
882.96	1748.97
883.13	1806.31
883.29	1732.58
883.46	1652.71
883.62	1667.05
883.79	1644.52
883.95	1728.49
884.12	1755.11
884.29	1742.82
884.45	1728.49
884.62	1718.25
884.78	1628.14
884.95	1820.64
885.11	1675.24
885.28	1714.15
885.44	1667.05
885.61	1730.53
885.77	1820.64
885.94	1681.38
886.10	1656.81
886.27	1746.92
886.43	1765.35
886.60	1757.16
886.76	1763.30
886.93	1617.90
887.09	1730.53
887.26	1605.61
887.42	1599.46
887.59	1798.12
887.75	1765.35
887.92	1771.49
888.08	1726.44
888.25	1769.44
888.41	1718.25
888.58	1697.77
888.74	1626.09
888.91	1736.68
>>>>>End Processed Spectral Data<<<<<
