SpectraSuite Data File
++++++++++++++++++++++++++++++++++++
Date: Mon Jun 06 14:34:57 CEST 2016
User: root
Dark Spectrum Present: No
Reference Spectrum Present: No
Number of Sampled Component Spectra: 1
Spectrometers: USB4C02835
Integration Time (usec): 100000 (USB4C02835)
Spectra Averaged: 1 (USB4C02835)
Boxcar Smoothing: 0 (USB4C02835)
Correct for Electrical Dark: No (USB4C02835)
Strobe/Lamp Enabled: No (USB4C02835)
Correct for Detector Non-linearity: No (USB4C02835)
Correct for Stray Light: No (USB4C02835)
Number of Pixels in Processed Spectrum: 3648
>>>>>Begin Processed Spectral Data<<<<<
177.47	1423.34
177.69	1423.34
177.91	1423.34
178.13	1472.49
178.36	1460.20
178.58	1665.00
178.80	1720.29
179.02	1589.22
179.24	1675.24
179.46	1671.14
179.68	1710.05
179.90	1693.67
180.13	1732.58
180.35	1605.61
180.57	1669.09
180.79	1808.36
181.01	1640.42
181.23	1751.01
181.45	1828.84
181.67	1755.11
181.90	1765.35
182.12	1654.76
182.34	1638.38
182.56	1693.67
182.78	1730.53
183.00	1814.50
183.22	1595.37
183.44	1566.70
183.66	1837.03
183.89	1767.40
184.11	1691.62
184.33	1740.77
184.55	1738.73
184.77	1751.01
184.99	1646.57
185.21	1746.92
185.43	1830.88
185.65	1595.37
185.87	1652.71
186.10	1880.04
186.32	1806.31
186.54	1726.44
186.76	1732.58
186.98	1751.01
187.20	1705.96
187.42	1705.96
187.64	1673.19
187.86	1705.96
188.08	1720.29
188.30	1689.57
188.52	1714.15
188.75	1796.07
188.97	1820.64
189.19	1675.24
189.41	1712.10
189.63	1714.15
189.85	1671.14
190.07	1650.66
190.29	1632.23
190.51	1646.57
190.73	1605.61
190.95	1787.88
191.17	1673.19
191.39	1656.81
191.61	1681.38
191.84	1742.82
192.06	1716.20
192.28	1624.04
192.50	1871.84
192.72	1697.77
192.94	1695.72
193.16	1656.81
193.38	1705.96
193.60	1601.51
193.82	1748.97
194.04	1779.68
194.26	1681.38
194.48	1681.38
194.70	1701.86
194.92	1638.38
195.14	1695.72
195.36	1675.24
195.58	1693.67
195.80	1638.38
196.02	1636.33
196.24	1675.24
196.46	1730.53
196.69	1613.80
196.91	1802.21
197.13	1671.14
197.35	1697.77
197.57	1834.98
197.79	1783.78
198.01	1775.59
198.23	1693.67
198.45	1716.20
198.67	1636.33
198.89	1685.48
199.11	1673.19
199.33	1673.19
199.55	1544.17
199.77	1691.62
199.99	1726.44
200.21	1732.58
200.43	1728.49
200.65	1646.57
200.87	1564.65
201.09	1646.57
201.31	1695.72
201.53	1765.35
201.75	1697.77
201.97	1701.86
202.19	1724.39
202.41	1726.44
202.63	1796.07
202.85	1728.49
203.07	1658.85
203.29	1665.00
203.51	1615.85
203.73	1570.79
203.95	1947.62
204.17	1705.96
204.39	1744.87
204.61	1712.10
204.83	1638.38
205.05	1759.21
205.27	1834.98
205.49	1796.07
205.71	1726.44
205.93	1691.62
206.15	1691.62
206.37	1748.97
206.59	1673.19
206.81	1679.33
207.03	1683.43
207.25	1699.81
207.47	1738.73
207.69	1703.91
207.91	1740.77
208.13	1769.44
208.34	1654.76
208.56	1710.05
208.78	1775.59
209.00	1673.19
209.22	1736.68
209.44	1710.05
209.66	1642.47
209.88	1710.05
210.10	1671.14
210.32	1669.09
210.54	1783.78
210.76	1660.90
210.98	1789.92
211.20	1611.75
211.42	1699.81
211.64	1789.92
211.86	1708.01
212.08	1669.09
212.30	1687.53
212.52	1736.68
212.74	1644.52
212.96	1691.62
213.17	1783.78
213.39	1677.29
213.61	1705.96
213.83	1740.77
214.05	1607.66
214.27	1767.40
214.49	1511.40
214.71	1693.67
214.93	1810.40
215.15	1691.62
215.37	1693.67
215.59	1644.52
215.81	1785.83
216.03	1773.54
216.24	1761.25
216.46	1683.43
216.68	1673.19
216.90	1720.29
217.12	1701.86
217.34	1693.67
217.56	1755.11
217.78	1785.83
218.00	1759.21
218.22	1695.72
218.44	1705.96
218.66	1742.82
218.87	1779.68
219.09	1660.90
219.31	1705.96
219.53	1740.77
219.75	1714.15
219.97	1718.25
220.19	1757.16
220.41	1693.67
220.63	1812.45
220.85	1738.73
221.06	1642.47
221.28	1734.63
221.50	1673.19
221.72	1744.87
221.94	1705.96
222.16	1783.78
222.38	1783.78
222.60	1724.39
222.82	1671.14
223.03	1775.59
223.25	1558.50
223.47	1763.30
223.69	1822.69
223.91	1826.79
224.13	1769.44
224.35	1660.90
224.57	1724.39
224.78	1738.73
225.00	1615.85
225.22	1695.72
225.44	1718.25
225.66	1701.86
225.88	1724.39
226.10	1742.82
226.32	1742.82
226.53	1767.40
226.75	1734.63
226.97	1714.15
227.19	1726.44
227.41	1562.60
227.63	1638.38
227.85	1599.46
228.06	1734.63
228.28	1636.33
228.50	1726.44
228.72	1660.90
228.94	1705.96
229.16	1650.66
229.37	1591.27
229.59	1662.95
229.81	1812.45
230.03	1714.15
230.25	1572.84
230.47	1656.81
230.69	1644.52
230.90	1773.54
231.12	1695.72
231.34	1708.01
231.56	1841.12
231.78	1646.57
232.00	1685.48
232.21	1669.09
232.43	1654.76
232.65	1591.27
232.87	1705.96
233.09	1660.90
233.30	1673.19
233.52	1730.53
233.74	1667.05
233.96	1705.96
234.18	1691.62
234.40	1632.23
234.61	1763.30
234.83	1621.99
235.05	1615.85
235.27	1824.74
235.49	1716.20
235.70	1662.95
235.92	1814.50
236.14	1677.29
236.36	1886.18
236.58	1677.29
236.79	1775.59
237.01	1656.81
237.23	1753.06
237.45	1791.97
237.67	1646.57
237.88	1679.33
238.10	1787.88
238.32	1632.23
238.54	1669.09
238.76	1624.04
238.97	1634.28
239.19	1734.63
239.41	1761.25
239.63	1714.15
239.85	1705.96
240.06	1751.01
240.28	1617.90
240.50	1798.12
240.72	1693.67
240.93	1673.19
241.15	1794.02
241.37	1705.96
241.59	1685.48
241.81	1791.97
242.02	1736.68
242.24	1728.49
242.46	1650.66
242.68	1638.38
242.89	1628.14
243.11	1763.30
243.33	1626.09
243.55	1763.30
243.76	1695.72
243.98	1656.81
244.20	1701.86
244.42	1675.24
244.64	1771.49
244.85	1632.23
245.07	1636.33
245.29	1738.73
245.51	1632.23
245.72	1730.53
245.94	1671.14
246.16	1669.09
246.38	1826.79
246.59	1701.86
246.81	1650.66
247.03	1656.81
247.24	1611.75
247.46	1699.81
247.68	1779.68
247.90	1656.81
248.11	1642.47
248.33	1746.92
248.55	1681.38
248.77	1716.20
248.98	1716.20
249.20	1777.64
249.42	1646.57
249.64	1783.78
249.85	1699.81
250.07	1683.43
250.29	1789.92
250.50	1767.40
250.72	1673.19
250.94	1791.97
251.16	1837.03
251.37	1822.69
251.59	1767.40
251.81	1705.96
252.02	1724.39
252.24	1675.24
252.46	1697.77
252.68	1617.90
252.89	1669.09
253.11	1656.81
253.33	1779.68
253.54	1828.84
253.76	1591.27
253.98	1708.01
254.20	1718.25
254.41	1611.75
254.63	1708.01
254.85	1650.66
255.06	1742.82
255.28	1771.49
255.50	1669.09
255.71	1681.38
255.93	1718.25
256.15	1613.80
256.36	1708.01
256.58	1677.29
256.80	1812.45
257.02	1701.86
257.23	1673.19
257.45	1740.77
257.67	1705.96
257.88	1693.67
258.10	1683.43
258.32	1732.58
258.53	1726.44
258.75	1882.08
258.97	1628.14
259.18	1695.72
259.40	1691.62
259.62	1806.31
259.83	1802.21
260.05	1767.40
260.27	2004.96
260.48	1708.01
260.70	1679.33
260.92	1755.11
261.13	1787.88
261.35	1673.19
261.57	1656.81
261.78	1681.38
262.00	1628.14
262.22	1695.72
262.43	1697.77
262.65	1746.92
262.86	1726.44
263.08	1873.89
263.30	1644.52
263.51	1658.85
263.73	1669.09
263.95	1779.68
264.16	1665.00
264.38	1648.61
264.60	1761.25
264.81	1667.05
265.03	1658.85
265.25	1744.87
265.46	1630.18
265.68	1763.30
265.89	1701.86
266.11	1648.61
266.33	1716.20
266.54	1808.36
266.76	1687.53
266.98	1775.59
267.19	1802.21
267.41	1777.64
267.62	1705.96
267.84	1572.84
268.06	1695.72
268.27	1755.11
268.49	1773.54
268.70	1761.25
268.92	1656.81
269.14	1628.14
269.35	1585.13
269.57	1791.97
269.79	1751.01
270.00	1689.57
270.22	1771.49
270.43	1697.77
270.65	1650.66
270.87	1759.21
271.08	1732.58
271.30	1712.10
271.51	1675.24
271.73	1759.21
271.95	1748.97
272.16	1710.05
272.38	1724.39
272.59	1652.71
272.81	1667.05
273.02	1724.39
273.24	1685.48
273.46	1755.11
273.67	1654.76
273.89	1626.09
274.10	1640.42
274.32	1800.16
274.54	1679.33
274.75	1705.96
274.97	1650.66
275.18	1779.68
275.40	1689.57
275.61	1761.25
275.83	1755.11
276.05	1669.09
276.26	1677.29
276.48	1767.40
276.69	1665.00
276.91	1665.00
277.12	1851.36
277.34	1798.12
277.55	1802.21
277.77	1673.19
277.99	1646.57
278.20	1591.27
278.42	1726.44
278.63	1562.60
278.85	1626.09
279.06	1671.14
279.28	1740.77
279.49	1681.38
279.71	1765.35
279.93	1708.01
280.14	1763.30
280.36	1675.24
280.57	1765.35
280.79	1701.86
281.00	1681.38
281.22	1654.76
281.43	1695.72
281.65	1525.74
281.86	1636.33
282.08	1777.64
282.29	1837.03
282.51	1607.66
282.73	1648.61
282.94	1632.23
283.16	1796.07
283.37	1875.94
283.59	1691.62
283.80	1730.53
284.02	1746.92
284.23	1716.20
284.45	1691.62
284.66	1593.32
284.88	1675.24
285.09	1775.59
285.31	1761.25
285.52	1753.06
285.74	1640.42
285.95	1808.36
286.17	1718.25
286.38	1689.57
286.60	1611.75
286.81	1734.63
287.03	1746.92
287.24	1712.10
287.46	1710.05
287.67	1662.95
287.89	1865.70
288.10	1646.57
288.32	1705.96
288.53	1753.06
288.75	1755.11
288.96	1724.39
289.18	1685.48
289.39	1714.15
289.61	1746.92
289.82	1722.34
290.04	1789.92
290.25	1665.00
290.47	1685.48
290.68	1732.58
290.90	1761.25
291.11	1621.99
291.33	1769.44
291.54	1634.28
291.76	1683.43
291.97	1691.62
292.18	1718.25
292.40	1732.58
292.61	1656.81
292.83	1781.73
293.04	1683.43
293.26	1755.11
293.47	1738.73
293.69	1673.19
293.90	1703.91
294.12	1767.40
294.33	1699.81
294.55	1777.64
294.76	1718.25
294.97	1796.07
295.19	1812.45
295.40	1656.81
295.62	1677.29
295.83	1732.58
296.05	1634.28
296.26	1783.78
296.48	1634.28
296.69	1671.14
296.90	1693.67
297.12	1736.68
297.33	1734.63
297.55	1736.68
297.76	1759.21
297.98	1757.16
298.19	1667.05
298.41	1632.23
298.62	1607.66
298.83	1742.82
299.05	1632.23
299.26	1673.19
299.48	1601.51
299.69	1662.95
299.90	1685.48
300.12	1671.14
300.33	1755.11
300.55	1746.92
300.76	1746.92
300.98	1650.66
301.19	1738.73
301.40	1638.38
301.62	1724.39
301.83	1673.19
302.05	1693.67
302.26	1769.44
302.47	1665.00
302.69	1640.42
302.90	1681.38
303.12	1591.27
303.33	1738.73
303.54	1800.16
303.76	1646.57
303.97	1746.92
304.19	1761.25
304.40	1652.71
304.61	1732.58
304.83	1748.97
305.04	1734.63
305.26	1773.54
305.47	1730.53
305.68	1710.05
305.90	1605.61
306.11	1689.57
306.33	1656.81
306.54	1683.43
306.75	1691.62
306.97	1603.56
307.18	1648.61
307.39	1665.00
307.61	1701.86
307.82	1759.21
308.04	1746.92
308.25	1708.01
308.46	1802.21
308.68	1791.97
308.89	1716.20
309.10	1775.59
309.32	1693.67
309.53	1761.25
309.74	1691.62
309.96	1693.67
310.17	1712.10
310.39	1673.19
310.60	1716.20
310.81	1671.14
311.03	1667.05
311.24	1781.73
311.45	1712.10
311.67	1771.49
311.88	1681.38
312.09	1693.67
312.31	1642.47
312.52	1703.91
312.73	1609.70
312.95	1656.81
313.16	1605.61
313.37	1820.64
313.59	1765.35
313.80	1761.25
314.01	1718.25
314.23	1667.05
314.44	1718.25
314.65	1574.89
314.87	1693.67
315.08	1660.90
315.29	1626.09
315.51	1601.51
315.72	1583.08
315.93	1822.69
316.15	1757.16
316.36	1673.19
316.57	1689.57
316.79	1738.73
317.00	1640.42
317.21	1820.64
317.43	1660.90
317.64	1722.34
317.85	1695.72
318.07	1626.09
318.28	1804.26
318.49	1781.73
318.70	1851.36
318.92	1824.74
319.13	1804.26
319.34	1841.12
319.56	1703.91
319.77	1761.25
319.98	1773.54
320.20	1775.59
320.41	1769.44
320.62	1748.97
320.83	1701.86
321.05	1861.60
321.26	1751.01
321.47	1736.68
321.69	1724.39
321.90	1714.15
322.11	1724.39
322.32	1703.91
322.54	1779.68
322.75	1691.62
322.96	1757.16
323.18	1675.24
323.39	1638.38
323.60	1605.61
323.81	1730.53
324.03	1763.30
324.24	1675.24
324.45	1703.91
324.66	1738.73
324.88	1740.77
325.09	1771.49
325.30	1665.00
325.52	1693.67
325.73	1718.25
325.94	1673.19
326.15	1562.60
326.37	1699.81
326.58	1740.77
326.79	1826.79
327.00	1673.19
327.22	1755.11
327.43	1607.66
327.64	1640.42
327.85	1677.29
328.07	1740.77
328.28	1820.64
328.49	1683.43
328.70	1652.71
328.92	1652.71
329.13	1669.09
329.34	1732.58
329.55	1822.69
329.76	1779.68
329.98	1726.44
330.19	1769.44
330.40	1748.97
330.61	1728.49
330.83	1757.16
331.04	1710.05
331.25	1679.33
331.46	1773.54
331.68	1658.85
331.89	1744.87
332.10	1665.00
332.31	1638.38
332.52	1642.47
332.74	1716.20
332.95	1634.28
333.16	1761.25
333.37	1753.06
333.58	1697.77
333.80	1740.77
334.01	1650.66
334.22	1642.47
334.43	1665.00
334.64	1710.05
334.86	1570.79
335.07	1675.24
335.28	1771.49
335.49	1605.61
335.70	1720.29
335.92	1761.25
336.13	1886.18
336.34	1679.33
336.55	1691.62
336.76	1665.00
336.98	1548.26
337.19	1701.86
337.40	1820.64
337.61	1869.80
337.82	1679.33
338.04	1728.49
338.25	1591.27
338.46	1693.67
338.67	1648.61
338.88	1677.29
339.09	1587.18
339.31	1718.25
339.52	1638.38
339.73	1621.99
339.94	1708.01
340.15	1806.31
340.36	1738.73
340.58	1697.77
340.79	1685.48
341.00	1748.97
341.21	1701.86
341.42	1796.07
341.63	1658.85
341.85	1775.59
342.06	1734.63
342.27	1685.48
342.48	1791.97
342.69	1658.85
342.90	1724.39
343.12	1722.34
343.33	1714.15
343.54	1722.34
343.75	1755.11
343.96	1712.10
344.17	1626.09
344.38	1691.62
344.60	1677.29
344.81	1650.66
345.02	1685.48
345.23	1779.68
345.44	1787.88
345.65	1812.45
345.86	1808.36
346.07	1662.95
346.29	1708.01
346.50	1677.29
346.71	1742.82
346.92	1781.73
347.13	1828.84
347.34	1722.34
347.55	1640.42
347.76	1755.11
347.98	1644.52
348.19	1621.99
348.40	1763.30
348.61	1599.46
348.82	1738.73
349.03	1716.20
349.24	1712.10
349.45	1794.02
349.66	1626.09
349.88	1693.67
350.09	1632.23
350.30	1796.07
350.51	1732.58
350.72	1730.53
350.93	1730.53
351.14	1669.09
351.35	1705.96
351.56	1671.14
351.77	1724.39
351.99	1775.59
352.20	1736.68
352.41	1771.49
352.62	1591.27
352.83	1742.82
353.04	1630.18
353.25	1695.72
353.46	1791.97
353.67	1722.34
353.88	1583.08
354.09	1693.67
354.30	1695.72
354.52	1742.82
354.73	1673.19
354.94	1636.33
355.15	1730.53
355.36	1779.68
355.57	1609.70
355.78	1628.14
355.99	1677.29
356.20	1699.81
356.41	1751.01
356.62	1730.53
356.83	1730.53
357.04	1796.07
357.25	1603.56
357.46	1662.95
357.68	1648.61
357.89	1728.49
358.10	1714.15
358.31	1726.44
358.52	1720.29
358.73	1552.36
358.94	1640.42
359.15	1748.97
359.36	1744.87
359.57	1820.64
359.78	1705.96
359.99	1718.25
360.20	1621.99
360.41	1652.71
360.62	1785.83
360.83	1708.01
361.04	1720.29
361.25	1742.82
361.46	1767.40
361.67	1738.73
361.88	1804.26
362.09	1671.14
362.30	1718.25
362.51	1705.96
362.72	1708.01
362.93	1785.83
363.14	1732.58
363.35	1656.81
363.56	1757.16
363.78	1781.73
363.99	1734.63
364.20	1728.49
364.41	1675.24
364.62	1822.69
364.83	1662.95
365.04	1759.21
365.25	1640.42
365.46	1812.45
365.67	1619.94
365.88	1632.23
366.09	1687.53
366.30	1716.20
366.51	1708.01
366.72	1673.19
366.93	1716.20
367.14	1669.09
367.35	1796.07
367.56	1677.29
367.77	1757.16
367.98	1693.67
368.18	1767.40
368.39	1787.88
368.60	1626.09
368.81	1734.63
369.02	1689.57
369.23	1712.10
369.44	1632.23
369.65	1681.38
369.86	1738.73
370.07	1753.06
370.28	1656.81
370.49	1753.06
370.70	1718.25
370.91	1609.70
371.12	1652.71
371.33	1714.15
371.54	1634.28
371.75	1865.70
371.96	1527.78
372.17	1650.66
372.38	1679.33
372.59	1769.44
372.80	1654.76
373.01	1656.81
373.22	1695.72
373.43	1689.57
373.64	1607.66
373.85	1724.39
374.06	1789.92
374.26	1771.49
374.47	1703.91
374.68	1824.74
374.89	1714.15
375.10	1671.14
375.31	1812.45
375.52	1730.53
375.73	1730.53
375.94	1669.09
376.15	1814.50
376.36	1636.33
376.57	1679.33
376.78	1638.38
376.99	1724.39
377.20	1796.07
377.40	1681.38
377.61	1734.63
377.82	1562.60
378.03	1798.12
378.24	1667.05
378.45	1724.39
378.66	1679.33
378.87	1673.19
379.08	1683.43
379.29	1718.25
379.50	1736.68
379.71	1710.05
379.91	1722.34
380.12	1689.57
380.33	1763.30
380.54	1656.81
380.75	1624.04
380.96	1751.01
381.17	1693.67
381.38	1675.24
381.59	1775.59
381.80	1714.15
382.00	1812.45
382.21	1712.10
382.42	1847.27
382.63	1849.32
382.84	1773.54
383.05	1779.68
383.26	1767.40
383.47	1730.53
383.68	1748.97
383.88	1759.21
384.09	1726.44
384.30	1818.60
384.51	1765.35
384.72	1669.09
384.93	1587.18
385.14	1695.72
385.35	1771.49
385.55	1548.26
385.76	1830.88
385.97	1669.09
386.18	1708.01
386.39	1621.99
386.60	1738.73
386.81	1748.97
387.02	1699.81
387.22	1685.48
387.43	1765.35
387.64	1748.97
387.85	1849.32
388.06	2258.91
388.27	4204.48
388.48	6850.46
388.68	8202.11
388.89	9676.65
389.10	9774.95
389.31	8521.60
389.52	7577.48
389.73	6737.82
389.93	6305.70
390.14	5781.42
390.35	5205.94
390.56	4493.24
390.77	3698.63
390.98	3004.37
391.18	2525.15
391.39	2146.27
391.60	1865.70
391.81	1861.60
392.02	1730.53
392.23	1898.47
392.43	1697.77
392.64	1802.21
392.85	1662.95
393.06	1744.87
393.27	1708.01
393.47	1656.81
393.68	1738.73
393.89	1656.81
394.10	1787.88
394.31	1697.77
394.52	1566.70
394.72	1695.72
394.93	1804.26
395.14	1689.57
395.35	1658.85
395.56	1650.66
395.76	1736.68
395.97	1775.59
396.18	1867.75
396.39	1890.28
396.60	2054.11
396.80	1918.95
397.01	1796.07
397.22	1800.16
397.43	1886.18
397.64	1753.06
397.84	1789.92
398.05	1808.36
398.26	1732.58
398.47	1767.40
398.67	1779.68
398.88	1703.91
399.09	1738.73
399.30	1691.62
399.51	1773.54
399.71	1581.03
399.92	1654.76
400.13	1767.40
400.34	1734.63
400.54	1708.01
400.75	1832.93
400.96	1765.35
401.17	1834.98
401.37	1769.44
401.58	1644.52
401.79	1783.78
402.00	1912.80
402.21	2035.68
402.41	1945.57
402.62	1906.66
402.83	2009.06
403.04	1980.39
403.24	2062.30
403.45	1794.02
403.66	2037.73
403.87	1857.51
404.07	1955.81
404.28	1843.17
404.49	1775.59
404.70	1748.97
404.90	1677.29
405.11	1804.26
405.32	1732.58
405.52	1671.14
405.73	1634.28
405.94	1683.43
406.15	1660.90
406.35	1734.63
406.56	1708.01
406.77	1734.63
406.98	1734.63
407.18	1679.33
407.39	1828.84
407.60	1738.73
407.80	1738.73
408.01	1654.76
408.22	1812.45
408.43	1703.91
408.63	1779.68
408.84	1806.31
409.05	1689.57
409.25	1628.14
409.46	1691.62
409.67	1730.53
409.88	1626.09
410.08	1701.86
410.29	1695.72
410.50	1703.91
410.70	1832.93
410.91	1624.04
411.12	1720.29
411.32	1726.44
411.53	1712.10
411.74	1675.24
411.95	1853.41
412.15	1751.01
412.36	1665.00
412.57	1718.25
412.77	1804.26
412.98	1761.25
413.19	1775.59
413.39	1734.63
413.60	1773.54
413.81	1789.92
414.01	1626.09
414.22	1726.44
414.43	1730.53
414.63	1679.33
414.84	1730.53
415.05	1755.11
415.25	1632.23
415.46	1724.39
415.67	1624.04
415.87	1693.67
416.08	1710.05
416.29	1714.15
416.49	1730.53
416.70	1695.72
416.91	1675.24
417.11	1742.82
417.32	1783.78
417.53	1714.15
417.73	1734.63
417.94	1691.62
418.15	1738.73
418.35	1671.14
418.56	1675.24
418.77	1816.55
418.97	1671.14
419.18	1689.57
419.38	1585.13
419.59	1679.33
419.80	1771.49
420.00	1656.81
420.21	1822.69
420.42	1841.12
420.62	1701.86
420.83	1617.90
421.04	1673.19
421.24	1634.28
421.45	1687.53
421.65	1697.77
421.86	1669.09
422.07	1712.10
422.27	1714.15
422.48	1791.97
422.69	1648.61
422.89	1665.00
423.10	1683.43
423.30	1656.81
423.51	1738.73
423.72	1740.77
423.92	1705.96
424.13	1624.04
424.33	1746.92
424.54	1771.49
424.75	1753.06
424.95	1796.07
425.16	1771.49
425.36	1669.09
425.57	1722.34
425.78	1665.00
425.98	1787.88
426.19	1701.86
426.39	1621.99
426.60	1714.15
426.81	1832.93
427.01	1796.07
427.22	1771.49
427.42	1587.18
427.63	1652.71
427.83	1759.21
428.04	1796.07
428.25	1824.74
428.45	1800.16
428.66	1785.83
428.86	1667.05
429.07	1703.91
429.28	1677.29
429.48	1736.68
429.69	1632.23
429.89	1722.34
430.10	1675.24
430.30	1699.81
430.51	1738.73
430.71	1665.00
430.92	1675.24
431.13	1681.38
431.33	1767.40
431.54	1742.82
431.74	1773.54
431.95	1732.58
432.15	1708.01
432.36	1722.34
432.56	1789.92
432.77	1824.74
432.98	1796.07
433.18	1716.20
433.39	1665.00
433.59	1679.33
433.80	1877.99
434.00	1896.42
434.21	1648.61
434.41	1718.25
434.62	1849.32
434.82	1634.28
435.03	1619.94
435.23	1724.39
435.44	1656.81
435.64	1683.43
435.85	1742.82
436.06	1738.73
436.26	1693.67
436.47	1679.33
436.67	1679.33
436.88	1710.05
437.08	1732.58
437.29	1828.84
437.49	1759.21
437.70	1771.49
437.90	1681.38
438.11	1902.56
438.31	1730.53
438.52	1843.17
438.72	1884.13
438.93	1880.04
439.13	1845.22
439.34	1849.32
439.54	1765.35
439.75	1808.36
439.95	1751.01
440.16	1728.49
440.36	1720.29
440.57	1800.16
440.77	1791.97
440.98	1695.72
441.18	1751.01
441.39	1650.66
441.59	1687.53
441.80	1808.36
442.00	1781.73
442.21	1781.73
442.41	1673.19
442.62	1693.67
442.82	1667.05
443.02	1685.48
443.23	1763.30
443.43	1738.73
443.64	1865.70
443.84	1689.57
444.05	1806.31
444.25	1777.64
444.46	1695.72
444.66	1718.25
444.87	1781.73
445.07	1626.09
445.28	1673.19
445.48	1851.36
445.69	1804.26
445.89	1873.89
446.09	1775.59
446.30	1988.58
446.50	2723.80
446.71	3913.67
446.91	4384.70
447.12	4863.93
447.32	4919.22
447.53	4327.36
447.73	3772.36
447.93	3510.22
448.14	3319.76
448.34	3256.27
448.55	2910.16
448.75	2752.47
448.96	2650.07
449.16	2467.80
449.36	2308.06
449.57	2064.35
449.77	1892.32
449.98	1761.25
450.18	1791.97
450.39	1837.03
450.59	1808.36
450.79	1701.86
451.00	1724.39
451.20	1779.68
451.41	1751.01
451.61	1736.68
451.81	1687.53
452.02	1665.00
452.22	1703.91
452.43	1730.53
452.63	1642.47
452.84	1660.90
453.04	1726.44
453.24	1718.25
453.45	1675.24
453.65	1769.44
453.86	1751.01
454.06	1794.02
454.26	1681.38
454.47	1607.66
454.67	1738.73
454.87	1785.83
455.08	1722.34
455.28	1855.46
455.49	1703.91
455.69	1685.48
455.89	1787.88
456.10	1798.12
456.30	1732.58
456.51	1744.87
456.71	1720.29
456.91	1751.01
457.12	1730.53
457.32	1718.25
457.52	1701.86
457.73	1722.34
457.93	1765.35
458.14	1689.57
458.34	1677.29
458.54	1775.59
458.75	1771.49
458.95	1734.63
459.15	1748.97
459.36	1779.68
459.56	1695.72
459.76	1775.59
459.97	1740.77
460.17	1667.05
460.37	1814.50
460.58	1648.61
460.78	1730.53
460.99	1681.38
461.19	1689.57
461.39	1685.48
461.60	1648.61
461.80	1791.97
462.00	1650.66
462.21	1726.44
462.41	1648.61
462.61	1697.77
462.82	1652.71
463.02	1742.82
463.22	1718.25
463.43	1814.50
463.63	1681.38
463.83	1783.78
464.04	1730.53
464.24	1662.95
464.44	1626.09
464.64	1701.86
464.85	1730.53
465.05	1826.79
465.25	1730.53
465.46	1673.19
465.66	1822.69
465.86	1855.46
466.07	1703.91
466.27	1779.68
466.47	1648.61
466.68	1640.42
466.88	1806.31
467.08	1771.49
467.29	1720.29
467.49	1728.49
467.69	1763.30
467.89	1753.06
468.10	1675.24
468.30	1718.25
468.50	1740.77
468.71	1820.64
468.91	1662.95
469.11	1820.64
469.31	1744.87
469.52	1656.81
469.72	1855.46
469.92	1851.36
470.13	1751.01
470.33	1703.91
470.53	1800.16
470.73	2088.93
470.94	2371.55
471.14	2222.05
471.34	2533.34
471.54	2437.08
471.75	2283.49
471.95	2109.41
472.15	2097.12
472.36	2142.18
472.56	2146.27
472.76	2050.02
472.96	1953.76
473.17	1927.14
473.37	1904.61
473.57	1775.59
473.77	1824.74
473.98	1765.35
474.18	1705.96
474.38	1896.42
474.58	1724.39
474.79	1757.16
474.99	1724.39
475.19	1781.73
475.39	1689.57
475.60	1722.34
475.80	1755.11
476.00	1732.58
476.20	1656.81
476.41	1681.38
476.61	1779.68
476.81	1785.83
477.01	1691.62
477.21	1818.60
477.42	1765.35
477.62	1695.72
477.82	1869.80
478.02	1746.92
478.23	1718.25
478.43	1701.86
478.63	1738.73
478.83	1685.48
479.03	1636.33
479.24	1771.49
479.44	1787.88
479.64	1691.62
479.84	1638.38
480.04	1705.96
480.25	1765.35
480.45	1716.20
480.65	1669.09
480.85	1861.60
481.06	1693.67
481.26	1646.57
481.46	1798.12
481.66	1791.97
481.86	1787.88
482.06	1787.88
482.27	1640.42
482.47	1705.96
482.67	1732.58
482.87	1691.62
483.07	1716.20
483.28	1654.76
483.48	1720.29
483.68	1685.48
483.88	1746.92
484.08	1646.57
484.29	1679.33
484.49	1632.23
484.69	1628.14
484.89	1761.25
485.09	1845.22
485.29	1798.12
485.50	1738.73
485.70	1691.62
485.90	1828.84
486.10	1746.92
486.30	1781.73
486.50	1804.26
486.71	1628.14
486.91	1712.10
487.11	1732.58
487.31	1691.62
487.51	1710.05
487.71	1665.00
487.91	1675.24
488.12	1652.71
488.32	1589.22
488.52	1726.44
488.72	1652.71
488.92	1716.20
489.12	1794.02
489.32	1779.68
489.53	1763.30
489.73	1667.05
489.93	1773.54
490.13	1695.72
490.33	1683.43
490.53	1697.77
490.73	1791.97
490.94	1597.42
491.14	1699.81
491.34	1834.98
491.54	2095.07
491.74	2533.34
491.94	2899.92
492.14	3065.81
492.34	3012.56
492.54	2734.04
492.75	2586.58
492.95	2492.38
493.15	2353.12
493.35	2308.06
493.55	2279.39
493.75	2131.94
493.95	2084.83
494.15	2107.36
494.35	1839.08
494.56	1949.67
494.76	1763.30
494.96	1681.38
495.16	1755.11
495.36	1720.29
495.56	1640.42
495.76	1746.92
495.96	1689.57
496.16	1675.24
496.36	1798.12
496.56	1724.39
496.77	1720.29
496.97	1751.01
497.17	1767.40
497.37	1642.47
497.57	1732.58
497.77	1742.82
497.97	1636.33
498.17	1738.73
498.37	1705.96
498.57	1796.07
498.77	1708.01
498.97	1734.63
499.17	1843.17
499.38	1677.29
499.58	1763.30
499.78	1791.97
499.98	1781.73
500.18	1671.14
500.38	1763.30
500.58	1861.60
500.78	2527.19
500.98	4478.91
501.18	5918.63
501.38	6827.93
501.58	6993.81
501.78	6608.80
501.98	5593.00
502.18	5052.34
502.38	4417.47
502.58	4116.42
502.78	3782.60
502.98	3712.97
503.18	3454.92
503.38	3147.73
503.59	2846.68
503.79	2592.73
503.99	2404.32
504.19	2269.15
504.39	2140.13
504.59	2121.70
504.79	2062.30
504.99	2105.31
505.19	1918.95
505.39	1845.22
505.59	1943.52
505.79	1902.56
505.99	1796.07
506.19	1671.14
506.39	1855.46
506.59	1800.16
506.79	1716.20
506.99	1890.28
507.19	1787.88
507.39	1665.00
507.59	1712.10
507.79	1767.40
507.99	1658.85
508.19	1769.44
508.39	1714.15
508.59	1712.10
508.79	1828.84
508.99	1869.80
509.19	1685.48
509.39	1728.49
509.59	1773.54
509.79	1673.19
509.99	1789.92
510.19	1826.79
510.39	1832.93
510.59	1730.53
510.79	1693.67
510.99	1630.18
511.19	1771.49
511.39	1804.26
511.59	1779.68
511.79	1787.88
511.99	1716.20
512.19	1822.69
512.38	1669.09
512.58	1652.71
512.78	1691.62
512.98	1722.34
513.18	1746.92
513.38	1693.67
513.58	1804.26
513.78	1705.96
513.98	1697.77
514.18	1732.58
514.38	1665.00
514.58	1814.50
514.78	1718.25
514.98	1683.43
515.18	1718.25
515.38	1648.61
515.58	1832.93
515.78	1751.01
515.98	1765.35
516.18	1761.25
516.38	1720.29
516.57	1769.44
516.77	1726.44
516.97	1759.21
517.17	1681.38
517.37	1640.42
517.57	1812.45
517.77	1779.68
517.97	1738.73
518.17	1787.88
518.37	1705.96
518.57	1642.47
518.77	1681.38
518.97	1728.49
519.16	1759.21
519.36	1826.79
519.56	1699.81
519.76	1691.62
519.96	1699.81
520.16	1810.40
520.36	1687.53
520.56	1794.02
520.76	1691.62
520.96	1804.26
521.16	1785.83
521.35	1765.35
521.55	1773.54
521.75	1687.53
521.95	1689.57
522.15	1708.01
522.35	1638.38
522.55	1705.96
522.75	1667.05
522.95	1712.10
523.14	1644.52
523.34	1724.39
523.54	1671.14
523.74	1759.21
523.94	1789.92
524.14	1624.04
524.34	1748.97
524.54	1769.44
524.73	1634.28
524.93	1751.01
525.13	1757.16
525.33	1624.04
525.53	1861.60
525.73	1695.72
525.93	1763.30
526.13	1685.48
526.32	1755.11
526.52	1787.88
526.72	1814.50
526.92	1691.62
527.12	1716.20
527.32	1677.29
527.52	1642.47
527.71	1738.73
527.91	1722.34
528.11	1677.29
528.31	1689.57
528.51	1648.61
528.71	1722.34
528.90	1753.06
529.10	1730.53
529.30	1771.49
529.50	1595.37
529.70	1771.49
529.90	1669.09
530.09	1691.62
530.29	1601.51
530.49	1650.66
530.69	1867.75
530.89	1777.64
531.09	1812.45
531.28	1732.58
531.48	1763.30
531.68	1777.64
531.88	1708.01
532.08	1746.92
532.28	1703.91
532.47	1755.11
532.67	1761.25
532.87	1638.38
533.07	1703.91
533.27	1775.59
533.46	1746.92
533.66	1791.97
533.86	1753.06
534.06	1787.88
534.26	1689.57
534.45	1746.92
534.65	1810.40
534.85	1771.49
535.05	1701.86
535.25	1753.06
535.44	1703.91
535.64	1769.44
535.84	1710.05
536.04	1716.20
536.24	1703.91
536.43	1619.94
536.63	1722.34
536.83	1738.73
537.03	1716.20
537.22	1632.23
537.42	1595.37
537.62	1656.81
537.82	1632.23
538.02	1771.49
538.21	1812.45
538.41	1898.47
538.61	1765.35
538.81	1732.58
539.00	1806.31
539.20	1636.33
539.40	1728.49
539.60	1742.82
539.79	1767.40
539.99	1669.09
540.19	1697.77
540.39	1736.68
540.58	1742.82
540.78	1882.08
540.98	1710.05
541.18	1771.49
541.37	1781.73
541.57	1771.49
541.77	1761.25
541.97	1648.61
542.16	1650.66
542.36	1742.82
542.56	1720.29
542.76	1910.75
542.95	1767.40
543.15	1699.81
543.35	1785.83
543.54	1718.25
543.74	1650.66
543.94	1773.54
544.14	1732.58
544.33	1746.92
544.53	1734.63
544.73	1703.91
544.93	1630.18
545.12	1757.16
545.32	1734.63
545.52	1730.53
545.71	1699.81
545.91	1730.53
546.11	1685.48
546.30	1691.62
546.50	1751.01
546.70	1767.40
546.90	1820.64
547.09	1628.14
547.29	1851.36
547.49	1810.40
547.68	1685.48
547.88	1673.19
548.08	1769.44
548.27	2201.57
548.47	1800.16
548.67	1671.14
548.87	1751.01
549.06	1697.77
549.26	1767.40
549.46	1789.92
549.65	1667.05
549.85	1755.11
550.05	1787.88
550.24	1685.48
550.44	1724.39
550.64	1769.44
550.83	1826.79
551.03	1865.70
551.23	1812.45
551.42	1755.11
551.62	1693.67
551.82	1718.25
552.01	1771.49
552.21	1888.23
552.41	1771.49
552.60	1828.84
552.80	1738.73
553.00	1667.05
553.19	1830.88
553.39	1785.83
553.59	1697.77
553.78	1701.86
553.98	1794.02
554.17	1591.27
554.37	1740.77
554.57	1810.40
554.76	1628.14
554.96	1671.14
555.16	1716.20
555.35	1759.21
555.55	1765.35
555.75	1742.82
555.94	1832.93
556.14	1650.66
556.33	1738.73
556.53	1773.54
556.73	1771.49
556.92	1832.93
557.12	1710.05
557.32	1804.26
557.51	1843.17
557.71	1804.26
557.90	1789.92
558.10	1802.21
558.30	1693.67
558.49	1640.42
558.69	1726.44
558.88	1705.96
559.08	1689.57
559.28	1722.34
559.47	1673.19
559.67	1705.96
559.86	1902.56
560.06	1771.49
560.26	1738.73
560.45	1769.44
560.65	1685.48
560.84	1753.06
561.04	1748.97
561.24	1824.74
561.43	1648.61
561.63	1896.42
561.82	1802.21
562.02	1742.82
562.22	1710.05
562.41	1771.49
562.61	1710.05
562.80	1607.66
563.00	1877.99
563.19	1714.15
563.39	1789.92
563.59	1718.25
563.78	1691.62
563.98	1607.66
564.17	1675.24
564.37	1652.71
564.56	1791.97
564.76	1617.90
564.96	1798.12
565.15	1777.64
565.35	1886.18
565.54	1761.25
565.74	1796.07
565.93	1777.64
566.13	1763.30
566.32	1681.38
566.52	1765.35
566.71	1734.63
566.91	1806.31
567.11	1677.29
567.30	1697.77
567.50	1665.00
567.69	1822.69
567.89	1738.73
568.08	1615.85
568.28	1759.21
568.47	1703.91
568.67	1802.21
568.86	1665.00
569.06	1763.30
569.25	1687.53
569.45	1689.57
569.64	1757.16
569.84	1611.75
570.04	1740.77
570.23	1800.16
570.43	1722.34
570.62	1757.16
570.82	1843.17
571.01	1669.09
571.21	1687.53
571.40	1705.96
571.60	1804.26
571.79	1761.25
571.99	1705.96
572.18	1691.62
572.38	1763.30
572.57	1738.73
572.77	1812.45
572.96	1968.10
573.16	1738.73
573.35	1697.77
573.55	1789.92
573.74	1734.63
573.94	1677.29
574.13	1728.49
574.33	1769.44
574.52	1861.60
574.71	1769.44
574.91	1755.11
575.10	1648.61
575.30	1669.09
575.49	1679.33
575.69	1665.00
575.88	1849.32
576.08	1730.53
576.27	1812.45
576.47	1716.20
576.66	1851.36
576.86	1837.03
577.05	1775.59
577.25	1822.69
577.44	1843.17
577.64	1687.53
577.83	1691.62
578.02	1718.25
578.22	1748.97
578.41	1804.26
578.61	1775.59
578.80	1714.15
579.00	1736.68
579.19	1777.64
579.39	1722.34
579.58	1714.15
579.77	1748.97
579.97	1832.93
580.16	1894.37
580.36	1847.27
580.55	1804.26
580.75	1828.84
580.94	1730.53
581.13	1787.88
581.33	1880.04
581.52	1648.61
581.72	1857.51
581.91	1839.08
582.11	1746.92
582.30	1832.93
582.49	1755.11
582.69	1828.84
582.88	1794.02
583.08	1742.82
583.27	1798.12
583.47	1791.97
583.66	1738.73
583.85	1734.63
584.05	1787.88
584.24	1730.53
584.44	1773.54
584.63	1785.83
584.82	1753.06
585.02	1834.98
585.21	1873.89
585.41	1847.27
585.60	1798.12
585.79	1992.67
585.99	1898.47
586.18	1841.12
586.37	2295.77
586.57	3381.20
586.76	9967.46
586.96	24462.99
587.15	34547.18
587.34	40727.95
587.54	42104.19
587.73	36595.15
587.93	26523.24
588.12	21845.68
588.31	18433.77
588.51	16283.40
588.70	15138.58
588.89	14321.45
589.09	12578.62
589.28	11143.00
589.47	9453.42
589.67	7923.59
589.86	6367.13
590.06	4984.76
590.25	4020.16
590.44	3164.11
590.64	2539.48
590.83	2271.20
591.02	2054.11
591.22	1939.43
591.41	1908.71
591.60	1814.50
591.80	1867.75
591.99	1746.92
592.18	1808.36
592.38	1843.17
592.57	1826.79
592.76	1759.21
592.96	1824.74
593.15	1794.02
593.34	1818.60
593.54	1775.59
593.73	1773.54
593.92	1787.88
594.12	1755.11
594.31	1757.16
594.50	1847.27
594.70	1808.36
594.89	1884.13
595.08	1691.62
595.28	1847.27
595.47	1957.86
595.66	1781.73
595.86	1675.24
596.05	1798.12
596.24	1701.86
596.43	1847.27
596.63	1828.84
596.82	1726.44
597.01	1714.15
597.21	1808.36
597.40	1779.68
597.59	1767.40
597.79	1771.49
597.98	1779.68
598.17	1810.40
598.36	1699.81
598.56	1773.54
598.75	1683.43
598.94	1734.63
599.14	1691.62
599.33	1671.14
599.52	1802.21
599.71	1753.06
599.91	1794.02
600.10	1695.72
600.29	1791.97
600.48	1697.77
600.68	1748.97
600.87	1775.59
601.06	1757.16
601.26	1740.77
601.45	1710.05
601.64	1728.49
601.83	1804.26
602.03	1732.58
602.22	1632.23
602.41	1722.34
602.60	1918.95
602.80	1769.44
602.99	1746.92
603.18	1783.78
603.37	1771.49
603.57	1701.86
603.76	1808.36
603.95	1798.12
604.14	1701.86
604.34	1716.20
604.53	1744.87
604.72	1703.91
604.91	1808.36
605.10	1814.50
605.30	1701.86
605.49	1849.32
605.68	1744.87
605.87	1761.25
606.07	1718.25
606.26	1720.29
606.45	1708.01
606.64	1728.49
606.84	1697.77
607.03	1734.63
607.22	1685.48
607.41	1697.77
607.60	1722.34
607.80	1736.68
607.99	1732.58
608.18	1646.57
608.37	1710.05
608.56	1677.29
608.76	1837.03
608.95	1757.16
609.14	1718.25
609.33	1765.35
609.52	1728.49
609.72	1761.25
609.91	1732.58
610.10	1724.39
610.29	1812.45
610.48	1771.49
610.68	1796.07
610.87	1705.96
611.06	1767.40
611.25	1685.48
611.44	1820.64
611.63	1638.38
611.83	1820.64
612.02	1679.33
612.21	1773.54
612.40	1738.73
612.59	1683.43
612.79	1726.44
612.98	1744.87
613.17	1802.21
613.36	1742.82
613.55	1808.36
613.74	1726.44
613.93	1722.34
614.13	1734.63
614.32	1611.75
614.51	1699.81
614.70	1677.29
614.89	1644.52
615.08	1699.81
615.28	2041.82
615.47	1636.33
615.66	1701.86
615.85	1751.01
616.04	1796.07
616.23	1796.07
616.42	1652.71
616.62	1751.01
616.81	1703.91
617.00	1679.33
617.19	1718.25
617.38	1636.33
617.57	1660.90
617.76	1779.68
617.95	1703.91
618.15	1757.16
618.34	1834.98
618.53	1660.90
618.72	1708.01
618.91	1808.36
619.10	1804.26
619.29	1767.40
619.48	1673.19
619.68	1683.43
619.87	1642.47
620.06	1613.80
620.25	1755.11
620.44	1724.39
620.63	1783.78
620.82	1734.63
621.01	1757.16
621.20	1683.43
621.39	1808.36
621.59	1703.91
621.78	1712.10
621.97	1701.86
622.16	1779.68
622.35	1763.30
622.54	1761.25
622.73	1753.06
622.92	1685.48
623.11	1693.67
623.30	1636.33
623.49	1736.68
623.68	1652.71
623.88	1726.44
624.07	1748.97
624.26	1671.14
624.45	1714.15
624.64	1720.29
624.83	1791.97
625.02	1744.87
625.21	1722.34
625.40	1785.83
625.59	1675.24
625.78	1665.00
625.97	1787.88
626.16	1773.54
626.35	1748.97
626.54	1705.96
626.74	1767.40
626.93	1697.77
627.12	1732.58
627.31	1783.78
627.50	1714.15
627.69	1699.81
627.88	1617.90
628.07	1810.40
628.26	1626.09
628.45	1689.57
628.64	1695.72
628.83	1624.04
629.02	1636.33
629.21	1712.10
629.40	1669.09
629.59	1667.05
629.78	1658.85
629.97	1714.15
630.16	1665.00
630.35	1669.09
630.54	1781.73
630.73	1699.81
630.92	1710.05
631.11	1718.25
631.30	1724.39
631.49	1740.77
631.68	1718.25
631.87	1746.92
632.06	1654.76
632.25	1857.51
632.44	1681.38
632.63	1755.11
632.82	1669.09
633.01	1669.09
633.20	1683.43
633.39	1662.95
633.58	1697.77
633.77	1746.92
633.96	1781.73
634.15	1714.15
634.34	1693.67
634.53	1736.68
634.72	1732.58
634.91	1654.76
635.10	1736.68
635.29	1771.49
635.48	1734.63
635.67	1665.00
635.86	1642.47
636.05	1849.32
636.24	1679.33
636.43	1697.77
636.62	1738.73
636.81	1564.65
637.00	1732.58
637.19	1695.72
637.38	1748.97
637.57	1679.33
637.76	1769.44
637.95	1720.29
638.14	1605.61
638.33	1716.20
638.52	1675.24
638.71	1730.53
638.89	1677.29
639.08	1826.79
639.27	1796.07
639.46	1673.19
639.65	1730.53
639.84	1730.53
640.03	1697.77
640.22	1660.90
640.41	1765.35
640.60	1755.11
640.79	1701.86
640.98	1617.90
641.17	1757.16
641.36	1724.39
641.55	1773.54
641.74	1705.96
641.92	1585.13
642.11	1646.57
642.30	1650.66
642.49	1732.58
642.68	1654.76
642.87	1785.83
643.06	1753.06
643.25	1624.04
643.44	1708.01
643.63	1695.72
643.82	1832.93
644.00	1624.04
644.19	1687.53
644.38	1689.57
644.57	1699.81
644.76	1730.53
644.95	1691.62
645.14	1783.78
645.33	1738.73
645.52	1777.64
645.71	1667.05
645.89	1617.90
646.08	1740.77
646.27	1736.68
646.46	1839.08
646.65	1671.14
646.84	1722.34
647.03	1611.75
647.22	1771.49
647.40	1677.29
647.59	1695.72
647.78	1734.63
647.97	1644.52
648.16	1621.99
648.35	1714.15
648.54	1843.17
648.73	1636.33
648.91	1718.25
649.10	1722.34
649.29	1734.63
649.48	1757.16
649.67	1785.83
649.86	1607.66
650.05	1611.75
650.23	1777.64
650.42	1611.75
650.61	1732.58
650.80	1726.44
650.99	1857.51
651.18	1753.06
651.36	1857.51
651.55	1701.86
651.74	1775.59
651.93	1728.49
652.12	1683.43
652.31	1771.49
652.49	1669.09
652.68	1675.24
652.87	1732.58
653.06	1724.39
653.25	1771.49
653.44	1730.53
653.62	1841.12
653.81	1714.15
654.00	1718.25
654.19	1724.39
654.38	1857.51
654.56	1742.82
654.75	1716.20
654.94	1779.68
655.13	1724.39
655.32	1730.53
655.51	1820.64
655.69	1695.72
655.88	1730.53
656.07	1638.38
656.26	1773.54
656.45	1697.77
656.63	1705.96
656.82	1771.49
657.01	1775.59
657.20	1611.75
657.38	1828.84
657.57	1720.29
657.76	1644.52
657.95	1689.57
658.14	1675.24
658.32	1734.63
658.51	1642.47
658.70	1691.62
658.89	1775.59
659.08	1699.81
659.26	1816.55
659.45	1701.86
659.64	1644.52
659.83	1689.57
660.01	1968.10
660.20	1728.49
660.39	1787.88
660.58	1611.75
660.76	1779.68
660.95	1558.50
661.14	1656.81
661.33	1646.57
661.51	1708.01
661.70	1697.77
661.89	1708.01
662.08	1714.15
662.26	1695.72
662.45	1699.81
662.64	1724.39
662.83	1773.54
663.01	1683.43
663.20	1693.67
663.39	1767.40
663.58	1636.33
663.76	1712.10
663.95	1667.05
664.14	1628.14
664.32	1665.00
664.51	1634.28
664.70	1665.00
664.89	1755.11
665.07	1695.72
665.26	1697.77
665.45	1701.86
665.64	1814.50
665.82	1697.77
666.01	1767.40
666.20	1701.86
666.38	1744.87
666.57	1867.75
666.76	2127.84
666.95	4519.87
667.13	10329.95
667.32	15327.00
667.51	17972.97
667.69	19171.04
667.88	17987.31
668.07	12209.99
668.25	9529.20
668.44	8095.62
668.63	7348.11
668.81	6766.49
669.00	6217.63
669.19	5715.88
669.38	5117.87
669.56	4487.10
669.75	3987.40
669.94	3456.97
670.12	2871.25
670.31	2525.15
670.50	2301.92
670.68	2166.75
670.87	1914.85
671.06	1775.59
671.24	1822.69
671.43	1845.22
671.62	1710.05
671.80	1669.09
671.99	1705.96
672.18	1716.20
672.36	1714.15
672.55	1746.92
672.74	1728.49
672.92	1681.38
673.11	1798.12
673.29	1628.14
673.48	1787.88
673.67	1742.82
673.85	1775.59
674.04	1736.68
674.23	1710.05
674.41	1857.51
674.60	1644.52
674.79	1617.90
674.97	1736.68
675.16	1705.96
675.34	1769.44
675.53	1619.94
675.72	1765.35
675.90	1738.73
676.09	1683.43
676.28	1767.40
676.46	1621.99
676.65	1722.34
676.83	1675.24
677.02	1701.86
677.21	1769.44
677.39	1751.01
677.58	1695.72
677.77	1642.47
677.95	1744.87
678.14	1738.73
678.32	1675.24
678.51	1658.85
678.70	1896.42
678.88	1697.77
679.07	1763.30
679.25	1714.15
679.44	1628.14
679.63	1603.56
679.81	1771.49
680.00	1757.16
680.18	1785.83
680.37	1802.21
680.55	1759.21
680.74	1675.24
680.93	1636.33
681.11	1638.38
681.30	1714.15
681.48	1697.77
681.67	1748.97
681.85	1650.66
682.04	1689.57
682.23	1769.44
682.41	1761.25
682.60	1724.39
682.78	1777.64
682.97	1665.00
683.15	1691.62
683.34	1693.67
683.53	1748.97
683.71	1570.79
683.90	1796.07
684.08	1830.88
684.27	1732.58
684.45	1724.39
684.64	1746.92
684.82	1693.67
685.01	1708.01
685.19	1716.20
685.38	1701.86
685.57	1751.01
685.75	1689.57
685.94	1640.42
686.12	1636.33
686.31	1648.61
686.49	1820.64
686.68	1591.27
686.86	1710.05
687.05	1650.66
687.23	1828.84
687.42	1697.77
687.60	1634.28
687.79	1730.53
687.97	1800.16
688.16	1796.07
688.34	1787.88
688.53	1742.82
688.71	1732.58
688.90	1744.87
689.08	1638.38
689.27	1599.46
689.45	1818.60
689.64	1748.97
689.82	1699.81
690.01	1712.10
690.19	1738.73
690.38	1718.25
690.56	1746.92
690.75	1652.71
690.93	1712.10
691.12	1693.67
691.30	1732.58
691.49	1695.72
691.67	1746.92
691.86	1863.65
692.04	1675.24
692.23	1708.01
692.41	1693.67
692.60	1859.56
692.78	1779.68
692.97	1677.29
693.15	1765.35
693.34	1763.30
693.52	1753.06
693.71	1687.53
693.89	1687.53
694.08	1640.42
694.26	1763.30
694.44	1806.31
694.63	1746.92
694.81	1695.72
695.00	1730.53
695.18	1705.96
695.37	1828.84
695.55	1667.05
695.74	1667.05
695.92	1685.48
696.10	1863.65
696.29	1578.98
696.47	1738.73
696.66	1603.56
696.84	1771.49
697.03	1654.76
697.21	1738.73
697.40	2273.25
697.58	1781.73
697.76	1755.11
697.95	1685.48
698.13	1605.61
698.32	1765.35
698.50	1732.58
698.68	1746.92
698.87	1693.67
699.05	1787.88
699.24	1751.01
699.42	1640.42
699.61	1742.82
699.79	1660.90
699.97	1740.77
700.16	1617.90
700.34	1654.76
700.53	1751.01
700.71	1734.63
700.89	1769.44
701.08	1744.87
701.26	1724.39
701.45	2111.46
701.63	1662.95
701.81	1718.25
702.00	1701.86
702.18	1650.66
702.37	1775.59
702.55	1662.95
702.73	1734.63
702.92	1699.81
703.10	1701.86
703.28	1679.33
703.47	1675.24
703.65	1765.35
703.84	1751.01
704.02	1716.20
704.20	1785.83
704.39	1712.10
704.57	1652.71
704.75	1726.44
704.94	1812.45
705.12	1675.24
705.30	1820.64
705.49	2230.24
705.67	4372.41
705.86	9357.17
706.04	12701.50
706.22	14507.81
706.41	15204.12
706.59	13924.14
706.77	9734.00
706.96	7350.16
707.14	6537.12
707.32	6045.60
707.51	5484.46
707.69	4857.78
707.87	4149.18
708.06	3551.18
708.24	2916.31
708.42	2473.95
708.61	2310.11
708.79	1894.37
708.97	1898.47
709.16	1820.64
709.34	1746.92
709.52	1685.48
709.71	1781.73
709.89	1720.29
710.07	1738.73
710.26	1644.52
710.44	1720.29
710.62	1767.40
710.80	1689.57
710.99	1658.85
711.17	1775.59
711.35	1699.81
711.54	1634.28
711.72	1812.45
711.90	1769.44
712.09	1662.95
712.27	1683.43
712.45	1751.01
712.63	1636.33
712.82	1705.96
713.00	1736.68
713.18	1728.49
713.37	1755.11
713.55	1769.44
713.73	1718.25
713.91	1759.21
714.10	1646.57
714.28	1708.01
714.46	1755.11
714.65	1701.86
714.83	1695.72
715.01	1751.01
715.19	1732.58
715.38	1626.09
715.56	1751.01
715.74	1644.52
715.92	1632.23
716.11	1798.12
716.29	1691.62
716.47	1695.72
716.65	1689.57
716.84	1613.80
717.02	1757.16
717.20	1566.70
717.38	1615.85
717.57	1699.81
717.75	1673.19
717.93	1703.91
718.11	1734.63
718.30	1613.80
718.48	1679.33
718.66	1746.92
718.84	1767.40
719.03	1714.15
719.21	1697.77
719.39	1761.25
719.57	1720.29
719.75	1736.68
719.94	1662.95
720.12	1638.38
720.30	1744.87
720.48	1726.44
720.67	1699.81
720.85	1611.75
721.03	1634.28
721.21	1705.96
721.39	1820.64
721.58	1734.63
721.76	1681.38
721.94	1808.36
722.12	1708.01
722.30	1771.49
722.49	1718.25
722.67	1753.06
722.85	1701.86
723.03	1632.23
723.21	1675.24
723.40	1734.63
723.58	1765.35
723.76	1710.05
723.94	1742.82
724.12	1804.26
724.30	1763.30
724.49	1767.40
724.67	1599.46
724.85	1796.07
725.03	1630.18
725.21	1662.95
725.40	1697.77
725.58	1646.57
725.76	1845.22
725.94	1681.38
726.12	1691.62
726.30	1751.01
726.49	1667.05
726.67	1712.10
726.85	1789.92
727.03	1847.27
727.21	2082.78
727.39	2908.12
727.57	3870.66
727.76	4208.58
727.94	4509.63
728.12	4290.49
728.30	3731.40
728.48	2979.79
728.66	2795.48
728.84	2549.72
729.03	2236.38
729.21	2035.68
729.39	2002.91
729.57	1808.36
729.75	1808.36
729.93	1806.31
730.11	1744.87
730.30	1632.23
730.48	1726.44
730.66	1720.29
730.84	1812.45
731.02	1701.86
731.20	1703.91
731.38	1699.81
731.56	1599.46
731.74	1660.90
731.93	1779.68
732.11	1669.09
732.29	1671.14
732.47	1714.15
732.65	1783.78
732.83	1708.01
733.01	1763.30
733.19	1687.53
733.37	1708.01
733.56	1773.54
733.74	1699.81
733.92	1771.49
734.10	1701.86
734.28	1748.97
734.46	1560.55
734.64	1662.95
734.82	1730.53
735.00	1687.53
735.18	1695.72
735.36	1660.90
735.54	1701.86
735.73	1724.39
735.91	1738.73
736.09	1712.10
736.27	1701.86
736.45	1798.12
736.63	1603.56
736.81	1714.15
736.99	1691.62
737.17	1781.73
737.35	1538.02
737.53	1736.68
737.71	1615.85
737.89	1818.60
738.07	1683.43
738.25	1667.05
738.43	1626.09
738.61	1669.09
738.80	1648.61
738.98	1669.09
739.16	1640.42
739.34	1671.14
739.52	1787.88
739.70	1626.09
739.88	1718.25
740.06	1742.82
740.24	1642.47
740.42	1720.29
740.60	1593.32
740.78	1660.90
740.96	1638.38
741.14	1662.95
741.32	1691.62
741.50	1599.46
741.68	1861.60
741.86	1800.16
742.04	1589.22
742.22	1603.56
742.40	1630.18
742.58	1693.67
742.76	1617.90
742.94	1771.49
743.12	1589.22
743.30	1658.85
743.48	1705.96
743.66	1716.20
743.84	1697.77
744.02	1687.53
744.20	1669.09
744.38	1683.43
744.56	1669.09
744.74	1724.39
744.92	1656.81
745.10	1839.08
745.28	1734.63
745.46	1748.97
745.64	1658.85
745.82	1757.16
746.00	1697.77
746.18	1738.73
746.36	1673.19
746.54	1757.16
746.72	1759.21
746.90	1689.57
747.08	1802.21
747.26	1716.20
747.44	1685.48
747.62	1837.03
747.80	1718.25
747.98	1740.77
748.15	1695.72
748.33	1783.78
748.51	1730.53
748.69	1796.07
748.87	1673.19
749.05	1697.77
749.23	1787.88
749.41	1673.19
749.59	1714.15
749.77	1755.11
749.95	1667.05
750.13	1640.42
750.31	1757.16
750.49	1726.44
750.67	1814.50
750.85	1771.49
751.03	1744.87
751.20	1845.22
751.38	1703.91
751.56	1693.67
751.74	1677.29
751.92	1636.33
752.10	1695.72
752.28	1806.31
752.46	1640.42
752.64	1746.92
752.82	1691.62
753.00	1705.96
753.18	1617.90
753.35	1667.05
753.53	1773.54
753.71	1722.34
753.89	1705.96
754.07	1714.15
754.25	1685.48
754.43	1703.91
754.61	1558.50
754.79	1742.82
754.97	1683.43
755.14	1699.81
755.32	1626.09
755.50	1650.66
755.68	1740.77
755.86	1624.04
756.04	1699.81
756.22	1599.46
756.40	1771.49
756.57	1789.92
756.75	1634.28
756.93	1748.97
757.11	1787.88
757.29	1562.60
757.47	1724.39
757.65	1710.05
757.82	1650.66
758.00	1640.42
758.18	1628.14
758.36	1578.98
758.54	1742.82
758.72	1660.90
758.90	1705.96
759.07	1699.81
759.25	1640.42
759.43	1675.24
759.61	1644.52
759.79	2256.86
759.97	1665.00
760.15	1626.09
760.32	1708.01
760.50	1712.10
760.68	1816.55
760.86	1646.57
761.04	1728.49
761.22	1718.25
761.39	1689.57
761.57	1720.29
761.75	1697.77
761.93	1732.58
762.11	1658.85
762.28	1697.77
762.46	1652.71
762.64	1777.64
762.82	1562.60
763.00	1732.58
763.18	1769.44
763.35	1703.91
763.53	1806.31
763.71	1669.09
763.89	1658.85
764.07	1751.01
764.24	1726.44
764.42	1705.96
764.60	1648.61
764.78	1736.68
764.96	1837.03
765.13	1691.62
765.31	1679.33
765.49	1714.15
765.67	1599.46
765.84	1646.57
766.02	1697.77
766.20	1593.32
766.38	1673.19
766.56	1714.15
766.73	1755.11
766.91	1730.53
767.09	1712.10
767.27	1708.01
767.44	1669.09
767.62	1683.43
767.80	1673.19
767.98	1716.20
768.15	1669.09
768.33	1736.68
768.51	1779.68
768.69	1701.86
768.87	1720.29
769.04	1712.10
769.22	1820.64
769.40	1834.98
769.58	1814.50
769.75	1798.12
769.93	1683.43
770.11	1644.52
770.28	1675.24
770.46	1796.07
770.64	1697.77
770.82	1642.47
770.99	1681.38
771.17	1720.29
771.35	1665.00
771.53	1701.86
771.70	1640.42
771.88	1658.85
772.06	1624.04
772.23	1697.77
772.41	1699.81
772.59	1607.66
772.77	1673.19
772.94	1697.77
773.12	1726.44
773.30	1679.33
773.47	1740.77
773.65	1689.57
773.83	1814.50
774.01	1662.95
774.18	1617.90
774.36	1673.19
774.54	1626.09
774.71	1724.39
774.89	1609.70
775.07	1591.27
775.24	1691.62
775.42	1726.44
775.60	1742.82
775.78	1601.51
775.95	1525.74
776.13	1615.85
776.31	1681.38
776.48	1642.47
776.66	1740.77
776.84	1685.48
777.01	1718.25
777.19	1642.47
777.37	1703.91
777.54	1687.53
777.72	1886.18
777.90	1708.01
778.07	1632.23
778.25	1867.75
778.43	1720.29
778.60	1628.14
778.78	1705.96
778.96	1728.49
779.13	1757.16
779.31	1757.16
779.49	1654.76
779.66	1681.38
779.84	1685.48
780.01	1718.25
780.19	1578.98
780.37	1751.01
780.54	1697.77
780.72	1619.94
780.90	1685.48
781.07	1695.72
781.25	1734.63
781.43	1759.21
781.60	1640.42
781.78	1734.63
781.95	1767.40
782.13	1613.80
782.31	1675.24
782.48	1581.03
782.66	1714.15
782.83	1837.03
783.01	1703.91
783.19	1763.30
783.36	1617.90
783.54	1679.33
783.72	1699.81
783.89	1648.61
784.07	1728.49
784.24	1687.53
784.42	1804.26
784.60	1716.20
784.77	1748.97
784.95	1705.96
785.12	1617.90
785.30	1714.15
785.47	1718.25
785.65	1648.61
785.83	1691.62
786.00	1689.57
786.18	1683.43
786.35	1624.04
786.53	1642.47
786.71	1767.40
786.88	1796.07
787.06	1740.77
787.23	1681.38
787.41	1642.47
787.58	1691.62
787.76	1636.33
787.94	1740.77
788.11	1746.92
788.29	1697.77
788.46	1722.34
788.64	1607.66
788.81	1632.23
788.99	1685.48
789.16	1691.62
789.34	1662.95
789.52	1652.71
789.69	1679.33
789.87	1599.46
790.04	1720.29
790.22	1669.09
790.39	1699.81
790.57	1615.85
790.74	1669.09
790.92	1812.45
791.09	1662.95
791.27	1744.87
791.44	1830.88
791.62	1619.94
791.79	1785.83
791.97	1712.10
792.15	1826.79
792.32	1771.49
792.50	1691.62
792.67	1710.05
792.85	1779.68
793.02	1748.97
793.20	1650.66
793.37	1640.42
793.55	1710.05
793.72	1642.47
793.90	1757.16
794.07	1607.66
794.25	1628.14
794.42	1675.24
794.60	1695.72
794.77	1689.57
794.95	1779.68
795.12	1724.39
795.30	1732.58
795.47	1660.90
795.65	1837.03
795.82	1656.81
796.00	1660.90
796.17	1718.25
796.34	1730.53
796.52	1742.82
796.69	1742.82
796.87	1800.16
797.04	1787.88
797.22	1689.57
797.39	1681.38
797.57	1730.53
797.74	1697.77
797.92	1730.53
798.09	1636.33
798.27	1736.68
798.44	1751.01
798.62	1685.48
798.79	1687.53
798.96	1712.10
799.14	1630.18
799.31	1927.14
799.49	1634.28
799.66	1691.62
799.84	1722.34
800.01	1617.90
800.19	1677.29
800.36	1591.27
800.53	1705.96
800.71	1718.25
800.88	1771.49
801.06	1716.20
801.23	1703.91
801.41	1695.72
801.58	1669.09
801.75	1691.62
801.93	1716.20
802.10	1718.25
802.28	1716.20
802.45	1689.57
802.63	1722.34
802.80	1720.29
802.97	1667.05
803.15	1734.63
803.32	1630.18
803.50	1660.90
803.67	1638.38
803.84	1644.52
804.02	1675.24
804.19	1685.48
804.37	1576.94
804.54	1697.77
804.71	1693.67
804.89	1693.67
805.06	1640.42
805.24	1644.52
805.41	1607.66
805.58	1687.53
805.76	1804.26
805.93	1689.57
806.10	1775.59
806.28	1703.91
806.45	1744.87
806.63	1763.30
806.80	1732.58
806.97	1644.52
807.15	1742.82
807.32	1734.63
807.49	1656.81
807.67	1613.80
807.84	1718.25
808.01	1613.80
808.19	1845.22
808.36	1791.97
808.54	1650.66
808.71	1654.76
808.88	1697.77
809.06	1695.72
809.23	1789.92
809.40	1705.96
809.58	1746.92
809.75	1660.90
809.92	1695.72
810.10	1808.36
810.27	1615.85
810.44	1714.15
810.62	1708.01
810.79	1734.63
810.96	1714.15
811.14	1683.43
811.31	1699.81
811.48	1714.15
811.66	1626.09
811.83	1660.90
812.00	1781.73
812.18	1671.14
812.35	1843.17
812.52	1624.04
812.69	1658.85
812.87	1693.67
813.04	1656.81
813.21	1703.91
813.39	1671.14
813.56	1613.80
813.73	1705.96
813.91	1566.70
814.08	1695.72
814.25	1757.16
814.42	1679.33
814.60	1708.01
814.77	1751.01
814.94	1671.14
815.12	1722.34
815.29	1730.53
815.46	1681.38
815.63	1685.48
815.81	1619.94
815.98	1654.76
816.15	1656.81
816.33	1681.38
816.50	1703.91
816.67	1740.77
816.84	1630.18
817.02	1644.52
817.19	1701.86
817.36	1626.09
817.53	1722.34
817.71	1677.29
817.88	1800.16
818.05	1681.38
818.22	1720.29
818.40	1769.44
818.57	1701.86
818.74	1699.81
818.91	1753.06
819.09	1710.05
819.26	1773.54
819.43	1646.57
819.60	1613.80
819.78	1712.10
819.95	1794.02
820.12	1730.53
820.29	1755.11
820.47	1783.78
820.64	1742.82
820.81	1626.09
820.98	1677.29
821.15	1681.38
821.33	1681.38
821.50	1667.05
821.67	1777.64
821.84	1701.86
822.02	1699.81
822.19	1695.72
822.36	1644.52
822.53	1701.86
822.70	1656.81
822.88	1662.95
823.05	1785.83
823.22	1609.70
823.39	1763.30
823.56	1744.87
823.74	1816.55
823.91	1650.66
824.08	1710.05
824.25	1665.00
824.42	1796.07
824.60	1572.84
824.77	1757.16
824.94	1665.00
825.11	1675.24
825.28	1558.50
825.45	1671.14
825.63	1767.40
825.80	1718.25
825.97	1708.01
826.14	1681.38
826.31	1626.09
826.48	1716.20
826.66	1665.00
826.83	1701.86
827.00	1734.63
827.17	1648.61
827.34	1751.01
827.51	1683.43
827.69	1740.77
827.86	1665.00
828.03	1665.00
828.20	1570.79
828.37	1636.33
828.54	1720.29
828.71	1642.47
828.89	1853.41
829.06	1824.74
829.23	1691.62
829.40	1679.33
829.57	1732.58
829.74	1683.43
829.91	1605.61
830.09	1677.29
830.26	1816.55
830.43	1767.40
830.60	1697.77
830.77	1693.67
830.94	1800.16
831.11	1726.44
831.28	1677.29
831.46	1787.88
831.63	1667.05
831.80	1769.44
831.97	1720.29
832.14	1710.05
832.31	1730.53
832.48	1832.93
832.65	1708.01
832.82	1697.77
832.99	1691.62
833.17	1644.52
833.34	1742.82
833.51	1744.87
833.68	1591.27
833.85	1662.95
834.02	1685.48
834.19	1650.66
834.36	1648.61
834.53	1673.19
834.70	1755.11
834.87	1775.59
835.04	1654.76
835.22	1695.72
835.39	1621.99
835.56	1640.42
835.73	1679.33
835.90	1771.49
836.07	1634.28
836.24	1701.86
836.41	1699.81
836.58	1732.58
836.75	1748.97
836.92	1771.49
837.09	1708.01
837.26	1697.77
837.43	1693.67
837.60	1748.97
837.77	1730.53
837.94	1806.31
838.12	1802.21
838.29	1699.81
838.46	1558.50
838.63	1660.90
838.80	1689.57
838.97	1734.63
839.14	1705.96
839.31	1681.38
839.48	1740.77
839.65	1642.47
839.82	1732.58
839.99	1703.91
840.16	1624.04
840.33	1687.53
840.50	1769.44
840.67	1699.81
840.84	1597.42
841.01	1693.67
841.18	1697.77
841.35	1658.85
841.52	1726.44
841.69	1789.92
841.86	1669.09
842.03	1742.82
842.20	1744.87
842.37	1724.39
842.54	1681.38
842.71	1730.53
842.88	1656.81
843.05	1726.44
843.22	1644.52
843.39	1726.44
843.56	1685.48
843.73	1724.39
843.90	1675.24
844.07	1642.47
844.24	1671.14
844.41	1730.53
844.58	1746.92
844.75	1708.01
844.92	1748.97
845.09	1697.77
845.26	1718.25
845.43	1695.72
845.60	1683.43
845.77	1740.77
845.94	1724.39
846.10	1673.19
846.27	1695.72
846.44	1683.43
846.61	1648.61
846.78	1773.54
846.95	1742.82
847.12	1650.66
847.29	1648.61
847.46	1679.33
847.63	1742.82
847.80	1654.76
847.97	1591.27
848.14	1755.11
848.31	1693.67
848.48	1662.95
848.65	1697.77
848.82	1636.33
848.98	1834.98
849.15	1726.44
849.32	1718.25
849.49	1740.77
849.66	1714.15
849.83	1624.04
850.00	1593.32
850.17	1763.30
850.34	1601.51
850.51	1658.85
850.68	1646.57
850.85	1755.11
851.01	1732.58
851.18	1757.16
851.35	1734.63
851.52	1732.58
851.69	1773.54
851.86	1595.37
852.03	1714.15
852.20	1753.06
852.37	1718.25
852.53	1705.96
852.70	1759.21
852.87	1716.20
853.04	1759.21
853.21	1632.23
853.38	1759.21
853.55	1671.14
853.72	1810.40
853.89	1634.28
854.05	1632.23
854.22	1726.44
854.39	1650.66
854.56	1691.62
854.73	1767.40
854.90	1652.71
855.07	1730.53
855.23	1722.34
855.40	1662.95
855.57	1718.25
855.74	1585.13
855.91	1853.41
856.08	1601.51
856.25	1636.33
856.41	1724.39
856.58	1691.62
856.75	1681.38
856.92	1583.08
857.09	1804.26
857.26	1609.70
857.42	1626.09
857.59	1734.63
857.76	1638.38
857.93	1734.63
858.10	1701.86
858.27	1615.85
858.43	1656.81
858.60	1650.66
858.77	1626.09
858.94	1671.14
859.11	1763.30
859.27	1626.09
859.44	1701.86
859.61	1834.98
859.78	1673.19
859.95	1644.52
860.12	1646.57
860.28	1800.16
860.45	1748.97
860.62	1699.81
860.79	1718.25
860.95	1636.33
861.12	1605.61
861.29	1650.66
861.46	1679.33
861.63	1705.96
861.79	1697.77
861.96	1652.71
862.13	1611.75
862.30	1718.25
862.47	1656.81
862.63	1642.47
862.80	1767.40
862.97	1759.21
863.14	1718.25
863.30	1708.01
863.47	1744.87
863.64	1757.16
863.81	1665.00
863.97	1667.05
864.14	1650.66
864.31	1656.81
864.48	1755.11
864.65	1665.00
864.81	1718.25
864.98	1769.44
865.15	1693.67
865.32	1765.35
865.48	1763.30
865.65	1763.30
865.82	1638.38
865.98	1701.86
866.15	1742.82
866.32	1640.42
866.49	1681.38
866.65	1873.89
866.82	1589.22
866.99	1746.92
867.16	1605.61
867.32	1689.57
867.49	1640.42
867.66	1742.82
867.83	1710.05
867.99	1675.24
868.16	1705.96
868.33	1638.38
868.49	1712.10
868.66	1669.09
868.83	1624.04
868.99	1603.56
869.16	1648.61
869.33	1710.05
869.50	1718.25
869.66	1722.34
869.83	1665.00
870.00	1683.43
870.16	1691.62
870.33	1710.05
870.50	1759.21
870.66	1628.14
870.83	1812.45
871.00	1724.39
871.17	1738.73
871.33	1677.29
871.50	1724.39
871.67	1675.24
871.83	1626.09
872.00	1824.74
872.17	1611.75
872.33	1775.59
872.50	1726.44
872.67	1667.05
872.83	1697.77
873.00	1798.12
873.17	1701.86
873.33	1697.77
873.50	1712.10
873.67	1726.44
873.83	1658.85
874.00	1658.85
874.16	1681.38
874.33	1716.20
874.50	1652.71
874.66	1781.73
874.83	1730.53
875.00	1761.25
875.16	1724.39
875.33	1753.06
875.50	1652.71
875.66	1679.33
875.83	1693.67
875.99	1804.26
876.16	1621.99
876.33	1679.33
876.49	1660.90
876.66	1742.82
876.83	1605.61
876.99	1626.09
877.16	1634.28
877.32	1732.58
877.49	1660.90
877.66	1744.87
877.82	1755.11
877.99	1701.86
878.15	1771.49
878.32	1742.82
878.49	1777.64
878.65	1695.72
878.82	1746.92
878.98	1699.81
879.15	1783.78
879.32	1613.80
879.48	1714.15
879.65	1705.96
879.81	1673.19
879.98	1728.49
880.15	1644.52
880.31	1683.43
880.48	1652.71
880.64	1763.30
880.81	1720.29
880.97	1804.26
881.14	1767.40
881.31	1617.90
881.47	1853.41
881.64	1726.44
881.80	1654.76
881.97	1695.72
882.13	1697.77
882.30	1599.46
882.47	1654.76
882.63	1695.72
882.80	1724.39
882.96	1658.85
883.13	1779.68
883.29	1720.29
883.46	1699.81
883.62	1824.74
883.79	1697.77
883.95	1718.25
884.12	1675.24
884.29	1767.40
884.45	1705.96
884.62	1781.73
884.78	1609.70
884.95	1824.74
885.11	1722.34
885.28	1769.44
885.44	1667.05
885.61	1718.25
885.77	1695.72
885.94	1673.19
886.10	1738.73
886.27	1759.21
886.43	1806.31
886.60	1734.63
886.76	1726.44
886.93	1621.99
887.09	1712.10
887.26	1640.42
887.42	1626.09
887.59	1781.73
887.75	1796.07
887.92	1779.68
888.08	1734.63
888.25	1767.40
888.41	1765.35
888.58	1755.11
888.74	1626.09
888.91	1636.33
>>>>>End Processed Spectral Data<<<<<
