SpectraSuite Data File
++++++++++++++++++++++++++++++++++++
Date: Mon Jun 06 14:53:37 CEST 2016
User: root
Dark Spectrum Present: No
Reference Spectrum Present: No
Number of Sampled Component Spectra: 1
Spectrometers: USB4C02835
Integration Time (usec): 100000 (USB4C02835)
Spectra Averaged: 1 (USB4C02835)
Boxcar Smoothing: 0 (USB4C02835)
Correct for Electrical Dark: No (USB4C02835)
Strobe/Lamp Enabled: No (USB4C02835)
Correct for Detector Non-linearity: No (USB4C02835)
Correct for Stray Light: No (USB4C02835)
Number of Pixels in Processed Spectrum: 3648
>>>>>Begin Processed Spectral Data<<<<<
177.47	1431.53
177.69	1431.53
177.91	1431.53
178.13	1468.39
178.36	1511.40
178.58	1648.61
178.80	1748.97
179.02	1597.42
179.24	1638.38
179.46	1665.00
179.68	1728.49
179.90	1732.58
180.13	1720.29
180.35	1646.57
180.57	1677.29
180.79	1687.53
181.01	1703.91
181.23	1804.26
181.45	1814.50
181.67	1679.33
181.90	1755.11
182.12	1662.95
182.34	1703.91
182.56	1728.49
182.78	1699.81
183.00	1665.00
183.22	1751.01
183.44	1636.33
183.66	1820.64
183.89	1730.53
184.11	1746.92
184.33	1779.68
184.55	1777.64
184.77	1640.42
184.99	1701.86
185.21	1689.57
185.43	1783.78
185.65	1656.81
185.87	1660.90
186.10	1910.75
186.32	1847.27
186.54	1685.48
186.76	1708.01
186.98	1808.36
187.20	1656.81
187.42	1730.53
187.64	1771.49
187.86	1662.95
188.08	1738.73
188.30	1669.09
188.52	1757.16
188.75	1761.25
188.97	1798.12
189.19	1615.85
189.41	1763.30
189.63	1755.11
189.85	1662.95
190.07	1681.38
190.29	1665.00
190.51	1787.88
190.73	1626.09
190.95	1775.59
191.17	1740.77
191.39	1621.99
191.61	1669.09
191.84	1662.95
192.06	1714.15
192.28	1662.95
192.50	1826.79
192.72	1703.91
192.94	1703.91
193.16	1773.54
193.38	1714.15
193.60	1677.29
193.82	1718.25
194.04	1712.10
194.26	1689.57
194.48	1619.94
194.70	1632.23
194.92	1728.49
195.14	1771.49
195.36	1595.37
195.58	1738.73
195.80	1724.39
196.02	1675.24
196.24	1695.72
196.46	1728.49
196.69	1599.46
196.91	1796.07
197.13	1695.72
197.35	1732.58
197.57	1755.11
197.79	1742.82
198.01	1748.97
198.23	1679.33
198.45	1757.16
198.67	1720.29
198.89	1740.77
199.11	1697.77
199.33	1583.08
199.55	1591.27
199.77	1728.49
199.99	1716.20
200.21	1753.06
200.43	1626.09
200.65	1642.47
200.87	1591.27
201.09	1693.67
201.31	1697.77
201.53	1798.12
201.75	1820.64
201.97	1677.29
202.19	1748.97
202.41	1701.86
202.63	1757.16
202.85	1734.63
203.07	1699.81
203.29	1716.20
203.51	1644.52
203.73	1624.04
203.95	1968.10
204.17	1708.01
204.39	1705.96
204.61	1705.96
204.83	1681.38
205.05	1714.15
205.27	1791.97
205.49	1744.87
205.71	1634.28
205.93	1665.00
206.15	1685.48
206.37	1738.73
206.59	1675.24
206.81	1607.66
207.03	1619.94
207.25	1648.61
207.47	1722.34
207.69	1734.63
207.91	1746.92
208.13	1710.05
208.34	1697.77
208.56	1628.14
208.78	1683.43
209.00	1642.47
209.22	1691.62
209.44	1701.86
209.66	1722.34
209.88	1796.07
210.10	1730.53
210.32	1722.34
210.54	1730.53
210.76	1685.48
210.98	1724.39
211.20	1572.84
211.42	1660.90
211.64	1820.64
211.86	1705.96
212.08	1705.96
212.30	1757.16
212.52	1714.15
212.74	1742.82
212.96	1789.92
213.17	1722.34
213.39	1800.16
213.61	1779.68
213.83	1691.62
214.05	1595.37
214.27	1705.96
214.49	1712.10
214.71	1673.19
214.93	1767.40
215.15	1636.33
215.37	1781.73
215.59	1615.85
215.81	1734.63
216.03	1763.30
216.24	1677.29
216.46	1665.00
216.68	1683.43
216.90	1832.93
217.12	1787.88
217.34	1738.73
217.56	1759.21
217.78	1744.87
218.00	1765.35
218.22	1695.72
218.44	1742.82
218.66	1732.58
218.87	1832.93
219.09	1691.62
219.31	1722.34
219.53	1732.58
219.75	1691.62
219.97	1652.71
220.19	1691.62
220.41	1638.38
220.63	1681.38
220.85	1742.82
221.06	1683.43
221.28	1861.60
221.50	1705.96
221.72	1665.00
221.94	1714.15
222.16	1665.00
222.38	1716.20
222.60	1734.63
222.82	1699.81
223.03	1716.20
223.25	1705.96
223.47	1746.92
223.69	1787.88
223.91	1677.29
224.13	1742.82
224.35	1669.09
224.57	1761.25
224.78	1781.73
225.00	1644.52
225.22	1718.25
225.44	1751.01
225.66	1781.73
225.88	1605.61
226.10	1791.97
226.32	1632.23
226.53	1722.34
226.75	1701.86
226.97	1691.62
227.19	1771.49
227.41	1687.53
227.63	1714.15
227.85	1611.75
228.06	1773.54
228.28	1679.33
228.50	1755.11
228.72	1591.27
228.94	1705.96
229.16	1667.05
229.37	1601.51
229.59	1697.77
229.81	1775.59
230.03	1630.18
230.25	1624.04
230.47	1576.94
230.69	1601.51
230.90	1710.05
231.12	1695.72
231.34	1724.39
231.56	1761.25
231.78	1642.47
232.00	1714.15
232.21	1648.61
232.43	1662.95
232.65	1574.89
232.87	1714.15
233.09	1714.15
233.30	1667.05
233.52	1806.31
233.74	1703.91
233.96	1724.39
234.18	1691.62
234.40	1705.96
234.61	1855.46
234.83	1609.70
235.05	1634.28
235.27	1808.36
235.49	1751.01
235.70	1755.11
235.92	1746.92
236.14	1800.16
236.36	1785.83
236.58	1646.57
236.79	1763.30
237.01	1734.63
237.23	1656.81
237.45	1798.12
237.67	1755.11
237.88	1751.01
238.10	1775.59
238.32	1634.28
238.54	1763.30
238.76	1699.81
238.97	1605.61
239.19	1687.53
239.41	1693.67
239.63	1736.68
239.85	1679.33
240.06	1712.10
240.28	1656.81
240.50	1683.43
240.72	1720.29
240.93	1695.72
241.15	1738.73
241.37	1710.05
241.59	1722.34
241.81	1726.44
242.02	1685.48
242.24	1726.44
242.46	1777.64
242.68	1699.81
242.89	1744.87
243.11	1718.25
243.33	1740.77
243.55	1773.54
243.76	1681.38
243.98	1689.57
244.20	1634.28
244.42	1761.25
244.64	1718.25
244.85	1662.95
245.07	1683.43
245.29	1738.73
245.51	1714.15
245.72	1697.77
245.94	1730.53
246.16	1714.15
246.38	1763.30
246.59	1681.38
246.81	1660.90
247.03	1714.15
247.24	1662.95
247.46	1662.95
247.68	1708.01
247.90	1671.14
248.11	1665.00
248.33	1824.74
248.55	1738.73
248.77	1699.81
248.98	1730.53
249.20	1822.69
249.42	1734.63
249.64	1751.01
249.85	1656.81
250.07	1644.52
250.29	1681.38
250.50	1710.05
250.72	1632.23
250.94	1687.53
251.16	1789.92
251.37	1726.44
251.59	1701.86
251.81	1701.86
252.02	1755.11
252.24	1669.09
252.46	1810.40
252.68	1646.57
252.89	1665.00
253.11	1591.27
253.33	1763.30
253.54	1789.92
253.76	1632.23
253.98	1714.15
254.20	1665.00
254.41	1632.23
254.63	1642.47
254.85	1699.81
255.06	1783.78
255.28	1677.29
255.50	1687.53
255.71	1722.34
255.93	1658.85
256.15	1673.19
256.36	1738.73
256.58	1714.15
256.80	1714.15
257.02	1775.59
257.23	1667.05
257.45	1619.94
257.67	1834.98
257.88	1738.73
258.10	1677.29
258.32	1703.91
258.53	1683.43
258.75	1808.36
258.97	1701.86
259.18	1730.53
259.40	1658.85
259.62	1812.45
259.83	1738.73
260.05	1775.59
260.27	2002.91
260.48	1740.77
260.70	1685.48
260.92	1683.43
261.13	1765.35
261.35	1662.95
261.57	1619.94
261.78	1630.18
262.00	1677.29
262.22	1726.44
262.43	1636.33
262.65	1738.73
262.86	1732.58
263.08	1812.45
263.30	1726.44
263.51	1603.56
263.73	1634.28
263.95	1816.55
264.16	1660.90
264.38	1660.90
264.60	1710.05
264.81	1683.43
265.03	1708.01
265.25	1728.49
265.46	1677.29
265.68	1767.40
265.89	1771.49
266.11	1587.18
266.33	1722.34
266.54	1828.84
266.76	1783.78
266.98	1708.01
267.19	1763.30
267.41	1757.16
267.62	1718.25
267.84	1679.33
268.06	1718.25
268.27	1638.38
268.49	1812.45
268.70	1796.07
268.92	1781.73
269.14	1701.86
269.35	1576.94
269.57	1656.81
269.79	1757.16
270.00	1640.42
270.22	1814.50
270.43	1761.25
270.65	1576.94
270.87	1699.81
271.08	1681.38
271.30	1755.11
271.51	1705.96
271.73	1662.95
271.95	1775.59
272.16	1701.86
272.38	1648.61
272.59	1595.37
272.81	1718.25
273.02	1724.39
273.24	1732.58
273.46	1812.45
273.67	1642.47
273.89	1662.95
274.10	1693.67
274.32	1693.67
274.54	1705.96
274.75	1712.10
274.97	1677.29
275.18	1816.55
275.40	1726.44
275.61	1619.94
275.83	1738.73
276.05	1656.81
276.26	1730.53
276.48	1771.49
276.69	1667.05
276.91	1619.94
277.12	1826.79
277.34	1787.88
277.55	1767.40
277.77	1769.44
277.99	1665.00
278.20	1615.85
278.42	1656.81
278.63	1621.99
278.85	1638.38
279.06	1624.04
279.28	1779.68
279.49	1722.34
279.71	1667.05
279.93	1726.44
280.14	1570.79
280.36	1564.65
280.57	1744.87
280.79	1732.58
281.00	1656.81
281.22	1656.81
281.43	1757.16
281.65	1566.70
281.86	1650.66
282.08	1701.86
282.29	1763.30
282.51	1687.53
282.73	1701.86
282.94	1568.74
283.16	1753.06
283.37	1902.56
283.59	1693.67
283.80	1734.63
284.02	1775.59
284.23	1710.05
284.45	1677.29
284.66	1685.48
284.88	1619.94
285.09	1714.15
285.31	1738.73
285.52	1697.77
285.74	1595.37
285.95	1673.19
286.17	1748.97
286.38	1808.36
286.60	1656.81
286.81	1648.61
287.03	1703.91
287.24	1660.90
287.46	1650.66
287.67	1812.45
287.89	1728.49
288.10	1673.19
288.32	1683.43
288.53	1791.97
288.75	1695.72
288.96	1712.10
289.18	1699.81
289.39	1763.30
289.61	1769.44
289.82	1867.75
290.04	1820.64
290.25	1538.02
290.47	1673.19
290.68	1660.90
290.90	1771.49
291.11	1656.81
291.33	1777.64
291.54	1605.61
291.76	1718.25
291.97	1708.01
292.18	1677.29
292.40	1660.90
292.61	1630.18
292.83	1822.69
293.04	1783.78
293.26	1648.61
293.47	1763.30
293.69	1701.86
293.90	1724.39
294.12	1746.92
294.33	1681.38
294.55	1699.81
294.76	1681.38
294.97	1798.12
295.19	1880.04
295.40	1650.66
295.62	1773.54
295.83	1748.97
296.05	1667.05
296.26	1804.26
296.48	1722.34
296.69	1667.05
296.90	1769.44
297.12	1759.21
297.33	1746.92
297.55	1726.44
297.76	1755.11
297.98	1732.58
298.19	1714.15
298.41	1705.96
298.62	1675.24
298.83	1783.78
299.05	1755.11
299.26	1744.87
299.48	1699.81
299.69	1755.11
299.90	1656.81
300.12	1671.14
300.33	1734.63
300.55	1718.25
300.76	1759.21
300.98	1681.38
301.19	1691.62
301.40	1662.95
301.62	1689.57
301.83	1710.05
302.05	1701.86
302.26	1748.97
302.47	1714.15
302.69	1667.05
302.90	1705.96
303.12	1511.40
303.33	1730.53
303.54	1804.26
303.76	1722.34
303.97	1714.15
304.19	1796.07
304.40	1628.14
304.61	1804.26
304.83	1816.55
305.04	1697.77
305.26	1716.20
305.47	1695.72
305.68	1730.53
305.90	1669.09
306.11	1769.44
306.33	1636.33
306.54	1685.48
306.75	1624.04
306.97	1546.22
307.18	1740.77
307.39	1697.77
307.61	1783.78
307.82	1667.05
308.04	1712.10
308.25	1628.14
308.46	1685.48
308.68	1644.52
308.89	1761.25
309.10	1746.92
309.32	1720.29
309.53	1671.14
309.74	1791.97
309.96	1632.23
310.17	1804.26
310.39	1744.87
310.60	1736.68
310.81	1660.90
311.03	1683.43
311.24	1710.05
311.45	1736.68
311.67	1771.49
311.88	1724.39
312.09	1621.99
312.31	1720.29
312.52	1726.44
312.73	1679.33
312.95	1574.89
313.16	1681.38
313.37	1791.97
313.59	1701.86
313.80	1746.92
314.01	1787.88
314.23	1648.61
314.44	1701.86
314.65	1712.10
314.87	1605.61
315.08	1744.87
315.29	1697.77
315.51	1683.43
315.72	1646.57
315.93	1738.73
316.15	1746.92
316.36	1722.34
316.57	1636.33
316.79	1734.63
317.00	1740.77
317.21	1705.96
317.43	1687.53
317.64	1695.72
317.85	1716.20
318.07	1722.34
318.28	1714.15
318.49	1761.25
318.70	1949.67
318.92	1841.12
319.13	1796.07
319.34	1777.64
319.56	1779.68
319.77	1712.10
319.98	1746.92
320.20	1759.21
320.41	1671.14
320.62	1767.40
320.83	1699.81
321.05	1824.74
321.26	1673.19
321.47	1660.90
321.69	1783.78
321.90	1683.43
322.11	1683.43
322.32	1675.24
322.54	1779.68
322.75	1687.53
322.96	1826.79
323.18	1607.66
323.39	1564.65
323.60	1611.75
323.81	1716.20
324.03	1728.49
324.24	1738.73
324.45	1611.75
324.66	1693.67
324.88	1783.78
325.09	1839.08
325.30	1718.25
325.52	1736.68
325.73	1734.63
325.94	1656.81
326.15	1554.41
326.37	1689.57
326.58	1699.81
326.79	1761.25
327.00	1658.85
327.22	1722.34
327.43	1689.57
327.64	1574.89
327.85	1798.12
328.07	1720.29
328.28	1824.74
328.49	1615.85
328.70	1656.81
328.92	1691.62
329.13	1677.29
329.34	1693.67
329.55	1757.16
329.76	1765.35
329.98	1656.81
330.19	1744.87
330.40	1755.11
330.61	1789.92
330.83	1724.39
331.04	1697.77
331.25	1767.40
331.46	1656.81
331.68	1691.62
331.89	1701.86
332.10	1775.59
332.31	1646.57
332.52	1724.39
332.74	1806.31
332.95	1628.14
333.16	1669.09
333.37	1777.64
333.58	1728.49
333.80	1720.29
334.01	1617.90
334.22	1650.66
334.43	1665.00
334.64	1683.43
334.86	1601.51
335.07	1673.19
335.28	1755.11
335.49	1564.65
335.70	1730.53
335.92	1744.87
336.13	1882.08
336.34	1724.39
336.55	1624.04
336.76	1716.20
336.98	1630.18
337.19	1705.96
337.40	1767.40
337.61	1882.08
337.82	1710.05
338.04	1697.77
338.25	1576.94
338.46	1701.86
338.67	1673.19
338.88	1669.09
339.09	1642.47
339.31	1626.09
339.52	1644.52
339.73	1687.53
339.94	1689.57
340.15	1724.39
340.36	1687.53
340.58	1656.81
340.79	1673.19
341.00	1736.68
341.21	1568.74
341.42	1775.59
341.63	1712.10
341.85	1783.78
342.06	1673.19
342.27	1634.28
342.48	1824.74
342.69	1581.03
342.90	1683.43
343.12	1734.63
343.33	1656.81
343.54	1755.11
343.75	1830.88
343.96	1697.77
344.17	1701.86
344.38	1665.00
344.60	1687.53
344.81	1677.29
345.02	1693.67
345.23	1757.16
345.44	1775.59
345.65	1718.25
345.86	1781.73
346.07	1697.77
346.29	1669.09
346.50	1710.05
346.71	1746.92
346.92	1681.38
347.13	1806.31
347.34	1685.48
347.55	1720.29
347.76	1742.82
347.98	1632.23
348.19	1695.72
348.40	1730.53
348.61	1652.71
348.82	1820.64
349.03	1718.25
349.24	1683.43
349.45	1812.45
349.66	1601.51
349.88	1763.30
350.09	1724.39
350.30	1751.01
350.51	1789.92
350.72	1734.63
350.93	1656.81
351.14	1716.20
351.35	1779.68
351.56	1638.38
351.77	1705.96
351.99	1726.44
352.20	1822.69
352.41	1816.55
352.62	1595.37
352.83	1722.34
353.04	1779.68
353.25	1634.28
353.46	1796.07
353.67	1753.06
353.88	1574.89
354.09	1720.29
354.30	1665.00
354.52	1800.16
354.73	1652.71
354.94	1658.85
355.15	1658.85
355.36	1808.36
355.57	1689.57
355.78	1769.44
355.99	1667.05
356.20	1611.75
356.41	1746.92
356.62	1660.90
356.83	1736.68
357.04	1796.07
357.25	1556.46
357.46	1675.24
357.68	1689.57
357.89	1669.09
358.10	1712.10
358.31	1699.81
358.52	1761.25
358.73	1638.38
358.94	1751.01
359.15	1628.14
359.36	1716.20
359.57	1667.05
359.78	1662.95
359.99	1746.92
360.20	1638.38
360.41	1665.00
360.62	1744.87
360.83	1720.29
361.04	1675.24
361.25	1710.05
361.46	1812.45
361.67	1724.39
361.88	1798.12
362.09	1751.01
362.30	1748.97
362.51	1667.05
362.72	1740.77
362.93	1742.82
363.14	1669.09
363.35	1701.86
363.56	1689.57
363.78	1718.25
363.99	1683.43
364.20	1738.73
364.41	1691.62
364.62	1800.16
364.83	1769.44
365.04	1732.58
365.25	1736.68
365.46	1787.88
365.67	1636.33
365.88	1634.28
366.09	1673.19
366.30	1681.38
366.51	1624.04
366.72	1718.25
366.93	1751.01
367.14	1710.05
367.35	1742.82
367.56	1658.85
367.77	1785.83
367.98	1677.29
368.18	1728.49
368.39	1720.29
368.60	1695.72
368.81	1726.44
369.02	1767.40
369.23	1738.73
369.44	1593.32
369.65	1619.94
369.86	1708.01
370.07	1722.34
370.28	1634.28
370.49	1669.09
370.70	1716.20
370.91	1677.29
371.12	1626.09
371.33	1726.44
371.54	1738.73
371.75	1767.40
371.96	1642.47
372.17	1742.82
372.38	1669.09
372.59	1806.31
372.80	1624.04
373.01	1746.92
373.22	1783.78
373.43	1685.48
373.64	1710.05
373.85	1789.92
374.06	1859.56
374.26	1763.30
374.47	1779.68
374.68	1771.49
374.89	1718.25
375.10	1691.62
375.31	1705.96
375.52	1673.19
375.73	1689.57
375.94	1671.14
376.15	1765.35
376.36	1724.39
376.57	1695.72
376.78	1742.82
376.99	1703.91
377.20	1738.73
377.40	1738.73
377.61	1794.02
377.82	1730.53
378.03	1734.63
378.24	1757.16
378.45	1714.15
378.66	1757.16
378.87	1603.56
379.08	1611.75
379.29	1673.19
379.50	1765.35
379.71	1781.73
379.91	1783.78
380.12	1691.62
380.33	1738.73
380.54	1693.67
380.75	1714.15
380.96	1677.29
381.17	1769.44
381.38	1761.25
381.59	1779.68
381.80	1734.63
382.00	1857.51
382.21	1800.16
382.42	1796.07
382.63	1894.37
382.84	1775.59
383.05	1753.06
383.26	1722.34
383.47	1751.01
383.68	1722.34
383.88	1722.34
384.09	1755.11
384.30	1820.64
384.51	1730.53
384.72	1591.27
384.93	1644.52
385.14	1673.19
385.35	1726.44
385.55	1642.47
385.76	1763.30
385.97	1665.00
386.18	1599.46
386.39	1669.09
386.60	1640.42
386.81	1640.42
387.02	1638.38
387.22	1650.66
387.43	1787.88
387.64	1785.83
387.85	1775.59
388.06	2197.47
388.27	3991.49
388.48	6639.51
388.68	7956.36
388.89	9406.32
389.10	9420.66
389.31	8132.48
389.52	7425.93
389.73	6633.37
389.93	6113.19
390.14	5722.02
390.35	5087.15
390.56	4454.33
390.77	3731.40
390.98	2934.74
391.18	2506.71
391.39	2084.83
391.60	1882.08
391.81	1785.83
392.02	1648.61
392.23	1785.83
392.43	1771.49
392.64	1826.79
392.85	1718.25
393.06	1779.68
393.27	1734.63
393.47	1669.09
393.68	1685.48
393.89	1607.66
394.10	1800.16
394.31	1724.39
394.52	1642.47
394.72	1654.76
394.93	1814.50
395.14	1599.46
395.35	1753.06
395.56	1632.23
395.76	1648.61
395.97	1767.40
396.18	1822.69
396.39	1826.79
396.60	1931.23
396.80	1914.85
397.01	1773.54
397.22	1832.93
397.43	1853.41
397.64	1681.38
397.84	1742.82
398.05	1927.14
398.26	1724.39
398.47	1738.73
398.67	1757.16
398.88	1728.49
399.09	1718.25
399.30	1693.67
399.51	1712.10
399.71	1705.96
399.92	1710.05
400.13	1771.49
400.34	1703.91
400.54	1673.19
400.75	1808.36
400.96	1767.40
401.17	1869.80
401.37	1798.12
401.58	1771.49
401.79	1726.44
402.00	1812.45
402.21	1992.67
402.41	1918.95
402.62	1978.34
402.83	1982.43
403.04	1943.52
403.24	2037.73
403.45	1726.44
403.66	1912.80
403.87	1763.30
404.07	1914.85
404.28	1931.23
404.49	1779.68
404.70	1765.35
404.90	1794.02
405.11	1720.29
405.32	1779.68
405.52	1621.99
405.73	1652.71
405.94	1628.14
406.15	1728.49
406.35	1736.68
406.56	1718.25
406.77	1767.40
406.98	1787.88
407.18	1687.53
407.39	1812.45
407.60	1730.53
407.80	1777.64
408.01	1673.19
408.22	1800.16
408.43	1705.96
408.63	1650.66
408.84	1771.49
409.05	1685.48
409.25	1681.38
409.46	1654.76
409.67	1656.81
409.88	1701.86
410.08	1718.25
410.29	1665.00
410.50	1673.19
410.70	1785.83
410.91	1644.52
411.12	1724.39
411.32	1691.62
411.53	1628.14
411.74	1748.97
411.95	1798.12
412.15	1746.92
412.36	1771.49
412.57	1748.97
412.77	1775.59
412.98	1685.48
413.19	1703.91
413.39	1718.25
413.60	1726.44
413.81	1812.45
414.01	1675.24
414.22	1726.44
414.43	1800.16
414.63	1660.90
414.84	1689.57
415.05	1759.21
415.25	1669.09
415.46	1763.30
415.67	1677.29
415.87	1650.66
416.08	1681.38
416.29	1685.48
416.49	1695.72
416.70	1708.01
416.91	1677.29
417.11	1726.44
417.32	1705.96
417.53	1767.40
417.73	1720.29
417.94	1712.10
418.15	1759.21
418.35	1724.39
418.56	1722.34
418.77	1808.36
418.97	1648.61
419.18	1716.20
419.38	1601.51
419.59	1656.81
419.80	1746.92
420.00	1650.66
420.21	1693.67
420.42	1814.50
420.62	1687.53
420.83	1703.91
421.04	1763.30
421.24	1746.92
421.45	1699.81
421.65	1716.20
421.86	1699.81
422.07	1693.67
422.27	1703.91
422.48	1683.43
422.69	1617.90
422.89	1656.81
423.10	1605.61
423.30	1699.81
423.51	1689.57
423.72	1697.77
423.92	1751.01
424.13	1712.10
424.33	1689.57
424.54	1785.83
424.75	1701.86
424.95	1785.83
425.16	1746.92
425.36	1665.00
425.57	1822.69
425.78	1648.61
425.98	1730.53
426.19	1652.71
426.39	1615.85
426.60	1716.20
426.81	1820.64
427.01	1728.49
427.22	1720.29
427.42	1568.74
427.63	1693.67
427.83	1775.59
428.04	1845.22
428.25	1728.49
428.45	1865.70
428.66	1794.02
428.86	1652.71
429.07	1753.06
429.28	1796.07
429.48	1671.14
429.69	1724.39
429.89	1701.86
430.10	1636.33
430.30	1716.20
430.51	1843.17
430.71	1665.00
430.92	1742.82
431.13	1638.38
431.33	1695.72
431.54	1738.73
431.74	1761.25
431.95	1875.94
432.15	1648.61
432.36	1689.57
432.56	1667.05
432.77	1761.25
432.98	1841.12
433.18	1718.25
433.39	1726.44
433.59	1677.29
433.80	1839.08
434.00	1808.36
434.21	1562.60
434.41	1632.23
434.62	1779.68
434.82	1689.57
435.03	1611.75
435.23	1728.49
435.44	1648.61
435.64	1779.68
435.85	1771.49
436.06	1818.60
436.26	1789.92
436.47	1736.68
436.67	1732.58
436.88	1703.91
437.08	1759.21
437.29	1800.16
437.49	1726.44
437.70	1738.73
437.90	1660.90
438.11	1794.02
438.31	1748.97
438.52	1853.41
438.72	1820.64
438.93	1873.89
439.13	1767.40
439.34	1728.49
439.54	1730.53
439.75	1767.40
439.95	1824.74
440.16	1656.81
440.36	1789.92
440.57	1728.49
440.77	1822.69
440.98	1759.21
441.18	1779.68
441.39	1630.18
441.59	1650.66
441.80	1853.41
442.00	1705.96
442.21	1834.98
442.41	1665.00
442.62	1810.40
442.82	1705.96
443.02	1691.62
443.23	1804.26
443.43	1732.58
443.64	1769.44
443.84	1677.29
444.05	1738.73
444.25	1748.97
444.46	1751.01
444.66	1732.58
444.87	1806.31
445.07	1710.05
445.28	1779.68
445.48	1841.12
445.69	1714.15
445.89	1894.37
446.09	1759.21
446.30	2011.11
446.50	2615.26
446.71	3633.10
446.91	4364.22
447.12	4609.98
447.32	4671.42
447.53	4265.92
447.73	3794.89
447.93	3336.14
448.14	3223.50
448.34	3168.21
448.55	2832.34
448.75	2754.52
448.96	2609.11
449.16	2410.46
449.36	2256.86
449.57	2004.96
449.77	1814.50
449.98	1769.44
450.18	1773.54
450.39	1798.12
450.59	1810.40
450.79	1820.64
451.00	1722.34
451.20	1771.49
451.41	1734.63
451.61	1818.60
451.81	1705.96
452.02	1734.63
452.22	1665.00
452.43	1699.81
452.63	1613.80
452.84	1740.77
453.04	1753.06
453.24	1716.20
453.45	1701.86
453.65	1759.21
453.86	1701.86
454.06	1681.38
454.26	1794.02
454.47	1669.09
454.67	1746.92
454.87	1683.43
455.08	1728.49
455.28	1863.65
455.49	1679.33
455.69	1714.15
455.89	1783.78
456.10	1837.03
456.30	1697.77
456.51	1728.49
456.71	1724.39
456.91	1697.77
457.12	1718.25
457.32	1734.63
457.52	1603.56
457.73	1718.25
457.93	1796.07
458.14	1691.62
458.34	1697.77
458.54	1660.90
458.75	1755.11
458.95	1783.78
459.15	1673.19
459.36	1724.39
459.56	1748.97
459.76	1832.93
459.97	1783.78
460.17	1734.63
460.37	1775.59
460.58	1718.25
460.78	1734.63
460.99	1720.29
461.19	1863.65
461.39	1734.63
461.60	1718.25
461.80	1724.39
462.00	1761.25
462.21	1708.01
462.41	1634.28
462.61	1708.01
462.82	1714.15
463.02	1771.49
463.22	1779.68
463.43	1800.16
463.63	1771.49
463.83	1753.06
464.04	1738.73
464.24	1714.15
464.44	1675.24
464.64	1714.15
464.85	1726.44
465.05	1701.86
465.25	1689.57
465.46	1617.90
465.66	1751.01
465.86	1794.02
466.07	1718.25
466.27	1744.87
466.47	1695.72
466.68	1652.71
466.88	1890.28
467.08	1800.16
467.29	1779.68
467.49	1734.63
467.69	1798.12
467.89	1779.68
468.10	1714.15
468.30	1804.26
468.50	1820.64
468.71	1771.49
468.91	1671.14
469.11	1843.17
469.31	1697.77
469.52	1726.44
469.72	1873.89
469.92	1923.04
470.13	1775.59
470.33	1624.04
470.53	1808.36
470.73	2121.70
470.94	2283.49
471.14	2267.10
471.34	2521.05
471.54	2353.12
471.75	2232.29
471.95	2037.73
472.15	2033.63
472.36	2115.55
472.56	2166.75
472.76	1998.82
472.96	2019.30
473.17	1918.95
473.37	1877.99
473.57	1804.26
473.77	1845.22
473.98	1699.81
474.18	1697.77
474.38	1896.42
474.58	1724.39
474.79	1679.33
474.99	1800.16
475.19	1716.20
475.39	1656.81
475.60	1734.63
475.80	1681.38
476.00	1730.53
476.20	1705.96
476.41	1732.58
476.61	1718.25
476.81	1769.44
477.01	1687.53
477.21	1896.42
477.42	1832.93
477.62	1628.14
477.82	1755.11
478.02	1656.81
478.23	1691.62
478.43	1718.25
478.63	1732.58
478.83	1636.33
479.03	1689.57
479.24	1773.54
479.44	1732.58
479.64	1609.70
479.84	1626.09
480.04	1675.24
480.25	1746.92
480.45	1593.32
480.65	1730.53
480.85	1802.21
481.06	1744.87
481.26	1777.64
481.46	1744.87
481.66	1753.06
481.86	1652.71
482.06	1773.54
482.27	1675.24
482.47	1662.95
482.67	1708.01
482.87	1648.61
483.07	1763.30
483.28	1710.05
483.48	1677.29
483.68	1708.01
483.88	1671.14
484.08	1605.61
484.29	1673.19
484.49	1849.32
484.69	1619.94
484.89	1746.92
485.09	1775.59
485.29	1755.11
485.50	1755.11
485.70	1640.42
485.90	1714.15
486.10	1701.86
486.30	1748.97
486.50	1798.12
486.71	1746.92
486.91	1820.64
487.11	1789.92
487.31	1599.46
487.51	1806.31
487.71	1695.72
487.91	1722.34
488.12	1662.95
488.32	1599.46
488.52	1603.56
488.72	1648.61
488.92	1710.05
489.12	1751.01
489.32	1820.64
489.53	1767.40
489.73	1751.01
489.93	1804.26
490.13	1693.67
490.33	1611.75
490.53	1726.44
490.73	1800.16
490.94	1611.75
491.14	1796.07
491.34	1804.26
491.54	2064.35
491.74	2652.12
491.94	2836.44
492.14	2981.84
492.34	2979.79
492.54	2662.36
492.75	2412.51
492.95	2381.79
493.15	2322.40
493.35	2359.26
493.55	2176.99
493.75	2119.65
493.95	2082.78
494.15	2002.91
494.35	1945.57
494.56	1812.45
494.76	1697.77
494.96	1783.78
495.16	1753.06
495.36	1734.63
495.56	1705.96
495.76	1775.59
495.96	1759.21
496.16	1656.81
496.36	1863.65
496.56	1783.78
496.77	1710.05
496.97	1652.71
497.17	1814.50
497.37	1640.42
497.57	1796.07
497.77	1665.00
497.97	1632.23
498.17	1685.48
498.37	1771.49
498.57	1728.49
498.77	1697.77
498.97	1781.73
499.17	1751.01
499.38	1708.01
499.58	1736.68
499.78	1812.45
499.98	1839.08
500.18	1710.05
500.38	1742.82
500.58	1796.07
500.78	2506.71
500.98	4323.26
501.18	5486.51
501.38	6584.22
501.58	7143.32
501.78	6471.58
501.98	5474.22
502.18	4908.98
502.38	4356.03
502.58	3993.54
502.78	3731.40
502.98	3585.99
503.18	3336.14
503.38	3108.82
503.59	2779.09
503.79	2619.35
503.99	2488.28
504.19	2326.49
504.39	2205.66
504.59	2176.99
504.79	2125.79
504.99	2041.82
505.19	1902.56
505.39	1900.52
505.59	1959.91
505.79	1880.04
505.99	1832.93
506.19	1894.37
506.39	1851.36
506.59	1736.68
506.79	1744.87
506.99	1812.45
507.19	1724.39
507.39	1773.54
507.59	1714.15
507.79	1701.86
507.99	1693.67
508.19	1722.34
508.39	1705.96
508.59	1763.30
508.79	1783.78
508.99	1773.54
509.19	1697.77
509.39	1794.02
509.59	1613.80
509.79	1681.38
509.99	1751.01
510.19	1808.36
510.39	1830.88
510.59	1763.30
510.79	1685.48
510.99	1685.48
511.19	1791.97
511.39	1830.88
511.59	1751.01
511.79	1824.74
511.99	1808.36
512.19	1812.45
512.38	1734.63
512.58	1771.49
512.78	1699.81
512.98	1769.44
513.18	1767.40
513.38	1615.85
513.58	1808.36
513.78	1740.77
513.98	1734.63
514.18	1851.36
514.38	1728.49
514.58	1681.38
514.78	1675.24
514.98	1695.72
515.18	1650.66
515.38	1658.85
515.58	1832.93
515.78	1734.63
515.98	1697.77
516.18	1734.63
516.38	1789.92
516.57	1656.81
516.77	1710.05
516.97	1761.25
517.17	1628.14
517.37	1619.94
517.57	1773.54
517.77	1679.33
517.97	1773.54
518.17	1767.40
518.37	1695.72
518.57	1755.11
518.77	1697.77
518.97	1710.05
519.16	1755.11
519.36	1804.26
519.56	1675.24
519.76	1665.00
519.96	1763.30
520.16	1925.09
520.36	1665.00
520.56	1781.73
520.76	1689.57
520.96	1685.48
521.16	1771.49
521.35	1734.63
521.55	1781.73
521.75	1771.49
521.95	1716.20
522.15	1710.05
522.35	1685.48
522.55	1718.25
522.75	1767.40
522.95	1732.58
523.14	1673.19
523.34	1691.62
523.54	1699.81
523.74	1796.07
523.94	1763.30
524.14	1669.09
524.34	1744.87
524.54	1812.45
524.73	1744.87
524.93	1757.16
525.13	1759.21
525.33	1634.28
525.53	1820.64
525.73	1746.92
525.93	1734.63
526.13	1742.82
526.32	1630.18
526.52	1763.30
526.72	1808.36
526.92	1767.40
527.12	1658.85
527.32	1566.70
527.52	1714.15
527.71	1716.20
527.91	1726.44
528.11	1726.44
528.31	1701.86
528.51	1697.77
528.71	1777.64
528.90	1779.68
529.10	1763.30
529.30	1845.22
529.50	1613.80
529.70	1734.63
529.90	1685.48
530.09	1675.24
530.29	1648.61
530.49	1730.53
530.69	1837.03
530.89	1734.63
531.09	1761.25
531.28	1738.73
531.48	1796.07
531.68	1746.92
531.88	1767.40
532.08	1791.97
532.28	1730.53
532.47	1769.44
532.67	1798.12
532.87	1748.97
533.07	1632.23
533.27	1753.06
533.46	1697.77
533.66	1794.02
533.86	1701.86
534.06	1722.34
534.26	1714.15
534.45	1677.29
534.65	1787.88
534.85	1667.05
535.05	1796.07
535.25	1705.96
535.44	1652.71
535.64	1767.40
535.84	1689.57
536.04	1759.21
536.24	1626.09
536.43	1710.05
536.63	1689.57
536.83	1744.87
537.03	1665.00
537.22	1667.05
537.42	1576.94
537.62	1726.44
537.82	1683.43
538.02	1812.45
538.21	1824.74
538.41	1908.71
538.61	1769.44
538.81	1789.92
539.00	1796.07
539.20	1724.39
539.40	1732.58
539.60	1781.73
539.79	1779.68
539.99	1703.91
540.19	1642.47
540.39	1736.68
540.58	1714.15
540.78	1787.88
540.98	1751.01
541.18	1783.78
541.37	1787.88
541.57	1699.81
541.77	1712.10
541.97	1669.09
542.16	1636.33
542.36	1638.38
542.56	1765.35
542.76	1880.04
542.95	1730.53
543.15	1804.26
543.35	1705.96
543.54	1656.81
543.74	1730.53
543.94	1794.02
544.14	1683.43
544.33	1705.96
544.53	1679.33
544.73	1683.43
544.93	1683.43
545.12	1685.48
545.32	1660.90
545.52	1677.29
545.71	1650.66
545.91	1699.81
546.11	1714.15
546.30	1693.67
546.50	1783.78
546.70	1845.22
546.90	1759.21
547.09	1583.08
547.29	1734.63
547.49	1728.49
547.68	1722.34
547.88	1720.29
548.08	1828.84
548.27	2117.60
548.47	1691.62
548.67	1708.01
548.87	1781.73
549.06	1665.00
549.26	1746.92
549.46	1751.01
549.65	1652.71
549.85	1748.97
550.05	1714.15
550.24	1712.10
550.44	1787.88
550.64	1791.97
550.83	1757.16
551.03	1875.94
551.23	1746.92
551.42	1785.83
551.62	1695.72
551.82	1677.29
552.01	1746.92
552.21	1767.40
552.41	1804.26
552.60	1822.69
552.80	1785.83
553.00	1675.24
553.19	1755.11
553.39	1853.41
553.59	1689.57
553.78	1761.25
553.98	1800.16
554.17	1615.85
554.37	1759.21
554.57	1722.34
554.76	1669.09
554.96	1746.92
555.16	1824.74
555.35	1744.87
555.55	1722.34
555.75	1755.11
555.94	1775.59
556.14	1716.20
556.33	1822.69
556.53	1734.63
556.73	1765.35
556.92	1732.58
557.12	1855.46
557.32	1796.07
557.51	1781.73
557.71	1697.77
557.90	1810.40
558.10	1794.02
558.30	1722.34
558.49	1673.19
558.69	1773.54
558.88	1599.46
559.08	1667.05
559.28	1662.95
559.47	1730.53
559.67	1738.73
559.86	1869.80
560.06	1648.61
560.26	1716.20
560.45	1679.33
560.65	1660.90
560.84	1824.74
561.04	1798.12
561.24	1710.05
561.43	1683.43
561.63	1824.74
561.82	1751.01
562.02	1697.77
562.22	1656.81
562.41	1648.61
562.61	1753.06
562.80	1689.57
563.00	1916.90
563.19	1847.27
563.39	1785.83
563.59	1734.63
563.78	1691.62
563.98	1615.85
564.17	1787.88
564.37	1634.28
564.56	1708.01
564.76	1681.38
564.96	1777.64
565.15	1783.78
565.35	1814.50
565.54	1665.00
565.74	1806.31
565.93	1710.05
566.13	1777.64
566.32	1806.31
566.52	1769.44
566.71	1708.01
566.91	1859.56
567.11	1621.99
567.30	1761.25
567.50	1818.60
567.69	1767.40
567.89	1675.24
568.08	1669.09
568.28	1783.78
568.47	1771.49
568.67	1730.53
568.86	1716.20
569.06	1783.78
569.25	1773.54
569.45	1640.42
569.64	1738.73
569.84	1753.06
570.04	1722.34
570.23	1705.96
570.43	1648.61
570.62	1712.10
570.82	1804.26
571.01	1636.33
571.21	1708.01
571.40	1701.86
571.60	1718.25
571.79	1800.16
571.99	1724.39
572.18	1621.99
572.38	1763.30
572.57	1697.77
572.77	1783.78
572.96	1900.52
573.16	1710.05
573.35	1710.05
573.55	1730.53
573.74	1804.26
573.94	1746.92
574.13	1714.15
574.33	1802.21
574.52	1832.93
574.71	1757.16
574.91	1763.30
575.10	1658.85
575.30	1619.94
575.49	1710.05
575.69	1724.39
575.88	1712.10
576.08	1718.25
576.27	1828.84
576.47	1769.44
576.66	1910.75
576.86	1771.49
577.05	1804.26
577.25	1742.82
577.44	1880.04
577.64	1621.99
577.83	1789.92
578.02	1816.55
578.22	1767.40
578.41	1843.17
578.61	1777.64
578.80	1673.19
579.00	1851.36
579.19	1691.62
579.39	1746.92
579.58	1765.35
579.77	1716.20
579.97	1767.40
580.16	1865.70
580.36	1816.55
580.55	1834.98
580.75	1816.55
580.94	1728.49
581.13	1857.51
581.33	1816.55
581.52	1730.53
581.72	1816.55
581.91	1896.42
582.11	1763.30
582.30	1783.78
582.49	1812.45
582.69	1867.75
582.88	1890.28
583.08	1742.82
583.27	1816.55
583.47	1683.43
583.66	1697.77
583.85	1716.20
584.05	1675.24
584.24	1830.88
584.44	1773.54
584.63	1701.86
584.82	1931.23
585.02	1779.68
585.21	1820.64
585.41	1832.93
585.60	1843.17
585.79	1898.47
585.99	1943.52
586.18	1830.88
586.37	2183.13
586.57	3311.57
586.76	9465.71
586.96	23486.11
587.15	33232.39
587.34	39073.20
587.54	40863.12
587.73	35638.75
587.93	25245.31
588.12	20784.83
588.31	17915.63
588.51	15585.04
588.70	14688.03
588.89	13766.45
589.09	12171.08
589.28	10698.59
589.47	9064.31
589.67	7882.63
589.86	6256.54
590.06	4896.69
590.25	3710.92
590.44	3121.10
590.64	2594.78
590.83	2269.15
591.02	2103.26
591.22	1953.76
591.41	1847.27
591.60	1771.49
591.80	1894.37
591.99	1796.07
592.18	1740.77
592.38	1808.36
592.57	1791.97
592.76	1804.26
592.96	1759.21
593.15	1789.92
593.34	1800.16
593.54	1787.88
593.73	1779.68
593.92	1816.55
594.12	1740.77
594.31	1789.92
594.50	1767.40
594.70	1806.31
594.89	1877.99
595.08	1812.45
595.28	1738.73
595.47	1918.95
595.66	1726.44
595.86	1738.73
596.05	1728.49
596.24	1740.77
596.43	1865.70
596.63	1886.18
596.82	1740.77
597.01	1757.16
597.21	1802.21
597.40	1771.49
597.59	1619.94
597.79	1802.21
597.98	1789.92
598.17	1693.67
598.36	1779.68
598.56	1736.68
598.75	1658.85
598.94	1816.55
599.14	1734.63
599.33	1763.30
599.52	1781.73
599.71	1742.82
599.91	1814.50
600.10	1806.31
600.29	1656.81
600.48	1769.44
600.68	1738.73
600.87	1757.16
601.06	1681.38
601.26	1783.78
601.45	1763.30
601.64	1683.43
601.83	1837.03
602.03	1673.19
602.22	1662.95
602.41	1794.02
602.60	1828.84
602.80	1882.08
602.99	1732.58
603.18	1728.49
603.37	1755.11
603.57	1757.16
603.76	1763.30
603.95	1773.54
604.14	1757.16
604.34	1636.33
604.53	1734.63
604.72	1755.11
604.91	1775.59
605.10	1746.92
605.30	1669.09
605.49	1863.65
605.68	1769.44
605.87	1736.68
606.07	1685.48
606.26	1759.21
606.45	1761.25
606.64	1673.19
606.84	1734.63
607.03	1783.78
607.22	1759.21
607.41	1716.20
607.60	1685.48
607.80	1757.16
607.99	1675.24
608.18	1767.40
608.37	1746.92
608.56	1683.43
608.76	1740.77
608.95	1849.32
609.14	1738.73
609.33	1771.49
609.52	1804.26
609.72	1675.24
609.91	1816.55
610.10	1681.38
610.29	1841.12
610.48	1683.43
610.68	1689.57
610.87	1722.34
611.06	1804.26
611.25	1705.96
611.44	1785.83
611.63	1716.20
611.83	1787.88
612.02	1718.25
612.21	1869.80
612.40	1621.99
612.59	1675.24
612.79	1642.47
612.98	1724.39
613.17	1855.46
613.36	1697.77
613.55	1808.36
613.74	1722.34
613.93	1753.06
614.13	1751.01
614.32	1753.06
614.51	1701.86
614.70	1662.95
614.89	1755.11
615.08	1740.77
615.28	1961.95
615.47	1712.10
615.66	1779.68
615.85	1757.16
616.04	1841.12
616.23	1748.97
616.42	1716.20
616.62	1734.63
616.81	1699.81
617.00	1677.29
617.19	1748.97
617.38	1650.66
617.57	1730.53
617.76	1728.49
617.95	1730.53
618.15	1818.60
618.34	1783.78
618.53	1693.67
618.72	1791.97
618.91	1796.07
619.10	1861.60
619.29	1742.82
619.48	1761.25
619.68	1703.91
619.87	1724.39
620.06	1621.99
620.25	1767.40
620.44	1781.73
620.63	1705.96
620.82	1740.77
621.01	1724.39
621.20	1761.25
621.39	1730.53
621.59	1744.87
621.78	1738.73
621.97	1744.87
622.16	1771.49
622.35	1746.92
622.54	1773.54
622.73	1802.21
622.92	1683.43
623.11	1800.16
623.30	1746.92
623.49	1755.11
623.68	1642.47
623.88	1828.84
624.07	1806.31
624.26	1673.19
624.45	1759.21
624.64	1724.39
624.83	1767.40
625.02	1755.11
625.21	1769.44
625.40	1779.68
625.59	1812.45
625.78	1720.29
625.97	1781.73
626.16	1757.16
626.35	1751.01
626.54	1710.05
626.74	1757.16
626.93	1718.25
627.12	1691.62
627.31	1763.30
627.50	1710.05
627.69	1746.92
627.88	1656.81
628.07	1710.05
628.26	1691.62
628.45	1656.81
628.64	1671.14
628.83	1722.34
629.02	1665.00
629.21	1705.96
629.40	1751.01
629.59	1736.68
629.78	1710.05
629.97	1681.38
630.16	1810.40
630.35	1787.88
630.54	1710.05
630.73	1755.11
630.92	1740.77
631.11	1636.33
631.30	1652.71
631.49	1673.19
631.68	1714.15
631.87	1742.82
632.06	1769.44
632.25	1886.18
632.44	1716.20
632.63	1677.29
632.82	1691.62
633.01	1673.19
633.20	1687.53
633.39	1656.81
633.58	1650.66
633.77	1740.77
633.96	1771.49
634.15	1742.82
634.34	1783.78
634.53	1681.38
634.72	1763.30
634.91	1648.61
635.10	1732.58
635.29	1701.86
635.48	1714.15
635.67	1687.53
635.86	1621.99
636.05	1767.40
636.24	1730.53
636.43	1736.68
636.62	1757.16
636.81	1570.79
637.00	1757.16
637.19	1779.68
637.38	1761.25
637.57	1695.72
637.76	1730.53
637.95	1822.69
638.14	1652.71
638.33	1763.30
638.52	1751.01
638.71	1650.66
638.89	1642.47
639.08	1796.07
639.27	1683.43
639.46	1720.29
639.65	1740.77
639.84	1757.16
640.03	1753.06
640.22	1703.91
640.41	1822.69
640.60	1675.24
640.79	1636.33
640.98	1679.33
641.17	1812.45
641.36	1634.28
641.55	1703.91
641.74	1630.18
641.92	1624.04
642.11	1642.47
642.30	1660.90
642.49	1523.69
642.68	1693.67
642.87	1722.34
643.06	1763.30
643.25	1662.95
643.44	1693.67
643.63	1652.71
643.82	1716.20
644.00	1640.42
644.19	1724.39
644.38	1712.10
644.57	1710.05
644.76	1671.14
644.95	1650.66
645.14	1650.66
645.33	1757.16
645.52	1685.48
645.71	1703.91
645.89	1693.67
646.08	1681.38
646.27	1722.34
646.46	1857.51
646.65	1621.99
646.84	1738.73
647.03	1624.04
647.22	1771.49
647.40	1646.57
647.59	1662.95
647.78	1595.37
647.97	1691.62
648.16	1660.90
648.35	1791.97
648.54	1724.39
648.73	1710.05
648.91	1751.01
649.10	1714.15
649.29	1677.29
649.48	1705.96
649.67	1742.82
649.86	1718.25
650.05	1644.52
650.23	1783.78
650.42	1632.23
650.61	1746.92
650.80	1724.39
650.99	1873.89
651.18	1746.92
651.36	1748.97
651.55	1689.57
651.74	1728.49
651.93	1607.66
652.12	1765.35
652.31	1646.57
652.49	1656.81
652.68	1662.95
652.87	1775.59
653.06	1726.44
653.25	1714.15
653.44	1738.73
653.62	1740.77
653.81	1648.61
654.00	1628.14
654.19	1789.92
654.38	1800.16
654.56	1779.68
654.75	1638.38
654.94	1697.77
655.13	1718.25
655.32	1701.86
655.51	1787.88
655.69	1650.66
655.88	1787.88
656.07	1658.85
656.26	1669.09
656.45	1673.19
656.63	1753.06
656.82	1806.31
657.01	1822.69
657.20	1695.72
657.38	1806.31
657.57	1656.81
657.76	1724.39
657.95	1730.53
658.14	1673.19
658.32	1761.25
658.51	1691.62
658.70	1767.40
658.89	1656.81
659.08	1746.92
659.26	1863.65
659.45	1675.24
659.64	1746.92
659.83	1691.62
660.01	1943.52
660.20	1800.16
660.39	1798.12
660.58	1654.76
660.76	1740.77
660.95	1615.85
661.14	1677.29
661.33	1636.33
661.51	1703.91
661.70	1755.11
661.89	1763.30
662.08	1587.18
662.26	1607.66
662.45	1646.57
662.64	1828.84
662.83	1703.91
663.01	1669.09
663.20	1665.00
663.39	1787.88
663.58	1695.72
663.76	1730.53
663.95	1722.34
664.14	1724.39
664.32	1787.88
664.51	1714.15
664.70	1738.73
664.89	1751.01
665.07	1656.81
665.26	1796.07
665.45	1683.43
665.64	1679.33
665.82	1746.92
666.01	1767.40
666.20	1597.42
666.38	1804.26
666.57	1824.74
666.76	2156.51
666.95	4360.13
667.13	10090.34
667.32	14960.41
667.51	17114.87
667.69	18366.18
667.88	17301.24
668.07	12146.50
668.25	9138.04
668.44	7815.05
668.63	7155.60
668.81	6819.74
669.00	6115.23
669.19	5554.09
669.38	4976.56
669.56	4544.44
669.75	3952.58
669.94	3368.91
670.12	2930.64
670.31	2508.76
670.50	2263.01
670.68	2004.96
670.87	1966.05
671.06	1746.92
671.24	1814.50
671.43	1820.64
671.62	1708.01
671.80	1679.33
671.99	1619.94
672.18	1720.29
672.36	1728.49
672.55	1718.25
672.74	1705.96
672.92	1673.19
673.11	1783.78
673.29	1679.33
673.48	1787.88
673.67	1710.05
673.85	1789.92
674.04	1773.54
674.23	1755.11
674.41	1884.13
674.60	1660.90
674.79	1648.61
674.97	1720.29
675.16	1796.07
675.34	1748.97
675.53	1656.81
675.72	1757.16
675.90	1810.40
676.09	1675.24
676.28	1712.10
676.46	1591.27
676.65	1724.39
676.83	1667.05
677.02	1703.91
677.21	1689.57
677.39	1753.06
677.58	1669.09
677.77	1689.57
677.95	1632.23
678.14	1726.44
678.32	1665.00
678.51	1705.96
678.70	1875.94
678.88	1689.57
679.07	1771.49
679.25	1650.66
679.44	1621.99
679.63	1667.05
679.81	1738.73
680.00	1800.16
680.18	1761.25
680.37	1687.53
680.55	1697.77
680.74	1646.57
680.93	1591.27
681.11	1705.96
681.30	1703.91
681.48	1699.81
681.67	1673.19
681.85	1736.68
682.04	1656.81
682.23	1736.68
682.41	1726.44
682.60	1705.96
682.78	1697.77
682.97	1687.53
683.15	1720.29
683.34	1716.20
683.53	1781.73
683.71	1656.81
683.90	1837.03
684.08	1779.68
684.27	1634.28
684.45	1718.25
684.64	1820.64
684.82	1705.96
685.01	1728.49
685.19	1644.52
685.38	1757.16
685.57	1650.66
685.75	1632.23
685.94	1720.29
686.12	1708.01
686.31	1662.95
686.49	1771.49
686.68	1665.00
686.86	1673.19
687.05	1685.48
687.23	1794.02
687.42	1759.21
687.60	1652.71
687.79	1693.67
687.97	1789.92
688.16	1671.14
688.34	1830.88
688.53	1669.09
688.71	1701.86
688.90	1705.96
689.08	1697.77
689.27	1589.22
689.45	1755.11
689.64	1765.35
689.82	1732.58
690.01	1705.96
690.19	1718.25
690.38	1621.99
690.56	1826.79
690.75	1603.56
690.93	1677.29
691.12	1722.34
691.30	1681.38
691.49	1646.57
691.67	1677.29
691.86	1810.40
692.04	1587.18
692.23	1722.34
692.41	1722.34
692.60	1794.02
692.78	1710.05
692.97	1693.67
693.15	1728.49
693.34	1816.55
693.52	1701.86
693.71	1703.91
693.89	1650.66
694.08	1611.75
694.26	1798.12
694.44	1806.31
694.63	1703.91
694.81	1679.33
695.00	1697.77
695.18	1763.30
695.37	1851.36
695.55	1724.39
695.74	1667.05
695.92	1701.86
696.10	1804.26
696.29	1646.57
696.47	1665.00
696.66	1660.90
696.84	1693.67
697.03	1689.57
697.21	1783.78
697.40	2312.16
697.58	1808.36
697.76	1730.53
697.95	1617.90
698.13	1607.66
698.32	1644.52
698.50	1697.77
698.68	1734.63
698.87	1677.29
699.05	1796.07
699.24	1783.78
699.42	1679.33
699.61	1669.09
699.79	1695.72
699.97	1722.34
700.16	1632.23
700.34	1607.66
700.53	1748.97
700.71	1789.92
700.89	1710.05
701.08	1650.66
701.26	1675.24
701.45	2052.06
701.63	1718.25
701.81	1685.48
702.00	1669.09
702.18	1746.92
702.37	1654.76
702.55	1683.43
702.73	1660.90
702.92	1626.09
703.10	1730.53
703.28	1720.29
703.47	1652.71
703.65	1742.82
703.84	1732.58
704.02	1722.34
704.20	1730.53
704.39	1648.61
704.57	1665.00
704.75	1746.92
704.94	1787.88
705.12	1726.44
705.30	1757.16
705.49	2252.77
705.67	4284.35
705.86	9043.83
706.04	12195.65
706.22	13901.61
706.41	14855.97
706.59	13408.05
706.77	9441.14
706.96	7108.50
707.14	6436.77
707.32	5857.19
707.51	5463.98
707.69	4722.62
707.87	4245.44
708.06	3504.07
708.24	3078.10
708.42	2349.02
708.61	2234.33
708.79	1867.75
708.97	1857.51
709.16	1812.45
709.34	1783.78
709.52	1732.58
709.71	1724.39
709.89	1718.25
710.07	1665.00
710.26	1693.67
710.44	1761.25
710.62	1751.01
710.80	1679.33
710.99	1775.59
711.17	1773.54
711.35	1691.62
711.54	1660.90
711.72	1800.16
711.90	1773.54
712.09	1693.67
712.27	1667.05
712.45	1685.48
712.63	1660.90
712.82	1685.48
713.00	1705.96
713.18	1759.21
713.37	1791.97
713.55	1710.05
713.73	1697.77
713.91	1736.68
714.10	1699.81
714.28	1712.10
714.46	1667.05
714.65	1724.39
714.83	1746.92
715.01	1687.53
715.19	1714.15
715.38	1685.48
715.56	1705.96
715.74	1626.09
715.92	1681.38
716.11	1822.69
716.29	1552.36
716.47	1693.67
716.65	1630.18
716.84	1624.04
717.02	1767.40
717.20	1601.51
717.38	1673.19
717.57	1806.31
717.75	1697.77
717.93	1660.90
718.11	1683.43
718.30	1640.42
718.48	1714.15
718.66	1812.45
718.84	1781.73
719.03	1689.57
719.21	1665.00
719.39	1744.87
719.57	1724.39
719.75	1814.50
719.94	1714.15
720.12	1658.85
720.30	1740.77
720.48	1722.34
720.67	1644.52
720.85	1644.52
721.03	1710.05
721.21	1648.61
721.39	1740.77
721.58	1742.82
721.76	1689.57
721.94	1783.78
722.12	1789.92
722.30	1765.35
722.49	1626.09
722.67	1740.77
722.85	1685.48
723.03	1619.94
723.21	1615.85
723.40	1689.57
723.58	1755.11
723.76	1751.01
723.94	1697.77
724.12	1726.44
724.30	1662.95
724.49	1691.62
724.67	1671.14
724.85	1757.16
725.03	1673.19
725.21	1650.66
725.40	1830.88
725.58	1624.04
725.76	1781.73
725.94	1689.57
726.12	1701.86
726.30	1691.62
726.49	1665.00
726.67	1658.85
726.85	1710.05
727.03	1796.07
727.21	2133.98
727.39	2824.15
727.57	3790.79
727.76	4032.45
727.94	4292.54
728.12	4300.73
728.30	3579.85
728.48	2908.12
728.66	2672.60
728.84	2484.19
729.03	2336.73
729.21	2111.46
729.39	2021.35
729.57	1826.79
729.75	1771.49
729.93	1777.64
730.11	1699.81
730.30	1755.11
730.48	1714.15
730.66	1845.22
730.84	1765.35
731.02	1685.48
731.20	1726.44
731.38	1695.72
731.56	1673.19
731.74	1667.05
731.93	1746.92
732.11	1679.33
732.29	1650.66
732.47	1728.49
732.65	1753.06
732.83	1767.40
733.01	1746.92
733.19	1685.48
733.37	1753.06
733.56	1732.58
733.74	1640.42
733.92	1722.34
734.10	1681.38
734.28	1728.49
734.46	1650.66
734.64	1611.75
734.82	1703.91
735.00	1656.81
735.18	1642.47
735.36	1673.19
735.54	1654.76
735.73	1652.71
735.91	1751.01
736.09	1751.01
736.27	1796.07
736.45	1705.96
736.63	1595.37
736.81	1716.20
736.99	1677.29
737.17	1710.05
737.35	1593.32
737.53	1742.82
737.71	1699.81
737.89	1816.55
738.07	1697.77
738.25	1621.99
738.43	1675.24
738.61	1679.33
738.80	1638.38
738.98	1646.57
739.16	1632.23
739.34	1665.00
739.52	1789.92
739.70	1710.05
739.88	1730.53
740.06	1669.09
740.24	1617.90
740.42	1751.01
740.60	1621.99
740.78	1679.33
740.96	1626.09
741.14	1658.85
741.32	1738.73
741.50	1617.90
741.68	1828.84
741.86	1738.73
742.04	1583.08
742.22	1644.52
742.40	1773.54
742.58	1757.16
742.76	1740.77
742.94	1722.34
743.12	1626.09
743.30	1744.87
743.48	1687.53
743.66	1611.75
743.84	1746.92
744.02	1738.73
744.20	1619.94
744.38	1640.42
744.56	1681.38
744.74	1865.70
744.92	1783.78
745.10	1818.60
745.28	1701.86
745.46	1744.87
745.64	1746.92
745.82	1736.68
746.00	1665.00
746.18	1669.09
746.36	1722.34
746.54	1718.25
746.72	1730.53
746.90	1648.61
747.08	1789.92
747.26	1665.00
747.44	1775.59
747.62	1738.73
747.80	1705.96
747.98	1734.63
748.15	1724.39
748.33	1726.44
748.51	1742.82
748.69	1746.92
748.87	1665.00
749.05	1806.31
749.23	1677.29
749.41	1681.38
749.59	1708.01
749.77	1773.54
749.95	1644.52
750.13	1621.99
750.31	1720.29
750.49	1716.20
750.67	1746.92
750.85	1808.36
751.03	1724.39
751.20	1853.41
751.38	1763.30
751.56	1652.71
751.74	1693.67
751.92	1644.52
752.10	1613.80
752.28	1775.59
752.46	1578.98
752.64	1654.76
752.82	1699.81
753.00	1800.16
753.18	1689.57
753.35	1650.66
753.53	1624.04
753.71	1746.92
753.89	1732.58
754.07	1716.20
754.25	1726.44
754.43	1687.53
754.61	1718.25
754.79	1691.62
754.97	1642.47
755.14	1802.21
755.32	1662.95
755.50	1669.09
755.68	1699.81
755.86	1667.05
756.04	1673.19
756.22	1638.38
756.40	1757.16
756.57	1804.26
756.75	1718.25
756.93	1746.92
757.11	1669.09
757.29	1695.72
757.47	1683.43
757.65	1613.80
757.82	1581.03
758.00	1691.62
758.18	1703.91
758.36	1654.76
758.54	1800.16
758.72	1671.14
758.90	1828.84
759.07	1638.38
759.25	1611.75
759.43	1710.05
759.61	1619.94
759.79	2133.98
759.97	1761.25
760.15	1665.00
760.32	1671.14
760.50	1689.57
760.68	1701.86
760.86	1603.56
761.04	1718.25
761.22	1771.49
761.39	1685.48
761.57	1777.64
761.75	1705.96
761.93	1701.86
762.11	1669.09
762.28	1708.01
762.46	1648.61
762.64	1671.14
762.82	1642.47
763.00	1697.77
763.18	1699.81
763.35	1699.81
763.53	1730.53
763.71	1697.77
763.89	1687.53
764.07	1705.96
764.24	1697.77
764.42	1783.78
764.60	1751.01
764.78	1689.57
764.96	1769.44
765.13	1705.96
765.31	1665.00
765.49	1783.78
765.67	1679.33
765.84	1673.19
766.02	1671.14
766.20	1642.47
766.38	1753.06
766.56	1681.38
766.73	1748.97
766.91	1724.39
767.09	1710.05
767.27	1769.44
767.44	1683.43
767.62	1785.83
767.80	1738.73
767.98	1611.75
768.15	1708.01
768.33	1722.34
768.51	1755.11
768.69	1736.68
768.87	1693.67
769.04	1667.05
769.22	1767.40
769.40	1726.44
769.58	1783.78
769.75	1726.44
769.93	1738.73
770.11	1701.86
770.28	1652.71
770.46	1679.33
770.64	1757.16
770.82	1685.48
770.99	1824.74
771.17	1751.01
771.35	1699.81
771.53	1712.10
771.70	1603.56
771.88	1728.49
772.06	1738.73
772.23	1650.66
772.41	1724.39
772.59	1667.05
772.77	1636.33
772.94	1667.05
773.12	1789.92
773.30	1660.90
773.47	1701.86
773.65	1656.81
773.83	1845.22
774.01	1685.48
774.18	1626.09
774.36	1673.19
774.54	1650.66
774.71	1701.86
774.89	1662.95
775.07	1611.75
775.24	1691.62
775.42	1701.86
775.60	1816.55
775.78	1658.85
775.95	1619.94
776.13	1552.36
776.31	1630.18
776.48	1757.16
776.66	1800.16
776.84	1734.63
777.01	1677.29
777.19	1648.61
777.37	1667.05
777.54	1765.35
777.72	1875.94
777.90	1701.86
778.07	1615.85
778.25	1753.06
778.43	1771.49
778.60	1746.92
778.78	1751.01
778.96	1744.87
779.13	1624.04
779.31	1689.57
779.49	1628.14
779.66	1763.30
779.84	1724.39
780.01	1703.91
780.19	1656.81
780.37	1783.78
780.54	1699.81
780.72	1681.38
780.90	1648.61
781.07	1683.43
781.25	1689.57
781.43	1757.16
781.60	1726.44
781.78	1777.64
781.95	1687.53
782.13	1662.95
782.31	1767.40
782.48	1605.61
782.66	1695.72
782.83	1779.68
783.01	1779.68
783.19	1746.92
783.36	1689.57
783.54	1648.61
783.72	1783.78
783.89	1583.08
784.07	1767.40
784.24	1671.14
784.42	1730.53
784.60	1730.53
784.77	1759.21
784.95	1677.29
785.12	1685.48
785.30	1701.86
785.47	1665.00
785.65	1617.90
785.83	1761.25
786.00	1646.57
786.18	1765.35
786.35	1642.47
786.53	1730.53
786.71	1783.78
786.88	1714.15
787.06	1693.67
787.23	1730.53
787.41	1669.09
787.58	1681.38
787.76	1708.01
787.94	1646.57
788.11	1718.25
788.29	1593.32
788.46	1656.81
788.64	1615.85
788.81	1636.33
788.99	1697.77
789.16	1681.38
789.34	1695.72
789.52	1646.57
789.69	1691.62
789.87	1554.41
790.04	1656.81
790.22	1697.77
790.39	1830.88
790.57	1626.09
790.74	1669.09
790.92	1646.57
791.09	1628.14
791.27	1777.64
791.44	1689.57
791.62	1693.67
791.79	1759.21
791.97	1738.73
792.15	1886.18
792.32	1695.72
792.50	1722.34
792.67	1814.50
792.85	1810.40
793.02	1730.53
793.20	1624.04
793.37	1570.79
793.55	1646.57
793.72	1636.33
793.90	1705.96
794.07	1656.81
794.25	1675.24
794.42	1650.66
794.60	1630.18
794.77	1652.71
794.95	1695.72
795.12	1794.02
795.30	1724.39
795.47	1660.90
795.65	1873.89
795.82	1648.61
796.00	1675.24
796.17	1697.77
796.34	1693.67
796.52	1720.29
796.69	1828.84
796.87	1703.91
797.04	1650.66
797.22	1802.21
797.39	1732.58
797.57	1740.77
797.74	1669.09
797.92	1693.67
798.09	1658.85
798.27	1716.20
798.44	1683.43
798.62	1638.38
798.79	1716.20
798.96	1710.05
799.14	1740.77
799.31	1810.40
799.49	1640.42
799.66	1714.15
799.84	1691.62
800.01	1591.27
800.19	1665.00
800.36	1550.31
800.53	1730.53
800.71	1671.14
800.88	1828.84
801.06	1677.29
801.23	1716.20
801.41	1619.94
801.58	1665.00
801.75	1654.76
801.93	1730.53
802.10	1691.62
802.28	1732.58
802.45	1703.91
802.63	1767.40
802.80	1697.77
802.97	1703.91
803.15	1718.25
803.32	1621.99
803.50	1650.66
803.67	1677.29
803.84	1669.09
804.02	1603.56
804.19	1638.38
804.37	1564.65
804.54	1652.71
804.71	1619.94
804.89	1656.81
805.06	1632.23
805.24	1675.24
805.41	1628.14
805.58	1658.85
805.76	1834.98
805.93	1714.15
806.10	1816.55
806.28	1763.30
806.45	1685.48
806.63	1714.15
806.80	1724.39
806.97	1679.33
807.15	1652.71
807.32	1718.25
807.49	1714.15
807.67	1636.33
807.84	1669.09
808.01	1611.75
808.19	1800.16
808.36	1810.40
808.54	1697.77
808.71	1607.66
808.88	1642.47
809.06	1673.19
809.23	1804.26
809.40	1626.09
809.58	1748.97
809.75	1693.67
809.92	1656.81
810.10	1767.40
810.27	1697.77
810.44	1748.97
810.62	1785.83
810.79	1738.73
810.96	1722.34
811.14	1697.77
811.31	1783.78
811.48	1759.21
811.66	1701.86
811.83	1796.07
812.00	1701.86
812.18	1800.16
812.35	1814.50
812.52	1705.96
812.69	1685.48
812.87	1681.38
813.04	1665.00
813.21	1662.95
813.39	1724.39
813.56	1576.94
813.73	1773.54
813.91	1624.04
814.08	1644.52
814.25	1652.71
814.42	1607.66
814.60	1673.19
814.77	1691.62
814.94	1642.47
815.12	1677.29
815.29	1755.11
815.46	1626.09
815.63	1632.23
815.81	1699.81
815.98	1718.25
816.15	1687.53
816.33	1665.00
816.50	1734.63
816.67	1656.81
816.84	1611.75
817.02	1695.72
817.19	1736.68
817.36	1675.24
817.53	1675.24
817.71	1671.14
817.88	1742.82
818.05	1662.95
818.22	1673.19
818.40	1841.12
818.57	1703.91
818.74	1718.25
818.91	1714.15
819.09	1730.53
819.26	1748.97
819.43	1671.14
819.60	1722.34
819.78	1710.05
819.95	1759.21
820.12	1603.56
820.29	1703.91
820.47	1779.68
820.64	1677.29
820.81	1642.47
820.98	1671.14
821.15	1681.38
821.33	1730.53
821.50	1640.42
821.67	1740.77
821.84	1613.80
822.02	1753.06
822.19	1738.73
822.36	1701.86
822.53	1720.29
822.70	1619.94
822.88	1697.77
823.05	1884.13
823.22	1695.72
823.39	1699.81
823.56	1685.48
823.74	1791.97
823.91	1675.24
824.08	1689.57
824.25	1679.33
824.42	1775.59
824.60	1621.99
824.77	1697.77
824.94	1695.72
825.11	1716.20
825.28	1665.00
825.45	1683.43
825.63	1701.86
825.80	1652.71
825.97	1716.20
826.14	1681.38
826.31	1587.18
826.48	1728.49
826.66	1624.04
826.83	1648.61
827.00	1687.53
827.17	1617.90
827.34	1675.24
827.51	1673.19
827.69	1748.97
827.86	1648.61
828.03	1681.38
828.20	1722.34
828.37	1624.04
828.54	1701.86
828.71	1669.09
828.89	1800.16
829.06	1656.81
829.23	1812.45
829.40	1652.71
829.57	1669.09
829.74	1757.16
829.91	1705.96
830.09	1640.42
830.26	1714.15
830.43	1699.81
830.60	1673.19
830.77	1710.05
830.94	1804.26
831.11	1751.01
831.28	1681.38
831.46	1775.59
831.63	1767.40
831.80	1699.81
831.97	1665.00
832.14	1748.97
832.31	1662.95
832.48	1691.62
832.65	1783.78
832.82	1730.53
832.99	1722.34
833.17	1667.05
833.34	1810.40
833.51	1738.73
833.68	1617.90
833.85	1810.40
834.02	1697.77
834.19	1589.22
834.36	1695.72
834.53	1644.52
834.70	1781.73
834.87	1769.44
835.04	1714.15
835.22	1626.09
835.39	1671.14
835.56	1710.05
835.73	1769.44
835.90	1685.48
836.07	1699.81
836.24	1734.63
836.41	1540.07
836.58	1644.52
836.75	1804.26
836.92	1617.90
837.09	1683.43
837.26	1685.48
837.43	1767.40
837.60	1748.97
837.77	1619.94
837.94	1705.96
838.12	1837.03
838.29	1763.30
838.46	1652.71
838.63	1662.95
838.80	1787.88
838.97	1755.11
839.14	1736.68
839.31	1662.95
839.48	1658.85
839.65	1705.96
839.82	1761.25
839.99	1634.28
840.16	1683.43
840.33	1716.20
840.50	1732.58
840.67	1669.09
840.84	1593.32
841.01	1732.58
841.18	1646.57
841.35	1728.49
841.52	1771.49
841.69	1804.26
841.86	1769.44
842.03	1619.94
842.20	1734.63
842.37	1675.24
842.54	1736.68
842.71	1658.85
842.88	1634.28
843.05	1742.82
843.22	1693.67
843.39	1722.34
843.56	1730.53
843.73	1716.20
843.90	1697.77
844.07	1652.71
844.24	1740.77
844.41	1673.19
844.58	1744.87
844.75	1662.95
844.92	1714.15
845.09	1724.39
845.26	1642.47
845.43	1695.72
845.60	1619.94
845.77	1773.54
845.94	1736.68
846.10	1720.29
846.27	1611.75
846.44	1621.99
846.61	1648.61
846.78	1693.67
846.95	1718.25
847.12	1677.29
847.29	1724.39
847.46	1640.42
847.63	1773.54
847.80	1540.07
847.97	1685.48
848.14	1857.51
848.31	1761.25
848.48	1607.66
848.65	1697.77
848.82	1634.28
848.98	1847.27
849.15	1738.73
849.32	1771.49
849.49	1718.25
849.66	1699.81
849.83	1656.81
850.00	1673.19
850.17	1744.87
850.34	1712.10
850.51	1642.47
850.68	1609.70
850.85	1804.26
851.01	1667.05
851.18	1675.24
851.35	1720.29
851.52	1767.40
851.69	1759.21
851.86	1667.05
852.03	1714.15
852.20	1689.57
852.37	1689.57
852.53	1599.46
852.70	1679.33
852.87	1662.95
853.04	1794.02
853.21	1693.67
853.38	1681.38
853.55	1746.92
853.72	1818.60
853.89	1632.23
854.05	1689.57
854.22	1640.42
854.39	1691.62
854.56	1716.20
854.73	1777.64
854.90	1697.77
855.07	1759.21
855.23	1665.00
855.40	1716.20
855.57	1574.89
855.74	1609.70
855.91	1865.70
856.08	1681.38
856.25	1585.13
856.41	1583.08
856.58	1636.33
856.75	1654.76
856.92	1626.09
857.09	1722.34
857.26	1611.75
857.42	1662.95
857.59	1695.72
857.76	1744.87
857.93	1734.63
858.10	1705.96
858.27	1642.47
858.43	1767.40
858.60	1626.09
858.77	1640.42
858.94	1642.47
859.11	1736.68
859.27	1675.24
859.44	1689.57
859.61	1763.30
859.78	1710.05
859.95	1630.18
860.12	1703.91
860.28	1808.36
860.45	1826.79
860.62	1656.81
860.79	1738.73
860.95	1628.14
861.12	1640.42
861.29	1642.47
861.46	1617.90
861.63	1615.85
861.79	1736.68
861.96	1687.53
862.13	1665.00
862.30	1755.11
862.47	1695.72
862.63	1697.77
862.80	1658.85
862.97	1779.68
863.14	1738.73
863.30	1742.82
863.47	1679.33
863.64	1814.50
863.81	1714.15
863.97	1728.49
864.14	1796.07
864.31	1687.53
864.48	1753.06
864.65	1710.05
864.81	1791.97
864.98	1789.92
865.15	1746.92
865.32	1738.73
865.48	1714.15
865.65	1785.83
865.82	1712.10
865.98	1763.30
866.15	1724.39
866.32	1730.53
866.49	1699.81
866.65	1771.49
866.82	1611.75
866.99	1675.24
867.16	1648.61
867.32	1644.52
867.49	1644.52
867.66	1744.87
867.83	1724.39
867.99	1648.61
868.16	1658.85
868.33	1607.66
868.49	1701.86
868.66	1716.20
868.83	1746.92
868.99	1665.00
869.16	1728.49
869.33	1722.34
869.50	1773.54
869.66	1740.77
869.83	1763.30
870.00	1544.17
870.16	1726.44
870.33	1685.48
870.50	1683.43
870.66	1656.81
870.83	1751.01
871.00	1607.66
871.17	1693.67
871.33	1689.57
871.50	1642.47
871.67	1751.01
871.83	1599.46
872.00	1837.03
872.17	1632.23
872.33	1746.92
872.50	1763.30
872.67	1656.81
872.83	1732.58
873.00	1738.73
873.17	1652.71
873.33	1736.68
873.50	1654.76
873.67	1689.57
873.83	1677.29
874.00	1665.00
874.16	1746.92
874.33	1726.44
874.50	1662.95
874.66	1630.18
874.83	1656.81
875.00	1785.83
875.16	1734.63
875.33	1777.64
875.50	1601.51
875.66	1722.34
875.83	1691.62
875.99	1716.20
876.16	1585.13
876.33	1611.75
876.49	1677.29
876.66	1734.63
876.83	1677.29
876.99	1611.75
877.16	1746.92
877.32	1613.80
877.49	1658.85
877.66	1732.58
877.82	1742.82
877.99	1724.39
878.15	1726.44
878.32	1730.53
878.49	1681.38
878.65	1732.58
878.82	1728.49
878.98	1626.09
879.15	1791.97
879.32	1742.82
879.48	1689.57
879.65	1726.44
879.81	1689.57
879.98	1687.53
880.15	1667.05
880.31	1634.28
880.48	1652.71
880.64	1773.54
880.81	1732.58
880.97	1820.64
881.14	1751.01
881.31	1648.61
881.47	1816.55
881.64	1677.29
881.80	1642.47
881.97	1648.61
882.13	1789.92
882.30	1560.55
882.47	1634.28
882.63	1656.81
882.80	1656.81
882.96	1785.83
883.13	1685.48
883.29	1730.53
883.46	1734.63
883.62	1800.16
883.79	1718.25
883.95	1665.00
884.12	1665.00
884.29	1695.72
884.45	1718.25
884.62	1759.21
884.78	1677.29
884.95	1779.68
885.11	1640.42
885.28	1679.33
885.44	1681.38
885.61	1765.35
885.77	1751.01
885.94	1726.44
886.10	1705.96
886.27	1746.92
886.43	1873.89
886.60	1839.08
886.76	1617.90
886.93	1671.14
887.09	1695.72
887.26	1587.18
887.42	1746.92
887.59	1695.72
887.75	1818.60
887.92	1705.96
888.08	1708.01
888.25	1757.16
888.41	1744.87
888.58	1662.95
888.74	1646.57
888.91	1697.77
>>>>>End Processed Spectral Data<<<<<
