SpectraSuite Data File
++++++++++++++++++++++++++++++++++++
Date: Mon Jun 06 15:39:37 CEST 2016
User: root
Dark Spectrum Present: No
Reference Spectrum Present: No
Number of Sampled Component Spectra: 1
Spectrometers: USB4C02835
Integration Time (usec): 100000 (USB4C02835)
Spectra Averaged: 1 (USB4C02835)
Boxcar Smoothing: 0 (USB4C02835)
Correct for Electrical Dark: No (USB4C02835)
Strobe/Lamp Enabled: No (USB4C02835)
Correct for Detector Non-linearity: No (USB4C02835)
Correct for Stray Light: No (USB4C02835)
Number of Pixels in Processed Spectrum: 3648
>>>>>Begin Processed Spectral Data<<<<<
177.47	1472.49
177.69	1472.49
177.91	1472.49
178.13	1552.36
178.36	1509.35
178.58	1652.71
178.80	1714.15
179.02	1591.27
179.24	1677.29
179.46	1673.19
179.68	1818.60
179.90	1669.09
180.13	1705.96
180.35	1640.42
180.57	1691.62
180.79	1820.64
181.01	1755.11
181.23	1810.40
181.45	1755.11
181.67	1708.01
181.90	1759.21
182.12	1705.96
182.34	1650.66
182.56	1740.77
182.78	1757.16
183.00	1779.68
183.22	1783.78
183.44	1638.38
183.66	1808.36
183.89	1775.59
184.11	1697.77
184.33	1882.08
184.55	1730.53
184.77	1769.44
184.99	1708.01
185.21	1730.53
185.43	1851.36
185.65	1697.77
185.87	1718.25
186.10	1802.21
186.32	1890.28
186.54	1759.21
186.76	1751.01
186.98	1808.36
187.20	1718.25
187.42	1759.21
187.64	1705.96
187.86	1691.62
188.08	1820.64
188.30	1746.92
188.52	1648.61
188.75	1757.16
188.97	1773.54
189.19	1718.25
189.41	1632.23
189.63	1759.21
189.85	1714.15
190.07	1697.77
190.29	1626.09
190.51	1748.97
190.73	1701.86
190.95	1736.68
191.17	1658.85
191.39	1607.66
191.61	1730.53
191.84	1693.67
192.06	1734.63
192.28	1617.90
192.50	1914.85
192.72	1703.91
192.94	1718.25
193.16	1806.31
193.38	1722.34
193.60	1630.18
193.82	1683.43
194.04	1796.07
194.26	1708.01
194.48	1675.24
194.70	1681.38
194.92	1673.19
195.14	1693.67
195.36	1673.19
195.58	1724.39
195.80	1695.72
196.02	1665.00
196.24	1751.01
196.46	1693.67
196.69	1660.90
196.91	1812.45
197.13	1691.62
197.35	1740.77
197.57	1798.12
197.79	1695.72
198.01	1757.16
198.23	1765.35
198.45	1693.67
198.67	1695.72
198.89	1714.15
199.11	1763.30
199.33	1665.00
199.55	1621.99
199.77	1701.86
199.99	1726.44
200.21	1720.29
200.43	1730.53
200.65	1669.09
200.87	1646.57
201.09	1736.68
201.31	1646.57
201.53	1755.11
201.75	1728.49
201.97	1730.53
202.19	1681.38
202.41	1775.59
202.63	1791.97
202.85	1759.21
203.07	1720.29
203.29	1685.48
203.51	1656.81
203.73	1605.61
203.95	1923.04
204.17	1757.16
204.39	1742.82
204.61	1648.61
204.83	1691.62
205.05	1818.60
205.27	1785.83
205.49	1810.40
205.71	1738.73
205.93	1626.09
206.15	1667.05
206.37	1732.58
206.59	1705.96
206.81	1652.71
207.03	1673.19
207.25	1648.61
207.47	1744.87
207.69	1705.96
207.91	1753.06
208.13	1759.21
208.34	1632.23
208.56	1685.48
208.78	1746.92
209.00	1755.11
209.22	1728.49
209.44	1660.90
209.66	1697.77
209.88	1732.58
210.10	1673.19
210.32	1701.86
210.54	1740.77
210.76	1673.19
210.98	1757.16
211.20	1585.13
211.42	1732.58
211.64	1810.40
211.86	1710.05
212.08	1775.59
212.30	1777.64
212.52	1640.42
212.74	1718.25
212.96	1777.64
213.17	1720.29
213.39	1775.59
213.61	1812.45
213.83	1699.81
214.05	1624.04
214.27	1781.73
214.49	1665.00
214.71	1722.34
214.93	1794.02
215.15	1699.81
215.37	1777.64
215.59	1642.47
215.81	1642.47
216.03	1800.16
216.24	1783.78
216.46	1771.49
216.68	1714.15
216.90	1722.34
217.12	1759.21
217.34	1708.01
217.56	1689.57
217.78	1861.60
218.00	1746.92
218.22	1740.77
218.44	1722.34
218.66	1728.49
218.87	1875.94
219.09	1720.29
219.31	1726.44
219.53	1748.97
219.75	1691.62
219.97	1759.21
220.19	1736.68
220.41	1689.57
220.63	1802.21
220.85	1689.57
221.06	1712.10
221.28	1812.45
221.50	1667.05
221.72	1675.24
221.94	1716.20
222.16	1654.76
222.38	1751.01
222.60	1701.86
222.82	1697.77
223.03	1708.01
223.25	1609.70
223.47	1828.84
223.69	1755.11
223.91	1759.21
224.13	1738.73
224.35	1724.39
224.57	1757.16
224.78	1726.44
225.00	1656.81
225.22	1685.48
225.44	1802.21
225.66	1740.77
225.88	1816.55
226.10	1757.16
226.32	1701.86
226.53	1765.35
226.75	1712.10
226.97	1720.29
227.19	1689.57
227.41	1710.05
227.63	1640.42
227.85	1689.57
228.06	1714.15
228.28	1773.54
228.50	1734.63
228.72	1611.75
228.94	1669.09
229.16	1570.79
229.37	1587.18
229.59	1648.61
229.81	1826.79
230.03	1708.01
230.25	1654.76
230.47	1677.29
230.69	1630.18
230.90	1761.25
231.12	1662.95
231.34	1738.73
231.56	1824.74
231.78	1646.57
232.00	1728.49
232.21	1740.77
232.43	1730.53
232.65	1609.70
232.87	1738.73
233.09	1802.21
233.30	1755.11
233.52	1720.29
233.74	1732.58
233.96	1751.01
234.18	1691.62
234.40	1716.20
234.61	1839.08
234.83	1712.10
235.05	1634.28
235.27	1812.45
235.49	1841.12
235.70	1705.96
235.92	1824.74
236.14	1665.00
236.36	1798.12
236.58	1640.42
236.79	1771.49
237.01	1699.81
237.23	1697.77
237.45	1796.07
237.67	1714.15
237.88	1783.78
238.10	1843.17
238.32	1693.67
238.54	1718.25
238.76	1699.81
238.97	1642.47
239.19	1658.85
239.41	1783.78
239.63	1693.67
239.85	1675.24
240.06	1679.33
240.28	1718.25
240.50	1822.69
240.72	1783.78
240.93	1646.57
241.15	1685.48
241.37	1681.38
241.59	1775.59
241.81	1716.20
242.02	1644.52
242.24	1763.30
242.46	1767.40
242.68	1740.77
242.89	1685.48
243.11	1759.21
243.33	1609.70
243.55	1722.34
243.76	1828.84
243.98	1708.01
244.20	1726.44
244.42	1699.81
244.64	1708.01
244.85	1624.04
245.07	1695.72
245.29	1808.36
245.51	1738.73
245.72	1652.71
245.94	1781.73
246.16	1697.77
246.38	1685.48
246.59	1703.91
246.81	1685.48
247.03	1685.48
247.24	1660.90
247.46	1718.25
247.68	1732.58
247.90	1728.49
248.11	1701.86
248.33	1802.21
248.55	1697.77
248.77	1734.63
248.98	1796.07
249.20	1843.17
249.42	1763.30
249.64	1759.21
249.85	1742.82
250.07	1714.15
250.29	1775.59
250.50	1730.53
250.72	1695.72
250.94	1812.45
251.16	1814.50
251.37	1736.68
251.59	1677.29
251.81	1765.35
252.02	1777.64
252.24	1730.53
252.46	1763.30
252.68	1656.81
252.89	1667.05
253.11	1642.47
253.33	1789.92
253.54	1806.31
253.76	1626.09
253.98	1716.20
254.20	1767.40
254.41	1669.09
254.63	1677.29
254.85	1652.71
255.06	1695.72
255.28	1689.57
255.50	1665.00
255.71	1636.33
255.93	1673.19
256.15	1640.42
256.36	1751.01
256.58	1617.90
256.80	1783.78
257.02	1683.43
257.23	1728.49
257.45	1675.24
257.67	1771.49
257.88	1710.05
258.10	1705.96
258.32	1714.15
258.53	1656.81
258.75	1738.73
258.97	1634.28
259.18	1730.53
259.40	1783.78
259.62	1753.06
259.83	1853.41
260.05	1712.10
260.27	1955.81
260.48	1744.87
260.70	1646.57
260.92	1763.30
261.13	1732.58
261.35	1728.49
261.57	1705.96
261.78	1611.75
262.00	1689.57
262.22	1722.34
262.43	1652.71
262.65	1671.14
262.86	1763.30
263.08	1894.37
263.30	1665.00
263.51	1628.14
263.73	1708.01
263.95	1808.36
264.16	1718.25
264.38	1675.24
264.60	1839.08
264.81	1701.86
265.03	1787.88
265.25	1783.78
265.46	1751.01
265.68	1800.16
265.89	1824.74
266.11	1628.14
266.33	1783.78
266.54	1828.84
266.76	1722.34
266.98	1738.73
267.19	1730.53
267.41	1847.27
267.62	1697.77
267.84	1642.47
268.06	1724.39
268.27	1810.40
268.49	1800.16
268.70	1814.50
268.92	1685.48
269.14	1726.44
269.35	1673.19
269.57	1685.48
269.79	1732.58
270.00	1679.33
270.22	1783.78
270.43	1671.14
270.65	1640.42
270.87	1757.16
271.08	1855.46
271.30	1714.15
271.51	1716.20
271.73	1679.33
271.95	1767.40
272.16	1708.01
272.38	1806.31
272.59	1697.77
272.81	1796.07
273.02	1771.49
273.24	1779.68
273.46	1785.83
273.67	1652.71
273.89	1714.15
274.10	1642.47
274.32	1693.67
274.54	1716.20
274.75	1693.67
274.97	1746.92
275.18	1820.64
275.40	1740.77
275.61	1755.11
275.83	1730.53
276.05	1665.00
276.26	1755.11
276.48	1718.25
276.69	1681.38
276.91	1689.57
277.12	1814.50
277.34	1695.72
277.55	1806.31
277.77	1740.77
277.99	1726.44
278.20	1624.04
278.42	1671.14
278.63	1662.95
278.85	1656.81
279.06	1681.38
279.28	1804.26
279.49	1775.59
279.71	1820.64
279.93	1759.21
280.14	1697.77
280.36	1695.72
280.57	1714.15
280.79	1751.01
281.00	1648.61
281.22	1708.01
281.43	1771.49
281.65	1585.13
281.86	1697.77
282.08	1785.83
282.29	1857.51
282.51	1705.96
282.73	1681.38
282.94	1726.44
283.16	1703.91
283.37	1828.84
283.59	1785.83
283.80	1738.73
284.02	1609.70
284.23	1773.54
284.45	1740.77
284.66	1673.19
284.88	1648.61
285.09	1742.82
285.31	1751.01
285.52	1794.02
285.74	1611.75
285.95	1716.20
286.17	1789.92
286.38	1720.29
286.60	1593.32
286.81	1742.82
287.03	1693.67
287.24	1695.72
287.46	1791.97
287.67	1748.97
287.89	1869.80
288.10	1669.09
288.32	1746.92
288.53	1861.60
288.75	1763.30
288.96	1757.16
289.18	1740.77
289.39	1726.44
289.61	1751.01
289.82	1810.40
290.04	1779.68
290.25	1595.37
290.47	1658.85
290.68	1800.16
290.90	1732.58
291.11	1642.47
291.33	1671.14
291.54	1609.70
291.76	1742.82
291.97	1816.55
292.18	1738.73
292.40	1714.15
292.61	1652.71
292.83	1877.99
293.04	1763.30
293.26	1720.29
293.47	1726.44
293.69	1708.01
293.90	1738.73
294.12	1720.29
294.33	1697.77
294.55	1785.83
294.76	1820.64
294.97	1730.53
295.19	1812.45
295.40	1665.00
295.62	1685.48
295.83	1751.01
296.05	1638.38
296.26	1781.73
296.48	1671.14
296.69	1742.82
296.90	1751.01
297.12	1683.43
297.33	1771.49
297.55	1714.15
297.76	1740.77
297.98	1759.21
298.19	1705.96
298.41	1800.16
298.62	1605.61
298.83	1777.64
299.05	1681.38
299.26	1595.37
299.48	1675.24
299.69	1714.15
299.90	1685.48
300.12	1685.48
300.33	1761.25
300.55	1746.92
300.76	1771.49
300.98	1687.53
301.19	1757.16
301.40	1654.76
301.62	1656.81
301.83	1714.15
302.05	1816.55
302.26	1689.57
302.47	1720.29
302.69	1609.70
302.90	1697.77
303.12	1601.51
303.33	1767.40
303.54	1814.50
303.76	1689.57
303.97	1808.36
304.19	1755.11
304.40	1652.71
304.61	1767.40
304.83	1746.92
305.04	1791.97
305.26	1683.43
305.47	1683.43
305.68	1705.96
305.90	1718.25
306.11	1857.51
306.33	1667.05
306.54	1673.19
306.75	1665.00
306.97	1613.80
307.18	1644.52
307.39	1675.24
307.61	1769.44
307.82	1755.11
308.04	1810.40
308.25	1691.62
308.46	1728.49
308.68	1693.67
308.89	1765.35
309.10	1882.08
309.32	1722.34
309.53	1718.25
309.74	1773.54
309.96	1677.29
310.17	1763.30
310.39	1662.95
310.60	1806.31
310.81	1751.01
311.03	1595.37
311.24	1697.77
311.45	1695.72
311.67	1773.54
311.88	1732.58
312.09	1701.86
312.31	1744.87
312.52	1675.24
312.73	1679.33
312.95	1615.85
313.16	1740.77
313.37	1789.92
313.59	1773.54
313.80	1734.63
314.01	1800.16
314.23	1634.28
314.44	1660.90
314.65	1607.66
314.87	1710.05
315.08	1742.82
315.29	1652.71
315.51	1605.61
315.72	1656.81
315.93	1877.99
316.15	1757.16
316.36	1669.09
316.57	1699.81
316.79	1730.53
317.00	1691.62
317.21	1728.49
317.43	1662.95
317.64	1708.01
317.85	1718.25
318.07	1632.23
318.28	1732.58
318.49	1769.44
318.70	1902.56
318.92	1781.73
319.13	1867.75
319.34	1867.75
319.56	1732.58
319.77	1830.88
319.98	1785.83
320.20	1742.82
320.41	1722.34
320.62	1718.25
320.83	1648.61
321.05	1783.78
321.26	1726.44
321.47	1705.96
321.69	1800.16
321.90	1648.61
322.11	1652.71
322.32	1650.66
322.54	1769.44
322.75	1724.39
322.96	1761.25
323.18	1587.18
323.39	1632.23
323.60	1673.19
323.81	1769.44
324.03	1714.15
324.24	1763.30
324.45	1785.83
324.66	1785.83
324.88	1751.01
325.09	1769.44
325.30	1791.97
325.52	1720.29
325.73	1812.45
325.94	1617.90
326.15	1578.98
326.37	1703.91
326.58	1644.52
326.79	1791.97
327.00	1644.52
327.22	1767.40
327.43	1685.48
327.64	1689.57
327.85	1724.39
328.07	1703.91
328.28	1800.16
328.49	1703.91
328.70	1681.38
328.92	1714.15
329.13	1757.16
329.34	1738.73
329.55	1933.28
329.76	1710.05
329.98	1742.82
330.19	1841.12
330.40	1771.49
330.61	1757.16
330.83	1748.97
331.04	1742.82
331.25	1691.62
331.46	1742.82
331.68	1574.89
331.89	1748.97
332.10	1681.38
332.31	1662.95
332.52	1789.92
332.74	1759.21
332.95	1685.48
333.16	1718.25
333.37	1783.78
333.58	1730.53
333.80	1779.68
334.01	1640.42
334.22	1681.38
334.43	1611.75
334.64	1646.57
334.86	1593.32
335.07	1660.90
335.28	1781.73
335.49	1574.89
335.70	1767.40
335.92	1771.49
336.13	1906.66
336.34	1718.25
336.55	1726.44
336.76	1703.91
336.98	1607.66
337.19	1730.53
337.40	1777.64
337.61	1861.60
337.82	1726.44
338.04	1847.27
338.25	1646.57
338.46	1748.97
338.67	1697.77
338.88	1689.57
339.09	1630.18
339.31	1601.51
339.52	1644.52
339.73	1683.43
339.94	1812.45
340.15	1775.59
340.36	1667.05
340.58	1712.10
340.79	1714.15
341.00	1703.91
341.21	1667.05
341.42	1816.55
341.63	1642.47
341.85	1785.83
342.06	1771.49
342.27	1628.14
342.48	1718.25
342.69	1597.42
342.90	1785.83
343.12	1757.16
343.33	1730.53
343.54	1771.49
343.75	1738.73
343.96	1701.86
344.17	1693.67
344.38	1689.57
344.60	1628.14
344.81	1738.73
345.02	1716.20
345.23	1724.39
345.44	1796.07
345.65	1759.21
345.86	1779.68
346.07	1697.77
346.29	1652.71
346.50	1789.92
346.71	1726.44
346.92	1773.54
347.13	1796.07
347.34	1773.54
347.55	1687.53
347.76	1744.87
347.98	1699.81
348.19	1689.57
348.40	1773.54
348.61	1726.44
348.82	1843.17
349.03	1785.83
349.24	1638.38
349.45	1912.80
349.66	1638.38
349.88	1742.82
350.09	1648.61
350.30	1777.64
350.51	1761.25
350.72	1740.77
350.93	1708.01
351.14	1755.11
351.35	1720.29
351.56	1726.44
351.77	1667.05
351.99	1746.92
352.20	1822.69
352.41	1769.44
352.62	1595.37
352.83	1654.76
353.04	1665.00
353.25	1628.14
353.46	1746.92
353.67	1763.30
353.88	1746.92
354.09	1763.30
354.30	1619.94
354.52	1746.92
354.73	1708.01
354.94	1679.33
355.15	1714.15
355.36	1753.06
355.57	1673.19
355.78	1826.79
355.99	1667.05
356.20	1652.71
356.41	1755.11
356.62	1773.54
356.83	1726.44
357.04	1744.87
357.25	1619.94
357.46	1718.25
357.68	1642.47
357.89	1652.71
358.10	1687.53
358.31	1757.16
358.52	1746.92
358.73	1683.43
358.94	1699.81
359.15	1708.01
359.36	1734.63
359.57	1720.29
359.78	1701.86
359.99	1701.86
360.20	1703.91
360.41	1738.73
360.62	1759.21
360.83	1724.39
361.04	1767.40
361.25	1726.44
361.46	1824.74
361.67	1722.34
361.88	1861.60
362.09	1746.92
362.30	1779.68
362.51	1728.49
362.72	1736.68
362.93	1728.49
363.14	1779.68
363.35	1751.01
363.56	1689.57
363.78	1742.82
363.99	1775.59
364.20	1712.10
364.41	1708.01
364.62	1806.31
364.83	1730.53
365.04	1753.06
365.25	1748.97
365.46	1748.97
365.67	1648.61
365.88	1708.01
366.09	1753.06
366.30	1683.43
366.51	1673.19
366.72	1525.74
366.93	1667.05
367.14	1718.25
367.35	1806.31
367.56	1759.21
367.77	1804.26
367.98	1728.49
368.18	1761.25
368.39	1746.92
368.60	1648.61
368.81	1791.97
369.02	1738.73
369.23	1728.49
369.44	1638.38
369.65	1693.67
369.86	1656.81
370.07	1824.74
370.28	1667.05
370.49	1761.25
370.70	1695.72
370.91	1697.77
371.12	1679.33
371.33	1804.26
371.54	1708.01
371.75	1783.78
371.96	1615.85
372.17	1730.53
372.38	1673.19
372.59	1742.82
372.80	1730.53
373.01	1671.14
373.22	1755.11
373.43	1789.92
373.64	1683.43
373.85	1751.01
374.06	1822.69
374.26	1697.77
374.47	1765.35
374.68	1779.68
374.89	1740.77
375.10	1648.61
375.31	1808.36
375.52	1728.49
375.73	1677.29
375.94	1722.34
376.15	1839.08
376.36	1705.96
376.57	1632.23
376.78	1830.88
376.99	1748.97
377.20	1773.54
377.40	1722.34
377.61	1822.69
377.82	1693.67
378.03	1730.53
378.24	1771.49
378.45	1669.09
378.66	1724.39
378.87	1705.96
379.08	1624.04
379.29	1681.38
379.50	1767.40
379.71	1640.42
379.91	1787.88
380.12	1724.39
380.33	1691.62
380.54	1734.63
380.75	1757.16
380.96	1658.85
381.17	1748.97
381.38	1732.58
381.59	1734.63
381.80	1730.53
382.00	1839.08
382.21	1812.45
382.42	1847.27
382.63	1873.89
382.84	1769.44
383.05	1783.78
383.26	1828.84
383.47	1804.26
383.68	1714.15
383.88	1746.92
384.09	1699.81
384.30	1826.79
384.51	1746.92
384.72	1685.48
384.93	1667.05
385.14	1701.86
385.35	1730.53
385.55	1624.04
385.76	1779.68
385.97	1744.87
386.18	1593.32
386.39	1722.34
386.60	1640.42
386.81	1693.67
387.02	1714.15
387.22	1677.29
387.43	1800.16
387.64	1755.11
387.85	1941.47
388.06	2244.57
388.27	4028.35
388.48	6645.66
388.68	7972.74
388.89	9461.62
389.10	9643.88
389.31	8249.22
389.52	7487.37
389.73	6580.12
389.93	6039.46
390.14	5842.85
390.35	5154.74
390.56	4411.32
390.77	3747.78
390.98	3008.47
391.18	2529.24
391.39	2123.74
391.60	1951.71
391.81	1886.18
392.02	1732.58
392.23	1890.28
392.43	1697.77
392.64	1796.07
392.85	1722.34
393.06	1820.64
393.27	1779.68
393.47	1601.51
393.68	1757.16
393.89	1681.38
394.10	1757.16
394.31	1714.15
394.52	1654.76
394.72	1755.11
394.93	1832.93
395.14	1701.86
395.35	1763.30
395.56	1705.96
395.76	1673.19
395.97	1859.56
396.18	1818.60
396.39	1941.47
396.60	2068.45
396.80	1904.61
397.01	1847.27
397.22	1800.16
397.43	1851.36
397.64	1755.11
397.84	1808.36
398.05	1865.70
398.26	1789.92
398.47	1818.60
398.67	1767.40
398.88	1783.78
399.09	1798.12
399.30	1714.15
399.51	1736.68
399.71	1650.66
399.92	1677.29
400.13	1771.49
400.34	1624.04
400.54	1714.15
400.75	1871.84
400.96	1732.58
401.17	1837.03
401.37	1732.58
401.58	1763.30
401.79	1662.95
402.00	1923.04
402.21	2033.63
402.41	1972.19
402.62	2041.82
402.83	2041.82
403.04	2004.96
403.24	2080.74
403.45	1845.22
403.66	1888.23
403.87	1855.46
404.07	1914.85
404.28	1970.15
404.49	1920.99
404.70	1783.78
404.90	1763.30
405.11	1806.31
405.32	1804.26
405.52	1638.38
405.73	1697.77
405.94	1665.00
406.15	1722.34
406.35	1781.73
406.56	1751.01
406.77	1662.95
406.98	1701.86
407.18	1695.72
407.39	1759.21
407.60	1689.57
407.80	1744.87
408.01	1669.09
408.22	1679.33
408.43	1751.01
408.63	1767.40
408.84	1832.93
409.05	1804.26
409.25	1751.01
409.46	1624.04
409.67	1699.81
409.88	1646.57
410.08	1773.54
410.29	1681.38
410.50	1753.06
410.70	1765.35
410.91	1742.82
411.12	1785.83
411.32	1671.14
411.53	1687.53
411.74	1828.84
411.95	1800.16
412.15	1744.87
412.36	1779.68
412.57	1775.59
412.77	1894.37
412.98	1771.49
413.19	1714.15
413.39	1710.05
413.60	1769.44
413.81	1837.03
414.01	1695.72
414.22	1712.10
414.43	1832.93
414.63	1730.53
414.84	1722.34
415.05	1804.26
415.25	1714.15
415.46	1716.20
415.67	1677.29
415.87	1789.92
416.08	1734.63
416.29	1732.58
416.49	1775.59
416.70	1667.05
416.91	1695.72
417.11	1730.53
417.32	1783.78
417.53	1779.68
417.73	1769.44
417.94	1695.72
418.15	1794.02
418.35	1699.81
418.56	1691.62
418.77	1896.42
418.97	1744.87
419.18	1738.73
419.38	1638.38
419.59	1708.01
419.80	1800.16
420.00	1697.77
420.21	1724.39
420.42	1816.55
420.62	1691.62
420.83	1730.53
421.04	1748.97
421.24	1595.37
421.45	1734.63
421.65	1681.38
421.86	1658.85
422.07	1781.73
422.27	1644.52
422.48	1714.15
422.69	1632.23
422.89	1701.86
423.10	1748.97
423.30	1669.09
423.51	1691.62
423.72	1730.53
423.92	1755.11
424.13	1699.81
424.33	1751.01
424.54	1787.88
424.75	1748.97
424.95	1869.80
425.16	1660.90
425.36	1701.86
425.57	1712.10
425.78	1751.01
425.98	1751.01
426.19	1736.68
426.39	1748.97
426.60	1714.15
426.81	1798.12
427.01	1759.21
427.22	1669.09
427.42	1632.23
427.63	1601.51
427.83	1753.06
428.04	1820.64
428.25	1843.17
428.45	1875.94
428.66	1755.11
428.86	1738.73
429.07	1712.10
429.28	1732.58
429.48	1683.43
429.69	1640.42
429.89	1757.16
430.10	1665.00
430.30	1736.68
430.51	1751.01
430.71	1642.47
430.92	1716.20
431.13	1685.48
431.33	1726.44
431.54	1755.11
431.74	1867.75
431.95	1877.99
432.15	1687.53
432.36	1751.01
432.56	1785.83
432.77	1779.68
432.98	1812.45
433.18	1775.59
433.39	1716.20
433.59	1708.01
433.80	1847.27
434.00	1869.80
434.21	1701.86
434.41	1701.86
434.62	1945.57
434.82	1685.48
435.03	1677.29
435.23	1716.20
435.44	1685.48
435.64	1697.77
435.85	1746.92
436.06	1808.36
436.26	1763.30
436.47	1728.49
436.67	1656.81
436.88	1775.59
437.08	1730.53
437.29	1837.03
437.49	1775.59
437.70	1734.63
437.90	1800.16
438.11	1888.23
438.31	1896.42
438.52	1794.02
438.72	1941.47
438.93	1886.18
439.13	1787.88
439.34	1769.44
439.54	1830.88
439.75	1703.91
439.95	1804.26
440.16	1736.68
440.36	1828.84
440.57	1816.55
440.77	1685.48
440.98	1789.92
441.18	1773.54
441.39	1652.71
441.59	1701.86
441.80	1826.79
442.00	1689.57
442.21	1853.41
442.41	1669.09
442.62	1796.07
442.82	1726.44
443.02	1791.97
443.23	1828.84
443.43	1732.58
443.64	1826.79
443.84	1732.58
444.05	1869.80
444.25	1724.39
444.46	1722.34
444.66	1695.72
444.87	1781.73
445.07	1611.75
445.28	1773.54
445.48	1791.97
445.69	1785.83
445.89	1875.94
446.09	1730.53
446.30	2033.63
446.50	2500.57
446.71	3694.54
446.91	4372.41
447.12	4695.99
447.32	4794.29
447.53	4235.20
447.73	3698.63
447.93	3456.97
448.14	3229.65
448.34	3139.54
448.55	2861.01
448.75	2863.06
448.96	2779.09
449.16	2459.61
449.36	2363.36
449.57	2019.30
449.77	1941.47
449.98	1822.69
450.18	1855.46
450.39	1814.50
450.59	1814.50
450.79	1691.62
451.00	1673.19
451.20	1816.55
451.41	1716.20
451.61	1794.02
451.81	1718.25
452.02	1726.44
452.22	1685.48
452.43	1689.57
452.63	1703.91
452.84	1736.68
453.04	1699.81
453.24	1787.88
453.45	1726.44
453.65	1738.73
453.86	1744.87
454.06	1812.45
454.26	1828.84
454.47	1714.15
454.67	1794.02
454.87	1794.02
455.08	1759.21
455.28	1898.47
455.49	1720.29
455.69	1736.68
455.89	1853.41
456.10	1748.97
456.30	1658.85
456.51	1748.97
456.71	1628.14
456.91	1806.31
457.12	1816.55
457.32	1763.30
457.52	1642.47
457.73	1783.78
457.93	1777.64
458.14	1726.44
458.34	1673.19
458.54	1748.97
458.75	1761.25
458.95	1824.74
459.15	1742.82
459.36	1755.11
459.56	1742.82
459.76	1812.45
459.97	1789.92
460.17	1693.67
460.37	1828.84
460.58	1808.36
460.78	1777.64
460.99	1728.49
461.19	1722.34
461.39	1710.05
461.60	1777.64
461.80	1757.16
462.00	1742.82
462.21	1742.82
462.41	1757.16
462.61	1724.39
462.82	1669.09
463.02	1800.16
463.22	1689.57
463.43	1810.40
463.63	1820.64
463.83	1845.22
464.04	1712.10
464.24	1671.14
464.44	1755.11
464.64	1662.95
464.85	1849.32
465.05	1851.36
465.25	1808.36
465.46	1757.16
465.66	1837.03
465.86	1720.29
466.07	1783.78
466.27	1748.97
466.47	1656.81
466.68	1677.29
466.88	1787.88
467.08	1783.78
467.29	1812.45
467.49	1742.82
467.69	1722.34
467.89	1820.64
468.10	1746.92
468.30	1732.58
468.50	1865.70
468.71	1791.97
468.91	1640.42
469.11	1849.32
469.31	1769.44
469.52	1679.33
469.72	1810.40
469.92	1837.03
470.13	1726.44
470.33	1775.59
470.53	1861.60
470.73	2066.40
470.94	2306.01
471.14	2353.12
471.34	2531.29
471.54	2494.43
471.75	2170.85
471.95	2107.36
472.15	2050.02
472.36	2099.17
472.56	2097.12
472.76	2070.50
472.96	1918.95
473.17	1976.29
473.37	1898.47
473.57	1738.73
473.77	1771.49
473.98	1781.73
474.18	1665.00
474.38	1896.42
474.58	1685.48
474.79	1673.19
474.99	1804.26
475.19	1789.92
475.39	1699.81
475.60	1681.38
475.80	1771.49
476.00	1730.53
476.20	1705.96
476.41	1714.15
476.61	1789.92
476.81	1759.21
477.01	1705.96
477.21	1855.46
477.42	1818.60
477.62	1662.95
477.82	1763.30
478.02	1748.97
478.23	1839.08
478.43	1619.94
478.63	1675.24
478.83	1683.43
479.03	1705.96
479.24	1816.55
479.44	1908.71
479.64	1611.75
479.84	1662.95
480.04	1685.48
480.25	1714.15
480.45	1724.39
480.65	1687.53
480.85	1746.92
481.06	1740.77
481.26	1728.49
481.46	1791.97
481.66	1794.02
481.86	1675.24
482.06	1824.74
482.27	1712.10
482.47	1677.29
482.67	1773.54
482.87	1759.21
483.07	1849.32
483.28	1722.34
483.48	1734.63
483.68	1806.31
483.88	1681.38
484.08	1638.38
484.29	1714.15
484.49	1724.39
484.69	1601.51
484.89	1787.88
485.09	1740.77
485.29	1722.34
485.50	1755.11
485.70	1767.40
485.90	1834.98
486.10	1771.49
486.30	1806.31
486.50	1882.08
486.71	1748.97
486.91	1724.39
487.11	1826.79
487.31	1613.80
487.51	1732.58
487.71	1679.33
487.91	1660.90
488.12	1658.85
488.32	1665.00
488.52	1683.43
488.72	1595.37
488.92	1773.54
489.12	1816.55
489.32	1800.16
489.53	1697.77
489.73	1687.53
489.93	1873.89
490.13	1667.05
490.33	1665.00
490.53	1726.44
490.73	1818.60
490.94	1697.77
491.14	1746.92
491.34	1894.37
491.54	2074.59
491.74	2582.49
491.94	2842.58
492.14	3012.56
492.34	3080.14
492.54	2688.98
492.75	2500.57
492.95	2414.56
493.15	2289.63
493.35	2308.06
493.55	2217.95
493.75	2164.70
493.95	2164.70
494.15	2045.92
494.35	1953.76
494.56	1859.56
494.76	1869.80
494.96	1832.93
495.16	1800.16
495.36	1722.34
495.56	1767.40
495.76	1708.01
495.96	1761.25
496.16	1703.91
496.36	1779.68
496.56	1759.21
496.77	1771.49
496.97	1671.14
497.17	1769.44
497.37	1650.66
497.57	1714.15
497.77	1746.92
497.97	1677.29
498.17	1738.73
498.37	1726.44
498.57	1814.50
498.77	1710.05
498.97	1748.97
499.17	1849.32
499.38	1730.53
499.58	1734.63
499.78	1753.06
499.98	1861.60
500.18	1693.67
500.38	1824.74
500.58	1896.42
500.78	2713.56
500.98	4433.85
501.18	5707.69
501.38	6649.75
501.58	7004.05
501.78	6428.57
501.98	5406.64
502.18	4984.76
502.38	4216.77
502.58	4046.79
502.78	3702.73
502.98	3669.96
503.18	3393.48
503.38	3125.20
503.59	2795.48
503.79	2607.06
503.99	2459.61
504.19	2265.05
504.39	2140.13
504.59	2240.48
504.79	2168.80
504.99	2047.97
505.19	2000.87
505.39	1898.47
505.59	1824.74
505.79	2066.40
505.99	1839.08
506.19	1769.44
506.39	1830.88
506.59	1759.21
506.79	1814.50
506.99	1787.88
507.19	1726.44
507.39	1767.40
507.59	1689.57
507.79	1679.33
507.99	1710.05
508.19	1796.07
508.39	1714.15
508.59	1847.27
508.79	1771.49
508.99	1826.79
509.19	1681.38
509.39	1834.98
509.59	1665.00
509.79	1759.21
509.99	1791.97
510.19	1761.25
510.39	1751.01
510.59	1703.91
510.79	1699.81
510.99	1607.66
511.19	1794.02
511.39	1839.08
511.59	1746.92
511.79	1918.95
511.99	1746.92
512.19	1847.27
512.38	1787.88
512.58	1710.05
512.78	1718.25
512.98	1755.11
513.18	1837.03
513.38	1689.57
513.58	1771.49
513.78	1652.71
513.98	1761.25
514.18	1708.01
514.38	1708.01
514.58	1771.49
514.78	1769.44
514.98	1701.86
515.18	1769.44
515.38	1710.05
515.58	1851.36
515.78	1710.05
515.98	1728.49
516.18	1730.53
516.38	1718.25
516.57	1673.19
516.77	1763.30
516.97	1761.25
517.17	1705.96
517.37	1656.81
517.57	1720.29
517.77	1689.57
517.97	1730.53
518.17	1845.22
518.37	1638.38
518.57	1701.86
518.77	1730.53
518.97	1769.44
519.16	1845.22
519.36	1839.08
519.56	1738.73
519.76	1718.25
519.96	1742.82
520.16	1806.31
520.36	1615.85
520.56	1884.13
520.76	1736.68
520.96	1644.52
521.16	1798.12
521.35	1730.53
521.55	1773.54
521.75	1703.91
521.95	1751.01
522.15	1693.67
522.35	1576.94
522.55	1683.43
522.75	1708.01
522.95	1771.49
523.14	1703.91
523.34	1697.77
523.54	1617.90
523.74	1751.01
523.94	1748.97
524.14	1693.67
524.34	1701.86
524.54	1771.49
524.73	1710.05
524.93	1769.44
525.13	1730.53
525.33	1679.33
525.53	1890.28
525.73	1808.36
525.93	1734.63
526.13	1751.01
526.32	1716.20
526.52	1818.60
526.72	1804.26
526.92	1748.97
527.12	1753.06
527.32	1662.95
527.52	1796.07
527.71	1802.21
527.91	1775.59
528.11	1712.10
528.31	1771.49
528.51	1634.28
528.71	1812.45
528.90	1849.32
529.10	1751.01
529.30	1822.69
529.50	1560.55
529.70	1767.40
529.90	1765.35
530.09	1746.92
530.29	1677.29
530.49	1734.63
530.69	1882.08
530.89	1732.58
531.09	1779.68
531.28	1738.73
531.48	1734.63
531.68	1771.49
531.88	1783.78
532.08	1775.59
532.28	1710.05
532.47	1775.59
532.67	1767.40
532.87	1806.31
533.07	1732.58
533.27	1720.29
533.46	1812.45
533.66	1753.06
533.86	1781.73
534.06	1751.01
534.26	1822.69
534.45	1738.73
534.65	1820.64
534.85	1753.06
535.05	1654.76
535.25	1748.97
535.44	1630.18
535.64	1771.49
535.84	1757.16
536.04	1710.05
536.24	1658.85
536.43	1740.77
536.63	1820.64
536.83	1722.34
537.03	1740.77
537.22	1677.29
537.42	1667.05
537.62	1769.44
537.82	1691.62
538.02	1744.87
538.21	1837.03
538.41	1867.75
538.61	1834.98
538.81	1771.49
539.00	1753.06
539.20	1658.85
539.40	1777.64
539.60	1693.67
539.79	1755.11
539.99	1736.68
540.19	1755.11
540.39	1681.38
540.58	1775.59
540.78	1767.40
540.98	1779.68
541.18	1751.01
541.37	1810.40
541.57	1732.58
541.77	1665.00
541.97	1718.25
542.16	1726.44
542.36	1695.72
542.56	1656.81
542.76	1818.60
542.95	1828.84
543.15	1724.39
543.35	1783.78
543.54	1742.82
543.74	1718.25
543.94	1804.26
544.14	1726.44
544.33	1785.83
544.53	1771.49
544.73	1765.35
544.93	1791.97
545.12	1691.62
545.32	1738.73
545.52	1695.72
545.71	1628.14
545.91	1687.53
546.11	1796.07
546.30	1697.77
546.50	1789.92
546.70	1783.78
546.90	1705.96
547.09	1697.77
547.29	1798.12
547.49	1744.87
547.68	1730.53
547.88	1771.49
548.08	1701.86
548.27	2246.62
548.47	1695.72
548.67	1716.20
548.87	1781.73
549.06	1677.29
549.26	1703.91
549.46	1761.25
549.65	1601.51
549.85	1691.62
550.05	1779.68
550.24	1751.01
550.44	1789.92
550.64	1691.62
550.83	1765.35
551.03	1830.88
551.23	1769.44
551.42	1722.34
551.62	1736.68
551.82	1679.33
552.01	1775.59
552.21	1863.65
552.41	1779.68
552.60	1767.40
552.80	1726.44
553.00	1722.34
553.19	1839.08
553.39	1824.74
553.59	1628.14
553.78	1808.36
553.98	1828.84
554.17	1665.00
554.37	1746.92
554.57	1767.40
554.76	1615.85
554.96	1787.88
555.16	1783.78
555.35	1744.87
555.55	1763.30
555.75	1771.49
555.94	1757.16
556.14	1767.40
556.33	1705.96
556.53	1779.68
556.73	1679.33
556.92	1779.68
557.12	1753.06
557.32	1873.89
557.51	1857.51
557.71	1783.78
557.90	1787.88
558.10	1820.64
558.30	1779.68
558.49	1673.19
558.69	1699.81
558.88	1794.02
559.08	1802.21
559.28	1783.78
559.47	1794.02
559.67	1751.01
559.86	1898.47
560.06	1726.44
560.26	1812.45
560.45	1736.68
560.65	1665.00
560.84	1822.69
561.04	1722.34
561.24	1826.79
561.43	1621.99
561.63	1857.51
561.82	1736.68
562.02	1767.40
562.22	1650.66
562.41	1701.86
562.61	1732.58
562.80	1640.42
563.00	1914.85
563.19	1820.64
563.39	1822.69
563.59	1812.45
563.78	1648.61
563.98	1675.24
564.17	1736.68
564.37	1632.23
564.56	1767.40
564.76	1693.67
564.96	1851.36
565.15	1751.01
565.35	1937.38
565.54	1642.47
565.74	1871.84
565.93	1804.26
566.13	1746.92
566.32	1808.36
566.52	1808.36
566.71	1691.62
566.91	1751.01
567.11	1751.01
567.30	1677.29
567.50	1781.73
567.69	1773.54
567.89	1738.73
568.08	1701.86
568.28	1785.83
568.47	1685.48
568.67	1728.49
568.86	1722.34
569.06	1820.64
569.25	1718.25
569.45	1673.19
569.64	1730.53
569.84	1736.68
570.04	1748.97
570.23	1691.62
570.43	1669.09
570.62	1791.97
570.82	1777.64
571.01	1683.43
571.21	1785.83
571.40	1646.57
571.60	1769.44
571.79	1843.17
571.99	1800.16
572.18	1720.29
572.38	1794.02
572.57	1761.25
572.77	1814.50
572.96	1857.51
573.16	1775.59
573.35	1800.16
573.55	1841.12
573.74	1777.64
573.94	1742.82
574.13	1710.05
574.33	1794.02
574.52	1847.27
574.71	1714.15
574.91	1791.97
575.10	1693.67
575.30	1748.97
575.49	1763.30
575.69	1660.90
575.88	1806.31
576.08	1751.01
576.27	1751.01
576.47	1757.16
576.66	1832.93
576.86	1822.69
577.05	1751.01
577.25	1783.78
577.44	1929.19
577.64	1693.67
577.83	1798.12
578.02	1857.51
578.22	1867.75
578.41	1794.02
578.61	1720.29
578.80	1705.96
579.00	1771.49
579.19	1796.07
579.39	1732.58
579.58	1841.12
579.77	1796.07
579.97	1818.60
580.16	1847.27
580.36	1728.49
580.55	1849.32
580.75	1759.21
580.94	1796.07
581.13	1904.61
581.33	1804.26
581.52	1740.77
581.72	1837.03
581.91	1832.93
582.11	1679.33
582.30	1789.92
582.49	1820.64
582.69	1886.18
582.88	1759.21
583.08	1738.73
583.27	1808.36
583.47	1777.64
583.66	1697.77
583.85	1728.49
584.05	1779.68
584.24	1775.59
584.44	1753.06
584.63	1789.92
584.82	1812.45
585.02	1722.34
585.21	1847.27
585.41	1871.84
585.60	1847.27
585.79	1920.99
585.99	1927.14
586.18	1837.03
586.37	2156.51
586.57	3377.10
586.76	9815.91
586.96	23596.70
587.15	33369.60
587.34	39282.09
587.54	40983.95
587.73	35575.27
587.93	25380.48
588.12	20772.55
588.31	17786.61
588.51	15947.53
588.70	14800.67
588.89	13541.17
589.09	12349.25
589.28	10735.45
589.47	9195.38
589.67	7737.23
589.86	6213.54
590.06	4886.45
590.25	3825.61
590.44	3090.38
590.64	2602.97
590.83	2322.40
591.02	2191.33
591.22	1935.33
591.41	1830.88
591.60	1847.27
591.80	1869.80
591.99	1822.69
592.18	1724.39
592.38	1837.03
592.57	1832.93
592.76	1789.92
592.96	1863.65
593.15	1822.69
593.34	1814.50
593.54	1806.31
593.73	1806.31
593.92	1740.77
594.12	1755.11
594.31	1763.30
594.50	1794.02
594.70	1814.50
594.89	1869.80
595.08	1693.67
595.28	1748.97
595.47	1986.53
595.66	1822.69
595.86	1599.46
596.05	1816.55
596.24	1734.63
596.43	1769.44
596.63	1779.68
596.82	1761.25
597.01	1746.92
597.21	1787.88
597.40	1789.92
597.59	1724.39
597.79	1761.25
597.98	1785.83
598.17	1849.32
598.36	1832.93
598.56	1812.45
598.75	1701.86
598.94	1771.49
599.14	1787.88
599.33	1787.88
599.52	1804.26
599.71	1751.01
599.91	1796.07
600.10	1771.49
600.29	1726.44
600.48	1757.16
600.68	1802.21
600.87	1697.77
601.06	1740.77
601.26	1652.71
601.45	1718.25
601.64	1787.88
601.83	1837.03
602.03	1775.59
602.22	1644.52
602.41	1751.01
602.60	1839.08
602.80	1781.73
602.99	1783.78
603.18	1683.43
603.37	1828.84
603.57	1755.11
603.76	1841.12
603.95	1837.03
604.14	1755.11
604.34	1716.20
604.53	1746.92
604.72	1812.45
604.91	1820.64
605.10	1802.21
605.30	1699.81
605.49	1863.65
605.68	1769.44
605.87	1824.74
606.07	1685.48
606.26	1755.11
606.45	1705.96
606.64	1802.21
606.84	1720.29
607.03	1738.73
607.22	1769.44
607.41	1714.15
607.60	1714.15
607.80	1810.40
607.99	1740.77
608.18	1742.82
608.37	1685.48
608.56	1679.33
608.76	1796.07
608.95	1828.84
609.14	1740.77
609.33	1816.55
609.52	1804.26
609.72	1728.49
609.91	1839.08
610.10	1742.82
610.29	1875.94
610.48	1669.09
610.68	1753.06
610.87	1728.49
611.06	1798.12
611.25	1742.82
611.44	1875.94
611.63	1683.43
611.83	1814.50
612.02	1681.38
612.21	1839.08
612.40	1648.61
612.59	1771.49
612.79	1710.05
612.98	1787.88
613.17	1875.94
613.36	1769.44
613.55	1826.79
613.74	1763.30
613.93	1742.82
614.13	1759.21
614.32	1796.07
614.51	1763.30
614.70	1765.35
614.89	1675.24
615.08	1787.88
615.28	2093.02
615.47	1599.46
615.66	1720.29
615.85	1734.63
616.04	1787.88
616.23	1763.30
616.42	1765.35
616.62	1794.02
616.81	1783.78
617.00	1769.44
617.19	1744.87
617.38	1714.15
617.57	1708.01
617.76	1718.25
617.95	1847.27
618.15	1779.68
618.34	1806.31
618.53	1669.09
618.72	1767.40
618.91	1853.41
619.10	1822.69
619.29	1742.82
619.48	1705.96
619.68	1693.67
619.87	1628.14
620.06	1648.61
620.25	1726.44
620.44	1691.62
620.63	1718.25
620.82	1673.19
621.01	1763.30
621.20	1808.36
621.39	1708.01
621.59	1789.92
621.78	1744.87
621.97	1794.02
622.16	1775.59
622.35	1718.25
622.54	1783.78
622.73	1839.08
622.92	1665.00
623.11	1828.84
623.30	1701.86
623.49	1763.30
623.68	1691.62
623.88	1822.69
624.07	1677.29
624.26	1728.49
624.45	1730.53
624.64	1699.81
624.83	1777.64
625.02	1693.67
625.21	1701.86
625.40	1806.31
625.59	1781.73
625.78	1812.45
625.97	1853.41
626.16	1808.36
626.35	1783.78
626.54	1730.53
626.74	1796.07
626.93	1767.40
627.12	1722.34
627.31	1806.31
627.50	1765.35
627.69	1748.97
627.88	1630.18
628.07	1826.79
628.26	1654.76
628.45	1746.92
628.64	1662.95
628.83	1724.39
629.02	1648.61
629.21	1759.21
629.40	1755.11
629.59	1714.15
629.78	1757.16
629.97	1748.97
630.16	1802.21
630.35	1818.60
630.54	1669.09
630.73	1712.10
630.92	1767.40
631.11	1736.68
631.30	1724.39
631.49	1791.97
631.68	1681.38
631.87	1730.53
632.06	1660.90
632.25	1843.17
632.44	1669.09
632.63	1773.54
632.82	1710.05
633.01	1691.62
633.20	1732.58
633.39	1662.95
633.58	1624.04
633.77	1734.63
633.96	1794.02
634.15	1781.73
634.34	1724.39
634.53	1810.40
634.72	1683.43
634.91	1669.09
635.10	1662.95
635.29	1773.54
635.48	1708.01
635.67	1728.49
635.86	1767.40
636.05	1769.44
636.24	1738.73
636.43	1705.96
636.62	1744.87
636.81	1601.51
637.00	1755.11
637.19	1726.44
637.38	1710.05
637.57	1738.73
637.76	1736.68
637.95	1800.16
638.14	1654.76
638.33	1662.95
638.52	1796.07
638.71	1703.91
638.89	1685.48
639.08	1808.36
639.27	1767.40
639.46	1753.06
639.65	1753.06
639.84	1720.29
640.03	1800.16
640.22	1775.59
640.41	1853.41
640.60	1626.09
640.79	1679.33
640.98	1660.90
641.17	1816.55
641.36	1697.77
641.55	1839.08
641.74	1693.67
641.92	1683.43
642.11	1697.77
642.30	1730.53
642.49	1724.39
642.68	1708.01
642.87	1742.82
643.06	1812.45
643.25	1699.81
643.44	1685.48
643.63	1761.25
643.82	1787.88
644.00	1732.58
644.19	1724.39
644.38	1660.90
644.57	1771.49
644.76	1746.92
644.95	1730.53
645.14	1685.48
645.33	1699.81
645.52	1683.43
645.71	1644.52
645.89	1642.47
646.08	1765.35
646.27	1794.02
646.46	1871.84
646.65	1673.19
646.84	1718.25
647.03	1675.24
647.22	1839.08
647.40	1847.27
647.59	1691.62
647.78	1587.18
647.97	1677.29
648.16	1656.81
648.35	1837.03
648.54	1742.82
648.73	1746.92
648.91	1705.96
649.10	1787.88
649.29	1740.77
649.48	1738.73
649.67	1652.71
649.86	1646.57
650.05	1705.96
650.23	1804.26
650.42	1671.14
650.61	1722.34
650.80	1787.88
650.99	1839.08
651.18	1669.09
651.36	1798.12
651.55	1748.97
651.74	1794.02
651.93	1660.90
652.12	1656.81
652.31	1677.29
652.49	1697.77
652.68	1695.72
652.87	1804.26
653.06	1802.21
653.25	1888.23
653.44	1748.97
653.62	1779.68
653.81	1726.44
654.00	1685.48
654.19	1789.92
654.38	1880.04
654.56	1789.92
654.75	1705.96
654.94	1828.84
655.13	1757.16
655.32	1732.58
655.51	1718.25
655.69	1652.71
655.88	1691.62
656.07	1654.76
656.26	1759.21
656.45	1724.39
656.63	1705.96
656.82	1718.25
657.01	1773.54
657.20	1705.96
657.38	1757.16
657.57	1695.72
657.76	1638.38
657.95	1757.16
658.14	1732.58
658.32	1730.53
658.51	1685.48
658.70	1769.44
658.89	1759.21
659.08	1699.81
659.26	1841.12
659.45	1689.57
659.64	1757.16
659.83	1669.09
660.01	1892.32
660.20	1738.73
660.39	1847.27
660.58	1615.85
660.76	1732.58
660.95	1673.19
661.14	1744.87
661.33	1636.33
661.51	1689.57
661.70	1689.57
661.89	1744.87
662.08	1746.92
662.26	1638.38
662.45	1714.15
662.64	1873.89
662.83	1781.73
663.01	1652.71
663.20	1691.62
663.39	1867.75
663.58	1665.00
663.76	1685.48
663.95	1714.15
664.14	1658.85
664.32	1763.30
664.51	1632.23
664.70	1646.57
664.89	1804.26
665.07	1658.85
665.26	1746.92
665.45	1671.14
665.64	1753.06
665.82	1705.96
666.01	1789.92
666.20	1660.90
666.38	1820.64
666.57	1880.04
666.76	2181.09
666.95	4536.25
667.13	10243.94
667.32	14806.81
667.51	17510.13
667.69	18601.70
667.88	17151.74
668.07	11951.95
668.25	9361.27
668.44	8021.89
668.63	7059.35
668.81	6789.02
669.00	6186.91
669.19	5586.86
669.38	4968.37
669.56	4536.25
669.75	3893.19
669.94	3340.24
670.12	2918.36
670.31	2473.95
670.50	2254.81
670.68	2084.83
670.87	1896.42
671.06	1828.84
671.24	1691.62
671.43	1824.74
671.62	1763.30
671.80	1728.49
671.99	1812.45
672.18	1701.86
672.36	1748.97
672.55	1802.21
672.74	1738.73
672.92	1626.09
673.11	1767.40
673.29	1656.81
673.48	1830.88
673.67	1728.49
673.85	1773.54
674.04	1685.48
674.23	1757.16
674.41	1847.27
674.60	1675.24
674.79	1681.38
674.97	1697.77
675.16	1742.82
675.34	1832.93
675.53	1695.72
675.72	1748.97
675.90	1818.60
676.09	1769.44
676.28	1734.63
676.46	1693.67
676.65	1736.68
676.83	1669.09
677.02	1689.57
677.21	1691.62
677.39	1726.44
677.58	1656.81
677.77	1726.44
677.95	1722.34
678.14	1705.96
678.32	1730.53
678.51	1755.11
678.70	1753.06
678.88	1705.96
679.07	1771.49
679.25	1660.90
679.44	1798.12
679.63	1722.34
679.81	1705.96
680.00	1789.92
680.18	1789.92
680.37	1830.88
680.55	1748.97
680.74	1587.18
680.93	1593.32
681.11	1751.01
681.30	1714.15
681.48	1699.81
681.67	1705.96
681.85	1708.01
682.04	1654.76
682.23	1662.95
682.41	1736.68
682.60	1693.67
682.78	1730.53
682.97	1753.06
683.15	1724.39
683.34	1734.63
683.53	1800.16
683.71	1693.67
683.90	1783.78
684.08	1820.64
684.27	1699.81
684.45	1671.14
684.64	1777.64
684.82	1640.42
685.01	1730.53
685.19	1738.73
685.38	1839.08
685.57	1746.92
685.75	1640.42
685.94	1697.77
686.12	1673.19
686.31	1703.91
686.49	1703.91
686.68	1652.71
686.86	1679.33
687.05	1738.73
687.23	1814.50
687.42	1740.77
687.60	1648.61
687.79	1787.88
687.97	1828.84
688.16	1703.91
688.34	1783.78
688.53	1599.46
688.71	1765.35
688.90	1753.06
689.08	1751.01
689.27	1710.05
689.45	1738.73
689.64	1843.17
689.82	1773.54
690.01	1716.20
690.19	1767.40
690.38	1769.44
690.56	1804.26
690.75	1681.38
690.93	1724.39
691.12	1736.68
691.30	1712.10
691.49	1699.81
691.67	1656.81
691.86	1814.50
692.04	1699.81
692.23	1646.57
692.41	1669.09
692.60	1818.60
692.78	1748.97
692.97	1742.82
693.15	1806.31
693.34	1830.88
693.52	1785.83
693.71	1716.20
693.89	1742.82
694.08	1595.37
694.26	1779.68
694.44	1714.15
694.63	1787.88
694.81	1677.29
695.00	1722.34
695.18	1800.16
695.37	1890.28
695.55	1796.07
695.74	1732.58
695.92	1640.42
696.10	1787.88
696.29	1583.08
696.47	1673.19
696.66	1714.15
696.84	1710.05
697.03	1673.19
697.21	1796.07
697.40	2330.59
697.58	1738.73
697.76	1759.21
697.95	1736.68
698.13	1599.46
698.32	1708.01
698.50	1736.68
698.68	1796.07
698.87	1751.01
699.05	1843.17
699.24	1726.44
699.42	1728.49
699.61	1558.50
699.79	1759.21
699.97	1761.25
700.16	1630.18
700.34	1712.10
700.53	1744.87
700.71	1806.31
700.89	1783.78
701.08	1767.40
701.26	1691.62
701.45	2172.89
701.63	1732.58
701.81	1695.72
702.00	1765.35
702.18	1742.82
702.37	1609.70
702.55	1763.30
702.73	1642.47
702.92	1609.70
703.10	1837.03
703.28	1722.34
703.47	1703.91
703.65	1769.44
703.84	1736.68
704.02	1726.44
704.20	1816.55
704.39	1613.80
704.57	1677.29
704.75	1789.92
704.94	1761.25
705.12	1738.73
705.30	1816.55
705.49	2269.15
705.67	4401.08
705.86	9222.00
706.04	12242.76
706.22	14085.93
706.41	15048.47
706.59	13313.84
706.77	9238.39
706.96	7225.23
707.14	6344.61
707.32	5830.57
707.51	5506.99
707.69	4853.69
707.87	4128.70
708.06	3481.55
708.24	2916.31
708.42	2365.40
708.61	2324.44
708.79	1927.14
708.97	1845.22
709.16	1855.46
709.34	1810.40
709.52	1746.92
709.71	1775.59
709.89	1689.57
710.07	1675.24
710.26	1632.23
710.44	1720.29
710.62	1775.59
710.80	1779.68
710.99	1802.21
711.17	1738.73
711.35	1705.96
711.54	1701.86
711.72	1781.73
711.90	1673.19
712.09	1681.38
712.27	1757.16
712.45	1767.40
712.63	1720.29
712.82	1746.92
713.00	1652.71
713.18	1681.38
713.37	1728.49
713.55	1765.35
713.73	1759.21
713.91	1751.01
714.10	1742.82
714.28	1751.01
714.46	1730.53
714.65	1787.88
714.83	1697.77
715.01	1716.20
715.19	1689.57
715.38	1648.61
715.56	1742.82
715.74	1628.14
715.92	1652.71
716.11	1775.59
716.29	1554.41
716.47	1724.39
716.65	1730.53
716.84	1644.52
717.02	1740.77
717.20	1560.55
717.38	1681.38
717.57	1726.44
717.75	1753.06
717.93	1755.11
718.11	1804.26
718.30	1681.38
718.48	1695.72
718.66	1769.44
718.84	1726.44
719.03	1716.20
719.21	1703.91
719.39	1843.17
719.57	1783.78
719.75	1820.64
719.94	1732.58
720.12	1593.32
720.30	1820.64
720.48	1753.06
720.67	1669.09
720.85	1656.81
721.03	1724.39
721.21	1669.09
721.39	1818.60
721.58	1796.07
721.76	1720.29
721.94	1763.30
722.12	1689.57
722.30	1859.56
722.49	1681.38
722.67	1734.63
722.85	1751.01
723.03	1720.29
723.21	1677.29
723.40	1691.62
723.58	1705.96
723.76	1689.57
723.94	1765.35
724.12	1695.72
724.30	1834.98
724.49	1755.11
724.67	1662.95
724.85	1849.32
725.03	1699.81
725.21	1732.58
725.40	1726.44
725.58	1755.11
725.76	1837.03
725.94	1710.05
726.12	1673.19
726.30	1691.62
726.49	1685.48
726.67	1665.00
726.85	1730.53
727.03	1796.07
727.21	2136.03
727.39	2893.78
727.57	3758.02
727.76	4224.96
727.94	4366.27
728.12	4261.82
728.30	3733.45
728.48	3008.47
728.66	2693.08
728.84	2504.67
729.03	2303.96
729.21	2105.31
729.39	2027.49
729.57	1804.26
729.75	1826.79
729.93	1837.03
730.11	1699.81
730.30	1767.40
730.48	1675.24
730.66	1761.25
730.84	1796.07
731.02	1744.87
731.20	1730.53
731.38	1751.01
731.56	1677.29
731.74	1695.72
731.93	1720.29
732.11	1730.53
732.29	1722.34
732.47	1744.87
732.65	1732.58
732.83	1794.02
733.01	1783.78
733.19	1669.09
733.37	1740.77
733.56	1710.05
733.74	1732.58
733.92	1802.21
734.10	1685.48
734.28	1753.06
734.46	1617.90
734.64	1650.66
734.82	1646.57
735.00	1716.20
735.18	1679.33
735.36	1775.59
735.54	1632.23
735.73	1728.49
735.91	1718.25
736.09	1738.73
736.27	1685.48
736.45	1724.39
736.63	1624.04
736.81	1681.38
736.99	1748.97
737.17	1773.54
737.35	1740.77
737.53	1689.57
737.71	1662.95
737.89	1822.69
738.07	1660.90
738.25	1716.20
738.43	1581.03
738.61	1685.48
738.80	1675.24
738.98	1677.29
739.16	1660.90
739.34	1630.18
739.52	1755.11
739.70	1703.91
739.88	1722.34
740.06	1757.16
740.24	1613.80
740.42	1789.92
740.60	1611.75
740.78	1597.42
740.96	1624.04
741.14	1724.39
741.32	1644.52
741.50	1679.33
741.68	1886.18
741.86	1867.75
742.04	1654.76
742.22	1660.90
742.40	1685.48
742.58	1726.44
742.76	1648.61
742.94	1748.97
743.12	1591.27
743.30	1710.05
743.48	1714.15
743.66	1662.95
743.84	1738.73
744.02	1603.56
744.20	1722.34
744.38	1646.57
744.56	1714.15
744.74	1771.49
744.92	1705.96
745.10	1810.40
745.28	1718.25
745.46	1822.69
745.64	1761.25
745.82	1705.96
746.00	1796.07
746.18	1732.58
746.36	1673.19
746.54	1744.87
746.72	1722.34
746.90	1603.56
747.08	1822.69
747.26	1669.09
747.44	1800.16
747.62	1779.68
747.80	1646.57
747.98	1695.72
748.15	1738.73
748.33	1859.56
748.51	1691.62
748.69	1789.92
748.87	1667.05
749.05	1722.34
749.23	1759.21
749.41	1712.10
749.59	1746.92
749.77	1714.15
749.95	1718.25
750.13	1677.29
750.31	1796.07
750.49	1798.12
750.67	1763.30
750.85	1816.55
751.03	1705.96
751.20	1841.12
751.38	1689.57
751.56	1693.67
751.74	1761.25
751.92	1611.75
752.10	1646.57
752.28	1814.50
752.46	1656.81
752.64	1791.97
752.82	1767.40
753.00	1796.07
753.18	1708.01
753.35	1720.29
753.53	1730.53
753.71	1697.77
753.89	1771.49
754.07	1726.44
754.25	1789.92
754.43	1769.44
754.61	1689.57
754.79	1736.68
754.97	1724.39
755.14	1779.68
755.32	1744.87
755.50	1716.20
755.68	1738.73
755.86	1650.66
756.04	1691.62
756.22	1578.98
756.40	1722.34
756.57	1908.71
756.75	1683.43
756.93	1779.68
757.11	1767.40
757.29	1617.90
757.47	1705.96
757.65	1669.09
757.82	1630.18
758.00	1578.98
758.18	1685.48
758.36	1583.08
758.54	1828.84
758.72	1675.24
758.90	1701.86
759.07	1746.92
759.25	1716.20
759.43	1742.82
759.61	1617.90
759.79	2238.43
759.97	1685.48
760.15	1673.19
760.32	1658.85
760.50	1705.96
760.68	1841.12
760.86	1656.81
761.04	1824.74
761.22	1716.20
761.39	1708.01
761.57	1753.06
761.75	1718.25
761.93	1701.86
762.11	1732.58
762.28	1705.96
762.46	1681.38
762.64	1724.39
762.82	1699.81
763.00	1683.43
763.18	1859.56
763.35	1617.90
763.53	1728.49
763.71	1652.71
763.89	1777.64
764.07	1701.86
764.24	1732.58
764.42	1789.92
764.60	1789.92
764.78	1794.02
764.96	1871.84
765.13	1734.63
765.31	1724.39
765.49	1787.88
765.67	1722.34
765.84	1689.57
766.02	1681.38
766.20	1624.04
766.38	1757.16
766.56	1787.88
766.73	1791.97
766.91	1660.90
767.09	1740.77
767.27	1714.15
767.44	1689.57
767.62	1769.44
767.80	1695.72
767.98	1724.39
768.15	1675.24
768.33	1734.63
768.51	1783.78
768.69	1783.78
768.87	1705.96
769.04	1742.82
769.22	1798.12
769.40	1705.96
769.58	1861.60
769.75	1753.06
769.93	1746.92
770.11	1656.81
770.28	1708.01
770.46	1789.92
770.64	1757.16
770.82	1662.95
770.99	1650.66
771.17	1761.25
771.35	1763.30
771.53	1759.21
771.70	1665.00
771.88	1814.50
772.06	1708.01
772.23	1658.85
772.41	1689.57
772.59	1693.67
772.77	1665.00
772.94	1658.85
773.12	1740.77
773.30	1671.14
773.47	1689.57
773.65	1634.28
773.83	1785.83
774.01	1687.53
774.18	1689.57
774.36	1755.11
774.54	1634.28
774.71	1708.01
774.89	1576.94
775.07	1634.28
775.24	1648.61
775.42	1642.47
775.60	1824.74
775.78	1667.05
775.95	1708.01
776.13	1703.91
776.31	1593.32
776.48	1703.91
776.66	1787.88
776.84	1619.94
777.01	1691.62
777.19	1574.89
777.37	1714.15
777.54	1738.73
777.72	1914.85
777.90	1783.78
778.07	1654.76
778.25	1865.70
778.43	1783.78
778.60	1650.66
778.78	1740.77
778.96	1767.40
779.13	1652.71
779.31	1757.16
779.49	1755.11
779.66	1753.06
779.84	1640.42
780.01	1701.86
780.19	1591.27
780.37	1761.25
780.54	1787.88
780.72	1703.91
780.90	1753.06
781.07	1683.43
781.25	1632.23
781.43	1777.64
781.60	1734.63
781.78	1753.06
781.95	1779.68
782.13	1701.86
782.31	1736.68
782.48	1632.23
782.66	1662.95
782.83	1826.79
783.01	1710.05
783.19	1701.86
783.36	1710.05
783.54	1703.91
783.72	1695.72
783.89	1705.96
784.07	1669.09
784.24	1798.12
784.42	1763.30
784.60	1730.53
784.77	1757.16
784.95	1621.99
785.12	1718.25
785.30	1683.43
785.47	1660.90
785.65	1644.52
785.83	1652.71
786.00	1705.96
786.18	1677.29
786.35	1701.86
786.53	1679.33
786.71	1851.36
786.88	1732.58
787.06	1673.19
787.23	1716.20
787.41	1624.04
787.58	1675.24
787.76	1701.86
787.94	1697.77
788.11	1755.11
788.29	1648.61
788.46	1615.85
788.64	1636.33
788.81	1662.95
788.99	1724.39
789.16	1613.80
789.34	1708.01
789.52	1613.80
789.69	1675.24
789.87	1673.19
790.04	1722.34
790.22	1751.01
790.39	1837.03
790.57	1644.52
790.74	1658.85
790.92	1699.81
791.09	1601.51
791.27	1748.97
791.44	1773.54
791.62	1744.87
791.79	1767.40
791.97	1685.48
792.15	1935.33
792.32	1734.63
792.50	1763.30
792.67	1828.84
792.85	1763.30
793.02	1775.59
793.20	1677.29
793.37	1722.34
793.55	1740.77
793.72	1705.96
793.90	1759.21
794.07	1695.72
794.25	1646.57
794.42	1796.07
794.60	1675.24
794.77	1712.10
794.95	1767.40
795.12	1798.12
795.30	1753.06
795.47	1628.14
795.65	1902.56
795.82	1736.68
796.00	1652.71
796.17	1726.44
796.34	1716.20
796.52	1789.92
796.69	1740.77
796.87	1744.87
797.04	1722.34
797.22	1740.77
797.39	1722.34
797.57	1763.30
797.74	1708.01
797.92	1730.53
798.09	1699.81
798.27	1800.16
798.44	1822.69
798.62	1703.91
798.79	1744.87
798.96	1722.34
799.14	1724.39
799.31	1800.16
799.49	1705.96
799.66	1738.73
799.84	1724.39
800.01	1708.01
800.19	1757.16
800.36	1613.80
800.53	1710.05
800.71	1705.96
800.88	1789.92
801.06	1665.00
801.23	1669.09
801.41	1673.19
801.58	1714.15
801.75	1683.43
801.93	1722.34
802.10	1720.29
802.28	1736.68
802.45	1718.25
802.63	1755.11
802.80	1785.83
802.97	1695.72
803.15	1730.53
803.32	1646.57
803.50	1695.72
803.67	1701.86
803.84	1675.24
804.02	1687.53
804.19	1630.18
804.37	1564.65
804.54	1613.80
804.71	1720.29
804.89	1714.15
805.06	1775.59
805.24	1642.47
805.41	1652.71
805.58	1671.14
805.76	1791.97
805.93	1722.34
806.10	1830.88
806.28	1751.01
806.45	1714.15
806.63	1736.68
806.80	1753.06
806.97	1687.53
807.15	1779.68
807.32	1779.68
807.49	1767.40
807.67	1656.81
807.84	1757.16
808.01	1642.47
808.19	1820.64
808.36	1781.73
808.54	1685.48
808.71	1665.00
808.88	1697.77
809.06	1757.16
809.23	1808.36
809.40	1730.53
809.58	1812.45
809.75	1726.44
809.92	1642.47
810.10	1830.88
810.27	1683.43
810.44	1742.82
810.62	1705.96
810.79	1798.12
810.96	1738.73
811.14	1601.51
811.31	1781.73
811.48	1781.73
811.66	1660.90
811.83	1816.55
812.00	1779.68
812.18	1689.57
812.35	1832.93
812.52	1669.09
812.69	1722.34
812.87	1808.36
813.04	1667.05
813.21	1701.86
813.39	1681.38
813.56	1671.14
813.73	1779.68
813.91	1533.93
814.08	1652.71
814.25	1699.81
814.42	1652.71
814.60	1724.39
814.77	1673.19
814.94	1751.01
815.12	1607.66
815.29	1794.02
815.46	1658.85
815.63	1824.74
815.81	1656.81
815.98	1679.33
816.15	1718.25
816.33	1714.15
816.50	1658.85
816.67	1753.06
816.84	1665.00
817.02	1689.57
817.19	1726.44
817.36	1779.68
817.53	1730.53
817.71	1771.49
817.88	1744.87
818.05	1714.15
818.22	1677.29
818.40	1816.55
818.57	1673.19
818.74	1730.53
818.91	1712.10
819.09	1796.07
819.26	1773.54
819.43	1681.38
819.60	1679.33
819.78	1720.29
819.95	1789.92
820.12	1630.18
820.29	1837.03
820.47	1761.25
820.64	1650.66
820.81	1556.46
820.98	1656.81
821.15	1650.66
821.33	1701.86
821.50	1611.75
821.67	1781.73
821.84	1734.63
822.02	1673.19
822.19	1773.54
822.36	1681.38
822.53	1656.81
822.70	1640.42
822.88	1718.25
823.05	1773.54
823.22	1712.10
823.39	1710.05
823.56	1669.09
823.74	1806.31
823.91	1636.33
824.08	1652.71
824.25	1695.72
824.42	1730.53
824.60	1662.95
824.77	1783.78
824.94	1677.29
825.11	1802.21
825.28	1640.42
825.45	1771.49
825.63	1712.10
825.80	1624.04
825.97	1648.61
826.14	1763.30
826.31	1687.53
826.48	1724.39
826.66	1757.16
826.83	1773.54
827.00	1728.49
827.17	1679.33
827.34	1748.97
827.51	1687.53
827.69	1693.67
827.86	1554.41
828.03	1695.72
828.20	1714.15
828.37	1730.53
828.54	1728.49
828.71	1755.11
828.89	1812.45
829.06	1738.73
829.23	1761.25
829.40	1712.10
829.57	1673.19
829.74	1691.62
829.91	1701.86
830.09	1714.15
830.26	1742.82
830.43	1771.49
830.60	1695.72
830.77	1701.86
830.94	1845.22
831.11	1810.40
831.28	1689.57
831.46	1724.39
831.63	1654.76
831.80	1748.97
831.97	1679.33
832.14	1757.16
832.31	1791.97
832.48	1716.20
832.65	1771.49
832.82	1673.19
832.99	1765.35
833.17	1636.33
833.34	1816.55
833.51	1746.92
833.68	1632.23
833.85	1742.82
834.02	1583.08
834.19	1718.25
834.36	1744.87
834.53	1730.53
834.70	1751.01
834.87	1734.63
835.04	1650.66
835.22	1654.76
835.39	1710.05
835.56	1638.38
835.73	1691.62
835.90	1783.78
836.07	1689.57
836.24	1787.88
836.41	1697.77
836.58	1654.76
836.75	1787.88
836.92	1767.40
837.09	1697.77
837.26	1808.36
837.43	1771.49
837.60	1753.06
837.77	1712.10
837.94	1794.02
838.12	1751.01
838.29	1744.87
838.46	1673.19
838.63	1644.52
838.80	1738.73
838.97	1804.26
839.14	1722.34
839.31	1726.44
839.48	1757.16
839.65	1654.76
839.82	1812.45
839.99	1722.34
840.16	1789.92
840.33	1683.43
840.50	1732.58
840.67	1642.47
840.84	1605.61
841.01	1738.73
841.18	1607.66
841.35	1683.43
841.52	1796.07
841.69	1814.50
841.86	1736.68
842.03	1691.62
842.20	1705.96
842.37	1759.21
842.54	1640.42
842.71	1703.91
842.88	1667.05
843.05	1828.84
843.22	1703.91
843.39	1691.62
843.56	1687.53
843.73	1687.53
843.90	1742.82
844.07	1787.88
844.24	1789.92
844.41	1789.92
844.58	1665.00
844.75	1683.43
844.92	1699.81
845.09	1746.92
845.26	1724.39
845.43	1763.30
845.60	1671.14
845.77	1773.54
845.94	1718.25
846.10	1767.40
846.27	1638.38
846.44	1634.28
846.61	1640.42
846.78	1722.34
846.95	1877.99
847.12	1720.29
847.29	1648.61
847.46	1720.29
847.63	1751.01
847.80	1705.96
847.97	1695.72
848.14	1816.55
848.31	1652.71
848.48	1699.81
848.65	1712.10
848.82	1683.43
848.98	1890.28
849.15	1734.63
849.32	1775.59
849.49	1714.15
849.66	1736.68
849.83	1708.01
850.00	1638.38
850.17	1726.44
850.34	1652.71
850.51	1742.82
850.68	1632.23
850.85	1855.46
851.01	1791.97
851.18	1798.12
851.35	1673.19
851.52	1714.15
851.69	1816.55
851.86	1687.53
852.03	1675.24
852.20	1744.87
852.37	1730.53
852.53	1601.51
852.70	1720.29
852.87	1732.58
853.04	1794.02
853.21	1675.24
853.38	1785.83
853.55	1820.64
853.72	1796.07
853.89	1634.28
854.05	1632.23
854.22	1648.61
854.39	1689.57
854.56	1769.44
854.73	1753.06
854.90	1685.48
855.07	1710.05
855.23	1689.57
855.40	1679.33
855.57	1652.71
855.74	1591.27
855.91	1853.41
856.08	1642.47
856.25	1628.14
856.41	1652.71
856.58	1701.86
856.75	1689.57
856.92	1695.72
857.09	1755.11
857.26	1648.61
857.42	1732.58
857.59	1726.44
857.76	1726.44
857.93	1732.58
858.10	1720.29
858.27	1675.24
858.43	1701.86
858.60	1703.91
858.77	1660.90
858.94	1665.00
859.11	1783.78
859.27	1736.68
859.44	1691.62
859.61	1798.12
859.78	1714.15
859.95	1757.16
860.12	1705.96
860.28	1777.64
860.45	1820.64
860.62	1667.05
860.79	1708.01
860.95	1763.30
861.12	1701.86
861.29	1720.29
861.46	1703.91
861.63	1714.15
861.79	1652.71
861.96	1662.95
862.13	1769.44
862.30	1732.58
862.47	1667.05
862.63	1689.57
862.80	1742.82
862.97	1769.44
863.14	1691.62
863.30	1732.58
863.47	1656.81
863.64	1791.97
863.81	1722.34
863.97	1693.67
864.14	1718.25
864.31	1689.57
864.48	1726.44
864.65	1656.81
864.81	1775.59
864.98	1683.43
865.15	1763.30
865.32	1734.63
865.48	1767.40
865.65	1796.07
865.82	1736.68
865.98	1660.90
866.15	1773.54
866.32	1669.09
866.49	1685.48
866.65	1718.25
866.82	1677.29
866.99	1695.72
867.16	1681.38
867.32	1724.39
867.49	1714.15
867.66	1671.14
867.83	1652.71
867.99	1650.66
868.16	1705.96
868.33	1660.90
868.49	1718.25
868.66	1744.87
868.83	1667.05
868.99	1728.49
869.16	1732.58
869.33	1841.12
869.50	1718.25
869.66	1740.77
869.83	1685.48
870.00	1708.01
870.16	1779.68
870.33	1650.66
870.50	1755.11
870.66	1730.53
870.83	1789.92
871.00	1626.09
871.17	1738.73
871.33	1716.20
871.50	1732.58
871.67	1708.01
871.83	1722.34
872.00	1757.16
872.17	1718.25
872.33	1824.74
872.50	1806.31
872.67	1748.97
872.83	1753.06
873.00	1699.81
873.17	1724.39
873.33	1734.63
873.50	1742.82
873.67	1748.97
873.83	1701.86
874.00	1730.53
874.16	1763.30
874.33	1687.53
874.50	1689.57
874.66	1738.73
874.83	1701.86
875.00	1730.53
875.16	1761.25
875.33	1820.64
875.50	1599.46
875.66	1673.19
875.83	1656.81
875.99	1708.01
876.16	1755.11
876.33	1681.38
876.49	1646.57
876.66	1705.96
876.83	1689.57
876.99	1677.29
877.16	1761.25
877.32	1726.44
877.49	1693.67
877.66	1761.25
877.82	1773.54
877.99	1767.40
878.15	1816.55
878.32	1697.77
878.49	1730.53
878.65	1689.57
878.82	1796.07
878.98	1689.57
879.15	1736.68
879.32	1757.16
879.48	1738.73
879.65	1705.96
879.81	1595.37
879.98	1615.85
880.15	1677.29
880.31	1671.14
880.48	1740.77
880.64	1759.21
880.81	1699.81
880.97	1812.45
881.14	1705.96
881.31	1650.66
881.47	1828.84
881.64	1742.82
881.80	1656.81
881.97	1685.48
882.13	1796.07
882.30	1691.62
882.47	1673.19
882.63	1652.71
882.80	1755.11
882.96	1640.42
883.13	1705.96
883.29	1779.68
883.46	1718.25
883.62	1861.60
883.79	1708.01
883.95	1710.05
884.12	1646.57
884.29	1746.92
884.45	1708.01
884.62	1726.44
884.78	1665.00
884.95	1804.26
885.11	1607.66
885.28	1767.40
885.44	1701.86
885.61	1753.06
885.77	1794.02
885.94	1675.24
886.10	1718.25
886.27	1673.19
886.43	1781.73
886.60	1812.45
886.76	1718.25
886.93	1642.47
887.09	1740.77
887.26	1648.61
887.42	1718.25
887.59	1775.59
887.75	1812.45
887.92	1814.50
888.08	1802.21
888.25	1787.88
888.41	1757.16
888.58	1802.21
888.74	1681.38
888.91	1671.14
>>>>>End Processed Spectral Data<<<<<
