SpectraSuite Data File
++++++++++++++++++++++++++++++++++++
Date: Mon Jun 06 14:29:57 CEST 2016
User: root
Dark Spectrum Present: No
Reference Spectrum Present: No
Number of Sampled Component Spectra: 1
Spectrometers: USB4C02835
Integration Time (usec): 100000 (USB4C02835)
Spectra Averaged: 1 (USB4C02835)
Boxcar Smoothing: 0 (USB4C02835)
Correct for Electrical Dark: No (USB4C02835)
Strobe/Lamp Enabled: No (USB4C02835)
Correct for Detector Non-linearity: No (USB4C02835)
Correct for Stray Light: No (USB4C02835)
Number of Pixels in Processed Spectrum: 3648
>>>>>Begin Processed Spectral Data<<<<<
177.47	1452.01
177.69	1452.01
177.91	1452.01
178.13	1439.72
178.36	1560.55
178.58	1624.04
178.80	1665.00
179.02	1619.94
179.24	1708.01
179.46	1660.90
179.68	1724.39
179.90	1691.62
180.13	1644.52
180.35	1671.14
180.57	1708.01
180.79	1705.96
181.01	1701.86
181.23	1730.53
181.45	1763.30
181.67	1703.91
181.90	1802.21
182.12	1624.04
182.34	1568.74
182.56	1642.47
182.78	1828.84
183.00	1708.01
183.22	1787.88
183.44	1669.09
183.66	1746.92
183.89	1789.92
184.11	1755.11
184.33	1765.35
184.55	1705.96
184.77	1765.35
184.99	1699.81
185.21	1681.38
185.43	1775.59
185.65	1615.85
185.87	1755.11
186.10	1751.01
186.32	1812.45
186.54	1794.02
186.76	1730.53
186.98	1710.05
187.20	1712.10
187.42	1599.46
187.64	1718.25
187.86	1699.81
188.08	1736.68
188.30	1716.20
188.52	1734.63
188.75	1800.16
188.97	1775.59
189.19	1646.57
189.41	1742.82
189.63	1705.96
189.85	1638.38
190.07	1644.52
190.29	1640.42
190.51	1736.68
190.73	1628.14
190.95	1773.54
191.17	1624.04
191.39	1675.24
191.61	1728.49
191.84	1720.29
192.06	1697.77
192.28	1613.80
192.50	1871.84
192.72	1654.76
192.94	1685.48
193.16	1826.79
193.38	1746.92
193.60	1634.28
193.82	1740.77
194.04	1798.12
194.26	1667.05
194.48	1730.53
194.70	1673.19
194.92	1746.92
195.14	1742.82
195.36	1724.39
195.58	1716.20
195.80	1652.71
196.02	1656.81
196.24	1736.68
196.46	1738.73
196.69	1673.19
196.91	1818.60
197.13	1708.01
197.35	1660.90
197.57	1802.21
197.79	1714.15
198.01	1708.01
198.23	1638.38
198.45	1753.06
198.67	1597.42
198.89	1650.66
199.11	1624.04
199.33	1640.42
199.55	1535.98
199.77	1685.48
199.99	1783.78
200.21	1736.68
200.43	1669.09
200.65	1617.90
200.87	1533.93
201.09	1660.90
201.31	1716.20
201.53	1763.30
201.75	1697.77
201.97	1644.52
202.19	1771.49
202.41	1718.25
202.63	1779.68
202.85	1761.25
203.07	1699.81
203.29	1652.71
203.51	1679.33
203.73	1615.85
203.95	1791.97
204.17	1724.39
204.39	1728.49
204.61	1679.33
204.83	1628.14
205.05	1701.86
205.27	1714.15
205.49	1863.65
205.71	1695.72
205.93	1722.34
206.15	1689.57
206.37	1632.23
206.59	1669.09
206.81	1609.70
207.03	1683.43
207.25	1585.13
207.47	1722.34
207.69	1712.10
207.91	1738.73
208.13	1773.54
208.34	1695.72
208.56	1646.57
208.78	1675.24
209.00	1632.23
209.22	1587.18
209.44	1699.81
209.66	1710.05
209.88	1667.05
210.10	1687.53
210.32	1646.57
210.54	1734.63
210.76	1679.33
210.98	1683.43
211.20	1554.41
211.42	1675.24
211.64	1771.49
211.86	1736.68
212.08	1718.25
212.30	1710.05
212.52	1726.44
212.74	1734.63
212.96	1665.00
213.17	1736.68
213.39	1691.62
213.61	1724.39
213.83	1689.57
214.05	1624.04
214.27	1759.21
214.49	1650.66
214.71	1650.66
214.93	1765.35
215.15	1699.81
215.37	1755.11
215.59	1583.08
215.81	1728.49
216.03	1681.38
216.24	1712.10
216.46	1734.63
216.68	1701.86
216.90	1820.64
217.12	1732.58
217.34	1720.29
217.56	1693.67
217.78	1689.57
218.00	1787.88
218.22	1738.73
218.44	1718.25
218.66	1771.49
218.87	1744.87
219.09	1679.33
219.31	1773.54
219.53	1751.01
219.75	1720.29
219.97	1652.71
220.19	1705.96
220.41	1685.48
220.63	1746.92
220.85	1689.57
221.06	1658.85
221.28	1763.30
221.50	1656.81
221.72	1673.19
221.94	1640.42
222.16	1722.34
222.38	1740.77
222.60	1722.34
222.82	1669.09
223.03	1705.96
223.25	1673.19
223.47	1705.96
223.69	1806.31
223.91	1710.05
224.13	1662.95
224.35	1644.52
224.57	1730.53
224.78	1699.81
225.00	1671.14
225.22	1705.96
225.44	1691.62
225.66	1681.38
225.88	1673.19
226.10	1685.48
226.32	1693.67
226.53	1734.63
226.75	1726.44
226.97	1679.33
227.19	1665.00
227.41	1677.29
227.63	1644.52
227.85	1605.61
228.06	1732.58
228.28	1617.90
228.50	1773.54
228.72	1572.84
228.94	1726.44
229.16	1599.46
229.37	1693.67
229.59	1691.62
229.81	1671.14
230.03	1665.00
230.25	1681.38
230.47	1619.94
230.69	1603.56
230.90	1773.54
231.12	1644.52
231.34	1697.77
231.56	1665.00
231.78	1628.14
232.00	1697.77
232.21	1697.77
232.43	1701.86
232.65	1624.04
232.87	1757.16
233.09	1615.85
233.30	1693.67
233.52	1732.58
233.74	1640.42
233.96	1779.68
234.18	1669.09
234.40	1599.46
234.61	1859.56
234.83	1615.85
235.05	1695.72
235.27	1777.64
235.49	1740.77
235.70	1693.67
235.92	1855.46
236.14	1769.44
236.36	1802.21
236.58	1632.23
236.79	1736.68
237.01	1640.42
237.23	1650.66
237.45	1775.59
237.67	1703.91
237.88	1734.63
238.10	1843.17
238.32	1693.67
238.54	1695.72
238.76	1671.14
238.97	1634.28
239.19	1605.61
239.41	1730.53
239.63	1755.11
239.85	1673.19
240.06	1724.39
240.28	1708.01
240.50	1746.92
240.72	1658.85
240.93	1662.95
241.15	1755.11
241.37	1703.91
241.59	1802.21
241.81	1660.90
242.02	1679.33
242.24	1699.81
242.46	1773.54
242.68	1624.04
242.89	1642.47
243.11	1845.22
243.33	1714.15
243.55	1722.34
243.76	1710.05
243.98	1630.18
244.20	1697.77
244.42	1708.01
244.64	1736.68
244.85	1632.23
245.07	1597.42
245.29	1824.74
245.51	1716.20
245.72	1744.87
245.94	1771.49
246.16	1761.25
246.38	1722.34
246.59	1675.24
246.81	1679.33
247.03	1632.23
247.24	1621.99
247.46	1603.56
247.68	1732.58
247.90	1640.42
248.11	1665.00
248.33	1685.48
248.55	1718.25
248.77	1654.76
248.98	1722.34
249.20	1810.40
249.42	1662.95
249.64	1759.21
249.85	1699.81
250.07	1693.67
250.29	1708.01
250.50	1660.90
250.72	1656.81
250.94	1701.86
251.16	1763.30
251.37	1769.44
251.59	1755.11
251.81	1714.15
252.02	1802.21
252.24	1656.81
252.46	1726.44
252.68	1626.09
252.89	1697.77
253.11	1624.04
253.33	1837.03
253.54	1796.07
253.76	1681.38
253.98	1724.39
254.20	1656.81
254.41	1636.33
254.63	1685.48
254.85	1601.51
255.06	1724.39
255.28	1742.82
255.50	1675.24
255.71	1697.77
255.93	1583.08
256.15	1697.77
256.36	1740.77
256.58	1685.48
256.80	1703.91
257.02	1714.15
257.23	1665.00
257.45	1683.43
257.67	1673.19
257.88	1609.70
258.10	1753.06
258.32	1710.05
258.53	1695.72
258.75	1759.21
258.97	1628.14
259.18	1687.53
259.40	1691.62
259.62	1796.07
259.83	1705.96
260.05	1703.91
260.27	1968.10
260.48	1804.26
260.70	1650.66
260.92	1728.49
261.13	1689.57
261.35	1726.44
261.57	1746.92
261.78	1574.89
262.00	1642.47
262.22	1828.84
262.43	1593.32
262.65	1701.86
262.86	1636.33
263.08	1877.99
263.30	1642.47
263.51	1654.76
263.73	1658.85
263.95	1787.88
264.16	1630.18
264.38	1695.72
264.60	1746.92
264.81	1718.25
265.03	1746.92
265.25	1751.01
265.46	1671.14
265.68	1781.73
265.89	1671.14
266.11	1593.32
266.33	1714.15
266.54	1789.92
266.76	1746.92
266.98	1728.49
267.19	1798.12
267.41	1740.77
267.62	1679.33
267.84	1644.52
268.06	1652.71
268.27	1769.44
268.49	1769.44
268.70	1767.40
268.92	1646.57
269.14	1726.44
269.35	1662.95
269.57	1689.57
269.79	1783.78
270.00	1724.39
270.22	1798.12
270.43	1685.48
270.65	1589.22
270.87	1677.29
271.08	1837.03
271.30	1695.72
271.51	1662.95
271.73	1673.19
271.95	1806.31
272.16	1679.33
272.38	1755.11
272.59	1611.75
272.81	1751.01
273.02	1621.99
273.24	1744.87
273.46	1740.77
273.67	1656.81
273.89	1640.42
274.10	1648.61
274.32	1746.92
274.54	1695.72
274.75	1665.00
274.97	1701.86
275.18	1734.63
275.40	1710.05
275.61	1691.62
275.83	1720.29
276.05	1652.71
276.26	1685.48
276.48	1781.73
276.69	1673.19
276.91	1718.25
277.12	1810.40
277.34	1775.59
277.55	1785.83
277.77	1687.53
277.99	1710.05
278.20	1658.85
278.42	1650.66
278.63	1665.00
278.85	1722.34
279.06	1603.56
279.28	1763.30
279.49	1753.06
279.71	1814.50
279.93	1703.91
280.14	1685.48
280.36	1677.29
280.57	1814.50
280.79	1757.16
281.00	1646.57
281.22	1726.44
281.43	1828.84
281.65	1574.89
281.86	1660.90
282.08	1720.29
282.29	1761.25
282.51	1714.15
282.73	1599.46
282.94	1628.14
283.16	1796.07
283.37	1773.54
283.59	1697.77
283.80	1779.68
284.02	1712.10
284.23	1722.34
284.45	1691.62
284.66	1734.63
284.88	1607.66
285.09	1675.24
285.31	1783.78
285.52	1703.91
285.74	1544.17
285.95	1806.31
286.17	1675.24
286.38	1716.20
286.60	1648.61
286.81	1669.09
287.03	1701.86
287.24	1722.34
287.46	1593.32
287.67	1728.49
287.89	1843.17
288.10	1712.10
288.32	1775.59
288.53	1734.63
288.75	1669.09
288.96	1757.16
289.18	1650.66
289.39	1673.19
289.61	1726.44
289.82	1804.26
290.04	1841.12
290.25	1607.66
290.47	1687.53
290.68	1693.67
290.90	1720.29
291.11	1673.19
291.33	1716.20
291.54	1595.37
291.76	1654.76
291.97	1757.16
292.18	1802.21
292.40	1609.70
292.61	1730.53
292.83	1738.73
293.04	1746.92
293.26	1726.44
293.47	1730.53
293.69	1593.32
293.90	1710.05
294.12	1722.34
294.33	1689.57
294.55	1740.77
294.76	1771.49
294.97	1759.21
295.19	1800.16
295.40	1740.77
295.62	1712.10
295.83	1746.92
296.05	1619.94
296.26	1736.68
296.48	1648.61
296.69	1634.28
296.90	1656.81
297.12	1796.07
297.33	1877.99
297.55	1630.18
297.76	1724.39
297.98	1773.54
298.19	1746.92
298.41	1714.15
298.62	1654.76
298.83	1861.60
299.05	1789.92
299.26	1681.38
299.48	1632.23
299.69	1767.40
299.90	1759.21
300.12	1675.24
300.33	1726.44
300.55	1689.57
300.76	1732.58
300.98	1642.47
301.19	1726.44
301.40	1665.00
301.62	1636.33
301.83	1765.35
302.05	1628.14
302.26	1671.14
302.47	1626.09
302.69	1613.80
302.90	1710.05
303.12	1630.18
303.33	1779.68
303.54	1734.63
303.76	1687.53
303.97	1740.77
304.19	1777.64
304.40	1613.80
304.61	1710.05
304.83	1757.16
305.04	1736.68
305.26	1726.44
305.47	1665.00
305.68	1738.73
305.90	1662.95
306.11	1744.87
306.33	1679.33
306.54	1656.81
306.75	1660.90
306.97	1624.04
307.18	1708.01
307.39	1650.66
307.61	1689.57
307.82	1681.38
308.04	1718.25
308.25	1697.77
308.46	1712.10
308.68	1724.39
308.89	1683.43
309.10	1785.83
309.32	1665.00
309.53	1638.38
309.74	1716.20
309.96	1691.62
310.17	1712.10
310.39	1705.96
310.60	1705.96
310.81	1693.67
311.03	1687.53
311.24	1732.58
311.45	1624.04
311.67	1822.69
311.88	1738.73
312.09	1660.90
312.31	1701.86
312.52	1718.25
312.73	1716.20
312.95	1562.60
313.16	1626.09
313.37	1691.62
313.59	1726.44
313.80	1755.11
314.01	1734.63
314.23	1681.38
314.44	1697.77
314.65	1636.33
314.87	1613.80
315.08	1691.62
315.29	1679.33
315.51	1613.80
315.72	1628.14
315.93	1808.36
316.15	1759.21
316.36	1638.38
316.57	1683.43
316.79	1755.11
317.00	1669.09
317.21	1691.62
317.43	1578.98
317.64	1720.29
317.85	1654.76
318.07	1671.14
318.28	1667.05
318.49	1828.84
318.70	1886.18
318.92	1832.93
319.13	1773.54
319.34	1900.52
319.56	1771.49
319.77	1763.30
319.98	1705.96
320.20	1734.63
320.41	1738.73
320.62	1718.25
320.83	1689.57
321.05	1800.16
321.26	1740.77
321.47	1644.52
321.69	1714.15
321.90	1589.22
322.11	1642.47
322.32	1677.29
322.54	1724.39
322.75	1732.58
322.96	1804.26
323.18	1656.81
323.39	1630.18
323.60	1646.57
323.81	1789.92
324.03	1681.38
324.24	1740.77
324.45	1677.29
324.66	1699.81
324.88	1722.34
325.09	1761.25
325.30	1708.01
325.52	1705.96
325.73	1796.07
325.94	1681.38
326.15	1636.33
326.37	1615.85
326.58	1798.12
326.79	1689.57
327.00	1658.85
327.22	1742.82
327.43	1640.42
327.64	1656.81
327.85	1759.21
328.07	1697.77
328.28	1708.01
328.49	1712.10
328.70	1703.91
328.92	1701.86
329.13	1742.82
329.34	1748.97
329.55	1783.78
329.76	1722.34
329.98	1662.95
330.19	1751.01
330.40	1761.25
330.61	1701.86
330.83	1755.11
331.04	1708.01
331.25	1746.92
331.46	1681.38
331.68	1658.85
331.89	1681.38
332.10	1718.25
332.31	1652.71
332.52	1667.05
332.74	1710.05
332.95	1695.72
333.16	1710.05
333.37	1753.06
333.58	1720.29
333.80	1724.39
334.01	1560.55
334.22	1644.52
334.43	1652.71
334.64	1712.10
334.86	1611.75
335.07	1615.85
335.28	1755.11
335.49	1595.37
335.70	1726.44
335.92	1787.88
336.13	1834.98
336.34	1673.19
336.55	1679.33
336.76	1626.09
336.98	1581.03
337.19	1660.90
337.40	1767.40
337.61	1865.70
337.82	1708.01
338.04	1736.68
338.25	1640.42
338.46	1703.91
338.67	1642.47
338.88	1568.74
339.09	1705.96
339.31	1691.62
339.52	1720.29
339.73	1562.60
339.94	1689.57
340.15	1753.06
340.36	1650.66
340.58	1630.18
340.79	1609.70
341.00	1718.25
341.21	1621.99
341.42	1791.97
341.63	1642.47
341.85	1673.19
342.06	1724.39
342.27	1699.81
342.48	1751.01
342.69	1597.42
342.90	1738.73
343.12	1681.38
343.33	1624.04
343.54	1828.84
343.75	1748.97
343.96	1683.43
344.17	1681.38
344.38	1705.96
344.60	1599.46
344.81	1687.53
345.02	1638.38
345.23	1722.34
345.44	1789.92
345.65	1773.54
345.86	1718.25
346.07	1681.38
346.29	1736.68
346.50	1726.44
346.71	1705.96
346.92	1789.92
347.13	1865.70
347.34	1679.33
347.55	1687.53
347.76	1687.53
347.98	1585.13
348.19	1595.37
348.40	1718.25
348.61	1665.00
348.82	1767.40
349.03	1748.97
349.24	1658.85
349.45	1775.59
349.66	1691.62
349.88	1591.27
350.09	1632.23
350.30	1837.03
350.51	1861.60
350.72	1708.01
350.93	1673.19
351.14	1697.77
351.35	1738.73
351.56	1718.25
351.77	1695.72
351.99	1679.33
352.20	1802.21
352.41	1781.73
352.62	1574.89
352.83	1708.01
353.04	1685.48
353.25	1615.85
353.46	1761.25
353.67	1744.87
353.88	1609.70
354.09	1746.92
354.30	1691.62
354.52	1708.01
354.73	1679.33
354.94	1673.19
355.15	1652.71
355.36	1791.97
355.57	1669.09
355.78	1732.58
355.99	1642.47
356.20	1712.10
356.41	1759.21
356.62	1781.73
356.83	1740.77
357.04	1769.44
357.25	1632.23
357.46	1730.53
357.68	1638.38
357.89	1699.81
358.10	1671.14
358.31	1675.24
358.52	1705.96
358.73	1671.14
358.94	1558.50
359.15	1611.75
359.36	1738.73
359.57	1638.38
359.78	1742.82
359.99	1699.81
360.20	1648.61
360.41	1671.14
360.62	1679.33
360.83	1767.40
361.04	1665.00
361.25	1746.92
361.46	1794.02
361.67	1730.53
361.88	1753.06
362.09	1753.06
362.30	1681.38
362.51	1697.77
362.72	1746.92
362.93	1722.34
363.14	1730.53
363.35	1730.53
363.56	1660.90
363.78	1796.07
363.99	1802.21
364.20	1705.96
364.41	1771.49
364.62	1806.31
364.83	1693.67
365.04	1722.34
365.25	1652.71
365.46	1773.54
365.67	1597.42
365.88	1617.90
366.09	1699.81
366.30	1673.19
366.51	1730.53
366.72	1640.42
366.93	1738.73
367.14	1726.44
367.35	1787.88
367.56	1681.38
367.77	1744.87
367.98	1640.42
368.18	1720.29
368.39	1720.29
368.60	1617.90
368.81	1732.58
369.02	1730.53
369.23	1699.81
369.44	1607.66
369.65	1722.34
369.86	1744.87
370.07	1753.06
370.28	1566.70
370.49	1779.68
370.70	1769.44
370.91	1626.09
371.12	1630.18
371.33	1703.91
371.54	1671.14
371.75	1861.60
371.96	1546.22
372.17	1679.33
372.38	1626.09
372.59	1753.06
372.80	1746.92
373.01	1710.05
373.22	1691.62
373.43	1654.76
373.64	1652.71
373.85	1712.10
374.06	1744.87
374.26	1728.49
374.47	1755.11
374.68	1775.59
374.89	1689.57
375.10	1617.90
375.31	1802.21
375.52	1730.53
375.73	1722.34
375.94	1626.09
376.15	1732.58
376.36	1708.01
376.57	1632.23
376.78	1636.33
376.99	1703.91
377.20	1744.87
377.40	1662.95
377.61	1845.22
377.82	1656.81
378.03	1785.83
378.24	1687.53
378.45	1685.48
378.66	1708.01
378.87	1599.46
379.08	1617.90
379.29	1648.61
379.50	1705.96
379.71	1628.14
379.91	1755.11
380.12	1689.57
380.33	1714.15
380.54	1765.35
380.75	1693.67
380.96	1705.96
381.17	1779.68
381.38	1728.49
381.59	1742.82
381.80	1652.71
382.00	1851.36
382.21	1755.11
382.42	1751.01
382.63	1804.26
382.84	1826.79
383.05	1773.54
383.26	1781.73
383.47	1718.25
383.68	1720.29
383.88	1736.68
384.09	1699.81
384.30	1824.74
384.51	1757.16
384.72	1640.42
384.93	1621.99
385.14	1654.76
385.35	1734.63
385.55	1636.33
385.76	1777.64
385.97	1662.95
386.18	1671.14
386.39	1687.53
386.60	1714.15
386.81	1712.10
387.02	1660.90
387.22	1621.99
387.43	1761.25
387.64	1771.49
387.85	1863.65
388.06	2176.99
388.27	4220.86
388.48	6678.43
388.68	7993.22
388.89	9545.58
389.10	9799.53
389.31	8417.15
389.52	7454.61
389.73	6524.83
389.93	6221.73
390.14	5765.03
390.35	5117.87
390.56	4534.20
390.77	3870.66
390.98	3012.56
391.18	2453.47
391.39	2074.59
391.60	1841.12
391.81	1820.64
392.02	1685.48
392.23	1820.64
392.43	1732.58
392.64	1798.12
392.85	1726.44
393.06	1763.30
393.27	1691.62
393.47	1730.53
393.68	1724.39
393.89	1667.05
394.10	1775.59
394.31	1732.58
394.52	1687.53
394.72	1650.66
394.93	1771.49
395.14	1595.37
395.35	1681.38
395.56	1566.70
395.76	1722.34
395.97	1759.21
396.18	1820.64
396.39	1738.73
396.60	2045.92
396.80	1904.61
397.01	1877.99
397.22	1810.40
397.43	1763.30
397.64	1775.59
397.84	1814.50
398.05	1830.88
398.26	1691.62
398.47	1777.64
398.67	1728.49
398.88	1724.39
399.09	1716.20
399.30	1712.10
399.51	1751.01
399.71	1695.72
399.92	1740.77
400.13	1695.72
400.34	1617.90
400.54	1667.05
400.75	1800.16
400.96	1697.77
401.17	1757.16
401.37	1716.20
401.58	1673.19
401.79	1742.82
402.00	1869.80
402.21	1984.48
402.41	1964.00
402.62	2017.25
402.83	2027.49
403.04	1972.19
403.24	2144.22
403.45	1789.92
403.66	1916.90
403.87	1839.08
404.07	1865.70
404.28	1935.33
404.49	1933.28
404.70	1785.83
404.90	1748.97
405.11	1761.25
405.32	1695.72
405.52	1693.67
405.73	1632.23
405.94	1628.14
406.15	1775.59
406.35	1740.77
406.56	1697.77
406.77	1701.86
406.98	1724.39
407.18	1648.61
407.39	1787.88
407.60	1722.34
407.80	1779.68
408.01	1757.16
408.22	1736.68
408.43	1632.23
408.63	1775.59
408.84	1730.53
409.05	1703.91
409.25	1611.75
409.46	1570.79
409.67	1689.57
409.88	1712.10
410.08	1753.06
410.29	1732.58
410.50	1671.14
410.70	1640.42
410.91	1669.09
411.12	1665.00
411.32	1671.14
411.53	1769.44
411.74	1777.64
411.95	1775.59
412.15	1832.93
412.36	1765.35
412.57	1816.55
412.77	1818.60
412.98	1685.48
413.19	1636.33
413.39	1785.83
413.60	1730.53
413.81	1757.16
414.01	1644.52
414.22	1781.73
414.43	1738.73
414.63	1673.19
414.84	1785.83
415.05	1693.67
415.25	1650.66
415.46	1665.00
415.67	1705.96
415.87	1755.11
416.08	1718.25
416.29	1669.09
416.49	1701.86
416.70	1716.20
416.91	1714.15
417.11	1673.19
417.32	1814.50
417.53	1724.39
417.73	1800.16
417.94	1673.19
418.15	1695.72
418.35	1744.87
418.56	1628.14
418.77	1851.36
418.97	1697.77
419.18	1699.81
419.38	1591.27
419.59	1695.72
419.80	1759.21
420.00	1679.33
420.21	1740.77
420.42	1730.53
420.62	1718.25
420.83	1667.05
421.04	1796.07
421.24	1679.33
421.45	1728.49
421.65	1708.01
421.86	1757.16
422.07	1710.05
422.27	1763.30
422.48	1767.40
422.69	1615.85
422.89	1746.92
423.10	1665.00
423.30	1585.13
423.51	1691.62
423.72	1693.67
423.92	1701.86
424.13	1675.24
424.33	1736.68
424.54	1767.40
424.75	1718.25
424.95	1765.35
425.16	1691.62
425.36	1665.00
425.57	1814.50
425.78	1742.82
425.98	1773.54
426.19	1710.05
426.39	1710.05
426.60	1710.05
426.81	1794.02
427.01	1710.05
427.22	1683.43
427.42	1609.70
427.63	1699.81
427.83	1679.33
428.04	1808.36
428.25	1746.92
428.45	1808.36
428.66	1730.53
428.86	1701.86
429.07	1718.25
429.28	1683.43
429.48	1765.35
429.69	1695.72
429.89	1710.05
430.10	1703.91
430.30	1724.39
430.51	1830.88
430.71	1656.81
430.92	1708.01
431.13	1667.05
431.33	1789.92
431.54	1689.57
431.74	1755.11
431.95	1781.73
432.15	1697.77
432.36	1689.57
432.56	1705.96
432.77	1751.01
432.98	1787.88
433.18	1755.11
433.39	1675.24
433.59	1720.29
433.80	1824.74
434.00	1859.56
434.21	1716.20
434.41	1671.14
434.62	1861.60
434.82	1656.81
435.03	1654.76
435.23	1736.68
435.44	1628.14
435.64	1718.25
435.85	1728.49
436.06	1630.18
436.26	1808.36
436.47	1724.39
436.67	1708.01
436.88	1732.58
437.08	1744.87
437.29	1865.70
437.49	1665.00
437.70	1839.08
437.90	1677.29
438.11	1767.40
438.31	1839.08
438.52	1896.42
438.72	1861.60
438.93	1810.40
439.13	1757.16
439.34	1808.36
439.54	1742.82
439.75	1841.12
439.95	1730.53
440.16	1759.21
440.36	1677.29
440.57	1726.44
440.77	1687.53
440.98	1703.91
441.18	1681.38
441.39	1665.00
441.59	1662.95
441.80	1886.18
442.00	1695.72
442.21	1798.12
442.41	1679.33
442.62	1820.64
442.82	1708.01
443.02	1736.68
443.23	1712.10
443.43	1742.82
443.64	1822.69
443.84	1671.14
444.05	1886.18
444.25	1748.97
444.46	1703.91
444.66	1716.20
444.87	1785.83
445.07	1638.38
445.28	1673.19
445.48	1781.73
445.69	1820.64
445.89	1886.18
446.09	1693.67
446.30	1976.29
446.50	2598.87
446.71	3583.95
446.91	4253.63
447.12	4827.06
447.32	4788.15
447.53	4104.13
447.73	3788.74
447.93	3559.37
448.14	3200.98
448.34	3098.58
448.55	2959.31
448.75	2674.65
448.96	2662.36
449.16	2365.40
449.36	2252.77
449.57	2023.39
449.77	1955.81
449.98	1867.75
450.18	1687.53
450.39	1802.21
450.59	1765.35
450.79	1791.97
451.00	1724.39
451.20	1779.68
451.41	1701.86
451.61	1779.68
451.81	1685.48
452.02	1808.36
452.22	1685.48
452.43	1714.15
452.63	1728.49
452.84	1820.64
453.04	1662.95
453.24	1748.97
453.45	1732.58
453.65	1669.09
453.86	1658.85
454.06	1783.78
454.26	1753.06
454.47	1632.23
454.67	1826.79
454.87	1728.49
455.08	1734.63
455.28	1820.64
455.49	1744.87
455.69	1662.95
455.89	1830.88
456.10	1839.08
456.30	1673.19
456.51	1822.69
456.71	1781.73
456.91	1703.91
457.12	1796.07
457.32	1759.21
457.52	1726.44
457.73	1777.64
457.93	1740.77
458.14	1656.81
458.34	1648.61
458.54	1837.03
458.75	1644.52
458.95	1763.30
459.15	1837.03
459.36	1736.68
459.56	1728.49
459.76	1806.31
459.97	1736.68
460.17	1734.63
460.37	1837.03
460.58	1673.19
460.78	1746.92
460.99	1640.42
461.19	1697.77
461.39	1693.67
461.60	1710.05
461.80	1726.44
462.00	1687.53
462.21	1730.53
462.41	1626.09
462.61	1722.34
462.82	1665.00
463.02	1744.87
463.22	1646.57
463.43	1818.60
463.63	1691.62
463.83	1779.68
464.04	1771.49
464.24	1695.72
464.44	1609.70
464.64	1699.81
464.85	1755.11
465.05	1863.65
465.25	1765.35
465.46	1773.54
465.66	1779.68
465.86	1679.33
466.07	1705.96
466.27	1683.43
466.47	1681.38
466.68	1652.71
466.88	1796.07
467.08	1748.97
467.29	1759.21
467.49	1787.88
467.69	1718.25
467.89	1722.34
468.10	1648.61
468.30	1621.99
468.50	1853.41
468.71	1800.16
468.91	1695.72
469.11	1849.32
469.31	1734.63
469.52	1683.43
469.72	1806.31
469.92	1931.23
470.13	1736.68
470.33	1722.34
470.53	1773.54
470.73	2138.08
470.94	2299.87
471.14	2267.10
471.34	2441.18
471.54	2328.54
471.75	2205.66
471.95	2056.16
472.15	2164.70
472.36	2058.21
472.56	2097.12
472.76	2076.64
472.96	1925.09
473.17	1939.43
473.37	1888.23
473.57	1789.92
473.77	1734.63
473.98	1755.11
474.18	1675.24
474.38	1894.37
474.58	1693.67
474.79	1683.43
474.99	1789.92
475.19	1839.08
475.39	1630.18
475.60	1708.01
475.80	1763.30
476.00	1775.59
476.20	1710.05
476.41	1718.25
476.61	1740.77
476.81	1796.07
477.01	1671.14
477.21	1849.32
477.42	1804.26
477.62	1744.87
477.82	1748.97
478.02	1779.68
478.23	1789.92
478.43	1660.90
478.63	1734.63
478.83	1646.57
479.03	1671.14
479.24	1820.64
479.44	1777.64
479.64	1714.15
479.84	1685.48
480.04	1701.86
480.25	1744.87
480.45	1699.81
480.65	1716.20
480.85	1753.06
481.06	1628.14
481.26	1681.38
481.46	1753.06
481.66	1755.11
481.86	1708.01
482.06	1804.26
482.27	1677.29
482.47	1728.49
482.67	1775.59
482.87	1720.29
483.07	1812.45
483.28	1753.06
483.48	1665.00
483.68	1695.72
483.88	1691.62
484.08	1605.61
484.29	1636.33
484.49	1662.95
484.69	1578.98
484.89	1794.02
485.09	1796.07
485.29	1787.88
485.50	1712.10
485.70	1691.62
485.90	1753.06
486.10	1720.29
486.30	1771.49
486.50	1736.68
486.71	1636.33
486.91	1775.59
487.11	1746.92
487.31	1675.24
487.51	1802.21
487.71	1691.62
487.91	1673.19
488.12	1677.29
488.32	1658.85
488.52	1742.82
488.72	1585.13
488.92	1775.59
489.12	1734.63
489.32	1726.44
489.53	1660.90
489.73	1687.53
489.93	1810.40
490.13	1712.10
490.33	1644.52
490.53	1859.56
490.73	1779.68
490.94	1595.37
491.14	1796.07
491.34	1894.37
491.54	2123.74
491.74	2531.29
491.94	2818.00
492.14	3018.71
492.34	3018.71
492.54	2791.38
492.75	2486.23
492.95	2414.56
493.15	2254.81
493.35	2322.40
493.55	2207.71
493.75	2107.36
493.95	2127.84
494.15	2050.02
494.35	1980.39
494.56	1751.01
494.76	1744.87
494.96	1832.93
495.16	1777.64
495.36	1724.39
495.56	1667.05
495.76	1705.96
495.96	1779.68
496.16	1691.62
496.36	1800.16
496.56	1763.30
496.77	1716.20
496.97	1742.82
497.17	1779.68
497.37	1656.81
497.57	1761.25
497.77	1818.60
497.97	1714.15
498.17	1714.15
498.37	1716.20
498.57	1822.69
498.77	1787.88
498.97	1796.07
499.17	1763.30
499.38	1777.64
499.58	1781.73
499.78	1779.68
499.98	1775.59
500.18	1718.25
500.38	1748.97
500.58	1931.23
500.78	2459.61
500.98	4466.62
501.18	5687.21
501.38	6743.96
501.58	6971.29
501.78	6584.22
501.98	5482.41
502.18	4757.43
502.38	4374.46
502.58	4251.58
502.78	3741.64
502.98	3557.32
503.18	3483.59
503.38	3059.67
503.59	2838.48
503.79	2721.75
503.99	2475.99
504.19	2248.67
504.39	2189.28
504.59	2189.28
504.79	2082.78
504.99	1986.53
505.19	1898.47
505.39	1853.41
505.59	2002.91
505.79	1832.93
505.99	1853.41
506.19	1796.07
506.39	1920.99
506.59	1705.96
506.79	1724.39
506.99	1802.21
507.19	1714.15
507.39	1824.74
507.59	1656.81
507.79	1697.77
507.99	1744.87
508.19	1685.48
508.39	1701.86
508.59	1734.63
508.79	1773.54
508.99	1910.75
509.19	1759.21
509.39	1794.02
509.59	1679.33
509.79	1730.53
509.99	1769.44
510.19	1775.59
510.39	1837.03
510.59	1822.69
510.79	1638.38
510.99	1656.81
511.19	1738.73
511.39	1873.89
511.59	1710.05
511.79	1796.07
511.99	1783.78
512.19	1810.40
512.38	1654.76
512.58	1660.90
512.78	1777.64
512.98	1841.12
513.18	1710.05
513.38	1732.58
513.58	1812.45
513.78	1652.71
513.98	1652.71
514.18	1701.86
514.38	1673.19
514.58	1712.10
514.78	1665.00
514.98	1644.52
515.18	1667.05
515.38	1677.29
515.58	1802.21
515.78	1705.96
515.98	1794.02
516.18	1716.20
516.38	1783.78
516.57	1710.05
516.77	1687.53
516.97	1763.30
517.17	1636.33
517.37	1740.77
517.57	1837.03
517.77	1744.87
517.97	1738.73
518.17	1798.12
518.37	1716.20
518.57	1759.21
518.77	1701.86
518.97	1669.09
519.16	1736.68
519.36	1726.44
519.56	1689.57
519.76	1703.91
519.96	1693.67
520.16	1845.22
520.36	1673.19
520.56	1761.25
520.76	1716.20
520.96	1734.63
521.16	1783.78
521.35	1791.97
521.55	1877.99
521.75	1638.38
521.95	1693.67
522.15	1757.16
522.35	1638.38
522.55	1769.44
522.75	1783.78
522.95	1697.77
523.14	1728.49
523.34	1708.01
523.54	1640.42
523.74	1785.83
523.94	1738.73
524.14	1677.29
524.34	1767.40
524.54	1796.07
524.73	1705.96
524.93	1744.87
525.13	1808.36
525.33	1699.81
525.53	1877.99
525.73	1726.44
525.93	1798.12
526.13	1804.26
526.32	1746.92
526.52	1824.74
526.72	1736.68
526.92	1746.92
527.12	1710.05
527.32	1695.72
527.52	1726.44
527.71	1726.44
527.91	1746.92
528.11	1720.29
528.31	1710.05
528.51	1636.33
528.71	1748.97
528.90	1703.91
529.10	1746.92
529.30	1726.44
529.50	1652.71
529.70	1734.63
529.90	1763.30
530.09	1757.16
530.29	1710.05
530.49	1669.09
530.69	1873.89
530.89	1697.77
531.09	1830.88
531.28	1642.47
531.48	1785.83
531.68	1767.40
531.88	1787.88
532.08	1812.45
532.28	1658.85
532.47	1720.29
532.67	1779.68
532.87	1773.54
533.07	1714.15
533.27	1763.30
533.46	1736.68
533.66	1769.44
533.86	1669.09
534.06	1738.73
534.26	1732.58
534.45	1685.48
534.65	1886.18
534.85	1697.77
535.05	1703.91
535.25	1777.64
535.44	1652.71
535.64	1736.68
535.84	1667.05
536.04	1732.58
536.24	1763.30
536.43	1687.53
536.63	1738.73
536.83	1638.38
537.03	1714.15
537.22	1734.63
537.42	1644.52
537.62	1683.43
537.82	1708.01
538.02	1712.10
538.21	1769.44
538.41	1898.47
538.61	1808.36
538.81	1734.63
539.00	1783.78
539.20	1673.19
539.40	1665.00
539.60	1773.54
539.79	1904.61
539.99	1730.53
540.19	1718.25
540.39	1685.48
540.58	1748.97
540.78	1759.21
540.98	1748.97
541.18	1779.68
541.37	1755.11
541.57	1744.87
541.77	1730.53
541.97	1726.44
542.16	1710.05
542.36	1642.47
542.56	1667.05
542.76	1834.98
542.95	1705.96
543.15	1755.11
543.35	1708.01
543.54	1710.05
543.74	1814.50
543.94	1814.50
544.14	1730.53
544.33	1740.77
544.53	1773.54
544.73	1738.73
544.93	1667.05
545.12	1656.81
545.32	1665.00
545.52	1695.72
545.71	1626.09
545.91	1642.47
546.11	1761.25
546.30	1669.09
546.50	1693.67
546.70	1787.88
546.90	1814.50
547.09	1578.98
547.29	1757.16
547.49	1742.82
547.68	1675.24
547.88	1628.14
548.08	1732.58
548.27	2162.66
548.47	1722.34
548.67	1634.28
548.87	1785.83
549.06	1665.00
549.26	1708.01
549.46	1800.16
549.65	1699.81
549.85	1800.16
550.05	1820.64
550.24	1613.80
550.44	1740.77
550.64	1675.24
550.83	1695.72
551.03	1832.93
551.23	1787.88
551.42	1662.95
551.62	1748.97
551.82	1695.72
552.01	1677.29
552.21	1783.78
552.41	1665.00
552.60	1777.64
552.80	1773.54
553.00	1771.49
553.19	1736.68
553.39	1855.46
553.59	1638.38
553.78	1810.40
553.98	1828.84
554.17	1660.90
554.37	1681.38
554.57	1830.88
554.76	1636.33
554.96	1724.39
555.16	1783.78
555.35	1738.73
555.55	1751.01
555.75	1660.90
555.94	1847.27
556.14	1699.81
556.33	1755.11
556.53	1746.92
556.73	1681.38
556.92	1751.01
557.12	1748.97
557.32	1789.92
557.51	1877.99
557.71	1769.44
557.90	1800.16
558.10	1796.07
558.30	1693.67
558.49	1763.30
558.69	1744.87
558.88	1753.06
559.08	1691.62
559.28	1742.82
559.47	1771.49
559.67	1744.87
559.86	1882.08
560.06	1746.92
560.26	1689.57
560.45	1748.97
560.65	1671.14
560.84	1783.78
561.04	1724.39
561.24	1744.87
561.43	1619.94
561.63	1818.60
561.82	1769.44
562.02	1787.88
562.22	1736.68
562.41	1662.95
562.61	1697.77
562.80	1708.01
563.00	1933.28
563.19	1732.58
563.39	1736.68
563.59	1791.97
563.78	1689.57
563.98	1578.98
564.17	1726.44
564.37	1630.18
564.56	1761.25
564.76	1671.14
564.96	1769.44
565.15	1669.09
565.35	1875.94
565.54	1718.25
565.74	1736.68
565.93	1740.77
566.13	1714.15
566.32	1818.60
566.52	1693.67
566.71	1810.40
566.91	1789.92
567.11	1759.21
567.30	1763.30
567.50	1748.97
567.69	1708.01
567.89	1718.25
568.08	1699.81
568.28	1728.49
568.47	1681.38
568.67	1779.68
568.86	1695.72
569.06	1830.88
569.25	1757.16
569.45	1593.32
569.64	1628.14
569.84	1669.09
570.04	1730.53
570.23	1718.25
570.43	1751.01
570.62	1751.01
570.82	1798.12
571.01	1705.96
571.21	1736.68
571.40	1701.86
571.60	1810.40
571.79	1783.78
571.99	1738.73
572.18	1634.28
572.38	1746.92
572.57	1767.40
572.77	1771.49
572.96	1896.42
573.16	1816.55
573.35	1722.34
573.55	1824.74
573.74	1845.22
573.94	1769.44
574.13	1710.05
574.33	1845.22
574.52	1726.44
574.71	1839.08
574.91	1847.27
575.10	1673.19
575.30	1681.38
575.49	1718.25
575.69	1646.57
575.88	1802.21
576.08	1658.85
576.27	1796.07
576.47	1804.26
576.66	1818.60
576.86	1861.60
577.05	1683.43
577.25	1773.54
577.44	1916.90
577.64	1718.25
577.83	1814.50
578.02	1703.91
578.22	1785.83
578.41	1800.16
578.61	1708.01
578.80	1685.48
579.00	1763.30
579.19	1783.78
579.39	1796.07
579.58	1839.08
579.77	1738.73
579.97	1832.93
580.16	1839.08
580.36	1816.55
580.55	1849.32
580.75	1779.68
580.94	1732.58
581.13	1849.32
581.33	1851.36
581.52	1742.82
581.72	1822.69
581.91	1847.27
582.11	1732.58
582.30	1736.68
582.49	1837.03
582.69	1851.36
582.88	1814.50
583.08	1759.21
583.27	1740.77
583.47	1724.39
583.66	1785.83
583.85	1640.42
584.05	1789.92
584.24	1806.31
584.44	1849.32
584.63	1853.41
584.82	1818.60
585.02	1888.23
585.21	1751.01
585.41	1851.36
585.60	1855.46
585.79	1920.99
585.99	1861.60
586.18	1841.12
586.37	2103.26
586.57	3297.23
586.76	9838.44
586.96	23981.71
587.15	33857.02
587.34	39714.21
587.54	41571.72
587.73	36072.92
587.93	25917.04
588.12	21266.11
588.31	18091.76
588.51	16109.32
588.70	14817.05
588.89	14042.92
589.09	12195.65
589.28	11114.33
589.47	9215.86
589.67	7997.32
589.86	6336.42
590.06	4814.77
590.25	3925.96
590.44	3067.86
590.64	2478.04
590.83	2242.53
591.02	2103.26
591.22	1912.80
591.41	1908.71
591.60	1773.54
591.80	1984.48
591.99	1744.87
592.18	1779.68
592.38	1791.97
592.57	1746.92
592.76	1732.58
592.96	1787.88
593.15	1718.25
593.34	1791.97
593.54	1791.97
593.73	1748.97
593.92	1765.35
594.12	1753.06
594.31	1773.54
594.50	1884.13
594.70	1769.44
594.89	1810.40
595.08	1601.51
595.28	1798.12
595.47	1925.09
595.66	1718.25
595.86	1720.29
596.05	1751.01
596.24	1701.86
596.43	1802.21
596.63	1787.88
596.82	1751.01
597.01	1738.73
597.21	1845.22
597.40	1712.10
597.59	1785.83
597.79	1722.34
597.98	1761.25
598.17	1710.05
598.36	1730.53
598.56	1820.64
598.75	1619.94
598.94	1847.27
599.14	1746.92
599.33	1732.58
599.52	1802.21
599.71	1701.86
599.91	1800.16
600.10	1736.68
600.29	1669.09
600.48	1757.16
600.68	1738.73
600.87	1738.73
601.06	1689.57
601.26	1751.01
601.45	1740.77
601.64	1654.76
601.83	1820.64
602.03	1677.29
602.22	1712.10
602.41	1775.59
602.60	1808.36
602.80	1744.87
602.99	1812.45
603.18	1751.01
603.37	1718.25
603.57	1708.01
603.76	1771.49
603.95	1773.54
604.14	1689.57
604.34	1763.30
604.53	1724.39
604.72	1712.10
604.91	1783.78
605.10	1744.87
605.30	1675.24
605.49	1808.36
605.68	1785.83
605.87	1705.96
606.07	1718.25
606.26	1724.39
606.45	1710.05
606.64	1779.68
606.84	1701.86
607.03	1722.34
607.22	1861.60
607.41	1667.05
607.60	1720.29
607.80	1804.26
607.99	1703.91
608.18	1761.25
608.37	1742.82
608.56	1695.72
608.76	1783.78
608.95	1888.23
609.14	1720.29
609.33	1796.07
609.52	1820.64
609.72	1736.68
609.91	1783.78
610.10	1740.77
610.29	1789.92
610.48	1693.67
610.68	1806.31
610.87	1710.05
611.06	1722.34
611.25	1724.39
611.44	1751.01
611.63	1765.35
611.83	1722.34
612.02	1710.05
612.21	1837.03
612.40	1621.99
612.59	1669.09
612.79	1689.57
612.98	1738.73
613.17	1832.93
613.36	1763.30
613.55	1773.54
613.74	1710.05
613.93	1697.77
614.13	1665.00
614.32	1701.86
614.51	1753.06
614.70	1679.33
614.89	1701.86
615.08	1675.24
615.28	2066.40
615.47	1671.14
615.66	1714.15
615.85	1683.43
616.04	1863.65
616.23	1730.53
616.42	1691.62
616.62	1738.73
616.81	1722.34
617.00	1812.45
617.19	1783.78
617.38	1642.47
617.57	1665.00
617.76	1845.22
617.95	1773.54
618.15	1724.39
618.34	1767.40
618.53	1632.23
618.72	1822.69
618.91	1867.75
619.10	1767.40
619.29	1660.90
619.48	1746.92
619.68	1697.77
619.87	1673.19
620.06	1722.34
620.25	1767.40
620.44	1695.72
620.63	1738.73
620.82	1712.10
621.01	1699.81
621.20	1740.77
621.39	1724.39
621.59	1675.24
621.78	1751.01
621.97	1632.23
622.16	1787.88
622.35	1722.34
622.54	1802.21
622.73	1781.73
622.92	1677.29
623.11	1781.73
623.30	1640.42
623.49	1763.30
623.68	1708.01
623.88	1791.97
624.07	1697.77
624.26	1693.67
624.45	1708.01
624.64	1736.68
624.83	1738.73
625.02	1726.44
625.21	1751.01
625.40	1841.12
625.59	1789.92
625.78	1712.10
625.97	1720.29
626.16	1806.31
626.35	1740.77
626.54	1673.19
626.74	1726.44
626.93	1744.87
627.12	1699.81
627.31	1751.01
627.50	1675.24
627.69	1818.60
627.88	1642.47
628.07	1669.09
628.26	1644.52
628.45	1732.58
628.64	1669.09
628.83	1726.44
629.02	1681.38
629.21	1722.34
629.40	1697.77
629.59	1665.00
629.78	1746.92
629.97	1650.66
630.16	1654.76
630.35	1691.62
630.54	1693.67
630.73	1652.71
630.92	1693.67
631.11	1658.85
631.30	1656.81
631.49	1732.58
631.68	1708.01
631.87	1732.58
632.06	1630.18
632.25	1912.80
632.44	1689.57
632.63	1705.96
632.82	1730.53
633.01	1652.71
633.20	1714.15
633.39	1714.15
633.58	1648.61
633.77	1660.90
633.96	1726.44
634.15	1701.86
634.34	1714.15
634.53	1699.81
634.72	1656.81
634.91	1681.38
635.10	1794.02
635.29	1724.39
635.48	1736.68
635.67	1667.05
635.86	1646.57
636.05	1804.26
636.24	1710.05
636.43	1775.59
636.62	1705.96
636.81	1619.94
637.00	1685.48
637.19	1757.16
637.38	1705.96
637.57	1689.57
637.76	1658.85
637.95	1728.49
638.14	1652.71
638.33	1667.05
638.52	1810.40
638.71	1626.09
638.89	1677.29
639.08	1751.01
639.27	1714.15
639.46	1701.86
639.65	1806.31
639.84	1767.40
640.03	1808.36
640.22	1658.85
640.41	1867.75
640.60	1685.48
640.79	1669.09
640.98	1691.62
641.17	1755.11
641.36	1734.63
641.55	1673.19
641.74	1714.15
641.92	1583.08
642.11	1665.00
642.30	1736.68
642.49	1626.09
642.68	1656.81
642.87	1703.91
643.06	1820.64
643.25	1697.77
643.44	1673.19
643.63	1779.68
643.82	1757.16
644.00	1613.80
644.19	1601.51
644.38	1705.96
644.57	1869.80
644.76	1714.15
644.95	1679.33
645.14	1679.33
645.33	1718.25
645.52	1771.49
645.71	1685.48
645.89	1613.80
646.08	1699.81
646.27	1757.16
646.46	1859.56
646.65	1607.66
646.84	1808.36
647.03	1603.56
647.22	1794.02
647.40	1689.57
647.59	1730.53
647.78	1683.43
647.97	1705.96
648.16	1683.43
648.35	1781.73
648.54	1765.35
648.73	1701.86
648.91	1767.40
649.10	1722.34
649.29	1658.85
649.48	1697.77
649.67	1796.07
649.86	1699.81
650.05	1665.00
650.23	1802.21
650.42	1654.76
650.61	1738.73
650.80	1722.34
650.99	1826.79
651.18	1695.72
651.36	1724.39
651.55	1720.29
651.74	1796.07
651.93	1681.38
652.12	1703.91
652.31	1705.96
652.49	1751.01
652.68	1675.24
652.87	1738.73
653.06	1671.14
653.25	1779.68
653.44	1656.81
653.62	1861.60
653.81	1685.48
654.00	1722.34
654.19	1658.85
654.38	1834.98
654.56	1673.19
654.75	1624.04
654.94	1757.16
655.13	1759.21
655.32	1732.58
655.51	1771.49
655.69	1757.16
655.88	1818.60
656.07	1673.19
656.26	1757.16
656.45	1636.33
656.63	1718.25
656.82	1751.01
657.01	1812.45
657.20	1589.22
657.38	1820.64
657.57	1691.62
657.76	1665.00
657.95	1755.11
658.14	1718.25
658.32	1677.29
658.51	1724.39
658.70	1759.21
658.89	1781.73
659.08	1665.00
659.26	1853.41
659.45	1611.75
659.64	1693.67
659.83	1685.48
660.01	1920.99
660.20	1716.20
660.39	1781.73
660.58	1617.90
660.76	1695.72
660.95	1585.13
661.14	1714.15
661.33	1656.81
661.51	1744.87
661.70	1697.77
661.89	1748.97
662.08	1646.57
662.26	1673.19
662.45	1628.14
662.64	1826.79
662.83	1738.73
663.01	1703.91
663.20	1703.91
663.39	1775.59
663.58	1642.47
663.76	1644.52
663.95	1773.54
664.14	1718.25
664.32	1685.48
664.51	1636.33
664.70	1638.38
664.89	1787.88
665.07	1689.57
665.26	1787.88
665.45	1662.95
665.64	1757.16
665.82	1712.10
666.01	1753.06
666.20	1654.76
666.38	1740.77
666.57	1802.21
666.76	2172.89
666.95	4429.76
667.13	10182.50
667.32	14815.01
667.51	17661.68
667.69	18919.14
667.88	17209.08
668.07	12162.89
668.25	9396.08
668.44	8021.89
668.63	7282.58
668.81	6678.43
669.00	6352.80
669.19	5498.80
669.38	5105.59
669.56	4558.78
669.75	3938.24
669.94	3348.43
670.12	2863.06
670.31	2566.10
670.50	2299.87
670.68	2052.06
670.87	1927.14
671.06	1814.50
671.24	1796.07
671.43	1873.89
671.62	1662.95
671.80	1726.44
671.99	1828.84
672.18	1740.77
672.36	1724.39
672.55	1767.40
672.74	1695.72
672.92	1740.77
673.11	1728.49
673.29	1667.05
673.48	1773.54
673.67	1665.00
673.85	1834.98
674.04	1701.86
674.23	1691.62
674.41	1810.40
674.60	1642.47
674.79	1640.42
674.97	1609.70
675.16	1742.82
675.34	1697.77
675.53	1654.76
675.72	1787.88
675.90	1812.45
676.09	1697.77
676.28	1734.63
676.46	1628.14
676.65	1734.63
676.83	1652.71
677.02	1675.24
677.21	1669.09
677.39	1759.21
677.58	1667.05
677.77	1640.42
677.95	1810.40
678.14	1773.54
678.32	1718.25
678.51	1638.38
678.70	1847.27
678.88	1689.57
679.07	1718.25
679.25	1646.57
679.44	1665.00
679.63	1705.96
679.81	1710.05
680.00	1761.25
680.18	1789.92
680.37	1796.07
680.55	1705.96
680.74	1652.71
680.93	1644.52
681.11	1818.60
681.30	1701.86
681.48	1767.40
681.67	1685.48
681.85	1730.53
682.04	1599.46
682.23	1744.87
682.41	1683.43
682.60	1681.38
682.78	1699.81
682.97	1626.09
683.15	1742.82
683.34	1734.63
683.53	1791.97
683.71	1669.09
683.90	1783.78
684.08	1812.45
684.27	1650.66
684.45	1677.29
684.64	1877.99
684.82	1726.44
685.01	1748.97
685.19	1767.40
685.38	1785.83
685.57	1644.52
685.75	1611.75
685.94	1691.62
686.12	1718.25
686.31	1658.85
686.49	1775.59
686.68	1634.28
686.86	1751.01
687.05	1673.19
687.23	1810.40
687.42	1697.77
687.60	1681.38
687.79	1748.97
687.97	1769.44
688.16	1818.60
688.34	1708.01
688.53	1701.86
688.71	1738.73
688.90	1767.40
689.08	1701.86
689.27	1671.14
689.45	1685.48
689.64	1742.82
689.82	1703.91
690.01	1697.77
690.19	1779.68
690.38	1708.01
690.56	1828.84
690.75	1683.43
690.93	1697.77
691.12	1671.14
691.30	1726.44
691.49	1691.62
691.67	1669.09
691.86	1800.16
692.04	1714.15
692.23	1697.77
692.41	1685.48
692.60	1802.21
692.78	1830.88
692.97	1685.48
693.15	1691.62
693.34	1845.22
693.52	1746.92
693.71	1716.20
693.89	1656.81
694.08	1667.05
694.26	1691.62
694.44	1767.40
694.63	1806.31
694.81	1652.71
695.00	1683.43
695.18	1755.11
695.37	1783.78
695.55	1691.62
695.74	1652.71
695.92	1636.33
696.10	1798.12
696.29	1671.14
696.47	1650.66
696.66	1609.70
696.84	1609.70
697.03	1728.49
697.21	1871.84
697.40	2334.68
697.58	1775.59
697.76	1718.25
697.95	1677.29
698.13	1632.23
698.32	1570.79
698.50	1703.91
698.68	1765.35
698.87	1730.53
699.05	1773.54
699.24	1687.53
699.42	1689.57
699.61	1691.62
699.79	1699.81
699.97	1722.34
700.16	1660.90
700.34	1615.85
700.53	1728.49
700.71	1800.16
700.89	1763.30
701.08	1718.25
701.26	1720.29
701.45	2136.03
701.63	1689.57
701.81	1681.38
702.00	1675.24
702.18	1675.24
702.37	1642.47
702.55	1755.11
702.73	1753.06
702.92	1615.85
703.10	1718.25
703.28	1775.59
703.47	1638.38
703.65	1777.64
703.84	1812.45
704.02	1667.05
704.20	1757.16
704.39	1638.38
704.57	1681.38
704.75	1787.88
704.94	1734.63
705.12	1705.96
705.30	1828.84
705.49	2197.47
705.67	4433.85
705.86	9391.98
706.04	12427.07
706.22	14257.96
706.41	15316.76
706.59	13674.29
706.77	9531.25
706.96	7296.91
707.14	6555.55
707.32	5773.22
707.51	5459.88
707.69	4853.69
707.87	4149.18
708.06	3612.62
708.24	2918.36
708.42	2435.03
708.61	2234.33
708.79	1804.26
708.97	1832.93
709.16	1771.49
709.34	1841.12
709.52	1787.88
709.71	1759.21
709.89	1720.29
710.07	1632.23
710.26	1632.23
710.44	1701.86
710.62	1705.96
710.80	1662.95
710.99	1814.50
711.17	1730.53
711.35	1683.43
711.54	1693.67
711.72	1806.31
711.90	1763.30
712.09	1748.97
712.27	1667.05
712.45	1718.25
712.63	1693.67
712.82	1710.05
713.00	1693.67
713.18	1722.34
713.37	1746.92
713.55	1740.77
713.73	1722.34
713.91	1775.59
714.10	1628.14
714.28	1656.81
714.46	1701.86
714.65	1714.15
714.83	1755.11
715.01	1705.96
715.19	1685.48
715.38	1652.71
715.56	1738.73
715.74	1644.52
715.92	1632.23
716.11	1845.22
716.29	1607.66
716.47	1669.09
716.65	1646.57
716.84	1605.61
717.02	1763.30
717.20	1570.79
717.38	1675.24
717.57	1730.53
717.75	1693.67
717.93	1697.77
718.11	1732.58
718.30	1603.56
718.48	1685.48
718.66	1689.57
718.84	1699.81
719.03	1679.33
719.21	1617.90
719.39	1812.45
719.57	1746.92
719.75	1755.11
719.94	1599.46
720.12	1716.20
720.30	1738.73
720.48	1773.54
720.67	1591.27
720.85	1687.53
721.03	1736.68
721.21	1630.18
721.39	1789.92
721.58	1767.40
721.76	1705.96
721.94	1697.77
722.12	1697.77
722.30	1746.92
722.49	1722.34
722.67	1705.96
722.85	1740.77
723.03	1712.10
723.21	1677.29
723.40	1697.77
723.58	1730.53
723.76	1765.35
723.94	1724.39
724.12	1703.91
724.30	1787.88
724.49	1808.36
724.67	1621.99
724.85	1742.82
725.03	1595.37
725.21	1753.06
725.40	1716.20
725.58	1695.72
725.76	1779.68
725.94	1728.49
726.12	1619.94
726.30	1654.76
726.49	1708.01
726.67	1644.52
726.85	1705.96
727.03	1837.03
727.21	2217.95
727.39	2869.20
727.57	3708.87
727.76	4106.18
727.94	4374.46
728.12	4347.84
728.30	3608.52
728.48	2879.44
728.66	2754.52
728.84	2457.56
729.03	2340.83
729.21	2136.03
729.39	1970.15
729.57	1789.92
729.75	1906.66
729.93	1902.56
730.11	1814.50
730.30	1710.05
730.48	1648.61
730.66	1824.74
730.84	1765.35
731.02	1736.68
731.20	1652.71
731.38	1710.05
731.56	1656.81
731.74	1658.85
731.93	1765.35
732.11	1705.96
732.29	1654.76
732.47	1771.49
732.65	1662.95
732.83	1824.74
733.01	1765.35
733.19	1603.56
733.37	1710.05
733.56	1744.87
733.74	1755.11
733.92	1861.60
734.10	1658.85
734.28	1775.59
734.46	1595.37
734.64	1705.96
734.82	1628.14
735.00	1681.38
735.18	1568.74
735.36	1662.95
735.54	1691.62
735.73	1775.59
735.91	1675.24
736.09	1714.15
736.27	1646.57
736.45	1787.88
736.63	1689.57
736.81	1677.29
736.99	1748.97
737.17	1755.11
737.35	1619.94
737.53	1712.10
737.71	1662.95
737.89	1816.55
738.07	1652.71
738.25	1660.90
738.43	1681.38
738.61	1677.29
738.80	1671.14
738.98	1634.28
739.16	1626.09
739.34	1783.78
739.52	1765.35
739.70	1734.63
739.88	1773.54
740.06	1787.88
740.24	1615.85
740.42	1791.97
740.60	1552.36
740.78	1650.66
740.96	1642.47
741.14	1740.77
741.32	1769.44
741.50	1562.60
741.68	1886.18
741.86	1789.92
742.04	1621.99
742.22	1718.25
742.40	1660.90
742.58	1744.87
742.76	1640.42
742.94	1769.44
743.12	1665.00
743.30	1619.94
743.48	1652.71
743.66	1621.99
743.84	1691.62
744.02	1724.39
744.20	1677.29
744.38	1636.33
744.56	1665.00
744.74	1818.60
744.92	1734.63
745.10	1812.45
745.28	1740.77
745.46	1775.59
745.64	1716.20
745.82	1656.81
746.00	1714.15
746.18	1718.25
746.36	1656.81
746.54	1740.77
746.72	1781.73
746.90	1628.14
747.08	1714.15
747.26	1681.38
747.44	1730.53
747.62	1697.77
747.80	1675.24
747.98	1695.72
748.15	1718.25
748.33	1882.08
748.51	1662.95
748.69	1722.34
748.87	1638.38
749.05	1683.43
749.23	1701.86
749.41	1656.81
749.59	1654.76
749.77	1742.82
749.95	1650.66
750.13	1640.42
750.31	1701.86
750.49	1722.34
750.67	1771.49
750.85	1759.21
751.03	1658.85
751.20	1832.93
751.38	1730.53
751.56	1656.81
751.74	1716.20
751.92	1746.92
752.10	1677.29
752.28	1736.68
752.46	1734.63
752.64	1722.34
752.82	1656.81
753.00	1775.59
753.18	1703.91
753.35	1712.10
753.53	1656.81
753.71	1656.81
753.89	1794.02
754.07	1705.96
754.25	1710.05
754.43	1755.11
754.61	1714.15
754.79	1734.63
754.97	1679.33
755.14	1796.07
755.32	1648.61
755.50	1691.62
755.68	1759.21
755.86	1742.82
756.04	1740.77
756.22	1589.22
756.40	1779.68
756.57	1753.06
756.75	1677.29
756.93	1656.81
757.11	1763.30
757.29	1650.66
757.47	1652.71
757.65	1615.85
757.82	1626.09
758.00	1648.61
758.18	1615.85
758.36	1656.81
758.54	1732.58
758.72	1578.98
758.90	1742.82
759.07	1789.92
759.25	1597.42
759.43	1748.97
759.61	1619.94
759.79	2136.03
759.97	1804.26
760.15	1705.96
760.32	1695.72
760.50	1683.43
760.68	1779.68
760.86	1630.18
761.04	1746.92
761.22	1714.15
761.39	1693.67
761.57	1777.64
761.75	1638.38
761.93	1796.07
762.11	1714.15
762.28	1753.06
762.46	1665.00
762.64	1710.05
762.82	1607.66
763.00	1718.25
763.18	1791.97
763.35	1677.29
763.53	1738.73
763.71	1781.73
763.89	1701.86
764.07	1738.73
764.24	1681.38
764.42	1738.73
764.60	1689.57
764.78	1691.62
764.96	1720.29
765.13	1742.82
765.31	1665.00
765.49	1720.29
765.67	1652.71
765.84	1601.51
766.02	1699.81
766.20	1632.23
766.38	1726.44
766.56	1789.92
766.73	1710.05
766.91	1685.48
767.09	1644.52
767.27	1689.57
767.44	1656.81
767.62	1714.15
767.80	1759.21
767.98	1611.75
768.15	1683.43
768.33	1734.63
768.51	1726.44
768.69	1683.43
768.87	1759.21
769.04	1716.20
769.22	1804.26
769.40	1814.50
769.58	1830.88
769.75	1757.16
769.93	1771.49
770.11	1669.09
770.28	1638.38
770.46	1683.43
770.64	1724.39
770.82	1634.28
770.99	1732.58
771.17	1728.49
771.35	1656.81
771.53	1718.25
771.70	1685.48
771.88	1744.87
772.06	1730.53
772.23	1693.67
772.41	1714.15
772.59	1642.47
772.77	1650.66
772.94	1705.96
773.12	1740.77
773.30	1626.09
773.47	1693.67
773.65	1626.09
773.83	1736.68
774.01	1679.33
774.18	1568.74
774.36	1738.73
774.54	1669.09
774.71	1679.33
774.89	1638.38
775.07	1718.25
775.24	1677.29
775.42	1638.38
775.60	1753.06
775.78	1705.96
775.95	1626.09
776.13	1552.36
776.31	1499.11
776.48	1689.57
776.66	1777.64
776.84	1689.57
777.01	1646.57
777.19	1673.19
777.37	1728.49
777.54	1720.29
777.72	1818.60
777.90	1740.77
778.07	1667.05
778.25	1859.56
778.43	1701.86
778.60	1669.09
778.78	1695.72
778.96	1744.87
779.13	1675.24
779.31	1720.29
779.49	1806.31
779.66	1714.15
779.84	1675.24
780.01	1759.21
780.19	1646.57
780.37	1753.06
780.54	1644.52
780.72	1673.19
780.90	1585.13
781.07	1724.39
781.25	1671.14
781.43	1757.16
781.60	1654.76
781.78	1802.21
781.95	1767.40
782.13	1654.76
782.31	1714.15
782.48	1574.89
782.66	1708.01
782.83	1814.50
783.01	1748.97
783.19	1779.68
783.36	1767.40
783.54	1679.33
783.72	1763.30
783.89	1648.61
784.07	1722.34
784.24	1785.83
784.42	1705.96
784.60	1722.34
784.77	1697.77
784.95	1552.36
785.12	1665.00
785.30	1720.29
785.47	1699.81
785.65	1646.57
785.83	1652.71
786.00	1589.22
786.18	1716.20
786.35	1703.91
786.53	1685.48
786.71	1658.85
786.88	1677.29
787.06	1742.82
787.23	1673.19
787.41	1593.32
787.58	1697.77
787.76	1669.09
787.94	1675.24
788.11	1708.01
788.29	1585.13
788.46	1667.05
788.64	1650.66
788.81	1652.71
788.99	1644.52
789.16	1644.52
789.34	1624.04
789.52	1626.09
789.69	1669.09
789.87	1624.04
790.04	1730.53
790.22	1669.09
790.39	1781.73
790.57	1603.56
790.74	1691.62
790.92	1724.39
791.09	1605.61
791.27	1683.43
791.44	1701.86
791.62	1738.73
791.79	1787.88
791.97	1738.73
792.15	1818.60
792.32	1732.58
792.50	1751.01
792.67	1763.30
792.85	1716.20
793.02	1677.29
793.20	1689.57
793.37	1683.43
793.55	1681.38
793.72	1656.81
793.90	1718.25
794.07	1755.11
794.25	1753.06
794.42	1726.44
794.60	1665.00
794.77	1744.87
794.95	1769.44
795.12	1783.78
795.30	1665.00
795.47	1591.27
795.65	1845.22
795.82	1681.38
796.00	1665.00
796.17	1732.58
796.34	1636.33
796.52	1705.96
796.69	1765.35
796.87	1726.44
797.04	1671.14
797.22	1732.58
797.39	1697.77
797.57	1691.62
797.74	1714.15
797.92	1722.34
798.09	1697.77
798.27	1671.14
798.44	1763.30
798.62	1671.14
798.79	1667.05
798.96	1685.48
799.14	1665.00
799.31	1785.83
799.49	1755.11
799.66	1697.77
799.84	1771.49
800.01	1581.03
800.19	1763.30
800.36	1542.12
800.53	1714.15
800.71	1718.25
800.88	1818.60
801.06	1654.76
801.23	1714.15
801.41	1693.67
801.58	1722.34
801.75	1736.68
801.93	1673.19
802.10	1751.01
802.28	1693.67
802.45	1640.42
802.63	1753.06
802.80	1736.68
802.97	1685.48
803.15	1765.35
803.32	1734.63
803.50	1652.71
803.67	1646.57
803.84	1656.81
804.02	1724.39
804.19	1681.38
804.37	1638.38
804.54	1634.28
804.71	1703.91
804.89	1638.38
805.06	1587.18
805.24	1703.91
805.41	1679.33
805.58	1667.05
805.76	1826.79
805.93	1699.81
806.10	1734.63
806.28	1675.24
806.45	1673.19
806.63	1769.44
806.80	1726.44
806.97	1777.64
807.15	1708.01
807.32	1697.77
807.49	1767.40
807.67	1634.28
807.84	1673.19
808.01	1570.79
808.19	1736.68
808.36	1767.40
808.54	1675.24
808.71	1634.28
808.88	1714.15
809.06	1757.16
809.23	1716.20
809.40	1665.00
809.58	1742.82
809.75	1669.09
809.92	1554.41
810.10	1785.83
810.27	1671.14
810.44	1671.14
810.62	1738.73
810.79	1783.78
810.96	1726.44
811.14	1617.90
811.31	1763.30
811.48	1773.54
811.66	1691.62
811.83	1759.21
812.00	1738.73
812.18	1675.24
812.35	1773.54
812.52	1732.58
812.69	1624.04
812.87	1691.62
813.04	1689.57
813.21	1710.05
813.39	1689.57
813.56	1607.66
813.73	1787.88
813.91	1671.14
814.08	1746.92
814.25	1701.86
814.42	1650.66
814.60	1701.86
814.77	1712.10
814.94	1705.96
815.12	1728.49
815.29	1734.63
815.46	1669.09
815.63	1685.48
815.81	1783.78
815.98	1628.14
816.15	1658.85
816.33	1789.92
816.50	1665.00
816.67	1673.19
816.84	1740.77
817.02	1646.57
817.19	1656.81
817.36	1757.16
817.53	1800.16
817.71	1591.27
817.88	1757.16
818.05	1755.11
818.22	1634.28
818.40	1806.31
818.57	1642.47
818.74	1712.10
818.91	1683.43
819.09	1722.34
819.26	1728.49
819.43	1665.00
819.60	1675.24
819.78	1714.15
819.95	1800.16
820.12	1621.99
820.29	1808.36
820.47	1771.49
820.64	1736.68
820.81	1628.14
820.98	1601.51
821.15	1751.01
821.33	1701.86
821.50	1605.61
821.67	1722.34
821.84	1630.18
822.02	1736.68
822.19	1732.58
822.36	1662.95
822.53	1632.23
822.70	1726.44
822.88	1660.90
823.05	1810.40
823.22	1681.38
823.39	1730.53
823.56	1652.71
823.74	1869.80
823.91	1652.71
824.08	1683.43
824.25	1687.53
824.42	1855.46
824.60	1667.05
824.77	1697.77
824.94	1705.96
825.11	1816.55
825.28	1660.90
825.45	1669.09
825.63	1720.29
825.80	1650.66
825.97	1724.39
826.14	1742.82
826.31	1624.04
826.48	1757.16
826.66	1667.05
826.83	1650.66
827.00	1730.53
827.17	1710.05
827.34	1738.73
827.51	1695.72
827.69	1609.70
827.86	1626.09
828.03	1693.67
828.20	1705.96
828.37	1665.00
828.54	1677.29
828.71	1621.99
828.89	1892.32
829.06	1669.09
829.23	1763.30
829.40	1632.23
829.57	1687.53
829.74	1687.53
829.91	1597.42
830.09	1578.98
830.26	1718.25
830.43	1734.63
830.60	1689.57
830.77	1738.73
830.94	1769.44
831.11	1703.91
831.28	1683.43
831.46	1683.43
831.63	1656.81
831.80	1798.12
831.97	1683.43
832.14	1675.24
832.31	1683.43
832.48	1726.44
832.65	1824.74
832.82	1679.33
832.99	1689.57
833.17	1687.53
833.34	1787.88
833.51	1726.44
833.68	1568.74
833.85	1789.92
834.02	1689.57
834.19	1634.28
834.36	1679.33
834.53	1714.15
834.70	1796.07
834.87	1701.86
835.04	1691.62
835.22	1662.95
835.39	1724.39
835.56	1644.52
835.73	1677.29
835.90	1847.27
836.07	1632.23
836.24	1732.58
836.41	1609.70
836.58	1726.44
836.75	1734.63
836.92	1656.81
837.09	1687.53
837.26	1730.53
837.43	1703.91
837.60	1753.06
837.77	1609.70
837.94	1683.43
838.12	1744.87
838.29	1763.30
838.46	1615.85
838.63	1728.49
838.80	1771.49
838.97	1722.34
839.14	1695.72
839.31	1697.77
839.48	1789.92
839.65	1654.76
839.82	1779.68
839.99	1753.06
840.16	1665.00
840.33	1718.25
840.50	1718.25
840.67	1648.61
840.84	1619.94
841.01	1746.92
841.18	1656.81
841.35	1746.92
841.52	1746.92
841.69	1763.30
841.86	1701.86
842.03	1646.57
842.20	1740.77
842.37	1591.27
842.54	1691.62
842.71	1697.77
842.88	1624.04
843.05	1767.40
843.22	1665.00
843.39	1671.14
843.56	1667.05
843.73	1640.42
843.90	1714.15
844.07	1714.15
844.24	1728.49
844.41	1728.49
844.58	1779.68
844.75	1734.63
844.92	1814.50
845.09	1693.67
845.26	1665.00
845.43	1785.83
845.60	1660.90
845.77	1734.63
845.94	1667.05
846.10	1746.92
846.27	1552.36
846.44	1665.00
846.61	1601.51
846.78	1740.77
846.95	1757.16
847.12	1691.62
847.29	1685.48
847.46	1617.90
847.63	1652.71
847.80	1615.85
847.97	1693.67
848.14	1865.70
848.31	1640.42
848.48	1615.85
848.65	1656.81
848.82	1732.58
848.98	1800.16
849.15	1744.87
849.32	1724.39
849.49	1656.81
849.66	1675.24
849.83	1675.24
850.00	1652.71
850.17	1710.05
850.34	1699.81
850.51	1648.61
850.68	1681.38
850.85	1818.60
851.01	1761.25
851.18	1697.77
851.35	1708.01
851.52	1734.63
851.69	1812.45
851.86	1644.52
852.03	1619.94
852.20	1722.34
852.37	1732.58
852.53	1560.55
852.70	1634.28
852.87	1679.33
853.04	1767.40
853.21	1685.48
853.38	1730.53
853.55	1767.40
853.72	1722.34
853.89	1689.57
854.05	1587.18
854.22	1619.94
854.39	1722.34
854.56	1703.91
854.73	1755.11
854.90	1693.67
855.07	1689.57
855.23	1703.91
855.40	1724.39
855.57	1644.52
855.74	1587.18
855.91	1839.08
856.08	1628.14
856.25	1673.19
856.41	1759.21
856.58	1689.57
856.75	1718.25
856.92	1585.13
857.09	1748.97
857.26	1683.43
857.42	1716.20
857.59	1669.09
857.76	1751.01
857.93	1720.29
858.10	1757.16
858.27	1654.76
858.43	1771.49
858.60	1660.90
858.77	1636.33
858.94	1730.53
859.11	1830.88
859.27	1689.57
859.44	1673.19
859.61	1820.64
859.78	1695.72
859.95	1789.92
860.12	1644.52
860.28	1806.31
860.45	1828.84
860.62	1617.90
860.79	1744.87
860.95	1619.94
861.12	1636.33
861.29	1591.27
861.46	1683.43
861.63	1691.62
861.79	1714.15
861.96	1585.13
862.13	1683.43
862.30	1738.73
862.47	1677.29
862.63	1630.18
862.80	1785.83
862.97	1697.77
863.14	1734.63
863.30	1730.53
863.47	1716.20
863.64	1775.59
863.81	1636.33
863.97	1665.00
864.14	1695.72
864.31	1640.42
864.48	1738.73
864.65	1773.54
864.81	1730.53
864.98	1669.09
865.15	1724.39
865.32	1738.73
865.48	1742.82
865.65	1796.07
865.82	1683.43
865.98	1742.82
866.15	1714.15
866.32	1656.81
866.49	1675.24
866.65	1781.73
866.82	1681.38
866.99	1726.44
867.16	1703.91
867.32	1642.47
867.49	1609.70
867.66	1724.39
867.83	1658.85
867.99	1570.79
868.16	1705.96
868.33	1621.99
868.49	1669.09
868.66	1665.00
868.83	1732.58
868.99	1710.05
869.16	1658.85
869.33	1808.36
869.50	1640.42
869.66	1636.33
869.83	1660.90
870.00	1617.90
870.16	1697.77
870.33	1662.95
870.50	1779.68
870.66	1705.96
870.83	1820.64
871.00	1710.05
871.17	1742.82
871.33	1791.97
871.50	1654.76
871.67	1654.76
871.83	1726.44
872.00	1746.92
872.17	1697.77
872.33	1802.21
872.50	1765.35
872.67	1662.95
872.83	1634.28
873.00	1693.67
873.17	1730.53
873.33	1773.54
873.50	1683.43
873.67	1665.00
873.83	1665.00
874.00	1667.05
874.16	1738.73
874.33	1662.95
874.50	1667.05
874.66	1683.43
874.83	1681.38
875.00	1695.72
875.16	1783.78
875.33	1705.96
875.50	1603.56
875.66	1683.43
875.83	1691.62
875.99	1751.01
876.16	1626.09
876.33	1636.33
876.49	1697.77
876.66	1730.53
876.83	1675.24
876.99	1611.75
877.16	1710.05
877.32	1708.01
877.49	1677.29
877.66	1621.99
877.82	1714.15
877.99	1705.96
878.15	1746.92
878.32	1695.72
878.49	1667.05
878.65	1665.00
878.82	1724.39
878.98	1705.96
879.15	1734.63
879.32	1761.25
879.48	1689.57
879.65	1689.57
879.81	1671.14
879.98	1640.42
880.15	1736.68
880.31	1732.58
880.48	1671.14
880.64	1720.29
880.81	1693.67
880.97	1808.36
881.14	1687.53
881.31	1646.57
881.47	1849.32
881.64	1609.70
881.80	1689.57
881.97	1677.29
882.13	1751.01
882.30	1609.70
882.47	1636.33
882.63	1732.58
882.80	1587.18
882.96	1630.18
883.13	1765.35
883.29	1679.33
883.46	1804.26
883.62	1824.74
883.79	1646.57
883.95	1765.35
884.12	1763.30
884.29	1699.81
884.45	1712.10
884.62	1740.77
884.78	1632.23
884.95	1773.54
885.11	1628.14
885.28	1695.72
885.44	1609.70
885.61	1710.05
885.77	1746.92
885.94	1718.25
886.10	1632.23
886.27	1660.90
886.43	1779.68
886.60	1773.54
886.76	1679.33
886.93	1660.90
887.09	1683.43
887.26	1542.12
887.42	1677.29
887.59	1773.54
887.75	1777.64
887.92	1800.16
888.08	1740.77
888.25	1804.26
888.41	1753.06
888.58	1644.52
888.74	1619.94
888.91	1640.42
>>>>>End Processed Spectral Data<<<<<
