SpectraSuite Data File
++++++++++++++++++++++++++++++++++++
Date: Mon Jun 06 13:28:37 CEST 2016
User: root
Dark Spectrum Present: No
Reference Spectrum Present: No
Number of Sampled Component Spectra: 1
Spectrometers: USB4C02835
Integration Time (usec): 100000 (USB4C02835)
Spectra Averaged: 1 (USB4C02835)
Boxcar Smoothing: 0 (USB4C02835)
Correct for Electrical Dark: No (USB4C02835)
Strobe/Lamp Enabled: No (USB4C02835)
Correct for Detector Non-linearity: No (USB4C02835)
Correct for Stray Light: No (USB4C02835)
Number of Pixels in Processed Spectrum: 3648
>>>>>Begin Processed Spectral Data<<<<<
177.47	1427.43
177.69	1427.43
177.91	1427.43
178.13	1484.78
178.36	1449.96
178.58	1574.89
178.80	1787.88
179.02	1607.66
179.24	1648.61
179.46	1753.06
179.68	1744.87
179.90	1693.67
180.13	1652.71
180.35	1638.38
180.57	1650.66
180.79	1767.40
181.01	1677.29
181.23	1677.29
181.45	1775.59
181.67	1705.96
181.90	1683.43
182.12	1630.18
182.34	1587.18
182.56	1703.91
182.78	1703.91
183.00	1669.09
183.22	1650.66
183.44	1603.56
183.66	1830.88
183.89	1773.54
184.11	1693.67
184.33	1759.21
184.55	1734.63
184.77	1738.73
184.99	1697.77
185.21	1685.48
185.43	1861.60
185.65	1648.61
185.87	1753.06
186.10	1841.12
186.32	1771.49
186.54	1787.88
186.76	1665.00
186.98	1791.97
187.20	1636.33
187.42	1658.85
187.64	1634.28
187.86	1710.05
188.08	1787.88
188.30	1658.85
188.52	1677.29
188.75	1718.25
188.97	1800.16
189.19	1656.81
189.41	1665.00
189.63	1746.92
189.85	1796.07
190.07	1566.70
190.29	1613.80
190.51	1753.06
190.73	1632.23
190.95	1763.30
191.17	1665.00
191.39	1644.52
191.61	1691.62
191.84	1662.95
192.06	1751.01
192.28	1642.47
192.50	1884.13
192.72	1722.34
192.94	1646.57
193.16	1779.68
193.38	1724.39
193.60	1591.27
193.82	1759.21
194.04	1746.92
194.26	1695.72
194.48	1701.86
194.70	1640.42
194.92	1699.81
195.14	1767.40
195.36	1621.99
195.58	1652.71
195.80	1652.71
196.02	1611.75
196.24	1650.66
196.46	1736.68
196.69	1662.95
196.91	1796.07
197.13	1718.25
197.35	1595.37
197.57	1767.40
197.79	1640.42
198.01	1755.11
198.23	1677.29
198.45	1736.68
198.67	1638.38
198.89	1671.14
199.11	1718.25
199.33	1634.28
199.55	1581.03
199.77	1673.19
199.99	1744.87
200.21	1656.81
200.43	1671.14
200.65	1673.19
200.87	1572.84
201.09	1673.19
201.31	1578.98
201.53	1767.40
201.75	1722.34
201.97	1636.33
202.19	1732.58
202.41	1753.06
202.63	1753.06
202.85	1761.25
203.07	1697.77
203.29	1656.81
203.51	1648.61
203.73	1667.05
203.95	1832.93
204.17	1669.09
204.39	1712.10
204.61	1691.62
204.83	1671.14
205.05	1646.57
205.27	1701.86
205.49	1789.92
205.71	1691.62
205.93	1597.42
206.15	1714.15
206.37	1722.34
206.59	1679.33
206.81	1662.95
207.03	1630.18
207.25	1642.47
207.47	1691.62
207.69	1710.05
207.91	1779.68
208.13	1718.25
208.34	1718.25
208.56	1679.33
208.78	1669.09
209.00	1669.09
209.22	1685.48
209.44	1697.77
209.66	1644.52
209.88	1646.57
210.10	1683.43
210.32	1634.28
210.54	1771.49
210.76	1646.57
210.98	1718.25
211.20	1587.18
211.42	1748.97
211.64	1757.16
211.86	1695.72
212.08	1767.40
212.30	1724.39
212.52	1720.29
212.74	1726.44
212.96	1785.83
213.17	1740.77
213.39	1734.63
213.61	1820.64
213.83	1746.92
214.05	1630.18
214.27	1748.97
214.49	1605.61
214.71	1654.76
214.93	1705.96
215.15	1701.86
215.37	1779.68
215.59	1648.61
215.81	1710.05
216.03	1796.07
216.24	1671.14
216.46	1662.95
216.68	1720.29
216.90	1724.39
217.12	1796.07
217.34	1716.20
217.56	1753.06
217.78	1662.95
218.00	1703.91
218.22	1708.01
218.44	1701.86
218.66	1738.73
218.87	1794.02
219.09	1603.56
219.31	1798.12
219.53	1662.95
219.75	1697.77
219.97	1681.38
220.19	1708.01
220.41	1656.81
220.63	1791.97
220.85	1722.34
221.06	1656.81
221.28	1689.57
221.50	1714.15
221.72	1759.21
221.94	1665.00
222.16	1681.38
222.38	1763.30
222.60	1689.57
222.82	1736.68
223.03	1763.30
223.25	1656.81
223.47	1738.73
223.69	1804.26
223.91	1730.53
224.13	1693.67
224.35	1718.25
224.57	1822.69
224.78	1689.57
225.00	1665.00
225.22	1656.81
225.44	1699.81
225.66	1755.11
225.88	1697.77
226.10	1722.34
226.32	1730.53
226.53	1824.74
226.75	1740.77
226.97	1685.48
227.19	1720.29
227.41	1689.57
227.63	1718.25
227.85	1591.27
228.06	1712.10
228.28	1644.52
228.50	1730.53
228.72	1646.57
228.94	1732.58
229.16	1576.94
229.37	1599.46
229.59	1708.01
229.81	1775.59
230.03	1689.57
230.25	1654.76
230.47	1691.62
230.69	1615.85
230.90	1744.87
231.12	1667.05
231.34	1724.39
231.56	1728.49
231.78	1630.18
232.00	1708.01
232.21	1689.57
232.43	1718.25
232.65	1585.13
232.87	1746.92
233.09	1642.47
233.30	1683.43
233.52	1740.77
233.74	1751.01
233.96	1695.72
234.18	1671.14
234.40	1703.91
234.61	1810.40
234.83	1669.09
235.05	1656.81
235.27	1794.02
235.49	1769.44
235.70	1681.38
235.92	1794.02
236.14	1681.38
236.36	1869.80
236.58	1660.90
236.79	1689.57
237.01	1644.52
237.23	1689.57
237.45	1773.54
237.67	1656.81
237.88	1691.62
238.10	1773.54
238.32	1572.84
238.54	1699.81
238.76	1708.01
238.97	1675.24
239.19	1611.75
239.41	1738.73
239.63	1716.20
239.85	1648.61
240.06	1679.33
240.28	1681.38
240.50	1796.07
240.72	1652.71
240.93	1656.81
241.15	1816.55
241.37	1597.42
241.59	1730.53
241.81	1619.94
242.02	1683.43
242.24	1689.57
242.46	1748.97
242.68	1720.29
242.89	1710.05
243.11	1677.29
243.33	1718.25
243.55	1726.44
243.76	1791.97
243.98	1607.66
244.20	1654.76
244.42	1753.06
244.64	1677.29
244.85	1691.62
245.07	1587.18
245.29	1724.39
245.51	1738.73
245.72	1677.29
245.94	1697.77
246.16	1615.85
246.38	1746.92
246.59	1640.42
246.81	1662.95
247.03	1640.42
247.24	1708.01
247.46	1648.61
247.68	1695.72
247.90	1654.76
248.11	1609.70
248.33	1753.06
248.55	1738.73
248.77	1689.57
248.98	1738.73
249.20	1800.16
249.42	1632.23
249.64	1773.54
249.85	1699.81
250.07	1619.94
250.29	1673.19
250.50	1617.90
250.72	1634.28
250.94	1710.05
251.16	1820.64
251.37	1769.44
251.59	1738.73
251.81	1693.67
252.02	1765.35
252.24	1722.34
252.46	1789.92
252.68	1679.33
252.89	1603.56
253.11	1603.56
253.33	1796.07
253.54	1734.63
253.76	1656.81
253.98	1681.38
254.20	1746.92
254.41	1650.66
254.63	1648.61
254.85	1646.57
255.06	1724.39
255.28	1665.00
255.50	1728.49
255.71	1607.66
255.93	1656.81
256.15	1673.19
256.36	1708.01
256.58	1714.15
256.80	1748.97
257.02	1634.28
257.23	1671.14
257.45	1662.95
257.67	1644.52
257.88	1648.61
258.10	1732.58
258.32	1718.25
258.53	1718.25
258.75	1746.92
258.97	1687.53
259.18	1683.43
259.40	1695.72
259.62	1765.35
259.83	1789.92
260.05	1701.86
260.27	1986.53
260.48	1763.30
260.70	1609.70
260.92	1728.49
261.13	1755.11
261.35	1812.45
261.57	1621.99
261.78	1607.66
262.00	1673.19
262.22	1658.85
262.43	1636.33
262.65	1734.63
262.86	1720.29
263.08	1841.12
263.30	1738.73
263.51	1636.33
263.73	1642.47
263.95	1775.59
264.16	1636.33
264.38	1712.10
264.60	1708.01
264.81	1714.15
265.03	1791.97
265.25	1748.97
265.46	1730.53
265.68	1800.16
265.89	1738.73
266.11	1581.03
266.33	1751.01
266.54	1785.83
266.76	1720.29
266.98	1757.16
267.19	1787.88
267.41	1785.83
267.62	1640.42
267.84	1650.66
268.06	1726.44
268.27	1669.09
268.49	1703.91
268.70	1810.40
268.92	1710.05
269.14	1640.42
269.35	1607.66
269.57	1615.85
269.79	1742.82
270.00	1726.44
270.22	1794.02
270.43	1695.72
270.65	1548.26
270.87	1685.48
271.08	1697.77
271.30	1748.97
271.51	1669.09
271.73	1687.53
271.95	1800.16
272.16	1742.82
272.38	1685.48
272.59	1615.85
272.81	1658.85
273.02	1755.11
273.24	1806.31
273.46	1775.59
273.67	1669.09
273.89	1705.96
274.10	1640.42
274.32	1796.07
274.54	1751.01
274.75	1695.72
274.97	1675.24
275.18	1724.39
275.40	1763.30
275.61	1654.76
275.83	1718.25
276.05	1605.61
276.26	1656.81
276.48	1732.58
276.69	1710.05
276.91	1658.85
277.12	1789.92
277.34	1732.58
277.55	1726.44
277.77	1689.57
277.99	1701.86
278.20	1683.43
278.42	1660.90
278.63	1646.57
278.85	1632.23
279.06	1638.38
279.28	1644.52
279.49	1744.87
279.71	1681.38
279.93	1714.15
280.14	1679.33
280.36	1665.00
280.57	1691.62
280.79	1748.97
281.00	1632.23
281.22	1632.23
281.43	1783.78
281.65	1662.95
281.86	1601.51
282.08	1703.91
282.29	1843.17
282.51	1613.80
282.73	1630.18
282.94	1576.94
283.16	1783.78
283.37	1841.12
283.59	1697.77
283.80	1722.34
284.02	1675.24
284.23	1718.25
284.45	1654.76
284.66	1599.46
284.88	1703.91
285.09	1669.09
285.31	1722.34
285.52	1675.24
285.74	1613.80
285.95	1787.88
286.17	1746.92
286.38	1757.16
286.60	1693.67
286.81	1712.10
287.03	1691.62
287.24	1726.44
287.46	1748.97
287.67	1714.15
287.89	1808.36
288.10	1669.09
288.32	1640.42
288.53	1796.07
288.75	1687.53
288.96	1722.34
289.18	1726.44
289.39	1710.05
289.61	1759.21
289.82	1818.60
290.04	1720.29
290.25	1671.14
290.47	1705.96
290.68	1660.90
290.90	1777.64
291.11	1581.03
291.33	1738.73
291.54	1658.85
291.76	1656.81
291.97	1626.09
292.18	1697.77
292.40	1630.18
292.61	1650.66
292.83	1810.40
293.04	1724.39
293.26	1708.01
293.47	1746.92
293.69	1671.14
293.90	1679.33
294.12	1726.44
294.33	1703.91
294.55	1693.67
294.76	1751.01
294.97	1796.07
295.19	1812.45
295.40	1697.77
295.62	1763.30
295.83	1724.39
296.05	1628.14
296.26	1767.40
296.48	1630.18
296.69	1724.39
296.90	1673.19
297.12	1771.49
297.33	1832.93
297.55	1642.47
297.76	1740.77
297.98	1724.39
298.19	1685.48
298.41	1656.81
298.62	1632.23
298.83	1781.73
299.05	1742.82
299.26	1675.24
299.48	1673.19
299.69	1703.91
299.90	1767.40
300.12	1665.00
300.33	1773.54
300.55	1722.34
300.76	1716.20
300.98	1624.04
301.19	1679.33
301.40	1677.29
301.62	1681.38
301.83	1789.92
302.05	1724.39
302.26	1665.00
302.47	1791.97
302.69	1640.42
302.90	1689.57
303.12	1585.13
303.33	1669.09
303.54	1828.84
303.76	1667.05
303.97	1730.53
304.19	1783.78
304.40	1689.57
304.61	1693.67
304.83	1765.35
305.04	1705.96
305.26	1734.63
305.47	1574.89
305.68	1699.81
305.90	1593.32
306.11	1720.29
306.33	1744.87
306.54	1632.23
306.75	1634.28
306.97	1650.66
307.18	1732.58
307.39	1662.95
307.61	1828.84
307.82	1681.38
308.04	1687.53
308.25	1638.38
308.46	1765.35
308.68	1687.53
308.89	1646.57
309.10	1734.63
309.32	1777.64
309.53	1714.15
309.74	1650.66
309.96	1648.61
310.17	1742.82
310.39	1665.00
310.60	1681.38
310.81	1753.06
311.03	1642.47
311.24	1849.32
311.45	1742.82
311.67	1783.78
311.88	1726.44
312.09	1714.15
312.31	1716.20
312.52	1736.68
312.73	1671.14
312.95	1609.70
313.16	1552.36
313.37	1771.49
313.59	1673.19
313.80	1728.49
314.01	1773.54
314.23	1648.61
314.44	1566.70
314.65	1689.57
314.87	1689.57
315.08	1556.46
315.29	1626.09
315.51	1632.23
315.72	1634.28
315.93	1810.40
316.15	1773.54
316.36	1689.57
316.57	1703.91
316.79	1732.58
317.00	1634.28
317.21	1679.33
317.43	1708.01
317.64	1648.61
317.85	1656.81
318.07	1628.14
318.28	1691.62
318.49	1753.06
318.70	1830.88
318.92	1808.36
319.13	1820.64
319.34	1904.61
319.56	1763.30
319.77	1767.40
319.98	1818.60
320.20	1753.06
320.41	1679.33
320.62	1691.62
320.83	1652.71
321.05	1791.97
321.26	1681.38
321.47	1677.29
321.69	1765.35
321.90	1626.09
322.11	1662.95
322.32	1665.00
322.54	1742.82
322.75	1658.85
322.96	1773.54
323.18	1632.23
323.39	1587.18
323.60	1607.66
323.81	1759.21
324.03	1675.24
324.24	1708.01
324.45	1769.44
324.66	1689.57
324.88	1755.11
325.09	1759.21
325.30	1667.05
325.52	1703.91
325.73	1660.90
325.94	1607.66
326.15	1597.42
326.37	1669.09
326.58	1757.16
326.79	1845.22
327.00	1634.28
327.22	1771.49
327.43	1581.03
327.64	1611.75
327.85	1744.87
328.07	1751.01
328.28	1720.29
328.49	1697.77
328.70	1730.53
328.92	1687.53
329.13	1726.44
329.34	1765.35
329.55	1781.73
329.76	1839.08
329.98	1697.77
330.19	1740.77
330.40	1699.81
330.61	1714.15
330.83	1662.95
331.04	1673.19
331.25	1736.68
331.46	1685.48
331.68	1587.18
331.89	1705.96
332.10	1669.09
332.31	1587.18
332.52	1751.01
332.74	1804.26
332.95	1621.99
333.16	1660.90
333.37	1718.25
333.58	1691.62
333.80	1705.96
334.01	1640.42
334.22	1665.00
334.43	1615.85
334.64	1679.33
334.86	1648.61
335.07	1632.23
335.28	1802.21
335.49	1634.28
335.70	1665.00
335.92	1732.58
336.13	1841.12
336.34	1744.87
336.55	1685.48
336.76	1730.53
336.98	1593.32
337.19	1720.29
337.40	1843.17
337.61	1857.51
337.82	1685.48
338.04	1734.63
338.25	1617.90
338.46	1685.48
338.67	1673.19
338.88	1624.04
339.09	1515.50
339.31	1624.04
339.52	1662.95
339.73	1624.04
339.94	1746.92
340.15	1779.68
340.36	1644.52
340.58	1699.81
340.79	1611.75
341.00	1757.16
341.21	1691.62
341.42	1808.36
341.63	1730.53
341.85	1763.30
342.06	1718.25
342.27	1712.10
342.48	1671.14
342.69	1634.28
342.90	1724.39
343.12	1665.00
343.33	1656.81
343.54	1736.68
343.75	1822.69
343.96	1642.47
344.17	1644.52
344.38	1638.38
344.60	1665.00
344.81	1566.70
345.02	1667.05
345.23	1740.77
345.44	1828.84
345.65	1763.30
345.86	1767.40
346.07	1683.43
346.29	1617.90
346.50	1703.91
346.71	1671.14
346.92	1769.44
347.13	1853.41
347.34	1679.33
347.55	1679.33
347.76	1701.86
347.98	1585.13
348.19	1683.43
348.40	1748.97
348.61	1716.20
348.82	1837.03
349.03	1697.77
349.24	1644.52
349.45	1818.60
349.66	1632.23
349.88	1734.63
350.09	1677.29
350.30	1787.88
350.51	1748.97
350.72	1697.77
350.93	1689.57
351.14	1679.33
351.35	1738.73
351.56	1710.05
351.77	1695.72
351.99	1646.57
352.20	1746.92
352.41	1763.30
352.62	1593.32
352.83	1662.95
353.04	1724.39
353.25	1646.57
353.46	1710.05
353.67	1763.30
353.88	1591.27
354.09	1683.43
354.30	1669.09
354.52	1787.88
354.73	1751.01
354.94	1681.38
355.15	1724.39
355.36	1810.40
355.57	1697.77
355.78	1691.62
355.99	1615.85
356.20	1611.75
356.41	1777.64
356.62	1845.22
356.83	1701.86
357.04	1785.83
357.25	1615.85
357.46	1640.42
357.68	1675.24
357.89	1685.48
358.10	1658.85
358.31	1753.06
358.52	1763.30
358.73	1648.61
358.94	1624.04
359.15	1701.86
359.36	1777.64
359.57	1742.82
359.78	1681.38
359.99	1755.11
360.20	1587.18
360.41	1714.15
360.62	1697.77
360.83	1718.25
361.04	1734.63
361.25	1726.44
361.46	1740.77
361.67	1781.73
361.88	1703.91
362.09	1695.72
362.30	1697.77
362.51	1681.38
362.72	1681.38
362.93	1769.44
363.14	1667.05
363.35	1697.77
363.56	1673.19
363.78	1736.68
363.99	1742.82
364.20	1652.71
364.41	1699.81
364.62	1800.16
364.83	1789.92
365.04	1740.77
365.25	1705.96
365.46	1832.93
365.67	1607.66
365.88	1644.52
366.09	1648.61
366.30	1671.14
366.51	1685.48
366.72	1652.71
366.93	1697.77
367.14	1779.68
367.35	1718.25
367.56	1697.77
367.77	1771.49
367.98	1695.72
368.18	1712.10
368.39	1634.28
368.60	1650.66
368.81	1658.85
369.02	1675.24
369.23	1691.62
369.44	1554.41
369.65	1675.24
369.86	1732.58
370.07	1695.72
370.28	1691.62
370.49	1732.58
370.70	1722.34
370.91	1644.52
371.12	1656.81
371.33	1716.20
371.54	1669.09
371.75	1804.26
371.96	1535.98
372.17	1710.05
372.38	1632.23
372.59	1804.26
372.80	1624.04
373.01	1705.96
373.22	1714.15
373.43	1730.53
373.64	1615.85
373.85	1761.25
374.06	1765.35
374.26	1771.49
374.47	1779.68
374.68	1775.59
374.89	1724.39
375.10	1763.30
375.31	1800.16
375.52	1691.62
375.73	1617.90
375.94	1691.62
376.15	1775.59
376.36	1591.27
376.57	1714.15
376.78	1726.44
376.99	1662.95
377.20	1662.95
377.40	1611.75
377.61	1781.73
377.82	1603.56
378.03	1798.12
378.24	1751.01
378.45	1683.43
378.66	1683.43
378.87	1581.03
379.08	1564.65
379.29	1681.38
379.50	1748.97
379.71	1693.67
379.91	1744.87
380.12	1718.25
380.33	1730.53
380.54	1710.05
380.75	1708.01
380.96	1677.29
381.17	1730.53
381.38	1783.78
381.59	1697.77
381.80	1771.49
382.00	1804.26
382.21	1744.87
382.42	1806.31
382.63	1855.46
382.84	1722.34
383.05	1685.48
383.26	1796.07
383.47	1669.09
383.68	1755.11
383.88	1757.16
384.09	1732.58
384.30	1839.08
384.51	1718.25
384.72	1677.29
384.93	1654.76
385.14	1708.01
385.35	1771.49
385.55	1630.18
385.76	1822.69
385.97	1652.71
386.18	1603.56
386.39	1624.04
386.60	1687.53
386.81	1658.85
387.02	1679.33
387.22	1652.71
387.43	1808.36
387.64	1820.64
387.85	1816.55
388.06	2187.23
388.27	4278.21
388.48	6743.96
388.68	8191.88
388.89	9570.16
389.10	9729.90
389.31	8570.75
389.52	7733.13
389.73	6907.80
389.93	6293.41
390.14	5904.29
390.35	5177.26
390.56	4794.29
390.77	3747.78
390.98	3002.32
391.18	2471.90
391.39	2152.42
391.60	1863.65
391.81	1869.80
392.02	1714.15
392.23	1904.61
392.43	1787.88
392.64	1794.02
392.85	1662.95
393.06	1781.73
393.27	1697.77
393.47	1724.39
393.68	1722.34
393.89	1701.86
394.10	1820.64
394.31	1681.38
394.52	1605.61
394.72	1728.49
394.93	1818.60
395.14	1611.75
395.35	1697.77
395.56	1621.99
395.76	1740.77
395.97	1787.88
396.18	1834.98
396.39	1853.41
396.60	1941.47
396.80	1832.93
397.01	1775.59
397.22	1828.84
397.43	1851.36
397.64	1728.49
397.84	1781.73
398.05	1863.65
398.26	1736.68
398.47	1744.87
398.67	1794.02
398.88	1746.92
399.09	1804.26
399.30	1683.43
399.51	1751.01
399.71	1576.94
399.92	1681.38
400.13	1683.43
400.34	1652.71
400.54	1677.29
400.75	1783.78
400.96	1738.73
401.17	1710.05
401.37	1765.35
401.58	1714.15
401.79	1691.62
402.00	1918.95
402.21	1959.91
402.41	1970.15
402.62	1974.24
402.83	2050.02
403.04	1976.29
403.24	2084.83
403.45	1744.87
403.66	1857.51
403.87	1826.79
404.07	1880.04
404.28	1828.84
404.49	1927.14
404.70	1812.45
404.90	1763.30
405.11	1677.29
405.32	1751.01
405.52	1701.86
405.73	1708.01
405.94	1611.75
406.15	1673.19
406.35	1710.05
406.56	1701.86
406.77	1740.77
406.98	1748.97
407.18	1656.81
407.39	1830.88
407.60	1660.90
407.80	1791.97
408.01	1609.70
408.22	1710.05
408.43	1611.75
408.63	1697.77
408.84	1732.58
409.05	1761.25
409.25	1681.38
409.46	1677.29
409.67	1621.99
409.88	1669.09
410.08	1732.58
410.29	1714.15
410.50	1732.58
410.70	1714.15
410.91	1597.42
411.12	1722.34
411.32	1718.25
411.53	1691.62
411.74	1746.92
411.95	1830.88
412.15	1730.53
412.36	1710.05
412.57	1777.64
412.77	1796.07
412.98	1794.02
413.19	1654.76
413.39	1777.64
413.60	1738.73
413.81	1761.25
414.01	1716.20
414.22	1753.06
414.43	1783.78
414.63	1724.39
414.84	1673.19
415.05	1708.01
415.25	1642.47
415.46	1724.39
415.67	1765.35
415.87	1736.68
416.08	1746.92
416.29	1720.29
416.49	1757.16
416.70	1675.24
416.91	1644.52
417.11	1665.00
417.32	1755.11
417.53	1746.92
417.73	1679.33
417.94	1691.62
418.15	1765.35
418.35	1787.88
418.56	1689.57
418.77	1800.16
418.97	1697.77
419.18	1656.81
419.38	1648.61
419.59	1710.05
419.80	1710.05
420.00	1683.43
420.21	1724.39
420.42	1800.16
420.62	1705.96
420.83	1634.28
421.04	1650.66
421.24	1693.67
421.45	1714.15
421.65	1718.25
421.86	1624.04
422.07	1746.92
422.27	1732.58
422.48	1703.91
422.69	1673.19
422.89	1617.90
423.10	1720.29
423.30	1683.43
423.51	1705.96
423.72	1732.58
423.92	1724.39
424.13	1621.99
424.33	1597.42
424.54	1734.63
424.75	1621.99
424.95	1771.49
425.16	1751.01
425.36	1722.34
425.57	1802.21
425.78	1736.68
425.98	1779.68
426.19	1720.29
426.39	1656.81
426.60	1699.81
426.81	1736.68
427.01	1685.48
427.22	1673.19
427.42	1617.90
427.63	1525.74
427.83	1746.92
428.04	1802.21
428.25	1738.73
428.45	1732.58
428.66	1775.59
428.86	1632.23
429.07	1591.27
429.28	1746.92
429.48	1732.58
429.69	1632.23
429.89	1771.49
430.10	1656.81
430.30	1687.53
430.51	1775.59
430.71	1665.00
430.92	1685.48
431.13	1671.14
431.33	1669.09
431.54	1726.44
431.74	1757.16
431.95	1773.54
432.15	1640.42
432.36	1632.23
432.56	1742.82
432.77	1787.88
432.98	1765.35
433.18	1703.91
433.39	1775.59
433.59	1640.42
433.80	1822.69
434.00	1816.55
434.21	1626.09
434.41	1662.95
434.62	1771.49
434.82	1685.48
435.03	1675.24
435.23	1736.68
435.44	1591.27
435.64	1667.05
435.85	1714.15
436.06	1712.10
436.26	1808.36
436.47	1744.87
436.67	1699.81
436.88	1712.10
437.08	1748.97
437.29	1748.97
437.49	1722.34
437.70	1810.40
437.90	1728.49
438.11	1822.69
438.31	1845.22
438.52	1863.65
438.72	1853.41
438.93	1873.89
439.13	1728.49
439.34	1896.42
439.54	1734.63
439.75	1806.31
439.95	1751.01
440.16	1660.90
440.36	1714.15
440.57	1691.62
440.77	1683.43
440.98	1683.43
441.18	1746.92
441.39	1710.05
441.59	1619.94
441.80	1822.69
442.00	1746.92
442.21	1802.21
442.41	1669.09
442.62	1755.11
442.82	1626.09
443.02	1740.77
443.23	1724.39
443.43	1710.05
443.64	1767.40
443.84	1687.53
444.05	1679.33
444.25	1708.01
444.46	1669.09
444.66	1783.78
444.87	1804.26
445.07	1685.48
445.28	1710.05
445.48	1798.12
445.69	1757.16
445.89	1775.59
446.09	1779.68
446.30	2027.49
446.50	2639.83
446.71	3760.07
446.91	4302.78
447.12	4782.01
447.32	4964.28
447.53	4284.35
447.73	3827.65
447.93	3538.89
448.14	3229.65
448.34	3153.87
448.55	2873.30
448.75	2899.92
448.96	2707.41
449.16	2346.97
449.36	2334.68
449.57	2078.69
449.77	1929.19
449.98	1722.34
450.18	1867.75
450.39	1753.06
450.59	1685.48
450.79	1779.68
451.00	1689.57
451.20	1783.78
451.41	1693.67
451.61	1730.53
451.81	1820.64
452.02	1677.29
452.22	1798.12
452.43	1726.44
452.63	1671.14
452.84	1759.21
453.04	1722.34
453.24	1794.02
453.45	1753.06
453.65	1755.11
453.86	1765.35
454.06	1716.20
454.26	1781.73
454.47	1705.96
454.67	1859.56
454.87	1660.90
455.08	1728.49
455.28	1890.28
455.49	1787.88
455.69	1716.20
455.89	1853.41
456.10	1767.40
456.30	1724.39
456.51	1796.07
456.71	1701.86
456.91	1746.92
457.12	1804.26
457.32	1755.11
457.52	1744.87
457.73	1734.63
457.93	1701.86
458.14	1705.96
458.34	1656.81
458.54	1744.87
458.75	1708.01
458.95	1837.03
459.15	1830.88
459.36	1759.21
459.56	1767.40
459.76	1867.75
459.97	1656.81
460.17	1654.76
460.37	1691.62
460.58	1775.59
460.78	1847.27
460.99	1748.97
461.19	1724.39
461.39	1724.39
461.60	1781.73
461.80	1751.01
462.00	1775.59
462.21	1701.86
462.41	1671.14
462.61	1673.19
462.82	1685.48
463.02	1787.88
463.22	1730.53
463.43	1785.83
463.63	1736.68
463.83	1814.50
464.04	1837.03
464.24	1781.73
464.44	1669.09
464.64	1701.86
464.85	1779.68
465.05	1804.26
465.25	1685.48
465.46	1656.81
465.66	1734.63
465.86	1828.84
466.07	1759.21
466.27	1781.73
466.47	1628.14
466.68	1654.76
466.88	1732.58
467.08	1755.11
467.29	1746.92
467.49	1742.82
467.69	1724.39
467.89	1765.35
468.10	1673.19
468.30	1736.68
468.50	1771.49
468.71	1699.81
468.91	1615.85
469.11	1853.41
469.31	1746.92
469.52	1654.76
469.72	1810.40
469.92	1920.99
470.13	1751.01
470.33	1740.77
470.53	1767.40
470.73	2088.93
470.94	2250.72
471.14	2367.45
471.34	2426.84
471.54	2316.25
471.75	2172.89
471.95	2009.06
472.15	2138.08
472.36	2037.73
472.56	2035.68
472.76	2011.11
472.96	1939.43
473.17	1894.37
473.37	1939.43
473.57	1841.12
473.77	1867.75
473.98	1785.83
474.18	1738.73
474.38	1853.41
474.58	1693.67
474.79	1716.20
474.99	1822.69
475.19	1740.77
475.39	1675.24
475.60	1644.52
475.80	1701.86
476.00	1771.49
476.20	1679.33
476.41	1714.15
476.61	1855.46
476.81	1769.44
477.01	1656.81
477.21	1802.21
477.42	1724.39
477.62	1667.05
477.82	1732.58
478.02	1660.90
478.23	1701.86
478.43	1677.29
478.63	1722.34
478.83	1716.20
479.03	1654.76
479.24	1751.01
479.44	1834.98
479.64	1609.70
479.84	1572.84
480.04	1646.57
480.25	1773.54
480.45	1681.38
480.65	1720.29
480.85	1763.30
481.06	1652.71
481.26	1763.30
481.46	1748.97
481.66	1785.83
481.86	1650.66
482.06	1765.35
482.27	1714.15
482.47	1695.72
482.67	1810.40
482.87	1650.66
483.07	1765.35
483.28	1691.62
483.48	1603.56
483.68	1748.97
483.88	1679.33
484.08	1605.61
484.29	1669.09
484.49	1693.67
484.69	1648.61
484.89	1812.45
485.09	1798.12
485.29	1718.25
485.50	1777.64
485.70	1691.62
485.90	1763.30
486.10	1738.73
486.30	1689.57
486.50	1816.55
486.71	1789.92
486.91	1826.79
487.11	1734.63
487.31	1640.42
487.51	1718.25
487.71	1621.99
487.91	1652.71
488.12	1660.90
488.32	1607.66
488.52	1607.66
488.72	1576.94
488.92	1685.48
489.12	1826.79
489.32	1755.11
489.53	1773.54
489.73	1636.33
489.93	1841.12
490.13	1642.47
490.33	1671.14
490.53	1703.91
490.73	1830.88
490.94	1658.85
491.14	1718.25
491.34	1761.25
491.54	2131.94
491.74	2590.68
491.94	2883.54
492.14	2885.59
492.34	3035.09
492.54	2828.24
492.75	2525.15
492.95	2389.98
493.15	2310.11
493.35	2195.42
493.55	2201.57
493.75	2093.02
493.95	2119.65
494.15	1998.82
494.35	1834.98
494.56	1812.45
494.76	1867.75
494.96	1791.97
495.16	1714.15
495.36	1742.82
495.56	1660.90
495.76	1775.59
495.96	1718.25
496.16	1699.81
496.36	1822.69
496.56	1689.57
496.77	1742.82
496.97	1699.81
497.17	1769.44
497.37	1712.10
497.57	1720.29
497.77	1634.28
497.97	1769.44
498.17	1738.73
498.37	1658.85
498.57	1728.49
498.77	1650.66
498.97	1753.06
499.17	1841.12
499.38	1662.95
499.58	1789.92
499.78	1744.87
499.98	1804.26
500.18	1724.39
500.38	1722.34
500.58	1918.95
500.78	2496.47
500.98	4517.82
501.18	5844.90
501.38	6717.34
501.58	7210.90
501.78	6666.14
501.98	5455.79
502.18	5035.96
502.38	4335.55
502.58	4128.70
502.78	3704.78
502.98	3735.50
503.18	3344.33
503.38	3127.25
503.59	2869.20
503.79	2613.21
503.99	2469.85
504.19	2281.44
504.39	2156.51
504.59	2191.33
504.79	2131.94
504.99	2045.92
505.19	1908.71
505.39	1925.09
505.59	1972.19
505.79	1929.19
505.99	1851.36
506.19	1812.45
506.39	1861.60
506.59	1746.92
506.79	1775.59
506.99	1806.31
507.19	1763.30
507.39	1695.72
507.59	1658.85
507.79	1652.71
507.99	1636.33
508.19	1712.10
508.39	1730.53
508.59	1675.24
508.79	1810.40
508.99	1865.70
509.19	1656.81
509.39	1808.36
509.59	1730.53
509.79	1654.76
509.99	1730.53
510.19	1685.48
510.39	1751.01
510.59	1724.39
510.79	1736.68
510.99	1656.81
511.19	1705.96
511.39	1837.03
511.59	1820.64
511.79	1814.50
511.99	1796.07
512.19	1814.50
512.38	1748.97
512.58	1683.43
512.78	1697.77
512.98	1783.78
513.18	1837.03
513.38	1595.37
513.58	1736.68
513.78	1687.53
513.98	1744.87
514.18	1589.22
514.38	1699.81
514.58	1685.48
514.78	1693.67
514.98	1671.14
515.18	1771.49
515.38	1660.90
515.58	1814.50
515.78	1734.63
515.98	1691.62
516.18	1746.92
516.38	1775.59
516.57	1703.91
516.77	1703.91
516.97	1787.88
517.17	1740.77
517.37	1597.42
517.57	1791.97
517.77	1695.72
517.97	1726.44
518.17	1767.40
518.37	1654.76
518.57	1775.59
518.77	1738.73
518.97	1722.34
519.16	1789.92
519.36	1810.40
519.56	1703.91
519.76	1724.39
519.96	1667.05
520.16	1775.59
520.36	1712.10
520.56	1814.50
520.76	1630.18
520.96	1724.39
521.16	1751.01
521.35	1845.22
521.55	1804.26
521.75	1726.44
521.95	1722.34
522.15	1681.38
522.35	1677.29
522.55	1718.25
522.75	1742.82
522.95	1728.49
523.14	1724.39
523.34	1722.34
523.54	1640.42
523.74	1783.78
523.94	1665.00
524.14	1648.61
524.34	1845.22
524.54	1814.50
524.73	1708.01
524.93	1794.02
525.13	1757.16
525.33	1626.09
525.53	1888.23
525.73	1841.12
525.93	1679.33
526.13	1607.66
526.32	1708.01
526.52	1728.49
526.72	1808.36
526.92	1757.16
527.12	1648.61
527.32	1638.38
527.52	1730.53
527.71	1800.16
527.91	1734.63
528.11	1701.86
528.31	1705.96
528.51	1695.72
528.71	1789.92
528.90	1765.35
529.10	1851.36
529.30	1855.46
529.50	1638.38
529.70	1753.06
529.90	1673.19
530.09	1755.11
530.29	1718.25
530.49	1660.90
530.69	1869.80
530.89	1695.72
531.09	1746.92
531.28	1685.48
531.48	1734.63
531.68	1691.62
531.88	1785.83
532.08	1791.97
532.28	1691.62
532.47	1830.88
532.67	1806.31
532.87	1689.57
533.07	1568.74
533.27	1742.82
533.46	1712.10
533.66	1673.19
533.86	1742.82
534.06	1708.01
534.26	1763.30
534.45	1677.29
534.65	1771.49
534.85	1701.86
535.05	1759.21
535.25	1804.26
535.44	1693.67
535.64	1701.86
535.84	1716.20
536.04	1681.38
536.24	1677.29
536.43	1701.86
536.63	1755.11
536.83	1742.82
537.03	1808.36
537.22	1677.29
537.42	1585.13
537.62	1720.29
537.82	1636.33
538.02	1783.78
538.21	1822.69
538.41	1826.79
538.61	1757.16
538.81	1726.44
539.00	1820.64
539.20	1630.18
539.40	1755.11
539.60	1740.77
539.79	1714.15
539.99	1693.67
540.19	1669.09
540.39	1734.63
540.58	1728.49
540.78	1794.02
540.98	1748.97
541.18	1691.62
541.37	1796.07
541.57	1759.21
541.77	1693.67
541.97	1662.95
542.16	1630.18
542.36	1708.01
542.56	1656.81
542.76	1882.08
542.95	1753.06
543.15	1798.12
543.35	1738.73
543.54	1810.40
543.74	1677.29
543.94	1804.26
544.14	1724.39
544.33	1740.77
544.53	1828.84
544.73	1701.86
544.93	1628.14
545.12	1634.28
545.32	1691.62
545.52	1695.72
545.71	1677.29
545.91	1755.11
546.11	1726.44
546.30	1722.34
546.50	1720.29
546.70	1808.36
546.90	1787.88
547.09	1683.43
547.29	1755.11
547.49	1783.78
547.68	1759.21
547.88	1695.72
548.08	1736.68
548.27	2222.05
548.47	1744.87
548.67	1677.29
548.87	1765.35
549.06	1691.62
549.26	1748.97
549.46	1695.72
549.65	1695.72
549.85	1726.44
550.05	1783.78
550.24	1695.72
550.44	1701.86
550.64	1697.77
550.83	1736.68
551.03	1796.07
551.23	1906.66
551.42	1689.57
551.62	1746.92
551.82	1828.84
552.01	1708.01
552.21	1775.59
552.41	1673.19
552.60	1785.83
552.80	1662.95
553.00	1710.05
553.19	1677.29
553.39	1812.45
553.59	1697.77
553.78	1732.58
553.98	1734.63
554.17	1687.53
554.37	1716.20
554.57	1771.49
554.76	1650.66
554.96	1697.77
555.16	1681.38
555.35	1761.25
555.55	1705.96
555.75	1746.92
555.94	1746.92
556.14	1669.09
556.33	1810.40
556.53	1665.00
556.73	1806.31
556.92	1865.70
557.12	1820.64
557.32	1826.79
557.51	1814.50
557.71	1777.64
557.90	1867.75
558.10	1851.36
558.30	1738.73
558.49	1689.57
558.69	1697.77
558.88	1730.53
559.08	1724.39
559.28	1730.53
559.47	1773.54
559.67	1787.88
559.86	1824.74
560.06	1703.91
560.26	1689.57
560.45	1773.54
560.65	1771.49
560.84	1791.97
561.04	1787.88
561.24	1806.31
561.43	1665.00
561.63	1779.68
561.82	1665.00
562.02	1845.22
562.22	1677.29
562.41	1665.00
562.61	1755.11
562.80	1742.82
563.00	1896.42
563.19	1701.86
563.39	1755.11
563.59	1714.15
563.78	1675.24
563.98	1595.37
564.17	1712.10
564.37	1628.14
564.56	1695.72
564.76	1642.47
564.96	1839.08
565.15	1820.64
565.35	1820.64
565.54	1693.67
565.74	1826.79
565.93	1724.39
566.13	1701.86
566.32	1755.11
566.52	1720.29
566.71	1708.01
566.91	1828.84
567.11	1705.96
567.30	1665.00
567.50	1773.54
567.69	1755.11
567.89	1697.77
568.08	1687.53
568.28	1753.06
568.47	1646.57
568.67	1710.05
568.86	1753.06
569.06	1806.31
569.25	1691.62
569.45	1701.86
569.64	1728.49
569.84	1650.66
570.04	1763.30
570.23	1662.95
570.43	1671.14
570.62	1716.20
570.82	1800.16
571.01	1742.82
571.21	1785.83
571.40	1701.86
571.60	1767.40
571.79	1834.98
571.99	1755.11
572.18	1695.72
572.38	1722.34
572.57	1718.25
572.77	1800.16
572.96	1845.22
573.16	1751.01
573.35	1775.59
573.55	1734.63
573.74	1746.92
573.94	1720.29
574.13	1708.01
574.33	1738.73
574.52	1798.12
574.71	1732.58
574.91	1755.11
575.10	1646.57
575.30	1728.49
575.49	1683.43
575.69	1677.29
575.88	1753.06
576.08	1720.29
576.27	1798.12
576.47	1761.25
576.66	1781.73
576.86	1834.98
577.05	1726.44
577.25	1746.92
577.44	1822.69
577.64	1757.16
577.83	1796.07
578.02	1771.49
578.22	1791.97
578.41	1789.92
578.61	1724.39
578.80	1726.44
579.00	1744.87
579.19	1705.96
579.39	1783.78
579.58	1822.69
579.77	1742.82
579.97	1849.32
580.16	1726.44
580.36	1812.45
580.55	1849.32
580.75	1757.16
580.94	1728.49
581.13	1818.60
581.33	1906.66
581.52	1751.01
581.72	1886.18
581.91	1923.04
582.11	1738.73
582.30	1744.87
582.49	1751.01
582.69	1800.16
582.88	1787.88
583.08	1728.49
583.27	1791.97
583.47	1828.84
583.66	1767.40
583.85	1662.95
584.05	1705.96
584.24	1843.17
584.44	1765.35
584.63	1808.36
584.82	1845.22
585.02	1896.42
585.21	1896.42
585.41	1890.28
585.60	1867.75
585.79	1916.90
585.99	1951.71
586.18	1849.32
586.37	2146.27
586.57	3397.58
586.76	9795.43
586.96	24505.99
587.15	34217.46
587.34	40328.60
587.54	42276.22
587.73	36672.98
587.93	26506.86
588.12	21370.55
588.31	18190.06
588.51	16262.92
588.70	15236.89
588.89	14137.13
589.09	12480.32
589.28	11118.42
589.47	9463.66
589.67	8034.18
589.86	6514.59
590.06	4900.79
590.25	4038.59
590.44	2951.12
590.64	2559.96
590.83	2283.49
591.02	2160.61
591.22	1918.95
591.41	1873.89
591.60	1818.60
591.80	1974.24
591.99	1822.69
592.18	1828.84
592.38	1837.03
592.57	1689.57
592.76	1705.96
592.96	1806.31
593.15	1791.97
593.34	1869.80
593.54	1785.83
593.73	1730.53
593.92	1728.49
594.12	1824.74
594.31	1730.53
594.50	1757.16
594.70	1841.12
594.89	1869.80
595.08	1628.14
595.28	1791.97
595.47	1843.17
595.66	1787.88
595.86	1589.22
596.05	1718.25
596.24	1759.21
596.43	1812.45
596.63	1820.64
596.82	1804.26
597.01	1769.44
597.21	1839.08
597.40	1734.63
597.59	1779.68
597.79	1730.53
597.98	1755.11
598.17	1787.88
598.36	1728.49
598.56	1785.83
598.75	1673.19
598.94	1759.21
599.14	1789.92
599.33	1687.53
599.52	1751.01
599.71	1689.57
599.91	1710.05
600.10	1738.73
600.29	1718.25
600.48	1769.44
600.68	1796.07
600.87	1751.01
601.06	1681.38
601.26	1744.87
601.45	1796.07
601.64	1775.59
601.83	1763.30
602.03	1705.96
602.22	1716.20
602.41	1820.64
602.60	1828.84
602.80	1716.20
602.99	1777.64
603.18	1742.82
603.37	1796.07
603.57	1755.11
603.76	1744.87
603.95	1740.77
604.14	1726.44
604.34	1736.68
604.53	1744.87
604.72	1761.25
604.91	1755.11
605.10	1828.84
605.30	1658.85
605.49	1859.56
605.68	1787.88
605.87	1773.54
606.07	1771.49
606.26	1714.15
606.45	1771.49
606.64	1740.77
606.84	1763.30
607.03	1697.77
607.22	1748.97
607.41	1665.00
607.60	1744.87
607.80	1798.12
607.99	1796.07
608.18	1722.34
608.37	1724.39
608.56	1783.78
608.76	1818.60
608.95	1757.16
609.14	1732.58
609.33	1796.07
609.52	1730.53
609.72	1726.44
609.91	1753.06
610.10	1742.82
610.29	1804.26
610.48	1847.27
610.68	1804.26
610.87	1681.38
611.06	1746.92
611.25	1689.57
611.44	1753.06
611.63	1705.96
611.83	1826.79
612.02	1693.67
612.21	1886.18
612.40	1603.56
612.59	1615.85
612.79	1708.01
612.98	1697.77
613.17	1843.17
613.36	1734.63
613.55	1849.32
613.74	1738.73
613.93	1691.62
614.13	1746.92
614.32	1744.87
614.51	1697.77
614.70	1740.77
614.89	1665.00
615.08	1724.39
615.28	2105.31
615.47	1701.86
615.66	1787.88
615.85	1728.49
616.04	1761.25
616.23	1689.57
616.42	1738.73
616.62	1710.05
616.81	1708.01
617.00	1673.19
617.19	1724.39
617.38	1648.61
617.57	1656.81
617.76	1720.29
617.95	1781.73
618.15	1800.16
618.34	1873.89
618.53	1710.05
618.72	1779.68
618.91	1894.37
619.10	1751.01
619.29	1751.01
619.48	1708.01
619.68	1734.63
619.87	1783.78
620.06	1570.79
620.25	1695.72
620.44	1769.44
620.63	1705.96
620.82	1763.30
621.01	1771.49
621.20	1703.91
621.39	1708.01
621.59	1763.30
621.78	1652.71
621.97	1751.01
622.16	1724.39
622.35	1773.54
622.54	1769.44
622.73	1781.73
622.92	1679.33
623.11	1769.44
623.30	1753.06
623.49	1783.78
623.68	1697.77
623.88	1796.07
624.07	1671.14
624.26	1763.30
624.45	1796.07
624.64	1652.71
624.83	1794.02
625.02	1742.82
625.21	1779.68
625.40	1742.82
625.59	1767.40
625.78	1785.83
625.97	1802.21
626.16	1742.82
626.35	1703.91
626.54	1673.19
626.74	1820.64
626.93	1714.15
627.12	1812.45
627.31	1732.58
627.50	1742.82
627.69	1787.88
627.88	1689.57
628.07	1654.76
628.26	1624.04
628.45	1685.48
628.64	1718.25
628.83	1660.90
629.02	1710.05
629.21	1798.12
629.40	1685.48
629.59	1634.28
629.78	1671.14
629.97	1701.86
630.16	1648.61
630.35	1753.06
630.54	1669.09
630.73	1734.63
630.92	1716.20
631.11	1662.95
631.30	1769.44
631.49	1800.16
631.68	1736.68
631.87	1716.20
632.06	1685.48
632.25	1789.92
632.44	1769.44
632.63	1695.72
632.82	1656.81
633.01	1699.81
633.20	1712.10
633.39	1658.85
633.58	1656.81
633.77	1691.62
633.96	1755.11
634.15	1716.20
634.34	1767.40
634.53	1748.97
634.72	1646.57
634.91	1626.09
635.10	1734.63
635.29	1675.24
635.48	1712.10
635.67	1701.86
635.86	1634.28
636.05	1755.11
636.24	1681.38
636.43	1724.39
636.62	1708.01
636.81	1595.37
637.00	1746.92
637.19	1791.97
637.38	1714.15
637.57	1662.95
637.76	1662.95
637.95	1683.43
638.14	1593.32
638.33	1697.77
638.52	1763.30
638.71	1615.85
638.89	1652.71
639.08	1822.69
639.27	1718.25
639.46	1740.77
639.65	1865.70
639.84	1685.48
640.03	1767.40
640.22	1691.62
640.41	1787.88
640.60	1689.57
640.79	1703.91
640.98	1685.48
641.17	1796.07
641.36	1681.38
641.55	1726.44
641.74	1646.57
641.92	1708.01
642.11	1574.89
642.30	1773.54
642.49	1650.66
642.68	1710.05
642.87	1687.53
643.06	1765.35
643.25	1636.33
643.44	1697.77
643.63	1665.00
643.82	1765.35
644.00	1697.77
644.19	1742.82
644.38	1644.52
644.57	1701.86
644.76	1757.16
644.95	1740.77
645.14	1722.34
645.33	1759.21
645.52	1679.33
645.71	1572.84
645.89	1642.47
646.08	1712.10
646.27	1642.47
646.46	1804.26
646.65	1607.66
646.84	1642.47
647.03	1595.37
647.22	1732.58
647.40	1742.82
647.59	1730.53
647.78	1746.92
647.97	1710.05
648.16	1726.44
648.35	1697.77
648.54	1730.53
648.73	1736.68
648.91	1796.07
649.10	1746.92
649.29	1642.47
649.48	1691.62
649.67	1681.38
649.86	1654.76
650.05	1636.33
650.23	1742.82
650.42	1636.33
650.61	1720.29
650.80	1667.05
650.99	1806.31
651.18	1710.05
651.36	1728.49
651.55	1609.70
651.74	1748.97
651.93	1695.72
652.12	1705.96
652.31	1744.87
652.49	1720.29
652.68	1667.05
652.87	1763.30
653.06	1652.71
653.25	1837.03
653.44	1675.24
653.62	1781.73
653.81	1656.81
654.00	1695.72
654.19	1806.31
654.38	1877.99
654.56	1791.97
654.75	1738.73
654.94	1718.25
655.13	1724.39
655.32	1652.71
655.51	1775.59
655.69	1701.86
655.88	1746.92
656.07	1650.66
656.26	1746.92
656.45	1658.85
656.63	1703.91
656.82	1779.68
657.01	1740.77
657.20	1658.85
657.38	1830.88
657.57	1689.57
657.76	1642.47
657.95	1736.68
658.14	1718.25
658.32	1714.15
658.51	1683.43
658.70	1804.26
658.89	1691.62
659.08	1669.09
659.26	1849.32
659.45	1665.00
659.64	1667.05
659.83	1656.81
660.01	1923.04
660.20	1716.20
660.39	1777.64
660.58	1603.56
660.76	1767.40
660.95	1617.90
661.14	1697.77
661.33	1626.09
661.51	1714.15
661.70	1697.77
661.89	1755.11
662.08	1621.99
662.26	1660.90
662.45	1708.01
662.64	1837.03
662.83	1683.43
663.01	1617.90
663.20	1697.77
663.39	1849.32
663.58	1693.67
663.76	1638.38
663.95	1652.71
664.14	1660.90
664.32	1708.01
664.51	1650.66
664.70	1593.32
664.89	1765.35
665.07	1652.71
665.26	1785.83
665.45	1648.61
665.64	1710.05
665.82	1732.58
666.01	1779.68
666.20	1626.09
666.38	1824.74
666.57	1812.45
666.76	2138.08
666.95	4474.81
667.13	10332.00
667.32	15154.97
667.51	17852.14
667.69	18904.80
667.88	17180.41
668.07	12279.62
668.25	9500.53
668.44	8171.40
668.63	7258.00
668.81	6954.90
669.00	6176.67
669.19	5689.26
669.38	5027.76
669.56	4675.51
669.75	3964.87
669.94	3459.02
670.12	2926.55
670.31	2572.25
670.50	2254.81
670.68	2138.08
670.87	1859.56
671.06	1810.40
671.24	1767.40
671.43	1796.07
671.62	1738.73
671.80	1773.54
671.99	1769.44
672.18	1703.91
672.36	1794.02
672.55	1812.45
672.74	1714.15
672.92	1669.09
673.11	1769.44
673.29	1628.14
673.48	1724.39
673.67	1673.19
673.85	1722.34
674.04	1669.09
674.23	1691.62
674.41	1822.69
674.60	1658.85
674.79	1640.42
674.97	1650.66
675.16	1699.81
675.34	1736.68
675.53	1697.77
675.72	1708.01
675.90	1845.22
676.09	1648.61
676.28	1681.38
676.46	1644.52
676.65	1802.21
676.83	1685.48
677.02	1740.77
677.21	1683.43
677.39	1742.82
677.58	1632.23
677.77	1671.14
677.95	1746.92
678.14	1683.43
678.32	1640.42
678.51	1658.85
678.70	1796.07
678.88	1644.52
679.07	1751.01
679.25	1734.63
679.44	1697.77
679.63	1652.71
679.81	1656.81
680.00	1810.40
680.18	1753.06
680.37	1802.21
680.55	1742.82
680.74	1626.09
680.93	1587.18
681.11	1722.34
681.30	1628.14
681.48	1720.29
681.67	1687.53
681.85	1701.86
682.04	1630.18
682.23	1642.47
682.41	1689.57
682.60	1742.82
682.78	1742.82
682.97	1685.48
683.15	1701.86
683.34	1703.91
683.53	1867.75
683.71	1640.42
683.90	1765.35
684.08	1812.45
684.27	1681.38
684.45	1695.72
684.64	1730.53
684.82	1777.64
685.01	1759.21
685.19	1628.14
685.38	1759.21
685.57	1720.29
685.75	1595.37
685.94	1697.77
686.12	1619.94
686.31	1628.14
686.49	1732.58
686.68	1624.04
686.86	1722.34
687.05	1638.38
687.23	1812.45
687.42	1662.95
687.60	1626.09
687.79	1654.76
687.97	1761.25
688.16	1798.12
688.34	1740.77
688.53	1640.42
688.71	1683.43
688.90	1759.21
689.08	1710.05
689.27	1597.42
689.45	1728.49
689.64	1789.92
689.82	1732.58
690.01	1738.73
690.19	1734.63
690.38	1605.61
690.56	1800.16
690.75	1652.71
690.93	1632.23
691.12	1652.71
691.30	1722.34
691.49	1671.14
691.67	1714.15
691.86	1845.22
692.04	1732.58
692.23	1632.23
692.41	1693.67
692.60	1771.49
692.78	1734.63
692.97	1687.53
693.15	1634.28
693.34	1753.06
693.52	1738.73
693.71	1689.57
693.89	1667.05
694.08	1644.52
694.26	1771.49
694.44	1746.92
694.63	1763.30
694.81	1548.26
695.00	1632.23
695.18	1765.35
695.37	1804.26
695.55	1755.11
695.74	1681.38
695.92	1662.95
696.10	1753.06
696.29	1716.20
696.47	1660.90
696.66	1642.47
696.84	1615.85
697.03	1693.67
697.21	1796.07
697.40	2291.68
697.58	1742.82
697.76	1644.52
697.95	1642.47
698.13	1601.51
698.32	1667.05
698.50	1695.72
698.68	1710.05
698.87	1712.10
699.05	1763.30
699.24	1736.68
699.42	1607.66
699.61	1763.30
699.79	1662.95
699.97	1683.43
700.16	1650.66
700.34	1708.01
700.53	1716.20
700.71	1822.69
700.89	1742.82
701.08	1679.33
701.26	1714.15
701.45	2133.98
701.63	1626.09
701.81	1742.82
702.00	1632.23
702.18	1730.53
702.37	1701.86
702.55	1761.25
702.73	1626.09
702.92	1613.80
703.10	1791.97
703.28	1689.57
703.47	1732.58
703.65	1783.78
703.84	1624.04
704.02	1783.78
704.20	1718.25
704.39	1542.12
704.57	1695.72
704.75	1740.77
704.94	1773.54
705.12	1679.33
705.30	1701.86
705.49	2369.50
705.67	4356.03
705.86	9373.55
706.04	12494.66
706.22	14389.03
706.41	15103.77
706.59	13954.86
706.77	9668.46
706.96	7341.97
707.14	6481.82
707.32	6006.69
707.51	5472.17
707.69	4999.09
707.87	4261.82
708.06	3604.42
708.24	3002.32
708.42	2445.27
708.61	2263.01
708.79	1920.99
708.97	1837.03
709.16	1830.88
709.34	1812.45
709.52	1816.55
709.71	1697.77
709.89	1769.44
710.07	1632.23
710.26	1730.53
710.44	1753.06
710.62	1728.49
710.80	1779.68
710.99	1726.44
711.17	1779.68
711.35	1658.85
711.54	1624.04
711.72	1718.25
711.90	1769.44
712.09	1712.10
712.27	1667.05
712.45	1710.05
712.63	1669.09
712.82	1777.64
713.00	1697.77
713.18	1753.06
713.37	1753.06
713.55	1759.21
713.73	1646.57
713.91	1667.05
714.10	1757.16
714.28	1714.15
714.46	1673.19
714.65	1671.14
714.83	1730.53
715.01	1699.81
715.19	1806.31
715.38	1761.25
715.56	1755.11
715.74	1662.95
715.92	1636.33
716.11	1781.73
716.29	1636.33
716.47	1640.42
716.65	1751.01
716.84	1626.09
717.02	1710.05
717.20	1552.36
717.38	1675.24
717.57	1757.16
717.75	1691.62
717.93	1652.71
718.11	1695.72
718.30	1609.70
718.48	1658.85
718.66	1841.12
718.84	1763.30
719.03	1714.15
719.21	1710.05
719.39	1847.27
719.57	1681.38
719.75	1777.64
719.94	1605.61
720.12	1679.33
720.30	1673.19
720.48	1724.39
720.67	1679.33
720.85	1611.75
721.03	1726.44
721.21	1634.28
721.39	1789.92
721.58	1718.25
721.76	1720.29
721.94	1697.77
722.12	1689.57
722.30	1794.02
722.49	1769.44
722.67	1660.90
722.85	1716.20
723.03	1576.94
723.21	1701.86
723.40	1689.57
723.58	1708.01
723.76	1779.68
723.94	1767.40
724.12	1689.57
724.30	1820.64
724.49	1722.34
724.67	1613.80
724.85	1755.11
725.03	1644.52
725.21	1613.80
725.40	1736.68
725.58	1540.07
725.76	1710.05
725.94	1720.29
726.12	1640.42
726.30	1771.49
726.49	1751.01
726.67	1742.82
726.85	1740.77
727.03	1777.64
727.21	2150.37
727.39	2971.60
727.57	3772.36
727.76	4247.49
727.94	4317.12
728.12	4454.33
728.30	3618.76
728.48	3059.67
728.66	2713.56
728.84	2533.34
729.03	2381.79
729.21	2164.70
729.39	1875.94
729.57	1818.60
729.75	1826.79
729.93	1796.07
730.11	1634.28
730.30	1757.16
730.48	1753.06
730.66	1785.83
730.84	1710.05
731.02	1665.00
731.20	1708.01
731.38	1703.91
731.56	1601.51
731.74	1675.24
731.93	1675.24
732.11	1697.77
732.29	1660.90
732.47	1716.20
732.65	1720.29
732.83	1763.30
733.01	1779.68
733.19	1728.49
733.37	1699.81
733.56	1724.39
733.74	1644.52
733.92	1800.16
734.10	1640.42
734.28	1767.40
734.46	1613.80
734.64	1677.29
734.82	1716.20
735.00	1665.00
735.18	1673.19
735.36	1621.99
735.54	1753.06
735.73	1759.21
735.91	1736.68
736.09	1763.30
736.27	1665.00
736.45	1732.58
736.63	1621.99
736.81	1681.38
736.99	1736.68
737.17	1769.44
737.35	1601.51
737.53	1769.44
737.71	1720.29
737.89	1734.63
738.07	1710.05
738.25	1675.24
738.43	1630.18
738.61	1613.80
738.80	1687.53
738.98	1679.33
739.16	1699.81
739.34	1656.81
739.52	1720.29
739.70	1638.38
739.88	1769.44
740.06	1791.97
740.24	1552.36
740.42	1789.92
740.60	1665.00
740.78	1671.14
740.96	1607.66
741.14	1654.76
741.32	1685.48
741.50	1636.33
741.68	1822.69
741.86	1839.08
742.04	1710.05
742.22	1718.25
742.40	1697.77
742.58	1740.77
742.76	1681.38
742.94	1693.67
743.12	1710.05
743.30	1693.67
743.48	1679.33
743.66	1691.62
743.84	1714.15
744.02	1630.18
744.20	1693.67
744.38	1658.85
744.56	1675.24
744.74	1712.10
744.92	1740.77
745.10	1697.77
745.28	1658.85
745.46	1851.36
745.64	1687.53
745.82	1724.39
746.00	1669.09
746.18	1683.43
746.36	1583.08
746.54	1667.05
746.72	1648.61
746.90	1650.66
747.08	1771.49
747.26	1714.15
747.44	1708.01
747.62	1695.72
747.80	1679.33
747.98	1779.68
748.15	1652.71
748.33	1755.11
748.51	1667.05
748.69	1732.58
748.87	1624.04
749.05	1691.62
749.23	1746.92
749.41	1771.49
749.59	1609.70
749.77	1724.39
749.95	1648.61
750.13	1734.63
750.31	1724.39
750.49	1691.62
750.67	1736.68
750.85	1705.96
751.03	1697.77
751.20	1894.37
751.38	1665.00
751.56	1646.57
751.74	1800.16
751.92	1691.62
752.10	1644.52
752.28	1755.11
752.46	1630.18
752.64	1646.57
752.82	1708.01
753.00	1765.35
753.18	1656.81
753.35	1673.19
753.53	1746.92
753.71	1748.97
753.89	1673.19
754.07	1697.77
754.25	1839.08
754.43	1703.91
754.61	1632.23
754.79	1714.15
754.97	1630.18
755.14	1769.44
755.32	1640.42
755.50	1705.96
755.68	1710.05
755.86	1685.48
756.04	1697.77
756.22	1619.94
756.40	1748.97
756.57	1820.64
756.75	1652.71
756.93	1710.05
757.11	1773.54
757.29	1701.86
757.47	1636.33
757.65	1648.61
757.82	1566.70
758.00	1724.39
758.18	1658.85
758.36	1689.57
758.54	1804.26
758.72	1587.18
758.90	1781.73
759.07	1734.63
759.25	1632.23
759.43	1693.67
759.61	1665.00
759.79	2189.28
759.97	1722.34
760.15	1597.42
760.32	1703.91
760.50	1660.90
760.68	1796.07
760.86	1560.55
761.04	1736.68
761.22	1722.34
761.39	1738.73
761.57	1767.40
761.75	1703.91
761.93	1695.72
762.11	1742.82
762.28	1693.67
762.46	1636.33
762.64	1742.82
762.82	1599.46
763.00	1701.86
763.18	1769.44
763.35	1673.19
763.53	1673.19
763.71	1783.78
763.89	1720.29
764.07	1724.39
764.24	1763.30
764.42	1761.25
764.60	1671.14
764.78	1693.67
764.96	1689.57
765.13	1693.67
765.31	1679.33
765.49	1783.78
765.67	1671.14
765.84	1716.20
766.02	1628.14
766.20	1589.22
766.38	1757.16
766.56	1705.96
766.73	1734.63
766.91	1697.77
767.09	1738.73
767.27	1691.62
767.44	1648.61
767.62	1742.82
767.80	1691.62
767.98	1714.15
768.15	1675.24
768.33	1781.73
768.51	1804.26
768.69	1742.82
768.87	1708.01
769.04	1695.72
769.22	1839.08
769.40	1759.21
769.58	1875.94
769.75	1701.86
769.93	1677.29
770.11	1734.63
770.28	1619.94
770.46	1777.64
770.64	1665.00
770.82	1675.24
770.99	1722.34
771.17	1718.25
771.35	1673.19
771.53	1656.81
771.70	1724.39
771.88	1679.33
772.06	1730.53
772.23	1740.77
772.41	1693.67
772.59	1675.24
772.77	1671.14
772.94	1726.44
773.12	1828.84
773.30	1619.94
773.47	1755.11
773.65	1607.66
773.83	1787.88
774.01	1660.90
774.18	1587.18
774.36	1630.18
774.54	1640.42
774.71	1693.67
774.89	1578.98
775.07	1662.95
775.24	1675.24
775.42	1675.24
775.60	1830.88
775.78	1673.19
775.95	1648.61
776.13	1583.08
776.31	1617.90
776.48	1744.87
776.66	1703.91
776.84	1671.14
777.01	1685.48
777.19	1705.96
777.37	1683.43
777.54	1775.59
777.72	1779.68
777.90	1712.10
778.07	1703.91
778.25	1869.80
778.43	1779.68
778.60	1642.47
778.78	1804.26
778.96	1748.97
779.13	1632.23
779.31	1722.34
779.49	1728.49
779.66	1705.96
779.84	1744.87
780.01	1705.96
780.19	1720.29
780.37	1740.77
780.54	1783.78
780.72	1605.61
780.90	1744.87
781.07	1673.19
781.25	1607.66
781.43	1740.77
781.60	1773.54
781.78	1748.97
781.95	1726.44
782.13	1697.77
782.31	1722.34
782.48	1568.74
782.66	1683.43
782.83	1873.89
783.01	1660.90
783.19	1738.73
783.36	1722.34
783.54	1671.14
783.72	1710.05
783.89	1675.24
784.07	1769.44
784.24	1730.53
784.42	1830.88
784.60	1734.63
784.77	1755.11
784.95	1613.80
785.12	1667.05
785.30	1722.34
785.47	1648.61
785.65	1605.61
785.83	1712.10
786.00	1701.86
786.18	1738.73
786.35	1708.01
786.53	1736.68
786.71	1751.01
786.88	1685.48
787.06	1701.86
787.23	1632.23
787.41	1562.60
787.58	1742.82
787.76	1667.05
787.94	1722.34
788.11	1705.96
788.29	1636.33
788.46	1740.77
788.64	1611.75
788.81	1712.10
788.99	1697.77
789.16	1603.56
789.34	1695.72
789.52	1705.96
789.69	1689.57
789.87	1642.47
790.04	1705.96
790.22	1710.05
790.39	1824.74
790.57	1619.94
790.74	1632.23
790.92	1755.11
791.09	1617.90
791.27	1708.01
791.44	1839.08
791.62	1654.76
791.79	1679.33
791.97	1662.95
792.15	1832.93
792.32	1777.64
792.50	1769.44
792.67	1818.60
792.85	1708.01
793.02	1685.48
793.20	1683.43
793.37	1677.29
793.55	1642.47
793.72	1720.29
793.90	1771.49
794.07	1687.53
794.25	1638.38
794.42	1687.53
794.60	1708.01
794.77	1724.39
794.95	1746.92
795.12	1726.44
795.30	1697.77
795.47	1642.47
795.65	1904.61
795.82	1767.40
796.00	1671.14
796.17	1640.42
796.34	1626.09
796.52	1726.44
796.69	1728.49
796.87	1726.44
797.04	1630.18
797.22	1783.78
797.39	1656.81
797.57	1734.63
797.74	1662.95
797.92	1708.01
798.09	1654.76
798.27	1841.12
798.44	1777.64
798.62	1671.14
798.79	1730.53
798.96	1755.11
799.14	1712.10
799.31	1814.50
799.49	1652.71
799.66	1693.67
799.84	1615.85
800.01	1656.81
800.19	1669.09
800.36	1634.28
800.53	1677.29
800.71	1669.09
800.88	1722.34
801.06	1671.14
801.23	1675.24
801.41	1656.81
801.58	1708.01
801.75	1673.19
801.93	1734.63
802.10	1738.73
802.28	1722.34
802.45	1640.42
802.63	1748.97
802.80	1763.30
802.97	1714.15
803.15	1728.49
803.32	1658.85
803.50	1705.96
803.67	1609.70
803.84	1624.04
804.02	1730.53
804.19	1728.49
804.37	1570.79
804.54	1728.49
804.71	1730.53
804.89	1691.62
805.06	1714.15
805.24	1669.09
805.41	1634.28
805.58	1685.48
805.76	1796.07
805.93	1673.19
806.10	1841.12
806.28	1728.49
806.45	1730.53
806.63	1755.11
806.80	1732.58
806.97	1767.40
807.15	1656.81
807.32	1689.57
807.49	1656.81
807.67	1593.32
807.84	1644.52
808.01	1574.89
808.19	1796.07
808.36	1843.17
808.54	1695.72
808.71	1585.13
808.88	1730.53
809.06	1716.20
809.23	1806.31
809.40	1677.29
809.58	1775.59
809.75	1755.11
809.92	1630.18
810.10	1898.47
810.27	1665.00
810.44	1761.25
810.62	1742.82
810.79	1734.63
810.96	1689.57
811.14	1632.23
811.31	1736.68
811.48	1726.44
811.66	1685.48
811.83	1775.59
812.00	1720.29
812.18	1730.53
812.35	1736.68
812.52	1652.71
812.69	1712.10
812.87	1732.58
813.04	1751.01
813.21	1767.40
813.39	1640.42
813.56	1642.47
813.73	1712.10
813.91	1624.04
814.08	1642.47
814.25	1693.67
814.42	1595.37
814.60	1769.44
814.77	1742.82
814.94	1693.67
815.12	1683.43
815.29	1763.30
815.46	1742.82
815.63	1638.38
815.81	1697.77
815.98	1695.72
816.15	1662.95
816.33	1675.24
816.50	1703.91
816.67	1703.91
816.84	1697.77
817.02	1636.33
817.19	1658.85
817.36	1722.34
817.53	1755.11
817.71	1662.95
817.88	1771.49
818.05	1689.57
818.22	1689.57
818.40	1767.40
818.57	1593.32
818.74	1689.57
818.91	1710.05
819.09	1710.05
819.26	1755.11
819.43	1714.15
819.60	1607.66
819.78	1693.67
819.95	1789.92
820.12	1587.18
820.29	1755.11
820.47	1816.55
820.64	1667.05
820.81	1652.71
820.98	1662.95
821.15	1685.48
821.33	1710.05
821.50	1595.37
821.67	1773.54
821.84	1673.19
822.02	1665.00
822.19	1775.59
822.36	1640.42
822.53	1736.68
822.70	1617.90
822.88	1640.42
823.05	1783.78
823.22	1669.09
823.39	1722.34
823.56	1587.18
823.74	1759.21
823.91	1607.66
824.08	1630.18
824.25	1581.03
824.42	1777.64
824.60	1695.72
824.77	1718.25
824.94	1617.90
825.11	1644.52
825.28	1628.14
825.45	1730.53
825.63	1703.91
825.80	1650.66
825.97	1654.76
826.14	1724.39
826.31	1638.38
826.48	1710.05
826.66	1589.22
826.83	1640.42
827.00	1710.05
827.17	1601.51
827.34	1652.71
827.51	1630.18
827.69	1617.90
827.86	1615.85
828.03	1734.63
828.20	1726.44
828.37	1701.86
828.54	1665.00
828.71	1640.42
828.89	1751.01
829.06	1695.72
829.23	1787.88
829.40	1595.37
829.57	1599.46
829.74	1751.01
829.91	1636.33
830.09	1603.56
830.26	1730.53
830.43	1755.11
830.60	1728.49
830.77	1708.01
830.94	1771.49
831.11	1791.97
831.28	1693.67
831.46	1763.30
831.63	1718.25
831.80	1708.01
831.97	1679.33
832.14	1638.38
832.31	1683.43
832.48	1689.57
832.65	1845.22
832.82	1609.70
832.99	1722.34
833.17	1671.14
833.34	1755.11
833.51	1712.10
833.68	1574.89
833.85	1734.63
834.02	1669.09
834.19	1656.81
834.36	1638.38
834.53	1812.45
834.70	1726.44
834.87	1712.10
835.04	1658.85
835.22	1619.94
835.39	1679.33
835.56	1611.75
835.73	1611.75
835.90	1695.72
836.07	1648.61
836.24	1712.10
836.41	1673.19
836.58	1607.66
836.75	1697.77
836.92	1763.30
837.09	1646.57
837.26	1800.16
837.43	1687.53
837.60	1759.21
837.77	1615.85
837.94	1751.01
838.12	1726.44
838.29	1781.73
838.46	1605.61
838.63	1730.53
838.80	1722.34
838.97	1734.63
839.14	1732.58
839.31	1652.71
839.48	1738.73
839.65	1658.85
839.82	1769.44
839.99	1730.53
840.16	1748.97
840.33	1669.09
840.50	1656.81
840.67	1693.67
840.84	1550.31
841.01	1617.90
841.18	1650.66
841.35	1638.38
841.52	1738.73
841.69	1767.40
841.86	1611.75
842.03	1671.14
842.20	1763.30
842.37	1769.44
842.54	1693.67
842.71	1722.34
842.88	1619.94
843.05	1787.88
843.22	1708.01
843.39	1761.25
843.56	1722.34
843.73	1687.53
843.90	1722.34
844.07	1673.19
844.24	1718.25
844.41	1732.58
844.58	1648.61
844.75	1654.76
844.92	1736.68
845.09	1689.57
845.26	1572.84
845.43	1740.77
845.60	1650.66
845.77	1722.34
845.94	1716.20
846.10	1726.44
846.27	1613.80
846.44	1632.23
846.61	1689.57
846.78	1648.61
846.95	1693.67
847.12	1718.25
847.29	1677.29
847.46	1650.66
847.63	1759.21
847.80	1628.14
847.97	1687.53
848.14	1804.26
848.31	1705.96
848.48	1572.84
848.65	1685.48
848.82	1660.90
848.98	1898.47
849.15	1753.06
849.32	1654.76
849.49	1728.49
849.66	1644.52
849.83	1667.05
850.00	1634.28
850.17	1791.97
850.34	1656.81
850.51	1630.18
850.68	1662.95
850.85	1779.68
851.01	1710.05
851.18	1714.15
851.35	1669.09
851.52	1683.43
851.69	1841.12
851.86	1648.61
852.03	1720.29
852.20	1779.68
852.37	1712.10
852.53	1683.43
852.70	1798.12
852.87	1683.43
853.04	1703.91
853.21	1675.24
853.38	1740.77
853.55	1771.49
853.72	1769.44
853.89	1566.70
854.05	1570.79
854.22	1665.00
854.39	1634.28
854.56	1695.72
854.73	1714.15
854.90	1734.63
855.07	1671.14
855.23	1624.04
855.40	1691.62
855.57	1675.24
855.74	1521.64
855.91	1837.03
856.08	1607.66
856.25	1658.85
856.41	1665.00
856.58	1673.19
856.75	1650.66
856.92	1619.94
857.09	1677.29
857.26	1607.66
857.42	1714.15
857.59	1628.14
857.76	1691.62
857.93	1679.33
858.10	1660.90
858.27	1730.53
858.43	1755.11
858.60	1656.81
858.77	1665.00
858.94	1675.24
859.11	1738.73
859.27	1681.38
859.44	1742.82
859.61	1767.40
859.78	1716.20
859.95	1677.29
860.12	1615.85
860.28	1834.98
860.45	1777.64
860.62	1638.38
860.79	1687.53
860.95	1685.48
861.12	1638.38
861.29	1638.38
861.46	1636.33
861.63	1677.29
861.79	1691.62
861.96	1644.52
862.13	1689.57
862.30	1759.21
862.47	1644.52
862.63	1605.61
862.80	1759.21
862.97	1740.77
863.14	1761.25
863.30	1626.09
863.47	1689.57
863.64	1724.39
863.81	1656.81
863.97	1617.90
864.14	1746.92
864.31	1705.96
864.48	1681.38
864.65	1681.38
864.81	1726.44
864.98	1646.57
865.15	1712.10
865.32	1697.77
865.48	1736.68
865.65	1771.49
865.82	1689.57
865.98	1712.10
866.15	1736.68
866.32	1665.00
866.49	1628.14
866.65	1800.16
866.82	1615.85
866.99	1785.83
867.16	1628.14
867.32	1648.61
867.49	1712.10
867.66	1701.86
867.83	1744.87
867.99	1599.46
868.16	1660.90
868.33	1562.60
868.49	1648.61
868.66	1621.99
868.83	1810.40
868.99	1654.76
869.16	1736.68
869.33	1736.68
869.50	1769.44
869.66	1673.19
869.83	1771.49
870.00	1591.27
870.16	1775.59
870.33	1691.62
870.50	1761.25
870.66	1740.77
870.83	1794.02
871.00	1724.39
871.17	1738.73
871.33	1710.05
871.50	1677.29
871.67	1722.34
871.83	1624.04
872.00	1828.84
872.17	1665.00
872.33	1810.40
872.50	1757.16
872.67	1665.00
872.83	1775.59
873.00	1687.53
873.17	1712.10
873.33	1722.34
873.50	1689.57
873.67	1708.01
873.83	1636.33
874.00	1644.52
874.16	1769.44
874.33	1669.09
874.50	1642.47
874.66	1685.48
874.83	1716.20
875.00	1708.01
875.16	1763.30
875.33	1880.04
875.50	1574.89
875.66	1644.52
875.83	1757.16
875.99	1679.33
876.16	1720.29
876.33	1597.42
876.49	1624.04
876.66	1681.38
876.83	1628.14
876.99	1685.48
877.16	1650.66
877.32	1699.81
877.49	1671.14
877.66	1722.34
877.82	1738.73
877.99	1718.25
878.15	1734.63
878.32	1626.09
878.49	1665.00
878.65	1669.09
878.82	1806.31
878.98	1660.90
879.15	1726.44
879.32	1751.01
879.48	1681.38
879.65	1642.47
879.81	1685.48
879.98	1677.29
880.15	1638.38
880.31	1732.58
880.48	1667.05
880.64	1800.16
880.81	1705.96
880.97	1767.40
881.14	1689.57
881.31	1630.18
881.47	1783.78
881.64	1611.75
881.80	1619.94
881.97	1763.30
882.13	1687.53
882.30	1621.99
882.47	1677.29
882.63	1648.61
882.80	1656.81
882.96	1718.25
883.13	1736.68
883.29	1681.38
883.46	1703.91
883.62	1685.48
883.79	1689.57
883.95	1744.87
884.12	1722.34
884.29	1777.64
884.45	1708.01
884.62	1734.63
884.78	1634.28
884.95	1806.31
885.11	1613.80
885.28	1753.06
885.44	1667.05
885.61	1746.92
885.77	1746.92
885.94	1728.49
886.10	1681.38
886.27	1630.18
886.43	1804.26
886.60	1751.01
886.76	1621.99
886.93	1628.14
887.09	1753.06
887.26	1654.76
887.42	1667.05
887.59	1718.25
887.75	1824.74
887.92	1734.63
888.08	1730.53
888.25	1841.12
888.41	1691.62
888.58	1761.25
888.74	1636.33
888.91	1687.53
>>>>>End Processed Spectral Data<<<<<
