SpectraSuite Data File
++++++++++++++++++++++++++++++++++++
Date: Mon Jun 06 13:45:37 CEST 2016
User: root
Dark Spectrum Present: No
Reference Spectrum Present: No
Number of Sampled Component Spectra: 1
Spectrometers: USB4C02835
Integration Time (usec): 100000 (USB4C02835)
Spectra Averaged: 1 (USB4C02835)
Boxcar Smoothing: 0 (USB4C02835)
Correct for Electrical Dark: No (USB4C02835)
Strobe/Lamp Enabled: No (USB4C02835)
Correct for Detector Non-linearity: No (USB4C02835)
Correct for Stray Light: No (USB4C02835)
Number of Pixels in Processed Spectrum: 3648
>>>>>Begin Processed Spectral Data<<<<<
177.47	1511.40
177.69	1511.40
177.91	1511.40
178.13	1495.02
178.36	1452.01
178.58	1691.62
178.80	1660.90
179.02	1601.51
179.24	1679.33
179.46	1640.42
179.68	1771.49
179.90	1636.33
180.13	1697.77
180.35	1658.85
180.57	1673.19
180.79	1761.25
181.01	1746.92
181.23	1597.42
181.45	1789.92
181.67	1771.49
181.90	1853.41
182.12	1630.18
182.34	1656.81
182.56	1726.44
182.78	1675.24
183.00	1665.00
183.22	1712.10
183.44	1576.94
183.66	1871.84
183.89	1798.12
184.11	1669.09
184.33	1699.81
184.55	1826.79
184.77	1802.21
184.99	1681.38
185.21	1714.15
185.43	1877.99
185.65	1636.33
185.87	1734.63
186.10	1775.59
186.32	1804.26
186.54	1724.39
186.76	1755.11
186.98	1724.39
187.20	1736.68
187.42	1708.01
187.64	1671.14
187.86	1697.77
188.08	1712.10
188.30	1716.20
188.52	1724.39
188.75	1779.68
188.97	1738.73
189.19	1595.37
189.41	1665.00
189.63	1703.91
189.85	1669.09
190.07	1685.48
190.29	1640.42
190.51	1775.59
190.73	1607.66
190.95	1730.53
191.17	1646.57
191.39	1671.14
191.61	1677.29
191.84	1626.09
192.06	1722.34
192.28	1603.56
192.50	1802.21
192.72	1746.92
192.94	1685.48
193.16	1656.81
193.38	1718.25
193.60	1665.00
193.82	1720.29
194.04	1738.73
194.26	1714.15
194.48	1673.19
194.70	1658.85
194.92	1671.14
195.14	1693.67
195.36	1726.44
195.58	1779.68
195.80	1648.61
196.02	1626.09
196.24	1595.37
196.46	1683.43
196.69	1603.56
196.91	1787.88
197.13	1687.53
197.35	1697.77
197.57	1800.16
197.79	1724.39
198.01	1626.09
198.23	1701.86
198.45	1701.86
198.67	1640.42
198.89	1693.67
199.11	1767.40
199.33	1630.18
199.55	1562.60
199.77	1581.03
199.99	1722.34
200.21	1671.14
200.43	1652.71
200.65	1605.61
200.87	1599.46
201.09	1705.96
201.31	1615.85
201.53	1777.64
201.75	1708.01
201.97	1769.44
202.19	1748.97
202.41	1712.10
202.63	1832.93
202.85	1769.44
203.07	1740.77
203.29	1765.35
203.51	1605.61
203.73	1626.09
203.95	1837.03
204.17	1722.34
204.39	1714.15
204.61	1708.01
204.83	1685.48
205.05	1742.82
205.27	1699.81
205.49	1839.08
205.71	1683.43
205.93	1669.09
206.15	1538.02
206.37	1679.33
206.59	1710.05
206.81	1683.43
207.03	1595.37
207.25	1632.23
207.47	1724.39
207.69	1689.57
207.91	1808.36
208.13	1820.64
208.34	1714.15
208.56	1687.53
208.78	1757.16
209.00	1638.38
209.22	1615.85
209.44	1675.24
209.66	1679.33
209.88	1689.57
210.10	1665.00
210.32	1660.90
210.54	1800.16
210.76	1613.80
210.98	1763.30
211.20	1570.79
211.42	1660.90
211.64	1822.69
211.86	1652.71
212.08	1691.62
212.30	1638.38
212.52	1781.73
212.74	1714.15
212.96	1751.01
213.17	1755.11
213.39	1755.11
213.61	1781.73
213.83	1648.61
214.05	1589.22
214.27	1755.11
214.49	1634.28
214.71	1683.43
214.93	1806.31
215.15	1726.44
215.37	1765.35
215.59	1599.46
215.81	1738.73
216.03	1765.35
216.24	1611.75
216.46	1665.00
216.68	1732.58
216.90	1789.92
217.12	1775.59
217.34	1685.48
217.56	1720.29
217.78	1804.26
218.00	1736.68
218.22	1677.29
218.44	1697.77
218.66	1710.05
218.87	1816.55
219.09	1628.14
219.31	1730.53
219.53	1726.44
219.75	1751.01
219.97	1701.86
220.19	1724.39
220.41	1675.24
220.63	1804.26
220.85	1753.06
221.06	1652.71
221.28	1748.97
221.50	1744.87
221.72	1740.77
221.94	1718.25
222.16	1726.44
222.38	1734.63
222.60	1683.43
222.82	1683.43
223.03	1726.44
223.25	1607.66
223.47	1712.10
223.69	1865.70
223.91	1683.43
224.13	1669.09
224.35	1699.81
224.57	1771.49
224.78	1794.02
225.00	1669.09
225.22	1673.19
225.44	1638.38
225.66	1767.40
225.88	1710.05
226.10	1662.95
226.32	1689.57
226.53	1695.72
226.75	1728.49
226.97	1736.68
227.19	1695.72
227.41	1650.66
227.63	1724.39
227.85	1632.23
228.06	1757.16
228.28	1691.62
228.50	1724.39
228.72	1708.01
228.94	1628.14
229.16	1591.27
229.37	1714.15
229.59	1613.80
229.81	1804.26
230.03	1701.86
230.25	1658.85
230.47	1617.90
230.69	1632.23
230.90	1779.68
231.12	1667.05
231.34	1710.05
231.56	1787.88
231.78	1587.18
232.00	1722.34
232.21	1703.91
232.43	1679.33
232.65	1615.85
232.87	1759.21
233.09	1640.42
233.30	1708.01
233.52	1769.44
233.74	1650.66
233.96	1736.68
234.18	1771.49
234.40	1685.48
234.61	1845.22
234.83	1658.85
235.05	1656.81
235.27	1882.08
235.49	1781.73
235.70	1697.77
235.92	1757.16
236.14	1775.59
236.36	1843.17
236.58	1562.60
236.79	1738.73
237.01	1732.58
237.23	1673.19
237.45	1849.32
237.67	1630.18
237.88	1705.96
238.10	1814.50
238.32	1609.70
238.54	1640.42
238.76	1714.15
238.97	1689.57
239.19	1658.85
239.41	1701.86
239.63	1712.10
239.85	1665.00
240.06	1691.62
240.28	1671.14
240.50	1738.73
240.72	1775.59
240.93	1738.73
241.15	1769.44
241.37	1667.05
241.59	1832.93
241.81	1701.86
242.02	1744.87
242.24	1728.49
242.46	1732.58
242.68	1589.22
242.89	1681.38
243.11	1695.72
243.33	1716.20
243.55	1710.05
243.76	1787.88
243.98	1624.04
244.20	1716.20
244.42	1720.29
244.64	1662.95
244.85	1630.18
245.07	1636.33
245.29	1748.97
245.51	1685.48
245.72	1646.57
245.94	1710.05
246.16	1673.19
246.38	1783.78
246.59	1642.47
246.81	1613.80
247.03	1671.14
247.24	1615.85
247.46	1683.43
247.68	1722.34
247.90	1671.14
248.11	1691.62
248.33	1779.68
248.55	1693.67
248.77	1751.01
248.98	1755.11
249.20	1658.85
249.42	1783.78
249.64	1777.64
249.85	1738.73
250.07	1693.67
250.29	1769.44
250.50	1679.33
250.72	1560.55
250.94	1722.34
251.16	1806.31
251.37	1724.39
251.59	1761.25
251.81	1724.39
252.02	1773.54
252.24	1619.94
252.46	1775.59
252.68	1685.48
252.89	1685.48
253.11	1589.22
253.33	1789.92
253.54	1775.59
253.76	1597.42
253.98	1718.25
254.20	1681.38
254.41	1617.90
254.63	1656.81
254.85	1619.94
255.06	1624.04
255.28	1722.34
255.50	1716.20
255.71	1730.53
255.93	1685.48
256.15	1665.00
256.36	1697.77
256.58	1638.38
256.80	1701.86
257.02	1673.19
257.23	1693.67
257.45	1648.61
257.67	1785.83
257.88	1730.53
258.10	1738.73
258.32	1734.63
258.53	1648.61
258.75	1789.92
258.97	1658.85
259.18	1695.72
259.40	1673.19
259.62	1822.69
259.83	1765.35
260.05	1751.01
260.27	1980.39
260.48	1738.73
260.70	1656.81
260.92	1697.77
261.13	1677.29
261.35	1728.49
261.57	1740.77
261.78	1560.55
262.00	1716.20
262.22	1705.96
262.43	1652.71
262.65	1675.24
262.86	1730.53
263.08	1812.45
263.30	1757.16
263.51	1634.28
263.73	1630.18
263.95	1759.21
264.16	1691.62
264.38	1679.33
264.60	1773.54
264.81	1595.37
265.03	1746.92
265.25	1738.73
265.46	1703.91
265.68	1724.39
265.89	1724.39
266.11	1708.01
266.33	1716.20
266.54	1677.29
266.76	1640.42
266.98	1718.25
267.19	1775.59
267.41	1781.73
267.62	1652.71
267.84	1728.49
268.06	1791.97
268.27	1738.73
268.49	1769.44
268.70	1751.01
268.92	1662.95
269.14	1648.61
269.35	1626.09
269.57	1697.77
269.79	1765.35
270.00	1687.53
270.22	1779.68
270.43	1648.61
270.65	1603.56
270.87	1732.58
271.08	1736.68
271.30	1716.20
271.51	1679.33
271.73	1705.96
271.95	1716.20
272.16	1673.19
272.38	1773.54
272.59	1636.33
272.81	1677.29
273.02	1685.48
273.24	1800.16
273.46	1710.05
273.67	1697.77
273.89	1662.95
274.10	1687.53
274.32	1742.82
274.54	1644.52
274.75	1744.87
274.97	1724.39
275.18	1710.05
275.40	1718.25
275.61	1712.10
275.83	1658.85
276.05	1628.14
276.26	1695.72
276.48	1705.96
276.69	1609.70
276.91	1714.15
277.12	1789.92
277.34	1757.16
277.55	1665.00
277.77	1697.77
277.99	1703.91
278.20	1613.80
278.42	1648.61
278.63	1621.99
278.85	1658.85
279.06	1656.81
279.28	1783.78
279.49	1748.97
279.71	1746.92
279.93	1740.77
280.14	1742.82
280.36	1583.08
280.57	1675.24
280.79	1783.78
281.00	1632.23
281.22	1652.71
281.43	1763.30
281.65	1603.56
281.86	1667.05
282.08	1767.40
282.29	1767.40
282.51	1615.85
282.73	1673.19
282.94	1636.33
283.16	1777.64
283.37	1800.16
283.59	1632.23
283.80	1757.16
284.02	1675.24
284.23	1740.77
284.45	1689.57
284.66	1660.90
284.88	1652.71
285.09	1695.72
285.31	1765.35
285.52	1740.77
285.74	1658.85
285.95	1789.92
286.17	1763.30
286.38	1763.30
286.60	1609.70
286.81	1646.57
287.03	1703.91
287.24	1671.14
287.46	1642.47
287.67	1691.62
287.89	1746.92
288.10	1732.58
288.32	1712.10
288.53	1785.83
288.75	1660.90
288.96	1800.16
289.18	1695.72
289.39	1687.53
289.61	1767.40
289.82	1851.36
290.04	1914.85
290.25	1587.18
290.47	1673.19
290.68	1697.77
290.90	1718.25
291.11	1599.46
291.33	1738.73
291.54	1726.44
291.76	1701.86
291.97	1714.15
292.18	1650.66
292.40	1578.98
292.61	1687.53
292.83	1796.07
293.04	1785.83
293.26	1753.06
293.47	1714.15
293.69	1662.95
293.90	1695.72
294.12	1775.59
294.33	1773.54
294.55	1673.19
294.76	1693.67
294.97	1820.64
295.19	1814.50
295.40	1697.77
295.62	1755.11
295.83	1812.45
296.05	1652.71
296.26	1714.15
296.48	1695.72
296.69	1726.44
296.90	1628.14
297.12	1693.67
297.33	1769.44
297.55	1705.96
297.76	1773.54
297.98	1693.67
298.19	1689.57
298.41	1738.73
298.62	1669.09
298.83	1763.30
299.05	1617.90
299.26	1710.05
299.48	1599.46
299.69	1785.83
299.90	1693.67
300.12	1738.73
300.33	1710.05
300.55	1701.86
300.76	1650.66
300.98	1613.80
301.19	1734.63
301.40	1703.91
301.62	1720.29
301.83	1673.19
302.05	1677.29
302.26	1726.44
302.47	1662.95
302.69	1607.66
302.90	1701.86
303.12	1574.89
303.33	1751.01
303.54	1841.12
303.76	1632.23
303.97	1687.53
304.19	1775.59
304.40	1689.57
304.61	1689.57
304.83	1785.83
305.04	1765.35
305.26	1689.57
305.47	1708.01
305.68	1660.90
305.90	1609.70
306.11	1812.45
306.33	1658.85
306.54	1693.67
306.75	1718.25
306.97	1654.76
307.18	1730.53
307.39	1660.90
307.61	1722.34
307.82	1695.72
308.04	1679.33
308.25	1718.25
308.46	1730.53
308.68	1665.00
308.89	1726.44
309.10	1818.60
309.32	1656.81
309.53	1710.05
309.74	1726.44
309.96	1724.39
310.17	1767.40
310.39	1677.29
310.60	1665.00
310.81	1712.10
311.03	1605.61
311.24	1675.24
311.45	1658.85
311.67	1834.98
311.88	1699.81
312.09	1665.00
312.31	1656.81
312.52	1712.10
312.73	1755.11
312.95	1628.14
313.16	1667.05
313.37	1769.44
313.59	1816.55
313.80	1703.91
314.01	1763.30
314.23	1730.53
314.44	1673.19
314.65	1585.13
314.87	1644.52
315.08	1667.05
315.29	1658.85
315.51	1605.61
315.72	1656.81
315.93	1798.12
316.15	1800.16
316.36	1699.81
316.57	1714.15
316.79	1685.48
317.00	1656.81
317.21	1802.21
317.43	1650.66
317.64	1695.72
317.85	1619.94
318.07	1665.00
318.28	1693.67
318.49	1845.22
318.70	2013.15
318.92	1869.80
319.13	1765.35
319.34	1828.84
319.56	1789.92
319.77	1826.79
319.98	1822.69
320.20	1740.77
320.41	1681.38
320.62	1738.73
320.83	1685.48
321.05	1890.28
321.26	1742.82
321.47	1566.70
321.69	1787.88
321.90	1605.61
322.11	1662.95
322.32	1755.11
322.54	1804.26
322.75	1642.47
322.96	1857.51
323.18	1644.52
323.39	1654.76
323.60	1656.81
323.81	1796.07
324.03	1689.57
324.24	1642.47
324.45	1765.35
324.66	1708.01
324.88	1767.40
325.09	1796.07
325.30	1695.72
325.52	1769.44
325.73	1742.82
325.94	1671.14
326.15	1669.09
326.37	1710.05
326.58	1740.77
326.79	1796.07
327.00	1697.77
327.22	1708.01
327.43	1656.81
327.64	1560.55
327.85	1665.00
328.07	1763.30
328.28	1789.92
328.49	1703.91
328.70	1701.86
328.92	1712.10
329.13	1759.21
329.34	1751.01
329.55	1767.40
329.76	1759.21
329.98	1646.57
330.19	1796.07
330.40	1748.97
330.61	1677.29
330.83	1812.45
331.04	1671.14
331.25	1714.15
331.46	1617.90
331.68	1646.57
331.89	1748.97
332.10	1673.19
332.31	1638.38
332.52	1660.90
332.74	1798.12
332.95	1652.71
333.16	1632.23
333.37	1751.01
333.58	1687.53
333.80	1710.05
334.01	1615.85
334.22	1751.01
334.43	1714.15
334.64	1607.66
334.86	1626.09
335.07	1624.04
335.28	1771.49
335.49	1609.70
335.70	1744.87
335.92	1806.31
336.13	1802.21
336.34	1808.36
336.55	1671.14
336.76	1677.29
336.98	1601.51
337.19	1720.29
337.40	1771.49
337.61	1822.69
337.82	1685.48
338.04	1751.01
338.25	1683.43
338.46	1683.43
338.67	1681.38
338.88	1624.04
339.09	1669.09
339.31	1697.77
339.52	1624.04
339.73	1648.61
339.94	1644.52
340.15	1740.77
340.36	1718.25
340.58	1638.38
340.79	1712.10
341.00	1755.11
341.21	1634.28
341.42	1714.15
341.63	1681.38
341.85	1812.45
342.06	1783.78
342.27	1667.05
342.48	1714.15
342.69	1673.19
342.90	1681.38
343.12	1673.19
343.33	1583.08
343.54	1720.29
343.75	1822.69
343.96	1617.90
344.17	1671.14
344.38	1769.44
344.60	1669.09
344.81	1669.09
345.02	1665.00
345.23	1798.12
345.44	1834.98
345.65	1677.29
345.86	1806.31
346.07	1628.14
346.29	1673.19
346.50	1671.14
346.71	1681.38
346.92	1763.30
347.13	1806.31
347.34	1703.91
347.55	1734.63
347.76	1777.64
347.98	1697.77
348.19	1630.18
348.40	1828.84
348.61	1656.81
348.82	1785.83
349.03	1761.25
349.24	1701.86
349.45	1771.49
349.66	1689.57
349.88	1689.57
350.09	1654.76
350.30	1769.44
350.51	1755.11
350.72	1740.77
350.93	1755.11
351.14	1650.66
351.35	1689.57
351.56	1656.81
351.77	1693.67
351.99	1697.77
352.20	1789.92
352.41	1753.06
352.62	1630.18
352.83	1615.85
353.04	1710.05
353.25	1691.62
353.46	1814.50
353.67	1796.07
353.88	1562.60
354.09	1769.44
354.30	1665.00
354.52	1693.67
354.73	1779.68
354.94	1675.24
355.15	1724.39
355.36	1851.36
355.57	1667.05
355.78	1726.44
355.99	1685.48
356.20	1624.04
356.41	1738.73
356.62	1763.30
356.83	1636.33
357.04	1757.16
357.25	1572.84
357.46	1652.71
357.68	1630.18
357.89	1722.34
358.10	1779.68
358.31	1687.53
358.52	1677.29
358.73	1701.86
358.94	1642.47
359.15	1611.75
359.36	1691.62
359.57	1689.57
359.78	1751.01
359.99	1777.64
360.20	1632.23
360.41	1679.33
360.62	1705.96
360.83	1765.35
361.04	1652.71
361.25	1789.92
361.46	1816.55
361.67	1759.21
361.88	1732.58
362.09	1787.88
362.30	1701.86
362.51	1658.85
362.72	1744.87
362.93	1720.29
363.14	1718.25
363.35	1642.47
363.56	1703.91
363.78	1746.92
363.99	1771.49
364.20	1634.28
364.41	1734.63
364.62	1843.17
364.83	1755.11
365.04	1710.05
365.25	1742.82
365.46	1822.69
365.67	1683.43
365.88	1691.62
366.09	1601.51
366.30	1687.53
366.51	1640.42
366.72	1681.38
366.93	1669.09
367.14	1703.91
367.35	1818.60
367.56	1701.86
367.77	1726.44
367.98	1681.38
368.18	1753.06
368.39	1685.48
368.60	1640.42
368.81	1832.93
369.02	1767.40
369.23	1718.25
369.44	1599.46
369.65	1691.62
369.86	1689.57
370.07	1716.20
370.28	1648.61
370.49	1652.71
370.70	1724.39
370.91	1621.99
371.12	1642.47
371.33	1757.16
371.54	1703.91
371.75	1818.60
371.96	1574.89
372.17	1740.77
372.38	1708.01
372.59	1755.11
372.80	1640.42
373.01	1605.61
373.22	1685.48
373.43	1691.62
373.64	1656.81
373.85	1789.92
374.06	1800.16
374.26	1769.44
374.47	1806.31
374.68	1814.50
374.89	1724.39
375.10	1726.44
375.31	1775.59
375.52	1748.97
375.73	1732.58
375.94	1675.24
376.15	1757.16
376.36	1658.85
376.57	1648.61
376.78	1675.24
376.99	1685.48
377.20	1763.30
377.40	1716.20
377.61	1785.83
377.82	1646.57
378.03	1808.36
378.24	1748.97
378.45	1712.10
378.66	1767.40
378.87	1550.31
379.08	1568.74
379.29	1619.94
379.50	1783.78
379.71	1701.86
379.91	1710.05
380.12	1714.15
380.33	1738.73
380.54	1695.72
380.75	1720.29
380.96	1652.71
381.17	1642.47
381.38	1736.68
381.59	1726.44
381.80	1714.15
382.00	1806.31
382.21	1724.39
382.42	1798.12
382.63	1886.18
382.84	1744.87
383.05	1728.49
383.26	1714.15
383.47	1734.63
383.68	1716.20
383.88	1746.92
384.09	1650.66
384.30	1802.21
384.51	1699.81
384.72	1722.34
384.93	1652.71
385.14	1748.97
385.35	1685.48
385.55	1701.86
385.76	1794.02
385.97	1673.19
386.18	1679.33
386.39	1695.72
386.60	1669.09
386.81	1734.63
387.02	1732.58
387.22	1615.85
387.43	1787.88
387.64	1845.22
387.85	1859.56
388.06	2174.94
388.27	4360.13
388.48	6834.07
388.68	8458.11
388.89	9654.12
389.10	9996.14
389.31	8613.76
389.52	7620.49
389.73	6893.46
389.93	6371.23
390.14	6002.60
390.35	5162.93
390.56	4569.02
390.77	3821.51
390.98	2971.60
391.18	2494.43
391.39	2111.46
391.60	1763.30
391.81	1763.30
392.02	1632.23
392.23	1814.50
392.43	1738.73
392.64	1753.06
392.85	1746.92
393.06	1826.79
393.27	1689.57
393.47	1728.49
393.68	1742.82
393.89	1677.29
394.10	1734.63
394.31	1726.44
394.52	1691.62
394.72	1703.91
394.93	1740.77
395.14	1628.14
395.35	1742.82
395.56	1570.79
395.76	1708.01
395.97	1783.78
396.18	1804.26
396.39	1808.36
396.60	2037.73
396.80	1912.80
397.01	1816.55
397.22	1853.41
397.43	1806.31
397.64	1783.78
397.84	1798.12
398.05	1832.93
398.26	1730.53
398.47	1771.49
398.67	1757.16
398.88	1656.81
399.09	1765.35
399.30	1726.44
399.51	1773.54
399.71	1603.56
399.92	1699.81
400.13	1697.77
400.34	1685.48
400.54	1675.24
400.75	1744.87
400.96	1738.73
401.17	1832.93
401.37	1681.38
401.58	1714.15
401.79	1757.16
402.00	1798.12
402.21	1863.65
402.41	1945.57
402.62	2027.49
402.83	1918.95
403.04	1935.33
403.24	2029.54
403.45	1826.79
403.66	1937.38
403.87	1910.75
404.07	1990.63
404.28	1908.71
404.49	1882.08
404.70	1759.21
404.90	1757.16
405.11	1751.01
405.32	1820.64
405.52	1703.91
405.73	1566.70
405.94	1695.72
406.15	1648.61
406.35	1732.58
406.56	1777.64
406.77	1773.54
406.98	1716.20
407.18	1648.61
407.39	1714.15
407.60	1753.06
407.80	1667.05
408.01	1677.29
408.22	1697.77
408.43	1658.85
408.63	1746.92
408.84	1783.78
409.05	1796.07
409.25	1705.96
409.46	1669.09
409.67	1673.19
409.88	1669.09
410.08	1832.93
410.29	1697.77
410.50	1701.86
410.70	1654.76
410.91	1665.00
411.12	1691.62
411.32	1755.11
411.53	1685.48
411.74	1843.17
411.95	1732.58
412.15	1744.87
412.36	1806.31
412.57	1693.67
412.77	1781.73
412.98	1669.09
413.19	1771.49
413.39	1789.92
413.60	1787.88
413.81	1802.21
414.01	1669.09
414.22	1685.48
414.43	1787.88
414.63	1642.47
414.84	1806.31
415.05	1720.29
415.25	1675.24
415.46	1708.01
415.67	1710.05
415.87	1648.61
416.08	1746.92
416.29	1718.25
416.49	1699.81
416.70	1693.67
416.91	1730.53
417.11	1710.05
417.32	1710.05
417.53	1808.36
417.73	1697.77
417.94	1695.72
418.15	1714.15
418.35	1658.85
418.56	1730.53
418.77	1869.80
418.97	1683.43
419.18	1669.09
419.38	1628.14
419.59	1669.09
419.80	1812.45
420.00	1662.95
420.21	1714.15
420.42	1798.12
420.62	1718.25
420.83	1652.71
421.04	1759.21
421.24	1656.81
421.45	1683.43
421.65	1738.73
421.86	1636.33
422.07	1748.97
422.27	1794.02
422.48	1687.53
422.69	1689.57
422.89	1679.33
423.10	1683.43
423.30	1732.58
423.51	1738.73
423.72	1665.00
423.92	1769.44
424.13	1658.85
424.33	1695.72
424.54	1775.59
424.75	1712.10
424.95	1765.35
425.16	1839.08
425.36	1665.00
425.57	1714.15
425.78	1783.78
425.98	1763.30
426.19	1652.71
426.39	1599.46
426.60	1746.92
426.81	1808.36
427.01	1652.71
427.22	1609.70
427.42	1640.42
427.63	1683.43
427.83	1685.48
428.04	1738.73
428.25	1742.82
428.45	1757.16
428.66	1753.06
428.86	1683.43
429.07	1656.81
429.28	1769.44
429.48	1701.86
429.69	1656.81
429.89	1710.05
430.10	1646.57
430.30	1701.86
430.51	1779.68
430.71	1644.52
430.92	1712.10
431.13	1693.67
431.33	1816.55
431.54	1720.29
431.74	1712.10
431.95	1841.12
432.15	1683.43
432.36	1757.16
432.56	1667.05
432.77	1730.53
432.98	1845.22
433.18	1671.14
433.39	1660.90
433.59	1705.96
433.80	1830.88
434.00	1765.35
434.21	1720.29
434.41	1648.61
434.62	1896.42
434.82	1744.87
435.03	1621.99
435.23	1783.78
435.44	1595.37
435.64	1757.16
435.85	1697.77
436.06	1746.92
436.26	1789.92
436.47	1710.05
436.67	1738.73
436.88	1679.33
437.08	1783.78
437.29	1796.07
437.49	1791.97
437.70	1783.78
437.90	1724.39
438.11	1802.21
438.31	1714.15
438.52	1853.41
438.72	1861.60
438.93	1886.18
439.13	1724.39
439.34	1810.40
439.54	1742.82
439.75	1781.73
439.95	1857.51
440.16	1787.88
440.36	1720.29
440.57	1785.83
440.77	1808.36
440.98	1806.31
441.18	1853.41
441.39	1640.42
441.59	1642.47
441.80	1816.55
442.00	1687.53
442.21	1789.92
442.41	1656.81
442.62	1796.07
442.82	1665.00
443.02	1781.73
443.23	1781.73
443.43	1718.25
443.64	1820.64
443.84	1671.14
444.05	1886.18
444.25	1796.07
444.46	1740.77
444.66	1689.57
444.87	1851.36
445.07	1638.38
445.28	1710.05
445.48	1804.26
445.69	1732.58
445.89	1910.75
446.09	1697.77
446.30	1974.24
446.50	2686.94
446.71	3835.85
446.91	4241.34
447.12	4683.70
447.32	4796.34
447.53	4327.36
447.73	3962.82
447.93	3606.47
448.14	3305.42
448.34	3231.69
448.55	2867.16
448.75	2836.44
448.96	2631.64
449.16	2422.75
449.36	2291.68
449.57	1972.19
449.77	1888.23
449.98	1740.77
450.18	1853.41
450.39	1728.49
450.59	1748.97
450.79	1804.26
451.00	1656.81
451.20	1783.78
451.41	1734.63
451.61	1734.63
451.81	1769.44
452.02	1802.21
452.22	1757.16
452.43	1660.90
452.63	1724.39
452.84	1669.09
453.04	1736.68
453.24	1720.29
453.45	1654.76
453.65	1687.53
453.86	1771.49
454.06	1689.57
454.26	1751.01
454.47	1755.11
454.67	1822.69
454.87	1675.24
455.08	1722.34
455.28	1841.12
455.49	1765.35
455.69	1710.05
455.89	1951.71
456.10	1738.73
456.30	1687.53
456.51	1716.20
456.71	1701.86
456.91	1800.16
457.12	1773.54
457.32	1765.35
457.52	1615.85
457.73	1703.91
457.93	1687.53
458.14	1785.83
458.34	1640.42
458.54	1755.11
458.75	1728.49
458.95	1837.03
459.15	1775.59
459.36	1777.64
459.56	1746.92
459.76	1943.52
459.97	1734.63
460.17	1730.53
460.37	1859.56
460.58	1777.64
460.78	1693.67
460.99	1660.90
461.19	1716.20
461.39	1691.62
461.60	1734.63
461.80	1787.88
462.00	1748.97
462.21	1757.16
462.41	1681.38
462.61	1701.86
462.82	1554.41
463.02	1761.25
463.22	1748.97
463.43	1738.73
463.63	1716.20
463.83	1820.64
464.04	1738.73
464.24	1630.18
464.44	1705.96
464.64	1695.72
464.85	1773.54
465.05	1791.97
465.25	1722.34
465.46	1681.38
465.66	1746.92
465.86	1773.54
466.07	1753.06
466.27	1732.58
466.47	1677.29
466.68	1644.52
466.88	1830.88
467.08	1703.91
467.29	1742.82
467.49	1796.07
467.69	1693.67
467.89	1834.98
468.10	1673.19
468.30	1761.25
468.50	1761.25
468.71	1757.16
468.91	1632.23
469.11	1892.32
469.31	1632.23
469.52	1755.11
469.72	1796.07
469.92	1802.21
470.13	1730.53
470.33	1693.67
470.53	1877.99
470.73	2144.22
470.94	2320.35
471.14	2373.60
471.34	2562.01
471.54	2449.37
471.75	2189.28
471.95	2111.46
472.15	1992.67
472.36	2113.50
472.56	2054.11
472.76	2074.59
472.96	1949.67
473.17	1972.19
473.37	1916.90
473.57	1767.40
473.77	1789.92
473.98	1767.40
474.18	1675.24
474.38	1869.80
474.58	1689.57
474.79	1705.96
474.99	1748.97
475.19	1705.96
475.39	1640.42
475.60	1681.38
475.80	1722.34
476.00	1660.90
476.20	1744.87
476.41	1740.77
476.61	1804.26
476.81	1738.73
477.01	1650.66
477.21	1830.88
477.42	1796.07
477.62	1634.28
477.82	1804.26
478.02	1728.49
478.23	1810.40
478.43	1693.67
478.63	1662.95
478.83	1705.96
479.03	1669.09
479.24	1724.39
479.44	1894.37
479.64	1642.47
479.84	1677.29
480.04	1683.43
480.25	1773.54
480.45	1775.59
480.65	1779.68
480.85	1791.97
481.06	1667.05
481.26	1746.92
481.46	1746.92
481.66	1708.01
481.86	1654.76
482.06	1753.06
482.27	1763.30
482.47	1693.67
482.67	1746.92
482.87	1662.95
483.07	1779.68
483.28	1738.73
483.48	1630.18
483.68	1648.61
483.88	1683.43
484.08	1568.74
484.29	1619.94
484.49	1806.31
484.69	1685.48
484.89	1687.53
485.09	1699.81
485.29	1726.44
485.50	1724.39
485.70	1718.25
485.90	1791.97
486.10	1708.01
486.30	1748.97
486.50	1828.84
486.71	1699.81
486.91	1740.77
487.11	1816.55
487.31	1646.57
487.51	1773.54
487.71	1675.24
487.91	1675.24
488.12	1708.01
488.32	1538.02
488.52	1673.19
488.72	1660.90
488.92	1720.29
489.12	1732.58
489.32	1800.16
489.53	1775.59
489.73	1708.01
489.93	1832.93
490.13	1658.85
490.33	1632.23
490.53	1654.76
490.73	1804.26
490.94	1634.28
491.14	1697.77
491.34	1753.06
491.54	2093.02
491.74	2664.41
491.94	3002.32
492.14	3188.69
492.34	2983.89
492.54	2787.29
492.75	2617.30
492.95	2451.42
493.15	2363.36
493.35	2240.48
493.55	2193.37
493.75	2121.70
493.95	2123.74
494.15	1976.29
494.35	1927.14
494.56	1800.16
494.76	1816.55
494.96	1765.35
495.16	1767.40
495.36	1705.96
495.56	1701.86
495.76	1673.19
495.96	1699.81
496.16	1718.25
496.36	1812.45
496.56	1791.97
496.77	1755.11
496.97	1716.20
497.17	1755.11
497.37	1585.13
497.57	1783.78
497.77	1705.96
497.97	1683.43
498.17	1720.29
498.37	1781.73
498.57	1771.49
498.77	1705.96
498.97	1744.87
499.17	1810.40
499.38	1755.11
499.58	1665.00
499.78	1638.38
499.98	1787.88
500.18	1681.38
500.38	1746.92
500.58	1980.39
500.78	2502.62
500.98	4540.35
501.18	5902.25
501.38	6891.41
501.58	7198.61
501.78	6821.78
501.98	5775.27
502.18	4988.85
502.38	4399.04
502.58	4116.42
502.78	3672.01
502.98	3653.58
503.18	3315.66
503.38	3129.30
503.59	2901.97
503.79	2639.83
503.99	2482.14
504.19	2308.06
504.39	2189.28
504.59	2193.37
504.79	2099.17
504.99	1996.77
505.19	1865.70
505.39	1857.51
505.59	1920.99
505.79	1828.84
505.99	1888.23
506.19	1751.01
506.39	1884.13
506.59	1732.58
506.79	1812.45
506.99	1861.60
507.19	1714.15
507.39	1757.16
507.59	1638.38
507.79	1689.57
507.99	1634.28
508.19	1677.29
508.39	1685.48
508.59	1695.72
508.79	1849.32
508.99	1828.84
509.19	1673.19
509.39	1832.93
509.59	1753.06
509.79	1699.81
509.99	1753.06
510.19	1789.92
510.39	1718.25
510.59	1673.19
510.79	1761.25
510.99	1646.57
511.19	1722.34
511.39	1802.21
511.59	1798.12
511.79	1771.49
511.99	1724.39
512.19	1765.35
512.38	1687.53
512.58	1687.53
512.78	1767.40
512.98	1816.55
513.18	1804.26
513.38	1644.52
513.58	1802.21
513.78	1734.63
513.98	1744.87
514.18	1783.78
514.38	1699.81
514.58	1703.91
514.78	1746.92
514.98	1630.18
515.18	1667.05
515.38	1650.66
515.58	1789.92
515.78	1714.15
515.98	1763.30
516.18	1677.29
516.38	1730.53
516.57	1695.72
516.77	1681.38
516.97	1804.26
517.17	1685.48
517.37	1650.66
517.57	1718.25
517.77	1660.90
517.97	1718.25
518.17	1720.29
518.37	1710.05
518.57	1656.81
518.77	1693.67
518.97	1798.12
519.16	1728.49
519.36	1738.73
519.56	1744.87
519.76	1705.96
519.96	1751.01
520.16	1812.45
520.36	1697.77
520.56	1751.01
520.76	1648.61
520.96	1665.00
521.16	1746.92
521.35	1812.45
521.55	1773.54
521.75	1730.53
521.95	1685.48
522.15	1685.48
522.35	1648.61
522.55	1693.67
522.75	1773.54
522.95	1691.62
523.14	1665.00
523.34	1779.68
523.54	1771.49
523.74	1812.45
523.94	1773.54
524.14	1609.70
524.34	1832.93
524.54	1804.26
524.73	1730.53
524.93	1732.58
525.13	1798.12
525.33	1681.38
525.53	1918.95
525.73	1751.01
525.93	1720.29
526.13	1705.96
526.32	1736.68
526.52	1771.49
526.72	1757.16
526.92	1675.24
527.12	1685.48
527.32	1710.05
527.52	1718.25
527.71	1712.10
527.91	1767.40
528.11	1730.53
528.31	1632.23
528.51	1693.67
528.71	1705.96
528.90	1785.83
529.10	1828.84
529.30	1820.64
529.50	1591.27
529.70	1734.63
529.90	1714.15
530.09	1716.20
530.29	1665.00
530.49	1703.91
530.69	1861.60
530.89	1724.39
531.09	1781.73
531.28	1685.48
531.48	1773.54
531.68	1773.54
531.88	1787.88
532.08	1794.02
532.28	1621.99
532.47	1677.29
532.67	1779.68
532.87	1734.63
533.07	1691.62
533.27	1753.06
533.46	1759.21
533.66	1822.69
533.86	1703.91
534.06	1714.15
534.26	1732.58
534.45	1748.97
534.65	1742.82
534.85	1699.81
535.05	1640.42
535.25	1794.02
535.44	1615.85
535.64	1812.45
535.84	1701.86
536.04	1740.77
536.24	1748.97
536.43	1699.81
536.63	1705.96
536.83	1755.11
537.03	1689.57
537.22	1628.14
537.42	1634.28
537.62	1806.31
537.82	1644.52
538.02	1767.40
538.21	1789.92
538.41	1882.08
538.61	1734.63
538.81	1724.39
539.00	1820.64
539.20	1605.61
539.40	1757.16
539.60	1753.06
539.79	1808.36
539.99	1705.96
540.19	1626.09
540.39	1761.25
540.58	1755.11
540.78	1820.64
540.98	1732.58
541.18	1773.54
541.37	1767.40
541.57	1757.16
541.77	1755.11
541.97	1654.76
542.16	1708.01
542.36	1722.34
542.56	1816.55
542.76	1865.70
542.95	1767.40
543.15	1789.92
543.35	1822.69
543.54	1683.43
543.74	1703.91
543.94	1751.01
544.14	1722.34
544.33	1746.92
544.53	1726.44
544.73	1763.30
544.93	1654.76
545.12	1751.01
545.32	1738.73
545.52	1710.05
545.71	1687.53
545.91	1697.77
546.11	1748.97
546.30	1746.92
546.50	1746.92
546.70	1785.83
546.90	1771.49
547.09	1597.42
547.29	1785.83
547.49	1775.59
547.68	1736.68
547.88	1701.86
548.08	1785.83
548.27	2093.02
548.47	1683.43
548.67	1736.68
548.87	1789.92
549.06	1714.15
549.26	1718.25
549.46	1705.96
549.65	1656.81
549.85	1736.68
550.05	1710.05
550.24	1626.09
550.44	1755.11
550.64	1742.82
550.83	1712.10
551.03	1796.07
551.23	1755.11
551.42	1736.68
551.62	1710.05
551.82	1767.40
552.01	1685.48
552.21	1753.06
552.41	1789.92
552.60	1863.65
552.80	1693.67
553.00	1705.96
553.19	1734.63
553.39	1816.55
553.59	1728.49
553.78	1771.49
553.98	1796.07
554.17	1609.70
554.37	1689.57
554.57	1753.06
554.76	1624.04
554.96	1681.38
555.16	1763.30
555.35	1710.05
555.55	1716.20
555.75	1738.73
555.94	1779.68
556.14	1652.71
556.33	1761.25
556.53	1662.95
556.73	1656.81
556.92	1773.54
557.12	1796.07
557.32	1841.12
557.51	1779.68
557.71	1800.16
557.90	1806.31
558.10	1822.69
558.30	1785.83
558.49	1769.44
558.69	1781.73
558.88	1785.83
559.08	1732.58
559.28	1781.73
559.47	1705.96
559.67	1755.11
559.86	1871.84
560.06	1748.97
560.26	1755.11
560.45	1775.59
560.65	1685.48
560.84	1804.26
561.04	1632.23
561.24	1705.96
561.43	1621.99
561.63	1832.93
561.82	1705.96
562.02	1720.29
562.22	1624.04
562.41	1726.44
562.61	1757.16
562.80	1669.09
563.00	1929.19
563.19	1703.91
563.39	1785.83
563.59	1742.82
563.78	1648.61
563.98	1681.38
564.17	1757.16
564.37	1660.90
564.56	1710.05
564.76	1718.25
564.96	1855.46
565.15	1730.53
565.35	1849.32
565.54	1697.77
565.74	1781.73
565.93	1767.40
566.13	1771.49
566.32	1765.35
566.52	1746.92
566.71	1728.49
566.91	1834.98
567.11	1771.49
567.30	1714.15
567.50	1816.55
567.69	1800.16
567.89	1710.05
568.08	1808.36
568.28	1738.73
568.47	1757.16
568.67	1824.74
568.86	1693.67
569.06	1812.45
569.25	1691.62
569.45	1685.48
569.64	1740.77
569.84	1755.11
570.04	1791.97
570.23	1685.48
570.43	1736.68
570.62	1730.53
570.82	1804.26
571.01	1708.01
571.21	1685.48
571.40	1734.63
571.60	1789.92
571.79	1820.64
571.99	1681.38
572.18	1662.95
572.38	1800.16
572.57	1714.15
572.77	1779.68
572.96	1863.65
573.16	1726.44
573.35	1710.05
573.55	1802.21
573.74	1828.84
573.94	1757.16
574.13	1728.49
574.33	1771.49
574.52	1712.10
574.71	1789.92
574.91	1705.96
575.10	1681.38
575.30	1769.44
575.49	1703.91
575.69	1695.72
575.88	1740.77
576.08	1640.42
576.27	1761.25
576.47	1744.87
576.66	1808.36
576.86	1906.66
577.05	1800.16
577.25	1748.97
577.44	1912.80
577.64	1720.29
577.83	1771.49
578.02	1712.10
578.22	1796.07
578.41	1892.32
578.61	1712.10
578.80	1677.29
579.00	1740.77
579.19	1781.73
579.39	1796.07
579.58	1818.60
579.77	1742.82
579.97	1810.40
580.16	1796.07
580.36	1814.50
580.55	1830.88
580.75	1779.68
580.94	1755.11
581.13	1898.47
581.33	1783.78
581.52	1722.34
581.72	1873.89
581.91	1863.65
582.11	1701.86
582.30	1787.88
582.49	1769.44
582.69	1771.49
582.88	1837.03
583.08	1779.68
583.27	1732.58
583.47	1740.77
583.66	1683.43
583.85	1736.68
584.05	1681.38
584.24	1785.83
584.44	1794.02
584.63	1771.49
584.82	1841.12
585.02	1859.56
585.21	1824.74
585.41	1867.75
585.60	1816.55
585.79	1894.37
585.99	1931.23
586.18	1918.95
586.37	2148.32
586.57	3354.57
586.76	10211.17
586.96	24938.12
587.15	35091.94
587.34	41223.56
587.54	43007.34
587.73	37389.77
587.93	26596.97
588.12	22161.07
588.31	18632.42
588.51	16690.95
588.70	15505.17
588.89	14559.01
589.09	13031.23
589.28	11353.94
589.47	9535.34
589.67	8193.92
589.86	6625.18
590.06	5011.38
590.25	4016.07
590.44	3139.54
590.64	2576.34
590.83	2254.81
591.02	2158.56
591.22	1968.10
591.41	1914.85
591.60	1800.16
591.80	1877.99
591.99	1730.53
592.18	1705.96
592.38	1853.41
592.57	1804.26
592.76	1824.74
592.96	1845.22
593.15	1767.40
593.34	1771.49
593.54	1683.43
593.73	1791.97
593.92	1738.73
594.12	1748.97
594.31	1771.49
594.50	1791.97
594.70	1763.30
594.89	1826.79
595.08	1662.95
595.28	1763.30
595.47	1851.36
595.66	1802.21
595.86	1800.16
596.05	1761.25
596.24	1693.67
596.43	1775.59
596.63	1791.97
596.82	1681.38
597.01	1734.63
597.21	1806.31
597.40	1744.87
597.59	1679.33
597.79	1734.63
597.98	1753.06
598.17	1818.60
598.36	1718.25
598.56	1708.01
598.75	1720.29
598.94	1767.40
599.14	1732.58
599.33	1712.10
599.52	1775.59
599.71	1761.25
599.91	1703.91
600.10	1771.49
600.29	1777.64
600.48	1759.21
600.68	1775.59
600.87	1736.68
601.06	1720.29
601.26	1800.16
601.45	1742.82
601.64	1650.66
601.83	1802.21
602.03	1652.71
602.22	1669.09
602.41	1751.01
602.60	1894.37
602.80	1806.31
602.99	1755.11
603.18	1726.44
603.37	1710.05
603.57	1746.92
603.76	1800.16
603.95	1736.68
604.14	1714.15
604.34	1685.48
604.53	1759.21
604.72	1683.43
604.91	1759.21
605.10	1781.73
605.30	1638.38
605.49	1935.33
605.68	1753.06
605.87	1710.05
606.07	1683.43
606.26	1720.29
606.45	1705.96
606.64	1755.11
606.84	1667.05
607.03	1665.00
607.22	1751.01
607.41	1677.29
607.60	1734.63
607.80	1732.58
607.99	1746.92
608.18	1736.68
608.37	1744.87
608.56	1665.00
608.76	1812.45
608.95	1781.73
609.14	1771.49
609.33	1798.12
609.52	1806.31
609.72	1724.39
609.91	1730.53
610.10	1785.83
610.29	1839.08
610.48	1761.25
610.68	1759.21
610.87	1615.85
611.06	1689.57
611.25	1744.87
611.44	1863.65
611.63	1691.62
611.83	1853.41
612.02	1708.01
612.21	1824.74
612.40	1675.24
612.59	1619.94
612.79	1665.00
612.98	1802.21
613.17	1841.12
613.36	1714.15
613.55	1863.65
613.74	1681.38
613.93	1673.19
614.13	1718.25
614.32	1748.97
614.51	1738.73
614.70	1720.29
614.89	1728.49
615.08	1771.49
615.28	2029.54
615.47	1615.85
615.66	1728.49
615.85	1714.15
616.04	1861.60
616.23	1744.87
616.42	1662.95
616.62	1724.39
616.81	1722.34
617.00	1652.71
617.19	1738.73
617.38	1671.14
617.57	1730.53
617.76	1812.45
617.95	1720.29
618.15	1675.24
618.34	1765.35
618.53	1644.52
618.72	1796.07
618.91	1800.16
619.10	1787.88
619.29	1636.33
619.48	1703.91
619.68	1636.33
619.87	1783.78
620.06	1722.34
620.25	1759.21
620.44	1675.24
620.63	1656.81
620.82	1697.77
621.01	1787.88
621.20	1718.25
621.39	1773.54
621.59	1767.40
621.78	1718.25
621.97	1605.61
622.16	1789.92
622.35	1718.25
622.54	1753.06
622.73	1761.25
622.92	1648.61
623.11	1773.54
623.30	1689.57
623.49	1746.92
623.68	1578.98
623.88	1783.78
624.07	1736.68
624.26	1632.23
624.45	1675.24
624.64	1722.34
624.83	1765.35
625.02	1769.44
625.21	1679.33
625.40	1775.59
625.59	1714.15
625.78	1710.05
625.97	1755.11
626.16	1753.06
626.35	1689.57
626.54	1679.33
626.74	1837.03
626.93	1695.72
627.12	1691.62
627.31	1681.38
627.50	1775.59
627.69	1830.88
627.88	1671.14
628.07	1638.38
628.26	1634.28
628.45	1689.57
628.64	1730.53
628.83	1806.31
629.02	1691.62
629.21	1738.73
629.40	1763.30
629.59	1617.90
629.78	1710.05
629.97	1689.57
630.16	1699.81
630.35	1665.00
630.54	1746.92
630.73	1681.38
630.92	1673.19
631.11	1628.14
631.30	1726.44
631.49	1779.68
631.68	1687.53
631.87	1697.77
632.06	1660.90
632.25	1839.08
632.44	1726.44
632.63	1724.39
632.82	1742.82
633.01	1669.09
633.20	1812.45
633.39	1683.43
633.58	1640.42
633.77	1730.53
633.96	1691.62
634.15	1748.97
634.34	1789.92
634.53	1697.77
634.72	1724.39
634.91	1636.33
635.10	1710.05
635.29	1808.36
635.48	1726.44
635.67	1658.85
635.86	1765.35
636.05	1751.01
636.24	1755.11
636.43	1714.15
636.62	1761.25
636.81	1603.56
637.00	1714.15
637.19	1708.01
637.38	1654.76
637.57	1703.91
637.76	1685.48
637.95	1791.97
638.14	1691.62
638.33	1703.91
638.52	1796.07
638.71	1710.05
638.89	1634.28
639.08	1834.98
639.27	1796.07
639.46	1728.49
639.65	1791.97
639.84	1787.88
640.03	1746.92
640.22	1693.67
640.41	1830.88
640.60	1656.81
640.79	1779.68
640.98	1636.33
641.17	1755.11
641.36	1742.82
641.55	1724.39
641.74	1673.19
641.92	1714.15
642.11	1703.91
642.30	1615.85
642.49	1607.66
642.68	1738.73
642.87	1734.63
643.06	1728.49
643.25	1697.77
643.44	1636.33
643.63	1771.49
643.82	1697.77
644.00	1593.32
644.19	1691.62
644.38	1689.57
644.57	1699.81
644.76	1697.77
644.95	1695.72
645.14	1738.73
645.33	1742.82
645.52	1703.91
645.71	1650.66
645.89	1660.90
646.08	1714.15
646.27	1773.54
646.46	1851.36
646.65	1511.40
646.84	1714.15
647.03	1656.81
647.22	1837.03
647.40	1759.21
647.59	1718.25
647.78	1667.05
647.97	1689.57
648.16	1695.72
648.35	1777.64
648.54	1708.01
648.73	1693.67
648.91	1826.79
649.10	1691.62
649.29	1640.42
649.48	1669.09
649.67	1736.68
649.86	1703.91
650.05	1638.38
650.23	1708.01
650.42	1701.86
650.61	1777.64
650.80	1705.96
650.99	1896.42
651.18	1689.57
651.36	1828.84
651.55	1703.91
651.74	1732.58
651.93	1658.85
652.12	1687.53
652.31	1775.59
652.49	1712.10
652.68	1730.53
652.87	1767.40
653.06	1718.25
653.25	1800.16
653.44	1710.05
653.62	1787.88
653.81	1714.15
654.00	1771.49
654.19	1767.40
654.38	1839.08
654.56	1759.21
654.75	1689.57
654.94	1632.23
655.13	1753.06
655.32	1683.43
655.51	1732.58
655.69	1662.95
655.88	1755.11
656.07	1710.05
656.26	1726.44
656.45	1658.85
656.63	1693.67
656.82	1677.29
657.01	1773.54
657.20	1767.40
657.38	1798.12
657.57	1687.53
657.76	1687.53
657.95	1710.05
658.14	1656.81
658.32	1742.82
658.51	1650.66
658.70	1697.77
658.89	1665.00
659.08	1765.35
659.26	1763.30
659.45	1683.43
659.64	1779.68
659.83	1544.17
660.01	1925.09
660.20	1636.33
660.39	1777.64
660.58	1615.85
660.76	1765.35
660.95	1562.60
661.14	1769.44
661.33	1658.85
661.51	1640.42
661.70	1652.71
661.89	1753.06
662.08	1652.71
662.26	1734.63
662.45	1644.52
662.64	1771.49
662.83	1771.49
663.01	1656.81
663.20	1730.53
663.39	1865.70
663.58	1712.10
663.76	1740.77
663.95	1691.62
664.14	1624.04
664.32	1667.05
664.51	1662.95
664.70	1654.76
664.89	1652.71
665.07	1712.10
665.26	1697.77
665.45	1693.67
665.64	1800.16
665.82	1730.53
666.01	1779.68
666.20	1660.90
666.38	1798.12
666.57	1798.12
666.76	2164.70
666.95	4501.44
667.13	10624.86
667.32	15535.89
667.51	18032.36
667.69	19478.23
667.88	18022.12
668.07	12640.06
668.25	9500.53
668.44	8339.33
668.63	7327.63
668.81	6885.27
669.00	6401.95
669.19	5791.66
669.38	5177.26
669.56	4513.72
669.75	4024.26
669.94	3391.44
670.12	2914.26
670.31	2602.97
670.50	2238.43
670.68	2023.39
670.87	1882.08
671.06	1869.80
671.24	1802.21
671.43	1843.17
671.62	1712.10
671.80	1751.01
671.99	1812.45
672.18	1828.84
672.36	1796.07
672.55	1822.69
672.74	1716.20
672.92	1689.57
673.11	1736.68
673.29	1630.18
673.48	1820.64
673.67	1689.57
673.85	1738.73
674.04	1660.90
674.23	1705.96
674.41	1830.88
674.60	1724.39
674.79	1640.42
674.97	1693.67
675.16	1880.04
675.34	1693.67
675.53	1720.29
675.72	1679.33
675.90	1789.92
676.09	1726.44
676.28	1695.72
676.46	1652.71
676.65	1734.63
676.83	1679.33
677.02	1777.64
677.21	1685.48
677.39	1726.44
677.58	1607.66
677.77	1679.33
677.95	1679.33
678.14	1630.18
678.32	1763.30
678.51	1726.44
678.70	1796.07
678.88	1611.75
679.07	1781.73
679.25	1675.24
679.44	1697.77
679.63	1626.09
679.81	1779.68
680.00	1785.83
680.18	1718.25
680.37	1808.36
680.55	1708.01
680.74	1589.22
680.93	1658.85
681.11	1759.21
681.30	1736.68
681.48	1746.92
681.67	1689.57
681.85	1675.24
682.04	1730.53
682.23	1818.60
682.41	1724.39
682.60	1708.01
682.78	1665.00
682.97	1640.42
683.15	1703.91
683.34	1718.25
683.53	1882.08
683.71	1628.14
683.90	1765.35
684.08	1769.44
684.27	1728.49
684.45	1703.91
684.64	1755.11
684.82	1712.10
685.01	1742.82
685.19	1726.44
685.38	1751.01
685.57	1718.25
685.75	1722.34
685.94	1728.49
686.12	1685.48
686.31	1646.57
686.49	1755.11
686.68	1628.14
686.86	1812.45
687.05	1669.09
687.23	1808.36
687.42	1660.90
687.60	1636.33
687.79	1796.07
687.97	1785.83
688.16	1824.74
688.34	1787.88
688.53	1628.14
688.71	1718.25
688.90	1751.01
689.08	1665.00
689.27	1626.09
689.45	1722.34
689.64	1722.34
689.82	1712.10
690.01	1755.11
690.19	1726.44
690.38	1791.97
690.56	1763.30
690.75	1626.09
690.93	1708.01
691.12	1626.09
691.30	1675.24
691.49	1660.90
691.67	1781.73
691.86	1841.12
692.04	1652.71
692.23	1695.72
692.41	1689.57
692.60	1751.01
692.78	1708.01
692.97	1699.81
693.15	1693.67
693.34	1771.49
693.52	1757.16
693.71	1624.04
693.89	1714.15
694.08	1611.75
694.26	1763.30
694.44	1728.49
694.63	1751.01
694.81	1562.60
695.00	1640.42
695.18	1705.96
695.37	1888.23
695.55	1748.97
695.74	1693.67
695.92	1621.99
696.10	1755.11
696.29	1626.09
696.47	1701.86
696.66	1621.99
696.84	1619.94
697.03	1705.96
697.21	1834.98
697.40	2334.68
697.58	1822.69
697.76	1652.71
697.95	1699.81
698.13	1654.76
698.32	1714.15
698.50	1656.81
698.68	1718.25
698.87	1755.11
699.05	1714.15
699.24	1744.87
699.42	1697.77
699.61	1773.54
699.79	1710.05
699.97	1730.53
700.16	1708.01
700.34	1714.15
700.53	1765.35
700.71	1734.63
700.89	1832.93
701.08	1640.42
701.26	1722.34
701.45	2201.57
701.63	1628.14
701.81	1738.73
702.00	1673.19
702.18	1748.97
702.37	1665.00
702.55	1771.49
702.73	1683.43
702.92	1642.47
703.10	1802.21
703.28	1720.29
703.47	1693.67
703.65	1818.60
703.84	1779.68
704.02	1615.85
704.20	1763.30
704.39	1767.40
704.57	1683.43
704.75	1716.20
704.94	1763.30
705.12	1746.92
705.30	1820.64
705.49	2269.15
705.67	4448.19
705.86	9684.84
706.04	12922.68
706.22	14835.49
706.41	15658.77
706.59	14143.27
706.77	9754.48
706.96	7387.02
707.14	6711.19
707.32	6088.61
707.51	5535.66
707.69	5044.15
707.87	4247.49
708.06	3585.99
708.24	2906.07
708.42	2461.66
708.61	2232.29
708.79	1896.42
708.97	1886.18
709.16	1806.31
709.34	1736.68
709.52	1673.19
709.71	1673.19
709.89	1802.21
710.07	1677.29
710.26	1660.90
710.44	1705.96
710.62	1761.25
710.80	1683.43
710.99	1796.07
711.17	1724.39
711.35	1646.57
711.54	1660.90
711.72	1839.08
711.90	1751.01
712.09	1722.34
712.27	1689.57
712.45	1730.53
712.63	1695.72
712.82	1679.33
713.00	1779.68
713.18	1671.14
713.37	1783.78
713.55	1726.44
713.73	1773.54
713.91	1763.30
714.10	1679.33
714.28	1716.20
714.46	1767.40
714.65	1667.05
714.83	1632.23
715.01	1796.07
715.19	1683.43
715.38	1615.85
715.56	1691.62
715.74	1699.81
715.92	1576.94
716.11	1740.77
716.29	1562.60
716.47	1726.44
716.65	1746.92
716.84	1695.72
717.02	1781.73
717.20	1638.38
717.38	1671.14
717.57	1736.68
717.75	1712.10
717.93	1669.09
718.11	1765.35
718.30	1591.27
718.48	1705.96
718.66	1679.33
718.84	1716.20
719.03	1681.38
719.21	1658.85
719.39	1796.07
719.57	1673.19
719.75	1761.25
719.94	1652.71
720.12	1730.53
720.30	1656.81
720.48	1716.20
720.67	1665.00
720.85	1630.18
721.03	1734.63
721.21	1722.34
721.39	1853.41
721.58	1810.40
721.76	1734.63
721.94	1683.43
722.12	1724.39
722.30	1738.73
722.49	1660.90
722.67	1746.92
722.85	1701.86
723.03	1679.33
723.21	1673.19
723.40	1683.43
723.58	1789.92
723.76	1738.73
723.94	1710.05
724.12	1730.53
724.30	1746.92
724.49	1828.84
724.67	1599.46
724.85	1773.54
725.03	1638.38
725.21	1726.44
725.40	1800.16
725.58	1660.90
725.76	1812.45
725.94	1699.81
726.12	1650.66
726.30	1738.73
726.49	1607.66
726.67	1595.37
726.85	1660.90
727.03	1753.06
727.21	2179.04
727.39	2934.74
727.57	3938.24
727.76	4149.18
727.94	4573.11
728.12	4413.37
728.30	3747.78
728.48	2901.97
728.66	2734.04
728.84	2590.68
729.03	2295.77
729.21	2226.14
729.39	1982.43
729.57	1800.16
729.75	1730.53
729.93	1804.26
730.11	1759.21
730.30	1714.15
730.48	1656.81
730.66	1808.36
730.84	1771.49
731.02	1681.38
731.20	1677.29
731.38	1701.86
731.56	1730.53
731.74	1697.77
731.93	1798.12
732.11	1632.23
732.29	1714.15
732.47	1703.91
732.65	1779.68
732.83	1777.64
733.01	1734.63
733.19	1689.57
733.37	1716.20
733.56	1775.59
733.74	1699.81
733.92	1755.11
734.10	1677.29
734.28	1730.53
734.46	1615.85
734.64	1738.73
734.82	1615.85
735.00	1675.24
735.18	1697.77
735.36	1673.19
735.54	1662.95
735.73	1726.44
735.91	1689.57
736.09	1779.68
736.27	1710.05
736.45	1757.16
736.63	1546.22
736.81	1619.94
736.99	1789.92
737.17	1832.93
737.35	1632.23
737.53	1679.33
737.71	1710.05
737.89	1812.45
738.07	1724.39
738.25	1603.56
738.43	1648.61
738.61	1693.67
738.80	1722.34
738.98	1636.33
739.16	1714.15
739.34	1720.29
739.52	1857.51
739.70	1679.33
739.88	1834.98
740.06	1812.45
740.24	1634.28
740.42	1779.68
740.60	1673.19
740.78	1681.38
740.96	1642.47
741.14	1654.76
741.32	1716.20
741.50	1636.33
741.68	1705.96
741.86	1710.05
742.04	1660.90
742.22	1675.24
742.40	1697.77
742.58	1699.81
742.76	1628.14
742.94	1763.30
743.12	1660.90
743.30	1738.73
743.48	1695.72
743.66	1646.57
743.84	1736.68
744.02	1615.85
744.20	1644.52
744.38	1621.99
744.56	1632.23
744.74	1794.02
744.92	1724.39
745.10	1810.40
745.28	1828.84
745.46	1787.88
745.64	1701.86
745.82	1746.92
746.00	1714.15
746.18	1806.31
746.36	1710.05
746.54	1779.68
746.72	1675.24
746.90	1683.43
747.08	1728.49
747.26	1667.05
747.44	1730.53
747.62	1748.97
747.80	1693.67
747.98	1683.43
748.15	1667.05
748.33	1824.74
748.51	1689.57
748.69	1687.53
748.87	1595.37
749.05	1662.95
749.23	1583.08
749.41	1677.29
749.59	1683.43
749.77	1720.29
749.95	1689.57
750.13	1734.63
750.31	1755.11
750.49	1708.01
750.67	1755.11
750.85	1769.44
751.03	1687.53
751.20	1818.60
751.38	1710.05
751.56	1619.94
751.74	1703.91
751.92	1650.66
752.10	1679.33
752.28	1720.29
752.46	1691.62
752.64	1718.25
752.82	1742.82
753.00	1720.29
753.18	1699.81
753.35	1654.76
753.53	1746.92
753.71	1738.73
753.89	1748.97
754.07	1712.10
754.25	1658.85
754.43	1777.64
754.61	1652.71
754.79	1751.01
754.97	1630.18
755.14	1755.11
755.32	1683.43
755.50	1656.81
755.68	1695.72
755.86	1630.18
756.04	1656.81
756.22	1585.13
756.40	1806.31
756.57	1798.12
756.75	1669.09
756.93	1755.11
757.11	1753.06
757.29	1673.19
757.47	1640.42
757.65	1636.33
757.82	1576.94
758.00	1669.09
758.18	1744.87
758.36	1724.39
758.54	1724.39
758.72	1640.42
758.90	1748.97
759.07	1746.92
759.25	1624.04
759.43	1738.73
759.61	1640.42
759.79	2181.09
759.97	1781.73
760.15	1689.57
760.32	1656.81
760.50	1699.81
760.68	1746.92
760.86	1628.14
761.04	1779.68
761.22	1765.35
761.39	1673.19
761.57	1753.06
761.75	1691.62
761.93	1779.68
762.11	1638.38
762.28	1738.73
762.46	1615.85
762.64	1710.05
762.82	1566.70
763.00	1708.01
763.18	1794.02
763.35	1689.57
763.53	1689.57
763.71	1687.53
763.89	1640.42
764.07	1615.85
764.24	1714.15
764.42	1654.76
764.60	1667.05
764.78	1730.53
764.96	1783.78
765.13	1814.50
765.31	1683.43
765.49	1703.91
765.67	1640.42
765.84	1677.29
766.02	1673.19
766.20	1630.18
766.38	1722.34
766.56	1695.72
766.73	1746.92
766.91	1640.42
767.09	1652.71
767.27	1687.53
767.44	1742.82
767.62	1718.25
767.80	1656.81
767.98	1665.00
768.15	1798.12
768.33	1814.50
768.51	1781.73
768.69	1699.81
768.87	1804.26
769.04	1669.09
769.22	1777.64
769.40	1785.83
769.58	1787.88
769.75	1791.97
769.93	1763.30
770.11	1695.72
770.28	1581.03
770.46	1671.14
770.64	1761.25
770.82	1630.18
770.99	1701.86
771.17	1650.66
771.35	1660.90
771.53	1648.61
771.70	1677.29
771.88	1673.19
772.06	1628.14
772.23	1689.57
772.41	1658.85
772.59	1753.06
772.77	1644.52
772.94	1720.29
773.12	1658.85
773.30	1628.14
773.47	1734.63
773.65	1652.71
773.83	1738.73
774.01	1669.09
774.18	1615.85
774.36	1761.25
774.54	1644.52
774.71	1740.77
774.89	1613.80
775.07	1669.09
775.24	1648.61
775.42	1566.70
775.60	1822.69
775.78	1751.01
775.95	1574.89
776.13	1591.27
776.31	1624.04
776.48	1701.86
776.66	1751.01
776.84	1628.14
777.01	1658.85
777.19	1632.23
777.37	1576.94
777.54	1730.53
777.72	1824.74
777.90	1740.77
778.07	1607.66
778.25	1869.80
778.43	1738.73
778.60	1685.48
778.78	1765.35
778.96	1837.03
779.13	1658.85
779.31	1720.29
779.49	1683.43
779.66	1703.91
779.84	1697.77
780.01	1665.00
780.19	1660.90
780.37	1759.21
780.54	1667.05
780.72	1656.81
780.90	1624.04
781.07	1701.86
781.25	1683.43
781.43	1751.01
781.60	1697.77
781.78	1699.81
781.95	1742.82
782.13	1683.43
782.31	1718.25
782.48	1581.03
782.66	1687.53
782.83	1775.59
783.01	1716.20
783.19	1738.73
783.36	1677.29
783.54	1630.18
783.72	1722.34
783.89	1658.85
784.07	1619.94
784.24	1714.15
784.42	1834.98
784.60	1785.83
784.77	1685.48
784.95	1595.37
785.12	1656.81
785.30	1677.29
785.47	1712.10
785.65	1667.05
785.83	1755.11
786.00	1640.42
786.18	1783.78
786.35	1665.00
786.53	1685.48
786.71	1669.09
786.88	1751.01
787.06	1773.54
787.23	1632.23
787.41	1669.09
787.58	1648.61
787.76	1718.25
787.94	1724.39
788.11	1683.43
788.29	1681.38
788.46	1691.62
788.64	1671.14
788.81	1697.77
788.99	1636.33
789.16	1638.38
789.34	1656.81
789.52	1726.44
789.69	1648.61
789.87	1665.00
790.04	1673.19
790.22	1681.38
790.39	1781.73
790.57	1652.71
790.74	1648.61
790.92	1683.43
791.09	1570.79
791.27	1644.52
791.44	1746.92
791.62	1697.77
791.79	1697.77
791.97	1712.10
792.15	1871.84
792.32	1783.78
792.50	1755.11
792.67	1804.26
792.85	1812.45
793.02	1740.77
793.20	1746.92
793.37	1605.61
793.55	1646.57
793.72	1617.90
793.90	1787.88
794.07	1603.56
794.25	1650.66
794.42	1718.25
794.60	1630.18
794.77	1656.81
794.95	1785.83
795.12	1742.82
795.30	1701.86
795.47	1681.38
795.65	1851.36
795.82	1693.67
796.00	1691.62
796.17	1699.81
796.34	1607.66
796.52	1644.52
796.69	1783.78
796.87	1798.12
797.04	1697.77
797.22	1753.06
797.39	1708.01
797.57	1736.68
797.74	1710.05
797.92	1724.39
798.09	1634.28
798.27	1691.62
798.44	1722.34
798.62	1708.01
798.79	1742.82
798.96	1712.10
799.14	1691.62
799.31	1910.75
799.49	1634.28
799.66	1656.81
799.84	1648.61
800.01	1685.48
800.19	1712.10
800.36	1617.90
800.53	1722.34
800.71	1660.90
800.88	1773.54
801.06	1722.34
801.23	1726.44
801.41	1697.77
801.58	1667.05
801.75	1701.86
801.93	1734.63
802.10	1728.49
802.28	1740.77
802.45	1669.09
802.63	1726.44
802.80	1826.79
802.97	1640.42
803.15	1701.86
803.32	1648.61
803.50	1689.57
803.67	1665.00
803.84	1675.24
804.02	1724.39
804.19	1671.14
804.37	1599.46
804.54	1667.05
804.71	1769.44
804.89	1693.67
805.06	1679.33
805.24	1642.47
805.41	1640.42
805.58	1671.14
805.76	1851.36
805.93	1648.61
806.10	1751.01
806.28	1787.88
806.45	1718.25
806.63	1759.21
806.80	1640.42
806.97	1804.26
807.15	1773.54
807.32	1685.48
807.49	1724.39
807.67	1578.98
807.84	1708.01
808.01	1638.38
808.19	1853.41
808.36	1804.26
808.54	1634.28
808.71	1710.05
808.88	1771.49
809.06	1703.91
809.23	1791.97
809.40	1681.38
809.58	1769.44
809.75	1710.05
809.92	1697.77
810.10	1789.92
810.27	1634.28
810.44	1710.05
810.62	1687.53
810.79	1697.77
810.96	1648.61
811.14	1650.66
811.31	1701.86
811.48	1710.05
811.66	1671.14
811.83	1779.68
812.00	1581.03
812.18	1785.83
812.35	1785.83
812.52	1740.77
812.69	1554.41
812.87	1785.83
813.04	1695.72
813.21	1726.44
813.39	1642.47
813.56	1673.19
813.73	1767.40
813.91	1624.04
814.08	1687.53
814.25	1683.43
814.42	1687.53
814.60	1652.71
814.77	1740.77
814.94	1673.19
815.12	1665.00
815.29	1808.36
815.46	1746.92
815.63	1732.58
815.81	1609.70
815.98	1701.86
816.15	1697.77
816.33	1726.44
816.50	1640.42
816.67	1652.71
816.84	1744.87
817.02	1705.96
817.19	1654.76
817.36	1677.29
817.53	1705.96
817.71	1669.09
817.88	1759.21
818.05	1669.09
818.22	1685.48
818.40	1785.83
818.57	1697.77
818.74	1722.34
818.91	1660.90
819.09	1714.15
819.26	1777.64
819.43	1677.29
819.60	1695.72
819.78	1736.68
819.95	1755.11
820.12	1669.09
820.29	1798.12
820.47	1822.69
820.64	1576.94
820.81	1630.18
820.98	1621.99
821.15	1699.81
821.33	1765.35
821.50	1605.61
821.67	1632.23
821.84	1722.34
822.02	1714.15
822.19	1648.61
822.36	1685.48
822.53	1656.81
822.70	1613.80
822.88	1748.97
823.05	1699.81
823.22	1740.77
823.39	1740.77
823.56	1646.57
823.74	1695.72
823.91	1587.18
824.08	1665.00
824.25	1658.85
824.42	1742.82
824.60	1601.51
824.77	1687.53
824.94	1597.42
825.11	1720.29
825.28	1583.08
825.45	1746.92
825.63	1681.38
825.80	1624.04
825.97	1738.73
826.14	1720.29
826.31	1632.23
826.48	1789.92
826.66	1689.57
826.83	1761.25
827.00	1781.73
827.17	1613.80
827.34	1656.81
827.51	1714.15
827.69	1689.57
827.86	1601.51
828.03	1712.10
828.20	1660.90
828.37	1679.33
828.54	1683.43
828.71	1603.56
828.89	1773.54
829.06	1621.99
829.23	1761.25
829.40	1650.66
829.57	1669.09
829.74	1662.95
829.91	1636.33
830.09	1572.84
830.26	1722.34
830.43	1798.12
830.60	1677.29
830.77	1703.91
830.94	1816.55
831.11	1730.53
831.28	1708.01
831.46	1794.02
831.63	1683.43
831.80	1687.53
831.97	1677.29
832.14	1722.34
832.31	1755.11
832.48	1699.81
832.65	1732.58
832.82	1734.63
832.99	1658.85
833.17	1613.80
833.34	1867.75
833.51	1687.53
833.68	1550.31
833.85	1746.92
834.02	1619.94
834.19	1556.46
834.36	1665.00
834.53	1757.16
834.70	1783.78
834.87	1708.01
835.04	1615.85
835.22	1740.77
835.39	1736.68
835.56	1654.76
835.73	1714.15
835.90	1763.30
836.07	1646.57
836.24	1767.40
836.41	1667.05
836.58	1656.81
836.75	1675.24
836.92	1677.29
837.09	1701.86
837.26	1714.15
837.43	1720.29
837.60	1695.72
837.77	1722.34
837.94	1640.42
838.12	1789.92
838.29	1673.19
838.46	1503.21
838.63	1525.74
838.80	1794.02
838.97	1714.15
839.14	1716.20
839.31	1705.96
839.48	1740.77
839.65	1746.92
839.82	1732.58
839.99	1753.06
840.16	1708.01
840.33	1710.05
840.50	1667.05
840.67	1589.22
840.84	1550.31
841.01	1708.01
841.18	1712.10
841.35	1621.99
841.52	1753.06
841.69	1787.88
841.86	1665.00
842.03	1671.14
842.20	1695.72
842.37	1783.78
842.54	1759.21
842.71	1777.64
842.88	1650.66
843.05	1732.58
843.22	1695.72
843.39	1695.72
843.56	1685.48
843.73	1679.33
843.90	1724.39
844.07	1687.53
844.24	1755.11
844.41	1771.49
844.58	1681.38
844.75	1665.00
844.92	1814.50
845.09	1744.87
845.26	1595.37
845.43	1685.48
845.60	1679.33
845.77	1738.73
845.94	1654.76
846.10	1724.39
846.27	1648.61
846.44	1581.03
846.61	1705.96
846.78	1708.01
846.95	1744.87
847.12	1693.67
847.29	1687.53
847.46	1685.48
847.63	1720.29
847.80	1626.09
847.97	1771.49
848.14	1908.71
848.31	1722.34
848.48	1656.81
848.65	1730.53
848.82	1628.14
848.98	1771.49
849.15	1691.62
849.32	1796.07
849.49	1789.92
849.66	1697.77
849.83	1722.34
850.00	1652.71
850.17	1757.16
850.34	1730.53
850.51	1675.24
850.68	1603.56
850.85	1826.79
851.01	1648.61
851.18	1708.01
851.35	1640.42
851.52	1703.91
851.69	1726.44
851.86	1611.75
852.03	1730.53
852.20	1726.44
852.37	1644.52
852.53	1628.14
852.70	1714.15
852.87	1691.62
853.04	1828.84
853.21	1697.77
853.38	1787.88
853.55	1832.93
853.72	1794.02
853.89	1591.27
854.05	1644.52
854.22	1597.42
854.39	1705.96
854.56	1712.10
854.73	1761.25
854.90	1691.62
855.07	1730.53
855.23	1652.71
855.40	1716.20
855.57	1714.15
855.74	1615.85
855.91	1894.37
856.08	1677.29
856.25	1611.75
856.41	1624.04
856.58	1658.85
856.75	1648.61
856.92	1626.09
857.09	1779.68
857.26	1595.37
857.42	1677.29
857.59	1738.73
857.76	1689.57
857.93	1738.73
858.10	1736.68
858.27	1607.66
858.43	1728.49
858.60	1605.61
858.77	1621.99
858.94	1712.10
859.11	1828.84
859.27	1773.54
859.44	1681.38
859.61	1796.07
859.78	1714.15
859.95	1669.09
860.12	1667.05
860.28	1779.68
860.45	1781.73
860.62	1630.18
860.79	1658.85
860.95	1617.90
861.12	1675.24
861.29	1669.09
861.46	1628.14
861.63	1634.28
861.79	1705.96
861.96	1718.25
862.13	1601.51
862.30	1796.07
862.47	1695.72
862.63	1634.28
862.80	1740.77
862.97	1763.30
863.14	1816.55
863.30	1642.47
863.47	1675.24
863.64	1804.26
863.81	1716.20
863.97	1660.90
864.14	1726.44
864.31	1699.81
864.48	1755.11
864.65	1732.58
864.81	1687.53
864.98	1683.43
865.15	1728.49
865.32	1714.15
865.48	1720.29
865.65	1845.22
865.82	1677.29
865.98	1703.91
866.15	1771.49
866.32	1621.99
866.49	1654.76
866.65	1773.54
866.82	1640.42
866.99	1689.57
867.16	1665.00
867.32	1648.61
867.49	1667.05
867.66	1683.43
867.83	1628.14
867.99	1624.04
868.16	1677.29
868.33	1599.46
868.49	1644.52
868.66	1632.23
868.83	1683.43
868.99	1740.77
869.16	1642.47
869.33	1744.87
869.50	1730.53
869.66	1724.39
869.83	1689.57
870.00	1722.34
870.16	1656.81
870.33	1685.48
870.50	1669.09
870.66	1757.16
870.83	1816.55
871.00	1679.33
871.17	1697.77
871.33	1761.25
871.50	1734.63
871.67	1669.09
871.83	1624.04
872.00	1771.49
872.17	1716.20
872.33	1869.80
872.50	1724.39
872.67	1658.85
872.83	1634.28
873.00	1685.48
873.17	1730.53
873.33	1736.68
873.50	1701.86
873.67	1691.62
873.83	1673.19
874.00	1746.92
874.16	1746.92
874.33	1662.95
874.50	1689.57
874.66	1656.81
874.83	1705.96
875.00	1716.20
875.16	1705.96
875.33	1824.74
875.50	1576.94
875.66	1673.19
875.83	1689.57
875.99	1599.46
876.16	1714.15
876.33	1685.48
876.49	1695.72
876.66	1695.72
876.83	1671.14
876.99	1583.08
877.16	1701.86
877.32	1626.09
877.49	1599.46
877.66	1736.68
877.82	1794.02
877.99	1667.05
878.15	1789.92
878.32	1736.68
878.49	1677.29
878.65	1693.67
878.82	1693.67
878.98	1636.33
879.15	1744.87
879.32	1726.44
879.48	1755.11
879.65	1710.05
879.81	1771.49
879.98	1648.61
880.15	1642.47
880.31	1773.54
880.48	1675.24
880.64	1763.30
880.81	1726.44
880.97	1847.27
881.14	1783.78
881.31	1683.43
881.47	1804.26
881.64	1683.43
881.80	1646.57
881.97	1638.38
882.13	1783.78
882.30	1681.38
882.47	1685.48
882.63	1591.27
882.80	1689.57
882.96	1675.24
883.13	1796.07
883.29	1710.05
883.46	1789.92
883.62	1863.65
883.79	1716.20
883.95	1761.25
884.12	1724.39
884.29	1753.06
884.45	1691.62
884.62	1781.73
884.78	1662.95
884.95	1808.36
885.11	1767.40
885.28	1673.19
885.44	1658.85
885.61	1591.27
885.77	1757.16
885.94	1816.55
886.10	1669.09
886.27	1718.25
886.43	1755.11
886.60	1775.59
886.76	1626.09
886.93	1673.19
887.09	1724.39
887.26	1701.86
887.42	1697.77
887.59	1763.30
887.75	1861.60
887.92	1716.20
888.08	1669.09
888.25	1787.88
888.41	1722.34
888.58	1748.97
888.74	1640.42
888.91	1654.76
>>>>>End Processed Spectral Data<<<<<
