SpectraSuite Data File
++++++++++++++++++++++++++++++++++++
Date: Mon Jun 06 16:42:37 CEST 2016
User: root
Dark Spectrum Present: No
Reference Spectrum Present: No
Number of Sampled Component Spectra: 1
Spectrometers: USB4C02835
Integration Time (usec): 100000 (USB4C02835)
Spectra Averaged: 1 (USB4C02835)
Boxcar Smoothing: 0 (USB4C02835)
Correct for Electrical Dark: No (USB4C02835)
Strobe/Lamp Enabled: No (USB4C02835)
Correct for Detector Non-linearity: No (USB4C02835)
Correct for Stray Light: No (USB4C02835)
Number of Pixels in Processed Spectrum: 3648
>>>>>Begin Processed Spectral Data<<<<<
177.47	1431.53
177.69	1431.53
177.91	1431.53
178.13	1511.40
178.36	1445.87
178.58	1613.80
178.80	1738.73
179.02	1665.00
179.24	1626.09
179.46	1703.91
179.68	1789.92
179.90	1683.43
180.13	1751.01
180.35	1683.43
180.57	1742.82
180.79	1800.16
181.01	1632.23
181.23	1781.73
181.45	1798.12
181.67	1818.60
181.90	1796.07
182.12	1730.53
182.34	1574.89
182.56	1648.61
182.78	1673.19
183.00	1724.39
183.22	1798.12
183.44	1617.90
183.66	1765.35
183.89	1720.29
184.11	1708.01
184.33	1761.25
184.55	1738.73
184.77	1689.57
184.99	1703.91
185.21	1654.76
185.43	1787.88
185.65	1746.92
185.87	1634.28
186.10	1787.88
186.32	1804.26
186.54	1712.10
186.76	1757.16
186.98	1787.88
187.20	1675.24
187.42	1607.66
187.64	1777.64
187.86	1701.86
188.08	1732.58
188.30	1662.95
188.52	1693.67
188.75	1720.29
188.97	1781.73
189.19	1675.24
189.41	1665.00
189.63	1751.01
189.85	1683.43
190.07	1683.43
190.29	1658.85
190.51	1679.33
190.73	1601.51
190.95	1724.39
191.17	1683.43
191.39	1667.05
191.61	1613.80
191.84	1687.53
192.06	1771.49
192.28	1595.37
192.50	1822.69
192.72	1787.88
192.94	1681.38
193.16	1773.54
193.38	1722.34
193.60	1642.47
193.82	1710.05
194.04	1787.88
194.26	1783.78
194.48	1687.53
194.70	1665.00
194.92	1650.66
195.14	1687.53
195.36	1615.85
195.58	1699.81
195.80	1765.35
196.02	1558.50
196.24	1691.62
196.46	1724.39
196.69	1728.49
196.91	1837.03
197.13	1689.57
197.35	1691.62
197.57	1834.98
197.79	1826.79
198.01	1779.68
198.23	1789.92
198.45	1740.77
198.67	1712.10
198.89	1701.86
199.11	1740.77
199.33	1748.97
199.55	1599.46
199.77	1742.82
199.99	1654.76
200.21	1724.39
200.43	1767.40
200.65	1619.94
200.87	1566.70
201.09	1738.73
201.31	1808.36
201.53	1841.12
201.75	1710.05
201.97	1705.96
202.19	1740.77
202.41	1699.81
202.63	1826.79
202.85	1736.68
203.07	1736.68
203.29	1665.00
203.51	1626.09
203.73	1685.48
203.95	1914.85
204.17	1769.44
204.39	1814.50
204.61	1636.33
204.83	1718.25
205.05	1812.45
205.27	1785.83
205.49	1859.56
205.71	1714.15
205.93	1632.23
206.15	1660.90
206.37	1722.34
206.59	1703.91
206.81	1658.85
207.03	1722.34
207.25	1681.38
207.47	1683.43
207.69	1705.96
207.91	1789.92
208.13	1761.25
208.34	1673.19
208.56	1658.85
208.78	1785.83
209.00	1699.81
209.22	1660.90
209.44	1673.19
209.66	1703.91
209.88	1703.91
210.10	1677.29
210.32	1673.19
210.54	1773.54
210.76	1697.77
210.98	1779.68
211.20	1611.75
211.42	1781.73
211.64	1783.78
211.86	1781.73
212.08	1667.05
212.30	1722.34
212.52	1748.97
212.74	1714.15
212.96	1818.60
213.17	1812.45
213.39	1720.29
213.61	1800.16
213.83	1730.53
214.05	1701.86
214.27	1761.25
214.49	1710.05
214.71	1718.25
214.93	1724.39
215.15	1755.11
215.37	1767.40
215.59	1685.48
215.81	1687.53
216.03	1808.36
216.24	1679.33
216.46	1650.66
216.68	1734.63
216.90	1718.25
217.12	1785.83
217.34	1716.20
217.56	1720.29
217.78	1755.11
218.00	1730.53
218.22	1683.43
218.44	1761.25
218.66	1748.97
218.87	1751.01
219.09	1726.44
219.31	1740.77
219.53	1718.25
219.75	1730.53
219.97	1675.24
220.19	1732.58
220.41	1626.09
220.63	1818.60
220.85	1755.11
221.06	1687.53
221.28	1832.93
221.50	1710.05
221.72	1734.63
221.94	1701.86
222.16	1710.05
222.38	1798.12
222.60	1773.54
222.82	1683.43
223.03	1800.16
223.25	1665.00
223.47	1775.59
223.69	1798.12
223.91	1746.92
224.13	1751.01
224.35	1742.82
224.57	1748.97
224.78	1759.21
225.00	1630.18
225.22	1642.47
225.44	1714.15
225.66	1742.82
225.88	1716.20
226.10	1763.30
226.32	1703.91
226.53	1843.17
226.75	1779.68
226.97	1701.86
227.19	1773.54
227.41	1685.48
227.63	1601.51
227.85	1619.94
228.06	1746.92
228.28	1730.53
228.50	1742.82
228.72	1652.71
228.94	1744.87
229.16	1626.09
229.37	1585.13
229.59	1613.80
229.81	1740.77
230.03	1693.67
230.25	1671.14
230.47	1583.08
230.69	1648.61
230.90	1775.59
231.12	1613.80
231.34	1726.44
231.56	1765.35
231.78	1718.25
232.00	1763.30
232.21	1722.34
232.43	1718.25
232.65	1566.70
232.87	1755.11
233.09	1572.84
233.30	1701.86
233.52	1673.19
233.74	1697.77
233.96	1753.06
234.18	1648.61
234.40	1687.53
234.61	1814.50
234.83	1624.04
235.05	1587.18
235.27	1834.98
235.49	1699.81
235.70	1708.01
235.92	1765.35
236.14	1660.90
236.36	1777.64
236.58	1654.76
236.79	1726.44
237.01	1685.48
237.23	1736.68
237.45	1806.31
237.67	1654.76
237.88	1740.77
238.10	1877.99
238.32	1667.05
238.54	1617.90
238.76	1693.67
238.97	1669.09
239.19	1699.81
239.41	1755.11
239.63	1705.96
239.85	1751.01
240.06	1683.43
240.28	1658.85
240.50	1751.01
240.72	1759.21
240.93	1720.29
241.15	1769.44
241.37	1656.81
241.59	1736.68
241.81	1683.43
242.02	1726.44
242.24	1757.16
242.46	1701.86
242.68	1660.90
242.89	1685.48
243.11	1746.92
243.33	1640.42
243.55	1802.21
243.76	1761.25
243.98	1751.01
244.20	1728.49
244.42	1755.11
244.64	1767.40
244.85	1603.56
245.07	1652.71
245.29	1785.83
245.51	1769.44
245.72	1634.28
245.94	1753.06
246.16	1744.87
246.38	1785.83
246.59	1724.39
246.81	1695.72
247.03	1652.71
247.24	1617.90
247.46	1679.33
247.68	1701.86
247.90	1726.44
248.11	1603.56
248.33	1728.49
248.55	1703.91
248.77	1742.82
248.98	1824.74
249.20	1794.02
249.42	1705.96
249.64	1669.09
249.85	1685.48
250.07	1654.76
250.29	1765.35
250.50	1779.68
250.72	1619.94
250.94	1685.48
251.16	1753.06
251.37	1710.05
251.59	1753.06
251.81	1726.44
252.02	1763.30
252.24	1746.92
252.46	1839.08
252.68	1712.10
252.89	1689.57
253.11	1646.57
253.33	1865.70
253.54	1800.16
253.76	1626.09
253.98	1714.15
254.20	1765.35
254.41	1665.00
254.63	1726.44
254.85	1636.33
255.06	1757.16
255.28	1710.05
255.50	1646.57
255.71	1646.57
255.93	1652.71
256.15	1636.33
256.36	1761.25
256.58	1630.18
256.80	1753.06
257.02	1646.57
257.23	1732.58
257.45	1677.29
257.67	1751.01
257.88	1597.42
258.10	1771.49
258.32	1665.00
258.53	1681.38
258.75	1875.94
258.97	1673.19
259.18	1712.10
259.40	1689.57
259.62	1820.64
259.83	1722.34
260.05	1761.25
260.27	1955.81
260.48	1839.08
260.70	1609.70
260.92	1734.63
261.13	1738.73
261.35	1734.63
261.57	1722.34
261.78	1609.70
262.00	1675.24
262.22	1691.62
262.43	1574.89
262.65	1654.76
262.86	1714.15
263.08	1935.33
263.30	1691.62
263.51	1619.94
263.73	1665.00
263.95	1744.87
264.16	1650.66
264.38	1642.47
264.60	1718.25
264.81	1736.68
265.03	1746.92
265.25	1798.12
265.46	1718.25
265.68	1849.32
265.89	1802.21
266.11	1654.76
266.33	1761.25
266.54	1822.69
266.76	1697.77
266.98	1718.25
267.19	1824.74
267.41	1761.25
267.62	1771.49
267.84	1662.95
268.06	1785.83
268.27	1703.91
268.49	1763.30
268.70	1804.26
268.92	1710.05
269.14	1681.38
269.35	1632.23
269.57	1656.81
269.79	1689.57
270.00	1624.04
270.22	1818.60
270.43	1724.39
270.65	1593.32
270.87	1755.11
271.08	1652.71
271.30	1697.77
271.51	1740.77
271.73	1724.39
271.95	1769.44
272.16	1730.53
272.38	1728.49
272.59	1691.62
272.81	1644.52
273.02	1695.72
273.24	1751.01
273.46	1779.68
273.67	1695.72
273.89	1587.18
274.10	1562.60
274.32	1781.73
274.54	1798.12
274.75	1769.44
274.97	1640.42
275.18	1746.92
275.40	1740.77
275.61	1705.96
275.83	1742.82
276.05	1646.57
276.26	1701.86
276.48	1796.07
276.69	1636.33
276.91	1660.90
277.12	1783.78
277.34	1804.26
277.55	1767.40
277.77	1775.59
277.99	1654.76
278.20	1660.90
278.42	1687.53
278.63	1708.01
278.85	1660.90
279.06	1652.71
279.28	1665.00
279.49	1808.36
279.71	1746.92
279.93	1710.05
280.14	1708.01
280.36	1646.57
280.57	1820.64
280.79	1820.64
281.00	1640.42
281.22	1724.39
281.43	1812.45
281.65	1583.08
281.86	1681.38
282.08	1751.01
282.29	1787.88
282.51	1671.14
282.73	1685.48
282.94	1667.05
283.16	1677.29
283.37	1816.55
283.59	1693.67
283.80	1722.34
284.02	1685.48
284.23	1744.87
284.45	1656.81
284.66	1640.42
284.88	1726.44
285.09	1791.97
285.31	1716.20
285.52	1695.72
285.74	1599.46
285.95	1740.77
286.17	1773.54
286.38	1771.49
286.60	1677.29
286.81	1687.53
287.03	1787.88
287.24	1697.77
287.46	1730.53
287.67	1665.00
287.89	1886.18
288.10	1693.67
288.32	1798.12
288.53	1740.77
288.75	1662.95
288.96	1763.30
289.18	1689.57
289.39	1677.29
289.61	1697.77
289.82	1888.23
290.04	1804.26
290.25	1697.77
290.47	1722.34
290.68	1673.19
290.90	1804.26
291.11	1597.42
291.33	1730.53
291.54	1638.38
291.76	1658.85
291.97	1732.58
292.18	1718.25
292.40	1755.11
292.61	1675.24
292.83	1894.37
293.04	1761.25
293.26	1757.16
293.47	1738.73
293.69	1669.09
293.90	1728.49
294.12	1740.77
294.33	1724.39
294.55	1689.57
294.76	1839.08
294.97	1775.59
295.19	1699.81
295.40	1718.25
295.62	1697.77
295.83	1722.34
296.05	1691.62
296.26	1755.11
296.48	1648.61
296.69	1632.23
296.90	1646.57
297.12	1800.16
297.33	1771.49
297.55	1771.49
297.76	1685.48
297.98	1748.97
298.19	1753.06
298.41	1695.72
298.62	1677.29
298.83	1857.51
299.05	1681.38
299.26	1648.61
299.48	1634.28
299.69	1812.45
299.90	1636.33
300.12	1648.61
300.33	1773.54
300.55	1685.48
300.76	1730.53
300.98	1533.93
301.19	1722.34
301.40	1730.53
301.62	1683.43
301.83	1828.84
302.05	1777.64
302.26	1714.15
302.47	1742.82
302.69	1632.23
302.90	1683.43
303.12	1656.81
303.33	1783.78
303.54	1826.79
303.76	1671.14
303.97	1665.00
304.19	1837.03
304.40	1665.00
304.61	1787.88
304.83	1822.69
305.04	1755.11
305.26	1720.29
305.47	1714.15
305.68	1685.48
305.90	1630.18
306.11	1732.58
306.33	1677.29
306.54	1591.27
306.75	1621.99
306.97	1611.75
307.18	1621.99
307.39	1630.18
307.61	1744.87
307.82	1689.57
308.04	1683.43
308.25	1708.01
308.46	1701.86
308.68	1734.63
308.89	1730.53
309.10	1818.60
309.32	1710.05
309.53	1726.44
309.74	1753.06
309.96	1693.67
310.17	1716.20
310.39	1689.57
310.60	1708.01
310.81	1800.16
311.03	1585.13
311.24	1822.69
311.45	1728.49
311.67	1898.47
311.88	1730.53
312.09	1691.62
312.31	1599.46
312.52	1798.12
312.73	1617.90
312.95	1621.99
313.16	1714.15
313.37	1755.11
313.59	1794.02
313.80	1714.15
314.01	1802.21
314.23	1693.67
314.44	1603.56
314.65	1699.81
314.87	1660.90
315.08	1689.57
315.29	1763.30
315.51	1669.09
315.72	1656.81
315.93	1767.40
316.15	1787.88
316.36	1796.07
316.57	1697.77
316.79	1730.53
317.00	1691.62
317.21	1753.06
317.43	1679.33
317.64	1771.49
317.85	1654.76
318.07	1697.77
318.28	1796.07
318.49	1738.73
318.70	1943.52
318.92	1783.78
319.13	1802.21
319.34	1814.50
319.56	1839.08
319.77	1812.45
319.98	1783.78
320.20	1771.49
320.41	1714.15
320.62	1751.01
320.83	1656.81
321.05	1812.45
321.26	1699.81
321.47	1718.25
321.69	1763.30
321.90	1654.76
322.11	1716.20
322.32	1755.11
322.54	1726.44
322.75	1675.24
322.96	1796.07
323.18	1607.66
323.39	1617.90
323.60	1638.38
323.81	1708.01
324.03	1695.72
324.24	1763.30
324.45	1742.82
324.66	1714.15
324.88	1794.02
325.09	1794.02
325.30	1695.72
325.52	1740.77
325.73	1714.15
325.94	1578.98
326.15	1632.23
326.37	1656.81
326.58	1820.64
326.79	1777.64
327.00	1667.05
327.22	1611.75
327.43	1634.28
327.64	1726.44
327.85	1804.26
328.07	1806.31
328.28	1769.44
328.49	1710.05
328.70	1710.05
328.92	1744.87
329.13	1712.10
329.34	1710.05
329.55	1880.04
329.76	1724.39
329.98	1738.73
330.19	1718.25
330.40	1757.16
330.61	1800.16
330.83	1763.30
331.04	1667.05
331.25	1748.97
331.46	1662.95
331.68	1658.85
331.89	1763.30
332.10	1716.20
332.31	1615.85
332.52	1636.33
332.74	1783.78
332.95	1650.66
333.16	1677.29
333.37	1714.15
333.58	1712.10
333.80	1714.15
334.01	1597.42
334.22	1740.77
334.43	1734.63
334.64	1701.86
334.86	1601.51
335.07	1621.99
335.28	1771.49
335.49	1593.32
335.70	1755.11
335.92	1763.30
336.13	1877.99
336.34	1736.68
336.55	1695.72
336.76	1685.48
336.98	1626.09
337.19	1679.33
337.40	1822.69
337.61	1794.02
337.82	1638.38
338.04	1767.40
338.25	1697.77
338.46	1687.53
338.67	1724.39
338.88	1759.21
339.09	1591.27
339.31	1693.67
339.52	1689.57
339.73	1597.42
339.94	1669.09
340.15	1671.14
340.36	1685.48
340.58	1724.39
340.79	1609.70
341.00	1660.90
341.21	1632.23
341.42	1751.01
341.63	1716.20
341.85	1769.44
342.06	1708.01
342.27	1656.81
342.48	1773.54
342.69	1593.32
342.90	1718.25
343.12	1740.77
343.33	1628.14
343.54	1732.58
343.75	1798.12
343.96	1722.34
344.17	1646.57
344.38	1732.58
344.60	1693.67
344.81	1642.47
345.02	1710.05
345.23	1763.30
345.44	1716.20
345.65	1796.07
345.86	1765.35
346.07	1722.34
346.29	1691.62
346.50	1699.81
346.71	1730.53
346.92	1888.23
347.13	1771.49
347.34	1732.58
347.55	1669.09
347.76	1791.97
347.98	1599.46
348.19	1710.05
348.40	1767.40
348.61	1689.57
348.82	1726.44
349.03	1755.11
349.24	1677.29
349.45	1837.03
349.66	1632.23
349.88	1671.14
350.09	1665.00
350.30	1720.29
350.51	1763.30
350.72	1710.05
350.93	1695.72
351.14	1617.90
351.35	1738.73
351.56	1728.49
351.77	1761.25
351.99	1699.81
352.20	1820.64
352.41	1828.84
352.62	1497.07
352.83	1744.87
353.04	1673.19
353.25	1677.29
353.46	1722.34
353.67	1804.26
353.88	1601.51
354.09	1730.53
354.30	1679.33
354.52	1808.36
354.73	1726.44
354.94	1697.77
355.15	1773.54
355.36	1812.45
355.57	1667.05
355.78	1738.73
355.99	1755.11
356.20	1695.72
356.41	1722.34
356.62	1728.49
356.83	1650.66
357.04	1855.46
357.25	1597.42
357.46	1746.92
357.68	1652.71
357.89	1671.14
358.10	1693.67
358.31	1630.18
358.52	1701.86
358.73	1718.25
358.94	1607.66
359.15	1662.95
359.36	1722.34
359.57	1775.59
359.78	1730.53
359.99	1744.87
360.20	1650.66
360.41	1708.01
360.62	1693.67
360.83	1759.21
361.04	1708.01
361.25	1814.50
361.46	1841.12
361.67	1730.53
361.88	1734.63
362.09	1738.73
362.30	1734.63
362.51	1636.33
362.72	1685.48
362.93	1787.88
363.14	1751.01
363.35	1722.34
363.56	1693.67
363.78	1740.77
363.99	1730.53
364.20	1660.90
364.41	1687.53
364.62	1796.07
364.83	1771.49
365.04	1648.61
365.25	1746.92
365.46	1800.16
365.67	1693.67
365.88	1691.62
366.09	1730.53
366.30	1652.71
366.51	1722.34
366.72	1703.91
366.93	1710.05
367.14	1642.47
367.35	1822.69
367.56	1751.01
367.77	1800.16
367.98	1734.63
368.18	1665.00
368.39	1720.29
368.60	1648.61
368.81	1708.01
369.02	1738.73
369.23	1746.92
369.44	1640.42
369.65	1677.29
369.86	1730.53
370.07	1761.25
370.28	1652.71
370.49	1748.97
370.70	1771.49
370.91	1681.38
371.12	1597.42
371.33	1726.44
371.54	1718.25
371.75	1806.31
371.96	1597.42
372.17	1738.73
372.38	1722.34
372.59	1818.60
372.80	1673.19
373.01	1697.77
373.22	1757.16
373.43	1701.86
373.64	1701.86
373.85	1830.88
374.06	1746.92
374.26	1742.82
374.47	1761.25
374.68	1812.45
374.89	1785.83
375.10	1675.24
375.31	1757.16
375.52	1742.82
375.73	1779.68
375.94	1613.80
376.15	1867.75
376.36	1699.81
376.57	1632.23
376.78	1640.42
376.99	1675.24
377.20	1818.60
377.40	1667.05
377.61	1783.78
377.82	1675.24
378.03	1820.64
378.24	1722.34
378.45	1708.01
378.66	1763.30
378.87	1597.42
379.08	1718.25
379.29	1710.05
379.50	1802.21
379.71	1724.39
379.91	1708.01
380.12	1703.91
380.33	1742.82
380.54	1740.77
380.75	1773.54
380.96	1689.57
381.17	1832.93
381.38	1771.49
381.59	1740.77
381.80	1753.06
382.00	1886.18
382.21	1742.82
382.42	1898.47
382.63	1920.99
382.84	1765.35
383.05	1802.21
383.26	1800.16
383.47	1742.82
383.68	1703.91
383.88	1755.11
384.09	1699.81
384.30	1810.40
384.51	1783.78
384.72	1763.30
384.93	1638.38
385.14	1720.29
385.35	1730.53
385.55	1597.42
385.76	1769.44
385.97	1718.25
386.18	1705.96
386.39	1695.72
386.60	1755.11
386.81	1683.43
387.02	1726.44
387.22	1701.86
387.43	1769.44
387.64	1689.57
387.85	1871.84
388.06	2240.48
388.27	4409.28
388.48	6789.02
388.68	8245.12
388.89	9541.49
389.10	9877.35
389.31	8761.21
389.52	7649.16
389.73	6795.16
389.93	6350.75
390.14	5949.35
390.35	5296.05
390.56	4464.57
390.77	3737.54
390.98	3055.57
391.18	2559.96
391.39	2131.94
391.60	1841.12
391.81	1853.41
392.02	1693.67
392.23	1896.42
392.43	1759.21
392.64	1765.35
392.85	1703.91
393.06	1814.50
393.27	1683.43
393.47	1673.19
393.68	1738.73
393.89	1667.05
394.10	1775.59
394.31	1679.33
394.52	1675.24
394.72	1665.00
394.93	1845.22
395.14	1617.90
395.35	1738.73
395.56	1675.24
395.76	1728.49
395.97	1785.83
396.18	1789.92
396.39	1847.27
396.60	2041.82
396.80	1777.64
397.01	1794.02
397.22	1865.70
397.43	1869.80
397.64	1818.60
397.84	1832.93
398.05	1810.40
398.26	1837.03
398.47	1783.78
398.67	1796.07
398.88	1746.92
399.09	1777.64
399.30	1710.05
399.51	1691.62
399.71	1632.23
399.92	1675.24
400.13	1722.34
400.34	1656.81
400.54	1673.19
400.75	1781.73
400.96	1759.21
401.17	1789.92
401.37	1728.49
401.58	1751.01
401.79	1779.68
402.00	1875.94
402.21	1937.38
402.41	2027.49
402.62	1992.67
402.83	2088.93
403.04	2000.87
403.24	2078.69
403.45	1869.80
403.66	1882.08
403.87	1847.27
404.07	1933.28
404.28	1894.37
404.49	1851.36
404.70	1882.08
404.90	1763.30
405.11	1734.63
405.32	1701.86
405.52	1693.67
405.73	1679.33
405.94	1693.67
406.15	1644.52
406.35	1726.44
406.56	1740.77
406.77	1753.06
406.98	1779.68
407.18	1648.61
407.39	1740.77
407.60	1671.14
407.80	1746.92
408.01	1710.05
408.22	1726.44
408.43	1687.53
408.63	1787.88
408.84	1779.68
409.05	1798.12
409.25	1736.68
409.46	1701.86
409.67	1671.14
409.88	1685.48
410.08	1726.44
410.29	1705.96
410.50	1798.12
410.70	1708.01
410.91	1669.09
411.12	1789.92
411.32	1691.62
411.53	1691.62
411.74	1826.79
411.95	1828.84
412.15	1742.82
412.36	1832.93
412.57	1769.44
412.77	1785.83
412.98	1742.82
413.19	1787.88
413.39	1783.78
413.60	1791.97
413.81	1794.02
414.01	1675.24
414.22	1794.02
414.43	1658.85
414.63	1701.86
414.84	1751.01
415.05	1671.14
415.25	1601.51
415.46	1681.38
415.67	1697.77
415.87	1695.72
416.08	1697.77
416.29	1646.57
416.49	1777.64
416.70	1638.38
416.91	1748.97
417.11	1738.73
417.32	1787.88
417.53	1642.47
417.73	1722.34
417.94	1677.29
418.15	1779.68
418.35	1687.53
418.56	1773.54
418.77	1769.44
418.97	1699.81
419.18	1724.39
419.38	1619.94
419.59	1765.35
419.80	1837.03
420.00	1648.61
420.21	1714.15
420.42	1859.56
420.62	1697.77
420.83	1689.57
421.04	1669.09
421.24	1685.48
421.45	1720.29
421.65	1720.29
421.86	1710.05
422.07	1753.06
422.27	1769.44
422.48	1759.21
422.69	1681.38
422.89	1724.39
423.10	1699.81
423.30	1626.09
423.51	1699.81
423.72	1705.96
423.92	1701.86
424.13	1605.61
424.33	1669.09
424.54	1658.85
424.75	1701.86
424.95	1898.47
425.16	1673.19
425.36	1718.25
425.57	1734.63
425.78	1720.29
425.98	1755.11
426.19	1691.62
426.39	1720.29
426.60	1767.40
426.81	1769.44
427.01	1689.57
427.22	1634.28
427.42	1601.51
427.63	1654.76
427.83	1761.25
428.04	1771.49
428.25	1837.03
428.45	1877.99
428.66	1783.78
428.86	1652.71
429.07	1693.67
429.28	1785.83
429.48	1656.81
429.69	1681.38
429.89	1695.72
430.10	1683.43
430.30	1708.01
430.51	1738.73
430.71	1687.53
430.92	1705.96
431.13	1771.49
431.33	1740.77
431.54	1773.54
431.74	1730.53
431.95	1834.98
432.15	1673.19
432.36	1744.87
432.56	1701.86
432.77	1861.60
432.98	1757.16
433.18	1728.49
433.39	1730.53
433.59	1673.19
433.80	1843.17
434.00	1812.45
434.21	1648.61
434.41	1679.33
434.62	1791.97
434.82	1660.90
435.03	1679.33
435.23	1736.68
435.44	1628.14
435.64	1703.91
435.85	1675.24
436.06	1755.11
436.26	1759.21
436.47	1679.33
436.67	1619.94
436.88	1605.61
437.08	1736.68
437.29	1826.79
437.49	1673.19
437.70	1832.93
437.90	1705.96
438.11	1843.17
438.31	1744.87
438.52	1873.89
438.72	1888.23
438.93	1925.09
439.13	1787.88
439.34	1824.74
439.54	1769.44
439.75	1839.08
439.95	1798.12
440.16	1753.06
440.36	1730.53
440.57	1796.07
440.77	1765.35
440.98	1759.21
441.18	1771.49
441.39	1708.01
441.59	1656.81
441.80	1853.41
442.00	1685.48
442.21	1783.78
442.41	1671.14
442.62	1794.02
442.82	1720.29
443.02	1746.92
443.23	1757.16
443.43	1722.34
443.64	1816.55
443.84	1658.85
444.05	1804.26
444.25	1689.57
444.46	1708.01
444.66	1730.53
444.87	1808.36
445.07	1646.57
445.28	1679.33
445.48	1861.60
445.69	1775.59
445.89	1923.04
446.09	1791.97
446.30	1966.05
446.50	2695.13
446.71	3819.46
446.91	4388.80
447.12	4855.73
447.32	4941.75
447.53	4290.49
447.73	3872.71
447.93	3592.14
448.14	3307.47
448.34	3207.12
448.55	3004.37
448.75	2850.77
448.96	2662.36
449.16	2432.99
449.36	2353.12
449.57	2088.93
449.77	1955.81
449.98	1746.92
450.18	1826.79
450.39	1818.60
450.59	1785.83
450.79	1722.34
451.00	1650.66
451.20	1822.69
451.41	1714.15
451.61	1808.36
451.81	1640.42
452.02	1775.59
452.22	1697.77
452.43	1746.92
452.63	1669.09
452.84	1732.58
453.04	1714.15
453.24	1742.82
453.45	1660.90
453.65	1771.49
453.86	1796.07
454.06	1779.68
454.26	1753.06
454.47	1681.38
454.67	1841.12
454.87	1775.59
455.08	1736.68
455.28	1884.13
455.49	1812.45
455.69	1699.81
455.89	1769.44
456.10	1822.69
456.30	1755.11
456.51	1796.07
456.71	1759.21
456.91	1810.40
457.12	1708.01
457.32	1751.01
457.52	1644.52
457.73	1783.78
457.93	1839.08
458.14	1744.87
458.34	1656.81
458.54	1751.01
458.75	1742.82
458.95	1767.40
459.15	1765.35
459.36	1703.91
459.56	1738.73
459.76	1869.80
459.97	1748.97
460.17	1689.57
460.37	1769.44
460.58	1726.44
460.78	1775.59
460.99	1681.38
461.19	1667.05
461.39	1714.15
461.60	1716.20
461.80	1773.54
462.00	1720.29
462.21	1716.20
462.41	1675.24
462.61	1703.91
462.82	1615.85
463.02	1755.11
463.22	1738.73
463.43	1748.97
463.63	1744.87
463.83	1716.20
464.04	1763.30
464.24	1662.95
464.44	1697.77
464.64	1736.68
464.85	1738.73
465.05	1804.26
465.25	1746.92
465.46	1632.23
465.66	1736.68
465.86	1785.83
466.07	1734.63
466.27	1779.68
466.47	1665.00
466.68	1701.86
466.88	1757.16
467.08	1708.01
467.29	1751.01
467.49	1693.67
467.69	1763.30
467.89	1824.74
468.10	1785.83
468.30	1753.06
468.50	1787.88
468.71	1763.30
468.91	1626.09
469.11	1787.88
469.31	1720.29
469.52	1656.81
469.72	1818.60
469.92	1865.70
470.13	1779.68
470.33	1791.97
470.53	1808.36
470.73	2154.46
470.94	2244.57
471.14	2291.68
471.34	2523.10
471.54	2455.51
471.75	2242.53
471.95	2222.05
472.15	2103.26
472.36	2095.07
472.56	2052.06
472.76	2056.16
472.96	2013.15
473.17	1943.52
473.37	1949.67
473.57	1763.30
473.77	1802.21
473.98	1800.16
474.18	1689.57
474.38	1920.99
474.58	1656.81
474.79	1804.26
474.99	1751.01
475.19	1810.40
475.39	1585.13
475.60	1832.93
475.80	1810.40
476.00	1748.97
476.20	1716.20
476.41	1679.33
476.61	1834.98
476.81	1785.83
477.01	1619.94
477.21	1808.36
477.42	1773.54
477.62	1652.71
477.82	1796.07
478.02	1697.77
478.23	1724.39
478.43	1626.09
478.63	1685.48
478.83	1718.25
479.03	1656.81
479.24	1767.40
479.44	1877.99
479.64	1744.87
479.84	1669.09
480.04	1591.27
480.25	1814.50
480.45	1656.81
480.65	1697.77
480.85	1816.55
481.06	1687.53
481.26	1773.54
481.46	1783.78
481.66	1691.62
481.86	1744.87
482.06	1794.02
482.27	1777.64
482.47	1640.42
482.67	1669.09
482.87	1691.62
483.07	1777.64
483.28	1699.81
483.48	1595.37
483.68	1744.87
483.88	1665.00
484.08	1650.66
484.29	1689.57
484.49	1734.63
484.69	1642.47
484.89	1732.58
485.09	1683.43
485.29	1744.87
485.50	1773.54
485.70	1675.24
485.90	1834.98
486.10	1746.92
486.30	1757.16
486.50	1751.01
486.71	1804.26
486.91	1783.78
487.11	1849.32
487.31	1591.27
487.51	1732.58
487.71	1640.42
487.91	1699.81
488.12	1658.85
488.32	1640.42
488.52	1771.49
488.72	1603.56
488.92	1710.05
489.12	1751.01
489.32	1789.92
489.53	1851.36
489.73	1601.51
489.93	1812.45
490.13	1734.63
490.33	1646.57
490.53	1800.16
490.73	1845.22
490.94	1648.61
491.14	1806.31
491.34	1843.17
491.54	2201.57
491.74	2650.07
491.94	2852.82
492.14	3016.66
492.34	2955.22
492.54	2803.67
492.75	2516.95
492.95	2443.23
493.15	2289.63
493.35	2260.96
493.55	2277.34
493.75	2138.08
493.95	2199.52
494.15	2109.41
494.35	1914.85
494.56	1914.85
494.76	1771.49
494.96	1779.68
495.16	1783.78
495.36	1769.44
495.56	1746.92
495.76	1691.62
495.96	1699.81
496.16	1703.91
496.36	1812.45
496.56	1708.01
496.77	1783.78
496.97	1716.20
497.17	1781.73
497.37	1626.09
497.57	1763.30
497.77	1732.58
497.97	1683.43
498.17	1748.97
498.37	1732.58
498.57	1812.45
498.77	1744.87
498.97	1748.97
499.17	1826.79
499.38	1687.53
499.58	1794.02
499.78	1828.84
499.98	1798.12
500.18	1720.29
500.38	1701.86
500.58	1896.42
500.78	2525.15
500.98	4511.68
501.18	5812.14
501.38	6743.96
501.58	7210.90
501.78	6674.33
501.98	5728.17
502.18	5007.28
502.38	4401.08
502.58	4149.18
502.78	3796.93
502.98	3717.06
503.18	3469.26
503.38	3196.88
503.59	2856.92
503.79	2734.04
503.99	2420.70
504.19	2254.81
504.39	2263.01
504.59	2164.70
504.79	2136.03
504.99	2035.68
505.19	1906.66
505.39	1900.52
505.59	1968.10
505.79	1873.89
505.99	1877.99
506.19	1828.84
506.39	1880.04
506.59	1742.82
506.79	1740.77
506.99	1824.74
507.19	1714.15
507.39	1734.63
507.59	1652.71
507.79	1742.82
507.99	1705.96
508.19	1773.54
508.39	1689.57
508.59	1703.91
508.79	1857.51
508.99	1812.45
509.19	1613.80
509.39	1794.02
509.59	1730.53
509.79	1716.20
509.99	1773.54
510.19	1839.08
510.39	1791.97
510.59	1816.55
510.79	1714.15
510.99	1675.24
511.19	1742.82
511.39	1853.41
511.59	1816.55
511.79	1777.64
511.99	1800.16
512.19	1824.74
512.38	1712.10
512.58	1726.44
512.78	1650.66
512.98	1775.59
513.18	1789.92
513.38	1660.90
513.58	1746.92
513.78	1703.91
513.98	1722.34
514.18	1730.53
514.38	1708.01
514.58	1775.59
514.78	1681.38
514.98	1630.18
515.18	1742.82
515.38	1595.37
515.58	1896.42
515.78	1732.58
515.98	1798.12
516.18	1904.61
516.38	1769.44
516.57	1775.59
516.77	1710.05
516.97	1779.68
517.17	1724.39
517.37	1683.43
517.57	1732.58
517.77	1767.40
517.97	1705.96
518.17	1794.02
518.37	1679.33
518.57	1718.25
518.77	1722.34
518.97	1751.01
519.16	1775.59
519.36	1828.84
519.56	1746.92
519.76	1765.35
519.96	1822.69
520.16	1748.97
520.36	1718.25
520.56	1802.21
520.76	1679.33
520.96	1705.96
521.16	1816.55
521.35	1783.78
521.55	1806.31
521.75	1730.53
521.95	1607.66
522.15	1767.40
522.35	1656.81
522.55	1763.30
522.75	1800.16
522.95	1650.66
523.14	1662.95
523.34	1843.17
523.54	1697.77
523.74	1757.16
523.94	1759.21
524.14	1589.22
524.34	1804.26
524.54	1828.84
524.73	1660.90
524.93	1769.44
525.13	1748.97
525.33	1683.43
525.53	1898.47
525.73	1720.29
525.93	1740.77
526.13	1683.43
526.32	1683.43
526.52	1853.41
526.72	1794.02
526.92	1724.39
527.12	1732.58
527.32	1607.66
527.52	1734.63
527.71	1818.60
527.91	1738.73
528.11	1632.23
528.31	1675.24
528.51	1722.34
528.71	1820.64
528.90	1736.68
529.10	1763.30
529.30	1726.44
529.50	1632.23
529.70	1720.29
529.90	1695.72
530.09	1685.48
530.29	1667.05
530.49	1689.57
530.69	1898.47
530.89	1703.91
531.09	1810.40
531.28	1734.63
531.48	1832.93
531.68	1740.77
531.88	1834.98
532.08	1769.44
532.28	1773.54
532.47	1759.21
532.67	1834.98
532.87	1740.77
533.07	1677.29
533.27	1767.40
533.46	1705.96
533.66	1781.73
533.86	1683.43
534.06	1775.59
534.26	1794.02
534.45	1736.68
534.65	1816.55
534.85	1767.40
535.05	1759.21
535.25	1773.54
535.44	1609.70
535.64	1802.21
535.84	1665.00
536.04	1800.16
536.24	1720.29
536.43	1734.63
536.63	1724.39
536.83	1757.16
537.03	1744.87
537.22	1617.90
537.42	1632.23
537.62	1802.21
537.82	1662.95
538.02	1763.30
538.21	1839.08
538.41	1957.86
538.61	1705.96
538.81	1773.54
539.00	1765.35
539.20	1609.70
539.40	1730.53
539.60	1732.58
539.79	1771.49
539.99	1740.77
540.19	1726.44
540.39	1781.73
540.58	1783.78
540.78	1773.54
540.98	1767.40
541.18	1722.34
541.37	1787.88
541.57	1734.63
541.77	1701.86
541.97	1675.24
542.16	1656.81
542.36	1679.33
542.56	1849.32
542.76	1800.16
542.95	1775.59
543.15	1806.31
543.35	1820.64
543.54	1650.66
543.74	1708.01
543.94	1804.26
544.14	1708.01
544.33	1740.77
544.53	1753.06
544.73	1742.82
544.93	1689.57
545.12	1699.81
545.32	1775.59
545.52	1716.20
545.71	1665.00
545.91	1724.39
546.11	1767.40
546.30	1732.58
546.50	1718.25
546.70	1658.85
546.90	1796.07
547.09	1638.38
547.29	1716.20
547.49	1759.21
547.68	1730.53
547.88	1626.09
548.08	1796.07
548.27	2195.42
548.47	1798.12
548.67	1613.80
548.87	1783.78
549.06	1712.10
549.26	1669.09
549.46	1693.67
549.65	1791.97
549.85	1775.59
550.05	1867.75
550.24	1671.14
550.44	1724.39
550.64	1742.82
550.83	1697.77
551.03	1787.88
551.23	1814.50
551.42	1781.73
551.62	1730.53
551.82	1771.49
552.01	1804.26
552.21	1748.97
552.41	1689.57
552.60	1859.56
552.80	1724.39
553.00	1617.90
553.19	1691.62
553.39	1843.17
553.59	1665.00
553.78	1787.88
553.98	1730.53
554.17	1656.81
554.37	1740.77
554.57	1767.40
554.76	1581.03
554.96	1701.86
555.16	1767.40
555.35	1695.72
555.55	1875.94
555.75	1701.86
555.94	1877.99
556.14	1695.72
556.33	1800.16
556.53	1769.44
556.73	1742.82
556.92	1718.25
557.12	1789.92
557.32	1837.03
557.51	1775.59
557.71	1783.78
557.90	1796.07
558.10	1812.45
558.30	1773.54
558.49	1687.53
558.69	1730.53
558.88	1744.87
559.08	1773.54
559.28	1695.72
559.47	1736.68
559.67	1744.87
559.86	1937.38
560.06	1789.92
560.26	1636.33
560.45	1802.21
560.65	1656.81
560.84	1849.32
561.04	1744.87
561.24	1693.67
561.43	1605.61
561.63	1884.13
561.82	1716.20
562.02	1796.07
562.22	1708.01
562.41	1742.82
562.61	1722.34
562.80	1660.90
563.00	1855.46
563.19	1759.21
563.39	1798.12
563.59	1783.78
563.78	1718.25
563.98	1642.47
564.17	1671.14
564.37	1621.99
564.56	1722.34
564.76	1667.05
564.96	1851.36
565.15	1724.39
565.35	1845.22
565.54	1722.34
565.74	1736.68
565.93	1759.21
566.13	1755.11
566.32	1755.11
566.52	1826.79
566.71	1714.15
566.91	1753.06
567.11	1742.82
567.30	1712.10
567.50	1771.49
567.69	1767.40
567.89	1722.34
568.08	1673.19
568.28	1763.30
568.47	1650.66
568.67	1763.30
568.86	1722.34
569.06	1861.60
569.25	1796.07
569.45	1697.77
569.64	1796.07
569.84	1736.68
570.04	1710.05
570.23	1753.06
570.43	1720.29
570.62	1785.83
570.82	1783.78
571.01	1665.00
571.21	1736.68
571.40	1669.09
571.60	1718.25
571.79	1740.77
571.99	1798.12
572.18	1632.23
572.38	1755.11
572.57	1728.49
572.77	1726.44
572.96	1865.70
573.16	1705.96
573.35	1722.34
573.55	1769.44
573.74	1771.49
573.94	1777.64
574.13	1677.29
574.33	1855.46
574.52	1777.64
574.71	1681.38
574.91	1775.59
575.10	1638.38
575.30	1703.91
575.49	1748.97
575.69	1728.49
575.88	1714.15
576.08	1685.48
576.27	1837.03
576.47	1751.01
576.66	1837.03
576.86	1916.90
577.05	1693.67
577.25	1841.12
577.44	1871.84
577.64	1710.05
577.83	1806.31
578.02	1849.32
578.22	1873.89
578.41	1826.79
578.61	1708.01
578.80	1683.43
579.00	1798.12
579.19	1812.45
579.39	1779.68
579.58	1820.64
579.77	1787.88
579.97	1871.84
580.16	1765.35
580.36	1832.93
580.55	1845.22
580.75	1773.54
580.94	1755.11
581.13	1794.02
581.33	1839.08
581.52	1794.02
581.72	1834.98
581.91	1902.56
582.11	1769.44
582.30	1746.92
582.49	1763.30
582.69	1818.60
582.88	1755.11
583.08	1716.20
583.27	1859.56
583.47	1726.44
583.66	1667.05
583.85	1730.53
584.05	1742.82
584.24	1841.12
584.44	1808.36
584.63	1771.49
584.82	1888.23
585.02	1877.99
585.21	1845.22
585.41	1837.03
585.60	1806.31
585.79	1880.04
585.99	1964.00
586.18	1871.84
586.37	2181.09
586.57	3327.95
586.76	9793.39
586.96	24565.39
587.15	34833.90
587.34	40580.50
587.54	42233.21
587.73	37158.34
587.93	26504.81
588.12	21700.28
588.31	18511.59
588.51	16668.42
588.70	15130.39
588.89	14143.27
589.09	12504.90
589.28	10958.68
589.47	9459.57
589.67	7960.45
589.86	6481.82
590.06	5025.72
590.25	3946.44
590.44	3092.43
590.64	2629.59
590.83	2308.06
591.02	2156.51
591.22	1933.28
591.41	1986.53
591.60	1832.93
591.80	1904.61
591.99	1730.53
592.18	1800.16
592.38	1779.68
592.57	1783.78
592.76	1806.31
592.96	1847.27
593.15	1751.01
593.34	1730.53
593.54	1746.92
593.73	1816.55
593.92	1783.78
594.12	1798.12
594.31	1652.71
594.50	1794.02
594.70	1830.88
594.89	1961.95
595.08	1722.34
595.28	1738.73
595.47	1880.04
595.66	1806.31
595.86	1681.38
596.05	1705.96
596.24	1751.01
596.43	1875.94
596.63	1771.49
596.82	1710.05
597.01	1718.25
597.21	1785.83
597.40	1736.68
597.59	1693.67
597.79	1791.97
597.98	1714.15
598.17	1738.73
598.36	1785.83
598.56	1783.78
598.75	1771.49
598.94	1834.98
599.14	1767.40
599.33	1742.82
599.52	1830.88
599.71	1716.20
599.91	1857.51
600.10	1808.36
600.29	1708.01
600.48	1832.93
600.68	1773.54
600.87	1816.55
601.06	1767.40
601.26	1746.92
601.45	1779.68
601.64	1683.43
601.83	1812.45
602.03	1746.92
602.22	1744.87
602.41	1814.50
602.60	1894.37
602.80	1834.98
602.99	1773.54
603.18	1640.42
603.37	1718.25
603.57	1746.92
603.76	1812.45
603.95	1828.84
604.14	1822.69
604.34	1656.81
604.53	1734.63
604.72	1716.20
604.91	1732.58
605.10	1740.77
605.30	1689.57
605.49	1759.21
605.68	1771.49
605.87	1736.68
606.07	1669.09
606.26	1769.44
606.45	1755.11
606.64	1697.77
606.84	1734.63
607.03	1697.77
607.22	1851.36
607.41	1636.33
607.60	1624.04
607.80	1781.73
607.99	1716.20
608.18	1701.86
608.37	1710.05
608.56	1718.25
608.76	1832.93
608.95	1800.16
609.14	1800.16
609.33	1820.64
609.52	1826.79
609.72	1699.81
609.91	1882.08
610.10	1769.44
610.29	1794.02
610.48	1783.78
610.68	1767.40
610.87	1734.63
611.06	1787.88
611.25	1716.20
611.44	1828.84
611.63	1718.25
611.83	1812.45
612.02	1683.43
612.21	1779.68
612.40	1644.52
612.59	1710.05
612.79	1773.54
612.98	1730.53
613.17	1873.89
613.36	1755.11
613.55	1798.12
613.74	1681.38
613.93	1712.10
614.13	1757.16
614.32	1771.49
614.51	1781.73
614.70	1740.77
614.89	1632.23
615.08	1751.01
615.28	2101.22
615.47	1677.29
615.66	1728.49
615.85	1748.97
616.04	1773.54
616.23	1742.82
616.42	1689.57
616.62	1728.49
616.81	1771.49
617.00	1800.16
617.19	1759.21
617.38	1761.25
617.57	1742.82
617.76	1720.29
617.95	1771.49
618.15	1779.68
618.34	1808.36
618.53	1685.48
618.72	1783.78
618.91	1796.07
619.10	1906.66
619.29	1710.05
619.48	1742.82
619.68	1775.59
619.87	1716.20
620.06	1615.85
620.25	1779.68
620.44	1751.01
620.63	1701.86
620.82	1708.01
621.01	1720.29
621.20	1753.06
621.39	1773.54
621.59	1777.64
621.78	1685.48
621.97	1683.43
622.16	1753.06
622.35	1701.86
622.54	1744.87
622.73	1830.88
622.92	1628.14
623.11	1843.17
623.30	1724.39
623.49	1771.49
623.68	1705.96
623.88	1740.77
624.07	1716.20
624.26	1775.59
624.45	1765.35
624.64	1712.10
624.83	1746.92
625.02	1689.57
625.21	1761.25
625.40	1794.02
625.59	1888.23
625.78	1742.82
625.97	1789.92
626.16	1703.91
626.35	1761.25
626.54	1712.10
626.74	1816.55
626.93	1679.33
627.12	1712.10
627.31	1812.45
627.50	1734.63
627.69	1775.59
627.88	1689.57
628.07	1656.81
628.26	1710.05
628.45	1720.29
628.64	1609.70
628.83	1699.81
629.02	1619.94
629.21	1804.26
629.40	1763.30
629.59	1662.95
629.78	1701.86
629.97	1667.05
630.16	1705.96
630.35	1693.67
630.54	1759.21
630.73	1695.72
630.92	1787.88
631.11	1665.00
631.30	1740.77
631.49	1724.39
631.68	1781.73
631.87	1691.62
632.06	1736.68
632.25	1929.19
632.44	1716.20
632.63	1697.77
632.82	1718.25
633.01	1710.05
633.20	1730.53
633.39	1701.86
633.58	1734.63
633.77	1771.49
633.96	1746.92
634.15	1746.92
634.34	1751.01
634.53	1763.30
634.72	1656.81
634.91	1628.14
635.10	1773.54
635.29	1708.01
635.48	1740.77
635.67	1714.15
635.86	1646.57
636.05	1753.06
636.24	1740.77
636.43	1714.15
636.62	1791.97
636.81	1630.18
637.00	1718.25
637.19	1787.88
637.38	1738.73
637.57	1701.86
637.76	1800.16
637.95	1654.76
638.14	1603.56
638.33	1722.34
638.52	1701.86
638.71	1656.81
638.89	1650.66
639.08	1880.04
639.27	1746.92
639.46	1665.00
639.65	1730.53
639.84	1630.18
640.03	1722.34
640.22	1775.59
640.41	1853.41
640.60	1687.53
640.79	1732.58
640.98	1695.72
641.17	1765.35
641.36	1785.83
641.55	1794.02
641.74	1585.13
641.92	1681.38
642.11	1734.63
642.30	1746.92
642.49	1705.96
642.68	1701.86
642.87	1761.25
643.06	1798.12
643.25	1753.06
643.44	1626.09
643.63	1783.78
643.82	1757.16
644.00	1624.04
644.19	1830.88
644.38	1718.25
644.57	1806.31
644.76	1759.21
644.95	1724.39
645.14	1708.01
645.33	1691.62
645.52	1755.11
645.71	1701.86
645.89	1685.48
646.08	1708.01
646.27	1728.49
646.46	1755.11
646.65	1603.56
646.84	1665.00
647.03	1695.72
647.22	1798.12
647.40	1730.53
647.59	1699.81
647.78	1630.18
647.97	1685.48
648.16	1669.09
648.35	1798.12
648.54	1867.75
648.73	1751.01
648.91	1755.11
649.10	1722.34
649.29	1665.00
649.48	1726.44
649.67	1742.82
649.86	1771.49
650.05	1724.39
650.23	1783.78
650.42	1677.29
650.61	1724.39
650.80	1757.16
650.99	1853.41
651.18	1730.53
651.36	1794.02
651.55	1699.81
651.74	1791.97
651.93	1710.05
652.12	1656.81
652.31	1773.54
652.49	1746.92
652.68	1718.25
652.87	1742.82
653.06	1732.58
653.25	1816.55
653.44	1736.68
653.62	1812.45
653.81	1626.09
654.00	1718.25
654.19	1761.25
654.38	1894.37
654.56	1773.54
654.75	1728.49
654.94	1755.11
655.13	1746.92
655.32	1695.72
655.51	1703.91
655.69	1693.67
655.88	1771.49
656.07	1660.90
656.26	1787.88
656.45	1609.70
656.63	1705.96
656.82	1837.03
657.01	1837.03
657.20	1710.05
657.38	1779.68
657.57	1714.15
657.76	1636.33
657.95	1818.60
658.14	1636.33
658.32	1681.38
658.51	1755.11
658.70	1738.73
658.89	1738.73
659.08	1763.30
659.26	1718.25
659.45	1662.95
659.64	1757.16
659.83	1736.68
660.01	1904.61
660.20	1744.87
660.39	1763.30
660.58	1624.04
660.76	1755.11
660.95	1617.90
661.14	1640.42
661.33	1652.71
661.51	1732.58
661.70	1671.14
661.89	1794.02
662.08	1767.40
662.26	1658.85
662.45	1615.85
662.64	1800.16
662.83	1763.30
663.01	1765.35
663.20	1665.00
663.39	1806.31
663.58	1654.76
663.76	1734.63
663.95	1769.44
664.14	1601.51
664.32	1665.00
664.51	1697.77
664.70	1578.98
664.89	1720.29
665.07	1646.57
665.26	1685.48
665.45	1705.96
665.64	1806.31
665.82	1697.77
666.01	1787.88
666.20	1624.04
666.38	1769.44
666.57	1775.59
666.76	2217.95
666.95	4409.28
667.13	10598.24
667.32	15572.75
667.51	18075.37
667.69	19275.48
667.88	18026.22
668.07	12543.81
668.25	9670.51
668.44	8152.96
668.63	7434.13
668.81	6936.47
669.00	6360.99
669.19	5787.56
669.38	5230.51
669.56	4587.45
669.75	3964.87
669.94	3364.81
670.12	2863.06
670.31	2465.75
670.50	2314.20
670.68	2066.40
670.87	2004.96
671.06	1783.78
671.24	1822.69
671.43	1841.12
671.62	1779.68
671.80	1740.77
671.99	1689.57
672.18	1736.68
672.36	1834.98
672.55	1693.67
672.74	1746.92
672.92	1728.49
673.11	1710.05
673.29	1734.63
673.48	1619.94
673.67	1697.77
673.85	1751.01
674.04	1652.71
674.23	1732.58
674.41	1869.80
674.60	1697.77
674.79	1691.62
674.97	1697.77
675.16	1775.59
675.34	1755.11
675.53	1644.52
675.72	1802.21
675.90	1742.82
676.09	1757.16
676.28	1771.49
676.46	1615.85
676.65	1744.87
676.83	1591.27
677.02	1746.92
677.21	1755.11
677.39	1742.82
677.58	1642.47
677.77	1675.24
677.95	1701.86
678.14	1671.14
678.32	1665.00
678.51	1681.38
678.70	1857.51
678.88	1751.01
679.07	1742.82
679.25	1669.09
679.44	1705.96
679.63	1640.42
679.81	1732.58
680.00	1828.84
680.18	1783.78
680.37	1804.26
680.55	1771.49
680.74	1701.86
680.93	1621.99
681.11	1765.35
681.30	1771.49
681.48	1755.11
681.67	1662.95
681.85	1660.90
682.04	1693.67
682.23	1746.92
682.41	1705.96
682.60	1675.24
682.78	1740.77
682.97	1615.85
683.15	1701.86
683.34	1703.91
683.53	1855.46
683.71	1632.23
683.90	1837.03
684.08	1798.12
684.27	1703.91
684.45	1720.29
684.64	1828.84
684.82	1736.68
685.01	1763.30
685.19	1669.09
685.38	1855.46
685.57	1753.06
685.75	1626.09
685.94	1632.23
686.12	1689.57
686.31	1712.10
686.49	1826.79
686.68	1626.09
686.86	1791.97
687.05	1705.96
687.23	1824.74
687.42	1728.49
687.60	1581.03
687.79	1718.25
687.97	1757.16
688.16	1728.49
688.34	1798.12
688.53	1642.47
688.71	1757.16
688.90	1775.59
689.08	1726.44
689.27	1667.05
689.45	1824.74
689.64	1742.82
689.82	1755.11
690.01	1730.53
690.19	1761.25
690.38	1775.59
690.56	1798.12
690.75	1687.53
690.93	1720.29
691.12	1714.15
691.30	1742.82
691.49	1722.34
691.67	1753.06
691.86	1744.87
692.04	1705.96
692.23	1683.43
692.41	1677.29
692.60	1755.11
692.78	1734.63
692.97	1705.96
693.15	1763.30
693.34	1812.45
693.52	1796.07
693.71	1681.38
693.89	1673.19
694.08	1621.99
694.26	1771.49
694.44	1808.36
694.63	1755.11
694.81	1720.29
695.00	1697.77
695.18	1773.54
695.37	1834.98
695.55	1681.38
695.74	1720.29
695.92	1685.48
696.10	1730.53
696.29	1624.04
696.47	1734.63
696.66	1630.18
696.84	1599.46
697.03	1693.67
697.21	1828.84
697.40	2308.06
697.58	1757.16
697.76	1626.09
697.95	1683.43
698.13	1675.24
698.32	1665.00
698.50	1728.49
698.68	1730.53
698.87	1665.00
699.05	1808.36
699.24	1693.67
699.42	1665.00
699.61	1712.10
699.79	1685.48
699.97	1824.74
700.16	1644.52
700.34	1615.85
700.53	1675.24
700.71	1920.99
700.89	1830.88
701.08	1695.72
701.26	1697.77
701.45	2172.89
701.63	1597.42
701.81	1789.92
702.00	1619.94
702.18	1677.29
702.37	1636.33
702.55	1759.21
702.73	1751.01
702.92	1585.13
703.10	1726.44
703.28	1751.01
703.47	1587.18
703.65	1742.82
703.84	1849.32
704.02	1648.61
704.20	1718.25
704.39	1685.48
704.57	1755.11
704.75	1763.30
704.94	1755.11
705.12	1822.69
705.30	1796.07
705.49	2199.52
705.67	4386.75
705.86	9451.38
706.04	12558.14
706.22	14737.18
706.41	15245.08
706.59	14020.39
706.77	9602.93
706.96	7391.12
707.14	6625.18
707.32	5855.14
707.51	5683.11
707.69	4972.47
707.87	4149.18
708.06	3569.61
708.24	3002.32
708.42	2420.70
708.61	2248.67
708.79	1927.14
708.97	1849.32
709.16	1855.46
709.34	1828.84
709.52	1751.01
709.71	1697.77
709.89	1740.77
710.07	1656.81
710.26	1671.14
710.44	1710.05
710.62	1779.68
710.80	1685.48
710.99	1769.44
711.17	1767.40
711.35	1716.20
711.54	1675.24
711.72	1875.94
711.90	1787.88
712.09	1710.05
712.27	1648.61
712.45	1714.15
712.63	1687.53
712.82	1777.64
713.00	1701.86
713.18	1853.41
713.37	1656.81
713.55	1644.52
713.73	1652.71
713.91	1724.39
714.10	1757.16
714.28	1699.81
714.46	1736.68
714.65	1681.38
714.83	1718.25
715.01	1763.30
715.19	1587.18
715.38	1687.53
715.56	1714.15
715.74	1654.76
715.92	1671.14
716.11	1802.21
716.29	1697.77
716.47	1667.05
716.65	1710.05
716.84	1662.95
717.02	1755.11
717.20	1669.09
717.38	1652.71
717.57	1714.15
717.75	1632.23
717.93	1669.09
718.11	1644.52
718.30	1632.23
718.48	1677.29
718.66	1726.44
718.84	1845.22
719.03	1726.44
719.21	1601.51
719.39	1861.60
719.57	1771.49
719.75	1761.25
719.94	1697.77
720.12	1736.68
720.30	1732.58
720.48	1845.22
720.67	1681.38
720.85	1660.90
721.03	1601.51
721.21	1697.77
721.39	1755.11
721.58	1716.20
721.76	1665.00
721.94	1738.73
722.12	1779.68
722.30	1710.05
722.49	1755.11
722.67	1734.63
722.85	1712.10
723.03	1644.52
723.21	1740.77
723.40	1736.68
723.58	1757.16
723.76	1771.49
723.94	1710.05
724.12	1687.53
724.30	1832.93
724.49	1794.02
724.67	1642.47
724.85	1695.72
725.03	1634.28
725.21	1769.44
725.40	1789.92
725.58	1607.66
725.76	1757.16
725.94	1701.86
726.12	1601.51
726.30	1771.49
726.49	1724.39
726.67	1665.00
726.85	1757.16
727.03	1794.02
727.21	2125.79
727.39	2963.41
727.57	3848.13
727.76	4157.38
727.94	4472.76
728.12	4394.94
728.30	3850.18
728.48	2985.94
728.66	2648.02
728.84	2566.10
729.03	2322.40
729.21	2209.76
729.39	2037.73
729.57	1918.95
729.75	1845.22
729.93	1845.22
730.11	1789.92
730.30	1697.77
730.48	1701.86
730.66	1849.32
730.84	1732.58
731.02	1708.01
731.20	1701.86
731.38	1742.82
731.56	1712.10
731.74	1634.28
731.93	1726.44
732.11	1677.29
732.29	1734.63
732.47	1714.15
732.65	1785.83
732.83	1787.88
733.01	1763.30
733.19	1681.38
733.37	1783.78
733.56	1685.48
733.74	1652.71
733.92	1794.02
734.10	1773.54
734.28	1761.25
734.46	1660.90
734.64	1695.72
734.82	1660.90
735.00	1609.70
735.18	1705.96
735.36	1714.15
735.54	1714.15
735.73	1755.11
735.91	1681.38
736.09	1746.92
736.27	1681.38
736.45	1769.44
736.63	1652.71
736.81	1734.63
736.99	1773.54
737.17	1800.16
737.35	1722.34
737.53	1685.48
737.71	1665.00
737.89	1837.03
738.07	1763.30
738.25	1675.24
738.43	1599.46
738.61	1789.92
738.80	1656.81
738.98	1665.00
739.16	1738.73
739.34	1660.90
739.52	1796.07
739.70	1716.20
739.88	1736.68
740.06	1771.49
740.24	1574.89
740.42	1767.40
740.60	1583.08
740.78	1669.09
740.96	1683.43
741.14	1648.61
741.32	1724.39
741.50	1699.81
741.68	1867.75
741.86	1773.54
742.04	1595.37
742.22	1658.85
742.40	1642.47
742.58	1703.91
742.76	1656.81
742.94	1806.31
743.12	1656.81
743.30	1701.86
743.48	1732.58
743.66	1581.03
743.84	1738.73
744.02	1738.73
744.20	1716.20
744.38	1634.28
744.56	1652.71
744.74	1812.45
744.92	1789.92
745.10	1818.60
745.28	1796.07
745.46	1814.50
745.64	1675.24
745.82	1798.12
746.00	1751.01
746.18	1658.85
746.36	1568.74
746.54	1726.44
746.72	1667.05
746.90	1679.33
747.08	1726.44
747.26	1771.49
747.44	1775.59
747.62	1703.91
747.80	1685.48
747.98	1783.78
748.15	1673.19
748.33	1746.92
748.51	1669.09
748.69	1744.87
748.87	1679.33
749.05	1660.90
749.23	1673.19
749.41	1736.68
749.59	1705.96
749.77	1765.35
749.95	1714.15
750.13	1634.28
750.31	1675.24
750.49	1751.01
750.67	1804.26
750.85	1812.45
751.03	1759.21
751.20	1802.21
751.38	1718.25
751.56	1705.96
751.74	1669.09
751.92	1642.47
752.10	1689.57
752.28	1800.16
752.46	1744.87
752.64	1701.86
752.82	1755.11
753.00	1816.55
753.18	1615.85
753.35	1646.57
753.53	1720.29
753.71	1654.76
753.89	1714.15
754.07	1671.14
754.25	1755.11
754.43	1720.29
754.61	1638.38
754.79	1708.01
754.97	1732.58
755.14	1759.21
755.32	1634.28
755.50	1679.33
755.68	1699.81
755.86	1609.70
756.04	1701.86
756.22	1634.28
756.40	1781.73
756.57	1839.08
756.75	1732.58
756.93	1806.31
757.11	1746.92
757.29	1669.09
757.47	1677.29
757.65	1714.15
757.82	1583.08
758.00	1697.77
758.18	1701.86
758.36	1607.66
758.54	1804.26
758.72	1726.44
758.90	1812.45
759.07	1703.91
759.25	1683.43
759.43	1636.33
759.61	1699.81
759.79	2205.66
759.97	1726.44
760.15	1730.53
760.32	1652.71
760.50	1761.25
760.68	1834.98
760.86	1638.38
761.04	1718.25
761.22	1732.58
761.39	1759.21
761.57	1714.15
761.75	1640.42
761.93	1753.06
762.11	1701.86
762.28	1716.20
762.46	1689.57
762.64	1742.82
762.82	1603.56
763.00	1685.48
763.18	1746.92
763.35	1677.29
763.53	1714.15
763.71	1703.91
763.89	1607.66
764.07	1697.77
764.24	1697.77
764.42	1771.49
764.60	1689.57
764.78	1775.59
764.96	1771.49
765.13	1740.77
765.31	1724.39
765.49	1730.53
765.67	1609.70
765.84	1693.67
766.02	1712.10
766.20	1683.43
766.38	1718.25
766.56	1812.45
766.73	1728.49
766.91	1656.81
767.09	1689.57
767.27	1736.68
767.44	1648.61
767.62	1681.38
767.80	1718.25
767.98	1705.96
768.15	1654.76
768.33	1730.53
768.51	1720.29
768.69	1724.39
768.87	1712.10
769.04	1765.35
769.22	1789.92
769.40	1863.65
769.58	1826.79
769.75	1751.01
769.93	1765.35
770.11	1658.85
770.28	1656.81
770.46	1753.06
770.64	1730.53
770.82	1724.39
770.99	1652.71
771.17	1703.91
771.35	1669.09
771.53	1712.10
771.70	1705.96
771.88	1703.91
772.06	1681.38
772.23	1642.47
772.41	1777.64
772.59	1767.40
772.77	1656.81
772.94	1671.14
773.12	1667.05
773.30	1714.15
773.47	1675.24
773.65	1699.81
773.83	1783.78
774.01	1662.95
774.18	1648.61
774.36	1667.05
774.54	1628.14
774.71	1675.24
774.89	1632.23
775.07	1662.95
775.24	1746.92
775.42	1581.03
775.60	1822.69
775.78	1681.38
775.95	1660.90
776.13	1632.23
776.31	1632.23
776.48	1685.48
776.66	1834.98
776.84	1648.61
777.01	1658.85
777.19	1667.05
777.37	1665.00
777.54	1728.49
777.72	1785.83
777.90	1677.29
778.07	1642.47
778.25	1828.84
778.43	1771.49
778.60	1599.46
778.78	1669.09
778.96	1773.54
779.13	1626.09
779.31	1775.59
779.49	1665.00
779.66	1705.96
779.84	1748.97
780.01	1650.66
780.19	1671.14
780.37	1791.97
780.54	1771.49
780.72	1662.95
780.90	1746.92
781.07	1662.95
781.25	1673.19
781.43	1779.68
781.60	1714.15
781.78	1812.45
781.95	1718.25
782.13	1628.14
782.31	1787.88
782.48	1652.71
782.66	1677.29
782.83	1828.84
783.01	1802.21
783.19	1816.55
783.36	1669.09
783.54	1689.57
783.72	1734.63
783.89	1716.20
784.07	1765.35
784.24	1712.10
784.42	1880.04
784.60	1701.86
784.77	1738.73
784.95	1597.42
785.12	1724.39
785.30	1669.09
785.47	1744.87
785.65	1638.38
785.83	1701.86
786.00	1710.05
786.18	1740.77
786.35	1599.46
786.53	1599.46
786.71	1777.64
786.88	1734.63
787.06	1753.06
787.23	1658.85
787.41	1638.38
787.58	1695.72
787.76	1656.81
787.94	1732.58
788.11	1742.82
788.29	1640.42
788.46	1712.10
788.64	1624.04
788.81	1755.11
788.99	1675.24
789.16	1689.57
789.34	1691.62
789.52	1609.70
789.69	1675.24
789.87	1652.71
790.04	1683.43
790.22	1685.48
790.39	1791.97
790.57	1665.00
790.74	1689.57
790.92	1710.05
791.09	1634.28
791.27	1730.53
791.44	1812.45
791.62	1677.29
791.79	1738.73
791.97	1693.67
792.15	1914.85
792.32	1693.67
792.50	1734.63
792.67	1730.53
792.85	1814.50
793.02	1722.34
793.20	1710.05
793.37	1628.14
793.55	1669.09
793.72	1611.75
793.90	1712.10
794.07	1720.29
794.25	1648.61
794.42	1714.15
794.60	1710.05
794.77	1773.54
794.95	1757.16
795.12	1703.91
795.30	1634.28
795.47	1648.61
795.65	1796.07
795.82	1730.53
796.00	1652.71
796.17	1689.57
796.34	1724.39
796.52	1673.19
796.69	1839.08
796.87	1746.92
797.04	1738.73
797.22	1744.87
797.39	1755.11
797.57	1742.82
797.74	1730.53
797.92	1759.21
798.09	1662.95
798.27	1732.58
798.44	1781.73
798.62	1626.09
798.79	1703.91
798.96	1732.58
799.14	1716.20
799.31	1830.88
799.49	1689.57
799.66	1720.29
799.84	1720.29
800.01	1673.19
800.19	1697.77
800.36	1652.71
800.53	1658.85
800.71	1714.15
800.88	1777.64
801.06	1644.52
801.23	1621.99
801.41	1736.68
801.58	1634.28
801.75	1660.90
801.93	1730.53
802.10	1744.87
802.28	1650.66
802.45	1673.19
802.63	1685.48
802.80	1777.64
802.97	1673.19
803.15	1783.78
803.32	1712.10
803.50	1626.09
803.67	1650.66
803.84	1613.80
804.02	1732.58
804.19	1695.72
804.37	1548.26
804.54	1687.53
804.71	1732.58
804.89	1689.57
805.06	1673.19
805.24	1724.39
805.41	1665.00
805.58	1693.67
805.76	1818.60
805.93	1665.00
806.10	1742.82
806.28	1705.96
806.45	1740.77
806.63	1736.68
806.80	1779.68
806.97	1730.53
807.15	1724.39
807.32	1681.38
807.49	1740.77
807.67	1642.47
807.84	1712.10
808.01	1605.61
808.19	1863.65
808.36	1791.97
808.54	1640.42
808.71	1632.23
808.88	1808.36
809.06	1671.14
809.23	1880.04
809.40	1695.72
809.58	1828.84
809.75	1732.58
809.92	1632.23
810.10	1796.07
810.27	1742.82
810.44	1771.49
810.62	1722.34
810.79	1804.26
810.96	1781.73
811.14	1703.91
811.31	1740.77
811.48	1765.35
811.66	1648.61
811.83	1755.11
812.00	1787.88
812.18	1714.15
812.35	1863.65
812.52	1689.57
812.69	1753.06
812.87	1726.44
813.04	1615.85
813.21	1742.82
813.39	1681.38
813.56	1687.53
813.73	1796.07
813.91	1599.46
814.08	1724.39
814.25	1712.10
814.42	1722.34
814.60	1658.85
814.77	1705.96
814.94	1677.29
815.12	1736.68
815.29	1761.25
815.46	1624.04
815.63	1716.20
815.81	1755.11
815.98	1710.05
816.15	1683.43
816.33	1738.73
816.50	1660.90
816.67	1697.77
816.84	1701.86
817.02	1640.42
817.19	1677.29
817.36	1697.77
817.53	1718.25
817.71	1593.32
817.88	1787.88
818.05	1738.73
818.22	1658.85
818.40	1789.92
818.57	1648.61
818.74	1699.81
818.91	1705.96
819.09	1759.21
819.26	1734.63
819.43	1693.67
819.60	1730.53
819.78	1761.25
819.95	1730.53
820.12	1665.00
820.29	1861.60
820.47	1755.11
820.64	1648.61
820.81	1615.85
820.98	1648.61
821.15	1671.14
821.33	1695.72
821.50	1640.42
821.67	1816.55
821.84	1654.76
822.02	1748.97
822.19	1742.82
822.36	1714.15
822.53	1751.01
822.70	1695.72
822.88	1673.19
823.05	1724.39
823.22	1689.57
823.39	1787.88
823.56	1714.15
823.74	1791.97
823.91	1642.47
824.08	1726.44
824.25	1646.57
824.42	1734.63
824.60	1642.47
824.77	1736.68
824.94	1712.10
825.11	1685.48
825.28	1601.51
825.45	1742.82
825.63	1697.77
825.80	1615.85
825.97	1720.29
826.14	1720.29
826.31	1570.79
826.48	1820.64
826.66	1689.57
826.83	1714.15
827.00	1697.77
827.17	1751.01
827.34	1724.39
827.51	1634.28
827.69	1759.21
827.86	1630.18
828.03	1669.09
828.20	1724.39
828.37	1613.80
828.54	1712.10
828.71	1611.75
828.89	1763.30
829.06	1683.43
829.23	1771.49
829.40	1566.70
829.57	1710.05
829.74	1726.44
829.91	1626.09
830.09	1689.57
830.26	1689.57
830.43	1724.39
830.60	1765.35
830.77	1708.01
830.94	1748.97
831.11	1730.53
831.28	1736.68
831.46	1787.88
831.63	1667.05
831.80	1726.44
831.97	1640.42
832.14	1619.94
832.31	1705.96
832.48	1599.46
832.65	1779.68
832.82	1720.29
832.99	1742.82
833.17	1644.52
833.34	1738.73
833.51	1679.33
833.68	1671.14
833.85	1757.16
834.02	1619.94
834.19	1677.29
834.36	1656.81
834.53	1689.57
834.70	1787.88
834.87	1759.21
835.04	1814.50
835.22	1679.33
835.39	1679.33
835.56	1724.39
835.73	1630.18
835.90	1767.40
836.07	1732.58
836.24	1718.25
836.41	1728.49
836.58	1671.14
836.75	1812.45
836.92	1705.96
837.09	1636.33
837.26	1767.40
837.43	1746.92
837.60	1714.15
837.77	1748.97
837.94	1716.20
838.12	1787.88
838.29	1765.35
838.46	1656.81
838.63	1677.29
838.80	1822.69
838.97	1740.77
839.14	1714.15
839.31	1640.42
839.48	1646.57
839.65	1673.19
839.82	1742.82
839.99	1730.53
840.16	1691.62
840.33	1648.61
840.50	1671.14
840.67	1632.23
840.84	1531.88
841.01	1708.01
841.18	1689.57
841.35	1675.24
841.52	1630.18
841.69	1773.54
841.86	1720.29
842.03	1753.06
842.20	1712.10
842.37	1738.73
842.54	1665.00
842.71	1607.66
842.88	1708.01
843.05	1742.82
843.22	1640.42
843.39	1775.59
843.56	1740.77
843.73	1701.86
843.90	1724.39
844.07	1681.38
844.24	1673.19
844.41	1726.44
844.58	1730.53
844.75	1667.05
844.92	1761.25
845.09	1718.25
845.26	1667.05
845.43	1734.63
845.60	1677.29
845.77	1767.40
845.94	1708.01
846.10	1681.38
846.27	1617.90
846.44	1597.42
846.61	1689.57
846.78	1746.92
846.95	1789.92
847.12	1716.20
847.29	1718.25
847.46	1703.91
847.63	1746.92
847.80	1693.67
847.97	1675.24
848.14	1865.70
848.31	1681.38
848.48	1644.52
848.65	1724.39
848.82	1665.00
848.98	1832.93
849.15	1703.91
849.32	1744.87
849.49	1769.44
849.66	1677.29
849.83	1681.38
850.00	1687.53
850.17	1744.87
850.34	1685.48
850.51	1689.57
850.68	1691.62
850.85	1830.88
851.01	1691.62
851.18	1679.33
851.35	1681.38
851.52	1744.87
851.69	1781.73
851.86	1544.17
852.03	1777.64
852.20	1703.91
852.37	1658.85
852.53	1656.81
852.70	1746.92
852.87	1691.62
853.04	1693.67
853.21	1800.16
853.38	1763.30
853.55	1787.88
853.72	1826.79
853.89	1648.61
854.05	1705.96
854.22	1771.49
854.39	1662.95
854.56	1660.90
854.73	1791.97
854.90	1697.77
855.07	1665.00
855.23	1710.05
855.40	1656.81
855.57	1617.90
855.74	1595.37
855.91	1920.99
856.08	1615.85
856.25	1581.03
856.41	1669.09
856.58	1712.10
856.75	1693.67
856.92	1605.61
857.09	1771.49
857.26	1601.51
857.42	1677.29
857.59	1712.10
857.76	1695.72
857.93	1607.66
858.10	1703.91
858.27	1691.62
858.43	1722.34
858.60	1681.38
858.77	1628.14
858.94	1728.49
859.11	1808.36
859.27	1593.32
859.44	1783.78
859.61	1847.27
859.78	1726.44
859.95	1701.86
860.12	1669.09
860.28	1834.98
860.45	1796.07
860.62	1691.62
860.79	1732.58
860.95	1728.49
861.12	1677.29
861.29	1687.53
861.46	1658.85
861.63	1710.05
861.79	1671.14
861.96	1652.71
862.13	1615.85
862.30	1789.92
862.47	1671.14
862.63	1708.01
862.80	1779.68
862.97	1736.68
863.14	1751.01
863.30	1755.11
863.47	1726.44
863.64	1785.83
863.81	1755.11
863.97	1697.77
864.14	1714.15
864.31	1662.95
864.48	1722.34
864.65	1697.77
864.81	1763.30
864.98	1746.92
865.15	1693.67
865.32	1830.88
865.48	1777.64
865.65	1802.21
865.82	1703.91
865.98	1644.52
866.15	1738.73
866.32	1712.10
866.49	1718.25
866.65	1832.93
866.82	1679.33
866.99	1744.87
867.16	1710.05
867.32	1667.05
867.49	1716.20
867.66	1662.95
867.83	1677.29
867.99	1656.81
868.16	1773.54
868.33	1638.38
868.49	1660.90
868.66	1693.67
868.83	1738.73
868.99	1755.11
869.16	1640.42
869.33	1806.31
869.50	1828.84
869.66	1708.01
869.83	1689.57
870.00	1621.99
870.16	1777.64
870.33	1742.82
870.50	1775.59
870.66	1742.82
870.83	1849.32
871.00	1714.15
871.17	1708.01
871.33	1734.63
871.50	1652.71
871.67	1679.33
871.83	1681.38
872.00	1779.68
872.17	1738.73
872.33	1800.16
872.50	1779.68
872.67	1628.14
872.83	1669.09
873.00	1671.14
873.17	1691.62
873.33	1710.05
873.50	1722.34
873.67	1607.66
873.83	1740.77
874.00	1712.10
874.16	1708.01
874.33	1681.38
874.50	1634.28
874.66	1783.78
874.83	1730.53
875.00	1759.21
875.16	1777.64
875.33	1761.25
875.50	1630.18
875.66	1693.67
875.83	1701.86
875.99	1753.06
876.16	1716.20
876.33	1621.99
876.49	1714.15
876.66	1841.12
876.83	1667.05
876.99	1628.14
877.16	1716.20
877.32	1679.33
877.49	1628.14
877.66	1716.20
877.82	1800.16
877.99	1677.29
878.15	1656.81
878.32	1720.29
878.49	1734.63
878.65	1763.30
878.82	1771.49
878.98	1689.57
879.15	1755.11
879.32	1773.54
879.48	1773.54
879.65	1650.66
879.81	1642.47
879.98	1665.00
880.15	1636.33
880.31	1755.11
880.48	1701.86
880.64	1759.21
880.81	1722.34
880.97	1759.21
881.14	1757.16
881.31	1613.80
881.47	1857.51
881.64	1669.09
881.80	1652.71
881.97	1783.78
882.13	1755.11
882.30	1578.98
882.47	1642.47
882.63	1673.19
882.80	1687.53
882.96	1603.56
883.13	1783.78
883.29	1667.05
883.46	1791.97
883.62	1828.84
883.79	1673.19
883.95	1748.97
884.12	1679.33
884.29	1701.86
884.45	1720.29
884.62	1732.58
884.78	1609.70
884.95	1724.39
885.11	1703.91
885.28	1800.16
885.44	1691.62
885.61	1705.96
885.77	1777.64
885.94	1726.44
886.10	1689.57
886.27	1708.01
886.43	1800.16
886.60	1794.02
886.76	1621.99
886.93	1640.42
887.09	1699.81
887.26	1607.66
887.42	1662.95
887.59	1787.88
887.75	1787.88
887.92	1744.87
888.08	1824.74
888.25	1800.16
888.41	1765.35
888.58	1697.77
888.74	1648.61
888.91	1718.25
>>>>>End Processed Spectral Data<<<<<
