SpectraSuite Data File
++++++++++++++++++++++++++++++++++++
Date: Mon Jun 06 15:53:57 CEST 2016
User: root
Dark Spectrum Present: No
Reference Spectrum Present: No
Number of Sampled Component Spectra: 1
Spectrometers: USB4C02835
Integration Time (usec): 100000 (USB4C02835)
Spectra Averaged: 1 (USB4C02835)
Boxcar Smoothing: 0 (USB4C02835)
Correct for Electrical Dark: No (USB4C02835)
Strobe/Lamp Enabled: No (USB4C02835)
Correct for Detector Non-linearity: No (USB4C02835)
Correct for Stray Light: No (USB4C02835)
Number of Pixels in Processed Spectrum: 3648
>>>>>Begin Processed Spectral Data<<<<<
177.47	1468.39
177.69	1468.39
177.91	1468.39
178.13	1437.67
178.36	1445.87
178.58	1656.81
178.80	1734.63
179.02	1630.18
179.24	1697.77
179.46	1708.01
179.68	1755.11
179.90	1691.62
180.13	1689.57
180.35	1654.76
180.57	1673.19
180.79	1748.97
181.01	1699.81
181.23	1744.87
181.45	1800.16
181.67	1806.31
181.90	1777.64
182.12	1652.71
182.34	1640.42
182.56	1744.87
182.78	1810.40
183.00	1656.81
183.22	1730.53
183.44	1570.79
183.66	1867.75
183.89	1773.54
184.11	1742.82
184.33	1742.82
184.55	1765.35
184.77	1763.30
184.99	1718.25
185.21	1654.76
185.43	1787.88
185.65	1740.77
185.87	1689.57
186.10	1853.41
186.32	1824.74
186.54	1789.92
186.76	1785.83
186.98	1791.97
187.20	1697.77
187.42	1699.81
187.64	1701.86
187.86	1710.05
188.08	1791.97
188.30	1699.81
188.52	1681.38
188.75	1687.53
188.97	1771.49
189.19	1722.34
189.41	1753.06
189.63	1773.54
189.85	1675.24
190.07	1638.38
190.29	1583.08
190.51	1798.12
190.73	1587.18
190.95	1748.97
191.17	1753.06
191.39	1644.52
191.61	1630.18
191.84	1705.96
192.06	1800.16
192.28	1730.53
192.50	1816.55
192.72	1742.82
192.94	1662.95
193.16	1781.73
193.38	1705.96
193.60	1656.81
193.82	1701.86
194.04	1767.40
194.26	1720.29
194.48	1781.73
194.70	1685.48
194.92	1710.05
195.14	1847.27
195.36	1652.71
195.58	1693.67
195.80	1701.86
196.02	1744.87
196.24	1714.15
196.46	1722.34
196.69	1695.72
196.91	1812.45
197.13	1640.42
197.35	1675.24
197.57	1785.83
197.79	1769.44
198.01	1775.59
198.23	1746.92
198.45	1726.44
198.67	1599.46
198.89	1734.63
199.11	1748.97
199.33	1697.77
199.55	1642.47
199.77	1798.12
199.99	1703.91
200.21	1671.14
200.43	1755.11
200.65	1621.99
200.87	1587.18
201.09	1734.63
201.31	1646.57
201.53	1710.05
201.75	1771.49
201.97	1767.40
202.19	1712.10
202.41	1751.01
202.63	1822.69
202.85	1740.77
203.07	1755.11
203.29	1603.56
203.51	1689.57
203.73	1724.39
203.95	1841.12
204.17	1742.82
204.39	1712.10
204.61	1638.38
204.83	1648.61
205.05	1783.78
205.27	1746.92
205.49	1834.98
205.71	1671.14
205.93	1644.52
206.15	1656.81
206.37	1722.34
206.59	1703.91
206.81	1656.81
207.03	1693.67
207.25	1708.01
207.47	1748.97
207.69	1740.77
207.91	1722.34
208.13	1759.21
208.34	1710.05
208.56	1652.71
208.78	1708.01
209.00	1665.00
209.22	1738.73
209.44	1703.91
209.66	1658.85
209.88	1693.67
210.10	1662.95
210.32	1671.14
210.54	1796.07
210.76	1662.95
210.98	1773.54
211.20	1556.46
211.42	1767.40
211.64	1789.92
211.86	1767.40
212.08	1779.68
212.30	1701.86
212.52	1740.77
212.74	1708.01
212.96	1818.60
213.17	1798.12
213.39	1775.59
213.61	1798.12
213.83	1767.40
214.05	1611.75
214.27	1828.84
214.49	1652.71
214.71	1695.72
214.93	1841.12
215.15	1763.30
215.37	1742.82
215.59	1615.85
215.81	1705.96
216.03	1767.40
216.24	1732.58
216.46	1716.20
216.68	1705.96
216.90	1730.53
217.12	1863.65
217.34	1712.10
217.56	1685.48
217.78	1789.92
218.00	1789.92
218.22	1757.16
218.44	1757.16
218.66	1708.01
218.87	1804.26
219.09	1646.57
219.31	1697.77
219.53	1710.05
219.75	1695.72
219.97	1718.25
220.19	1687.53
220.41	1691.62
220.63	1705.96
220.85	1769.44
221.06	1671.14
221.28	1771.49
221.50	1783.78
221.72	1748.97
221.94	1662.95
222.16	1695.72
222.38	1751.01
222.60	1751.01
222.82	1712.10
223.03	1773.54
223.25	1634.28
223.47	1744.87
223.69	1820.64
223.91	1742.82
224.13	1642.47
224.35	1710.05
224.57	1769.44
224.78	1746.92
225.00	1701.86
225.22	1722.34
225.44	1712.10
225.66	1800.16
225.88	1669.09
226.10	1759.21
226.32	1730.53
226.53	1763.30
226.75	1701.86
226.97	1683.43
227.19	1689.57
227.41	1662.95
227.63	1669.09
227.85	1683.43
228.06	1755.11
228.28	1748.97
228.50	1705.96
228.72	1665.00
228.94	1744.87
229.16	1644.52
229.37	1624.04
229.59	1738.73
229.81	1845.22
230.03	1673.19
230.25	1681.38
230.47	1673.19
230.69	1636.33
230.90	1722.34
231.12	1742.82
231.34	1665.00
231.56	1759.21
231.78	1689.57
232.00	1757.16
232.21	1679.33
232.43	1757.16
232.65	1652.71
232.87	1703.91
233.09	1703.91
233.30	1712.10
233.52	1814.50
233.74	1712.10
233.96	1689.57
234.18	1640.42
234.40	1624.04
234.61	1773.54
234.83	1593.32
235.05	1673.19
235.27	1886.18
235.49	1806.31
235.70	1720.29
235.92	1810.40
236.14	1714.15
236.36	1855.46
236.58	1640.42
236.79	1738.73
237.01	1718.25
237.23	1730.53
237.45	1769.44
237.67	1675.24
237.88	1722.34
238.10	1789.92
238.32	1701.86
238.54	1660.90
238.76	1703.91
238.97	1646.57
239.19	1587.18
239.41	1763.30
239.63	1789.92
239.85	1648.61
240.06	1730.53
240.28	1714.15
240.50	1726.44
240.72	1748.97
240.93	1720.29
241.15	1789.92
241.37	1708.01
241.59	1832.93
241.81	1755.11
242.02	1701.86
242.24	1726.44
242.46	1767.40
242.68	1734.63
242.89	1689.57
243.11	1722.34
243.33	1712.10
243.55	1667.05
243.76	1687.53
243.98	1675.24
244.20	1695.72
244.42	1650.66
244.64	1683.43
244.85	1599.46
245.07	1650.66
245.29	1787.88
245.51	1724.39
245.72	1763.30
245.94	1828.84
246.16	1736.68
246.38	1771.49
246.59	1685.48
246.81	1691.62
247.03	1656.81
247.24	1640.42
247.46	1617.90
247.68	1689.57
247.90	1689.57
248.11	1703.91
248.33	1703.91
248.55	1718.25
248.77	1773.54
248.98	1767.40
249.20	1763.30
249.42	1736.68
249.64	1699.81
249.85	1722.34
250.07	1671.14
250.29	1712.10
250.50	1767.40
250.72	1591.27
250.94	1753.06
251.16	1828.84
251.37	1841.12
251.59	1769.44
251.81	1718.25
252.02	1804.26
252.24	1681.38
252.46	1853.41
252.68	1677.29
252.89	1652.71
253.11	1562.60
253.33	1773.54
253.54	1632.23
253.76	1665.00
253.98	1656.81
254.20	1675.24
254.41	1720.29
254.63	1689.57
254.85	1656.81
255.06	1705.96
255.28	1794.02
255.50	1703.91
255.71	1665.00
255.93	1626.09
256.15	1763.30
256.36	1789.92
256.58	1662.95
256.80	1705.96
257.02	1671.14
257.23	1654.76
257.45	1695.72
257.67	1710.05
257.88	1673.19
258.10	1814.50
258.32	1632.23
258.53	1693.67
258.75	1722.34
258.97	1642.47
259.18	1722.34
259.40	1724.39
259.62	1753.06
259.83	1787.88
260.05	1755.11
260.27	1984.48
260.48	1748.97
260.70	1617.90
260.92	1736.68
261.13	1708.01
261.35	1679.33
261.57	1718.25
261.78	1615.85
262.00	1652.71
262.22	1675.24
262.43	1697.77
262.65	1691.62
262.86	1785.83
263.08	1824.74
263.30	1738.73
263.51	1652.71
263.73	1650.66
263.95	1779.68
264.16	1669.09
264.38	1681.38
264.60	1740.77
264.81	1669.09
265.03	1732.58
265.25	1785.83
265.46	1738.73
265.68	1746.92
265.89	1783.78
266.11	1646.57
266.33	1718.25
266.54	1722.34
266.76	1748.97
266.98	1767.40
267.19	1757.16
267.41	1834.98
267.62	1746.92
267.84	1646.57
268.06	1783.78
268.27	1765.35
268.49	1820.64
268.70	1748.97
268.92	1658.85
269.14	1617.90
269.35	1648.61
269.57	1781.73
269.79	1683.43
270.00	1660.90
270.22	1794.02
270.43	1652.71
270.65	1611.75
270.87	1722.34
271.08	1751.01
271.30	1759.21
271.51	1695.72
271.73	1734.63
271.95	1779.68
272.16	1726.44
272.38	1701.86
272.59	1689.57
272.81	1714.15
273.02	1775.59
273.24	1763.30
273.46	1673.19
273.67	1636.33
273.89	1679.33
274.10	1730.53
274.32	1734.63
274.54	1677.29
274.75	1728.49
274.97	1693.67
275.18	1681.38
275.40	1697.77
275.61	1681.38
275.83	1771.49
276.05	1708.01
276.26	1714.15
276.48	1748.97
276.69	1728.49
276.91	1687.53
277.12	1755.11
277.34	1722.34
277.55	1759.21
277.77	1716.20
277.99	1605.61
278.20	1689.57
278.42	1751.01
278.63	1632.23
278.85	1621.99
279.06	1619.94
279.28	1755.11
279.49	1800.16
279.71	1736.68
279.93	1705.96
280.14	1687.53
280.36	1697.77
280.57	1779.68
280.79	1726.44
281.00	1708.01
281.22	1705.96
281.43	1826.79
281.65	1523.69
281.86	1615.85
282.08	1681.38
282.29	1798.12
282.51	1699.81
282.73	1544.17
282.94	1560.55
283.16	1724.39
283.37	1824.74
283.59	1759.21
283.80	1744.87
284.02	1738.73
284.23	1804.26
284.45	1722.34
284.66	1734.63
284.88	1683.43
285.09	1714.15
285.31	1736.68
285.52	1683.43
285.74	1603.56
285.95	1779.68
286.17	1746.92
286.38	1701.86
286.60	1708.01
286.81	1665.00
287.03	1669.09
287.24	1763.30
287.46	1734.63
287.67	1753.06
287.89	1847.27
288.10	1677.29
288.32	1669.09
288.53	1753.06
288.75	1751.01
288.96	1787.88
289.18	1730.53
289.39	1716.20
289.61	1822.69
289.82	1857.51
290.04	1718.25
290.25	1724.39
290.47	1708.01
290.68	1738.73
290.90	1767.40
291.11	1710.05
291.33	1769.44
291.54	1589.22
291.76	1646.57
291.97	1705.96
292.18	1775.59
292.40	1624.04
292.61	1648.61
292.83	1773.54
293.04	1740.77
293.26	1740.77
293.47	1669.09
293.69	1691.62
293.90	1646.57
294.12	1732.58
294.33	1777.64
294.55	1693.67
294.76	1779.68
294.97	1771.49
295.19	1816.55
295.40	1755.11
295.62	1724.39
295.83	1769.44
296.05	1683.43
296.26	1785.83
296.48	1599.46
296.69	1710.05
296.90	1740.77
297.12	1708.01
297.33	1757.16
297.55	1771.49
297.76	1759.21
297.98	1867.75
298.19	1714.15
298.41	1683.43
298.62	1624.04
298.83	1843.17
299.05	1742.82
299.26	1679.33
299.48	1761.25
299.69	1767.40
299.90	1800.16
300.12	1703.91
300.33	1738.73
300.55	1628.14
300.76	1724.39
300.98	1679.33
301.19	1673.19
301.40	1638.38
301.62	1652.71
301.83	1728.49
302.05	1714.15
302.26	1718.25
302.47	1705.96
302.69	1671.14
302.90	1755.11
303.12	1585.13
303.33	1718.25
303.54	1791.97
303.76	1773.54
303.97	1722.34
304.19	1746.92
304.40	1642.47
304.61	1785.83
304.83	1720.29
305.04	1726.44
305.26	1695.72
305.47	1705.96
305.68	1681.38
305.90	1609.70
306.11	1781.73
306.33	1746.92
306.54	1681.38
306.75	1607.66
306.97	1621.99
307.18	1683.43
307.39	1650.66
307.61	1720.29
307.82	1665.00
308.04	1751.01
308.25	1683.43
308.46	1730.53
308.68	1759.21
308.89	1753.06
309.10	1794.02
309.32	1820.64
309.53	1742.82
309.74	1755.11
309.96	1626.09
310.17	1763.30
310.39	1695.72
310.60	1738.73
310.81	1746.92
311.03	1701.86
311.24	1732.58
311.45	1720.29
311.67	1853.41
311.88	1738.73
312.09	1691.62
312.31	1611.75
312.52	1787.88
312.73	1691.62
312.95	1634.28
313.16	1720.29
313.37	1802.21
313.59	1759.21
313.80	1757.16
314.01	1802.21
314.23	1689.57
314.44	1734.63
314.65	1656.81
314.87	1687.53
315.08	1679.33
315.29	1652.71
315.51	1652.71
315.72	1665.00
315.93	1853.41
316.15	1665.00
316.36	1656.81
316.57	1746.92
316.79	1705.96
317.00	1738.73
317.21	1636.33
317.43	1673.19
317.64	1722.34
317.85	1632.23
318.07	1595.37
318.28	1771.49
318.49	1861.60
318.70	2033.63
318.92	1859.56
319.13	1867.75
319.34	1781.73
319.56	1724.39
319.77	1773.54
319.98	1841.12
320.20	1771.49
320.41	1763.30
320.62	1681.38
320.83	1656.81
321.05	1839.08
321.26	1673.19
321.47	1738.73
321.69	1804.26
321.90	1683.43
322.11	1693.67
322.32	1740.77
322.54	1751.01
322.75	1689.57
322.96	1847.27
323.18	1665.00
323.39	1492.97
323.60	1615.85
323.81	1759.21
324.03	1624.04
324.24	1705.96
324.45	1675.24
324.66	1763.30
324.88	1751.01
325.09	1810.40
325.30	1781.73
325.52	1757.16
325.73	1732.58
325.94	1591.27
326.15	1662.95
326.37	1636.33
326.58	1724.39
326.79	1824.74
327.00	1732.58
327.22	1732.58
327.43	1650.66
327.64	1609.70
327.85	1699.81
328.07	1701.86
328.28	1748.97
328.49	1677.29
328.70	1736.68
328.92	1732.58
329.13	1679.33
329.34	1785.83
329.55	1791.97
329.76	1757.16
329.98	1738.73
330.19	1828.84
330.40	1730.53
330.61	1701.86
330.83	1746.92
331.04	1599.46
331.25	1718.25
331.46	1724.39
331.68	1603.56
331.89	1767.40
332.10	1673.19
332.31	1607.66
332.52	1667.05
332.74	1759.21
332.95	1636.33
333.16	1693.67
333.37	1796.07
333.58	1605.61
333.80	1734.63
334.01	1673.19
334.22	1753.06
334.43	1597.42
334.64	1667.05
334.86	1699.81
335.07	1705.96
335.28	1722.34
335.49	1611.75
335.70	1742.82
335.92	1742.82
336.13	1843.17
336.34	1734.63
336.55	1724.39
336.76	1656.81
336.98	1632.23
337.19	1744.87
337.40	1849.32
337.61	1839.08
337.82	1632.23
338.04	1751.01
338.25	1665.00
338.46	1763.30
338.67	1683.43
338.88	1656.81
339.09	1626.09
339.31	1732.58
339.52	1675.24
339.73	1630.18
339.94	1615.85
340.15	1769.44
340.36	1681.38
340.58	1693.67
340.79	1671.14
341.00	1669.09
341.21	1599.46
341.42	1849.32
341.63	1738.73
341.85	1822.69
342.06	1665.00
342.27	1646.57
342.48	1773.54
342.69	1617.90
342.90	1732.58
343.12	1742.82
343.33	1712.10
343.54	1701.86
343.75	1783.78
343.96	1591.27
344.17	1697.77
344.38	1755.11
344.60	1669.09
344.81	1648.61
345.02	1675.24
345.23	1798.12
345.44	1824.74
345.65	1753.06
345.86	1718.25
346.07	1648.61
346.29	1660.90
346.50	1718.25
346.71	1804.26
346.92	1773.54
347.13	1828.84
347.34	1677.29
347.55	1642.47
347.76	1769.44
347.98	1611.75
348.19	1787.88
348.40	1808.36
348.61	1718.25
348.82	1847.27
349.03	1738.73
349.24	1654.76
349.45	1742.82
349.66	1591.27
349.88	1718.25
350.09	1759.21
350.30	1771.49
350.51	1853.41
350.72	1748.97
350.93	1660.90
351.14	1681.38
351.35	1753.06
351.56	1705.96
351.77	1720.29
351.99	1738.73
352.20	1824.74
352.41	1738.73
352.62	1636.33
352.83	1685.48
353.04	1681.38
353.25	1693.67
353.46	1767.40
353.67	1710.05
353.88	1599.46
354.09	1785.83
354.30	1650.66
354.52	1744.87
354.73	1677.29
354.94	1712.10
355.15	1767.40
355.36	1744.87
355.57	1689.57
355.78	1722.34
355.99	1626.09
356.20	1687.53
356.41	1685.48
356.62	1697.77
356.83	1744.87
357.04	1759.21
357.25	1675.24
357.46	1665.00
357.68	1652.71
357.89	1646.57
358.10	1652.71
358.31	1662.95
358.52	1757.16
358.73	1581.03
358.94	1699.81
359.15	1708.01
359.36	1740.77
359.57	1652.71
359.78	1679.33
359.99	1783.78
360.20	1718.25
360.41	1589.22
360.62	1763.30
360.83	1767.40
361.04	1738.73
361.25	1708.01
361.46	1804.26
361.67	1728.49
361.88	1691.62
362.09	1841.12
362.30	1787.88
362.51	1630.18
362.72	1695.72
362.93	1751.01
363.14	1640.42
363.35	1701.86
363.56	1665.00
363.78	1744.87
363.99	1695.72
364.20	1710.05
364.41	1781.73
364.62	1875.94
364.83	1763.30
365.04	1734.63
365.25	1693.67
365.46	1847.27
365.67	1626.09
365.88	1652.71
366.09	1662.95
366.30	1673.19
366.51	1771.49
366.72	1570.79
366.93	1716.20
367.14	1734.63
367.35	1785.83
367.56	1683.43
367.77	1837.03
367.98	1673.19
368.18	1746.92
368.39	1720.29
368.60	1630.18
368.81	1753.06
369.02	1679.33
369.23	1662.95
369.44	1665.00
369.65	1730.53
369.86	1765.35
370.07	1683.43
370.28	1634.28
370.49	1779.68
370.70	1687.53
370.91	1673.19
371.12	1619.94
371.33	1820.64
371.54	1681.38
371.75	1826.79
371.96	1597.42
372.17	1753.06
372.38	1660.90
372.59	1726.44
372.80	1738.73
373.01	1669.09
373.22	1796.07
373.43	1777.64
373.64	1636.33
373.85	1816.55
374.06	1796.07
374.26	1748.97
374.47	1665.00
374.68	1802.21
374.89	1632.23
375.10	1646.57
375.31	1714.15
375.52	1753.06
375.73	1746.92
375.94	1662.95
376.15	1812.45
376.36	1669.09
376.57	1609.70
376.78	1667.05
376.99	1685.48
377.20	1839.08
377.40	1746.92
377.61	1865.70
377.82	1626.09
378.03	1769.44
378.24	1732.58
378.45	1671.14
378.66	1705.96
378.87	1658.85
379.08	1648.61
379.29	1724.39
379.50	1851.36
379.71	1746.92
379.91	1767.40
380.12	1720.29
380.33	1699.81
380.54	1730.53
380.75	1703.91
380.96	1724.39
381.17	1808.36
381.38	1714.15
381.59	1824.74
381.80	1724.39
382.00	1843.17
382.21	1769.44
382.42	1783.78
382.63	1859.56
382.84	1824.74
383.05	1697.77
383.26	1804.26
383.47	1816.55
383.68	1746.92
383.88	1802.21
384.09	1812.45
384.30	1837.03
384.51	1669.09
384.72	1683.43
384.93	1619.94
385.14	1677.29
385.35	1718.25
385.55	1607.66
385.76	1777.64
385.97	1714.15
386.18	1648.61
386.39	1669.09
386.60	1730.53
386.81	1753.06
387.02	1695.72
387.22	1658.85
387.43	1888.23
387.64	1808.36
387.85	1814.50
388.06	2234.33
388.27	4278.21
388.48	6672.28
388.68	8146.82
388.89	9529.20
389.10	9725.80
389.31	8576.89
389.52	7485.33
389.73	6805.40
389.93	6250.40
390.14	5883.81
390.35	5214.13
390.56	4575.16
390.77	3801.03
390.98	2930.64
391.18	2559.96
391.39	2095.07
391.60	1863.65
391.81	1873.89
392.02	1736.68
392.23	1814.50
392.43	1732.58
392.64	1828.84
392.85	1732.58
393.06	1771.49
393.27	1714.15
393.47	1728.49
393.68	1714.15
393.89	1656.81
394.10	1830.88
394.31	1730.53
394.52	1691.62
394.72	1681.38
394.93	1791.97
395.14	1714.15
395.35	1689.57
395.56	1722.34
395.76	1705.96
395.97	1740.77
396.18	1808.36
396.39	1837.03
396.60	1945.57
396.80	1898.47
397.01	1847.27
397.22	1814.50
397.43	1910.75
397.64	1710.05
397.84	1744.87
398.05	1875.94
398.26	1816.55
398.47	1736.68
398.67	1775.59
398.88	1775.59
399.09	1748.97
399.30	1767.40
399.51	1753.06
399.71	1669.09
399.92	1732.58
400.13	1734.63
400.34	1648.61
400.54	1708.01
400.75	1751.01
400.96	1697.77
401.17	1814.50
401.37	1738.73
401.58	1800.16
401.79	1769.44
402.00	1853.41
402.21	2009.06
402.41	1898.47
402.62	2019.30
402.83	2000.87
403.04	1896.42
403.24	2064.35
403.45	1855.46
403.66	1853.41
403.87	1880.04
404.07	1820.64
404.28	1943.52
404.49	1873.89
404.70	1828.84
404.90	1759.21
405.11	1812.45
405.32	1769.44
405.52	1728.49
405.73	1648.61
405.94	1671.14
406.15	1710.05
406.35	1832.93
406.56	1759.21
406.77	1736.68
406.98	1710.05
407.18	1761.25
407.39	1738.73
407.60	1689.57
407.80	1748.97
408.01	1630.18
408.22	1693.67
408.43	1705.96
408.63	1703.91
408.84	1679.33
409.05	1753.06
409.25	1644.52
409.46	1660.90
409.67	1732.58
409.88	1671.14
410.08	1728.49
410.29	1738.73
410.50	1775.59
410.70	1701.86
410.91	1665.00
411.12	1673.19
411.32	1791.97
411.53	1687.53
411.74	1802.21
411.95	1726.44
412.15	1757.16
412.36	1759.21
412.57	1701.86
412.77	1773.54
412.98	1814.50
413.19	1714.15
413.39	1779.68
413.60	1816.55
413.81	1779.68
414.01	1722.34
414.22	1791.97
414.43	1763.30
414.63	1695.72
414.84	1705.96
415.05	1738.73
415.25	1615.85
415.46	1789.92
415.67	1644.52
415.87	1710.05
416.08	1773.54
416.29	1724.39
416.49	1699.81
416.70	1705.96
416.91	1738.73
417.11	1730.53
417.32	1748.97
417.53	1757.16
417.73	1796.07
417.94	1722.34
418.15	1753.06
418.35	1746.92
418.56	1753.06
418.77	1789.92
418.97	1718.25
419.18	1724.39
419.38	1609.70
419.59	1691.62
419.80	1804.26
420.00	1642.47
420.21	1675.24
420.42	1787.88
420.62	1734.63
420.83	1714.15
421.04	1675.24
421.24	1673.19
421.45	1673.19
421.65	1773.54
421.86	1728.49
422.07	1732.58
422.27	1701.86
422.48	1742.82
422.69	1677.29
422.89	1763.30
423.10	1658.85
423.30	1673.19
423.51	1773.54
423.72	1722.34
423.92	1703.91
424.13	1603.56
424.33	1644.52
424.54	1873.89
424.75	1736.68
424.95	1800.16
425.16	1689.57
425.36	1671.14
425.57	1742.82
425.78	1710.05
425.98	1755.11
426.19	1726.44
426.39	1658.85
426.60	1751.01
426.81	1798.12
427.01	1775.59
427.22	1714.15
427.42	1621.99
427.63	1665.00
427.83	1810.40
428.04	1808.36
428.25	1804.26
428.45	1820.64
428.66	1714.15
428.86	1658.85
429.07	1718.25
429.28	1738.73
429.48	1705.96
429.69	1669.09
429.89	1738.73
430.10	1656.81
430.30	1761.25
430.51	1732.58
430.71	1652.71
430.92	1738.73
431.13	1716.20
431.33	1746.92
431.54	1681.38
431.74	1810.40
431.95	1910.75
432.15	1638.38
432.36	1726.44
432.56	1759.21
432.77	1808.36
432.98	1818.60
433.18	1722.34
433.39	1701.86
433.59	1748.97
433.80	1816.55
434.00	1802.21
434.21	1720.29
434.41	1718.25
434.62	1859.56
434.82	1669.09
435.03	1632.23
435.23	1769.44
435.44	1613.80
435.64	1742.82
435.85	1708.01
436.06	1837.03
436.26	1791.97
436.47	1632.23
436.67	1683.43
436.88	1730.53
437.08	1779.68
437.29	1775.59
437.49	1806.31
437.70	1703.91
437.90	1730.53
438.11	1968.10
438.31	1794.02
438.52	1824.74
438.72	1845.22
438.93	1904.61
439.13	1812.45
439.34	1767.40
439.54	1796.07
439.75	1802.21
439.95	1726.44
440.16	1761.25
440.36	1806.31
440.57	1730.53
440.77	1765.35
440.98	1753.06
441.18	1798.12
441.39	1705.96
441.59	1714.15
441.80	1882.08
442.00	1712.10
442.21	1824.74
442.41	1601.51
442.62	1816.55
442.82	1671.14
443.02	1736.68
443.23	1732.58
443.43	1751.01
443.64	1822.69
443.84	1701.86
444.05	1757.16
444.25	1716.20
444.46	1791.97
444.66	1716.20
444.87	1791.97
445.07	1656.81
445.28	1738.73
445.48	1830.88
445.69	1798.12
445.89	1906.66
446.09	1701.86
446.30	1992.67
446.50	2648.02
446.71	3633.10
446.91	4407.23
447.12	4782.01
447.32	4892.60
447.53	4288.45
447.73	3889.09
447.93	3450.83
448.14	3334.09
448.34	3233.74
448.55	2873.30
448.75	2885.59
448.96	2758.61
449.16	2455.51
449.36	2287.58
449.57	2013.15
449.77	1906.66
449.98	1761.25
450.18	1728.49
450.39	1845.22
450.59	1787.88
450.79	1798.12
451.00	1771.49
451.20	1810.40
451.41	1718.25
451.61	1798.12
451.81	1787.88
452.02	1765.35
452.22	1722.34
452.43	1656.81
452.63	1775.59
452.84	1712.10
453.04	1748.97
453.24	1753.06
453.45	1693.67
453.65	1720.29
453.86	1767.40
454.06	1722.34
454.26	1779.68
454.47	1687.53
454.67	1871.84
454.87	1712.10
455.08	1753.06
455.28	1804.26
455.49	1759.21
455.69	1681.38
455.89	1853.41
456.10	1761.25
456.30	1687.53
456.51	1787.88
456.71	1705.96
456.91	1736.68
457.12	1763.30
457.32	1812.45
457.52	1699.81
457.73	1781.73
457.93	1804.26
458.14	1732.58
458.34	1691.62
458.54	1705.96
458.75	1689.57
458.95	1751.01
459.15	1763.30
459.36	1779.68
459.56	1834.98
459.76	1828.84
459.97	1757.16
460.17	1697.77
460.37	1777.64
460.58	1726.44
460.78	1900.52
460.99	1714.15
461.19	1814.50
461.39	1767.40
461.60	1720.29
461.80	1816.55
462.00	1632.23
462.21	1771.49
462.41	1677.29
462.61	1751.01
462.82	1658.85
463.02	1843.17
463.22	1693.67
463.43	1853.41
463.63	1767.40
463.83	1837.03
464.04	1708.01
464.24	1757.16
464.44	1671.14
464.64	1699.81
464.85	1798.12
465.05	1777.64
465.25	1744.87
465.46	1665.00
465.66	1822.69
465.86	1730.53
466.07	1767.40
466.27	1669.09
466.47	1640.42
466.68	1656.81
466.88	1841.12
467.08	1755.11
467.29	1720.29
467.49	1783.78
467.69	1630.18
467.89	1806.31
468.10	1724.39
468.30	1781.73
468.50	1841.12
468.71	1779.68
468.91	1595.37
469.11	1804.26
469.31	1822.69
469.52	1693.67
469.72	1808.36
469.92	1822.69
470.13	1808.36
470.33	1736.68
470.53	1904.61
470.73	2039.78
470.94	2279.39
471.14	2324.44
471.34	2533.34
471.54	2406.36
471.75	2217.95
471.95	2097.12
472.15	2111.46
472.36	2078.69
472.56	2058.21
472.76	1961.95
472.96	2072.54
473.17	1966.05
473.37	1931.23
473.57	1800.16
473.77	1816.55
473.98	1742.82
474.18	1701.86
474.38	1916.90
474.58	1685.48
474.79	1695.72
474.99	1839.08
475.19	1746.92
475.39	1687.53
475.60	1757.16
475.80	1751.01
476.00	1775.59
476.20	1693.67
476.41	1779.68
476.61	1837.03
476.81	1796.07
477.01	1693.67
477.21	1886.18
477.42	1777.64
477.62	1617.90
477.82	1783.78
478.02	1683.43
478.23	1693.67
478.43	1644.52
478.63	1746.92
478.83	1769.44
479.03	1765.35
479.24	1775.59
479.44	1916.90
479.64	1636.33
479.84	1578.98
480.04	1648.61
480.25	1773.54
480.45	1679.33
480.65	1810.40
480.85	1816.55
481.06	1669.09
481.26	1734.63
481.46	1779.68
481.66	1728.49
481.86	1656.81
482.06	1738.73
482.27	1720.29
482.47	1738.73
482.67	1699.81
482.87	1601.51
483.07	1730.53
483.28	1628.14
483.48	1699.81
483.68	1658.85
483.88	1611.75
484.08	1636.33
484.29	1658.85
484.49	1767.40
484.69	1736.68
484.89	1834.98
485.09	1708.01
485.29	1753.06
485.50	1689.57
485.70	1734.63
485.90	1839.08
486.10	1734.63
486.30	1742.82
486.50	1806.31
486.71	1787.88
486.91	1751.01
487.11	1789.92
487.31	1705.96
487.51	1759.21
487.71	1699.81
487.91	1648.61
488.12	1691.62
488.32	1593.32
488.52	1732.58
488.72	1572.84
488.92	1660.90
489.12	1777.64
489.32	1748.97
489.53	1685.48
489.73	1613.80
489.93	1755.11
490.13	1669.09
490.33	1646.57
490.53	1744.87
490.73	1796.07
490.94	1677.29
491.14	1705.96
491.34	1849.32
491.54	2113.50
491.74	2578.39
491.94	2975.70
492.14	2990.03
492.34	2996.18
492.54	2723.80
492.75	2455.51
492.95	2482.14
493.15	2287.58
493.35	2367.45
493.55	2213.85
493.75	2107.36
493.95	2170.85
494.15	2021.35
494.35	1939.43
494.56	1837.03
494.76	1738.73
494.96	1806.31
495.16	1800.16
495.36	1755.11
495.56	1701.86
495.76	1685.48
495.96	1685.48
496.16	1677.29
496.36	1806.31
496.56	1648.61
496.77	1775.59
496.97	1660.90
497.17	1816.55
497.37	1613.80
497.57	1765.35
497.77	1703.91
497.97	1710.05
498.17	1699.81
498.37	1642.47
498.57	1722.34
498.77	1779.68
498.97	1789.92
499.17	1847.27
499.38	1679.33
499.58	1716.20
499.78	1800.16
499.98	1722.34
500.18	1718.25
500.38	1722.34
500.58	1902.56
500.78	2525.15
500.98	4511.68
501.18	5736.36
501.38	6772.63
501.58	7051.16
501.78	6635.42
501.98	5580.71
502.18	4947.89
502.38	4278.21
502.58	4089.79
502.78	3803.08
502.98	3592.14
503.18	3418.06
503.38	3258.32
503.59	2770.90
503.79	2666.46
503.99	2463.71
504.19	2291.68
504.39	2185.18
504.59	2250.72
504.79	2105.31
504.99	2013.15
505.19	1992.67
505.39	1822.69
505.59	2050.02
505.79	1914.85
505.99	1857.51
506.19	1748.97
506.39	1822.69
506.59	1787.88
506.79	1738.73
506.99	1789.92
507.19	1765.35
507.39	1753.06
507.59	1667.05
507.79	1675.24
507.99	1751.01
508.19	1767.40
508.39	1574.89
508.59	1773.54
508.79	1923.04
508.99	1828.84
509.19	1677.29
509.39	1781.73
509.59	1718.25
509.79	1722.34
509.99	1789.92
510.19	1787.88
510.39	1789.92
510.59	1724.39
510.79	1681.38
510.99	1628.14
511.19	1753.06
511.39	1808.36
511.59	1761.25
511.79	1800.16
511.99	1732.58
512.19	1851.36
512.38	1732.58
512.58	1728.49
512.78	1667.05
512.98	1771.49
513.18	1892.32
513.38	1703.91
513.58	1765.35
513.78	1769.44
513.98	1697.77
514.18	1722.34
514.38	1675.24
514.58	1703.91
514.78	1724.39
514.98	1701.86
515.18	1705.96
515.38	1611.75
515.58	1810.40
515.78	1673.19
515.98	1665.00
516.18	1824.74
516.38	1761.25
516.57	1746.92
516.77	1689.57
516.97	1751.01
517.17	1728.49
517.37	1650.66
517.57	1716.20
517.77	1767.40
517.97	1703.91
518.17	1712.10
518.37	1716.20
518.57	1736.68
518.77	1710.05
518.97	1783.78
519.16	1755.11
519.36	1808.36
519.56	1685.48
519.76	1714.15
519.96	1738.73
520.16	1802.21
520.36	1695.72
520.56	1824.74
520.76	1712.10
520.96	1751.01
521.16	1783.78
521.35	1787.88
521.55	1882.08
521.75	1689.57
521.95	1785.83
522.15	1789.92
522.35	1585.13
522.55	1646.57
522.75	1837.03
522.95	1677.29
523.14	1724.39
523.34	1718.25
523.54	1679.33
523.74	1742.82
523.94	1791.97
524.14	1695.72
524.34	1757.16
524.54	1828.84
524.73	1742.82
524.93	1736.68
525.13	1724.39
525.33	1636.33
525.53	1920.99
525.73	1830.88
525.93	1771.49
526.13	1748.97
526.32	1820.64
526.52	1769.44
526.72	1773.54
526.92	1697.77
527.12	1748.97
527.32	1644.52
527.52	1685.48
527.71	1843.17
527.91	1767.40
528.11	1712.10
528.31	1798.12
528.51	1628.14
528.71	1843.17
528.90	1775.59
529.10	1791.97
529.30	1902.56
529.50	1636.33
529.70	1648.61
529.90	1689.57
530.09	1679.33
530.29	1705.96
530.49	1648.61
530.69	1978.34
530.89	1828.84
531.09	1759.21
531.28	1716.20
531.48	1808.36
531.68	1806.31
531.88	1742.82
532.08	1810.40
532.28	1681.38
532.47	1787.88
532.67	1869.80
532.87	1777.64
533.07	1705.96
533.27	1755.11
533.46	1732.58
533.66	1746.92
533.86	1732.58
534.06	1775.59
534.26	1763.30
534.45	1730.53
534.65	1806.31
534.85	1642.47
535.05	1718.25
535.25	1710.05
535.44	1648.61
535.64	1771.49
535.84	1714.15
536.04	1734.63
536.24	1751.01
536.43	1765.35
536.63	1775.59
536.83	1708.01
537.03	1757.16
537.22	1644.52
537.42	1636.33
537.62	1740.77
537.82	1751.01
538.02	1796.07
538.21	1800.16
538.41	1941.47
538.61	1818.60
538.81	1761.25
539.00	1773.54
539.20	1640.42
539.40	1710.05
539.60	1732.58
539.79	1746.92
539.99	1708.01
540.19	1681.38
540.39	1726.44
540.58	1796.07
540.78	1796.07
540.98	1703.91
541.18	1775.59
541.37	1767.40
541.57	1796.07
541.77	1773.54
541.97	1744.87
542.16	1603.56
542.36	1740.77
542.56	1806.31
542.76	1861.60
542.95	1781.73
543.15	1857.51
543.35	1798.12
543.54	1773.54
543.74	1703.91
543.94	1755.11
544.14	1728.49
544.33	1746.92
544.53	1744.87
544.73	1718.25
544.93	1734.63
545.12	1726.44
545.32	1716.20
545.52	1683.43
545.71	1683.43
545.91	1716.20
546.11	1693.67
546.30	1652.71
546.50	1796.07
546.70	1755.11
546.90	1796.07
547.09	1701.86
547.29	1699.81
547.49	1765.35
547.68	1740.77
547.88	1699.81
548.08	1755.11
548.27	2181.09
548.47	1673.19
548.67	1716.20
548.87	1775.59
549.06	1693.67
549.26	1796.07
549.46	1775.59
549.65	1687.53
549.85	1779.68
550.05	1783.78
550.24	1697.77
550.44	1828.84
550.64	1765.35
550.83	1736.68
551.03	1867.75
551.23	1763.30
551.42	1761.25
551.62	1722.34
551.82	1789.92
552.01	1693.67
552.21	1812.45
552.41	1820.64
552.60	1765.35
552.80	1697.77
553.00	1779.68
553.19	1751.01
553.39	1818.60
553.59	1607.66
553.78	1875.94
553.98	1759.21
554.17	1693.67
554.37	1738.73
554.57	1751.01
554.76	1646.57
554.96	1685.48
555.16	1654.76
555.35	1710.05
555.55	1761.25
555.75	1785.83
555.94	1822.69
556.14	1726.44
556.33	1865.70
556.53	1759.21
556.73	1705.96
556.92	1785.83
557.12	1761.25
557.32	1925.09
557.51	1857.51
557.71	1738.73
557.90	1839.08
558.10	1822.69
558.30	1716.20
558.49	1794.02
558.69	1708.01
558.88	1781.73
559.08	1683.43
559.28	1683.43
559.47	1714.15
559.67	1769.44
559.86	1877.99
560.06	1808.36
560.26	1708.01
560.45	1753.06
560.65	1705.96
560.84	1806.31
561.04	1751.01
561.24	1806.31
561.43	1705.96
561.63	1875.94
561.82	1748.97
562.02	1787.88
562.22	1710.05
562.41	1714.15
562.61	1683.43
562.80	1603.56
563.00	1861.60
563.19	1808.36
563.39	1816.55
563.59	1728.49
563.78	1697.77
563.98	1679.33
564.17	1693.67
564.37	1626.09
564.56	1718.25
564.76	1681.38
564.96	1896.42
565.15	1751.01
565.35	1849.32
565.54	1765.35
565.74	1771.49
565.93	1769.44
566.13	1802.21
566.32	1794.02
566.52	1808.36
566.71	1714.15
566.91	1779.68
567.11	1658.85
567.30	1701.86
567.50	1777.64
567.69	1787.88
567.89	1734.63
568.08	1669.09
568.28	1691.62
568.47	1748.97
568.67	1742.82
568.86	1656.81
569.06	1759.21
569.25	1689.57
569.45	1683.43
569.64	1738.73
569.84	1744.87
570.04	1785.83
570.23	1667.05
570.43	1740.77
570.62	1710.05
570.82	1869.80
571.01	1724.39
571.21	1822.69
571.40	1683.43
571.60	1810.40
571.79	1689.57
571.99	1763.30
572.18	1720.29
572.38	1783.78
572.57	1691.62
572.77	1675.24
572.96	1916.90
573.16	1757.16
573.35	1722.34
573.55	1863.65
573.74	1759.21
573.94	1785.83
574.13	1697.77
574.33	1857.51
574.52	1734.63
574.71	1861.60
574.91	1763.30
575.10	1693.67
575.30	1667.05
575.49	1626.09
575.69	1740.77
575.88	1818.60
576.08	1773.54
576.27	1916.90
576.47	1814.50
576.66	1951.71
576.86	1863.65
577.05	1742.82
577.25	1763.30
577.44	1861.60
577.64	1710.05
577.83	1779.68
578.02	1769.44
578.22	1804.26
578.41	1828.84
578.61	1759.21
578.80	1748.97
579.00	1796.07
579.19	1773.54
579.39	1812.45
579.58	1865.70
579.77	1787.88
579.97	1779.68
580.16	1779.68
580.36	1818.60
580.55	1796.07
580.75	1781.73
580.94	1804.26
581.13	1824.74
581.33	1804.26
581.52	1671.14
581.72	1904.61
581.91	1880.04
582.11	1751.01
582.30	1775.59
582.49	1769.44
582.69	1859.56
582.88	1804.26
583.08	1748.97
583.27	1845.22
583.47	1748.97
583.66	1695.72
583.85	1751.01
584.05	1734.63
584.24	1812.45
584.44	1773.54
584.63	1814.50
584.82	1865.70
585.02	1900.52
585.21	1839.08
585.41	1808.36
585.60	1816.55
585.79	1920.99
585.99	1906.66
586.18	1871.84
586.37	2242.53
586.57	3358.67
586.76	9785.19
586.96	24155.79
587.15	33996.28
587.34	39734.69
587.54	41315.72
587.73	35859.93
587.93	25734.78
588.12	21153.47
588.31	18255.59
588.51	16275.21
588.70	14913.31
588.89	13954.86
589.09	12443.46
589.28	10694.49
589.47	9144.18
589.67	7817.10
589.86	6256.54
590.06	4876.21
590.25	3923.91
590.44	2992.08
590.64	2553.82
590.83	2166.75
591.02	2140.13
591.22	1894.37
591.41	1996.77
591.60	1931.23
591.80	1988.58
591.99	1724.39
592.18	1794.02
592.38	1814.50
592.57	1769.44
592.76	1753.06
592.96	1789.92
593.15	1738.73
593.34	1828.84
593.54	1734.63
593.73	1763.30
593.92	1730.53
594.12	1740.77
594.31	1789.92
594.50	1791.97
594.70	1820.64
594.89	1834.98
595.08	1804.26
595.28	1806.31
595.47	1957.86
595.66	1818.60
595.86	1744.87
596.05	1763.30
596.24	1685.48
596.43	1837.03
596.63	1767.40
596.82	1708.01
597.01	1742.82
597.21	1771.49
597.40	1724.39
597.59	1722.34
597.79	1677.29
597.98	1769.44
598.17	1751.01
598.36	1695.72
598.56	1789.92
598.75	1671.14
598.94	1732.58
599.14	1753.06
599.33	1720.29
599.52	1751.01
599.71	1832.93
599.91	1791.97
600.10	1736.68
600.29	1724.39
600.48	1837.03
600.68	1818.60
600.87	1748.97
601.06	1722.34
601.26	1791.97
601.45	1724.39
601.64	1746.92
601.83	1826.79
602.03	1744.87
602.22	1699.81
602.41	1808.36
602.60	1871.84
602.80	1787.88
602.99	1785.83
603.18	1673.19
603.37	1738.73
603.57	1837.03
603.76	1814.50
603.95	1798.12
604.14	1839.08
604.34	1746.92
604.53	1757.16
604.72	1806.31
604.91	1746.92
605.10	1814.50
605.30	1626.09
605.49	1751.01
605.68	1857.51
605.87	1802.21
606.07	1683.43
606.26	1722.34
606.45	1818.60
606.64	1671.14
606.84	1716.20
607.03	1746.92
607.22	1742.82
607.41	1755.11
607.60	1708.01
607.80	1740.77
607.99	1746.92
608.18	1679.33
608.37	1734.63
608.56	1691.62
608.76	1744.87
608.95	1834.98
609.14	1759.21
609.33	1708.01
609.52	1787.88
609.72	1781.73
609.91	1820.64
610.10	1734.63
610.29	1837.03
610.48	1767.40
610.68	1800.16
610.87	1753.06
611.06	1691.62
611.25	1671.14
611.44	1822.69
611.63	1689.57
611.83	1798.12
612.02	1705.96
612.21	1808.36
612.40	1550.31
612.59	1626.09
612.79	1697.77
612.98	1708.01
613.17	1832.93
613.36	1767.40
613.55	1853.41
613.74	1730.53
613.93	1599.46
614.13	1726.44
614.32	1775.59
614.51	1695.72
614.70	1685.48
614.89	1718.25
615.08	1703.91
615.28	2080.74
615.47	1673.19
615.66	1765.35
615.85	1710.05
616.04	1816.55
616.23	1789.92
616.42	1714.15
616.62	1755.11
616.81	1796.07
617.00	1687.53
617.19	1730.53
617.38	1779.68
617.57	1675.24
617.76	1832.93
617.95	1755.11
618.15	1746.92
618.34	1728.49
618.53	1673.19
618.72	1763.30
618.91	1867.75
619.10	1812.45
619.29	1810.40
619.48	1759.21
619.68	1681.38
619.87	1781.73
620.06	1650.66
620.25	1800.16
620.44	1767.40
620.63	1757.16
620.82	1736.68
621.01	1732.58
621.20	1681.38
621.39	1697.77
621.59	1761.25
621.78	1763.30
621.97	1777.64
622.16	1765.35
622.35	1779.68
622.54	1779.68
622.73	1849.32
622.92	1624.04
623.11	1834.98
623.30	1677.29
623.49	1718.25
623.68	1726.44
623.88	1759.21
624.07	1693.67
624.26	1732.58
624.45	1736.68
624.64	1718.25
624.83	1751.01
625.02	1695.72
625.21	1734.63
625.40	1734.63
625.59	1832.93
625.78	1703.91
625.97	1892.32
626.16	1759.21
626.35	1861.60
626.54	1675.24
626.74	1757.16
626.93	1716.20
627.12	1740.77
627.31	1824.74
627.50	1734.63
627.69	1804.26
627.88	1789.92
628.07	1730.53
628.26	1650.66
628.45	1667.05
628.64	1644.52
628.83	1734.63
629.02	1730.53
629.21	1681.38
629.40	1751.01
629.59	1632.23
629.78	1730.53
629.97	1734.63
630.16	1705.96
630.35	1738.73
630.54	1732.58
630.73	1677.29
630.92	1738.73
631.11	1777.64
631.30	1675.24
631.49	1740.77
631.68	1773.54
631.87	1753.06
632.06	1730.53
632.25	1855.46
632.44	1685.48
632.63	1755.11
632.82	1710.05
633.01	1636.33
633.20	1712.10
633.39	1714.15
633.58	1652.71
633.77	1767.40
633.96	1761.25
634.15	1740.77
634.34	1796.07
634.53	1751.01
634.72	1648.61
634.91	1607.66
635.10	1685.48
635.29	1794.02
635.48	1703.91
635.67	1718.25
635.86	1632.23
636.05	1708.01
636.24	1726.44
636.43	1740.77
636.62	1757.16
636.81	1619.94
637.00	1712.10
637.19	1771.49
637.38	1679.33
637.57	1718.25
637.76	1673.19
637.95	1789.92
638.14	1638.38
638.33	1748.97
638.52	1800.16
638.71	1570.79
638.89	1632.23
639.08	1806.31
639.27	1775.59
639.46	1656.81
639.65	1812.45
639.84	1771.49
640.03	1787.88
640.22	1724.39
640.41	1791.97
640.60	1683.43
640.79	1734.63
640.98	1683.43
641.17	1734.63
641.36	1681.38
641.55	1771.49
641.74	1724.39
641.92	1665.00
642.11	1681.38
642.30	1683.43
642.49	1673.19
642.68	1759.21
642.87	1767.40
643.06	1828.84
643.25	1628.14
643.44	1748.97
643.63	1720.29
643.82	1757.16
644.00	1658.85
644.19	1787.88
644.38	1628.14
644.57	1722.34
644.76	1742.82
644.95	1671.14
645.14	1695.72
645.33	1697.77
645.52	1732.58
645.71	1652.71
645.89	1667.05
646.08	1705.96
646.27	1691.62
646.46	1837.03
646.65	1593.32
646.84	1804.26
647.03	1669.09
647.22	1728.49
647.40	1671.14
647.59	1708.01
647.78	1650.66
647.97	1687.53
648.16	1648.61
648.35	1789.92
648.54	1765.35
648.73	1708.01
648.91	1773.54
649.10	1742.82
649.29	1644.52
649.48	1773.54
649.67	1685.48
649.86	1736.68
650.05	1730.53
650.23	1812.45
650.42	1691.62
650.61	1769.44
650.80	1847.27
650.99	1882.08
651.18	1800.16
651.36	1759.21
651.55	1695.72
651.74	1689.57
651.93	1660.90
652.12	1718.25
652.31	1703.91
652.49	1665.00
652.68	1716.20
652.87	1751.01
653.06	1738.73
653.25	1830.88
653.44	1687.53
653.62	1783.78
653.81	1691.62
654.00	1783.78
654.19	1812.45
654.38	1931.23
654.56	1746.92
654.75	1693.67
654.94	1734.63
655.13	1722.34
655.32	1722.34
655.51	1820.64
655.69	1736.68
655.88	1791.97
656.07	1630.18
656.26	1785.83
656.45	1660.90
656.63	1746.92
656.82	1744.87
657.01	1812.45
657.20	1732.58
657.38	1800.16
657.57	1673.19
657.76	1626.09
657.95	1822.69
658.14	1740.77
658.32	1748.97
658.51	1628.14
658.70	1671.14
658.89	1753.06
659.08	1755.11
659.26	1785.83
659.45	1724.39
659.64	1720.29
659.83	1705.96
660.01	1869.80
660.20	1736.68
660.39	1830.88
660.58	1589.22
660.76	1740.77
660.95	1630.18
661.14	1740.77
661.33	1636.33
661.51	1691.62
661.70	1759.21
661.89	1671.14
662.08	1734.63
662.26	1714.15
662.45	1662.95
662.64	1769.44
662.83	1757.16
663.01	1667.05
663.20	1687.53
663.39	1828.84
663.58	1648.61
663.76	1687.53
663.95	1714.15
664.14	1740.77
664.32	1667.05
664.51	1697.77
664.70	1665.00
664.89	1857.51
665.07	1662.95
665.26	1865.70
665.45	1720.29
665.64	1837.03
665.82	1789.92
666.01	1800.16
666.20	1669.09
666.38	1853.41
666.57	1753.06
666.76	2187.23
666.95	4507.58
667.13	10493.79
667.32	15005.47
667.51	17946.35
667.69	18689.76
667.88	17078.01
668.07	12179.27
668.25	9424.75
668.44	8103.81
668.63	7210.90
668.81	6733.72
669.00	6231.97
669.19	5494.70
669.38	5083.06
669.56	4509.63
669.75	3934.15
669.94	3342.28
670.12	2932.69
670.31	2443.23
670.50	2291.68
670.68	1976.29
670.87	1957.86
671.06	1841.12
671.24	1806.31
671.43	1861.60
671.62	1714.15
671.80	1724.39
671.99	1736.68
672.18	1636.33
672.36	1853.41
672.55	1687.53
672.74	1671.14
672.92	1671.14
673.11	1779.68
673.29	1697.77
673.48	1710.05
673.67	1714.15
673.85	1781.73
674.04	1632.23
674.23	1740.77
674.41	1761.25
674.60	1683.43
674.79	1626.09
674.97	1662.95
675.16	1751.01
675.34	1839.08
675.53	1693.67
675.72	1730.53
675.90	1853.41
676.09	1689.57
676.28	1656.81
676.46	1566.70
676.65	1710.05
676.83	1656.81
677.02	1757.16
677.21	1634.28
677.39	1759.21
677.58	1646.57
677.77	1685.48
677.95	1669.09
678.14	1742.82
678.32	1650.66
678.51	1701.86
678.70	1820.64
678.88	1689.57
679.07	1710.05
679.25	1753.06
679.44	1648.61
679.63	1703.91
679.81	1744.87
680.00	1837.03
680.18	1818.60
680.37	1796.07
680.55	1822.69
680.74	1583.08
680.93	1660.90
681.11	1765.35
681.30	1740.77
681.48	1742.82
681.67	1665.00
681.85	1726.44
682.04	1609.70
682.23	1746.92
682.41	1728.49
682.60	1757.16
682.78	1740.77
682.97	1667.05
683.15	1732.58
683.34	1738.73
683.53	1857.51
683.71	1638.38
683.90	1865.70
684.08	1796.07
684.27	1656.81
684.45	1728.49
684.64	1755.11
684.82	1636.33
685.01	1765.35
685.19	1708.01
685.38	1828.84
685.57	1677.29
685.75	1687.53
685.94	1722.34
686.12	1738.73
686.31	1712.10
686.49	1849.32
686.68	1609.70
686.86	1751.01
687.05	1695.72
687.23	1800.16
687.42	1630.18
687.60	1607.66
687.79	1832.93
687.97	1853.41
688.16	1763.30
688.34	1802.21
688.53	1658.85
688.71	1673.19
688.90	1705.96
689.08	1656.81
689.27	1671.14
689.45	1808.36
689.64	1769.44
689.82	1685.48
690.01	1669.09
690.19	1798.12
690.38	1669.09
690.56	1837.03
690.75	1642.47
690.93	1732.58
691.12	1693.67
691.30	1640.42
691.49	1644.52
691.67	1755.11
691.86	1767.40
692.04	1640.42
692.23	1753.06
692.41	1738.73
692.60	1794.02
692.78	1837.03
692.97	1628.14
693.15	1775.59
693.34	1818.60
693.52	1783.78
693.71	1705.96
693.89	1658.85
694.08	1654.76
694.26	1765.35
694.44	1767.40
694.63	1822.69
694.81	1697.77
695.00	1685.48
695.18	1832.93
695.37	1834.98
695.55	1781.73
695.74	1669.09
695.92	1728.49
696.10	1746.92
696.29	1656.81
696.47	1665.00
696.66	1658.85
696.84	1605.61
697.03	1722.34
697.21	1845.22
697.40	2336.73
697.58	1773.54
697.76	1708.01
697.95	1654.76
698.13	1650.66
698.32	1636.33
698.50	1755.11
698.68	1767.40
698.87	1677.29
699.05	1789.92
699.24	1697.77
699.42	1695.72
699.61	1783.78
699.79	1761.25
699.97	1777.64
700.16	1654.76
700.34	1669.09
700.53	1828.84
700.71	1796.07
700.89	1820.64
701.08	1658.85
701.26	1734.63
701.45	2099.17
701.63	1699.81
701.81	1732.58
702.00	1699.81
702.18	1763.30
702.37	1587.18
702.55	1814.50
702.73	1718.25
702.92	1638.38
703.10	1787.88
703.28	1775.59
703.47	1689.57
703.65	1734.63
703.84	1753.06
704.02	1781.73
704.20	1765.35
704.39	1742.82
704.57	1783.78
704.75	1777.64
704.94	1693.67
705.12	1673.19
705.30	1701.86
705.49	2271.20
705.67	4478.91
705.86	9512.81
706.04	12449.60
706.22	14147.37
706.41	15101.72
706.59	13649.71
706.77	9398.13
706.96	7311.25
707.14	6512.54
707.32	5963.68
707.51	5552.04
707.69	4919.22
707.87	4167.62
708.06	3420.11
708.24	3053.52
708.42	2402.27
708.61	2330.59
708.79	1957.86
708.97	1871.84
709.16	1761.25
709.34	1871.84
709.52	1748.97
709.71	1802.21
709.89	1714.15
710.07	1656.81
710.26	1646.57
710.44	1685.48
710.62	1806.31
710.80	1806.31
710.99	1677.29
711.17	1722.34
711.35	1740.77
711.54	1689.57
711.72	1734.63
711.90	1705.96
712.09	1746.92
712.27	1683.43
712.45	1826.79
712.63	1673.19
712.82	1740.77
713.00	1689.57
713.18	1791.97
713.37	1796.07
713.55	1777.64
713.73	1726.44
713.91	1796.07
714.10	1656.81
714.28	1695.72
714.46	1779.68
714.65	1679.33
714.83	1734.63
715.01	1798.12
715.19	1736.68
715.38	1751.01
715.56	1781.73
715.74	1722.34
715.92	1642.47
716.11	1791.97
716.29	1595.37
716.47	1714.15
716.65	1677.29
716.84	1546.22
717.02	1728.49
717.20	1650.66
717.38	1697.77
717.57	1742.82
717.75	1738.73
717.93	1732.58
718.11	1796.07
718.30	1677.29
718.48	1734.63
718.66	1800.16
718.84	1716.20
719.03	1757.16
719.21	1658.85
719.39	1837.03
719.57	1755.11
719.75	1767.40
719.94	1689.57
720.12	1683.43
720.30	1824.74
720.48	1808.36
720.67	1718.25
720.85	1646.57
721.03	1685.48
721.21	1656.81
721.39	1730.53
721.58	1734.63
721.76	1746.92
721.94	1701.86
722.12	1775.59
722.30	1814.50
722.49	1683.43
722.67	1701.86
722.85	1708.01
723.03	1603.56
723.21	1667.05
723.40	1722.34
723.58	1734.63
723.76	1744.87
723.94	1851.36
724.12	1853.41
724.30	1775.59
724.49	1714.15
724.67	1693.67
724.85	1785.83
725.03	1626.09
725.21	1675.24
725.40	1783.78
725.58	1683.43
725.76	1755.11
725.94	1728.49
726.12	1658.85
726.30	1738.73
726.49	1716.20
726.67	1638.38
726.85	1779.68
727.03	1773.54
727.21	2191.33
727.39	2869.20
727.57	3788.74
727.76	4224.96
727.94	4538.30
728.12	4308.93
728.30	3715.02
728.48	2914.26
728.66	2783.19
728.84	2535.39
729.03	2289.63
729.21	2174.94
729.39	2041.82
729.57	1759.21
729.75	1861.60
729.93	1796.07
730.11	1693.67
730.30	1658.85
730.48	1742.82
730.66	1775.59
730.84	1732.58
731.02	1722.34
731.20	1685.48
731.38	1777.64
731.56	1644.52
731.74	1681.38
731.93	1746.92
732.11	1718.25
732.29	1767.40
732.47	1685.48
732.65	1685.48
732.83	1759.21
733.01	1712.10
733.19	1673.19
733.37	1753.06
733.56	1683.43
733.74	1658.85
733.92	1726.44
734.10	1740.77
734.28	1738.73
734.46	1632.23
734.64	1714.15
734.82	1740.77
735.00	1701.86
735.18	1738.73
735.36	1757.16
735.54	1658.85
735.73	1658.85
735.91	1701.86
736.09	1771.49
736.27	1699.81
736.45	1785.83
736.63	1650.66
736.81	1695.72
736.99	1724.39
737.17	1751.01
737.35	1703.91
737.53	1677.29
737.71	1718.25
737.89	1773.54
738.07	1697.77
738.25	1710.05
738.43	1599.46
738.61	1701.86
738.80	1626.09
738.98	1644.52
739.16	1746.92
739.34	1636.33
739.52	1777.64
739.70	1673.19
739.88	1779.68
740.06	1779.68
740.24	1675.24
740.42	1722.34
740.60	1669.09
740.78	1681.38
740.96	1642.47
741.14	1724.39
741.32	1767.40
741.50	1611.75
741.68	1791.97
741.86	1800.16
742.04	1691.62
742.22	1673.19
742.40	1767.40
742.58	1757.16
742.76	1638.38
742.94	1761.25
743.12	1574.89
743.30	1681.38
743.48	1802.21
743.66	1671.14
743.84	1794.02
744.02	1673.19
744.20	1744.87
744.38	1677.29
744.56	1683.43
744.74	1902.56
744.92	1673.19
745.10	1834.98
745.28	1822.69
745.46	1759.21
745.64	1714.15
745.82	1730.53
746.00	1712.10
746.18	1716.20
746.36	1675.24
746.54	1728.49
746.72	1675.24
746.90	1691.62
747.08	1779.68
747.26	1693.67
747.44	1734.63
747.62	1753.06
747.80	1732.58
747.98	1791.97
748.15	1677.29
748.33	1771.49
748.51	1677.29
748.69	1830.88
748.87	1748.97
749.05	1665.00
749.23	1636.33
749.41	1800.16
749.59	1677.29
749.77	1697.77
749.95	1687.53
750.13	1742.82
750.31	1708.01
750.49	1734.63
750.67	1753.06
750.85	1798.12
751.03	1619.94
751.20	1826.79
751.38	1730.53
751.56	1687.53
751.74	1671.14
751.92	1734.63
752.10	1695.72
752.28	1730.53
752.46	1681.38
752.64	1675.24
752.82	1714.15
753.00	1814.50
753.18	1675.24
753.35	1685.48
753.53	1730.53
753.71	1712.10
753.89	1693.67
754.07	1716.20
754.25	1765.35
754.43	1722.34
754.61	1638.38
754.79	1730.53
754.97	1701.86
755.14	1822.69
755.32	1681.38
755.50	1740.77
755.68	1689.57
755.86	1685.48
756.04	1662.95
756.22	1578.98
756.40	1787.88
756.57	1871.84
756.75	1654.76
756.93	1753.06
757.11	1710.05
757.29	1662.95
757.47	1705.96
757.65	1619.94
757.82	1542.12
758.00	1628.14
758.18	1714.15
758.36	1699.81
758.54	1837.03
758.72	1681.38
758.90	1738.73
759.07	1683.43
759.25	1689.57
759.43	1712.10
759.61	1658.85
759.79	2185.18
759.97	1777.64
760.15	1613.80
760.32	1708.01
760.50	1802.21
760.68	1834.98
760.86	1656.81
761.04	1736.68
761.22	1732.58
761.39	1654.76
761.57	1791.97
761.75	1712.10
761.93	1726.44
762.11	1652.71
762.28	1718.25
762.46	1687.53
762.64	1685.48
762.82	1753.06
763.00	1665.00
763.18	1808.36
763.35	1591.27
763.53	1804.26
763.71	1671.14
763.89	1775.59
764.07	1693.67
764.24	1636.33
764.42	1830.88
764.60	1720.29
764.78	1662.95
764.96	1777.64
765.13	1753.06
765.31	1699.81
765.49	1779.68
765.67	1697.77
765.84	1716.20
766.02	1718.25
766.20	1669.09
766.38	1650.66
766.56	1767.40
766.73	1804.26
766.91	1708.01
767.09	1613.80
767.27	1779.68
767.44	1705.96
767.62	1697.77
767.80	1744.87
767.98	1742.82
768.15	1650.66
768.33	1781.73
768.51	1658.85
768.69	1798.12
768.87	1718.25
769.04	1701.86
769.22	1814.50
769.40	1841.12
769.58	1834.98
769.75	1740.77
769.93	1771.49
770.11	1710.05
770.28	1636.33
770.46	1734.63
770.64	1794.02
770.82	1734.63
770.99	1699.81
771.17	1740.77
771.35	1730.53
771.53	1685.48
771.70	1738.73
771.88	1763.30
772.06	1699.81
772.23	1640.42
772.41	1751.01
772.59	1650.66
772.77	1671.14
772.94	1683.43
773.12	1728.49
773.30	1621.99
773.47	1689.57
773.65	1671.14
773.83	1755.11
774.01	1671.14
774.18	1632.23
774.36	1785.83
774.54	1644.52
774.71	1650.66
774.89	1654.76
775.07	1654.76
775.24	1611.75
775.42	1675.24
775.60	1800.16
775.78	1630.18
775.95	1607.66
776.13	1689.57
776.31	1595.37
776.48	1726.44
776.66	1804.26
776.84	1728.49
777.01	1738.73
777.19	1691.62
777.37	1691.62
777.54	1738.73
777.72	1806.31
777.90	1689.57
778.07	1718.25
778.25	1882.08
778.43	1714.15
778.60	1732.58
778.78	1773.54
778.96	1755.11
779.13	1609.70
779.31	1761.25
779.49	1695.72
779.66	1726.44
779.84	1718.25
780.01	1748.97
780.19	1656.81
780.37	1826.79
780.54	1734.63
780.72	1689.57
780.90	1740.77
781.07	1644.52
781.25	1714.15
781.43	1769.44
781.60	1695.72
781.78	1732.58
781.95	1718.25
782.13	1736.68
782.31	1689.57
782.48	1599.46
782.66	1640.42
782.83	1822.69
783.01	1773.54
783.19	1777.64
783.36	1714.15
783.54	1685.48
783.72	1822.69
783.89	1699.81
784.07	1701.86
784.24	1712.10
784.42	1828.84
784.60	1779.68
784.77	1724.39
784.95	1671.14
785.12	1642.47
785.30	1728.49
785.47	1601.51
785.65	1607.66
785.83	1683.43
786.00	1681.38
786.18	1753.06
786.35	1632.23
786.53	1550.31
786.71	1775.59
786.88	1689.57
787.06	1738.73
787.23	1691.62
787.41	1636.33
787.58	1667.05
787.76	1703.91
787.94	1767.40
788.11	1716.20
788.29	1667.05
788.46	1730.53
788.64	1654.76
788.81	1695.72
788.99	1607.66
789.16	1679.33
789.34	1691.62
789.52	1675.24
789.69	1683.43
789.87	1583.08
790.04	1605.61
790.22	1675.24
790.39	1849.32
790.57	1552.36
790.74	1634.28
790.92	1755.11
791.09	1740.77
791.27	1634.28
791.44	1796.07
791.62	1732.58
791.79	1777.64
791.97	1675.24
792.15	1906.66
792.32	1736.68
792.50	1742.82
792.67	1740.77
792.85	1693.67
793.02	1771.49
793.20	1751.01
793.37	1693.67
793.55	1738.73
793.72	1669.09
793.90	1673.19
794.07	1695.72
794.25	1687.53
794.42	1673.19
794.60	1691.62
794.77	1699.81
794.95	1718.25
795.12	1722.34
795.30	1679.33
795.47	1583.08
795.65	1888.23
795.82	1665.00
796.00	1687.53
796.17	1708.01
796.34	1617.90
796.52	1722.34
796.69	1697.77
796.87	1703.91
797.04	1701.86
797.22	1771.49
797.39	1748.97
797.57	1708.01
797.74	1685.48
797.92	1730.53
798.09	1730.53
798.27	1730.53
798.44	1755.11
798.62	1675.24
798.79	1724.39
798.96	1734.63
799.14	1761.25
799.31	1816.55
799.49	1648.61
799.66	1671.14
799.84	1767.40
800.01	1673.19
800.19	1787.88
800.36	1609.70
800.53	1695.72
800.71	1767.40
800.88	1796.07
801.06	1699.81
801.23	1761.25
801.41	1710.05
801.58	1687.53
801.75	1665.00
801.93	1726.44
802.10	1748.97
802.28	1753.06
802.45	1746.92
802.63	1742.82
802.80	1724.39
802.97	1724.39
803.15	1722.34
803.32	1689.57
803.50	1662.95
803.67	1673.19
803.84	1708.01
804.02	1761.25
804.19	1728.49
804.37	1650.66
804.54	1705.96
804.71	1708.01
804.89	1736.68
805.06	1644.52
805.24	1642.47
805.41	1652.71
805.58	1681.38
805.76	1830.88
805.93	1759.21
806.10	1804.26
806.28	1771.49
806.45	1765.35
806.63	1687.53
806.80	1703.91
806.97	1701.86
807.15	1771.49
807.32	1722.34
807.49	1722.34
807.67	1574.89
807.84	1697.77
808.01	1669.09
808.19	1800.16
808.36	1812.45
808.54	1720.29
808.71	1677.29
808.88	1769.44
809.06	1705.96
809.23	1783.78
809.40	1738.73
809.58	1802.21
809.75	1798.12
809.92	1638.38
810.10	1820.64
810.27	1665.00
810.44	1802.21
810.62	1705.96
810.79	1810.40
810.96	1765.35
811.14	1675.24
811.31	1695.72
811.48	1738.73
811.66	1802.21
811.83	1808.36
812.00	1808.36
812.18	1787.88
812.35	1791.97
812.52	1730.53
812.69	1751.01
812.87	1636.33
813.04	1660.90
813.21	1662.95
813.39	1699.81
813.56	1638.38
813.73	1791.97
813.91	1626.09
814.08	1679.33
814.25	1662.95
814.42	1658.85
814.60	1714.15
814.77	1685.48
814.94	1705.96
815.12	1787.88
815.29	1802.21
815.46	1673.19
815.63	1708.01
815.81	1740.77
815.98	1701.86
816.15	1738.73
816.33	1687.53
816.50	1632.23
816.67	1679.33
816.84	1701.86
817.02	1603.56
817.19	1652.71
817.36	1763.30
817.53	1761.25
817.71	1652.71
817.88	1767.40
818.05	1650.66
818.22	1689.57
818.40	1791.97
818.57	1662.95
818.74	1693.67
818.91	1677.29
819.09	1800.16
819.26	1693.67
819.43	1697.77
819.60	1673.19
819.78	1703.91
819.95	1828.84
820.12	1734.63
820.29	1744.87
820.47	1775.59
820.64	1705.96
820.81	1630.18
820.98	1648.61
821.15	1667.05
821.33	1812.45
821.50	1642.47
821.67	1779.68
821.84	1679.33
822.02	1759.21
822.19	1710.05
822.36	1703.91
822.53	1705.96
822.70	1640.42
822.88	1685.48
823.05	1843.17
823.22	1665.00
823.39	1728.49
823.56	1708.01
823.74	1771.49
823.91	1652.71
824.08	1619.94
824.25	1697.77
824.42	1748.97
824.60	1634.28
824.77	1708.01
824.94	1736.68
825.11	1658.85
825.28	1658.85
825.45	1783.78
825.63	1761.25
825.80	1679.33
825.97	1796.07
826.14	1669.09
826.31	1621.99
826.48	1726.44
826.66	1634.28
826.83	1712.10
827.00	1673.19
827.17	1650.66
827.34	1615.85
827.51	1724.39
827.69	1730.53
827.86	1679.33
828.03	1685.48
828.20	1718.25
828.37	1710.05
828.54	1777.64
828.71	1609.70
828.89	1804.26
829.06	1705.96
829.23	1832.93
829.40	1636.33
829.57	1634.28
829.74	1779.68
829.91	1630.18
830.09	1687.53
830.26	1744.87
830.43	1796.07
830.60	1673.19
830.77	1740.77
830.94	1785.83
831.11	1757.16
831.28	1701.86
831.46	1767.40
831.63	1679.33
831.80	1785.83
831.97	1681.38
832.14	1705.96
832.31	1757.16
832.48	1705.96
832.65	1769.44
832.82	1785.83
832.99	1722.34
833.17	1648.61
833.34	1865.70
833.51	1746.92
833.68	1648.61
833.85	1691.62
834.02	1712.10
834.19	1679.33
834.36	1732.58
834.53	1738.73
834.70	1808.36
834.87	1765.35
835.04	1701.86
835.22	1701.86
835.39	1677.29
835.56	1648.61
835.73	1785.83
835.90	1732.58
836.07	1603.56
836.24	1767.40
836.41	1642.47
836.58	1646.57
836.75	1775.59
836.92	1716.20
837.09	1605.61
837.26	1697.77
837.43	1687.53
837.60	1716.20
837.77	1673.19
837.94	1714.15
838.12	1802.21
838.29	1708.01
838.46	1675.24
838.63	1628.14
838.80	1798.12
838.97	1738.73
839.14	1710.05
839.31	1732.58
839.48	1691.62
839.65	1656.81
839.82	1744.87
839.99	1703.91
840.16	1732.58
840.33	1646.57
840.50	1773.54
840.67	1693.67
840.84	1554.41
841.01	1732.58
841.18	1656.81
841.35	1681.38
841.52	1757.16
841.69	1847.27
841.86	1699.81
842.03	1705.96
842.20	1679.33
842.37	1724.39
842.54	1732.58
842.71	1689.57
842.88	1626.09
843.05	1843.17
843.22	1689.57
843.39	1685.48
843.56	1705.96
843.73	1681.38
843.90	1738.73
844.07	1775.59
844.24	1718.25
844.41	1746.92
844.58	1816.55
844.75	1636.33
844.92	1734.63
845.09	1679.33
845.26	1671.14
845.43	1730.53
845.60	1648.61
845.77	1873.89
845.94	1665.00
846.10	1767.40
846.27	1652.71
846.44	1632.23
846.61	1658.85
846.78	1794.02
846.95	1783.78
847.12	1656.81
847.29	1673.19
847.46	1683.43
847.63	1773.54
847.80	1667.05
847.97	1732.58
848.14	1761.25
848.31	1669.09
848.48	1640.42
848.65	1738.73
848.82	1742.82
848.98	1763.30
849.15	1705.96
849.32	1800.16
849.49	1732.58
849.66	1636.33
849.83	1710.05
850.00	1624.04
850.17	1773.54
850.34	1744.87
850.51	1722.34
850.68	1652.71
850.85	1841.12
851.01	1697.77
851.18	1742.82
851.35	1718.25
851.52	1822.69
851.69	1798.12
851.86	1638.38
852.03	1716.20
852.20	1736.68
852.37	1791.97
852.53	1617.90
852.70	1705.96
852.87	1669.09
853.04	1699.81
853.21	1703.91
853.38	1728.49
853.55	1818.60
853.72	1845.22
853.89	1673.19
854.05	1679.33
854.22	1695.72
854.39	1705.96
854.56	1730.53
854.73	1789.92
854.90	1624.04
855.07	1753.06
855.23	1658.85
855.40	1695.72
855.57	1681.38
855.74	1589.22
855.91	1826.79
856.08	1630.18
856.25	1617.90
856.41	1654.76
856.58	1671.14
856.75	1771.49
856.92	1689.57
857.09	1736.68
857.26	1675.24
857.42	1669.09
857.59	1796.07
857.76	1671.14
857.93	1730.53
858.10	1746.92
858.27	1671.14
858.43	1687.53
858.60	1638.38
858.77	1660.90
858.94	1699.81
859.11	1746.92
859.27	1728.49
859.44	1742.82
859.61	1820.64
859.78	1769.44
859.95	1716.20
860.12	1703.91
860.28	1812.45
860.45	1808.36
860.62	1734.63
860.79	1746.92
860.95	1644.52
861.12	1726.44
861.29	1665.00
861.46	1665.00
861.63	1671.14
861.79	1724.39
861.96	1628.14
862.13	1658.85
862.30	1726.44
862.47	1654.76
862.63	1632.23
862.80	1742.82
862.97	1785.83
863.14	1683.43
863.30	1740.77
863.47	1722.34
863.64	1804.26
863.81	1748.97
863.97	1714.15
864.14	1726.44
864.31	1689.57
864.48	1697.77
864.65	1736.68
864.81	1771.49
864.98	1777.64
865.15	1681.38
865.32	1718.25
865.48	1689.57
865.65	1767.40
865.82	1642.47
865.98	1783.78
866.15	1726.44
866.32	1693.67
866.49	1738.73
866.65	1736.68
866.82	1714.15
866.99	1730.53
867.16	1652.71
867.32	1763.30
867.49	1689.57
867.66	1693.67
867.83	1712.10
867.99	1673.19
868.16	1675.24
868.33	1644.52
868.49	1630.18
868.66	1658.85
868.83	1671.14
868.99	1679.33
869.16	1763.30
869.33	1771.49
869.50	1734.63
869.66	1701.86
869.83	1652.71
870.00	1607.66
870.16	1732.58
870.33	1736.68
870.50	1624.04
870.66	1708.01
870.83	1765.35
871.00	1697.77
871.17	1697.77
871.33	1775.59
871.50	1650.66
871.67	1722.34
871.83	1679.33
872.00	1791.97
872.17	1732.58
872.33	1781.73
872.50	1818.60
872.67	1708.01
872.83	1658.85
873.00	1716.20
873.17	1738.73
873.33	1773.54
873.50	1796.07
873.67	1675.24
873.83	1650.66
874.00	1726.44
874.16	1791.97
874.33	1742.82
874.50	1652.71
874.66	1710.05
874.83	1763.30
875.00	1755.11
875.16	1800.16
875.33	1753.06
875.50	1656.81
875.66	1648.61
875.83	1734.63
875.99	1753.06
876.16	1624.04
876.33	1626.09
876.49	1636.33
876.66	1701.86
876.83	1644.52
876.99	1636.33
877.16	1738.73
877.32	1751.01
877.49	1677.29
877.66	1787.88
877.82	1822.69
877.99	1736.68
878.15	1769.44
878.32	1757.16
878.49	1728.49
878.65	1697.77
878.82	1714.15
878.98	1712.10
879.15	1740.77
879.32	1722.34
879.48	1773.54
879.65	1675.24
879.81	1763.30
879.98	1724.39
880.15	1683.43
880.31	1736.68
880.48	1693.67
880.64	1753.06
880.81	1751.01
880.97	1853.41
881.14	1761.25
881.31	1687.53
881.47	1802.21
881.64	1624.04
881.80	1638.38
881.97	1708.01
882.13	1755.11
882.30	1703.91
882.47	1638.38
882.63	1597.42
882.80	1681.38
882.96	1689.57
883.13	1710.05
883.29	1705.96
883.46	1708.01
883.62	1886.18
883.79	1671.14
883.95	1742.82
884.12	1679.33
884.29	1728.49
884.45	1767.40
884.62	1812.45
884.78	1724.39
884.95	1820.64
885.11	1687.53
885.28	1742.82
885.44	1714.15
885.61	1650.66
885.77	1746.92
885.94	1724.39
886.10	1650.66
886.27	1673.19
886.43	1781.73
886.60	1783.78
886.76	1640.42
886.93	1656.81
887.09	1789.92
887.26	1648.61
887.42	1732.58
887.59	1746.92
887.75	1863.65
887.92	1828.84
888.08	1810.40
888.25	1769.44
888.41	1738.73
888.58	1773.54
888.74	1613.80
888.91	1675.24
>>>>>End Processed Spectral Data<<<<<
