SpectraSuite Data File
++++++++++++++++++++++++++++++++++++
Date: Mon Jun 06 14:11:17 CEST 2016
User: root
Dark Spectrum Present: No
Reference Spectrum Present: No
Number of Sampled Component Spectra: 1
Spectrometers: USB4C02835
Integration Time (usec): 100000 (USB4C02835)
Spectra Averaged: 1 (USB4C02835)
Boxcar Smoothing: 0 (USB4C02835)
Correct for Electrical Dark: No (USB4C02835)
Strobe/Lamp Enabled: No (USB4C02835)
Correct for Detector Non-linearity: No (USB4C02835)
Correct for Stray Light: No (USB4C02835)
Number of Pixels in Processed Spectrum: 3648
>>>>>Begin Processed Spectral Data<<<<<
177.47	1509.35
177.69	1509.35
177.91	1509.35
178.13	1472.49
178.36	1497.07
178.58	1681.38
178.80	1669.09
179.02	1611.75
179.24	1646.57
179.46	1662.95
179.68	1716.20
179.90	1701.86
180.13	1765.35
180.35	1665.00
180.57	1699.81
180.79	1644.52
181.01	1699.81
181.23	1810.40
181.45	1716.20
181.67	1783.78
181.90	1787.88
182.12	1677.29
182.34	1642.47
182.56	1738.73
182.78	1681.38
183.00	1724.39
183.22	1738.73
183.44	1574.89
183.66	1839.08
183.89	1822.69
184.11	1734.63
184.33	1783.78
184.55	1765.35
184.77	1689.57
184.99	1691.62
185.21	1710.05
185.43	1884.13
185.65	1705.96
185.87	1705.96
186.10	1783.78
186.32	1812.45
186.54	1722.34
186.76	1726.44
186.98	1755.11
187.20	1736.68
187.42	1697.77
187.64	1724.39
187.86	1753.06
188.08	1787.88
188.30	1644.52
188.52	1699.81
188.75	1808.36
188.97	1828.84
189.19	1656.81
189.41	1681.38
189.63	1720.29
189.85	1691.62
190.07	1607.66
190.29	1669.09
190.51	1703.91
190.73	1648.61
190.95	1671.14
191.17	1642.47
191.39	1589.22
191.61	1665.00
191.84	1619.94
192.06	1738.73
192.28	1656.81
192.50	1894.37
192.72	1695.72
192.94	1660.90
193.16	1763.30
193.38	1728.49
193.60	1644.52
193.82	1673.19
194.04	1796.07
194.26	1742.82
194.48	1730.53
194.70	1708.01
194.92	1656.81
195.14	1710.05
195.36	1632.23
195.58	1716.20
195.80	1730.53
196.02	1705.96
196.24	1615.85
196.46	1658.85
196.69	1781.73
196.91	1832.93
197.13	1708.01
197.35	1722.34
197.57	1730.53
197.79	1710.05
198.01	1705.96
198.23	1783.78
198.45	1716.20
198.67	1605.61
198.89	1703.91
199.11	1630.18
199.33	1646.57
199.55	1497.07
199.77	1609.70
199.99	1806.31
200.21	1671.14
200.43	1740.77
200.65	1628.14
200.87	1533.93
201.09	1726.44
201.31	1681.38
201.53	1746.92
201.75	1710.05
201.97	1794.02
202.19	1736.68
202.41	1787.88
202.63	1767.40
202.85	1781.73
203.07	1740.77
203.29	1675.24
203.51	1630.18
203.73	1665.00
203.95	1845.22
204.17	1701.86
204.39	1681.38
204.61	1708.01
204.83	1642.47
205.05	1761.25
205.27	1732.58
205.49	1796.07
205.71	1710.05
205.93	1607.66
206.15	1568.74
206.37	1703.91
206.59	1685.48
206.81	1652.71
207.03	1626.09
207.25	1697.77
207.47	1738.73
207.69	1669.09
207.91	1787.88
208.13	1800.16
208.34	1630.18
208.56	1640.42
208.78	1740.77
209.00	1671.14
209.22	1714.15
209.44	1640.42
209.66	1708.01
209.88	1796.07
210.10	1771.49
210.32	1675.24
210.54	1816.55
210.76	1718.25
210.98	1746.92
211.20	1624.04
211.42	1662.95
211.64	1820.64
211.86	1697.77
212.08	1693.67
212.30	1710.05
212.52	1730.53
212.74	1730.53
212.96	1765.35
213.17	1765.35
213.39	1724.39
213.61	1761.25
213.83	1720.29
214.05	1650.66
214.27	1724.39
214.49	1613.80
214.71	1685.48
214.93	1738.73
215.15	1701.86
215.37	1712.10
215.59	1585.13
215.81	1671.14
216.03	1802.21
216.24	1658.85
216.46	1724.39
216.68	1718.25
216.90	1730.53
217.12	1726.44
217.34	1671.14
217.56	1730.53
217.78	1720.29
218.00	1740.77
218.22	1732.58
218.44	1740.77
218.66	1685.48
218.87	1886.18
219.09	1763.30
219.31	1720.29
219.53	1761.25
219.75	1662.95
219.97	1611.75
220.19	1712.10
220.41	1675.24
220.63	1769.44
220.85	1648.61
221.06	1634.28
221.28	1785.83
221.50	1742.82
221.72	1665.00
221.94	1708.01
222.16	1710.05
222.38	1804.26
222.60	1744.87
222.82	1718.25
223.03	1814.50
223.25	1634.28
223.47	1781.73
223.69	1839.08
223.91	1710.05
224.13	1742.82
224.35	1671.14
224.57	1771.49
224.78	1763.30
225.00	1705.96
225.22	1716.20
225.44	1628.14
225.66	1767.40
225.88	1656.81
226.10	1798.12
226.32	1755.11
226.53	1763.30
226.75	1730.53
226.97	1710.05
227.19	1644.52
227.41	1642.47
227.63	1626.09
227.85	1533.93
228.06	1755.11
228.28	1746.92
228.50	1744.87
228.72	1652.71
228.94	1746.92
229.16	1589.22
229.37	1681.38
229.59	1636.33
229.81	1841.12
230.03	1638.38
230.25	1652.71
230.47	1574.89
230.69	1619.94
230.90	1722.34
231.12	1671.14
231.34	1714.15
231.56	1789.92
231.78	1658.85
232.00	1646.57
232.21	1619.94
232.43	1705.96
232.65	1558.50
232.87	1726.44
233.09	1634.28
233.30	1665.00
233.52	1751.01
233.74	1658.85
233.96	1689.57
234.18	1720.29
234.40	1599.46
234.61	1826.79
234.83	1591.27
235.05	1607.66
235.27	1845.22
235.49	1665.00
235.70	1716.20
235.92	1763.30
236.14	1667.05
236.36	1765.35
236.58	1687.53
236.79	1732.58
237.01	1662.95
237.23	1703.91
237.45	1791.97
237.67	1671.14
237.88	1714.15
238.10	1877.99
238.32	1615.85
238.54	1673.19
238.76	1630.18
238.97	1671.14
239.19	1636.33
239.41	1667.05
239.63	1726.44
239.85	1716.20
240.06	1660.90
240.28	1718.25
240.50	1759.21
240.72	1740.77
240.93	1757.16
241.15	1738.73
241.37	1724.39
241.59	1673.19
241.81	1757.16
242.02	1673.19
242.24	1648.61
242.46	1771.49
242.68	1665.00
242.89	1662.95
243.11	1734.63
243.33	1763.30
243.55	1755.11
243.76	1687.53
243.98	1732.58
244.20	1746.92
244.42	1738.73
244.64	1712.10
244.85	1703.91
245.07	1642.47
245.29	1785.83
245.51	1693.67
245.72	1695.72
245.94	1800.16
246.16	1720.29
246.38	1748.97
246.59	1683.43
246.81	1714.15
247.03	1615.85
247.24	1644.52
247.46	1673.19
247.68	1646.57
247.90	1693.67
248.11	1665.00
248.33	1808.36
248.55	1730.53
248.77	1650.66
248.98	1787.88
249.20	1849.32
249.42	1648.61
249.64	1757.16
249.85	1671.14
250.07	1679.33
250.29	1681.38
250.50	1726.44
250.72	1597.42
250.94	1759.21
251.16	1810.40
251.37	1685.48
251.59	1675.24
251.81	1693.67
252.02	1783.78
252.24	1677.29
252.46	1753.06
252.68	1683.43
252.89	1597.42
253.11	1566.70
253.33	1818.60
253.54	1740.77
253.76	1595.37
253.98	1744.87
254.20	1656.81
254.41	1574.89
254.63	1646.57
254.85	1603.56
255.06	1683.43
255.28	1718.25
255.50	1718.25
255.71	1660.90
255.93	1656.81
256.15	1632.23
256.36	1755.11
256.58	1597.42
256.80	1705.96
257.02	1650.66
257.23	1679.33
257.45	1703.91
257.67	1701.86
257.88	1675.24
258.10	1794.02
258.32	1701.86
258.53	1718.25
258.75	1808.36
258.97	1654.76
259.18	1669.09
259.40	1773.54
259.62	1818.60
259.83	1769.44
260.05	1687.53
260.27	1953.76
260.48	1744.87
260.70	1632.23
260.92	1742.82
261.13	1734.63
261.35	1660.90
261.57	1722.34
261.78	1621.99
262.00	1662.95
262.22	1738.73
262.43	1667.05
262.65	1800.16
262.86	1814.50
263.08	1855.46
263.30	1755.11
263.51	1621.99
263.73	1654.76
263.95	1738.73
264.16	1615.85
264.38	1710.05
264.60	1787.88
264.81	1644.52
265.03	1837.03
265.25	1755.11
265.46	1697.77
265.68	1699.81
265.89	1687.53
266.11	1636.33
266.33	1818.60
266.54	1701.86
266.76	1798.12
266.98	1728.49
267.19	1824.74
267.41	1722.34
267.62	1658.85
267.84	1658.85
268.06	1746.92
268.27	1685.48
268.49	1705.96
268.70	1740.77
268.92	1691.62
269.14	1673.19
269.35	1585.13
269.57	1693.67
269.79	1742.82
270.00	1626.09
270.22	1757.16
270.43	1673.19
270.65	1681.38
270.87	1753.06
271.08	1726.44
271.30	1699.81
271.51	1675.24
271.73	1755.11
271.95	1781.73
272.16	1759.21
272.38	1689.57
272.59	1613.80
272.81	1667.05
273.02	1712.10
273.24	1746.92
273.46	1791.97
273.67	1640.42
273.89	1630.18
274.10	1642.47
274.32	1730.53
274.54	1740.77
274.75	1687.53
274.97	1595.37
275.18	1796.07
275.40	1751.01
275.61	1679.33
275.83	1687.53
276.05	1611.75
276.26	1710.05
276.48	1665.00
276.69	1697.77
276.91	1648.61
277.12	1769.44
277.34	1722.34
277.55	1765.35
277.77	1689.57
277.99	1683.43
278.20	1732.58
278.42	1669.09
278.63	1656.81
278.85	1603.56
279.06	1744.87
279.28	1714.15
279.49	1738.73
279.71	1691.62
279.93	1673.19
280.14	1658.85
280.36	1751.01
280.57	1732.58
280.79	1777.64
281.00	1710.05
281.22	1681.38
281.43	1787.88
281.65	1525.74
281.86	1572.84
282.08	1695.72
282.29	1826.79
282.51	1656.81
282.73	1609.70
282.94	1603.56
283.16	1796.07
283.37	1775.59
283.59	1675.24
283.80	1640.42
284.02	1669.09
284.23	1775.59
284.45	1658.85
284.66	1652.71
284.88	1710.05
285.09	1689.57
285.31	1710.05
285.52	1839.08
285.74	1673.19
285.95	1695.72
286.17	1740.77
286.38	1798.12
286.60	1671.14
286.81	1642.47
287.03	1601.51
287.24	1669.09
287.46	1732.58
287.67	1751.01
287.89	1822.69
288.10	1681.38
288.32	1722.34
288.53	1740.77
288.75	1689.57
288.96	1738.73
289.18	1705.96
289.39	1726.44
289.61	1748.97
289.82	1798.12
290.04	1789.92
290.25	1648.61
290.47	1763.30
290.68	1632.23
290.90	1755.11
291.11	1671.14
291.33	1710.05
291.54	1591.27
291.76	1621.99
291.97	1681.38
292.18	1656.81
292.40	1619.94
292.61	1667.05
292.83	1769.44
293.04	1734.63
293.26	1726.44
293.47	1710.05
293.69	1673.19
293.90	1757.16
294.12	1712.10
294.33	1722.34
294.55	1714.15
294.76	1777.64
294.97	1714.15
295.19	1791.97
295.40	1652.71
295.62	1724.39
295.83	1785.83
296.05	1699.81
296.26	1849.32
296.48	1675.24
296.69	1662.95
296.90	1679.33
297.12	1730.53
297.33	1742.82
297.55	1683.43
297.76	1810.40
297.98	1726.44
298.19	1716.20
298.41	1722.34
298.62	1671.14
298.83	1738.73
299.05	1693.67
299.26	1603.56
299.48	1601.51
299.69	1794.02
299.90	1732.58
300.12	1605.61
300.33	1847.27
300.55	1669.09
300.76	1812.45
300.98	1621.99
301.19	1742.82
301.40	1708.01
301.62	1730.53
301.83	1746.92
302.05	1693.67
302.26	1781.73
302.47	1685.48
302.69	1589.22
302.90	1691.62
303.12	1648.61
303.33	1740.77
303.54	1732.58
303.76	1648.61
303.97	1748.97
304.19	1847.27
304.40	1607.66
304.61	1671.14
304.83	1863.65
305.04	1742.82
305.26	1705.96
305.47	1665.00
305.68	1746.92
305.90	1613.80
306.11	1794.02
306.33	1714.15
306.54	1673.19
306.75	1691.62
306.97	1693.67
307.18	1632.23
307.39	1642.47
307.61	1701.86
307.82	1691.62
308.04	1708.01
308.25	1624.04
308.46	1783.78
308.68	1691.62
308.89	1716.20
309.10	1742.82
309.32	1677.29
309.53	1705.96
309.74	1746.92
309.96	1689.57
310.17	1822.69
310.39	1705.96
310.60	1669.09
310.81	1708.01
311.03	1595.37
311.24	1726.44
311.45	1751.01
311.67	1759.21
311.88	1710.05
312.09	1669.09
312.31	1662.95
312.52	1738.73
312.73	1689.57
312.95	1656.81
313.16	1689.57
313.37	1783.78
313.59	1748.97
313.80	1685.48
314.01	1804.26
314.23	1648.61
314.44	1636.33
314.65	1544.17
314.87	1630.18
315.08	1617.90
315.29	1660.90
315.51	1656.81
315.72	1648.61
315.93	1771.49
316.15	1671.14
316.36	1734.63
316.57	1802.21
316.79	1607.66
317.00	1624.04
317.21	1703.91
317.43	1667.05
317.64	1693.67
317.85	1636.33
318.07	1665.00
318.28	1701.86
318.49	1800.16
318.70	1918.95
318.92	1808.36
319.13	1697.77
319.34	1849.32
319.56	1775.59
319.77	1851.36
319.98	1798.12
320.20	1800.16
320.41	1726.44
320.62	1728.49
320.83	1728.49
321.05	1816.55
321.26	1652.71
321.47	1671.14
321.69	1705.96
321.90	1591.27
322.11	1632.23
322.32	1726.44
322.54	1843.17
322.75	1712.10
322.96	1781.73
323.18	1593.32
323.39	1640.42
323.60	1669.09
323.81	1714.15
324.03	1611.75
324.24	1714.15
324.45	1691.62
324.66	1763.30
324.88	1648.61
325.09	1775.59
325.30	1671.14
325.52	1763.30
325.73	1720.29
325.94	1624.04
326.15	1642.47
326.37	1671.14
326.58	1787.88
326.79	1796.07
327.00	1691.62
327.22	1628.14
327.43	1662.95
327.64	1671.14
327.85	1708.01
328.07	1691.62
328.28	1773.54
328.49	1660.90
328.70	1699.81
328.92	1710.05
329.13	1660.90
329.34	1722.34
329.55	1757.16
329.76	1728.49
329.98	1671.14
330.19	1705.96
330.40	1712.10
330.61	1775.59
330.83	1734.63
331.04	1687.53
331.25	1710.05
331.46	1613.80
331.68	1734.63
331.89	1804.26
332.10	1697.77
332.31	1566.70
332.52	1744.87
332.74	1748.97
332.95	1650.66
333.16	1662.95
333.37	1665.00
333.58	1665.00
333.80	1726.44
334.01	1648.61
334.22	1734.63
334.43	1681.38
334.64	1712.10
334.86	1626.09
335.07	1544.17
335.28	1789.92
335.49	1677.29
335.70	1761.25
335.92	1746.92
336.13	1785.83
336.34	1800.16
336.55	1712.10
336.76	1683.43
336.98	1628.14
337.19	1761.25
337.40	1855.46
337.61	1857.51
337.82	1728.49
338.04	1736.68
338.25	1634.28
338.46	1748.97
338.67	1714.15
338.88	1662.95
339.09	1562.60
339.31	1634.28
339.52	1578.98
339.73	1642.47
339.94	1689.57
340.15	1751.01
340.36	1736.68
340.58	1644.52
340.79	1677.29
341.00	1626.09
341.21	1642.47
341.42	1814.50
341.63	1656.81
341.85	1726.44
342.06	1632.23
342.27	1667.05
342.48	1845.22
342.69	1527.78
342.90	1689.57
343.12	1730.53
343.33	1708.01
343.54	1757.16
343.75	1714.15
343.96	1724.39
344.17	1654.76
344.38	1701.86
344.60	1603.56
344.81	1599.46
345.02	1699.81
345.23	1777.64
345.44	1849.32
345.65	1759.21
345.86	1718.25
346.07	1761.25
346.29	1724.39
346.50	1796.07
346.71	1748.97
346.92	1751.01
347.13	1820.64
347.34	1660.90
347.55	1652.71
347.76	1615.85
347.98	1624.04
348.19	1683.43
348.40	1746.92
348.61	1730.53
348.82	1832.93
349.03	1777.64
349.24	1720.29
349.45	1902.56
349.66	1619.94
349.88	1728.49
350.09	1662.95
350.30	1718.25
350.51	1751.01
350.72	1734.63
350.93	1689.57
351.14	1630.18
351.35	1695.72
351.56	1699.81
351.77	1681.38
351.99	1658.85
352.20	1806.31
352.41	1789.92
352.62	1597.42
352.83	1716.20
353.04	1732.58
353.25	1650.66
353.46	1738.73
353.67	1718.25
353.88	1576.94
354.09	1714.15
354.30	1712.10
354.52	1759.21
354.73	1687.53
354.94	1626.09
355.15	1763.30
355.36	1804.26
355.57	1732.58
355.78	1662.95
355.99	1708.01
356.20	1634.28
356.41	1742.82
356.62	1615.85
356.83	1753.06
357.04	1736.68
357.25	1593.32
357.46	1683.43
357.68	1697.77
357.89	1648.61
358.10	1642.47
358.31	1689.57
358.52	1642.47
358.73	1615.85
358.94	1732.58
359.15	1634.28
359.36	1708.01
359.57	1708.01
359.78	1689.57
359.99	1730.53
360.20	1662.95
360.41	1687.53
360.62	1730.53
360.83	1705.96
361.04	1708.01
361.25	1697.77
361.46	1818.60
361.67	1779.68
361.88	1802.21
362.09	1710.05
362.30	1714.15
362.51	1589.22
362.72	1703.91
362.93	1730.53
363.14	1781.73
363.35	1665.00
363.56	1619.94
363.78	1675.24
363.99	1789.92
364.20	1624.04
364.41	1722.34
364.62	1794.02
364.83	1693.67
365.04	1742.82
365.25	1585.13
365.46	1830.88
365.67	1662.95
365.88	1624.04
366.09	1683.43
366.30	1634.28
366.51	1718.25
366.72	1687.53
366.93	1716.20
367.14	1722.34
367.35	1746.92
367.56	1724.39
367.77	1728.49
367.98	1726.44
368.18	1738.73
368.39	1728.49
368.60	1632.23
368.81	1667.05
369.02	1787.88
369.23	1705.96
369.44	1617.90
369.65	1642.47
369.86	1665.00
370.07	1763.30
370.28	1615.85
370.49	1687.53
370.70	1742.82
370.91	1660.90
371.12	1665.00
371.33	1775.59
371.54	1695.72
371.75	1812.45
371.96	1576.94
372.17	1798.12
372.38	1636.33
372.59	1740.77
372.80	1662.95
373.01	1646.57
373.22	1734.63
373.43	1712.10
373.64	1681.38
373.85	1771.49
374.06	1849.32
374.26	1796.07
374.47	1687.53
374.68	1781.73
374.89	1742.82
375.10	1624.04
375.31	1773.54
375.52	1724.39
375.73	1724.39
375.94	1665.00
376.15	1802.21
376.36	1648.61
376.57	1630.18
376.78	1673.19
376.99	1718.25
377.20	1783.78
377.40	1691.62
377.61	1869.80
377.82	1607.66
378.03	1746.92
378.24	1675.24
378.45	1705.96
378.66	1783.78
378.87	1574.89
379.08	1607.66
379.29	1742.82
379.50	1685.48
379.71	1712.10
379.91	1834.98
380.12	1726.44
380.33	1660.90
380.54	1687.53
380.75	1646.57
380.96	1716.20
381.17	1794.02
381.38	1718.25
381.59	1695.72
381.80	1771.49
382.00	1742.82
382.21	1736.68
382.42	1859.56
382.63	1869.80
382.84	1689.57
383.05	1800.16
383.26	1759.21
383.47	1763.30
383.68	1708.01
383.88	1777.64
384.09	1681.38
384.30	1798.12
384.51	1740.77
384.72	1726.44
384.93	1621.99
385.14	1730.53
385.35	1761.25
385.55	1642.47
385.76	1730.53
385.97	1603.56
386.18	1660.90
386.39	1669.09
386.60	1783.78
386.81	1697.77
387.02	1705.96
387.22	1654.76
387.43	1738.73
387.64	1834.98
387.85	1890.28
388.06	2154.46
388.27	4249.54
388.48	6819.74
388.68	7980.93
388.89	9572.21
389.10	9670.51
389.31	8552.32
389.52	7612.30
389.73	6533.02
389.93	6311.84
390.14	5746.60
390.35	5142.45
390.56	4513.72
390.77	3770.31
390.98	3061.71
391.18	2435.03
391.39	2205.66
391.60	1894.37
391.81	1861.60
392.02	1726.44
392.23	1890.28
392.43	1744.87
392.64	1761.25
392.85	1722.34
393.06	1841.12
393.27	1697.77
393.47	1648.61
393.68	1759.21
393.89	1665.00
394.10	1722.34
394.31	1648.61
394.52	1648.61
394.72	1646.57
394.93	1814.50
395.14	1714.15
395.35	1691.62
395.56	1748.97
395.76	1683.43
395.97	1791.97
396.18	1816.55
396.39	1832.93
396.60	2054.11
396.80	1925.09
397.01	1796.07
397.22	1785.83
397.43	1839.08
397.64	1675.24
397.84	1744.87
398.05	1826.79
398.26	1759.21
398.47	1650.66
398.67	1765.35
398.88	1689.57
399.09	1697.77
399.30	1695.72
399.51	1718.25
399.71	1701.86
399.92	1689.57
400.13	1693.67
400.34	1628.14
400.54	1665.00
400.75	1857.51
400.96	1769.44
401.17	1894.37
401.37	1718.25
401.58	1773.54
401.79	1824.74
402.00	1787.88
402.21	1968.10
402.41	1920.99
402.62	2011.11
402.83	2052.06
403.04	1986.53
403.24	2025.44
403.45	1853.41
403.66	1906.66
403.87	1875.94
404.07	1935.33
404.28	1884.13
404.49	1873.89
404.70	1705.96
404.90	1804.26
405.11	1767.40
405.32	1794.02
405.52	1716.20
405.73	1638.38
405.94	1617.90
406.15	1677.29
406.35	1804.26
406.56	1798.12
406.77	1648.61
406.98	1763.30
407.18	1681.38
407.39	1693.67
407.60	1689.57
407.80	1718.25
408.01	1685.48
408.22	1720.29
408.43	1683.43
408.63	1703.91
408.84	1818.60
409.05	1675.24
409.25	1740.77
409.46	1710.05
409.67	1679.33
409.88	1710.05
410.08	1744.87
410.29	1718.25
410.50	1732.58
410.70	1703.91
410.91	1652.71
411.12	1730.53
411.32	1689.57
411.53	1634.28
411.74	1834.98
411.95	1767.40
412.15	1710.05
412.36	1812.45
412.57	1755.11
412.77	1859.56
412.98	1699.81
413.19	1693.67
413.39	1726.44
413.60	1775.59
413.81	1837.03
414.01	1591.27
414.22	1779.68
414.43	1724.39
414.63	1636.33
414.84	1728.49
415.05	1740.77
415.25	1652.71
415.46	1662.95
415.67	1656.81
415.87	1740.77
416.08	1730.53
416.29	1710.05
416.49	1748.97
416.70	1671.14
416.91	1650.66
417.11	1640.42
417.32	1787.88
417.53	1720.29
417.73	1695.72
417.94	1654.76
418.15	1644.52
418.35	1753.06
418.56	1712.10
418.77	1886.18
418.97	1759.21
419.18	1685.48
419.38	1615.85
419.59	1648.61
419.80	1791.97
420.00	1734.63
420.21	1634.28
420.42	1761.25
420.62	1726.44
420.83	1708.01
421.04	1703.91
421.24	1746.92
421.45	1728.49
421.65	1693.67
421.86	1695.72
422.07	1757.16
422.27	1714.15
422.48	1710.05
422.69	1634.28
422.89	1712.10
423.10	1675.24
423.30	1654.76
423.51	1730.53
423.72	1748.97
423.92	1726.44
424.13	1626.09
424.33	1677.29
424.54	1722.34
424.75	1669.09
424.95	1834.98
425.16	1705.96
425.36	1619.94
425.57	1853.41
425.78	1708.01
425.98	1802.21
426.19	1720.29
426.39	1601.51
426.60	1658.85
426.81	1816.55
427.01	1761.25
427.22	1685.48
427.42	1646.57
427.63	1705.96
427.83	1820.64
428.04	1847.27
428.25	1810.40
428.45	1718.25
428.66	1701.86
428.86	1732.58
429.07	1716.20
429.28	1775.59
429.48	1689.57
429.69	1615.85
429.89	1718.25
430.10	1665.00
430.30	1658.85
430.51	1765.35
430.71	1669.09
430.92	1701.86
431.13	1705.96
431.33	1775.59
431.54	1720.29
431.74	1816.55
431.95	1918.95
432.15	1677.29
432.36	1724.39
432.56	1751.01
432.77	1804.26
432.98	1787.88
433.18	1677.29
433.39	1689.57
433.59	1734.63
433.80	1841.12
434.00	1865.70
434.21	1779.68
434.41	1740.77
434.62	1783.78
434.82	1615.85
435.03	1705.96
435.23	1714.15
435.44	1591.27
435.64	1699.81
435.85	1724.39
436.06	1710.05
436.26	1775.59
436.47	1699.81
436.67	1632.23
436.88	1644.52
437.08	1714.15
437.29	1740.77
437.49	1679.33
437.70	1777.64
437.90	1718.25
438.11	1808.36
438.31	1787.88
438.52	1798.12
438.72	1867.75
438.93	1918.95
439.13	1828.84
439.34	1796.07
439.54	1705.96
439.75	1783.78
439.95	1845.22
440.16	1724.39
440.36	1726.44
440.57	1800.16
440.77	1732.58
440.98	1738.73
441.18	1816.55
441.39	1667.05
441.59	1642.47
441.80	1816.55
442.00	1728.49
442.21	1771.49
442.41	1632.23
442.62	1783.78
442.82	1753.06
443.02	1697.77
443.23	1728.49
443.43	1656.81
443.64	1794.02
443.84	1624.04
444.05	1822.69
444.25	1722.34
444.46	1712.10
444.66	1724.39
444.87	1779.68
445.07	1708.01
445.28	1781.73
445.48	1837.03
445.69	1834.98
445.89	1800.16
446.09	1689.57
446.30	2033.63
446.50	2656.22
446.71	3674.06
446.91	4337.60
447.12	4673.46
447.32	4816.82
447.53	4323.26
447.73	3925.96
447.93	3475.40
448.14	3370.96
448.34	3231.69
448.55	2926.55
448.75	2869.20
448.96	2770.90
449.16	2424.80
449.36	2240.48
449.57	2017.25
449.77	1918.95
449.98	1738.73
450.18	1800.16
450.39	1812.45
450.59	1748.97
450.79	1751.01
451.00	1726.44
451.20	1828.84
451.41	1742.82
451.61	1769.44
451.81	1607.66
452.02	1705.96
452.22	1722.34
452.43	1755.11
452.63	1722.34
452.84	1722.34
453.04	1703.91
453.24	1681.38
453.45	1740.77
453.65	1603.56
453.86	1732.58
454.06	1781.73
454.26	1755.11
454.47	1681.38
454.67	1759.21
454.87	1740.77
455.08	1730.53
455.28	1886.18
455.49	1773.54
455.69	1722.34
455.89	1914.85
456.10	1820.64
456.30	1781.73
456.51	1769.44
456.71	1691.62
456.91	1710.05
457.12	1732.58
457.32	1763.30
457.52	1689.57
457.73	1755.11
457.93	1783.78
458.14	1730.53
458.34	1636.33
458.54	1730.53
458.75	1693.67
458.95	1802.21
459.15	1742.82
459.36	1667.05
459.56	1779.68
459.76	1826.79
459.97	1742.82
460.17	1767.40
460.37	1744.87
460.58	1722.34
460.78	1808.36
460.99	1683.43
461.19	1726.44
461.39	1720.29
461.60	1716.20
461.80	1675.24
462.00	1667.05
462.21	1679.33
462.41	1734.63
462.61	1671.14
462.82	1685.48
463.02	1718.25
463.22	1724.39
463.43	1724.39
463.63	1791.97
463.83	1781.73
464.04	1783.78
464.24	1726.44
464.44	1691.62
464.64	1724.39
464.85	1798.12
465.05	1785.83
465.25	1675.24
465.46	1769.44
465.66	1820.64
465.86	1769.44
466.07	1730.53
466.27	1724.39
466.47	1562.60
466.68	1583.08
466.88	1783.78
467.08	1738.73
467.29	1785.83
467.49	1714.15
467.69	1714.15
467.89	1771.49
468.10	1699.81
468.30	1701.86
468.50	1796.07
468.71	1658.85
468.91	1640.42
469.11	1869.80
469.31	1689.57
469.52	1634.28
469.72	1847.27
469.92	1822.69
470.13	1701.86
470.33	1748.97
470.53	1796.07
470.73	2129.89
470.94	2375.64
471.14	2316.25
471.34	2592.73
471.54	2414.56
471.75	2156.51
471.95	2088.93
472.15	2062.30
472.36	2113.50
472.56	2029.54
472.76	2015.20
472.96	1947.62
473.17	1939.43
473.37	1939.43
473.57	1773.54
473.77	1837.03
473.98	1779.68
474.18	1677.29
474.38	1830.88
474.58	1677.29
474.79	1675.24
474.99	1812.45
475.19	1718.25
475.39	1681.38
475.60	1738.73
475.80	1714.15
476.00	1779.68
476.20	1687.53
476.41	1779.68
476.61	1820.64
476.81	1806.31
477.01	1693.67
477.21	1859.56
477.42	1748.97
477.62	1656.81
477.82	1736.68
478.02	1644.52
478.23	1763.30
478.43	1734.63
478.63	1658.85
478.83	1765.35
479.03	1619.94
479.24	1798.12
479.44	1832.93
479.64	1703.91
479.84	1667.05
480.04	1716.20
480.25	1787.88
480.45	1710.05
480.65	1683.43
480.85	1816.55
481.06	1751.01
481.26	1665.00
481.46	1685.48
481.66	1834.98
481.86	1648.61
482.06	1751.01
482.27	1724.39
482.47	1718.25
482.67	1732.58
482.87	1697.77
483.07	1800.16
483.28	1693.67
483.48	1677.29
483.68	1767.40
483.88	1628.14
484.08	1705.96
484.29	1710.05
484.49	1705.96
484.69	1722.34
484.89	1832.93
485.09	1812.45
485.29	1759.21
485.50	1802.21
485.70	1595.37
485.90	1820.64
486.10	1744.87
486.30	1783.78
486.50	1783.78
486.71	1722.34
486.91	1753.06
487.11	1724.39
487.31	1607.66
487.51	1687.53
487.71	1619.94
487.91	1687.53
488.12	1669.09
488.32	1632.23
488.52	1665.00
488.72	1601.51
488.92	1736.68
489.12	1771.49
489.32	1779.68
489.53	1783.78
489.73	1669.09
489.93	1765.35
490.13	1701.86
490.33	1734.63
490.53	1736.68
490.73	1697.77
490.94	1662.95
491.14	1761.25
491.34	1783.78
491.54	2172.89
491.74	2484.19
491.94	2979.79
492.14	3006.42
492.34	3030.99
492.54	2785.24
492.75	2508.76
492.95	2451.42
493.15	2248.67
493.35	2244.57
493.55	2168.80
493.75	2068.45
493.95	2088.93
494.15	2043.87
494.35	1839.08
494.56	1834.98
494.76	1755.11
494.96	1826.79
495.16	1845.22
495.36	1628.14
495.56	1763.30
495.76	1744.87
495.96	1697.77
496.16	1710.05
496.36	1847.27
496.56	1732.58
496.77	1722.34
496.97	1671.14
497.17	1730.53
497.37	1581.03
497.57	1810.40
497.77	1759.21
497.97	1667.05
498.17	1701.86
498.37	1712.10
498.57	1779.68
498.77	1658.85
498.97	1759.21
499.17	1882.08
499.38	1693.67
499.58	1771.49
499.78	1832.93
499.98	1791.97
500.18	1781.73
500.38	1626.09
500.58	1923.04
500.78	2580.44
500.98	4435.90
501.18	5812.14
501.38	6772.63
501.58	7102.36
501.78	6694.81
501.98	5566.38
502.18	4927.41
502.38	4384.70
502.58	4212.67
502.78	3923.91
502.98	3663.82
503.18	3456.97
503.38	3096.53
503.59	2848.72
503.79	2697.17
503.99	2473.95
504.19	2263.01
504.39	2281.44
504.59	2133.98
504.79	2164.70
504.99	2041.82
505.19	1882.08
505.39	1923.04
505.59	1982.43
505.79	1939.43
505.99	1906.66
506.19	1804.26
506.39	1851.36
506.59	1804.26
506.79	1714.15
506.99	1837.03
507.19	1742.82
507.39	1730.53
507.59	1626.09
507.79	1736.68
507.99	1636.33
508.19	1693.67
508.39	1751.01
508.59	1671.14
508.79	1820.64
508.99	1824.74
509.19	1732.58
509.39	1763.30
509.59	1665.00
509.79	1728.49
509.99	1755.11
510.19	1802.21
510.39	1791.97
510.59	1722.34
510.79	1757.16
510.99	1613.80
511.19	1718.25
511.39	1826.79
511.59	1779.68
511.79	1822.69
511.99	1748.97
512.19	1859.56
512.38	1742.82
512.58	1642.47
512.78	1683.43
512.98	1843.17
513.18	1783.78
513.38	1689.57
513.58	1773.54
513.78	1728.49
513.98	1701.86
514.18	1730.53
514.38	1671.14
514.58	1730.53
514.78	1685.48
514.98	1689.57
515.18	1738.73
515.38	1712.10
515.58	1839.08
515.78	1646.57
515.98	1763.30
516.18	1759.21
516.38	1767.40
516.57	1701.86
516.77	1699.81
516.97	1753.06
517.17	1681.38
517.37	1724.39
517.57	1787.88
517.77	1724.39
517.97	1726.44
518.17	1755.11
518.37	1724.39
518.57	1658.85
518.77	1718.25
518.97	1705.96
519.16	1777.64
519.36	1804.26
519.56	1730.53
519.76	1722.34
519.96	1736.68
520.16	1800.16
520.36	1648.61
520.56	1804.26
520.76	1703.91
520.96	1724.39
521.16	1718.25
521.35	1822.69
521.55	1834.98
521.75	1722.34
521.95	1665.00
522.15	1710.05
522.35	1708.01
522.55	1695.72
522.75	1806.31
522.95	1738.73
523.14	1626.09
523.34	1677.29
523.54	1671.14
523.74	1751.01
523.94	1808.36
524.14	1638.38
524.34	1738.73
524.54	1800.16
524.73	1652.71
524.93	1730.53
525.13	1722.34
525.33	1628.14
525.53	1873.89
525.73	1765.35
525.93	1753.06
526.13	1763.30
526.32	1701.86
526.52	1705.96
526.72	1765.35
526.92	1710.05
527.12	1716.20
527.32	1683.43
527.52	1703.91
527.71	1775.59
527.91	1779.68
528.11	1726.44
528.31	1773.54
528.51	1681.38
528.71	1812.45
528.90	1736.68
529.10	1697.77
529.30	1830.88
529.50	1589.22
529.70	1701.86
529.90	1742.82
530.09	1773.54
530.29	1648.61
530.49	1789.92
530.69	1894.37
530.89	1804.26
531.09	1728.49
531.28	1724.39
531.48	1791.97
531.68	1796.07
531.88	1722.34
532.08	1859.56
532.28	1720.29
532.47	1779.68
532.67	1767.40
532.87	1763.30
533.07	1673.19
533.27	1783.78
533.46	1708.01
533.66	1755.11
533.86	1681.38
534.06	1705.96
534.26	1736.68
534.45	1687.53
534.65	1701.86
534.85	1753.06
535.05	1662.95
535.25	1771.49
535.44	1630.18
535.64	1824.74
535.84	1722.34
536.04	1701.86
536.24	1669.09
536.43	1740.77
536.63	1781.73
536.83	1763.30
537.03	1669.09
537.22	1699.81
537.42	1708.01
537.62	1789.92
537.82	1683.43
538.02	1812.45
538.21	1779.68
538.41	1849.32
538.61	1753.06
538.81	1662.95
539.00	1804.26
539.20	1671.14
539.40	1765.35
539.60	1748.97
539.79	1710.05
539.99	1769.44
540.19	1742.82
540.39	1720.29
540.58	1734.63
540.78	1765.35
540.98	1730.53
541.18	1787.88
541.37	1806.31
541.57	1763.30
541.77	1693.67
541.97	1705.96
542.16	1703.91
542.36	1697.77
542.56	1728.49
542.76	1888.23
542.95	1812.45
543.15	1779.68
543.35	1775.59
543.54	1693.67
543.74	1703.91
543.94	1763.30
544.14	1695.72
544.33	1771.49
544.53	1732.58
544.73	1683.43
544.93	1732.58
545.12	1697.77
545.32	1714.15
545.52	1773.54
545.71	1656.81
545.91	1740.77
546.11	1634.28
546.30	1703.91
546.50	1703.91
546.70	1769.44
546.90	1703.91
547.09	1597.42
547.29	1755.11
547.49	1834.98
547.68	1771.49
547.88	1701.86
548.08	1822.69
548.27	2150.37
548.47	1691.62
548.67	1722.34
548.87	1820.64
549.06	1742.82
549.26	1695.72
549.46	1673.19
549.65	1740.77
549.85	1755.11
550.05	1763.30
550.24	1624.04
550.44	1722.34
550.64	1759.21
550.83	1699.81
551.03	1832.93
551.23	1796.07
551.42	1855.46
551.62	1738.73
551.82	1691.62
552.01	1679.33
552.21	1763.30
552.41	1753.06
552.60	1837.03
552.80	1796.07
553.00	1753.06
553.19	1732.58
553.39	1828.84
553.59	1683.43
553.78	1806.31
553.98	1798.12
554.17	1617.90
554.37	1746.92
554.57	1775.59
554.76	1665.00
554.96	1689.57
555.16	1765.35
555.35	1738.73
555.55	1828.84
555.75	1781.73
555.94	1845.22
556.14	1695.72
556.33	1755.11
556.53	1748.97
556.73	1699.81
556.92	1800.16
557.12	1779.68
557.32	1865.70
557.51	1816.55
557.71	1771.49
557.90	1732.58
558.10	1769.44
558.30	1712.10
558.49	1716.20
558.69	1728.49
558.88	1730.53
559.08	1781.73
559.28	1742.82
559.47	1767.40
559.67	1794.02
559.86	1812.45
560.06	1722.34
560.26	1669.09
560.45	1828.84
560.65	1753.06
560.84	1843.17
561.04	1718.25
561.24	1720.29
561.43	1644.52
561.63	1783.78
561.82	1771.49
562.02	1751.01
562.22	1679.33
562.41	1734.63
562.61	1701.86
562.80	1673.19
563.00	1890.28
563.19	1796.07
563.39	1718.25
563.59	1777.64
563.78	1730.53
563.98	1628.14
564.17	1722.34
564.37	1658.85
564.56	1755.11
564.76	1603.56
564.96	1804.26
565.15	1681.38
565.35	1826.79
565.54	1642.47
565.74	1791.97
565.93	1705.96
566.13	1771.49
566.32	1757.16
566.52	1865.70
566.71	1763.30
566.91	1728.49
567.11	1716.20
567.30	1732.58
567.50	1718.25
567.69	1656.81
567.89	1757.16
568.08	1757.16
568.28	1810.40
568.47	1695.72
568.67	1789.92
568.86	1740.77
569.06	1826.79
569.25	1763.30
569.45	1669.09
569.64	1675.24
569.84	1693.67
570.04	1751.01
570.23	1673.19
570.43	1667.05
570.62	1798.12
570.82	1863.65
571.01	1701.86
571.21	1681.38
571.40	1638.38
571.60	1785.83
571.79	1736.68
571.99	1845.22
572.18	1632.23
572.38	1802.21
572.57	1681.38
572.77	1691.62
572.96	1880.04
573.16	1724.39
573.35	1689.57
573.55	1877.99
573.74	1798.12
573.94	1726.44
574.13	1800.16
574.33	1820.64
574.52	1851.36
574.71	1718.25
574.91	1740.77
575.10	1632.23
575.30	1714.15
575.49	1689.57
575.69	1671.14
575.88	1722.34
576.08	1732.58
576.27	1857.51
576.47	1765.35
576.66	1773.54
576.86	1812.45
577.05	1699.81
577.25	1740.77
577.44	1834.98
577.64	1660.90
577.83	1800.16
578.02	1730.53
578.22	1849.32
578.41	1820.64
578.61	1783.78
578.80	1650.66
579.00	1830.88
579.19	1724.39
579.39	1697.77
579.58	1902.56
579.77	1740.77
579.97	1841.12
580.16	1761.25
580.36	1818.60
580.55	1798.12
580.75	1791.97
580.94	1822.69
581.13	1849.32
581.33	1826.79
581.52	1710.05
581.72	1798.12
581.91	1824.74
582.11	1691.62
582.30	1804.26
582.49	1781.73
582.69	1914.85
582.88	1791.97
583.08	1742.82
583.27	1796.07
583.47	1789.92
583.66	1773.54
583.85	1773.54
584.05	1703.91
584.24	1787.88
584.44	1777.64
584.63	1816.55
584.82	1853.41
585.02	1800.16
585.21	1839.08
585.41	1900.52
585.60	1783.78
585.79	1912.80
585.99	1914.85
586.18	1886.18
586.37	2150.37
586.57	3325.90
586.76	9842.54
586.96	24356.49
587.15	34536.94
587.34	40269.21
587.54	42042.75
587.73	36476.37
587.93	26306.16
588.12	21546.68
588.31	18216.68
588.51	16346.89
588.70	15027.99
588.89	14155.56
589.09	12433.22
589.28	11241.30
589.47	9480.05
589.67	8069.00
589.86	6410.14
590.06	4986.80
590.25	4024.26
590.44	3125.20
590.64	2648.02
590.83	2226.14
591.02	2103.26
591.22	1992.67
591.41	1896.42
591.60	1812.45
591.80	1961.95
591.99	1751.01
592.18	1773.54
592.38	1865.70
592.57	1738.73
592.76	1767.40
592.96	1816.55
593.15	1822.69
593.34	1871.84
593.54	1763.30
593.73	1757.16
593.92	1773.54
594.12	1734.63
594.31	1718.25
594.50	1757.16
594.70	1800.16
594.89	1923.04
595.08	1642.47
595.28	1810.40
595.47	1982.43
595.66	1863.65
595.86	1640.42
596.05	1730.53
596.24	1697.77
596.43	1871.84
596.63	1884.13
596.82	1804.26
597.01	1757.16
597.21	1804.26
597.40	1869.80
597.59	1761.25
597.79	1796.07
597.98	1740.77
598.17	1740.77
598.36	1800.16
598.56	1804.26
598.75	1714.15
598.94	1763.30
599.14	1775.59
599.33	1748.97
599.52	1757.16
599.71	1697.77
599.91	1800.16
600.10	1738.73
600.29	1734.63
600.48	1773.54
600.68	1720.29
600.87	1794.02
601.06	1712.10
601.26	1644.52
601.45	1794.02
601.64	1665.00
601.83	1781.73
602.03	1712.10
602.22	1738.73
602.41	1826.79
602.60	1861.60
602.80	1773.54
602.99	1791.97
603.18	1710.05
603.37	1718.25
603.57	1802.21
603.76	1810.40
603.95	1748.97
604.14	1734.63
604.34	1755.11
604.53	1759.21
604.72	1615.85
604.91	1773.54
605.10	1824.74
605.30	1679.33
605.49	1810.40
605.68	1742.82
605.87	1804.26
606.07	1693.67
606.26	1689.57
606.45	1796.07
606.64	1779.68
606.84	1699.81
607.03	1697.77
607.22	1748.97
607.41	1669.09
607.60	1738.73
607.80	1828.84
607.99	1660.90
608.18	1769.44
608.37	1812.45
608.56	1718.25
608.76	1748.97
608.95	1789.92
609.14	1748.97
609.33	1761.25
609.52	1845.22
609.72	1685.48
609.91	1824.74
610.10	1703.91
610.29	1853.41
610.48	1742.82
610.68	1798.12
610.87	1687.53
611.06	1734.63
611.25	1773.54
611.44	1804.26
611.63	1701.86
611.83	1824.74
612.02	1652.71
612.21	1763.30
612.40	1628.14
612.59	1681.38
612.79	1632.23
612.98	1753.06
613.17	1753.06
613.36	1671.14
613.55	1828.84
613.74	1710.05
613.93	1662.95
614.13	1736.68
614.32	1683.43
614.51	1751.01
614.70	1667.05
614.89	1671.14
615.08	1787.88
615.28	2095.07
615.47	1599.46
615.66	1751.01
615.85	1724.39
616.04	1812.45
616.23	1691.62
616.42	1646.57
616.62	1806.31
616.81	1769.44
617.00	1767.40
617.19	1771.49
617.38	1714.15
617.57	1724.39
617.76	1843.17
617.95	1732.58
618.15	1806.31
618.34	1779.68
618.53	1691.62
618.72	1767.40
618.91	1796.07
619.10	1798.12
619.29	1759.21
619.48	1710.05
619.68	1654.76
619.87	1755.11
620.06	1665.00
620.25	1718.25
620.44	1665.00
620.63	1660.90
620.82	1689.57
621.01	1738.73
621.20	1710.05
621.39	1726.44
621.59	1742.82
621.78	1677.29
621.97	1710.05
622.16	1718.25
622.35	1730.53
622.54	1738.73
622.73	1726.44
622.92	1652.71
623.11	1822.69
623.30	1708.01
623.49	1757.16
623.68	1675.24
623.88	1806.31
624.07	1660.90
624.26	1708.01
624.45	1714.15
624.64	1710.05
624.83	1705.96
625.02	1673.19
625.21	1738.73
625.40	1638.38
625.59	1753.06
625.78	1728.49
625.97	1759.21
626.16	1748.97
626.35	1781.73
626.54	1740.77
626.74	1789.92
626.93	1615.85
627.12	1742.82
627.31	1710.05
627.50	1687.53
627.69	1744.87
627.88	1685.48
628.07	1701.86
628.26	1669.09
628.45	1736.68
628.64	1624.04
628.83	1726.44
629.02	1695.72
629.21	1693.67
629.40	1689.57
629.59	1675.24
629.78	1677.29
629.97	1724.39
630.16	1640.42
630.35	1685.48
630.54	1718.25
630.73	1673.19
630.92	1701.86
631.11	1662.95
631.30	1673.19
631.49	1781.73
631.68	1683.43
631.87	1800.16
632.06	1656.81
632.25	1802.21
632.44	1753.06
632.63	1738.73
632.82	1632.23
633.01	1718.25
633.20	1748.97
633.39	1681.38
633.58	1626.09
633.77	1753.06
633.96	1726.44
634.15	1763.30
634.34	1781.73
634.53	1697.77
634.72	1669.09
634.91	1652.71
635.10	1761.25
635.29	1755.11
635.48	1728.49
635.67	1685.48
635.86	1613.80
636.05	1785.83
636.24	1746.92
636.43	1712.10
636.62	1669.09
636.81	1583.08
637.00	1787.88
637.19	1714.15
637.38	1679.33
637.57	1705.96
637.76	1699.81
637.95	1787.88
638.14	1656.81
638.33	1634.28
638.52	1626.09
638.71	1685.48
638.89	1634.28
639.08	1918.95
639.27	1722.34
639.46	1667.05
639.65	1775.59
639.84	1751.01
640.03	1773.54
640.22	1689.57
640.41	1814.50
640.60	1671.14
640.79	1619.94
640.98	1681.38
641.17	1755.11
641.36	1748.97
641.55	1708.01
641.74	1687.53
641.92	1673.19
642.11	1630.18
642.30	1806.31
642.49	1611.75
642.68	1660.90
642.87	1775.59
643.06	1820.64
643.25	1757.16
643.44	1603.56
643.63	1767.40
643.82	1820.64
644.00	1665.00
644.19	1742.82
644.38	1619.94
644.57	1773.54
644.76	1781.73
644.95	1695.72
645.14	1642.47
645.33	1726.44
645.52	1697.77
645.71	1677.29
645.89	1615.85
646.08	1763.30
646.27	1669.09
646.46	1845.22
646.65	1603.56
646.84	1681.38
647.03	1679.33
647.22	1751.01
647.40	1701.86
647.59	1718.25
647.78	1605.61
647.97	1695.72
648.16	1644.52
648.35	1822.69
648.54	1830.88
648.73	1716.20
648.91	1789.92
649.10	1798.12
649.29	1652.71
649.48	1703.91
649.67	1697.77
649.86	1734.63
650.05	1630.18
650.23	1734.63
650.42	1738.73
650.61	1738.73
650.80	1703.91
650.99	1951.71
651.18	1812.45
651.36	1845.22
651.55	1732.58
651.74	1759.21
651.93	1669.09
652.12	1632.23
652.31	1681.38
652.49	1691.62
652.68	1742.82
652.87	1804.26
653.06	1730.53
653.25	1812.45
653.44	1693.67
653.62	1800.16
653.81	1662.95
654.00	1757.16
654.19	1808.36
654.38	1855.46
654.56	1789.92
654.75	1787.88
654.94	1773.54
655.13	1695.72
655.32	1714.15
655.51	1761.25
655.69	1722.34
655.88	1765.35
656.07	1685.48
656.26	1734.63
656.45	1687.53
656.63	1660.90
656.82	1765.35
657.01	1791.97
657.20	1689.57
657.38	1791.97
657.57	1669.09
657.76	1679.33
657.95	1693.67
658.14	1642.47
658.32	1714.15
658.51	1650.66
658.70	1740.77
658.89	1779.68
659.08	1726.44
659.26	1800.16
659.45	1695.72
659.64	1636.33
659.83	1583.08
660.01	1902.56
660.20	1673.19
660.39	1804.26
660.58	1564.65
660.76	1804.26
660.95	1644.52
661.14	1763.30
661.33	1607.66
661.51	1685.48
661.70	1773.54
661.89	1804.26
662.08	1679.33
662.26	1638.38
662.45	1615.85
662.64	1853.41
662.83	1685.48
663.01	1644.52
663.20	1738.73
663.39	1783.78
663.58	1675.24
663.76	1746.92
663.95	1669.09
664.14	1777.64
664.32	1685.48
664.51	1621.99
664.70	1615.85
664.89	1695.72
665.07	1576.94
665.26	1728.49
665.45	1701.86
665.64	1804.26
665.82	1689.57
666.01	1800.16
666.20	1656.81
666.38	1763.30
666.57	1814.50
666.76	2093.02
666.95	4454.33
667.13	10143.59
667.32	15175.45
667.51	17878.77
667.69	18855.65
667.88	17526.52
668.07	12420.93
668.25	9357.17
668.44	8204.16
668.63	7313.30
668.81	6721.43
669.00	6240.16
669.19	5666.73
669.38	4982.71
669.56	4532.15
669.75	4046.79
669.94	3422.16
670.12	2758.61
670.31	2541.53
670.50	2279.39
670.68	2109.41
670.87	1923.04
671.06	1857.51
671.24	1818.60
671.43	1773.54
671.62	1746.92
671.80	1632.23
671.99	1716.20
672.18	1832.93
672.36	1800.16
672.55	1744.87
672.74	1650.66
672.92	1652.71
673.11	1800.16
673.29	1662.95
673.48	1798.12
673.67	1679.33
673.85	1781.73
674.04	1703.91
674.23	1691.62
674.41	1816.55
674.60	1599.46
674.79	1656.81
674.97	1703.91
675.16	1712.10
675.34	1787.88
675.53	1726.44
675.72	1681.38
675.90	1734.63
676.09	1695.72
676.28	1726.44
676.46	1617.90
676.65	1837.03
676.83	1660.90
677.02	1679.33
677.21	1665.00
677.39	1681.38
677.58	1650.66
677.77	1667.05
677.95	1673.19
678.14	1611.75
678.32	1724.39
678.51	1687.53
678.70	1841.12
678.88	1744.87
679.07	1730.53
679.25	1779.68
679.44	1679.33
679.63	1621.99
679.81	1675.24
680.00	1830.88
680.18	1708.01
680.37	1789.92
680.55	1732.58
680.74	1685.48
680.93	1572.84
681.11	1771.49
681.30	1759.21
681.48	1697.77
681.67	1640.42
681.85	1677.29
682.04	1642.47
682.23	1742.82
682.41	1740.77
682.60	1714.15
682.78	1621.99
682.97	1642.47
683.15	1759.21
683.34	1722.34
683.53	1689.57
683.71	1677.29
683.90	1822.69
684.08	1830.88
684.27	1628.14
684.45	1728.49
684.64	1701.86
684.82	1683.43
685.01	1691.62
685.19	1726.44
685.38	1839.08
685.57	1685.48
685.75	1675.24
685.94	1675.24
686.12	1658.85
686.31	1699.81
686.49	1769.44
686.68	1613.80
686.86	1705.96
687.05	1681.38
687.23	1724.39
687.42	1718.25
687.60	1654.76
687.79	1783.78
687.97	1798.12
688.16	1783.78
688.34	1800.16
688.53	1654.76
688.71	1697.77
688.90	1802.21
689.08	1652.71
689.27	1619.94
689.45	1753.06
689.64	1738.73
689.82	1685.48
690.01	1718.25
690.19	1679.33
690.38	1808.36
690.56	1800.16
690.75	1681.38
690.93	1660.90
691.12	1691.62
691.30	1773.54
691.49	1699.81
691.67	1708.01
691.86	1824.74
692.04	1669.09
692.23	1613.80
692.41	1708.01
692.60	1722.34
692.78	1763.30
692.97	1744.87
693.15	1808.36
693.34	1800.16
693.52	1714.15
693.71	1740.77
693.89	1738.73
694.08	1646.57
694.26	1673.19
694.44	1746.92
694.63	1720.29
694.81	1665.00
695.00	1681.38
695.18	1740.77
695.37	1828.84
695.55	1736.68
695.74	1615.85
695.92	1632.23
696.10	1730.53
696.29	1607.66
696.47	1730.53
696.66	1605.61
696.84	1669.09
697.03	1685.48
697.21	1843.17
697.40	2273.25
697.58	1812.45
697.76	1699.81
697.95	1677.29
698.13	1677.29
698.32	1730.53
698.50	1734.63
698.68	1656.81
698.87	1693.67
699.05	1785.83
699.24	1722.34
699.42	1652.71
699.61	1761.25
699.79	1730.53
699.97	1718.25
700.16	1681.38
700.34	1601.51
700.53	1755.11
700.71	1740.77
700.89	1718.25
701.08	1757.16
701.26	1658.85
701.45	2068.45
701.63	1638.38
701.81	1734.63
702.00	1697.77
702.18	1710.05
702.37	1673.19
702.55	1685.48
702.73	1687.53
702.92	1628.14
703.10	1722.34
703.28	1734.63
703.47	1640.42
703.65	1714.15
703.84	1755.11
704.02	1679.33
704.20	1791.97
704.39	1601.51
704.57	1685.48
704.75	1673.19
704.94	1808.36
705.12	1728.49
705.30	1785.83
705.49	2209.76
705.67	4349.89
705.86	9471.86
706.04	12529.47
706.22	14360.36
706.41	15337.24
706.59	13678.38
706.77	9617.26
706.96	7360.40
707.14	6594.46
707.32	5986.21
707.51	5463.98
707.69	4820.92
707.87	4235.20
708.06	3438.54
708.24	2975.70
708.42	2394.08
708.61	2330.59
708.79	1908.71
708.97	1863.65
709.16	1837.03
709.34	1740.77
709.52	1710.05
709.71	1765.35
709.89	1675.24
710.07	1705.96
710.26	1611.75
710.44	1736.68
710.62	1830.88
710.80	1740.77
710.99	1722.34
711.17	1662.95
711.35	1689.57
711.54	1738.73
711.72	1785.83
711.90	1759.21
712.09	1697.77
712.27	1677.29
712.45	1662.95
712.63	1681.38
712.82	1730.53
713.00	1703.91
713.18	1720.29
713.37	1738.73
713.55	1740.77
713.73	1761.25
713.91	1755.11
714.10	1716.20
714.28	1744.87
714.46	1691.62
714.65	1730.53
714.83	1665.00
715.01	1685.48
715.19	1630.18
715.38	1583.08
715.56	1787.88
715.74	1675.24
715.92	1665.00
716.11	1703.91
716.29	1601.51
716.47	1726.44
716.65	1660.90
716.84	1603.56
717.02	1683.43
717.20	1669.09
717.38	1673.19
717.57	1740.77
717.75	1658.85
717.93	1611.75
718.11	1789.92
718.30	1572.84
718.48	1755.11
718.66	1808.36
718.84	1736.68
719.03	1710.05
719.21	1699.81
719.39	1806.31
719.57	1783.78
719.75	1716.20
719.94	1681.38
720.12	1742.82
720.30	1740.77
720.48	1759.21
720.67	1728.49
720.85	1574.89
721.03	1648.61
721.21	1642.47
721.39	1693.67
721.58	1695.72
721.76	1689.57
721.94	1771.49
722.12	1705.96
722.30	1781.73
722.49	1718.25
722.67	1722.34
722.85	1748.97
723.03	1642.47
723.21	1669.09
723.40	1742.82
723.58	1730.53
723.76	1685.48
723.94	1777.64
724.12	1652.71
724.30	1730.53
724.49	1753.06
724.67	1615.85
724.85	1708.01
725.03	1593.32
725.21	1746.92
725.40	1744.87
725.58	1685.48
725.76	1697.77
725.94	1804.26
726.12	1628.14
726.30	1691.62
726.49	1783.78
726.67	1693.67
726.85	1746.92
727.03	1771.49
727.21	2199.52
727.39	2889.68
727.57	3887.04
727.76	4227.01
727.94	4431.80
728.12	4423.61
728.30	3690.44
728.48	3061.71
728.66	2721.75
728.84	2521.05
729.03	2287.58
729.21	2207.71
729.39	2054.11
729.57	1839.08
729.75	1794.02
729.93	1816.55
730.11	1728.49
730.30	1726.44
730.48	1710.05
730.66	1755.11
730.84	1695.72
731.02	1640.42
731.20	1652.71
731.38	1708.01
731.56	1609.70
731.74	1593.32
731.93	1652.71
732.11	1753.06
732.29	1667.05
732.47	1834.98
732.65	1695.72
732.83	1763.30
733.01	1683.43
733.19	1644.52
733.37	1687.53
733.56	1726.44
733.74	1675.24
733.92	1773.54
734.10	1718.25
734.28	1703.91
734.46	1644.52
734.64	1695.72
734.82	1673.19
735.00	1673.19
735.18	1716.20
735.36	1732.58
735.54	1697.77
735.73	1683.43
735.91	1755.11
736.09	1826.79
736.27	1714.15
736.45	1800.16
736.63	1605.61
736.81	1628.14
736.99	1708.01
737.17	1722.34
737.35	1652.71
737.53	1712.10
737.71	1665.00
737.89	1722.34
738.07	1646.57
738.25	1662.95
738.43	1613.80
738.61	1665.00
738.80	1599.46
738.98	1646.57
739.16	1658.85
739.34	1650.66
739.52	1763.30
739.70	1703.91
739.88	1804.26
740.06	1763.30
740.24	1685.48
740.42	1806.31
740.60	1591.27
740.78	1607.66
740.96	1611.75
741.14	1595.37
741.32	1722.34
741.50	1673.19
741.68	1730.53
741.86	1746.92
742.04	1636.33
742.22	1693.67
742.40	1634.28
742.58	1740.77
742.76	1609.70
742.94	1738.73
743.12	1619.94
743.30	1621.99
743.48	1722.34
743.66	1693.67
743.84	1798.12
744.02	1701.86
744.20	1701.86
744.38	1654.76
744.56	1630.18
744.74	1759.21
744.92	1650.66
745.10	1845.22
745.28	1779.68
745.46	1738.73
745.64	1730.53
745.82	1773.54
746.00	1665.00
746.18	1712.10
746.36	1650.66
746.54	1712.10
746.72	1617.90
746.90	1599.46
747.08	1832.93
747.26	1693.67
747.44	1777.64
747.62	1683.43
747.80	1691.62
747.98	1771.49
748.15	1751.01
748.33	1791.97
748.51	1683.43
748.69	1728.49
748.87	1667.05
749.05	1730.53
749.23	1689.57
749.41	1646.57
749.59	1718.25
749.77	1748.97
749.95	1697.77
750.13	1652.71
750.31	1779.68
750.49	1734.63
750.67	1724.39
750.85	1755.11
751.03	1708.01
751.20	1830.88
751.38	1683.43
751.56	1665.00
751.74	1685.48
751.92	1597.42
752.10	1540.07
752.28	1671.14
752.46	1746.92
752.64	1687.53
752.82	1714.15
753.00	1742.82
753.18	1654.76
753.35	1681.38
753.53	1746.92
753.71	1689.57
753.89	1677.29
754.07	1650.66
754.25	1748.97
754.43	1705.96
754.61	1730.53
754.79	1689.57
754.97	1632.23
755.14	1755.11
755.32	1689.57
755.50	1759.21
755.68	1710.05
755.86	1624.04
756.04	1695.72
756.22	1748.97
756.40	1712.10
756.57	1820.64
756.75	1632.23
756.93	1679.33
757.11	1779.68
757.29	1611.75
757.47	1630.18
757.65	1626.09
757.82	1681.38
758.00	1654.76
758.18	1691.62
758.36	1624.04
758.54	1810.40
758.72	1640.42
758.90	1763.30
759.07	1722.34
759.25	1714.15
759.43	1744.87
759.61	1640.42
759.79	2193.37
759.97	1705.96
760.15	1689.57
760.32	1755.11
760.50	1650.66
760.68	1728.49
760.86	1687.53
761.04	1828.84
761.22	1796.07
761.39	1689.57
761.57	1695.72
761.75	1660.90
761.93	1697.77
762.11	1683.43
762.28	1726.44
762.46	1701.86
762.64	1761.25
762.82	1636.33
763.00	1685.48
763.18	1720.29
763.35	1679.33
763.53	1714.15
763.71	1675.24
763.89	1734.63
764.07	1744.87
764.24	1652.71
764.42	1742.82
764.60	1724.39
764.78	1685.48
764.96	1769.44
765.13	1763.30
765.31	1634.28
765.49	1703.91
765.67	1595.37
765.84	1697.77
766.02	1689.57
766.20	1621.99
766.38	1714.15
766.56	1722.34
766.73	1720.29
766.91	1705.96
767.09	1628.14
767.27	1746.92
767.44	1636.33
767.62	1736.68
767.80	1693.67
767.98	1699.81
768.15	1685.48
768.33	1761.25
768.51	1783.78
768.69	1665.00
768.87	1787.88
769.04	1705.96
769.22	1877.99
769.40	1771.49
769.58	1820.64
769.75	1724.39
769.93	1814.50
770.11	1708.01
770.28	1697.77
770.46	1736.68
770.64	1775.59
770.82	1613.80
770.99	1656.81
771.17	1708.01
771.35	1677.29
771.53	1648.61
771.70	1656.81
771.88	1761.25
772.06	1699.81
772.23	1662.95
772.41	1757.16
772.59	1705.96
772.77	1621.99
772.94	1732.58
773.12	1699.81
773.30	1587.18
773.47	1734.63
773.65	1626.09
773.83	1847.27
774.01	1691.62
774.18	1587.18
774.36	1632.23
774.54	1636.33
774.71	1695.72
774.89	1611.75
775.07	1646.57
775.24	1662.95
775.42	1669.09
775.60	1824.74
775.78	1658.85
775.95	1654.76
776.13	1609.70
776.31	1497.07
776.48	1734.63
776.66	1820.64
776.84	1687.53
777.01	1632.23
777.19	1650.66
777.37	1689.57
777.54	1785.83
777.72	1816.55
777.90	1683.43
778.07	1644.52
778.25	1861.60
778.43	1734.63
778.60	1603.56
778.78	1853.41
778.96	1763.30
779.13	1644.52
779.31	1791.97
779.49	1701.86
779.66	1718.25
779.84	1708.01
780.01	1669.09
780.19	1710.05
780.37	1726.44
780.54	1759.21
780.72	1681.38
780.90	1691.62
781.07	1632.23
781.25	1673.19
781.43	1783.78
781.60	1710.05
781.78	1708.01
781.95	1736.68
782.13	1632.23
782.31	1787.88
782.48	1656.81
782.66	1718.25
782.83	1787.88
783.01	1685.48
783.19	1740.77
783.36	1646.57
783.54	1619.94
783.72	1751.01
783.89	1628.14
784.07	1783.78
784.24	1665.00
784.42	1812.45
784.60	1724.39
784.77	1695.72
784.95	1630.18
785.12	1630.18
785.30	1669.09
785.47	1607.66
785.65	1615.85
785.83	1705.96
786.00	1693.67
786.18	1718.25
786.35	1583.08
786.53	1619.94
786.71	1781.73
786.88	1722.34
787.06	1636.33
787.23	1687.53
787.41	1705.96
787.58	1693.67
787.76	1665.00
787.94	1722.34
788.11	1665.00
788.29	1632.23
788.46	1697.77
788.64	1595.37
788.81	1718.25
788.99	1710.05
789.16	1656.81
789.34	1763.30
789.52	1644.52
789.69	1626.09
789.87	1621.99
790.04	1683.43
790.22	1685.48
790.39	1822.69
790.57	1630.18
790.74	1636.33
790.92	1783.78
791.09	1658.85
791.27	1705.96
791.44	1716.20
791.62	1769.44
791.79	1755.11
791.97	1728.49
792.15	1853.41
792.32	1732.58
792.50	1720.29
792.67	1759.21
792.85	1826.79
793.02	1794.02
793.20	1675.24
793.37	1599.46
793.55	1673.19
793.72	1617.90
793.90	1738.73
794.07	1642.47
794.25	1630.18
794.42	1714.15
794.60	1710.05
794.77	1665.00
794.95	1687.53
795.12	1742.82
795.30	1607.66
795.47	1607.66
795.65	1861.60
795.82	1714.15
796.00	1673.19
796.17	1605.61
796.34	1683.43
796.52	1679.33
796.69	1740.77
796.87	1681.38
797.04	1763.30
797.22	1718.25
797.39	1679.33
797.57	1710.05
797.74	1677.29
797.92	1624.04
798.09	1679.33
798.27	1656.81
798.44	1730.53
798.62	1673.19
798.79	1730.53
798.96	1662.95
799.14	1697.77
799.31	1843.17
799.49	1755.11
799.66	1718.25
799.84	1738.73
800.01	1570.79
800.19	1732.58
800.36	1601.51
800.53	1712.10
800.71	1744.87
800.88	1634.28
801.06	1628.14
801.23	1716.20
801.41	1636.33
801.58	1656.81
801.75	1613.80
801.93	1691.62
802.10	1773.54
802.28	1697.77
802.45	1673.19
802.63	1726.44
802.80	1800.16
802.97	1632.23
803.15	1767.40
803.32	1605.61
803.50	1675.24
803.67	1673.19
803.84	1636.33
804.02	1769.44
804.19	1658.85
804.37	1634.28
804.54	1675.24
804.71	1687.53
804.89	1648.61
805.06	1621.99
805.24	1732.58
805.41	1667.05
805.58	1673.19
805.76	1853.41
805.93	1685.48
806.10	1751.01
806.28	1771.49
806.45	1759.21
806.63	1714.15
806.80	1779.68
806.97	1673.19
807.15	1695.72
807.32	1732.58
807.49	1712.10
807.67	1640.42
807.84	1724.39
808.01	1630.18
808.19	1824.74
808.36	1812.45
808.54	1611.75
808.71	1626.09
808.88	1679.33
809.06	1738.73
809.23	1816.55
809.40	1669.09
809.58	1712.10
809.75	1705.96
809.92	1630.18
810.10	1861.60
810.27	1675.24
810.44	1689.57
810.62	1761.25
810.79	1677.29
810.96	1675.24
811.14	1794.02
811.31	1687.53
811.48	1712.10
811.66	1695.72
811.83	1765.35
812.00	1699.81
812.18	1732.58
812.35	1775.59
812.52	1705.96
812.69	1724.39
812.87	1640.42
813.04	1638.38
813.21	1689.57
813.39	1681.38
813.56	1615.85
813.73	1808.36
813.91	1599.46
814.08	1734.63
814.25	1720.29
814.42	1609.70
814.60	1652.71
814.77	1697.77
814.94	1712.10
815.12	1732.58
815.29	1818.60
815.46	1601.51
815.63	1675.24
815.81	1675.24
815.98	1689.57
816.15	1734.63
816.33	1746.92
816.50	1718.25
816.67	1710.05
816.84	1642.47
817.02	1712.10
817.19	1681.38
817.36	1763.30
817.53	1773.54
817.71	1665.00
817.88	1771.49
818.05	1689.57
818.22	1738.73
818.40	1800.16
818.57	1714.15
818.74	1665.00
818.91	1683.43
819.09	1705.96
819.26	1794.02
819.43	1656.81
819.60	1703.91
819.78	1634.28
819.95	1716.20
820.12	1644.52
820.29	1798.12
820.47	1837.03
820.64	1691.62
820.81	1607.66
820.98	1705.96
821.15	1687.53
821.33	1763.30
821.50	1601.51
821.67	1771.49
821.84	1667.05
822.02	1693.67
822.19	1794.02
822.36	1738.73
822.53	1644.52
822.70	1607.66
822.88	1636.33
823.05	1734.63
823.22	1720.29
823.39	1751.01
823.56	1771.49
823.74	1708.01
823.91	1677.29
824.08	1697.77
824.25	1630.18
824.42	1751.01
824.60	1652.71
824.77	1722.34
824.94	1671.14
825.11	1734.63
825.28	1619.94
825.45	1652.71
825.63	1595.37
825.80	1607.66
825.97	1708.01
826.14	1705.96
826.31	1642.47
826.48	1718.25
826.66	1603.56
826.83	1722.34
827.00	1687.53
827.17	1665.00
827.34	1626.09
827.51	1716.20
827.69	1662.95
827.86	1564.65
828.03	1728.49
828.20	1650.66
828.37	1669.09
828.54	1673.19
828.71	1665.00
828.89	1822.69
829.06	1771.49
829.23	1755.11
829.40	1603.56
829.57	1660.90
829.74	1839.08
829.91	1613.80
830.09	1693.67
830.26	1810.40
830.43	1785.83
830.60	1648.61
830.77	1775.59
830.94	1771.49
831.11	1705.96
831.28	1589.22
831.46	1732.58
831.63	1636.33
831.80	1759.21
831.97	1621.99
832.14	1705.96
832.31	1703.91
832.48	1695.72
832.65	1773.54
832.82	1724.39
832.99	1726.44
833.17	1656.81
833.34	1806.31
833.51	1775.59
833.68	1677.29
833.85	1697.77
834.02	1650.66
834.19	1611.75
834.36	1671.14
834.53	1744.87
834.70	1730.53
834.87	1814.50
835.04	1671.14
835.22	1646.57
835.39	1675.24
835.56	1695.72
835.73	1675.24
835.90	1777.64
836.07	1611.75
836.24	1767.40
836.41	1667.05
836.58	1703.91
836.75	1746.92
836.92	1687.53
837.09	1689.57
837.26	1744.87
837.43	1691.62
837.60	1662.95
837.77	1691.62
837.94	1718.25
838.12	1748.97
838.29	1673.19
838.46	1648.61
838.63	1654.76
838.80	1716.20
838.97	1748.97
839.14	1673.19
839.31	1611.75
839.48	1732.58
839.65	1640.42
839.82	1742.82
839.99	1667.05
840.16	1685.48
840.33	1660.90
840.50	1734.63
840.67	1619.94
840.84	1538.02
841.01	1689.57
841.18	1683.43
841.35	1693.67
841.52	1716.20
841.69	1834.98
841.86	1687.53
842.03	1693.67
842.20	1759.21
842.37	1714.15
842.54	1710.05
842.71	1748.97
842.88	1640.42
843.05	1763.30
843.22	1728.49
843.39	1677.29
843.56	1685.48
843.73	1730.53
843.90	1755.11
844.07	1734.63
844.24	1775.59
844.41	1740.77
844.58	1726.44
844.75	1617.90
844.92	1775.59
845.09	1710.05
845.26	1683.43
845.43	1681.38
845.60	1685.48
845.77	1742.82
845.94	1636.33
846.10	1783.78
846.27	1585.13
846.44	1648.61
846.61	1548.26
846.78	1746.92
846.95	1671.14
847.12	1648.61
847.29	1665.00
847.46	1779.68
847.63	1724.39
847.80	1673.19
847.97	1675.24
848.14	1763.30
848.31	1660.90
848.48	1665.00
848.65	1765.35
848.82	1662.95
848.98	1785.83
849.15	1779.68
849.32	1755.11
849.49	1679.33
849.66	1656.81
849.83	1710.05
850.00	1599.46
850.17	1701.86
850.34	1697.77
850.51	1624.04
850.68	1621.99
850.85	1857.51
851.01	1705.96
851.18	1736.68
851.35	1761.25
851.52	1665.00
851.69	1751.01
851.86	1650.66
852.03	1650.66
852.20	1671.14
852.37	1740.77
852.53	1660.90
852.70	1701.86
852.87	1751.01
853.04	1777.64
853.21	1677.29
853.38	1759.21
853.55	1755.11
853.72	1744.87
853.89	1665.00
854.05	1648.61
854.22	1646.57
854.39	1708.01
854.56	1693.67
854.73	1789.92
854.90	1595.37
855.07	1722.34
855.23	1720.29
855.40	1722.34
855.57	1751.01
855.74	1617.90
855.91	1920.99
856.08	1667.05
856.25	1687.53
856.41	1724.39
856.58	1644.52
856.75	1716.20
856.92	1677.29
857.09	1746.92
857.26	1570.79
857.42	1660.90
857.59	1699.81
857.76	1767.40
857.93	1787.88
858.10	1748.97
858.27	1693.67
858.43	1712.10
858.60	1665.00
858.77	1634.28
858.94	1603.56
859.11	1738.73
859.27	1644.52
859.44	1681.38
859.61	1763.30
859.78	1740.77
859.95	1667.05
860.12	1685.48
860.28	1796.07
860.45	1769.44
860.62	1726.44
860.79	1712.10
860.95	1742.82
861.12	1632.23
861.29	1656.81
861.46	1730.53
861.63	1638.38
861.79	1638.38
861.96	1638.38
862.13	1732.58
862.30	1734.63
862.47	1650.66
862.63	1601.51
862.80	1687.53
862.97	1732.58
863.14	1720.29
863.30	1703.91
863.47	1640.42
863.64	1820.64
863.81	1771.49
863.97	1656.81
864.14	1699.81
864.31	1697.77
864.48	1734.63
864.65	1560.55
864.81	1734.63
864.98	1771.49
865.15	1787.88
865.32	1693.67
865.48	1738.73
865.65	1773.54
865.82	1662.95
865.98	1720.29
866.15	1683.43
866.32	1697.77
866.49	1730.53
866.65	1763.30
866.82	1640.42
866.99	1636.33
867.16	1683.43
867.32	1724.39
867.49	1654.76
867.66	1677.29
867.83	1603.56
867.99	1695.72
868.16	1738.73
868.33	1589.22
868.49	1650.66
868.66	1648.61
868.83	1751.01
868.99	1708.01
869.16	1710.05
869.33	1689.57
869.50	1736.68
869.66	1669.09
869.83	1708.01
870.00	1587.18
870.16	1677.29
870.33	1693.67
870.50	1656.81
870.66	1677.29
870.83	1800.16
871.00	1744.87
871.17	1699.81
871.33	1755.11
871.50	1722.34
871.67	1650.66
871.83	1654.76
872.00	1886.18
872.17	1656.81
872.33	1771.49
872.50	1712.10
872.67	1685.48
872.83	1654.76
873.00	1691.62
873.17	1640.42
873.33	1691.62
873.50	1828.84
873.67	1728.49
873.83	1621.99
874.00	1642.47
874.16	1849.32
874.33	1714.15
874.50	1626.09
874.66	1755.11
874.83	1695.72
875.00	1763.30
875.16	1751.01
875.33	1794.02
875.50	1665.00
875.66	1648.61
875.83	1712.10
875.99	1728.49
876.16	1626.09
876.33	1624.04
876.49	1640.42
876.66	1697.77
876.83	1705.96
876.99	1562.60
877.16	1685.48
877.32	1675.24
877.49	1722.34
877.66	1730.53
877.82	1736.68
877.99	1699.81
878.15	1763.30
878.32	1603.56
878.49	1716.20
878.65	1761.25
878.82	1638.38
878.98	1697.77
879.15	1722.34
879.32	1714.15
879.48	1724.39
879.65	1730.53
879.81	1681.38
879.98	1697.77
880.15	1630.18
880.31	1703.91
880.48	1628.14
880.64	1789.92
880.81	1767.40
880.97	1753.06
881.14	1736.68
881.31	1636.33
881.47	1871.84
881.64	1734.63
881.80	1523.69
881.97	1734.63
882.13	1734.63
882.30	1595.37
882.47	1703.91
882.63	1566.70
882.80	1703.91
882.96	1697.77
883.13	1699.81
883.29	1665.00
883.46	1660.90
883.62	1802.21
883.79	1712.10
883.95	1767.40
884.12	1720.29
884.29	1732.58
884.45	1691.62
884.62	1742.82
884.78	1568.74
884.95	1832.93
885.11	1665.00
885.28	1740.77
885.44	1679.33
885.61	1755.11
885.77	1755.11
885.94	1714.15
886.10	1650.66
886.27	1769.44
886.43	1720.29
886.60	1744.87
886.76	1691.62
886.93	1603.56
887.09	1720.29
887.26	1630.18
887.42	1685.48
887.59	1738.73
887.75	1847.27
887.92	1744.87
888.08	1718.25
888.25	1712.10
888.41	1781.73
888.58	1722.34
888.74	1669.09
888.91	1726.44
>>>>>End Processed Spectral Data<<<<<
