SpectraSuite Data File
++++++++++++++++++++++++++++++++++++
Date: Mon Jun 06 17:19:57 CEST 2016
User: root
Dark Spectrum Present: No
Reference Spectrum Present: No
Number of Sampled Component Spectra: 1
Spectrometers: USB4C02835
Integration Time (usec): 100000 (USB4C02835)
Spectra Averaged: 1 (USB4C02835)
Boxcar Smoothing: 0 (USB4C02835)
Correct for Electrical Dark: No (USB4C02835)
Strobe/Lamp Enabled: No (USB4C02835)
Correct for Detector Non-linearity: No (USB4C02835)
Correct for Stray Light: No (USB4C02835)
Number of Pixels in Processed Spectrum: 3648
>>>>>Begin Processed Spectral Data<<<<<
177.47	1458.15
177.69	1458.15
177.91	1458.15
178.13	1505.26
178.36	1447.91
178.58	1695.72
178.80	1703.91
179.02	1708.01
179.24	1636.33
179.46	1757.16
179.68	1841.12
179.90	1660.90
180.13	1800.16
180.35	1701.86
180.57	1734.63
180.79	1726.44
181.01	1734.63
181.23	1722.34
181.45	1785.83
181.67	1697.77
181.90	1763.30
182.12	1738.73
182.34	1587.18
182.56	1769.44
182.78	1738.73
183.00	1662.95
183.22	1699.81
183.44	1685.48
183.66	1839.08
183.89	1791.97
184.11	1677.29
184.33	1685.48
184.55	1705.96
184.77	1701.86
184.99	1779.68
185.21	1675.24
185.43	1828.84
185.65	1703.91
185.87	1699.81
186.10	1787.88
186.32	1828.84
186.54	1734.63
186.76	1710.05
186.98	1720.29
187.20	1742.82
187.42	1687.53
187.64	1697.77
187.86	1769.44
188.08	1781.73
188.30	1642.47
188.52	1722.34
188.75	1720.29
188.97	1828.84
189.19	1660.90
189.41	1730.53
189.63	1726.44
189.85	1687.53
190.07	1683.43
190.29	1591.27
190.51	1757.16
190.73	1648.61
190.95	1775.59
191.17	1648.61
191.39	1638.38
191.61	1665.00
191.84	1765.35
192.06	1761.25
192.28	1617.90
192.50	1890.28
192.72	1761.25
192.94	1685.48
193.16	1785.83
193.38	1740.77
193.60	1615.85
193.82	1708.01
194.04	1800.16
194.26	1777.64
194.48	1767.40
194.70	1701.86
194.92	1624.04
195.14	1800.16
195.36	1662.95
195.58	1753.06
195.80	1693.67
196.02	1654.76
196.24	1716.20
196.46	1802.21
196.69	1617.90
196.91	1871.84
197.13	1755.11
197.35	1636.33
197.57	1701.86
197.79	1701.86
198.01	1716.20
198.23	1751.01
198.45	1730.53
198.67	1607.66
198.89	1763.30
199.11	1785.83
199.33	1708.01
199.55	1628.14
199.77	1695.72
199.99	1771.49
200.21	1742.82
200.43	1818.60
200.65	1646.57
200.87	1546.22
201.09	1718.25
201.31	1658.85
201.53	1767.40
201.75	1652.71
201.97	1787.88
202.19	1708.01
202.41	1769.44
202.63	1826.79
202.85	1820.64
203.07	1791.97
203.29	1665.00
203.51	1587.18
203.73	1658.85
203.95	1865.70
204.17	1722.34
204.39	1775.59
204.61	1701.86
204.83	1748.97
205.05	1855.46
205.27	1769.44
205.49	1834.98
205.71	1658.85
205.93	1699.81
206.15	1701.86
206.37	1775.59
206.59	1628.14
206.81	1593.32
207.03	1679.33
207.25	1677.29
207.47	1708.01
207.69	1738.73
207.91	1771.49
208.13	1839.08
208.34	1654.76
208.56	1658.85
208.78	1779.68
209.00	1613.80
209.22	1609.70
209.44	1742.82
209.66	1642.47
209.88	1691.62
210.10	1691.62
210.32	1826.79
210.54	1773.54
210.76	1685.48
210.98	1746.92
211.20	1646.57
211.42	1757.16
211.64	1716.20
211.86	1718.25
212.08	1687.53
212.30	1718.25
212.52	1740.77
212.74	1712.10
212.96	1777.64
213.17	1751.01
213.39	1798.12
213.61	1789.92
213.83	1777.64
214.05	1630.18
214.27	1822.69
214.49	1677.29
214.71	1658.85
214.93	1771.49
215.15	1662.95
215.37	1751.01
215.59	1685.48
215.81	1660.90
216.03	1767.40
216.24	1806.31
216.46	1624.04
216.68	1761.25
216.90	1806.31
217.12	1730.53
217.34	1718.25
217.56	1722.34
217.78	1767.40
218.00	1744.87
218.22	1736.68
218.44	1667.05
218.66	1742.82
218.87	1812.45
219.09	1624.04
219.31	1740.77
219.53	1708.01
219.75	1765.35
219.97	1718.25
220.19	1824.74
220.41	1595.37
220.63	1785.83
220.85	1613.80
221.06	1656.81
221.28	1800.16
221.50	1718.25
221.72	1681.38
221.94	1689.57
222.16	1673.19
222.38	1751.01
222.60	1771.49
222.82	1738.73
223.03	1730.53
223.25	1714.15
223.47	1744.87
223.69	1777.64
223.91	1769.44
224.13	1738.73
224.35	1691.62
224.57	1765.35
224.78	1744.87
225.00	1724.39
225.22	1611.75
225.44	1693.67
225.66	1724.39
225.88	1718.25
226.10	1759.21
226.32	1740.77
226.53	1808.36
226.75	1652.71
226.97	1730.53
227.19	1693.67
227.41	1728.49
227.63	1695.72
227.85	1654.76
228.06	1673.19
228.28	1648.61
228.50	1748.97
228.72	1595.37
228.94	1699.81
229.16	1630.18
229.37	1665.00
229.59	1736.68
229.81	1849.32
230.03	1669.09
230.25	1681.38
230.47	1691.62
230.69	1636.33
230.90	1730.53
231.12	1644.52
231.34	1669.09
231.56	1685.48
231.78	1710.05
232.00	1783.78
232.21	1716.20
232.43	1722.34
232.65	1558.50
232.87	1773.54
233.09	1626.09
233.30	1626.09
233.52	1744.87
233.74	1650.66
233.96	1689.57
234.18	1730.53
234.40	1675.24
234.61	1810.40
234.83	1691.62
235.05	1617.90
235.27	1763.30
235.49	1812.45
235.70	1718.25
235.92	1789.92
236.14	1775.59
236.36	1865.70
236.58	1714.15
236.79	1806.31
237.01	1708.01
237.23	1763.30
237.45	1851.36
237.67	1691.62
237.88	1753.06
238.10	1728.49
238.32	1701.86
238.54	1730.53
238.76	1751.01
238.97	1679.33
239.19	1701.86
239.41	1802.21
239.63	1763.30
239.85	1652.71
240.06	1742.82
240.28	1695.72
240.50	1814.50
240.72	1710.05
240.93	1734.63
241.15	1693.67
241.37	1693.67
241.59	1849.32
241.81	1665.00
242.02	1789.92
242.24	1722.34
242.46	1665.00
242.68	1624.04
242.89	1765.35
243.11	1751.01
243.33	1667.05
243.55	1705.96
243.76	1626.09
243.98	1669.09
244.20	1691.62
244.42	1714.15
244.64	1726.44
244.85	1685.48
245.07	1662.95
245.29	1783.78
245.51	1669.09
245.72	1732.58
245.94	1834.98
246.16	1759.21
246.38	1796.07
246.59	1720.29
246.81	1683.43
247.03	1640.42
247.24	1691.62
247.46	1730.53
247.68	1697.77
247.90	1656.81
248.11	1589.22
248.33	1771.49
248.55	1675.24
248.77	1765.35
248.98	1740.77
249.20	1851.36
249.42	1767.40
249.64	1722.34
249.85	1746.92
250.07	1630.18
250.29	1705.96
250.50	1753.06
250.72	1587.18
250.94	1689.57
251.16	1785.83
251.37	1794.02
251.59	1714.15
251.81	1718.25
252.02	1779.68
252.24	1716.20
252.46	1798.12
252.68	1628.14
252.89	1648.61
253.11	1693.67
253.33	1816.55
253.54	1802.21
253.76	1587.18
253.98	1734.63
254.20	1730.53
254.41	1656.81
254.63	1630.18
254.85	1695.72
255.06	1642.47
255.28	1677.29
255.50	1720.29
255.71	1701.86
255.93	1708.01
256.15	1630.18
256.36	1736.68
256.58	1699.81
256.80	1722.34
257.02	1667.05
257.23	1724.39
257.45	1662.95
257.67	1736.68
257.88	1710.05
258.10	1730.53
258.32	1736.68
258.53	1714.15
258.75	1763.30
258.97	1601.51
259.18	1806.31
259.40	1644.52
259.62	1800.16
259.83	1761.25
260.05	1769.44
260.27	1957.86
260.48	1775.59
260.70	1722.34
260.92	1734.63
261.13	1738.73
261.35	1710.05
261.57	1742.82
261.78	1628.14
262.00	1744.87
262.22	1834.98
262.43	1665.00
262.65	1691.62
262.86	1720.29
263.08	1828.84
263.30	1675.24
263.51	1677.29
263.73	1662.95
263.95	1742.82
264.16	1685.48
264.38	1689.57
264.60	1667.05
264.81	1726.44
265.03	1822.69
265.25	1767.40
265.46	1689.57
265.68	1763.30
265.89	1769.44
266.11	1646.57
266.33	1697.77
266.54	1779.68
266.76	1787.88
266.98	1777.64
267.19	1720.29
267.41	1781.73
267.62	1728.49
267.84	1658.85
268.06	1796.07
268.27	1734.63
268.49	1736.68
268.70	1740.77
268.92	1669.09
269.14	1685.48
269.35	1585.13
269.57	1732.58
269.79	1753.06
270.00	1687.53
270.22	1785.83
270.43	1687.53
270.65	1626.09
270.87	1755.11
271.08	1640.42
271.30	1800.16
271.51	1677.29
271.73	1828.84
271.95	1828.84
272.16	1662.95
272.38	1738.73
272.59	1667.05
272.81	1726.44
273.02	1720.29
273.24	1726.44
273.46	1767.40
273.67	1646.57
273.89	1685.48
274.10	1660.90
274.32	1814.50
274.54	1738.73
274.75	1687.53
274.97	1685.48
275.18	1767.40
275.40	1742.82
275.61	1718.25
275.83	1732.58
276.05	1642.47
276.26	1669.09
276.48	1703.91
276.69	1628.14
276.91	1646.57
277.12	1812.45
277.34	1857.51
277.55	1773.54
277.77	1748.97
277.99	1703.91
278.20	1652.71
278.42	1617.90
278.63	1673.19
278.85	1601.51
279.06	1642.47
279.28	1748.97
279.49	1734.63
279.71	1757.16
279.93	1738.73
280.14	1693.67
280.36	1652.71
280.57	1767.40
280.79	1746.92
281.00	1662.95
281.22	1617.90
281.43	1767.40
281.65	1640.42
281.86	1683.43
282.08	1755.11
282.29	1744.87
282.51	1611.75
282.73	1744.87
282.94	1621.99
283.16	1755.11
283.37	1783.78
283.59	1724.39
283.80	1753.06
284.02	1705.96
284.23	1710.05
284.45	1708.01
284.66	1681.38
284.88	1656.81
285.09	1736.68
285.31	1781.73
285.52	1693.67
285.74	1665.00
285.95	1771.49
286.17	1746.92
286.38	1789.92
286.60	1626.09
286.81	1638.38
287.03	1695.72
287.24	1738.73
287.46	1695.72
287.67	1648.61
287.89	1804.26
288.10	1767.40
288.32	1726.44
288.53	1814.50
288.75	1791.97
288.96	1765.35
289.18	1748.97
289.39	1744.87
289.61	1699.81
289.82	1773.54
290.04	1849.32
290.25	1638.38
290.47	1714.15
290.68	1681.38
290.90	1708.01
291.11	1595.37
291.33	1789.92
291.54	1689.57
291.76	1691.62
291.97	1710.05
292.18	1648.61
292.40	1636.33
292.61	1703.91
292.83	1822.69
293.04	1708.01
293.26	1732.58
293.47	1685.48
293.69	1669.09
293.90	1658.85
294.12	1763.30
294.33	1726.44
294.55	1728.49
294.76	1689.57
294.97	1800.16
295.19	1849.32
295.40	1685.48
295.62	1742.82
295.83	1746.92
296.05	1652.71
296.26	1859.56
296.48	1679.33
296.69	1671.14
296.90	1718.25
297.12	1701.86
297.33	1849.32
297.55	1738.73
297.76	1681.38
297.98	1761.25
298.19	1689.57
298.41	1638.38
298.62	1699.81
298.83	1769.44
299.05	1685.48
299.26	1699.81
299.48	1726.44
299.69	1693.67
299.90	1705.96
300.12	1658.85
300.33	1804.26
300.55	1773.54
300.76	1724.39
300.98	1701.86
301.19	1728.49
301.40	1687.53
301.62	1771.49
301.83	1755.11
302.05	1701.86
302.26	1681.38
302.47	1673.19
302.69	1652.71
302.90	1724.39
303.12	1609.70
303.33	1740.77
303.54	1826.79
303.76	1703.91
303.97	1785.83
304.19	1812.45
304.40	1605.61
304.61	1789.92
304.83	1839.08
305.04	1828.84
305.26	1710.05
305.47	1675.24
305.68	1681.38
305.90	1646.57
306.11	1787.88
306.33	1665.00
306.54	1716.20
306.75	1683.43
306.97	1621.99
307.18	1603.56
307.39	1759.21
307.61	1742.82
307.82	1722.34
308.04	1755.11
308.25	1681.38
308.46	1695.72
308.68	1656.81
308.89	1718.25
309.10	1826.79
309.32	1746.92
309.53	1826.79
309.74	1691.62
309.96	1658.85
310.17	1785.83
310.39	1693.67
310.60	1759.21
310.81	1683.43
311.03	1648.61
311.24	1732.58
311.45	1728.49
311.67	1802.21
311.88	1689.57
312.09	1679.33
312.31	1665.00
312.52	1681.38
312.73	1677.29
312.95	1652.71
313.16	1697.77
313.37	1734.63
313.59	1746.92
313.80	1755.11
314.01	1841.12
314.23	1818.60
314.44	1685.48
314.65	1607.66
314.87	1699.81
315.08	1701.86
315.29	1601.51
315.51	1662.95
315.72	1550.31
315.93	1744.87
316.15	1800.16
316.36	1697.77
316.57	1722.34
316.79	1746.92
317.00	1679.33
317.21	1689.57
317.43	1726.44
317.64	1679.33
317.85	1626.09
318.07	1716.20
318.28	1767.40
318.49	1726.44
318.70	1931.23
318.92	1808.36
319.13	1865.70
319.34	1898.47
319.56	1757.16
319.77	1742.82
319.98	1757.16
320.20	1763.30
320.41	1742.82
320.62	1736.68
320.83	1701.86
321.05	1843.17
321.26	1779.68
321.47	1687.53
321.69	1755.11
321.90	1644.52
322.11	1665.00
322.32	1767.40
322.54	1853.41
322.75	1765.35
322.96	1847.27
323.18	1605.61
323.39	1656.81
323.60	1691.62
323.81	1765.35
324.03	1634.28
324.24	1693.67
324.45	1705.96
324.66	1740.77
324.88	1767.40
325.09	1794.02
325.30	1714.15
325.52	1814.50
325.73	1775.59
325.94	1617.90
326.15	1695.72
326.37	1677.29
326.58	1679.33
326.79	1771.49
327.00	1730.53
327.22	1708.01
327.43	1732.58
327.64	1677.29
327.85	1708.01
328.07	1751.01
328.28	1781.73
328.49	1626.09
328.70	1697.77
328.92	1701.86
329.13	1667.05
329.34	1716.20
329.55	1849.32
329.76	1814.50
329.98	1726.44
330.19	1726.44
330.40	1722.34
330.61	1759.21
330.83	1689.57
331.04	1728.49
331.25	1767.40
331.46	1656.81
331.68	1595.37
331.89	1816.55
332.10	1728.49
332.31	1638.38
332.52	1708.01
332.74	1720.29
332.95	1642.47
333.16	1769.44
333.37	1722.34
333.58	1708.01
333.80	1744.87
334.01	1632.23
334.22	1675.24
334.43	1650.66
334.64	1779.68
334.86	1683.43
335.07	1654.76
335.28	1828.84
335.49	1652.71
335.70	1767.40
335.92	1734.63
336.13	1849.32
336.34	1783.78
336.55	1738.73
336.76	1771.49
336.98	1628.14
337.19	1626.09
337.40	1767.40
337.61	1898.47
337.82	1732.58
338.04	1769.44
338.25	1619.94
338.46	1802.21
338.67	1685.48
338.88	1646.57
339.09	1705.96
339.31	1656.81
339.52	1734.63
339.73	1665.00
339.94	1687.53
340.15	1755.11
340.36	1669.09
340.58	1636.33
340.79	1669.09
341.00	1726.44
341.21	1634.28
341.42	1894.37
341.63	1738.73
341.85	1724.39
342.06	1720.29
342.27	1628.14
342.48	1681.38
342.69	1591.27
342.90	1724.39
343.12	1779.68
343.33	1681.38
343.54	1740.77
343.75	1818.60
343.96	1673.19
344.17	1722.34
344.38	1767.40
344.60	1728.49
344.81	1609.70
345.02	1746.92
345.23	1751.01
345.44	1775.59
345.65	1751.01
345.86	1703.91
346.07	1689.57
346.29	1681.38
346.50	1742.82
346.71	1757.16
346.92	1794.02
347.13	1849.32
347.34	1724.39
347.55	1734.63
347.76	1777.64
347.98	1632.23
348.19	1675.24
348.40	1769.44
348.61	1714.15
348.82	1791.97
349.03	1730.53
349.24	1634.28
349.45	1773.54
349.66	1644.52
349.88	1767.40
350.09	1640.42
350.30	1783.78
350.51	1759.21
350.72	1697.77
350.93	1714.15
351.14	1630.18
351.35	1730.53
351.56	1742.82
351.77	1724.39
351.99	1757.16
352.20	1853.41
352.41	1765.35
352.62	1652.71
352.83	1740.77
353.04	1720.29
353.25	1714.15
353.46	1726.44
353.67	1853.41
353.88	1619.94
354.09	1658.85
354.30	1671.14
354.52	1755.11
354.73	1710.05
354.94	1628.14
355.15	1705.96
355.36	1816.55
355.57	1667.05
355.78	1738.73
355.99	1642.47
356.20	1662.95
356.41	1789.92
356.62	1787.88
356.83	1685.48
357.04	1845.22
357.25	1701.86
357.46	1665.00
357.68	1607.66
357.89	1746.92
358.10	1656.81
358.31	1718.25
358.52	1695.72
358.73	1628.14
358.94	1673.19
359.15	1679.33
359.36	1804.26
359.57	1693.67
359.78	1681.38
359.99	1822.69
360.20	1660.90
360.41	1763.30
360.62	1767.40
360.83	1667.05
361.04	1755.11
361.25	1769.44
361.46	1867.75
361.67	1703.91
361.88	1724.39
362.09	1730.53
362.30	1755.11
362.51	1630.18
362.72	1714.15
362.93	1773.54
363.14	1765.35
363.35	1665.00
363.56	1667.05
363.78	1763.30
363.99	1757.16
364.20	1665.00
364.41	1722.34
364.62	1810.40
364.83	1775.59
365.04	1679.33
365.25	1660.90
365.46	1849.32
365.67	1585.13
365.88	1660.90
366.09	1636.33
366.30	1730.53
366.51	1753.06
366.72	1656.81
366.93	1695.72
367.14	1759.21
367.35	1814.50
367.56	1701.86
367.77	1716.20
367.98	1728.49
368.18	1697.77
368.39	1681.38
368.60	1665.00
368.81	1759.21
369.02	1751.01
369.23	1753.06
369.44	1591.27
369.65	1748.97
369.86	1716.20
370.07	1691.62
370.28	1697.77
370.49	1763.30
370.70	1658.85
370.91	1697.77
371.12	1650.66
371.33	1771.49
371.54	1595.37
371.75	1880.04
371.96	1638.38
372.17	1693.67
372.38	1783.78
372.59	1787.88
372.80	1693.67
373.01	1681.38
373.22	1759.21
373.43	1710.05
373.64	1615.85
373.85	1767.40
374.06	1759.21
374.26	1730.53
374.47	1816.55
374.68	1818.60
374.89	1728.49
375.10	1650.66
375.31	1718.25
375.52	1775.59
375.73	1742.82
375.94	1669.09
376.15	1746.92
376.36	1701.86
376.57	1724.39
376.78	1665.00
376.99	1673.19
377.20	1761.25
377.40	1642.47
377.61	1759.21
377.82	1665.00
378.03	1851.36
378.24	1761.25
378.45	1761.25
378.66	1748.97
378.87	1638.38
379.08	1658.85
379.29	1753.06
379.50	1841.12
379.71	1679.33
379.91	1728.49
380.12	1705.96
380.33	1769.44
380.54	1716.20
380.75	1712.10
380.96	1742.82
381.17	1736.68
381.38	1724.39
381.59	1773.54
381.80	1716.20
382.00	1912.80
382.21	1742.82
382.42	1798.12
382.63	1865.70
382.84	1710.05
383.05	1644.52
383.26	1853.41
383.47	1718.25
383.68	1751.01
383.88	1783.78
384.09	1779.68
384.30	1869.80
384.51	1710.05
384.72	1701.86
384.93	1718.25
385.14	1798.12
385.35	1851.36
385.55	1611.75
385.76	1781.73
385.97	1808.36
386.18	1658.85
386.39	1685.48
386.60	1742.82
386.81	1683.43
387.02	1677.29
387.22	1654.76
387.43	1824.74
387.64	1818.60
387.85	1898.47
388.06	2226.14
388.27	4224.96
388.48	6703.00
388.68	8218.50
388.89	9723.76
389.10	9701.23
389.31	8685.44
389.52	7593.87
389.73	6737.82
389.93	6170.53
390.14	5709.74
390.35	5277.62
390.56	4595.64
390.77	3833.80
390.98	3041.23
391.18	2576.34
391.39	2148.32
391.60	1841.12
391.81	1818.60
392.02	1687.53
392.23	1841.12
392.43	1800.16
392.64	1728.49
392.85	1697.77
393.06	1863.65
393.27	1669.09
393.47	1677.29
393.68	1746.92
393.89	1716.20
394.10	1781.73
394.31	1705.96
394.52	1712.10
394.72	1742.82
394.93	1796.07
395.14	1718.25
395.35	1689.57
395.56	1650.66
395.76	1771.49
395.97	1769.44
396.18	1834.98
396.39	1783.78
396.60	2025.44
396.80	1933.28
397.01	1779.68
397.22	1834.98
397.43	1816.55
397.64	1691.62
397.84	1757.16
398.05	1849.32
398.26	1732.58
398.47	1837.03
398.67	1798.12
398.88	1763.30
399.09	1722.34
399.30	1669.09
399.51	1742.82
399.71	1691.62
399.92	1767.40
400.13	1730.53
400.34	1673.19
400.54	1628.14
400.75	1837.03
400.96	1710.05
401.17	1763.30
401.37	1734.63
401.58	1656.81
401.79	1714.15
402.00	1865.70
402.21	1996.77
402.41	1861.60
402.62	2029.54
402.83	2066.40
403.04	1964.00
403.24	2148.32
403.45	1886.18
403.66	1880.04
403.87	1939.43
404.07	1886.18
404.28	1957.86
404.49	1869.80
404.70	1798.12
404.90	1824.74
405.11	1791.97
405.32	1738.73
405.52	1699.81
405.73	1738.73
405.94	1675.24
406.15	1718.25
406.35	1804.26
406.56	1828.84
406.77	1634.28
406.98	1771.49
407.18	1701.86
407.39	1755.11
407.60	1718.25
407.80	1777.64
408.01	1640.42
408.22	1806.31
408.43	1677.29
408.63	1763.30
408.84	1728.49
409.05	1726.44
409.25	1675.24
409.46	1746.92
409.67	1705.96
409.88	1738.73
410.08	1734.63
410.29	1703.91
410.50	1777.64
410.70	1679.33
410.91	1671.14
411.12	1714.15
411.32	1693.67
411.53	1703.91
411.74	1816.55
411.95	1771.49
412.15	1724.39
412.36	1800.16
412.57	1791.97
412.77	1804.26
412.98	1708.01
413.19	1671.14
413.39	1742.82
413.60	1791.97
413.81	1761.25
414.01	1658.85
414.22	1751.01
414.43	1718.25
414.63	1734.63
414.84	1820.64
415.05	1734.63
415.25	1652.71
415.46	1763.30
415.67	1712.10
415.87	1693.67
416.08	1693.67
416.29	1714.15
416.49	1724.39
416.70	1654.76
416.91	1675.24
417.11	1710.05
417.32	1732.58
417.53	1703.91
417.73	1816.55
417.94	1720.29
418.15	1689.57
418.35	1798.12
418.56	1789.92
418.77	1857.51
418.97	1730.53
419.18	1746.92
419.38	1550.31
419.59	1632.23
419.80	1783.78
420.00	1650.66
420.21	1701.86
420.42	1806.31
420.62	1736.68
420.83	1697.77
421.04	1685.48
421.24	1669.09
421.45	1746.92
421.65	1705.96
421.86	1705.96
422.07	1785.83
422.27	1740.77
422.48	1763.30
422.69	1613.80
422.89	1714.15
423.10	1665.00
423.30	1697.77
423.51	1785.83
423.72	1738.73
423.92	1689.57
424.13	1687.53
424.33	1689.57
424.54	1777.64
424.75	1755.11
424.95	1843.17
425.16	1777.64
425.36	1685.48
425.57	1791.97
425.78	1830.88
425.98	1810.40
426.19	1665.00
426.39	1578.98
426.60	1740.77
426.81	1779.68
427.01	1714.15
427.22	1708.01
427.42	1636.33
427.63	1681.38
427.83	1763.30
428.04	1822.69
428.25	1798.12
428.45	1753.06
428.66	1757.16
428.86	1755.11
429.07	1708.01
429.28	1773.54
429.48	1755.11
429.69	1619.94
429.89	1697.77
430.10	1697.77
430.30	1769.44
430.51	1755.11
430.71	1619.94
430.92	1763.30
431.13	1687.53
431.33	1791.97
431.54	1738.73
431.74	1726.44
431.95	1886.18
432.15	1691.62
432.36	1705.96
432.56	1812.45
432.77	1828.84
432.98	1812.45
433.18	1697.77
433.39	1722.34
433.59	1734.63
433.80	1863.65
434.00	1859.56
434.21	1691.62
434.41	1705.96
434.62	1853.41
434.82	1724.39
435.03	1683.43
435.23	1712.10
435.44	1722.34
435.64	1751.01
435.85	1628.14
436.06	1773.54
436.26	1685.48
436.47	1710.05
436.67	1755.11
436.88	1748.97
437.08	1724.39
437.29	1742.82
437.49	1757.16
437.70	1804.26
437.90	1744.87
438.11	1923.04
438.31	1828.84
438.52	1918.95
438.72	1902.56
438.93	1886.18
439.13	1746.92
439.34	1841.12
439.54	1755.11
439.75	1734.63
439.95	1794.02
440.16	1705.96
440.36	1781.73
440.57	1742.82
440.77	1748.97
440.98	1703.91
441.18	1701.86
441.39	1728.49
441.59	1728.49
441.80	1882.08
442.00	1765.35
442.21	1748.97
442.41	1619.94
442.62	1832.93
442.82	1779.68
443.02	1759.21
443.23	1767.40
443.43	1755.11
443.64	1804.26
443.84	1673.19
444.05	1765.35
444.25	1796.07
444.46	1697.77
444.66	1665.00
444.87	1822.69
445.07	1648.61
445.28	1689.57
445.48	1800.16
445.69	1742.82
445.89	1951.71
446.09	1748.97
446.30	2086.88
446.50	2590.68
446.71	3669.96
446.91	4349.89
447.12	4773.82
447.32	4767.67
447.53	4433.85
447.73	3966.92
447.93	3571.66
448.14	3399.63
448.34	3254.22
448.55	3016.66
448.75	2922.45
448.96	2693.08
449.16	2490.33
449.36	2387.93
449.57	2099.17
449.77	1886.18
449.98	1755.11
450.18	1832.93
450.39	1738.73
450.59	1824.74
450.79	1751.01
451.00	1785.83
451.20	1775.59
451.41	1751.01
451.61	1787.88
451.81	1742.82
452.02	1710.05
452.22	1730.53
452.43	1742.82
452.63	1718.25
452.84	1738.73
453.04	1691.62
453.24	1662.95
453.45	1734.63
453.65	1742.82
453.86	1802.21
454.06	1816.55
454.26	1787.88
454.47	1695.72
454.67	1804.26
454.87	1826.79
455.08	1728.49
455.28	1826.79
455.49	1771.49
455.69	1751.01
455.89	1892.32
456.10	1794.02
456.30	1763.30
456.51	1845.22
456.71	1767.40
456.91	1701.86
457.12	1742.82
457.32	1787.88
457.52	1708.01
457.73	1824.74
457.93	1816.55
458.14	1748.97
458.34	1665.00
458.54	1679.33
458.75	1714.15
458.95	1783.78
459.15	1781.73
459.36	1759.21
459.56	1755.11
459.76	1824.74
459.97	1763.30
460.17	1681.38
460.37	1791.97
460.58	1759.21
460.78	1671.14
460.99	1738.73
461.19	1767.40
461.39	1738.73
461.60	1710.05
461.80	1755.11
462.00	1689.57
462.21	1800.16
462.41	1730.53
462.61	1671.14
462.82	1665.00
463.02	1783.78
463.22	1722.34
463.43	1767.40
463.63	1849.32
463.83	1847.27
464.04	1783.78
464.24	1728.49
464.44	1669.09
464.64	1759.21
464.85	1767.40
465.05	1767.40
465.25	1781.73
465.46	1691.62
465.66	1773.54
465.86	1834.98
466.07	1744.87
466.27	1716.20
466.47	1665.00
466.68	1564.65
466.88	1853.41
467.08	1832.93
467.29	1775.59
467.49	1798.12
467.69	1720.29
467.89	1767.40
468.10	1683.43
468.30	1730.53
468.50	1828.84
468.71	1830.88
468.91	1572.84
469.11	1837.03
469.31	1728.49
469.52	1613.80
469.72	1853.41
469.92	1794.02
470.13	1712.10
470.33	1734.63
470.53	1806.31
470.73	2070.50
470.94	2279.39
471.14	2394.08
471.34	2484.19
471.54	2418.65
471.75	2205.66
471.95	2109.41
472.15	2035.68
472.36	2074.59
472.56	2070.50
472.76	2029.54
472.96	1923.04
473.17	1959.91
473.37	1941.47
473.57	1773.54
473.77	1845.22
473.98	1763.30
474.18	1734.63
474.38	1918.95
474.58	1785.83
474.79	1685.48
474.99	1746.92
475.19	1781.73
475.39	1652.71
475.60	1730.53
475.80	1734.63
476.00	1818.60
476.20	1736.68
476.41	1734.63
476.61	1765.35
476.81	1826.79
477.01	1699.81
477.21	1931.23
477.42	1822.69
477.62	1656.81
477.82	1734.63
478.02	1722.34
478.23	1755.11
478.43	1714.15
478.63	1742.82
478.83	1687.53
479.03	1701.86
479.24	1843.17
479.44	1796.07
479.64	1689.57
479.84	1572.84
480.04	1642.47
480.25	1787.88
480.45	1679.33
480.65	1689.57
480.85	1808.36
481.06	1669.09
481.26	1701.86
481.46	1718.25
481.66	1734.63
481.86	1619.94
482.06	1728.49
482.27	1697.77
482.47	1734.63
482.67	1744.87
482.87	1681.38
483.07	1845.22
483.28	1732.58
483.48	1689.57
483.68	1773.54
483.88	1771.49
484.08	1603.56
484.29	1609.70
484.49	1759.21
484.69	1656.81
484.89	1802.21
485.09	1748.97
485.29	1763.30
485.50	1738.73
485.70	1705.96
485.90	1839.08
486.10	1783.78
486.30	1773.54
486.50	1738.73
486.71	1728.49
486.91	1724.39
487.11	1794.02
487.31	1636.33
487.51	1777.64
487.71	1660.90
487.91	1656.81
488.12	1654.76
488.32	1589.22
488.52	1650.66
488.72	1607.66
488.92	1714.15
489.12	1755.11
489.32	1763.30
489.53	1701.86
489.73	1708.01
489.93	1806.31
490.13	1675.24
490.33	1685.48
490.53	1773.54
490.73	1845.22
490.94	1771.49
491.14	1791.97
491.34	1834.98
491.54	2148.32
491.74	2514.91
491.94	2912.21
492.14	2994.13
492.34	3084.24
492.54	2811.86
492.75	2559.96
492.95	2473.95
493.15	2285.53
493.35	2277.34
493.55	2248.67
493.75	2183.13
493.95	2136.03
494.15	1984.48
494.35	1939.43
494.56	1806.31
494.76	1800.16
494.96	1789.92
495.16	1718.25
495.36	1728.49
495.56	1724.39
495.76	1746.92
495.96	1783.78
496.16	1701.86
496.36	1779.68
496.56	1800.16
496.77	1800.16
496.97	1720.29
497.17	1763.30
497.37	1677.29
497.57	1755.11
497.77	1742.82
497.97	1589.22
498.17	1841.12
498.37	1814.50
498.57	1742.82
498.77	1642.47
498.97	1740.77
499.17	1886.18
499.38	1734.63
499.58	1740.77
499.78	1828.84
499.98	1826.79
500.18	1671.14
500.38	1720.29
500.58	1902.56
500.78	2607.06
500.98	4417.47
501.18	5883.81
501.38	6875.03
501.58	7153.55
501.78	6602.65
501.98	5506.99
502.18	5103.54
502.38	4433.85
502.58	4093.89
502.78	3829.70
502.98	3631.05
503.18	3514.31
503.38	3127.25
503.59	2787.29
503.79	2686.94
503.99	2492.38
504.19	2359.26
504.39	2203.61
504.59	2193.37
504.79	2187.23
504.99	2082.78
505.19	1959.91
505.39	1853.41
505.59	2000.87
505.79	1898.47
505.99	1863.65
506.19	1791.97
506.39	1892.32
506.59	1828.84
506.79	1722.34
506.99	1888.23
507.19	1785.83
507.39	1753.06
507.59	1656.81
507.79	1611.75
507.99	1730.53
508.19	1744.87
508.39	1798.12
508.59	1710.05
508.79	1839.08
508.99	1861.60
509.19	1683.43
509.39	1845.22
509.59	1716.20
509.79	1671.14
509.99	1701.86
510.19	1828.84
510.39	1763.30
510.59	1763.30
510.79	1712.10
510.99	1691.62
511.19	1755.11
511.39	1771.49
511.59	1910.75
511.79	1808.36
511.99	1734.63
512.19	1822.69
512.38	1781.73
512.58	1734.63
512.78	1660.90
512.98	1841.12
513.18	1837.03
513.38	1738.73
513.58	1802.21
513.78	1732.58
513.98	1742.82
514.18	1757.16
514.38	1671.14
514.58	1787.88
514.78	1720.29
514.98	1722.34
515.18	1697.77
515.38	1644.52
515.58	1769.44
515.78	1742.82
515.98	1751.01
516.18	1712.10
516.38	1769.44
516.57	1689.57
516.77	1691.62
516.97	1755.11
517.17	1677.29
517.37	1564.65
517.57	1810.40
517.77	1726.44
517.97	1667.05
518.17	1722.34
518.37	1742.82
518.57	1781.73
518.77	1767.40
518.97	1718.25
519.16	1701.86
519.36	1783.78
519.56	1632.23
519.76	1759.21
519.96	1751.01
520.16	1877.99
520.36	1714.15
520.56	1857.51
520.76	1740.77
520.96	1683.43
521.16	1820.64
521.35	1822.69
521.55	1841.12
521.75	1708.01
521.95	1757.16
522.15	1785.83
522.35	1693.67
522.55	1714.15
522.75	1804.26
522.95	1689.57
523.14	1701.86
523.34	1796.07
523.54	1738.73
523.74	1818.60
523.94	1712.10
524.14	1650.66
524.34	1724.39
524.54	1877.99
524.73	1834.98
524.93	1665.00
525.13	1738.73
525.33	1689.57
525.53	1894.37
525.73	1800.16
525.93	1738.73
526.13	1660.90
526.32	1714.15
526.52	1812.45
526.72	1785.83
526.92	1722.34
527.12	1744.87
527.32	1656.81
527.52	1775.59
527.71	1763.30
527.91	1800.16
528.11	1722.34
528.31	1742.82
528.51	1728.49
528.71	1732.58
528.90	1722.34
529.10	1812.45
529.30	1841.12
529.50	1632.23
529.70	1748.97
529.90	1722.34
530.09	1736.68
530.29	1652.71
530.49	1705.96
530.69	1912.80
530.89	1796.07
531.09	1765.35
531.28	1691.62
531.48	1765.35
531.68	1732.58
531.88	1705.96
532.08	1839.08
532.28	1722.34
532.47	1769.44
532.67	1828.84
532.87	1753.06
533.07	1665.00
533.27	1796.07
533.46	1841.12
533.66	1748.97
533.86	1781.73
534.06	1763.30
534.26	1705.96
534.45	1748.97
534.65	1884.13
534.85	1726.44
535.05	1693.67
535.25	1818.60
535.44	1640.42
535.64	1779.68
535.84	1744.87
536.04	1746.92
536.24	1720.29
536.43	1718.25
536.63	1818.60
536.83	1689.57
537.03	1777.64
537.22	1609.70
537.42	1673.19
537.62	1763.30
537.82	1701.86
538.02	1869.80
538.21	1814.50
538.41	2015.20
538.61	1763.30
538.81	1699.81
539.00	1849.32
539.20	1632.23
539.40	1697.77
539.60	1800.16
539.79	1771.49
539.99	1746.92
540.19	1751.01
540.39	1675.24
540.58	1808.36
540.78	1740.77
540.98	1734.63
541.18	1849.32
541.37	1746.92
541.57	1755.11
541.77	1812.45
541.97	1669.09
542.16	1691.62
542.36	1755.11
542.56	1693.67
542.76	1853.41
542.95	1773.54
543.15	1673.19
543.35	1822.69
543.54	1679.33
543.74	1656.81
543.94	1781.73
544.14	1656.81
544.33	1769.44
544.53	1722.34
544.73	1621.99
544.93	1728.49
545.12	1757.16
545.32	1767.40
545.52	1714.15
545.71	1734.63
545.91	1687.53
546.11	1744.87
546.30	1605.61
546.50	1820.64
546.70	1802.21
546.90	1765.35
547.09	1652.71
547.29	1873.89
547.49	1767.40
547.68	1783.78
547.88	1691.62
548.08	1748.97
548.27	2189.28
548.47	1761.25
548.67	1714.15
548.87	1832.93
549.06	1773.54
549.26	1718.25
549.46	1730.53
549.65	1785.83
549.85	1732.58
550.05	1791.97
550.24	1724.39
550.44	1777.64
550.64	1779.68
550.83	1761.25
551.03	1828.84
551.23	1841.12
551.42	1806.31
551.62	1757.16
551.82	1695.72
552.01	1660.90
552.21	1849.32
552.41	1791.97
552.60	1810.40
552.80	1740.77
553.00	1744.87
553.19	1742.82
553.39	1867.75
553.59	1701.86
553.78	1802.21
553.98	1746.92
554.17	1773.54
554.37	1751.01
554.57	1671.14
554.76	1660.90
554.96	1611.75
555.16	1779.68
555.35	1720.29
555.55	1796.07
555.75	1769.44
555.94	1826.79
556.14	1642.47
556.33	1837.03
556.53	1683.43
556.73	1759.21
556.92	1767.40
557.12	1855.46
557.32	1910.75
557.51	1847.27
557.71	1824.74
557.90	1783.78
558.10	1804.26
558.30	1748.97
558.49	1687.53
558.69	1718.25
558.88	1800.16
559.08	1789.92
559.28	1726.44
559.47	1710.05
559.67	1789.92
559.86	1867.75
560.06	1822.69
560.26	1685.48
560.45	1716.20
560.65	1689.57
560.84	1845.22
561.04	1693.67
561.24	1796.07
561.43	1738.73
561.63	1845.22
561.82	1802.21
562.02	1841.12
562.22	1689.57
562.41	1724.39
562.61	1734.63
562.80	1746.92
563.00	1877.99
563.19	1837.03
563.39	1744.87
563.59	1775.59
563.78	1658.85
563.98	1699.81
564.17	1720.29
564.37	1603.56
564.56	1781.73
564.76	1736.68
564.96	1800.16
565.15	1740.77
565.35	1861.60
565.54	1671.14
565.74	1732.58
565.93	1781.73
566.13	1783.78
566.32	1800.16
566.52	1853.41
566.71	1773.54
566.91	1740.77
567.11	1693.67
567.30	1742.82
567.50	1820.64
567.69	1724.39
567.89	1726.44
568.08	1673.19
568.28	1740.77
568.47	1708.01
568.67	1699.81
568.86	1634.28
569.06	1863.65
569.25	1746.92
569.45	1681.38
569.64	1779.68
569.84	1697.77
570.04	1810.40
570.23	1714.15
570.43	1697.77
570.62	1726.44
570.82	1875.94
571.01	1615.85
571.21	1736.68
571.40	1640.42
571.60	1798.12
571.79	1767.40
571.99	1796.07
572.18	1716.20
572.38	1787.88
572.57	1724.39
572.77	1812.45
572.96	1925.09
573.16	1730.53
573.35	1722.34
573.55	1841.12
573.74	1685.48
573.94	1734.63
574.13	1769.44
574.33	1738.73
574.52	1806.31
574.71	1669.09
574.91	1808.36
575.10	1691.62
575.30	1693.67
575.49	1660.90
575.69	1685.48
575.88	1775.59
576.08	1736.68
576.27	1800.16
576.47	1648.61
576.66	1830.88
576.86	1908.71
577.05	1806.31
577.25	1732.58
577.44	1912.80
577.64	1781.73
577.83	1775.59
578.02	1765.35
578.22	1753.06
578.41	1791.97
578.61	1722.34
578.80	1658.85
579.00	1714.15
579.19	1779.68
579.39	1777.64
579.58	1800.16
579.77	1730.53
579.97	1816.55
580.16	1875.94
580.36	1791.97
580.55	1802.21
580.75	1845.22
580.94	1773.54
581.13	1837.03
581.33	1898.47
581.52	1671.14
581.72	1828.84
581.91	1951.71
582.11	1755.11
582.30	1824.74
582.49	1763.30
582.69	1865.70
582.88	1789.92
583.08	1734.63
583.27	1882.08
583.47	1785.83
583.66	1742.82
583.85	1748.97
584.05	1738.73
584.24	1722.34
584.44	1851.36
584.63	1849.32
584.82	1877.99
585.02	1830.88
585.21	1894.37
585.41	1855.46
585.60	1781.73
585.79	1968.10
585.99	1949.67
586.18	1902.56
586.37	2197.47
586.57	3323.85
586.76	10012.52
586.96	24567.43
587.15	34141.69
587.34	40273.31
587.54	41768.32
587.73	36267.48
587.93	26029.68
588.12	21409.47
588.31	18065.13
588.51	16307.98
588.70	15038.23
588.89	13983.53
589.09	12543.81
589.28	11001.69
589.47	9267.06
589.67	8062.85
589.86	6549.40
590.06	4857.78
590.25	3858.37
590.44	3074.00
590.64	2543.58
590.83	2215.90
591.02	2181.09
591.22	1900.52
591.41	1820.64
591.60	1900.52
591.80	2027.49
591.99	1757.16
592.18	1730.53
592.38	1841.12
592.57	1818.60
592.76	1861.60
592.96	1845.22
593.15	1822.69
593.34	1861.60
593.54	1759.21
593.73	1875.94
593.92	1822.69
594.12	1785.83
594.31	1738.73
594.50	1843.17
594.70	1787.88
594.89	1925.09
595.08	1753.06
595.28	1742.82
595.47	1898.47
595.66	1849.32
595.86	1718.25
596.05	1748.97
596.24	1796.07
596.43	1849.32
596.63	1839.08
596.82	1748.97
597.01	1740.77
597.21	1857.51
597.40	1738.73
597.59	1789.92
597.79	1777.64
597.98	1789.92
598.17	1818.60
598.36	1806.31
598.56	1765.35
598.75	1736.68
598.94	1804.26
599.14	1767.40
599.33	1691.62
599.52	1761.25
599.71	1771.49
599.91	1769.44
600.10	1787.88
600.29	1751.01
600.48	1841.12
600.68	1826.79
600.87	1722.34
601.06	1714.15
601.26	1804.26
601.45	1767.40
601.64	1726.44
601.83	1845.22
602.03	1804.26
602.22	1761.25
602.41	1791.97
602.60	1861.60
602.80	1802.21
602.99	1775.59
603.18	1761.25
603.37	1746.92
603.57	1722.34
603.76	1697.77
603.95	1794.02
604.14	1765.35
604.34	1685.48
604.53	1701.86
604.72	1720.29
604.91	1744.87
605.10	1849.32
605.30	1607.66
605.49	1828.84
605.68	1728.49
605.87	1777.64
606.07	1734.63
606.26	1748.97
606.45	1804.26
606.64	1765.35
606.84	1736.68
607.03	1716.20
607.22	1744.87
607.41	1656.81
607.60	1691.62
607.80	1755.11
607.99	1744.87
608.18	1742.82
608.37	1773.54
608.56	1714.15
608.76	1744.87
608.95	1861.60
609.14	1718.25
609.33	1806.31
609.52	1771.49
609.72	1771.49
609.91	1798.12
610.10	1746.92
610.29	1837.03
610.48	1806.31
610.68	1775.59
610.87	1718.25
611.06	1767.40
611.25	1773.54
611.44	1818.60
611.63	1738.73
611.83	1816.55
612.02	1705.96
612.21	1802.21
612.40	1611.75
612.59	1757.16
612.79	1710.05
612.98	1791.97
613.17	1820.64
613.36	1746.92
613.55	1839.08
613.74	1726.44
613.93	1665.00
614.13	1738.73
614.32	1769.44
614.51	1822.69
614.70	1665.00
614.89	1613.80
615.08	1763.30
615.28	2080.74
615.47	1724.39
615.66	1757.16
615.85	1775.59
616.04	1785.83
616.23	1746.92
616.42	1705.96
616.62	1714.15
616.81	1798.12
617.00	1720.29
617.19	1779.68
617.38	1681.38
617.57	1740.77
617.76	1685.48
617.95	1703.91
618.15	1755.11
618.34	1812.45
618.53	1669.09
618.72	1832.93
618.91	1769.44
619.10	1855.46
619.29	1716.20
619.48	1787.88
619.68	1759.21
619.87	1746.92
620.06	1529.83
620.25	1751.01
620.44	1714.15
620.63	1695.72
620.82	1804.26
621.01	1681.38
621.20	1693.67
621.39	1804.26
621.59	1673.19
621.78	1720.29
621.97	1785.83
622.16	1804.26
622.35	1730.53
622.54	1773.54
622.73	1822.69
622.92	1710.05
623.11	1787.88
623.30	1787.88
623.49	1728.49
623.68	1658.85
623.88	1775.59
624.07	1716.20
624.26	1742.82
624.45	1759.21
624.64	1738.73
624.83	1765.35
625.02	1718.25
625.21	1763.30
625.40	1744.87
625.59	1880.04
625.78	1714.15
625.97	1769.44
626.16	1755.11
626.35	1732.58
626.54	1687.53
626.74	1861.60
626.93	1732.58
627.12	1699.81
627.31	1806.31
627.50	1796.07
627.69	1845.22
627.88	1650.66
628.07	1728.49
628.26	1660.90
628.45	1708.01
628.64	1730.53
628.83	1705.96
629.02	1642.47
629.21	1796.07
629.40	1732.58
629.59	1644.52
629.78	1714.15
629.97	1710.05
630.16	1685.48
630.35	1710.05
630.54	1687.53
630.73	1677.29
630.92	1683.43
631.11	1650.66
631.30	1718.25
631.49	1718.25
631.68	1705.96
631.87	1767.40
632.06	1787.88
632.25	1871.84
632.44	1763.30
632.63	1730.53
632.82	1695.72
633.01	1650.66
633.20	1689.57
633.39	1728.49
633.58	1646.57
633.77	1802.21
633.96	1740.77
634.15	1773.54
634.34	1779.68
634.53	1714.15
634.72	1744.87
634.91	1574.89
635.10	1734.63
635.29	1853.41
635.48	1734.63
635.67	1744.87
635.86	1718.25
636.05	1732.58
636.24	1699.81
636.43	1714.15
636.62	1794.02
636.81	1613.80
637.00	1656.81
637.19	1708.01
637.38	1714.15
637.57	1687.53
637.76	1779.68
637.95	1763.30
638.14	1665.00
638.33	1669.09
638.52	1677.29
638.71	1603.56
638.89	1603.56
639.08	1888.23
639.27	1730.53
639.46	1734.63
639.65	1779.68
639.84	1804.26
640.03	1718.25
640.22	1693.67
640.41	1787.88
640.60	1677.29
640.79	1689.57
640.98	1642.47
641.17	1853.41
641.36	1757.16
641.55	1712.10
641.74	1693.67
641.92	1689.57
642.11	1648.61
642.30	1775.59
642.49	1665.00
642.68	1716.20
642.87	1687.53
643.06	1699.81
643.25	1646.57
643.44	1703.91
643.63	1740.77
643.82	1769.44
644.00	1701.86
644.19	1718.25
644.38	1660.90
644.57	1769.44
644.76	1771.49
644.95	1681.38
645.14	1755.11
645.33	1740.77
645.52	1699.81
645.71	1708.01
645.89	1675.24
646.08	1753.06
646.27	1751.01
646.46	1755.11
646.65	1644.52
646.84	1755.11
647.03	1656.81
647.22	1841.12
647.40	1771.49
647.59	1693.67
647.78	1701.86
647.97	1662.95
648.16	1662.95
648.35	1787.88
648.54	1865.70
648.73	1705.96
648.91	1765.35
649.10	1763.30
649.29	1656.81
649.48	1814.50
649.67	1703.91
649.86	1607.66
650.05	1716.20
650.23	1798.12
650.42	1697.77
650.61	1832.93
650.80	1708.01
650.99	1912.80
651.18	1718.25
651.36	1777.64
651.55	1705.96
651.74	1738.73
651.93	1669.09
652.12	1615.85
652.31	1779.68
652.49	1724.39
652.68	1701.86
652.87	1863.65
653.06	1708.01
653.25	1798.12
653.44	1736.68
653.62	1746.92
653.81	1671.14
654.00	1685.48
654.19	1796.07
654.38	1929.19
654.56	1714.15
654.75	1646.57
654.94	1767.40
655.13	1730.53
655.32	1705.96
655.51	1757.16
655.69	1677.29
655.88	1787.88
656.07	1722.34
656.26	1798.12
656.45	1691.62
656.63	1675.24
656.82	1798.12
657.01	1771.49
657.20	1738.73
657.38	1802.21
657.57	1744.87
657.76	1679.33
657.95	1779.68
658.14	1701.86
658.32	1695.72
658.51	1718.25
658.70	1789.92
658.89	1798.12
659.08	1740.77
659.26	1837.03
659.45	1632.23
659.64	1753.06
659.83	1751.01
660.01	1959.91
660.20	1769.44
660.39	1759.21
660.58	1665.00
660.76	1751.01
660.95	1630.18
661.14	1742.82
661.33	1699.81
661.51	1703.91
661.70	1712.10
661.89	1705.96
662.08	1640.42
662.26	1708.01
662.45	1683.43
662.64	1796.07
662.83	1794.02
663.01	1640.42
663.20	1726.44
663.39	1783.78
663.58	1751.01
663.76	1708.01
663.95	1771.49
664.14	1667.05
664.32	1648.61
664.51	1687.53
664.70	1671.14
664.89	1777.64
665.07	1630.18
665.26	1771.49
665.45	1689.57
665.64	1855.46
665.82	1708.01
666.01	1757.16
666.20	1722.34
666.38	1800.16
666.57	1794.02
666.76	2111.46
666.95	4638.65
667.13	10358.63
667.32	15245.08
667.51	17975.02
667.69	19338.97
667.88	17647.35
668.07	12361.54
668.25	9701.23
668.44	8071.04
668.63	7374.74
668.81	6891.41
669.00	6148.00
669.19	5670.83
669.38	5134.26
669.56	4689.85
669.75	3928.00
669.94	3436.49
670.12	2856.92
670.31	2523.10
670.50	2234.33
670.68	2136.03
670.87	1927.14
671.06	1789.92
671.24	1796.07
671.43	1814.50
671.62	1761.25
671.80	1773.54
671.99	1714.15
672.18	1712.10
672.36	1830.88
672.55	1791.97
672.74	1712.10
672.92	1732.58
673.11	1757.16
673.29	1648.61
673.48	1759.21
673.67	1720.29
673.85	1822.69
674.04	1648.61
674.23	1722.34
674.41	1814.50
674.60	1732.58
674.79	1683.43
674.97	1708.01
675.16	1775.59
675.34	1796.07
675.53	1665.00
675.72	1742.82
675.90	1765.35
676.09	1726.44
676.28	1744.87
676.46	1710.05
676.65	1708.01
676.83	1712.10
677.02	1751.01
677.21	1675.24
677.39	1726.44
677.58	1671.14
677.77	1746.92
677.95	1687.53
678.14	1679.33
678.32	1765.35
678.51	1701.86
678.70	1832.93
678.88	1710.05
679.07	1744.87
679.25	1652.71
679.44	1703.91
679.63	1669.09
679.81	1722.34
680.00	1894.37
680.18	1798.12
680.37	1791.97
680.55	1765.35
680.74	1650.66
680.93	1667.05
681.11	1701.86
681.30	1755.11
681.48	1740.77
681.67	1781.73
681.85	1742.82
682.04	1605.61
682.23	1773.54
682.41	1656.81
682.60	1740.77
682.78	1718.25
682.97	1615.85
683.15	1740.77
683.34	1789.92
683.53	1841.12
683.71	1669.09
683.90	1794.02
684.08	1857.51
684.27	1757.16
684.45	1665.00
684.64	1730.53
684.82	1644.52
685.01	1779.68
685.19	1681.38
685.38	1722.34
685.57	1726.44
685.75	1648.61
685.94	1746.92
686.12	1632.23
686.31	1648.61
686.49	1847.27
686.68	1591.27
686.86	1738.73
687.05	1759.21
687.23	1849.32
687.42	1718.25
687.60	1640.42
687.79	1802.21
687.97	1773.54
688.16	1757.16
688.34	1791.97
688.53	1660.90
688.71	1771.49
688.90	1826.79
689.08	1673.19
689.27	1609.70
689.45	1773.54
689.64	1714.15
689.82	1722.34
690.01	1697.77
690.19	1722.34
690.38	1712.10
690.56	1757.16
690.75	1710.05
690.93	1634.28
691.12	1636.33
691.30	1673.19
691.49	1687.53
691.67	1755.11
691.86	1877.99
692.04	1757.16
692.23	1712.10
692.41	1660.90
692.60	1904.61
692.78	1816.55
692.97	1810.40
693.15	1732.58
693.34	1816.55
693.52	1798.12
693.71	1673.19
693.89	1677.29
694.08	1640.42
694.26	1757.16
694.44	1816.55
694.63	1755.11
694.81	1658.85
695.00	1650.66
695.18	1775.59
695.37	1828.84
695.55	1722.34
695.74	1732.58
695.92	1660.90
696.10	1705.96
696.29	1675.24
696.47	1748.97
696.66	1654.76
696.84	1624.04
697.03	1738.73
697.21	1804.26
697.40	2316.25
697.58	1759.21
697.76	1751.01
697.95	1658.85
698.13	1656.81
698.32	1730.53
698.50	1746.92
698.68	1785.83
698.87	1744.87
699.05	1775.59
699.24	1753.06
699.42	1644.52
699.61	1744.87
699.79	1648.61
699.97	1767.40
700.16	1675.24
700.34	1628.14
700.53	1755.11
700.71	1763.30
700.89	1779.68
701.08	1728.49
701.26	1677.29
701.45	2127.84
701.63	1693.67
701.81	1748.97
702.00	1699.81
702.18	1751.01
702.37	1685.48
702.55	1736.68
702.73	1669.09
702.92	1632.23
703.10	1708.01
703.28	1718.25
703.47	1691.62
703.65	1789.92
703.84	1785.83
704.02	1716.20
704.20	1796.07
704.39	1732.58
704.57	1695.72
704.75	1822.69
704.94	1716.20
705.12	1714.15
705.30	1837.03
705.49	2240.48
705.67	4294.59
705.86	9273.20
706.04	12480.32
706.22	14401.32
706.41	15224.60
706.59	13492.02
706.77	9576.30
706.96	7264.15
707.14	6594.46
707.32	5918.63
707.51	5437.36
707.69	5015.48
707.87	4274.11
708.06	3545.03
708.24	3065.81
708.42	2465.75
708.61	2166.75
708.79	1875.94
708.97	1886.18
709.16	1808.36
709.34	1789.92
709.52	1751.01
709.71	1761.25
709.89	1744.87
710.07	1732.58
710.26	1785.83
710.44	1681.38
710.62	1757.16
710.80	1812.45
710.99	1751.01
711.17	1751.01
711.35	1679.33
711.54	1636.33
711.72	1763.30
711.90	1740.77
712.09	1730.53
712.27	1634.28
712.45	1757.16
712.63	1685.48
712.82	1703.91
713.00	1708.01
713.18	1755.11
713.37	1773.54
713.55	1726.44
713.73	1798.12
713.91	1740.77
714.10	1675.24
714.28	1630.18
714.46	1642.47
714.65	1656.81
714.83	1740.77
715.01	1695.72
715.19	1697.77
715.38	1642.47
715.56	1712.10
715.74	1718.25
715.92	1693.67
716.11	1769.44
716.29	1634.28
716.47	1578.98
716.65	1718.25
716.84	1665.00
717.02	1755.11
717.20	1701.86
717.38	1662.95
717.57	1746.92
717.75	1716.20
717.93	1697.77
718.11	1781.73
718.30	1617.90
718.48	1746.92
718.66	1720.29
718.84	1830.88
719.03	1681.38
719.21	1699.81
719.39	1769.44
719.57	1814.50
719.75	1814.50
719.94	1689.57
720.12	1679.33
720.30	1789.92
720.48	1822.69
720.67	1603.56
720.85	1607.66
721.03	1701.86
721.21	1765.35
721.39	1732.58
721.58	1759.21
721.76	1699.81
721.94	1742.82
722.12	1771.49
722.30	1767.40
722.49	1761.25
722.67	1677.29
722.85	1695.72
723.03	1736.68
723.21	1697.77
723.40	1740.77
723.58	1757.16
723.76	1802.21
723.94	1685.48
724.12	1732.58
724.30	1800.16
724.49	1746.92
724.67	1576.94
724.85	1755.11
725.03	1632.23
725.21	1738.73
725.40	1791.97
725.58	1611.75
725.76	1796.07
725.94	1841.12
726.12	1599.46
726.30	1671.14
726.49	1662.95
726.67	1648.61
726.85	1669.09
727.03	1779.68
727.21	2213.85
727.39	2928.60
727.57	3749.83
727.76	4249.54
727.94	4585.40
728.12	4444.09
728.30	3698.63
728.48	2893.78
728.66	2766.81
728.84	2529.24
729.03	2363.36
729.21	2097.12
729.39	1994.72
729.57	1830.88
729.75	1847.27
729.93	1867.75
730.11	1763.30
730.30	1695.72
730.48	1687.53
730.66	1861.60
730.84	1691.62
731.02	1730.53
731.20	1751.01
731.38	1685.48
731.56	1591.27
731.74	1681.38
731.93	1611.75
732.11	1677.29
732.29	1695.72
732.47	1669.09
732.65	1744.87
732.83	1802.21
733.01	1699.81
733.19	1742.82
733.37	1771.49
733.56	1710.05
733.74	1697.77
733.92	1775.59
734.10	1712.10
734.28	1767.40
734.46	1691.62
734.64	1720.29
734.82	1738.73
735.00	1621.99
735.18	1742.82
735.36	1652.71
735.54	1820.64
735.73	1769.44
735.91	1673.19
736.09	1746.92
736.27	1728.49
736.45	1744.87
736.63	1538.02
736.81	1681.38
736.99	1722.34
737.17	1794.02
737.35	1669.09
737.53	1806.31
737.71	1658.85
737.89	1751.01
738.07	1726.44
738.25	1677.29
738.43	1607.66
738.61	1605.61
738.80	1615.85
738.98	1626.09
739.16	1673.19
739.34	1703.91
739.52	1773.54
739.70	1689.57
739.88	1736.68
740.06	1804.26
740.24	1542.12
740.42	1673.19
740.60	1626.09
740.78	1660.90
740.96	1589.22
741.14	1671.14
741.32	1734.63
741.50	1613.80
741.68	1796.07
741.86	1705.96
742.04	1751.01
742.22	1597.42
742.40	1701.86
742.58	1771.49
742.76	1660.90
742.94	1882.08
743.12	1611.75
743.30	1650.66
743.48	1710.05
743.66	1654.76
743.84	1775.59
744.02	1708.01
744.20	1679.33
744.38	1677.29
744.56	1607.66
744.74	1800.16
744.92	1738.73
745.10	1832.93
745.28	1775.59
745.46	1816.55
745.64	1593.32
745.82	1800.16
746.00	1705.96
746.18	1816.55
746.36	1665.00
746.54	1732.58
746.72	1748.97
746.90	1628.14
747.08	1732.58
747.26	1683.43
747.44	1773.54
747.62	1746.92
747.80	1716.20
747.98	1748.97
748.15	1740.77
748.33	1767.40
748.51	1701.86
748.69	1642.47
748.87	1656.81
749.05	1630.18
749.23	1650.66
749.41	1748.97
749.59	1624.04
749.77	1712.10
749.95	1695.72
750.13	1624.04
750.31	1738.73
750.49	1722.34
750.67	1767.40
750.85	1753.06
751.03	1722.34
751.20	1814.50
751.38	1662.95
751.56	1722.34
751.74	1673.19
751.92	1669.09
752.10	1656.81
752.28	1761.25
752.46	1624.04
752.64	1693.67
752.82	1654.76
753.00	1771.49
753.18	1746.92
753.35	1708.01
753.53	1646.57
753.71	1691.62
753.89	1669.09
754.07	1730.53
754.25	1665.00
754.43	1746.92
754.61	1650.66
754.79	1730.53
754.97	1771.49
755.14	1810.40
755.32	1744.87
755.50	1708.01
755.68	1705.96
755.86	1714.15
756.04	1759.21
756.22	1619.94
756.40	1759.21
756.57	1830.88
756.75	1642.47
756.93	1744.87
757.11	1763.30
757.29	1611.75
757.47	1699.81
757.65	1658.85
757.82	1665.00
758.00	1640.42
758.18	1660.90
758.36	1621.99
758.54	1841.12
758.72	1648.61
758.90	1822.69
759.07	1722.34
759.25	1642.47
759.43	1785.83
759.61	1673.19
759.79	2207.71
759.97	1847.27
760.15	1683.43
760.32	1634.28
760.50	1718.25
760.68	1843.17
760.86	1624.04
761.04	1818.60
761.22	1734.63
761.39	1642.47
761.57	1791.97
761.75	1681.38
761.93	1693.67
762.11	1687.53
762.28	1740.77
762.46	1714.15
762.64	1742.82
762.82	1626.09
763.00	1638.38
763.18	1802.21
763.35	1613.80
763.53	1724.39
763.71	1763.30
763.89	1726.44
764.07	1677.29
764.24	1712.10
764.42	1781.73
764.60	1693.67
764.78	1734.63
764.96	1800.16
765.13	1712.10
765.31	1699.81
765.49	1755.11
765.67	1669.09
765.84	1658.85
766.02	1681.38
766.20	1656.81
766.38	1708.01
766.56	1689.57
766.73	1751.01
766.91	1771.49
767.09	1755.11
767.27	1771.49
767.44	1681.38
767.62	1798.12
767.80	1822.69
767.98	1679.33
768.15	1691.62
768.33	1701.86
768.51	1771.49
768.69	1816.55
768.87	1802.21
769.04	1777.64
769.22	1802.21
769.40	1794.02
769.58	1853.41
769.75	1769.44
769.93	1843.17
770.11	1662.95
770.28	1656.81
770.46	1667.05
770.64	1761.25
770.82	1667.05
770.99	1683.43
771.17	1820.64
771.35	1667.05
771.53	1628.14
771.70	1683.43
771.88	1671.14
772.06	1671.14
772.23	1732.58
772.41	1761.25
772.59	1656.81
772.77	1638.38
772.94	1718.25
773.12	1759.21
773.30	1722.34
773.47	1746.92
773.65	1689.57
773.83	1853.41
774.01	1673.19
774.18	1638.38
774.36	1677.29
774.54	1695.72
774.71	1742.82
774.89	1634.28
775.07	1695.72
775.24	1691.62
775.42	1689.57
775.60	1783.78
775.78	1714.15
775.95	1697.77
776.13	1697.77
776.31	1548.26
776.48	1753.06
776.66	1689.57
776.84	1714.15
777.01	1640.42
777.19	1632.23
777.37	1667.05
777.54	1753.06
777.72	1859.56
777.90	1685.48
778.07	1695.72
778.25	1935.33
778.43	1759.21
778.60	1798.12
778.78	1796.07
778.96	1712.10
779.13	1636.33
779.31	1759.21
779.49	1656.81
779.66	1718.25
779.84	1722.34
780.01	1628.14
780.19	1638.38
780.37	1751.01
780.54	1740.77
780.72	1671.14
780.90	1753.06
781.07	1667.05
781.25	1701.86
781.43	1787.88
781.60	1712.10
781.78	1837.03
781.95	1685.48
782.13	1710.05
782.31	1742.82
782.48	1550.31
782.66	1705.96
782.83	1769.44
783.01	1771.49
783.19	1761.25
783.36	1691.62
783.54	1581.03
783.72	1742.82
783.89	1636.33
784.07	1796.07
784.24	1767.40
784.42	1816.55
784.60	1763.30
784.77	1740.77
784.95	1673.19
785.12	1632.23
785.30	1763.30
785.47	1667.05
785.65	1595.37
785.83	1681.38
786.00	1671.14
786.18	1767.40
786.35	1636.33
786.53	1738.73
786.71	1771.49
786.88	1779.68
787.06	1712.10
787.23	1708.01
787.41	1587.18
787.58	1714.15
787.76	1644.52
787.94	1759.21
788.11	1722.34
788.29	1681.38
788.46	1689.57
788.64	1646.57
788.81	1675.24
788.99	1718.25
789.16	1710.05
789.34	1648.61
789.52	1699.81
789.69	1699.81
789.87	1576.94
790.04	1675.24
790.22	1742.82
790.39	1845.22
790.57	1667.05
790.74	1660.90
790.92	1767.40
791.09	1681.38
791.27	1656.81
791.44	1718.25
791.62	1648.61
791.79	1789.92
791.97	1738.73
792.15	1853.41
792.32	1722.34
792.50	1755.11
792.67	1779.68
792.85	1763.30
793.02	1681.38
793.20	1640.42
793.37	1662.95
793.55	1712.10
793.72	1599.46
793.90	1740.77
794.07	1667.05
794.25	1611.75
794.42	1732.58
794.60	1759.21
794.77	1658.85
794.95	1732.58
795.12	1763.30
795.30	1718.25
795.47	1566.70
795.65	1871.84
795.82	1736.68
796.00	1665.00
796.17	1660.90
796.34	1734.63
796.52	1654.76
796.69	1800.16
796.87	1742.82
797.04	1708.01
797.22	1806.31
797.39	1667.05
797.57	1734.63
797.74	1632.23
797.92	1753.06
798.09	1626.09
798.27	1716.20
798.44	1724.39
798.62	1730.53
798.79	1669.09
798.96	1755.11
799.14	1740.77
799.31	1853.41
799.49	1646.57
799.66	1644.52
799.84	1824.74
800.01	1693.67
800.19	1757.16
800.36	1628.14
800.53	1619.94
800.71	1697.77
800.88	1828.84
801.06	1677.29
801.23	1658.85
801.41	1683.43
801.58	1673.19
801.75	1683.43
801.93	1644.52
802.10	1746.92
802.28	1738.73
802.45	1722.34
802.63	1753.06
802.80	1779.68
802.97	1697.77
803.15	1720.29
803.32	1695.72
803.50	1667.05
803.67	1640.42
803.84	1673.19
804.02	1681.38
804.19	1701.86
804.37	1535.98
804.54	1705.96
804.71	1705.96
804.89	1726.44
805.06	1587.18
805.24	1691.62
805.41	1705.96
805.58	1665.00
805.76	1828.84
805.93	1757.16
806.10	1882.08
806.28	1695.72
806.45	1683.43
806.63	1826.79
806.80	1722.34
806.97	1773.54
807.15	1691.62
807.32	1755.11
807.49	1775.59
807.67	1626.09
807.84	1767.40
808.01	1619.94
808.19	1804.26
808.36	1931.23
808.54	1628.14
808.71	1755.11
808.88	1730.53
809.06	1720.29
809.23	1746.92
809.40	1640.42
809.58	1777.64
809.75	1746.92
809.92	1617.90
810.10	1906.66
810.27	1730.53
810.44	1714.15
810.62	1804.26
810.79	1769.44
810.96	1703.91
811.14	1613.80
811.31	1796.07
811.48	1765.35
811.66	1703.91
811.83	1718.25
812.00	1710.05
812.18	1767.40
812.35	1855.46
812.52	1761.25
812.69	1748.97
812.87	1714.15
813.04	1665.00
813.21	1714.15
813.39	1691.62
813.56	1708.01
813.73	1798.12
813.91	1634.28
814.08	1673.19
814.25	1753.06
814.42	1691.62
814.60	1656.81
814.77	1718.25
814.94	1699.81
815.12	1728.49
815.29	1714.15
815.46	1673.19
815.63	1685.48
815.81	1742.82
815.98	1689.57
816.15	1800.16
816.33	1677.29
816.50	1648.61
816.67	1705.96
816.84	1691.62
817.02	1718.25
817.19	1638.38
817.36	1736.68
817.53	1705.96
817.71	1751.01
817.88	1804.26
818.05	1660.90
818.22	1697.77
818.40	1787.88
818.57	1705.96
818.74	1716.20
818.91	1757.16
819.09	1669.09
819.26	1765.35
819.43	1671.14
819.60	1710.05
819.78	1728.49
819.95	1767.40
820.12	1669.09
820.29	1746.92
820.47	1759.21
820.64	1714.15
820.81	1734.63
820.98	1767.40
821.15	1656.81
821.33	1728.49
821.50	1607.66
821.67	1730.53
821.84	1710.05
822.02	1804.26
822.19	1740.77
822.36	1701.86
822.53	1730.53
822.70	1695.72
822.88	1693.67
823.05	1771.49
823.22	1716.20
823.39	1732.58
823.56	1710.05
823.74	1820.64
823.91	1662.95
824.08	1738.73
824.25	1652.71
824.42	1802.21
824.60	1673.19
824.77	1785.83
824.94	1654.76
825.11	1732.58
825.28	1630.18
825.45	1724.39
825.63	1716.20
825.80	1710.05
825.97	1755.11
826.14	1765.35
826.31	1662.95
826.48	1755.11
826.66	1624.04
826.83	1691.62
827.00	1816.55
827.17	1726.44
827.34	1697.77
827.51	1693.67
827.69	1699.81
827.86	1650.66
828.03	1742.82
828.20	1650.66
828.37	1619.94
828.54	1746.92
828.71	1644.52
828.89	1783.78
829.06	1703.91
829.23	1734.63
829.40	1685.48
829.57	1630.18
829.74	1718.25
829.91	1675.24
830.09	1675.24
830.26	1773.54
830.43	1800.16
830.60	1748.97
830.77	1759.21
830.94	1812.45
831.11	1753.06
831.28	1708.01
831.46	1742.82
831.63	1746.92
831.80	1802.21
831.97	1665.00
832.14	1759.21
832.31	1738.73
832.48	1675.24
832.65	1732.58
832.82	1748.97
832.99	1644.52
833.17	1710.05
833.34	1849.32
833.51	1722.34
833.68	1640.42
833.85	1718.25
834.02	1601.51
834.19	1626.09
834.36	1691.62
834.53	1740.77
834.70	1779.68
834.87	1728.49
835.04	1730.53
835.22	1681.38
835.39	1701.86
835.56	1669.09
835.73	1648.61
835.90	1732.58
836.07	1658.85
836.24	1746.92
836.41	1726.44
836.58	1697.77
836.75	1767.40
836.92	1716.20
837.09	1689.57
837.26	1718.25
837.43	1736.68
837.60	1755.11
837.77	1673.19
837.94	1769.44
838.12	1771.49
838.29	1724.39
838.46	1615.85
838.63	1679.33
838.80	1791.97
838.97	1734.63
839.14	1724.39
839.31	1718.25
839.48	1691.62
839.65	1681.38
839.82	1738.73
839.99	1755.11
840.16	1763.30
840.33	1679.33
840.50	1732.58
840.67	1638.38
840.84	1550.31
841.01	1755.11
841.18	1722.34
841.35	1669.09
841.52	1783.78
841.69	1804.26
841.86	1738.73
842.03	1693.67
842.20	1734.63
842.37	1757.16
842.54	1689.57
842.71	1730.53
842.88	1638.38
843.05	1765.35
843.22	1673.19
843.39	1757.16
843.56	1710.05
843.73	1730.53
843.90	1767.40
844.07	1726.44
844.24	1802.21
844.41	1820.64
844.58	1718.25
844.75	1681.38
844.92	1771.49
845.09	1708.01
845.26	1724.39
845.43	1724.39
845.60	1804.26
845.77	1806.31
845.94	1699.81
846.10	1828.84
846.27	1607.66
846.44	1640.42
846.61	1689.57
846.78	1755.11
846.95	1789.92
847.12	1689.57
847.29	1761.25
847.46	1693.67
847.63	1816.55
847.80	1619.94
847.97	1685.48
848.14	1877.99
848.31	1665.00
848.48	1662.95
848.65	1791.97
848.82	1681.38
848.98	1880.04
849.15	1761.25
849.32	1708.01
849.49	1787.88
849.66	1722.34
849.83	1730.53
850.00	1609.70
850.17	1736.68
850.34	1759.21
850.51	1728.49
850.68	1656.81
850.85	1853.41
851.01	1787.88
851.18	1648.61
851.35	1714.15
851.52	1730.53
851.69	1771.49
851.86	1566.70
852.03	1697.77
852.20	1736.68
852.37	1689.57
852.53	1581.03
852.70	1710.05
852.87	1798.12
853.04	1761.25
853.21	1736.68
853.38	1726.44
853.55	1751.01
853.72	1798.12
853.89	1626.09
854.05	1648.61
854.22	1708.01
854.39	1599.46
854.56	1794.02
854.73	1787.88
854.90	1673.19
855.07	1679.33
855.23	1742.82
855.40	1621.99
855.57	1673.19
855.74	1624.04
855.91	1871.84
856.08	1665.00
856.25	1576.94
856.41	1669.09
856.58	1767.40
856.75	1720.29
856.92	1574.89
857.09	1730.53
857.26	1644.52
857.42	1728.49
857.59	1660.90
857.76	1624.04
857.93	1712.10
858.10	1693.67
858.27	1601.51
858.43	1710.05
858.60	1591.27
858.77	1665.00
858.94	1648.61
859.11	1718.25
859.27	1613.80
859.44	1730.53
859.61	1857.51
859.78	1724.39
859.95	1769.44
860.12	1642.47
860.28	1787.88
860.45	1824.74
860.62	1705.96
860.79	1718.25
860.95	1687.53
861.12	1695.72
861.29	1624.04
861.46	1601.51
861.63	1691.62
861.79	1714.15
861.96	1636.33
862.13	1759.21
862.30	1779.68
862.47	1656.81
862.63	1730.53
862.80	1783.78
862.97	1699.81
863.14	1734.63
863.30	1730.53
863.47	1615.85
863.64	1779.68
863.81	1679.33
863.97	1665.00
864.14	1710.05
864.31	1726.44
864.48	1748.97
864.65	1679.33
864.81	1691.62
864.98	1779.68
865.15	1705.96
865.32	1734.63
865.48	1732.58
865.65	1781.73
865.82	1624.04
865.98	1669.09
866.15	1746.92
866.32	1697.77
866.49	1656.81
866.65	1771.49
866.82	1652.71
866.99	1665.00
867.16	1665.00
867.32	1644.52
867.49	1755.11
867.66	1701.86
867.83	1632.23
867.99	1538.02
868.16	1714.15
868.33	1615.85
868.49	1742.82
868.66	1693.67
868.83	1714.15
868.99	1767.40
869.16	1740.77
869.33	1781.73
869.50	1798.12
869.66	1681.38
869.83	1720.29
870.00	1615.85
870.16	1740.77
870.33	1689.57
870.50	1822.69
870.66	1710.05
870.83	1806.31
871.00	1701.86
871.17	1665.00
871.33	1755.11
871.50	1736.68
871.67	1652.71
871.83	1556.46
872.00	1777.64
872.17	1699.81
872.33	1847.27
872.50	1740.77
872.67	1675.24
872.83	1669.09
873.00	1718.25
873.17	1697.77
873.33	1662.95
873.50	1738.73
873.67	1677.29
873.83	1738.73
874.00	1705.96
874.16	1775.59
874.33	1728.49
874.50	1665.00
874.66	1824.74
874.83	1703.91
875.00	1744.87
875.16	1789.92
875.33	1789.92
875.50	1605.61
875.66	1671.14
875.83	1712.10
875.99	1720.29
876.16	1722.34
876.33	1560.55
876.49	1740.77
876.66	1712.10
876.83	1722.34
876.99	1583.08
877.16	1697.77
877.32	1687.53
877.49	1658.85
877.66	1761.25
877.82	1824.74
877.99	1740.77
878.15	1771.49
878.32	1636.33
878.49	1751.01
878.65	1722.34
878.82	1800.16
878.98	1671.14
879.15	1771.49
879.32	1755.11
879.48	1714.15
879.65	1621.99
879.81	1705.96
879.98	1662.95
880.15	1738.73
880.31	1730.53
880.48	1646.57
880.64	1744.87
880.81	1744.87
880.97	1779.68
881.14	1716.20
881.31	1636.33
881.47	1796.07
881.64	1652.71
881.80	1732.58
881.97	1685.48
882.13	1724.39
882.30	1712.10
882.47	1683.43
882.63	1673.19
882.80	1714.15
882.96	1693.67
883.13	1753.06
883.29	1697.77
883.46	1765.35
883.62	1873.89
883.79	1757.16
883.95	1818.60
884.12	1740.77
884.29	1689.57
884.45	1710.05
884.62	1732.58
884.78	1669.09
884.95	1761.25
885.11	1681.38
885.28	1755.11
885.44	1703.91
885.61	1751.01
885.77	1777.64
885.94	1736.68
886.10	1746.92
886.27	1689.57
886.43	1822.69
886.60	1839.08
886.76	1730.53
886.93	1669.09
887.09	1712.10
887.26	1638.38
887.42	1744.87
887.59	1738.73
887.75	1892.32
887.92	1763.30
888.08	1824.74
888.25	1796.07
888.41	1775.59
888.58	1660.90
888.74	1650.66
888.91	1724.39
>>>>>End Processed Spectral Data<<<<<
