SpectraSuite Data File
++++++++++++++++++++++++++++++++++++
Date: Mon Jun 06 17:03:57 CEST 2016
User: root
Dark Spectrum Present: No
Reference Spectrum Present: No
Number of Sampled Component Spectra: 1
Spectrometers: USB4C02835
Integration Time (usec): 100000 (USB4C02835)
Spectra Averaged: 1 (USB4C02835)
Boxcar Smoothing: 0 (USB4C02835)
Correct for Electrical Dark: No (USB4C02835)
Strobe/Lamp Enabled: No (USB4C02835)
Correct for Detector Non-linearity: No (USB4C02835)
Correct for Stray Light: No (USB4C02835)
Number of Pixels in Processed Spectrum: 3648
>>>>>Begin Processed Spectral Data<<<<<
177.47	1482.73
177.69	1482.73
177.91	1482.73
178.13	1384.43
178.36	1507.30
178.58	1675.24
178.80	1732.58
179.02	1607.66
179.24	1658.85
179.46	1697.77
179.68	1798.12
179.90	1701.86
180.13	1769.44
180.35	1640.42
180.57	1740.77
180.79	1777.64
181.01	1718.25
181.23	1771.49
181.45	1757.16
181.67	1748.97
181.90	1785.83
182.12	1689.57
182.34	1595.37
182.56	1785.83
182.78	1722.34
183.00	1740.77
183.22	1757.16
183.44	1619.94
183.66	1847.27
183.89	1751.01
184.11	1751.01
184.33	1730.53
184.55	1714.15
184.77	1728.49
184.99	1703.91
185.21	1697.77
185.43	1830.88
185.65	1695.72
185.87	1710.05
186.10	1853.41
186.32	1826.79
186.54	1781.73
186.76	1820.64
186.98	1728.49
187.20	1679.33
187.42	1646.57
187.64	1757.16
187.86	1724.39
188.08	1802.21
188.30	1687.53
188.52	1634.28
188.75	1759.21
188.97	1783.78
189.19	1669.09
189.41	1771.49
189.63	1757.16
189.85	1634.28
190.07	1619.94
190.29	1728.49
190.51	1675.24
190.73	1566.70
190.95	1818.60
191.17	1740.77
191.39	1615.85
191.61	1701.86
191.84	1718.25
192.06	1691.62
192.28	1679.33
192.50	1929.19
192.72	1665.00
192.94	1800.16
193.16	1736.68
193.38	1703.91
193.60	1593.32
193.82	1685.48
194.04	1738.73
194.26	1763.30
194.48	1705.96
194.70	1624.04
194.92	1705.96
195.14	1783.78
195.36	1677.29
195.58	1708.01
195.80	1630.18
196.02	1689.57
196.24	1675.24
196.46	1691.62
196.69	1673.19
196.91	1816.55
197.13	1714.15
197.35	1687.53
197.57	1802.21
197.79	1796.07
198.01	1642.47
198.23	1718.25
198.45	1736.68
198.67	1724.39
198.89	1697.77
199.11	1726.44
199.33	1705.96
199.55	1634.28
199.77	1767.40
199.99	1751.01
200.21	1626.09
200.43	1755.11
200.65	1642.47
200.87	1560.55
201.09	1689.57
201.31	1671.14
201.53	1841.12
201.75	1665.00
201.97	1740.77
202.19	1681.38
202.41	1675.24
202.63	1800.16
202.85	1695.72
203.07	1732.58
203.29	1677.29
203.51	1630.18
203.73	1677.29
203.95	1947.62
204.17	1665.00
204.39	1740.77
204.61	1673.19
204.83	1685.48
205.05	1816.55
205.27	1699.81
205.49	1832.93
205.71	1681.38
205.93	1683.43
206.15	1681.38
206.37	1736.68
206.59	1687.53
206.81	1660.90
207.03	1673.19
207.25	1724.39
207.47	1683.43
207.69	1708.01
207.91	1769.44
208.13	1771.49
208.34	1632.23
208.56	1759.21
208.78	1724.39
209.00	1681.38
209.22	1714.15
209.44	1708.01
209.66	1703.91
209.88	1724.39
210.10	1716.20
210.32	1628.14
210.54	1773.54
210.76	1673.19
210.98	1763.30
211.20	1566.70
211.42	1742.82
211.64	1802.21
211.86	1722.34
212.08	1796.07
212.30	1736.68
212.52	1607.66
212.74	1699.81
212.96	1675.24
213.17	1769.44
213.39	1753.06
213.61	1769.44
213.83	1773.54
214.05	1703.91
214.27	1753.06
214.49	1619.94
214.71	1660.90
214.93	1781.73
215.15	1734.63
215.37	1722.34
215.59	1689.57
215.81	1761.25
216.03	1796.07
216.24	1751.01
216.46	1626.09
216.68	1755.11
216.90	1746.92
217.12	1708.01
217.34	1716.20
217.56	1687.53
217.78	1783.78
218.00	1710.05
218.22	1785.83
218.44	1820.64
218.66	1718.25
218.87	1882.08
219.09	1665.00
219.31	1746.92
219.53	1708.01
219.75	1705.96
219.97	1673.19
220.19	1787.88
220.41	1716.20
220.63	1783.78
220.85	1722.34
221.06	1685.48
221.28	1789.92
221.50	1777.64
221.72	1783.78
221.94	1740.77
222.16	1689.57
222.38	1806.31
222.60	1732.58
222.82	1710.05
223.03	1697.77
223.25	1701.86
223.47	1730.53
223.69	1837.03
223.91	1673.19
224.13	1660.90
224.35	1658.85
224.57	1812.45
224.78	1769.44
225.00	1738.73
225.22	1734.63
225.44	1650.66
225.66	1685.48
225.88	1736.68
226.10	1828.84
226.32	1724.39
226.53	1736.68
226.75	1673.19
226.97	1673.19
227.19	1769.44
227.41	1689.57
227.63	1650.66
227.85	1650.66
228.06	1736.68
228.28	1724.39
228.50	1837.03
228.72	1613.80
228.94	1665.00
229.16	1652.71
229.37	1656.81
229.59	1638.38
229.81	1763.30
230.03	1656.81
230.25	1699.81
230.47	1685.48
230.69	1681.38
230.90	1728.49
231.12	1671.14
231.34	1705.96
231.56	1763.30
231.78	1601.51
232.00	1701.86
232.21	1736.68
232.43	1689.57
232.65	1581.03
232.87	1808.36
233.09	1714.15
233.30	1615.85
233.52	1734.63
233.74	1730.53
233.96	1691.62
234.18	1736.68
234.40	1687.53
234.61	1777.64
234.83	1665.00
235.05	1652.71
235.27	1845.22
235.49	1757.16
235.70	1642.47
235.92	1773.54
236.14	1716.20
236.36	1863.65
236.58	1691.62
236.79	1730.53
237.01	1710.05
237.23	1744.87
237.45	1800.16
237.67	1671.14
237.88	1679.33
238.10	1816.55
238.32	1646.57
238.54	1679.33
238.76	1720.29
238.97	1650.66
239.19	1691.62
239.41	1755.11
239.63	1693.67
239.85	1728.49
240.06	1755.11
240.28	1615.85
240.50	1720.29
240.72	1712.10
240.93	1648.61
241.15	1724.39
241.37	1746.92
241.59	1787.88
241.81	1630.18
242.02	1681.38
242.24	1705.96
242.46	1683.43
242.68	1701.86
242.89	1773.54
243.11	1732.58
243.33	1726.44
243.55	1701.86
243.76	1775.59
243.98	1728.49
244.20	1681.38
244.42	1679.33
244.64	1693.67
244.85	1697.77
245.07	1730.53
245.29	1736.68
245.51	1730.53
245.72	1742.82
245.94	1757.16
246.16	1714.15
246.38	1800.16
246.59	1615.85
246.81	1665.00
247.03	1656.81
247.24	1689.57
247.46	1757.16
247.68	1689.57
247.90	1705.96
248.11	1650.66
248.33	1779.68
248.55	1701.86
248.77	1724.39
248.98	1783.78
249.20	1837.03
249.42	1679.33
249.64	1722.34
249.85	1767.40
250.07	1693.67
250.29	1771.49
250.50	1826.79
250.72	1617.90
250.94	1716.20
251.16	1826.79
251.37	1828.84
251.59	1687.53
251.81	1857.51
252.02	1806.31
252.24	1587.18
252.46	1826.79
252.68	1644.52
252.89	1656.81
253.11	1658.85
253.33	1847.27
253.54	1769.44
253.76	1675.24
253.98	1638.38
254.20	1736.68
254.41	1636.33
254.63	1646.57
254.85	1675.24
255.06	1705.96
255.28	1724.39
255.50	1652.71
255.71	1728.49
255.93	1638.38
256.15	1691.62
256.36	1783.78
256.58	1718.25
256.80	1787.88
257.02	1718.25
257.23	1730.53
257.45	1697.77
257.67	1785.83
257.88	1650.66
258.10	1771.49
258.32	1665.00
258.53	1703.91
258.75	1773.54
258.97	1705.96
259.18	1665.00
259.40	1730.53
259.62	1843.17
259.83	1751.01
260.05	1814.50
260.27	2037.73
260.48	1804.26
260.70	1714.15
260.92	1699.81
261.13	1687.53
261.35	1683.43
261.57	1728.49
261.78	1742.82
262.00	1703.91
262.22	1732.58
262.43	1697.77
262.65	1710.05
262.86	1716.20
263.08	1781.73
263.30	1753.06
263.51	1685.48
263.73	1677.29
263.95	1794.02
264.16	1710.05
264.38	1667.05
264.60	1732.58
264.81	1636.33
265.03	1820.64
265.25	1728.49
265.46	1757.16
265.68	1771.49
265.89	1714.15
266.11	1574.89
266.33	1734.63
266.54	1708.01
266.76	1708.01
266.98	1724.39
267.19	1742.82
267.41	1806.31
267.62	1699.81
267.84	1648.61
268.06	1773.54
268.27	1652.71
268.49	1757.16
268.70	1832.93
268.92	1671.14
269.14	1689.57
269.35	1638.38
269.57	1697.77
269.79	1722.34
270.00	1695.72
270.22	1828.84
270.43	1730.53
270.65	1667.05
270.87	1693.67
271.08	1716.20
271.30	1730.53
271.51	1712.10
271.73	1775.59
271.95	1783.78
272.16	1712.10
272.38	1712.10
272.59	1677.29
272.81	1722.34
273.02	1781.73
273.24	1732.58
273.46	1652.71
273.67	1593.32
273.89	1693.67
274.10	1605.61
274.32	1781.73
274.54	1716.20
274.75	1794.02
274.97	1714.15
275.18	1794.02
275.40	1769.44
275.61	1683.43
275.83	1765.35
276.05	1640.42
276.26	1681.38
276.48	1751.01
276.69	1767.40
276.91	1667.05
277.12	1820.64
277.34	1771.49
277.55	1767.40
277.77	1699.81
277.99	1667.05
278.20	1607.66
278.42	1667.05
278.63	1621.99
278.85	1681.38
279.06	1611.75
279.28	1699.81
279.49	1746.92
279.71	1730.53
279.93	1687.53
280.14	1677.29
280.36	1593.32
280.57	1722.34
280.79	1789.92
281.00	1654.76
281.22	1699.81
281.43	1791.97
281.65	1646.57
281.86	1603.56
282.08	1828.84
282.29	1787.88
282.51	1662.95
282.73	1658.85
282.94	1638.38
283.16	1763.30
283.37	1710.05
283.59	1744.87
283.80	1787.88
284.02	1796.07
284.23	1773.54
284.45	1685.48
284.66	1611.75
284.88	1619.94
285.09	1724.39
285.31	1765.35
285.52	1708.01
285.74	1644.52
285.95	1781.73
286.17	1722.34
286.38	1794.02
286.60	1660.90
286.81	1705.96
287.03	1665.00
287.24	1722.34
287.46	1732.58
287.67	1712.10
287.89	1818.60
288.10	1718.25
288.32	1773.54
288.53	1736.68
288.75	1681.38
288.96	1837.03
289.18	1632.23
289.39	1701.86
289.61	1763.30
289.82	1824.74
290.04	1732.58
290.25	1611.75
290.47	1724.39
290.68	1775.59
290.90	1736.68
291.11	1701.86
291.33	1734.63
291.54	1685.48
291.76	1667.05
291.97	1699.81
292.18	1769.44
292.40	1662.95
292.61	1660.90
292.83	1863.65
293.04	1812.45
293.26	1738.73
293.47	1671.14
293.69	1683.43
293.90	1710.05
294.12	1761.25
294.33	1660.90
294.55	1652.71
294.76	1816.55
294.97	1740.77
295.19	1789.92
295.40	1722.34
295.62	1667.05
295.83	1789.92
296.05	1705.96
296.26	1736.68
296.48	1671.14
296.69	1757.16
296.90	1681.38
297.12	1783.78
297.33	1775.59
297.55	1701.86
297.76	1724.39
297.98	1732.58
298.19	1703.91
298.41	1695.72
298.62	1630.18
298.83	1845.22
299.05	1755.11
299.26	1761.25
299.48	1708.01
299.69	1724.39
299.90	1724.39
300.12	1710.05
300.33	1693.67
300.55	1722.34
300.76	1714.15
300.98	1660.90
301.19	1732.58
301.40	1701.86
301.62	1644.52
301.83	1712.10
302.05	1734.63
302.26	1751.01
302.47	1654.76
302.69	1642.47
302.90	1687.53
303.12	1591.27
303.33	1751.01
303.54	1816.55
303.76	1650.66
303.97	1681.38
304.19	1812.45
304.40	1695.72
304.61	1808.36
304.83	1800.16
305.04	1789.92
305.26	1728.49
305.47	1716.20
305.68	1787.88
305.90	1685.48
306.11	1759.21
306.33	1765.35
306.54	1632.23
306.75	1703.91
306.97	1632.23
307.18	1695.72
307.39	1636.33
307.61	1751.01
307.82	1763.30
308.04	1751.01
308.25	1699.81
308.46	1730.53
308.68	1759.21
308.89	1617.90
309.10	1828.84
309.32	1718.25
309.53	1636.33
309.74	1759.21
309.96	1720.29
310.17	1818.60
310.39	1634.28
310.60	1685.48
310.81	1703.91
311.03	1646.57
311.24	1767.40
311.45	1671.14
311.67	1808.36
311.88	1648.61
312.09	1695.72
312.31	1654.76
312.52	1701.86
312.73	1667.05
312.95	1642.47
313.16	1681.38
313.37	1824.74
313.59	1732.58
313.80	1675.24
314.01	1812.45
314.23	1634.28
314.44	1673.19
314.65	1652.71
314.87	1691.62
315.08	1679.33
315.29	1691.62
315.51	1691.62
315.72	1638.38
315.93	1814.50
316.15	1738.73
316.36	1636.33
316.57	1685.48
316.79	1748.97
317.00	1720.29
317.21	1751.01
317.43	1642.47
317.64	1722.34
317.85	1703.91
318.07	1654.76
318.28	1689.57
318.49	1853.41
318.70	1933.28
318.92	1769.44
319.13	1832.93
319.34	1834.98
319.56	1751.01
319.77	1746.92
319.98	1816.55
320.20	1820.64
320.41	1730.53
320.62	1765.35
320.83	1654.76
321.05	1820.64
321.26	1730.53
321.47	1708.01
321.69	1718.25
321.90	1611.75
322.11	1714.15
322.32	1656.81
322.54	1742.82
322.75	1662.95
322.96	1826.79
323.18	1642.47
323.39	1556.46
323.60	1742.82
323.81	1802.21
324.03	1728.49
324.24	1789.92
324.45	1683.43
324.66	1705.96
324.88	1791.97
325.09	1740.77
325.30	1720.29
325.52	1691.62
325.73	1730.53
325.94	1716.20
326.15	1613.80
326.37	1658.85
326.58	1708.01
326.79	1820.64
327.00	1669.09
327.22	1769.44
327.43	1681.38
327.64	1669.09
327.85	1796.07
328.07	1755.11
328.28	1816.55
328.49	1734.63
328.70	1701.86
328.92	1732.58
329.13	1718.25
329.34	1705.96
329.55	1773.54
329.76	1734.63
329.98	1669.09
330.19	1798.12
330.40	1736.68
330.61	1761.25
330.83	1775.59
331.04	1617.90
331.25	1736.68
331.46	1699.81
331.68	1687.53
331.89	1794.02
332.10	1722.34
332.31	1665.00
332.52	1667.05
332.74	1796.07
332.95	1591.27
333.16	1662.95
333.37	1734.63
333.58	1724.39
333.80	1691.62
334.01	1574.89
334.22	1638.38
334.43	1697.77
334.64	1681.38
334.86	1658.85
335.07	1650.66
335.28	1783.78
335.49	1572.84
335.70	1861.60
335.92	1812.45
336.13	1853.41
336.34	1751.01
336.55	1712.10
336.76	1695.72
336.98	1640.42
337.19	1732.58
337.40	1779.68
337.61	1851.36
337.82	1724.39
338.04	1748.97
338.25	1646.57
338.46	1734.63
338.67	1697.77
338.88	1617.90
339.09	1669.09
339.31	1640.42
339.52	1701.86
339.73	1615.85
339.94	1742.82
340.15	1732.58
340.36	1687.53
340.58	1693.67
340.79	1658.85
341.00	1689.57
341.21	1650.66
341.42	1820.64
341.63	1652.71
341.85	1822.69
342.06	1812.45
342.27	1683.43
342.48	1814.50
342.69	1648.61
342.90	1755.11
343.12	1730.53
343.33	1699.81
343.54	1810.40
343.75	1740.77
343.96	1746.92
344.17	1607.66
344.38	1742.82
344.60	1675.24
344.81	1617.90
345.02	1746.92
345.23	1671.14
345.44	1812.45
345.65	1720.29
345.86	1738.73
346.07	1718.25
346.29	1669.09
346.50	1746.92
346.71	1798.12
346.92	1806.31
347.13	1822.69
347.34	1697.77
347.55	1714.15
347.76	1710.05
347.98	1722.34
348.19	1697.77
348.40	1837.03
348.61	1683.43
348.82	1853.41
349.03	1779.68
349.24	1628.14
349.45	1853.41
349.66	1542.12
349.88	1787.88
350.09	1665.00
350.30	1710.05
350.51	1841.12
350.72	1650.66
350.93	1753.06
351.14	1638.38
351.35	1763.30
351.56	1712.10
351.77	1716.20
351.99	1789.92
352.20	1896.42
352.41	1769.44
352.62	1648.61
352.83	1681.38
353.04	1681.38
353.25	1697.77
353.46	1783.78
353.67	1812.45
353.88	1636.33
354.09	1738.73
354.30	1699.81
354.52	1773.54
354.73	1730.53
354.94	1599.46
355.15	1710.05
355.36	1796.07
355.57	1697.77
355.78	1722.34
355.99	1673.19
356.20	1677.29
356.41	1744.87
356.62	1755.11
356.83	1740.77
357.04	1716.20
357.25	1634.28
357.46	1708.01
357.68	1648.61
357.89	1662.95
358.10	1779.68
358.31	1685.48
358.52	1669.09
358.73	1669.09
358.94	1617.90
359.15	1671.14
359.36	1765.35
359.57	1738.73
359.78	1652.71
359.99	1669.09
360.20	1660.90
360.41	1712.10
360.62	1757.16
360.83	1775.59
361.04	1751.01
361.25	1779.68
361.46	1765.35
361.67	1736.68
361.88	1742.82
362.09	1736.68
362.30	1724.39
362.51	1679.33
362.72	1755.11
362.93	1791.97
363.14	1765.35
363.35	1757.16
363.56	1751.01
363.78	1800.16
363.99	1808.36
364.20	1705.96
364.41	1746.92
364.62	1814.50
364.83	1757.16
365.04	1726.44
365.25	1665.00
365.46	1820.64
365.67	1603.56
365.88	1689.57
366.09	1665.00
366.30	1640.42
366.51	1677.29
366.72	1621.99
366.93	1738.73
367.14	1712.10
367.35	1705.96
367.56	1705.96
367.77	1746.92
367.98	1710.05
368.18	1783.78
368.39	1771.49
368.60	1662.95
368.81	1763.30
369.02	1730.53
369.23	1781.73
369.44	1640.42
369.65	1677.29
369.86	1789.92
370.07	1775.59
370.28	1621.99
370.49	1771.49
370.70	1738.73
370.91	1724.39
371.12	1660.90
371.33	1820.64
371.54	1705.96
371.75	1753.06
371.96	1572.84
372.17	1718.25
372.38	1687.53
372.59	1742.82
372.80	1705.96
373.01	1755.11
373.22	1722.34
373.43	1744.87
373.64	1578.98
373.85	1832.93
374.06	1738.73
374.26	1763.30
374.47	1652.71
374.68	1802.21
374.89	1718.25
375.10	1699.81
375.31	1767.40
375.52	1693.67
375.73	1787.88
375.94	1644.52
376.15	1794.02
376.36	1619.94
376.57	1626.09
376.78	1695.72
376.99	1730.53
377.20	1863.65
377.40	1667.05
377.61	1742.82
377.82	1693.67
378.03	1771.49
378.24	1699.81
378.45	1714.15
378.66	1828.84
378.87	1621.99
379.08	1589.22
379.29	1722.34
379.50	1796.07
379.71	1656.81
379.91	1732.58
380.12	1718.25
380.33	1726.44
380.54	1679.33
380.75	1736.68
380.96	1693.67
381.17	1769.44
381.38	1671.14
381.59	1800.16
381.80	1681.38
382.00	1830.88
382.21	1746.92
382.42	1845.22
382.63	1853.41
382.84	1748.97
383.05	1798.12
383.26	1814.50
383.47	1767.40
383.68	1800.16
383.88	1695.72
384.09	1714.15
384.30	1849.32
384.51	1755.11
384.72	1710.05
384.93	1681.38
385.14	1703.91
385.35	1734.63
385.55	1734.63
385.76	1777.64
385.97	1695.72
386.18	1603.56
386.39	1634.28
386.60	1660.90
386.81	1734.63
387.02	1708.01
387.22	1597.42
387.43	1753.06
387.64	1763.30
387.85	1847.27
388.06	2183.13
388.27	4241.34
388.48	6772.63
388.68	8349.57
388.89	9492.34
389.10	9996.14
389.31	8626.04
389.52	7477.13
389.73	6725.53
389.93	6270.88
390.14	5871.53
390.35	5261.23
390.56	4517.82
390.77	3907.52
390.98	2977.75
391.18	2537.43
391.39	2088.93
391.60	1828.84
391.81	1857.51
392.02	1759.21
392.23	1863.65
392.43	1728.49
392.64	1808.36
392.85	1673.19
393.06	1830.88
393.27	1671.14
393.47	1695.72
393.68	1708.01
393.89	1763.30
394.10	1902.56
394.31	1691.62
394.52	1710.05
394.72	1660.90
394.93	1771.49
395.14	1619.94
395.35	1767.40
395.56	1697.77
395.76	1751.01
395.97	1824.74
396.18	1783.78
396.39	1759.21
396.60	2054.11
396.80	1925.09
397.01	1875.94
397.22	1890.28
397.43	1861.60
397.64	1644.52
397.84	1796.07
398.05	1863.65
398.26	1771.49
398.47	1724.39
398.67	1806.31
398.88	1755.11
399.09	1722.34
399.30	1681.38
399.51	1746.92
399.71	1615.85
399.92	1705.96
400.13	1763.30
400.34	1685.48
400.54	1738.73
400.75	1755.11
400.96	1744.87
401.17	1847.27
401.37	1652.71
401.58	1708.01
401.79	1744.87
402.00	1871.84
402.21	2039.78
402.41	1976.29
402.62	1982.43
402.83	2062.30
403.04	2004.96
403.24	2017.25
403.45	1904.61
403.66	1923.04
403.87	1943.52
404.07	1986.53
404.28	1892.32
404.49	1892.32
404.70	1802.21
404.90	1724.39
405.11	1789.92
405.32	1746.92
405.52	1693.67
405.73	1644.52
405.94	1683.43
406.15	1703.91
406.35	1730.53
406.56	1742.82
406.77	1755.11
406.98	1775.59
407.18	1693.67
407.39	1851.36
407.60	1734.63
407.80	1691.62
408.01	1742.82
408.22	1789.92
408.43	1619.94
408.63	1646.57
408.84	1810.40
409.05	1781.73
409.25	1658.85
409.46	1722.34
409.67	1638.38
409.88	1697.77
410.08	1775.59
410.29	1693.67
410.50	1716.20
410.70	1712.10
410.91	1703.91
411.12	1705.96
411.32	1650.66
411.53	1712.10
411.74	1787.88
411.95	1771.49
412.15	1787.88
412.36	1753.06
412.57	1732.58
412.77	1845.22
412.98	1712.10
413.19	1718.25
413.39	1765.35
413.60	1712.10
413.81	1814.50
414.01	1607.66
414.22	1796.07
414.43	1732.58
414.63	1699.81
414.84	1818.60
415.05	1753.06
415.25	1644.52
415.46	1751.01
415.67	1671.14
415.87	1751.01
416.08	1701.86
416.29	1628.14
416.49	1708.01
416.70	1771.49
416.91	1693.67
417.11	1621.99
417.32	1781.73
417.53	1744.87
417.73	1777.64
417.94	1675.24
418.15	1720.29
418.35	1652.71
418.56	1695.72
418.77	1871.84
418.97	1732.58
419.18	1781.73
419.38	1572.84
419.59	1722.34
419.80	1861.60
420.00	1753.06
420.21	1724.39
420.42	1742.82
420.62	1689.57
420.83	1613.80
421.04	1693.67
421.24	1697.77
421.45	1738.73
421.65	1740.77
421.86	1718.25
422.07	1808.36
422.27	1665.00
422.48	1755.11
422.69	1699.81
422.89	1738.73
423.10	1703.91
423.30	1685.48
423.51	1705.96
423.72	1755.11
423.92	1767.40
424.13	1630.18
424.33	1714.15
424.54	1818.60
424.75	1718.25
424.95	1785.83
425.16	1718.25
425.36	1736.68
425.57	1791.97
425.78	1755.11
425.98	1732.58
426.19	1681.38
426.39	1691.62
426.60	1724.39
426.81	1822.69
427.01	1748.97
427.22	1650.66
427.42	1562.60
427.63	1697.77
427.83	1820.64
428.04	1855.46
428.25	1783.78
428.45	1814.50
428.66	1746.92
428.86	1695.72
429.07	1755.11
429.28	1800.16
429.48	1714.15
429.69	1730.53
429.89	1736.68
430.10	1705.96
430.30	1740.77
430.51	1875.94
430.71	1718.25
430.92	1693.67
431.13	1722.34
431.33	1820.64
431.54	1687.53
431.74	1841.12
431.95	1826.79
432.15	1732.58
432.36	1718.25
432.56	1765.35
432.77	1896.42
432.98	1787.88
433.18	1710.05
433.39	1660.90
433.59	1779.68
433.80	1855.46
434.00	1822.69
434.21	1693.67
434.41	1710.05
434.62	1855.46
434.82	1640.42
435.03	1677.29
435.23	1695.72
435.44	1587.18
435.64	1718.25
435.85	1808.36
436.06	1667.05
436.26	1787.88
436.47	1648.61
436.67	1677.29
436.88	1701.86
437.08	1738.73
437.29	1699.81
437.49	1675.24
437.70	1816.55
437.90	1742.82
438.11	1869.80
438.31	1855.46
438.52	1888.23
438.72	1732.58
438.93	1984.48
439.13	1798.12
439.34	1886.18
439.54	1708.01
439.75	1808.36
439.95	1789.92
440.16	1771.49
440.36	1767.40
440.57	1759.21
440.77	1791.97
440.98	1665.00
441.18	1753.06
441.39	1720.29
441.59	1636.33
441.80	1880.04
442.00	1714.15
442.21	1841.12
442.41	1738.73
442.62	1773.54
442.82	1632.23
443.02	1781.73
443.23	1763.30
443.43	1650.66
443.64	1816.55
443.84	1726.44
444.05	1869.80
444.25	1691.62
444.46	1718.25
444.66	1746.92
444.87	1822.69
445.07	1626.09
445.28	1783.78
445.48	1748.97
445.69	1791.97
445.89	1916.90
446.09	1779.68
446.30	2015.20
446.50	2674.65
446.71	3604.42
446.91	4437.95
447.12	4757.43
447.32	4753.34
447.53	4296.64
447.73	3913.67
447.93	3633.10
448.14	3282.89
448.34	3215.31
448.55	2971.60
448.75	2889.68
448.96	2731.99
449.16	2445.27
449.36	2306.01
449.57	2121.70
449.77	1933.28
449.98	1775.59
450.18	1853.41
450.39	1914.85
450.59	1755.11
450.79	1763.30
451.00	1775.59
451.20	1806.31
451.41	1718.25
451.61	1759.21
451.81	1806.31
452.02	1665.00
452.22	1697.77
452.43	1734.63
452.63	1777.64
452.84	1693.67
453.04	1705.96
453.24	1748.97
453.45	1714.15
453.65	1697.77
453.86	1697.77
454.06	1734.63
454.26	1712.10
454.47	1718.25
454.67	1918.95
454.87	1781.73
455.08	1712.10
455.28	1800.16
455.49	1718.25
455.69	1689.57
455.89	1812.45
456.10	1785.83
456.30	1701.86
456.51	1718.25
456.71	1796.07
456.91	1826.79
457.12	1730.53
457.32	1798.12
457.52	1724.39
457.73	1841.12
457.93	1753.06
458.14	1759.21
458.34	1687.53
458.54	1738.73
458.75	1753.06
458.95	1714.15
459.15	1730.53
459.36	1798.12
459.56	1740.77
459.76	1865.70
459.97	1722.34
460.17	1728.49
460.37	1753.06
460.58	1724.39
460.78	1738.73
460.99	1748.97
461.19	1773.54
461.39	1761.25
461.60	1816.55
461.80	1742.82
462.00	1714.15
462.21	1716.20
462.41	1667.05
462.61	1691.62
462.82	1660.90
463.02	1853.41
463.22	1734.63
463.43	1751.01
463.63	1728.49
463.83	1761.25
464.04	1771.49
464.24	1720.29
464.44	1650.66
464.64	1667.05
464.85	1787.88
465.05	1755.11
465.25	1738.73
465.46	1722.34
465.66	1712.10
465.86	1789.92
466.07	1781.73
466.27	1705.96
466.47	1634.28
466.68	1738.73
466.88	1742.82
467.08	1701.86
467.29	1843.17
467.49	1734.63
467.69	1746.92
467.89	1841.12
468.10	1693.67
468.30	1656.81
468.50	1779.68
468.71	1849.32
468.91	1701.86
469.11	1875.94
469.31	1652.71
469.52	1718.25
469.72	1843.17
469.92	1808.36
470.13	1726.44
470.33	1816.55
470.53	1810.40
470.73	2090.98
470.94	2281.44
471.14	2340.83
471.34	2449.37
471.54	2471.90
471.75	2197.47
471.95	2056.16
472.15	2084.83
472.36	2086.88
472.56	2035.68
472.76	2058.21
472.96	2033.63
473.17	1935.33
473.37	1918.95
473.57	1843.17
473.77	1765.35
473.98	1748.97
474.18	1722.34
474.38	1849.32
474.58	1742.82
474.79	1687.53
474.99	1759.21
475.19	1763.30
475.39	1662.95
475.60	1738.73
475.80	1712.10
476.00	1779.68
476.20	1740.77
476.41	1787.88
476.61	1820.64
476.81	1791.97
477.01	1630.18
477.21	1873.89
477.42	1824.74
477.62	1615.85
477.82	1812.45
478.02	1693.67
478.23	1755.11
478.43	1665.00
478.63	1648.61
478.83	1718.25
479.03	1652.71
479.24	1798.12
479.44	1888.23
479.64	1712.10
479.84	1591.27
480.04	1732.58
480.25	1904.61
480.45	1640.42
480.65	1746.92
480.85	1755.11
481.06	1650.66
481.26	1740.77
481.46	1705.96
481.66	1726.44
481.86	1677.29
482.06	1738.73
482.27	1726.44
482.47	1660.90
482.67	1755.11
482.87	1714.15
483.07	1734.63
483.28	1710.05
483.48	1734.63
483.68	1785.83
483.88	1718.25
484.08	1619.94
484.29	1621.99
484.49	1742.82
484.69	1701.86
484.89	1759.21
485.09	1740.77
485.29	1748.97
485.50	1767.40
485.70	1699.81
485.90	1869.80
486.10	1769.44
486.30	1738.73
486.50	1794.02
486.71	1681.38
486.91	1773.54
487.11	1830.88
487.31	1652.71
487.51	1767.40
487.71	1642.47
487.91	1638.38
488.12	1656.81
488.32	1597.42
488.52	1697.77
488.72	1640.42
488.92	1714.15
489.12	1695.72
489.32	1775.59
489.53	1732.58
489.73	1716.20
489.93	1810.40
490.13	1720.29
490.33	1650.66
490.53	1714.15
490.73	1759.21
490.94	1660.90
491.14	1691.62
491.34	1824.74
491.54	2158.56
491.74	2582.49
491.94	2887.64
492.14	3024.85
492.34	3127.25
492.54	2772.95
492.75	2492.38
492.95	2463.71
493.15	2349.02
493.35	2287.58
493.55	2213.85
493.75	2150.37
493.95	2179.04
494.15	2035.68
494.35	1935.33
494.56	1785.83
494.76	1789.92
494.96	1767.40
495.16	1820.64
495.36	1800.16
495.56	1769.44
495.76	1728.49
495.96	1724.39
496.16	1687.53
496.36	1779.68
496.56	1640.42
496.77	1728.49
496.97	1679.33
497.17	1765.35
497.37	1667.05
497.57	1802.21
497.77	1697.77
497.97	1591.27
498.17	1667.05
498.37	1671.14
498.57	1779.68
498.77	1697.77
498.97	1834.98
499.17	1806.31
499.38	1677.29
499.58	1832.93
499.78	1841.12
499.98	1755.11
500.18	1724.39
500.38	1681.38
500.58	1912.80
500.78	2635.74
500.98	4497.34
501.18	5785.51
501.38	6821.78
501.58	7163.79
501.78	6735.77
501.98	5681.07
502.18	5001.14
502.38	4530.11
502.58	4155.33
502.78	3821.51
502.98	3706.82
503.18	3479.50
503.38	3243.98
503.59	2877.40
503.79	2684.89
503.99	2455.51
504.19	2267.10
504.39	2166.75
504.59	2189.28
504.79	2047.97
504.99	2029.54
505.19	1966.05
505.39	1980.39
505.59	1892.32
505.79	1894.37
505.99	1867.75
506.19	1812.45
506.39	1906.66
506.59	1841.12
506.79	1804.26
506.99	1787.88
507.19	1832.93
507.39	1806.31
507.59	1662.95
507.79	1779.68
507.99	1652.71
508.19	1689.57
508.39	1728.49
508.59	1738.73
508.79	1839.08
508.99	1765.35
509.19	1697.77
509.39	1773.54
509.59	1652.71
509.79	1738.73
509.99	1769.44
510.19	1761.25
510.39	1759.21
510.59	1718.25
510.79	1718.25
510.99	1710.05
511.19	1730.53
511.39	1888.23
511.59	1779.68
511.79	1837.03
511.99	1734.63
512.19	1728.49
512.38	1714.15
512.58	1748.97
512.78	1718.25
512.98	1812.45
513.18	1884.13
513.38	1660.90
513.58	1839.08
513.78	1667.05
513.98	1701.86
514.18	1744.87
514.38	1732.58
514.58	1736.68
514.78	1701.86
514.98	1624.04
515.18	1722.34
515.38	1665.00
515.58	1886.18
515.78	1763.30
515.98	1787.88
516.18	1824.74
516.38	1685.48
516.57	1642.47
516.77	1757.16
516.97	1812.45
517.17	1742.82
517.37	1636.33
517.57	1810.40
517.77	1779.68
517.97	1763.30
518.17	1787.88
518.37	1740.77
518.57	1755.11
518.77	1804.26
518.97	1728.49
519.16	1798.12
519.36	1789.92
519.56	1660.90
519.76	1757.16
519.96	1796.07
520.16	1773.54
520.36	1703.91
520.56	1783.78
520.76	1708.01
520.96	1751.01
521.16	1787.88
521.35	1738.73
521.55	1847.27
521.75	1736.68
521.95	1718.25
522.15	1783.78
522.35	1677.29
522.55	1681.38
522.75	1742.82
522.95	1726.44
523.14	1720.29
523.34	1857.51
523.54	1644.52
523.74	1814.50
523.94	1812.45
524.14	1708.01
524.34	1824.74
524.54	1775.59
524.73	1691.62
524.93	1738.73
525.13	1738.73
525.33	1701.86
525.53	1923.04
525.73	1828.84
525.93	1783.78
526.13	1712.10
526.32	1814.50
526.52	1843.17
526.72	1892.32
526.92	1722.34
527.12	1728.49
527.32	1689.57
527.52	1730.53
527.71	1746.92
527.91	1720.29
528.11	1736.68
528.31	1714.15
528.51	1603.56
528.71	1806.31
528.90	1777.64
529.10	1769.44
529.30	1841.12
529.50	1673.19
529.70	1662.95
529.90	1783.78
530.09	1759.21
530.29	1638.38
530.49	1691.62
530.69	1785.83
530.89	1755.11
531.09	1701.86
531.28	1683.43
531.48	1783.78
531.68	1710.05
531.88	1726.44
532.08	1796.07
532.28	1771.49
532.47	1779.68
532.67	1863.65
532.87	1767.40
533.07	1724.39
533.27	1787.88
533.46	1753.06
533.66	1646.57
533.86	1722.34
534.06	1693.67
534.26	1763.30
534.45	1671.14
534.65	1785.83
534.85	1834.98
535.05	1697.77
535.25	1734.63
535.44	1665.00
535.64	1761.25
535.84	1765.35
536.04	1761.25
536.24	1730.53
536.43	1681.38
536.63	1800.16
536.83	1681.38
537.03	1660.90
537.22	1738.73
537.42	1662.95
537.62	1767.40
537.82	1787.88
538.02	1847.27
538.21	1785.83
538.41	1923.04
538.61	1794.02
538.81	1728.49
539.00	1832.93
539.20	1611.75
539.40	1671.14
539.60	1771.49
539.79	1888.23
539.99	1742.82
540.19	1701.86
540.39	1753.06
540.58	1763.30
540.78	1824.74
540.98	1740.77
541.18	1818.60
541.37	1791.97
541.57	1716.20
541.77	1785.83
541.97	1624.04
542.16	1683.43
542.36	1703.91
542.56	1675.24
542.76	1855.46
542.95	1734.63
543.15	1781.73
543.35	1771.49
543.54	1644.52
543.74	1642.47
543.94	1800.16
544.14	1710.05
544.33	1740.77
544.53	1712.10
544.73	1705.96
544.93	1742.82
545.12	1800.16
545.32	1701.86
545.52	1732.58
545.71	1673.19
545.91	1632.23
546.11	1808.36
546.30	1636.33
546.50	1656.81
546.70	1794.02
546.90	1800.16
547.09	1675.24
547.29	1779.68
547.49	1865.70
547.68	1755.11
547.88	1652.71
548.08	1796.07
548.27	2211.81
548.47	1701.86
548.67	1669.09
548.87	1837.03
549.06	1773.54
549.26	1669.09
549.46	1761.25
549.65	1718.25
549.85	1818.60
550.05	1714.15
550.24	1689.57
550.44	1777.64
550.64	1714.15
550.83	1746.92
551.03	1816.55
551.23	1806.31
551.42	1753.06
551.62	1705.96
551.82	1890.28
552.01	1681.38
552.21	1775.59
552.41	1796.07
552.60	1775.59
552.80	1708.01
553.00	1710.05
553.19	1673.19
553.39	1867.75
553.59	1665.00
553.78	1771.49
553.98	1810.40
554.17	1665.00
554.37	1783.78
554.57	1849.32
554.76	1699.81
554.96	1726.44
555.16	1720.29
555.35	1691.62
555.55	1732.58
555.75	1812.45
555.94	1787.88
556.14	1583.08
556.33	1757.16
556.53	1759.21
556.73	1705.96
556.92	1808.36
557.12	1820.64
557.32	1892.32
557.51	1822.69
557.71	1740.77
557.90	1863.65
558.10	1865.70
558.30	1603.56
558.49	1683.43
558.69	1746.92
558.88	1718.25
559.08	1781.73
559.28	1730.53
559.47	1748.97
559.67	1665.00
559.86	1845.22
560.06	1740.77
560.26	1730.53
560.45	1779.68
560.65	1701.86
560.84	1742.82
561.04	1705.96
561.24	1785.83
561.43	1773.54
561.63	1871.84
561.82	1755.11
562.02	1746.92
562.22	1746.92
562.41	1736.68
562.61	1730.53
562.80	1726.44
563.00	1871.84
563.19	1726.44
563.39	1798.12
563.59	1794.02
563.78	1685.48
563.98	1634.28
564.17	1689.57
564.37	1689.57
564.56	1751.01
564.76	1710.05
564.96	1914.85
565.15	1742.82
565.35	1912.80
565.54	1730.53
565.74	1800.16
565.93	1775.59
566.13	1802.21
566.32	1869.80
566.52	1816.55
566.71	1798.12
566.91	1789.92
567.11	1710.05
567.30	1757.16
567.50	1779.68
567.69	1779.68
567.89	1689.57
568.08	1761.25
568.28	1845.22
568.47	1699.81
568.67	1837.03
568.86	1748.97
569.06	1730.53
569.25	1755.11
569.45	1689.57
569.64	1722.34
569.84	1673.19
570.04	1794.02
570.23	1751.01
570.43	1738.73
570.62	1767.40
570.82	1808.36
571.01	1693.67
571.21	1728.49
571.40	1605.61
571.60	1767.40
571.79	1820.64
571.99	1724.39
572.18	1695.72
572.38	1804.26
572.57	1730.53
572.77	1742.82
572.96	1884.13
573.16	1808.36
573.35	1705.96
573.55	1892.32
573.74	1714.15
573.94	1767.40
574.13	1796.07
574.33	1773.54
574.52	1794.02
574.71	1710.05
574.91	1732.58
575.10	1687.53
575.30	1699.81
575.49	1697.77
575.69	1685.48
575.88	1818.60
576.08	1720.29
576.27	1789.92
576.47	1673.19
576.66	1849.32
576.86	1791.97
577.05	1845.22
577.25	1759.21
577.44	1925.09
577.64	1734.63
577.83	1751.01
578.02	1742.82
578.22	1763.30
578.41	1841.12
578.61	1718.25
578.80	1683.43
579.00	1746.92
579.19	1808.36
579.39	1834.98
579.58	1781.73
579.77	1783.78
579.97	1779.68
580.16	1851.36
580.36	1777.64
580.55	1853.41
580.75	1757.16
580.94	1777.64
581.13	1830.88
581.33	1789.92
581.52	1775.59
581.72	1853.41
581.91	1839.08
582.11	1720.29
582.30	1769.44
582.49	1771.49
582.69	1931.23
582.88	1763.30
583.08	1841.12
583.27	1804.26
583.47	1789.92
583.66	1730.53
583.85	1628.14
584.05	1763.30
584.24	1816.55
584.44	1751.01
584.63	1837.03
584.82	1853.41
585.02	1939.43
585.21	1789.92
585.41	1787.88
585.60	1820.64
585.79	1896.42
585.99	1955.81
586.18	1804.26
586.37	2125.79
586.57	3368.91
586.76	9918.31
586.96	24399.50
587.15	34524.66
587.34	40584.60
587.54	42227.07
587.73	36718.03
587.93	26744.42
588.12	21665.46
588.31	18200.30
588.51	16404.23
588.70	15154.97
588.89	13963.05
589.09	12650.30
589.28	11038.55
589.47	9465.71
589.67	7927.69
589.86	6352.80
590.06	4845.49
590.25	3977.16
590.44	3139.54
590.64	2598.87
590.83	2291.68
591.02	2090.98
591.22	1959.91
591.41	1908.71
591.60	1787.88
591.80	2023.39
591.99	1701.86
592.18	1708.01
592.38	1812.45
592.57	1648.61
592.76	1740.77
592.96	1802.21
593.15	1765.35
593.34	1882.08
593.54	1751.01
593.73	1828.84
593.92	1726.44
594.12	1691.62
594.31	1781.73
594.50	1812.45
594.70	1818.60
594.89	1988.58
595.08	1734.63
595.28	1773.54
595.47	1865.70
595.66	1794.02
595.86	1775.59
596.05	1687.53
596.24	1748.97
596.43	1806.31
596.63	1791.97
596.82	1791.97
597.01	1773.54
597.21	1892.32
597.40	1738.73
597.59	1755.11
597.79	1697.77
597.98	1791.97
598.17	1753.06
598.36	1810.40
598.56	1832.93
598.75	1761.25
598.94	1794.02
599.14	1761.25
599.33	1687.53
599.52	1789.92
599.71	1724.39
599.91	1796.07
600.10	1767.40
600.29	1800.16
600.48	1744.87
600.68	1742.82
600.87	1724.39
601.06	1728.49
601.26	1673.19
601.45	1812.45
601.64	1753.06
601.83	1724.39
602.03	1761.25
602.22	1697.77
602.41	1751.01
602.60	1841.12
602.80	1767.40
602.99	1755.11
603.18	1722.34
603.37	1787.88
603.57	1730.53
603.76	1751.01
603.95	1742.82
604.14	1720.29
604.34	1646.57
604.53	1818.60
604.72	1724.39
604.91	1751.01
605.10	1763.30
605.30	1654.76
605.49	1892.32
605.68	1775.59
605.87	1800.16
606.07	1787.88
606.26	1783.78
606.45	1812.45
606.64	1796.07
606.84	1671.14
607.03	1722.34
607.22	1759.21
607.41	1656.81
607.60	1712.10
607.80	1800.16
607.99	1718.25
608.18	1808.36
608.37	1791.97
608.56	1726.44
608.76	1789.92
608.95	1767.40
609.14	1755.11
609.33	1751.01
609.52	1783.78
609.72	1767.40
609.91	1761.25
610.10	1742.82
610.29	1820.64
610.48	1789.92
610.68	1751.01
610.87	1767.40
611.06	1773.54
611.25	1695.72
611.44	1824.74
611.63	1714.15
611.83	1816.55
612.02	1687.53
612.21	1851.36
612.40	1681.38
612.59	1648.61
612.79	1669.09
612.98	1718.25
613.17	1843.17
613.36	1728.49
613.55	1808.36
613.74	1665.00
613.93	1710.05
614.13	1783.78
614.32	1703.91
614.51	1773.54
614.70	1720.29
614.89	1646.57
615.08	1685.48
615.28	2054.11
615.47	1669.09
615.66	1720.29
615.85	1734.63
616.04	1914.85
616.23	1771.49
616.42	1728.49
616.62	1761.25
616.81	1738.73
617.00	1779.68
617.19	1759.21
617.38	1726.44
617.57	1783.78
617.76	1777.64
617.95	1759.21
618.15	1732.58
618.34	1746.92
618.53	1632.23
618.72	1818.60
618.91	1783.78
619.10	1806.31
619.29	1773.54
619.48	1755.11
619.68	1736.68
619.87	1699.81
620.06	1722.34
620.25	1753.06
620.44	1671.14
620.63	1791.97
620.82	1736.68
621.01	1714.15
621.20	1779.68
621.39	1738.73
621.59	1830.88
621.78	1757.16
621.97	1759.21
622.16	1773.54
622.35	1720.29
622.54	1773.54
622.73	1804.26
622.92	1585.13
623.11	1744.87
623.30	1742.82
623.49	1734.63
623.68	1640.42
623.88	1818.60
624.07	1699.81
624.26	1681.38
624.45	1812.45
624.64	1705.96
624.83	1761.25
625.02	1724.39
625.21	1751.01
625.40	1681.38
625.59	1773.54
625.78	1714.15
625.97	1806.31
626.16	1808.36
626.35	1765.35
626.54	1726.44
626.74	1828.84
626.93	1671.14
627.12	1652.71
627.31	1789.92
627.50	1806.31
627.69	1761.25
627.88	1617.90
628.07	1777.64
628.26	1617.90
628.45	1648.61
628.64	1671.14
628.83	1748.97
629.02	1673.19
629.21	1775.59
629.40	1738.73
629.59	1734.63
629.78	1769.44
629.97	1748.97
630.16	1804.26
630.35	1675.24
630.54	1734.63
630.73	1677.29
630.92	1751.01
631.11	1695.72
631.30	1740.77
631.49	1777.64
631.68	1746.92
631.87	1787.88
632.06	1656.81
632.25	1886.18
632.44	1710.05
632.63	1765.35
632.82	1738.73
633.01	1640.42
633.20	1771.49
633.39	1673.19
633.58	1581.03
633.77	1777.64
633.96	1718.25
634.15	1812.45
634.34	1804.26
634.53	1755.11
634.72	1722.34
634.91	1681.38
635.10	1769.44
635.29	1740.77
635.48	1755.11
635.67	1644.52
635.86	1669.09
636.05	1837.03
636.24	1708.01
636.43	1753.06
636.62	1755.11
636.81	1587.18
637.00	1677.29
637.19	1798.12
637.38	1734.63
637.57	1646.57
637.76	1730.53
637.95	1718.25
638.14	1671.14
638.33	1757.16
638.52	1697.77
638.71	1650.66
638.89	1728.49
639.08	1808.36
639.27	1775.59
639.46	1726.44
639.65	1787.88
639.84	1732.58
640.03	1789.92
640.22	1728.49
640.41	1841.12
640.60	1665.00
640.79	1834.98
640.98	1626.09
641.17	1746.92
641.36	1748.97
641.55	1730.53
641.74	1656.81
641.92	1718.25
642.11	1667.05
642.30	1697.77
642.49	1673.19
642.68	1724.39
642.87	1763.30
643.06	1779.68
643.25	1687.53
643.44	1693.67
643.63	1751.01
643.82	1753.06
644.00	1669.09
644.19	1695.72
644.38	1710.05
644.57	1757.16
644.76	1763.30
644.95	1763.30
645.14	1748.97
645.33	1669.09
645.52	1734.63
645.71	1691.62
645.89	1695.72
646.08	1656.81
646.27	1757.16
646.46	1865.70
646.65	1656.81
646.84	1771.49
647.03	1714.15
647.22	1755.11
647.40	1746.92
647.59	1730.53
647.78	1587.18
647.97	1703.91
648.16	1697.77
648.35	1738.73
648.54	1791.97
648.73	1726.44
648.91	1755.11
649.10	1761.25
649.29	1712.10
649.48	1705.96
649.67	1806.31
649.86	1753.06
650.05	1675.24
650.23	1753.06
650.42	1650.66
650.61	1779.68
650.80	1755.11
650.99	1820.64
651.18	1732.58
651.36	1804.26
651.55	1701.86
651.74	1705.96
651.93	1658.85
652.12	1679.33
652.31	1734.63
652.49	1650.66
652.68	1763.30
652.87	1800.16
653.06	1738.73
653.25	1869.80
653.44	1730.53
653.62	1843.17
653.81	1765.35
654.00	1701.86
654.19	1757.16
654.38	1859.56
654.56	1777.64
654.75	1712.10
654.94	1818.60
655.13	1720.29
655.32	1787.88
655.51	1796.07
655.69	1705.96
655.88	1806.31
656.07	1630.18
656.26	1814.50
656.45	1710.05
656.63	1783.78
656.82	1808.36
657.01	1746.92
657.20	1791.97
657.38	1742.82
657.57	1636.33
657.76	1656.81
657.95	1783.78
658.14	1781.73
658.32	1695.72
658.51	1693.67
658.70	1710.05
658.89	1728.49
659.08	1689.57
659.26	1839.08
659.45	1712.10
659.64	1744.87
659.83	1691.62
660.01	1894.37
660.20	1730.53
660.39	1783.78
660.58	1632.23
660.76	1822.69
660.95	1691.62
661.14	1724.39
661.33	1677.29
661.51	1679.33
661.70	1751.01
661.89	1751.01
662.08	1746.92
662.26	1685.48
662.45	1683.43
662.64	1847.27
662.83	1789.92
663.01	1665.00
663.20	1740.77
663.39	1773.54
663.58	1718.25
663.76	1718.25
663.95	1746.92
664.14	1705.96
664.32	1671.14
664.51	1691.62
664.70	1652.71
664.89	1757.16
665.07	1603.56
665.26	1757.16
665.45	1648.61
665.64	1798.12
665.82	1708.01
666.01	1804.26
666.20	1689.57
666.38	1818.60
666.57	1781.73
666.76	2240.48
666.95	4655.03
667.13	10391.39
667.32	15259.42
667.51	17956.59
667.69	19525.33
667.88	17866.48
668.07	12494.66
668.25	9561.97
668.44	8177.54
668.63	7358.35
668.81	6834.07
669.00	6268.83
669.19	5924.77
669.38	5177.26
669.56	4577.21
669.75	3909.57
669.94	3448.78
670.12	2947.03
670.31	2568.15
670.50	2297.82
670.68	2099.17
670.87	1916.90
671.06	1896.42
671.24	1826.79
671.43	1837.03
671.62	1712.10
671.80	1689.57
671.99	1748.97
672.18	1710.05
672.36	1761.25
672.55	1826.79
672.74	1708.01
672.92	1650.66
673.11	1763.30
673.29	1611.75
673.48	1757.16
673.67	1697.77
673.85	1759.21
674.04	1669.09
674.23	1800.16
674.41	1783.78
674.60	1654.76
674.79	1673.19
674.97	1720.29
675.16	1695.72
675.34	1816.55
675.53	1732.58
675.72	1755.11
675.90	1730.53
676.09	1634.28
676.28	1779.68
676.46	1632.23
676.65	1734.63
676.83	1648.61
677.02	1703.91
677.21	1714.15
677.39	1726.44
677.58	1671.14
677.77	1742.82
677.95	1708.01
678.14	1753.06
678.32	1697.77
678.51	1656.81
678.70	1808.36
678.88	1757.16
679.07	1812.45
679.25	1765.35
679.44	1644.52
679.63	1697.77
679.81	1791.97
680.00	1791.97
680.18	1734.63
680.37	1796.07
680.55	1746.92
680.74	1648.61
680.93	1581.03
681.11	1761.25
681.30	1671.14
681.48	1816.55
681.67	1785.83
681.85	1804.26
682.04	1761.25
682.23	1732.58
682.41	1746.92
682.60	1710.05
682.78	1738.73
682.97	1669.09
683.15	1689.57
683.34	1681.38
683.53	1787.88
683.71	1611.75
683.90	1894.37
684.08	1918.95
684.27	1665.00
684.45	1826.79
684.64	1775.59
684.82	1722.34
685.01	1757.16
685.19	1726.44
685.38	1794.02
685.57	1613.80
685.75	1642.47
685.94	1722.34
686.12	1736.68
686.31	1730.53
686.49	1845.22
686.68	1652.71
686.86	1769.44
687.05	1705.96
687.23	1820.64
687.42	1742.82
687.60	1621.99
687.79	1779.68
687.97	1787.88
688.16	1734.63
688.34	1783.78
688.53	1589.22
688.71	1695.72
688.90	1808.36
689.08	1744.87
689.27	1544.17
689.45	1736.68
689.64	1708.01
689.82	1687.53
690.01	1701.86
690.19	1734.63
690.38	1800.16
690.56	1800.16
690.75	1591.27
690.93	1621.99
691.12	1615.85
691.30	1742.82
691.49	1632.23
691.67	1765.35
691.86	1853.41
692.04	1710.05
692.23	1634.28
692.41	1699.81
692.60	1714.15
692.78	1751.01
692.97	1730.53
693.15	1697.77
693.34	1771.49
693.52	1734.63
693.71	1824.74
693.89	1673.19
694.08	1636.33
694.26	1699.81
694.44	1785.83
694.63	1732.58
694.81	1689.57
695.00	1675.24
695.18	1777.64
695.37	1847.27
695.55	1712.10
695.74	1718.25
695.92	1759.21
696.10	1824.74
696.29	1587.18
696.47	1693.67
696.66	1691.62
696.84	1716.20
697.03	1722.34
697.21	1896.42
697.40	2297.82
697.58	1818.60
697.76	1695.72
697.95	1736.68
698.13	1613.80
698.32	1642.47
698.50	1714.15
698.68	1826.79
698.87	1687.53
699.05	1863.65
699.24	1685.48
699.42	1656.81
699.61	1777.64
699.79	1724.39
699.97	1677.29
700.16	1638.38
700.34	1669.09
700.53	1652.71
700.71	1677.29
700.89	1787.88
701.08	1728.49
701.26	1699.81
701.45	2121.70
701.63	1642.47
701.81	1685.48
702.00	1755.11
702.18	1701.86
702.37	1714.15
702.55	1734.63
702.73	1730.53
702.92	1708.01
703.10	1748.97
703.28	1714.15
703.47	1673.19
703.65	1789.92
703.84	1796.07
704.02	1689.57
704.20	1767.40
704.39	1673.19
704.57	1669.09
704.75	1796.07
704.94	1794.02
705.12	1804.26
705.30	1763.30
705.49	2254.81
705.67	4417.47
705.86	9557.87
706.04	12515.14
706.22	14632.74
706.41	15218.46
706.59	13860.65
706.77	9572.21
706.96	7368.59
707.14	6602.65
707.32	5988.26
707.51	5611.43
707.69	5070.77
707.87	4167.62
708.06	3592.14
708.24	3055.57
708.42	2494.43
708.61	2361.31
708.79	1890.28
708.97	1888.23
709.16	1843.17
709.34	1861.60
709.52	1728.49
709.71	1730.53
709.89	1814.50
710.07	1712.10
710.26	1755.11
710.44	1753.06
710.62	1757.16
710.80	1767.40
710.99	1855.46
711.17	1728.49
711.35	1718.25
711.54	1697.77
711.72	1722.34
711.90	1732.58
712.09	1732.58
712.27	1703.91
712.45	1773.54
712.63	1650.66
712.82	1730.53
713.00	1695.72
713.18	1740.77
713.37	1839.08
713.55	1820.64
713.73	1718.25
713.91	1767.40
714.10	1732.58
714.28	1705.96
714.46	1791.97
714.65	1716.20
714.83	1755.11
715.01	1759.21
715.19	1619.94
715.38	1667.05
715.56	1730.53
715.74	1607.66
715.92	1697.77
716.11	1773.54
716.29	1642.47
716.47	1761.25
716.65	1656.81
716.84	1617.90
717.02	1740.77
717.20	1652.71
717.38	1751.01
717.57	1736.68
717.75	1699.81
717.93	1681.38
718.11	1787.88
718.30	1595.37
718.48	1802.21
718.66	1693.67
718.84	1798.12
719.03	1785.83
719.21	1619.94
719.39	1800.16
719.57	1751.01
719.75	1804.26
719.94	1689.57
720.12	1660.90
720.30	1724.39
720.48	1740.77
720.67	1658.85
720.85	1714.15
721.03	1683.43
721.21	1693.67
721.39	1755.11
721.58	1683.43
721.76	1748.97
721.94	1751.01
722.12	1732.58
722.30	1771.49
722.49	1755.11
722.67	1716.20
722.85	1724.39
723.03	1632.23
723.21	1679.33
723.40	1763.30
723.58	1822.69
723.76	1791.97
723.94	1726.44
724.12	1705.96
724.30	1742.82
724.49	1759.21
724.67	1615.85
724.85	1769.44
725.03	1634.28
725.21	1800.16
725.40	1722.34
725.58	1669.09
725.76	1787.88
725.94	1755.11
726.12	1720.29
726.30	1746.92
726.49	1781.73
726.67	1673.19
726.85	1689.57
727.03	1787.88
727.21	2213.85
727.39	2975.70
727.57	3885.00
727.76	4227.01
727.94	4589.50
728.12	4462.52
728.30	3721.16
728.48	2942.93
728.66	2830.29
728.84	2514.91
729.03	2265.05
729.21	2154.46
729.39	2047.97
729.57	1837.03
729.75	1802.21
729.93	1888.23
730.11	1779.68
730.30	1646.57
730.48	1697.77
730.66	1736.68
730.84	1861.60
731.02	1726.44
731.20	1667.05
731.38	1777.64
731.56	1677.29
731.74	1669.09
731.93	1765.35
732.11	1695.72
732.29	1683.43
732.47	1767.40
732.65	1705.96
732.83	1734.63
733.01	1734.63
733.19	1634.28
733.37	1705.96
733.56	1742.82
733.74	1689.57
733.92	1753.06
734.10	1701.86
734.28	1751.01
734.46	1732.58
734.64	1691.62
734.82	1714.15
735.00	1656.81
735.18	1652.71
735.36	1738.73
735.54	1691.62
735.73	1714.15
735.91	1722.34
736.09	1898.47
736.27	1648.61
736.45	1791.97
736.63	1619.94
736.81	1705.96
736.99	1857.51
737.17	1751.01
737.35	1671.14
737.53	1734.63
737.71	1642.47
737.89	1734.63
738.07	1708.01
738.25	1662.95
738.43	1632.23
738.61	1644.52
738.80	1718.25
738.98	1675.24
739.16	1679.33
739.34	1771.49
739.52	1806.31
739.70	1787.88
739.88	1689.57
740.06	1728.49
740.24	1525.74
740.42	1841.12
740.60	1681.38
740.78	1695.72
740.96	1597.42
741.14	1775.59
741.32	1724.39
741.50	1568.74
741.68	1703.91
741.86	1804.26
742.04	1640.42
742.22	1576.94
742.40	1722.34
742.58	1777.64
742.76	1691.62
742.94	1804.26
743.12	1660.90
743.30	1716.20
743.48	1746.92
743.66	1669.09
743.84	1785.83
744.02	1724.39
744.20	1699.81
744.38	1644.52
744.56	1609.70
744.74	1808.36
744.92	1671.14
745.10	1746.92
745.28	1722.34
745.46	1783.78
745.64	1716.20
745.82	1769.44
746.00	1730.53
746.18	1763.30
746.36	1609.70
746.54	1726.44
746.72	1781.73
746.90	1660.90
747.08	1767.40
747.26	1650.66
747.44	1742.82
747.62	1705.96
747.80	1779.68
747.98	1728.49
748.15	1757.16
748.33	1728.49
748.51	1689.57
748.69	1783.78
748.87	1685.48
749.05	1683.43
749.23	1665.00
749.41	1710.05
749.59	1689.57
749.77	1785.83
749.95	1738.73
750.13	1701.86
750.31	1695.72
750.49	1712.10
750.67	1814.50
750.85	1830.88
751.03	1832.93
751.20	1890.28
751.38	1748.97
751.56	1697.77
751.74	1724.39
751.92	1759.21
752.10	1638.38
752.28	1837.03
752.46	1697.77
752.64	1708.01
752.82	1646.57
753.00	1765.35
753.18	1697.77
753.35	1660.90
753.53	1716.20
753.71	1724.39
753.89	1822.69
754.07	1734.63
754.25	1732.58
754.43	1726.44
754.61	1662.95
754.79	1791.97
754.97	1755.11
755.14	1751.01
755.32	1705.96
755.50	1712.10
755.68	1740.77
755.86	1683.43
756.04	1667.05
756.22	1683.43
756.40	1718.25
756.57	1775.59
756.75	1720.29
756.93	1779.68
757.11	1705.96
757.29	1638.38
757.47	1716.20
757.65	1644.52
757.82	1581.03
758.00	1611.75
758.18	1718.25
758.36	1603.56
758.54	1834.98
758.72	1642.47
758.90	1822.69
759.07	1681.38
759.25	1658.85
759.43	1763.30
759.61	1699.81
759.79	2160.61
759.97	1757.16
760.15	1652.71
760.32	1705.96
760.50	1710.05
760.68	1804.26
760.86	1648.61
761.04	1804.26
761.22	1726.44
761.39	1710.05
761.57	1763.30
761.75	1816.55
761.93	1703.91
762.11	1681.38
762.28	1671.14
762.46	1673.19
762.64	1871.84
762.82	1638.38
763.00	1701.86
763.18	1771.49
763.35	1632.23
763.53	1814.50
763.71	1675.24
763.89	1722.34
764.07	1753.06
764.24	1748.97
764.42	1794.02
764.60	1632.23
764.78	1617.90
764.96	1849.32
765.13	1730.53
765.31	1751.01
765.49	1730.53
765.67	1630.18
765.84	1656.81
766.02	1662.95
766.20	1607.66
766.38	1740.77
766.56	1734.63
766.73	1781.73
766.91	1726.44
767.09	1724.39
767.27	1675.24
767.44	1650.66
767.62	1714.15
767.80	1738.73
767.98	1685.48
768.15	1589.22
768.33	1724.39
768.51	1787.88
768.69	1746.92
768.87	1695.72
769.04	1732.58
769.22	1828.84
769.40	1757.16
769.58	1843.17
769.75	1800.16
769.93	1722.34
770.11	1697.77
770.28	1669.09
770.46	1771.49
770.64	1738.73
770.82	1681.38
770.99	1640.42
771.17	1703.91
771.35	1728.49
771.53	1595.37
771.70	1734.63
771.88	1746.92
772.06	1679.33
772.23	1669.09
772.41	1800.16
772.59	1714.15
772.77	1640.42
772.94	1732.58
773.12	1628.14
773.30	1638.38
773.47	1689.57
773.65	1660.90
773.83	1667.05
774.01	1791.97
774.18	1554.41
774.36	1712.10
774.54	1642.47
774.71	1769.44
774.89	1632.23
775.07	1683.43
775.24	1673.19
775.42	1656.81
775.60	1845.22
775.78	1624.04
775.95	1624.04
776.13	1603.56
776.31	1595.37
776.48	1732.58
776.66	1773.54
776.84	1683.43
777.01	1714.15
777.19	1701.86
777.37	1794.02
777.54	1765.35
777.72	1871.84
777.90	1652.71
778.07	1675.24
778.25	1865.70
778.43	1796.07
778.60	1669.09
778.78	1732.58
778.96	1710.05
779.13	1710.05
779.31	1767.40
779.49	1681.38
779.66	1757.16
779.84	1689.57
780.01	1628.14
780.19	1638.38
780.37	1796.07
780.54	1751.01
780.72	1665.00
780.90	1691.62
781.07	1687.53
781.25	1689.57
781.43	1779.68
781.60	1656.81
781.78	1802.21
781.95	1699.81
782.13	1718.25
782.31	1697.77
782.48	1595.37
782.66	1714.15
782.83	1773.54
783.01	1806.31
783.19	1751.01
783.36	1650.66
783.54	1697.77
783.72	1757.16
783.89	1683.43
784.07	1728.49
784.24	1703.91
784.42	1845.22
784.60	1724.39
784.77	1757.16
784.95	1595.37
785.12	1748.97
785.30	1669.09
785.47	1650.66
785.65	1650.66
785.83	1703.91
786.00	1675.24
786.18	1738.73
786.35	1599.46
786.53	1708.01
786.71	1785.83
786.88	1703.91
787.06	1677.29
787.23	1740.77
787.41	1726.44
787.58	1769.44
787.76	1718.25
787.94	1738.73
788.11	1730.53
788.29	1667.05
788.46	1689.57
788.64	1605.61
788.81	1683.43
788.99	1665.00
789.16	1665.00
789.34	1675.24
789.52	1646.57
789.69	1662.95
789.87	1593.32
790.04	1574.89
790.22	1730.53
790.39	1763.30
790.57	1714.15
790.74	1642.47
790.92	1746.92
791.09	1693.67
791.27	1746.92
791.44	1779.68
791.62	1687.53
791.79	1736.68
791.97	1734.63
792.15	1943.52
792.32	1699.81
792.50	1779.68
792.67	1804.26
792.85	1742.82
793.02	1691.62
793.20	1718.25
793.37	1624.04
793.55	1732.58
793.72	1619.94
793.90	1738.73
794.07	1675.24
794.25	1619.94
794.42	1665.00
794.60	1669.09
794.77	1693.67
794.95	1728.49
795.12	1814.50
795.30	1724.39
795.47	1576.94
795.65	1884.13
795.82	1718.25
796.00	1685.48
796.17	1761.25
796.34	1656.81
796.52	1722.34
796.69	1710.05
796.87	1816.55
797.04	1738.73
797.22	1689.57
797.39	1730.53
797.57	1753.06
797.74	1642.47
797.92	1675.24
798.09	1699.81
798.27	1730.53
798.44	1746.92
798.62	1611.75
798.79	1718.25
798.96	1759.21
799.14	1722.34
799.31	1800.16
799.49	1777.64
799.66	1703.91
799.84	1716.20
800.01	1628.14
800.19	1738.73
800.36	1650.66
800.53	1759.21
800.71	1691.62
800.88	1820.64
801.06	1669.09
801.23	1708.01
801.41	1791.97
801.58	1654.76
801.75	1634.28
801.93	1728.49
802.10	1738.73
802.28	1681.38
802.45	1685.48
802.63	1734.63
802.80	1746.92
802.97	1722.34
803.15	1730.53
803.32	1654.76
803.50	1628.14
803.67	1705.96
803.84	1626.09
804.02	1677.29
804.19	1751.01
804.37	1505.26
804.54	1628.14
804.71	1718.25
804.89	1742.82
805.06	1669.09
805.24	1660.90
805.41	1681.38
805.58	1632.23
805.76	1884.13
805.93	1685.48
806.10	1783.78
806.28	1693.67
806.45	1673.19
806.63	1720.29
806.80	1753.06
806.97	1763.30
807.15	1716.20
807.32	1748.97
807.49	1724.39
807.67	1617.90
807.84	1712.10
808.01	1628.14
808.19	1785.83
808.36	1857.51
808.54	1673.19
808.71	1603.56
808.88	1697.77
809.06	1730.53
809.23	1791.97
809.40	1671.14
809.58	1693.67
809.75	1699.81
809.92	1652.71
810.10	1826.79
810.27	1677.29
810.44	1728.49
810.62	1779.68
810.79	1779.68
810.96	1621.99
811.14	1568.74
811.31	1722.34
811.48	1724.39
811.66	1771.49
811.83	1744.87
812.00	1832.93
812.18	1773.54
812.35	1834.98
812.52	1697.77
812.69	1691.62
812.87	1714.15
813.04	1646.57
813.21	1787.88
813.39	1634.28
813.56	1656.81
813.73	1841.12
813.91	1714.15
814.08	1705.96
814.25	1708.01
814.42	1673.19
814.60	1763.30
814.77	1767.40
814.94	1722.34
815.12	1699.81
815.29	1732.58
815.46	1673.19
815.63	1748.97
815.81	1716.20
815.98	1697.77
816.15	1693.67
816.33	1732.58
816.50	1732.58
816.67	1726.44
816.84	1703.91
817.02	1658.85
817.19	1691.62
817.36	1691.62
817.53	1800.16
817.71	1687.53
817.88	1736.68
818.05	1697.77
818.22	1640.42
818.40	1847.27
818.57	1689.57
818.74	1703.91
818.91	1648.61
819.09	1691.62
819.26	1796.07
819.43	1642.47
819.60	1624.04
819.78	1845.22
819.95	1824.74
820.12	1708.01
820.29	1847.27
820.47	1742.82
820.64	1695.72
820.81	1609.70
820.98	1667.05
821.15	1656.81
821.33	1798.12
821.50	1648.61
821.67	1718.25
821.84	1697.77
822.02	1775.59
822.19	1751.01
822.36	1716.20
822.53	1736.68
822.70	1656.81
822.88	1665.00
823.05	1830.88
823.22	1687.53
823.39	1751.01
823.56	1734.63
823.74	1808.36
823.91	1597.42
824.08	1722.34
824.25	1562.60
824.42	1771.49
824.60	1644.52
824.77	1761.25
824.94	1697.77
825.11	1769.44
825.28	1619.94
825.45	1714.15
825.63	1671.14
825.80	1763.30
825.97	1736.68
826.14	1720.29
826.31	1693.67
826.48	1812.45
826.66	1701.86
826.83	1662.95
827.00	1710.05
827.17	1708.01
827.34	1675.24
827.51	1736.68
827.69	1710.05
827.86	1644.52
828.03	1673.19
828.20	1718.25
828.37	1677.29
828.54	1687.53
828.71	1644.52
828.89	1841.12
829.06	1767.40
829.23	1744.87
829.40	1687.53
829.57	1650.66
829.74	1689.57
829.91	1640.42
830.09	1665.00
830.26	1796.07
830.43	1859.56
830.60	1708.01
830.77	1775.59
830.94	1769.44
831.11	1757.16
831.28	1648.61
831.46	1726.44
831.63	1685.48
831.80	1806.31
831.97	1724.39
832.14	1675.24
832.31	1757.16
832.48	1787.88
832.65	1771.49
832.82	1812.45
832.99	1708.01
833.17	1652.71
833.34	1779.68
833.51	1720.29
833.68	1656.81
833.85	1765.35
834.02	1640.42
834.19	1679.33
834.36	1724.39
834.53	1660.90
834.70	1796.07
834.87	1757.16
835.04	1701.86
835.22	1705.96
835.39	1697.77
835.56	1673.19
835.73	1738.73
835.90	1728.49
836.07	1675.24
836.24	1789.92
836.41	1710.05
836.58	1628.14
836.75	1681.38
836.92	1742.82
837.09	1658.85
837.26	1675.24
837.43	1708.01
837.60	1785.83
837.77	1636.33
837.94	1736.68
838.12	1746.92
838.29	1804.26
838.46	1615.85
838.63	1673.19
838.80	1820.64
838.97	1806.31
839.14	1728.49
839.31	1765.35
839.48	1796.07
839.65	1634.28
839.82	1722.34
839.99	1722.34
840.16	1775.59
840.33	1652.71
840.50	1648.61
840.67	1650.66
840.84	1619.94
841.01	1656.81
841.18	1669.09
841.35	1669.09
841.52	1767.40
841.69	1796.07
841.86	1732.58
842.03	1665.00
842.20	1763.30
842.37	1665.00
842.54	1681.38
842.71	1656.81
842.88	1669.09
843.05	1812.45
843.22	1734.63
843.39	1685.48
843.56	1691.62
843.73	1654.76
843.90	1697.77
844.07	1710.05
844.24	1759.21
844.41	1755.11
844.58	1701.86
844.75	1751.01
844.92	1751.01
845.09	1699.81
845.26	1652.71
845.43	1728.49
845.60	1699.81
845.77	1820.64
845.94	1734.63
846.10	1736.68
846.27	1574.89
846.44	1671.14
846.61	1665.00
846.78	1746.92
846.95	1757.16
847.12	1693.67
847.29	1669.09
847.46	1681.38
847.63	1751.01
847.80	1673.19
847.97	1765.35
848.14	1845.22
848.31	1691.62
848.48	1669.09
848.65	1734.63
848.82	1626.09
848.98	1841.12
849.15	1716.20
849.32	1775.59
849.49	1748.97
849.66	1779.68
849.83	1701.86
850.00	1574.89
850.17	1800.16
850.34	1689.57
850.51	1613.80
850.68	1689.57
850.85	1849.32
851.01	1669.09
851.18	1691.62
851.35	1669.09
851.52	1720.29
851.69	1759.21
851.86	1695.72
852.03	1730.53
852.20	1775.59
852.37	1748.97
852.53	1669.09
852.70	1681.38
852.87	1722.34
853.04	1736.68
853.21	1691.62
853.38	1785.83
853.55	1714.15
853.72	1816.55
853.89	1648.61
854.05	1724.39
854.22	1726.44
854.39	1734.63
854.56	1675.24
854.73	1738.73
854.90	1658.85
855.07	1728.49
855.23	1724.39
855.40	1566.70
855.57	1667.05
855.74	1578.98
855.91	1968.10
856.08	1748.97
856.25	1624.04
856.41	1695.72
856.58	1675.24
856.75	1732.58
856.92	1667.05
857.09	1863.65
857.26	1634.28
857.42	1716.20
857.59	1712.10
857.76	1708.01
857.93	1728.49
858.10	1755.11
858.27	1630.18
858.43	1734.63
858.60	1605.61
858.77	1644.52
858.94	1699.81
859.11	1734.63
859.27	1656.81
859.44	1685.48
859.61	1744.87
859.78	1695.72
859.95	1693.67
860.12	1708.01
860.28	1791.97
860.45	1775.59
860.62	1697.77
860.79	1732.58
860.95	1675.24
861.12	1685.48
861.29	1646.57
861.46	1730.53
861.63	1697.77
861.79	1722.34
861.96	1685.48
862.13	1667.05
862.30	1787.88
862.47	1617.90
862.63	1621.99
862.80	1785.83
862.97	1738.73
863.14	1755.11
863.30	1617.90
863.47	1640.42
863.64	1800.16
863.81	1724.39
863.97	1667.05
864.14	1691.62
864.31	1708.01
864.48	1724.39
864.65	1654.76
864.81	1757.16
864.98	1689.57
865.15	1736.68
865.32	1753.06
865.48	1781.73
865.65	1796.07
865.82	1712.10
865.98	1705.96
866.15	1873.89
866.32	1611.75
866.49	1701.86
866.65	1759.21
866.82	1683.43
866.99	1695.72
867.16	1689.57
867.32	1712.10
867.49	1695.72
867.66	1632.23
867.83	1738.73
867.99	1611.75
868.16	1695.72
868.33	1679.33
868.49	1675.24
868.66	1669.09
868.83	1738.73
868.99	1777.64
869.16	1763.30
869.33	1734.63
869.50	1755.11
869.66	1730.53
869.83	1738.73
870.00	1665.00
870.16	1732.58
870.33	1658.85
870.50	1744.87
870.66	1720.29
870.83	1810.40
871.00	1730.53
871.17	1746.92
871.33	1695.72
871.50	1708.01
871.67	1714.15
871.83	1689.57
872.00	1837.03
872.17	1644.52
872.33	1837.03
872.50	1703.91
872.67	1611.75
872.83	1687.53
873.00	1656.81
873.17	1673.19
873.33	1728.49
873.50	1689.57
873.67	1693.67
873.83	1613.80
874.00	1726.44
874.16	1810.40
874.33	1665.00
874.50	1660.90
874.66	1763.30
874.83	1695.72
875.00	1759.21
875.16	1751.01
875.33	1853.41
875.50	1632.23
875.66	1658.85
875.83	1748.97
875.99	1761.25
876.16	1710.05
876.33	1587.18
876.49	1685.48
876.66	1716.20
876.83	1581.03
876.99	1607.66
877.16	1701.86
877.32	1648.61
877.49	1720.29
877.66	1646.57
877.82	1746.92
877.99	1669.09
878.15	1804.26
878.32	1724.39
878.49	1755.11
878.65	1640.42
878.82	1716.20
878.98	1699.81
879.15	1701.86
879.32	1730.53
879.48	1783.78
879.65	1648.61
879.81	1677.29
879.98	1665.00
880.15	1673.19
880.31	1757.16
880.48	1615.85
880.64	1757.16
880.81	1722.34
880.97	1746.92
881.14	1783.78
881.31	1685.48
881.47	1845.22
881.64	1615.85
881.80	1609.70
881.97	1669.09
882.13	1822.69
882.30	1626.09
882.47	1640.42
882.63	1646.57
882.80	1619.94
882.96	1708.01
883.13	1759.21
883.29	1738.73
883.46	1730.53
883.62	1796.07
883.79	1720.29
883.95	1751.01
884.12	1755.11
884.29	1763.30
884.45	1697.77
884.62	1757.16
884.78	1652.71
884.95	1779.68
885.11	1603.56
885.28	1806.31
885.44	1681.38
885.61	1777.64
885.77	1798.12
885.94	1742.82
886.10	1789.92
886.27	1701.86
886.43	1798.12
886.60	1785.83
886.76	1665.00
886.93	1650.66
887.09	1781.73
887.26	1568.74
887.42	1656.81
887.59	1771.49
887.75	1902.56
887.92	1816.55
888.08	1746.92
888.25	1796.07
888.41	1759.21
888.58	1724.39
888.74	1714.15
888.91	1683.43
>>>>>End Processed Spectral Data<<<<<
