SpectraSuite Data File
++++++++++++++++++++++++++++++++++++
Date: Mon Jun 06 16:17:57 CEST 2016
User: root
Dark Spectrum Present: No
Reference Spectrum Present: No
Number of Sampled Component Spectra: 1
Spectrometers: USB4C02835
Integration Time (usec): 100000 (USB4C02835)
Spectra Averaged: 1 (USB4C02835)
Boxcar Smoothing: 0 (USB4C02835)
Correct for Electrical Dark: No (USB4C02835)
Strobe/Lamp Enabled: No (USB4C02835)
Correct for Detector Non-linearity: No (USB4C02835)
Correct for Stray Light: No (USB4C02835)
Number of Pixels in Processed Spectrum: 3648
>>>>>Begin Processed Spectral Data<<<<<
177.47	1525.74
177.69	1525.74
177.91	1525.74
178.13	1443.82
178.36	1460.20
178.58	1669.09
178.80	1748.97
179.02	1667.05
179.24	1689.57
179.46	1759.21
179.68	1740.77
179.90	1720.29
180.13	1654.76
180.35	1705.96
180.57	1718.25
180.79	1755.11
181.01	1693.67
181.23	1812.45
181.45	1783.78
181.67	1763.30
181.90	1720.29
182.12	1658.85
182.34	1779.68
182.56	1712.10
182.78	1794.02
183.00	1738.73
183.22	1691.62
183.44	1570.79
183.66	1822.69
183.89	1796.07
184.11	1662.95
184.33	1759.21
184.55	1757.16
184.77	1683.43
184.99	1789.92
185.21	1683.43
185.43	1826.79
185.65	1722.34
185.87	1718.25
186.10	1789.92
186.32	1845.22
186.54	1787.88
186.76	1746.92
186.98	1714.15
187.20	1716.20
187.42	1705.96
187.64	1710.05
187.86	1775.59
188.08	1794.02
188.30	1650.66
188.52	1669.09
188.75	1744.87
188.97	1820.64
189.19	1646.57
189.41	1697.77
189.63	1705.96
189.85	1621.99
190.07	1648.61
190.29	1636.33
190.51	1734.63
190.73	1638.38
190.95	1875.94
191.17	1693.67
191.39	1605.61
191.61	1634.28
191.84	1683.43
192.06	1732.58
192.28	1642.47
192.50	1920.99
192.72	1685.48
192.94	1732.58
193.16	1740.77
193.38	1763.30
193.60	1687.53
193.82	1697.77
194.04	1769.44
194.26	1767.40
194.48	1705.96
194.70	1693.67
194.92	1642.47
195.14	1734.63
195.36	1675.24
195.58	1683.43
195.80	1726.44
196.02	1615.85
196.24	1708.01
196.46	1757.16
196.69	1652.71
196.91	1875.94
197.13	1652.71
197.35	1697.77
197.57	1822.69
197.79	1759.21
198.01	1708.01
198.23	1744.87
198.45	1691.62
198.67	1660.90
198.89	1695.72
199.11	1669.09
199.33	1634.28
199.55	1533.93
199.77	1681.38
199.99	1798.12
200.21	1669.09
200.43	1785.83
200.65	1619.94
200.87	1574.89
201.09	1726.44
201.31	1677.29
201.53	1802.21
201.75	1746.92
201.97	1746.92
202.19	1660.90
202.41	1738.73
202.63	1857.51
202.85	1703.91
203.07	1822.69
203.29	1677.29
203.51	1581.03
203.73	1585.13
203.95	1877.99
204.17	1701.86
204.39	1732.58
204.61	1667.05
204.83	1695.72
205.05	1757.16
205.27	1746.92
205.49	1828.84
205.71	1695.72
205.93	1607.66
206.15	1734.63
206.37	1689.57
206.59	1779.68
206.81	1716.20
207.03	1593.32
207.25	1722.34
207.47	1759.21
207.69	1738.73
207.91	1781.73
208.13	1787.88
208.34	1632.23
208.56	1660.90
208.78	1742.82
209.00	1744.87
209.22	1710.05
209.44	1757.16
209.66	1603.56
209.88	1787.88
210.10	1718.25
210.32	1607.66
210.54	1769.44
210.76	1660.90
210.98	1710.05
211.20	1552.36
211.42	1771.49
211.64	1738.73
211.86	1783.78
212.08	1720.29
212.30	1759.21
212.52	1705.96
212.74	1787.88
212.96	1705.96
213.17	1734.63
213.39	1710.05
213.61	1789.92
213.83	1718.25
214.05	1673.19
214.27	1789.92
214.49	1689.57
214.71	1714.15
214.93	1697.77
215.15	1701.86
215.37	1738.73
215.59	1607.66
215.81	1701.86
216.03	1796.07
216.24	1710.05
216.46	1740.77
216.68	1746.92
216.90	1777.64
217.12	1787.88
217.34	1755.11
217.56	1728.49
217.78	1736.68
218.00	1871.84
218.22	1710.05
218.44	1656.81
218.66	1742.82
218.87	1814.50
219.09	1734.63
219.31	1712.10
219.53	1738.73
219.75	1712.10
219.97	1767.40
220.19	1771.49
220.41	1636.33
220.63	1771.49
220.85	1804.26
221.06	1742.82
221.28	1781.73
221.50	1683.43
221.72	1693.67
221.94	1740.77
222.16	1714.15
222.38	1775.59
222.60	1703.91
222.82	1759.21
223.03	1685.48
223.25	1634.28
223.47	1783.78
223.69	1798.12
223.91	1847.27
224.13	1724.39
224.35	1677.29
224.57	1753.06
224.78	1740.77
225.00	1640.42
225.22	1724.39
225.44	1726.44
225.66	1787.88
225.88	1691.62
226.10	1726.44
226.32	1675.24
226.53	1718.25
226.75	1679.33
226.97	1691.62
227.19	1697.77
227.41	1683.43
227.63	1634.28
227.85	1660.90
228.06	1744.87
228.28	1759.21
228.50	1751.01
228.72	1691.62
228.94	1714.15
229.16	1648.61
229.37	1695.72
229.59	1650.66
229.81	1767.40
230.03	1671.14
230.25	1644.52
230.47	1681.38
230.69	1673.19
230.90	1800.16
231.12	1714.15
231.34	1714.15
231.56	1722.34
231.78	1716.20
232.00	1644.52
232.21	1697.77
232.43	1726.44
232.65	1697.77
232.87	1697.77
233.09	1626.09
233.30	1718.25
233.52	1753.06
233.74	1642.47
233.96	1695.72
234.18	1748.97
234.40	1667.05
234.61	1902.56
234.83	1615.85
235.05	1708.01
235.27	1859.56
235.49	1798.12
235.70	1695.72
235.92	1832.93
236.14	1787.88
236.36	1796.07
236.58	1613.80
236.79	1773.54
237.01	1716.20
237.23	1617.90
237.45	1775.59
237.67	1613.80
237.88	1742.82
238.10	1755.11
238.32	1695.72
238.54	1746.92
238.76	1691.62
238.97	1671.14
239.19	1630.18
239.41	1804.26
239.63	1804.26
239.85	1660.90
240.06	1665.00
240.28	1771.49
240.50	1855.46
240.72	1714.15
240.93	1705.96
241.15	1746.92
241.37	1757.16
241.59	1771.49
241.81	1646.57
242.02	1626.09
242.24	1708.01
242.46	1767.40
242.68	1609.70
242.89	1742.82
243.11	1796.07
243.33	1665.00
243.55	1742.82
243.76	1755.11
243.98	1669.09
244.20	1628.14
244.42	1632.23
244.64	1742.82
244.85	1677.29
245.07	1681.38
245.29	1673.19
245.51	1615.85
245.72	1720.29
245.94	1744.87
246.16	1703.91
246.38	1701.86
246.59	1703.91
246.81	1656.81
247.03	1693.67
247.24	1617.90
247.46	1656.81
247.68	1771.49
247.90	1710.05
248.11	1650.66
248.33	1734.63
248.55	1646.57
248.77	1806.31
248.98	1712.10
249.20	1830.88
249.42	1701.86
249.64	1716.20
249.85	1699.81
250.07	1654.76
250.29	1683.43
250.50	1718.25
250.72	1636.33
250.94	1738.73
251.16	1810.40
251.37	1800.16
251.59	1695.72
251.81	1732.58
252.02	1775.59
252.24	1705.96
252.46	1796.07
252.68	1777.64
252.89	1703.91
253.11	1617.90
253.33	1847.27
253.54	1816.55
253.76	1652.71
253.98	1660.90
254.20	1787.88
254.41	1640.42
254.63	1710.05
254.85	1628.14
255.06	1716.20
255.28	1787.88
255.50	1714.15
255.71	1687.53
255.93	1648.61
256.15	1726.44
256.36	1796.07
256.58	1693.67
256.80	1748.97
257.02	1689.57
257.23	1685.48
257.45	1847.27
257.67	1718.25
257.88	1681.38
258.10	1740.77
258.32	1714.15
258.53	1691.62
258.75	1857.51
258.97	1654.76
259.18	1751.01
259.40	1742.82
259.62	1814.50
259.83	1746.92
260.05	1667.05
260.27	2011.11
260.48	1740.77
260.70	1677.29
260.92	1724.39
261.13	1730.53
261.35	1693.67
261.57	1712.10
261.78	1568.74
262.00	1710.05
262.22	1730.53
262.43	1630.18
262.65	1722.34
262.86	1689.57
263.08	1843.17
263.30	1763.30
263.51	1634.28
263.73	1695.72
263.95	1765.35
264.16	1699.81
264.38	1656.81
264.60	1742.82
264.81	1703.91
265.03	1794.02
265.25	1693.67
265.46	1693.67
265.68	1814.50
265.89	1783.78
266.11	1599.46
266.33	1763.30
266.54	1732.58
266.76	1806.31
266.98	1744.87
267.19	1732.58
267.41	1781.73
267.62	1697.77
267.84	1603.56
268.06	1724.39
268.27	1738.73
268.49	1740.77
268.70	1808.36
268.92	1673.19
269.14	1697.77
269.35	1679.33
269.57	1753.06
269.79	1746.92
270.00	1689.57
270.22	1791.97
270.43	1671.14
270.65	1607.66
270.87	1693.67
271.08	1740.77
271.30	1656.81
271.51	1763.30
271.73	1757.16
271.95	1861.60
272.16	1761.25
272.38	1660.90
272.59	1759.21
272.81	1791.97
273.02	1796.07
273.24	1703.91
273.46	1726.44
273.67	1693.67
273.89	1671.14
274.10	1679.33
274.32	1763.30
274.54	1703.91
274.75	1765.35
274.97	1669.09
275.18	1701.86
275.40	1691.62
275.61	1665.00
275.83	1755.11
276.05	1652.71
276.26	1695.72
276.48	1738.73
276.69	1691.62
276.91	1658.85
277.12	1806.31
277.34	1736.68
277.55	1726.44
277.77	1716.20
277.99	1710.05
278.20	1714.15
278.42	1679.33
278.63	1621.99
278.85	1685.48
279.06	1636.33
279.28	1779.68
279.49	1767.40
279.71	1697.77
279.93	1714.15
280.14	1705.96
280.36	1687.53
280.57	1816.55
280.79	1759.21
281.00	1681.38
281.22	1693.67
281.43	1757.16
281.65	1628.14
281.86	1615.85
282.08	1740.77
282.29	1804.26
282.51	1689.57
282.73	1630.18
282.94	1646.57
283.16	1798.12
283.37	1869.80
283.59	1740.77
283.80	1722.34
284.02	1689.57
284.23	1775.59
284.45	1705.96
284.66	1628.14
284.88	1624.04
285.09	1685.48
285.31	1738.73
285.52	1775.59
285.74	1595.37
285.95	1783.78
286.17	1673.19
286.38	1720.29
286.60	1640.42
286.81	1673.19
287.03	1746.92
287.24	1771.49
287.46	1687.53
287.67	1748.97
287.89	1781.73
288.10	1834.98
288.32	1755.11
288.53	1738.73
288.75	1785.83
288.96	1763.30
289.18	1726.44
289.39	1744.87
289.61	1714.15
289.82	1873.89
290.04	1781.73
290.25	1660.90
290.47	1705.96
290.68	1730.53
290.90	1777.64
291.11	1605.61
291.33	1722.34
291.54	1634.28
291.76	1607.66
291.97	1673.19
292.18	1744.87
292.40	1636.33
292.61	1597.42
292.83	1808.36
293.04	1751.01
293.26	1728.49
293.47	1683.43
293.69	1673.19
293.90	1716.20
294.12	1839.08
294.33	1761.25
294.55	1689.57
294.76	1726.44
294.97	1791.97
295.19	1839.08
295.40	1701.86
295.62	1697.77
295.83	1802.21
296.05	1722.34
296.26	1832.93
296.48	1648.61
296.69	1697.77
296.90	1695.72
297.12	1767.40
297.33	1767.40
297.55	1714.15
297.76	1812.45
297.98	1759.21
298.19	1697.77
298.41	1669.09
298.62	1634.28
298.83	1828.84
299.05	1718.25
299.26	1730.53
299.48	1695.72
299.69	1732.58
299.90	1689.57
300.12	1705.96
300.33	1732.58
300.55	1744.87
300.76	1708.01
300.98	1675.24
301.19	1802.21
301.40	1738.73
301.62	1714.15
301.83	1701.86
302.05	1691.62
302.26	1683.43
302.47	1714.15
302.69	1619.94
302.90	1753.06
303.12	1619.94
303.33	1736.68
303.54	1753.06
303.76	1697.77
303.97	1763.30
304.19	1748.97
304.40	1583.08
304.61	1767.40
304.83	1839.08
305.04	1701.86
305.26	1728.49
305.47	1693.67
305.68	1761.25
305.90	1658.85
306.11	1734.63
306.33	1687.53
306.54	1677.29
306.75	1710.05
306.97	1605.61
307.18	1648.61
307.39	1673.19
307.61	1675.24
307.82	1669.09
308.04	1695.72
308.25	1699.81
308.46	1771.49
308.68	1708.01
308.89	1755.11
309.10	1806.31
309.32	1771.49
309.53	1626.09
309.74	1785.83
309.96	1722.34
310.17	1804.26
310.39	1574.89
310.60	1796.07
310.81	1744.87
311.03	1683.43
311.24	1748.97
311.45	1683.43
311.67	1808.36
311.88	1697.77
312.09	1632.23
312.31	1703.91
312.52	1687.53
312.73	1724.39
312.95	1658.85
313.16	1722.34
313.37	1789.92
313.59	1724.39
313.80	1771.49
314.01	1718.25
314.23	1658.85
314.44	1667.05
314.65	1648.61
314.87	1681.38
315.08	1624.04
315.29	1644.52
315.51	1673.19
315.72	1685.48
315.93	1814.50
316.15	1716.20
316.36	1673.19
316.57	1740.77
316.79	1705.96
317.00	1667.05
317.21	1712.10
317.43	1740.77
317.64	1699.81
317.85	1621.99
318.07	1642.47
318.28	1718.25
318.49	1716.20
318.70	1933.28
318.92	1757.16
319.13	1748.97
319.34	1886.18
319.56	1779.68
319.77	1859.56
319.98	1865.70
320.20	1798.12
320.41	1781.73
320.62	1720.29
320.83	1632.23
321.05	1804.26
321.26	1789.92
321.47	1697.77
321.69	1761.25
321.90	1624.04
322.11	1705.96
322.32	1734.63
322.54	1683.43
322.75	1720.29
322.96	1837.03
323.18	1591.27
323.39	1685.48
323.60	1597.42
323.81	1794.02
324.03	1658.85
324.24	1726.44
324.45	1693.67
324.66	1787.88
324.88	1767.40
325.09	1753.06
325.30	1644.52
325.52	1757.16
325.73	1722.34
325.94	1648.61
326.15	1679.33
326.37	1740.77
326.58	1781.73
326.79	1730.53
327.00	1671.14
327.22	1710.05
327.43	1650.66
327.64	1699.81
327.85	1746.92
328.07	1671.14
328.28	1839.08
328.49	1734.63
328.70	1689.57
328.92	1642.47
329.13	1705.96
329.34	1712.10
329.55	1822.69
329.76	1669.09
329.98	1712.10
330.19	1732.58
330.40	1728.49
330.61	1650.66
330.83	1740.77
331.04	1611.75
331.25	1701.86
331.46	1736.68
331.68	1632.23
331.89	1787.88
332.10	1667.05
332.31	1599.46
332.52	1736.68
332.74	1728.49
332.95	1603.56
333.16	1570.79
333.37	1775.59
333.58	1716.20
333.80	1697.77
334.01	1642.47
334.22	1748.97
334.43	1710.05
334.64	1615.85
334.86	1732.58
335.07	1642.47
335.28	1804.26
335.49	1648.61
335.70	1814.50
335.92	1763.30
336.13	1773.54
336.34	1761.25
336.55	1673.19
336.76	1767.40
336.98	1648.61
337.19	1734.63
337.40	1834.98
337.61	1861.60
337.82	1630.18
338.04	1802.21
338.25	1642.47
338.46	1714.15
338.67	1728.49
338.88	1595.37
339.09	1658.85
339.31	1693.67
339.52	1658.85
339.73	1642.47
339.94	1654.76
340.15	1763.30
340.36	1636.33
340.58	1705.96
340.79	1691.62
341.00	1736.68
341.21	1718.25
341.42	1845.22
341.63	1685.48
341.85	1718.25
342.06	1685.48
342.27	1685.48
342.48	1773.54
342.69	1628.14
342.90	1742.82
343.12	1789.92
343.33	1658.85
343.54	1671.14
343.75	1771.49
343.96	1693.67
344.17	1632.23
344.38	1708.01
344.60	1628.14
344.81	1621.99
345.02	1724.39
345.23	1855.46
345.44	1855.46
345.65	1757.16
345.86	1722.34
346.07	1671.14
346.29	1652.71
346.50	1775.59
346.71	1746.92
346.92	1767.40
347.13	1826.79
347.34	1691.62
347.55	1689.57
347.76	1804.26
347.98	1714.15
348.19	1681.38
348.40	1789.92
348.61	1667.05
348.82	1779.68
349.03	1714.15
349.24	1665.00
349.45	1728.49
349.66	1652.71
349.88	1724.39
350.09	1642.47
350.30	1708.01
350.51	1771.49
350.72	1734.63
350.93	1724.39
351.14	1701.86
351.35	1726.44
351.56	1705.96
351.77	1687.53
351.99	1724.39
352.20	1849.32
352.41	1720.29
352.62	1593.32
352.83	1703.91
353.04	1685.48
353.25	1710.05
353.46	1806.31
353.67	1712.10
353.88	1607.66
354.09	1746.92
354.30	1748.97
354.52	1787.88
354.73	1746.92
354.94	1681.38
355.15	1687.53
355.36	1861.60
355.57	1675.24
355.78	1742.82
355.99	1677.29
356.20	1746.92
356.41	1726.44
356.62	1755.11
356.83	1646.57
357.04	1783.78
357.25	1650.66
357.46	1699.81
357.68	1648.61
357.89	1679.33
358.10	1671.14
358.31	1695.72
358.52	1763.30
358.73	1699.81
358.94	1703.91
359.15	1685.48
359.36	1820.64
359.57	1738.73
359.78	1650.66
359.99	1771.49
360.20	1626.09
360.41	1767.40
360.62	1699.81
360.83	1746.92
361.04	1775.59
361.25	1703.91
361.46	1837.03
361.67	1720.29
361.88	1734.63
362.09	1794.02
362.30	1708.01
362.51	1746.92
362.72	1757.16
362.93	1755.11
363.14	1769.44
363.35	1767.40
363.56	1742.82
363.78	1716.20
363.99	1722.34
364.20	1714.15
364.41	1699.81
364.62	1837.03
364.83	1691.62
365.04	1714.15
365.25	1699.81
365.46	1794.02
365.67	1632.23
365.88	1701.86
366.09	1671.14
366.30	1693.67
366.51	1828.84
366.72	1570.79
366.93	1738.73
367.14	1714.15
367.35	1781.73
367.56	1757.16
367.77	1902.56
367.98	1746.92
368.18	1691.62
368.39	1769.44
368.60	1667.05
368.81	1853.41
369.02	1662.95
369.23	1648.61
369.44	1621.99
369.65	1636.33
369.86	1665.00
370.07	1830.88
370.28	1566.70
370.49	1783.78
370.70	1748.97
370.91	1624.04
371.12	1679.33
371.33	1734.63
371.54	1697.77
371.75	1824.74
371.96	1535.98
372.17	1791.97
372.38	1705.96
372.59	1681.38
372.80	1609.70
373.01	1718.25
373.22	1748.97
373.43	1720.29
373.64	1685.48
373.85	1781.73
374.06	1787.88
374.26	1802.21
374.47	1746.92
374.68	1781.73
374.89	1714.15
375.10	1757.16
375.31	1755.11
375.52	1767.40
375.73	1734.63
375.94	1671.14
376.15	1832.93
376.36	1759.21
376.57	1705.96
376.78	1740.77
376.99	1708.01
377.20	1832.93
377.40	1794.02
377.61	1826.79
377.82	1646.57
378.03	1820.64
378.24	1757.16
378.45	1726.44
378.66	1734.63
378.87	1669.09
379.08	1634.28
379.29	1712.10
379.50	1765.35
379.71	1726.44
379.91	1732.58
380.12	1730.53
380.33	1689.57
380.54	1726.44
380.75	1677.29
380.96	1751.01
381.17	1779.68
381.38	1705.96
381.59	1755.11
381.80	1683.43
382.00	1806.31
382.21	1736.68
382.42	1884.13
382.63	1859.56
382.84	1679.33
383.05	1798.12
383.26	1820.64
383.47	1759.21
383.68	1734.63
383.88	1681.38
384.09	1660.90
384.30	1841.12
384.51	1677.29
384.72	1636.33
384.93	1648.61
385.14	1652.71
385.35	1812.45
385.55	1601.51
385.76	1812.45
385.97	1763.30
386.18	1644.52
386.39	1648.61
386.60	1667.05
386.81	1665.00
387.02	1634.28
387.22	1677.29
387.43	1816.55
387.64	1748.97
387.85	1902.56
388.06	2242.53
388.27	4310.97
388.48	6651.80
388.68	8353.66
388.89	9690.99
389.10	9815.91
389.31	8765.31
389.52	7675.79
389.73	6682.52
389.93	6340.51
390.14	5842.85
390.35	5253.04
390.56	4675.51
390.77	3731.40
390.98	3121.10
391.18	2494.43
391.39	2160.61
391.60	1843.17
391.81	1849.32
392.02	1718.25
392.23	1875.94
392.43	1751.01
392.64	1834.98
392.85	1722.34
393.06	1828.84
393.27	1753.06
393.47	1693.67
393.68	1728.49
393.89	1730.53
394.10	1767.40
394.31	1656.81
394.52	1710.05
394.72	1705.96
394.93	1777.64
395.14	1658.85
395.35	1744.87
395.56	1679.33
395.76	1810.40
395.97	1804.26
396.18	1839.08
396.39	1814.50
396.60	1943.52
396.80	1906.66
397.01	1806.31
397.22	1847.27
397.43	1912.80
397.64	1738.73
397.84	1869.80
398.05	1806.31
398.26	1720.29
398.47	1832.93
398.67	1828.84
398.88	1724.39
399.09	1787.88
399.30	1681.38
399.51	1730.53
399.71	1712.10
399.92	1751.01
400.13	1740.77
400.34	1673.19
400.54	1691.62
400.75	1818.60
400.96	1822.69
401.17	1755.11
401.37	1736.68
401.58	1783.78
401.79	1769.44
402.00	1853.41
402.21	1994.72
402.41	1951.71
402.62	2000.87
402.83	2068.45
403.04	1968.10
403.24	2066.40
403.45	1880.04
403.66	1937.38
403.87	1845.22
404.07	1935.33
404.28	1902.56
404.49	1806.31
404.70	1765.35
404.90	1779.68
405.11	1712.10
405.32	1687.53
405.52	1681.38
405.73	1662.95
405.94	1720.29
406.15	1681.38
406.35	1767.40
406.56	1859.56
406.77	1697.77
406.98	1802.21
407.18	1738.73
407.39	1814.50
407.60	1714.15
407.80	1802.21
408.01	1744.87
408.22	1748.97
408.43	1679.33
408.63	1710.05
408.84	1822.69
409.05	1701.86
409.25	1652.71
409.46	1736.68
409.67	1705.96
409.88	1722.34
410.08	1720.29
410.29	1755.11
410.50	1759.21
410.70	1718.25
410.91	1693.67
411.12	1732.58
411.32	1773.54
411.53	1691.62
411.74	1802.21
411.95	1791.97
412.15	1679.33
412.36	1730.53
412.57	1834.98
412.77	1765.35
412.98	1742.82
413.19	1798.12
413.39	1714.15
413.60	1740.77
413.81	1818.60
414.01	1667.05
414.22	1769.44
414.43	1771.49
414.63	1710.05
414.84	1742.82
415.05	1732.58
415.25	1662.95
415.46	1798.12
415.67	1683.43
415.87	1779.68
416.08	1714.15
416.29	1742.82
416.49	1759.21
416.70	1724.39
416.91	1701.86
417.11	1654.76
417.32	1789.92
417.53	1798.12
417.73	1726.44
417.94	1662.95
418.15	1665.00
418.35	1728.49
418.56	1718.25
418.77	1832.93
418.97	1673.19
419.18	1757.16
419.38	1628.14
419.59	1656.81
419.80	1855.46
420.00	1724.39
420.21	1783.78
420.42	1796.07
420.62	1748.97
420.83	1671.14
421.04	1728.49
421.24	1691.62
421.45	1773.54
421.65	1718.25
421.86	1693.67
422.07	1742.82
422.27	1753.06
422.48	1685.48
422.69	1636.33
422.89	1701.86
423.10	1724.39
423.30	1671.14
423.51	1746.92
423.72	1802.21
423.92	1773.54
424.13	1689.57
424.33	1755.11
424.54	1773.54
424.75	1787.88
424.95	1769.44
425.16	1800.16
425.36	1695.72
425.57	1804.26
425.78	1789.92
425.98	1812.45
426.19	1652.71
426.39	1660.90
426.60	1767.40
426.81	1787.88
427.01	1746.92
427.22	1665.00
427.42	1615.85
427.63	1617.90
427.83	1746.92
428.04	1785.83
428.25	1785.83
428.45	1763.30
428.66	1765.35
428.86	1716.20
429.07	1685.48
429.28	1777.64
429.48	1732.58
429.69	1667.05
429.89	1773.54
430.10	1675.24
430.30	1783.78
430.51	1751.01
430.71	1759.21
430.92	1716.20
431.13	1763.30
431.33	1765.35
431.54	1730.53
431.74	1791.97
431.95	1757.16
432.15	1687.53
432.36	1705.96
432.56	1751.01
432.77	1757.16
432.98	1794.02
433.18	1728.49
433.39	1595.37
433.59	1765.35
433.80	1787.88
434.00	1867.75
434.21	1705.96
434.41	1660.90
434.62	1902.56
434.82	1628.14
435.03	1669.09
435.23	1673.19
435.44	1650.66
435.64	1759.21
435.85	1718.25
436.06	1822.69
436.26	1736.68
436.47	1619.94
436.67	1695.72
436.88	1730.53
437.08	1714.15
437.29	1796.07
437.49	1699.81
437.70	1804.26
437.90	1757.16
438.11	1957.86
438.31	1828.84
438.52	1884.13
438.72	1896.42
438.93	1914.85
439.13	1773.54
439.34	1787.88
439.54	1802.21
439.75	1855.46
439.95	1794.02
440.16	1667.05
440.36	1806.31
440.57	1781.73
440.77	1796.07
440.98	1740.77
441.18	1730.53
441.39	1765.35
441.59	1685.48
441.80	1828.84
442.00	1765.35
442.21	1834.98
442.41	1660.90
442.62	1886.18
442.82	1718.25
443.02	1781.73
443.23	1783.78
443.43	1726.44
443.64	1863.65
443.84	1736.68
444.05	1708.01
444.25	1755.11
444.46	1744.87
444.66	1703.91
444.87	1779.68
445.07	1679.33
445.28	1775.59
445.48	1845.22
445.69	1683.43
445.89	1904.61
446.09	1740.77
446.30	2011.11
446.50	2637.78
446.71	3805.13
446.91	4444.09
447.12	4710.33
447.32	4835.25
447.53	4298.69
447.73	3917.76
447.93	3639.24
448.14	3368.91
448.34	3190.74
448.55	3028.95
448.75	2955.22
448.96	2645.98
449.16	2332.64
449.36	2322.40
449.57	2074.59
449.77	1947.62
449.98	1896.42
450.18	1869.80
450.39	1898.47
450.59	1742.82
450.79	1806.31
451.00	1730.53
451.20	1775.59
451.41	1705.96
451.61	1773.54
451.81	1779.68
452.02	1697.77
452.22	1705.96
452.43	1646.57
452.63	1662.95
452.84	1730.53
453.04	1689.57
453.24	1769.44
453.45	1701.86
453.65	1744.87
453.86	1847.27
454.06	1779.68
454.26	1806.31
454.47	1662.95
454.67	1882.08
454.87	1808.36
455.08	1691.62
455.28	1896.42
455.49	1714.15
455.69	1656.81
455.89	1816.55
456.10	1853.41
456.30	1732.58
456.51	1789.92
456.71	1765.35
456.91	1734.63
457.12	1740.77
457.32	1736.68
457.52	1744.87
457.73	1781.73
457.93	1810.40
458.14	1748.97
458.34	1642.47
458.54	1638.38
458.75	1769.44
458.95	1800.16
459.15	1722.34
459.36	1720.29
459.56	1837.03
459.76	1863.65
459.97	1742.82
460.17	1671.14
460.37	1877.99
460.58	1703.91
460.78	1828.84
460.99	1679.33
461.19	1701.86
461.39	1665.00
461.60	1730.53
461.80	1800.16
462.00	1628.14
462.21	1714.15
462.41	1685.48
462.61	1687.53
462.82	1658.85
463.02	1716.20
463.22	1746.92
463.43	1773.54
463.63	1787.88
463.83	1812.45
464.04	1767.40
464.24	1728.49
464.44	1699.81
464.64	1744.87
464.85	1757.16
465.05	1740.77
465.25	1783.78
465.46	1667.05
465.66	1789.92
465.86	1794.02
466.07	1796.07
466.27	1796.07
466.47	1642.47
466.68	1689.57
466.88	1763.30
467.08	1736.68
467.29	1837.03
467.49	1738.73
467.69	1796.07
467.89	1779.68
468.10	1740.77
468.30	1771.49
468.50	1687.53
468.71	1794.02
468.91	1652.71
469.11	1886.18
469.31	1746.92
469.52	1720.29
469.72	1880.04
469.92	1892.32
470.13	1724.39
470.33	1775.59
470.53	1927.14
470.73	2154.46
470.94	2303.96
471.14	2336.73
471.34	2574.30
471.54	2385.88
471.75	2244.57
471.95	2156.51
472.15	2052.06
472.36	2113.50
472.56	2076.64
472.76	2088.93
472.96	1951.71
473.17	1978.34
473.37	1910.75
473.57	1802.21
473.77	1746.92
473.98	1736.68
474.18	1708.01
474.38	1951.71
474.58	1744.87
474.79	1681.38
474.99	1826.79
475.19	1767.40
475.39	1650.66
475.60	1705.96
475.80	1701.86
476.00	1720.29
476.20	1648.61
476.41	1736.68
476.61	1867.75
476.81	1812.45
477.01	1642.47
477.21	1861.60
477.42	1804.26
477.62	1671.14
477.82	1839.08
478.02	1632.23
478.23	1734.63
478.43	1628.14
478.63	1724.39
478.83	1708.01
479.03	1759.21
479.24	1802.21
479.44	1771.49
479.64	1740.77
479.84	1634.28
480.04	1740.77
480.25	1806.31
480.45	1669.09
480.65	1697.77
480.85	1791.97
481.06	1763.30
481.26	1738.73
481.46	1775.59
481.66	1759.21
481.86	1695.72
482.06	1791.97
482.27	1691.62
482.47	1734.63
482.67	1779.68
482.87	1681.38
483.07	1740.77
483.28	1755.11
483.48	1640.42
483.68	1718.25
483.88	1669.09
484.08	1662.95
484.29	1748.97
484.49	1718.25
484.69	1722.34
484.89	1777.64
485.09	1810.40
485.29	1699.81
485.50	1810.40
485.70	1701.86
485.90	1808.36
486.10	1693.67
486.30	1783.78
486.50	1794.02
486.71	1722.34
486.91	1763.30
487.11	1759.21
487.31	1660.90
487.51	1732.58
487.71	1636.33
487.91	1601.51
488.12	1728.49
488.32	1574.89
488.52	1656.81
488.72	1593.32
488.92	1722.34
489.12	1734.63
489.32	1804.26
489.53	1751.01
489.73	1679.33
489.93	1746.92
490.13	1662.95
490.33	1667.05
490.53	1722.34
490.73	1800.16
490.94	1712.10
491.14	1773.54
491.34	1892.32
491.54	2172.89
491.74	2475.99
491.94	2975.70
492.14	2924.50
492.34	3037.14
492.54	2815.96
492.75	2500.57
492.95	2508.76
493.15	2371.55
493.35	2277.34
493.55	2283.49
493.75	2164.70
493.95	2195.42
494.15	2074.59
494.35	1888.23
494.56	1832.93
494.76	1753.06
494.96	1791.97
495.16	1789.92
495.36	1824.74
495.56	1773.54
495.76	1683.43
495.96	1712.10
496.16	1714.15
496.36	1894.37
496.56	1800.16
496.77	1759.21
496.97	1763.30
497.17	1871.84
497.37	1626.09
497.57	1798.12
497.77	1732.58
497.97	1648.61
498.17	1710.05
498.37	1736.68
498.57	1781.73
498.77	1730.53
498.97	1730.53
499.17	1841.12
499.38	1751.01
499.58	1748.97
499.78	1759.21
499.98	1763.30
500.18	1691.62
500.38	1681.38
500.58	1976.29
500.78	2545.63
500.98	4591.55
501.18	5945.25
501.38	6819.74
501.58	7112.60
501.78	6682.52
501.98	5597.10
502.18	5007.28
502.38	4601.79
502.58	4052.93
502.78	3815.37
502.98	3727.30
503.18	3504.07
503.38	3182.54
503.59	2824.15
503.79	2684.89
503.99	2557.91
504.19	2295.77
504.39	2183.13
504.59	2242.53
504.79	2123.74
504.99	2009.06
505.19	1875.94
505.39	1914.85
505.59	2013.15
505.79	1939.43
505.99	1806.31
506.19	1748.97
506.39	1916.90
506.59	1744.87
506.79	1718.25
506.99	1867.75
507.19	1814.50
507.39	1834.98
507.59	1667.05
507.79	1716.20
507.99	1789.92
508.19	1796.07
508.39	1705.96
508.59	1779.68
508.79	1837.03
508.99	1867.75
509.19	1724.39
509.39	1765.35
509.59	1718.25
509.79	1683.43
509.99	1759.21
510.19	1791.97
510.39	1767.40
510.59	1683.43
510.79	1708.01
510.99	1683.43
511.19	1777.64
511.39	1808.36
511.59	1791.97
511.79	1804.26
511.99	1771.49
512.19	1855.46
512.38	1755.11
512.58	1648.61
512.78	1708.01
512.98	1746.92
513.18	1769.44
513.38	1630.18
513.58	1730.53
513.78	1744.87
513.98	1716.20
514.18	1751.01
514.38	1728.49
514.58	1763.30
514.78	1650.66
514.98	1681.38
515.18	1703.91
515.38	1630.18
515.58	1796.07
515.78	1767.40
515.98	1763.30
516.18	1769.44
516.38	1791.97
516.57	1753.06
516.77	1708.01
516.97	1777.64
517.17	1746.92
517.37	1650.66
517.57	1802.21
517.77	1775.59
517.97	1742.82
518.17	1804.26
518.37	1753.06
518.57	1697.77
518.77	1761.25
518.97	1787.88
519.16	1681.38
519.36	1822.69
519.56	1730.53
519.76	1673.19
519.96	1777.64
520.16	1843.17
520.36	1748.97
520.56	1804.26
520.76	1650.66
520.96	1662.95
521.16	1841.12
521.35	1785.83
521.55	1841.12
521.75	1714.15
521.95	1789.92
522.15	1728.49
522.35	1685.48
522.55	1718.25
522.75	1839.08
522.95	1699.81
523.14	1712.10
523.34	1765.35
523.54	1697.77
523.74	1812.45
523.94	1798.12
524.14	1662.95
524.34	1806.31
524.54	1867.75
524.73	1785.83
524.93	1724.39
525.13	1734.63
525.33	1630.18
525.53	1851.36
525.73	1814.50
525.93	1791.97
526.13	1673.19
526.32	1757.16
526.52	1726.44
526.72	1777.64
526.92	1757.16
527.12	1763.30
527.32	1697.77
527.52	1779.68
527.71	1708.01
527.91	1755.11
528.11	1667.05
528.31	1687.53
528.51	1712.10
528.71	1708.01
528.90	1746.92
529.10	1853.41
529.30	1794.02
529.50	1667.05
529.70	1667.05
529.90	1804.26
530.09	1710.05
530.29	1732.58
530.49	1691.62
530.69	1882.08
530.89	1753.06
531.09	1785.83
531.28	1712.10
531.48	1832.93
531.68	1730.53
531.88	1724.39
532.08	1763.30
532.28	1751.01
532.47	1761.25
532.67	1693.67
532.87	1779.68
533.07	1718.25
533.27	1798.12
533.46	1755.11
533.66	1767.40
533.86	1699.81
534.06	1718.25
534.26	1724.39
534.45	1744.87
534.65	1728.49
534.85	1718.25
535.05	1734.63
535.25	1738.73
535.44	1638.38
535.64	1800.16
535.84	1736.68
536.04	1718.25
536.24	1777.64
536.43	1710.05
536.63	1802.21
536.83	1685.48
537.03	1724.39
537.22	1671.14
537.42	1652.71
537.62	1740.77
537.82	1646.57
538.02	1812.45
538.21	1769.44
538.41	1910.75
538.61	1734.63
538.81	1771.49
539.00	1783.78
539.20	1662.95
539.40	1759.21
539.60	1771.49
539.79	1918.95
539.99	1705.96
540.19	1763.30
540.39	1728.49
540.58	1773.54
540.78	1759.21
540.98	1794.02
541.18	1738.73
541.37	1814.50
541.57	1722.34
541.77	1689.57
541.97	1607.66
542.16	1699.81
542.36	1761.25
542.56	1751.01
542.76	1884.13
542.95	1812.45
543.15	1753.06
543.35	1703.91
543.54	1701.86
543.74	1785.83
543.94	1890.28
544.14	1736.68
544.33	1800.16
544.53	1718.25
544.73	1757.16
544.93	1722.34
545.12	1740.77
545.32	1765.35
545.52	1781.73
545.71	1611.75
545.91	1785.83
546.11	1736.68
546.30	1703.91
546.50	1761.25
546.70	1794.02
546.90	1767.40
547.09	1701.86
547.29	1736.68
547.49	1798.12
547.68	1742.82
547.88	1660.90
548.08	1845.22
548.27	2154.46
548.47	1677.29
548.67	1796.07
548.87	1783.78
549.06	1718.25
549.26	1746.92
549.46	1828.84
549.65	1753.06
549.85	1765.35
550.05	1773.54
550.24	1667.05
550.44	1810.40
550.64	1708.01
550.83	1722.34
551.03	1761.25
551.23	1738.73
551.42	1773.54
551.62	1716.20
551.82	1810.40
552.01	1722.34
552.21	1812.45
552.41	1775.59
552.60	1859.56
552.80	1767.40
553.00	1665.00
553.19	1701.86
553.39	1845.22
553.59	1689.57
553.78	1726.44
553.98	1812.45
554.17	1691.62
554.37	1794.02
554.57	1832.93
554.76	1671.14
554.96	1722.34
555.16	1689.57
555.35	1791.97
555.55	1761.25
555.75	1816.55
555.94	1826.79
556.14	1662.95
556.33	1761.25
556.53	1789.92
556.73	1753.06
556.92	1777.64
557.12	1845.22
557.32	1869.80
557.51	1771.49
557.71	1779.68
557.90	1843.17
558.10	1763.30
558.30	1775.59
558.49	1632.23
558.69	1705.96
558.88	1804.26
559.08	1738.73
559.28	1718.25
559.47	1777.64
559.67	1787.88
559.86	1861.60
560.06	1714.15
560.26	1767.40
560.45	1701.86
560.65	1697.77
560.84	1808.36
561.04	1746.92
561.24	1791.97
561.43	1705.96
561.63	1918.95
561.82	1796.07
562.02	1804.26
562.22	1804.26
562.41	1806.31
562.61	1693.67
562.80	1671.14
563.00	1873.89
563.19	1820.64
563.39	1804.26
563.59	1787.88
563.78	1740.77
563.98	1636.33
564.17	1650.66
564.37	1683.43
564.56	1703.91
564.76	1669.09
564.96	1816.55
565.15	1753.06
565.35	1910.75
565.54	1665.00
565.74	1755.11
565.93	1787.88
566.13	1769.44
566.32	1767.40
566.52	1773.54
566.71	1816.55
566.91	1781.73
567.11	1734.63
567.30	1681.38
567.50	1761.25
567.69	1675.24
567.89	1718.25
568.08	1730.53
568.28	1763.30
568.47	1650.66
568.67	1812.45
568.86	1669.09
569.06	1808.36
569.25	1730.53
569.45	1742.82
569.64	1769.44
569.84	1712.10
570.04	1818.60
570.23	1755.11
570.43	1640.42
570.62	1716.20
570.82	1802.21
571.01	1730.53
571.21	1648.61
571.40	1712.10
571.60	1814.50
571.79	1771.49
571.99	1669.09
572.18	1734.63
572.38	1847.27
572.57	1753.06
572.77	1898.47
572.96	1943.52
573.16	1740.77
573.35	1757.16
573.55	1886.18
573.74	1796.07
573.94	1820.64
574.13	1800.16
574.33	1763.30
574.52	1804.26
574.71	1775.59
574.91	1757.16
575.10	1671.14
575.30	1757.16
575.49	1734.63
575.69	1748.97
575.88	1787.88
576.08	1701.86
576.27	1834.98
576.47	1716.20
576.66	1849.32
576.86	1822.69
577.05	1744.87
577.25	1767.40
577.44	1900.52
577.64	1775.59
577.83	1806.31
578.02	1720.29
578.22	1814.50
578.41	1851.36
578.61	1775.59
578.80	1628.14
579.00	1834.98
579.19	1728.49
579.39	1867.75
579.58	1849.32
579.77	1736.68
579.97	1751.01
580.16	1777.64
580.36	1865.70
580.55	1894.37
580.75	1732.58
580.94	1730.53
581.13	1894.37
581.33	1759.21
581.52	1773.54
581.72	1810.40
581.91	1851.36
582.11	1726.44
582.30	1832.93
582.49	1732.58
582.69	1796.07
582.88	1849.32
583.08	1734.63
583.27	1808.36
583.47	1781.73
583.66	1685.48
583.85	1761.25
584.05	1826.79
584.24	1791.97
584.44	1855.46
584.63	1908.71
584.82	1767.40
585.02	1845.22
585.21	1775.59
585.41	1787.88
585.60	1791.97
585.79	1984.48
585.99	1951.71
586.18	1918.95
586.37	2127.84
586.57	3403.72
586.76	10184.55
586.96	24678.02
587.15	34727.41
587.34	40797.59
587.54	42489.21
587.73	36883.92
587.93	26709.61
588.12	21413.56
588.31	18198.25
588.51	16606.98
588.70	15197.98
588.89	14309.16
589.09	12599.10
589.28	11032.41
589.47	9385.84
589.67	7915.40
589.86	6336.42
590.06	5072.82
590.25	3854.28
590.44	3078.10
590.64	2588.63
590.83	2254.81
591.02	2062.30
591.22	1933.28
591.41	1894.37
591.60	1865.70
591.80	1972.19
591.99	1746.92
592.18	1816.55
592.38	1857.51
592.57	1839.08
592.76	1800.16
592.96	1738.73
593.15	1734.63
593.34	1761.25
593.54	1736.68
593.73	1853.41
593.92	1720.29
594.12	1802.21
594.31	1710.05
594.50	1806.31
594.70	1759.21
594.89	1884.13
595.08	1714.15
595.28	1796.07
595.47	1984.48
595.66	1798.12
595.86	1605.61
596.05	1724.39
596.24	1755.11
596.43	1812.45
596.63	1877.99
596.82	1769.44
597.01	1785.83
597.21	1800.16
597.40	1751.01
597.59	1832.93
597.79	1708.01
597.98	1761.25
598.17	1791.97
598.36	1779.68
598.56	1775.59
598.75	1681.38
598.94	1783.78
599.14	1757.16
599.33	1722.34
599.52	1783.78
599.71	1791.97
599.91	1849.32
600.10	1783.78
600.29	1767.40
600.48	1751.01
600.68	1796.07
600.87	1683.43
601.06	1722.34
601.26	1701.86
601.45	1751.01
601.64	1720.29
601.83	1820.64
602.03	1724.39
602.22	1773.54
602.41	1787.88
602.60	1828.84
602.80	1832.93
602.99	1740.77
603.18	1730.53
603.37	1730.53
603.57	1789.92
603.76	1808.36
603.95	1800.16
604.14	1705.96
604.34	1734.63
604.53	1761.25
604.72	1746.92
604.91	1701.86
605.10	1757.16
605.30	1728.49
605.49	1849.32
605.68	1771.49
605.87	1708.01
606.07	1685.48
606.26	1662.95
606.45	1759.21
606.64	1787.88
606.84	1687.53
607.03	1736.68
607.22	1720.29
607.41	1681.38
607.60	1742.82
607.80	1886.18
607.99	1744.87
608.18	1759.21
608.37	1794.02
608.56	1714.15
608.76	1808.36
608.95	1937.38
609.14	1677.29
609.33	1746.92
609.52	1800.16
609.72	1767.40
609.91	1761.25
610.10	1775.59
610.29	1800.16
610.48	1773.54
610.68	1726.44
610.87	1728.49
611.06	1789.92
611.25	1712.10
611.44	1751.01
611.63	1705.96
611.83	1851.36
612.02	1648.61
612.21	1789.92
612.40	1673.19
612.59	1683.43
612.79	1685.48
612.98	1697.77
613.17	1800.16
613.36	1742.82
613.55	1785.83
613.74	1732.58
613.93	1677.29
614.13	1732.58
614.32	1679.33
614.51	1728.49
614.70	1681.38
614.89	1695.72
615.08	1808.36
615.28	2090.98
615.47	1628.14
615.66	1816.55
615.85	1775.59
616.04	1845.22
616.23	1681.38
616.42	1736.68
616.62	1712.10
616.81	1816.55
617.00	1714.15
617.19	1802.21
617.38	1806.31
617.57	1748.97
617.76	1736.68
617.95	1812.45
618.15	1722.34
618.34	1783.78
618.53	1638.38
618.72	1734.63
618.91	1822.69
619.10	1841.12
619.29	1775.59
619.48	1685.48
619.68	1693.67
619.87	1685.48
620.06	1595.37
620.25	1753.06
620.44	1742.82
620.63	1791.97
620.82	1656.81
621.01	1736.68
621.20	1748.97
621.39	1693.67
621.59	1714.15
621.78	1699.81
621.97	1669.09
622.16	1753.06
622.35	1716.20
622.54	1755.11
622.73	1814.50
622.92	1665.00
623.11	1820.64
623.30	1724.39
623.49	1751.01
623.68	1757.16
623.88	1798.12
624.07	1695.72
624.26	1777.64
624.45	1687.53
624.64	1705.96
624.83	1765.35
625.02	1787.88
625.21	1720.29
625.40	1759.21
625.59	1724.39
625.78	1718.25
625.97	1808.36
626.16	1863.65
626.35	1767.40
626.54	1673.19
626.74	1826.79
626.93	1748.97
627.12	1738.73
627.31	1724.39
627.50	1722.34
627.69	1816.55
627.88	1738.73
628.07	1662.95
628.26	1675.24
628.45	1710.05
628.64	1652.71
628.83	1738.73
629.02	1654.76
629.21	1767.40
629.40	1712.10
629.59	1644.52
629.78	1742.82
629.97	1701.86
630.16	1755.11
630.35	1718.25
630.54	1652.71
630.73	1728.49
630.92	1693.67
631.11	1746.92
631.30	1763.30
631.49	1800.16
631.68	1791.97
631.87	1806.31
632.06	1634.28
632.25	1882.08
632.44	1730.53
632.63	1769.44
632.82	1742.82
633.01	1646.57
633.20	1685.48
633.39	1748.97
633.58	1644.52
633.77	1757.16
633.96	1757.16
634.15	1804.26
634.34	1665.00
634.53	1705.96
634.72	1783.78
634.91	1699.81
635.10	1837.03
635.29	1759.21
635.48	1822.69
635.67	1746.92
635.86	1675.24
636.05	1783.78
636.24	1740.77
636.43	1753.06
636.62	1781.73
636.81	1675.24
637.00	1669.09
637.19	1820.64
637.38	1669.09
637.57	1701.86
637.76	1732.58
637.95	1693.67
638.14	1767.40
638.33	1699.81
638.52	1738.73
638.71	1658.85
638.89	1640.42
639.08	1892.32
639.27	1746.92
639.46	1720.29
639.65	1742.82
639.84	1759.21
640.03	1753.06
640.22	1748.97
640.41	1851.36
640.60	1712.10
640.79	1699.81
640.98	1646.57
641.17	1828.84
641.36	1740.77
641.55	1734.63
641.74	1665.00
641.92	1660.90
642.11	1746.92
642.30	1746.92
642.49	1710.05
642.68	1673.19
642.87	1746.92
643.06	1714.15
643.25	1656.81
643.44	1640.42
643.63	1689.57
643.82	1787.88
644.00	1701.86
644.19	1755.11
644.38	1636.33
644.57	1822.69
644.76	1763.30
644.95	1794.02
645.14	1781.73
645.33	1662.95
645.52	1738.73
645.71	1716.20
645.89	1777.64
646.08	1787.88
646.27	1722.34
646.46	1843.17
646.65	1630.18
646.84	1724.39
647.03	1726.44
647.22	1757.16
647.40	1710.05
647.59	1789.92
647.78	1652.71
647.97	1693.67
648.16	1648.61
648.35	1853.41
648.54	1759.21
648.73	1697.77
648.91	1785.83
649.10	1730.53
649.29	1705.96
649.48	1722.34
649.67	1796.07
649.86	1773.54
650.05	1710.05
650.23	1818.60
650.42	1699.81
650.61	1730.53
650.80	1767.40
650.99	1855.46
651.18	1755.11
651.36	1845.22
651.55	1738.73
651.74	1789.92
651.93	1640.42
652.12	1705.96
652.31	1761.25
652.49	1693.67
652.68	1734.63
652.87	1726.44
653.06	1720.29
653.25	1824.74
653.44	1675.24
653.62	1812.45
653.81	1785.83
654.00	1679.33
654.19	1808.36
654.38	1830.88
654.56	1742.82
654.75	1714.15
654.94	1777.64
655.13	1791.97
655.32	1722.34
655.51	1763.30
655.69	1697.77
655.88	1804.26
656.07	1710.05
656.26	1832.93
656.45	1630.18
656.63	1665.00
656.82	1812.45
657.01	1779.68
657.20	1691.62
657.38	1830.88
657.57	1712.10
657.76	1605.61
657.95	1753.06
658.14	1656.81
658.32	1748.97
658.51	1613.80
658.70	1691.62
658.89	1783.78
659.08	1736.68
659.26	1888.23
659.45	1636.33
659.64	1740.77
659.83	1669.09
660.01	1892.32
660.20	1779.68
660.39	1806.31
660.58	1632.23
660.76	1824.74
660.95	1568.74
661.14	1691.62
661.33	1646.57
661.51	1638.38
661.70	1773.54
661.89	1714.15
662.08	1730.53
662.26	1720.29
662.45	1685.48
662.64	1929.19
662.83	1734.63
663.01	1714.15
663.20	1728.49
663.39	1826.79
663.58	1744.87
663.76	1710.05
663.95	1712.10
664.14	1740.77
664.32	1724.39
664.51	1697.77
664.70	1697.77
664.89	1763.30
665.07	1691.62
665.26	1712.10
665.45	1656.81
665.64	1849.32
665.82	1734.63
666.01	1738.73
666.20	1732.58
666.38	1820.64
666.57	1781.73
666.76	2140.13
666.95	4636.60
667.13	10438.50
667.32	15417.11
667.51	18081.52
667.69	19050.21
667.88	17667.83
668.07	12193.61
668.25	9594.73
668.44	8216.45
668.63	7309.20
668.81	7092.12
669.00	6205.35
669.19	5812.14
669.38	5105.59
669.56	4546.49
669.75	4018.11
669.94	3450.83
670.12	2815.96
670.31	2539.48
670.50	2258.91
670.68	1986.53
670.87	1951.71
671.06	1882.08
671.24	1861.60
671.43	1855.46
671.62	1773.54
671.80	1722.34
671.99	1726.44
672.18	1703.91
672.36	1771.49
672.55	1767.40
672.74	1744.87
672.92	1837.03
673.11	1728.49
673.29	1683.43
673.48	1748.97
673.67	1738.73
673.85	1789.92
674.04	1724.39
674.23	1775.59
674.41	1785.83
674.60	1705.96
674.79	1695.72
674.97	1689.57
675.16	1789.92
675.34	1808.36
675.53	1697.77
675.72	1753.06
675.90	1814.50
676.09	1724.39
676.28	1669.09
676.46	1644.52
676.65	1753.06
676.83	1714.15
677.02	1730.53
677.21	1724.39
677.39	1681.38
677.58	1679.33
677.77	1671.14
677.95	1722.34
678.14	1718.25
678.32	1740.77
678.51	1724.39
678.70	1912.80
678.88	1755.11
679.07	1765.35
679.25	1742.82
679.44	1767.40
679.63	1710.05
679.81	1759.21
680.00	1796.07
680.18	1662.95
680.37	1841.12
680.55	1824.74
680.74	1619.94
680.93	1611.75
681.11	1685.48
681.30	1689.57
681.48	1742.82
681.67	1644.52
681.85	1708.01
682.04	1767.40
682.23	1787.88
682.41	1736.68
682.60	1669.09
682.78	1689.57
682.97	1605.61
683.15	1730.53
683.34	1681.38
683.53	1808.36
683.71	1652.71
683.90	1818.60
684.08	1918.95
684.27	1675.24
684.45	1662.95
684.64	1796.07
684.82	1646.57
685.01	1626.09
685.19	1787.88
685.38	1814.50
685.57	1712.10
685.75	1677.29
685.94	1650.66
686.12	1677.29
686.31	1738.73
686.49	1808.36
686.68	1687.53
686.86	1802.21
687.05	1691.62
687.23	1798.12
687.42	1677.29
687.60	1667.05
687.79	1744.87
687.97	1847.27
688.16	1822.69
688.34	1744.87
688.53	1636.33
688.71	1669.09
688.90	1839.08
689.08	1699.81
689.27	1560.55
689.45	1785.83
689.64	1720.29
689.82	1755.11
690.01	1718.25
690.19	1705.96
690.38	1726.44
690.56	1779.68
690.75	1687.53
690.93	1705.96
691.12	1660.90
691.30	1665.00
691.49	1695.72
691.67	1689.57
691.86	1873.89
692.04	1599.46
692.23	1697.77
692.41	1642.47
692.60	1861.60
692.78	1773.54
692.97	1689.57
693.15	1708.01
693.34	1724.39
693.52	1712.10
693.71	1660.90
693.89	1646.57
694.08	1609.70
694.26	1783.78
694.44	1730.53
694.63	1763.30
694.81	1626.09
695.00	1722.34
695.18	1789.92
695.37	1808.36
695.55	1730.53
695.74	1716.20
695.92	1671.14
696.10	1851.36
696.29	1607.66
696.47	1738.73
696.66	1718.25
696.84	1667.05
697.03	1714.15
697.21	1845.22
697.40	2303.96
697.58	1775.59
697.76	1701.86
697.95	1683.43
698.13	1710.05
698.32	1681.38
698.50	1718.25
698.68	1761.25
698.87	1738.73
699.05	1820.64
699.24	1734.63
699.42	1640.42
699.61	1763.30
699.79	1724.39
699.97	1699.81
700.16	1679.33
700.34	1662.95
700.53	1701.86
700.71	1814.50
700.89	1689.57
701.08	1775.59
701.26	1693.67
701.45	2209.76
701.63	1744.87
701.81	1744.87
702.00	1720.29
702.18	1789.92
702.37	1705.96
702.55	1705.96
702.73	1769.44
702.92	1599.46
703.10	1806.31
703.28	1691.62
703.47	1650.66
703.65	1742.82
703.84	1728.49
704.02	1714.15
704.20	1863.65
704.39	1787.88
704.57	1681.38
704.75	1748.97
704.94	1800.16
705.12	1697.77
705.30	1800.16
705.49	2240.48
705.67	4431.80
705.86	9543.53
706.04	12744.51
706.22	14685.98
706.41	15470.36
706.59	13907.76
706.77	9455.47
706.96	7481.23
707.14	6549.40
707.32	5887.91
707.51	5527.47
707.69	5042.10
707.87	4059.07
708.06	3592.14
708.24	3006.42
708.42	2463.71
708.61	2226.14
708.79	1935.33
708.97	1812.45
709.16	1855.46
709.34	1798.12
709.52	1738.73
709.71	1726.44
709.89	1781.73
710.07	1722.34
710.26	1748.97
710.44	1714.15
710.62	1761.25
710.80	1701.86
710.99	1748.97
711.17	1775.59
711.35	1662.95
711.54	1689.57
711.72	1763.30
711.90	1705.96
712.09	1746.92
712.27	1638.38
712.45	1718.25
712.63	1703.91
712.82	1736.68
713.00	1677.29
713.18	1728.49
713.37	1736.68
713.55	1796.07
713.73	1761.25
713.91	1736.68
714.10	1708.01
714.28	1640.42
714.46	1814.50
714.65	1722.34
714.83	1775.59
715.01	1748.97
715.19	1652.71
715.38	1619.94
715.56	1753.06
715.74	1669.09
715.92	1611.75
716.11	1814.50
716.29	1685.48
716.47	1669.09
716.65	1689.57
716.84	1583.08
717.02	1718.25
717.20	1665.00
717.38	1722.34
717.57	1757.16
717.75	1759.21
717.93	1757.16
718.11	1824.74
718.30	1646.57
718.48	1695.72
718.66	1695.72
718.84	1789.92
719.03	1667.05
719.21	1630.18
719.39	1804.26
719.57	1771.49
719.75	1808.36
719.94	1714.15
720.12	1699.81
720.30	1783.78
720.48	1863.65
720.67	1689.57
720.85	1630.18
721.03	1662.95
721.21	1681.38
721.39	1732.58
721.58	1697.77
721.76	1789.92
721.94	1716.20
722.12	1712.10
722.30	1763.30
722.49	1740.77
722.67	1697.77
722.85	1806.31
723.03	1652.71
723.21	1708.01
723.40	1705.96
723.58	1753.06
723.76	1740.77
723.94	1738.73
724.12	1796.07
724.30	1771.49
724.49	1798.12
724.67	1691.62
724.85	1839.08
725.03	1615.85
725.21	1714.15
725.40	1812.45
725.58	1693.67
725.76	1820.64
725.94	1708.01
726.12	1714.15
726.30	1734.63
726.49	1722.34
726.67	1662.95
726.85	1755.11
727.03	1822.69
727.21	2127.84
727.39	2949.08
727.57	3934.15
727.76	4243.39
727.94	4429.76
728.12	4345.79
728.30	3618.76
728.48	2932.69
728.66	2764.76
728.84	2549.72
729.03	2396.12
729.21	2138.08
729.39	2021.35
729.57	1837.03
729.75	1832.93
729.93	1894.37
730.11	1710.05
730.30	1710.05
730.48	1689.57
730.66	1802.21
730.84	1845.22
731.02	1722.34
731.20	1644.52
731.38	1753.06
731.56	1595.37
731.74	1617.90
731.93	1759.21
732.11	1652.71
732.29	1791.97
732.47	1767.40
732.65	1726.44
732.83	1808.36
733.01	1726.44
733.19	1621.99
733.37	1687.53
733.56	1714.15
733.74	1716.20
733.92	1773.54
734.10	1705.96
734.28	1734.63
734.46	1654.76
734.64	1665.00
734.82	1710.05
735.00	1740.77
735.18	1734.63
735.36	1689.57
735.54	1650.66
735.73	1671.14
735.91	1708.01
736.09	1779.68
736.27	1773.54
736.45	1759.21
736.63	1669.09
736.81	1722.34
736.99	1802.21
737.17	1822.69
737.35	1746.92
737.53	1660.90
737.71	1667.05
737.89	1826.79
738.07	1665.00
738.25	1660.90
738.43	1593.32
738.61	1712.10
738.80	1687.53
738.98	1638.38
739.16	1724.39
739.34	1632.23
739.52	1880.04
739.70	1654.76
739.88	1738.73
740.06	1761.25
740.24	1583.08
740.42	1763.30
740.60	1742.82
740.78	1710.05
740.96	1607.66
741.14	1656.81
741.32	1714.15
741.50	1619.94
741.68	1804.26
741.86	1738.73
742.04	1662.95
742.22	1730.53
742.40	1728.49
742.58	1777.64
742.76	1673.19
742.94	1734.63
743.12	1656.81
743.30	1722.34
743.48	1677.29
743.66	1665.00
743.84	1800.16
744.02	1646.57
744.20	1718.25
744.38	1617.90
744.56	1767.40
744.74	1810.40
744.92	1734.63
745.10	1787.88
745.28	1808.36
745.46	1796.07
745.64	1769.44
745.82	1816.55
746.00	1808.36
746.18	1740.77
746.36	1708.01
746.54	1763.30
746.72	1791.97
746.90	1624.04
747.08	1802.21
747.26	1730.53
747.44	1746.92
747.62	1775.59
747.80	1845.22
747.98	1830.88
748.15	1738.73
748.33	1708.01
748.51	1689.57
748.69	1748.97
748.87	1665.00
749.05	1644.52
749.23	1759.21
749.41	1710.05
749.59	1714.15
749.77	1787.88
749.95	1675.24
750.13	1759.21
750.31	1755.11
750.49	1708.01
750.67	1746.92
750.85	1796.07
751.03	1710.05
751.20	1839.08
751.38	1779.68
751.56	1685.48
751.74	1738.73
751.92	1746.92
752.10	1644.52
752.28	1769.44
752.46	1609.70
752.64	1738.73
752.82	1746.92
753.00	1761.25
753.18	1687.53
753.35	1767.40
753.53	1677.29
753.71	1652.71
753.89	1800.16
754.07	1726.44
754.25	1732.58
754.43	1687.53
754.61	1619.94
754.79	1685.48
754.97	1701.86
755.14	1812.45
755.32	1665.00
755.50	1697.77
755.68	1656.81
755.86	1673.19
756.04	1630.18
756.22	1714.15
756.40	1757.16
756.57	1832.93
756.75	1660.90
756.93	1773.54
757.11	1705.96
757.29	1632.23
757.47	1667.05
757.65	1619.94
757.82	1662.95
758.00	1685.48
758.18	1730.53
758.36	1689.57
758.54	1755.11
758.72	1710.05
758.90	1812.45
759.07	1742.82
759.25	1685.48
759.43	1806.31
759.61	1695.72
759.79	2205.66
759.97	1742.82
760.15	1669.09
760.32	1648.61
760.50	1759.21
760.68	1859.56
760.86	1621.99
761.04	1775.59
761.22	1767.40
761.39	1746.92
761.57	1746.92
761.75	1789.92
761.93	1730.53
762.11	1693.67
762.28	1724.39
762.46	1630.18
762.64	1740.77
762.82	1591.27
763.00	1699.81
763.18	1810.40
763.35	1689.57
763.53	1722.34
763.71	1724.39
763.89	1744.87
764.07	1777.64
764.24	1642.47
764.42	1712.10
764.60	1744.87
764.78	1697.77
764.96	1718.25
765.13	1769.44
765.31	1757.16
765.49	1669.09
765.67	1634.28
765.84	1685.48
766.02	1677.29
766.20	1570.79
766.38	1763.30
766.56	1814.50
766.73	1722.34
766.91	1777.64
767.09	1755.11
767.27	1787.88
767.44	1703.91
767.62	1708.01
767.80	1744.87
767.98	1724.39
768.15	1626.09
768.33	1818.60
768.51	1738.73
768.69	1826.79
768.87	1794.02
769.04	1677.29
769.22	1783.78
769.40	1785.83
769.58	1845.22
769.75	1767.40
769.93	1734.63
770.11	1693.67
770.28	1615.85
770.46	1736.68
770.64	1718.25
770.82	1689.57
770.99	1691.62
771.17	1714.15
771.35	1650.66
771.53	1677.29
771.70	1697.77
771.88	1697.77
772.06	1781.73
772.23	1689.57
772.41	1714.15
772.59	1656.81
772.77	1689.57
772.94	1701.86
773.12	1767.40
773.30	1710.05
773.47	1798.12
773.65	1665.00
773.83	1757.16
774.01	1728.49
774.18	1634.28
774.36	1744.87
774.54	1675.24
774.71	1693.67
774.89	1658.85
775.07	1636.33
775.24	1654.76
775.42	1689.57
775.60	1757.16
775.78	1714.15
775.95	1671.14
776.13	1662.95
776.31	1632.23
776.48	1708.01
776.66	1775.59
776.84	1624.04
777.01	1665.00
777.19	1650.66
777.37	1732.58
777.54	1691.62
777.72	1865.70
777.90	1697.77
778.07	1705.96
778.25	1804.26
778.43	1753.06
778.60	1667.05
778.78	1738.73
778.96	1738.73
779.13	1640.42
779.31	1773.54
779.49	1705.96
779.66	1734.63
779.84	1699.81
780.01	1673.19
780.19	1599.46
780.37	1742.82
780.54	1740.77
780.72	1677.29
780.90	1705.96
781.07	1705.96
781.25	1710.05
781.43	1791.97
781.60	1732.58
781.78	1748.97
781.95	1660.90
782.13	1652.71
782.31	1636.33
782.48	1630.18
782.66	1736.68
782.83	1748.97
783.01	1732.58
783.19	1783.78
783.36	1765.35
783.54	1730.53
783.72	1685.48
783.89	1660.90
784.07	1708.01
784.24	1789.92
784.42	1828.84
784.60	1724.39
784.77	1759.21
784.95	1609.70
785.12	1691.62
785.30	1685.48
785.47	1673.19
785.65	1714.15
785.83	1648.61
786.00	1718.25
786.18	1679.33
786.35	1568.74
786.53	1726.44
786.71	1761.25
786.88	1791.97
787.06	1714.15
787.23	1726.44
787.41	1597.42
787.58	1701.86
787.76	1740.77
787.94	1751.01
788.11	1722.34
788.29	1603.56
788.46	1695.72
788.64	1669.09
788.81	1730.53
788.99	1681.38
789.16	1615.85
789.34	1677.29
789.52	1722.34
789.69	1744.87
789.87	1607.66
790.04	1726.44
790.22	1742.82
790.39	1769.44
790.57	1677.29
790.74	1679.33
790.92	1796.07
791.09	1708.01
791.27	1701.86
791.44	1705.96
791.62	1716.20
791.79	1660.90
791.97	1720.29
792.15	1888.23
792.32	1710.05
792.50	1763.30
792.67	1910.75
792.85	1767.40
793.02	1662.95
793.20	1722.34
793.37	1652.71
793.55	1724.39
793.72	1556.46
793.90	1722.34
794.07	1662.95
794.25	1646.57
794.42	1693.67
794.60	1757.16
794.77	1773.54
794.95	1755.11
795.12	1822.69
795.30	1617.90
795.47	1648.61
795.65	1837.03
795.82	1757.16
796.00	1681.38
796.17	1648.61
796.34	1667.05
796.52	1767.40
796.69	1761.25
796.87	1767.40
797.04	1689.57
797.22	1808.36
797.39	1669.09
797.57	1771.49
797.74	1685.48
797.92	1767.40
798.09	1656.81
798.27	1773.54
798.44	1775.59
798.62	1755.11
798.79	1730.53
798.96	1751.01
799.14	1652.71
799.31	1818.60
799.49	1634.28
799.66	1689.57
799.84	1675.24
800.01	1677.29
800.19	1677.29
800.36	1624.04
800.53	1728.49
800.71	1652.71
800.88	1757.16
801.06	1607.66
801.23	1681.38
801.41	1785.83
801.58	1642.47
801.75	1632.23
801.93	1759.21
802.10	1697.77
802.28	1671.14
802.45	1640.42
802.63	1730.53
802.80	1742.82
802.97	1701.86
803.15	1746.92
803.32	1701.86
803.50	1621.99
803.67	1736.68
803.84	1699.81
804.02	1662.95
804.19	1695.72
804.37	1568.74
804.54	1660.90
804.71	1656.81
804.89	1615.85
805.06	1675.24
805.24	1619.94
805.41	1718.25
805.58	1710.05
805.76	1880.04
805.93	1722.34
806.10	1769.44
806.28	1751.01
806.45	1748.97
806.63	1699.81
806.80	1720.29
806.97	1660.90
807.15	1656.81
807.32	1693.67
807.49	1673.19
807.67	1617.90
807.84	1708.01
808.01	1621.99
808.19	1843.17
808.36	1736.68
808.54	1759.21
808.71	1597.42
808.88	1681.38
809.06	1787.88
809.23	1830.88
809.40	1679.33
809.58	1746.92
809.75	1730.53
809.92	1648.61
810.10	1808.36
810.27	1734.63
810.44	1787.88
810.62	1771.49
810.79	1763.30
810.96	1689.57
811.14	1705.96
811.31	1761.25
811.48	1746.92
811.66	1714.15
811.83	1728.49
812.00	1714.15
812.18	1798.12
812.35	1873.89
812.52	1759.21
812.69	1648.61
812.87	1722.34
813.04	1695.72
813.21	1601.51
813.39	1763.30
813.56	1675.24
813.73	1763.30
813.91	1603.56
814.08	1736.68
814.25	1851.36
814.42	1632.23
814.60	1736.68
814.77	1722.34
814.94	1714.15
815.12	1753.06
815.29	1730.53
815.46	1681.38
815.63	1791.97
815.81	1615.85
815.98	1658.85
816.15	1675.24
816.33	1669.09
816.50	1705.96
816.67	1748.97
816.84	1757.16
817.02	1685.48
817.19	1787.88
817.36	1724.39
817.53	1705.96
817.71	1703.91
817.88	1683.43
818.05	1710.05
818.22	1689.57
818.40	1875.94
818.57	1710.05
818.74	1724.39
818.91	1751.01
819.09	1693.67
819.26	1806.31
819.43	1703.91
819.60	1689.57
819.78	1755.11
819.95	1785.83
820.12	1710.05
820.29	1837.03
820.47	1818.60
820.64	1714.15
820.81	1675.24
820.98	1722.34
821.15	1667.05
821.33	1726.44
821.50	1634.28
821.67	1818.60
821.84	1746.92
822.02	1738.73
822.19	1806.31
822.36	1716.20
822.53	1650.66
822.70	1673.19
822.88	1720.29
823.05	1875.94
823.22	1652.71
823.39	1767.40
823.56	1724.39
823.74	1849.32
823.91	1671.14
824.08	1675.24
824.25	1660.90
824.42	1789.92
824.60	1660.90
824.77	1665.00
824.94	1681.38
825.11	1714.15
825.28	1665.00
825.45	1736.68
825.63	1697.77
825.80	1615.85
825.97	1755.11
826.14	1765.35
826.31	1669.09
826.48	1724.39
826.66	1673.19
826.83	1650.66
827.00	1734.63
827.17	1697.77
827.34	1650.66
827.51	1624.04
827.69	1669.09
827.86	1619.94
828.03	1748.97
828.20	1705.96
828.37	1687.53
828.54	1730.53
828.71	1701.86
828.89	1849.32
829.06	1728.49
829.23	1703.91
829.40	1744.87
829.57	1675.24
829.74	1652.71
829.91	1710.05
830.09	1640.42
830.26	1753.06
830.43	1890.28
830.60	1665.00
830.77	1775.59
830.94	1820.64
831.11	1685.48
831.28	1673.19
831.46	1796.07
831.63	1716.20
831.80	1708.01
831.97	1640.42
832.14	1660.90
832.31	1701.86
832.48	1667.05
832.65	1783.78
832.82	1652.71
832.99	1779.68
833.17	1581.03
833.34	1734.63
833.51	1677.29
833.68	1652.71
833.85	1720.29
834.02	1732.58
834.19	1650.66
834.36	1689.57
834.53	1669.09
834.70	1787.88
834.87	1660.90
835.04	1705.96
835.22	1640.42
835.39	1687.53
835.56	1675.24
835.73	1656.81
835.90	1800.16
836.07	1705.96
836.24	1746.92
836.41	1671.14
836.58	1658.85
836.75	1789.92
836.92	1720.29
837.09	1681.38
837.26	1746.92
837.43	1740.77
837.60	1759.21
837.77	1705.96
837.94	1773.54
838.12	1769.44
838.29	1742.82
838.46	1611.75
838.63	1662.95
838.80	1863.65
838.97	1722.34
839.14	1730.53
839.31	1736.68
839.48	1714.15
839.65	1730.53
839.82	1781.73
839.99	1658.85
840.16	1669.09
840.33	1687.53
840.50	1779.68
840.67	1640.42
840.84	1640.42
841.01	1748.97
841.18	1681.38
841.35	1699.81
841.52	1771.49
841.69	1769.44
841.86	1671.14
842.03	1726.44
842.20	1769.44
842.37	1687.53
842.54	1652.71
842.71	1705.96
842.88	1660.90
843.05	1828.84
843.22	1691.62
843.39	1681.38
843.56	1662.95
843.73	1656.81
843.90	1767.40
844.07	1724.39
844.24	1757.16
844.41	1685.48
844.58	1757.16
844.75	1689.57
844.92	1746.92
845.09	1609.70
845.26	1673.19
845.43	1767.40
845.60	1677.29
845.77	1730.53
845.94	1689.57
846.10	1779.68
846.27	1662.95
846.44	1591.27
846.61	1574.89
846.78	1761.25
846.95	1703.91
847.12	1675.24
847.29	1718.25
847.46	1681.38
847.63	1853.41
847.80	1689.57
847.97	1726.44
848.14	1783.78
848.31	1636.33
848.48	1638.38
848.65	1667.05
848.82	1714.15
848.98	1816.55
849.15	1800.16
849.32	1810.40
849.49	1779.68
849.66	1720.29
849.83	1736.68
850.00	1677.29
850.17	1826.79
850.34	1677.29
850.51	1624.04
850.68	1701.86
850.85	1843.17
851.01	1734.63
851.18	1730.53
851.35	1685.48
851.52	1689.57
851.69	1802.21
851.86	1660.90
852.03	1683.43
852.20	1767.40
852.37	1681.38
852.53	1628.14
852.70	1634.28
852.87	1761.25
853.04	1740.77
853.21	1738.73
853.38	1755.11
853.55	1763.30
853.72	1796.07
853.89	1632.23
854.05	1693.67
854.22	1671.14
854.39	1685.48
854.56	1763.30
854.73	1796.07
854.90	1705.96
855.07	1753.06
855.23	1730.53
855.40	1712.10
855.57	1728.49
855.74	1589.22
855.91	1894.37
856.08	1665.00
856.25	1595.37
856.41	1734.63
856.58	1720.29
856.75	1699.81
856.92	1621.99
857.09	1734.63
857.26	1578.98
857.42	1691.62
857.59	1689.57
857.76	1714.15
857.93	1693.67
858.10	1665.00
858.27	1669.09
858.43	1681.38
858.60	1650.66
858.77	1609.70
858.94	1697.77
859.11	1820.64
859.27	1683.43
859.44	1697.77
859.61	1781.73
859.78	1705.96
859.95	1699.81
860.12	1679.33
860.28	1859.56
860.45	1775.59
860.62	1603.56
860.79	1746.92
860.95	1685.48
861.12	1808.36
861.29	1730.53
861.46	1681.38
861.63	1763.30
861.79	1708.01
861.96	1689.57
862.13	1720.29
862.30	1769.44
862.47	1656.81
862.63	1660.90
862.80	1746.92
862.97	1800.16
863.14	1687.53
863.30	1683.43
863.47	1656.81
863.64	1820.64
863.81	1685.48
863.97	1697.77
864.14	1687.53
864.31	1654.76
864.48	1837.03
864.65	1755.11
864.81	1732.58
864.98	1759.21
865.15	1734.63
865.32	1826.79
865.48	1751.01
865.65	1765.35
865.82	1714.15
865.98	1681.38
866.15	1851.36
866.32	1673.19
866.49	1740.77
866.65	1705.96
866.82	1638.38
866.99	1638.38
867.16	1710.05
867.32	1691.62
867.49	1732.58
867.66	1624.04
867.83	1699.81
867.99	1632.23
868.16	1716.20
868.33	1654.76
868.49	1685.48
868.66	1675.24
868.83	1744.87
868.99	1728.49
869.16	1726.44
869.33	1744.87
869.50	1785.83
869.66	1720.29
869.83	1689.57
870.00	1628.14
870.16	1652.71
870.33	1695.72
870.50	1738.73
870.66	1808.36
870.83	1863.65
871.00	1730.53
871.17	1720.29
871.33	1689.57
871.50	1775.59
871.67	1673.19
871.83	1648.61
872.00	1785.83
872.17	1648.61
872.33	1783.78
872.50	1773.54
872.67	1677.29
872.83	1716.20
873.00	1742.82
873.17	1714.15
873.33	1781.73
873.50	1669.09
873.67	1650.66
873.83	1720.29
874.00	1712.10
874.16	1814.50
874.33	1724.39
874.50	1630.18
874.66	1779.68
874.83	1679.33
875.00	1677.29
875.16	1740.77
875.33	1767.40
875.50	1619.94
875.66	1665.00
875.83	1687.53
875.99	1644.52
876.16	1705.96
876.33	1660.90
876.49	1671.14
876.66	1757.16
876.83	1757.16
876.99	1640.42
877.16	1669.09
877.32	1724.39
877.49	1691.62
877.66	1671.14
877.82	1781.73
877.99	1669.09
878.15	1724.39
878.32	1652.71
878.49	1724.39
878.65	1685.48
878.82	1816.55
878.98	1726.44
879.15	1732.58
879.32	1724.39
879.48	1648.61
879.65	1781.73
879.81	1665.00
879.98	1642.47
880.15	1701.86
880.31	1720.29
880.48	1753.06
880.64	1783.78
880.81	1783.78
880.97	1828.84
881.14	1806.31
881.31	1658.85
881.47	1865.70
881.64	1648.61
881.80	1673.19
881.97	1763.30
882.13	1718.25
882.30	1671.14
882.47	1673.19
882.63	1665.00
882.80	1640.42
882.96	1777.64
883.13	1732.58
883.29	1693.67
883.46	1708.01
883.62	1777.64
883.79	1677.29
883.95	1755.11
884.12	1681.38
884.29	1712.10
884.45	1693.67
884.62	1710.05
884.78	1634.28
884.95	1753.06
885.11	1679.33
885.28	1740.77
885.44	1613.80
885.61	1677.29
885.77	1755.11
885.94	1826.79
886.10	1681.38
886.27	1767.40
886.43	1820.64
886.60	1775.59
886.76	1603.56
886.93	1691.62
887.09	1687.53
887.26	1624.04
887.42	1677.29
887.59	1701.86
887.75	1814.50
887.92	1824.74
888.08	1718.25
888.25	1820.64
888.41	1736.68
888.58	1714.15
888.74	1693.67
888.91	1560.55
>>>>>End Processed Spectral Data<<<<<
