SpectraSuite Data File
++++++++++++++++++++++++++++++++++++
Date: Mon Jun 06 16:18:37 CEST 2016
User: root
Dark Spectrum Present: No
Reference Spectrum Present: No
Number of Sampled Component Spectra: 1
Spectrometers: USB4C02835
Integration Time (usec): 100000 (USB4C02835)
Spectra Averaged: 1 (USB4C02835)
Boxcar Smoothing: 0 (USB4C02835)
Correct for Electrical Dark: No (USB4C02835)
Strobe/Lamp Enabled: No (USB4C02835)
Correct for Detector Non-linearity: No (USB4C02835)
Correct for Stray Light: No (USB4C02835)
Number of Pixels in Processed Spectrum: 3648
>>>>>Begin Processed Spectral Data<<<<<
177.47	1458.15
177.69	1458.15
177.91	1458.15
178.13	1456.11
178.36	1499.11
178.58	1626.09
178.80	1642.47
179.02	1642.47
179.24	1617.90
179.46	1705.96
179.68	1779.68
179.90	1693.67
180.13	1665.00
180.35	1624.04
180.57	1734.63
180.79	1771.49
181.01	1646.57
181.23	1716.20
181.45	1730.53
181.67	1736.68
181.90	1757.16
182.12	1628.14
182.34	1656.81
182.56	1779.68
182.78	1697.77
183.00	1714.15
183.22	1728.49
183.44	1681.38
183.66	1861.60
183.89	1781.73
184.11	1722.34
184.33	1736.68
184.55	1785.83
184.77	1759.21
184.99	1683.43
185.21	1658.85
185.43	1845.22
185.65	1644.52
185.87	1753.06
186.10	1898.47
186.32	1806.31
186.54	1759.21
186.76	1726.44
186.98	1736.68
187.20	1652.71
187.42	1658.85
187.64	1722.34
187.86	1726.44
188.08	1714.15
188.30	1675.24
188.52	1732.58
188.75	1740.77
188.97	1783.78
189.19	1648.61
189.41	1667.05
189.63	1736.68
189.85	1689.57
190.07	1593.32
190.29	1619.94
190.51	1769.44
190.73	1667.05
190.95	1800.16
191.17	1732.58
191.39	1576.94
191.61	1753.06
191.84	1714.15
192.06	1761.25
192.28	1671.14
192.50	1886.18
192.72	1759.21
192.94	1746.92
193.16	1753.06
193.38	1691.62
193.60	1646.57
193.82	1665.00
194.04	1744.87
194.26	1759.21
194.48	1669.09
194.70	1724.39
194.92	1599.46
195.14	1742.82
195.36	1671.14
195.58	1732.58
195.80	1705.96
196.02	1675.24
196.24	1689.57
196.46	1775.59
196.69	1654.76
196.91	1853.41
197.13	1777.64
197.35	1728.49
197.57	1787.88
197.79	1753.06
198.01	1724.39
198.23	1828.84
198.45	1685.48
198.67	1652.71
198.89	1726.44
199.11	1675.24
199.33	1654.76
199.55	1630.18
199.77	1697.77
199.99	1775.59
200.21	1660.90
200.43	1763.30
200.65	1626.09
200.87	1615.85
201.09	1742.82
201.31	1632.23
201.53	1744.87
201.75	1705.96
201.97	1757.16
202.19	1761.25
202.41	1761.25
202.63	1828.84
202.85	1810.40
203.07	1777.64
203.29	1617.90
203.51	1677.29
203.73	1697.77
203.95	1865.70
204.17	1714.15
204.39	1753.06
204.61	1740.77
204.83	1646.57
205.05	1804.26
205.27	1673.19
205.49	1898.47
205.71	1724.39
205.93	1681.38
206.15	1628.14
206.37	1679.33
206.59	1744.87
206.81	1642.47
207.03	1634.28
207.25	1777.64
207.47	1757.16
207.69	1652.71
207.91	1800.16
208.13	1775.59
208.34	1683.43
208.56	1673.19
208.78	1740.77
209.00	1636.33
209.22	1757.16
209.44	1794.02
209.66	1701.86
209.88	1716.20
210.10	1705.96
210.32	1615.85
210.54	1726.44
210.76	1712.10
210.98	1787.88
211.20	1578.98
211.42	1697.77
211.64	1789.92
211.86	1726.44
212.08	1777.64
212.30	1816.55
212.52	1691.62
212.74	1798.12
212.96	1730.53
213.17	1689.57
213.39	1767.40
213.61	1781.73
213.83	1751.01
214.05	1593.32
214.27	1798.12
214.49	1705.96
214.71	1603.56
214.93	1693.67
215.15	1701.86
215.37	1759.21
215.59	1681.38
215.81	1814.50
216.03	1759.21
216.24	1722.34
216.46	1640.42
216.68	1687.53
216.90	1800.16
217.12	1808.36
217.34	1644.52
217.56	1738.73
217.78	1812.45
218.00	1759.21
218.22	1669.09
218.44	1701.86
218.66	1726.44
218.87	1724.39
219.09	1771.49
219.31	1765.35
219.53	1701.86
219.75	1660.90
219.97	1681.38
220.19	1708.01
220.41	1730.53
220.63	1751.01
220.85	1740.77
221.06	1697.77
221.28	1765.35
221.50	1740.77
221.72	1726.44
221.94	1685.48
222.16	1728.49
222.38	1806.31
222.60	1785.83
222.82	1746.92
223.03	1650.66
223.25	1601.51
223.47	1779.68
223.69	1812.45
223.91	1798.12
224.13	1708.01
224.35	1716.20
224.57	1755.11
224.78	1724.39
225.00	1656.81
225.22	1636.33
225.44	1699.81
225.66	1658.85
225.88	1720.29
226.10	1712.10
226.32	1730.53
226.53	1822.69
226.75	1673.19
226.97	1714.15
227.19	1705.96
227.41	1714.15
227.63	1578.98
227.85	1675.24
228.06	1667.05
228.28	1708.01
228.50	1765.35
228.72	1591.27
228.94	1683.43
229.16	1669.09
229.37	1710.05
229.59	1636.33
229.81	1820.64
230.03	1726.44
230.25	1714.15
230.47	1658.85
230.69	1570.79
230.90	1787.88
231.12	1697.77
231.34	1703.91
231.56	1822.69
231.78	1628.14
232.00	1783.78
232.21	1660.90
232.43	1648.61
232.65	1613.80
232.87	1800.16
233.09	1738.73
233.30	1677.29
233.52	1791.97
233.74	1746.92
233.96	1689.57
234.18	1677.29
234.40	1656.81
234.61	1822.69
234.83	1546.22
235.05	1677.29
235.27	1837.03
235.49	1810.40
235.70	1693.67
235.92	1804.26
236.14	1665.00
236.36	1834.98
236.58	1583.08
236.79	1800.16
237.01	1652.71
237.23	1730.53
237.45	1781.73
237.67	1581.03
237.88	1775.59
238.10	1787.88
238.32	1693.67
238.54	1732.58
238.76	1675.24
238.97	1644.52
239.19	1761.25
239.41	1757.16
239.63	1818.60
239.85	1656.81
240.06	1652.71
240.28	1677.29
240.50	1753.06
240.72	1644.52
240.93	1703.91
241.15	1824.74
241.37	1769.44
241.59	1828.84
241.81	1730.53
242.02	1665.00
242.24	1699.81
242.46	1742.82
242.68	1724.39
242.89	1722.34
243.11	1724.39
243.33	1660.90
243.55	1751.01
243.76	1765.35
243.98	1695.72
244.20	1656.81
244.42	1763.30
244.64	1697.77
244.85	1671.14
245.07	1607.66
245.29	1767.40
245.51	1626.09
245.72	1732.58
245.94	1779.68
246.16	1728.49
246.38	1705.96
246.59	1656.81
246.81	1656.81
247.03	1642.47
247.24	1626.09
247.46	1712.10
247.68	1738.73
247.90	1708.01
248.11	1802.21
248.33	1789.92
248.55	1726.44
248.77	1763.30
248.98	1769.44
249.20	1781.73
249.42	1714.15
249.64	1740.77
249.85	1759.21
250.07	1660.90
250.29	1691.62
250.50	1763.30
250.72	1630.18
250.94	1808.36
251.16	1820.64
251.37	1720.29
251.59	1791.97
251.81	1730.53
252.02	1716.20
252.24	1673.19
252.46	1779.68
252.68	1708.01
252.89	1697.77
253.11	1650.66
253.33	1822.69
253.54	1812.45
253.76	1691.62
253.98	1656.81
254.20	1777.64
254.41	1662.95
254.63	1718.25
254.85	1566.70
255.06	1646.57
255.28	1753.06
255.50	1685.48
255.71	1658.85
255.93	1611.75
256.15	1734.63
256.36	1816.55
256.58	1740.77
256.80	1730.53
257.02	1714.15
257.23	1691.62
257.45	1703.91
257.67	1742.82
257.88	1667.05
258.10	1679.33
258.32	1712.10
258.53	1724.39
258.75	1828.84
258.97	1710.05
259.18	1662.95
259.40	1767.40
259.62	1789.92
259.83	1871.84
260.05	1708.01
260.27	1900.52
260.48	1724.39
260.70	1628.14
260.92	1744.87
261.13	1714.15
261.35	1779.68
261.57	1726.44
261.78	1673.19
262.00	1677.29
262.22	1779.68
262.43	1642.47
262.65	1636.33
262.86	1669.09
263.08	1834.98
263.30	1726.44
263.51	1687.53
263.73	1646.57
263.95	1839.08
264.16	1732.58
264.38	1658.85
264.60	1757.16
264.81	1671.14
265.03	1763.30
265.25	1843.17
265.46	1728.49
265.68	1751.01
265.89	1800.16
266.11	1621.99
266.33	1703.91
266.54	1804.26
266.76	1730.53
266.98	1705.96
267.19	1832.93
267.41	1753.06
267.62	1724.39
267.84	1660.90
268.06	1806.31
268.27	1726.44
268.49	1746.92
268.70	1753.06
268.92	1675.24
269.14	1658.85
269.35	1681.38
269.57	1736.68
269.79	1820.64
270.00	1689.57
270.22	1718.25
270.43	1718.25
270.65	1656.81
270.87	1753.06
271.08	1755.11
271.30	1703.91
271.51	1781.73
271.73	1824.74
271.95	1753.06
272.16	1761.25
272.38	1615.85
272.59	1718.25
272.81	1763.30
273.02	1806.31
273.24	1746.92
273.46	1820.64
273.67	1640.42
273.89	1691.62
274.10	1675.24
274.32	1779.68
274.54	1759.21
274.75	1753.06
274.97	1665.00
275.18	1744.87
275.40	1763.30
275.61	1677.29
275.83	1679.33
276.05	1658.85
276.26	1697.77
276.48	1742.82
276.69	1714.15
276.91	1658.85
277.12	1765.35
277.34	1769.44
277.55	1820.64
277.77	1746.92
277.99	1705.96
278.20	1685.48
278.42	1673.19
278.63	1648.61
278.85	1658.85
279.06	1677.29
279.28	1687.53
279.49	1710.05
279.71	1753.06
279.93	1714.15
280.14	1650.66
280.36	1624.04
280.57	1789.92
280.79	1814.50
281.00	1708.01
281.22	1683.43
281.43	1763.30
281.65	1585.13
281.86	1673.19
282.08	1705.96
282.29	1910.75
282.51	1667.05
282.73	1679.33
282.94	1665.00
283.16	1800.16
283.37	1837.03
283.59	1628.14
283.80	1742.82
284.02	1693.67
284.23	1767.40
284.45	1648.61
284.66	1705.96
284.88	1665.00
285.09	1685.48
285.31	1722.34
285.52	1722.34
285.74	1626.09
285.95	1740.77
286.17	1683.43
286.38	1738.73
286.60	1660.90
286.81	1671.14
287.03	1718.25
287.24	1765.35
287.46	1730.53
287.67	1675.24
287.89	1773.54
288.10	1722.34
288.32	1765.35
288.53	1773.54
288.75	1730.53
288.96	1771.49
289.18	1609.70
289.39	1665.00
289.61	1708.01
289.82	1865.70
290.04	1810.40
290.25	1673.19
290.47	1724.39
290.68	1673.19
290.90	1730.53
291.11	1732.58
291.33	1734.63
291.54	1648.61
291.76	1669.09
291.97	1742.82
292.18	1757.16
292.40	1642.47
292.61	1681.38
292.83	1824.74
293.04	1677.29
293.26	1796.07
293.47	1648.61
293.69	1689.57
293.90	1710.05
294.12	1810.40
294.33	1744.87
294.55	1677.29
294.76	1738.73
294.97	1787.88
295.19	1839.08
295.40	1701.86
295.62	1738.73
295.83	1830.88
296.05	1726.44
296.26	1785.83
296.48	1712.10
296.69	1712.10
296.90	1656.81
297.12	1755.11
297.33	1839.08
297.55	1800.16
297.76	1722.34
297.98	1802.21
298.19	1755.11
298.41	1691.62
298.62	1667.05
298.83	1802.21
299.05	1759.21
299.26	1722.34
299.48	1665.00
299.69	1693.67
299.90	1718.25
300.12	1673.19
300.33	1740.77
300.55	1773.54
300.76	1718.25
300.98	1605.61
301.19	1714.15
301.40	1744.87
301.62	1724.39
301.83	1779.68
302.05	1798.12
302.26	1759.21
302.47	1746.92
302.69	1644.52
302.90	1769.44
303.12	1619.94
303.33	1751.01
303.54	1816.55
303.76	1644.52
303.97	1675.24
304.19	1802.21
304.40	1650.66
304.61	1732.58
304.83	1767.40
305.04	1781.73
305.26	1794.02
305.47	1722.34
305.68	1744.87
305.90	1685.48
306.11	1732.58
306.33	1771.49
306.54	1685.48
306.75	1656.81
306.97	1650.66
307.18	1681.38
307.39	1697.77
307.61	1818.60
307.82	1693.67
308.04	1804.26
308.25	1636.33
308.46	1789.92
308.68	1763.30
308.89	1662.95
309.10	1873.89
309.32	1699.81
309.53	1671.14
309.74	1718.25
309.96	1650.66
310.17	1832.93
310.39	1681.38
310.60	1755.11
310.81	1748.97
311.03	1640.42
311.24	1742.82
311.45	1693.67
311.67	1802.21
311.88	1824.74
312.09	1638.38
312.31	1687.53
312.52	1804.26
312.73	1740.77
312.95	1669.09
313.16	1665.00
313.37	1753.06
313.59	1755.11
313.80	1783.78
314.01	1869.80
314.23	1687.53
314.44	1660.90
314.65	1665.00
314.87	1650.66
315.08	1697.77
315.29	1746.92
315.51	1716.20
315.72	1644.52
315.93	1718.25
316.15	1771.49
316.36	1728.49
316.57	1767.40
316.79	1687.53
317.00	1673.19
317.21	1744.87
317.43	1695.72
317.64	1720.29
317.85	1662.95
318.07	1650.66
318.28	1746.92
318.49	1779.68
318.70	1953.76
318.92	1861.60
319.13	1820.64
319.34	1841.12
319.56	1834.98
319.77	1880.04
319.98	1806.31
320.20	1806.31
320.41	1751.01
320.62	1855.46
320.83	1693.67
321.05	1810.40
321.26	1728.49
321.47	1742.82
321.69	1763.30
321.90	1634.28
322.11	1673.19
322.32	1783.78
322.54	1736.68
322.75	1642.47
322.96	1884.13
323.18	1644.52
323.39	1613.80
323.60	1646.57
323.81	1718.25
324.03	1685.48
324.24	1748.97
324.45	1730.53
324.66	1798.12
324.88	1808.36
325.09	1834.98
325.30	1720.29
325.52	1794.02
325.73	1742.82
325.94	1685.48
326.15	1607.66
326.37	1644.52
326.58	1718.25
326.79	1732.58
327.00	1683.43
327.22	1744.87
327.43	1624.04
327.64	1665.00
327.85	1718.25
328.07	1712.10
328.28	1761.25
328.49	1751.01
328.70	1671.14
328.92	1726.44
329.13	1714.15
329.34	1785.83
329.55	1816.55
329.76	1738.73
329.98	1671.14
330.19	1767.40
330.40	1734.63
330.61	1734.63
330.83	1748.97
331.04	1656.81
331.25	1701.86
331.46	1761.25
331.68	1619.94
331.89	1701.86
332.10	1640.42
332.31	1665.00
332.52	1742.82
332.74	1834.98
332.95	1595.37
333.16	1667.05
333.37	1763.30
333.58	1621.99
333.80	1720.29
334.01	1558.50
334.22	1771.49
334.43	1738.73
334.64	1693.67
334.86	1660.90
335.07	1650.66
335.28	1791.97
335.49	1613.80
335.70	1724.39
335.92	1798.12
336.13	1923.04
336.34	1783.78
336.55	1697.77
336.76	1791.97
336.98	1626.09
337.19	1660.90
337.40	1759.21
337.61	1800.16
337.82	1730.53
338.04	1777.64
338.25	1652.71
338.46	1724.39
338.67	1652.71
338.88	1748.97
339.09	1669.09
339.31	1675.24
339.52	1603.56
339.73	1656.81
339.94	1691.62
340.15	1687.53
340.36	1699.81
340.58	1779.68
340.79	1644.52
341.00	1869.80
341.21	1611.75
341.42	1867.75
341.63	1710.05
341.85	1722.34
342.06	1681.38
342.27	1691.62
342.48	1791.97
342.69	1621.99
342.90	1705.96
343.12	1775.59
343.33	1638.38
343.54	1777.64
343.75	1779.68
343.96	1755.11
344.17	1679.33
344.38	1708.01
344.60	1746.92
344.81	1671.14
345.02	1746.92
345.23	1744.87
345.44	1738.73
345.65	1738.73
345.86	1761.25
346.07	1701.86
346.29	1699.81
346.50	1699.81
346.71	1757.16
346.92	1732.58
347.13	1828.84
347.34	1720.29
347.55	1665.00
347.76	1744.87
347.98	1624.04
348.19	1697.77
348.40	1824.74
348.61	1683.43
348.82	1769.44
349.03	1767.40
349.24	1667.05
349.45	1812.45
349.66	1601.51
349.88	1738.73
350.09	1673.19
350.30	1767.40
350.51	1775.59
350.72	1798.12
350.93	1703.91
351.14	1673.19
351.35	1751.01
351.56	1759.21
351.77	1656.81
351.99	1720.29
352.20	1794.02
352.41	1751.01
352.62	1650.66
352.83	1724.39
353.04	1642.47
353.25	1601.51
353.46	1779.68
353.67	1767.40
353.88	1615.85
354.09	1718.25
354.30	1712.10
354.52	1783.78
354.73	1748.97
354.94	1677.29
355.15	1677.29
355.36	1820.64
355.57	1740.77
355.78	1744.87
355.99	1714.15
356.20	1669.09
356.41	1859.56
356.62	1734.63
356.83	1734.63
357.04	1781.73
357.25	1599.46
357.46	1773.54
357.68	1603.56
357.89	1669.09
358.10	1791.97
358.31	1695.72
358.52	1699.81
358.73	1677.29
358.94	1656.81
359.15	1683.43
359.36	1744.87
359.57	1703.91
359.78	1673.19
359.99	1736.68
360.20	1568.74
360.41	1615.85
360.62	1755.11
360.83	1775.59
361.04	1742.82
361.25	1710.05
361.46	1857.51
361.67	1785.83
361.88	1839.08
362.09	1757.16
362.30	1751.01
362.51	1665.00
362.72	1699.81
362.93	1796.07
363.14	1802.21
363.35	1804.26
363.56	1667.05
363.78	1763.30
363.99	1738.73
364.20	1705.96
364.41	1728.49
364.62	1828.84
364.83	1687.53
365.04	1640.42
365.25	1693.67
365.46	1873.89
365.67	1699.81
365.88	1679.33
366.09	1699.81
366.30	1615.85
366.51	1724.39
366.72	1656.81
366.93	1742.82
367.14	1728.49
367.35	1679.33
367.56	1669.09
367.77	1818.60
367.98	1746.92
368.18	1796.07
368.39	1794.02
368.60	1699.81
368.81	1681.38
369.02	1757.16
369.23	1710.05
369.44	1615.85
369.65	1695.72
369.86	1710.05
370.07	1732.58
370.28	1701.86
370.49	1726.44
370.70	1662.95
370.91	1667.05
371.12	1632.23
371.33	1849.32
371.54	1720.29
371.75	1843.17
371.96	1587.18
372.17	1712.10
372.38	1705.96
372.59	1679.33
372.80	1648.61
373.01	1771.49
373.22	1773.54
373.43	1695.72
373.64	1689.57
373.85	1703.91
374.06	1855.46
374.26	1746.92
374.47	1736.68
374.68	1765.35
374.89	1828.84
375.10	1652.71
375.31	1767.40
375.52	1695.72
375.73	1658.85
375.94	1636.33
376.15	1785.83
376.36	1714.15
376.57	1673.19
376.78	1693.67
376.99	1730.53
377.20	1820.64
377.40	1681.38
377.61	1787.88
377.82	1671.14
378.03	1789.92
378.24	1843.17
378.45	1681.38
378.66	1765.35
378.87	1646.57
379.08	1646.57
379.29	1693.67
379.50	1732.58
379.71	1763.30
379.91	1744.87
380.12	1671.14
380.33	1656.81
380.54	1736.68
380.75	1703.91
380.96	1675.24
381.17	1779.68
381.38	1744.87
381.59	1734.63
381.80	1732.58
382.00	1822.69
382.21	1755.11
382.42	1773.54
382.63	1900.52
382.84	1767.40
383.05	1853.41
383.26	1822.69
383.47	1759.21
383.68	1767.40
383.88	1763.30
384.09	1669.09
384.30	1773.54
384.51	1814.50
384.72	1744.87
384.93	1703.91
385.14	1734.63
385.35	1800.16
385.55	1660.90
385.76	1869.80
385.97	1626.09
386.18	1634.28
386.39	1648.61
386.60	1683.43
386.81	1730.53
387.02	1671.14
387.22	1638.38
387.43	1871.84
387.64	1775.59
387.85	1830.88
388.06	2191.33
388.27	4206.53
388.48	6813.59
388.68	8236.93
388.89	9762.67
389.10	9854.83
389.31	8722.30
389.52	7669.64
389.73	6668.19
389.93	6170.53
390.14	5875.62
390.35	5222.32
390.56	4630.46
390.77	3696.58
390.98	2967.51
391.18	2523.10
391.39	2154.46
391.60	1865.70
391.81	1791.97
392.02	1753.06
392.23	1902.56
392.43	1695.72
392.64	1841.12
392.85	1851.36
393.06	1804.26
393.27	1726.44
393.47	1654.76
393.68	1732.58
393.89	1728.49
394.10	1791.97
394.31	1720.29
394.52	1628.14
394.72	1722.34
394.93	1763.30
395.14	1632.23
395.35	1773.54
395.56	1718.25
395.76	1742.82
395.97	1816.55
396.18	1877.99
396.39	1863.65
396.60	2111.46
396.80	1869.80
397.01	1890.28
397.22	1775.59
397.43	1837.03
397.64	1753.06
397.84	1779.68
398.05	1890.28
398.26	1748.97
398.47	1818.60
398.67	1816.55
398.88	1738.73
399.09	1705.96
399.30	1681.38
399.51	1794.02
399.71	1732.58
399.92	1732.58
400.13	1685.48
400.34	1742.82
400.54	1720.29
400.75	1761.25
400.96	1722.34
401.17	1798.12
401.37	1632.23
401.58	1679.33
401.79	1744.87
402.00	1804.26
402.21	1988.58
402.41	1904.61
402.62	1970.15
402.83	2088.93
403.04	2015.20
403.24	2074.59
403.45	1787.88
403.66	1951.71
403.87	1877.99
404.07	1875.94
404.28	1916.90
404.49	1861.60
404.70	1771.49
404.90	1796.07
405.11	1710.05
405.32	1812.45
405.52	1712.10
405.73	1681.38
405.94	1665.00
406.15	1710.05
406.35	1785.83
406.56	1794.02
406.77	1738.73
406.98	1765.35
407.18	1722.34
407.39	1814.50
407.60	1748.97
407.80	1718.25
408.01	1685.48
408.22	1748.97
408.43	1603.56
408.63	1699.81
408.84	1685.48
409.05	1755.11
409.25	1703.91
409.46	1751.01
409.67	1736.68
409.88	1761.25
410.08	1765.35
410.29	1648.61
410.50	1705.96
410.70	1730.53
410.91	1679.33
411.12	1726.44
411.32	1738.73
411.53	1632.23
411.74	1755.11
411.95	1824.74
412.15	1744.87
412.36	1802.21
412.57	1777.64
412.77	1708.01
412.98	1744.87
413.19	1705.96
413.39	1847.27
413.60	1761.25
413.81	1820.64
414.01	1634.28
414.22	1783.78
414.43	1785.83
414.63	1751.01
414.84	1771.49
415.05	1708.01
415.25	1695.72
415.46	1800.16
415.67	1693.67
415.87	1722.34
416.08	1714.15
416.29	1662.95
416.49	1705.96
416.70	1689.57
416.91	1714.15
417.11	1697.77
417.32	1728.49
417.53	1767.40
417.73	1726.44
417.94	1730.53
418.15	1738.73
418.35	1677.29
418.56	1716.20
418.77	1781.73
418.97	1677.29
419.18	1779.68
419.38	1570.79
419.59	1642.47
419.80	1892.32
420.00	1740.77
420.21	1724.39
420.42	1693.67
420.62	1730.53
420.83	1683.43
421.04	1746.92
421.24	1660.90
421.45	1755.11
421.65	1791.97
421.86	1703.91
422.07	1746.92
422.27	1734.63
422.48	1808.36
422.69	1621.99
422.89	1746.92
423.10	1656.81
423.30	1699.81
423.51	1683.43
423.72	1710.05
423.92	1814.50
424.13	1718.25
424.33	1757.16
424.54	1716.20
424.75	1689.57
424.95	1814.50
425.16	1765.35
425.36	1697.77
425.57	1779.68
425.78	1742.82
425.98	1742.82
426.19	1679.33
426.39	1755.11
426.60	1683.43
426.81	1814.50
427.01	1697.77
427.22	1689.57
427.42	1642.47
427.63	1638.38
427.83	1751.01
428.04	1763.30
428.25	1779.68
428.45	1771.49
428.66	1787.88
428.86	1681.38
429.07	1740.77
429.28	1738.73
429.48	1738.73
429.69	1703.91
429.89	1777.64
430.10	1685.48
430.30	1779.68
430.51	1714.15
430.71	1689.57
430.92	1736.68
431.13	1716.20
431.33	1746.92
431.54	1753.06
431.74	1804.26
431.95	1841.12
432.15	1724.39
432.36	1757.16
432.56	1677.29
432.77	1877.99
432.98	1751.01
433.18	1783.78
433.39	1705.96
433.59	1728.49
433.80	1830.88
434.00	1894.37
434.21	1710.05
434.41	1677.29
434.62	1888.23
434.82	1687.53
435.03	1671.14
435.23	1740.77
435.44	1609.70
435.64	1769.44
435.85	1724.39
436.06	1761.25
436.26	1755.11
436.47	1730.53
436.67	1708.01
436.88	1753.06
437.08	1748.97
437.29	1812.45
437.49	1718.25
437.70	1771.49
437.90	1748.97
438.11	1871.84
438.31	1791.97
438.52	1976.29
438.72	1869.80
438.93	1980.39
439.13	1796.07
439.34	1789.92
439.54	1865.70
439.75	1800.16
439.95	1796.07
440.16	1800.16
440.36	1730.53
440.57	1777.64
440.77	1787.88
440.98	1705.96
441.18	1722.34
441.39	1734.63
441.59	1644.52
441.80	1837.03
442.00	1722.34
442.21	1839.08
442.41	1687.53
442.62	1865.70
442.82	1708.01
443.02	1718.25
443.23	1734.63
443.43	1759.21
443.64	1800.16
443.84	1718.25
444.05	1843.17
444.25	1724.39
444.46	1720.29
444.66	1763.30
444.87	1837.03
445.07	1689.57
445.28	1767.40
445.48	1781.73
445.69	1781.73
445.89	1902.56
446.09	1763.30
446.30	1951.71
446.50	2615.26
446.71	3774.41
446.91	4310.97
447.12	4708.28
447.32	4966.32
447.53	4302.78
447.73	3878.85
447.93	3557.32
448.14	3373.00
448.34	3221.45
448.55	3004.37
448.75	2926.55
448.96	2758.61
449.16	2371.55
449.36	2232.29
449.57	2115.55
449.77	1931.23
449.98	1804.26
450.18	1775.59
450.39	1834.98
450.59	1787.88
450.79	1730.53
451.00	1812.45
451.20	1826.79
451.41	1708.01
451.61	1761.25
451.81	1775.59
452.02	1720.29
452.22	1726.44
452.43	1712.10
452.63	1757.16
452.84	1703.91
453.04	1722.34
453.24	1779.68
453.45	1789.92
453.65	1781.73
453.86	1810.40
454.06	1773.54
454.26	1783.78
454.47	1683.43
454.67	1812.45
454.87	1703.91
455.08	1785.83
455.28	1865.70
455.49	1755.11
455.69	1695.72
455.89	1914.85
456.10	1832.93
456.30	1660.90
456.51	1804.26
456.71	1810.40
456.91	1791.97
457.12	1751.01
457.32	1785.83
457.52	1669.09
457.73	1777.64
457.93	1794.02
458.14	1689.57
458.34	1658.85
458.54	1708.01
458.75	1742.82
458.95	1656.81
459.15	1744.87
459.36	1740.77
459.56	1771.49
459.76	1902.56
459.97	1802.21
460.17	1728.49
460.37	1781.73
460.58	1681.38
460.78	1796.07
460.99	1814.50
461.19	1759.21
461.39	1822.69
461.60	1740.77
461.80	1763.30
462.00	1638.38
462.21	1705.96
462.41	1716.20
462.61	1730.53
462.82	1675.24
463.02	1767.40
463.22	1771.49
463.43	1800.16
463.63	1816.55
463.83	1824.74
464.04	1818.60
464.24	1775.59
464.44	1656.81
464.64	1751.01
464.85	1841.12
465.05	1865.70
465.25	1726.44
465.46	1644.52
465.66	1705.96
465.86	1775.59
466.07	1791.97
466.27	1746.92
466.47	1656.81
466.68	1681.38
466.88	1779.68
467.08	1800.16
467.29	1714.15
467.49	1726.44
467.69	1814.50
467.89	1720.29
468.10	1738.73
468.30	1839.08
468.50	1820.64
468.71	1710.05
468.91	1677.29
469.11	1871.84
469.31	1787.88
469.52	1714.15
469.72	1777.64
469.92	1865.70
470.13	1689.57
470.33	1769.44
470.53	1861.60
470.73	2054.11
470.94	2334.68
471.14	2306.01
471.34	2521.05
471.54	2355.16
471.75	2226.14
471.95	2099.17
472.15	2220.00
472.36	2105.31
472.56	2074.59
472.76	2097.12
472.96	2004.96
473.17	1875.94
473.37	1884.13
473.57	1779.68
473.77	1773.54
473.98	1781.73
474.18	1722.34
474.38	1931.23
474.58	1671.14
474.79	1691.62
474.99	1789.92
475.19	1796.07
475.39	1683.43
475.60	1726.44
475.80	1742.82
476.00	1714.15
476.20	1771.49
476.41	1779.68
476.61	1800.16
476.81	1873.89
477.01	1691.62
477.21	1867.75
477.42	1769.44
477.62	1681.38
477.82	1746.92
478.02	1669.09
478.23	1775.59
478.43	1650.66
478.63	1761.25
478.83	1714.15
479.03	1660.90
479.24	1808.36
479.44	1798.12
479.64	1730.53
479.84	1679.33
480.04	1689.57
480.25	1767.40
480.45	1654.76
480.65	1744.87
480.85	1771.49
481.06	1683.43
481.26	1804.26
481.46	1777.64
481.66	1755.11
481.86	1677.29
482.06	1832.93
482.27	1775.59
482.47	1722.34
482.67	1720.29
482.87	1767.40
483.07	1777.64
483.28	1683.43
483.48	1673.19
483.68	1691.62
483.88	1681.38
484.08	1636.33
484.29	1718.25
484.49	1791.97
484.69	1746.92
484.89	1722.34
485.09	1806.31
485.29	1773.54
485.50	1742.82
485.70	1669.09
485.90	1791.97
486.10	1730.53
486.30	1718.25
486.50	1822.69
486.71	1710.05
486.91	1701.86
487.11	1806.31
487.31	1660.90
487.51	1765.35
487.71	1675.24
487.91	1685.48
488.12	1699.81
488.32	1662.95
488.52	1646.57
488.72	1619.94
488.92	1841.12
489.12	1789.92
489.32	1787.88
489.53	1777.64
489.73	1667.05
489.93	1839.08
490.13	1703.91
490.33	1699.81
490.53	1761.25
490.73	1839.08
490.94	1654.76
491.14	1775.59
491.34	1843.17
491.54	2090.98
491.74	2557.91
491.94	2795.48
492.14	3033.04
492.34	3028.95
492.54	2863.06
492.75	2486.23
492.95	2531.29
493.15	2342.88
493.35	2246.62
493.55	2330.59
493.75	2234.33
493.95	2172.89
494.15	2013.15
494.35	1929.19
494.56	1816.55
494.76	1783.78
494.96	1816.55
495.16	1763.30
495.36	1744.87
495.56	1720.29
495.76	1773.54
495.96	1763.30
496.16	1683.43
496.36	1882.08
496.56	1720.29
496.77	1824.74
496.97	1671.14
497.17	1736.68
497.37	1732.58
497.57	1708.01
497.77	1744.87
497.97	1689.57
498.17	1759.21
498.37	1722.34
498.57	1755.11
498.77	1757.16
498.97	1753.06
499.17	1904.61
499.38	1746.92
499.58	1822.69
499.78	1767.40
499.98	1820.64
500.18	1777.64
500.38	1675.24
500.58	1859.56
500.78	2631.64
500.98	4562.87
501.18	5701.54
501.38	6789.02
501.58	7083.92
501.78	6651.80
501.98	5617.58
502.18	5142.45
502.38	4470.72
502.58	4177.86
502.78	3725.26
502.98	3743.69
503.18	3450.83
503.38	3231.69
503.59	2856.92
503.79	2684.89
503.99	2504.67
504.19	2396.12
504.39	2273.25
504.59	2232.29
504.79	2166.75
504.99	2076.64
505.19	1910.75
505.39	1923.04
505.59	2043.87
505.79	1908.71
505.99	1916.90
506.19	1830.88
506.39	1918.95
506.59	1773.54
506.79	1705.96
506.99	1824.74
507.19	1783.78
507.39	1783.78
507.59	1714.15
507.79	1591.27
507.99	1714.15
508.19	1673.19
508.39	1757.16
508.59	1736.68
508.79	1857.51
508.99	1798.12
509.19	1660.90
509.39	1734.63
509.59	1720.29
509.79	1720.29
509.99	1685.48
510.19	1785.83
510.39	1841.12
510.59	1736.68
510.79	1728.49
510.99	1648.61
511.19	1777.64
511.39	1798.12
511.59	1763.30
511.79	1744.87
511.99	1718.25
512.19	1839.08
512.38	1763.30
512.58	1701.86
512.78	1732.58
512.98	1798.12
513.18	1875.94
513.38	1660.90
513.58	1775.59
513.78	1712.10
513.98	1812.45
514.18	1710.05
514.38	1722.34
514.58	1773.54
514.78	1746.92
514.98	1677.29
515.18	1763.30
515.38	1642.47
515.58	1863.65
515.78	1722.34
515.98	1759.21
516.18	1734.63
516.38	1734.63
516.57	1751.01
516.77	1755.11
516.97	1828.84
517.17	1683.43
517.37	1691.62
517.57	1808.36
517.77	1710.05
517.97	1714.15
518.17	1812.45
518.37	1681.38
518.57	1658.85
518.77	1636.33
518.97	1746.92
519.16	1773.54
519.36	1816.55
519.56	1722.34
519.76	1742.82
519.96	1683.43
520.16	1785.83
520.36	1699.81
520.56	1818.60
520.76	1755.11
520.96	1656.81
521.16	1718.25
521.35	1767.40
521.55	1726.44
521.75	1767.40
521.95	1722.34
522.15	1720.29
522.35	1628.14
522.55	1701.86
522.75	1751.01
522.95	1744.87
523.14	1636.33
523.34	1796.07
523.54	1771.49
523.74	1748.97
523.94	1665.00
524.14	1779.68
524.34	1796.07
524.54	1826.79
524.73	1693.67
524.93	1763.30
525.13	1763.30
525.33	1695.72
525.53	1875.94
525.73	1771.49
525.93	1810.40
526.13	1695.72
526.32	1740.77
526.52	1777.64
526.72	1796.07
526.92	1777.64
527.12	1751.01
527.32	1605.61
527.52	1726.44
527.71	1830.88
527.91	1710.05
528.11	1714.15
528.31	1757.16
528.51	1724.39
528.71	1716.20
528.90	1714.15
529.10	1818.60
529.30	1880.04
529.50	1640.42
529.70	1681.38
529.90	1689.57
530.09	1740.77
530.29	1730.53
530.49	1677.29
530.69	1966.05
530.89	1763.30
531.09	1775.59
531.28	1665.00
531.48	1779.68
531.68	1751.01
531.88	1726.44
532.08	1753.06
532.28	1761.25
532.47	1800.16
532.67	1720.29
532.87	1730.53
533.07	1669.09
533.27	1769.44
533.46	1789.92
533.66	1769.44
533.86	1681.38
534.06	1695.72
534.26	1738.73
534.45	1763.30
534.65	1808.36
534.85	1720.29
535.05	1658.85
535.25	1824.74
535.44	1681.38
535.64	1804.26
535.84	1759.21
536.04	1705.96
536.24	1718.25
536.43	1691.62
536.63	1791.97
536.83	1693.67
537.03	1738.73
537.22	1673.19
537.42	1658.85
537.62	1710.05
537.82	1771.49
538.02	1796.07
538.21	1886.18
538.41	1935.33
538.61	1794.02
538.81	1806.31
539.00	1853.41
539.20	1626.09
539.40	1697.77
539.60	1746.92
539.79	1763.30
539.99	1701.86
540.19	1732.58
540.39	1791.97
540.58	1796.07
540.78	1785.83
540.98	1771.49
541.18	1740.77
541.37	1785.83
541.57	1810.40
541.77	1724.39
541.97	1611.75
542.16	1646.57
542.36	1710.05
542.56	1787.88
542.76	1841.12
542.95	1734.63
543.15	1785.83
543.35	1843.17
543.54	1665.00
543.74	1662.95
543.94	1841.12
544.14	1740.77
544.33	1820.64
544.53	1773.54
544.73	1753.06
544.93	1777.64
545.12	1728.49
545.32	1771.49
545.52	1787.88
545.71	1689.57
545.91	1740.77
546.11	1695.72
546.30	1755.11
546.50	1769.44
546.70	1802.21
546.90	1748.97
547.09	1595.37
547.29	1763.30
547.49	1718.25
547.68	1671.14
547.88	1718.25
548.08	1798.12
548.27	2131.94
548.47	1761.25
548.67	1703.91
548.87	1767.40
549.06	1646.57
549.26	1820.64
549.46	1785.83
549.65	1771.49
549.85	1777.64
550.05	1751.01
550.24	1638.38
550.44	1757.16
550.64	1759.21
550.83	1742.82
551.03	1816.55
551.23	1824.74
551.42	1755.11
551.62	1722.34
551.82	1802.21
552.01	1699.81
552.21	1865.70
552.41	1751.01
552.60	1814.50
552.80	1728.49
553.00	1652.71
553.19	1763.30
553.39	1875.94
553.59	1714.15
553.78	1746.92
553.98	1796.07
554.17	1740.77
554.37	1775.59
554.57	1800.16
554.76	1628.14
554.96	1687.53
555.16	1814.50
555.35	1720.29
555.55	1798.12
555.75	1779.68
555.94	1751.01
556.14	1671.14
556.33	1726.44
556.53	1662.95
556.73	1796.07
556.92	1810.40
557.12	1873.89
557.32	1800.16
557.51	1808.36
557.71	1847.27
557.90	1869.80
558.10	1783.78
558.30	1681.38
558.49	1712.10
558.69	1685.48
558.88	1804.26
559.08	1730.53
559.28	1761.25
559.47	1724.39
559.67	1726.44
559.86	1800.16
560.06	1716.20
560.26	1681.38
560.45	1757.16
560.65	1714.15
560.84	1873.89
561.04	1644.52
561.24	1779.68
561.43	1708.01
561.63	1877.99
561.82	1755.11
562.02	1814.50
562.22	1726.44
562.41	1710.05
562.61	1708.01
562.80	1689.57
563.00	1884.13
563.19	1855.46
563.39	1755.11
563.59	1744.87
563.78	1681.38
563.98	1560.55
564.17	1718.25
564.37	1603.56
564.56	1742.82
564.76	1771.49
564.96	1910.75
565.15	1796.07
565.35	1884.13
565.54	1746.92
565.74	1773.54
565.93	1820.64
566.13	1779.68
566.32	1765.35
566.52	1763.30
566.71	1691.62
566.91	1779.68
567.11	1724.39
567.30	1675.24
567.50	1742.82
567.69	1779.68
567.89	1708.01
568.08	1734.63
568.28	1822.69
568.47	1716.20
568.67	1787.88
568.86	1748.97
569.06	1787.88
569.25	1708.01
569.45	1630.18
569.64	1837.03
569.84	1818.60
570.04	1761.25
570.23	1701.86
570.43	1763.30
570.62	1761.25
570.82	1830.88
571.01	1679.33
571.21	1652.71
571.40	1746.92
571.60	1744.87
571.79	1759.21
571.99	1761.25
572.18	1685.48
572.38	1816.55
572.57	1783.78
572.77	1791.97
572.96	1847.27
573.16	1777.64
573.35	1734.63
573.55	1753.06
573.74	1869.80
573.94	1755.11
574.13	1714.15
574.33	1765.35
574.52	1796.07
574.71	1798.12
574.91	1746.92
575.10	1730.53
575.30	1748.97
575.49	1701.86
575.69	1681.38
575.88	1734.63
576.08	1763.30
576.27	1812.45
576.47	1746.92
576.66	1832.93
576.86	1877.99
577.05	1728.49
577.25	1728.49
577.44	1826.79
577.64	1775.59
577.83	1783.78
578.02	1796.07
578.22	1884.13
578.41	1892.32
578.61	1746.92
578.80	1730.53
579.00	1751.01
579.19	1748.97
579.39	1812.45
579.58	1906.66
579.77	1746.92
579.97	1824.74
580.16	1802.21
580.36	1798.12
580.55	1837.03
580.75	1740.77
580.94	1832.93
581.13	1871.84
581.33	1796.07
581.52	1755.11
581.72	1900.52
581.91	1820.64
582.11	1697.77
582.30	1859.56
582.49	1732.58
582.69	1808.36
582.88	1763.30
583.08	1720.29
583.27	1822.69
583.47	1712.10
583.66	1789.92
583.85	1716.20
584.05	1820.64
584.24	1734.63
584.44	1861.60
584.63	1796.07
584.82	1873.89
585.02	1814.50
585.21	1785.83
585.41	1818.60
585.60	1892.32
585.79	1951.71
585.99	1947.62
586.18	1935.33
586.37	2174.94
586.57	3397.58
586.76	9758.57
586.96	24411.79
587.15	34356.72
587.34	40369.56
587.54	41981.31
587.73	36459.99
587.93	26308.21
588.12	21419.71
588.31	18286.31
588.51	16107.27
588.70	15245.08
588.89	13817.65
589.09	12373.83
589.28	11022.17
589.47	9500.53
589.67	7819.14
589.86	6418.33
590.06	4837.30
590.25	3907.52
590.44	3065.81
590.64	2527.19
590.83	2234.33
591.02	2150.37
591.22	1974.24
591.41	1923.04
591.60	1896.42
591.80	1990.63
591.99	1812.45
592.18	1841.12
592.38	1898.47
592.57	1814.50
592.76	1736.68
592.96	1853.41
593.15	1769.44
593.34	1839.08
593.54	1714.15
593.73	1771.49
593.92	1779.68
594.12	1748.97
594.31	1705.96
594.50	1818.60
594.70	1810.40
594.89	1908.71
595.08	1656.81
595.28	1794.02
595.47	1869.80
595.66	1832.93
595.86	1671.14
596.05	1757.16
596.24	1736.68
596.43	1837.03
596.63	1818.60
596.82	1662.95
597.01	1789.92
597.21	1834.98
597.40	1839.08
597.59	1673.19
597.79	1812.45
597.98	1839.08
598.17	1697.77
598.36	1748.97
598.56	1689.57
598.75	1654.76
598.94	1746.92
599.14	1740.77
599.33	1677.29
599.52	1771.49
599.71	1746.92
599.91	1824.74
600.10	1794.02
600.29	1728.49
600.48	1759.21
600.68	1830.88
600.87	1783.78
601.06	1708.01
601.26	1751.01
601.45	1794.02
601.64	1794.02
601.83	1916.90
602.03	1675.24
602.22	1632.23
602.41	1812.45
602.60	1880.04
602.80	1755.11
602.99	1828.84
603.18	1761.25
603.37	1728.49
603.57	1779.68
603.76	1761.25
603.95	1794.02
604.14	1787.88
604.34	1701.86
604.53	1673.19
604.72	1892.32
604.91	1808.36
605.10	1785.83
605.30	1685.48
605.49	1771.49
605.68	1714.15
605.87	1822.69
606.07	1703.91
606.26	1839.08
606.45	1796.07
606.64	1763.30
606.84	1748.97
607.03	1710.05
607.22	1755.11
607.41	1710.05
607.60	1722.34
607.80	1834.98
607.99	1722.34
608.18	1751.01
608.37	1738.73
608.56	1658.85
608.76	1785.83
608.95	1820.64
609.14	1824.74
609.33	1767.40
609.52	1767.40
609.72	1794.02
609.91	1761.25
610.10	1757.16
610.29	1785.83
610.48	1746.92
610.68	1755.11
610.87	1751.01
611.06	1804.26
611.25	1787.88
611.44	1824.74
611.63	1734.63
611.83	1755.11
612.02	1722.34
612.21	1845.22
612.40	1613.80
612.59	1697.77
612.79	1763.30
612.98	1779.68
613.17	1853.41
613.36	1787.88
613.55	1777.64
613.74	1658.85
613.93	1742.82
614.13	1748.97
614.32	1761.25
614.51	1761.25
614.70	1697.77
614.89	1724.39
615.08	1785.83
615.28	2076.64
615.47	1708.01
615.66	1796.07
615.85	1757.16
616.04	1828.84
616.23	1681.38
616.42	1683.43
616.62	1769.44
616.81	1730.53
617.00	1755.11
617.19	1865.70
617.38	1687.53
617.57	1726.44
617.76	1738.73
617.95	1796.07
618.15	1775.59
618.34	1859.56
618.53	1634.28
618.72	1847.27
618.91	1861.60
619.10	1853.41
619.29	1775.59
619.48	1738.73
619.68	1687.53
619.87	1748.97
620.06	1636.33
620.25	1779.68
620.44	1708.01
620.63	1730.53
620.82	1751.01
621.01	1708.01
621.20	1718.25
621.39	1765.35
621.59	1755.11
621.78	1748.97
621.97	1695.72
622.16	1814.50
622.35	1691.62
622.54	1765.35
622.73	1771.49
622.92	1683.43
623.11	1761.25
623.30	1728.49
623.49	1820.64
623.68	1728.49
623.88	1728.49
624.07	1748.97
624.26	1710.05
624.45	1771.49
624.64	1656.81
624.83	1755.11
625.02	1730.53
625.21	1695.72
625.40	1779.68
625.59	1816.55
625.78	1798.12
625.97	1810.40
626.16	1708.01
626.35	1822.69
626.54	1710.05
626.74	1783.78
626.93	1609.70
627.12	1742.82
627.31	1787.88
627.50	1783.78
627.69	1779.68
627.88	1669.09
628.07	1757.16
628.26	1671.14
628.45	1724.39
628.64	1648.61
628.83	1771.49
629.02	1746.92
629.21	1740.77
629.40	1689.57
629.59	1677.29
629.78	1685.48
629.97	1689.57
630.16	1734.63
630.35	1753.06
630.54	1699.81
630.73	1687.53
630.92	1773.54
631.11	1683.43
631.30	1677.29
631.49	1746.92
631.68	1726.44
631.87	1726.44
632.06	1783.78
632.25	1837.03
632.44	1703.91
632.63	1767.40
632.82	1761.25
633.01	1634.28
633.20	1712.10
633.39	1718.25
633.58	1683.43
633.77	1808.36
633.96	1830.88
634.15	1736.68
634.34	1759.21
634.53	1734.63
634.72	1710.05
634.91	1705.96
635.10	1740.77
635.29	1734.63
635.48	1640.42
635.67	1724.39
635.86	1626.09
636.05	1814.50
636.24	1722.34
636.43	1738.73
636.62	1804.26
636.81	1583.08
637.00	1742.82
637.19	1794.02
637.38	1714.15
637.57	1748.97
637.76	1808.36
637.95	1687.53
638.14	1691.62
638.33	1695.72
638.52	1701.86
638.71	1626.09
638.89	1624.04
639.08	1890.28
639.27	1814.50
639.46	1708.01
639.65	1834.98
639.84	1777.64
640.03	1789.92
640.22	1738.73
640.41	1816.55
640.60	1728.49
640.79	1726.44
640.98	1714.15
641.17	1740.77
641.36	1808.36
641.55	1810.40
641.74	1662.95
641.92	1701.86
642.11	1705.96
642.30	1775.59
642.49	1714.15
642.68	1695.72
642.87	1746.92
643.06	1755.11
643.25	1714.15
643.44	1675.24
643.63	1718.25
643.82	1775.59
644.00	1746.92
644.19	1759.21
644.38	1650.66
644.57	1740.77
644.76	1783.78
644.95	1650.66
645.14	1679.33
645.33	1781.73
645.52	1767.40
645.71	1669.09
645.89	1587.18
646.08	1714.15
646.27	1705.96
646.46	1908.71
646.65	1630.18
646.84	1746.92
647.03	1642.47
647.22	1767.40
647.40	1765.35
647.59	1658.85
647.78	1675.24
647.97	1708.01
648.16	1689.57
648.35	1867.75
648.54	1810.40
648.73	1791.97
648.91	1753.06
649.10	1703.91
649.29	1636.33
649.48	1675.24
649.67	1767.40
649.86	1724.39
650.05	1691.62
650.23	1779.68
650.42	1630.18
650.61	1757.16
650.80	1777.64
650.99	1816.55
651.18	1720.29
651.36	1796.07
651.55	1662.95
651.74	1789.92
651.93	1796.07
652.12	1703.91
652.31	1744.87
652.49	1689.57
652.68	1730.53
652.87	1822.69
653.06	1708.01
653.25	1806.31
653.44	1689.57
653.62	1742.82
653.81	1714.15
654.00	1705.96
654.19	1742.82
654.38	1867.75
654.56	1744.87
654.75	1724.39
654.94	1798.12
655.13	1714.15
655.32	1716.20
655.51	1734.63
655.69	1791.97
655.88	1734.63
656.07	1650.66
656.26	1779.68
656.45	1624.04
656.63	1697.77
656.82	1722.34
657.01	1755.11
657.20	1689.57
657.38	1746.92
657.57	1683.43
657.76	1677.29
657.95	1769.44
658.14	1730.53
658.32	1716.20
658.51	1632.23
658.70	1710.05
658.89	1757.16
659.08	1697.77
659.26	1736.68
659.45	1683.43
659.64	1695.72
659.83	1742.82
660.01	1904.61
660.20	1703.91
660.39	1839.08
660.58	1613.80
660.76	1730.53
660.95	1624.04
661.14	1765.35
661.33	1603.56
661.51	1697.77
661.70	1751.01
661.89	1728.49
662.08	1716.20
662.26	1689.57
662.45	1669.09
662.64	1855.46
662.83	1777.64
663.01	1609.70
663.20	1693.67
663.39	1847.27
663.58	1761.25
663.76	1781.73
663.95	1722.34
664.14	1697.77
664.32	1718.25
664.51	1691.62
664.70	1619.94
664.89	1681.38
665.07	1603.56
665.26	1759.21
665.45	1615.85
665.64	1777.64
665.82	1738.73
666.01	1722.34
666.20	1683.43
666.38	1877.99
666.57	1814.50
666.76	2164.70
666.95	4495.29
667.13	10514.27
667.32	15431.44
667.51	17999.60
667.69	19136.22
667.88	17741.55
668.07	12308.29
668.25	9699.18
668.44	8038.28
668.63	7276.43
668.81	6750.10
669.00	6246.30
669.19	5683.11
669.38	5144.50
669.56	4657.08
669.75	4067.27
669.94	3305.42
670.12	3008.47
670.31	2695.13
670.50	2267.10
670.68	2086.88
670.87	1947.62
671.06	1882.08
671.24	1880.04
671.43	1767.40
671.62	1828.84
671.80	1701.86
671.99	1802.21
672.18	1722.34
672.36	1732.58
672.55	1740.77
672.74	1648.61
672.92	1705.96
673.11	1796.07
673.29	1628.14
673.48	1802.21
673.67	1714.15
673.85	1816.55
674.04	1775.59
674.23	1689.57
674.41	1728.49
674.60	1755.11
674.79	1681.38
674.97	1724.39
675.16	1771.49
675.34	1765.35
675.53	1630.18
675.72	1751.01
675.90	1763.30
676.09	1705.96
676.28	1736.68
676.46	1634.28
676.65	1798.12
676.83	1660.90
677.02	1746.92
677.21	1746.92
677.39	1806.31
677.58	1652.71
677.77	1685.48
677.95	1728.49
678.14	1712.10
678.32	1665.00
678.51	1642.47
678.70	1816.55
678.88	1677.29
679.07	1744.87
679.25	1714.15
679.44	1751.01
679.63	1611.75
679.81	1722.34
680.00	1855.46
680.18	1808.36
680.37	1724.39
680.55	1671.14
680.74	1581.03
680.93	1568.74
681.11	1730.53
681.30	1732.58
681.48	1697.77
681.67	1763.30
681.85	1751.01
682.04	1669.09
682.23	1804.26
682.41	1714.15
682.60	1648.61
682.78	1687.53
682.97	1638.38
683.15	1712.10
683.34	1738.73
683.53	1734.63
683.71	1638.38
683.90	1783.78
684.08	1740.77
684.27	1732.58
684.45	1791.97
684.64	1808.36
684.82	1708.01
685.01	1759.21
685.19	1710.05
685.38	1761.25
685.57	1683.43
685.75	1728.49
685.94	1687.53
686.12	1632.23
686.31	1691.62
686.49	1804.26
686.68	1605.61
686.86	1740.77
687.05	1744.87
687.23	1857.51
687.42	1648.61
687.60	1648.61
687.79	1771.49
687.97	1781.73
688.16	1773.54
688.34	1787.88
688.53	1609.70
688.71	1761.25
688.90	1759.21
689.08	1722.34
689.27	1642.47
689.45	1804.26
689.64	1720.29
689.82	1771.49
690.01	1744.87
690.19	1722.34
690.38	1808.36
690.56	1812.45
690.75	1681.38
690.93	1687.53
691.12	1619.94
691.30	1665.00
691.49	1726.44
691.67	1726.44
691.86	1826.79
692.04	1730.53
692.23	1646.57
692.41	1728.49
692.60	1802.21
692.78	1781.73
692.97	1675.24
693.15	1763.30
693.34	1851.36
693.52	1761.25
693.71	1720.29
693.89	1748.97
694.08	1613.80
694.26	1777.64
694.44	1798.12
694.63	1773.54
694.81	1665.00
695.00	1634.28
695.18	1789.92
695.37	1880.04
695.55	1720.29
695.74	1665.00
695.92	1699.81
696.10	1794.02
696.29	1681.38
696.47	1656.81
696.66	1595.37
696.84	1732.58
697.03	1767.40
697.21	1865.70
697.40	2332.64
697.58	1787.88
697.76	1634.28
697.95	1634.28
698.13	1644.52
698.32	1681.38
698.50	1691.62
698.68	1769.44
698.87	1732.58
699.05	1798.12
699.24	1755.11
699.42	1642.47
699.61	1585.13
699.79	1759.21
699.97	1648.61
700.16	1728.49
700.34	1550.31
700.53	1710.05
700.71	1714.15
700.89	1753.06
701.08	1675.24
701.26	1728.49
701.45	2189.28
701.63	1740.77
701.81	1673.19
702.00	1658.85
702.18	1687.53
702.37	1716.20
702.55	1767.40
702.73	1656.81
702.92	1671.14
703.10	1738.73
703.28	1785.83
703.47	1642.47
703.65	1806.31
703.84	1775.59
704.02	1767.40
704.20	1724.39
704.39	1646.57
704.57	1693.67
704.75	1767.40
704.94	1726.44
705.12	1740.77
705.30	1724.39
705.49	2197.47
705.67	4458.43
705.86	9412.46
706.04	12345.16
706.22	14530.34
706.41	15347.48
706.59	13891.37
706.77	9480.05
706.96	7198.61
707.14	6666.14
707.32	5914.53
707.51	5455.79
707.69	4945.84
707.87	4089.79
708.06	3538.89
708.24	2916.31
708.42	2365.40
708.61	2238.43
708.79	1880.04
708.97	1896.42
709.16	1800.16
709.34	1798.12
709.52	1736.68
709.71	1644.52
709.89	1755.11
710.07	1710.05
710.26	1585.13
710.44	1699.81
710.62	1791.97
710.80	1667.05
710.99	1742.82
711.17	1771.49
711.35	1753.06
711.54	1636.33
711.72	1791.97
711.90	1820.64
712.09	1697.77
712.27	1632.23
712.45	1800.16
712.63	1644.52
712.82	1759.21
713.00	1755.11
713.18	1712.10
713.37	1818.60
713.55	1798.12
713.73	1710.05
713.91	1771.49
714.10	1681.38
714.28	1695.72
714.46	1757.16
714.65	1697.77
714.83	1751.01
715.01	1761.25
715.19	1697.77
715.38	1726.44
715.56	1783.78
715.74	1718.25
715.92	1640.42
716.11	1755.11
716.29	1591.27
716.47	1689.57
716.65	1736.68
716.84	1626.09
717.02	1800.16
717.20	1660.90
717.38	1742.82
717.57	1751.01
717.75	1714.15
717.93	1683.43
718.11	1669.09
718.30	1673.19
718.48	1726.44
718.66	1677.29
718.84	1763.30
719.03	1705.96
719.21	1691.62
719.39	1794.02
719.57	1757.16
719.75	1738.73
719.94	1667.05
720.12	1701.86
720.30	1796.07
720.48	1841.12
720.67	1658.85
720.85	1675.24
721.03	1644.52
721.21	1648.61
721.39	1785.83
721.58	1701.86
721.76	1724.39
721.94	1761.25
722.12	1775.59
722.30	1798.12
722.49	1714.15
722.67	1722.34
722.85	1798.12
723.03	1724.39
723.21	1667.05
723.40	1714.15
723.58	1806.31
723.76	1818.60
723.94	1773.54
724.12	1705.96
724.30	1798.12
724.49	1812.45
724.67	1652.71
724.85	1767.40
725.03	1636.33
725.21	1730.53
725.40	1798.12
725.58	1671.14
725.76	1779.68
725.94	1720.29
726.12	1658.85
726.30	1710.05
726.49	1689.57
726.67	1697.77
726.85	1681.38
727.03	1777.64
727.21	2164.70
727.39	2918.36
727.57	3831.75
727.76	4233.15
727.94	4542.39
728.12	4407.23
728.30	3698.63
728.48	2953.17
728.66	2709.46
728.84	2568.15
729.03	2312.16
729.21	2189.28
729.39	1964.00
729.57	1886.18
729.75	1841.12
729.93	1812.45
730.11	1744.87
730.30	1712.10
730.48	1724.39
730.66	1808.36
730.84	1816.55
731.02	1738.73
731.20	1779.68
731.38	1763.30
731.56	1681.38
731.74	1677.29
731.93	1738.73
732.11	1748.97
732.29	1679.33
732.47	1753.06
732.65	1687.53
732.83	1839.08
733.01	1716.20
733.19	1716.20
733.37	1812.45
733.56	1789.92
733.74	1701.86
733.92	1794.02
734.10	1697.77
734.28	1759.21
734.46	1632.23
734.64	1712.10
734.82	1687.53
735.00	1728.49
735.18	1705.96
735.36	1746.92
735.54	1667.05
735.73	1705.96
735.91	1695.72
736.09	1718.25
736.27	1751.01
736.45	1697.77
736.63	1581.03
736.81	1693.67
736.99	1808.36
737.17	1816.55
737.35	1648.61
737.53	1804.26
737.71	1718.25
737.89	1796.07
738.07	1624.04
738.25	1703.91
738.43	1654.76
738.61	1716.20
738.80	1691.62
738.98	1669.09
739.16	1599.46
739.34	1695.72
739.52	1814.50
739.70	1724.39
739.88	1742.82
740.06	1806.31
740.24	1665.00
740.42	1761.25
740.60	1626.09
740.78	1691.62
740.96	1560.55
741.14	1716.20
741.32	1751.01
741.50	1593.32
741.68	1886.18
741.86	1834.98
742.04	1583.08
742.22	1656.81
742.40	1734.63
742.58	1769.44
742.76	1642.47
742.94	1843.17
743.12	1669.09
743.30	1675.24
743.48	1689.57
743.66	1642.47
743.84	1763.30
744.02	1677.29
744.20	1660.90
744.38	1593.32
744.56	1617.90
744.74	1810.40
744.92	1671.14
745.10	1748.97
745.28	1767.40
745.46	1757.16
745.64	1722.34
745.82	1767.40
746.00	1724.39
746.18	1714.15
746.36	1722.34
746.54	1748.97
746.72	1652.71
746.90	1708.01
747.08	1718.25
747.26	1740.77
747.44	1755.11
747.62	1701.86
747.80	1722.34
747.98	1722.34
748.15	1798.12
748.33	1794.02
748.51	1691.62
748.69	1769.44
748.87	1611.75
749.05	1642.47
749.23	1705.96
749.41	1714.15
749.59	1742.82
749.77	1740.77
749.95	1652.71
750.13	1634.28
750.31	1716.20
750.49	1746.92
750.67	1824.74
750.85	1802.21
751.03	1748.97
751.20	1816.55
751.38	1763.30
751.56	1712.10
751.74	1712.10
751.92	1722.34
752.10	1665.00
752.28	1755.11
752.46	1689.57
752.64	1689.57
752.82	1687.53
753.00	1789.92
753.18	1705.96
753.35	1615.85
753.53	1689.57
753.71	1662.95
753.89	1761.25
754.07	1667.05
754.25	1755.11
754.43	1695.72
754.61	1665.00
754.79	1789.92
754.97	1660.90
755.14	1763.30
755.32	1687.53
755.50	1748.97
755.68	1691.62
755.86	1683.43
756.04	1632.23
756.22	1687.53
756.40	1755.11
756.57	1759.21
756.75	1685.48
756.93	1812.45
757.11	1734.63
757.29	1669.09
757.47	1714.15
757.65	1572.84
757.82	1609.70
758.00	1660.90
758.18	1691.62
758.36	1642.47
758.54	1802.21
758.72	1591.27
758.90	1802.21
759.07	1693.67
759.25	1656.81
759.43	1716.20
759.61	1652.71
759.79	2191.33
759.97	1751.01
760.15	1724.39
760.32	1681.38
760.50	1693.67
760.68	1816.55
760.86	1636.33
761.04	1744.87
761.22	1798.12
761.39	1732.58
761.57	1759.21
761.75	1759.21
761.93	1746.92
762.11	1755.11
762.28	1732.58
762.46	1697.77
762.64	1775.59
762.82	1687.53
763.00	1701.86
763.18	1781.73
763.35	1675.24
763.53	1814.50
763.71	1720.29
763.89	1779.68
764.07	1718.25
764.24	1677.29
764.42	1851.36
764.60	1679.33
764.78	1779.68
764.96	1814.50
765.13	1794.02
765.31	1712.10
765.49	1806.31
765.67	1697.77
765.84	1615.85
766.02	1685.48
766.20	1591.27
766.38	1732.58
766.56	1746.92
766.73	1794.02
766.91	1744.87
767.09	1738.73
767.27	1732.58
767.44	1642.47
767.62	1701.86
767.80	1783.78
767.98	1650.66
768.15	1619.94
768.33	1724.39
768.51	1673.19
768.69	1703.91
768.87	1701.86
769.04	1701.86
769.22	1798.12
769.40	1777.64
769.58	1861.60
769.75	1720.29
769.93	1814.50
770.11	1685.48
770.28	1697.77
770.46	1759.21
770.64	1783.78
770.82	1734.63
770.99	1669.09
771.17	1677.29
771.35	1708.01
771.53	1699.81
771.70	1615.85
771.88	1777.64
772.06	1712.10
772.23	1773.54
772.41	1773.54
772.59	1667.05
772.77	1621.99
772.94	1751.01
773.12	1775.59
773.30	1667.05
773.47	1736.68
773.65	1669.09
773.83	1800.16
774.01	1714.15
774.18	1701.86
774.36	1665.00
774.54	1669.09
774.71	1683.43
774.89	1609.70
775.07	1656.81
775.24	1716.20
775.42	1710.05
775.60	1830.88
775.78	1708.01
775.95	1624.04
776.13	1619.94
776.31	1597.42
776.48	1744.87
776.66	1781.73
776.84	1736.68
777.01	1677.29
777.19	1718.25
777.37	1716.20
777.54	1779.68
777.72	1789.92
777.90	1761.25
778.07	1632.23
778.25	1910.75
778.43	1714.15
778.60	1695.72
778.78	1732.58
778.96	1738.73
779.13	1644.52
779.31	1744.87
779.49	1718.25
779.66	1640.42
779.84	1705.96
780.01	1718.25
780.19	1699.81
780.37	1667.05
780.54	1728.49
780.72	1646.57
780.90	1679.33
781.07	1728.49
781.25	1701.86
781.43	1730.53
781.60	1656.81
781.78	1755.11
781.95	1693.67
782.13	1708.01
782.31	1697.77
782.48	1583.08
782.66	1722.34
782.83	1830.88
783.01	1683.43
783.19	1775.59
783.36	1710.05
783.54	1673.19
783.72	1757.16
783.89	1658.85
784.07	1679.33
784.24	1681.38
784.42	1785.83
784.60	1724.39
784.77	1734.63
784.95	1601.51
785.12	1726.44
785.30	1736.68
785.47	1712.10
785.65	1654.76
785.83	1812.45
786.00	1677.29
786.18	1710.05
786.35	1691.62
786.53	1683.43
786.71	1736.68
786.88	1677.29
787.06	1708.01
787.23	1712.10
787.41	1675.24
787.58	1662.95
787.76	1718.25
787.94	1757.16
788.11	1650.66
788.29	1652.71
788.46	1626.09
788.64	1665.00
788.81	1673.19
788.99	1691.62
789.16	1658.85
789.34	1726.44
789.52	1751.01
789.69	1648.61
789.87	1667.05
790.04	1697.77
790.22	1761.25
790.39	1830.88
790.57	1681.38
790.74	1665.00
790.92	1705.96
791.09	1583.08
791.27	1714.15
791.44	1804.26
791.62	1705.96
791.79	1738.73
791.97	1697.77
792.15	1871.84
792.32	1730.53
792.50	1781.73
792.67	1800.16
792.85	1812.45
793.02	1738.73
793.20	1703.91
793.37	1681.38
793.55	1699.81
793.72	1648.61
793.90	1779.68
794.07	1761.25
794.25	1714.15
794.42	1779.68
794.60	1681.38
794.77	1765.35
794.95	1755.11
795.12	1765.35
795.30	1759.21
795.47	1626.09
795.65	1880.04
795.82	1773.54
796.00	1669.09
796.17	1652.71
796.34	1660.90
796.52	1738.73
796.69	1742.82
796.87	1753.06
797.04	1775.59
797.22	1730.53
797.39	1730.53
797.57	1744.87
797.74	1689.57
797.92	1724.39
798.09	1679.33
798.27	1781.73
798.44	1771.49
798.62	1722.34
798.79	1718.25
798.96	1736.68
799.14	1679.33
799.31	1789.92
799.49	1714.15
799.66	1691.62
799.84	1726.44
800.01	1701.86
800.19	1689.57
800.36	1634.28
800.53	1757.16
800.71	1669.09
800.88	1791.97
801.06	1673.19
801.23	1671.14
801.41	1673.19
801.58	1630.18
801.75	1681.38
801.93	1681.38
802.10	1751.01
802.28	1681.38
802.45	1716.20
802.63	1720.29
802.80	1818.60
802.97	1734.63
803.15	1714.15
803.32	1689.57
803.50	1615.85
803.67	1648.61
803.84	1630.18
804.02	1710.05
804.19	1660.90
804.37	1566.70
804.54	1660.90
804.71	1675.24
804.89	1755.11
805.06	1665.00
805.24	1630.18
805.41	1671.14
805.58	1572.84
805.76	1918.95
805.93	1724.39
806.10	1794.02
806.28	1744.87
806.45	1789.92
806.63	1736.68
806.80	1632.23
806.97	1763.30
807.15	1757.16
807.32	1693.67
807.49	1695.72
807.67	1777.64
807.84	1644.52
808.01	1632.23
808.19	1869.80
808.36	1751.01
808.54	1714.15
808.71	1671.14
808.88	1687.53
809.06	1714.15
809.23	1812.45
809.40	1613.80
809.58	1695.72
809.75	1705.96
809.92	1714.15
810.10	1791.97
810.27	1714.15
810.44	1755.11
810.62	1734.63
810.79	1714.15
810.96	1644.52
811.14	1796.07
811.31	1742.82
811.48	1730.53
811.66	1697.77
811.83	1722.34
812.00	1687.53
812.18	1757.16
812.35	1816.55
812.52	1644.52
812.69	1701.86
812.87	1691.62
813.04	1695.72
813.21	1705.96
813.39	1755.11
813.56	1640.42
813.73	1773.54
813.91	1691.62
814.08	1642.47
814.25	1734.63
814.42	1714.15
814.60	1667.05
814.77	1718.25
814.94	1685.48
815.12	1712.10
815.29	1767.40
815.46	1697.77
815.63	1755.11
815.81	1681.38
815.98	1667.05
816.15	1734.63
816.33	1761.25
816.50	1738.73
816.67	1724.39
816.84	1691.62
817.02	1701.86
817.19	1669.09
817.36	1728.49
817.53	1648.61
817.71	1660.90
817.88	1726.44
818.05	1716.20
818.22	1685.48
818.40	1755.11
818.57	1679.33
818.74	1726.44
818.91	1716.20
819.09	1757.16
819.26	1691.62
819.43	1701.86
819.60	1695.72
819.78	1734.63
819.95	1787.88
820.12	1570.79
820.29	1800.16
820.47	1783.78
820.64	1667.05
820.81	1640.42
820.98	1634.28
821.15	1775.59
821.33	1814.50
821.50	1710.05
821.67	1728.49
821.84	1624.04
822.02	1740.77
822.19	1789.92
822.36	1714.15
822.53	1652.71
822.70	1693.67
822.88	1662.95
823.05	1853.41
823.22	1755.11
823.39	1806.31
823.56	1720.29
823.74	1816.55
823.91	1662.95
824.08	1609.70
824.25	1705.96
824.42	1794.02
824.60	1634.28
824.77	1732.58
824.94	1685.48
825.11	1699.81
825.28	1546.22
825.45	1796.07
825.63	1738.73
825.80	1660.90
825.97	1728.49
826.14	1689.57
826.31	1683.43
826.48	1783.78
826.66	1677.29
826.83	1701.86
827.00	1794.02
827.17	1708.01
827.34	1687.53
827.51	1632.23
827.69	1693.67
827.86	1656.81
828.03	1744.87
828.20	1767.40
828.37	1705.96
828.54	1746.92
828.71	1720.29
828.89	1861.60
829.06	1705.96
829.23	1857.51
829.40	1712.10
829.57	1675.24
829.74	1767.40
829.91	1712.10
830.09	1728.49
830.26	1751.01
830.43	1734.63
830.60	1751.01
830.77	1767.40
830.94	1849.32
831.11	1761.25
831.28	1712.10
831.46	1751.01
831.63	1748.97
831.80	1705.96
831.97	1662.95
832.14	1693.67
832.31	1708.01
832.48	1658.85
832.65	1716.20
832.82	1636.33
832.99	1775.59
833.17	1644.52
833.34	1765.35
833.51	1728.49
833.68	1595.37
833.85	1777.64
834.02	1730.53
834.19	1646.57
834.36	1615.85
834.53	1669.09
834.70	1748.97
834.87	1771.49
835.04	1708.01
835.22	1626.09
835.39	1726.44
835.56	1652.71
835.73	1718.25
835.90	1693.67
836.07	1677.29
836.24	1746.92
836.41	1644.52
836.58	1665.00
836.75	1714.15
836.92	1716.20
837.09	1718.25
837.26	1714.15
837.43	1626.09
837.60	1714.15
837.77	1695.72
837.94	1703.91
838.12	1808.36
838.29	1716.20
838.46	1642.47
838.63	1638.38
838.80	1771.49
838.97	1781.73
839.14	1734.63
839.31	1710.05
839.48	1687.53
839.65	1714.15
839.82	1681.38
839.99	1759.21
840.16	1728.49
840.33	1714.15
840.50	1632.23
840.67	1605.61
840.84	1560.55
841.01	1775.59
841.18	1679.33
841.35	1701.86
841.52	1746.92
841.69	1796.07
841.86	1765.35
842.03	1720.29
842.20	1804.26
842.37	1617.90
842.54	1675.24
842.71	1755.11
842.88	1720.29
843.05	1730.53
843.22	1722.34
843.39	1789.92
843.56	1693.67
843.73	1726.44
843.90	1734.63
844.07	1646.57
844.24	1787.88
844.41	1904.61
844.58	1697.77
844.75	1734.63
844.92	1759.21
845.09	1658.85
845.26	1671.14
845.43	1724.39
845.60	1763.30
845.77	1755.11
845.94	1714.15
846.10	1806.31
846.27	1642.47
846.44	1609.70
846.61	1673.19
846.78	1722.34
846.95	1798.12
847.12	1619.94
847.29	1718.25
847.46	1669.09
847.63	1699.81
847.80	1714.15
847.97	1718.25
848.14	1853.41
848.31	1667.05
848.48	1667.05
848.65	1761.25
848.82	1660.90
848.98	1785.83
849.15	1712.10
849.32	1787.88
849.49	1744.87
849.66	1691.62
849.83	1691.62
850.00	1681.38
850.17	1714.15
850.34	1736.68
850.51	1705.96
850.68	1710.05
850.85	1800.16
851.01	1744.87
851.18	1746.92
851.35	1718.25
851.52	1847.27
851.69	1818.60
851.86	1656.81
852.03	1701.86
852.20	1720.29
852.37	1738.73
852.53	1597.42
852.70	1675.24
852.87	1785.83
853.04	1759.21
853.21	1658.85
853.38	1763.30
853.55	1781.73
853.72	1820.64
853.89	1736.68
854.05	1660.90
854.22	1728.49
854.39	1718.25
854.56	1683.43
854.73	1773.54
854.90	1728.49
855.07	1730.53
855.23	1646.57
855.40	1695.72
855.57	1767.40
855.74	1578.98
855.91	1855.46
856.08	1691.62
856.25	1665.00
856.41	1705.96
856.58	1671.14
856.75	1689.57
856.92	1640.42
857.09	1759.21
857.26	1669.09
857.42	1669.09
857.59	1748.97
857.76	1665.00
857.93	1720.29
858.10	1765.35
858.27	1642.47
858.43	1624.04
858.60	1593.32
858.77	1593.32
858.94	1763.30
859.11	1828.84
859.27	1638.38
859.44	1724.39
859.61	1851.36
859.78	1765.35
859.95	1736.68
860.12	1667.05
860.28	1742.82
860.45	1822.69
860.62	1712.10
860.79	1699.81
860.95	1787.88
861.12	1691.62
861.29	1632.23
861.46	1665.00
861.63	1673.19
861.79	1740.77
861.96	1564.65
862.13	1697.77
862.30	1767.40
862.47	1802.21
862.63	1689.57
862.80	1705.96
862.97	1751.01
863.14	1675.24
863.30	1734.63
863.47	1681.38
863.64	1806.31
863.81	1738.73
863.97	1667.05
864.14	1732.58
864.31	1767.40
864.48	1757.16
864.65	1634.28
864.81	1746.92
864.98	1720.29
865.15	1834.98
865.32	1822.69
865.48	1771.49
865.65	1701.86
865.82	1669.09
865.98	1679.33
866.15	1761.25
866.32	1662.95
866.49	1689.57
866.65	1812.45
866.82	1683.43
866.99	1691.62
867.16	1728.49
867.32	1677.29
867.49	1665.00
867.66	1705.96
867.83	1681.38
867.99	1611.75
868.16	1708.01
868.33	1669.09
868.49	1687.53
868.66	1660.90
868.83	1785.83
868.99	1744.87
869.16	1708.01
869.33	1781.73
869.50	1701.86
869.66	1697.77
869.83	1685.48
870.00	1617.90
870.16	1755.11
870.33	1693.67
870.50	1738.73
870.66	1693.67
870.83	1845.22
871.00	1763.30
871.17	1746.92
871.33	1656.81
871.50	1724.39
871.67	1748.97
871.83	1648.61
872.00	1761.25
872.17	1708.01
872.33	1781.73
872.50	1730.53
872.67	1716.20
872.83	1687.53
873.00	1740.77
873.17	1748.97
873.33	1751.01
873.50	1755.11
873.67	1693.67
873.83	1619.94
874.00	1775.59
874.16	1781.73
874.33	1746.92
874.50	1648.61
874.66	1728.49
874.83	1775.59
875.00	1800.16
875.16	1789.92
875.33	1687.53
875.50	1607.66
875.66	1691.62
875.83	1728.49
875.99	1787.88
876.16	1658.85
876.33	1744.87
876.49	1648.61
876.66	1775.59
876.83	1730.53
876.99	1595.37
877.16	1656.81
877.32	1654.76
877.49	1699.81
877.66	1779.68
877.82	1798.12
877.99	1701.86
878.15	1738.73
878.32	1687.53
878.49	1693.67
878.65	1718.25
878.82	1751.01
878.98	1687.53
879.15	1763.30
879.32	1656.81
879.48	1699.81
879.65	1714.15
879.81	1652.71
879.98	1726.44
880.15	1667.05
880.31	1687.53
880.48	1624.04
880.64	1761.25
880.81	1628.14
880.97	1800.16
881.14	1802.21
881.31	1636.33
881.47	1871.84
881.64	1683.43
881.80	1718.25
881.97	1716.20
882.13	1830.88
882.30	1613.80
882.47	1675.24
882.63	1609.70
882.80	1712.10
882.96	1789.92
883.13	1791.97
883.29	1730.53
883.46	1740.77
883.62	1808.36
883.79	1748.97
883.95	1708.01
884.12	1789.92
884.29	1677.29
884.45	1736.68
884.62	1777.64
884.78	1656.81
884.95	1777.64
885.11	1691.62
885.28	1669.09
885.44	1779.68
885.61	1767.40
885.77	1828.84
885.94	1746.92
886.10	1685.48
886.27	1761.25
886.43	1769.44
886.60	1763.30
886.76	1726.44
886.93	1708.01
887.09	1722.34
887.26	1605.61
887.42	1748.97
887.59	1789.92
887.75	1861.60
887.92	1740.77
888.08	1740.77
888.25	1791.97
888.41	1783.78
888.58	1806.31
888.74	1671.14
888.91	1724.39
>>>>>End Processed Spectral Data<<<<<
