SpectraSuite Data File
++++++++++++++++++++++++++++++++++++
Date: Mon Jun 06 14:22:57 CEST 2016
User: root
Dark Spectrum Present: No
Reference Spectrum Present: No
Number of Sampled Component Spectra: 1
Spectrometers: USB4C02835
Integration Time (usec): 100000 (USB4C02835)
Spectra Averaged: 1 (USB4C02835)
Boxcar Smoothing: 0 (USB4C02835)
Correct for Electrical Dark: No (USB4C02835)
Strobe/Lamp Enabled: No (USB4C02835)
Correct for Detector Non-linearity: No (USB4C02835)
Correct for Stray Light: No (USB4C02835)
Number of Pixels in Processed Spectrum: 3648
>>>>>Begin Processed Spectral Data<<<<<
177.47	1447.91
177.69	1447.91
177.91	1447.91
178.13	1484.78
178.36	1503.21
178.58	1662.95
178.80	1718.25
179.02	1669.09
179.24	1607.66
179.46	1693.67
179.68	1802.21
179.90	1669.09
180.13	1679.33
180.35	1603.56
180.57	1656.81
180.79	1736.68
181.01	1675.24
181.23	1738.73
181.45	1755.11
181.67	1720.29
181.90	1751.01
182.12	1617.90
182.34	1718.25
182.56	1734.63
182.78	1636.33
183.00	1636.33
183.22	1740.77
183.44	1589.22
183.66	1863.65
183.89	1693.67
184.11	1755.11
184.33	1748.97
184.55	1783.78
184.77	1751.01
184.99	1777.64
185.21	1701.86
185.43	1826.79
185.65	1660.90
185.87	1624.04
186.10	1791.97
186.32	1804.26
186.54	1689.57
186.76	1738.73
186.98	1724.39
187.20	1695.72
187.42	1632.23
187.64	1695.72
187.86	1734.63
188.08	1701.86
188.30	1615.85
188.52	1722.34
188.75	1753.06
188.97	1820.64
189.19	1640.42
189.41	1742.82
189.63	1708.01
189.85	1685.48
190.07	1621.99
190.29	1638.38
190.51	1695.72
190.73	1619.94
190.95	1757.16
191.17	1667.05
191.39	1638.38
191.61	1654.76
191.84	1679.33
192.06	1753.06
192.28	1595.37
192.50	1865.70
192.72	1787.88
192.94	1650.66
193.16	1763.30
193.38	1634.28
193.60	1746.92
193.82	1716.20
194.04	1753.06
194.26	1665.00
194.48	1701.86
194.70	1675.24
194.92	1689.57
195.14	1705.96
195.36	1636.33
195.58	1656.81
195.80	1673.19
196.02	1644.52
196.24	1738.73
196.46	1777.64
196.69	1624.04
196.91	1869.80
197.13	1699.81
197.35	1648.61
197.57	1789.92
197.79	1767.40
198.01	1691.62
198.23	1697.77
198.45	1695.72
198.67	1658.85
198.89	1742.82
199.11	1667.05
199.33	1683.43
199.55	1568.74
199.77	1673.19
199.99	1753.06
200.21	1656.81
200.43	1699.81
200.65	1628.14
200.87	1628.14
201.09	1675.24
201.31	1724.39
201.53	1746.92
201.75	1722.34
201.97	1748.97
202.19	1626.09
202.41	1740.77
202.63	1888.23
202.85	1710.05
203.07	1779.68
203.29	1648.61
203.51	1634.28
203.73	1667.05
203.95	1837.03
204.17	1724.39
204.39	1632.23
204.61	1693.67
204.83	1591.27
205.05	1730.53
205.27	1798.12
205.49	1820.64
205.71	1677.29
205.93	1658.85
206.15	1632.23
206.37	1755.11
206.59	1699.81
206.81	1636.33
207.03	1646.57
207.25	1615.85
207.47	1789.92
207.69	1667.05
207.91	1705.96
208.13	1732.58
208.34	1748.97
208.56	1744.87
208.78	1730.53
209.00	1703.91
209.22	1656.81
209.44	1695.72
209.66	1636.33
209.88	1652.71
210.10	1714.15
210.32	1767.40
210.54	1875.94
210.76	1660.90
210.98	1824.74
211.20	1593.32
211.42	1677.29
211.64	1730.53
211.86	1710.05
212.08	1697.77
212.30	1742.82
212.52	1714.15
212.74	1775.59
212.96	1720.29
213.17	1728.49
213.39	1728.49
213.61	1718.25
213.83	1708.01
214.05	1652.71
214.27	1673.19
214.49	1632.23
214.71	1630.18
214.93	1775.59
215.15	1697.77
215.37	1693.67
215.59	1638.38
215.81	1693.67
216.03	1804.26
216.24	1671.14
216.46	1675.24
216.68	1701.86
216.90	1708.01
217.12	1767.40
217.34	1718.25
217.56	1714.15
217.78	1820.64
218.00	1642.47
218.22	1697.77
218.44	1693.67
218.66	1730.53
218.87	1851.36
219.09	1656.81
219.31	1773.54
219.53	1705.96
219.75	1630.18
219.97	1734.63
220.19	1771.49
220.41	1681.38
220.63	1714.15
220.85	1714.15
221.06	1609.70
221.28	1722.34
221.50	1697.77
221.72	1708.01
221.94	1660.90
222.16	1728.49
222.38	1673.19
222.60	1716.20
222.82	1716.20
223.03	1738.73
223.25	1650.66
223.47	1779.68
223.69	1830.88
223.91	1728.49
224.13	1744.87
224.35	1662.95
224.57	1789.92
224.78	1701.86
225.00	1689.57
225.22	1683.43
225.44	1742.82
225.66	1730.53
225.88	1652.71
226.10	1722.34
226.32	1710.05
226.53	1814.50
226.75	1685.48
226.97	1695.72
227.19	1748.97
227.41	1578.98
227.63	1710.05
227.85	1607.66
228.06	1691.62
228.28	1744.87
228.50	1718.25
228.72	1613.80
228.94	1757.16
229.16	1636.33
229.37	1599.46
229.59	1669.09
229.81	1798.12
230.03	1687.53
230.25	1632.23
230.47	1628.14
230.69	1658.85
230.90	1759.21
231.12	1679.33
231.34	1658.85
231.56	1800.16
231.78	1621.99
232.00	1779.68
232.21	1660.90
232.43	1671.14
232.65	1550.31
232.87	1703.91
233.09	1671.14
233.30	1626.09
233.52	1755.11
233.74	1691.62
233.96	1705.96
234.18	1701.86
234.40	1701.86
234.61	1777.64
234.83	1591.27
235.05	1691.62
235.27	1898.47
235.49	1763.30
235.70	1634.28
235.92	1796.07
236.14	1656.81
236.36	1832.93
236.58	1581.03
236.79	1710.05
237.01	1675.24
237.23	1658.85
237.45	1822.69
237.67	1703.91
237.88	1667.05
238.10	1783.78
238.32	1632.23
238.54	1724.39
238.76	1716.20
238.97	1628.14
239.19	1648.61
239.41	1738.73
239.63	1728.49
239.85	1687.53
240.06	1714.15
240.28	1642.47
240.50	1767.40
240.72	1724.39
240.93	1710.05
241.15	1791.97
241.37	1734.63
241.59	1751.01
241.81	1736.68
242.02	1699.81
242.24	1771.49
242.46	1677.29
242.68	1648.61
242.89	1660.90
243.11	1746.92
243.33	1652.71
243.55	1669.09
243.76	1720.29
243.98	1634.28
244.20	1669.09
244.42	1691.62
244.64	1742.82
244.85	1714.15
245.07	1624.04
245.29	1775.59
245.51	1703.91
245.72	1701.86
245.94	1761.25
246.16	1722.34
246.38	1718.25
246.59	1621.99
246.81	1611.75
247.03	1716.20
247.24	1507.30
247.46	1703.91
247.68	1671.14
247.90	1716.20
248.11	1624.04
248.33	1783.78
248.55	1722.34
248.77	1642.47
248.98	1732.58
249.20	1814.50
249.42	1689.57
249.64	1697.77
249.85	1685.48
250.07	1691.62
250.29	1726.44
250.50	1738.73
250.72	1628.14
250.94	1615.85
251.16	1753.06
251.37	1783.78
251.59	1771.49
251.81	1681.38
252.02	1843.17
252.24	1636.33
252.46	1738.73
252.68	1648.61
252.89	1640.42
253.11	1685.48
253.33	1748.97
253.54	1796.07
253.76	1578.98
253.98	1724.39
254.20	1736.68
254.41	1636.33
254.63	1728.49
254.85	1628.14
255.06	1740.77
255.28	1708.01
255.50	1669.09
255.71	1656.81
255.93	1560.55
256.15	1722.34
256.36	1748.97
256.58	1705.96
256.80	1742.82
257.02	1685.48
257.23	1755.11
257.45	1646.57
257.67	1751.01
257.88	1650.66
258.10	1730.53
258.32	1656.81
258.53	1720.29
258.75	1791.97
258.97	1718.25
259.18	1746.92
259.40	1697.77
259.62	1779.68
259.83	1822.69
260.05	1734.63
260.27	2000.87
260.48	1771.49
260.70	1697.77
260.92	1675.24
261.13	1685.48
261.35	1746.92
261.57	1714.15
261.78	1564.65
262.00	1603.56
262.22	1771.49
262.43	1646.57
262.65	1726.44
262.86	1648.61
263.08	1849.32
263.30	1716.20
263.51	1550.31
263.73	1628.14
263.95	1775.59
264.16	1662.95
264.38	1650.66
264.60	1693.67
264.81	1718.25
265.03	1744.87
265.25	1720.29
265.46	1759.21
265.68	1755.11
265.89	1705.96
266.11	1566.70
266.33	1734.63
266.54	1687.53
266.76	1722.34
266.98	1708.01
267.19	1789.92
267.41	1730.53
267.62	1669.09
267.84	1621.99
268.06	1746.92
268.27	1720.29
268.49	1810.40
268.70	1665.00
268.92	1683.43
269.14	1656.81
269.35	1640.42
269.57	1699.81
269.79	1828.84
270.00	1687.53
270.22	1865.70
270.43	1621.99
270.65	1583.08
270.87	1689.57
271.08	1765.35
271.30	1755.11
271.51	1652.71
271.73	1693.67
271.95	1763.30
272.16	1632.23
272.38	1746.92
272.59	1662.95
272.81	1726.44
273.02	1652.71
273.24	1710.05
273.46	1828.84
273.67	1705.96
273.89	1662.95
274.10	1603.56
274.32	1648.61
274.54	1777.64
274.75	1728.49
274.97	1650.66
275.18	1681.38
275.40	1730.53
275.61	1648.61
275.83	1732.58
276.05	1658.85
276.26	1708.01
276.48	1738.73
276.69	1654.76
276.91	1773.54
277.12	1691.62
277.34	1804.26
277.55	1703.91
277.77	1746.92
277.99	1679.33
278.20	1644.52
278.42	1679.33
278.63	1648.61
278.85	1681.38
279.06	1570.79
279.28	1757.16
279.49	1775.59
279.71	1736.68
279.93	1742.82
280.14	1705.96
280.36	1648.61
280.57	1779.68
280.79	1791.97
281.00	1683.43
281.22	1730.53
281.43	1724.39
281.65	1568.74
281.86	1652.71
282.08	1742.82
282.29	1779.68
282.51	1617.90
282.73	1703.91
282.94	1609.70
283.16	1716.20
283.37	1853.41
283.59	1703.91
283.80	1820.64
284.02	1665.00
284.23	1695.72
284.45	1648.61
284.66	1609.70
284.88	1632.23
285.09	1687.53
285.31	1742.82
285.52	1742.82
285.74	1634.28
285.95	1683.43
286.17	1642.47
286.38	1703.91
286.60	1660.90
286.81	1636.33
287.03	1724.39
287.24	1722.34
287.46	1773.54
287.67	1646.57
287.89	1751.01
288.10	1665.00
288.32	1693.67
288.53	1779.68
288.75	1648.61
288.96	1757.16
289.18	1667.05
289.39	1742.82
289.61	1738.73
289.82	1759.21
290.04	1785.83
290.25	1574.89
290.47	1726.44
290.68	1652.71
290.90	1781.73
291.11	1615.85
291.33	1695.72
291.54	1673.19
291.76	1701.86
291.97	1724.39
292.18	1724.39
292.40	1710.05
292.61	1640.42
292.83	1857.51
293.04	1744.87
293.26	1716.20
293.47	1675.24
293.69	1630.18
293.90	1681.38
294.12	1775.59
294.33	1695.72
294.55	1718.25
294.76	1769.44
294.97	1769.44
295.19	1812.45
295.40	1718.25
295.62	1699.81
295.83	1705.96
296.05	1601.51
296.26	1755.11
296.48	1687.53
296.69	1689.57
296.90	1695.72
297.12	1765.35
297.33	1779.68
297.55	1759.21
297.76	1683.43
297.98	1714.15
298.19	1681.38
298.41	1736.68
298.62	1624.04
298.83	1806.31
299.05	1720.29
299.26	1673.19
299.48	1597.42
299.69	1693.67
299.90	1703.91
300.12	1665.00
300.33	1734.63
300.55	1787.88
300.76	1767.40
300.98	1669.09
301.19	1732.58
301.40	1621.99
301.62	1701.86
301.83	1712.10
302.05	1703.91
302.26	1777.64
302.47	1726.44
302.69	1685.48
302.90	1732.58
303.12	1527.78
303.33	1730.53
303.54	1777.64
303.76	1683.43
303.97	1730.53
304.19	1732.58
304.40	1714.15
304.61	1705.96
304.83	1779.68
305.04	1742.82
305.26	1742.82
305.47	1724.39
305.68	1748.97
305.90	1648.61
306.11	1783.78
306.33	1681.38
306.54	1699.81
306.75	1585.13
306.97	1615.85
307.18	1697.77
307.39	1650.66
307.61	1712.10
307.82	1652.71
308.04	1675.24
308.25	1634.28
308.46	1757.16
308.68	1665.00
308.89	1615.85
309.10	1783.78
309.32	1724.39
309.53	1611.75
309.74	1765.35
309.96	1599.46
310.17	1769.44
310.39	1615.85
310.60	1761.25
310.81	1689.57
311.03	1527.78
311.24	1730.53
311.45	1728.49
311.67	1726.44
311.88	1636.33
312.09	1720.29
312.31	1671.14
312.52	1652.71
312.73	1689.57
312.95	1611.75
313.16	1687.53
313.37	1779.68
313.59	1722.34
313.80	1720.29
314.01	1789.92
314.23	1646.57
314.44	1683.43
314.65	1597.42
314.87	1591.27
315.08	1703.91
315.29	1669.09
315.51	1679.33
315.72	1652.71
315.93	1812.45
316.15	1773.54
316.36	1619.94
316.57	1730.53
316.79	1791.97
317.00	1585.13
317.21	1699.81
317.43	1626.09
317.64	1712.10
317.85	1763.30
318.07	1728.49
318.28	1744.87
318.49	1785.83
318.70	1886.18
318.92	1742.82
319.13	1832.93
319.34	1824.74
319.56	1777.64
319.77	1751.01
319.98	1816.55
320.20	1839.08
320.41	1730.53
320.62	1738.73
320.83	1685.48
321.05	1818.60
321.26	1726.44
321.47	1744.87
321.69	1728.49
321.90	1665.00
322.11	1650.66
322.32	1710.05
322.54	1798.12
322.75	1689.57
322.96	1830.88
323.18	1660.90
323.39	1693.67
323.60	1615.85
323.81	1681.38
324.03	1748.97
324.24	1691.62
324.45	1697.77
324.66	1662.95
324.88	1736.68
325.09	1771.49
325.30	1673.19
325.52	1746.92
325.73	1755.11
325.94	1705.96
326.15	1687.53
326.37	1675.24
326.58	1734.63
326.79	1806.31
327.00	1648.61
327.22	1701.86
327.43	1589.22
327.64	1658.85
327.85	1746.92
328.07	1746.92
328.28	1849.32
328.49	1730.53
328.70	1722.34
328.92	1726.44
329.13	1710.05
329.34	1710.05
329.55	1824.74
329.76	1771.49
329.98	1658.85
330.19	1800.16
330.40	1748.97
330.61	1710.05
330.83	1753.06
331.04	1691.62
331.25	1740.77
331.46	1755.11
331.68	1587.18
331.89	1736.68
332.10	1705.96
332.31	1665.00
332.52	1638.38
332.74	1705.96
332.95	1619.94
333.16	1667.05
333.37	1703.91
333.58	1640.42
333.80	1642.47
334.01	1624.04
334.22	1638.38
334.43	1691.62
334.64	1681.38
334.86	1597.42
335.07	1619.94
335.28	1753.06
335.49	1624.04
335.70	1710.05
335.92	1826.79
336.13	1798.12
336.34	1781.73
336.55	1699.81
336.76	1775.59
336.98	1603.56
337.19	1708.01
337.40	1820.64
337.61	1804.26
337.82	1708.01
338.04	1789.92
338.25	1638.38
338.46	1693.67
338.67	1701.86
338.88	1630.18
339.09	1628.14
339.31	1691.62
339.52	1617.90
339.73	1677.29
339.94	1757.16
340.15	1742.82
340.36	1691.62
340.58	1757.16
340.79	1722.34
341.00	1691.62
341.21	1671.14
341.42	1820.64
341.63	1679.33
341.85	1734.63
342.06	1677.29
342.27	1746.92
342.48	1806.31
342.69	1632.23
342.90	1787.88
343.12	1783.78
343.33	1632.23
343.54	1654.76
343.75	1830.88
343.96	1685.48
344.17	1662.95
344.38	1724.39
344.60	1624.04
344.81	1640.42
345.02	1724.39
345.23	1753.06
345.44	1771.49
345.65	1767.40
345.86	1783.78
346.07	1654.76
346.29	1669.09
346.50	1740.77
346.71	1689.57
346.92	1710.05
347.13	1841.12
347.34	1673.19
347.55	1697.77
347.76	1777.64
347.98	1683.43
348.19	1695.72
348.40	1775.59
348.61	1720.29
348.82	1718.25
349.03	1759.21
349.24	1744.87
349.45	1820.64
349.66	1675.24
349.88	1701.86
350.09	1658.85
350.30	1851.36
350.51	1771.49
350.72	1740.77
350.93	1662.95
351.14	1699.81
351.35	1728.49
351.56	1671.14
351.77	1677.29
351.99	1662.95
352.20	1826.79
352.41	1789.92
352.62	1593.32
352.83	1662.95
353.04	1656.81
353.25	1675.24
353.46	1769.44
353.67	1705.96
353.88	1652.71
354.09	1667.05
354.30	1755.11
354.52	1740.77
354.73	1677.29
354.94	1628.14
355.15	1757.16
355.36	1798.12
355.57	1662.95
355.78	1724.39
355.99	1712.10
356.20	1658.85
356.41	1818.60
356.62	1755.11
356.83	1720.29
357.04	1777.64
357.25	1591.27
357.46	1703.91
357.68	1658.85
357.89	1636.33
358.10	1697.77
358.31	1675.24
358.52	1697.77
358.73	1691.62
358.94	1660.90
359.15	1681.38
359.36	1771.49
359.57	1640.42
359.78	1705.96
359.99	1730.53
360.20	1660.90
360.41	1681.38
360.62	1728.49
360.83	1699.81
361.04	1693.67
361.25	1722.34
361.46	1779.68
361.67	1767.40
361.88	1710.05
362.09	1681.38
362.30	1679.33
362.51	1724.39
362.72	1654.76
362.93	1742.82
363.14	1779.68
363.35	1765.35
363.56	1712.10
363.78	1753.06
363.99	1796.07
364.20	1695.72
364.41	1687.53
364.62	1730.53
364.83	1718.25
365.04	1636.33
365.25	1687.53
365.46	1834.98
365.67	1650.66
365.88	1568.74
366.09	1683.43
366.30	1683.43
366.51	1677.29
366.72	1656.81
366.93	1755.11
367.14	1734.63
367.35	1849.32
367.56	1679.33
367.77	1812.45
367.98	1710.05
368.18	1708.01
368.39	1665.00
368.60	1669.09
368.81	1726.44
369.02	1656.81
369.23	1669.09
369.44	1595.37
369.65	1662.95
369.86	1722.34
370.07	1718.25
370.28	1675.24
370.49	1687.53
370.70	1722.34
370.91	1673.19
371.12	1581.03
371.33	1730.53
371.54	1636.33
371.75	1724.39
371.96	1595.37
372.17	1718.25
372.38	1697.77
372.59	1716.20
372.80	1703.91
373.01	1714.15
373.22	1724.39
373.43	1712.10
373.64	1619.94
373.85	1738.73
374.06	1753.06
374.26	1816.55
374.47	1712.10
374.68	1777.64
374.89	1679.33
375.10	1697.77
375.31	1699.81
375.52	1662.95
375.73	1738.73
375.94	1652.71
376.15	1705.96
376.36	1734.63
376.57	1730.53
376.78	1744.87
376.99	1722.34
377.20	1724.39
377.40	1642.47
377.61	1781.73
377.82	1619.94
378.03	1710.05
378.24	1734.63
378.45	1701.86
378.66	1701.86
378.87	1615.85
379.08	1667.05
379.29	1695.72
379.50	1783.78
379.71	1681.38
379.91	1705.96
380.12	1687.53
380.33	1673.19
380.54	1669.09
380.75	1683.43
380.96	1697.77
381.17	1806.31
381.38	1769.44
381.59	1701.86
381.80	1740.77
382.00	1818.60
382.21	1734.63
382.42	1787.88
382.63	1832.93
382.84	1742.82
383.05	1824.74
383.26	1839.08
383.47	1712.10
383.68	1781.73
383.88	1794.02
384.09	1806.31
384.30	1753.06
384.51	1695.72
384.72	1578.98
384.93	1587.18
385.14	1691.62
385.35	1730.53
385.55	1578.98
385.76	1773.54
385.97	1662.95
386.18	1671.14
386.39	1638.38
386.60	1654.76
386.81	1634.28
387.02	1685.48
387.22	1654.76
387.43	1800.16
387.64	1804.26
387.85	1828.84
388.06	2203.61
388.27	4270.01
388.48	6928.28
388.68	8273.79
388.89	9860.97
389.10	10065.77
389.31	8730.49
389.52	7749.51
389.73	6686.62
389.93	6391.71
390.14	5851.05
390.35	5351.34
390.56	4591.55
390.77	3823.56
390.98	3098.58
391.18	2492.38
391.39	2099.17
391.60	1808.36
391.81	1789.92
392.02	1755.11
392.23	1826.79
392.43	1718.25
392.64	1798.12
392.85	1710.05
393.06	1824.74
393.27	1691.62
393.47	1716.20
393.68	1652.71
393.89	1648.61
394.10	1794.02
394.31	1654.76
394.52	1656.81
394.72	1660.90
394.93	1796.07
395.14	1640.42
395.35	1730.53
395.56	1628.14
395.76	1820.64
395.97	1810.40
396.18	1867.75
396.39	1816.55
396.60	2062.30
396.80	1834.98
397.01	1861.60
397.22	1824.74
397.43	1886.18
397.64	1781.73
397.84	1810.40
398.05	1865.70
398.26	1771.49
398.47	1746.92
398.67	1853.41
398.88	1662.95
399.09	1804.26
399.30	1726.44
399.51	1697.77
399.71	1677.29
399.92	1701.86
400.13	1695.72
400.34	1669.09
400.54	1724.39
400.75	1765.35
400.96	1785.83
401.17	1796.07
401.37	1701.86
401.58	1732.58
401.79	1730.53
402.00	1789.92
402.21	2041.82
402.41	1970.15
402.62	1976.29
402.83	2002.91
403.04	2009.06
403.24	1992.67
403.45	1906.66
403.66	1931.23
403.87	1882.08
404.07	1908.71
404.28	1900.52
404.49	1802.21
404.70	1771.49
404.90	1759.21
405.11	1779.68
405.32	1640.42
405.52	1712.10
405.73	1705.96
405.94	1746.92
406.15	1685.48
406.35	1705.96
406.56	1728.49
406.77	1701.86
406.98	1681.38
407.18	1646.57
407.39	1800.16
407.60	1667.05
407.80	1685.48
408.01	1658.85
408.22	1734.63
408.43	1755.11
408.63	1736.68
408.84	1818.60
409.05	1728.49
409.25	1626.09
409.46	1697.77
409.67	1654.76
409.88	1656.81
410.08	1744.87
410.29	1689.57
410.50	1771.49
410.70	1751.01
410.91	1562.60
411.12	1783.78
411.32	1691.62
411.53	1628.14
411.74	1853.41
411.95	1781.73
412.15	1802.21
412.36	1796.07
412.57	1748.97
412.77	1820.64
412.98	1787.88
413.19	1621.99
413.39	1687.53
413.60	1796.07
413.81	1796.07
414.01	1665.00
414.22	1693.67
414.43	1816.55
414.63	1632.23
414.84	1779.68
415.05	1726.44
415.25	1583.08
415.46	1753.06
415.67	1736.68
415.87	1673.19
416.08	1658.85
416.29	1732.58
416.49	1779.68
416.70	1665.00
416.91	1624.04
417.11	1828.84
417.32	1787.88
417.53	1685.48
417.73	1677.29
417.94	1691.62
418.15	1755.11
418.35	1763.30
418.56	1683.43
418.77	1798.12
418.97	1722.34
419.18	1708.01
419.38	1593.32
419.59	1689.57
419.80	1759.21
420.00	1648.61
420.21	1636.33
420.42	1787.88
420.62	1742.82
420.83	1607.66
421.04	1740.77
421.24	1742.82
421.45	1705.96
421.65	1734.63
421.86	1699.81
422.07	1753.06
422.27	1771.49
422.48	1689.57
422.69	1648.61
422.89	1714.15
423.10	1726.44
423.30	1566.70
423.51	1708.01
423.72	1787.88
423.92	1722.34
424.13	1660.90
424.33	1718.25
424.54	1677.29
424.75	1746.92
424.95	1771.49
425.16	1695.72
425.36	1669.09
425.57	1722.34
425.78	1777.64
425.98	1734.63
426.19	1714.15
426.39	1689.57
426.60	1732.58
426.81	1834.98
427.01	1734.63
427.22	1671.14
427.42	1615.85
427.63	1648.61
427.83	1744.87
428.04	1771.49
428.25	1853.41
428.45	1695.72
428.66	1775.59
428.86	1734.63
429.07	1773.54
429.28	1714.15
429.48	1585.13
429.69	1701.86
429.89	1693.67
430.10	1632.23
430.30	1820.64
430.51	1724.39
430.71	1640.42
430.92	1751.01
431.13	1691.62
431.33	1742.82
431.54	1740.77
431.74	1732.58
431.95	1804.26
432.15	1714.15
432.36	1753.06
432.56	1775.59
432.77	1849.32
432.98	1824.74
433.18	1716.20
433.39	1605.61
433.59	1691.62
433.80	1759.21
434.00	1824.74
434.21	1732.58
434.41	1658.85
434.62	1839.08
434.82	1656.81
435.03	1665.00
435.23	1697.77
435.44	1628.14
435.64	1765.35
435.85	1708.01
436.06	1740.77
436.26	1757.16
436.47	1763.30
436.67	1656.81
436.88	1726.44
437.08	1789.92
437.29	1851.36
437.49	1695.72
437.70	1724.39
437.90	1675.24
438.11	1853.41
438.31	1812.45
438.52	1798.12
438.72	1820.64
438.93	1910.75
439.13	1820.64
439.34	1748.97
439.54	1781.73
439.75	1873.89
439.95	1724.39
440.16	1763.30
440.36	1755.11
440.57	1732.58
440.77	1816.55
440.98	1757.16
441.18	1824.74
441.39	1675.24
441.59	1695.72
441.80	1744.87
442.00	1714.15
442.21	1767.40
442.41	1656.81
442.62	1687.53
442.82	1705.96
443.02	1634.28
443.23	1777.64
443.43	1683.43
443.64	1837.03
443.84	1595.37
444.05	1759.21
444.25	1699.81
444.46	1728.49
444.66	1683.43
444.87	1761.25
445.07	1591.27
445.28	1755.11
445.48	1826.79
445.69	1832.93
445.89	1867.75
446.09	1685.48
446.30	1992.67
446.50	2656.22
446.71	3772.36
446.91	4394.94
447.12	4743.10
447.32	4843.45
447.53	4358.08
447.73	3923.91
447.93	3547.08
448.14	3311.57
448.34	3196.88
448.55	2934.74
448.75	2779.09
448.96	2701.27
449.16	2363.36
449.36	2265.05
449.57	2058.21
449.77	1832.93
449.98	1746.92
450.18	1804.26
450.39	1820.64
450.59	1775.59
450.79	1746.92
451.00	1740.77
451.20	1726.44
451.41	1673.19
451.61	1804.26
451.81	1714.15
452.02	1773.54
452.22	1726.44
452.43	1722.34
452.63	1771.49
452.84	1669.09
453.04	1740.77
453.24	1789.92
453.45	1714.15
453.65	1708.01
453.86	1779.68
454.06	1791.97
454.26	1753.06
454.47	1699.81
454.67	1796.07
454.87	1755.11
455.08	1697.77
455.28	1880.04
455.49	1742.82
455.69	1712.10
455.89	1785.83
456.10	1718.25
456.30	1665.00
456.51	1687.53
456.71	1712.10
456.91	1863.65
457.12	1771.49
457.32	1781.73
457.52	1656.81
457.73	1800.16
457.93	1767.40
458.14	1716.20
458.34	1619.94
458.54	1683.43
458.75	1691.62
458.95	1816.55
459.15	1761.25
459.36	1763.30
459.56	1738.73
459.76	1943.52
459.97	1789.92
460.17	1748.97
460.37	1755.11
460.58	1771.49
460.78	1681.38
460.99	1724.39
461.19	1638.38
461.39	1658.85
461.60	1689.57
461.80	1775.59
462.00	1624.04
462.21	1720.29
462.41	1656.81
462.61	1652.71
462.82	1665.00
463.02	1748.97
463.22	1810.40
463.43	1837.03
463.63	1783.78
463.83	1769.44
464.04	1673.19
464.24	1695.72
464.44	1728.49
464.64	1675.24
464.85	1763.30
465.05	1789.92
465.25	1759.21
465.46	1665.00
465.66	1791.97
465.86	1744.87
466.07	1732.58
466.27	1679.33
466.47	1589.22
466.68	1716.20
466.88	1843.17
467.08	1746.92
467.29	1757.16
467.49	1761.25
467.69	1689.57
467.89	1740.77
468.10	1767.40
468.30	1742.82
468.50	1839.08
468.71	1691.62
468.91	1662.95
469.11	1822.69
469.31	1656.81
469.52	1652.71
469.72	1824.74
469.92	1896.42
470.13	1718.25
470.33	1728.49
470.53	1765.35
470.73	2095.07
470.94	2351.07
471.14	2365.40
471.34	2439.13
471.54	2336.73
471.75	2195.42
471.95	2107.36
472.15	2125.79
472.36	2017.25
472.56	2150.37
472.76	2017.25
472.96	1966.05
473.17	1947.62
473.37	1882.08
473.57	1808.36
473.77	1859.56
473.98	1744.87
474.18	1667.05
474.38	1828.84
474.58	1699.81
474.79	1617.90
474.99	1773.54
475.19	1808.36
475.39	1626.09
475.60	1769.44
475.80	1798.12
476.00	1662.95
476.20	1697.77
476.41	1720.29
476.61	1771.49
476.81	1773.54
477.01	1640.42
477.21	1748.97
477.42	1771.49
477.62	1697.77
477.82	1775.59
478.02	1689.57
478.23	1796.07
478.43	1669.09
478.63	1726.44
478.83	1673.19
479.03	1722.34
479.24	1800.16
479.44	1826.79
479.64	1726.44
479.84	1658.85
480.04	1665.00
480.25	1769.44
480.45	1705.96
480.65	1681.38
480.85	1818.60
481.06	1652.71
481.26	1834.98
481.46	1718.25
481.66	1708.01
481.86	1677.29
482.06	1767.40
482.27	1652.71
482.47	1689.57
482.67	1771.49
482.87	1705.96
483.07	1720.29
483.28	1611.75
483.48	1695.72
483.68	1671.14
483.88	1638.38
484.08	1617.90
484.29	1710.05
484.49	1697.77
484.69	1667.05
484.89	1818.60
485.09	1755.11
485.29	1697.77
485.50	1751.01
485.70	1730.53
485.90	1800.16
486.10	1689.57
486.30	1724.39
486.50	1732.58
486.71	1722.34
486.91	1742.82
487.11	1820.64
487.31	1677.29
487.51	1734.63
487.71	1658.85
487.91	1640.42
488.12	1640.42
488.32	1521.64
488.52	1669.09
488.72	1617.90
488.92	1632.23
489.12	1787.88
489.32	1824.74
489.53	1763.30
489.73	1619.94
489.93	1769.44
490.13	1693.67
490.33	1636.33
490.53	1652.71
490.73	1728.49
490.94	1617.90
491.14	1791.97
491.34	1847.27
491.54	2164.70
491.74	2609.11
491.94	2940.88
492.14	3112.91
492.34	2975.70
492.54	2742.23
492.75	2469.85
492.95	2498.52
493.15	2246.62
493.35	2238.43
493.55	2297.82
493.75	2080.74
493.95	2150.37
494.15	2031.58
494.35	1923.04
494.56	1806.31
494.76	1732.58
494.96	1830.88
495.16	1820.64
495.36	1763.30
495.56	1728.49
495.76	1718.25
495.96	1669.09
496.16	1677.29
496.36	1808.36
496.56	1726.44
496.77	1773.54
496.97	1656.81
497.17	1775.59
497.37	1638.38
497.57	1734.63
497.77	1738.73
497.97	1693.67
498.17	1734.63
498.37	1644.52
498.57	1822.69
498.77	1708.01
498.97	1751.01
499.17	1798.12
499.38	1640.42
499.58	1789.92
499.78	1808.36
499.98	1791.97
500.18	1765.35
500.38	1744.87
500.58	1914.85
500.78	2553.82
500.98	4624.31
501.18	5793.70
501.38	6870.94
501.58	7280.53
501.78	6815.64
501.98	5529.52
502.18	5087.15
502.38	4628.41
502.58	4093.89
502.78	3798.98
502.98	3706.82
503.18	3459.02
503.38	3172.30
503.59	2846.68
503.79	2645.98
503.99	2490.33
504.19	2232.29
504.39	2197.47
504.59	2129.89
504.79	2191.33
504.99	2031.58
505.19	1968.10
505.39	1927.14
505.59	1968.10
505.79	1904.61
505.99	1828.84
506.19	1771.49
506.39	1841.12
506.59	1804.26
506.79	1710.05
506.99	1839.08
507.19	1791.97
507.39	1755.11
507.59	1710.05
507.79	1771.49
507.99	1708.01
508.19	1714.15
508.39	1740.77
508.59	1828.84
508.79	1794.02
508.99	1832.93
509.19	1705.96
509.39	1757.16
509.59	1662.95
509.79	1675.24
509.99	1730.53
510.19	1798.12
510.39	1738.73
510.59	1660.90
510.79	1734.63
510.99	1638.38
511.19	1728.49
511.39	1832.93
511.59	1873.89
511.79	1789.92
511.99	1763.30
512.19	1884.13
512.38	1734.63
512.58	1677.29
512.78	1699.81
512.98	1781.73
513.18	1802.21
513.38	1648.61
513.58	1761.25
513.78	1781.73
513.98	1693.67
514.18	1693.67
514.38	1695.72
514.58	1650.66
514.78	1740.77
514.98	1683.43
515.18	1669.09
515.38	1667.05
515.58	1863.65
515.78	1732.58
515.98	1644.52
516.18	1806.31
516.38	1732.58
516.57	1695.72
516.77	1658.85
516.97	1742.82
517.17	1685.48
517.37	1660.90
517.57	1824.74
517.77	1708.01
517.97	1615.85
518.17	1728.49
518.37	1691.62
518.57	1609.70
518.77	1726.44
518.97	1714.15
519.16	1832.93
519.36	1777.64
519.56	1751.01
519.76	1740.77
519.96	1693.67
520.16	1843.17
520.36	1656.81
520.56	1806.31
520.76	1669.09
520.96	1814.50
521.16	1849.32
521.35	1800.16
521.55	1802.21
521.75	1748.97
521.95	1667.05
522.15	1699.81
522.35	1621.99
522.55	1646.57
522.75	1765.35
522.95	1669.09
523.14	1746.92
523.34	1744.87
523.54	1673.19
523.74	1785.83
523.94	1796.07
524.14	1605.61
524.34	1740.77
524.54	1744.87
524.73	1755.11
524.93	1748.97
525.13	1726.44
525.33	1658.85
525.53	1789.92
525.73	1789.92
525.93	1652.71
526.13	1714.15
526.32	1740.77
526.52	1822.69
526.72	1703.91
526.92	1660.90
527.12	1716.20
527.32	1671.14
527.52	1759.21
527.71	1771.49
527.91	1697.77
528.11	1667.05
528.31	1751.01
528.51	1648.61
528.71	1703.91
528.90	1753.06
529.10	1853.41
529.30	1865.70
529.50	1593.32
529.70	1726.44
529.90	1671.14
530.09	1765.35
530.29	1675.24
530.49	1697.77
530.69	1853.41
530.89	1748.97
531.09	1798.12
531.28	1802.21
531.48	1812.45
531.68	1800.16
531.88	1724.39
532.08	1759.21
532.28	1714.15
532.47	1763.30
532.67	1685.48
532.87	1710.05
533.07	1695.72
533.27	1765.35
533.46	1667.05
533.66	1802.21
533.86	1687.53
534.06	1705.96
534.26	1730.53
534.45	1656.81
534.65	1775.59
534.85	1755.11
535.05	1642.47
535.25	1812.45
535.44	1632.23
535.64	1800.16
535.84	1695.72
536.04	1728.49
536.24	1755.11
536.43	1621.99
536.63	1826.79
536.83	1736.68
537.03	1740.77
537.22	1648.61
537.42	1689.57
537.62	1755.11
537.82	1679.33
538.02	1765.35
538.21	1812.45
538.41	1857.51
538.61	1722.34
538.81	1791.97
539.00	1820.64
539.20	1644.52
539.40	1683.43
539.60	1675.24
539.79	1755.11
539.99	1677.29
540.19	1642.47
540.39	1718.25
540.58	1783.78
540.78	1736.68
540.98	1746.92
541.18	1751.01
541.37	1791.97
541.57	1785.83
541.77	1800.16
541.97	1687.53
542.16	1667.05
542.36	1613.80
542.56	1724.39
542.76	1779.68
542.95	1728.49
543.15	1712.10
543.35	1714.15
543.54	1718.25
543.74	1701.86
543.94	1794.02
544.14	1669.09
544.33	1748.97
544.53	1742.82
544.73	1683.43
544.93	1697.77
545.12	1644.52
545.32	1757.16
545.52	1710.05
545.71	1658.85
545.91	1736.68
546.11	1800.16
546.30	1710.05
546.50	1738.73
546.70	1779.68
546.90	1740.77
547.09	1728.49
547.29	1722.34
547.49	1753.06
547.68	1742.82
547.88	1720.29
548.08	1710.05
548.27	2136.03
548.47	1742.82
548.67	1671.14
548.87	1789.92
549.06	1736.68
549.26	1746.92
549.46	1689.57
549.65	1646.57
549.85	1724.39
550.05	1783.78
550.24	1673.19
550.44	1720.29
550.64	1785.83
550.83	1728.49
551.03	1832.93
551.23	1802.21
551.42	1798.12
551.62	1656.81
551.82	1734.63
552.01	1757.16
552.21	1804.26
552.41	1691.62
552.60	1744.87
552.80	1804.26
553.00	1695.72
553.19	1767.40
553.39	1751.01
553.59	1667.05
553.78	1736.68
553.98	1765.35
554.17	1621.99
554.37	1798.12
554.57	1722.34
554.76	1581.03
554.96	1681.38
555.16	1728.49
555.35	1765.35
555.55	1767.40
555.75	1726.44
555.94	1800.16
556.14	1656.81
556.33	1781.73
556.53	1712.10
556.73	1705.96
556.92	1767.40
557.12	1865.70
557.32	1814.50
557.51	1828.84
557.71	1769.44
557.90	1865.70
558.10	1847.27
558.30	1777.64
558.49	1705.96
558.69	1734.63
558.88	1804.26
559.08	1730.53
559.28	1695.72
559.47	1697.77
559.67	1785.83
559.86	1787.88
560.06	1779.68
560.26	1697.77
560.45	1740.77
560.65	1728.49
560.84	1775.59
561.04	1646.57
561.24	1796.07
561.43	1679.33
561.63	1785.83
561.82	1775.59
562.02	1796.07
562.22	1662.95
562.41	1665.00
562.61	1748.97
562.80	1656.81
563.00	1814.50
563.19	1791.97
563.39	1695.72
563.59	1679.33
563.78	1646.57
563.98	1681.38
564.17	1730.53
564.37	1679.33
564.56	1742.82
564.76	1726.44
564.96	1771.49
565.15	1753.06
565.35	1873.89
565.54	1748.97
565.74	1812.45
565.93	1736.68
566.13	1808.36
566.32	1730.53
566.52	1728.49
566.71	1701.86
566.91	1800.16
567.11	1732.58
567.30	1734.63
567.50	1814.50
567.69	1701.86
567.89	1751.01
568.08	1626.09
568.28	1789.92
568.47	1648.61
568.67	1728.49
568.86	1728.49
569.06	1804.26
569.25	1755.11
569.45	1648.61
569.64	1726.44
569.84	1714.15
570.04	1779.68
570.23	1677.29
570.43	1751.01
570.62	1736.68
570.82	1914.85
571.01	1677.29
571.21	1738.73
571.40	1771.49
571.60	1738.73
571.79	1812.45
571.99	1720.29
572.18	1665.00
572.38	1689.57
572.57	1683.43
572.77	1728.49
572.96	1828.84
573.16	1798.12
573.35	1748.97
573.55	1859.56
573.74	1869.80
573.94	1697.77
574.13	1726.44
574.33	1837.03
574.52	1800.16
574.71	1677.29
574.91	1834.98
575.10	1642.47
575.30	1710.05
575.49	1652.71
575.69	1718.25
575.88	1748.97
576.08	1710.05
576.27	1757.16
576.47	1761.25
576.66	1886.18
576.86	1818.60
577.05	1746.92
577.25	1779.68
577.44	1855.46
577.64	1767.40
577.83	1781.73
578.02	1738.73
578.22	1806.31
578.41	1834.98
578.61	1621.99
578.80	1683.43
579.00	1802.21
579.19	1693.67
579.39	1740.77
579.58	1802.21
579.77	1689.57
579.97	1900.52
580.16	1757.16
580.36	1722.34
580.55	1857.51
580.75	1826.79
580.94	1787.88
581.13	1843.17
581.33	1830.88
581.52	1769.44
581.72	1857.51
581.91	1904.61
582.11	1796.07
582.30	1730.53
582.49	1789.92
582.69	1910.75
582.88	1828.84
583.08	1841.12
583.27	1886.18
583.47	1767.40
583.66	1763.30
583.85	1828.84
584.05	1777.64
584.24	1769.44
584.44	1777.64
584.63	1816.55
584.82	1806.31
585.02	1824.74
585.21	1857.51
585.41	1894.37
585.60	1845.22
585.79	1939.43
585.99	1863.65
586.18	1832.93
586.37	2220.00
586.57	3456.97
586.76	10053.48
586.96	24761.99
587.15	35208.68
587.34	40977.81
587.54	43056.50
587.73	37600.71
587.93	26736.23
588.12	22046.38
588.31	18693.86
588.51	16592.64
588.70	15488.79
588.89	14298.92
589.09	12785.47
589.28	11147.09
589.47	9598.83
589.67	8161.16
589.86	6678.43
590.06	5087.15
590.25	3966.92
590.44	3155.92
590.64	2613.21
590.83	2295.77
591.02	2123.74
591.22	1955.81
591.41	1939.43
591.60	1822.69
591.80	1941.47
591.99	1794.02
592.18	1744.87
592.38	1849.32
592.57	1808.36
592.76	1765.35
592.96	1820.64
593.15	1798.12
593.34	1802.21
593.54	1794.02
593.73	1843.17
593.92	1755.11
594.12	1794.02
594.31	1736.68
594.50	1734.63
594.70	1800.16
594.89	1826.79
595.08	1648.61
595.28	1791.97
595.47	1920.99
595.66	1728.49
595.86	1695.72
596.05	1699.81
596.24	1716.20
596.43	1789.92
596.63	1824.74
596.82	1722.34
597.01	1665.00
597.21	1839.08
597.40	1802.21
597.59	1744.87
597.79	1701.86
597.98	1755.11
598.17	1693.67
598.36	1716.20
598.56	1728.49
598.75	1677.29
598.94	1675.24
599.14	1826.79
599.33	1693.67
599.52	1779.68
599.71	1714.15
599.91	1867.75
600.10	1806.31
600.29	1757.16
600.48	1732.58
600.68	1802.21
600.87	1812.45
601.06	1636.33
601.26	1767.40
601.45	1742.82
601.64	1691.62
601.83	1820.64
602.03	1689.57
602.22	1613.80
602.41	1781.73
602.60	1810.40
602.80	1763.30
602.99	1697.77
603.18	1730.53
603.37	1675.24
603.57	1724.39
603.76	1800.16
603.95	1759.21
604.14	1718.25
604.34	1710.05
604.53	1771.49
604.72	1742.82
604.91	1779.68
605.10	1718.25
605.30	1683.43
605.49	1812.45
605.68	1708.01
605.87	1726.44
606.07	1716.20
606.26	1753.06
606.45	1767.40
606.64	1716.20
606.84	1755.11
607.03	1748.97
607.22	1773.54
607.41	1699.81
607.60	1763.30
607.80	1744.87
607.99	1681.38
608.18	1712.10
608.37	1685.48
608.56	1740.77
608.76	1787.88
608.95	1808.36
609.14	1720.29
609.33	1773.54
609.52	1804.26
609.72	1740.77
609.91	1732.58
610.10	1759.21
610.29	1787.88
610.48	1753.06
610.68	1753.06
610.87	1746.92
611.06	1810.40
611.25	1751.01
611.44	1763.30
611.63	1728.49
611.83	1748.97
612.02	1689.57
612.21	1751.01
612.40	1628.14
612.59	1652.71
612.79	1708.01
612.98	1775.59
613.17	1818.60
613.36	1701.86
613.55	1763.30
613.74	1726.44
613.93	1710.05
614.13	1751.01
614.32	1730.53
614.51	1755.11
614.70	1726.44
614.89	1675.24
615.08	1755.11
615.28	2103.26
615.47	1656.81
615.66	1763.30
615.85	1658.85
616.04	1834.98
616.23	1687.53
616.42	1669.09
616.62	1732.58
616.81	1810.40
617.00	1736.68
617.19	1830.88
617.38	1683.43
617.57	1738.73
617.76	1757.16
617.95	1705.96
618.15	1822.69
618.34	1820.64
618.53	1656.81
618.72	1763.30
618.91	1865.70
619.10	1839.08
619.29	1705.96
619.48	1701.86
619.68	1683.43
619.87	1742.82
620.06	1656.81
620.25	1697.77
620.44	1669.09
620.63	1689.57
620.82	1742.82
621.01	1679.33
621.20	1724.39
621.39	1730.53
621.59	1738.73
621.78	1708.01
621.97	1753.06
622.16	1699.81
622.35	1695.72
622.54	1810.40
622.73	1800.16
622.92	1648.61
623.11	1755.11
623.30	1730.53
623.49	1708.01
623.68	1744.87
623.88	1800.16
624.07	1712.10
624.26	1814.50
624.45	1781.73
624.64	1724.39
624.83	1667.05
625.02	1732.58
625.21	1667.05
625.40	1761.25
625.59	1781.73
625.78	1738.73
625.97	1765.35
626.16	1769.44
626.35	1748.97
626.54	1740.77
626.74	1765.35
626.93	1769.44
627.12	1648.61
627.31	1794.02
627.50	1757.16
627.69	1789.92
627.88	1673.19
628.07	1712.10
628.26	1665.00
628.45	1697.77
628.64	1658.85
628.83	1800.16
629.02	1640.42
629.21	1708.01
629.40	1701.86
629.59	1671.14
629.78	1714.15
629.97	1740.77
630.16	1714.15
630.35	1697.77
630.54	1708.01
630.73	1626.09
630.92	1765.35
631.11	1683.43
631.30	1685.48
631.49	1757.16
631.68	1658.85
631.87	1708.01
632.06	1634.28
632.25	1839.08
632.44	1701.86
632.63	1683.43
632.82	1648.61
633.01	1695.72
633.20	1691.62
633.39	1624.04
633.58	1617.90
633.77	1689.57
633.96	1775.59
634.15	1765.35
634.34	1773.54
634.53	1636.33
634.72	1634.28
634.91	1656.81
635.10	1699.81
635.29	1800.16
635.48	1753.06
635.67	1636.33
635.86	1656.81
636.05	1744.87
636.24	1697.77
636.43	1753.06
636.62	1755.11
636.81	1521.64
637.00	1722.34
637.19	1763.30
637.38	1783.78
637.57	1712.10
637.76	1689.57
637.95	1783.78
638.14	1669.09
638.33	1699.81
638.52	1773.54
638.71	1611.75
638.89	1601.51
639.08	1826.79
639.27	1738.73
639.46	1669.09
639.65	1789.92
639.84	1753.06
640.03	1783.78
640.22	1701.86
640.41	1722.34
640.60	1683.43
640.79	1722.34
640.98	1691.62
641.17	1730.53
641.36	1718.25
641.55	1800.16
641.74	1716.20
641.92	1683.43
642.11	1689.57
642.30	1755.11
642.49	1683.43
642.68	1667.05
642.87	1644.52
643.06	1763.30
643.25	1677.29
643.44	1640.42
643.63	1730.53
643.82	1658.85
644.00	1669.09
644.19	1724.39
644.38	1601.51
644.57	1746.92
644.76	1820.64
644.95	1685.48
645.14	1722.34
645.33	1640.42
645.52	1710.05
645.71	1695.72
645.89	1703.91
646.08	1734.63
646.27	1753.06
646.46	1789.92
646.65	1660.90
646.84	1757.16
647.03	1685.48
647.22	1755.11
647.40	1798.12
647.59	1705.96
647.78	1722.34
647.97	1714.15
648.16	1703.91
648.35	1794.02
648.54	1681.38
648.73	1705.96
648.91	1689.57
649.10	1679.33
649.29	1605.61
649.48	1732.58
649.67	1734.63
649.86	1714.15
650.05	1669.09
650.23	1777.64
650.42	1648.61
650.61	1796.07
650.80	1763.30
650.99	1791.97
651.18	1769.44
651.36	1763.30
651.55	1716.20
651.74	1714.15
651.93	1640.42
652.12	1708.01
652.31	1746.92
652.49	1662.95
652.68	1626.09
652.87	1791.97
653.06	1695.72
653.25	1800.16
653.44	1689.57
653.62	1802.21
653.81	1701.86
654.00	1722.34
654.19	1837.03
654.38	1837.03
654.56	1755.11
654.75	1703.91
654.94	1757.16
655.13	1751.01
655.32	1705.96
655.51	1693.67
655.69	1667.05
655.88	1794.02
656.07	1658.85
656.26	1761.25
656.45	1597.42
656.63	1755.11
656.82	1748.97
657.01	1806.31
657.20	1710.05
657.38	1763.30
657.57	1712.10
657.76	1624.04
657.95	1724.39
658.14	1654.76
658.32	1685.48
658.51	1726.44
658.70	1771.49
658.89	1724.39
659.08	1656.81
659.26	1732.58
659.45	1681.38
659.64	1765.35
659.83	1718.25
660.01	1820.64
660.20	1757.16
660.39	1865.70
660.58	1681.38
660.76	1744.87
660.95	1652.71
661.14	1677.29
661.33	1724.39
661.51	1656.81
661.70	1744.87
661.89	1773.54
662.08	1669.09
662.26	1667.05
662.45	1658.85
662.64	1843.17
662.83	1785.83
663.01	1636.33
663.20	1726.44
663.39	1814.50
663.58	1603.56
663.76	1708.01
663.95	1751.01
664.14	1744.87
664.32	1650.66
664.51	1675.24
664.70	1603.56
664.89	1689.57
665.07	1652.71
665.26	1767.40
665.45	1648.61
665.64	1814.50
665.82	1736.68
666.01	1740.77
666.20	1665.00
666.38	1781.73
666.57	1830.88
666.76	2197.47
666.95	4505.53
667.13	10463.07
667.32	15628.05
667.51	18077.42
667.69	19427.03
667.88	18079.47
668.07	12699.45
668.25	9844.59
668.44	8349.57
668.63	7411.60
668.81	6924.18
669.00	6481.82
669.19	5908.39
669.38	5253.04
669.56	4573.11
669.75	3952.58
669.94	3401.68
670.12	2815.96
670.31	2564.06
670.50	2238.43
670.68	2019.30
670.87	1966.05
671.06	1744.87
671.24	1806.31
671.43	1882.08
671.62	1687.53
671.80	1705.96
671.99	1773.54
672.18	1804.26
672.36	1800.16
672.55	1722.34
672.74	1683.43
672.92	1681.38
673.11	1744.87
673.29	1675.24
673.48	1812.45
673.67	1708.01
673.85	1785.83
674.04	1683.43
674.23	1648.61
674.41	1808.36
674.60	1728.49
674.79	1599.46
674.97	1673.19
675.16	1720.29
675.34	1804.26
675.53	1685.48
675.72	1828.84
675.90	1767.40
676.09	1660.90
676.28	1597.42
676.46	1669.09
676.65	1746.92
676.83	1654.76
677.02	1775.59
677.21	1738.73
677.39	1728.49
677.58	1693.67
677.77	1724.39
677.95	1660.90
678.14	1640.42
678.32	1728.49
678.51	1626.09
678.70	1832.93
678.88	1642.47
679.07	1726.44
679.25	1751.01
679.44	1734.63
679.63	1617.90
679.81	1671.14
680.00	1808.36
680.18	1720.29
680.37	1699.81
680.55	1742.82
680.74	1595.37
680.93	1607.66
681.11	1697.77
681.30	1687.53
681.48	1716.20
681.67	1679.33
681.85	1703.91
682.04	1656.81
682.23	1855.46
682.41	1724.39
682.60	1787.88
682.78	1665.00
682.97	1650.66
683.15	1767.40
683.34	1722.34
683.53	1783.78
683.71	1724.39
683.90	1822.69
684.08	1814.50
684.27	1697.77
684.45	1720.29
684.64	1826.79
684.82	1738.73
685.01	1746.92
685.19	1703.91
685.38	1769.44
685.57	1703.91
685.75	1660.90
685.94	1695.72
686.12	1636.33
686.31	1662.95
686.49	1800.16
686.68	1669.09
686.86	1791.97
687.05	1740.77
687.23	1761.25
687.42	1660.90
687.60	1613.80
687.79	1701.86
687.97	1761.25
688.16	1757.16
688.34	1841.12
688.53	1617.90
688.71	1720.29
688.90	1736.68
689.08	1679.33
689.27	1560.55
689.45	1789.92
689.64	1689.57
689.82	1759.21
690.01	1740.77
690.19	1685.48
690.38	1759.21
690.56	1765.35
690.75	1632.23
690.93	1621.99
691.12	1687.53
691.30	1742.82
691.49	1650.66
691.67	1761.25
691.86	1800.16
692.04	1716.20
692.23	1675.24
692.41	1677.29
692.60	1880.04
692.78	1794.02
692.97	1630.18
693.15	1650.66
693.34	1785.83
693.52	1759.21
693.71	1697.77
693.89	1646.57
694.08	1628.14
694.26	1779.68
694.44	1738.73
694.63	1767.40
694.81	1679.33
695.00	1675.24
695.18	1767.40
695.37	1853.41
695.55	1755.11
695.74	1714.15
695.92	1701.86
696.10	1755.11
696.29	1572.84
696.47	1691.62
696.66	1683.43
696.84	1712.10
697.03	1628.14
697.21	1804.26
697.40	2285.53
697.58	1740.77
697.76	1667.05
697.95	1609.70
698.13	1585.13
698.32	1701.86
698.50	1624.04
698.68	1757.16
698.87	1763.30
699.05	1746.92
699.24	1767.40
699.42	1738.73
699.61	1767.40
699.79	1605.61
699.97	1746.92
700.16	1587.18
700.34	1628.14
700.53	1742.82
700.71	1767.40
700.89	1712.10
701.08	1804.26
701.26	1681.38
701.45	2086.88
701.63	1746.92
701.81	1669.09
702.00	1650.66
702.18	1720.29
702.37	1646.57
702.55	1734.63
702.73	1728.49
702.92	1638.38
703.10	1742.82
703.28	1710.05
703.47	1626.09
703.65	1693.67
703.84	1738.73
704.02	1765.35
704.20	1763.30
704.39	1617.90
704.57	1695.72
704.75	1808.36
704.94	1789.92
705.12	1632.23
705.30	1724.39
705.49	2254.81
705.67	4394.94
705.86	9553.77
706.04	12838.72
706.22	14608.16
706.41	15519.51
706.59	13995.82
706.77	9772.91
706.96	7565.20
707.14	6758.30
707.32	6166.43
707.51	5601.19
707.69	4870.07
707.87	4255.68
708.06	3604.42
708.24	3030.99
708.42	2418.65
708.61	2207.71
708.79	1937.38
708.97	1908.71
709.16	1773.54
709.34	1796.07
709.52	1730.53
709.71	1730.53
709.89	1843.17
710.07	1761.25
710.26	1730.53
710.44	1820.64
710.62	1791.97
710.80	1708.01
710.99	1800.16
711.17	1759.21
711.35	1630.18
711.54	1746.92
711.72	1785.83
711.90	1761.25
712.09	1683.43
712.27	1697.77
712.45	1783.78
712.63	1644.52
712.82	1744.87
713.00	1671.14
713.18	1779.68
713.37	1822.69
713.55	1730.53
713.73	1683.43
713.91	1746.92
714.10	1632.23
714.28	1701.86
714.46	1740.77
714.65	1693.67
714.83	1732.58
715.01	1710.05
715.19	1710.05
715.38	1722.34
715.56	1769.44
715.74	1705.96
715.92	1685.48
716.11	1746.92
716.29	1648.61
716.47	1619.94
716.65	1624.04
716.84	1650.66
717.02	1738.73
717.20	1638.38
717.38	1701.86
717.57	1697.77
717.75	1705.96
717.93	1621.99
718.11	1683.43
718.30	1624.04
718.48	1757.16
718.66	1759.21
718.84	1726.44
719.03	1665.00
719.21	1667.05
719.39	1767.40
719.57	1718.25
719.75	1781.73
719.94	1716.20
720.12	1691.62
720.30	1691.62
720.48	1759.21
720.67	1685.48
720.85	1609.70
721.03	1728.49
721.21	1675.24
721.39	1853.41
721.58	1738.73
721.76	1712.10
721.94	1708.01
722.12	1708.01
722.30	1830.88
722.49	1658.85
722.67	1712.10
722.85	1681.38
723.03	1650.66
723.21	1656.81
723.40	1718.25
723.58	1714.15
723.76	1722.34
723.94	1755.11
724.12	1771.49
724.30	1771.49
724.49	1691.62
724.67	1648.61
724.85	1847.27
725.03	1699.81
725.21	1714.15
725.40	1779.68
725.58	1654.76
725.76	1751.01
725.94	1695.72
726.12	1593.32
726.30	1732.58
726.49	1665.00
726.67	1687.53
726.85	1708.01
727.03	1789.92
727.21	2136.03
727.39	2861.01
727.57	3776.45
727.76	4335.55
727.94	4532.15
728.12	4478.91
728.30	3833.80
728.48	3084.24
728.66	2701.27
728.84	2588.63
729.03	2330.59
729.21	2127.84
729.39	1978.34
729.57	1853.41
729.75	1763.30
729.93	1832.93
730.11	1791.97
730.30	1726.44
730.48	1767.40
730.66	1761.25
730.84	1796.07
731.02	1742.82
731.20	1716.20
731.38	1667.05
731.56	1583.08
731.74	1646.57
731.93	1683.43
732.11	1728.49
732.29	1722.34
732.47	1716.20
732.65	1669.09
732.83	1828.84
733.01	1689.57
733.19	1665.00
733.37	1685.48
733.56	1755.11
733.74	1705.96
733.92	1757.16
734.10	1767.40
734.28	1703.91
734.46	1615.85
734.64	1656.81
734.82	1683.43
735.00	1673.19
735.18	1751.01
735.36	1726.44
735.54	1720.29
735.73	1757.16
735.91	1767.40
736.09	1773.54
736.27	1650.66
736.45	1746.92
736.63	1644.52
736.81	1671.14
736.99	1775.59
737.17	1769.44
737.35	1634.28
737.53	1693.67
737.71	1691.62
737.89	1841.12
738.07	1736.68
738.25	1667.05
738.43	1644.52
738.61	1695.72
738.80	1677.29
738.98	1703.91
739.16	1703.91
739.34	1652.71
739.52	1824.74
739.70	1646.57
739.88	1722.34
740.06	1753.06
740.24	1656.81
740.42	1734.63
740.60	1593.32
740.78	1656.81
740.96	1611.75
741.14	1658.85
741.32	1699.81
741.50	1611.75
741.68	1855.46
741.86	1689.57
742.04	1699.81
742.22	1660.90
742.40	1789.92
742.58	1759.21
742.76	1751.01
742.94	1710.05
743.12	1621.99
743.30	1636.33
743.48	1716.20
743.66	1683.43
743.84	1691.62
744.02	1675.24
744.20	1665.00
744.38	1675.24
744.56	1681.38
744.74	1779.68
744.92	1769.44
745.10	1753.06
745.28	1650.66
745.46	1781.73
745.64	1679.33
745.82	1744.87
746.00	1710.05
746.18	1669.09
746.36	1658.85
746.54	1703.91
746.72	1722.34
746.90	1619.94
747.08	1814.50
747.26	1710.05
747.44	1820.64
747.62	1738.73
747.80	1777.64
747.98	1744.87
748.15	1669.09
748.33	1783.78
748.51	1654.76
748.69	1703.91
748.87	1568.74
749.05	1701.86
749.23	1746.92
749.41	1767.40
749.59	1697.77
749.77	1726.44
749.95	1777.64
750.13	1636.33
750.31	1673.19
750.49	1748.97
750.67	1748.97
750.85	1765.35
751.03	1724.39
751.20	1847.27
751.38	1720.29
751.56	1685.48
751.74	1673.19
751.92	1654.76
752.10	1632.23
752.28	1777.64
752.46	1656.81
752.64	1689.57
752.82	1730.53
753.00	1732.58
753.18	1742.82
753.35	1632.23
753.53	1607.66
753.71	1619.94
753.89	1800.16
754.07	1755.11
754.25	1738.73
754.43	1665.00
754.61	1685.48
754.79	1718.25
754.97	1718.25
755.14	1736.68
755.32	1607.66
755.50	1660.90
755.68	1755.11
755.86	1681.38
756.04	1673.19
756.22	1650.66
756.40	1812.45
756.57	1738.73
756.75	1708.01
756.93	1761.25
757.11	1693.67
757.29	1648.61
757.47	1626.09
757.65	1646.57
757.82	1611.75
758.00	1697.77
758.18	1611.75
758.36	1654.76
758.54	1691.62
758.72	1675.24
758.90	1779.68
759.07	1751.01
759.25	1669.09
759.43	1787.88
759.61	1587.18
759.79	2224.09
759.97	1660.90
760.15	1710.05
760.32	1726.44
760.50	1708.01
760.68	1806.31
760.86	1656.81
761.04	1746.92
761.22	1701.86
761.39	1701.86
761.57	1740.77
761.75	1705.96
761.93	1753.06
762.11	1583.08
762.28	1673.19
762.46	1669.09
762.64	1730.53
762.82	1691.62
763.00	1652.71
763.18	1783.78
763.35	1665.00
763.53	1724.39
763.71	1656.81
763.89	1703.91
764.07	1767.40
764.24	1681.38
764.42	1773.54
764.60	1769.44
764.78	1718.25
764.96	1722.34
765.13	1796.07
765.31	1673.19
765.49	1748.97
765.67	1628.14
765.84	1703.91
766.02	1734.63
766.20	1658.85
766.38	1798.12
766.56	1734.63
766.73	1769.44
766.91	1705.96
767.09	1703.91
767.27	1738.73
767.44	1601.51
767.62	1712.10
767.80	1724.39
767.98	1705.96
768.15	1615.85
768.33	1744.87
768.51	1642.47
768.69	1855.46
768.87	1789.92
769.04	1689.57
769.22	1763.30
769.40	1773.54
769.58	1861.60
769.75	1677.29
769.93	1773.54
770.11	1677.29
770.28	1685.48
770.46	1753.06
770.64	1714.15
770.82	1685.48
770.99	1708.01
771.17	1673.19
771.35	1746.92
771.53	1621.99
771.70	1656.81
771.88	1812.45
772.06	1683.43
772.23	1701.86
772.41	1777.64
772.59	1703.91
772.77	1689.57
772.94	1648.61
773.12	1730.53
773.30	1681.38
773.47	1746.92
773.65	1677.29
773.83	1783.78
774.01	1695.72
774.18	1593.32
774.36	1683.43
774.54	1646.57
774.71	1787.88
774.89	1636.33
775.07	1665.00
775.24	1656.81
775.42	1689.57
775.60	1765.35
775.78	1677.29
775.95	1685.48
776.13	1591.27
776.31	1550.31
776.48	1710.05
776.66	1828.84
776.84	1693.67
777.01	1675.24
777.19	1589.22
777.37	1734.63
777.54	1650.66
777.72	1873.89
777.90	1646.57
778.07	1679.33
778.25	1818.60
778.43	1746.92
778.60	1607.66
778.78	1765.35
778.96	1755.11
779.13	1611.75
779.31	1718.25
779.49	1679.33
779.66	1708.01
779.84	1748.97
780.01	1769.44
780.19	1603.56
780.37	1714.15
780.54	1710.05
780.72	1597.42
780.90	1681.38
781.07	1613.80
781.25	1689.57
781.43	1791.97
781.60	1665.00
781.78	1662.95
781.95	1697.77
782.13	1646.57
782.31	1673.19
782.48	1611.75
782.66	1677.29
782.83	1791.97
783.01	1771.49
783.19	1763.30
783.36	1726.44
783.54	1667.05
783.72	1699.81
783.89	1640.42
784.07	1763.30
784.24	1718.25
784.42	1740.77
784.60	1712.10
784.77	1783.78
784.95	1621.99
785.12	1681.38
785.30	1755.11
785.47	1640.42
785.65	1630.18
785.83	1644.52
786.00	1671.14
786.18	1665.00
786.35	1669.09
786.53	1665.00
786.71	1746.92
786.88	1705.96
787.06	1771.49
787.23	1652.71
787.41	1689.57
787.58	1689.57
787.76	1658.85
787.94	1673.19
788.11	1705.96
788.29	1628.14
788.46	1607.66
788.64	1589.22
788.81	1693.67
788.99	1615.85
789.16	1681.38
789.34	1675.24
789.52	1740.77
789.69	1730.53
789.87	1632.23
790.04	1683.43
790.22	1669.09
790.39	1794.02
790.57	1634.28
790.74	1648.61
790.92	1732.58
791.09	1632.23
791.27	1619.94
791.44	1757.16
791.62	1660.90
791.79	1775.59
791.97	1613.80
792.15	1886.18
792.32	1722.34
792.50	1775.59
792.67	1789.92
792.85	1816.55
793.02	1751.01
793.20	1689.57
793.37	1581.03
793.55	1621.99
793.72	1665.00
793.90	1755.11
794.07	1691.62
794.25	1744.87
794.42	1732.58
794.60	1724.39
794.77	1722.34
794.95	1697.77
795.12	1703.91
795.30	1693.67
795.47	1613.80
795.65	1800.16
795.82	1685.48
796.00	1619.94
796.17	1636.33
796.34	1677.29
796.52	1708.01
796.69	1808.36
796.87	1734.63
797.04	1785.83
797.22	1675.24
797.39	1718.25
797.57	1740.77
797.74	1681.38
797.92	1689.57
798.09	1755.11
798.27	1773.54
798.44	1757.16
798.62	1718.25
798.79	1619.94
798.96	1697.77
799.14	1730.53
799.31	1843.17
799.49	1705.96
799.66	1697.77
799.84	1714.15
800.01	1642.47
800.19	1689.57
800.36	1609.70
800.53	1718.25
800.71	1677.29
800.88	1851.36
801.06	1683.43
801.23	1667.05
801.41	1705.96
801.58	1665.00
801.75	1656.81
801.93	1714.15
802.10	1714.15
802.28	1763.30
802.45	1683.43
802.63	1738.73
802.80	1771.49
802.97	1650.66
803.15	1697.77
803.32	1642.47
803.50	1652.71
803.67	1665.00
803.84	1677.29
804.02	1734.63
804.19	1654.76
804.37	1601.51
804.54	1642.47
804.71	1609.70
804.89	1693.67
805.06	1675.24
805.24	1695.72
805.41	1615.85
805.58	1630.18
805.76	1796.07
805.93	1734.63
806.10	1787.88
806.28	1689.57
806.45	1771.49
806.63	1718.25
806.80	1673.19
806.97	1773.54
807.15	1767.40
807.32	1626.09
807.49	1673.19
807.67	1638.38
807.84	1751.01
808.01	1671.14
808.19	1832.93
808.36	1820.64
808.54	1673.19
808.71	1675.24
808.88	1689.57
809.06	1679.33
809.23	1837.03
809.40	1626.09
809.58	1759.21
809.75	1701.86
809.92	1613.80
810.10	1863.65
810.27	1767.40
810.44	1730.53
810.62	1697.77
810.79	1683.43
810.96	1681.38
811.14	1624.04
811.31	1691.62
811.48	1669.09
811.66	1722.34
811.83	1716.20
812.00	1693.67
812.18	1683.43
812.35	1853.41
812.52	1673.19
812.69	1703.91
812.87	1654.76
813.04	1673.19
813.21	1656.81
813.39	1650.66
813.56	1720.29
813.73	1738.73
813.91	1609.70
814.08	1744.87
814.25	1705.96
814.42	1665.00
814.60	1654.76
814.77	1751.01
814.94	1646.57
815.12	1736.68
815.29	1837.03
815.46	1697.77
815.63	1742.82
815.81	1685.48
815.98	1693.67
816.15	1687.53
816.33	1722.34
816.50	1843.17
816.67	1712.10
816.84	1675.24
817.02	1675.24
817.19	1605.61
817.36	1695.72
817.53	1796.07
817.71	1652.71
817.88	1751.01
818.05	1640.42
818.22	1703.91
818.40	1918.95
818.57	1689.57
818.74	1691.62
818.91	1650.66
819.09	1736.68
819.26	1736.68
819.43	1654.76
819.60	1675.24
819.78	1730.53
819.95	1732.58
820.12	1703.91
820.29	1734.63
820.47	1703.91
820.64	1722.34
820.81	1642.47
820.98	1617.90
821.15	1677.29
821.33	1724.39
821.50	1665.00
821.67	1751.01
821.84	1695.72
822.02	1701.86
822.19	1714.15
822.36	1640.42
822.53	1634.28
822.70	1673.19
822.88	1654.76
823.05	1740.77
823.22	1724.39
823.39	1746.92
823.56	1677.29
823.74	1882.08
823.91	1689.57
824.08	1624.04
824.25	1662.95
824.42	1773.54
824.60	1638.38
824.77	1720.29
824.94	1722.34
825.11	1732.58
825.28	1660.90
825.45	1767.40
825.63	1693.67
825.80	1683.43
825.97	1681.38
826.14	1667.05
826.31	1624.04
826.48	1781.73
826.66	1669.09
826.83	1648.61
827.00	1710.05
827.17	1656.81
827.34	1718.25
827.51	1673.19
827.69	1671.14
827.86	1667.05
828.03	1677.29
828.20	1609.70
828.37	1665.00
828.54	1730.53
828.71	1736.68
828.89	1798.12
829.06	1689.57
829.23	1794.02
829.40	1693.67
829.57	1701.86
829.74	1658.85
829.91	1638.38
830.09	1693.67
830.26	1742.82
830.43	1748.97
830.60	1751.01
830.77	1705.96
830.94	1755.11
831.11	1775.59
831.28	1705.96
831.46	1720.29
831.63	1646.57
831.80	1748.97
831.97	1697.77
832.14	1685.48
832.31	1736.68
832.48	1705.96
832.65	1746.92
832.82	1734.63
832.99	1697.77
833.17	1529.83
833.34	1796.07
833.51	1773.54
833.68	1626.09
833.85	1693.67
834.02	1732.58
834.19	1681.38
834.36	1720.29
834.53	1665.00
834.70	1742.82
834.87	1746.92
835.04	1734.63
835.22	1671.14
835.39	1624.04
835.56	1718.25
835.73	1695.72
835.90	1767.40
836.07	1714.15
836.24	1701.86
836.41	1650.66
836.58	1630.18
836.75	1759.21
836.92	1691.62
837.09	1701.86
837.26	1738.73
837.43	1738.73
837.60	1660.90
837.77	1779.68
837.94	1730.53
838.12	1791.97
838.29	1675.24
838.46	1576.94
838.63	1650.66
838.80	1847.27
838.97	1734.63
839.14	1726.44
839.31	1675.24
839.48	1648.61
839.65	1724.39
839.82	1808.36
839.99	1767.40
840.16	1744.87
840.33	1687.53
840.50	1744.87
840.67	1607.66
840.84	1523.69
841.01	1665.00
841.18	1685.48
841.35	1746.92
841.52	1794.02
841.69	1812.45
841.86	1695.72
842.03	1685.48
842.20	1757.16
842.37	1714.15
842.54	1697.77
842.71	1718.25
842.88	1705.96
843.05	1714.15
843.22	1701.86
843.39	1677.29
843.56	1736.68
843.73	1673.19
843.90	1730.53
844.07	1742.82
844.24	1761.25
844.41	1763.30
844.58	1695.72
844.75	1710.05
844.92	1665.00
845.09	1652.71
845.26	1609.70
845.43	1656.81
845.60	1624.04
845.77	1753.06
845.94	1730.53
846.10	1699.81
846.27	1632.23
846.44	1646.57
846.61	1697.77
846.78	1763.30
846.95	1779.68
847.12	1634.28
847.29	1613.80
847.46	1675.24
847.63	1806.31
847.80	1683.43
847.97	1667.05
848.14	1816.55
848.31	1720.29
848.48	1667.05
848.65	1658.85
848.82	1720.29
848.98	1884.13
849.15	1732.58
849.32	1703.91
849.49	1804.26
849.66	1677.29
849.83	1662.95
850.00	1587.18
850.17	1675.24
850.34	1619.94
850.51	1699.81
850.68	1740.77
850.85	1834.98
851.01	1742.82
851.18	1765.35
851.35	1642.47
851.52	1742.82
851.69	1826.79
851.86	1695.72
852.03	1689.57
852.20	1683.43
852.37	1732.58
852.53	1611.75
852.70	1718.25
852.87	1675.24
853.04	1748.97
853.21	1730.53
853.38	1656.81
853.55	1791.97
853.72	1691.62
853.89	1607.66
854.05	1630.18
854.22	1656.81
854.39	1691.62
854.56	1669.09
854.73	1746.92
854.90	1632.23
855.07	1619.94
855.23	1701.86
855.40	1677.29
855.57	1669.09
855.74	1644.52
855.91	1814.50
856.08	1718.25
856.25	1681.38
856.41	1667.05
856.58	1587.18
856.75	1763.30
856.92	1626.09
857.09	1779.68
857.26	1658.85
857.42	1646.57
857.59	1748.97
857.76	1705.96
857.93	1652.71
858.10	1730.53
858.27	1640.42
858.43	1667.05
858.60	1656.81
858.77	1642.47
858.94	1656.81
859.11	1828.84
859.27	1675.24
859.44	1656.81
859.61	1859.56
859.78	1718.25
859.95	1714.15
860.12	1673.19
860.28	1734.63
860.45	1746.92
860.62	1644.52
860.79	1648.61
860.95	1652.71
861.12	1652.71
861.29	1701.86
861.46	1681.38
861.63	1658.85
861.79	1714.15
861.96	1667.05
862.13	1665.00
862.30	1734.63
862.47	1613.80
862.63	1634.28
862.80	1767.40
862.97	1773.54
863.14	1808.36
863.30	1628.14
863.47	1654.76
863.64	1820.64
863.81	1673.19
863.97	1693.67
864.14	1726.44
864.31	1687.53
864.48	1703.91
864.65	1746.92
864.81	1724.39
864.98	1665.00
865.15	1720.29
865.32	1681.38
865.48	1722.34
865.65	1777.64
865.82	1685.48
865.98	1734.63
866.15	1697.77
866.32	1689.57
866.49	1646.57
866.65	1724.39
866.82	1660.90
866.99	1652.71
867.16	1619.94
867.32	1765.35
867.49	1693.67
867.66	1726.44
867.83	1679.33
867.99	1632.23
868.16	1640.42
868.33	1636.33
868.49	1701.86
868.66	1724.39
868.83	1685.48
868.99	1640.42
869.16	1652.71
869.33	1822.69
869.50	1738.73
869.66	1654.76
869.83	1687.53
870.00	1652.71
870.16	1652.71
870.33	1779.68
870.50	1738.73
870.66	1738.73
870.83	1785.83
871.00	1734.63
871.17	1730.53
871.33	1718.25
871.50	1644.52
871.67	1742.82
871.83	1695.72
872.00	1759.21
872.17	1656.81
872.33	1738.73
872.50	1771.49
872.67	1687.53
872.83	1714.15
873.00	1769.44
873.17	1669.09
873.33	1734.63
873.50	1701.86
873.67	1744.87
873.83	1636.33
874.00	1697.77
874.16	1791.97
874.33	1718.25
874.50	1681.38
874.66	1695.72
874.83	1636.33
875.00	1722.34
875.16	1779.68
875.33	1742.82
875.50	1572.84
875.66	1722.34
875.83	1785.83
875.99	1734.63
876.16	1742.82
876.33	1578.98
876.49	1705.96
876.66	1738.73
876.83	1677.29
876.99	1595.37
877.16	1662.95
877.32	1699.81
877.49	1658.85
877.66	1730.53
877.82	1806.31
877.99	1742.82
878.15	1742.82
878.32	1650.66
878.49	1703.91
878.65	1658.85
878.82	1779.68
878.98	1648.61
879.15	1724.39
879.32	1665.00
879.48	1748.97
879.65	1705.96
879.81	1714.15
879.98	1730.53
880.15	1714.15
880.31	1800.16
880.48	1730.53
880.64	1759.21
880.81	1708.01
880.97	1855.46
881.14	1734.63
881.31	1691.62
881.47	1783.78
881.64	1662.95
881.80	1591.27
881.97	1779.68
882.13	1705.96
882.30	1609.70
882.47	1611.75
882.63	1701.86
882.80	1632.23
882.96	1665.00
883.13	1847.27
883.29	1658.85
883.46	1712.10
883.62	1728.49
883.79	1679.33
883.95	1701.86
884.12	1742.82
884.29	1748.97
884.45	1701.86
884.62	1740.77
884.78	1726.44
884.95	1828.84
885.11	1652.71
885.28	1689.57
885.44	1681.38
885.61	1771.49
885.77	1701.86
885.94	1644.52
886.10	1701.86
886.27	1755.11
886.43	1785.83
886.60	1812.45
886.76	1652.71
886.93	1687.53
887.09	1812.45
887.26	1636.33
887.42	1703.91
887.59	1732.58
887.75	1755.11
887.92	1689.57
888.08	1763.30
888.25	1832.93
888.41	1669.09
888.58	1677.29
888.74	1689.57
888.91	1681.38
>>>>>End Processed Spectral Data<<<<<
