SpectraSuite Data File
++++++++++++++++++++++++++++++++++++
Date: Mon Jun 06 14:05:17 CEST 2016
User: root
Dark Spectrum Present: No
Reference Spectrum Present: No
Number of Sampled Component Spectra: 1
Spectrometers: USB4C02835
Integration Time (usec): 100000 (USB4C02835)
Spectra Averaged: 1 (USB4C02835)
Boxcar Smoothing: 0 (USB4C02835)
Correct for Electrical Dark: No (USB4C02835)
Strobe/Lamp Enabled: No (USB4C02835)
Correct for Detector Non-linearity: No (USB4C02835)
Correct for Stray Light: No (USB4C02835)
Number of Pixels in Processed Spectrum: 3648
>>>>>Begin Processed Spectral Data<<<<<
177.47	1382.38
177.69	1382.38
177.91	1382.38
178.13	1484.78
178.36	1472.49
178.58	1542.12
178.80	1710.05
179.02	1595.37
179.24	1642.47
179.46	1697.77
179.68	1736.68
179.90	1673.19
180.13	1699.81
180.35	1603.56
180.57	1753.06
180.79	1779.68
181.01	1697.77
181.23	1796.07
181.45	1755.11
181.67	1650.66
181.90	1710.05
182.12	1669.09
182.34	1607.66
182.56	1720.29
182.78	1697.77
183.00	1689.57
183.22	1681.38
183.44	1677.29
183.66	1877.99
183.89	1789.92
184.11	1650.66
184.33	1699.81
184.55	1724.39
184.77	1660.90
184.99	1773.54
185.21	1701.86
185.43	1794.02
185.65	1703.91
185.87	1753.06
186.10	1812.45
186.32	1802.21
186.54	1753.06
186.76	1763.30
186.98	1779.68
187.20	1679.33
187.42	1675.24
187.64	1705.96
187.86	1748.97
188.08	1746.92
188.30	1703.91
188.52	1681.38
188.75	1701.86
188.97	1765.35
189.19	1648.61
189.41	1734.63
189.63	1718.25
189.85	1634.28
190.07	1576.94
190.29	1621.99
190.51	1710.05
190.73	1642.47
190.95	1726.44
191.17	1728.49
191.39	1601.51
191.61	1568.74
191.84	1665.00
192.06	1705.96
192.28	1558.50
192.50	1841.12
192.72	1757.16
192.94	1695.72
193.16	1738.73
193.38	1724.39
193.60	1638.38
193.82	1720.29
194.04	1736.68
194.26	1730.53
194.48	1734.63
194.70	1632.23
194.92	1712.10
195.14	1732.58
195.36	1656.81
195.58	1667.05
195.80	1689.57
196.02	1714.15
196.24	1710.05
196.46	1679.33
196.69	1648.61
196.91	1865.70
197.13	1652.71
197.35	1667.05
197.57	1851.36
197.79	1720.29
198.01	1781.73
198.23	1863.65
198.45	1712.10
198.67	1699.81
198.89	1667.05
199.11	1636.33
199.33	1613.80
199.55	1615.85
199.77	1621.99
199.99	1757.16
200.21	1697.77
200.43	1689.57
200.65	1624.04
200.87	1591.27
201.09	1771.49
201.31	1683.43
201.53	1787.88
201.75	1751.01
201.97	1714.15
202.19	1736.68
202.41	1783.78
202.63	1761.25
202.85	1753.06
203.07	1742.82
203.29	1742.82
203.51	1615.85
203.73	1710.05
203.95	1849.32
204.17	1775.59
204.39	1740.77
204.61	1687.53
204.83	1710.05
205.05	1761.25
205.27	1722.34
205.49	1828.84
205.71	1685.48
205.93	1650.66
206.15	1665.00
206.37	1773.54
206.59	1703.91
206.81	1644.52
207.03	1662.95
207.25	1611.75
207.47	1798.12
207.69	1644.52
207.91	1718.25
208.13	1705.96
208.34	1675.24
208.56	1652.71
208.78	1634.28
209.00	1726.44
209.22	1662.95
209.44	1738.73
209.66	1708.01
209.88	1691.62
210.10	1667.05
210.32	1667.05
210.54	1767.40
210.76	1669.09
210.98	1730.53
211.20	1515.50
211.42	1742.82
211.64	1841.12
211.86	1728.49
212.08	1654.76
212.30	1742.82
212.52	1689.57
212.74	1814.50
212.96	1630.18
213.17	1708.01
213.39	1654.76
213.61	1710.05
213.83	1814.50
214.05	1583.08
214.27	1742.82
214.49	1611.75
214.71	1634.28
214.93	1720.29
215.15	1740.77
215.37	1789.92
215.59	1646.57
215.81	1722.34
216.03	1662.95
216.24	1687.53
216.46	1648.61
216.68	1718.25
216.90	1685.48
217.12	1734.63
217.34	1722.34
217.56	1714.15
217.78	1748.97
218.00	1740.77
218.22	1724.39
218.44	1683.43
218.66	1718.25
218.87	1828.84
219.09	1652.71
219.31	1630.18
219.53	1736.68
219.75	1644.52
219.97	1695.72
220.19	1728.49
220.41	1677.29
220.63	1781.73
220.85	1689.57
221.06	1734.63
221.28	1826.79
221.50	1742.82
221.72	1669.09
221.94	1679.33
222.16	1705.96
222.38	1714.15
222.60	1736.68
222.82	1718.25
223.03	1677.29
223.25	1673.19
223.47	1761.25
223.69	1779.68
223.91	1742.82
224.13	1712.10
224.35	1642.47
224.57	1822.69
224.78	1636.33
225.00	1605.61
225.22	1671.14
225.44	1781.73
225.66	1671.14
225.88	1654.76
226.10	1716.20
226.32	1695.72
226.53	1771.49
226.75	1697.77
226.97	1681.38
227.19	1621.99
227.41	1644.52
227.63	1722.34
227.85	1662.95
228.06	1644.52
228.28	1662.95
228.50	1800.16
228.72	1644.52
228.94	1685.48
229.16	1646.57
229.37	1591.27
229.59	1662.95
229.81	1751.01
230.03	1632.23
230.25	1560.55
230.47	1634.28
230.69	1665.00
230.90	1763.30
231.12	1621.99
231.34	1738.73
231.56	1746.92
231.78	1619.94
232.00	1728.49
232.21	1718.25
232.43	1708.01
232.65	1544.17
232.87	1708.01
233.09	1685.48
233.30	1755.11
233.52	1746.92
233.74	1761.25
233.96	1652.71
234.18	1701.86
234.40	1658.85
234.61	1828.84
234.83	1640.42
235.05	1734.63
235.27	1781.73
235.49	1771.49
235.70	1695.72
235.92	1763.30
236.14	1812.45
236.36	1916.90
236.58	1613.80
236.79	1697.77
237.01	1679.33
237.23	1660.90
237.45	1837.03
237.67	1722.34
237.88	1748.97
238.10	1804.26
238.32	1619.94
238.54	1724.39
238.76	1748.97
238.97	1724.39
239.19	1691.62
239.41	1769.44
239.63	1742.82
239.85	1638.38
240.06	1646.57
240.28	1634.28
240.50	1769.44
240.72	1681.38
240.93	1650.66
241.15	1738.73
241.37	1736.68
241.59	1761.25
241.81	1714.15
242.02	1718.25
242.24	1742.82
242.46	1755.11
242.68	1699.81
242.89	1701.86
243.11	1775.59
243.33	1726.44
243.55	1746.92
243.76	1728.49
243.98	1648.61
244.20	1691.62
244.42	1699.81
244.64	1689.57
244.85	1720.29
245.07	1665.00
245.29	1746.92
245.51	1738.73
245.72	1757.16
245.94	1738.73
246.16	1769.44
246.38	1738.73
246.59	1636.33
246.81	1621.99
247.03	1738.73
247.24	1642.47
247.46	1667.05
247.68	1738.73
247.90	1669.09
248.11	1726.44
248.33	1763.30
248.55	1658.85
248.77	1703.91
248.98	1681.38
249.20	1791.97
249.42	1755.11
249.64	1611.75
249.85	1746.92
250.07	1718.25
250.29	1638.38
250.50	1738.73
250.72	1609.70
250.94	1783.78
251.16	1865.70
251.37	1783.78
251.59	1738.73
251.81	1705.96
252.02	1808.36
252.24	1677.29
252.46	1808.36
252.68	1656.81
252.89	1658.85
253.11	1601.51
253.33	1828.84
253.54	1759.21
253.76	1671.14
253.98	1720.29
254.20	1615.85
254.41	1626.09
254.63	1673.19
254.85	1658.85
255.06	1730.53
255.28	1730.53
255.50	1646.57
255.71	1734.63
255.93	1626.09
256.15	1724.39
256.36	1785.83
256.58	1697.77
256.80	1806.31
257.02	1734.63
257.23	1656.81
257.45	1716.20
257.67	1732.58
257.88	1705.96
258.10	1738.73
258.32	1669.09
258.53	1693.67
258.75	1789.92
258.97	1591.27
259.18	1736.68
259.40	1716.20
259.62	1746.92
259.83	1724.39
260.05	1742.82
260.27	1947.62
260.48	1693.67
260.70	1677.29
260.92	1685.48
261.13	1642.47
261.35	1675.24
261.57	1746.92
261.78	1644.52
262.00	1710.05
262.22	1691.62
262.43	1716.20
262.65	1701.86
262.86	1679.33
263.08	1726.44
263.30	1722.34
263.51	1646.57
263.73	1720.29
263.95	1722.34
264.16	1689.57
264.38	1646.57
264.60	1712.10
264.81	1708.01
265.03	1701.86
265.25	1763.30
265.46	1679.33
265.68	1800.16
265.89	1777.64
266.11	1615.85
266.33	1755.11
266.54	1738.73
266.76	1722.34
266.98	1800.16
267.19	1714.15
267.41	1718.25
267.62	1710.05
267.84	1593.32
268.06	1738.73
268.27	1667.05
268.49	1738.73
268.70	1734.63
268.92	1681.38
269.14	1654.76
269.35	1605.61
269.57	1646.57
269.79	1708.01
270.00	1621.99
270.22	1861.60
270.43	1673.19
270.65	1607.66
270.87	1607.66
271.08	1710.05
271.30	1705.96
271.51	1701.86
271.73	1705.96
271.95	1738.73
272.16	1714.15
272.38	1667.05
272.59	1703.91
272.81	1685.48
273.02	1728.49
273.24	1708.01
273.46	1767.40
273.67	1642.47
273.89	1658.85
274.10	1656.81
274.32	1753.06
274.54	1759.21
274.75	1683.43
274.97	1640.42
275.18	1685.48
275.40	1714.15
275.61	1734.63
275.83	1644.52
276.05	1658.85
276.26	1738.73
276.48	1763.30
276.69	1675.24
276.91	1662.95
277.12	1724.39
277.34	1718.25
277.55	1822.69
277.77	1720.29
277.99	1742.82
278.20	1644.52
278.42	1589.22
278.63	1669.09
278.85	1646.57
279.06	1628.14
279.28	1681.38
279.49	1746.92
279.71	1738.73
279.93	1710.05
280.14	1708.01
280.36	1632.23
280.57	1644.52
280.79	1712.10
281.00	1730.53
281.22	1677.29
281.43	1763.30
281.65	1593.32
281.86	1636.33
282.08	1650.66
282.29	1695.72
282.51	1689.57
282.73	1697.77
282.94	1593.32
283.16	1722.34
283.37	1769.44
283.59	1714.15
283.80	1683.43
284.02	1771.49
284.23	1736.68
284.45	1615.85
284.66	1677.29
284.88	1578.98
285.09	1712.10
285.31	1689.57
285.52	1710.05
285.74	1605.61
285.95	1794.02
286.17	1726.44
286.38	1779.68
286.60	1648.61
286.81	1708.01
287.03	1746.92
287.24	1746.92
287.46	1716.20
287.67	1777.64
287.89	1787.88
288.10	1691.62
288.32	1728.49
288.53	1726.44
288.75	1673.19
288.96	1728.49
289.18	1677.29
289.39	1773.54
289.61	1742.82
289.82	1882.08
290.04	1804.26
290.25	1685.48
290.47	1726.44
290.68	1583.08
290.90	1775.59
291.11	1626.09
291.33	1775.59
291.54	1679.33
291.76	1689.57
291.97	1775.59
292.18	1716.20
292.40	1671.14
292.61	1716.20
292.83	1828.84
293.04	1714.15
293.26	1738.73
293.47	1714.15
293.69	1646.57
293.90	1691.62
294.12	1841.12
294.33	1691.62
294.55	1693.67
294.76	1800.16
294.97	1808.36
295.19	1843.17
295.40	1748.97
295.62	1785.83
295.83	1769.44
296.05	1654.76
296.26	1755.11
296.48	1714.15
296.69	1714.15
296.90	1718.25
297.12	1714.15
297.33	1669.09
297.55	1748.97
297.76	1714.15
297.98	1779.68
298.19	1726.44
298.41	1701.86
298.62	1665.00
298.83	1802.21
299.05	1716.20
299.26	1693.67
299.48	1712.10
299.69	1757.16
299.90	1648.61
300.12	1619.94
300.33	1746.92
300.55	1769.44
300.76	1724.39
300.98	1689.57
301.19	1720.29
301.40	1667.05
301.62	1687.53
301.83	1667.05
302.05	1763.30
302.26	1761.25
302.47	1673.19
302.69	1640.42
302.90	1640.42
303.12	1599.46
303.33	1744.87
303.54	1708.01
303.76	1703.91
303.97	1724.39
304.19	1810.40
304.40	1662.95
304.61	1677.29
304.83	1857.51
305.04	1742.82
305.26	1734.63
305.47	1697.77
305.68	1705.96
305.90	1599.46
306.11	1767.40
306.33	1667.05
306.54	1701.86
306.75	1589.22
306.97	1617.90
307.18	1662.95
307.39	1603.56
307.61	1841.12
307.82	1697.77
308.04	1730.53
308.25	1787.88
308.46	1771.49
308.68	1705.96
308.89	1710.05
309.10	1746.92
309.32	1742.82
309.53	1705.96
309.74	1705.96
309.96	1708.01
310.17	1771.49
310.39	1693.67
310.60	1685.48
310.81	1708.01
311.03	1671.14
311.24	1732.58
311.45	1693.67
311.67	1841.12
311.88	1738.73
312.09	1650.66
312.31	1718.25
312.52	1691.62
312.73	1634.28
312.95	1691.62
313.16	1730.53
313.37	1779.68
313.59	1732.58
313.80	1697.77
314.01	1755.11
314.23	1603.56
314.44	1662.95
314.65	1626.09
314.87	1673.19
315.08	1738.73
315.29	1626.09
315.51	1681.38
315.72	1665.00
315.93	1763.30
316.15	1742.82
316.36	1634.28
316.57	1675.24
316.79	1765.35
317.00	1691.62
317.21	1800.16
317.43	1718.25
317.64	1742.82
317.85	1595.37
318.07	1677.29
318.28	1685.48
318.49	1767.40
318.70	1851.36
318.92	1859.56
319.13	1826.79
319.34	1886.18
319.56	1798.12
319.77	1734.63
319.98	1732.58
320.20	1748.97
320.41	1765.35
320.62	1748.97
320.83	1691.62
321.05	1794.02
321.26	1693.67
321.47	1703.91
321.69	1841.12
321.90	1597.42
322.11	1626.09
322.32	1730.53
322.54	1789.92
322.75	1693.67
322.96	1863.65
323.18	1646.57
323.39	1607.66
323.60	1652.71
323.81	1740.77
324.03	1681.38
324.24	1656.81
324.45	1724.39
324.66	1648.61
324.88	1640.42
325.09	1832.93
325.30	1728.49
325.52	1675.24
325.73	1722.34
325.94	1621.99
326.15	1613.80
326.37	1626.09
326.58	1775.59
326.79	1701.86
327.00	1681.38
327.22	1689.57
327.43	1705.96
327.64	1538.02
327.85	1673.19
328.07	1720.29
328.28	1843.17
328.49	1695.72
328.70	1652.71
328.92	1673.19
329.13	1761.25
329.34	1777.64
329.55	1765.35
329.76	1765.35
329.98	1691.62
330.19	1722.34
330.40	1683.43
330.61	1775.59
330.83	1708.01
331.04	1730.53
331.25	1732.58
331.46	1697.77
331.68	1613.80
331.89	1847.27
332.10	1683.43
332.31	1583.08
332.52	1693.67
332.74	1732.58
332.95	1626.09
333.16	1687.53
333.37	1697.77
333.58	1621.99
333.80	1665.00
334.01	1648.61
334.22	1626.09
334.43	1607.66
334.64	1656.81
334.86	1603.56
335.07	1681.38
335.28	1736.68
335.49	1576.94
335.70	1742.82
335.92	1767.40
336.13	1800.16
336.34	1732.58
336.55	1712.10
336.76	1748.97
336.98	1585.13
337.19	1699.81
337.40	1816.55
337.61	1830.88
337.82	1699.81
338.04	1744.87
338.25	1599.46
338.46	1646.57
338.67	1701.86
338.88	1644.52
339.09	1679.33
339.31	1636.33
339.52	1748.97
339.73	1605.61
339.94	1783.78
340.15	1726.44
340.36	1632.23
340.58	1621.99
340.79	1619.94
341.00	1775.59
341.21	1665.00
341.42	1687.53
341.63	1660.90
341.85	1705.96
342.06	1712.10
342.27	1644.52
342.48	1732.58
342.69	1628.14
342.90	1708.01
343.12	1675.24
343.33	1671.14
343.54	1734.63
343.75	1771.49
343.96	1822.69
344.17	1718.25
344.38	1665.00
344.60	1675.24
344.81	1665.00
345.02	1724.39
345.23	1818.60
345.44	1796.07
345.65	1775.59
345.86	1761.25
346.07	1716.20
346.29	1619.94
346.50	1648.61
346.71	1769.44
346.92	1765.35
347.13	1751.01
347.34	1673.19
347.55	1599.46
347.76	1681.38
347.98	1605.61
348.19	1662.95
348.40	1796.07
348.61	1624.04
348.82	1769.44
349.03	1701.86
349.24	1581.03
349.45	1812.45
349.66	1615.85
349.88	1748.97
350.09	1648.61
350.30	1812.45
350.51	1771.49
350.72	1791.97
350.93	1716.20
351.14	1656.81
351.35	1763.30
351.56	1644.52
351.77	1677.29
351.99	1693.67
352.20	1796.07
352.41	1841.12
352.62	1615.85
352.83	1640.42
353.04	1734.63
353.25	1619.94
353.46	1695.72
353.67	1703.91
353.88	1578.98
354.09	1710.05
354.30	1714.15
354.52	1763.30
354.73	1714.15
354.94	1648.61
355.15	1775.59
355.36	1769.44
355.57	1658.85
355.78	1710.05
355.99	1632.23
356.20	1726.44
356.41	1773.54
356.62	1712.10
356.83	1662.95
357.04	1837.03
357.25	1527.78
357.46	1646.57
357.68	1574.89
357.89	1748.97
358.10	1734.63
358.31	1736.68
358.52	1722.34
358.73	1646.57
358.94	1601.51
359.15	1578.98
359.36	1697.77
359.57	1669.09
359.78	1685.48
359.99	1736.68
360.20	1677.29
360.41	1699.81
360.62	1755.11
360.83	1722.34
361.04	1748.97
361.25	1701.86
361.46	1785.83
361.67	1757.16
361.88	1726.44
362.09	1716.20
362.30	1724.39
362.51	1734.63
362.72	1683.43
362.93	1742.82
363.14	1710.05
363.35	1804.26
363.56	1701.86
363.78	1746.92
363.99	1675.24
364.20	1689.57
364.41	1716.20
364.62	1847.27
364.83	1665.00
365.04	1669.09
365.25	1744.87
365.46	1753.06
365.67	1615.85
365.88	1671.14
366.09	1673.19
366.30	1624.04
366.51	1722.34
366.72	1636.33
366.93	1787.88
367.14	1736.68
367.35	1683.43
367.56	1638.38
367.77	1726.44
367.98	1628.14
368.18	1742.82
368.39	1697.77
368.60	1679.33
368.81	1714.15
369.02	1699.81
369.23	1705.96
369.44	1630.18
369.65	1650.66
369.86	1673.19
370.07	1771.49
370.28	1675.24
370.49	1771.49
370.70	1738.73
370.91	1607.66
371.12	1613.80
371.33	1808.36
371.54	1718.25
371.75	1847.27
371.96	1607.66
372.17	1605.61
372.38	1701.86
372.59	1820.64
372.80	1714.15
373.01	1660.90
373.22	1710.05
373.43	1759.21
373.64	1634.28
373.85	1753.06
374.06	1748.97
374.26	1679.33
374.47	1708.01
374.68	1767.40
374.89	1662.95
375.10	1742.82
375.31	1787.88
375.52	1652.71
375.73	1710.05
375.94	1683.43
376.15	1824.74
376.36	1679.33
376.57	1691.62
376.78	1687.53
376.99	1767.40
377.20	1757.16
377.40	1615.85
377.61	1759.21
377.82	1660.90
378.03	1798.12
378.24	1710.05
378.45	1683.43
378.66	1794.02
378.87	1583.08
379.08	1542.12
379.29	1650.66
379.50	1783.78
379.71	1685.48
379.91	1708.01
380.12	1644.52
380.33	1724.39
380.54	1718.25
380.75	1697.77
380.96	1705.96
381.17	1843.17
381.38	1716.20
381.59	1787.88
381.80	1751.01
382.00	1847.27
382.21	1724.39
382.42	1888.23
382.63	1810.40
382.84	1775.59
383.05	1783.78
383.26	1849.32
383.47	1753.06
383.68	1740.77
383.88	1740.77
384.09	1726.44
384.30	1783.78
384.51	1767.40
384.72	1634.28
384.93	1619.94
385.14	1722.34
385.35	1730.53
385.55	1613.80
385.76	1783.78
385.97	1667.05
386.18	1691.62
386.39	1687.53
386.60	1644.52
386.81	1769.44
387.02	1755.11
387.22	1591.27
387.43	1710.05
387.64	1742.82
387.85	1849.32
388.06	2201.57
388.27	4294.59
388.48	6776.73
388.68	8402.82
388.89	9731.95
389.10	9533.29
389.31	8468.35
389.52	7638.92
389.73	6823.83
389.93	6301.60
390.14	5871.53
390.35	5173.17
390.56	4585.40
390.77	3770.31
390.98	3055.57
391.18	2500.57
391.39	2119.65
391.60	1841.12
391.81	1898.47
392.02	1748.97
392.23	1767.40
392.43	1757.16
392.64	1757.16
392.85	1732.58
393.06	1804.26
393.27	1712.10
393.47	1679.33
393.68	1705.96
393.89	1667.05
394.10	1748.97
394.31	1732.58
394.52	1744.87
394.72	1685.48
394.93	1800.16
395.14	1673.19
395.35	1753.06
395.56	1697.77
395.76	1744.87
395.97	1748.97
396.18	1767.40
396.39	1728.49
396.60	2025.44
396.80	1902.56
397.01	1816.55
397.22	1779.68
397.43	1814.50
397.64	1800.16
397.84	1761.25
398.05	1873.89
398.26	1710.05
398.47	1728.49
398.67	1759.21
398.88	1683.43
399.09	1712.10
399.30	1636.33
399.51	1701.86
399.71	1667.05
399.92	1699.81
400.13	1736.68
400.34	1671.14
400.54	1697.77
400.75	1767.40
400.96	1761.25
401.17	1781.73
401.37	1662.95
401.58	1714.15
401.79	1671.14
402.00	1824.74
402.21	1943.52
402.41	1976.29
402.62	1972.19
402.83	1982.43
403.04	1953.76
403.24	2129.89
403.45	1804.26
403.66	1873.89
403.87	1810.40
404.07	1906.66
404.28	1923.04
404.49	1832.93
404.70	1834.98
404.90	1730.53
405.11	1681.38
405.32	1773.54
405.52	1679.33
405.73	1724.39
405.94	1689.57
406.15	1677.29
406.35	1775.59
406.56	1775.59
406.77	1665.00
406.98	1763.30
407.18	1693.67
407.39	1775.59
407.60	1619.94
407.80	1718.25
408.01	1761.25
408.22	1744.87
408.43	1746.92
408.63	1730.53
408.84	1744.87
409.05	1765.35
409.25	1691.62
409.46	1628.14
409.67	1671.14
409.88	1642.47
410.08	1720.29
410.29	1699.81
410.50	1796.07
410.70	1751.01
410.91	1599.46
411.12	1591.27
411.32	1730.53
411.53	1722.34
411.74	1738.73
411.95	1789.92
412.15	1736.68
412.36	1818.60
412.57	1720.29
412.77	1818.60
412.98	1703.91
413.19	1644.52
413.39	1779.68
413.60	1738.73
413.81	1806.31
414.01	1660.90
414.22	1755.11
414.43	1632.23
414.63	1679.33
414.84	1753.06
415.05	1738.73
415.25	1650.66
415.46	1679.33
415.67	1693.67
415.87	1732.58
416.08	1626.09
416.29	1638.38
416.49	1685.48
416.70	1708.01
416.91	1669.09
417.11	1691.62
417.32	1708.01
417.53	1712.10
417.73	1665.00
417.94	1634.28
418.15	1681.38
418.35	1806.31
418.56	1779.68
418.77	1830.88
418.97	1796.07
419.18	1632.23
419.38	1568.74
419.59	1624.04
419.80	1814.50
420.00	1746.92
420.21	1697.77
420.42	1783.78
420.62	1714.15
420.83	1693.67
421.04	1738.73
421.24	1703.91
421.45	1759.21
421.65	1695.72
421.86	1687.53
422.07	1761.25
422.27	1740.77
422.48	1710.05
422.69	1533.93
422.89	1724.39
423.10	1732.58
423.30	1681.38
423.51	1730.53
423.72	1716.20
423.92	1753.06
424.13	1716.20
424.33	1740.77
424.54	1726.44
424.75	1722.34
424.95	1746.92
425.16	1757.16
425.36	1716.20
425.57	1763.30
425.78	1771.49
425.98	1757.16
426.19	1693.67
426.39	1648.61
426.60	1796.07
426.81	1779.68
427.01	1621.99
427.22	1675.24
427.42	1628.14
427.63	1601.51
427.83	1730.53
428.04	1794.02
428.25	1748.97
428.45	1841.12
428.66	1746.92
428.86	1716.20
429.07	1697.77
429.28	1763.30
429.48	1687.53
429.69	1601.51
429.89	1732.58
430.10	1574.89
430.30	1730.53
430.51	1728.49
430.71	1626.09
430.92	1720.29
431.13	1679.33
431.33	1650.66
431.54	1730.53
431.74	1789.92
431.95	1785.83
432.15	1652.71
432.36	1708.01
432.56	1785.83
432.77	1800.16
432.98	1845.22
433.18	1677.29
433.39	1708.01
433.59	1628.14
433.80	1818.60
434.00	1818.60
434.21	1708.01
434.41	1687.53
434.62	1771.49
434.82	1673.19
435.03	1675.24
435.23	1736.68
435.44	1652.71
435.64	1722.34
435.85	1730.53
436.06	1781.73
436.26	1683.43
436.47	1673.19
436.67	1701.86
436.88	1763.30
437.08	1720.29
437.29	1837.03
437.49	1742.82
437.70	1695.72
437.90	1755.11
438.11	1818.60
438.31	1816.55
438.52	1804.26
438.72	1875.94
438.93	1892.32
439.13	1828.84
439.34	1886.18
439.54	1759.21
439.75	1810.40
439.95	1746.92
440.16	1728.49
440.36	1740.77
440.57	1791.97
440.77	1789.92
440.98	1714.15
441.18	1730.53
441.39	1781.73
441.59	1742.82
441.80	1800.16
442.00	1785.83
442.21	1759.21
442.41	1740.77
442.62	1787.88
442.82	1650.66
443.02	1748.97
443.23	1753.06
443.43	1794.02
443.64	1822.69
443.84	1681.38
444.05	1843.17
444.25	1734.63
444.46	1640.42
444.66	1718.25
444.87	1810.40
445.07	1619.94
445.28	1617.90
445.48	1810.40
445.69	1748.97
445.89	1800.16
446.09	1714.15
446.30	1974.24
446.50	2658.26
446.71	3694.54
446.91	4296.64
447.12	4650.94
447.32	4859.83
447.53	4384.70
447.73	3809.22
447.93	3477.45
448.14	3280.85
448.34	3168.21
448.55	2858.96
448.75	2881.49
448.96	2691.03
449.16	2473.95
449.36	2248.67
449.57	2015.20
449.77	1920.99
449.98	1843.17
450.18	1734.63
450.39	1771.49
450.59	1746.92
450.79	1740.77
451.00	1689.57
451.20	1685.48
451.41	1705.96
451.61	1816.55
451.81	1810.40
452.02	1693.67
452.22	1681.38
452.43	1687.53
452.63	1724.39
452.84	1834.98
453.04	1742.82
453.24	1730.53
453.45	1734.63
453.65	1732.58
453.86	1726.44
454.06	1777.64
454.26	1724.39
454.47	1697.77
454.67	1834.98
454.87	1773.54
455.08	1697.77
455.28	1869.80
455.49	1791.97
455.69	1687.53
455.89	1949.67
456.10	1732.58
456.30	1763.30
456.51	1695.72
456.71	1738.73
456.91	1798.12
457.12	1812.45
457.32	1779.68
457.52	1691.62
457.73	1812.45
457.93	1744.87
458.14	1642.47
458.34	1673.19
458.54	1718.25
458.75	1724.39
458.95	1777.64
459.15	1748.97
459.36	1718.25
459.56	1765.35
459.76	1845.22
459.97	1771.49
460.17	1775.59
460.37	1710.05
460.58	1746.92
460.78	1834.98
460.99	1695.72
461.19	1738.73
461.39	1689.57
461.60	1710.05
461.80	1810.40
462.00	1619.94
462.21	1681.38
462.41	1714.15
462.61	1628.14
462.82	1601.51
463.02	1771.49
463.22	1691.62
463.43	1785.83
463.63	1677.29
463.83	1877.99
464.04	1687.53
464.24	1656.81
464.44	1685.48
464.64	1748.97
464.85	1818.60
465.05	1732.58
465.25	1734.63
465.46	1755.11
465.66	1685.48
465.86	1783.78
466.07	1759.21
466.27	1751.01
466.47	1724.39
466.68	1656.81
466.88	1748.97
467.08	1748.97
467.29	1763.30
467.49	1759.21
467.69	1695.72
467.89	1734.63
468.10	1705.96
468.30	1660.90
468.50	1861.60
468.71	1689.57
468.91	1673.19
469.11	1785.83
469.31	1728.49
469.52	1650.66
469.72	1890.28
469.92	1841.12
470.13	1763.30
470.33	1708.01
470.53	1869.80
470.73	2201.57
470.94	2349.02
471.14	2234.33
471.34	2394.08
471.54	2521.05
471.75	2156.51
471.95	2144.22
472.15	2037.73
472.36	2029.54
472.56	2041.82
472.76	2090.98
472.96	1998.82
473.17	1933.28
473.37	1910.75
473.57	1744.87
473.77	1777.64
473.98	1748.97
474.18	1724.39
474.38	1867.75
474.58	1662.95
474.79	1701.86
474.99	1748.97
475.19	1687.53
475.39	1642.47
475.60	1744.87
475.80	1722.34
476.00	1695.72
476.20	1665.00
476.41	1759.21
476.61	1834.98
476.81	1783.78
477.01	1660.90
477.21	1832.93
477.42	1863.65
477.62	1665.00
477.82	1697.77
478.02	1744.87
478.23	1718.25
478.43	1705.96
478.63	1654.76
478.83	1746.92
479.03	1654.76
479.24	1808.36
479.44	1886.18
479.64	1718.25
479.84	1660.90
480.04	1591.27
480.25	1681.38
480.45	1671.14
480.65	1677.29
480.85	1802.21
481.06	1667.05
481.26	1730.53
481.46	1738.73
481.66	1656.81
481.86	1667.05
482.06	1814.50
482.27	1695.72
482.47	1675.24
482.67	1699.81
482.87	1609.70
483.07	1722.34
483.28	1734.63
483.48	1673.19
483.68	1716.20
483.88	1630.18
484.08	1619.94
484.29	1697.77
484.49	1648.61
484.69	1675.24
484.89	1857.51
485.09	1748.97
485.29	1755.11
485.50	1740.77
485.70	1677.29
485.90	1800.16
486.10	1662.95
486.30	1714.15
486.50	1759.21
486.71	1732.58
486.91	1703.91
487.11	1730.53
487.31	1689.57
487.51	1794.02
487.71	1648.61
487.91	1730.53
488.12	1722.34
488.32	1642.47
488.52	1634.28
488.72	1665.00
488.92	1726.44
489.12	1798.12
489.32	1863.65
489.53	1789.92
489.73	1665.00
489.93	1755.11
490.13	1634.28
490.33	1599.46
490.53	1822.69
490.73	1757.16
490.94	1624.04
491.14	1804.26
491.34	1900.52
491.54	2060.26
491.74	2535.39
491.94	2807.77
492.14	2959.31
492.34	3018.71
492.54	2758.61
492.75	2557.91
492.95	2506.71
493.15	2359.26
493.35	2324.44
493.55	2252.77
493.75	2146.27
493.95	2150.37
494.15	2004.96
494.35	1794.02
494.56	1904.61
494.76	1765.35
494.96	1802.21
495.16	1775.59
495.36	1759.21
495.56	1710.05
495.76	1701.86
495.96	1748.97
496.16	1673.19
496.36	1714.15
496.56	1771.49
496.77	1820.64
496.97	1708.01
497.17	1822.69
497.37	1720.29
497.57	1742.82
497.77	1775.59
497.97	1669.09
498.17	1748.97
498.37	1673.19
498.57	1783.78
498.77	1705.96
498.97	1746.92
499.17	1851.36
499.38	1685.48
499.58	1751.01
499.78	1736.68
499.98	1849.32
500.18	1742.82
500.38	1763.30
500.58	1839.08
500.78	2543.58
500.98	4552.63
501.18	5941.16
501.38	6674.33
501.58	7153.55
501.78	6559.64
501.98	5547.95
502.18	4921.27
502.38	4450.24
502.58	4046.79
502.78	3715.02
502.98	3721.16
503.18	3385.29
503.38	3213.26
503.59	2772.95
503.79	2693.08
503.99	2373.60
504.19	2365.40
504.39	2193.37
504.59	2123.74
504.79	2152.42
504.99	2056.16
505.19	1945.57
505.39	1904.61
505.59	1941.47
505.79	1904.61
505.99	1822.69
506.19	1730.53
506.39	1855.46
506.59	1697.77
506.79	1705.96
506.99	1857.51
507.19	1787.88
507.39	1722.34
507.59	1697.77
507.79	1660.90
507.99	1640.42
508.19	1763.30
508.39	1738.73
508.59	1726.44
508.79	1806.31
508.99	1779.68
509.19	1767.40
509.39	1773.54
509.59	1751.01
509.79	1632.23
509.99	1736.68
510.19	1796.07
510.39	1787.88
510.59	1701.86
510.79	1640.42
510.99	1591.27
511.19	1728.49
511.39	1832.93
511.59	1734.63
511.79	1802.21
511.99	1783.78
512.19	1841.12
512.38	1712.10
512.58	1673.19
512.78	1724.39
512.98	1783.78
513.18	1865.70
513.38	1679.33
513.58	1755.11
513.78	1703.91
513.98	1738.73
514.18	1746.92
514.38	1710.05
514.58	1796.07
514.78	1617.90
514.98	1714.15
515.18	1746.92
515.38	1687.53
515.58	1732.58
515.78	1662.95
515.98	1703.91
516.18	1675.24
516.38	1708.01
516.57	1718.25
516.77	1703.91
516.97	1755.11
517.17	1740.77
517.37	1660.90
517.57	1787.88
517.77	1738.73
517.97	1738.73
518.17	1775.59
518.37	1730.53
518.57	1763.30
518.77	1632.23
518.97	1746.92
519.16	1712.10
519.36	1845.22
519.56	1644.52
519.76	1728.49
519.96	1722.34
520.16	1785.83
520.36	1681.38
520.56	1748.97
520.76	1695.72
520.96	1710.05
521.16	1820.64
521.35	1806.31
521.55	1855.46
521.75	1800.16
521.95	1751.01
522.15	1712.10
522.35	1716.20
522.55	1658.85
522.75	1796.07
522.95	1763.30
523.14	1591.27
523.34	1708.01
523.54	1689.57
523.74	1791.97
523.94	1714.15
524.14	1648.61
524.34	1763.30
524.54	1744.87
524.73	1730.53
524.93	1728.49
525.13	1814.50
525.33	1673.19
525.53	1877.99
525.73	1755.11
525.93	1683.43
526.13	1697.77
526.32	1697.77
526.52	1742.82
526.72	1712.10
526.92	1650.66
527.12	1687.53
527.32	1654.76
527.52	1796.07
527.71	1724.39
527.91	1693.67
528.11	1714.15
528.31	1773.54
528.51	1589.22
528.71	1779.68
528.90	1595.37
529.10	1828.84
529.30	1794.02
529.50	1570.79
529.70	1738.73
529.90	1773.54
530.09	1695.72
530.29	1667.05
530.49	1740.77
530.69	1828.84
530.89	1744.87
531.09	1816.55
531.28	1744.87
531.48	1802.21
531.68	1697.77
531.88	1724.39
532.08	1759.21
532.28	1712.10
532.47	1771.49
532.67	1845.22
532.87	1746.92
533.07	1675.24
533.27	1763.30
533.46	1789.92
533.66	1708.01
533.86	1732.58
534.06	1744.87
534.26	1722.34
534.45	1687.53
534.65	1730.53
534.85	1748.97
535.05	1738.73
535.25	1734.63
535.44	1650.66
535.64	1755.11
535.84	1744.87
536.04	1734.63
536.24	1740.77
536.43	1732.58
536.63	1736.68
536.83	1798.12
537.03	1730.53
537.22	1605.61
537.42	1654.76
537.62	1808.36
537.82	1605.61
538.02	1773.54
538.21	1763.30
538.41	1834.98
538.61	1789.92
538.81	1730.53
539.00	1775.59
539.20	1671.14
539.40	1740.77
539.60	1763.30
539.79	1708.01
539.99	1755.11
540.19	1724.39
540.39	1714.15
540.58	1773.54
540.78	1726.44
540.98	1763.30
541.18	1839.08
541.37	1832.93
541.57	1677.29
541.77	1763.30
541.97	1705.96
542.16	1619.94
542.36	1681.38
542.56	1714.15
542.76	1820.64
542.95	1759.21
543.15	1808.36
543.35	1787.88
543.54	1679.33
543.74	1734.63
543.94	1757.16
544.14	1683.43
544.33	1771.49
544.53	1695.72
544.73	1673.19
544.93	1652.71
545.12	1781.73
545.32	1787.88
545.52	1763.30
545.71	1785.83
545.91	1753.06
546.11	1742.82
546.30	1656.81
546.50	1771.49
546.70	1703.91
546.90	1712.10
547.09	1628.14
547.29	1779.68
547.49	1783.78
547.68	1699.81
547.88	1718.25
548.08	1763.30
548.27	2168.80
548.47	1671.14
548.67	1681.38
548.87	1736.68
549.06	1630.18
549.26	1832.93
549.46	1738.73
549.65	1710.05
549.85	1767.40
550.05	1748.97
550.24	1599.46
550.44	1818.60
550.64	1681.38
550.83	1763.30
551.03	1759.21
551.23	1816.55
551.42	1818.60
551.62	1712.10
551.82	1759.21
552.01	1726.44
552.21	1853.41
552.41	1769.44
552.60	1863.65
552.80	1787.88
553.00	1746.92
553.19	1716.20
553.39	1779.68
553.59	1648.61
553.78	1814.50
553.98	1714.15
554.17	1728.49
554.37	1689.57
554.57	1634.28
554.76	1730.53
554.96	1708.01
555.16	1710.05
555.35	1757.16
555.55	1730.53
555.75	1722.34
555.94	1767.40
556.14	1593.32
556.33	1808.36
556.53	1689.57
556.73	1720.29
556.92	1783.78
557.12	1783.78
557.32	1794.02
557.51	1787.88
557.71	1718.25
557.90	1773.54
558.10	1779.68
558.30	1681.38
558.49	1724.39
558.69	1796.07
558.88	1722.34
559.08	1773.54
559.28	1642.47
559.47	1697.77
559.67	1859.56
559.86	1834.98
560.06	1722.34
560.26	1744.87
560.45	1763.30
560.65	1763.30
560.84	1804.26
561.04	1814.50
561.24	1820.64
561.43	1632.23
561.63	1834.98
561.82	1810.40
562.02	1771.49
562.22	1718.25
562.41	1689.57
562.61	1701.86
562.80	1720.29
563.00	1789.92
563.19	1755.11
563.39	1812.45
563.59	1783.78
563.78	1615.85
563.98	1650.66
564.17	1748.97
564.37	1626.09
564.56	1675.24
564.76	1742.82
564.96	1779.68
565.15	1785.83
565.35	1861.60
565.54	1773.54
565.74	1751.01
565.93	1779.68
566.13	1718.25
566.32	1785.83
566.52	1714.15
566.71	1748.97
566.91	1837.03
567.11	1652.71
567.30	1652.71
567.50	1724.39
567.69	1751.01
567.89	1710.05
568.08	1673.19
568.28	1681.38
568.47	1640.42
568.67	1787.88
568.86	1740.77
569.06	1759.21
569.25	1773.54
569.45	1669.09
569.64	1787.88
569.84	1742.82
570.04	1726.44
570.23	1742.82
570.43	1771.49
570.62	1744.87
570.82	1849.32
571.01	1697.77
571.21	1630.18
571.40	1615.85
571.60	1748.97
571.79	1796.07
571.99	1765.35
572.18	1722.34
572.38	1767.40
572.57	1746.92
572.77	1724.39
572.96	1875.94
573.16	1740.77
573.35	1724.39
573.55	1822.69
573.74	1794.02
573.94	1728.49
574.13	1665.00
574.33	1830.88
574.52	1787.88
574.71	1728.49
574.91	1751.01
575.10	1656.81
575.30	1740.77
575.49	1738.73
575.69	1624.04
575.88	1712.10
576.08	1757.16
576.27	1806.31
576.47	1703.91
576.66	1851.36
576.86	1861.60
577.05	1732.58
577.25	1806.31
577.44	1918.95
577.64	1761.25
577.83	1753.06
578.02	1685.48
578.22	1822.69
578.41	1837.03
578.61	1718.25
578.80	1658.85
579.00	1806.31
579.19	1775.59
579.39	1724.39
579.58	1798.12
579.77	1755.11
579.97	1912.80
580.16	1896.42
580.36	1767.40
580.55	1894.37
580.75	1748.97
580.94	1722.34
581.13	1773.54
581.33	1800.16
581.52	1679.33
581.72	1918.95
581.91	1832.93
582.11	1789.92
582.30	1800.16
582.49	1730.53
582.69	1880.04
582.88	1818.60
583.08	1732.58
583.27	1808.36
583.47	1701.86
583.66	1716.20
583.85	1656.81
584.05	1812.45
584.24	1742.82
584.44	1787.88
584.63	1828.84
584.82	1763.30
585.02	1820.64
585.21	1810.40
585.41	1832.93
585.60	1794.02
585.79	1865.70
585.99	1882.08
586.18	1939.43
586.37	2203.61
586.57	3327.95
586.76	10002.28
586.96	24491.66
587.15	34389.49
587.34	40191.39
587.54	42263.93
587.73	36824.53
587.93	26455.66
588.12	21569.21
588.31	18138.86
588.51	16303.88
588.70	15232.79
588.89	14010.15
589.09	12486.47
589.28	11196.25
589.47	9340.79
589.67	8210.31
589.86	6342.56
590.06	4933.56
590.25	3868.61
590.44	3200.98
590.64	2674.65
590.83	2324.44
591.02	2176.99
591.22	1961.95
591.41	1855.46
591.60	1857.51
591.80	1966.05
591.99	1789.92
592.18	1820.64
592.38	1787.88
592.57	1751.01
592.76	1816.55
592.96	1753.06
593.15	1839.08
593.34	1812.45
593.54	1773.54
593.73	1841.12
593.92	1837.03
594.12	1804.26
594.31	1718.25
594.50	1771.49
594.70	1751.01
594.89	1916.90
595.08	1673.19
595.28	1761.25
595.47	1904.61
595.66	1800.16
595.86	1652.71
596.05	1734.63
596.24	1763.30
596.43	1812.45
596.63	1826.79
596.82	1724.39
597.01	1779.68
597.21	1822.69
597.40	1779.68
597.59	1714.15
597.79	1708.01
597.98	1697.77
598.17	1763.30
598.36	1742.82
598.56	1812.45
598.75	1685.48
598.94	1789.92
599.14	1681.38
599.33	1677.29
599.52	1783.78
599.71	1738.73
599.91	1787.88
600.10	1716.20
600.29	1697.77
600.48	1904.61
600.68	1763.30
600.87	1771.49
601.06	1718.25
601.26	1738.73
601.45	1845.22
601.64	1730.53
601.83	1798.12
602.03	1703.91
602.22	1628.14
602.41	1820.64
602.60	1947.62
602.80	1757.16
602.99	1685.48
603.18	1695.72
603.37	1734.63
603.57	1748.97
603.76	1781.73
603.95	1832.93
604.14	1667.05
604.34	1701.86
604.53	1699.81
604.72	1806.31
604.91	1667.05
605.10	1728.49
605.30	1705.96
605.49	1884.13
605.68	1794.02
605.87	1781.73
606.07	1746.92
606.26	1705.96
606.45	1822.69
606.64	1722.34
606.84	1714.15
607.03	1726.44
607.22	1802.21
607.41	1634.28
607.60	1712.10
607.80	1791.97
607.99	1722.34
608.18	1673.19
608.37	1742.82
608.56	1640.42
608.76	1730.53
608.95	1746.92
609.14	1665.00
609.33	1759.21
609.52	1763.30
609.72	1761.25
609.91	1753.06
610.10	1701.86
610.29	1740.77
610.48	1777.64
610.68	1779.68
610.87	1703.91
611.06	1781.73
611.25	1763.30
611.44	1732.58
611.63	1718.25
611.83	1769.44
612.02	1689.57
612.21	1761.25
612.40	1673.19
612.59	1669.09
612.79	1615.85
612.98	1740.77
613.17	1781.73
613.36	1708.01
613.55	1818.60
613.74	1757.16
613.93	1701.86
614.13	1757.16
614.32	1753.06
614.51	1771.49
614.70	1677.29
614.89	1687.53
615.08	1685.48
615.28	2025.44
615.47	1697.77
615.66	1767.40
615.85	1734.63
616.04	1855.46
616.23	1677.29
616.42	1689.57
616.62	1730.53
616.81	1746.92
617.00	1720.29
617.19	1705.96
617.38	1685.48
617.57	1699.81
617.76	1724.39
617.95	1757.16
618.15	1687.53
618.34	1863.65
618.53	1615.85
618.72	1775.59
618.91	1869.80
619.10	1853.41
619.29	1748.97
619.48	1695.72
619.68	1679.33
619.87	1667.05
620.06	1652.71
620.25	1828.84
620.44	1632.23
620.63	1679.33
620.82	1777.64
621.01	1716.20
621.20	1716.20
621.39	1665.00
621.59	1748.97
621.78	1705.96
621.97	1736.68
622.16	1755.11
622.35	1714.15
622.54	1746.92
622.73	1726.44
622.92	1624.04
623.11	1785.83
623.30	1710.05
623.49	1777.64
623.68	1705.96
623.88	1783.78
624.07	1628.14
624.26	1767.40
624.45	1710.05
624.64	1693.67
624.83	1703.91
625.02	1716.20
625.21	1708.01
625.40	1734.63
625.59	1794.02
625.78	1779.68
625.97	1722.34
626.16	1794.02
626.35	1681.38
626.54	1701.86
626.74	1855.46
626.93	1693.67
627.12	1695.72
627.31	1808.36
627.50	1789.92
627.69	1808.36
627.88	1675.24
628.07	1570.79
628.26	1644.52
628.45	1753.06
628.64	1703.91
628.83	1687.53
629.02	1634.28
629.21	1710.05
629.40	1693.67
629.59	1662.95
629.78	1740.77
629.97	1673.19
630.16	1763.30
630.35	1689.57
630.54	1699.81
630.73	1726.44
630.92	1779.68
631.11	1712.10
631.30	1734.63
631.49	1742.82
631.68	1656.81
631.87	1779.68
632.06	1671.14
632.25	1798.12
632.44	1705.96
632.63	1773.54
632.82	1644.52
633.01	1628.14
633.20	1771.49
633.39	1624.04
633.58	1605.61
633.77	1710.05
633.96	1708.01
634.15	1769.44
634.34	1820.64
634.53	1689.57
634.72	1689.57
634.91	1669.09
635.10	1703.91
635.29	1738.73
635.48	1703.91
635.67	1796.07
635.86	1570.79
636.05	1746.92
636.24	1730.53
636.43	1742.82
636.62	1828.84
636.81	1533.93
637.00	1763.30
637.19	1720.29
637.38	1693.67
637.57	1703.91
637.76	1806.31
637.95	1830.88
638.14	1714.15
638.33	1769.44
638.52	1689.57
638.71	1673.19
638.89	1652.71
639.08	1863.65
639.27	1816.55
639.46	1658.85
639.65	1865.70
639.84	1714.15
640.03	1843.17
640.22	1769.44
640.41	1791.97
640.60	1611.75
640.79	1675.24
640.98	1658.85
641.17	1771.49
641.36	1783.78
641.55	1658.85
641.74	1705.96
641.92	1705.96
642.11	1716.20
642.30	1665.00
642.49	1660.90
642.68	1648.61
642.87	1820.64
643.06	1708.01
643.25	1681.38
643.44	1689.57
643.63	1755.11
643.82	1785.83
644.00	1654.76
644.19	1701.86
644.38	1642.47
644.57	1767.40
644.76	1751.01
644.95	1722.34
645.14	1705.96
645.33	1710.05
645.52	1703.91
645.71	1624.04
645.89	1662.95
646.08	1726.44
646.27	1658.85
646.46	1822.69
646.65	1673.19
646.84	1734.63
647.03	1624.04
647.22	1875.94
647.40	1718.25
647.59	1697.77
647.78	1568.74
647.97	1619.94
648.16	1761.25
648.35	1779.68
648.54	1677.29
648.73	1677.29
648.91	1781.73
649.10	1716.20
649.29	1660.90
649.48	1734.63
649.67	1703.91
649.86	1691.62
650.05	1712.10
650.23	1716.20
650.42	1572.84
650.61	1703.91
650.80	1781.73
650.99	1847.27
651.18	1742.82
651.36	1775.59
651.55	1626.09
651.74	1761.25
651.93	1648.61
652.12	1697.77
652.31	1705.96
652.49	1642.47
652.68	1724.39
652.87	1777.64
653.06	1771.49
653.25	1828.84
653.44	1755.11
653.62	1855.46
653.81	1669.09
654.00	1665.00
654.19	1718.25
654.38	1798.12
654.56	1765.35
654.75	1685.48
654.94	1781.73
655.13	1732.58
655.32	1722.34
655.51	1816.55
655.69	1665.00
655.88	1705.96
656.07	1624.04
656.26	1791.97
656.45	1728.49
656.63	1748.97
656.82	1652.71
657.01	1804.26
657.20	1662.95
657.38	1834.98
657.57	1667.05
657.76	1619.94
657.95	1755.11
658.14	1658.85
658.32	1710.05
658.51	1630.18
658.70	1705.96
658.89	1722.34
659.08	1683.43
659.26	1822.69
659.45	1613.80
659.64	1810.40
659.83	1626.09
660.01	1976.29
660.20	1660.90
660.39	1763.30
660.58	1617.90
660.76	1769.44
660.95	1628.14
661.14	1748.97
661.33	1685.48
661.51	1660.90
661.70	1658.85
661.89	1744.87
662.08	1734.63
662.26	1621.99
662.45	1621.99
662.64	1861.60
662.83	1773.54
663.01	1675.24
663.20	1607.66
663.39	1787.88
663.58	1738.73
663.76	1748.97
663.95	1738.73
664.14	1632.23
664.32	1738.73
664.51	1730.53
664.70	1648.61
664.89	1763.30
665.07	1607.66
665.26	1742.82
665.45	1667.05
665.64	1800.16
665.82	1652.71
666.01	1804.26
666.20	1722.34
666.38	1781.73
666.57	1859.56
666.76	2183.13
666.95	4523.96
667.13	10307.43
667.32	15183.64
667.51	17782.51
667.69	19082.97
667.88	17475.32
668.07	12492.61
668.25	9617.26
668.44	8148.87
668.63	7366.54
668.81	6952.85
669.00	6221.73
669.19	5709.74
669.38	5054.39
669.56	4605.88
669.75	3983.30
669.94	3467.21
670.12	2844.63
670.31	2484.19
670.50	2289.63
670.68	2054.11
670.87	1992.67
671.06	1740.77
671.24	1802.21
671.43	1882.08
671.62	1763.30
671.80	1689.57
671.99	1763.30
672.18	1644.52
672.36	1808.36
672.55	1761.25
672.74	1718.25
672.92	1679.33
673.11	1720.29
673.29	1687.53
673.48	1765.35
673.67	1693.67
673.85	1757.16
674.04	1710.05
674.23	1742.82
674.41	1812.45
674.60	1689.57
674.79	1705.96
674.97	1685.48
675.16	1740.77
675.34	1796.07
675.53	1718.25
675.72	1701.86
675.90	1802.21
676.09	1636.33
676.28	1716.20
676.46	1599.46
676.65	1673.19
676.83	1714.15
677.02	1765.35
677.21	1703.91
677.39	1736.68
677.58	1724.39
677.77	1628.14
677.95	1624.04
678.14	1681.38
678.32	1775.59
678.51	1652.71
678.70	1837.03
678.88	1734.63
679.07	1738.73
679.25	1708.01
679.44	1732.58
679.63	1650.66
679.81	1654.76
680.00	1832.93
680.18	1693.67
680.37	1775.59
680.55	1720.29
680.74	1632.23
680.93	1593.32
681.11	1652.71
681.30	1609.70
681.48	1728.49
681.67	1705.96
681.85	1701.86
682.04	1730.53
682.23	1691.62
682.41	1662.95
682.60	1681.38
682.78	1740.77
682.97	1695.72
683.15	1769.44
683.34	1734.63
683.53	1796.07
683.71	1669.09
683.90	1802.21
684.08	1796.07
684.27	1691.62
684.45	1701.86
684.64	1869.80
684.82	1718.25
685.01	1714.15
685.19	1695.72
685.38	1804.26
685.57	1724.39
685.75	1667.05
685.94	1732.58
686.12	1675.24
686.31	1673.19
686.49	1804.26
686.68	1576.94
686.86	1695.72
687.05	1648.61
687.23	1695.72
687.42	1673.19
687.60	1597.42
687.79	1730.53
687.97	1689.57
688.16	1759.21
688.34	1705.96
688.53	1591.27
688.71	1767.40
688.90	1722.34
689.08	1785.83
689.27	1615.85
689.45	1796.07
689.64	1675.24
689.82	1705.96
690.01	1634.28
690.19	1773.54
690.38	1644.52
690.56	1804.26
690.75	1658.85
690.93	1656.81
691.12	1615.85
691.30	1617.90
691.49	1665.00
691.67	1656.81
691.86	1820.64
692.04	1685.48
692.23	1619.94
692.41	1714.15
692.60	1914.85
692.78	1722.34
692.97	1726.44
693.15	1701.86
693.34	1898.47
693.52	1781.73
693.71	1669.09
693.89	1681.38
694.08	1634.28
694.26	1818.60
694.44	1732.58
694.63	1738.73
694.81	1675.24
695.00	1662.95
695.18	1712.10
695.37	1867.75
695.55	1689.57
695.74	1685.48
695.92	1724.39
696.10	1705.96
696.29	1609.70
696.47	1644.52
696.66	1683.43
696.84	1615.85
697.03	1736.68
697.21	1839.08
697.40	2260.96
697.58	1734.63
697.76	1705.96
697.95	1699.81
698.13	1669.09
698.32	1648.61
698.50	1691.62
698.68	1724.39
698.87	1708.01
699.05	1814.50
699.24	1652.71
699.42	1662.95
699.61	1656.81
699.79	1720.29
699.97	1763.30
700.16	1697.77
700.34	1636.33
700.53	1667.05
700.71	1794.02
700.89	1699.81
701.08	1617.90
701.26	1720.29
701.45	2093.02
701.63	1656.81
701.81	1695.72
702.00	1624.04
702.18	1644.52
702.37	1660.90
702.55	1683.43
702.73	1732.58
702.92	1650.66
703.10	1685.48
703.28	1697.77
703.47	1740.77
703.65	1804.26
703.84	1755.11
704.02	1679.33
704.20	1763.30
704.39	1644.52
704.57	1708.01
704.75	1742.82
704.94	1812.45
705.12	1617.90
705.30	1779.68
705.49	2238.43
705.67	4370.37
705.86	9383.79
706.04	12470.08
706.22	14438.18
706.41	15640.34
706.59	14036.78
706.77	9842.54
706.96	7374.74
707.14	6608.80
707.32	5935.01
707.51	5578.67
707.69	4995.00
707.87	4265.92
708.06	3522.51
708.24	2867.16
708.42	2492.38
708.61	2201.57
708.79	1877.99
708.97	1916.90
709.16	1812.45
709.34	1828.84
709.52	1728.49
709.71	1714.15
709.89	1775.59
710.07	1738.73
710.26	1615.85
710.44	1656.81
710.62	1742.82
710.80	1685.48
710.99	1736.68
711.17	1744.87
711.35	1734.63
711.54	1658.85
711.72	1744.87
711.90	1744.87
712.09	1697.77
712.27	1574.89
712.45	1791.97
712.63	1667.05
712.82	1712.10
713.00	1722.34
713.18	1722.34
713.37	1785.83
713.55	1728.49
713.73	1746.92
713.91	1665.00
714.10	1701.86
714.28	1705.96
714.46	1742.82
714.65	1730.53
714.83	1828.84
715.01	1726.44
715.19	1728.49
715.38	1652.71
715.56	1755.11
715.74	1566.70
715.92	1677.29
716.11	1765.35
716.29	1595.37
716.47	1705.96
716.65	1705.96
716.84	1595.37
717.02	1712.10
717.20	1652.71
717.38	1669.09
717.57	1757.16
717.75	1701.86
717.93	1673.19
718.11	1761.25
718.30	1681.38
718.48	1718.25
718.66	1759.21
718.84	1812.45
719.03	1765.35
719.21	1634.28
719.39	1755.11
719.57	1787.88
719.75	1730.53
719.94	1665.00
720.12	1738.73
720.30	1695.72
720.48	1718.25
720.67	1742.82
720.85	1615.85
721.03	1675.24
721.21	1640.42
721.39	1783.78
721.58	1753.06
721.76	1662.95
721.94	1832.93
722.12	1691.62
722.30	1757.16
722.49	1632.23
722.67	1724.39
722.85	1677.29
723.03	1685.48
723.21	1714.15
723.40	1748.97
723.58	1773.54
723.76	1804.26
723.94	1759.21
724.12	1728.49
724.30	1687.53
724.49	1720.29
724.67	1615.85
724.85	1802.21
725.03	1640.42
725.21	1693.67
725.40	1822.69
725.58	1705.96
725.76	1791.97
725.94	1761.25
726.12	1669.09
726.30	1720.29
726.49	1722.34
726.67	1617.90
726.85	1710.05
727.03	1781.73
727.21	2099.17
727.39	2934.74
727.57	3704.78
727.76	4130.75
727.94	4437.95
728.12	4386.75
728.30	3672.01
728.48	2961.36
728.66	2791.38
728.84	2519.00
729.03	2338.78
729.21	2127.84
729.39	2002.91
729.57	1812.45
729.75	1875.94
729.93	1740.77
730.11	1779.68
730.30	1662.95
730.48	1681.38
730.66	1796.07
730.84	1800.16
731.02	1703.91
731.20	1662.95
731.38	1675.24
731.56	1648.61
731.74	1693.67
731.93	1683.43
732.11	1714.15
732.29	1681.38
732.47	1759.21
732.65	1724.39
732.83	1718.25
733.01	1714.15
733.19	1703.91
733.37	1730.53
733.56	1714.15
733.74	1662.95
733.92	1783.78
734.10	1609.70
734.28	1722.34
734.46	1593.32
734.64	1740.77
734.82	1759.21
735.00	1679.33
735.18	1634.28
735.36	1693.67
735.54	1650.66
735.73	1693.67
735.91	1716.20
736.09	1730.53
736.27	1615.85
736.45	1806.31
736.63	1574.89
736.81	1724.39
736.99	1771.49
737.17	1771.49
737.35	1708.01
737.53	1728.49
737.71	1675.24
737.89	1769.44
738.07	1626.09
738.25	1603.56
738.43	1607.66
738.61	1656.81
738.80	1671.14
738.98	1703.91
739.16	1671.14
739.34	1669.09
739.52	1746.92
739.70	1710.05
739.88	1693.67
740.06	1738.73
740.24	1677.29
740.42	1808.36
740.60	1632.23
740.78	1667.05
740.96	1634.28
741.14	1650.66
741.32	1718.25
741.50	1617.90
741.68	1763.30
741.86	1716.20
742.04	1687.53
742.22	1636.33
742.40	1703.91
742.58	1730.53
742.76	1646.57
742.94	1693.67
743.12	1578.98
743.30	1701.86
743.48	1730.53
743.66	1720.29
743.84	1712.10
744.02	1689.57
744.20	1679.33
744.38	1665.00
744.56	1640.42
744.74	1763.30
744.92	1669.09
745.10	1796.07
745.28	1773.54
745.46	1855.46
745.64	1722.34
745.82	1804.26
746.00	1738.73
746.18	1746.92
746.36	1650.66
746.54	1718.25
746.72	1628.14
746.90	1662.95
747.08	1734.63
747.26	1687.53
747.44	1753.06
747.62	1748.97
747.80	1683.43
747.98	1785.83
748.15	1607.66
748.33	1744.87
748.51	1693.67
748.69	1699.81
748.87	1605.61
749.05	1656.81
749.23	1681.38
749.41	1705.96
749.59	1740.77
749.77	1658.85
749.95	1714.15
750.13	1679.33
750.31	1783.78
750.49	1628.14
750.67	1689.57
750.85	1781.73
751.03	1671.14
751.20	1789.92
751.38	1693.67
751.56	1699.81
751.74	1693.67
751.92	1671.14
752.10	1593.32
752.28	1804.26
752.46	1701.86
752.64	1720.29
752.82	1693.67
753.00	1734.63
753.18	1640.42
753.35	1687.53
753.53	1716.20
753.71	1646.57
753.89	1708.01
754.07	1728.49
754.25	1744.87
754.43	1673.19
754.61	1673.19
754.79	1658.85
754.97	1695.72
755.14	1724.39
755.32	1648.61
755.50	1705.96
755.68	1703.91
755.86	1783.78
756.04	1689.57
756.22	1599.46
756.40	1763.30
756.57	1759.21
756.75	1726.44
756.93	1771.49
757.11	1689.57
757.29	1613.80
757.47	1658.85
757.65	1593.32
757.82	1609.70
758.00	1634.28
758.18	1652.71
758.36	1632.23
758.54	1826.79
758.72	1675.24
758.90	1710.05
759.07	1730.53
759.25	1632.23
759.43	1736.68
759.61	1671.14
759.79	2152.42
759.97	1720.29
760.15	1705.96
760.32	1740.77
760.50	1669.09
760.68	1796.07
760.86	1705.96
761.04	1697.77
761.22	1656.81
761.39	1701.86
761.57	1644.52
761.75	1669.09
761.93	1847.27
762.11	1648.61
762.28	1740.77
762.46	1650.66
762.64	1755.11
762.82	1716.20
763.00	1648.61
763.18	1755.11
763.35	1624.04
763.53	1761.25
763.71	1744.87
763.89	1744.87
764.07	1744.87
764.24	1718.25
764.42	1703.91
764.60	1665.00
764.78	1701.86
764.96	1738.73
765.13	1658.85
765.31	1675.24
765.49	1673.19
765.67	1626.09
765.84	1697.77
766.02	1669.09
766.20	1675.24
766.38	1769.44
766.56	1712.10
766.73	1832.93
766.91	1683.43
767.09	1673.19
767.27	1746.92
767.44	1667.05
767.62	1691.62
767.80	1679.33
767.98	1626.09
768.15	1658.85
768.33	1689.57
768.51	1708.01
768.69	1714.15
768.87	1736.68
769.04	1789.92
769.22	1818.60
769.40	1742.82
769.58	1787.88
769.75	1734.63
769.93	1781.73
770.11	1705.96
770.28	1689.57
770.46	1757.16
770.64	1718.25
770.82	1730.53
770.99	1615.85
771.17	1763.30
771.35	1675.24
771.53	1630.18
771.70	1712.10
771.88	1675.24
772.06	1665.00
772.23	1728.49
772.41	1740.77
772.59	1675.24
772.77	1593.32
772.94	1701.86
773.12	1685.48
773.30	1640.42
773.47	1728.49
773.65	1652.71
773.83	1755.11
774.01	1755.11
774.18	1599.46
774.36	1705.96
774.54	1595.37
774.71	1710.05
774.89	1650.66
775.07	1650.66
775.24	1667.05
775.42	1716.20
775.60	1779.68
775.78	1550.31
775.95	1583.08
776.13	1542.12
776.31	1523.69
776.48	1665.00
776.66	1732.58
776.84	1763.30
777.01	1560.55
777.19	1726.44
777.37	1660.90
777.54	1718.25
777.72	1765.35
777.90	1740.77
778.07	1720.29
778.25	1900.52
778.43	1718.25
778.60	1619.94
778.78	1730.53
778.96	1730.53
779.13	1648.61
779.31	1738.73
779.49	1669.09
779.66	1742.82
779.84	1642.47
780.01	1703.91
780.19	1671.14
780.37	1812.45
780.54	1753.06
780.72	1677.29
780.90	1644.52
781.07	1591.27
781.25	1710.05
781.43	1726.44
781.60	1714.15
781.78	1738.73
781.95	1701.86
782.13	1646.57
782.31	1662.95
782.48	1595.37
782.66	1675.24
782.83	1818.60
783.01	1759.21
783.19	1789.92
783.36	1736.68
783.54	1705.96
783.72	1724.39
783.89	1607.66
784.07	1746.92
784.24	1738.73
784.42	1755.11
784.60	1683.43
784.77	1744.87
784.95	1585.13
785.12	1671.14
785.30	1685.48
785.47	1693.67
785.65	1677.29
785.83	1722.34
786.00	1683.43
786.18	1773.54
786.35	1642.47
786.53	1593.32
786.71	1794.02
786.88	1769.44
787.06	1660.90
787.23	1746.92
787.41	1648.61
787.58	1732.58
787.76	1705.96
787.94	1720.29
788.11	1720.29
788.29	1630.18
788.46	1640.42
788.64	1687.53
788.81	1644.52
788.99	1630.18
789.16	1628.14
789.34	1644.52
789.52	1665.00
789.69	1740.77
789.87	1665.00
790.04	1730.53
790.22	1681.38
790.39	1802.21
790.57	1589.22
790.74	1609.70
790.92	1783.78
791.09	1656.81
791.27	1624.04
791.44	1748.97
791.62	1751.01
791.79	1738.73
791.97	1718.25
792.15	1847.27
792.32	1730.53
792.50	1679.33
792.67	1785.83
792.85	1753.06
793.02	1728.49
793.20	1589.22
793.37	1624.04
793.55	1669.09
793.72	1652.71
793.90	1701.86
794.07	1691.62
794.25	1699.81
794.42	1671.14
794.60	1712.10
794.77	1675.24
794.95	1791.97
795.12	1742.82
795.30	1654.76
795.47	1669.09
795.65	1863.65
795.82	1662.95
796.00	1720.29
796.17	1662.95
796.34	1658.85
796.52	1755.11
796.69	1812.45
796.87	1763.30
797.04	1789.92
797.22	1726.44
797.39	1787.88
797.57	1773.54
797.74	1689.57
797.92	1755.11
798.09	1648.61
798.27	1736.68
798.44	1775.59
798.62	1781.73
798.79	1708.01
798.96	1738.73
799.14	1755.11
799.31	1796.07
799.49	1667.05
799.66	1685.48
799.84	1718.25
800.01	1660.90
800.19	1746.92
800.36	1638.38
800.53	1683.43
800.71	1726.44
800.88	1798.12
801.06	1734.63
801.23	1597.42
801.41	1761.25
801.58	1691.62
801.75	1736.68
801.93	1777.64
802.10	1667.05
802.28	1687.53
802.45	1613.80
802.63	1695.72
802.80	1779.68
802.97	1738.73
803.15	1736.68
803.32	1675.24
803.50	1576.94
803.67	1673.19
803.84	1685.48
804.02	1671.14
804.19	1738.73
804.37	1599.46
804.54	1714.15
804.71	1689.57
804.89	1703.91
805.06	1597.42
805.24	1617.90
805.41	1673.19
805.58	1722.34
805.76	1796.07
805.93	1699.81
806.10	1818.60
806.28	1724.39
806.45	1679.33
806.63	1675.24
806.80	1705.96
806.97	1773.54
807.15	1705.96
807.32	1615.85
807.49	1742.82
807.67	1683.43
807.84	1644.52
808.01	1628.14
808.19	1783.78
808.36	1812.45
808.54	1771.49
808.71	1683.43
808.88	1701.86
809.06	1701.86
809.23	1761.25
809.40	1679.33
809.58	1796.07
809.75	1699.81
809.92	1679.33
810.10	1834.98
810.27	1708.01
810.44	1642.47
810.62	1761.25
810.79	1695.72
810.96	1714.15
811.14	1660.90
811.31	1771.49
811.48	1712.10
811.66	1703.91
811.83	1697.77
812.00	1802.21
812.18	1755.11
812.35	1796.07
812.52	1615.85
812.69	1697.77
812.87	1714.15
813.04	1640.42
813.21	1654.76
813.39	1667.05
813.56	1603.56
813.73	1738.73
813.91	1638.38
814.08	1642.47
814.25	1689.57
814.42	1681.38
814.60	1632.23
814.77	1791.97
814.94	1638.38
815.12	1734.63
815.29	1705.96
815.46	1654.76
815.63	1738.73
815.81	1665.00
815.98	1693.67
816.15	1718.25
816.33	1722.34
816.50	1742.82
816.67	1609.70
816.84	1656.81
817.02	1658.85
817.19	1658.85
817.36	1720.29
817.53	1693.67
817.71	1648.61
817.88	1802.21
818.05	1650.66
818.22	1681.38
818.40	1832.93
818.57	1687.53
818.74	1775.59
818.91	1687.53
819.09	1761.25
819.26	1734.63
819.43	1652.71
819.60	1710.05
819.78	1703.91
819.95	1660.90
820.12	1628.14
820.29	1757.16
820.47	1783.78
820.64	1693.67
820.81	1636.33
820.98	1636.33
821.15	1636.33
821.33	1804.26
821.50	1583.08
821.67	1738.73
821.84	1632.23
822.02	1757.16
822.19	1740.77
822.36	1744.87
822.53	1679.33
822.70	1636.33
822.88	1687.53
823.05	1773.54
823.22	1607.66
823.39	1765.35
823.56	1708.01
823.74	1816.55
823.91	1605.61
824.08	1603.56
824.25	1681.38
824.42	1806.31
824.60	1693.67
824.77	1656.81
824.94	1697.77
825.11	1675.24
825.28	1611.75
825.45	1714.15
825.63	1732.58
825.80	1695.72
825.97	1732.58
826.14	1791.97
826.31	1644.52
826.48	1695.72
826.66	1662.95
826.83	1703.91
827.00	1697.77
827.17	1636.33
827.34	1732.58
827.51	1691.62
827.69	1652.71
827.86	1662.95
828.03	1656.81
828.20	1662.95
828.37	1640.42
828.54	1705.96
828.71	1701.86
828.89	1746.92
829.06	1740.77
829.23	1779.68
829.40	1658.85
829.57	1773.54
829.74	1669.09
829.91	1679.33
830.09	1705.96
830.26	1748.97
830.43	1765.35
830.60	1701.86
830.77	1722.34
830.94	1726.44
831.11	1712.10
831.28	1742.82
831.46	1746.92
831.63	1699.81
831.80	1748.97
831.97	1617.90
832.14	1665.00
832.31	1712.10
832.48	1609.70
832.65	1712.10
832.82	1650.66
832.99	1699.81
833.17	1611.75
833.34	1683.43
833.51	1740.77
833.68	1572.84
833.85	1716.20
834.02	1656.81
834.19	1675.24
834.36	1634.28
834.53	1728.49
834.70	1763.30
834.87	1761.25
835.04	1757.16
835.22	1660.90
835.39	1677.29
835.56	1662.95
835.73	1697.77
835.90	1742.82
836.07	1634.28
836.24	1730.53
836.41	1630.18
836.58	1593.32
836.75	1708.01
836.92	1740.77
837.09	1640.42
837.26	1769.44
837.43	1689.57
837.60	1759.21
837.77	1705.96
837.94	1697.77
838.12	1853.41
838.29	1785.83
838.46	1589.22
838.63	1626.09
838.80	1751.01
838.97	1763.30
839.14	1738.73
839.31	1669.09
839.48	1722.34
839.65	1742.82
839.82	1722.34
839.99	1746.92
840.16	1736.68
840.33	1607.66
840.50	1599.46
840.67	1646.57
840.84	1546.22
841.01	1712.10
841.18	1617.90
841.35	1681.38
841.52	1802.21
841.69	1779.68
841.86	1630.18
842.03	1691.62
842.20	1751.01
842.37	1722.34
842.54	1673.19
842.71	1699.81
842.88	1681.38
843.05	1714.15
843.22	1669.09
843.39	1718.25
843.56	1630.18
843.73	1699.81
843.90	1667.05
844.07	1636.33
844.24	1730.53
844.41	1728.49
844.58	1738.73
844.75	1712.10
844.92	1732.58
845.09	1730.53
845.26	1640.42
845.43	1714.15
845.60	1615.85
845.77	1796.07
845.94	1679.33
846.10	1779.68
846.27	1632.23
846.44	1630.18
846.61	1644.52
846.78	1708.01
846.95	1761.25
847.12	1646.57
847.29	1685.48
847.46	1648.61
847.63	1734.63
847.80	1605.61
847.97	1748.97
848.14	1816.55
848.31	1718.25
848.48	1654.76
848.65	1640.42
848.82	1673.19
848.98	1800.16
849.15	1730.53
849.32	1791.97
849.49	1667.05
849.66	1681.38
849.83	1714.15
850.00	1697.77
850.17	1718.25
850.34	1718.25
850.51	1572.84
850.68	1689.57
850.85	1777.64
851.01	1763.30
851.18	1683.43
851.35	1693.67
851.52	1687.53
851.69	1808.36
851.86	1591.27
852.03	1685.48
852.20	1681.38
852.37	1652.71
852.53	1607.66
852.70	1646.57
852.87	1755.11
853.04	1769.44
853.21	1667.05
853.38	1761.25
853.55	1746.92
853.72	1783.78
853.89	1634.28
854.05	1681.38
854.22	1718.25
854.39	1710.05
854.56	1728.49
854.73	1746.92
854.90	1658.85
855.07	1695.72
855.23	1673.19
855.40	1703.91
855.57	1646.57
855.74	1656.81
855.91	1871.84
856.08	1488.87
856.25	1617.90
856.41	1642.47
856.58	1662.95
856.75	1697.77
856.92	1671.14
857.09	1718.25
857.26	1644.52
857.42	1726.44
857.59	1759.21
857.76	1689.57
857.93	1716.20
858.10	1691.62
858.27	1572.84
858.43	1728.49
858.60	1615.85
858.77	1662.95
858.94	1720.29
859.11	1703.91
859.27	1697.77
859.44	1687.53
859.61	1777.64
859.78	1691.62
859.95	1701.86
860.12	1626.09
860.28	1804.26
860.45	1851.36
860.62	1679.33
860.79	1708.01
860.95	1730.53
861.12	1658.85
861.29	1695.72
861.46	1650.66
861.63	1677.29
861.79	1796.07
861.96	1677.29
862.13	1626.09
862.30	1806.31
862.47	1665.00
862.63	1671.14
862.80	1804.26
862.97	1693.67
863.14	1722.34
863.30	1751.01
863.47	1654.76
863.64	1814.50
863.81	1730.53
863.97	1742.82
864.14	1650.66
864.31	1714.15
864.48	1759.21
864.65	1667.05
864.81	1732.58
864.98	1703.91
865.15	1759.21
865.32	1804.26
865.48	1783.78
865.65	1787.88
865.82	1621.99
865.98	1722.34
866.15	1691.62
866.32	1722.34
866.49	1738.73
866.65	1775.59
866.82	1644.52
866.99	1646.57
867.16	1648.61
867.32	1685.48
867.49	1681.38
867.66	1646.57
867.83	1601.51
867.99	1587.18
868.16	1656.81
868.33	1656.81
868.49	1646.57
868.66	1742.82
868.83	1746.92
868.99	1687.53
869.16	1710.05
869.33	1783.78
869.50	1730.53
869.66	1732.58
869.83	1753.06
870.00	1617.90
870.16	1794.02
870.33	1658.85
870.50	1769.44
870.66	1689.57
870.83	1781.73
871.00	1746.92
871.17	1689.57
871.33	1732.58
871.50	1628.14
871.67	1775.59
871.83	1605.61
872.00	1882.08
872.17	1705.96
872.33	1665.00
872.50	1716.20
872.67	1714.15
872.83	1642.47
873.00	1687.53
873.17	1689.57
873.33	1691.62
873.50	1761.25
873.67	1693.67
873.83	1630.18
874.00	1679.33
874.16	1785.83
874.33	1751.01
874.50	1652.71
874.66	1677.29
874.83	1697.77
875.00	1716.20
875.16	1808.36
875.33	1755.11
875.50	1613.80
875.66	1703.91
875.83	1654.76
875.99	1722.34
876.16	1701.86
876.33	1685.48
876.49	1677.29
876.66	1734.63
876.83	1697.77
876.99	1591.27
877.16	1685.48
877.32	1685.48
877.49	1609.70
877.66	1742.82
877.82	1777.64
877.99	1716.20
878.15	1755.11
878.32	1757.16
878.49	1759.21
878.65	1710.05
878.82	1845.22
878.98	1705.96
879.15	1755.11
879.32	1697.77
879.48	1718.25
879.65	1662.95
879.81	1611.75
879.98	1634.28
880.15	1681.38
880.31	1685.48
880.48	1648.61
880.64	1742.82
880.81	1726.44
880.97	1826.79
881.14	1722.34
881.31	1634.28
881.47	1769.44
881.64	1621.99
881.80	1646.57
881.97	1722.34
882.13	1763.30
882.30	1677.29
882.47	1636.33
882.63	1638.38
882.80	1650.66
882.96	1681.38
883.13	1705.96
883.29	1701.86
883.46	1689.57
883.62	1753.06
883.79	1716.20
883.95	1695.72
884.12	1691.62
884.29	1812.45
884.45	1722.34
884.62	1691.62
884.78	1640.42
884.95	1820.64
885.11	1609.70
885.28	1771.49
885.44	1673.19
885.61	1775.59
885.77	1675.24
885.94	1777.64
886.10	1697.77
886.27	1787.88
886.43	1751.01
886.60	1703.91
886.76	1609.70
886.93	1689.57
887.09	1748.97
887.26	1619.94
887.42	1673.19
887.59	1777.64
887.75	1759.21
887.92	1763.30
888.08	1775.59
888.25	1769.44
888.41	1781.73
888.58	1650.66
888.74	1624.04
888.91	1650.66
>>>>>End Processed Spectral Data<<<<<
