SpectraSuite Data File
++++++++++++++++++++++++++++++++++++
Date: Mon Jun 06 17:34:17 CEST 2016
User: root
Dark Spectrum Present: No
Reference Spectrum Present: No
Number of Sampled Component Spectra: 1
Spectrometers: USB4C02835
Integration Time (usec): 100000 (USB4C02835)
Spectra Averaged: 1 (USB4C02835)
Boxcar Smoothing: 0 (USB4C02835)
Correct for Electrical Dark: No (USB4C02835)
Strobe/Lamp Enabled: No (USB4C02835)
Correct for Detector Non-linearity: No (USB4C02835)
Correct for Stray Light: No (USB4C02835)
Number of Pixels in Processed Spectrum: 3648
>>>>>Begin Processed Spectral Data<<<<<
177.47	1550.31
177.69	1550.31
177.91	1550.31
178.13	1476.59
178.36	1456.11
178.58	1636.33
178.80	1738.73
179.02	1626.09
179.24	1617.90
179.46	1746.92
179.68	1751.01
179.90	1667.05
180.13	1656.81
180.35	1681.38
180.57	1718.25
180.79	1771.49
181.01	1658.85
181.23	1779.68
181.45	1730.53
181.67	1734.63
181.90	1765.35
182.12	1712.10
182.34	1716.20
182.56	1677.29
182.78	1703.91
183.00	1724.39
183.22	1703.91
183.44	1601.51
183.66	1787.88
183.89	1808.36
184.11	1667.05
184.33	1689.57
184.55	1861.60
184.77	1777.64
184.99	1738.73
185.21	1609.70
185.43	1949.67
185.65	1646.57
185.87	1716.20
186.10	1824.74
186.32	1873.89
186.54	1740.77
186.76	1681.38
186.98	1736.68
187.20	1693.67
187.42	1724.39
187.64	1654.76
187.86	1771.49
188.08	1767.40
188.30	1640.42
188.52	1630.18
188.75	1847.27
188.97	1847.27
189.19	1683.43
189.41	1638.38
189.63	1712.10
189.85	1671.14
190.07	1697.77
190.29	1689.57
190.51	1767.40
190.73	1648.61
190.95	1820.64
191.17	1755.11
191.39	1654.76
191.61	1710.05
191.84	1714.15
192.06	1740.77
192.28	1683.43
192.50	1927.14
192.72	1742.82
192.94	1742.82
193.16	1773.54
193.38	1697.77
193.60	1712.10
193.82	1634.28
194.04	1845.22
194.26	1804.26
194.48	1716.20
194.70	1673.19
194.92	1722.34
195.14	1816.55
195.36	1654.76
195.58	1712.10
195.80	1714.15
196.02	1742.82
196.24	1677.29
196.46	1665.00
196.69	1677.29
196.91	1865.70
197.13	1695.72
197.35	1705.96
197.57	1759.21
197.79	1714.15
198.01	1687.53
198.23	1789.92
198.45	1761.25
198.67	1705.96
198.89	1728.49
199.11	1804.26
199.33	1695.72
199.55	1601.51
199.77	1769.44
199.99	1757.16
200.21	1701.86
200.43	1822.69
200.65	1677.29
200.87	1593.32
201.09	1783.78
201.31	1734.63
201.53	1705.96
201.75	1804.26
201.97	1796.07
202.19	1673.19
202.41	1773.54
202.63	1834.98
202.85	1763.30
203.07	1703.91
203.29	1658.85
203.51	1665.00
203.73	1687.53
203.95	1912.80
204.17	1724.39
204.39	1730.53
204.61	1626.09
204.83	1699.81
205.05	1812.45
205.27	1753.06
205.49	1781.73
205.71	1755.11
205.93	1677.29
206.15	1691.62
206.37	1746.92
206.59	1775.59
206.81	1611.75
207.03	1681.38
207.25	1681.38
207.47	1769.44
207.69	1708.01
207.91	1767.40
208.13	1763.30
208.34	1658.85
208.56	1738.73
208.78	1763.30
209.00	1699.81
209.22	1691.62
209.44	1759.21
209.66	1691.62
209.88	1673.19
210.10	1734.63
210.32	1695.72
210.54	1742.82
210.76	1724.39
210.98	1783.78
211.20	1566.70
211.42	1703.91
211.64	1779.68
211.86	1705.96
212.08	1767.40
212.30	1722.34
212.52	1640.42
212.74	1738.73
212.96	1652.71
213.17	1814.50
213.39	1771.49
213.61	1816.55
213.83	1658.85
214.05	1650.66
214.27	1808.36
214.49	1673.19
214.71	1644.52
214.93	1839.08
215.15	1724.39
215.37	1783.78
215.59	1591.27
215.81	1775.59
216.03	1757.16
216.24	1728.49
216.46	1691.62
216.68	1738.73
216.90	1763.30
217.12	1720.29
217.34	1722.34
217.56	1746.92
217.78	1779.68
218.00	1830.88
218.22	1742.82
218.44	1847.27
218.66	1712.10
218.87	1804.26
219.09	1652.71
219.31	1697.77
219.53	1689.57
219.75	1685.48
219.97	1767.40
220.19	1744.87
220.41	1740.77
220.63	1841.12
220.85	1746.92
221.06	1675.24
221.28	1751.01
221.50	1789.92
221.72	1636.33
221.94	1660.90
222.16	1744.87
222.38	1757.16
222.60	1865.70
222.82	1742.82
223.03	1718.25
223.25	1601.51
223.47	1740.77
223.69	1837.03
223.91	1746.92
224.13	1636.33
224.35	1665.00
224.57	1751.01
224.78	1789.92
225.00	1695.72
225.22	1652.71
225.44	1689.57
225.66	1677.29
225.88	1652.71
226.10	1828.84
226.32	1705.96
226.53	1765.35
226.75	1640.42
226.97	1726.44
227.19	1671.14
227.41	1726.44
227.63	1705.96
227.85	1634.28
228.06	1734.63
228.28	1685.48
228.50	1789.92
228.72	1697.77
228.94	1730.53
229.16	1523.69
229.37	1675.24
229.59	1716.20
229.81	1767.40
230.03	1736.68
230.25	1656.81
230.47	1732.58
230.69	1632.23
230.90	1800.16
231.12	1673.19
231.34	1748.97
231.56	1779.68
231.78	1648.61
232.00	1689.57
232.21	1701.86
232.43	1697.77
232.65	1601.51
232.87	1714.15
233.09	1638.38
233.30	1693.67
233.52	1738.73
233.74	1701.86
233.96	1689.57
234.18	1718.25
234.40	1714.15
234.61	1920.99
234.83	1665.00
235.05	1644.52
235.27	1843.17
235.49	1748.97
235.70	1724.39
235.92	1738.73
236.14	1744.87
236.36	1857.51
236.58	1626.09
236.79	1755.11
237.01	1699.81
237.23	1681.38
237.45	1865.70
237.67	1628.14
237.88	1722.34
238.10	1855.46
238.32	1693.67
238.54	1642.47
238.76	1656.81
238.97	1665.00
239.19	1640.42
239.41	1732.58
239.63	1826.79
239.85	1658.85
240.06	1677.29
240.28	1726.44
240.50	1701.86
240.72	1677.29
240.93	1791.97
241.15	1779.68
241.37	1679.33
241.59	1810.40
241.81	1699.81
242.02	1699.81
242.24	1738.73
242.46	1705.96
242.68	1730.53
242.89	1761.25
243.11	1742.82
243.33	1689.57
243.55	1748.97
243.76	1687.53
243.98	1726.44
244.20	1763.30
244.42	1724.39
244.64	1763.30
244.85	1675.24
245.07	1708.01
245.29	1775.59
245.51	1701.86
245.72	1726.44
245.94	1726.44
246.16	1753.06
246.38	1812.45
246.59	1736.68
246.81	1683.43
247.03	1689.57
247.24	1617.90
247.46	1705.96
247.68	1677.29
247.90	1730.53
248.11	1718.25
248.33	1705.96
248.55	1685.48
248.77	1681.38
248.98	1775.59
249.20	1783.78
249.42	1703.91
249.64	1777.64
249.85	1697.77
250.07	1662.95
250.29	1730.53
250.50	1654.76
250.72	1693.67
250.94	1771.49
251.16	1869.80
251.37	1781.73
251.59	1736.68
251.81	1753.06
252.02	1781.73
252.24	1675.24
252.46	1765.35
252.68	1744.87
252.89	1644.52
253.11	1568.74
253.33	1816.55
253.54	1781.73
253.76	1681.38
253.98	1714.15
254.20	1710.05
254.41	1656.81
254.63	1662.95
254.85	1683.43
255.06	1658.85
255.28	1740.77
255.50	1675.24
255.71	1683.43
255.93	1697.77
256.15	1662.95
256.36	1701.86
256.58	1673.19
256.80	1802.21
257.02	1724.39
257.23	1699.81
257.45	1712.10
257.67	1703.91
257.88	1728.49
258.10	1779.68
258.32	1748.97
258.53	1677.29
258.75	1826.79
258.97	1730.53
259.18	1697.77
259.40	1751.01
259.62	1865.70
259.83	1849.32
260.05	1697.77
260.27	1988.58
260.48	1730.53
260.70	1708.01
260.92	1742.82
261.13	1665.00
261.35	1781.73
261.57	1732.58
261.78	1591.27
262.00	1652.71
262.22	1722.34
262.43	1669.09
262.65	1718.25
262.86	1648.61
263.08	1785.83
263.30	1681.38
263.51	1574.89
263.73	1636.33
263.95	1863.65
264.16	1634.28
264.38	1718.25
264.60	1742.82
264.81	1755.11
265.03	1757.16
265.25	1763.30
265.46	1744.87
265.68	1712.10
265.89	1687.53
266.11	1656.81
266.33	1773.54
266.54	1785.83
266.76	1746.92
266.98	1761.25
267.19	1796.07
267.41	1853.41
267.62	1710.05
267.84	1734.63
268.06	1732.58
268.27	1791.97
268.49	1796.07
268.70	1808.36
268.92	1738.73
269.14	1665.00
269.35	1611.75
269.57	1726.44
269.79	1765.35
270.00	1628.14
270.22	1804.26
270.43	1722.34
270.65	1611.75
270.87	1724.39
271.08	1728.49
271.30	1740.77
271.51	1718.25
271.73	1771.49
271.95	1732.58
272.16	1730.53
272.38	1732.58
272.59	1599.46
272.81	1755.11
273.02	1703.91
273.24	1699.81
273.46	1816.55
273.67	1683.43
273.89	1710.05
274.10	1634.28
274.32	1791.97
274.54	1765.35
274.75	1800.16
274.97	1699.81
275.18	1755.11
275.40	1757.16
275.61	1697.77
275.83	1710.05
276.05	1673.19
276.26	1697.77
276.48	1822.69
276.69	1675.24
276.91	1642.47
277.12	1794.02
277.34	1812.45
277.55	1796.07
277.77	1771.49
277.99	1656.81
278.20	1662.95
278.42	1697.77
278.63	1613.80
278.85	1650.66
279.06	1632.23
279.28	1722.34
279.49	1689.57
279.71	1701.86
279.93	1689.57
280.14	1722.34
280.36	1624.04
280.57	1812.45
280.79	1759.21
281.00	1718.25
281.22	1732.58
281.43	1761.25
281.65	1585.13
281.86	1714.15
282.08	1716.20
282.29	1849.32
282.51	1689.57
282.73	1617.90
282.94	1648.61
283.16	1658.85
283.37	1812.45
283.59	1708.01
283.80	1730.53
284.02	1648.61
284.23	1687.53
284.45	1667.05
284.66	1615.85
284.88	1673.19
285.09	1728.49
285.31	1740.77
285.52	1761.25
285.74	1605.61
285.95	1777.64
286.17	1789.92
286.38	1828.84
286.60	1679.33
286.81	1607.66
287.03	1736.68
287.24	1771.49
287.46	1765.35
287.67	1660.90
287.89	1910.75
288.10	1726.44
288.32	1765.35
288.53	1810.40
288.75	1736.68
288.96	1755.11
289.18	1656.81
289.39	1660.90
289.61	1736.68
289.82	1857.51
290.04	1841.12
290.25	1632.23
290.47	1703.91
290.68	1781.73
290.90	1748.97
291.11	1634.28
291.33	1720.29
291.54	1730.53
291.76	1697.77
291.97	1720.29
292.18	1681.38
292.40	1665.00
292.61	1703.91
292.83	1896.42
293.04	1771.49
293.26	1691.62
293.47	1798.12
293.69	1662.95
293.90	1615.85
294.12	1824.74
294.33	1718.25
294.55	1681.38
294.76	1746.92
294.97	1720.29
295.19	1812.45
295.40	1669.09
295.62	1732.58
295.83	1839.08
296.05	1681.38
296.26	1740.77
296.48	1683.43
296.69	1730.53
296.90	1751.01
297.12	1789.92
297.33	1820.64
297.55	1703.91
297.76	1693.67
297.98	1812.45
298.19	1746.92
298.41	1708.01
298.62	1730.53
298.83	1763.30
299.05	1738.73
299.26	1687.53
299.48	1603.56
299.69	1769.44
299.90	1697.77
300.12	1650.66
300.33	1726.44
300.55	1796.07
300.76	1724.39
300.98	1642.47
301.19	1771.49
301.40	1722.34
301.62	1689.57
301.83	1730.53
302.05	1763.30
302.26	1691.62
302.47	1738.73
302.69	1654.76
302.90	1720.29
303.12	1640.42
303.33	1734.63
303.54	1804.26
303.76	1648.61
303.97	1732.58
304.19	1814.50
304.40	1681.38
304.61	1800.16
304.83	1845.22
305.04	1810.40
305.26	1783.78
305.47	1695.72
305.68	1744.87
305.90	1656.81
306.11	1812.45
306.33	1712.10
306.54	1710.05
306.75	1703.91
306.97	1566.70
307.18	1628.14
307.39	1697.77
307.61	1710.05
307.82	1705.96
308.04	1800.16
308.25	1648.61
308.46	1771.49
308.68	1785.83
308.89	1785.83
309.10	1814.50
309.32	1820.64
309.53	1773.54
309.74	1765.35
309.96	1644.52
310.17	1753.06
310.39	1689.57
310.60	1755.11
310.81	1728.49
311.03	1755.11
311.24	1728.49
311.45	1714.15
311.67	1837.03
311.88	1701.86
312.09	1736.68
312.31	1681.38
312.52	1771.49
312.73	1675.24
312.95	1624.04
313.16	1689.57
313.37	1779.68
313.59	1732.58
313.80	1716.20
314.01	1753.06
314.23	1710.05
314.44	1648.61
314.65	1673.19
314.87	1693.67
315.08	1705.96
315.29	1712.10
315.51	1732.58
315.72	1675.24
315.93	1753.06
316.15	1834.98
316.36	1689.57
316.57	1699.81
316.79	1718.25
317.00	1697.77
317.21	1671.14
317.43	1626.09
317.64	1767.40
317.85	1621.99
318.07	1689.57
318.28	1777.64
318.49	1744.87
318.70	1953.76
318.92	1849.32
319.13	1914.85
319.34	1861.60
319.56	1847.27
319.77	1830.88
319.98	1730.53
320.20	1732.58
320.41	1736.68
320.62	1730.53
320.83	1654.76
321.05	1859.56
321.26	1779.68
321.47	1806.31
321.69	1751.01
321.90	1703.91
322.11	1673.19
322.32	1712.10
322.54	1824.74
322.75	1708.01
322.96	1882.08
323.18	1607.66
323.39	1638.38
323.60	1605.61
323.81	1761.25
324.03	1755.11
324.24	1679.33
324.45	1775.59
324.66	1744.87
324.88	1798.12
325.09	1751.01
325.30	1757.16
325.52	1714.15
325.73	1734.63
325.94	1730.53
326.15	1671.14
326.37	1759.21
326.58	1742.82
326.79	1814.50
327.00	1730.53
327.22	1669.09
327.43	1615.85
327.64	1660.90
327.85	1722.34
328.07	1751.01
328.28	1759.21
328.49	1738.73
328.70	1714.15
328.92	1804.26
329.13	1736.68
329.34	1714.15
329.55	1738.73
329.76	1763.30
329.98	1753.06
330.19	1783.78
330.40	1746.92
330.61	1669.09
330.83	1761.25
331.04	1691.62
331.25	1705.96
331.46	1759.21
331.68	1648.61
331.89	1738.73
332.10	1665.00
332.31	1673.19
332.52	1755.11
332.74	1763.30
332.95	1595.37
333.16	1677.29
333.37	1814.50
333.58	1714.15
333.80	1730.53
334.01	1720.29
334.22	1738.73
334.43	1699.81
334.64	1695.72
334.86	1621.99
335.07	1742.82
335.28	1783.78
335.49	1595.37
335.70	1730.53
335.92	1755.11
336.13	1937.38
336.34	1880.04
336.55	1665.00
336.76	1730.53
336.98	1574.89
337.19	1726.44
337.40	1814.50
337.61	1816.55
337.82	1708.01
338.04	1824.74
338.25	1638.38
338.46	1705.96
338.67	1675.24
338.88	1638.38
339.09	1667.05
339.31	1681.38
339.52	1656.81
339.73	1677.29
339.94	1732.58
340.15	1746.92
340.36	1656.81
340.58	1705.96
340.79	1595.37
341.00	1701.86
341.21	1677.29
341.42	1816.55
341.63	1658.85
341.85	1718.25
342.06	1791.97
342.27	1679.33
342.48	1724.39
342.69	1607.66
342.90	1748.97
343.12	1767.40
343.33	1740.77
343.54	1708.01
343.75	1816.55
343.96	1724.39
344.17	1714.15
344.38	1710.05
344.60	1720.29
344.81	1718.25
345.02	1738.73
345.23	1781.73
345.44	1789.92
345.65	1669.09
345.86	1751.01
346.07	1656.81
346.29	1615.85
346.50	1736.68
346.71	1771.49
346.92	1787.88
347.13	1826.79
347.34	1751.01
347.55	1798.12
347.76	1734.63
347.98	1617.90
348.19	1738.73
348.40	1738.73
348.61	1726.44
348.82	1814.50
349.03	1771.49
349.24	1705.96
349.45	1806.31
349.66	1599.46
349.88	1761.25
350.09	1685.48
350.30	1777.64
350.51	1753.06
350.72	1742.82
350.93	1755.11
351.14	1730.53
351.35	1720.29
351.56	1751.01
351.77	1787.88
351.99	1695.72
352.20	1773.54
352.41	1837.03
352.62	1605.61
352.83	1767.40
353.04	1724.39
353.25	1662.95
353.46	1820.64
353.67	1777.64
353.88	1613.80
354.09	1765.35
354.30	1753.06
354.52	1800.16
354.73	1701.86
354.94	1671.14
355.15	1679.33
355.36	1800.16
355.57	1683.43
355.78	1802.21
355.99	1607.66
356.20	1695.72
356.41	1751.01
356.62	1693.67
356.83	1751.01
357.04	1742.82
357.25	1609.70
357.46	1599.46
357.68	1687.53
357.89	1665.00
358.10	1695.72
358.31	1640.42
358.52	1722.34
358.73	1609.70
358.94	1705.96
359.15	1656.81
359.36	1742.82
359.57	1781.73
359.78	1732.58
359.99	1789.92
360.20	1619.94
360.41	1744.87
360.62	1812.45
360.83	1765.35
361.04	1734.63
361.25	1705.96
361.46	1798.12
361.67	1726.44
361.88	1742.82
362.09	1722.34
362.30	1744.87
362.51	1675.24
362.72	1710.05
362.93	1724.39
363.14	1777.64
363.35	1746.92
363.56	1654.76
363.78	1703.91
363.99	1710.05
364.20	1693.67
364.41	1726.44
364.62	1822.69
364.83	1779.68
365.04	1759.21
365.25	1595.37
365.46	1783.78
365.67	1712.10
365.88	1656.81
366.09	1691.62
366.30	1695.72
366.51	1679.33
366.72	1611.75
366.93	1689.57
367.14	1783.78
367.35	1779.68
367.56	1734.63
367.77	1849.32
367.98	1718.25
368.18	1779.68
368.39	1744.87
368.60	1634.28
368.81	1785.83
369.02	1800.16
369.23	1699.81
369.44	1640.42
369.65	1699.81
369.86	1744.87
370.07	1806.31
370.28	1652.71
370.49	1789.92
370.70	1722.34
370.91	1642.47
371.12	1705.96
371.33	1744.87
371.54	1691.62
371.75	1794.02
371.96	1521.64
372.17	1746.92
372.38	1730.53
372.59	1830.88
372.80	1763.30
373.01	1693.67
373.22	1736.68
373.43	1714.15
373.64	1714.15
373.85	1794.02
374.06	1839.08
374.26	1800.16
374.47	1742.82
374.68	1775.59
374.89	1708.01
375.10	1742.82
375.31	1744.87
375.52	1701.86
375.73	1730.53
375.94	1701.86
376.15	1755.11
376.36	1648.61
376.57	1665.00
376.78	1728.49
376.99	1820.64
377.20	1781.73
377.40	1734.63
377.61	1830.88
377.82	1720.29
378.03	1787.88
378.24	1769.44
378.45	1693.67
378.66	1736.68
378.87	1581.03
379.08	1601.51
379.29	1755.11
379.50	1771.49
379.71	1802.21
379.91	1800.16
380.12	1648.61
380.33	1714.15
380.54	1771.49
380.75	1701.86
380.96	1708.01
381.17	1843.17
381.38	1681.38
381.59	1726.44
381.80	1744.87
382.00	1916.90
382.21	1771.49
382.42	1882.08
382.63	1951.71
382.84	1820.64
383.05	1730.53
383.26	1839.08
383.47	1779.68
383.68	1691.62
383.88	1726.44
384.09	1718.25
384.30	1794.02
384.51	1734.63
384.72	1675.24
384.93	1587.18
385.14	1669.09
385.35	1773.54
385.55	1644.52
385.76	1732.58
385.97	1712.10
386.18	1593.32
386.39	1689.57
386.60	1697.77
386.81	1716.20
387.02	1667.05
387.22	1679.33
387.43	1845.22
387.64	1855.46
387.85	1894.37
388.06	2189.28
388.27	4030.40
388.48	6645.66
388.68	8181.64
388.89	9500.53
389.10	9840.49
389.31	8513.41
389.52	7499.66
389.73	6659.99
389.93	6295.46
390.14	5801.90
390.35	5097.39
390.56	4538.30
390.77	3772.36
390.98	3043.28
391.18	2469.85
391.39	2113.50
391.60	1931.23
391.81	1910.75
392.02	1699.81
392.23	1857.51
392.43	1714.15
392.64	1841.12
392.85	1675.24
393.06	1812.45
393.27	1656.81
393.47	1660.90
393.68	1714.15
393.89	1673.19
394.10	1802.21
394.31	1701.86
394.52	1611.75
394.72	1683.43
394.93	1875.94
395.14	1673.19
395.35	1828.84
395.56	1748.97
395.76	1800.16
395.97	1847.27
396.18	1771.49
396.39	1845.22
396.60	2035.68
396.80	1961.95
397.01	1877.99
397.22	1849.32
397.43	1841.12
397.64	1781.73
397.84	1812.45
398.05	1802.21
398.26	1705.96
398.47	1796.07
398.67	1896.42
398.88	1716.20
399.09	1693.67
399.30	1763.30
399.51	1722.34
399.71	1630.18
399.92	1701.86
400.13	1816.55
400.34	1662.95
400.54	1712.10
400.75	1828.84
400.96	1697.77
401.17	1884.13
401.37	1822.69
401.58	1693.67
401.79	1722.34
402.00	1851.36
402.21	1949.67
402.41	2015.20
402.62	2015.20
402.83	2093.02
403.04	1894.37
403.24	2133.98
403.45	1894.37
403.66	1812.45
403.87	1931.23
404.07	1937.38
404.28	1923.04
404.49	1834.98
404.70	1812.45
404.90	1804.26
405.11	1738.73
405.32	1789.92
405.52	1619.94
405.73	1705.96
405.94	1654.76
406.15	1687.53
406.35	1816.55
406.56	1632.23
406.77	1746.92
406.98	1789.92
407.18	1671.14
407.39	1785.83
407.60	1761.25
407.80	1773.54
408.01	1648.61
408.22	1738.73
408.43	1630.18
408.63	1806.31
408.84	1775.59
409.05	1863.65
409.25	1685.48
409.46	1667.05
409.67	1699.81
409.88	1624.04
410.08	1746.92
410.29	1742.82
410.50	1800.16
410.70	1763.30
410.91	1705.96
411.12	1708.01
411.32	1730.53
411.53	1705.96
411.74	1871.84
411.95	1728.49
412.15	1812.45
412.36	1751.01
412.57	1767.40
412.77	1828.84
412.98	1732.58
413.19	1728.49
413.39	1757.16
413.60	1742.82
413.81	1751.01
414.01	1705.96
414.22	1773.54
414.43	1718.25
414.63	1728.49
414.84	1771.49
415.05	1726.44
415.25	1654.76
415.46	1800.16
415.67	1689.57
415.87	1679.33
416.08	1714.15
416.29	1683.43
416.49	1753.06
416.70	1679.33
416.91	1734.63
417.11	1687.53
417.32	1779.68
417.53	1746.92
417.73	1736.68
417.94	1701.86
418.15	1730.53
418.35	1718.25
418.56	1751.01
418.77	1849.32
418.97	1667.05
419.18	1732.58
419.38	1591.27
419.59	1769.44
419.80	1871.84
420.00	1722.34
420.21	1689.57
420.42	1724.39
420.62	1710.05
420.83	1691.62
421.04	1691.62
421.24	1656.81
421.45	1740.77
421.65	1804.26
421.86	1599.46
422.07	1697.77
422.27	1710.05
422.48	1738.73
422.69	1634.28
422.89	1740.77
423.10	1667.05
423.30	1708.01
423.51	1773.54
423.72	1806.31
423.92	1740.77
424.13	1591.27
424.33	1699.81
424.54	1753.06
424.75	1716.20
424.95	1857.51
425.16	1757.16
425.36	1722.34
425.57	1783.78
425.78	1773.54
425.98	1777.64
426.19	1728.49
426.39	1669.09
426.60	1785.83
426.81	1753.06
427.01	1728.49
427.22	1654.76
427.42	1646.57
427.63	1574.89
427.83	1773.54
428.04	1841.12
428.25	1787.88
428.45	1757.16
428.66	1738.73
428.86	1751.01
429.07	1615.85
429.28	1755.11
429.48	1652.71
429.69	1634.28
429.89	1861.60
430.10	1630.18
430.30	1779.68
430.51	1763.30
430.71	1654.76
430.92	1685.48
431.13	1665.00
431.33	1771.49
431.54	1734.63
431.74	1771.49
431.95	1867.75
432.15	1712.10
432.36	1726.44
432.56	1777.64
432.77	1800.16
432.98	1837.03
433.18	1701.86
433.39	1710.05
433.59	1689.57
433.80	1886.18
434.00	1912.80
434.21	1675.24
434.41	1681.38
434.62	1832.93
434.82	1751.01
435.03	1636.33
435.23	1759.21
435.44	1638.38
435.64	1705.96
435.85	1769.44
436.06	1796.07
436.26	1789.92
436.47	1701.86
436.67	1642.47
436.88	1718.25
437.08	1740.77
437.29	1837.03
437.49	1693.67
437.70	1800.16
437.90	1697.77
438.11	1910.75
438.31	1783.78
438.52	1832.93
438.72	1816.55
438.93	1884.13
439.13	1853.41
439.34	1820.64
439.54	1751.01
439.75	1775.59
439.95	1853.41
440.16	1640.42
440.36	1779.68
440.57	1730.53
440.77	1771.49
440.98	1767.40
441.18	1789.92
441.39	1685.48
441.59	1683.43
441.80	1916.90
442.00	1714.15
442.21	1767.40
442.41	1626.09
442.62	1695.72
442.82	1755.11
443.02	1767.40
443.23	1830.88
443.43	1742.82
443.64	1748.97
443.84	1665.00
444.05	1816.55
444.25	1798.12
444.46	1757.16
444.66	1769.44
444.87	1843.17
445.07	1761.25
445.28	1763.30
445.48	1886.18
445.69	1755.11
445.89	1839.08
446.09	1849.32
446.30	1996.77
446.50	2691.03
446.71	3715.02
446.91	4427.71
447.12	4730.81
447.32	4865.97
447.53	4278.21
447.73	3866.56
447.93	3534.79
448.14	3231.69
448.34	3248.08
448.55	2910.16
448.75	2899.92
448.96	2701.27
449.16	2349.02
449.36	2248.67
449.57	2047.97
449.77	1931.23
449.98	1748.97
450.18	1904.61
450.39	1871.84
450.59	1857.51
450.79	1771.49
451.00	1699.81
451.20	1759.21
451.41	1689.57
451.61	1781.73
451.81	1730.53
452.02	1810.40
452.22	1761.25
452.43	1763.30
452.63	1812.45
452.84	1697.77
453.04	1736.68
453.24	1808.36
453.45	1720.29
453.65	1783.78
453.86	1742.82
454.06	1771.49
454.26	1765.35
454.47	1755.11
454.67	1789.92
454.87	1701.86
455.08	1789.92
455.28	1771.49
455.49	1761.25
455.69	1660.90
455.89	1820.64
456.10	1769.44
456.30	1722.34
456.51	1730.53
456.71	1785.83
456.91	1732.58
457.12	1740.77
457.32	1773.54
457.52	1712.10
457.73	1847.27
457.93	1761.25
458.14	1746.92
458.34	1742.82
458.54	1736.68
458.75	1767.40
458.95	1771.49
459.15	1798.12
459.36	1751.01
459.56	1769.44
459.76	1894.37
459.97	1796.07
460.17	1761.25
460.37	1767.40
460.58	1652.71
460.78	1814.50
460.99	1751.01
461.19	1787.88
461.39	1703.91
461.60	1746.92
461.80	1763.30
462.00	1718.25
462.21	1718.25
462.41	1738.73
462.61	1767.40
462.82	1689.57
463.02	1804.26
463.22	1712.10
463.43	1837.03
463.63	1705.96
463.83	1869.80
464.04	1800.16
464.24	1787.88
464.44	1658.85
464.64	1777.64
464.85	1685.48
465.05	1751.01
465.25	1751.01
465.46	1712.10
465.66	1701.86
465.86	1740.77
466.07	1718.25
466.27	1761.25
466.47	1705.96
466.68	1640.42
466.88	1822.69
467.08	1832.93
467.29	1873.89
467.49	1765.35
467.69	1746.92
467.89	1708.01
468.10	1734.63
468.30	1802.21
468.50	1777.64
468.71	1751.01
468.91	1626.09
469.11	1843.17
469.31	1755.11
469.52	1718.25
469.72	1748.97
469.92	1855.46
470.13	1722.34
470.33	1734.63
470.53	1841.12
470.73	2146.27
470.94	2263.01
471.14	2328.54
471.34	2473.95
471.54	2439.13
471.75	2250.72
471.95	2115.55
472.15	2080.74
472.36	2140.13
472.56	2047.97
472.76	2072.54
472.96	2027.49
473.17	1943.52
473.37	1912.80
473.57	1796.07
473.77	1808.36
473.98	1775.59
474.18	1753.06
474.38	1943.52
474.58	1699.81
474.79	1687.53
474.99	1794.02
475.19	1785.83
475.39	1656.81
475.60	1712.10
475.80	1740.77
476.00	1724.39
476.20	1794.02
476.41	1697.77
476.61	1837.03
476.81	1775.59
477.01	1662.95
477.21	1920.99
477.42	1898.47
477.62	1675.24
477.82	1765.35
478.02	1699.81
478.23	1814.50
478.43	1675.24
478.63	1751.01
478.83	1775.59
479.03	1724.39
479.24	1818.60
479.44	1722.34
479.64	1689.57
479.84	1681.38
480.04	1730.53
480.25	1761.25
480.45	1662.95
480.65	1765.35
480.85	1863.65
481.06	1746.92
481.26	1791.97
481.46	1748.97
481.66	1718.25
481.86	1720.29
482.06	1808.36
482.27	1710.05
482.47	1720.29
482.67	1751.01
482.87	1728.49
483.07	1783.78
483.28	1753.06
483.48	1671.14
483.68	1791.97
483.88	1683.43
484.08	1630.18
484.29	1763.30
484.49	1669.09
484.69	1617.90
484.89	1802.21
485.09	1818.60
485.29	1734.63
485.50	1873.89
485.70	1755.11
485.90	1837.03
486.10	1779.68
486.30	1791.97
486.50	1800.16
486.71	1769.44
486.91	1775.59
487.11	1765.35
487.31	1673.19
487.51	1775.59
487.71	1701.86
487.91	1617.90
488.12	1689.57
488.32	1570.79
488.52	1701.86
488.72	1624.04
488.92	1722.34
489.12	1730.53
489.32	1820.64
489.53	1765.35
489.73	1652.71
489.93	1929.19
490.13	1710.05
490.33	1738.73
490.53	1730.53
490.73	1765.35
490.94	1634.28
491.14	1779.68
491.34	1894.37
491.54	2150.37
491.74	2580.44
491.94	2912.21
492.14	3088.34
492.34	3102.67
492.54	2723.80
492.75	2459.61
492.95	2414.56
493.15	2238.43
493.35	2357.21
493.55	2230.24
493.75	2199.52
493.95	2181.09
494.15	1957.86
494.35	1892.32
494.56	1857.51
494.76	1800.16
494.96	1830.88
495.16	1849.32
495.36	1751.01
495.56	1800.16
495.76	1703.91
495.96	1722.34
496.16	1777.64
496.36	1888.23
496.56	1722.34
496.77	1765.35
496.97	1763.30
497.17	1794.02
497.37	1671.14
497.57	1837.03
497.77	1757.16
497.97	1677.29
498.17	1681.38
498.37	1751.01
498.57	1742.82
498.77	1753.06
498.97	1708.01
499.17	1861.60
499.38	1791.97
499.58	1787.88
499.78	1822.69
499.98	1855.46
500.18	1720.29
500.38	1714.15
500.58	1925.09
500.78	2553.82
500.98	4597.69
501.18	5664.68
501.38	6752.15
501.58	7061.40
501.78	6735.77
501.98	5531.56
502.18	4972.47
502.38	4378.56
502.58	4247.49
502.78	3903.43
502.98	3655.62
503.18	3446.73
503.38	3196.88
503.59	2785.24
503.79	2660.31
503.99	2523.10
504.19	2394.08
504.39	2263.01
504.59	2176.99
504.79	2076.64
504.99	2086.88
505.19	1978.34
505.39	2000.87
505.59	1941.47
505.79	1998.82
505.99	1816.55
506.19	1822.69
506.39	1982.43
506.59	1730.53
506.79	1804.26
506.99	1828.84
507.19	1777.64
507.39	1794.02
507.59	1732.58
507.79	1726.44
507.99	1703.91
508.19	1761.25
508.39	1736.68
508.59	1697.77
508.79	1757.16
508.99	1839.08
509.19	1751.01
509.39	1781.73
509.59	1669.09
509.79	1679.33
509.99	1814.50
510.19	1748.97
510.39	1783.78
510.59	1757.16
510.79	1757.16
510.99	1730.53
511.19	1847.27
511.39	1808.36
511.59	1820.64
511.79	1857.51
511.99	1814.50
512.19	1820.64
512.38	1746.92
512.58	1671.14
512.78	1761.25
512.98	1859.56
513.18	1818.60
513.38	1652.71
513.58	1777.64
513.78	1834.98
513.98	1708.01
514.18	1800.16
514.38	1691.62
514.58	1828.84
514.78	1718.25
514.98	1738.73
515.18	1701.86
515.38	1726.44
515.58	1832.93
515.78	1712.10
515.98	1751.01
516.18	1824.74
516.38	1746.92
516.57	1794.02
516.77	1738.73
516.97	1830.88
517.17	1658.85
517.37	1648.61
517.57	1773.54
517.77	1746.92
517.97	1732.58
518.17	1843.17
518.37	1718.25
518.57	1681.38
518.77	1751.01
518.97	1728.49
519.16	1732.58
519.36	1800.16
519.56	1708.01
519.76	1759.21
519.96	1765.35
520.16	1724.39
520.36	1687.53
520.56	1824.74
520.76	1710.05
520.96	1734.63
521.16	1814.50
521.35	1787.88
521.55	1800.16
521.75	1746.92
521.95	1710.05
522.15	1738.73
522.35	1681.38
522.55	1714.15
522.75	1783.78
522.95	1767.40
523.14	1697.77
523.34	1828.84
523.54	1763.30
523.74	1699.81
523.94	1738.73
524.14	1687.53
524.34	1761.25
524.54	1826.79
524.73	1734.63
524.93	1773.54
525.13	1710.05
525.33	1687.53
525.53	1863.65
525.73	1810.40
525.93	1734.63
526.13	1685.48
526.32	1753.06
526.52	1818.60
526.72	1701.86
526.92	1812.45
527.12	1705.96
527.32	1648.61
527.52	1728.49
527.71	1730.53
527.91	1763.30
528.11	1734.63
528.31	1841.12
528.51	1675.24
528.71	1783.78
528.90	1720.29
529.10	1804.26
529.30	1812.45
529.50	1619.94
529.70	1753.06
529.90	1740.77
530.09	1761.25
530.29	1677.29
530.49	1736.68
530.69	1820.64
530.89	1884.13
531.09	1767.40
531.28	1642.47
531.48	1843.17
531.68	1753.06
531.88	1681.38
532.08	1802.21
532.28	1685.48
532.47	1806.31
532.67	1798.12
532.87	1769.44
533.07	1701.86
533.27	1759.21
533.46	1791.97
533.66	1802.21
533.86	1710.05
534.06	1718.25
534.26	1746.92
534.45	1728.49
534.65	1837.03
534.85	1798.12
535.05	1740.77
535.25	1736.68
535.44	1660.90
535.64	1800.16
535.84	1728.49
536.04	1689.57
536.24	1716.20
536.43	1740.77
536.63	1812.45
536.83	1720.29
537.03	1773.54
537.22	1699.81
537.42	1669.09
537.62	1865.70
537.82	1689.57
538.02	1785.83
538.21	1773.54
538.41	1894.37
538.61	1767.40
538.81	1714.15
539.00	1810.40
539.20	1732.58
539.40	1673.19
539.60	1755.11
539.79	1853.41
539.99	1710.05
540.19	1716.20
540.39	1757.16
540.58	1837.03
540.78	1832.93
540.98	1828.84
541.18	1771.49
541.37	1787.88
541.57	1753.06
541.77	1812.45
541.97	1665.00
542.16	1716.20
542.36	1794.02
542.56	1726.44
542.76	1828.84
542.95	1822.69
543.15	1816.55
543.35	1810.40
543.54	1763.30
543.74	1703.91
543.94	1791.97
544.14	1703.91
544.33	1791.97
544.53	1769.44
544.73	1763.30
544.93	1755.11
545.12	1695.72
545.32	1753.06
545.52	1769.44
545.71	1691.62
545.91	1800.16
546.11	1738.73
546.30	1656.81
546.50	1712.10
546.70	1763.30
546.90	1751.01
547.09	1656.81
547.29	1734.63
547.49	1777.64
547.68	1675.24
547.88	1726.44
548.08	1837.03
548.27	2224.09
548.47	1742.82
548.67	1695.72
548.87	1828.84
549.06	1763.30
549.26	1769.44
549.46	1779.68
549.65	1789.92
549.85	1746.92
550.05	1767.40
550.24	1687.53
550.44	1781.73
550.64	1761.25
550.83	1677.29
551.03	1880.04
551.23	1816.55
551.42	1769.44
551.62	1679.33
551.82	1722.34
552.01	1728.49
552.21	1783.78
552.41	1705.96
552.60	1798.12
552.80	1794.02
553.00	1683.43
553.19	1728.49
553.39	1877.99
553.59	1648.61
553.78	1693.67
553.98	1855.46
554.17	1689.57
554.37	1734.63
554.57	1802.21
554.76	1697.77
554.96	1708.01
555.16	1781.73
555.35	1763.30
555.55	1783.78
555.75	1744.87
555.94	1794.02
556.14	1689.57
556.33	1738.73
556.53	1781.73
556.73	1722.34
556.92	1710.05
557.12	1761.25
557.32	1859.56
557.51	1843.17
557.71	1779.68
557.90	1818.60
558.10	1775.59
558.30	1767.40
558.49	1701.86
558.69	1773.54
558.88	1859.56
559.08	1675.24
559.28	1708.01
559.47	1724.39
559.67	1814.50
559.86	1912.80
560.06	1779.68
560.26	1720.29
560.45	1757.16
560.65	1638.38
560.84	1904.61
561.04	1787.88
561.24	1730.53
561.43	1675.24
561.63	1804.26
561.82	1757.16
562.02	1802.21
562.22	1773.54
562.41	1716.20
562.61	1714.15
562.80	1697.77
563.00	1935.33
563.19	1783.78
563.39	1787.88
563.59	1810.40
563.78	1720.29
563.98	1648.61
564.17	1771.49
564.37	1671.14
564.56	1744.87
564.76	1695.72
564.96	1814.50
565.15	1839.08
565.35	1949.67
565.54	1845.22
565.74	1779.68
565.93	1816.55
566.13	1771.49
566.32	1712.10
566.52	1777.64
566.71	1763.30
566.91	1820.64
567.11	1751.01
567.30	1669.09
567.50	1841.12
567.69	1708.01
567.89	1736.68
568.08	1669.09
568.28	1689.57
568.47	1708.01
568.67	1689.57
568.86	1673.19
569.06	1794.02
569.25	1712.10
569.45	1640.42
569.64	1789.92
569.84	1740.77
570.04	1724.39
570.23	1730.53
570.43	1716.20
570.62	1728.49
570.82	1877.99
571.01	1683.43
571.21	1785.83
571.40	1685.48
571.60	1746.92
571.79	1730.53
571.99	1787.88
572.18	1718.25
572.38	1798.12
572.57	1738.73
572.77	1812.45
572.96	1951.71
573.16	1724.39
573.35	1746.92
573.55	1757.16
573.74	1841.12
573.94	1771.49
574.13	1703.91
574.33	1814.50
574.52	1777.64
574.71	1824.74
574.91	1855.46
575.10	1705.96
575.30	1726.44
575.49	1648.61
575.69	1683.43
575.88	1773.54
576.08	1757.16
576.27	1791.97
576.47	1695.72
576.66	1806.31
576.86	1826.79
577.05	1751.01
577.25	1806.31
577.44	1947.62
577.64	1785.83
577.83	1755.11
578.02	1732.58
578.22	1849.32
578.41	1779.68
578.61	1724.39
578.80	1705.96
579.00	1824.74
579.19	1744.87
579.39	1763.30
579.58	1837.03
579.77	1755.11
579.97	1871.84
580.16	1855.46
580.36	1791.97
580.55	1855.46
580.75	1763.30
580.94	1697.77
581.13	1966.05
581.33	1808.36
581.52	1757.16
581.72	1898.47
581.91	1900.52
582.11	1701.86
582.30	1871.84
582.49	1787.88
582.69	1806.31
582.88	1814.50
583.08	1714.15
583.27	1880.04
583.47	1734.63
583.66	1691.62
583.85	1693.67
584.05	1755.11
584.24	1814.50
584.44	1822.69
584.63	1916.90
584.82	1746.92
585.02	1855.46
585.21	1877.99
585.41	1892.32
585.60	1845.22
585.79	1955.81
585.99	1927.14
586.18	1875.94
586.37	2201.57
586.57	3377.10
586.76	9989.99
586.96	24301.20
587.15	34344.44
587.34	40273.31
587.54	42073.47
587.73	36459.99
587.93	26105.46
588.12	21393.08
588.31	18140.91
588.51	16414.47
588.70	15081.24
588.89	13942.57
589.09	12482.37
589.28	10829.66
589.47	9459.57
589.67	7933.83
589.86	6360.99
590.06	4874.17
590.25	3801.03
590.44	3137.49
590.64	2529.24
590.83	2238.43
591.02	2172.89
591.22	2013.15
591.41	1855.46
591.60	1757.16
591.80	1935.33
591.99	1781.73
592.18	1775.59
592.38	1820.64
592.57	1753.06
592.76	1779.68
592.96	1841.12
593.15	1859.56
593.34	1798.12
593.54	1744.87
593.73	1800.16
593.92	1783.78
594.12	1771.49
594.31	1771.49
594.50	1804.26
594.70	1777.64
594.89	1916.90
595.08	1720.29
595.28	1816.55
595.47	1959.91
595.66	1830.88
595.86	1722.34
596.05	1757.16
596.24	1753.06
596.43	1740.77
596.63	1789.92
596.82	1732.58
597.01	1763.30
597.21	1916.90
597.40	1785.83
597.59	1757.16
597.79	1681.38
597.98	1816.55
598.17	1767.40
598.36	1808.36
598.56	1693.67
598.75	1697.77
598.94	1804.26
599.14	1742.82
599.33	1724.39
599.52	1832.93
599.71	1791.97
599.91	1775.59
600.10	1818.60
600.29	1722.34
600.48	1818.60
600.68	1810.40
600.87	1703.91
601.06	1652.71
601.26	1710.05
601.45	1828.84
601.64	1695.72
601.83	1798.12
602.03	1757.16
602.22	1691.62
602.41	1810.40
602.60	1775.59
602.80	1814.50
602.99	1736.68
603.18	1689.57
603.37	1771.49
603.57	1759.21
603.76	1746.92
603.95	1877.99
604.14	1710.05
604.34	1685.48
604.53	1730.53
604.72	1775.59
604.91	1806.31
605.10	1890.28
605.30	1716.20
605.49	1849.32
605.68	1800.16
605.87	1779.68
606.07	1669.09
606.26	1751.01
606.45	1761.25
606.64	1822.69
606.84	1773.54
607.03	1738.73
607.22	1832.93
607.41	1683.43
607.60	1748.97
607.80	1818.60
607.99	1734.63
608.18	1728.49
608.37	1746.92
608.56	1740.77
608.76	1806.31
608.95	1753.06
609.14	1746.92
609.33	1816.55
609.52	1791.97
609.72	1769.44
609.91	1767.40
610.10	1736.68
610.29	1736.68
610.48	1708.01
610.68	1796.07
610.87	1740.77
611.06	1738.73
611.25	1687.53
611.44	1816.55
611.63	1734.63
611.83	1837.03
612.02	1705.96
612.21	1816.55
612.40	1693.67
612.59	1683.43
612.79	1728.49
612.98	1822.69
613.17	1841.12
613.36	1771.49
613.55	1847.27
613.74	1660.90
613.93	1648.61
614.13	1740.77
614.32	1810.40
614.51	1751.01
614.70	1800.16
614.89	1687.53
615.08	1730.53
615.28	2160.61
615.47	1644.52
615.66	1736.68
615.85	1763.30
616.04	1841.12
616.23	1687.53
616.42	1691.62
616.62	1789.92
616.81	1839.08
617.00	1794.02
617.19	1822.69
617.38	1660.90
617.57	1746.92
617.76	1718.25
617.95	1865.70
618.15	1742.82
618.34	1826.79
618.53	1671.14
618.72	1742.82
618.91	1816.55
619.10	1781.73
619.29	1800.16
619.48	1755.11
619.68	1732.58
619.87	1695.72
620.06	1751.01
620.25	1753.06
620.44	1683.43
620.63	1791.97
620.82	1740.77
621.01	1802.21
621.20	1771.49
621.39	1738.73
621.59	1789.92
621.78	1708.01
621.97	1755.11
622.16	1812.45
622.35	1773.54
622.54	1767.40
622.73	1804.26
622.92	1656.81
623.11	1769.44
623.30	1697.77
623.49	1796.07
623.68	1667.05
623.88	1916.90
624.07	1736.68
624.26	1734.63
624.45	1691.62
624.64	1718.25
624.83	1771.49
625.02	1728.49
625.21	1771.49
625.40	1703.91
625.59	1812.45
625.78	1781.73
625.97	1796.07
626.16	1742.82
626.35	1796.07
626.54	1761.25
626.74	1802.21
626.93	1665.00
627.12	1695.72
627.31	1794.02
627.50	1742.82
627.69	1865.70
627.88	1681.38
628.07	1804.26
628.26	1648.61
628.45	1681.38
628.64	1652.71
628.83	1671.14
629.02	1607.66
629.21	1726.44
629.40	1757.16
629.59	1665.00
629.78	1710.05
629.97	1791.97
630.16	1724.39
630.35	1660.90
630.54	1730.53
630.73	1789.92
630.92	1691.62
631.11	1642.47
631.30	1773.54
631.49	1787.88
631.68	1716.20
631.87	1748.97
632.06	1662.95
632.25	1834.98
632.44	1814.50
632.63	1722.34
632.82	1781.73
633.01	1708.01
633.20	1667.05
633.39	1695.72
633.58	1679.33
633.77	1718.25
633.96	1699.81
634.15	1724.39
634.34	1787.88
634.53	1791.97
634.72	1654.76
634.91	1683.43
635.10	1818.60
635.29	1841.12
635.48	1798.12
635.67	1722.34
635.86	1665.00
636.05	1798.12
636.24	1728.49
636.43	1681.38
636.62	1853.41
636.81	1621.99
637.00	1714.15
637.19	1806.31
637.38	1773.54
637.57	1691.62
637.76	1703.91
637.95	1740.77
638.14	1679.33
638.33	1708.01
638.52	1681.38
638.71	1705.96
638.89	1648.61
639.08	1800.16
639.27	1783.78
639.46	1689.57
639.65	1734.63
639.84	1748.97
640.03	1785.83
640.22	1685.48
640.41	1869.80
640.60	1736.68
640.79	1693.67
640.98	1660.90
641.17	1802.21
641.36	1697.77
641.55	1681.38
641.74	1720.29
641.92	1634.28
642.11	1644.52
642.30	1708.01
642.49	1644.52
642.68	1714.15
642.87	1802.21
643.06	1830.88
643.25	1640.42
643.44	1632.23
643.63	1755.11
643.82	1812.45
644.00	1665.00
644.19	1755.11
644.38	1691.62
644.57	1742.82
644.76	1796.07
644.95	1738.73
645.14	1644.52
645.33	1738.73
645.52	1775.59
645.71	1677.29
645.89	1693.67
646.08	1773.54
646.27	1722.34
646.46	1904.61
646.65	1703.91
646.84	1779.68
647.03	1693.67
647.22	1855.46
647.40	1730.53
647.59	1722.34
647.78	1658.85
647.97	1646.57
648.16	1718.25
648.35	1888.23
648.54	1847.27
648.73	1718.25
648.91	1763.30
649.10	1742.82
649.29	1669.09
649.48	1773.54
649.67	1763.30
649.86	1734.63
650.05	1736.68
650.23	1814.50
650.42	1726.44
650.61	1816.55
650.80	1765.35
650.99	1853.41
651.18	1714.15
651.36	1775.59
651.55	1705.96
651.74	1785.83
651.93	1732.58
652.12	1689.57
652.31	1697.77
652.49	1695.72
652.68	1718.25
652.87	1759.21
653.06	1632.23
653.25	1763.30
653.44	1712.10
653.62	1822.69
653.81	1720.29
654.00	1697.77
654.19	1869.80
654.38	1925.09
654.56	1753.06
654.75	1734.63
654.94	1738.73
655.13	1753.06
655.32	1796.07
655.51	1818.60
655.69	1699.81
655.88	1818.60
656.07	1777.64
656.26	1800.16
656.45	1624.04
656.63	1789.92
656.82	1755.11
657.01	1822.69
657.20	1658.85
657.38	1910.75
657.57	1701.86
657.76	1599.46
657.95	1759.21
658.14	1697.77
658.32	1714.15
658.51	1734.63
658.70	1796.07
658.89	1697.77
659.08	1718.25
659.26	1849.32
659.45	1734.63
659.64	1834.98
659.83	1642.47
660.01	1914.85
660.20	1769.44
660.39	1822.69
660.58	1662.95
660.76	1732.58
660.95	1669.09
661.14	1783.78
661.33	1640.42
661.51	1755.11
661.70	1724.39
661.89	1777.64
662.08	1759.21
662.26	1636.33
662.45	1728.49
662.64	1828.84
662.83	1783.78
663.01	1681.38
663.20	1755.11
663.39	1773.54
663.58	1660.90
663.76	1730.53
663.95	1759.21
664.14	1667.05
664.32	1677.29
664.51	1640.42
664.70	1665.00
664.89	1763.30
665.07	1726.44
665.26	1806.31
665.45	1673.19
665.64	1843.17
665.82	1714.15
666.01	1791.97
666.20	1753.06
666.38	1779.68
666.57	1898.47
666.76	2209.76
666.95	4741.05
667.13	10571.61
667.32	15361.81
667.51	17759.98
667.69	19021.53
667.88	17694.45
668.07	12238.66
668.25	9566.06
668.44	8099.72
668.63	7376.78
668.81	6743.96
669.00	6350.75
669.19	5683.11
669.38	5027.76
669.56	4571.07
669.75	3860.42
669.94	3471.31
670.12	2836.44
670.31	2498.52
670.50	2265.05
670.68	2025.44
670.87	1945.57
671.06	1857.51
671.24	1818.60
671.43	1869.80
671.62	1783.78
671.80	1751.01
671.99	1834.98
672.18	1765.35
672.36	1828.84
672.55	1794.02
672.74	1740.77
672.92	1705.96
673.11	1775.59
673.29	1658.85
673.48	1751.01
673.67	1712.10
673.85	1822.69
674.04	1679.33
674.23	1753.06
674.41	1789.92
674.60	1718.25
674.79	1712.10
674.97	1662.95
675.16	1757.16
675.34	1740.77
675.53	1742.82
675.72	1748.97
675.90	1767.40
676.09	1681.38
676.28	1695.72
676.46	1775.59
676.65	1781.73
676.83	1665.00
677.02	1736.68
677.21	1748.97
677.39	1658.85
677.58	1650.66
677.77	1720.29
677.95	1693.67
678.14	1701.86
678.32	1708.01
678.51	1681.38
678.70	1794.02
678.88	1738.73
679.07	1736.68
679.25	1636.33
679.44	1683.43
679.63	1669.09
679.81	1705.96
680.00	1767.40
680.18	1806.31
680.37	1818.60
680.55	1742.82
680.74	1628.14
680.93	1638.38
681.11	1724.39
681.30	1718.25
681.48	1714.15
681.67	1687.53
681.85	1800.16
682.04	1632.23
682.23	1806.31
682.41	1748.97
682.60	1658.85
682.78	1818.60
682.97	1656.81
683.15	1755.11
683.34	1742.82
683.53	1767.40
683.71	1699.81
683.90	1892.32
684.08	1890.28
684.27	1722.34
684.45	1818.60
684.64	1859.56
684.82	1695.72
685.01	1765.35
685.19	1681.38
685.38	1822.69
685.57	1634.28
685.75	1662.95
685.94	1693.67
686.12	1644.52
686.31	1744.87
686.49	1773.54
686.68	1640.42
686.86	1777.64
687.05	1783.78
687.23	1839.08
687.42	1634.28
687.60	1638.38
687.79	1798.12
687.97	1789.92
688.16	1849.32
688.34	1751.01
688.53	1646.57
688.71	1724.39
688.90	1826.79
689.08	1759.21
689.27	1681.38
689.45	1720.29
689.64	1748.97
689.82	1714.15
690.01	1832.93
690.19	1804.26
690.38	1744.87
690.56	1796.07
690.75	1617.90
690.93	1767.40
691.12	1662.95
691.30	1755.11
691.49	1671.14
691.67	1695.72
691.86	1820.64
692.04	1642.47
692.23	1763.30
692.41	1658.85
692.60	1845.22
692.78	1712.10
692.97	1712.10
693.15	1787.88
693.34	1763.30
693.52	1765.35
693.71	1699.81
693.89	1753.06
694.08	1597.42
694.26	1787.88
694.44	1742.82
694.63	1769.44
694.81	1677.29
695.00	1708.01
695.18	1753.06
695.37	1886.18
695.55	1798.12
695.74	1708.01
695.92	1660.90
696.10	1804.26
696.29	1613.80
696.47	1671.14
696.66	1648.61
696.84	1687.53
697.03	1691.62
697.21	1832.93
697.40	2406.36
697.58	1767.40
697.76	1630.18
697.95	1703.91
698.13	1632.23
698.32	1669.09
698.50	1738.73
698.68	1798.12
698.87	1691.62
699.05	1751.01
699.24	1767.40
699.42	1683.43
699.61	1781.73
699.79	1773.54
699.97	1742.82
700.16	1677.29
700.34	1640.42
700.53	1785.83
700.71	1814.50
700.89	1763.30
701.08	1730.53
701.26	1701.86
701.45	2009.06
701.63	1652.71
701.81	1683.43
702.00	1624.04
702.18	1619.94
702.37	1689.57
702.55	1712.10
702.73	1697.77
702.92	1716.20
703.10	1746.92
703.28	1746.92
703.47	1656.81
703.65	1705.96
703.84	1773.54
704.02	1708.01
704.20	1814.50
704.39	1736.68
704.57	1796.07
704.75	1740.77
704.94	1800.16
705.12	1781.73
705.30	1796.07
705.49	2252.77
705.67	4468.67
705.86	9545.58
706.04	12531.52
706.22	14311.21
706.41	15191.83
706.59	13467.44
706.77	9277.30
706.96	7403.41
707.14	6592.41
707.32	5965.73
707.51	5586.86
707.69	4915.12
707.87	4042.69
708.06	3397.58
708.24	2901.97
708.42	2420.70
708.61	2281.44
708.79	1906.66
708.97	1918.95
709.16	1820.64
709.34	1781.73
709.52	1746.92
709.71	1722.34
709.89	1820.64
710.07	1660.90
710.26	1658.85
710.44	1759.21
710.62	1794.02
710.80	1730.53
710.99	1751.01
711.17	1742.82
711.35	1648.61
711.54	1636.33
711.72	1818.60
711.90	1755.11
712.09	1761.25
712.27	1683.43
712.45	1753.06
712.63	1695.72
712.82	1724.39
713.00	1763.30
713.18	1753.06
713.37	1710.05
713.55	1726.44
713.73	1808.36
713.91	1742.82
714.10	1693.67
714.28	1708.01
714.46	1662.95
714.65	1728.49
714.83	1699.81
715.01	1742.82
715.19	1644.52
715.38	1665.00
715.56	1718.25
715.74	1671.14
715.92	1705.96
716.11	1798.12
716.29	1583.08
716.47	1732.58
716.65	1685.48
716.84	1632.23
717.02	1820.64
717.20	1576.94
717.38	1728.49
717.57	1718.25
717.75	1726.44
717.93	1679.33
718.11	1810.40
718.30	1665.00
718.48	1771.49
718.66	1837.03
718.84	1724.39
719.03	1751.01
719.21	1648.61
719.39	1751.01
719.57	1771.49
719.75	1726.44
719.94	1744.87
720.12	1656.81
720.30	1726.44
720.48	1834.98
720.67	1681.38
720.85	1687.53
721.03	1617.90
721.21	1755.11
721.39	1777.64
721.58	1730.53
721.76	1730.53
721.94	1718.25
722.12	1720.29
722.30	1765.35
722.49	1675.24
722.67	1716.20
722.85	1763.30
723.03	1560.55
723.21	1732.58
723.40	1714.15
723.58	1716.20
723.76	1796.07
723.94	1855.46
724.12	1689.57
724.30	1781.73
724.49	1812.45
724.67	1699.81
724.85	1759.21
725.03	1703.91
725.21	1734.63
725.40	1781.73
725.58	1697.77
725.76	1794.02
725.94	1662.95
726.12	1648.61
726.30	1691.62
726.49	1761.25
726.67	1755.11
726.85	1701.86
727.03	1787.88
727.21	2207.71
727.39	2932.69
727.57	3837.89
727.76	4179.90
727.94	4511.68
728.12	4321.21
728.30	3727.30
728.48	3014.61
728.66	2799.57
728.84	2516.95
729.03	2299.87
729.21	2152.42
729.39	1927.14
729.57	1861.60
729.75	1851.36
729.93	1886.18
730.11	1701.86
730.30	1630.18
730.48	1673.19
730.66	1789.92
730.84	1757.16
731.02	1736.68
731.20	1632.23
731.38	1730.53
731.56	1677.29
731.74	1660.90
731.93	1728.49
732.11	1685.48
732.29	1724.39
732.47	1755.11
732.65	1722.34
732.83	1781.73
733.01	1744.87
733.19	1716.20
733.37	1773.54
733.56	1681.38
733.74	1689.57
733.92	1802.21
734.10	1615.85
734.28	1734.63
734.46	1662.95
734.64	1785.83
734.82	1679.33
735.00	1697.77
735.18	1724.39
735.36	1767.40
735.54	1773.54
735.73	1710.05
735.91	1796.07
736.09	1746.92
736.27	1650.66
736.45	1746.92
736.63	1535.98
736.81	1697.77
736.99	1732.58
737.17	1812.45
737.35	1671.14
737.53	1800.16
737.71	1630.18
737.89	1849.32
738.07	1726.44
738.25	1734.63
738.43	1638.38
738.61	1716.20
738.80	1601.51
738.98	1642.47
739.16	1673.19
739.34	1712.10
739.52	1828.84
739.70	1732.58
739.88	1763.30
740.06	1781.73
740.24	1578.98
740.42	1712.10
740.60	1558.50
740.78	1738.73
740.96	1615.85
741.14	1658.85
741.32	1699.81
741.50	1638.38
741.68	1806.31
741.86	1834.98
742.04	1693.67
742.22	1660.90
742.40	1787.88
742.58	1679.33
742.76	1681.38
742.94	1769.44
743.12	1624.04
743.30	1685.48
743.48	1767.40
743.66	1734.63
743.84	1740.77
744.02	1718.25
744.20	1656.81
744.38	1615.85
744.56	1677.29
744.74	1814.50
744.92	1716.20
745.10	1779.68
745.28	1687.53
745.46	1789.92
745.64	1730.53
745.82	1703.91
746.00	1769.44
746.18	1830.88
746.36	1591.27
746.54	1798.12
746.72	1748.97
746.90	1615.85
747.08	1714.15
747.26	1712.10
747.44	1775.59
747.62	1755.11
747.80	1771.49
747.98	1861.60
748.15	1681.38
748.33	1816.55
748.51	1712.10
748.69	1775.59
748.87	1652.71
749.05	1726.44
749.23	1748.97
749.41	1769.44
749.59	1724.39
749.77	1705.96
749.95	1691.62
750.13	1734.63
750.31	1759.21
750.49	1701.86
750.67	1783.78
750.85	1839.08
751.03	1718.25
751.20	1814.50
751.38	1705.96
751.56	1714.15
751.74	1726.44
751.92	1710.05
752.10	1669.09
752.28	1748.97
752.46	1669.09
752.64	1701.86
752.82	1710.05
753.00	1734.63
753.18	1636.33
753.35	1710.05
753.53	1730.53
753.71	1697.77
753.89	1775.59
754.07	1701.86
754.25	1771.49
754.43	1777.64
754.61	1652.71
754.79	1796.07
754.97	1652.71
755.14	1783.78
755.32	1634.28
755.50	1697.77
755.68	1636.33
755.86	1685.48
756.04	1732.58
756.22	1638.38
756.40	1746.92
756.57	1816.55
756.75	1705.96
756.93	1853.41
757.11	1822.69
757.29	1671.14
757.47	1716.20
757.65	1677.29
757.82	1591.27
758.00	1656.81
758.18	1675.24
758.36	1685.48
758.54	1785.83
758.72	1658.85
758.90	1828.84
759.07	1677.29
759.25	1681.38
759.43	1763.30
759.61	1640.42
759.79	2260.96
759.97	1755.11
760.15	1701.86
760.32	1734.63
760.50	1773.54
760.68	1828.84
760.86	1603.56
761.04	1796.07
761.22	1710.05
761.39	1771.49
761.57	1744.87
761.75	1726.44
761.93	1753.06
762.11	1669.09
762.28	1789.92
762.46	1644.52
762.64	1732.58
762.82	1730.53
763.00	1726.44
763.18	1757.16
763.35	1562.60
763.53	1820.64
763.71	1775.59
763.89	1730.53
764.07	1716.20
764.24	1720.29
764.42	1742.82
764.60	1705.96
764.78	1761.25
764.96	1722.34
765.13	1798.12
765.31	1730.53
765.49	1732.58
765.67	1632.23
765.84	1609.70
766.02	1695.72
766.20	1628.14
766.38	1744.87
766.56	1755.11
766.73	1794.02
766.91	1740.77
767.09	1738.73
767.27	1785.83
767.44	1705.96
767.62	1716.20
767.80	1667.05
767.98	1710.05
768.15	1656.81
768.33	1814.50
768.51	1820.64
768.69	1738.73
768.87	1775.59
769.04	1660.90
769.22	1861.60
769.40	1759.21
769.58	1796.07
769.75	1652.71
769.93	1789.92
770.11	1642.47
770.28	1718.25
770.46	1722.34
770.64	1677.29
770.82	1687.53
770.99	1746.92
771.17	1720.29
771.35	1722.34
771.53	1767.40
771.70	1665.00
771.88	1740.77
772.06	1667.05
772.23	1697.77
772.41	1687.53
772.59	1669.09
772.77	1656.81
772.94	1705.96
773.12	1705.96
773.30	1722.34
773.47	1716.20
773.65	1673.19
773.83	1804.26
774.01	1660.90
774.18	1669.09
774.36	1687.53
774.54	1669.09
774.71	1722.34
774.89	1654.76
775.07	1636.33
775.24	1691.62
775.42	1679.33
775.60	1765.35
775.78	1777.64
775.95	1656.81
776.13	1650.66
776.31	1652.71
776.48	1724.39
776.66	1824.74
776.84	1660.90
777.01	1769.44
777.19	1736.68
777.37	1660.90
777.54	1716.20
777.72	1886.18
777.90	1705.96
778.07	1665.00
778.25	1904.61
778.43	1751.01
778.60	1783.78
778.78	1744.87
778.96	1820.64
779.13	1626.09
779.31	1779.68
779.49	1812.45
779.66	1771.49
779.84	1722.34
780.01	1695.72
780.19	1634.28
780.37	1787.88
780.54	1769.44
780.72	1642.47
780.90	1691.62
781.07	1771.49
781.25	1585.13
781.43	1789.92
781.60	1746.92
781.78	1757.16
781.95	1769.44
782.13	1695.72
782.31	1769.44
782.48	1673.19
782.66	1714.15
782.83	1751.01
783.01	1652.71
783.19	1695.72
783.36	1648.61
783.54	1665.00
783.72	1748.97
783.89	1720.29
784.07	1685.48
784.24	1839.08
784.42	1869.80
784.60	1775.59
784.77	1773.54
784.95	1646.57
785.12	1665.00
785.30	1687.53
785.47	1671.14
785.65	1632.23
785.83	1757.16
786.00	1732.58
786.18	1714.15
786.35	1646.57
786.53	1636.33
786.71	1818.60
786.88	1693.67
787.06	1697.77
787.23	1738.73
787.41	1724.39
787.58	1675.24
787.76	1671.14
787.94	1732.58
788.11	1753.06
788.29	1638.38
788.46	1673.19
788.64	1591.27
788.81	1626.09
788.99	1632.23
789.16	1675.24
789.34	1757.16
789.52	1714.15
789.69	1675.24
789.87	1728.49
790.04	1781.73
790.22	1730.53
790.39	1796.07
790.57	1648.61
790.74	1652.71
790.92	1746.92
791.09	1574.89
791.27	1728.49
791.44	1789.92
791.62	1701.86
791.79	1716.20
791.97	1675.24
792.15	1937.38
792.32	1757.16
792.50	1673.19
792.67	1816.55
792.85	1779.68
793.02	1695.72
793.20	1755.11
793.37	1673.19
793.55	1726.44
793.72	1681.38
793.90	1714.15
794.07	1677.29
794.25	1671.14
794.42	1734.63
794.60	1685.48
794.77	1742.82
794.95	1695.72
795.12	1744.87
795.30	1607.66
795.47	1650.66
795.65	1898.47
795.82	1751.01
796.00	1695.72
796.17	1738.73
796.34	1728.49
796.52	1677.29
796.69	1699.81
796.87	1824.74
797.04	1740.77
797.22	1746.92
797.39	1693.67
797.57	1740.77
797.74	1667.05
797.92	1769.44
798.09	1662.95
798.27	1720.29
798.44	1779.68
798.62	1693.67
798.79	1757.16
798.96	1791.97
799.14	1705.96
799.31	1877.99
799.49	1761.25
799.66	1654.76
799.84	1687.53
800.01	1693.67
800.19	1710.05
800.36	1648.61
800.53	1736.68
800.71	1722.34
800.88	1800.16
801.06	1685.48
801.23	1595.37
801.41	1748.97
801.58	1630.18
801.75	1673.19
801.93	1765.35
802.10	1746.92
802.28	1699.81
802.45	1722.34
802.63	1769.44
802.80	1759.21
802.97	1724.39
803.15	1703.91
803.32	1638.38
803.50	1621.99
803.67	1652.71
803.84	1769.44
804.02	1712.10
804.19	1671.14
804.37	1583.08
804.54	1613.80
804.71	1660.90
804.89	1673.19
805.06	1644.52
805.24	1632.23
805.41	1685.48
805.58	1605.61
805.76	1845.22
805.93	1765.35
806.10	1718.25
806.28	1845.22
806.45	1691.62
806.63	1716.20
806.80	1808.36
806.97	1726.44
807.15	1736.68
807.32	1757.16
807.49	1783.78
807.67	1642.47
807.84	1777.64
808.01	1621.99
808.19	1830.88
808.36	1804.26
808.54	1689.57
808.71	1724.39
808.88	1740.77
809.06	1705.96
809.23	1761.25
809.40	1703.91
809.58	1802.21
809.75	1742.82
809.92	1648.61
810.10	1820.64
810.27	1730.53
810.44	1681.38
810.62	1779.68
810.79	1697.77
810.96	1718.25
811.14	1632.23
811.31	1689.57
811.48	1763.30
811.66	1783.78
811.83	1708.01
812.00	1849.32
812.18	1761.25
812.35	1802.21
812.52	1634.28
812.69	1718.25
812.87	1697.77
813.04	1599.46
813.21	1669.09
813.39	1714.15
813.56	1587.18
813.73	1722.34
813.91	1687.53
814.08	1740.77
814.25	1621.99
814.42	1642.47
814.60	1755.11
814.77	1746.92
814.94	1699.81
815.12	1841.12
815.29	1789.92
815.46	1716.20
815.63	1744.87
815.81	1712.10
815.98	1648.61
816.15	1695.72
816.33	1771.49
816.50	1675.24
816.67	1665.00
816.84	1755.11
817.02	1636.33
817.19	1718.25
817.36	1726.44
817.53	1796.07
817.71	1722.34
817.88	1779.68
818.05	1699.81
818.22	1644.52
818.40	1808.36
818.57	1712.10
818.74	1730.53
818.91	1755.11
819.09	1720.29
819.26	1796.07
819.43	1775.59
819.60	1693.67
819.78	1808.36
819.95	1787.88
820.12	1673.19
820.29	1771.49
820.47	1736.68
820.64	1716.20
820.81	1572.84
820.98	1624.04
821.15	1650.66
821.33	1771.49
821.50	1617.90
821.67	1771.49
821.84	1683.43
822.02	1703.91
822.19	1791.97
822.36	1656.81
822.53	1669.09
822.70	1660.90
822.88	1742.82
823.05	1841.12
823.22	1773.54
823.39	1765.35
823.56	1681.38
823.74	1816.55
823.91	1642.47
824.08	1683.43
824.25	1636.33
824.42	1814.50
824.60	1665.00
824.77	1757.16
824.94	1708.01
825.11	1814.50
825.28	1642.47
825.45	1798.12
825.63	1714.15
825.80	1703.91
825.97	1781.73
826.14	1730.53
826.31	1685.48
826.48	1740.77
826.66	1677.29
826.83	1624.04
827.00	1816.55
827.17	1732.58
827.34	1705.96
827.51	1652.71
827.69	1783.78
827.86	1652.71
828.03	1638.38
828.20	1679.33
828.37	1705.96
828.54	1765.35
828.71	1720.29
828.89	1765.35
829.06	1783.78
829.23	1740.77
829.40	1640.42
829.57	1683.43
829.74	1810.40
829.91	1724.39
830.09	1710.05
830.26	1781.73
830.43	1763.30
830.60	1736.68
830.77	1775.59
830.94	1755.11
831.11	1732.58
831.28	1695.72
831.46	1738.73
831.63	1697.77
831.80	1789.92
831.97	1630.18
832.14	1679.33
832.31	1708.01
832.48	1732.58
832.65	1861.60
832.82	1746.92
832.99	1777.64
833.17	1722.34
833.34	1830.88
833.51	1796.07
833.68	1611.75
833.85	1714.15
834.02	1685.48
834.19	1677.29
834.36	1697.77
834.53	1734.63
834.70	1839.08
834.87	1742.82
835.04	1796.07
835.22	1687.53
835.39	1681.38
835.56	1665.00
835.73	1662.95
835.90	1791.97
836.07	1624.04
836.24	1789.92
836.41	1679.33
836.58	1630.18
836.75	1722.34
836.92	1714.15
837.09	1628.14
837.26	1734.63
837.43	1705.96
837.60	1742.82
837.77	1681.38
837.94	1724.39
838.12	1777.64
838.29	1714.15
838.46	1613.80
838.63	1634.28
838.80	1755.11
838.97	1791.97
839.14	1667.05
839.31	1730.53
839.48	1699.81
839.65	1722.34
839.82	1806.31
839.99	1763.30
840.16	1677.29
840.33	1681.38
840.50	1714.15
840.67	1638.38
840.84	1558.50
841.01	1771.49
841.18	1583.08
841.35	1667.05
841.52	1773.54
841.69	1783.78
841.86	1652.71
842.03	1689.57
842.20	1732.58
842.37	1767.40
842.54	1675.24
842.71	1740.77
842.88	1667.05
843.05	1767.40
843.22	1726.44
843.39	1814.50
843.56	1687.53
843.73	1751.01
843.90	1718.25
844.07	1712.10
844.24	1716.20
844.41	1763.30
844.58	1757.16
844.75	1740.77
844.92	1662.95
845.09	1728.49
845.26	1705.96
845.43	1806.31
845.60	1732.58
845.77	1777.64
845.94	1677.29
846.10	1748.97
846.27	1734.63
846.44	1671.14
846.61	1658.85
846.78	1742.82
846.95	1763.30
847.12	1691.62
847.29	1751.01
847.46	1701.86
847.63	1730.53
847.80	1724.39
847.97	1679.33
848.14	1859.56
848.31	1667.05
848.48	1615.85
848.65	1753.06
848.82	1716.20
848.98	1820.64
849.15	1753.06
849.32	1714.15
849.49	1724.39
849.66	1726.44
849.83	1705.96
850.00	1560.55
850.17	1806.31
850.34	1671.14
850.51	1689.57
850.68	1730.53
850.85	1847.27
851.01	1755.11
851.18	1751.01
851.35	1748.97
851.52	1748.97
851.69	1822.69
851.86	1671.14
852.03	1697.77
852.20	1804.26
852.37	1781.73
852.53	1607.66
852.70	1732.58
852.87	1796.07
853.04	1734.63
853.21	1775.59
853.38	1794.02
853.55	1740.77
853.72	1810.40
853.89	1626.09
854.05	1640.42
854.22	1773.54
854.39	1732.58
854.56	1695.72
854.73	1826.79
854.90	1732.58
855.07	1689.57
855.23	1683.43
855.40	1683.43
855.57	1718.25
855.74	1583.08
855.91	1818.60
856.08	1583.08
856.25	1656.81
856.41	1732.58
856.58	1671.14
856.75	1773.54
856.92	1669.09
857.09	1751.01
857.26	1716.20
857.42	1724.39
857.59	1740.77
857.76	1794.02
857.93	1744.87
858.10	1720.29
858.27	1638.38
858.43	1697.77
858.60	1652.71
858.77	1603.56
858.94	1683.43
859.11	1716.20
859.27	1669.09
859.44	1689.57
859.61	1818.60
859.78	1695.72
859.95	1681.38
860.12	1691.62
860.28	1810.40
860.45	1789.92
860.62	1652.71
860.79	1740.77
860.95	1710.05
861.12	1648.61
861.29	1761.25
861.46	1693.67
861.63	1683.43
861.79	1734.63
861.96	1617.90
862.13	1712.10
862.30	1697.77
862.47	1636.33
862.63	1708.01
862.80	1818.60
862.97	1775.59
863.14	1744.87
863.30	1839.08
863.47	1609.70
863.64	1802.21
863.81	1695.72
863.97	1701.86
864.14	1689.57
864.31	1689.57
864.48	1781.73
864.65	1685.48
864.81	1687.53
864.98	1742.82
865.15	1718.25
865.32	1738.73
865.48	1794.02
865.65	1800.16
865.82	1648.61
865.98	1775.59
866.15	1718.25
866.32	1662.95
866.49	1648.61
866.65	1746.92
866.82	1722.34
866.99	1746.92
867.16	1675.24
867.32	1687.53
867.49	1656.81
867.66	1689.57
867.83	1615.85
867.99	1730.53
868.16	1685.48
868.33	1632.23
868.49	1705.96
868.66	1703.91
868.83	1757.16
868.99	1701.86
869.16	1742.82
869.33	1847.27
869.50	1701.86
869.66	1712.10
869.83	1714.15
870.00	1714.15
870.16	1771.49
870.33	1726.44
870.50	1765.35
870.66	1722.34
870.83	1777.64
871.00	1716.20
871.17	1740.77
871.33	1716.20
871.50	1656.81
871.67	1714.15
871.83	1732.58
872.00	1781.73
872.17	1740.77
872.33	1722.34
872.50	1720.29
872.67	1611.75
872.83	1675.24
873.00	1714.15
873.17	1730.53
873.33	1873.89
873.50	1716.20
873.67	1679.33
873.83	1636.33
874.00	1683.43
874.16	1816.55
874.33	1677.29
874.50	1699.81
874.66	1718.25
874.83	1724.39
875.00	1798.12
875.16	1751.01
875.33	1751.01
875.50	1581.03
875.66	1705.96
875.83	1710.05
875.99	1779.68
876.16	1712.10
876.33	1669.09
876.49	1652.71
876.66	1763.30
876.83	1681.38
876.99	1660.90
877.16	1687.53
877.32	1693.67
877.49	1681.38
877.66	1761.25
877.82	1791.97
877.99	1724.39
878.15	1748.97
878.32	1757.16
878.49	1746.92
878.65	1691.62
878.82	1826.79
878.98	1681.38
879.15	1794.02
879.32	1779.68
879.48	1722.34
879.65	1775.59
879.81	1628.14
879.98	1710.05
880.15	1718.25
880.31	1665.00
880.48	1630.18
880.64	1751.01
880.81	1738.73
880.97	1877.99
881.14	1822.69
881.31	1677.29
881.47	1861.60
881.64	1630.18
881.80	1753.06
881.97	1673.19
882.13	1759.21
882.30	1609.70
882.47	1744.87
882.63	1699.81
882.80	1685.48
882.96	1705.96
883.13	1812.45
883.29	1796.07
883.46	1732.58
883.62	1824.74
883.79	1710.05
883.95	1751.01
884.12	1730.53
884.29	1830.88
884.45	1710.05
884.62	1712.10
884.78	1712.10
884.95	1779.68
885.11	1648.61
885.28	1791.97
885.44	1667.05
885.61	1804.26
885.77	1800.16
885.94	1763.30
886.10	1775.59
886.27	1736.68
886.43	1834.98
886.60	1769.44
886.76	1728.49
886.93	1685.48
887.09	1771.49
887.26	1701.86
887.42	1757.16
887.59	1767.40
887.75	1832.93
887.92	1712.10
888.08	1773.54
888.25	1832.93
888.41	1763.30
888.58	1683.43
888.74	1710.05
888.91	1650.66
>>>>>End Processed Spectral Data<<<<<
