SpectraSuite Data File
++++++++++++++++++++++++++++++++++++
Date: Mon Jun 06 16:04:57 CEST 2016
User: root
Dark Spectrum Present: No
Reference Spectrum Present: No
Number of Sampled Component Spectra: 1
Spectrometers: USB4C02835
Integration Time (usec): 100000 (USB4C02835)
Spectra Averaged: 1 (USB4C02835)
Boxcar Smoothing: 0 (USB4C02835)
Correct for Electrical Dark: No (USB4C02835)
Strobe/Lamp Enabled: No (USB4C02835)
Correct for Detector Non-linearity: No (USB4C02835)
Correct for Stray Light: No (USB4C02835)
Number of Pixels in Processed Spectrum: 3648
>>>>>Begin Processed Spectral Data<<<<<
177.47	1435.63
177.69	1435.63
177.91	1435.63
178.13	1464.30
178.36	1445.87
178.58	1626.09
178.80	1808.36
179.02	1568.74
179.24	1691.62
179.46	1671.14
179.68	1744.87
179.90	1701.86
180.13	1720.29
180.35	1693.67
180.57	1667.05
180.79	1736.68
181.01	1701.86
181.23	1808.36
181.45	1804.26
181.67	1728.49
181.90	1738.73
182.12	1673.19
182.34	1689.57
182.56	1705.96
182.78	1703.91
183.00	1689.57
183.22	1701.86
183.44	1636.33
183.66	1855.46
183.89	1746.92
184.11	1714.15
184.33	1744.87
184.55	1789.92
184.77	1687.53
184.99	1771.49
185.21	1730.53
185.43	1806.31
185.65	1691.62
185.87	1691.62
186.10	1806.31
186.32	1841.12
186.54	1716.20
186.76	1732.58
186.98	1828.84
187.20	1705.96
187.42	1662.95
187.64	1671.14
187.86	1730.53
188.08	1738.73
188.30	1683.43
188.52	1710.05
188.75	1748.97
188.97	1814.50
189.19	1714.15
189.41	1777.64
189.63	1771.49
189.85	1701.86
190.07	1636.33
190.29	1683.43
190.51	1753.06
190.73	1730.53
190.95	1783.78
191.17	1738.73
191.39	1587.18
191.61	1732.58
191.84	1738.73
192.06	1689.57
192.28	1652.71
192.50	1880.04
192.72	1734.63
192.94	1687.53
193.16	1787.88
193.38	1687.53
193.60	1695.72
193.82	1746.92
194.04	1853.41
194.26	1693.67
194.48	1728.49
194.70	1699.81
194.92	1708.01
195.14	1742.82
195.36	1607.66
195.58	1767.40
195.80	1695.72
196.02	1740.77
196.24	1775.59
196.46	1763.30
196.69	1730.53
196.91	1820.64
197.13	1695.72
197.35	1634.28
197.57	1839.08
197.79	1705.96
198.01	1673.19
198.23	1728.49
198.45	1830.88
198.67	1675.24
198.89	1671.14
199.11	1621.99
199.33	1644.52
199.55	1669.09
199.77	1621.99
199.99	1767.40
200.21	1740.77
200.43	1748.97
200.65	1656.81
200.87	1605.61
201.09	1695.72
201.31	1662.95
201.53	1742.82
201.75	1703.91
201.97	1621.99
202.19	1673.19
202.41	1746.92
202.63	1787.88
202.85	1808.36
203.07	1726.44
203.29	1695.72
203.51	1650.66
203.73	1660.90
203.95	1902.56
204.17	1728.49
204.39	1746.92
204.61	1656.81
204.83	1695.72
205.05	1771.49
205.27	1722.34
205.49	1773.54
205.71	1683.43
205.93	1617.90
206.15	1660.90
206.37	1761.25
206.59	1687.53
206.81	1619.94
207.03	1689.57
207.25	1583.08
207.47	1751.01
207.69	1722.34
207.91	1724.39
208.13	1689.57
208.34	1665.00
208.56	1613.80
208.78	1695.72
209.00	1736.68
209.22	1714.15
209.44	1677.29
209.66	1736.68
209.88	1669.09
210.10	1667.05
210.32	1718.25
210.54	1828.84
210.76	1615.85
210.98	1714.15
211.20	1564.65
211.42	1718.25
211.64	1808.36
211.86	1722.34
212.08	1773.54
212.30	1712.10
212.52	1705.96
212.74	1697.77
212.96	1691.62
213.17	1761.25
213.39	1767.40
213.61	1763.30
213.83	1748.97
214.05	1642.47
214.27	1818.60
214.49	1683.43
214.71	1679.33
214.93	1779.68
215.15	1671.14
215.37	1789.92
215.59	1638.38
215.81	1761.25
216.03	1791.97
216.24	1714.15
216.46	1693.67
216.68	1701.86
216.90	1705.96
217.12	1730.53
217.34	1748.97
217.56	1665.00
217.78	1769.44
218.00	1830.88
218.22	1767.40
218.44	1710.05
218.66	1753.06
218.87	1841.12
219.09	1714.15
219.31	1769.44
219.53	1730.53
219.75	1630.18
219.97	1699.81
220.19	1699.81
220.41	1701.86
220.63	1828.84
220.85	1734.63
221.06	1675.24
221.28	1830.88
221.50	1800.16
221.72	1751.01
221.94	1732.58
222.16	1695.72
222.38	1751.01
222.60	1677.29
222.82	1619.94
223.03	1742.82
223.25	1720.29
223.47	1693.67
223.69	1863.65
223.91	1687.53
224.13	1609.70
224.35	1667.05
224.57	1777.64
224.78	1822.69
225.00	1681.38
225.22	1775.59
225.44	1746.92
225.66	1804.26
225.88	1665.00
226.10	1736.68
226.32	1693.67
226.53	1810.40
226.75	1656.81
226.97	1658.85
227.19	1640.42
227.41	1656.81
227.63	1718.25
227.85	1615.85
228.06	1656.81
228.28	1732.58
228.50	1667.05
228.72	1628.14
228.94	1681.38
229.16	1585.13
229.37	1638.38
229.59	1693.67
229.81	1718.25
230.03	1771.49
230.25	1724.39
230.47	1695.72
230.69	1583.08
230.90	1773.54
231.12	1660.90
231.34	1730.53
231.56	1761.25
231.78	1640.42
232.00	1742.82
232.21	1712.10
232.43	1630.18
232.65	1617.90
232.87	1697.77
233.09	1630.18
233.30	1693.67
233.52	1767.40
233.74	1656.81
233.96	1712.10
234.18	1632.23
234.40	1650.66
234.61	1853.41
234.83	1574.89
235.05	1570.79
235.27	1869.80
235.49	1896.42
235.70	1746.92
235.92	1789.92
236.14	1798.12
236.36	1888.23
236.58	1634.28
236.79	1767.40
237.01	1671.14
237.23	1832.93
237.45	1839.08
237.67	1689.57
237.88	1742.82
238.10	1812.45
238.32	1632.23
238.54	1697.77
238.76	1708.01
238.97	1650.66
239.19	1658.85
239.41	1783.78
239.63	1767.40
239.85	1603.56
240.06	1667.05
240.28	1691.62
240.50	1705.96
240.72	1763.30
240.93	1683.43
241.15	1761.25
241.37	1738.73
241.59	1755.11
241.81	1714.15
242.02	1730.53
242.24	1775.59
242.46	1736.68
242.68	1687.53
242.89	1753.06
243.11	1767.40
243.33	1656.81
243.55	1718.25
243.76	1800.16
243.98	1794.02
244.20	1665.00
244.42	1660.90
244.64	1724.39
244.85	1726.44
245.07	1642.47
245.29	1800.16
245.51	1755.11
245.72	1691.62
245.94	1738.73
246.16	1697.77
246.38	1716.20
246.59	1708.01
246.81	1697.77
247.03	1746.92
247.24	1570.79
247.46	1736.68
247.68	1810.40
247.90	1640.42
248.11	1632.23
248.33	1775.59
248.55	1730.53
248.77	1724.39
248.98	1673.19
249.20	1845.22
249.42	1730.53
249.64	1777.64
249.85	1722.34
250.07	1701.86
250.29	1746.92
250.50	1759.21
250.72	1681.38
250.94	1681.38
251.16	1861.60
251.37	1703.91
251.59	1720.29
251.81	1703.91
252.02	1800.16
252.24	1669.09
252.46	1748.97
252.68	1628.14
252.89	1658.85
253.11	1609.70
253.33	1822.69
253.54	1826.79
253.76	1716.20
253.98	1687.53
254.20	1665.00
254.41	1570.79
254.63	1744.87
254.85	1607.66
255.06	1710.05
255.28	1736.68
255.50	1687.53
255.71	1603.56
255.93	1644.52
256.15	1697.77
256.36	1689.57
256.58	1669.09
256.80	1722.34
257.02	1650.66
257.23	1714.15
257.45	1740.77
257.67	1734.63
257.88	1640.42
258.10	1830.88
258.32	1705.96
258.53	1683.43
258.75	1734.63
258.97	1656.81
259.18	1732.58
259.40	1699.81
259.62	1863.65
259.83	1849.32
260.05	1693.67
260.27	1986.53
260.48	1826.79
260.70	1617.90
260.92	1742.82
261.13	1703.91
261.35	1746.92
261.57	1744.87
261.78	1699.81
262.00	1726.44
262.22	1730.53
262.43	1691.62
262.65	1710.05
262.86	1621.99
263.08	1927.14
263.30	1703.91
263.51	1599.46
263.73	1697.77
263.95	1794.02
264.16	1714.15
264.38	1685.48
264.60	1695.72
264.81	1675.24
265.03	1810.40
265.25	1757.16
265.46	1726.44
265.68	1806.31
265.89	1746.92
266.11	1621.99
266.33	1689.57
266.54	1808.36
266.76	1765.35
266.98	1732.58
267.19	1796.07
267.41	1804.26
267.62	1757.16
267.84	1685.48
268.06	1695.72
268.27	1714.15
268.49	1783.78
268.70	1757.16
268.92	1712.10
269.14	1632.23
269.35	1593.32
269.57	1724.39
269.79	1730.53
270.00	1677.29
270.22	1753.06
270.43	1683.43
270.65	1593.32
270.87	1703.91
271.08	1759.21
271.30	1746.92
271.51	1660.90
271.73	1791.97
271.95	1757.16
272.16	1751.01
272.38	1718.25
272.59	1673.19
272.81	1751.01
273.02	1742.82
273.24	1716.20
273.46	1724.39
273.67	1638.38
273.89	1652.71
274.10	1656.81
274.32	1812.45
274.54	1751.01
274.75	1759.21
274.97	1632.23
275.18	1746.92
275.40	1736.68
275.61	1648.61
275.83	1675.24
276.05	1656.81
276.26	1728.49
276.48	1710.05
276.69	1636.33
276.91	1767.40
277.12	1755.11
277.34	1773.54
277.55	1740.77
277.77	1703.91
277.99	1656.81
278.20	1665.00
278.42	1730.53
278.63	1681.38
278.85	1724.39
279.06	1660.90
279.28	1714.15
279.49	1773.54
279.71	1755.11
279.93	1697.77
280.14	1685.48
280.36	1695.72
280.57	1779.68
280.79	1728.49
281.00	1701.86
281.22	1665.00
281.43	1775.59
281.65	1638.38
281.86	1609.70
282.08	1744.87
282.29	1751.01
282.51	1673.19
282.73	1699.81
282.94	1681.38
283.16	1794.02
283.37	1880.04
283.59	1734.63
283.80	1718.25
284.02	1587.18
284.23	1759.21
284.45	1742.82
284.66	1726.44
284.88	1675.24
285.09	1757.16
285.31	1822.69
285.52	1757.16
285.74	1599.46
285.95	1738.73
286.17	1689.57
286.38	1726.44
286.60	1716.20
286.81	1638.38
287.03	1710.05
287.24	1728.49
287.46	1738.73
287.67	1683.43
287.89	1810.40
288.10	1671.14
288.32	1763.30
288.53	1800.16
288.75	1624.04
288.96	1693.67
289.18	1746.92
289.39	1599.46
289.61	1718.25
289.82	1791.97
290.04	1859.56
290.25	1683.43
290.47	1705.96
290.68	1695.72
290.90	1732.58
291.11	1636.33
291.33	1759.21
291.54	1615.85
291.76	1601.51
291.97	1658.85
292.18	1787.88
292.40	1699.81
292.61	1742.82
292.83	1810.40
293.04	1669.09
293.26	1691.62
293.47	1728.49
293.69	1609.70
293.90	1738.73
294.12	1783.78
294.33	1753.06
294.55	1753.06
294.76	1800.16
294.97	1728.49
295.19	1804.26
295.40	1703.91
295.62	1753.06
295.83	1837.03
296.05	1697.77
296.26	1810.40
296.48	1718.25
296.69	1734.63
296.90	1701.86
297.12	1804.26
297.33	1789.92
297.55	1720.29
297.76	1740.77
297.98	1716.20
298.19	1693.67
298.41	1742.82
298.62	1658.85
298.83	1777.64
299.05	1701.86
299.26	1652.71
299.48	1642.47
299.69	1777.64
299.90	1646.57
300.12	1703.91
300.33	1730.53
300.55	1718.25
300.76	1816.55
300.98	1673.19
301.19	1726.44
301.40	1710.05
301.62	1724.39
301.83	1648.61
302.05	1738.73
302.26	1669.09
302.47	1742.82
302.69	1593.32
302.90	1757.16
303.12	1585.13
303.33	1765.35
303.54	1724.39
303.76	1683.43
303.97	1716.20
304.19	1753.06
304.40	1599.46
304.61	1746.92
304.83	1861.60
305.04	1753.06
305.26	1703.91
305.47	1650.66
305.68	1697.77
305.90	1656.81
306.11	1738.73
306.33	1708.01
306.54	1714.15
306.75	1632.23
306.97	1675.24
307.18	1736.68
307.39	1632.23
307.61	1730.53
307.82	1701.86
308.04	1767.40
308.25	1646.57
308.46	1724.39
308.68	1759.21
308.89	1748.97
309.10	1699.81
309.32	1703.91
309.53	1738.73
309.74	1732.58
309.96	1697.77
310.17	1779.68
310.39	1722.34
310.60	1785.83
310.81	1763.30
311.03	1662.95
311.24	1734.63
311.45	1798.12
311.67	1818.60
311.88	1742.82
312.09	1677.29
312.31	1732.58
312.52	1751.01
312.73	1609.70
312.95	1650.66
313.16	1656.81
313.37	1767.40
313.59	1736.68
313.80	1730.53
314.01	1796.07
314.23	1689.57
314.44	1669.09
314.65	1701.86
314.87	1718.25
315.08	1691.62
315.29	1632.23
315.51	1617.90
315.72	1658.85
315.93	1804.26
316.15	1716.20
316.36	1730.53
316.57	1710.05
316.79	1740.77
317.00	1701.86
317.21	1740.77
317.43	1699.81
317.64	1718.25
317.85	1720.29
318.07	1753.06
318.28	1771.49
318.49	1806.31
318.70	1906.66
318.92	1894.37
319.13	1824.74
319.34	1880.04
319.56	1775.59
319.77	1742.82
319.98	1812.45
320.20	1771.49
320.41	1814.50
320.62	1730.53
320.83	1734.63
321.05	1804.26
321.26	1828.84
321.47	1761.25
321.69	1808.36
321.90	1599.46
322.11	1728.49
322.32	1699.81
322.54	1785.83
322.75	1748.97
322.96	1820.64
323.18	1619.94
323.39	1667.05
323.60	1646.57
323.81	1718.25
324.03	1630.18
324.24	1726.44
324.45	1728.49
324.66	1751.01
324.88	1742.82
325.09	1767.40
325.30	1640.42
325.52	1791.97
325.73	1701.86
325.94	1646.57
326.15	1595.37
326.37	1693.67
326.58	1660.90
326.79	1812.45
327.00	1654.76
327.22	1728.49
327.43	1697.77
327.64	1703.91
327.85	1761.25
328.07	1683.43
328.28	1804.26
328.49	1679.33
328.70	1714.15
328.92	1755.11
329.13	1720.29
329.34	1847.27
329.55	1779.68
329.76	1773.54
329.98	1730.53
330.19	1783.78
330.40	1775.59
330.61	1677.29
330.83	1744.87
331.04	1669.09
331.25	1734.63
331.46	1660.90
331.68	1722.34
331.89	1808.36
332.10	1697.77
332.31	1656.81
332.52	1648.61
332.74	1853.41
332.95	1630.18
333.16	1740.77
333.37	1650.66
333.58	1658.85
333.80	1724.39
334.01	1634.28
334.22	1710.05
334.43	1708.01
334.64	1673.19
334.86	1617.90
335.07	1712.10
335.28	1703.91
335.49	1634.28
335.70	1744.87
335.92	1857.51
336.13	1837.03
336.34	1726.44
336.55	1691.62
336.76	1744.87
336.98	1615.85
337.19	1705.96
337.40	1812.45
337.61	1890.28
337.82	1708.01
338.04	1771.49
338.25	1626.09
338.46	1744.87
338.67	1755.11
338.88	1669.09
339.09	1599.46
339.31	1689.57
339.52	1720.29
339.73	1652.71
339.94	1734.63
340.15	1773.54
340.36	1675.24
340.58	1718.25
340.79	1732.58
341.00	1789.92
341.21	1646.57
341.42	1830.88
341.63	1718.25
341.85	1802.21
342.06	1697.77
342.27	1693.67
342.48	1718.25
342.69	1734.63
342.90	1800.16
343.12	1791.97
343.33	1687.53
343.54	1722.34
343.75	1748.97
343.96	1800.16
344.17	1679.33
344.38	1677.29
344.60	1634.28
344.81	1703.91
345.02	1687.53
345.23	1751.01
345.44	1839.08
345.65	1742.82
345.86	1744.87
346.07	1734.63
346.29	1740.77
346.50	1779.68
346.71	1742.82
346.92	1832.93
347.13	1767.40
347.34	1691.62
347.55	1751.01
347.76	1712.10
347.98	1708.01
348.19	1667.05
348.40	1763.30
348.61	1724.39
348.82	1855.46
349.03	1814.50
349.24	1646.57
349.45	1828.84
349.66	1527.78
349.88	1689.57
350.09	1669.09
350.30	1677.29
350.51	1796.07
350.72	1818.60
350.93	1722.34
351.14	1693.67
351.35	1771.49
351.56	1673.19
351.77	1685.48
351.99	1708.01
352.20	1783.78
352.41	1824.74
352.62	1660.90
352.83	1626.09
353.04	1689.57
353.25	1699.81
353.46	1763.30
353.67	1816.55
353.88	1542.12
354.09	1742.82
354.30	1738.73
354.52	1757.16
354.73	1687.53
354.94	1705.96
355.15	1708.01
355.36	1794.02
355.57	1632.23
355.78	1767.40
355.99	1697.77
356.20	1708.01
356.41	1812.45
356.62	1804.26
356.83	1740.77
357.04	1794.02
357.25	1638.38
357.46	1718.25
357.68	1632.23
357.89	1671.14
358.10	1748.97
358.31	1847.27
358.52	1708.01
358.73	1644.52
358.94	1638.38
359.15	1632.23
359.36	1740.77
359.57	1683.43
359.78	1619.94
359.99	1722.34
360.20	1646.57
360.41	1662.95
360.62	1673.19
360.83	1708.01
361.04	1710.05
361.25	1775.59
361.46	1746.92
361.67	1708.01
361.88	1732.58
362.09	1728.49
362.30	1765.35
362.51	1671.14
362.72	1689.57
362.93	1751.01
363.14	1765.35
363.35	1720.29
363.56	1675.24
363.78	1757.16
363.99	1810.40
364.20	1683.43
364.41	1748.97
364.62	1877.99
364.83	1662.95
365.04	1701.86
365.25	1636.33
365.46	1798.12
365.67	1660.90
365.88	1658.85
366.09	1708.01
366.30	1705.96
366.51	1732.58
366.72	1689.57
366.93	1710.05
367.14	1705.96
367.35	1800.16
367.56	1765.35
367.77	1771.49
367.98	1624.04
368.18	1701.86
368.39	1779.68
368.60	1679.33
368.81	1808.36
369.02	1697.77
369.23	1781.73
369.44	1538.02
369.65	1722.34
369.86	1740.77
370.07	1775.59
370.28	1658.85
370.49	1748.97
370.70	1712.10
370.91	1665.00
371.12	1673.19
371.33	1728.49
371.54	1710.05
371.75	1783.78
371.96	1581.03
372.17	1765.35
372.38	1708.01
372.59	1759.21
372.80	1658.85
373.01	1726.44
373.22	1656.81
373.43	1703.91
373.64	1656.81
373.85	1785.83
374.06	1785.83
374.26	1742.82
374.47	1681.38
374.68	1871.84
374.89	1730.53
375.10	1677.29
375.31	1783.78
375.52	1753.06
375.73	1738.73
375.94	1589.22
376.15	1794.02
376.36	1660.90
376.57	1695.72
376.78	1697.77
376.99	1757.16
377.20	1806.31
377.40	1634.28
377.61	1818.60
377.82	1681.38
378.03	1808.36
378.24	1724.39
378.45	1824.74
378.66	1734.63
378.87	1630.18
379.08	1603.56
379.29	1736.68
379.50	1722.34
379.71	1697.77
379.91	1748.97
380.12	1720.29
380.33	1722.34
380.54	1761.25
380.75	1714.15
380.96	1685.48
381.17	1779.68
381.38	1689.57
381.59	1796.07
381.80	1755.11
382.00	1873.89
382.21	1781.73
382.42	1822.69
382.63	1867.75
382.84	1746.92
383.05	1708.01
383.26	1751.01
383.47	1767.40
383.68	1681.38
383.88	1761.25
384.09	1716.20
384.30	1839.08
384.51	1697.77
384.72	1736.68
384.93	1656.81
385.14	1701.86
385.35	1755.11
385.55	1658.85
385.76	1806.31
385.97	1695.72
386.18	1730.53
386.39	1634.28
386.60	1701.86
386.81	1734.63
387.02	1724.39
387.22	1685.48
387.43	1773.54
387.64	1796.07
387.85	1912.80
388.06	2201.57
388.27	4198.34
388.48	6676.38
388.68	8030.09
388.89	9365.36
389.10	9521.01
389.31	8419.20
389.52	7339.92
389.73	6555.55
389.93	6092.71
390.14	5760.94
390.35	5050.29
390.56	4509.63
390.77	3669.96
390.98	2959.31
391.18	2557.91
391.39	2170.85
391.60	1859.56
391.81	1865.70
392.02	1710.05
392.23	1808.36
392.43	1712.10
392.64	1810.40
392.85	1665.00
393.06	1841.12
393.27	1734.63
393.47	1808.36
393.68	1699.81
393.89	1687.53
394.10	1726.44
394.31	1697.77
394.52	1650.66
394.72	1638.38
394.93	1818.60
395.14	1673.19
395.35	1740.77
395.56	1699.81
395.76	1734.63
395.97	1816.55
396.18	1851.36
396.39	1806.31
396.60	2029.54
396.80	1925.09
397.01	1804.26
397.22	1880.04
397.43	1896.42
397.64	1751.01
397.84	1796.07
398.05	1918.95
398.26	1828.84
398.47	1841.12
398.67	1722.34
398.88	1787.88
399.09	1820.64
399.30	1683.43
399.51	1730.53
399.71	1648.61
399.92	1734.63
400.13	1802.21
400.34	1685.48
400.54	1679.33
400.75	1789.92
400.96	1716.20
401.17	1865.70
401.37	1742.82
401.58	1771.49
401.79	1775.59
402.00	1861.60
402.21	1984.48
402.41	1955.81
402.62	2021.35
402.83	2060.26
403.04	1974.24
403.24	2099.17
403.45	1851.36
403.66	1964.00
403.87	1894.37
404.07	1920.99
404.28	1937.38
404.49	1779.68
404.70	1755.11
404.90	1691.62
405.11	1736.68
405.32	1742.82
405.52	1779.68
405.73	1683.43
405.94	1708.01
406.15	1718.25
406.35	1822.69
406.56	1783.78
406.77	1773.54
406.98	1746.92
407.18	1722.34
407.39	1798.12
407.60	1660.90
407.80	1785.83
408.01	1740.77
408.22	1685.48
408.43	1667.05
408.63	1757.16
408.84	1759.21
409.05	1691.62
409.25	1705.96
409.46	1732.58
409.67	1603.56
409.88	1667.05
410.08	1785.83
410.29	1720.29
410.50	1751.01
410.70	1681.38
410.91	1693.67
411.12	1779.68
411.32	1621.99
411.53	1689.57
411.74	1753.06
411.95	1808.36
412.15	1728.49
412.36	1789.92
412.57	1791.97
412.77	1791.97
412.98	1775.59
413.19	1681.38
413.39	1818.60
413.60	1783.78
413.81	1804.26
414.01	1648.61
414.22	1806.31
414.43	1822.69
414.63	1736.68
414.84	1851.36
415.05	1765.35
415.25	1679.33
415.46	1769.44
415.67	1675.24
415.87	1734.63
416.08	1689.57
416.29	1695.72
416.49	1765.35
416.70	1738.73
416.91	1751.01
417.11	1746.92
417.32	1742.82
417.53	1796.07
417.73	1736.68
417.94	1685.48
418.15	1697.77
418.35	1761.25
418.56	1693.67
418.77	1769.44
418.97	1660.90
419.18	1693.67
419.38	1585.13
419.59	1673.19
419.80	1816.55
420.00	1640.42
420.21	1697.77
420.42	1847.27
420.62	1767.40
420.83	1581.03
421.04	1722.34
421.24	1722.34
421.45	1718.25
421.65	1775.59
421.86	1697.77
422.07	1730.53
422.27	1746.92
422.48	1736.68
422.69	1673.19
422.89	1701.86
423.10	1755.11
423.30	1667.05
423.51	1699.81
423.72	1767.40
423.92	1724.39
424.13	1705.96
424.33	1740.77
424.54	1843.17
424.75	1722.34
424.95	1845.22
425.16	1767.40
425.36	1703.91
425.57	1787.88
425.78	1781.73
425.98	1744.87
426.19	1744.87
426.39	1677.29
426.60	1724.39
426.81	1783.78
427.01	1660.90
427.22	1665.00
427.42	1714.15
427.63	1699.81
427.83	1716.20
428.04	1810.40
428.25	1703.91
428.45	1898.47
428.66	1742.82
428.86	1646.57
429.07	1669.09
429.28	1757.16
429.48	1669.09
429.69	1697.77
429.89	1751.01
430.10	1677.29
430.30	1822.69
430.51	1810.40
430.71	1650.66
430.92	1757.16
431.13	1730.53
431.33	1740.77
431.54	1716.20
431.74	1832.93
431.95	1888.23
432.15	1656.81
432.36	1708.01
432.56	1822.69
432.77	1775.59
432.98	1779.68
433.18	1767.40
433.39	1671.14
433.59	1689.57
433.80	1869.80
434.00	1871.84
434.21	1685.48
434.41	1675.24
434.62	1920.99
434.82	1681.38
435.03	1759.21
435.23	1708.01
435.44	1679.33
435.64	1681.38
435.85	1775.59
436.06	1779.68
436.26	1746.92
436.47	1734.63
436.67	1703.91
436.88	1787.88
437.08	1767.40
437.29	1742.82
437.49	1681.38
437.70	1796.07
437.90	1794.02
438.11	1843.17
438.31	1761.25
438.52	1880.04
438.72	1898.47
438.93	1931.23
439.13	1757.16
439.34	1808.36
439.54	1736.68
439.75	1853.41
439.95	1837.03
440.16	1732.58
440.36	1779.68
440.57	1779.68
440.77	1767.40
440.98	1804.26
441.18	1740.77
441.39	1714.15
441.59	1665.00
441.80	1871.84
442.00	1671.14
442.21	1753.06
442.41	1689.57
442.62	1775.59
442.82	1732.58
443.02	1761.25
443.23	1691.62
443.43	1740.77
443.64	1822.69
443.84	1648.61
444.05	1791.97
444.25	1738.73
444.46	1765.35
444.66	1697.77
444.87	1720.29
445.07	1636.33
445.28	1744.87
445.48	1798.12
445.69	1718.25
445.89	1914.85
446.09	1753.06
446.30	2066.40
446.50	2668.50
446.71	3758.02
446.91	4206.53
447.12	4728.76
447.32	4775.86
447.53	4288.45
447.73	3770.31
447.93	3530.70
448.14	3215.31
448.34	3188.69
448.55	2828.24
448.75	2877.40
448.96	2693.08
449.16	2426.84
449.36	2322.40
449.57	2103.26
449.77	1964.00
449.98	1837.03
450.18	1849.32
450.39	1789.92
450.59	1689.57
450.79	1662.95
451.00	1730.53
451.20	1791.97
451.41	1685.48
451.61	1785.83
451.81	1759.21
452.02	1787.88
452.22	1775.59
452.43	1685.48
452.63	1712.10
452.84	1720.29
453.04	1746.92
453.24	1785.83
453.45	1753.06
453.65	1767.40
453.86	1796.07
454.06	1742.82
454.26	1703.91
454.47	1689.57
454.67	1886.18
454.87	1808.36
455.08	1699.81
455.28	1820.64
455.49	1734.63
455.69	1769.44
455.89	1851.36
456.10	1812.45
456.30	1705.96
456.51	1800.16
456.71	1734.63
456.91	1755.11
457.12	1804.26
457.32	1783.78
457.52	1740.77
457.73	1683.43
457.93	1738.73
458.14	1691.62
458.34	1630.18
458.54	1783.78
458.75	1708.01
458.95	1775.59
459.15	1634.28
459.36	1748.97
459.56	1730.53
459.76	1894.37
459.97	1763.30
460.17	1708.01
460.37	1820.64
460.58	1763.30
460.78	1855.46
460.99	1748.97
461.19	1779.68
461.39	1722.34
461.60	1816.55
461.80	1847.27
462.00	1689.57
462.21	1759.21
462.41	1738.73
462.61	1757.16
462.82	1624.04
463.02	1785.83
463.22	1710.05
463.43	1789.92
463.63	1716.20
463.83	1808.36
464.04	1791.97
464.24	1712.10
464.44	1705.96
464.64	1695.72
464.85	1800.16
465.05	1826.79
465.25	1703.91
465.46	1714.15
465.66	1800.16
465.86	1753.06
466.07	1720.29
466.27	1679.33
466.47	1632.23
466.68	1701.86
466.88	1839.08
467.08	1787.88
467.29	1726.44
467.49	1742.82
467.69	1802.21
467.89	1775.59
468.10	1658.85
468.30	1740.77
468.50	1796.07
468.71	1722.34
468.91	1742.82
469.11	1828.84
469.31	1724.39
469.52	1626.09
469.72	1798.12
469.92	1886.18
470.13	1759.21
470.33	1777.64
470.53	1779.68
470.73	2133.98
470.94	2346.97
471.14	2338.78
471.34	2525.15
471.54	2396.12
471.75	2224.09
471.95	2179.04
472.15	2037.73
472.36	2090.98
472.56	2056.16
472.76	2095.07
472.96	2058.21
473.17	2017.25
473.37	1943.52
473.57	1816.55
473.77	1832.93
473.98	1746.92
474.18	1724.39
474.38	1857.51
474.58	1665.00
474.79	1691.62
474.99	1722.34
475.19	1746.92
475.39	1658.85
475.60	1714.15
475.80	1775.59
476.00	1718.25
476.20	1718.25
476.41	1779.68
476.61	1877.99
476.81	1789.92
477.01	1654.76
477.21	1869.80
477.42	1810.40
477.62	1716.20
477.82	1800.16
478.02	1708.01
478.23	1746.92
478.43	1656.81
478.63	1714.15
478.83	1714.15
479.03	1732.58
479.24	1857.51
479.44	1818.60
479.64	1724.39
479.84	1621.99
480.04	1740.77
480.25	1765.35
480.45	1667.05
480.65	1712.10
480.85	1755.11
481.06	1699.81
481.26	1699.81
481.46	1767.40
481.66	1681.38
481.86	1734.63
482.06	1785.83
482.27	1714.15
482.47	1742.82
482.67	1769.44
482.87	1765.35
483.07	1849.32
483.28	1701.86
483.48	1708.01
483.68	1785.83
483.88	1665.00
484.08	1646.57
484.29	1683.43
484.49	1732.58
484.69	1757.16
484.89	1785.83
485.09	1800.16
485.29	1779.68
485.50	1742.82
485.70	1732.58
485.90	1787.88
486.10	1744.87
486.30	1753.06
486.50	1798.12
486.71	1765.35
486.91	1767.40
487.11	1763.30
487.31	1587.18
487.51	1708.01
487.71	1705.96
487.91	1708.01
488.12	1669.09
488.32	1705.96
488.52	1652.71
488.72	1665.00
488.92	1738.73
489.12	1771.49
489.32	1781.73
489.53	1789.92
489.73	1667.05
489.93	1857.51
490.13	1728.49
490.33	1611.75
490.53	1718.25
490.73	1832.93
490.94	1675.24
491.14	1759.21
491.34	1830.88
491.54	2176.99
491.74	2648.02
491.94	2908.12
492.14	3033.04
492.34	3000.27
492.54	2799.57
492.75	2535.39
492.95	2457.56
493.15	2357.21
493.35	2252.77
493.55	2191.33
493.75	2142.18
493.95	2144.22
494.15	2009.06
494.35	1841.12
494.56	1880.04
494.76	1787.88
494.96	1744.87
495.16	1837.03
495.36	1681.38
495.56	1689.57
495.76	1771.49
495.96	1691.62
496.16	1710.05
496.36	1843.17
496.56	1738.73
496.77	1796.07
496.97	1773.54
497.17	1832.93
497.37	1726.44
497.57	1783.78
497.77	1693.67
497.97	1634.28
498.17	1777.64
498.37	1683.43
498.57	1740.77
498.77	1738.73
498.97	1753.06
499.17	1806.31
499.38	1640.42
499.58	1832.93
499.78	1834.98
499.98	1832.93
500.18	1712.10
500.38	1759.21
500.58	1818.60
500.78	2549.72
500.98	4544.44
501.18	5797.80
501.38	6817.69
501.58	7026.58
501.78	6600.60
501.98	5474.22
502.18	4898.74
502.38	4403.13
502.58	4235.20
502.78	3612.62
502.98	3536.84
503.18	3305.42
503.38	3194.83
503.59	2797.53
503.79	2662.36
503.99	2510.81
504.19	2269.15
504.39	2185.18
504.59	2107.36
504.79	2074.59
504.99	2107.36
505.19	1927.14
505.39	1898.47
505.59	2033.63
505.79	1898.47
505.99	1886.18
506.19	1753.06
506.39	1877.99
506.59	1738.73
506.79	1720.29
506.99	1900.52
507.19	1839.08
507.39	1851.36
507.59	1611.75
507.79	1718.25
507.99	1671.14
508.19	1769.44
508.39	1761.25
508.59	1839.08
508.79	1877.99
508.99	1806.31
509.19	1746.92
509.39	1789.92
509.59	1677.29
509.79	1724.39
509.99	1730.53
510.19	1816.55
510.39	1736.68
510.59	1785.83
510.79	1691.62
510.99	1693.67
511.19	1804.26
511.39	1845.22
511.59	1730.53
511.79	1798.12
511.99	1789.92
512.19	1830.88
512.38	1761.25
512.58	1687.53
512.78	1761.25
512.98	1822.69
513.18	1908.71
513.38	1681.38
513.58	1763.30
513.78	1742.82
513.98	1753.06
514.18	1695.72
514.38	1701.86
514.58	1794.02
514.78	1665.00
514.98	1630.18
515.18	1763.30
515.38	1730.53
515.58	1867.75
515.78	1638.38
515.98	1730.53
516.18	1818.60
516.38	1771.49
516.57	1724.39
516.77	1683.43
516.97	1763.30
517.17	1744.87
517.37	1695.72
517.57	1779.68
517.77	1771.49
517.97	1693.67
518.17	1783.78
518.37	1683.43
518.57	1677.29
518.77	1689.57
518.97	1716.20
519.16	1777.64
519.36	1767.40
519.56	1789.92
519.76	1755.11
519.96	1746.92
520.16	1896.42
520.36	1642.47
520.56	1855.46
520.76	1712.10
520.96	1679.33
521.16	1820.64
521.35	1787.88
521.55	1830.88
521.75	1726.44
521.95	1746.92
522.15	1640.42
522.35	1617.90
522.55	1753.06
522.75	1771.49
522.95	1785.83
523.14	1728.49
523.34	1789.92
523.54	1751.01
523.74	1777.64
523.94	1841.12
524.14	1685.48
524.34	1714.15
524.54	1845.22
524.73	1644.52
524.93	1724.39
525.13	1712.10
525.33	1667.05
525.53	1902.56
525.73	1789.92
525.93	1753.06
526.13	1720.29
526.32	1771.49
526.52	1847.27
526.72	1845.22
526.92	1720.29
527.12	1699.81
527.32	1712.10
527.52	1820.64
527.71	1777.64
527.91	1732.58
528.11	1705.96
528.31	1712.10
528.51	1656.81
528.71	1816.55
528.90	1771.49
529.10	1865.70
529.30	1804.26
529.50	1658.85
529.70	1701.86
529.90	1771.49
530.09	1824.74
530.29	1677.29
530.49	1665.00
530.69	1888.23
530.89	1794.02
531.09	1818.60
531.28	1730.53
531.48	1822.69
531.68	1853.41
531.88	1787.88
532.08	1689.57
532.28	1708.01
532.47	1802.21
532.67	1791.97
532.87	1857.51
533.07	1648.61
533.27	1898.47
533.46	1773.54
533.66	1828.84
533.86	1724.39
534.06	1697.77
534.26	1730.53
534.45	1751.01
534.65	1845.22
534.85	1820.64
535.05	1718.25
535.25	1904.61
535.44	1695.72
535.64	1781.73
535.84	1697.77
536.04	1671.14
536.24	1705.96
536.43	1673.19
536.63	1785.83
536.83	1783.78
537.03	1759.21
537.22	1626.09
537.42	1603.56
537.62	1767.40
537.82	1705.96
538.02	1777.64
538.21	1785.83
538.41	1939.43
538.61	1710.05
538.81	1720.29
539.00	1802.21
539.20	1578.98
539.40	1681.38
539.60	1814.50
539.79	1804.26
539.99	1734.63
540.19	1677.29
540.39	1699.81
540.58	1822.69
540.78	1808.36
540.98	1814.50
541.18	1703.91
541.37	1687.53
541.57	1781.73
541.77	1882.08
541.97	1742.82
542.16	1736.68
542.36	1783.78
542.56	1773.54
542.76	1853.41
542.95	1746.92
543.15	1826.79
543.35	1804.26
543.54	1761.25
543.74	1691.62
543.94	1808.36
544.14	1667.05
544.33	1857.51
544.53	1783.78
544.73	1726.44
544.93	1691.62
545.12	1714.15
545.32	1673.19
545.52	1755.11
545.71	1628.14
545.91	1738.73
546.11	1691.62
546.30	1742.82
546.50	1794.02
546.70	1734.63
546.90	1789.92
547.09	1654.76
547.29	1744.87
547.49	1703.91
547.68	1699.81
547.88	1720.29
548.08	1763.30
548.27	2150.37
548.47	1722.34
548.67	1755.11
548.87	1751.01
549.06	1751.01
549.26	1796.07
549.46	1720.29
549.65	1740.77
549.85	1685.48
550.05	1783.78
550.24	1742.82
550.44	1802.21
550.64	1732.58
550.83	1779.68
551.03	1847.27
551.23	1863.65
551.42	1804.26
551.62	1628.14
551.82	1771.49
552.01	1771.49
552.21	1837.03
552.41	1742.82
552.60	1802.21
552.80	1738.73
553.00	1736.68
553.19	1773.54
553.39	1871.84
553.59	1693.67
553.78	1767.40
553.98	1787.88
554.17	1697.77
554.37	1789.92
554.57	1744.87
554.76	1759.21
554.96	1705.96
555.16	1775.59
555.35	1834.98
555.55	1843.17
555.75	1794.02
555.94	1697.77
556.14	1687.53
556.33	1775.59
556.53	1757.16
556.73	1798.12
556.92	1736.68
557.12	1806.31
557.32	1855.46
557.51	1837.03
557.71	1828.84
557.90	1841.12
558.10	1800.16
558.30	1710.05
558.49	1679.33
558.69	1691.62
558.88	1787.88
559.08	1720.29
559.28	1755.11
559.47	1755.11
559.67	1753.06
559.86	1791.97
560.06	1757.16
560.26	1732.58
560.45	1693.67
560.65	1800.16
560.84	1822.69
561.04	1708.01
561.24	1773.54
561.43	1648.61
561.63	1767.40
561.82	1740.77
562.02	1753.06
562.22	1634.28
562.41	1650.66
562.61	1798.12
562.80	1683.43
563.00	1927.14
563.19	1785.83
563.39	1880.04
563.59	1800.16
563.78	1634.28
563.98	1632.23
564.17	1736.68
564.37	1636.33
564.56	1681.38
564.76	1740.77
564.96	1787.88
565.15	1746.92
565.35	1851.36
565.54	1714.15
565.74	1787.88
565.93	1816.55
566.13	1773.54
566.32	1810.40
566.52	1808.36
566.71	1726.44
566.91	1738.73
567.11	1720.29
567.30	1701.86
567.50	1794.02
567.69	1806.31
567.89	1746.92
568.08	1712.10
568.28	1722.34
568.47	1728.49
568.67	1808.36
568.86	1794.02
569.06	1759.21
569.25	1755.11
569.45	1753.06
569.64	1730.53
569.84	1683.43
570.04	1812.45
570.23	1665.00
570.43	1677.29
570.62	1759.21
570.82	1857.51
571.01	1691.62
571.21	1734.63
571.40	1718.25
571.60	1806.31
571.79	1732.58
571.99	1748.97
572.18	1654.76
572.38	1791.97
572.57	1679.33
572.77	1753.06
572.96	1855.46
573.16	1757.16
573.35	1738.73
573.55	1830.88
573.74	1787.88
573.94	1681.38
574.13	1689.57
574.33	1789.92
574.52	1820.64
574.71	1724.39
574.91	1834.98
575.10	1740.77
575.30	1728.49
575.49	1714.15
575.69	1736.68
575.88	1759.21
576.08	1781.73
576.27	1828.84
576.47	1751.01
576.66	1828.84
576.86	1839.08
577.05	1701.86
577.25	1853.41
577.44	1898.47
577.64	1665.00
577.83	1814.50
578.02	1689.57
578.22	1781.73
578.41	1851.36
578.61	1716.20
578.80	1759.21
579.00	1818.60
579.19	1755.11
579.39	1841.12
579.58	1773.54
579.77	1794.02
579.97	1796.07
580.16	1834.98
580.36	1771.49
580.55	1832.93
580.75	1791.97
580.94	1767.40
581.13	1898.47
581.33	1951.71
581.52	1810.40
581.72	1908.71
581.91	1771.49
582.11	1718.25
582.30	1802.21
582.49	1779.68
582.69	1851.36
582.88	1753.06
583.08	1816.55
583.27	1746.92
583.47	1751.01
583.66	1746.92
583.85	1677.29
584.05	1691.62
584.24	1773.54
584.44	1816.55
584.63	1820.64
584.82	1816.55
585.02	1845.22
585.21	1787.88
585.41	1845.22
585.60	1873.89
585.79	1970.15
585.99	1968.10
586.18	1843.17
586.37	2187.23
586.57	3362.76
586.76	9766.76
586.96	24010.39
587.15	33826.30
587.34	39593.38
587.54	41379.21
587.73	35659.23
587.93	25681.53
588.12	21094.08
588.31	17829.62
588.51	15998.73
588.70	14960.41
588.89	13780.78
589.09	12255.04
589.28	10848.09
589.47	9297.78
589.67	7778.19
589.86	6387.61
590.06	4814.77
590.25	3954.63
590.44	3069.91
590.64	2545.63
590.83	2195.42
591.02	2121.70
591.22	1935.33
591.41	1890.28
591.60	1900.52
591.80	1986.53
591.99	1730.53
592.18	1818.60
592.38	1871.84
592.57	1859.56
592.76	1779.68
592.96	1824.74
593.15	1828.84
593.34	1871.84
593.54	1714.15
593.73	1720.29
593.92	1744.87
594.12	1804.26
594.31	1820.64
594.50	1753.06
594.70	1839.08
594.89	1871.84
595.08	1671.14
595.28	1808.36
595.47	1923.04
595.66	1808.36
595.86	1708.01
596.05	1669.09
596.24	1791.97
596.43	1798.12
596.63	1884.13
596.82	1728.49
597.01	1832.93
597.21	1869.80
597.40	1746.92
597.59	1748.97
597.79	1769.44
597.98	1771.49
598.17	1808.36
598.36	1753.06
598.56	1775.59
598.75	1742.82
598.94	1710.05
599.14	1773.54
599.33	1710.05
599.52	1822.69
599.71	1789.92
599.91	1865.70
600.10	1773.54
600.29	1759.21
600.48	1744.87
600.68	1753.06
600.87	1771.49
601.06	1699.81
601.26	1665.00
601.45	1798.12
601.64	1716.20
601.83	1832.93
602.03	1708.01
602.22	1697.77
602.41	1808.36
602.60	1820.64
602.80	1818.60
602.99	1853.41
603.18	1689.57
603.37	1755.11
603.57	1796.07
603.76	1800.16
603.95	1761.25
604.14	1738.73
604.34	1656.81
604.53	1773.54
604.72	1804.26
604.91	1802.21
605.10	1753.06
605.30	1658.85
605.49	1818.60
605.68	1769.44
605.87	1783.78
606.07	1652.71
606.26	1744.87
606.45	1787.88
606.64	1705.96
606.84	1693.67
607.03	1791.97
607.22	1771.49
607.41	1775.59
607.60	1726.44
607.80	1720.29
607.99	1746.92
608.18	1798.12
608.37	1699.81
608.56	1765.35
608.76	1761.25
608.95	1863.65
609.14	1791.97
609.33	1802.21
609.52	1796.07
609.72	1738.73
609.91	1751.01
610.10	1787.88
610.29	1814.50
610.48	1785.83
610.68	1806.31
610.87	1763.30
611.06	1757.16
611.25	1736.68
611.44	1787.88
611.63	1705.96
611.83	1855.46
612.02	1697.77
612.21	1796.07
612.40	1656.81
612.59	1732.58
612.79	1738.73
612.98	1695.72
613.17	1783.78
613.36	1726.44
613.55	1906.66
613.74	1693.67
613.93	1703.91
614.13	1673.19
614.32	1757.16
614.51	1746.92
614.70	1734.63
614.89	1716.20
615.08	1734.63
615.28	2074.59
615.47	1691.62
615.66	1763.30
615.85	1658.85
616.04	1822.69
616.23	1734.63
616.42	1732.58
616.62	1787.88
616.81	1783.78
617.00	1632.23
617.19	1853.41
617.38	1703.91
617.57	1773.54
617.76	1720.29
617.95	1734.63
618.15	1796.07
618.34	1808.36
618.53	1734.63
618.72	1697.77
618.91	1783.78
619.10	1861.60
619.29	1738.73
619.48	1779.68
619.68	1675.24
619.87	1763.30
620.06	1675.24
620.25	1845.22
620.44	1734.63
620.63	1789.92
620.82	1726.44
621.01	1654.76
621.20	1697.77
621.39	1755.11
621.59	1783.78
621.78	1748.97
621.97	1753.06
622.16	1710.05
622.35	1720.29
622.54	1847.27
622.73	1806.31
622.92	1615.85
623.11	1814.50
623.30	1675.24
623.49	1759.21
623.68	1722.34
623.88	1785.83
624.07	1718.25
624.26	1708.01
624.45	1705.96
624.64	1748.97
624.83	1771.49
625.02	1712.10
625.21	1701.86
625.40	1785.83
625.59	1830.88
625.78	1806.31
625.97	1716.20
626.16	1771.49
626.35	1802.21
626.54	1751.01
626.74	1808.36
626.93	1712.10
627.12	1732.58
627.31	1865.70
627.50	1824.74
627.69	1789.92
627.88	1718.25
628.07	1738.73
628.26	1665.00
628.45	1751.01
628.64	1636.33
628.83	1810.40
629.02	1636.33
629.21	1781.73
629.40	1742.82
629.59	1738.73
629.78	1681.38
629.97	1718.25
630.16	1722.34
630.35	1720.29
630.54	1763.30
630.73	1677.29
630.92	1775.59
631.11	1617.90
631.30	1701.86
631.49	1720.29
631.68	1771.49
631.87	1746.92
632.06	1699.81
632.25	1820.64
632.44	1759.21
632.63	1753.06
632.82	1693.67
633.01	1728.49
633.20	1697.77
633.39	1720.29
633.58	1621.99
633.77	1789.92
633.96	1753.06
634.15	1830.88
634.34	1699.81
634.53	1685.48
634.72	1705.96
634.91	1681.38
635.10	1767.40
635.29	1687.53
635.48	1738.73
635.67	1693.67
635.86	1644.52
636.05	1763.30
636.24	1667.05
636.43	1718.25
636.62	1746.92
636.81	1581.03
637.00	1728.49
637.19	1777.64
637.38	1757.16
637.57	1665.00
637.76	1775.59
637.95	1718.25
638.14	1736.68
638.33	1667.05
638.52	1763.30
638.71	1753.06
638.89	1640.42
639.08	1873.89
639.27	1732.58
639.46	1767.40
639.65	1845.22
639.84	1814.50
640.03	1757.16
640.22	1687.53
640.41	1816.55
640.60	1699.81
640.79	1701.86
640.98	1658.85
641.17	1783.78
641.36	1705.96
641.55	1773.54
641.74	1699.81
641.92	1689.57
642.11	1652.71
642.30	1767.40
642.49	1669.09
642.68	1787.88
642.87	1728.49
643.06	1708.01
643.25	1697.77
643.44	1667.05
643.63	1669.09
643.82	1730.53
644.00	1626.09
644.19	1738.73
644.38	1658.85
644.57	1714.15
644.76	1759.21
644.95	1701.86
645.14	1681.38
645.33	1693.67
645.52	1751.01
645.71	1673.19
645.89	1689.57
646.08	1724.39
646.27	1626.09
646.46	1832.93
646.65	1650.66
646.84	1734.63
647.03	1689.57
647.22	1765.35
647.40	1708.01
647.59	1675.24
647.78	1644.52
647.97	1699.81
648.16	1679.33
648.35	1748.97
648.54	1728.49
648.73	1738.73
648.91	1744.87
649.10	1746.92
649.29	1710.05
649.48	1820.64
649.67	1794.02
649.86	1763.30
650.05	1693.67
650.23	1740.77
650.42	1673.19
650.61	1763.30
650.80	1746.92
650.99	1875.94
651.18	1751.01
651.36	1773.54
651.55	1716.20
651.74	1761.25
651.93	1738.73
652.12	1656.81
652.31	1701.86
652.49	1724.39
652.68	1626.09
652.87	1828.84
653.06	1783.78
653.25	1802.21
653.44	1710.05
653.62	1787.88
653.81	1701.86
654.00	1787.88
654.19	1736.68
654.38	1812.45
654.56	1769.44
654.75	1681.38
654.94	1787.88
655.13	1791.97
655.32	1783.78
655.51	1822.69
655.69	1710.05
655.88	1738.73
656.07	1708.01
656.26	1800.16
656.45	1681.38
656.63	1751.01
656.82	1783.78
657.01	1757.16
657.20	1759.21
657.38	1789.92
657.57	1695.72
657.76	1599.46
657.95	1695.72
658.14	1708.01
658.32	1751.01
658.51	1652.71
658.70	1687.53
658.89	1814.50
659.08	1644.52
659.26	1730.53
659.45	1673.19
659.64	1757.16
659.83	1759.21
660.01	1847.27
660.20	1730.53
660.39	1818.60
660.58	1671.14
660.76	1802.21
660.95	1613.80
661.14	1779.68
661.33	1621.99
661.51	1669.09
661.70	1689.57
661.89	1787.88
662.08	1791.97
662.26	1650.66
662.45	1648.61
662.64	1759.21
662.83	1757.16
663.01	1693.67
663.20	1689.57
663.39	1816.55
663.58	1761.25
663.76	1718.25
663.95	1746.92
664.14	1755.11
664.32	1640.42
664.51	1714.15
664.70	1611.75
664.89	1781.73
665.07	1613.80
665.26	1800.16
665.45	1687.53
665.64	1763.30
665.82	1824.74
666.01	1773.54
666.20	1720.29
666.38	1767.40
666.57	1806.31
666.76	2166.75
666.95	4507.58
667.13	10379.11
667.32	15138.58
667.51	17467.13
667.69	18986.72
667.88	17446.65
668.07	12293.96
668.25	9539.44
668.44	7952.26
668.63	7186.32
668.81	6705.05
669.00	6170.53
669.19	5640.11
669.38	5062.58
669.56	4526.01
669.75	4028.35
669.94	3358.67
670.12	2918.36
670.31	2531.29
670.50	2189.28
670.68	2017.25
670.87	1904.61
671.06	1787.88
671.24	1767.40
671.43	1888.23
671.62	1789.92
671.80	1693.67
671.99	1650.66
672.18	1751.01
672.36	1777.64
672.55	1769.44
672.74	1671.14
672.92	1667.05
673.11	1789.92
673.29	1628.14
673.48	1789.92
673.67	1701.86
673.85	1798.12
674.04	1728.49
674.23	1708.01
674.41	1789.92
674.60	1693.67
674.79	1650.66
674.97	1683.43
675.16	1832.93
675.34	1757.16
675.53	1703.91
675.72	1728.49
675.90	1880.04
676.09	1763.30
676.28	1701.86
676.46	1665.00
676.65	1738.73
676.83	1648.61
677.02	1738.73
677.21	1724.39
677.39	1787.88
677.58	1732.58
677.77	1683.43
677.95	1767.40
678.14	1796.07
678.32	1761.25
678.51	1693.67
678.70	1765.35
678.88	1753.06
679.07	1765.35
679.25	1753.06
679.44	1646.57
679.63	1675.24
679.81	1740.77
680.00	1794.02
680.18	1763.30
680.37	1820.64
680.55	1708.01
680.74	1662.95
680.93	1646.57
681.11	1679.33
681.30	1730.53
681.48	1714.15
681.67	1652.71
681.85	1697.77
682.04	1689.57
682.23	1759.21
682.41	1742.82
682.60	1654.76
682.78	1720.29
682.97	1636.33
683.15	1773.54
683.34	1738.73
683.53	1755.11
683.71	1642.47
683.90	1738.73
684.08	1771.49
684.27	1689.57
684.45	1769.44
684.64	1771.49
684.82	1634.28
685.01	1624.04
685.19	1660.90
685.38	1791.97
685.57	1708.01
685.75	1728.49
685.94	1689.57
686.12	1662.95
686.31	1695.72
686.49	1843.17
686.68	1568.74
686.86	1783.78
687.05	1693.67
687.23	1818.60
687.42	1669.09
687.60	1619.94
687.79	1714.15
687.97	1804.26
688.16	1773.54
688.34	1773.54
688.53	1630.18
688.71	1730.53
688.90	1806.31
689.08	1722.34
689.27	1642.47
689.45	1751.01
689.64	1755.11
689.82	1804.26
690.01	1726.44
690.19	1701.86
690.38	1712.10
690.56	1785.83
690.75	1785.83
690.93	1665.00
691.12	1662.95
691.30	1708.01
691.49	1667.05
691.67	1765.35
691.86	1882.08
692.04	1681.38
692.23	1687.53
692.41	1755.11
692.60	1818.60
692.78	1796.07
692.97	1673.19
693.15	1730.53
693.34	1843.17
693.52	1820.64
693.71	1736.68
693.89	1703.91
694.08	1640.42
694.26	1734.63
694.44	1763.30
694.63	1753.06
694.81	1712.10
695.00	1685.48
695.18	1732.58
695.37	1839.08
695.55	1705.96
695.74	1691.62
695.92	1662.95
696.10	1748.97
696.29	1675.24
696.47	1718.25
696.66	1611.75
696.84	1615.85
697.03	1656.81
697.21	1816.55
697.40	2336.73
697.58	1828.84
697.76	1681.38
697.95	1660.90
698.13	1681.38
698.32	1652.71
698.50	1722.34
698.68	1712.10
698.87	1751.01
699.05	1826.79
699.24	1787.88
699.42	1642.47
699.61	1683.43
699.79	1685.48
699.97	1744.87
700.16	1689.57
700.34	1691.62
700.53	1767.40
700.71	1834.98
700.89	1701.86
701.08	1671.14
701.26	1738.73
701.45	2064.35
701.63	1656.81
701.81	1687.53
702.00	1681.38
702.18	1740.77
702.37	1732.58
702.55	1748.97
702.73	1638.38
702.92	1611.75
703.10	1822.69
703.28	1744.87
703.47	1699.81
703.65	1814.50
703.84	1824.74
704.02	1654.76
704.20	1779.68
704.39	1720.29
704.57	1701.86
704.75	1716.20
704.94	1773.54
705.12	1775.59
705.30	1734.63
705.49	2197.47
705.67	4380.61
705.86	9314.16
706.04	12212.04
706.22	14212.90
706.41	15038.23
706.59	13233.97
706.77	9146.23
706.96	7243.67
707.14	6547.36
707.32	5943.21
707.51	5519.28
707.69	4726.71
707.87	4106.18
708.06	3536.84
708.24	2904.02
708.42	2394.08
708.61	2209.76
708.79	1916.90
708.97	1888.23
709.16	1769.44
709.34	1773.54
709.52	1708.01
709.71	1767.40
709.89	1726.44
710.07	1763.30
710.26	1693.67
710.44	1761.25
710.62	1730.53
710.80	1734.63
710.99	1712.10
711.17	1759.21
711.35	1732.58
711.54	1710.05
711.72	1826.79
711.90	1703.91
712.09	1751.01
712.27	1804.26
712.45	1771.49
712.63	1699.81
712.82	1769.44
713.00	1685.48
713.18	1728.49
713.37	1767.40
713.55	1703.91
713.73	1699.81
713.91	1734.63
714.10	1695.72
714.28	1636.33
714.46	1802.21
714.65	1734.63
714.83	1665.00
715.01	1675.24
715.19	1712.10
715.38	1708.01
715.56	1718.25
715.74	1708.01
715.92	1683.43
716.11	1791.97
716.29	1660.90
716.47	1681.38
716.65	1712.10
716.84	1597.42
717.02	1769.44
717.20	1656.81
717.38	1687.53
717.57	1746.92
717.75	1742.82
717.93	1669.09
718.11	1685.48
718.30	1703.91
718.48	1699.81
718.66	1775.59
718.84	1816.55
719.03	1683.43
719.21	1671.14
719.39	1841.12
719.57	1812.45
719.75	1781.73
719.94	1701.86
720.12	1708.01
720.30	1736.68
720.48	1777.64
720.67	1669.09
720.85	1603.56
721.03	1693.67
721.21	1701.86
721.39	1785.83
721.58	1763.30
721.76	1693.67
721.94	1742.82
722.12	1714.15
722.30	1824.74
722.49	1708.01
722.67	1650.66
722.85	1818.60
723.03	1630.18
723.21	1673.19
723.40	1718.25
723.58	1771.49
723.76	1656.81
723.94	1746.92
724.12	1703.91
724.30	1818.60
724.49	1734.63
724.67	1677.29
724.85	1773.54
725.03	1662.95
725.21	1730.53
725.40	1730.53
725.58	1701.86
725.76	1794.02
725.94	1701.86
726.12	1720.29
726.30	1751.01
726.49	1660.90
726.67	1681.38
726.85	1740.77
727.03	1748.97
727.21	2172.89
727.39	2949.08
727.57	3813.32
727.76	4253.63
727.94	4454.33
728.12	4298.69
728.30	3653.58
728.48	2967.51
728.66	2772.95
728.84	2562.01
729.03	2238.43
729.21	2131.94
729.39	2031.58
729.57	1810.40
729.75	1818.60
729.93	1832.93
730.11	1763.30
730.30	1746.92
730.48	1828.84
730.66	1826.79
730.84	1798.12
731.02	1697.77
731.20	1742.82
731.38	1728.49
731.56	1636.33
731.74	1693.67
731.93	1746.92
732.11	1738.73
732.29	1714.15
732.47	1712.10
732.65	1748.97
732.83	1746.92
733.01	1656.81
733.19	1654.76
733.37	1695.72
733.56	1669.09
733.74	1636.33
733.92	1800.16
734.10	1703.91
734.28	1777.64
734.46	1660.90
734.64	1662.95
734.82	1714.15
735.00	1687.53
735.18	1681.38
735.36	1681.38
735.54	1740.77
735.73	1761.25
735.91	1808.36
736.09	1804.26
736.27	1738.73
736.45	1820.64
736.63	1648.61
736.81	1626.09
736.99	1732.58
737.17	1841.12
737.35	1712.10
737.53	1691.62
737.71	1726.44
737.89	1843.17
738.07	1708.01
738.25	1710.05
738.43	1624.04
738.61	1675.24
738.80	1718.25
738.98	1632.23
739.16	1701.86
739.34	1626.09
739.52	1796.07
739.70	1781.73
739.88	1744.87
740.06	1812.45
740.24	1607.66
740.42	1763.30
740.60	1679.33
740.78	1695.72
740.96	1630.18
741.14	1673.19
741.32	1705.96
741.50	1669.09
741.68	1896.42
741.86	1787.88
742.04	1691.62
742.22	1617.90
742.40	1716.20
742.58	1744.87
742.76	1693.67
742.94	1763.30
743.12	1611.75
743.30	1683.43
743.48	1685.48
743.66	1679.33
743.84	1748.97
744.02	1671.14
744.20	1767.40
744.38	1685.48
744.56	1652.71
744.74	1855.46
744.92	1673.19
745.10	1804.26
745.28	1759.21
745.46	1814.50
745.64	1691.62
745.82	1843.17
746.00	1695.72
746.18	1746.92
746.36	1669.09
746.54	1677.29
746.72	1728.49
746.90	1644.52
747.08	1861.60
747.26	1701.86
747.44	1738.73
747.62	1824.74
747.80	1669.09
747.98	1759.21
748.15	1619.94
748.33	1822.69
748.51	1720.29
748.69	1699.81
748.87	1691.62
749.05	1681.38
749.23	1755.11
749.41	1738.73
749.59	1761.25
749.77	1847.27
749.95	1689.57
750.13	1701.86
750.31	1757.16
750.49	1665.00
750.67	1755.11
750.85	1728.49
751.03	1718.25
751.20	1746.92
751.38	1771.49
751.56	1591.27
751.74	1636.33
751.92	1753.06
752.10	1603.56
752.28	1734.63
752.46	1634.28
752.64	1755.11
752.82	1671.14
753.00	1726.44
753.18	1687.53
753.35	1658.85
753.53	1726.44
753.71	1638.38
753.89	1687.53
754.07	1693.67
754.25	1757.16
754.43	1753.06
754.61	1638.38
754.79	1697.77
754.97	1779.68
755.14	1834.98
755.32	1630.18
755.50	1701.86
755.68	1718.25
755.86	1722.34
756.04	1697.77
756.22	1552.36
756.40	1765.35
756.57	1804.26
756.75	1644.52
756.93	1748.97
757.11	1728.49
757.29	1683.43
757.47	1699.81
757.65	1611.75
757.82	1535.98
758.00	1687.53
758.18	1673.19
758.36	1632.23
758.54	1882.08
758.72	1617.90
758.90	1771.49
759.07	1744.87
759.25	1667.05
759.43	1757.16
759.61	1630.18
759.79	2181.09
759.97	1722.34
760.15	1656.81
760.32	1699.81
760.50	1665.00
760.68	1767.40
760.86	1638.38
761.04	1814.50
761.22	1775.59
761.39	1732.58
761.57	1734.63
761.75	1697.77
761.93	1683.43
762.11	1667.05
762.28	1755.11
762.46	1705.96
762.64	1822.69
762.82	1722.34
763.00	1675.24
763.18	1714.15
763.35	1632.23
763.53	1820.64
763.71	1697.77
763.89	1708.01
764.07	1638.38
764.24	1685.48
764.42	1736.68
764.60	1665.00
764.78	1710.05
764.96	1845.22
765.13	1693.67
765.31	1681.38
765.49	1751.01
765.67	1667.05
765.84	1681.38
766.02	1673.19
766.20	1671.14
766.38	1767.40
766.56	1783.78
766.73	1724.39
766.91	1757.16
767.09	1673.19
767.27	1681.38
767.44	1699.81
767.62	1781.73
767.80	1673.19
767.98	1722.34
768.15	1716.20
768.33	1736.68
768.51	1742.82
768.69	1763.30
768.87	1689.57
769.04	1708.01
769.22	1877.99
769.40	1806.31
769.58	1933.28
769.75	1738.73
769.93	1742.82
770.11	1779.68
770.28	1644.52
770.46	1705.96
770.64	1746.92
770.82	1689.57
770.99	1671.14
771.17	1775.59
771.35	1806.31
771.53	1701.86
771.70	1732.58
771.88	1662.95
772.06	1714.15
772.23	1689.57
772.41	1734.63
772.59	1691.62
772.77	1728.49
772.94	1798.12
773.12	1744.87
773.30	1724.39
773.47	1746.92
773.65	1611.75
773.83	1765.35
774.01	1667.05
774.18	1624.04
774.36	1744.87
774.54	1644.52
774.71	1693.67
774.89	1624.04
775.07	1673.19
775.24	1609.70
775.42	1703.91
775.60	1830.88
775.78	1701.86
775.95	1699.81
776.13	1562.60
776.31	1619.94
776.48	1675.24
776.66	1812.45
776.84	1718.25
777.01	1642.47
777.19	1636.33
777.37	1652.71
777.54	1742.82
777.72	1796.07
777.90	1765.35
778.07	1673.19
778.25	1843.17
778.43	1785.83
778.60	1626.09
778.78	1732.58
778.96	1755.11
779.13	1615.85
779.31	1697.77
779.49	1705.96
779.66	1718.25
779.84	1722.34
780.01	1687.53
780.19	1685.48
780.37	1730.53
780.54	1644.52
780.72	1609.70
780.90	1718.25
781.07	1697.77
781.25	1669.09
781.43	1753.06
781.60	1730.53
781.78	1828.84
781.95	1740.77
782.13	1632.23
782.31	1703.91
782.48	1607.66
782.66	1685.48
782.83	1828.84
783.01	1757.16
783.19	1732.58
783.36	1767.40
783.54	1671.14
783.72	1734.63
783.89	1746.92
784.07	1751.01
784.24	1767.40
784.42	1781.73
784.60	1742.82
784.77	1779.68
784.95	1607.66
785.12	1693.67
785.30	1660.90
785.47	1718.25
785.65	1638.38
785.83	1734.63
786.00	1644.52
786.18	1765.35
786.35	1617.90
786.53	1673.19
786.71	1658.85
786.88	1714.15
787.06	1712.10
787.23	1761.25
787.41	1730.53
787.58	1773.54
787.76	1763.30
787.94	1726.44
788.11	1734.63
788.29	1615.85
788.46	1634.28
788.64	1656.81
788.81	1652.71
788.99	1689.57
789.16	1687.53
789.34	1716.20
789.52	1665.00
789.69	1693.67
789.87	1572.84
790.04	1681.38
790.22	1728.49
790.39	1837.03
790.57	1621.99
790.74	1703.91
790.92	1789.92
791.09	1648.61
791.27	1730.53
791.44	1773.54
791.62	1681.38
791.79	1802.21
791.97	1714.15
792.15	1832.93
792.32	1757.16
792.50	1775.59
792.67	1814.50
792.85	1765.35
793.02	1730.53
793.20	1718.25
793.37	1603.56
793.55	1722.34
793.72	1638.38
793.90	1779.68
794.07	1591.27
794.25	1677.29
794.42	1718.25
794.60	1601.51
794.77	1781.73
794.95	1730.53
795.12	1796.07
795.30	1640.42
795.47	1568.74
795.65	1830.88
795.82	1730.53
796.00	1681.38
796.17	1685.48
796.34	1708.01
796.52	1767.40
796.69	1824.74
796.87	1783.78
797.04	1763.30
797.22	1779.68
797.39	1710.05
797.57	1796.07
797.74	1697.77
797.92	1755.11
798.09	1648.61
798.27	1787.88
798.44	1710.05
798.62	1677.29
798.79	1716.20
798.96	1640.42
799.14	1722.34
799.31	1837.03
799.49	1658.85
799.66	1591.27
799.84	1689.57
800.01	1632.23
800.19	1722.34
800.36	1720.29
800.53	1753.06
800.71	1773.54
800.88	1892.32
801.06	1710.05
801.23	1710.05
801.41	1658.85
801.58	1662.95
801.75	1626.09
801.93	1730.53
802.10	1740.77
802.28	1773.54
802.45	1662.95
802.63	1740.77
802.80	1687.53
802.97	1642.47
803.15	1687.53
803.32	1759.21
803.50	1642.47
803.67	1738.73
803.84	1597.42
804.02	1662.95
804.19	1681.38
804.37	1583.08
804.54	1617.90
804.71	1728.49
804.89	1730.53
805.06	1689.57
805.24	1679.33
805.41	1718.25
805.58	1632.23
805.76	1898.47
805.93	1744.87
806.10	1820.64
806.28	1724.39
806.45	1714.15
806.63	1816.55
806.80	1714.15
806.97	1730.53
807.15	1697.77
807.32	1767.40
807.49	1724.39
807.67	1624.04
807.84	1761.25
808.01	1601.51
808.19	1765.35
808.36	1769.44
808.54	1648.61
808.71	1677.29
808.88	1761.25
809.06	1708.01
809.23	1785.83
809.40	1677.29
809.58	1724.39
809.75	1693.67
809.92	1712.10
810.10	1822.69
810.27	1712.10
810.44	1728.49
810.62	1728.49
810.79	1773.54
810.96	1673.19
811.14	1683.43
811.31	1755.11
811.48	1689.57
811.66	1781.73
811.83	1742.82
812.00	1730.53
812.18	1800.16
812.35	1857.51
812.52	1691.62
812.69	1599.46
812.87	1673.19
813.04	1675.24
813.21	1759.21
813.39	1607.66
813.56	1638.38
813.73	1771.49
813.91	1640.42
814.08	1687.53
814.25	1648.61
814.42	1660.90
814.60	1712.10
814.77	1671.14
814.94	1716.20
815.12	1732.58
815.29	1810.40
815.46	1720.29
815.63	1734.63
815.81	1732.58
815.98	1646.57
816.15	1724.39
816.33	1726.44
816.50	1783.78
816.67	1712.10
816.84	1673.19
817.02	1662.95
817.19	1710.05
817.36	1755.11
817.53	1771.49
817.71	1662.95
817.88	1740.77
818.05	1755.11
818.22	1636.33
818.40	1873.89
818.57	1675.24
818.74	1755.11
818.91	1708.01
819.09	1779.68
819.26	1871.84
819.43	1681.38
819.60	1708.01
819.78	1777.64
819.95	1779.68
820.12	1673.19
820.29	1787.88
820.47	1798.12
820.64	1697.77
820.81	1617.90
820.98	1726.44
821.15	1583.08
821.33	1742.82
821.50	1634.28
821.67	1791.97
821.84	1705.96
822.02	1755.11
822.19	1740.77
822.36	1730.53
822.53	1705.96
822.70	1619.94
822.88	1652.71
823.05	1787.88
823.22	1662.95
823.39	1732.58
823.56	1671.14
823.74	1828.84
823.91	1718.25
824.08	1646.57
824.25	1669.09
824.42	1765.35
824.60	1683.43
824.77	1658.85
824.94	1638.38
825.11	1775.59
825.28	1738.73
825.45	1748.97
825.63	1708.01
825.80	1675.24
825.97	1654.76
826.14	1714.15
826.31	1636.33
826.48	1806.31
826.66	1638.38
826.83	1685.48
827.00	1718.25
827.17	1642.47
827.34	1621.99
827.51	1658.85
827.69	1744.87
827.86	1566.70
828.03	1710.05
828.20	1703.91
828.37	1677.29
828.54	1771.49
828.71	1693.67
828.89	1751.01
829.06	1716.20
829.23	1751.01
829.40	1660.90
829.57	1769.44
829.74	1744.87
829.91	1693.67
830.09	1671.14
830.26	1767.40
830.43	1775.59
830.60	1718.25
830.77	1710.05
830.94	1789.92
831.11	1767.40
831.28	1740.77
831.46	1812.45
831.63	1648.61
831.80	1732.58
831.97	1644.52
832.14	1679.33
832.31	1691.62
832.48	1662.95
832.65	1820.64
832.82	1691.62
832.99	1746.92
833.17	1597.42
833.34	1796.07
833.51	1718.25
833.68	1593.32
833.85	1845.22
834.02	1675.24
834.19	1624.04
834.36	1660.90
834.53	1738.73
834.70	1757.16
834.87	1830.88
835.04	1708.01
835.22	1656.81
835.39	1677.29
835.56	1650.66
835.73	1673.19
835.90	1755.11
836.07	1617.90
836.24	1736.68
836.41	1662.95
836.58	1603.56
836.75	1775.59
836.92	1724.39
837.09	1724.39
837.26	1724.39
837.43	1787.88
837.60	1652.71
837.77	1681.38
837.94	1718.25
838.12	1808.36
838.29	1662.95
838.46	1648.61
838.63	1671.14
838.80	1779.68
838.97	1718.25
839.14	1673.19
839.31	1710.05
839.48	1769.44
839.65	1714.15
839.82	1742.82
839.99	1689.57
840.16	1751.01
840.33	1683.43
840.50	1669.09
840.67	1701.86
840.84	1603.56
841.01	1773.54
841.18	1765.35
841.35	1611.75
841.52	1734.63
841.69	1800.16
841.86	1748.97
842.03	1720.29
842.20	1730.53
842.37	1734.63
842.54	1763.30
842.71	1718.25
842.88	1660.90
843.05	1738.73
843.22	1697.77
843.39	1783.78
843.56	1685.48
843.73	1656.81
843.90	1673.19
844.07	1693.67
844.24	1757.16
844.41	1781.73
844.58	1712.10
844.75	1648.61
844.92	1708.01
845.09	1783.78
845.26	1589.22
845.43	1787.88
845.60	1650.66
845.77	1812.45
845.94	1636.33
846.10	1748.97
846.27	1648.61
846.44	1621.99
846.61	1599.46
846.78	1730.53
846.95	1726.44
847.12	1626.09
847.29	1689.57
847.46	1630.18
847.63	1669.09
847.80	1720.29
847.97	1697.77
848.14	1769.44
848.31	1662.95
848.48	1703.91
848.65	1714.15
848.82	1656.81
848.98	1855.46
849.15	1783.78
849.32	1791.97
849.49	1759.21
849.66	1699.81
849.83	1742.82
850.00	1691.62
850.17	1826.79
850.34	1656.81
850.51	1665.00
850.68	1673.19
850.85	1808.36
851.01	1751.01
851.18	1746.92
851.35	1693.67
851.52	1681.38
851.69	1777.64
851.86	1613.80
852.03	1697.77
852.20	1777.64
852.37	1712.10
852.53	1695.72
852.70	1662.95
852.87	1650.66
853.04	1742.82
853.21	1748.97
853.38	1798.12
853.55	1816.55
853.72	1724.39
853.89	1693.67
854.05	1660.90
854.22	1703.91
854.39	1673.19
854.56	1736.68
854.73	1701.86
854.90	1736.68
855.07	1685.48
855.23	1677.29
855.40	1734.63
855.57	1689.57
855.74	1646.57
855.91	1918.95
856.08	1693.67
856.25	1681.38
856.41	1652.71
856.58	1642.47
856.75	1718.25
856.92	1669.09
857.09	1708.01
857.26	1607.66
857.42	1736.68
857.59	1716.20
857.76	1718.25
857.93	1834.98
858.10	1714.15
858.27	1654.76
858.43	1683.43
858.60	1685.48
858.77	1654.76
858.94	1701.86
859.11	1783.78
859.27	1722.34
859.44	1716.20
859.61	1789.92
859.78	1734.63
859.95	1734.63
860.12	1626.09
860.28	1767.40
860.45	1820.64
860.62	1660.90
860.79	1712.10
860.95	1679.33
861.12	1677.29
861.29	1634.28
861.46	1685.48
861.63	1660.90
861.79	1658.85
861.96	1638.38
862.13	1708.01
862.30	1853.41
862.47	1697.77
862.63	1621.99
862.80	1843.17
862.97	1734.63
863.14	1734.63
863.30	1740.77
863.47	1699.81
863.64	1814.50
863.81	1791.97
863.97	1710.05
864.14	1755.11
864.31	1722.34
864.48	1726.44
864.65	1605.61
864.81	1714.15
864.98	1785.83
865.15	1652.71
865.32	1757.16
865.48	1796.07
865.65	1791.97
865.82	1673.19
865.98	1744.87
866.15	1693.67
866.32	1689.57
866.49	1691.62
866.65	1800.16
866.82	1667.05
866.99	1736.68
867.16	1624.04
867.32	1687.53
867.49	1648.61
867.66	1730.53
867.83	1638.38
867.99	1585.13
868.16	1732.58
868.33	1634.28
868.49	1673.19
868.66	1626.09
868.83	1775.59
868.99	1708.01
869.16	1636.33
869.33	1779.68
869.50	1681.38
869.66	1695.72
869.83	1722.34
870.00	1712.10
870.16	1718.25
870.33	1726.44
870.50	1746.92
870.66	1646.57
870.83	1841.12
871.00	1732.58
871.17	1738.73
871.33	1779.68
871.50	1722.34
871.67	1695.72
871.83	1708.01
872.00	1845.22
872.17	1734.63
872.33	1800.16
872.50	1734.63
872.67	1640.42
872.83	1638.38
873.00	1769.44
873.17	1697.77
873.33	1814.50
873.50	1787.88
873.67	1695.72
873.83	1658.85
874.00	1720.29
874.16	1726.44
874.33	1703.91
874.50	1632.23
874.66	1724.39
874.83	1665.00
875.00	1824.74
875.16	1814.50
875.33	1748.97
875.50	1667.05
875.66	1732.58
875.83	1695.72
875.99	1773.54
876.16	1636.33
876.33	1677.29
876.49	1675.24
876.66	1769.44
876.83	1673.19
876.99	1611.75
877.16	1726.44
877.32	1677.29
877.49	1703.91
877.66	1755.11
877.82	1751.01
877.99	1669.09
878.15	1777.64
878.32	1740.77
878.49	1728.49
878.65	1675.24
878.82	1763.30
878.98	1710.05
879.15	1810.40
879.32	1751.01
879.48	1718.25
879.65	1667.05
879.81	1658.85
879.98	1730.53
880.15	1652.71
880.31	1761.25
880.48	1685.48
880.64	1787.88
880.81	1753.06
880.97	1814.50
881.14	1789.92
881.31	1669.09
881.47	1890.28
881.64	1705.96
881.80	1605.61
881.97	1675.24
882.13	1695.72
882.30	1648.61
882.47	1742.82
882.63	1662.95
882.80	1644.52
882.96	1628.14
883.13	1765.35
883.29	1683.43
883.46	1703.91
883.62	1730.53
883.79	1677.29
883.95	1847.27
884.12	1710.05
884.29	1722.34
884.45	1671.14
884.62	1759.21
884.78	1691.62
884.95	1814.50
885.11	1685.48
885.28	1710.05
885.44	1701.86
885.61	1705.96
885.77	1763.30
885.94	1714.15
886.10	1734.63
886.27	1648.61
886.43	1800.16
886.60	1791.97
886.76	1767.40
886.93	1589.22
887.09	1779.68
887.26	1601.51
887.42	1726.44
887.59	1734.63
887.75	1820.64
887.92	1771.49
888.08	1724.39
888.25	1763.30
888.41	1841.12
888.58	1738.73
888.74	1628.14
888.91	1671.14
>>>>>End Processed Spectral Data<<<<<
