SpectraSuite Data File
++++++++++++++++++++++++++++++++++++
Date: Mon Jun 06 12:45:17 CEST 2016
User: root
Dark Spectrum Present: No
Reference Spectrum Present: No
Number of Sampled Component Spectra: 1
Spectrometers: USB4C02835
Integration Time (usec): 100000 (USB4C02835)
Spectra Averaged: 1 (USB4C02835)
Boxcar Smoothing: 0 (USB4C02835)
Correct for Electrical Dark: No (USB4C02835)
Strobe/Lamp Enabled: No (USB4C02835)
Correct for Detector Non-linearity: No (USB4C02835)
Correct for Stray Light: No (USB4C02835)
Number of Pixels in Processed Spectrum: 3648
>>>>>Begin Processed Spectral Data<<<<<
177.47	1439.72
177.69	1439.72
177.91	1439.72
178.13	1511.40
178.36	1456.11
178.58	1634.28
178.80	1732.58
179.02	1617.90
179.24	1701.86
179.46	1654.76
179.68	1740.77
179.90	1730.53
180.13	1746.92
180.35	1689.57
180.57	1624.04
180.79	1781.73
181.01	1630.18
181.23	1724.39
181.45	1742.82
181.67	1777.64
181.90	1705.96
182.12	1638.38
182.34	1615.85
182.56	1687.53
182.78	1710.05
183.00	1703.91
183.22	1656.81
183.44	1595.37
183.66	1806.31
183.89	1748.97
184.11	1775.59
184.33	1759.21
184.55	1818.60
184.77	1667.05
184.99	1687.53
185.21	1673.19
185.43	1822.69
185.65	1617.90
185.87	1699.81
186.10	1824.74
186.32	1853.41
186.54	1726.44
186.76	1779.68
186.98	1798.12
187.20	1726.44
187.42	1693.67
187.64	1718.25
187.86	1708.01
188.08	1755.11
188.30	1703.91
188.52	1654.76
188.75	1744.87
188.97	1779.68
189.19	1626.09
189.41	1718.25
189.63	1722.34
189.85	1691.62
190.07	1607.66
190.29	1593.32
190.51	1746.92
190.73	1648.61
190.95	1738.73
191.17	1669.09
191.39	1556.46
191.61	1718.25
191.84	1632.23
192.06	1800.16
192.28	1665.00
192.50	1882.08
192.72	1744.87
192.94	1683.43
193.16	1789.92
193.38	1751.01
193.60	1585.13
193.82	1617.90
194.04	1716.20
194.26	1757.16
194.48	1638.38
194.70	1621.99
194.92	1658.85
195.14	1720.29
195.36	1648.61
195.58	1699.81
195.80	1738.73
196.02	1638.38
196.24	1695.72
196.46	1681.38
196.69	1679.33
196.91	1802.21
197.13	1654.76
197.35	1675.24
197.57	1804.26
197.79	1789.92
198.01	1753.06
198.23	1779.68
198.45	1703.91
198.67	1658.85
198.89	1648.61
199.11	1697.77
199.33	1665.00
199.55	1630.18
199.77	1734.63
199.99	1693.67
200.21	1658.85
200.43	1734.63
200.65	1646.57
200.87	1640.42
201.09	1712.10
201.31	1710.05
201.53	1757.16
201.75	1632.23
201.97	1703.91
202.19	1738.73
202.41	1755.11
202.63	1718.25
202.85	1687.53
203.07	1677.29
203.29	1703.91
203.51	1587.18
203.73	1677.29
203.95	1976.29
204.17	1773.54
204.39	1665.00
204.61	1703.91
204.83	1744.87
205.05	1738.73
205.27	1796.07
205.49	1816.55
205.71	1652.71
205.93	1619.94
206.15	1617.90
206.37	1675.24
206.59	1716.20
206.81	1665.00
207.03	1681.38
207.25	1722.34
207.47	1738.73
207.69	1658.85
207.91	1697.77
208.13	1812.45
208.34	1662.95
208.56	1658.85
208.78	1710.05
209.00	1634.28
209.22	1697.77
209.44	1662.95
209.66	1691.62
209.88	1742.82
210.10	1697.77
210.32	1710.05
210.54	1826.79
210.76	1671.14
210.98	1759.21
211.20	1624.04
211.42	1667.05
211.64	1781.73
211.86	1714.15
212.08	1802.21
212.30	1691.62
212.52	1761.25
212.74	1716.20
212.96	1718.25
213.17	1763.30
213.39	1775.59
213.61	1800.16
213.83	1656.81
214.05	1710.05
214.27	1759.21
214.49	1687.53
214.71	1640.42
214.93	1796.07
215.15	1650.66
215.37	1671.14
215.59	1665.00
215.81	1689.57
216.03	1732.58
216.24	1720.29
216.46	1675.24
216.68	1726.44
216.90	1703.91
217.12	1800.16
217.34	1679.33
217.56	1648.61
217.78	1761.25
218.00	1669.09
218.22	1695.72
218.44	1785.83
218.66	1708.01
218.87	1802.21
219.09	1673.19
219.31	1810.40
219.53	1632.23
219.75	1671.14
219.97	1714.15
220.19	1724.39
220.41	1683.43
220.63	1859.56
220.85	1675.24
221.06	1681.38
221.28	1755.11
221.50	1728.49
221.72	1746.92
221.94	1671.14
222.16	1710.05
222.38	1708.01
222.60	1703.91
222.82	1730.53
223.03	1679.33
223.25	1621.99
223.47	1748.97
223.69	1816.55
223.91	1777.64
224.13	1689.57
224.35	1705.96
224.57	1710.05
224.78	1779.68
225.00	1626.09
225.22	1787.88
225.44	1755.11
225.66	1740.77
225.88	1609.70
226.10	1800.16
226.32	1740.77
226.53	1814.50
226.75	1646.57
226.97	1703.91
227.19	1675.24
227.41	1619.94
227.63	1601.51
227.85	1603.56
228.06	1748.97
228.28	1687.53
228.50	1740.77
228.72	1705.96
228.94	1673.19
229.16	1632.23
229.37	1626.09
229.59	1673.19
229.81	1769.44
230.03	1685.48
230.25	1656.81
230.47	1642.47
230.69	1730.53
230.90	1761.25
231.12	1726.44
231.34	1687.53
231.56	1773.54
231.78	1677.29
232.00	1689.57
232.21	1642.47
232.43	1601.51
232.65	1581.03
232.87	1701.86
233.09	1591.27
233.30	1585.13
233.52	1755.11
233.74	1660.90
233.96	1763.30
234.18	1679.33
234.40	1658.85
234.61	1865.70
234.83	1636.33
235.05	1652.71
235.27	1781.73
235.49	1763.30
235.70	1767.40
235.92	1818.60
236.14	1626.09
236.36	1880.04
236.58	1587.18
236.79	1697.77
237.01	1718.25
237.23	1671.14
237.45	1804.26
237.67	1656.81
237.88	1687.53
238.10	1746.92
238.32	1716.20
238.54	1636.33
238.76	1708.01
238.97	1720.29
239.19	1734.63
239.41	1687.53
239.63	1763.30
239.85	1650.66
240.06	1677.29
240.28	1718.25
240.50	1759.21
240.72	1656.81
240.93	1644.52
241.15	1804.26
241.37	1587.18
241.59	1781.73
241.81	1718.25
242.02	1771.49
242.24	1757.16
242.46	1699.81
242.68	1693.67
242.89	1724.39
243.11	1791.97
243.33	1742.82
243.55	1683.43
243.76	1732.58
243.98	1671.14
244.20	1691.62
244.42	1734.63
244.64	1689.57
244.85	1636.33
245.07	1609.70
245.29	1728.49
245.51	1714.15
245.72	1660.90
245.94	1763.30
246.16	1703.91
246.38	1787.88
246.59	1628.14
246.81	1685.48
247.03	1746.92
247.24	1570.79
247.46	1626.09
247.68	1712.10
247.90	1687.53
248.11	1693.67
248.33	1732.58
248.55	1626.09
248.77	1689.57
248.98	1714.15
249.20	1859.56
249.42	1736.68
249.64	1785.83
249.85	1716.20
250.07	1665.00
250.29	1748.97
250.50	1710.05
250.72	1611.75
250.94	1800.16
251.16	1794.02
251.37	1726.44
251.59	1697.77
251.81	1734.63
252.02	1767.40
252.24	1673.19
252.46	1791.97
252.68	1621.99
252.89	1587.18
253.11	1611.75
253.33	1814.50
253.54	1763.30
253.76	1642.47
253.98	1681.38
254.20	1673.19
254.41	1621.99
254.63	1718.25
254.85	1578.98
255.06	1701.86
255.28	1783.78
255.50	1728.49
255.71	1628.14
255.93	1593.32
256.15	1693.67
256.36	1712.10
256.58	1611.75
256.80	1683.43
257.02	1724.39
257.23	1681.38
257.45	1767.40
257.67	1736.68
257.88	1675.24
258.10	1771.49
258.32	1654.76
258.53	1652.71
258.75	1761.25
258.97	1638.38
259.18	1753.06
259.40	1697.77
259.62	1789.92
259.83	1830.88
260.05	1732.58
260.27	1953.76
260.48	1757.16
260.70	1632.23
260.92	1677.29
261.13	1716.20
261.35	1802.21
261.57	1734.63
261.78	1607.66
262.00	1685.48
262.22	1693.67
262.43	1642.47
262.65	1703.91
262.86	1779.68
263.08	1796.07
263.30	1691.62
263.51	1617.90
263.73	1732.58
263.95	1701.86
264.16	1697.77
264.38	1701.86
264.60	1720.29
264.81	1695.72
265.03	1818.60
265.25	1740.77
265.46	1665.00
265.68	1712.10
265.89	1761.25
266.11	1617.90
266.33	1755.11
266.54	1746.92
266.76	1710.05
266.98	1691.62
267.19	1718.25
267.41	1701.86
267.62	1658.85
267.84	1626.09
268.06	1705.96
268.27	1695.72
268.49	1738.73
268.70	1798.12
268.92	1771.49
269.14	1669.09
269.35	1595.37
269.57	1693.67
269.79	1691.62
270.00	1687.53
270.22	1820.64
270.43	1646.57
270.65	1593.32
270.87	1705.96
271.08	1716.20
271.30	1773.54
271.51	1683.43
271.73	1705.96
271.95	1783.78
272.16	1705.96
272.38	1710.05
272.59	1689.57
272.81	1763.30
273.02	1669.09
273.24	1705.96
273.46	1748.97
273.67	1658.85
273.89	1636.33
274.10	1701.86
274.32	1746.92
274.54	1738.73
274.75	1720.29
274.97	1724.39
275.18	1794.02
275.40	1665.00
275.61	1705.96
275.83	1740.77
276.05	1667.05
276.26	1642.47
276.48	1791.97
276.69	1603.56
276.91	1589.22
277.12	1783.78
277.34	1724.39
277.55	1746.92
277.77	1765.35
277.99	1689.57
278.20	1660.90
278.42	1607.66
278.63	1595.37
278.85	1705.96
279.06	1626.09
279.28	1738.73
279.49	1740.77
279.71	1806.31
279.93	1718.25
280.14	1636.33
280.36	1609.70
280.57	1671.14
280.79	1740.77
281.00	1556.46
281.22	1640.42
281.43	1765.35
281.65	1597.42
281.86	1671.14
282.08	1710.05
282.29	1810.40
282.51	1585.13
282.73	1667.05
282.94	1574.89
283.16	1718.25
283.37	1783.78
283.59	1724.39
283.80	1718.25
284.02	1677.29
284.23	1722.34
284.45	1714.15
284.66	1636.33
284.88	1636.33
285.09	1746.92
285.31	1695.72
285.52	1730.53
285.74	1683.43
285.95	1800.16
286.17	1714.15
286.38	1779.68
286.60	1630.18
286.81	1523.69
287.03	1703.91
287.24	1687.53
287.46	1699.81
287.67	1710.05
287.89	1826.79
288.10	1708.01
288.32	1634.28
288.53	1687.53
288.75	1644.52
288.96	1800.16
289.18	1632.23
289.39	1648.61
289.61	1779.68
289.82	1853.41
290.04	1726.44
290.25	1683.43
290.47	1652.71
290.68	1677.29
290.90	1695.72
291.11	1632.23
291.33	1773.54
291.54	1667.05
291.76	1646.57
291.97	1761.25
292.18	1652.71
292.40	1722.34
292.61	1718.25
292.83	1767.40
293.04	1769.44
293.26	1673.19
293.47	1718.25
293.69	1621.99
293.90	1724.39
294.12	1708.01
294.33	1628.14
294.55	1769.44
294.76	1718.25
294.97	1736.68
295.19	1847.27
295.40	1630.18
295.62	1730.53
295.83	1744.87
296.05	1609.70
296.26	1810.40
296.48	1681.38
296.69	1697.77
296.90	1697.77
297.12	1730.53
297.33	1837.03
297.55	1722.34
297.76	1738.73
297.98	1738.73
298.19	1699.81
298.41	1642.47
298.62	1656.81
298.83	1781.73
299.05	1667.05
299.26	1703.91
299.48	1617.90
299.69	1701.86
299.90	1619.94
300.12	1724.39
300.33	1730.53
300.55	1730.53
300.76	1753.06
300.98	1589.22
301.19	1714.15
301.40	1699.81
301.62	1665.00
301.83	1761.25
302.05	1771.49
302.26	1742.82
302.47	1757.16
302.69	1611.75
302.90	1687.53
303.12	1591.27
303.33	1769.44
303.54	1826.79
303.76	1699.81
303.97	1665.00
304.19	1851.36
304.40	1701.86
304.61	1720.29
304.83	1832.93
305.04	1767.40
305.26	1708.01
305.47	1646.57
305.68	1734.63
305.90	1632.23
306.11	1746.92
306.33	1632.23
306.54	1656.81
306.75	1689.57
306.97	1578.98
307.18	1679.33
307.39	1771.49
307.61	1787.88
307.82	1662.95
308.04	1804.26
308.25	1665.00
308.46	1681.38
308.68	1757.16
308.89	1730.53
309.10	1781.73
309.32	1718.25
309.53	1734.63
309.74	1775.59
309.96	1783.78
310.17	1751.01
310.39	1693.67
310.60	1732.58
310.81	1648.61
311.03	1716.20
311.24	1732.58
311.45	1642.47
311.67	1875.94
311.88	1665.00
312.09	1671.14
312.31	1660.90
312.52	1699.81
312.73	1728.49
312.95	1646.57
313.16	1677.29
313.37	1851.36
313.59	1763.30
313.80	1697.77
314.01	1804.26
314.23	1646.57
314.44	1660.90
314.65	1619.94
314.87	1689.57
315.08	1748.97
315.29	1656.81
315.51	1712.10
315.72	1630.18
315.93	1755.11
316.15	1796.07
316.36	1722.34
316.57	1652.71
316.79	1753.06
317.00	1667.05
317.21	1697.77
317.43	1701.86
317.64	1755.11
317.85	1642.47
318.07	1722.34
318.28	1714.15
318.49	1787.88
318.70	1927.14
318.92	1841.12
319.13	1804.26
319.34	1861.60
319.56	1785.83
319.77	1832.93
319.98	1806.31
320.20	1736.68
320.41	1689.57
320.62	1767.40
320.83	1714.15
321.05	1722.34
321.26	1691.62
321.47	1632.23
321.69	1757.16
321.90	1689.57
322.11	1603.56
322.32	1781.73
322.54	1771.49
322.75	1697.77
322.96	1804.26
323.18	1662.95
323.39	1599.46
323.60	1583.08
323.81	1710.05
324.03	1665.00
324.24	1740.77
324.45	1787.88
324.66	1681.38
324.88	1722.34
325.09	1800.16
325.30	1710.05
325.52	1714.15
325.73	1699.81
325.94	1646.57
326.15	1675.24
326.37	1628.14
326.58	1765.35
326.79	1679.33
327.00	1681.38
327.22	1720.29
327.43	1669.09
327.64	1634.28
327.85	1687.53
328.07	1703.91
328.28	1787.88
328.49	1658.85
328.70	1710.05
328.92	1697.77
329.13	1753.06
329.34	1771.49
329.55	1738.73
329.76	1695.72
329.98	1697.77
330.19	1714.15
330.40	1740.77
330.61	1730.53
330.83	1693.67
331.04	1642.47
331.25	1695.72
331.46	1632.23
331.68	1689.57
331.89	1791.97
332.10	1681.38
332.31	1691.62
332.52	1712.10
332.74	1714.15
332.95	1673.19
333.16	1638.38
333.37	1681.38
333.58	1697.77
333.80	1716.20
334.01	1607.66
334.22	1660.90
334.43	1609.70
334.64	1669.09
334.86	1626.09
335.07	1599.46
335.28	1806.31
335.49	1640.42
335.70	1722.34
335.92	1746.92
336.13	1855.46
336.34	1701.86
336.55	1732.58
336.76	1730.53
336.98	1626.09
337.19	1638.38
337.40	1839.08
337.61	1875.94
337.82	1755.11
338.04	1695.72
338.25	1609.70
338.46	1755.11
338.67	1685.48
338.88	1648.61
339.09	1619.94
339.31	1662.95
339.52	1658.85
339.73	1714.15
339.94	1720.29
340.15	1755.11
340.36	1656.81
340.58	1708.01
340.79	1705.96
341.00	1787.88
341.21	1640.42
341.42	1734.63
341.63	1656.81
341.85	1734.63
342.06	1740.77
342.27	1656.81
342.48	1703.91
342.69	1644.52
342.90	1757.16
343.12	1685.48
343.33	1714.15
343.54	1753.06
343.75	1708.01
343.96	1671.14
344.17	1665.00
344.38	1675.24
344.60	1654.76
344.81	1642.47
345.02	1705.96
345.23	1732.58
345.44	1779.68
345.65	1742.82
345.86	1767.40
346.07	1734.63
346.29	1593.32
346.50	1701.86
346.71	1667.05
346.92	1808.36
347.13	1865.70
347.34	1632.23
347.55	1675.24
347.76	1718.25
347.98	1583.08
348.19	1685.48
348.40	1771.49
348.61	1728.49
348.82	1892.32
349.03	1779.68
349.24	1605.61
349.45	1746.92
349.66	1669.09
349.88	1738.73
350.09	1648.61
350.30	1746.92
350.51	1822.69
350.72	1673.19
350.93	1755.11
351.14	1683.43
351.35	1732.58
351.56	1693.67
351.77	1751.01
351.99	1693.67
352.20	1769.44
352.41	1828.84
352.62	1624.04
352.83	1671.14
353.04	1718.25
353.25	1660.90
353.46	1681.38
353.67	1757.16
353.88	1656.81
354.09	1691.62
354.30	1773.54
354.52	1763.30
354.73	1710.05
354.94	1665.00
355.15	1712.10
355.36	1834.98
355.57	1685.48
355.78	1695.72
355.99	1701.86
356.20	1716.20
356.41	1718.25
356.62	1693.67
356.83	1734.63
357.04	1800.16
357.25	1599.46
357.46	1636.33
357.68	1601.51
357.89	1599.46
358.10	1685.48
358.31	1726.44
358.52	1736.68
358.73	1712.10
358.94	1650.66
359.15	1699.81
359.36	1716.20
359.57	1660.90
359.78	1656.81
359.99	1679.33
360.20	1652.71
360.41	1748.97
360.62	1794.02
360.83	1751.01
361.04	1708.01
361.25	1730.53
361.46	1751.01
361.67	1724.39
361.88	1796.07
362.09	1763.30
362.30	1751.01
362.51	1714.15
362.72	1648.61
362.93	1687.53
363.14	1720.29
363.35	1736.68
363.56	1724.39
363.78	1789.92
363.99	1716.20
364.20	1587.18
364.41	1724.39
364.62	1736.68
364.83	1718.25
365.04	1753.06
365.25	1689.57
365.46	1740.77
365.67	1669.09
365.88	1638.38
366.09	1720.29
366.30	1585.13
366.51	1697.77
366.72	1617.90
366.93	1703.91
367.14	1685.48
367.35	1722.34
367.56	1665.00
367.77	1783.78
367.98	1648.61
368.18	1705.96
368.39	1701.86
368.60	1628.14
368.81	1742.82
369.02	1771.49
369.23	1689.57
369.44	1607.66
369.65	1669.09
369.86	1708.01
370.07	1771.49
370.28	1628.14
370.49	1742.82
370.70	1726.44
370.91	1669.09
371.12	1628.14
371.33	1724.39
371.54	1675.24
371.75	1804.26
371.96	1581.03
372.17	1669.09
372.38	1804.26
372.59	1763.30
372.80	1662.95
373.01	1658.85
373.22	1705.96
373.43	1624.04
373.64	1708.01
373.85	1779.68
374.06	1755.11
374.26	1769.44
374.47	1697.77
374.68	1781.73
374.89	1615.85
375.10	1701.86
375.31	1701.86
375.52	1687.53
375.73	1656.81
375.94	1662.95
376.15	1853.41
376.36	1703.91
376.57	1621.99
376.78	1740.77
376.99	1683.43
377.20	1779.68
377.40	1730.53
377.61	1873.89
377.82	1568.74
378.03	1742.82
378.24	1732.58
378.45	1689.57
378.66	1728.49
378.87	1626.09
379.08	1576.94
379.29	1634.28
379.50	1689.57
379.71	1726.44
379.91	1777.64
380.12	1665.00
380.33	1693.67
380.54	1740.77
380.75	1726.44
380.96	1687.53
381.17	1675.24
381.38	1773.54
381.59	1726.44
381.80	1730.53
382.00	1843.17
382.21	1691.62
382.42	1867.75
382.63	1781.73
382.84	1634.28
383.05	1732.58
383.26	1755.11
383.47	1693.67
383.68	1691.62
383.88	1765.35
384.09	1744.87
384.30	1890.28
384.51	1744.87
384.72	1685.48
384.93	1593.32
385.14	1656.81
385.35	1732.58
385.55	1636.33
385.76	1755.11
385.97	1665.00
386.18	1673.19
386.39	1689.57
386.60	1753.06
386.81	1691.62
387.02	1675.24
387.22	1619.94
387.43	1830.88
387.64	1724.39
387.85	1902.56
388.06	2217.95
388.27	4241.34
388.48	6786.97
388.68	8112.00
388.89	9617.26
389.10	9713.52
389.31	8460.16
389.52	7604.11
389.73	6700.95
389.93	6188.96
390.14	5791.66
390.35	5134.26
390.56	4507.58
390.77	3727.30
390.98	3010.51
391.18	2500.57
391.39	2107.36
391.60	1855.46
391.81	1847.27
392.02	1738.73
392.23	1820.64
392.43	1814.50
392.64	1755.11
392.85	1574.89
393.06	1814.50
393.27	1755.11
393.47	1669.09
393.68	1716.20
393.89	1699.81
394.10	1673.19
394.31	1654.76
394.52	1658.85
394.72	1734.63
394.93	1720.29
395.14	1763.30
395.35	1730.53
395.56	1611.75
395.76	1785.83
395.97	1810.40
396.18	1753.06
396.39	1861.60
396.60	1984.48
396.80	1859.56
397.01	1869.80
397.22	1855.46
397.43	1869.80
397.64	1753.06
397.84	1791.97
398.05	1826.79
398.26	1755.11
398.47	1767.40
398.67	1685.48
398.88	1734.63
399.09	1789.92
399.30	1746.92
399.51	1746.92
399.71	1621.99
399.92	1718.25
400.13	1740.77
400.34	1671.14
400.54	1630.18
400.75	1742.82
400.96	1755.11
401.17	1826.79
401.37	1798.12
401.58	1689.57
401.79	1705.96
402.00	1873.89
402.21	1968.10
402.41	1982.43
402.62	2043.87
402.83	1976.29
403.04	2019.30
403.24	2025.44
403.45	1855.46
403.66	1877.99
403.87	1857.51
404.07	1837.03
404.28	1888.23
404.49	1789.92
404.70	1751.01
404.90	1712.10
405.11	1720.29
405.32	1697.77
405.52	1728.49
405.73	1650.66
405.94	1650.66
406.15	1693.67
406.35	1824.74
406.56	1798.12
406.77	1720.29
406.98	1730.53
407.18	1617.90
407.39	1789.92
407.60	1734.63
407.80	1761.25
408.01	1695.72
408.22	1785.83
408.43	1683.43
408.63	1769.44
408.84	1802.21
409.05	1800.16
409.25	1648.61
409.46	1634.28
409.67	1652.71
409.88	1703.91
410.08	1798.12
410.29	1673.19
410.50	1675.24
410.70	1765.35
410.91	1712.10
411.12	1722.34
411.32	1726.44
411.53	1638.38
411.74	1812.45
411.95	1800.16
412.15	1718.25
412.36	1773.54
412.57	1773.54
412.77	1748.97
412.98	1654.76
413.19	1730.53
413.39	1724.39
413.60	1777.64
413.81	1847.27
414.01	1675.24
414.22	1697.77
414.43	1740.77
414.63	1669.09
414.84	1746.92
415.05	1660.90
415.25	1593.32
415.46	1693.67
415.67	1642.47
415.87	1724.39
416.08	1753.06
416.29	1654.76
416.49	1740.77
416.70	1751.01
416.91	1597.42
417.11	1630.18
417.32	1746.92
417.53	1742.82
417.73	1693.67
417.94	1691.62
418.15	1691.62
418.35	1734.63
418.56	1617.90
418.77	1804.26
418.97	1652.71
419.18	1636.33
419.38	1583.08
419.59	1703.91
419.80	1777.64
420.00	1701.86
420.21	1712.10
420.42	1726.44
420.62	1699.81
420.83	1716.20
421.04	1703.91
421.24	1714.15
421.45	1705.96
421.65	1726.44
421.86	1734.63
422.07	1746.92
422.27	1716.20
422.48	1683.43
422.69	1703.91
422.89	1689.57
423.10	1710.05
423.30	1568.74
423.51	1757.16
423.72	1691.62
423.92	1681.38
424.13	1679.33
424.33	1703.91
424.54	1748.97
424.75	1708.01
424.95	1736.68
425.16	1718.25
425.36	1722.34
425.57	1761.25
425.78	1701.86
425.98	1834.98
426.19	1656.81
426.39	1697.77
426.60	1720.29
426.81	1726.44
427.01	1665.00
427.22	1726.44
427.42	1646.57
427.63	1636.33
427.83	1787.88
428.04	1777.64
428.25	1787.88
428.45	1800.16
428.66	1691.62
428.86	1708.01
429.07	1787.88
429.28	1710.05
429.48	1730.53
429.69	1660.90
429.89	1726.44
430.10	1652.71
430.30	1787.88
430.51	1781.73
430.71	1689.57
430.92	1693.67
431.13	1615.85
431.33	1730.53
431.54	1742.82
431.74	1785.83
431.95	1783.78
432.15	1646.57
432.36	1687.53
432.56	1718.25
432.77	1763.30
432.98	1765.35
433.18	1667.05
433.39	1697.77
433.59	1708.01
433.80	1853.41
434.00	1804.26
434.21	1693.67
434.41	1714.15
434.62	1853.41
434.82	1708.01
435.03	1650.66
435.23	1685.48
435.44	1718.25
435.64	1765.35
435.85	1708.01
436.06	1722.34
436.26	1763.30
436.47	1660.90
436.67	1699.81
436.88	1689.57
437.08	1699.81
437.29	1814.50
437.49	1642.47
437.70	1834.98
437.90	1621.99
438.11	1828.84
438.31	1742.82
438.52	1845.22
438.72	1861.60
438.93	1937.38
439.13	1808.36
439.34	1853.41
439.54	1732.58
439.75	1726.44
439.95	1761.25
440.16	1687.53
440.36	1765.35
440.57	1763.30
440.77	1751.01
440.98	1656.81
441.18	1740.77
441.39	1718.25
441.59	1626.09
441.80	1828.84
442.00	1740.77
442.21	1765.35
442.41	1636.33
442.62	1771.49
442.82	1687.53
443.02	1687.53
443.23	1763.30
443.43	1697.77
443.64	1849.32
443.84	1722.34
444.05	1730.53
444.25	1691.62
444.46	1703.91
444.66	1746.92
444.87	1832.93
445.07	1642.47
445.28	1673.19
445.48	1824.74
445.69	1718.25
445.89	1828.84
446.09	1755.11
446.30	1988.58
446.50	2609.11
446.71	3596.23
446.91	4405.18
447.12	4642.75
447.32	4722.62
447.53	4267.97
447.73	3811.27
447.93	3497.93
448.14	3315.66
448.34	3196.88
448.55	2893.78
448.75	2777.05
448.96	2711.51
449.16	2385.88
449.36	2213.85
449.57	2037.73
449.77	1943.52
449.98	1804.26
450.18	1779.68
450.39	1802.21
450.59	1789.92
450.79	1705.96
451.00	1703.91
451.20	1732.58
451.41	1722.34
451.61	1753.06
451.81	1791.97
452.02	1718.25
452.22	1744.87
452.43	1734.63
452.63	1689.57
452.84	1677.29
453.04	1751.01
453.24	1734.63
453.45	1665.00
453.65	1736.68
453.86	1742.82
454.06	1718.25
454.26	1757.16
454.47	1656.81
454.67	1853.41
454.87	1701.86
455.08	1705.96
455.28	1796.07
455.49	1693.67
455.69	1738.73
455.89	1869.80
456.10	1818.60
456.30	1738.73
456.51	1767.40
456.71	1767.40
456.91	1785.83
457.12	1720.29
457.32	1824.74
457.52	1730.53
457.73	1789.92
457.93	1720.29
458.14	1712.10
458.34	1591.27
458.54	1728.49
458.75	1705.96
458.95	1779.68
459.15	1677.29
459.36	1814.50
459.56	1763.30
459.76	1726.44
459.97	1681.38
460.17	1796.07
460.37	1810.40
460.58	1777.64
460.78	1787.88
460.99	1736.68
461.19	1757.16
461.39	1648.61
461.60	1691.62
461.80	1839.08
462.00	1683.43
462.21	1839.08
462.41	1736.68
462.61	1699.81
462.82	1609.70
463.02	1740.77
463.22	1775.59
463.43	1828.84
463.63	1710.05
463.83	1703.91
464.04	1701.86
464.24	1722.34
464.44	1595.37
464.64	1669.09
464.85	1697.77
465.05	1740.77
465.25	1726.44
465.46	1683.43
465.66	1765.35
465.86	1748.97
466.07	1712.10
466.27	1697.77
466.47	1705.96
466.68	1714.15
466.88	1812.45
467.08	1771.49
467.29	1804.26
467.49	1718.25
467.69	1740.77
467.89	1755.11
468.10	1675.24
468.30	1785.83
468.50	1771.49
468.71	1789.92
468.91	1644.52
469.11	1832.93
469.31	1677.29
469.52	1679.33
469.72	1791.97
469.92	1869.80
470.13	1744.87
470.33	1740.77
470.53	1812.45
470.73	2082.78
470.94	2271.20
471.14	2293.72
471.34	2465.75
471.54	2359.26
471.75	2211.81
471.95	2103.26
472.15	2033.63
472.36	2179.04
472.56	2082.78
472.76	2013.15
472.96	1959.91
473.17	1931.23
473.37	1953.76
473.57	1841.12
473.77	1808.36
473.98	1783.78
474.18	1662.95
474.38	1947.62
474.58	1652.71
474.79	1767.40
474.99	1673.19
475.19	1824.74
475.39	1671.14
475.60	1656.81
475.80	1714.15
476.00	1738.73
476.20	1710.05
476.41	1665.00
476.61	1841.12
476.81	1757.16
477.01	1656.81
477.21	1880.04
477.42	1761.25
477.62	1681.38
477.82	1777.64
478.02	1642.47
478.23	1691.62
478.43	1742.82
478.63	1681.38
478.83	1665.00
479.03	1722.34
479.24	1789.92
479.44	1851.36
479.64	1591.27
479.84	1656.81
480.04	1619.94
480.25	1785.83
480.45	1669.09
480.65	1718.25
480.85	1843.17
481.06	1669.09
481.26	1687.53
481.46	1734.63
481.66	1720.29
481.86	1673.19
482.06	1824.74
482.27	1636.33
482.47	1695.72
482.67	1742.82
482.87	1619.94
483.07	1665.00
483.28	1585.13
483.48	1656.81
483.68	1648.61
483.88	1599.46
484.08	1656.81
484.29	1621.99
484.49	1771.49
484.69	1648.61
484.89	1728.49
485.09	1685.48
485.29	1675.24
485.50	1755.11
485.70	1671.14
485.90	1830.88
486.10	1773.54
486.30	1744.87
486.50	1677.29
486.71	1775.59
486.91	1818.60
487.11	1765.35
487.31	1648.61
487.51	1626.09
487.71	1640.42
487.91	1652.71
488.12	1665.00
488.32	1595.37
488.52	1701.86
488.72	1626.09
488.92	1689.57
489.12	1738.73
489.32	1789.92
489.53	1755.11
489.73	1710.05
489.93	1802.21
490.13	1673.19
490.33	1687.53
490.53	1734.63
490.73	1791.97
490.94	1677.29
491.14	1794.02
491.34	1830.88
491.54	2062.30
491.74	2609.11
491.94	2918.36
492.14	3026.90
492.34	2969.55
492.54	2707.41
492.75	2525.15
492.95	2484.19
493.15	2332.64
493.35	2324.44
493.55	2265.05
493.75	2095.07
493.95	2189.28
494.15	2099.17
494.35	1945.57
494.56	1837.03
494.76	1710.05
494.96	1851.36
495.16	1810.40
495.36	1746.92
495.56	1785.83
495.76	1714.15
495.96	1724.39
496.16	1648.61
496.36	1785.83
496.56	1720.29
496.77	1773.54
496.97	1757.16
497.17	1730.53
497.37	1656.81
497.57	1746.92
497.77	1689.57
497.97	1675.24
498.17	1699.81
498.37	1740.77
498.57	1824.74
498.77	1648.61
498.97	1703.91
499.17	1742.82
499.38	1665.00
499.58	1779.68
499.78	1744.87
499.98	1771.49
500.18	1742.82
500.38	1730.53
500.58	1937.38
500.78	2521.05
500.98	4501.44
501.18	5740.46
501.38	6758.30
501.58	7090.07
501.78	6690.71
501.98	5574.57
502.18	4925.36
502.38	4396.99
502.58	4071.36
502.78	3694.54
502.98	3723.21
503.18	3483.59
503.38	3135.44
503.59	2736.09
503.79	2594.78
503.99	2463.71
504.19	2248.67
504.39	2123.74
504.59	2179.04
504.79	2007.01
504.99	1951.71
505.19	1966.05
505.39	1947.62
505.59	1982.43
505.79	1875.94
505.99	1859.56
506.19	1771.49
506.39	1902.56
506.59	1806.31
506.79	1703.91
506.99	1812.45
507.19	1806.31
507.39	1779.68
507.59	1652.71
507.79	1699.81
507.99	1675.24
508.19	1740.77
508.39	1734.63
508.59	1738.73
508.79	1820.64
508.99	1806.31
509.19	1705.96
509.39	1748.97
509.59	1677.29
509.79	1613.80
509.99	1742.82
510.19	1732.58
510.39	1757.16
510.59	1771.49
510.79	1640.42
510.99	1669.09
511.19	1722.34
511.39	1816.55
511.59	1796.07
511.79	1826.79
511.99	1726.44
512.19	1781.73
512.38	1712.10
512.58	1648.61
512.78	1775.59
512.98	1802.21
513.18	1882.08
513.38	1693.67
513.58	1826.79
513.78	1677.29
513.98	1710.05
514.18	1724.39
514.38	1705.96
514.58	1816.55
514.78	1710.05
514.98	1683.43
515.18	1781.73
515.38	1687.53
515.58	1781.73
515.78	1708.01
515.98	1722.34
516.18	1769.44
516.38	1689.57
516.57	1693.67
516.77	1687.53
516.97	1781.73
517.17	1685.48
517.37	1660.90
517.57	1757.16
517.77	1779.68
517.97	1740.77
518.17	1771.49
518.37	1648.61
518.57	1708.01
518.77	1730.53
518.97	1753.06
519.16	1763.30
519.36	1847.27
519.56	1722.34
519.76	1642.47
519.96	1697.77
520.16	1765.35
520.36	1654.76
520.56	1763.30
520.76	1697.77
520.96	1693.67
521.16	1806.31
521.35	1789.92
521.55	1884.13
521.75	1751.01
521.95	1617.90
522.15	1695.72
522.35	1619.94
522.55	1728.49
522.75	1697.77
522.95	1718.25
523.14	1732.58
523.34	1769.44
523.54	1746.92
523.74	1726.44
523.94	1714.15
524.14	1689.57
524.34	1785.83
524.54	1816.55
524.73	1681.38
524.93	1798.12
525.13	1718.25
525.33	1681.38
525.53	1814.50
525.73	1728.49
525.93	1691.62
526.13	1533.93
526.32	1695.72
526.52	1767.40
526.72	1789.92
526.92	1724.39
527.12	1740.77
527.32	1652.71
527.52	1751.01
527.71	1791.97
527.91	1718.25
528.11	1648.61
528.31	1757.16
528.51	1681.38
528.71	1804.26
528.90	1771.49
529.10	1832.93
529.30	1806.31
529.50	1589.22
529.70	1722.34
529.90	1798.12
530.09	1718.25
530.29	1665.00
530.49	1699.81
530.69	1861.60
530.89	1755.11
531.09	1810.40
531.28	1689.57
531.48	1740.77
531.68	1695.72
531.88	1716.20
532.08	1814.50
532.28	1642.47
532.47	1716.20
532.67	1783.78
532.87	1720.29
533.07	1677.29
533.27	1761.25
533.46	1769.44
533.66	1761.25
533.86	1720.29
534.06	1712.10
534.26	1765.35
534.45	1619.94
534.65	1791.97
534.85	1730.53
535.05	1677.29
535.25	1746.92
535.44	1650.66
535.64	1742.82
535.84	1701.86
536.04	1724.39
536.24	1714.15
536.43	1705.96
536.63	1814.50
536.83	1748.97
537.03	1714.15
537.22	1636.33
537.42	1648.61
537.62	1687.53
537.82	1697.77
538.02	1820.64
538.21	1775.59
538.41	1877.99
538.61	1816.55
538.81	1697.77
539.00	1775.59
539.20	1636.33
539.40	1712.10
539.60	1685.48
539.79	1777.64
539.99	1710.05
540.19	1744.87
540.39	1685.48
540.58	1722.34
540.78	1732.58
540.98	1802.21
541.18	1759.21
541.37	1781.73
541.57	1705.96
541.77	1732.58
541.97	1738.73
542.16	1669.09
542.36	1710.05
542.56	1753.06
542.76	1794.02
542.95	1806.31
543.15	1783.78
543.35	1712.10
543.54	1718.25
543.74	1740.77
543.94	1845.22
544.14	1722.34
544.33	1781.73
544.53	1724.39
544.73	1738.73
544.93	1660.90
545.12	1691.62
545.32	1734.63
545.52	1642.47
545.71	1697.77
545.91	1662.95
546.11	1730.53
546.30	1615.85
546.50	1755.11
546.70	1775.59
546.90	1658.85
547.09	1583.08
547.29	1722.34
547.49	1843.17
547.68	1636.33
547.88	1667.05
548.08	1722.34
548.27	2131.94
548.47	1603.56
548.67	1687.53
548.87	1777.64
549.06	1710.05
549.26	1687.53
549.46	1834.98
549.65	1673.19
549.85	1757.16
550.05	1781.73
550.24	1705.96
550.44	1718.25
550.64	1742.82
550.83	1828.84
551.03	1832.93
551.23	1771.49
551.42	1781.73
551.62	1714.15
551.82	1791.97
552.01	1710.05
552.21	1791.97
552.41	1824.74
552.60	1812.45
552.80	1681.38
553.00	1650.66
553.19	1724.39
553.39	1791.97
553.59	1730.53
553.78	1767.40
553.98	1751.01
554.17	1605.61
554.37	1804.26
554.57	1755.11
554.76	1648.61
554.96	1748.97
555.16	1718.25
555.35	1816.55
555.55	1757.16
555.75	1787.88
555.94	1732.58
556.14	1689.57
556.33	1755.11
556.53	1796.07
556.73	1724.39
556.92	1863.65
557.12	1894.37
557.32	1851.36
557.51	1763.30
557.71	1781.73
557.90	1810.40
558.10	1781.73
558.30	1767.40
558.49	1634.28
558.69	1718.25
558.88	1726.44
559.08	1767.40
559.28	1755.11
559.47	1753.06
559.67	1810.40
559.86	1871.84
560.06	1726.44
560.26	1753.06
560.45	1777.64
560.65	1740.77
560.84	1869.80
561.04	1763.30
561.24	1785.83
561.43	1650.66
561.63	1902.56
561.82	1748.97
562.02	1804.26
562.22	1658.85
562.41	1689.57
562.61	1681.38
562.80	1675.24
563.00	1865.70
563.19	1730.53
563.39	1785.83
563.59	1769.44
563.78	1656.81
563.98	1609.70
564.17	1724.39
564.37	1648.61
564.56	1703.91
564.76	1658.85
564.96	1873.89
565.15	1656.81
565.35	1894.37
565.54	1685.48
565.74	1800.16
565.93	1802.21
566.13	1773.54
566.32	1818.60
566.52	1828.84
566.71	1763.30
566.91	1804.26
567.11	1617.90
567.30	1677.29
567.50	1832.93
567.69	1722.34
567.89	1689.57
568.08	1671.14
568.28	1810.40
568.47	1746.92
568.67	1767.40
568.86	1740.77
569.06	1748.97
569.25	1726.44
569.45	1685.48
569.64	1794.02
569.84	1675.24
570.04	1712.10
570.23	1724.39
570.43	1621.99
570.62	1767.40
570.82	1802.21
571.01	1628.14
571.21	1679.33
571.40	1665.00
571.60	1841.12
571.79	1804.26
571.99	1755.11
572.18	1753.06
572.38	1804.26
572.57	1708.01
572.77	1791.97
572.96	1964.00
573.16	1763.30
573.35	1685.48
573.55	1861.60
573.74	1773.54
573.94	1685.48
574.13	1712.10
574.33	1761.25
574.52	1816.55
574.71	1755.11
574.91	1767.40
575.10	1757.16
575.30	1769.44
575.49	1757.16
575.69	1718.25
575.88	1771.49
576.08	1679.33
576.27	1822.69
576.47	1699.81
576.66	1781.73
576.86	1759.21
577.05	1677.29
577.25	1826.79
577.44	1964.00
577.64	1734.63
577.83	1830.88
578.02	1738.73
578.22	1812.45
578.41	1857.51
578.61	1736.68
578.80	1648.61
579.00	1800.16
579.19	1816.55
579.39	1804.26
579.58	1830.88
579.77	1691.62
579.97	1753.06
580.16	1806.31
580.36	1859.56
580.55	1884.13
580.75	1724.39
580.94	1681.38
581.13	1861.60
581.33	1765.35
581.52	1746.92
581.72	1877.99
581.91	1800.16
582.11	1681.38
582.30	1787.88
582.49	1810.40
582.69	1804.26
582.88	1828.84
583.08	1738.73
583.27	1832.93
583.47	1800.16
583.66	1679.33
583.85	1730.53
584.05	1742.82
584.24	1761.25
584.44	1683.43
584.63	1755.11
584.82	1816.55
585.02	1826.79
585.21	1824.74
585.41	1849.32
585.60	1798.12
585.79	1898.47
585.99	1902.56
586.18	1826.79
586.37	2209.76
586.57	3377.10
586.76	9881.45
586.96	24428.17
587.15	34387.44
587.34	40560.02
587.54	41987.46
587.73	36691.41
587.93	26222.19
588.12	21599.93
588.31	18650.85
588.51	16344.84
588.70	15161.11
588.89	14206.76
589.09	12615.49
589.28	10946.39
589.47	9414.51
589.67	7989.13
589.86	6344.61
590.06	4782.01
590.25	3786.69
590.44	3196.88
590.64	2570.20
590.83	2209.76
591.02	2043.87
591.22	1986.53
591.41	1898.47
591.60	1880.04
591.80	1900.52
591.99	1695.72
592.18	1794.02
592.38	1771.49
592.57	1796.07
592.76	1718.25
592.96	1789.92
593.15	1708.01
593.34	1767.40
593.54	1732.58
593.73	1771.49
593.92	1748.97
594.12	1691.62
594.31	1617.90
594.50	1787.88
594.70	1834.98
594.89	1849.32
595.08	1658.85
595.28	1763.30
595.47	1935.33
595.66	1724.39
595.86	1699.81
596.05	1689.57
596.24	1767.40
596.43	1794.02
596.63	1812.45
596.82	1734.63
597.01	1765.35
597.21	1890.28
597.40	1703.91
597.59	1697.77
597.79	1767.40
597.98	1779.68
598.17	1751.01
598.36	1722.34
598.56	1773.54
598.75	1736.68
598.94	1755.11
599.14	1763.30
599.33	1775.59
599.52	1759.21
599.71	1806.31
599.91	1791.97
600.10	1791.97
600.29	1738.73
600.48	1808.36
600.68	1716.20
600.87	1806.31
601.06	1722.34
601.26	1755.11
601.45	1732.58
601.64	1789.92
601.83	1775.59
602.03	1730.53
602.22	1599.46
602.41	1794.02
602.60	1843.17
602.80	1759.21
602.99	1787.88
603.18	1677.29
603.37	1773.54
603.57	1736.68
603.76	1779.68
603.95	1796.07
604.14	1714.15
604.34	1689.57
604.53	1689.57
604.72	1726.44
604.91	1695.72
605.10	1810.40
605.30	1712.10
605.49	1857.51
605.68	1824.74
605.87	1703.91
606.07	1652.71
606.26	1767.40
606.45	1730.53
606.64	1751.01
606.84	1763.30
607.03	1742.82
607.22	1781.73
607.41	1583.08
607.60	1705.96
607.80	1779.68
607.99	1640.42
608.18	1771.49
608.37	1785.83
608.56	1757.16
608.76	1761.25
608.95	1851.36
609.14	1744.87
609.33	1726.44
609.52	1710.05
609.72	1701.86
609.91	1722.34
610.10	1769.44
610.29	1859.56
610.48	1748.97
610.68	1720.29
610.87	1732.58
611.06	1773.54
611.25	1736.68
611.44	1785.83
611.63	1699.81
611.83	1851.36
612.02	1597.42
612.21	1789.92
612.40	1583.08
612.59	1699.81
612.79	1673.19
612.98	1736.68
613.17	1841.12
613.36	1730.53
613.55	1828.84
613.74	1656.81
613.93	1691.62
614.13	1746.92
614.32	1738.73
614.51	1757.16
614.70	1697.77
614.89	1708.01
615.08	1656.81
615.28	2033.63
615.47	1699.81
615.66	1685.48
615.85	1763.30
616.04	1796.07
616.23	1820.64
616.42	1669.09
616.62	1777.64
616.81	1781.73
617.00	1638.38
617.19	1703.91
617.38	1734.63
617.57	1740.77
617.76	1800.16
617.95	1769.44
618.15	1753.06
618.34	1822.69
618.53	1712.10
618.72	1734.63
618.91	1787.88
619.10	1841.12
619.29	1738.73
619.48	1738.73
619.68	1742.82
619.87	1728.49
620.06	1691.62
620.25	1814.50
620.44	1656.81
620.63	1722.34
620.82	1671.14
621.01	1714.15
621.20	1667.05
621.39	1773.54
621.59	1765.35
621.78	1724.39
621.97	1658.85
622.16	1722.34
622.35	1691.62
622.54	1751.01
622.73	1789.92
622.92	1599.46
623.11	1720.29
623.30	1732.58
623.49	1806.31
623.68	1636.33
623.88	1763.30
624.07	1667.05
624.26	1644.52
624.45	1763.30
624.64	1687.53
624.83	1763.30
625.02	1701.86
625.21	1808.36
625.40	1769.44
625.59	1826.79
625.78	1728.49
625.97	1794.02
626.16	1767.40
626.35	1703.91
626.54	1714.15
626.74	1796.07
626.93	1724.39
627.12	1662.95
627.31	1718.25
627.50	1724.39
627.69	1720.29
627.88	1673.19
628.07	1662.95
628.26	1550.31
628.45	1730.53
628.64	1679.33
628.83	1802.21
629.02	1642.47
629.21	1755.11
629.40	1732.58
629.59	1656.81
629.78	1746.92
629.97	1656.81
630.16	1708.01
630.35	1705.96
630.54	1763.30
630.73	1708.01
630.92	1716.20
631.11	1640.42
631.30	1755.11
631.49	1759.21
631.68	1701.86
631.87	1744.87
632.06	1650.66
632.25	1794.02
632.44	1724.39
632.63	1738.73
632.82	1685.48
633.01	1656.81
633.20	1734.63
633.39	1718.25
633.58	1642.47
633.77	1712.10
633.96	1695.72
634.15	1738.73
634.34	1730.53
634.53	1777.64
634.72	1701.86
634.91	1644.52
635.10	1746.92
635.29	1771.49
635.48	1789.92
635.67	1683.43
635.86	1687.53
636.05	1728.49
636.24	1679.33
636.43	1714.15
636.62	1757.16
636.81	1646.57
637.00	1742.82
637.19	1708.01
637.38	1693.67
637.57	1665.00
637.76	1718.25
637.95	1728.49
638.14	1636.33
638.33	1724.39
638.52	1679.33
638.71	1669.09
638.89	1601.51
639.08	1925.09
639.27	1738.73
639.46	1691.62
639.65	1777.64
639.84	1738.73
640.03	1763.30
640.22	1710.05
640.41	1855.46
640.60	1632.23
640.79	1697.77
640.98	1640.42
641.17	1705.96
641.36	1726.44
641.55	1722.34
641.74	1677.29
641.92	1628.14
642.11	1665.00
642.30	1714.15
642.49	1662.95
642.68	1658.85
642.87	1677.29
643.06	1751.01
643.25	1716.20
643.44	1677.29
643.63	1710.05
643.82	1703.91
644.00	1648.61
644.19	1732.58
644.38	1646.57
644.57	1695.72
644.76	1738.73
644.95	1652.71
645.14	1779.68
645.33	1742.82
645.52	1679.33
645.71	1687.53
645.89	1648.61
646.08	1656.81
646.27	1753.06
646.46	1802.21
646.65	1570.79
646.84	1779.68
647.03	1669.09
647.22	1779.68
647.40	1732.58
647.59	1687.53
647.78	1644.52
647.97	1738.73
648.16	1667.05
648.35	1787.88
648.54	1695.72
648.73	1771.49
648.91	1794.02
649.10	1699.81
649.29	1695.72
649.48	1595.37
649.67	1695.72
649.86	1728.49
650.05	1748.97
650.23	1705.96
650.42	1695.72
650.61	1748.97
650.80	1744.87
650.99	1929.19
651.18	1773.54
651.36	1708.01
651.55	1681.38
651.74	1716.20
651.93	1658.85
652.12	1714.15
652.31	1775.59
652.49	1722.34
652.68	1640.42
652.87	1757.16
653.06	1734.63
653.25	1830.88
653.44	1687.53
653.62	1798.12
653.81	1669.09
654.00	1710.05
654.19	1777.64
654.38	1820.64
654.56	1681.38
654.75	1689.57
654.94	1744.87
655.13	1781.73
655.32	1722.34
655.51	1775.59
655.69	1708.01
655.88	1683.43
656.07	1621.99
656.26	1724.39
656.45	1710.05
656.63	1753.06
656.82	1794.02
657.01	1712.10
657.20	1718.25
657.38	1763.30
657.57	1736.68
657.76	1613.80
657.95	1785.83
658.14	1654.76
658.32	1769.44
658.51	1574.89
658.70	1669.09
658.89	1722.34
659.08	1720.29
659.26	1812.45
659.45	1697.77
659.64	1789.92
659.83	1679.33
660.01	1894.37
660.20	1648.61
660.39	1775.59
660.58	1609.70
660.76	1726.44
660.95	1638.38
661.14	1769.44
661.33	1609.70
661.51	1730.53
661.70	1716.20
661.89	1755.11
662.08	1665.00
662.26	1660.90
662.45	1677.29
662.64	1839.08
662.83	1748.97
663.01	1632.23
663.20	1662.95
663.39	1771.49
663.58	1765.35
663.76	1734.63
663.95	1779.68
664.14	1689.57
664.32	1691.62
664.51	1626.09
664.70	1595.37
664.89	1763.30
665.07	1636.33
665.26	1746.92
665.45	1705.96
665.64	1734.63
665.82	1640.42
666.01	1761.25
666.20	1626.09
666.38	1779.68
666.57	1724.39
666.76	2205.66
666.95	4493.24
667.13	10430.30
667.32	15329.05
667.51	17800.94
667.69	19187.42
667.88	17590.00
668.07	12357.44
668.25	9478.00
668.44	8038.28
668.63	7096.21
668.81	6746.01
669.00	6203.30
669.19	5599.15
669.38	5175.22
669.56	4550.59
669.75	4028.35
669.94	3379.15
670.12	2885.59
670.31	2531.29
670.50	2260.96
670.68	2115.55
670.87	1794.02
671.06	1834.98
671.24	1796.07
671.43	1802.21
671.62	1708.01
671.80	1708.01
671.99	1806.31
672.18	1746.92
672.36	1779.68
672.55	1710.05
672.74	1693.67
672.92	1767.40
673.11	1757.16
673.29	1660.90
673.48	1710.05
673.67	1656.81
673.85	1773.54
674.04	1691.62
674.23	1652.71
674.41	1802.21
674.60	1671.14
674.79	1607.66
674.97	1673.19
675.16	1736.68
675.34	1806.31
675.53	1640.42
675.72	1812.45
675.90	1767.40
676.09	1667.05
676.28	1660.90
676.46	1697.77
676.65	1714.15
676.83	1763.30
677.02	1667.05
677.21	1714.15
677.39	1667.05
677.58	1693.67
677.77	1714.15
677.95	1667.05
678.14	1705.96
678.32	1734.63
678.51	1617.90
678.70	1830.88
678.88	1765.35
679.07	1675.24
679.25	1728.49
679.44	1720.29
679.63	1701.86
679.81	1652.71
680.00	1748.97
680.18	1716.20
680.37	1867.75
680.55	1697.77
680.74	1660.90
680.93	1593.32
681.11	1769.44
681.30	1665.00
681.48	1708.01
681.67	1718.25
681.85	1689.57
682.04	1689.57
682.23	1718.25
682.41	1763.30
682.60	1767.40
682.78	1724.39
682.97	1595.37
683.15	1671.14
683.34	1656.81
683.53	1791.97
683.71	1669.09
683.90	1777.64
684.08	1738.73
684.27	1697.77
684.45	1642.47
684.64	1818.60
684.82	1632.23
685.01	1763.30
685.19	1746.92
685.38	1773.54
685.57	1710.05
685.75	1673.19
685.94	1634.28
686.12	1634.28
686.31	1716.20
686.49	1806.31
686.68	1656.81
686.86	1689.57
687.05	1693.67
687.23	1703.91
687.42	1753.06
687.60	1636.33
687.79	1740.77
687.97	1812.45
688.16	1740.77
688.34	1753.06
688.53	1591.27
688.71	1730.53
688.90	1744.87
689.08	1685.48
689.27	1642.47
689.45	1748.97
689.64	1802.21
689.82	1679.33
690.01	1726.44
690.19	1753.06
690.38	1771.49
690.56	1734.63
690.75	1705.96
690.93	1689.57
691.12	1740.77
691.30	1714.15
691.49	1638.38
691.67	1732.58
691.86	1851.36
692.04	1675.24
692.23	1648.61
692.41	1669.09
692.60	1828.84
692.78	1796.07
692.97	1671.14
693.15	1751.01
693.34	1802.21
693.52	1779.68
693.71	1671.14
693.89	1683.43
694.08	1591.27
694.26	1708.01
694.44	1802.21
694.63	1734.63
694.81	1607.66
695.00	1656.81
695.18	1742.82
695.37	1898.47
695.55	1748.97
695.74	1658.85
695.92	1632.23
696.10	1787.88
696.29	1570.79
696.47	1669.09
696.66	1603.56
696.84	1673.19
697.03	1609.70
697.21	1910.75
697.40	2346.97
697.58	1712.10
697.76	1736.68
697.95	1695.72
698.13	1593.32
698.32	1738.73
698.50	1705.96
698.68	1757.16
698.87	1779.68
699.05	1832.93
699.24	1705.96
699.42	1615.85
699.61	1779.68
699.79	1665.00
699.97	1691.62
700.16	1648.61
700.34	1638.38
700.53	1673.19
700.71	1732.58
700.89	1775.59
701.08	1679.33
701.26	1716.20
701.45	2129.89
701.63	1665.00
701.81	1738.73
702.00	1732.58
702.18	1732.58
702.37	1628.14
702.55	1755.11
702.73	1765.35
702.92	1599.46
703.10	1740.77
703.28	1742.82
703.47	1615.85
703.65	1771.49
703.84	1771.49
704.02	1621.99
704.20	1763.30
704.39	1689.57
704.57	1701.86
704.75	1806.31
704.94	1718.25
705.12	1712.10
705.30	1841.12
705.49	2238.43
705.67	4456.38
705.86	9326.45
706.04	12666.69
706.22	14516.00
706.41	15494.93
706.59	13868.84
706.77	9473.90
706.96	7563.15
707.14	6502.30
707.32	5988.26
707.51	5552.04
707.69	5017.52
707.87	4214.72
708.06	3520.46
708.24	3002.32
708.42	2410.46
708.61	2226.14
708.79	1890.28
708.97	1912.80
709.16	1869.80
709.34	1765.35
709.52	1718.25
709.71	1705.96
709.89	1761.25
710.07	1710.05
710.26	1699.81
710.44	1693.67
710.62	1712.10
710.80	1699.81
710.99	1693.67
711.17	1759.21
711.35	1689.57
711.54	1626.09
711.72	1718.25
711.90	1724.39
712.09	1718.25
712.27	1648.61
712.45	1777.64
712.63	1685.48
712.82	1712.10
713.00	1779.68
713.18	1761.25
713.37	1787.88
713.55	1734.63
713.73	1654.76
713.91	1738.73
714.10	1675.24
714.28	1681.38
714.46	1718.25
714.65	1724.39
714.83	1675.24
715.01	1615.85
715.19	1779.68
715.38	1710.05
715.56	1755.11
715.74	1701.86
715.92	1640.42
716.11	1779.68
716.29	1679.33
716.47	1699.81
716.65	1720.29
716.84	1640.42
717.02	1710.05
717.20	1566.70
717.38	1636.33
717.57	1687.53
717.75	1746.92
717.93	1689.57
718.11	1822.69
718.30	1712.10
718.48	1712.10
718.66	1773.54
718.84	1730.53
719.03	1615.85
719.21	1607.66
719.39	1800.16
719.57	1773.54
719.75	1820.64
719.94	1755.11
720.12	1597.42
720.30	1714.15
720.48	1753.06
720.67	1701.86
720.85	1648.61
721.03	1667.05
721.21	1570.79
721.39	1763.30
721.58	1734.63
721.76	1646.57
721.94	1671.14
722.12	1751.01
722.30	1794.02
722.49	1642.47
722.67	1722.34
722.85	1636.33
723.03	1615.85
723.21	1714.15
723.40	1716.20
723.58	1736.68
723.76	1667.05
723.94	1730.53
724.12	1683.43
724.30	1794.02
724.49	1769.44
724.67	1648.61
724.85	1791.97
725.03	1638.38
725.21	1708.01
725.40	1796.07
725.58	1656.81
725.76	1744.87
725.94	1710.05
726.12	1658.85
726.30	1691.62
726.49	1722.34
726.67	1652.71
726.85	1763.30
727.03	1781.73
727.21	2140.13
727.39	2910.16
727.57	3698.63
727.76	4210.62
727.94	4356.03
728.12	4446.14
728.30	3680.20
728.48	3033.04
728.66	2680.79
728.84	2553.82
729.03	2263.01
729.21	2148.32
729.39	1902.56
729.57	1875.94
729.75	1818.60
729.93	1890.28
730.11	1771.49
730.30	1746.92
730.48	1648.61
730.66	1767.40
730.84	1744.87
731.02	1681.38
731.20	1695.72
731.38	1644.52
731.56	1607.66
731.74	1693.67
731.93	1714.15
732.11	1638.38
732.29	1675.24
732.47	1726.44
732.65	1695.72
732.83	1812.45
733.01	1722.34
733.19	1691.62
733.37	1740.77
733.56	1746.92
733.74	1644.52
733.92	1775.59
734.10	1685.48
734.28	1783.78
734.46	1642.47
734.64	1703.91
734.82	1691.62
735.00	1632.23
735.18	1656.81
735.36	1740.77
735.54	1642.47
735.73	1617.90
735.91	1714.15
736.09	1714.15
736.27	1759.21
736.45	1746.92
736.63	1591.27
736.81	1683.43
736.99	1738.73
737.17	1771.49
737.35	1671.14
737.53	1759.21
737.71	1695.72
737.89	1804.26
738.07	1687.53
738.25	1638.38
738.43	1652.71
738.61	1679.33
738.80	1642.47
738.98	1681.38
739.16	1669.09
739.34	1583.08
739.52	1785.83
739.70	1662.95
739.88	1744.87
740.06	1808.36
740.24	1544.17
740.42	1710.05
740.60	1597.42
740.78	1699.81
740.96	1615.85
741.14	1708.01
741.32	1619.94
741.50	1705.96
741.68	1853.41
741.86	1789.92
742.04	1624.04
742.22	1640.42
742.40	1687.53
742.58	1734.63
742.76	1621.99
742.94	1789.92
743.12	1626.09
743.30	1722.34
743.48	1665.00
743.66	1626.09
743.84	1804.26
744.02	1644.52
744.20	1648.61
744.38	1640.42
744.56	1646.57
744.74	1791.97
744.92	1730.53
745.10	1763.30
745.28	1798.12
745.46	1898.47
745.64	1624.04
745.82	1689.57
746.00	1757.16
746.18	1746.92
746.36	1662.95
746.54	1708.01
746.72	1689.57
746.90	1611.75
747.08	1722.34
747.26	1660.90
747.44	1689.57
747.62	1673.19
747.80	1685.48
747.98	1710.05
748.15	1665.00
748.33	1775.59
748.51	1642.47
748.69	1640.42
748.87	1662.95
749.05	1710.05
749.23	1656.81
749.41	1755.11
749.59	1665.00
749.77	1746.92
749.95	1652.71
750.13	1644.52
750.31	1708.01
750.49	1705.96
750.67	1773.54
750.85	1779.68
751.03	1791.97
751.20	1808.36
751.38	1705.96
751.56	1738.73
751.74	1714.15
751.92	1769.44
752.10	1679.33
752.28	1699.81
752.46	1636.33
752.64	1738.73
752.82	1640.42
753.00	1716.20
753.18	1632.23
753.35	1660.90
753.53	1669.09
753.71	1673.19
753.89	1730.53
754.07	1648.61
754.25	1705.96
754.43	1736.68
754.61	1609.70
754.79	1726.44
754.97	1665.00
755.14	1841.12
755.32	1628.14
755.50	1730.53
755.68	1652.71
755.86	1650.66
756.04	1656.81
756.22	1560.55
756.40	1701.86
756.57	1785.83
756.75	1683.43
756.93	1759.21
757.11	1720.29
757.29	1656.81
757.47	1607.66
757.65	1593.32
757.82	1665.00
758.00	1607.66
758.18	1734.63
758.36	1671.14
758.54	1722.34
758.72	1665.00
758.90	1742.82
759.07	1662.95
759.25	1644.52
759.43	1748.97
759.61	1574.89
759.79	2224.09
759.97	1783.78
760.15	1708.01
760.32	1679.33
760.50	1718.25
760.68	1832.93
760.86	1669.09
761.04	1798.12
761.22	1783.78
761.39	1658.85
761.57	1753.06
761.75	1802.21
761.93	1769.44
762.11	1597.42
762.28	1736.68
762.46	1656.81
762.64	1763.30
762.82	1640.42
763.00	1699.81
763.18	1787.88
763.35	1714.15
763.53	1687.53
763.71	1693.67
763.89	1742.82
764.07	1722.34
764.24	1648.61
764.42	1751.01
764.60	1656.81
764.78	1685.48
764.96	1730.53
765.13	1746.92
765.31	1632.23
765.49	1765.35
765.67	1644.52
765.84	1683.43
766.02	1734.63
766.20	1626.09
766.38	1665.00
766.56	1800.16
766.73	1724.39
766.91	1660.90
767.09	1685.48
767.27	1789.92
767.44	1632.23
767.62	1708.01
767.80	1683.43
767.98	1665.00
768.15	1732.58
768.33	1744.87
768.51	1724.39
768.69	1771.49
768.87	1689.57
769.04	1722.34
769.22	1794.02
769.40	1771.49
769.58	1847.27
769.75	1720.29
769.93	1738.73
770.11	1689.57
770.28	1640.42
770.46	1726.44
770.64	1771.49
770.82	1705.96
770.99	1748.97
771.17	1703.91
771.35	1671.14
771.53	1636.33
771.70	1691.62
771.88	1734.63
772.06	1701.86
772.23	1658.85
772.41	1687.53
772.59	1658.85
772.77	1656.81
772.94	1669.09
773.12	1742.82
773.30	1665.00
773.47	1648.61
773.65	1644.52
773.83	1816.55
774.01	1669.09
774.18	1632.23
774.36	1648.61
774.54	1656.81
774.71	1671.14
774.89	1628.14
775.07	1628.14
775.24	1613.80
775.42	1626.09
775.60	1806.31
775.78	1662.95
775.95	1583.08
776.13	1570.79
776.31	1603.56
776.48	1740.77
776.66	1800.16
776.84	1652.71
777.01	1626.09
777.19	1697.77
777.37	1716.20
777.54	1761.25
777.72	1769.44
777.90	1703.91
778.07	1619.94
778.25	1902.56
778.43	1771.49
778.60	1609.70
778.78	1755.11
778.96	1812.45
779.13	1652.71
779.31	1701.86
779.49	1683.43
779.66	1667.05
779.84	1675.24
780.01	1665.00
780.19	1669.09
780.37	1705.96
780.54	1667.05
780.72	1656.81
780.90	1671.14
781.07	1683.43
781.25	1601.51
781.43	1722.34
781.60	1699.81
781.78	1824.74
781.95	1824.74
782.13	1675.24
782.31	1626.09
782.48	1634.28
782.66	1650.66
782.83	1748.97
783.01	1742.82
783.19	1718.25
783.36	1748.97
783.54	1578.98
783.72	1751.01
783.89	1716.20
784.07	1726.44
784.24	1751.01
784.42	1796.07
784.60	1701.86
784.77	1638.38
784.95	1564.65
785.12	1636.33
785.30	1718.25
785.47	1660.90
785.65	1652.71
785.83	1728.49
786.00	1732.58
786.18	1691.62
786.35	1621.99
786.53	1652.71
786.71	1726.44
786.88	1677.29
787.06	1748.97
787.23	1783.78
787.41	1632.23
787.58	1677.29
787.76	1640.42
787.94	1665.00
788.11	1710.05
788.29	1714.15
788.46	1726.44
788.64	1669.09
788.81	1681.38
788.99	1619.94
789.16	1593.32
789.34	1720.29
789.52	1613.80
789.69	1724.39
789.87	1634.28
790.04	1691.62
790.22	1759.21
790.39	1771.49
790.57	1636.33
790.74	1611.75
790.92	1722.34
791.09	1572.84
791.27	1712.10
791.44	1800.16
791.62	1685.48
791.79	1753.06
791.97	1710.05
792.15	1769.44
792.32	1837.03
792.50	1755.11
792.67	1787.88
792.85	1761.25
793.02	1759.21
793.20	1695.72
793.37	1626.09
793.55	1669.09
793.72	1675.24
793.90	1685.48
794.07	1583.08
794.25	1650.66
794.42	1695.72
794.60	1679.33
794.77	1712.10
794.95	1771.49
795.12	1853.41
795.30	1703.91
795.47	1644.52
795.65	1798.12
795.82	1734.63
796.00	1701.86
796.17	1757.16
796.34	1689.57
796.52	1824.74
796.69	1761.25
796.87	1802.21
797.04	1744.87
797.22	1738.73
797.39	1755.11
797.57	1730.53
797.74	1759.21
797.92	1714.15
798.09	1679.33
798.27	1767.40
798.44	1738.73
798.62	1662.95
798.79	1757.16
798.96	1775.59
799.14	1740.77
799.31	1865.70
799.49	1675.24
799.66	1679.33
799.84	1779.68
800.01	1607.66
800.19	1720.29
800.36	1632.23
800.53	1712.10
800.71	1703.91
800.88	1798.12
801.06	1656.81
801.23	1646.57
801.41	1712.10
801.58	1683.43
801.75	1646.57
801.93	1665.00
802.10	1763.30
802.28	1634.28
802.45	1681.38
802.63	1724.39
802.80	1765.35
802.97	1652.71
803.15	1638.38
803.32	1689.57
803.50	1695.72
803.67	1578.98
803.84	1691.62
804.02	1738.73
804.19	1691.62
804.37	1603.56
804.54	1667.05
804.71	1611.75
804.89	1683.43
805.06	1691.62
805.24	1648.61
805.41	1644.52
805.58	1675.24
805.76	1781.73
805.93	1693.67
806.10	1669.09
806.28	1658.85
806.45	1648.61
806.63	1785.83
806.80	1779.68
806.97	1708.01
807.15	1683.43
807.32	1710.05
807.49	1662.95
807.67	1632.23
807.84	1689.57
808.01	1613.80
808.19	1783.78
808.36	1726.44
808.54	1638.38
808.71	1691.62
808.88	1691.62
809.06	1755.11
809.23	1794.02
809.40	1701.86
809.58	1748.97
809.75	1718.25
809.92	1605.61
810.10	1877.99
810.27	1779.68
810.44	1748.97
810.62	1781.73
810.79	1665.00
810.96	1703.91
811.14	1607.66
811.31	1789.92
811.48	1773.54
811.66	1716.20
811.83	1716.20
812.00	1753.06
812.18	1763.30
812.35	1787.88
812.52	1656.81
812.69	1640.42
812.87	1724.39
813.04	1619.94
813.21	1734.63
813.39	1652.71
813.56	1685.48
813.73	1714.15
813.91	1660.90
814.08	1673.19
814.25	1695.72
814.42	1605.61
814.60	1671.14
814.77	1675.24
814.94	1687.53
815.12	1687.53
815.29	1796.07
815.46	1662.95
815.63	1771.49
815.81	1748.97
815.98	1669.09
816.15	1689.57
816.33	1621.99
816.50	1755.11
816.67	1794.02
816.84	1714.15
817.02	1724.39
817.19	1601.51
817.36	1673.19
817.53	1714.15
817.71	1634.28
817.88	1685.48
818.05	1675.24
818.22	1673.19
818.40	1789.92
818.57	1693.67
818.74	1714.15
818.91	1714.15
819.09	1726.44
819.26	1763.30
819.43	1669.09
819.60	1742.82
819.78	1658.85
819.95	1716.20
820.12	1720.29
820.29	1773.54
820.47	1763.30
820.64	1681.38
820.81	1591.27
820.98	1652.71
821.15	1630.18
821.33	1673.19
821.50	1597.42
821.67	1695.72
821.84	1734.63
822.02	1697.77
822.19	1761.25
822.36	1665.00
822.53	1658.85
822.70	1609.70
822.88	1675.24
823.05	1843.17
823.22	1640.42
823.39	1748.97
823.56	1654.76
823.74	1734.63
823.91	1640.42
824.08	1667.05
824.25	1648.61
824.42	1763.30
824.60	1634.28
824.77	1710.05
824.94	1654.76
825.11	1763.30
825.28	1572.84
825.45	1667.05
825.63	1675.24
825.80	1675.24
825.97	1703.91
826.14	1740.77
826.31	1630.18
826.48	1783.78
826.66	1669.09
826.83	1679.33
827.00	1744.87
827.17	1630.18
827.34	1632.23
827.51	1630.18
827.69	1748.97
827.86	1632.23
828.03	1757.16
828.20	1658.85
828.37	1636.33
828.54	1673.19
828.71	1683.43
828.89	1861.60
829.06	1691.62
829.23	1738.73
829.40	1703.91
829.57	1615.85
829.74	1632.23
829.91	1667.05
830.09	1677.29
830.26	1726.44
830.43	1724.39
830.60	1732.58
830.77	1712.10
830.94	1781.73
831.11	1767.40
831.28	1689.57
831.46	1759.21
831.63	1701.86
831.80	1763.30
831.97	1640.42
832.14	1642.47
832.31	1777.64
832.48	1740.77
832.65	1779.68
832.82	1699.81
832.99	1722.34
833.17	1638.38
833.34	1783.78
833.51	1683.43
833.68	1601.51
833.85	1710.05
834.02	1570.79
834.19	1613.80
834.36	1665.00
834.53	1691.62
834.70	1740.77
834.87	1701.86
835.04	1761.25
835.22	1669.09
835.39	1697.77
835.56	1636.33
835.73	1703.91
835.90	1697.77
836.07	1691.62
836.24	1837.03
836.41	1683.43
836.58	1646.57
836.75	1685.48
836.92	1671.14
837.09	1648.61
837.26	1738.73
837.43	1726.44
837.60	1722.34
837.77	1656.81
837.94	1716.20
838.12	1757.16
838.29	1703.91
838.46	1648.61
838.63	1615.85
838.80	1734.63
838.97	1689.57
839.14	1642.47
839.31	1617.90
839.48	1589.22
839.65	1640.42
839.82	1781.73
839.99	1677.29
840.16	1605.61
840.33	1591.27
840.50	1660.90
840.67	1570.79
840.84	1527.78
841.01	1687.53
841.18	1652.71
841.35	1685.48
841.52	1738.73
841.69	1814.50
841.86	1681.38
842.03	1652.71
842.20	1800.16
842.37	1665.00
842.54	1722.34
842.71	1656.81
842.88	1667.05
843.05	1783.78
843.22	1728.49
843.39	1771.49
843.56	1673.19
843.73	1708.01
843.90	1765.35
844.07	1697.77
844.24	1841.12
844.41	1738.73
844.58	1671.14
844.75	1718.25
844.92	1720.29
845.09	1687.53
845.26	1697.77
845.43	1644.52
845.60	1644.52
845.77	1763.30
845.94	1642.47
846.10	1722.34
846.27	1656.81
846.44	1669.09
846.61	1681.38
846.78	1642.47
846.95	1796.07
847.12	1695.72
847.29	1644.52
847.46	1644.52
847.63	1671.14
847.80	1734.63
847.97	1646.57
848.14	1828.84
848.31	1730.53
848.48	1628.14
848.65	1697.77
848.82	1695.72
848.98	1804.26
849.15	1753.06
849.32	1806.31
849.49	1751.01
849.66	1746.92
849.83	1695.72
850.00	1615.85
850.17	1697.77
850.34	1656.81
850.51	1712.10
850.68	1654.76
850.85	1810.40
851.01	1708.01
851.18	1718.25
851.35	1705.96
851.52	1791.97
851.69	1785.83
851.86	1677.29
852.03	1656.81
852.20	1683.43
852.37	1755.11
852.53	1722.34
852.70	1689.57
852.87	1781.73
853.04	1703.91
853.21	1714.15
853.38	1714.15
853.55	1759.21
853.72	1832.93
853.89	1669.09
854.05	1658.85
854.22	1726.44
854.39	1644.52
854.56	1779.68
854.73	1785.83
854.90	1730.53
855.07	1732.58
855.23	1669.09
855.40	1652.71
855.57	1675.24
855.74	1601.51
855.91	1894.37
856.08	1615.85
856.25	1638.38
856.41	1675.24
856.58	1642.47
856.75	1656.81
856.92	1636.33
857.09	1755.11
857.26	1648.61
857.42	1710.05
857.59	1685.48
857.76	1671.14
857.93	1712.10
858.10	1654.76
858.27	1581.03
858.43	1648.61
858.60	1683.43
858.77	1626.09
858.94	1611.75
859.11	1716.20
859.27	1697.77
859.44	1619.94
859.61	1824.74
859.78	1665.00
859.95	1665.00
860.12	1607.66
860.28	1859.56
860.45	1775.59
860.62	1703.91
860.79	1677.29
860.95	1697.77
861.12	1654.76
861.29	1646.57
861.46	1646.57
861.63	1636.33
861.79	1699.81
861.96	1660.90
862.13	1720.29
862.30	1738.73
862.47	1695.72
862.63	1636.33
862.80	1720.29
862.97	1769.44
863.14	1712.10
863.30	1710.05
863.47	1742.82
863.64	1806.31
863.81	1730.53
863.97	1703.91
864.14	1652.71
864.31	1701.86
864.48	1757.16
864.65	1691.62
864.81	1675.24
864.98	1736.68
865.15	1726.44
865.32	1710.05
865.48	1771.49
865.65	1744.87
865.82	1636.33
865.98	1837.03
866.15	1718.25
866.32	1708.01
866.49	1677.29
866.65	1755.11
866.82	1660.90
866.99	1710.05
867.16	1673.19
867.32	1601.51
867.49	1613.80
867.66	1662.95
867.83	1632.23
867.99	1658.85
868.16	1642.47
868.33	1697.77
868.49	1644.52
868.66	1650.66
868.83	1736.68
868.99	1734.63
869.16	1667.05
869.33	1796.07
869.50	1710.05
869.66	1658.85
869.83	1656.81
870.00	1540.07
870.16	1771.49
870.33	1759.21
870.50	1720.29
870.66	1656.81
870.83	1763.30
871.00	1689.57
871.17	1785.83
871.33	1759.21
871.50	1636.33
871.67	1658.85
871.83	1660.90
872.00	1775.59
872.17	1648.61
872.33	1738.73
872.50	1724.39
872.67	1697.77
872.83	1681.38
873.00	1802.21
873.17	1701.86
873.33	1834.98
873.50	1718.25
873.67	1640.42
873.83	1640.42
874.00	1673.19
874.16	1708.01
874.33	1648.61
874.50	1658.85
874.66	1753.06
874.83	1708.01
875.00	1755.11
875.16	1806.31
875.33	1820.64
875.50	1546.22
875.66	1791.97
875.83	1669.09
875.99	1703.91
876.16	1730.53
876.33	1560.55
876.49	1683.43
876.66	1763.30
876.83	1640.42
876.99	1583.08
877.16	1632.23
877.32	1650.66
877.49	1644.52
877.66	1689.57
877.82	1775.59
877.99	1695.72
878.15	1695.72
878.32	1722.34
878.49	1703.91
878.65	1724.39
878.82	1718.25
878.98	1652.71
879.15	1824.74
879.32	1710.05
879.48	1722.34
879.65	1626.09
879.81	1685.48
879.98	1660.90
880.15	1689.57
880.31	1783.78
880.48	1636.33
880.64	1742.82
880.81	1687.53
880.97	1791.97
881.14	1812.45
881.31	1638.38
881.47	1863.65
881.64	1652.71
881.80	1636.33
881.97	1679.33
882.13	1761.25
882.30	1624.04
882.47	1640.42
882.63	1720.29
882.80	1652.71
882.96	1800.16
883.13	1761.25
883.29	1720.29
883.46	1669.09
883.62	1798.12
883.79	1730.53
883.95	1736.68
884.12	1617.90
884.29	1734.63
884.45	1685.48
884.62	1714.15
884.78	1644.52
884.95	1746.92
885.11	1648.61
885.28	1667.05
885.44	1636.33
885.61	1652.71
885.77	1789.92
885.94	1761.25
886.10	1691.62
886.27	1701.86
886.43	1863.65
886.60	1757.16
886.76	1667.05
886.93	1671.14
887.09	1724.39
887.26	1646.57
887.42	1734.63
887.59	1665.00
887.75	1796.07
887.92	1800.16
888.08	1755.11
888.25	1759.21
888.41	1724.39
888.58	1716.20
888.74	1617.90
888.91	1656.81
>>>>>End Processed Spectral Data<<<<<
