SpectraSuite Data File
++++++++++++++++++++++++++++++++++++
Date: Mon Jun 06 13:35:17 CEST 2016
User: root
Dark Spectrum Present: No
Reference Spectrum Present: No
Number of Sampled Component Spectra: 1
Spectrometers: USB4C02835
Integration Time (usec): 100000 (USB4C02835)
Spectra Averaged: 1 (USB4C02835)
Boxcar Smoothing: 0 (USB4C02835)
Correct for Electrical Dark: No (USB4C02835)
Strobe/Lamp Enabled: No (USB4C02835)
Correct for Detector Non-linearity: No (USB4C02835)
Correct for Stray Light: No (USB4C02835)
Number of Pixels in Processed Spectrum: 3648
>>>>>Begin Processed Spectral Data<<<<<
177.47	1495.02
177.69	1495.02
177.91	1495.02
178.13	1482.73
178.36	1449.96
178.58	1636.33
178.80	1722.34
179.02	1660.90
179.24	1669.09
179.46	1726.44
179.68	1665.00
179.90	1523.69
180.13	1665.00
180.35	1691.62
180.57	1665.00
180.79	1697.77
181.01	1699.81
181.23	1738.73
181.45	1730.53
181.67	1742.82
181.90	1697.77
182.12	1621.99
182.34	1650.66
182.56	1662.95
182.78	1726.44
183.00	1722.34
183.22	1730.53
183.44	1665.00
183.66	1820.64
183.89	1794.02
184.11	1730.53
184.33	1800.16
184.55	1697.77
184.77	1710.05
184.99	1630.18
185.21	1677.29
185.43	1849.32
185.65	1675.24
185.87	1705.96
186.10	1808.36
186.32	1808.36
186.54	1665.00
186.76	1705.96
186.98	1734.63
187.20	1736.68
187.42	1679.33
187.64	1742.82
187.86	1699.81
188.08	1734.63
188.30	1679.33
188.52	1681.38
188.75	1806.31
188.97	1853.41
189.19	1714.15
189.41	1705.96
189.63	1716.20
189.85	1646.57
190.07	1599.46
190.29	1564.65
190.51	1744.87
190.73	1621.99
190.95	1781.73
191.17	1685.48
191.39	1564.65
191.61	1718.25
191.84	1804.26
192.06	1751.01
192.28	1656.81
192.50	1918.95
192.72	1757.16
192.94	1738.73
193.16	1742.82
193.38	1740.77
193.60	1652.71
193.82	1654.76
194.04	1753.06
194.26	1732.58
194.48	1794.02
194.70	1683.43
194.92	1675.24
195.14	1746.92
195.36	1644.52
195.58	1650.66
195.80	1654.76
196.02	1708.01
196.24	1689.57
196.46	1671.14
196.69	1638.38
196.91	1783.78
197.13	1697.77
197.35	1718.25
197.57	1710.05
197.79	1708.01
198.01	1718.25
198.23	1656.81
198.45	1761.25
198.67	1632.23
198.89	1716.20
199.11	1732.58
199.33	1667.05
199.55	1601.51
199.77	1687.53
199.99	1759.21
200.21	1601.51
200.43	1738.73
200.65	1642.47
200.87	1621.99
201.09	1644.52
201.31	1669.09
201.53	1697.77
201.75	1759.21
201.97	1648.61
202.19	1685.48
202.41	1769.44
202.63	1783.78
202.85	1697.77
203.07	1742.82
203.29	1732.58
203.51	1626.09
203.73	1669.09
203.95	1873.89
204.17	1617.90
204.39	1671.14
204.61	1650.66
204.83	1695.72
205.05	1726.44
205.27	1761.25
205.49	1851.36
205.71	1673.19
205.93	1611.75
206.15	1658.85
206.37	1695.72
206.59	1691.62
206.81	1701.86
207.03	1624.04
207.25	1658.85
207.47	1703.91
207.69	1648.61
207.91	1681.38
208.13	1744.87
208.34	1685.48
208.56	1681.38
208.78	1767.40
209.00	1621.99
209.22	1605.61
209.44	1691.62
209.66	1705.96
209.88	1724.39
210.10	1751.01
210.32	1654.76
210.54	1816.55
210.76	1728.49
210.98	1732.58
211.20	1550.31
211.42	1667.05
211.64	1867.75
211.86	1714.15
212.08	1753.06
212.30	1710.05
212.52	1697.77
212.74	1738.73
212.96	1628.14
213.17	1716.20
213.39	1767.40
213.61	1767.40
213.83	1677.29
214.05	1654.76
214.27	1777.64
214.49	1640.42
214.71	1605.61
214.93	1757.16
215.15	1720.29
215.37	1759.21
215.59	1609.70
215.81	1730.53
216.03	1726.44
216.24	1693.67
216.46	1660.90
216.68	1660.90
216.90	1732.58
217.12	1767.40
217.34	1765.35
217.56	1740.77
217.78	1771.49
218.00	1705.96
218.22	1732.58
218.44	1677.29
218.66	1761.25
218.87	1796.07
219.09	1671.14
219.31	1751.01
219.53	1603.56
219.75	1705.96
219.97	1654.76
220.19	1722.34
220.41	1640.42
220.63	1785.83
220.85	1689.57
221.06	1644.52
221.28	1757.16
221.50	1802.21
221.72	1648.61
221.94	1673.19
222.16	1712.10
222.38	1734.63
222.60	1806.31
222.82	1710.05
223.03	1742.82
223.25	1568.74
223.47	1779.68
223.69	1796.07
223.91	1783.78
224.13	1701.86
224.35	1603.56
224.57	1798.12
224.78	1771.49
225.00	1718.25
225.22	1611.75
225.44	1691.62
225.66	1716.20
225.88	1697.77
226.10	1783.78
226.32	1716.20
226.53	1822.69
226.75	1660.90
226.97	1720.29
227.19	1714.15
227.41	1640.42
227.63	1665.00
227.85	1603.56
228.06	1720.29
228.28	1718.25
228.50	1755.11
228.72	1597.42
228.94	1597.42
229.16	1642.47
229.37	1634.28
229.59	1585.13
229.81	1720.29
230.03	1687.53
230.25	1624.04
230.47	1654.76
230.69	1689.57
230.90	1783.78
231.12	1568.74
231.34	1638.38
231.56	1751.01
231.78	1638.38
232.00	1734.63
232.21	1744.87
232.43	1681.38
232.65	1646.57
232.87	1677.29
233.09	1609.70
233.30	1703.91
233.52	1751.01
233.74	1701.86
233.96	1671.14
234.18	1728.49
234.40	1640.42
234.61	1814.50
234.83	1742.82
235.05	1630.18
235.27	1814.50
235.49	1857.51
235.70	1742.82
235.92	1724.39
236.14	1722.34
236.36	1849.32
236.58	1671.14
236.79	1714.15
237.01	1658.85
237.23	1765.35
237.45	1759.21
237.67	1665.00
237.88	1744.87
238.10	1716.20
238.32	1679.33
238.54	1695.72
238.76	1681.38
238.97	1652.71
239.19	1652.71
239.41	1724.39
239.63	1845.22
239.85	1560.55
240.06	1673.19
240.28	1636.33
240.50	1746.92
240.72	1628.14
240.93	1710.05
241.15	1755.11
241.37	1636.33
241.59	1820.64
241.81	1660.90
242.02	1710.05
242.24	1679.33
242.46	1662.95
242.68	1558.50
242.89	1695.72
243.11	1755.11
243.33	1640.42
243.55	1671.14
243.76	1732.58
243.98	1753.06
244.20	1697.77
244.42	1722.34
244.64	1642.47
244.85	1638.38
245.07	1642.47
245.29	1630.18
245.51	1658.85
245.72	1673.19
245.94	1812.45
246.16	1751.01
246.38	1699.81
246.59	1671.14
246.81	1677.29
247.03	1679.33
247.24	1624.04
247.46	1693.67
247.68	1730.53
247.90	1656.81
248.11	1587.18
248.33	1773.54
248.55	1640.42
248.77	1710.05
248.98	1732.58
249.20	1736.68
249.42	1703.91
249.64	1728.49
249.85	1695.72
250.07	1681.38
250.29	1718.25
250.50	1710.05
250.72	1597.42
250.94	1701.86
251.16	1820.64
251.37	1726.44
251.59	1705.96
251.81	1740.77
252.02	1763.30
252.24	1726.44
252.46	1720.29
252.68	1652.71
252.89	1693.67
253.11	1642.47
253.33	1800.16
253.54	1740.77
253.76	1613.80
253.98	1714.15
254.20	1605.61
254.41	1615.85
254.63	1755.11
254.85	1665.00
255.06	1726.44
255.28	1658.85
255.50	1658.85
255.71	1724.39
255.93	1613.80
256.15	1683.43
256.36	1667.05
256.58	1679.33
256.80	1771.49
257.02	1656.81
257.23	1644.52
257.45	1751.01
257.67	1775.59
257.88	1617.90
258.10	1763.30
258.32	1687.53
258.53	1697.77
258.75	1787.88
258.97	1734.63
259.18	1714.15
259.40	1703.91
259.62	1847.27
259.83	1695.72
260.05	1712.10
260.27	1957.86
260.48	1701.86
260.70	1638.38
260.92	1693.67
261.13	1642.47
261.35	1722.34
261.57	1738.73
261.78	1630.18
262.00	1673.19
262.22	1755.11
262.43	1660.90
262.65	1642.47
262.86	1673.19
263.08	1798.12
263.30	1656.81
263.51	1642.47
263.73	1652.71
263.95	1785.83
264.16	1583.08
264.38	1599.46
264.60	1724.39
264.81	1724.39
265.03	1718.25
265.25	1730.53
265.46	1683.43
265.68	1705.96
265.89	1681.38
266.11	1626.09
266.33	1779.68
266.54	1738.73
266.76	1705.96
266.98	1718.25
267.19	1755.11
267.41	1771.49
267.62	1710.05
267.84	1601.51
268.06	1685.48
268.27	1679.33
268.49	1781.73
268.70	1714.15
268.92	1687.53
269.14	1630.18
269.35	1675.24
269.57	1708.01
269.79	1761.25
270.00	1734.63
270.22	1757.16
270.43	1585.13
270.65	1572.84
270.87	1691.62
271.08	1761.25
271.30	1703.91
271.51	1593.32
271.73	1708.01
271.95	1740.77
272.16	1671.14
272.38	1726.44
272.59	1669.09
272.81	1726.44
273.02	1689.57
273.24	1738.73
273.46	1738.73
273.67	1640.42
273.89	1636.33
274.10	1726.44
274.32	1755.11
274.54	1693.67
274.75	1748.97
274.97	1699.81
275.18	1701.86
275.40	1716.20
275.61	1763.30
275.83	1699.81
276.05	1712.10
276.26	1630.18
276.48	1734.63
276.69	1714.15
276.91	1726.44
277.12	1771.49
277.34	1759.21
277.55	1681.38
277.77	1751.01
277.99	1753.06
278.20	1628.14
278.42	1640.42
278.63	1654.76
278.85	1628.14
279.06	1665.00
279.28	1722.34
279.49	1742.82
279.71	1757.16
279.93	1732.58
280.14	1710.05
280.36	1607.66
280.57	1736.68
280.79	1748.97
281.00	1730.53
281.22	1673.19
281.43	1742.82
281.65	1624.04
281.86	1603.56
282.08	1724.39
282.29	1755.11
282.51	1648.61
282.73	1624.04
282.94	1609.70
283.16	1693.67
283.37	1763.30
283.59	1751.01
283.80	1671.14
284.02	1658.85
284.23	1767.40
284.45	1730.53
284.66	1746.92
284.88	1673.19
285.09	1714.15
285.31	1748.97
285.52	1722.34
285.74	1767.40
285.95	1794.02
286.17	1722.34
286.38	1734.63
286.60	1708.01
286.81	1644.52
287.03	1658.85
287.24	1705.96
287.46	1724.39
287.67	1712.10
287.89	1787.88
288.10	1699.81
288.32	1705.96
288.53	1740.77
288.75	1757.16
288.96	1703.91
289.18	1632.23
289.39	1662.95
289.61	1755.11
289.82	1824.74
290.04	1794.02
290.25	1607.66
290.47	1662.95
290.68	1658.85
290.90	1783.78
291.11	1677.29
291.33	1783.78
291.54	1669.09
291.76	1644.52
291.97	1691.62
292.18	1685.48
292.40	1656.81
292.61	1597.42
292.83	1845.22
293.04	1726.44
293.26	1726.44
293.47	1642.47
293.69	1669.09
293.90	1675.24
294.12	1722.34
294.33	1722.34
294.55	1673.19
294.76	1861.60
294.97	1728.49
295.19	1765.35
295.40	1648.61
295.62	1724.39
295.83	1818.60
296.05	1695.72
296.26	1783.78
296.48	1665.00
296.69	1732.58
296.90	1656.81
297.12	1705.96
297.33	1691.62
297.55	1757.16
297.76	1652.71
297.98	1757.16
298.19	1685.48
298.41	1689.57
298.62	1716.20
298.83	1736.68
299.05	1693.67
299.26	1617.90
299.48	1648.61
299.69	1605.61
299.90	1753.06
300.12	1630.18
300.33	1734.63
300.55	1681.38
300.76	1716.20
300.98	1615.85
301.19	1726.44
301.40	1658.85
301.62	1710.05
301.83	1765.35
302.05	1722.34
302.26	1730.53
302.47	1714.15
302.69	1681.38
302.90	1751.01
303.12	1566.70
303.33	1626.09
303.54	1877.99
303.76	1593.32
303.97	1765.35
304.19	1738.73
304.40	1648.61
304.61	1654.76
304.83	1787.88
305.04	1697.77
305.26	1699.81
305.47	1628.14
305.68	1767.40
305.90	1615.85
306.11	1751.01
306.33	1658.85
306.54	1699.81
306.75	1685.48
306.97	1681.38
307.18	1630.18
307.39	1703.91
307.61	1771.49
307.82	1746.92
308.04	1773.54
308.25	1695.72
308.46	1691.62
308.68	1621.99
308.89	1703.91
309.10	1853.41
309.32	1681.38
309.53	1714.15
309.74	1789.92
309.96	1636.33
310.17	1812.45
310.39	1624.04
310.60	1740.77
310.81	1667.05
311.03	1581.03
311.24	1736.68
311.45	1673.19
311.67	1843.17
311.88	1771.49
312.09	1701.86
312.31	1685.48
312.52	1734.63
312.73	1660.90
312.95	1560.55
313.16	1626.09
313.37	1734.63
313.59	1777.64
313.80	1693.67
314.01	1777.64
314.23	1740.77
314.44	1624.04
314.65	1617.90
314.87	1685.48
315.08	1681.38
315.29	1697.77
315.51	1742.82
315.72	1531.88
315.93	1775.59
316.15	1744.87
316.36	1669.09
316.57	1685.48
316.79	1783.78
317.00	1656.81
317.21	1767.40
317.43	1638.38
317.64	1701.86
317.85	1697.77
318.07	1591.27
318.28	1685.48
318.49	1734.63
318.70	1904.61
318.92	1783.78
319.13	1853.41
319.34	1826.79
319.56	1789.92
319.77	1824.74
319.98	1720.29
320.20	1789.92
320.41	1779.68
320.62	1740.77
320.83	1654.76
321.05	1757.16
321.26	1724.39
321.47	1693.67
321.69	1685.48
321.90	1638.38
322.11	1710.05
322.32	1671.14
322.54	1820.64
322.75	1689.57
322.96	1834.98
323.18	1578.98
323.39	1636.33
323.60	1761.25
323.81	1728.49
324.03	1740.77
324.24	1675.24
324.45	1669.09
324.66	1701.86
324.88	1798.12
325.09	1734.63
325.30	1683.43
325.52	1697.77
325.73	1808.36
325.94	1593.32
326.15	1572.84
326.37	1662.95
326.58	1783.78
326.79	1767.40
327.00	1683.43
327.22	1665.00
327.43	1636.33
327.64	1642.47
327.85	1705.96
328.07	1660.90
328.28	1757.16
328.49	1679.33
328.70	1650.66
328.92	1597.42
329.13	1740.77
329.34	1765.35
329.55	1720.29
329.76	1736.68
329.98	1601.51
330.19	1769.44
330.40	1681.38
330.61	1701.86
330.83	1730.53
331.04	1681.38
331.25	1763.30
331.46	1673.19
331.68	1613.80
331.89	1744.87
332.10	1775.59
332.31	1611.75
332.52	1650.66
332.74	1740.77
332.95	1587.18
333.16	1703.91
333.37	1769.44
333.58	1701.86
333.80	1787.88
334.01	1607.66
334.22	1669.09
334.43	1689.57
334.64	1744.87
334.86	1583.08
335.07	1644.52
335.28	1751.01
335.49	1578.98
335.70	1794.02
335.92	1771.49
336.13	1710.05
336.34	1777.64
336.55	1667.05
336.76	1751.01
336.98	1548.26
337.19	1644.52
337.40	1775.59
337.61	1859.56
337.82	1648.61
338.04	1738.73
338.25	1648.61
338.46	1662.95
338.67	1671.14
338.88	1689.57
339.09	1601.51
339.31	1669.09
339.52	1599.46
339.73	1636.33
339.94	1681.38
340.15	1791.97
340.36	1679.33
340.58	1728.49
340.79	1656.81
341.00	1728.49
341.21	1632.23
341.42	1802.21
341.63	1744.87
341.85	1718.25
342.06	1646.57
342.27	1708.01
342.48	1720.29
342.69	1675.24
342.90	1640.42
343.12	1744.87
343.33	1687.53
343.54	1800.16
343.75	1812.45
343.96	1673.19
344.17	1728.49
344.38	1662.95
344.60	1654.76
344.81	1636.33
345.02	1619.94
345.23	1712.10
345.44	1859.56
345.65	1716.20
345.86	1726.44
346.07	1761.25
346.29	1679.33
346.50	1667.05
346.71	1785.83
346.92	1753.06
347.13	1820.64
347.34	1755.11
347.55	1685.48
347.76	1744.87
347.98	1691.62
348.19	1701.86
348.40	1812.45
348.61	1675.24
348.82	1689.57
349.03	1714.15
349.24	1624.04
349.45	1812.45
349.66	1619.94
349.88	1732.58
350.09	1619.94
350.30	1726.44
350.51	1802.21
350.72	1689.57
350.93	1710.05
351.14	1648.61
351.35	1785.83
351.56	1677.29
351.77	1718.25
351.99	1703.91
352.20	1904.61
352.41	1730.53
352.62	1662.95
352.83	1751.01
353.04	1718.25
353.25	1636.33
353.46	1753.06
353.67	1734.63
353.88	1652.71
354.09	1628.14
354.30	1660.90
354.52	1697.77
354.73	1619.94
354.94	1621.99
355.15	1687.53
355.36	1798.12
355.57	1640.42
355.78	1695.72
355.99	1746.92
356.20	1542.12
356.41	1703.91
356.62	1673.19
356.83	1730.53
357.04	1755.11
357.25	1621.99
357.46	1757.16
357.68	1652.71
357.89	1615.85
358.10	1675.24
358.31	1667.05
358.52	1669.09
358.73	1628.14
358.94	1583.08
359.15	1677.29
359.36	1738.73
359.57	1646.57
359.78	1665.00
359.99	1744.87
360.20	1667.05
360.41	1685.48
360.62	1777.64
360.83	1710.05
361.04	1701.86
361.25	1681.38
361.46	1765.35
361.67	1716.20
361.88	1740.77
362.09	1779.68
362.30	1732.58
362.51	1669.09
362.72	1740.77
362.93	1767.40
363.14	1714.15
363.35	1773.54
363.56	1691.62
363.78	1654.76
363.99	1718.25
364.20	1605.61
364.41	1724.39
364.62	1834.98
364.83	1714.15
365.04	1701.86
365.25	1632.23
365.46	1820.64
365.67	1679.33
365.88	1634.28
366.09	1714.15
366.30	1613.80
366.51	1726.44
366.72	1710.05
366.93	1718.25
367.14	1615.85
367.35	1748.97
367.56	1710.05
367.77	1816.55
367.98	1617.90
368.18	1665.00
368.39	1746.92
368.60	1669.09
368.81	1751.01
369.02	1734.63
369.23	1673.19
369.44	1640.42
369.65	1587.18
369.86	1781.73
370.07	1722.34
370.28	1687.53
370.49	1681.38
370.70	1712.10
370.91	1669.09
371.12	1642.47
371.33	1765.35
371.54	1703.91
371.75	1806.31
371.96	1570.79
372.17	1673.19
372.38	1628.14
372.59	1785.83
372.80	1718.25
373.01	1624.04
373.22	1665.00
373.43	1740.77
373.64	1615.85
373.85	1781.73
374.06	1787.88
374.26	1734.63
374.47	1683.43
374.68	1845.22
374.89	1683.43
375.10	1722.34
375.31	1693.67
375.52	1726.44
375.73	1605.61
375.94	1611.75
376.15	1841.12
376.36	1712.10
376.57	1554.41
376.78	1679.33
376.99	1626.09
377.20	1791.97
377.40	1665.00
377.61	1810.40
377.82	1607.66
378.03	1796.07
378.24	1730.53
378.45	1708.01
378.66	1767.40
378.87	1646.57
379.08	1609.70
379.29	1701.86
379.50	1775.59
379.71	1658.85
379.91	1753.06
380.12	1675.24
380.33	1763.30
380.54	1660.90
380.75	1689.57
380.96	1691.62
381.17	1761.25
381.38	1646.57
381.59	1697.77
381.80	1697.77
382.00	1923.04
382.21	1738.73
382.42	1871.84
382.63	1892.32
382.84	1796.07
383.05	1837.03
383.26	1814.50
383.47	1742.82
383.68	1738.73
383.88	1724.39
384.09	1708.01
384.30	1742.82
384.51	1738.73
384.72	1632.23
384.93	1685.48
385.14	1724.39
385.35	1751.01
385.55	1699.81
385.76	1791.97
385.97	1697.77
386.18	1654.76
386.39	1681.38
386.60	1691.62
386.81	1650.66
387.02	1660.90
387.22	1681.38
387.43	1748.97
387.64	1845.22
387.85	1812.45
388.06	2234.33
388.27	4310.97
388.48	6793.11
388.68	8318.85
388.89	9731.95
389.10	9889.64
389.31	8722.30
389.52	7573.39
389.73	6672.28
389.93	6121.38
390.14	5851.05
390.35	5179.31
390.56	4710.33
390.77	3721.16
390.98	3139.54
391.18	2553.82
391.39	2207.71
391.60	1845.22
391.81	1796.07
392.02	1765.35
392.23	1877.99
392.43	1695.72
392.64	1773.54
392.85	1685.48
393.06	1796.07
393.27	1662.95
393.47	1703.91
393.68	1687.53
393.89	1699.81
394.10	1839.08
394.31	1650.66
394.52	1605.61
394.72	1636.33
394.93	1763.30
395.14	1621.99
395.35	1699.81
395.56	1660.90
395.76	1771.49
395.97	1738.73
396.18	1742.82
396.39	1845.22
396.60	2064.35
396.80	1839.08
397.01	1896.42
397.22	1779.68
397.43	1761.25
397.64	1824.74
397.84	1857.51
398.05	1894.37
398.26	1722.34
398.47	1759.21
398.67	1722.34
398.88	1669.09
399.09	1734.63
399.30	1685.48
399.51	1773.54
399.71	1673.19
399.92	1755.11
400.13	1755.11
400.34	1714.15
400.54	1703.91
400.75	1802.21
400.96	1662.95
401.17	1732.58
401.37	1777.64
401.58	1722.34
401.79	1722.34
402.00	1820.64
402.21	2041.82
402.41	1951.71
402.62	2072.54
402.83	2007.01
403.04	1978.34
403.24	2097.12
403.45	1794.02
403.66	1912.80
403.87	1869.80
404.07	1837.03
404.28	1908.71
404.49	1824.74
404.70	1736.68
404.90	1693.67
405.11	1791.97
405.32	1716.20
405.52	1671.14
405.73	1665.00
405.94	1720.29
406.15	1640.42
406.35	1755.11
406.56	1669.09
406.77	1632.23
406.98	1703.91
407.18	1724.39
407.39	1673.19
407.60	1681.38
407.80	1783.78
408.01	1652.71
408.22	1673.19
408.43	1660.90
408.63	1753.06
408.84	1761.25
409.05	1669.09
409.25	1650.66
409.46	1665.00
409.67	1640.42
409.88	1656.81
410.08	1662.95
410.29	1681.38
410.50	1763.30
410.70	1714.15
410.91	1626.09
411.12	1724.39
411.32	1693.67
411.53	1652.71
411.74	1855.46
411.95	1773.54
412.15	1699.81
412.36	1753.06
412.57	1779.68
412.77	1789.92
412.98	1763.30
413.19	1712.10
413.39	1753.06
413.60	1765.35
413.81	1791.97
414.01	1595.37
414.22	1683.43
414.43	1738.73
414.63	1712.10
414.84	1744.87
415.05	1744.87
415.25	1656.81
415.46	1763.30
415.67	1712.10
415.87	1687.53
416.08	1751.01
416.29	1677.29
416.49	1755.11
416.70	1699.81
416.91	1726.44
417.11	1722.34
417.32	1763.30
417.53	1769.44
417.73	1648.61
417.94	1619.94
418.15	1693.67
418.35	1675.24
418.56	1699.81
418.77	1806.31
418.97	1720.29
419.18	1751.01
419.38	1632.23
419.59	1609.70
419.80	1867.75
420.00	1691.62
420.21	1669.09
420.42	1812.45
420.62	1761.25
420.83	1701.86
421.04	1720.29
421.24	1742.82
421.45	1722.34
421.65	1775.59
421.86	1671.14
422.07	1787.88
422.27	1685.48
422.48	1730.53
422.69	1679.33
422.89	1665.00
423.10	1656.81
423.30	1677.29
423.51	1701.86
423.72	1710.05
423.92	1683.43
424.13	1648.61
424.33	1751.01
424.54	1689.57
424.75	1683.43
424.95	1808.36
425.16	1660.90
425.36	1689.57
425.57	1775.59
425.78	1677.29
425.98	1742.82
426.19	1681.38
426.39	1624.04
426.60	1701.86
426.81	1802.21
427.01	1699.81
427.22	1632.23
427.42	1550.31
427.63	1681.38
427.83	1673.19
428.04	1767.40
428.25	1771.49
428.45	1787.88
428.66	1769.44
428.86	1673.19
429.07	1718.25
429.28	1685.48
429.48	1658.85
429.69	1640.42
429.89	1746.92
430.10	1624.04
430.30	1738.73
430.51	1771.49
430.71	1732.58
430.92	1656.81
431.13	1650.66
431.33	1710.05
431.54	1660.90
431.74	1714.15
431.95	1863.65
432.15	1665.00
432.36	1759.21
432.56	1703.91
432.77	1810.40
432.98	1798.12
433.18	1796.07
433.39	1648.61
433.59	1718.25
433.80	1812.45
434.00	1779.68
434.21	1662.95
434.41	1724.39
434.62	1834.98
434.82	1708.01
435.03	1621.99
435.23	1710.05
435.44	1689.57
435.64	1791.97
435.85	1687.53
436.06	1755.11
436.26	1703.91
436.47	1615.85
436.67	1689.57
436.88	1699.81
437.08	1699.81
437.29	1785.83
437.49	1673.19
437.70	1791.97
437.90	1603.56
438.11	1855.46
438.31	1849.32
438.52	1796.07
438.72	1875.94
438.93	1845.22
439.13	1769.44
439.34	1814.50
439.54	1734.63
439.75	1708.01
439.95	1812.45
440.16	1660.90
440.36	1755.11
440.57	1771.49
440.77	1746.92
440.98	1746.92
441.18	1816.55
441.39	1693.67
441.59	1689.57
441.80	1837.03
442.00	1740.77
442.21	1763.30
442.41	1658.85
442.62	1755.11
442.82	1687.53
443.02	1613.80
443.23	1736.68
443.43	1775.59
443.64	1804.26
443.84	1673.19
444.05	1722.34
444.25	1808.36
444.46	1617.90
444.66	1714.15
444.87	1830.88
445.07	1611.75
445.28	1720.29
445.48	1816.55
445.69	1740.77
445.89	1882.08
446.09	1744.87
446.30	1918.95
446.50	2709.46
446.71	3786.69
446.91	4294.59
447.12	4786.10
447.32	4775.86
447.53	4327.36
447.73	3774.41
447.93	3461.07
448.14	3340.24
448.34	3178.45
448.55	2983.89
448.75	2852.82
448.96	2713.56
449.16	2455.51
449.36	2285.53
449.57	2041.82
449.77	1814.50
449.98	1828.84
450.18	1785.83
450.39	1804.26
450.59	1806.31
450.79	1718.25
451.00	1689.57
451.20	1826.79
451.41	1681.38
451.61	1748.97
451.81	1665.00
452.02	1779.68
452.22	1746.92
452.43	1736.68
452.63	1765.35
452.84	1767.40
453.04	1714.15
453.24	1705.96
453.45	1656.81
453.65	1669.09
453.86	1783.78
454.06	1701.86
454.26	1714.15
454.47	1589.22
454.67	1742.82
454.87	1759.21
455.08	1679.33
455.28	1822.69
455.49	1703.91
455.69	1638.38
455.89	1822.69
456.10	1849.32
456.30	1720.29
456.51	1761.25
456.71	1757.16
456.91	1771.49
457.12	1738.73
457.32	1685.48
457.52	1615.85
457.73	1806.31
457.93	1710.05
458.14	1677.29
458.34	1665.00
458.54	1714.15
458.75	1705.96
458.95	1787.88
459.15	1726.44
459.36	1810.40
459.56	1755.11
459.76	1861.60
459.97	1746.92
460.17	1681.38
460.37	1726.44
460.58	1734.63
460.78	1781.73
460.99	1650.66
461.19	1763.30
461.39	1671.14
461.60	1624.04
461.80	1777.64
462.00	1613.80
462.21	1746.92
462.41	1728.49
462.61	1714.15
462.82	1601.51
463.02	1742.82
463.22	1763.30
463.43	1822.69
463.63	1691.62
463.83	1800.16
464.04	1744.87
464.24	1726.44
464.44	1710.05
464.64	1761.25
464.85	1798.12
465.05	1703.91
465.25	1742.82
465.46	1669.09
465.66	1771.49
465.86	1773.54
466.07	1785.83
466.27	1714.15
466.47	1652.71
466.68	1642.47
466.88	1826.79
467.08	1753.06
467.29	1773.54
467.49	1701.86
467.69	1710.05
467.89	1728.49
468.10	1679.33
468.30	1732.58
468.50	1810.40
468.71	1734.63
468.91	1591.27
469.11	1920.99
469.31	1746.92
469.52	1757.16
469.72	1830.88
469.92	1904.61
470.13	1660.90
470.33	1744.87
470.53	1804.26
470.73	2086.88
470.94	2269.15
471.14	2365.40
471.34	2502.62
471.54	2435.03
471.75	2185.18
471.95	2037.73
472.15	2133.98
472.36	2101.22
472.56	2119.65
472.76	2058.21
472.96	1968.10
473.17	1908.71
473.37	1927.14
473.57	1759.21
473.77	1771.49
473.98	1775.59
474.18	1779.68
474.38	1882.08
474.58	1748.97
474.79	1615.85
474.99	1769.44
475.19	1746.92
475.39	1642.47
475.60	1761.25
475.80	1703.91
476.00	1671.14
476.20	1669.09
476.41	1740.77
476.61	1880.04
476.81	1765.35
477.01	1677.29
477.21	1843.17
477.42	1755.11
477.62	1626.09
477.82	1781.73
478.02	1675.24
478.23	1759.21
478.43	1693.67
478.63	1671.14
478.83	1767.40
479.03	1742.82
479.24	1789.92
479.44	1804.26
479.64	1677.29
479.84	1634.28
480.04	1712.10
480.25	1773.54
480.45	1671.14
480.65	1718.25
480.85	1746.92
481.06	1712.10
481.26	1734.63
481.46	1783.78
481.66	1699.81
481.86	1665.00
482.06	1746.92
482.27	1697.77
482.47	1685.48
482.67	1738.73
482.87	1693.67
483.07	1787.88
483.28	1710.05
483.48	1628.14
483.68	1691.62
483.88	1634.28
484.08	1593.32
484.29	1699.81
484.49	1730.53
484.69	1699.81
484.89	1726.44
485.09	1763.30
485.29	1822.69
485.50	1685.48
485.70	1667.05
485.90	1718.25
486.10	1708.01
486.30	1693.67
486.50	1820.64
486.71	1710.05
486.91	1826.79
487.11	1728.49
487.31	1712.10
487.51	1775.59
487.71	1634.28
487.91	1636.33
488.12	1669.09
488.32	1599.46
488.52	1730.53
488.72	1636.33
488.92	1734.63
489.12	1781.73
489.32	1798.12
489.53	1738.73
489.73	1685.48
489.93	1820.64
490.13	1703.91
490.33	1738.73
490.53	1718.25
490.73	1828.84
490.94	1662.95
491.14	1869.80
491.34	1828.84
491.54	2099.17
491.74	2664.41
491.94	2906.07
492.14	3020.75
492.34	2887.64
492.54	2754.52
492.75	2541.53
492.95	2463.71
493.15	2351.07
493.35	2256.86
493.55	2256.86
493.75	2111.46
493.95	2144.22
494.15	2037.73
494.35	1886.18
494.56	1875.94
494.76	1677.29
494.96	1834.98
495.16	1789.92
495.36	1796.07
495.56	1738.73
495.76	1695.72
495.96	1779.68
496.16	1621.99
496.36	1816.55
496.56	1722.34
496.77	1716.20
496.97	1730.53
497.17	1800.16
497.37	1718.25
497.57	1775.59
497.77	1730.53
497.97	1619.94
498.17	1695.72
498.37	1683.43
498.57	1748.97
498.77	1726.44
498.97	1755.11
499.17	1796.07
499.38	1689.57
499.58	1732.58
499.78	1804.26
499.98	1751.01
500.18	1734.63
500.38	1691.62
500.58	1888.23
500.78	2551.77
500.98	4593.59
501.18	5822.38
501.38	6723.48
501.58	6924.18
501.78	6680.47
501.98	5646.25
502.18	4939.70
502.38	4294.59
502.58	4155.33
502.78	3719.11
502.98	3524.55
503.18	3434.44
503.38	3133.39
503.59	2840.53
503.79	2582.49
503.99	2398.17
504.19	2275.29
504.39	2187.23
504.59	2222.05
504.79	2084.83
504.99	2054.11
505.19	1966.05
505.39	1886.18
505.59	1984.48
505.79	1902.56
505.99	1884.13
506.19	1771.49
506.39	1843.17
506.59	1689.57
506.79	1773.54
506.99	1894.37
507.19	1791.97
507.39	1753.06
507.59	1710.05
507.79	1685.48
507.99	1673.19
508.19	1748.97
508.39	1767.40
508.59	1662.95
508.79	1806.31
508.99	1886.18
509.19	1695.72
509.39	1701.86
509.59	1691.62
509.79	1679.33
509.99	1671.14
510.19	1785.83
510.39	1753.06
510.59	1679.33
510.79	1710.05
510.99	1685.48
511.19	1796.07
511.39	1804.26
511.59	1822.69
511.79	1791.97
511.99	1751.01
512.19	1779.68
512.38	1759.21
512.58	1722.34
512.78	1714.15
512.98	1800.16
513.18	1796.07
513.38	1683.43
513.58	1771.49
513.78	1763.30
513.98	1753.06
514.18	1744.87
514.38	1697.77
514.58	1705.96
514.78	1716.20
514.98	1638.38
515.18	1624.04
515.38	1685.48
515.58	1855.46
515.78	1656.81
515.98	1738.73
516.18	1798.12
516.38	1722.34
516.57	1701.86
516.77	1712.10
516.97	1730.53
517.17	1714.15
517.37	1615.85
517.57	1736.68
517.77	1697.77
517.97	1693.67
518.17	1789.92
518.37	1728.49
518.57	1673.19
518.77	1699.81
518.97	1728.49
519.16	1830.88
519.36	1804.26
519.56	1671.14
519.76	1744.87
519.96	1697.77
520.16	1832.93
520.36	1619.94
520.56	1796.07
520.76	1667.05
520.96	1703.91
521.16	1765.35
521.35	1812.45
521.55	1812.45
521.75	1712.10
521.95	1613.80
522.15	1734.63
522.35	1609.70
522.55	1718.25
522.75	1751.01
522.95	1634.28
523.14	1730.53
523.34	1712.10
523.54	1732.58
523.74	1712.10
523.94	1804.26
524.14	1679.33
524.34	1814.50
524.54	1789.92
524.73	1669.09
524.93	1730.53
525.13	1744.87
525.33	1701.86
525.53	1871.84
525.73	1718.25
525.93	1675.24
526.13	1724.39
526.32	1697.77
526.52	1765.35
526.72	1757.16
526.92	1697.77
527.12	1716.20
527.32	1646.57
527.52	1757.16
527.71	1761.25
527.91	1710.05
528.11	1681.38
528.31	1656.81
528.51	1728.49
528.71	1751.01
528.90	1785.83
529.10	1779.68
529.30	1730.53
529.50	1648.61
529.70	1656.81
529.90	1699.81
530.09	1759.21
530.29	1742.82
530.49	1714.15
530.69	1882.08
530.89	1736.68
531.09	1742.82
531.28	1667.05
531.48	1718.25
531.68	1724.39
531.88	1783.78
532.08	1740.77
532.28	1722.34
532.47	1705.96
532.67	1783.78
532.87	1732.58
533.07	1650.66
533.27	1726.44
533.46	1806.31
533.66	1812.45
533.86	1746.92
534.06	1689.57
534.26	1757.16
534.45	1689.57
534.65	1728.49
534.85	1697.77
535.05	1648.61
535.25	1703.91
535.44	1656.81
535.64	1736.68
535.84	1683.43
536.04	1753.06
536.24	1677.29
536.43	1701.86
536.63	1771.49
536.83	1705.96
537.03	1693.67
537.22	1619.94
537.42	1564.65
537.62	1736.68
537.82	1734.63
538.02	1794.02
538.21	1798.12
538.41	1929.19
538.61	1806.31
538.81	1757.16
539.00	1791.97
539.20	1642.47
539.40	1771.49
539.60	1677.29
539.79	1695.72
539.99	1710.05
540.19	1753.06
540.39	1665.00
540.58	1769.44
540.78	1806.31
540.98	1669.09
541.18	1763.30
541.37	1796.07
541.57	1683.43
541.77	1740.77
541.97	1667.05
542.16	1681.38
542.36	1759.21
542.56	1748.97
542.76	1849.32
542.95	1738.73
543.15	1808.36
543.35	1802.21
543.54	1658.85
543.74	1714.15
543.94	1777.64
544.14	1761.25
544.33	1794.02
544.53	1724.39
544.73	1751.01
544.93	1689.57
545.12	1673.19
545.32	1728.49
545.52	1720.29
545.71	1624.04
545.91	1636.33
546.11	1751.01
546.30	1671.14
546.50	1781.73
546.70	1675.24
546.90	1830.88
547.09	1617.90
547.29	1714.15
547.49	1804.26
547.68	1708.01
547.88	1695.72
548.08	1806.31
548.27	2160.61
548.47	1755.11
548.67	1712.10
548.87	1769.44
549.06	1632.23
549.26	1763.30
549.46	1765.35
549.65	1619.94
549.85	1718.25
550.05	1712.10
550.24	1599.46
550.44	1687.53
550.64	1691.62
550.83	1732.58
551.03	1789.92
551.23	1765.35
551.42	1759.21
551.62	1755.11
551.82	1703.91
552.01	1722.34
552.21	1822.69
552.41	1767.40
552.60	1841.12
552.80	1732.58
553.00	1740.77
553.19	1734.63
553.39	1814.50
553.59	1652.71
553.78	1755.11
553.98	1726.44
554.17	1689.57
554.37	1761.25
554.57	1781.73
554.76	1677.29
554.96	1712.10
555.16	1791.97
555.35	1742.82
555.55	1714.15
555.75	1755.11
555.94	1830.88
556.14	1654.76
556.33	1832.93
556.53	1675.24
556.73	1640.42
556.92	1724.39
557.12	1837.03
557.32	1800.16
557.51	1773.54
557.71	1796.07
557.90	1812.45
558.10	1791.97
558.30	1728.49
558.49	1693.67
558.69	1689.57
558.88	1769.44
559.08	1753.06
559.28	1734.63
559.47	1759.21
559.67	1683.43
559.86	1906.66
560.06	1736.68
560.26	1681.38
560.45	1742.82
560.65	1667.05
560.84	1851.36
561.04	1730.53
561.24	1753.06
561.43	1691.62
561.63	1767.40
561.82	1812.45
562.02	1779.68
562.22	1703.91
562.41	1755.11
562.61	1689.57
562.80	1724.39
563.00	1867.75
563.19	1761.25
563.39	1777.64
563.59	1800.16
563.78	1703.91
563.98	1619.94
564.17	1632.23
564.37	1626.09
564.56	1728.49
564.76	1710.05
564.96	1791.97
565.15	1710.05
565.35	1871.84
565.54	1642.47
565.74	1822.69
565.93	1751.01
566.13	1722.34
566.32	1785.83
566.52	1785.83
566.71	1677.29
566.91	1763.30
567.11	1705.96
567.30	1734.63
567.50	1708.01
567.69	1669.09
567.89	1728.49
568.08	1665.00
568.28	1791.97
568.47	1732.58
568.67	1849.32
568.86	1708.01
569.06	1771.49
569.25	1748.97
569.45	1728.49
569.64	1720.29
569.84	1710.05
570.04	1763.30
570.23	1691.62
570.43	1740.77
570.62	1753.06
570.82	1847.27
571.01	1650.66
571.21	1748.97
571.40	1720.29
571.60	1794.02
571.79	1746.92
571.99	1734.63
572.18	1755.11
572.38	1730.53
572.57	1667.05
572.77	1808.36
572.96	1923.04
573.16	1759.21
573.35	1720.29
573.55	1746.92
573.74	1757.16
573.94	1785.83
574.13	1726.44
574.33	1798.12
574.52	1853.41
574.71	1724.39
574.91	1695.72
575.10	1650.66
575.30	1759.21
575.49	1648.61
575.69	1632.23
575.88	1732.58
576.08	1722.34
576.27	1779.68
576.47	1675.24
576.66	1857.51
576.86	1751.01
577.05	1720.29
577.25	1753.06
577.44	1841.12
577.64	1761.25
577.83	1763.30
578.02	1781.73
578.22	1830.88
578.41	1834.98
578.61	1769.44
578.80	1675.24
579.00	1728.49
579.19	1658.85
579.39	1708.01
579.58	1785.83
579.77	1763.30
579.97	1753.06
580.16	1806.31
580.36	1769.44
580.55	1830.88
580.75	1748.97
580.94	1746.92
581.13	1802.21
581.33	1859.56
581.52	1650.66
581.72	1861.60
581.91	1869.80
582.11	1783.78
582.30	1728.49
582.49	1777.64
582.69	1894.37
582.88	1822.69
583.08	1705.96
583.27	1826.79
583.47	1791.97
583.66	1773.54
583.85	1757.16
584.05	1724.39
584.24	1773.54
584.44	1839.08
584.63	1851.36
584.82	1898.47
585.02	1820.64
585.21	1771.49
585.41	1828.84
585.60	1843.17
585.79	1853.41
585.99	1992.67
586.18	1828.84
586.37	2197.47
586.57	3362.76
586.76	9854.83
586.96	24850.05
587.15	34555.38
587.34	40392.09
587.54	42954.10
587.73	36775.37
587.93	26517.10
588.12	21593.78
588.31	18583.27
588.51	16742.14
588.70	15288.09
588.89	14272.29
589.09	12660.54
589.28	11251.54
589.47	9457.52
589.67	8025.99
589.86	6490.01
590.06	5050.29
590.25	4028.35
590.44	3139.54
590.64	2600.92
590.83	2248.67
591.02	2033.63
591.22	1984.48
591.41	1898.47
591.60	1802.21
591.80	1937.38
591.99	1742.82
592.18	1845.22
592.38	1839.08
592.57	1767.40
592.76	1753.06
592.96	1744.87
593.15	1724.39
593.34	1779.68
593.54	1794.02
593.73	1765.35
593.92	1728.49
594.12	1742.82
594.31	1683.43
594.50	1812.45
594.70	1777.64
594.89	1896.42
595.08	1656.81
595.28	1767.40
595.47	1855.46
595.66	1826.79
595.86	1617.90
596.05	1650.66
596.24	1783.78
596.43	1775.59
596.63	1746.92
596.82	1712.10
597.01	1841.12
597.21	1828.84
597.40	1744.87
597.59	1773.54
597.79	1728.49
597.98	1808.36
598.17	1738.73
598.36	1730.53
598.56	1765.35
598.75	1705.96
598.94	1757.16
599.14	1726.44
599.33	1728.49
599.52	1724.39
599.71	1714.15
599.91	1810.40
600.10	1830.88
600.29	1720.29
600.48	1804.26
600.68	1744.87
600.87	1710.05
601.06	1689.57
601.26	1783.78
601.45	1779.68
601.64	1708.01
601.83	1806.31
602.03	1728.49
602.22	1691.62
602.41	1738.73
602.60	1820.64
602.80	1736.68
602.99	1779.68
603.18	1789.92
603.37	1708.01
603.57	1763.30
603.76	1748.97
603.95	1724.39
604.14	1665.00
604.34	1681.38
604.53	1636.33
604.72	1791.97
604.91	1791.97
605.10	1812.45
605.30	1685.48
605.49	1791.97
605.68	1847.27
605.87	1832.93
606.07	1652.71
606.26	1665.00
606.45	1816.55
606.64	1769.44
606.84	1687.53
607.03	1689.57
607.22	1781.73
607.41	1691.62
607.60	1705.96
607.80	1769.44
607.99	1759.21
608.18	1697.77
608.37	1740.77
608.56	1798.12
608.76	1785.83
608.95	1834.98
609.14	1712.10
609.33	1779.68
609.52	1806.31
609.72	1712.10
609.91	1736.68
610.10	1613.80
610.29	1818.60
610.48	1773.54
610.68	1685.48
610.87	1728.49
611.06	1783.78
611.25	1607.66
611.44	1783.78
611.63	1693.67
611.83	1787.88
612.02	1693.67
612.21	1726.44
612.40	1595.37
612.59	1626.09
612.79	1585.13
612.98	1732.58
613.17	1861.60
613.36	1767.40
613.55	1736.68
613.74	1703.91
613.93	1685.48
614.13	1726.44
614.32	1738.73
614.51	1800.16
614.70	1591.27
614.89	1718.25
615.08	1742.82
615.28	2037.73
615.47	1665.00
615.66	1771.49
615.85	1730.53
616.04	1863.65
616.23	1714.15
616.42	1763.30
616.62	1753.06
616.81	1693.67
617.00	1722.34
617.19	1726.44
617.38	1695.72
617.57	1712.10
617.76	1748.97
617.95	1761.25
618.15	1705.96
618.34	1808.36
618.53	1675.24
618.72	1730.53
618.91	1736.68
619.10	1718.25
619.29	1740.77
619.48	1726.44
619.68	1658.85
619.87	1738.73
620.06	1640.42
620.25	1644.52
620.44	1708.01
620.63	1685.48
620.82	1683.43
621.01	1734.63
621.20	1691.62
621.39	1767.40
621.59	1687.53
621.78	1708.01
621.97	1669.09
622.16	1761.25
622.35	1693.67
622.54	1896.42
622.73	1734.63
622.92	1648.61
623.11	1742.82
623.30	1705.96
623.49	1777.64
623.68	1624.04
623.88	1816.55
624.07	1724.39
624.26	1710.05
624.45	1728.49
624.64	1683.43
624.83	1757.16
625.02	1779.68
625.21	1687.53
625.40	1775.59
625.59	1802.21
625.78	1671.14
625.97	1742.82
626.16	1771.49
626.35	1787.88
626.54	1701.86
626.74	1816.55
626.93	1656.81
627.12	1691.62
627.31	1734.63
627.50	1716.20
627.69	1714.15
627.88	1738.73
628.07	1742.82
628.26	1624.04
628.45	1681.38
628.64	1656.81
628.83	1779.68
629.02	1761.25
629.21	1734.63
629.40	1738.73
629.59	1615.85
629.78	1691.62
629.97	1708.01
630.16	1724.39
630.35	1658.85
630.54	1646.57
630.73	1665.00
630.92	1728.49
631.11	1697.77
631.30	1718.25
631.49	1710.05
631.68	1718.25
631.87	1748.97
632.06	1673.19
632.25	1837.03
632.44	1699.81
632.63	1736.68
632.82	1691.62
633.01	1593.32
633.20	1751.01
633.39	1705.96
633.58	1673.19
633.77	1693.67
633.96	1746.92
634.15	1763.30
634.34	1722.34
634.53	1716.20
634.72	1615.85
634.91	1662.95
635.10	1679.33
635.29	1748.97
635.48	1728.49
635.67	1642.47
635.86	1628.14
636.05	1730.53
636.24	1677.29
636.43	1701.86
636.62	1722.34
636.81	1626.09
637.00	1673.19
637.19	1714.15
637.38	1615.85
637.57	1714.15
637.76	1759.21
637.95	1720.29
638.14	1720.29
638.33	1671.14
638.52	1718.25
638.71	1654.76
638.89	1701.86
639.08	1767.40
639.27	1751.01
639.46	1722.34
639.65	1800.16
639.84	1796.07
640.03	1794.02
640.22	1712.10
640.41	1812.45
640.60	1662.95
640.79	1732.58
640.98	1628.14
641.17	1759.21
641.36	1705.96
641.55	1806.31
641.74	1646.57
641.92	1671.14
642.11	1714.15
642.30	1693.67
642.49	1665.00
642.68	1632.23
642.87	1718.25
643.06	1701.86
643.25	1712.10
643.44	1650.66
643.63	1757.16
643.82	1691.62
644.00	1705.96
644.19	1585.13
644.38	1603.56
644.57	1769.44
644.76	1751.01
644.95	1691.62
645.14	1708.01
645.33	1677.29
645.52	1736.68
645.71	1703.91
645.89	1693.67
646.08	1703.91
646.27	1667.05
646.46	1863.65
646.65	1652.71
646.84	1705.96
647.03	1619.94
647.22	1798.12
647.40	1705.96
647.59	1673.19
647.78	1650.66
647.97	1619.94
648.16	1689.57
648.35	1767.40
648.54	1722.34
648.73	1742.82
648.91	1730.53
649.10	1697.77
649.29	1701.86
649.48	1685.48
649.67	1691.62
649.86	1730.53
650.05	1652.71
650.23	1730.53
650.42	1718.25
650.61	1791.97
650.80	1658.85
650.99	1802.21
651.18	1767.40
651.36	1681.38
651.55	1753.06
651.74	1689.57
651.93	1665.00
652.12	1708.01
652.31	1742.82
652.49	1683.43
652.68	1699.81
652.87	1791.97
653.06	1755.11
653.25	1796.07
653.44	1732.58
653.62	1779.68
653.81	1669.09
654.00	1763.30
654.19	1726.44
654.38	1873.89
654.56	1742.82
654.75	1660.90
654.94	1738.73
655.13	1771.49
655.32	1734.63
655.51	1771.49
655.69	1669.09
655.88	1771.49
656.07	1685.48
656.26	1699.81
656.45	1667.05
656.63	1744.87
656.82	1697.77
657.01	1773.54
657.20	1687.53
657.38	1783.78
657.57	1699.81
657.76	1679.33
657.95	1724.39
658.14	1595.37
658.32	1644.52
658.51	1617.90
658.70	1757.16
658.89	1705.96
659.08	1716.20
659.26	1783.78
659.45	1619.94
659.64	1701.86
659.83	1632.23
660.01	1970.15
660.20	1767.40
660.39	1804.26
660.58	1644.52
660.76	1740.77
660.95	1634.28
661.14	1722.34
661.33	1652.71
661.51	1681.38
661.70	1712.10
661.89	1734.63
662.08	1703.91
662.26	1691.62
662.45	1736.68
662.64	1783.78
662.83	1742.82
663.01	1679.33
663.20	1644.52
663.39	1773.54
663.58	1759.21
663.76	1724.39
663.95	1728.49
664.14	1607.66
664.32	1716.20
664.51	1673.19
664.70	1595.37
664.89	1718.25
665.07	1593.32
665.26	1724.39
665.45	1593.32
665.64	1734.63
665.82	1593.32
666.01	1802.21
666.20	1636.33
666.38	1767.40
666.57	1767.40
666.76	2144.22
666.95	4491.20
667.13	10272.61
667.32	15286.04
667.51	17934.06
667.69	19080.92
667.88	17655.54
668.07	12547.90
668.25	9529.20
668.44	8079.24
668.63	7532.43
668.81	6766.49
669.00	6260.64
669.19	5771.18
669.38	5179.31
669.56	4509.63
669.75	3987.40
669.94	3426.25
670.12	2897.88
670.31	2578.39
670.50	2344.92
670.68	2082.78
670.87	1978.34
671.06	1775.59
671.24	1830.88
671.43	1812.45
671.62	1701.86
671.80	1671.14
671.99	1691.62
672.18	1746.92
672.36	1765.35
672.55	1761.25
672.74	1697.77
672.92	1736.68
673.11	1740.77
673.29	1636.33
673.48	1730.53
673.67	1630.18
673.85	1771.49
674.04	1703.91
674.23	1693.67
674.41	1794.02
674.60	1634.28
674.79	1554.41
674.97	1718.25
675.16	1705.96
675.34	1787.88
675.53	1689.57
675.72	1708.01
675.90	1847.27
676.09	1667.05
676.28	1720.29
676.46	1662.95
676.65	1767.40
676.83	1603.56
677.02	1699.81
677.21	1695.72
677.39	1804.26
677.58	1714.15
677.77	1677.29
677.95	1712.10
678.14	1701.86
678.32	1665.00
678.51	1722.34
678.70	1904.61
678.88	1693.67
679.07	1716.20
679.25	1705.96
679.44	1689.57
679.63	1656.81
679.81	1703.91
680.00	1722.34
680.18	1712.10
680.37	1765.35
680.55	1708.01
680.74	1644.52
680.93	1636.33
681.11	1689.57
681.30	1730.53
681.48	1689.57
681.67	1671.14
681.85	1757.16
682.04	1667.05
682.23	1681.38
682.41	1665.00
682.60	1730.53
682.78	1710.05
682.97	1683.43
683.15	1652.71
683.34	1730.53
683.53	1755.11
683.71	1578.98
683.90	1806.31
684.08	1796.07
684.27	1714.15
684.45	1734.63
684.64	1742.82
684.82	1718.25
685.01	1812.45
685.19	1679.33
685.38	1834.98
685.57	1794.02
685.75	1728.49
685.94	1693.67
686.12	1570.79
686.31	1615.85
686.49	1703.91
686.68	1597.42
686.86	1665.00
687.05	1759.21
687.23	1759.21
687.42	1658.85
687.60	1628.14
687.79	1714.15
687.97	1771.49
688.16	1683.43
688.34	1753.06
688.53	1677.29
688.71	1691.62
688.90	1708.01
689.08	1751.01
689.27	1570.79
689.45	1757.16
689.64	1732.58
689.82	1761.25
690.01	1718.25
690.19	1720.29
690.38	1767.40
690.56	1738.73
690.75	1705.96
690.93	1626.09
691.12	1636.33
691.30	1769.44
691.49	1738.73
691.67	1648.61
691.86	1777.64
692.04	1646.57
692.23	1626.09
692.41	1648.61
692.60	1853.41
692.78	1720.29
692.97	1730.53
693.15	1714.15
693.34	1830.88
693.52	1705.96
693.71	1613.80
693.89	1685.48
694.08	1630.18
694.26	1681.38
694.44	1742.82
694.63	1718.25
694.81	1644.52
695.00	1705.96
695.18	1751.01
695.37	1861.60
695.55	1736.68
695.74	1624.04
695.92	1646.57
696.10	1734.63
696.29	1621.99
696.47	1632.23
696.66	1564.65
696.84	1736.68
697.03	1712.10
697.21	1755.11
697.40	2303.96
697.58	1732.58
697.76	1701.86
697.95	1677.29
698.13	1660.90
698.32	1673.19
698.50	1728.49
698.68	1705.96
698.87	1746.92
699.05	1794.02
699.24	1773.54
699.42	1724.39
699.61	1742.82
699.79	1812.45
699.97	1693.67
700.16	1624.04
700.34	1611.75
700.53	1609.70
700.71	1781.73
700.89	1730.53
701.08	1767.40
701.26	1771.49
701.45	2158.56
701.63	1738.73
701.81	1646.57
702.00	1667.05
702.18	1708.01
702.37	1701.86
702.55	1814.50
702.73	1732.58
702.92	1656.81
703.10	1742.82
703.28	1785.83
703.47	1644.52
703.65	1710.05
703.84	1847.27
704.02	1656.81
704.20	1791.97
704.39	1669.09
704.57	1703.91
704.75	1800.16
704.94	1794.02
705.12	1716.20
705.30	1812.45
705.49	2275.29
705.67	4440.00
705.86	9512.81
706.04	12642.11
706.22	14448.42
706.41	15632.15
706.59	13911.85
706.77	9664.36
706.96	7415.69
707.14	6662.04
707.32	5924.77
707.51	5568.43
707.69	4974.52
707.87	4370.37
708.06	3581.90
708.24	3002.32
708.42	2508.76
708.61	2330.59
708.79	1914.85
708.97	1808.36
709.16	1798.12
709.34	1808.36
709.52	1812.45
709.71	1767.40
709.89	1834.98
710.07	1632.23
710.26	1730.53
710.44	1640.42
710.62	1763.30
710.80	1705.96
710.99	1738.73
711.17	1738.73
711.35	1665.00
711.54	1767.40
711.72	1751.01
711.90	1718.25
712.09	1685.48
712.27	1677.29
712.45	1734.63
712.63	1708.01
712.82	1710.05
713.00	1710.05
713.18	1644.52
713.37	1773.54
713.55	1730.53
713.73	1665.00
713.91	1689.57
714.10	1689.57
714.28	1669.09
714.46	1714.15
714.65	1742.82
714.83	1738.73
715.01	1722.34
715.19	1644.52
715.38	1628.14
715.56	1712.10
715.74	1701.86
715.92	1603.56
716.11	1742.82
716.29	1587.18
716.47	1767.40
716.65	1673.19
716.84	1611.75
717.02	1667.05
717.20	1638.38
717.38	1683.43
717.57	1757.16
717.75	1611.75
717.93	1634.28
718.11	1699.81
718.30	1642.47
718.48	1716.20
718.66	1732.58
718.84	1804.26
719.03	1665.00
719.21	1617.90
719.39	1851.36
719.57	1748.97
719.75	1771.49
719.94	1691.62
720.12	1648.61
720.30	1705.96
720.48	1761.25
720.67	1632.23
720.85	1665.00
721.03	1714.15
721.21	1722.34
721.39	1771.49
721.58	1677.29
721.76	1705.96
721.94	1667.05
722.12	1769.44
722.30	1771.49
722.49	1669.09
722.67	1830.88
722.85	1691.62
723.03	1662.95
723.21	1683.43
723.40	1665.00
723.58	1654.76
723.76	1685.48
723.94	1744.87
724.12	1751.01
724.30	1722.34
724.49	1718.25
724.67	1644.52
724.85	1779.68
725.03	1609.70
725.21	1777.64
725.40	1714.15
725.58	1755.11
725.76	1728.49
725.94	1669.09
726.12	1570.79
726.30	1636.33
726.49	1757.16
726.67	1718.25
726.85	1746.92
727.03	1701.86
727.21	2138.08
727.39	3004.37
727.57	3737.54
727.76	4208.58
727.94	4464.57
728.12	4376.51
728.30	3753.93
728.48	3080.14
728.66	2688.98
728.84	2439.13
729.03	2254.81
729.21	2213.85
729.39	2007.01
729.57	1875.94
729.75	1781.73
729.93	1785.83
730.11	1722.34
730.30	1683.43
730.48	1699.81
730.66	1796.07
730.84	1757.16
731.02	1712.10
731.20	1722.34
731.38	1755.11
731.56	1660.90
731.74	1638.38
731.93	1736.68
732.11	1693.67
732.29	1746.92
732.47	1755.11
732.65	1794.02
732.83	1781.73
733.01	1796.07
733.19	1642.47
733.37	1687.53
733.56	1751.01
733.74	1624.04
733.92	1722.34
734.10	1658.85
734.28	1761.25
734.46	1636.33
734.64	1691.62
734.82	1656.81
735.00	1642.47
735.18	1615.85
735.36	1701.86
735.54	1744.87
735.73	1701.86
735.91	1667.05
736.09	1755.11
736.27	1767.40
736.45	1701.86
736.63	1595.37
736.81	1673.19
736.99	1759.21
737.17	1769.44
737.35	1677.29
737.53	1699.81
737.71	1710.05
737.89	1800.16
738.07	1689.57
738.25	1685.48
738.43	1554.41
738.61	1689.57
738.80	1693.67
738.98	1632.23
739.16	1703.91
739.34	1699.81
739.52	1826.79
739.70	1783.78
739.88	1791.97
740.06	1798.12
740.24	1685.48
740.42	1722.34
740.60	1583.08
740.78	1667.05
740.96	1615.85
741.14	1693.67
741.32	1722.34
741.50	1677.29
741.68	1828.84
741.86	1818.60
742.04	1730.53
742.22	1648.61
742.40	1691.62
742.58	1703.91
742.76	1626.09
742.94	1746.92
743.12	1673.19
743.30	1691.62
743.48	1671.14
743.66	1746.92
743.84	1718.25
744.02	1720.29
744.20	1609.70
744.38	1638.38
744.56	1695.72
744.74	1824.74
744.92	1681.38
745.10	1699.81
745.28	1787.88
745.46	1816.55
745.64	1648.61
745.82	1753.06
746.00	1699.81
746.18	1689.57
746.36	1562.60
746.54	1716.20
746.72	1697.77
746.90	1628.14
747.08	1783.78
747.26	1646.57
747.44	1785.83
747.62	1716.20
747.80	1705.96
747.98	1763.30
748.15	1648.61
748.33	1771.49
748.51	1734.63
748.69	1738.73
748.87	1679.33
749.05	1640.42
749.23	1679.33
749.41	1738.73
749.59	1753.06
749.77	1703.91
749.95	1685.48
750.13	1609.70
750.31	1742.82
750.49	1662.95
750.67	1665.00
750.85	1781.73
751.03	1697.77
751.20	1771.49
751.38	1687.53
751.56	1681.38
751.74	1748.97
751.92	1685.48
752.10	1669.09
752.28	1822.69
752.46	1660.90
752.64	1740.77
752.82	1650.66
753.00	1724.39
753.18	1601.51
753.35	1656.81
753.53	1662.95
753.71	1705.96
753.89	1763.30
754.07	1636.33
754.25	1773.54
754.43	1679.33
754.61	1570.79
754.79	1701.86
754.97	1714.15
755.14	1859.56
755.32	1601.51
755.50	1728.49
755.68	1755.11
755.86	1642.47
756.04	1697.77
756.22	1648.61
756.40	1744.87
756.57	1810.40
756.75	1632.23
756.93	1869.80
757.11	1652.71
757.29	1640.42
757.47	1591.27
757.65	1605.61
757.82	1589.22
758.00	1642.47
758.18	1714.15
758.36	1699.81
758.54	1804.26
758.72	1581.03
758.90	1699.81
759.07	1689.57
759.25	1697.77
759.43	1710.05
759.61	1636.33
759.79	2152.42
759.97	1718.25
760.15	1677.29
760.32	1665.00
760.50	1738.73
760.68	1763.30
760.86	1570.79
761.04	1851.36
761.22	1787.88
761.39	1634.28
761.57	1746.92
761.75	1716.20
761.93	1781.73
762.11	1744.87
762.28	1689.57
762.46	1611.75
762.64	1757.16
762.82	1626.09
763.00	1718.25
763.18	1851.36
763.35	1650.66
763.53	1773.54
763.71	1722.34
763.89	1708.01
764.07	1755.11
764.24	1703.91
764.42	1746.92
764.60	1660.90
764.78	1724.39
764.96	1732.58
765.13	1738.73
765.31	1683.43
765.49	1726.44
765.67	1648.61
765.84	1703.91
766.02	1738.73
766.20	1570.79
766.38	1681.38
766.56	1703.91
766.73	1773.54
766.91	1697.77
767.09	1708.01
767.27	1724.39
767.44	1648.61
767.62	1701.86
767.80	1708.01
767.98	1589.22
768.15	1708.01
768.33	1748.97
768.51	1763.30
768.69	1712.10
768.87	1705.96
769.04	1736.68
769.22	1828.84
769.40	1710.05
769.58	1845.22
769.75	1712.10
769.93	1806.31
770.11	1677.29
770.28	1611.75
770.46	1755.11
770.64	1708.01
770.82	1701.86
770.99	1574.89
771.17	1738.73
771.35	1673.19
771.53	1667.05
771.70	1615.85
771.88	1675.24
772.06	1671.14
772.23	1683.43
772.41	1689.57
772.59	1701.86
772.77	1636.33
772.94	1703.91
773.12	1748.97
773.30	1693.67
773.47	1695.72
773.65	1683.43
773.83	1804.26
774.01	1689.57
774.18	1570.79
774.36	1587.18
774.54	1574.89
774.71	1718.25
774.89	1628.14
775.07	1642.47
775.24	1660.90
775.42	1722.34
775.60	1814.50
775.78	1658.85
775.95	1714.15
776.13	1710.05
776.31	1554.41
776.48	1654.76
776.66	1699.81
776.84	1654.76
777.01	1699.81
777.19	1632.23
777.37	1732.58
777.54	1699.81
777.72	1865.70
777.90	1714.15
778.07	1525.74
778.25	1861.60
778.43	1755.11
778.60	1615.85
778.78	1722.34
778.96	1789.92
779.13	1693.67
779.31	1728.49
779.49	1738.73
779.66	1716.20
779.84	1726.44
780.01	1665.00
780.19	1648.61
780.37	1701.86
780.54	1794.02
780.72	1636.33
780.90	1742.82
781.07	1697.77
781.25	1687.53
781.43	1693.67
781.60	1665.00
781.78	1748.97
781.95	1736.68
782.13	1679.33
782.31	1648.61
782.48	1558.50
782.66	1697.77
782.83	1789.92
783.01	1771.49
783.19	1710.05
783.36	1753.06
783.54	1673.19
783.72	1665.00
783.89	1703.91
784.07	1681.38
784.24	1673.19
784.42	1808.36
784.60	1712.10
784.77	1746.92
784.95	1621.99
785.12	1636.33
785.30	1658.85
785.47	1632.23
785.65	1607.66
785.83	1697.77
786.00	1697.77
786.18	1693.67
786.35	1587.18
786.53	1613.80
786.71	1724.39
786.88	1761.25
787.06	1708.01
787.23	1667.05
787.41	1576.94
787.58	1691.62
787.76	1728.49
787.94	1652.71
788.11	1640.42
788.29	1634.28
788.46	1648.61
788.64	1634.28
788.81	1767.40
788.99	1667.05
789.16	1691.62
789.34	1636.33
789.52	1652.71
789.69	1693.67
789.87	1654.76
790.04	1640.42
790.22	1677.29
790.39	1779.68
790.57	1538.02
790.74	1679.33
790.92	1753.06
791.09	1609.70
791.27	1722.34
791.44	1834.98
791.62	1728.49
791.79	1769.44
791.97	1601.51
792.15	1851.36
792.32	1722.34
792.50	1714.15
792.67	1740.77
792.85	1740.77
793.02	1701.86
793.20	1716.20
793.37	1736.68
793.55	1644.52
793.72	1681.38
793.90	1695.72
794.07	1728.49
794.25	1675.24
794.42	1732.58
794.60	1691.62
794.77	1679.33
794.95	1734.63
795.12	1746.92
795.30	1740.77
795.47	1615.85
795.65	1812.45
795.82	1683.43
796.00	1642.47
796.17	1751.01
796.34	1705.96
796.52	1650.66
796.69	1767.40
796.87	1763.30
797.04	1687.53
797.22	1736.68
797.39	1665.00
797.57	1773.54
797.74	1710.05
797.92	1744.87
798.09	1595.37
798.27	1732.58
798.44	1720.29
798.62	1738.73
798.79	1665.00
798.96	1667.05
799.14	1740.77
799.31	1804.26
799.49	1732.58
799.66	1644.52
799.84	1691.62
800.01	1607.66
800.19	1644.52
800.36	1578.98
800.53	1779.68
800.71	1681.38
800.88	1787.88
801.06	1619.94
801.23	1621.99
801.41	1636.33
801.58	1581.03
801.75	1685.48
801.93	1748.97
802.10	1693.67
802.28	1650.66
802.45	1710.05
802.63	1724.39
802.80	1828.84
802.97	1730.53
803.15	1699.81
803.32	1673.19
803.50	1687.53
803.67	1652.71
803.84	1669.09
804.02	1705.96
804.19	1658.85
804.37	1570.79
804.54	1636.33
804.71	1683.43
804.89	1671.14
805.06	1640.42
805.24	1621.99
805.41	1701.86
805.58	1589.22
805.76	1810.40
805.93	1683.43
806.10	1787.88
806.28	1832.93
806.45	1761.25
806.63	1718.25
806.80	1658.85
806.97	1783.78
807.15	1755.11
807.32	1755.11
807.49	1730.53
807.67	1656.81
807.84	1738.73
808.01	1677.29
808.19	1841.12
808.36	1837.03
808.54	1626.09
808.71	1636.33
808.88	1701.86
809.06	1683.43
809.23	1804.26
809.40	1665.00
809.58	1703.91
809.75	1710.05
809.92	1609.70
810.10	1861.60
810.27	1665.00
810.44	1665.00
810.62	1757.16
810.79	1769.44
810.96	1665.00
811.14	1665.00
811.31	1660.90
811.48	1716.20
811.66	1738.73
811.83	1736.68
812.00	1757.16
812.18	1753.06
812.35	1822.69
812.52	1656.81
812.69	1667.05
812.87	1705.96
813.04	1611.75
813.21	1671.14
813.39	1660.90
813.56	1601.51
813.73	1804.26
813.91	1642.47
814.08	1697.77
814.25	1738.73
814.42	1593.32
814.60	1675.24
814.77	1652.71
814.94	1777.64
815.12	1632.23
815.29	1765.35
815.46	1677.29
815.63	1730.53
815.81	1685.48
815.98	1714.15
816.15	1634.28
816.33	1730.53
816.50	1701.86
816.67	1654.76
816.84	1634.28
817.02	1675.24
817.19	1724.39
817.36	1728.49
817.53	1769.44
817.71	1587.18
817.88	1691.62
818.05	1662.95
818.22	1634.28
818.40	1841.12
818.57	1683.43
818.74	1732.58
818.91	1609.70
819.09	1673.19
819.26	1755.11
819.43	1640.42
819.60	1759.21
819.78	1665.00
819.95	1812.45
820.12	1685.48
820.29	1781.73
820.47	1769.44
820.64	1699.81
820.81	1525.74
820.98	1636.33
821.15	1581.03
821.33	1738.73
821.50	1605.61
821.67	1732.58
821.84	1671.14
822.02	1730.53
822.19	1775.59
822.36	1656.81
822.53	1714.15
822.70	1636.33
822.88	1701.86
823.05	1779.68
823.22	1648.61
823.39	1740.77
823.56	1658.85
823.74	1712.10
823.91	1679.33
824.08	1665.00
824.25	1658.85
824.42	1765.35
824.60	1662.95
824.77	1783.78
824.94	1683.43
825.11	1708.01
825.28	1660.90
825.45	1673.19
825.63	1714.15
825.80	1667.05
825.97	1695.72
826.14	1691.62
826.31	1605.61
826.48	1773.54
826.66	1615.85
826.83	1724.39
827.00	1726.44
827.17	1624.04
827.34	1673.19
827.51	1677.29
827.69	1693.67
827.86	1669.09
828.03	1767.40
828.20	1656.81
828.37	1665.00
828.54	1675.24
828.71	1681.38
828.89	1791.97
829.06	1714.15
829.23	1738.73
829.40	1673.19
829.57	1714.15
829.74	1683.43
829.91	1638.38
830.09	1738.73
830.26	1724.39
830.43	1810.40
830.60	1732.58
830.77	1658.85
830.94	1734.63
831.11	1728.49
831.28	1679.33
831.46	1826.79
831.63	1697.77
831.80	1710.05
831.97	1626.09
832.14	1679.33
832.31	1646.57
832.48	1646.57
832.65	1816.55
832.82	1675.24
832.99	1746.92
833.17	1673.19
833.34	1818.60
833.51	1703.91
833.68	1646.57
833.85	1712.10
834.02	1632.23
834.19	1632.23
834.36	1671.14
834.53	1724.39
834.70	1800.16
834.87	1761.25
835.04	1742.82
835.22	1671.14
835.39	1753.06
835.56	1656.81
835.73	1667.05
835.90	1689.57
836.07	1683.43
836.24	1789.92
836.41	1699.81
836.58	1656.81
836.75	1757.16
836.92	1660.90
837.09	1628.14
837.26	1718.25
837.43	1677.29
837.60	1665.00
837.77	1679.33
837.94	1775.59
838.12	1794.02
838.29	1755.11
838.46	1583.08
838.63	1705.96
838.80	1716.20
838.97	1798.12
839.14	1757.16
839.31	1683.43
839.48	1685.48
839.65	1662.95
839.82	1726.44
839.99	1718.25
840.16	1722.34
840.33	1705.96
840.50	1705.96
840.67	1748.97
840.84	1564.65
841.01	1703.91
841.18	1648.61
841.35	1705.96
841.52	1708.01
841.69	1785.83
841.86	1732.58
842.03	1615.85
842.20	1722.34
842.37	1691.62
842.54	1689.57
842.71	1740.77
842.88	1671.14
843.05	1722.34
843.22	1656.81
843.39	1693.67
843.56	1712.10
843.73	1728.49
843.90	1634.28
844.07	1720.29
844.24	1732.58
844.41	1804.26
844.58	1701.86
844.75	1724.39
844.92	1748.97
845.09	1673.19
845.26	1667.05
845.43	1759.21
845.60	1675.24
845.77	1751.01
845.94	1693.67
846.10	1755.11
846.27	1595.37
846.44	1617.90
846.61	1669.09
846.78	1712.10
846.95	1783.78
847.12	1671.14
847.29	1652.71
847.46	1699.81
847.63	1675.24
847.80	1646.57
847.97	1701.86
848.14	1779.68
848.31	1677.29
848.48	1630.18
848.65	1681.38
848.82	1558.50
848.98	1804.26
849.15	1742.82
849.32	1734.63
849.49	1677.29
849.66	1642.47
849.83	1687.53
850.00	1708.01
850.17	1736.68
850.34	1705.96
850.51	1615.85
850.68	1611.75
850.85	1804.26
851.01	1722.34
851.18	1710.05
851.35	1734.63
851.52	1742.82
851.69	1701.86
851.86	1638.38
852.03	1665.00
852.20	1662.95
852.37	1716.20
852.53	1605.61
852.70	1619.94
852.87	1693.67
853.04	1789.92
853.21	1742.82
853.38	1722.34
853.55	1763.30
853.72	1785.83
853.89	1636.33
854.05	1693.67
854.22	1662.95
854.39	1763.30
854.56	1699.81
854.73	1718.25
854.90	1617.90
855.07	1718.25
855.23	1703.91
855.40	1685.48
855.57	1695.72
855.74	1531.88
855.91	1908.71
856.08	1591.27
856.25	1587.18
856.41	1650.66
856.58	1660.90
856.75	1763.30
856.92	1675.24
857.09	1695.72
857.26	1669.09
857.42	1644.52
857.59	1708.01
857.76	1619.94
857.93	1708.01
858.10	1769.44
858.27	1703.91
858.43	1751.01
858.60	1660.90
858.77	1562.60
858.94	1619.94
859.11	1654.76
859.27	1691.62
859.44	1640.42
859.61	1849.32
859.78	1665.00
859.95	1671.14
860.12	1652.71
860.28	1771.49
860.45	1742.82
860.62	1710.05
860.79	1738.73
860.95	1665.00
861.12	1697.77
861.29	1693.67
861.46	1642.47
861.63	1724.39
861.79	1732.58
861.96	1624.04
862.13	1712.10
862.30	1769.44
862.47	1738.73
862.63	1566.70
862.80	1728.49
862.97	1783.78
863.14	1689.57
863.30	1736.68
863.47	1703.91
863.64	1808.36
863.81	1787.88
863.97	1718.25
864.14	1736.68
864.31	1726.44
864.48	1724.39
864.65	1705.96
864.81	1703.91
864.98	1720.29
865.15	1673.19
865.32	1708.01
865.48	1740.77
865.65	1724.39
865.82	1638.38
865.98	1630.18
866.15	1708.01
866.32	1646.57
866.49	1683.43
866.65	1820.64
866.82	1654.76
866.99	1648.61
867.16	1626.09
867.32	1675.24
867.49	1701.86
867.66	1730.53
867.83	1632.23
867.99	1617.90
868.16	1669.09
868.33	1624.04
868.49	1732.58
868.66	1671.14
868.83	1751.01
868.99	1652.71
869.16	1722.34
869.33	1791.97
869.50	1755.11
869.66	1658.85
869.83	1689.57
870.00	1660.90
870.16	1695.72
870.33	1691.62
870.50	1755.11
870.66	1759.21
870.83	1806.31
871.00	1728.49
871.17	1757.16
871.33	1697.77
871.50	1654.76
871.67	1640.42
871.83	1578.98
872.00	1839.08
872.17	1689.57
872.33	1814.50
872.50	1712.10
872.67	1660.90
872.83	1673.19
873.00	1751.01
873.17	1765.35
873.33	1759.21
873.50	1724.39
873.67	1677.29
873.83	1611.75
874.00	1646.57
874.16	1738.73
874.33	1671.14
874.50	1605.61
874.66	1765.35
874.83	1691.62
875.00	1791.97
875.16	1642.47
875.33	1681.38
875.50	1591.27
875.66	1621.99
875.83	1603.56
875.99	1730.53
876.16	1701.86
876.33	1581.03
876.49	1763.30
876.66	1673.19
876.83	1734.63
876.99	1562.60
877.16	1701.86
877.32	1654.76
877.49	1671.14
877.66	1701.86
877.82	1755.11
877.99	1769.44
878.15	1677.29
878.32	1679.33
878.49	1640.42
878.65	1662.95
878.82	1748.97
878.98	1619.94
879.15	1794.02
879.32	1814.50
879.48	1718.25
879.65	1699.81
879.81	1705.96
879.98	1691.62
880.15	1662.95
880.31	1710.05
880.48	1617.90
880.64	1818.60
880.81	1710.05
880.97	1826.79
881.14	1824.74
881.31	1613.80
881.47	1816.55
881.64	1695.72
881.80	1554.41
881.97	1644.52
882.13	1761.25
882.30	1677.29
882.47	1599.46
882.63	1638.38
882.80	1703.91
882.96	1665.00
883.13	1650.66
883.29	1759.21
883.46	1769.44
883.62	1804.26
883.79	1665.00
883.95	1693.67
884.12	1755.11
884.29	1824.74
884.45	1667.05
884.62	1714.15
884.78	1576.94
884.95	1769.44
885.11	1658.85
885.28	1681.38
885.44	1652.71
885.61	1681.38
885.77	1757.16
885.94	1687.53
886.10	1722.34
886.27	1644.52
886.43	1791.97
886.60	1796.07
886.76	1665.00
886.93	1636.33
887.09	1691.62
887.26	1601.51
887.42	1621.99
887.59	1751.01
887.75	1812.45
887.92	1734.63
888.08	1751.01
888.25	1820.64
888.41	1740.77
888.58	1779.68
888.74	1619.94
888.91	1626.09
>>>>>End Processed Spectral Data<<<<<
