SpectraSuite Data File
++++++++++++++++++++++++++++++++++++
Date: Mon Jun 06 15:09:37 CEST 2016
User: root
Dark Spectrum Present: No
Reference Spectrum Present: No
Number of Sampled Component Spectra: 1
Spectrometers: USB4C02835
Integration Time (usec): 100000 (USB4C02835)
Spectra Averaged: 1 (USB4C02835)
Boxcar Smoothing: 0 (USB4C02835)
Correct for Electrical Dark: No (USB4C02835)
Strobe/Lamp Enabled: No (USB4C02835)
Correct for Detector Non-linearity: No (USB4C02835)
Correct for Stray Light: No (USB4C02835)
Number of Pixels in Processed Spectrum: 3648
>>>>>Begin Processed Spectral Data<<<<<
177.47	1478.63
177.69	1478.63
177.91	1478.63
178.13	1478.63
178.36	1466.35
178.58	1626.09
178.80	1724.39
179.02	1701.86
179.24	1665.00
179.46	1673.19
179.68	1765.35
179.90	1710.05
180.13	1656.81
180.35	1716.20
180.57	1701.86
180.79	1736.68
181.01	1718.25
181.23	1667.05
181.45	1779.68
181.67	1751.01
181.90	1705.96
182.12	1695.72
182.34	1685.48
182.56	1767.40
182.78	1771.49
183.00	1708.01
183.22	1724.39
183.44	1599.46
183.66	1869.80
183.89	1843.17
184.11	1732.58
184.33	1765.35
184.55	1708.01
184.77	1834.98
184.99	1710.05
185.21	1728.49
185.43	1830.88
185.65	1744.87
185.87	1806.31
186.10	1861.60
186.32	1755.11
186.54	1728.49
186.76	1730.53
186.98	1757.16
187.20	1742.82
187.42	1720.29
187.64	1695.72
187.86	1763.30
188.08	1746.92
188.30	1630.18
188.52	1726.44
188.75	1834.98
188.97	1843.17
189.19	1712.10
189.41	1677.29
189.63	1757.16
189.85	1705.96
190.07	1585.13
190.29	1626.09
190.51	1710.05
190.73	1673.19
190.95	1814.50
191.17	1673.19
191.39	1626.09
191.61	1701.86
191.84	1613.80
192.06	1779.68
192.28	1671.14
192.50	1851.36
192.72	1716.20
192.94	1726.44
193.16	1832.93
193.38	1759.21
193.60	1695.72
193.82	1681.38
194.04	1761.25
194.26	1714.15
194.48	1693.67
194.70	1679.33
194.92	1775.59
195.14	1753.06
195.36	1644.52
195.58	1757.16
195.80	1724.39
196.02	1695.72
196.24	1662.95
196.46	1626.09
196.69	1726.44
196.91	1912.80
197.13	1681.38
197.35	1697.77
197.57	1775.59
197.79	1734.63
198.01	1734.63
198.23	1789.92
198.45	1748.97
198.67	1681.38
198.89	1732.58
199.11	1734.63
199.33	1685.48
199.55	1576.94
199.77	1644.52
199.99	1685.48
200.21	1630.18
200.43	1677.29
200.65	1652.71
200.87	1619.94
201.09	1675.24
201.31	1734.63
201.53	1804.26
201.75	1714.15
201.97	1636.33
202.19	1654.76
202.41	1736.68
202.63	1800.16
202.85	1712.10
203.07	1714.15
203.29	1732.58
203.51	1675.24
203.73	1689.57
203.95	1980.39
204.17	1736.68
204.39	1742.82
204.61	1701.86
204.83	1656.81
205.05	1771.49
205.27	1791.97
205.49	1824.74
205.71	1726.44
205.93	1634.28
206.15	1683.43
206.37	1675.24
206.59	1718.25
206.81	1695.72
207.03	1638.38
207.25	1640.42
207.47	1712.10
207.69	1644.52
207.91	1771.49
208.13	1800.16
208.34	1628.14
208.56	1652.71
208.78	1714.15
209.00	1624.04
209.22	1738.73
209.44	1697.77
209.66	1644.52
209.88	1693.67
210.10	1714.15
210.32	1667.05
210.54	1720.29
210.76	1679.33
210.98	1753.06
211.20	1605.61
211.42	1685.48
211.64	1804.26
211.86	1687.53
212.08	1781.73
212.30	1656.81
212.52	1658.85
212.74	1697.77
212.96	1744.87
213.17	1773.54
213.39	1726.44
213.61	1849.32
213.83	1724.39
214.05	1671.14
214.27	1787.88
214.49	1626.09
214.71	1751.01
214.93	1734.63
215.15	1714.15
215.37	1730.53
215.59	1617.90
215.81	1755.11
216.03	1802.21
216.24	1669.09
216.46	1632.23
216.68	1720.29
216.90	1757.16
217.12	1755.11
217.34	1667.05
217.56	1755.11
217.78	1738.73
218.00	1728.49
218.22	1665.00
218.44	1689.57
218.66	1724.39
218.87	1822.69
219.09	1679.33
219.31	1705.96
219.53	1751.01
219.75	1748.97
219.97	1615.85
220.19	1667.05
220.41	1691.62
220.63	1791.97
220.85	1771.49
221.06	1693.67
221.28	1834.98
221.50	1720.29
221.72	1748.97
221.94	1687.53
222.16	1710.05
222.38	1662.95
222.60	1808.36
222.82	1642.47
223.03	1720.29
223.25	1570.79
223.47	1724.39
223.69	1796.07
223.91	1751.01
224.13	1699.81
224.35	1730.53
224.57	1771.49
224.78	1720.29
225.00	1628.14
225.22	1669.09
225.44	1732.58
225.66	1781.73
225.88	1726.44
226.10	1722.34
226.32	1673.19
226.53	1779.68
226.75	1718.25
226.97	1648.61
227.19	1634.28
227.41	1705.96
227.63	1740.77
227.85	1728.49
228.06	1734.63
228.28	1642.47
228.50	1720.29
228.72	1697.77
228.94	1710.05
229.16	1562.60
229.37	1681.38
229.59	1644.52
229.81	1720.29
230.03	1714.15
230.25	1705.96
230.47	1703.91
230.69	1675.24
230.90	1710.05
231.12	1656.81
231.34	1701.86
231.56	1785.83
231.78	1634.28
232.00	1669.09
232.21	1687.53
232.43	1652.71
232.65	1591.27
232.87	1759.21
233.09	1656.81
233.30	1652.71
233.52	1667.05
233.74	1638.38
233.96	1695.72
234.18	1763.30
234.40	1779.68
234.61	1822.69
234.83	1634.28
235.05	1665.00
235.27	1884.13
235.49	1771.49
235.70	1724.39
235.92	1767.40
236.14	1701.86
236.36	1853.41
236.58	1693.67
236.79	1755.11
237.01	1746.92
237.23	1718.25
237.45	1812.45
237.67	1658.85
237.88	1658.85
238.10	1826.79
238.32	1681.38
238.54	1722.34
238.76	1722.34
238.97	1634.28
239.19	1728.49
239.41	1787.88
239.63	1812.45
239.85	1619.94
240.06	1759.21
240.28	1603.56
240.50	1736.68
240.72	1644.52
240.93	1763.30
241.15	1824.74
241.37	1587.18
241.59	1748.97
241.81	1665.00
242.02	1736.68
242.24	1718.25
242.46	1701.86
242.68	1679.33
242.89	1718.25
243.11	1710.05
243.33	1740.77
243.55	1714.15
243.76	1787.88
243.98	1683.43
244.20	1714.15
244.42	1689.57
244.64	1746.92
244.85	1644.52
245.07	1693.67
245.29	1681.38
245.51	1662.95
245.72	1726.44
245.94	1794.02
246.16	1652.71
246.38	1742.82
246.59	1669.09
246.81	1617.90
247.03	1775.59
247.24	1581.03
247.46	1683.43
247.68	1773.54
247.90	1636.33
248.11	1646.57
248.33	1767.40
248.55	1646.57
248.77	1730.53
248.98	1695.72
249.20	1794.02
249.42	1697.77
249.64	1812.45
249.85	1763.30
250.07	1689.57
250.29	1728.49
250.50	1769.44
250.72	1619.94
250.94	1708.01
251.16	1886.18
251.37	1718.25
251.59	1693.67
251.81	1746.92
252.02	1722.34
252.24	1730.53
252.46	1816.55
252.68	1689.57
252.89	1740.77
253.11	1613.80
253.33	1789.92
253.54	1810.40
253.76	1648.61
253.98	1677.29
254.20	1753.06
254.41	1626.09
254.63	1712.10
254.85	1628.14
255.06	1642.47
255.28	1746.92
255.50	1775.59
255.71	1693.67
255.93	1617.90
256.15	1611.75
256.36	1771.49
256.58	1705.96
256.80	1779.68
257.02	1681.38
257.23	1675.24
257.45	1761.25
257.67	1798.12
257.88	1730.53
258.10	1691.62
258.32	1785.83
258.53	1697.77
258.75	1777.64
258.97	1730.53
259.18	1751.01
259.40	1763.30
259.62	1748.97
259.83	1820.64
260.05	1671.14
260.27	2015.20
260.48	1730.53
260.70	1603.56
260.92	1697.77
261.13	1669.09
261.35	1751.01
261.57	1740.77
261.78	1554.41
262.00	1607.66
262.22	1765.35
262.43	1601.51
262.65	1705.96
262.86	1722.34
263.08	1796.07
263.30	1677.29
263.51	1615.85
263.73	1734.63
263.95	1830.88
264.16	1712.10
264.38	1679.33
264.60	1683.43
264.81	1679.33
265.03	1763.30
265.25	1771.49
265.46	1724.39
265.68	1843.17
265.89	1703.91
266.11	1574.89
266.33	1781.73
266.54	1767.40
266.76	1761.25
266.98	1751.01
267.19	1802.21
267.41	1689.57
267.62	1716.20
267.84	1601.51
268.06	1720.29
268.27	1705.96
268.49	1763.30
268.70	1804.26
268.92	1673.19
269.14	1689.57
269.35	1591.27
269.57	1601.51
269.79	1753.06
270.00	1662.95
270.22	1816.55
270.43	1675.24
270.65	1603.56
270.87	1687.53
271.08	1775.59
271.30	1736.68
271.51	1730.53
271.73	1746.92
271.95	1824.74
272.16	1734.63
272.38	1746.92
272.59	1720.29
272.81	1677.29
273.02	1753.06
273.24	1789.92
273.46	1769.44
273.67	1626.09
273.89	1681.38
274.10	1660.90
274.32	1718.25
274.54	1683.43
274.75	1800.16
274.97	1656.81
275.18	1798.12
275.40	1757.16
275.61	1691.62
275.83	1714.15
276.05	1673.19
276.26	1665.00
276.48	1708.01
276.69	1642.47
276.91	1652.71
277.12	1775.59
277.34	1730.53
277.55	1830.88
277.77	1751.01
277.99	1687.53
278.20	1621.99
278.42	1681.38
278.63	1687.53
278.85	1730.53
279.06	1660.90
279.28	1726.44
279.49	1748.97
279.71	1755.11
279.93	1753.06
280.14	1767.40
280.36	1527.78
280.57	1837.03
280.79	1722.34
281.00	1697.77
281.22	1640.42
281.43	1808.36
281.65	1644.52
281.86	1693.67
282.08	1718.25
282.29	1812.45
282.51	1671.14
282.73	1652.71
282.94	1619.94
283.16	1771.49
283.37	1814.50
283.59	1644.52
283.80	1769.44
284.02	1685.48
284.23	1718.25
284.45	1767.40
284.66	1619.94
284.88	1640.42
285.09	1794.02
285.31	1691.62
285.52	1791.97
285.74	1705.96
285.95	1773.54
286.17	1710.05
286.38	1714.15
286.60	1687.53
286.81	1646.57
287.03	1671.14
287.24	1742.82
287.46	1742.82
287.67	1693.67
287.89	1781.73
288.10	1751.01
288.32	1669.09
288.53	1828.84
288.75	1658.85
288.96	1783.78
289.18	1652.71
289.39	1736.68
289.61	1671.14
289.82	1767.40
290.04	1787.88
290.25	1679.33
290.47	1701.86
290.68	1671.14
290.90	1720.29
291.11	1650.66
291.33	1710.05
291.54	1673.19
291.76	1624.04
291.97	1759.21
292.18	1773.54
292.40	1652.71
292.61	1710.05
292.83	1828.84
293.04	1755.11
293.26	1701.86
293.47	1728.49
293.69	1662.95
293.90	1675.24
294.12	1736.68
294.33	1794.02
294.55	1656.81
294.76	1701.86
294.97	1685.48
295.19	1753.06
295.40	1693.67
295.62	1742.82
295.83	1671.14
296.05	1642.47
296.26	1796.07
296.48	1607.66
296.69	1697.77
296.90	1656.81
297.12	1759.21
297.33	1771.49
297.55	1712.10
297.76	1730.53
297.98	1777.64
298.19	1693.67
298.41	1718.25
298.62	1660.90
298.83	1726.44
299.05	1687.53
299.26	1705.96
299.48	1673.19
299.69	1748.97
299.90	1695.72
300.12	1699.81
300.33	1675.24
300.55	1724.39
300.76	1603.56
300.98	1683.43
301.19	1728.49
301.40	1673.19
301.62	1685.48
301.83	1751.01
302.05	1736.68
302.26	1726.44
302.47	1722.34
302.69	1660.90
302.90	1609.70
303.12	1613.80
303.33	1722.34
303.54	1806.31
303.76	1705.96
303.97	1724.39
304.19	1808.36
304.40	1624.04
304.61	1740.77
304.83	1824.74
305.04	1722.34
305.26	1738.73
305.47	1611.75
305.68	1736.68
305.90	1662.95
306.11	1718.25
306.33	1710.05
306.54	1628.14
306.75	1632.23
306.97	1654.76
307.18	1701.86
307.39	1636.33
307.61	1767.40
307.82	1656.81
308.04	1710.05
308.25	1687.53
308.46	1751.01
308.68	1681.38
308.89	1718.25
309.10	1771.49
309.32	1720.29
309.53	1734.63
309.74	1791.97
309.96	1759.21
310.17	1841.12
310.39	1677.29
310.60	1695.72
310.81	1667.05
311.03	1656.81
311.24	1656.81
311.45	1665.00
311.67	1816.55
311.88	1746.92
312.09	1673.19
312.31	1619.94
312.52	1691.62
312.73	1619.94
312.95	1652.71
313.16	1685.48
313.37	1732.58
313.59	1769.44
313.80	1746.92
314.01	1857.51
314.23	1705.96
314.44	1685.48
314.65	1642.47
314.87	1671.14
315.08	1667.05
315.29	1763.30
315.51	1656.81
315.72	1585.13
315.93	1861.60
316.15	1738.73
316.36	1742.82
316.57	1689.57
316.79	1728.49
317.00	1675.24
317.21	1695.72
317.43	1814.50
317.64	1701.86
317.85	1626.09
318.07	1710.05
318.28	1746.92
318.49	1783.78
318.70	1898.47
318.92	1861.60
319.13	1806.31
319.34	1816.55
319.56	1710.05
319.77	1812.45
319.98	1830.88
320.20	1759.21
320.41	1724.39
320.62	1751.01
320.83	1617.90
321.05	1785.83
321.26	1710.05
321.47	1736.68
321.69	1720.29
321.90	1660.90
322.11	1685.48
322.32	1728.49
322.54	1808.36
322.75	1654.76
322.96	1804.26
323.18	1671.14
323.39	1624.04
323.60	1728.49
323.81	1751.01
324.03	1662.95
324.24	1665.00
324.45	1648.61
324.66	1630.18
324.88	1802.21
325.09	1785.83
325.30	1701.86
325.52	1708.01
325.73	1748.97
325.94	1683.43
326.15	1609.70
326.37	1669.09
326.58	1687.53
326.79	1796.07
327.00	1679.33
327.22	1673.19
327.43	1730.53
327.64	1673.19
327.85	1720.29
328.07	1767.40
328.28	1785.83
328.49	1736.68
328.70	1724.39
328.92	1710.05
329.13	1703.91
329.34	1757.16
329.55	1746.92
329.76	1789.92
329.98	1683.43
330.19	1720.29
330.40	1738.73
330.61	1673.19
330.83	1679.33
331.04	1650.66
331.25	1705.96
331.46	1595.37
331.68	1603.56
331.89	1789.92
332.10	1746.92
332.31	1644.52
332.52	1667.05
332.74	1697.77
332.95	1542.12
333.16	1656.81
333.37	1683.43
333.58	1710.05
333.80	1722.34
334.01	1699.81
334.22	1730.53
334.43	1648.61
334.64	1642.47
334.86	1685.48
335.07	1726.44
335.28	1779.68
335.49	1755.11
335.70	1667.05
335.92	1763.30
336.13	1800.16
336.34	1759.21
336.55	1716.20
336.76	1675.24
336.98	1624.04
337.19	1654.76
337.40	1824.74
337.61	1882.08
337.82	1697.77
338.04	1740.77
338.25	1591.27
338.46	1691.62
338.67	1677.29
338.88	1695.72
339.09	1632.23
339.31	1621.99
339.52	1669.09
339.73	1771.49
339.94	1685.48
340.15	1751.01
340.36	1677.29
340.58	1693.67
340.79	1632.23
341.00	1736.68
341.21	1722.34
341.42	1824.74
341.63	1671.14
341.85	1814.50
342.06	1724.39
342.27	1652.71
342.48	1798.12
342.69	1630.18
342.90	1759.21
343.12	1740.77
343.33	1779.68
343.54	1744.87
343.75	1812.45
343.96	1746.92
344.17	1683.43
344.38	1665.00
344.60	1675.24
344.81	1656.81
345.02	1642.47
345.23	1724.39
345.44	1751.01
345.65	1705.96
345.86	1730.53
346.07	1746.92
346.29	1665.00
346.50	1755.11
346.71	1763.30
346.92	1865.70
347.13	1802.21
347.34	1730.53
347.55	1732.58
347.76	1773.54
347.98	1656.81
348.19	1679.33
348.40	1767.40
348.61	1615.85
348.82	1816.55
349.03	1751.01
349.24	1681.38
349.45	1843.17
349.66	1624.04
349.88	1730.53
350.09	1677.29
350.30	1757.16
350.51	1820.64
350.72	1757.16
350.93	1722.34
351.14	1660.90
351.35	1712.10
351.56	1697.77
351.77	1708.01
351.99	1665.00
352.20	1755.11
352.41	1789.92
352.62	1634.28
352.83	1673.19
353.04	1714.15
353.25	1628.14
353.46	1851.36
353.67	1740.77
353.88	1564.65
354.09	1730.53
354.30	1744.87
354.52	1705.96
354.73	1701.86
354.94	1714.15
355.15	1724.39
355.36	1796.07
355.57	1667.05
355.78	1775.59
355.99	1705.96
356.20	1683.43
356.41	1765.35
356.62	1755.11
356.83	1730.53
357.04	1814.50
357.25	1642.47
357.46	1681.38
357.68	1599.46
357.89	1677.29
358.10	1699.81
358.31	1683.43
358.52	1726.44
358.73	1601.51
358.94	1736.68
359.15	1673.19
359.36	1718.25
359.57	1648.61
359.78	1769.44
359.99	1755.11
360.20	1626.09
360.41	1687.53
360.62	1712.10
360.83	1755.11
361.04	1726.44
361.25	1757.16
361.46	1781.73
361.67	1728.49
361.88	1751.01
362.09	1751.01
362.30	1679.33
362.51	1699.81
362.72	1718.25
362.93	1769.44
363.14	1716.20
363.35	1689.57
363.56	1624.04
363.78	1722.34
363.99	1769.44
364.20	1626.09
364.41	1708.01
364.62	1867.75
364.83	1685.48
365.04	1673.19
365.25	1724.39
365.46	1798.12
365.67	1652.71
365.88	1642.47
366.09	1744.87
366.30	1662.95
366.51	1701.86
366.72	1617.90
366.93	1689.57
367.14	1781.73
367.35	1837.03
367.56	1742.82
367.77	1732.58
367.98	1740.77
368.18	1742.82
368.39	1736.68
368.60	1609.70
368.81	1728.49
369.02	1783.78
369.23	1677.29
369.44	1642.47
369.65	1701.86
369.86	1742.82
370.07	1830.88
370.28	1673.19
370.49	1740.77
370.70	1738.73
370.91	1638.38
371.12	1669.09
371.33	1716.20
371.54	1652.71
371.75	1806.31
371.96	1603.56
372.17	1669.09
372.38	1656.81
372.59	1765.35
372.80	1705.96
373.01	1673.19
373.22	1689.57
373.43	1640.42
373.64	1675.24
373.85	1832.93
374.06	1757.16
374.26	1738.73
374.47	1728.49
374.68	1791.97
374.89	1685.48
375.10	1615.85
375.31	1765.35
375.52	1730.53
375.73	1722.34
375.94	1675.24
376.15	1779.68
376.36	1662.95
376.57	1693.67
376.78	1730.53
376.99	1742.82
377.20	1804.26
377.40	1693.67
377.61	1791.97
377.82	1646.57
378.03	1798.12
378.24	1699.81
378.45	1726.44
378.66	1734.63
378.87	1640.42
379.08	1593.32
379.29	1669.09
379.50	1722.34
379.71	1759.21
379.91	1738.73
380.12	1787.88
380.33	1689.57
380.54	1730.53
380.75	1628.14
380.96	1753.06
381.17	1794.02
381.38	1734.63
381.59	1746.92
381.80	1705.96
382.00	1783.78
382.21	1783.78
382.42	1882.08
382.63	1863.65
382.84	1732.58
383.05	1775.59
383.26	1814.50
383.47	1720.29
383.68	1748.97
383.88	1730.53
384.09	1751.01
384.30	1812.45
384.51	1765.35
384.72	1691.62
384.93	1644.52
385.14	1683.43
385.35	1843.17
385.55	1677.29
385.76	1812.45
385.97	1677.29
386.18	1662.95
386.39	1619.94
386.60	1757.16
386.81	1748.97
387.02	1601.51
387.22	1660.90
387.43	1796.07
387.64	1789.92
387.85	1873.89
388.06	2303.96
388.27	4143.04
388.48	6555.55
388.68	7907.21
388.89	9463.66
389.10	9381.74
389.31	8161.16
389.52	7229.33
389.73	6567.84
389.93	6201.25
390.14	5705.64
390.35	5048.24
390.56	4446.14
390.77	3727.30
390.98	2949.08
391.18	2537.43
391.39	2099.17
391.60	1923.04
391.81	1828.84
392.02	1767.40
392.23	1853.41
392.43	1777.64
392.64	1773.54
392.85	1759.21
393.06	1826.79
393.27	1677.29
393.47	1691.62
393.68	1720.29
393.89	1685.48
394.10	1761.25
394.31	1722.34
394.52	1628.14
394.72	1738.73
394.93	1834.98
395.14	1695.72
395.35	1736.68
395.56	1697.77
395.76	1789.92
395.97	1734.63
396.18	1859.56
396.39	1818.60
396.60	2013.15
396.80	1875.94
397.01	1900.52
397.22	1857.51
397.43	1800.16
397.64	1814.50
397.84	1791.97
398.05	1886.18
398.26	1820.64
398.47	1800.16
398.67	1796.07
398.88	1740.77
399.09	1759.21
399.30	1712.10
399.51	1775.59
399.71	1708.01
399.92	1794.02
400.13	1716.20
400.34	1738.73
400.54	1703.91
400.75	1794.02
400.96	1689.57
401.17	1757.16
401.37	1675.24
401.58	1658.85
401.79	1732.58
402.00	1910.75
402.21	1998.82
402.41	1968.10
402.62	1939.43
402.83	2054.11
403.04	1941.47
403.24	2115.55
403.45	1871.84
403.66	1906.66
403.87	1867.75
404.07	1892.32
404.28	1906.66
404.49	1875.94
404.70	1722.34
404.90	1791.97
405.11	1722.34
405.32	1796.07
405.52	1767.40
405.73	1697.77
405.94	1599.46
406.15	1703.91
406.35	1804.26
406.56	1785.83
406.77	1791.97
406.98	1800.16
407.18	1740.77
407.39	1751.01
407.60	1673.19
407.80	1789.92
408.01	1646.57
408.22	1755.11
408.43	1703.91
408.63	1740.77
408.84	1800.16
409.05	1695.72
409.25	1687.53
409.46	1640.42
409.67	1644.52
409.88	1658.85
410.08	1781.73
410.29	1642.47
410.50	1761.25
410.70	1689.57
410.91	1703.91
411.12	1683.43
411.32	1665.00
411.53	1648.61
411.74	1828.84
411.95	1710.05
412.15	1785.83
412.36	1781.73
412.57	1775.59
412.77	1800.16
412.98	1724.39
413.19	1740.77
413.39	1703.91
413.60	1777.64
413.81	1771.49
414.01	1642.47
414.22	1798.12
414.43	1777.64
414.63	1697.77
414.84	1853.41
415.05	1689.57
415.25	1656.81
415.46	1712.10
415.67	1613.80
415.87	1734.63
416.08	1722.34
416.29	1648.61
416.49	1742.82
416.70	1726.44
416.91	1740.77
417.11	1691.62
417.32	1755.11
417.53	1789.92
417.73	1767.40
417.94	1708.01
418.15	1761.25
418.35	1812.45
418.56	1730.53
418.77	1910.75
418.97	1673.19
419.18	1732.58
419.38	1568.74
419.59	1761.25
419.80	1765.35
420.00	1656.81
420.21	1789.92
420.42	1810.40
420.62	1714.15
420.83	1632.23
421.04	1736.68
421.24	1691.62
421.45	1740.77
421.65	1740.77
421.86	1679.33
422.07	1726.44
422.27	1730.53
422.48	1742.82
422.69	1695.72
422.89	1763.30
423.10	1662.95
423.30	1656.81
423.51	1814.50
423.72	1769.44
423.92	1765.35
424.13	1636.33
424.33	1763.30
424.54	1812.45
424.75	1720.29
424.95	1744.87
425.16	1779.68
425.36	1685.48
425.57	1763.30
425.78	1740.77
425.98	1779.68
426.19	1697.77
426.39	1665.00
426.60	1789.92
426.81	1710.05
427.01	1724.39
427.22	1660.90
427.42	1648.61
427.63	1693.67
427.83	1773.54
428.04	1849.32
428.25	1740.77
428.45	1781.73
428.66	1722.34
428.86	1665.00
429.07	1687.53
429.28	1667.05
429.48	1728.49
429.69	1636.33
429.89	1724.39
430.10	1699.81
430.30	1761.25
430.51	1697.77
430.71	1665.00
430.92	1683.43
431.13	1654.76
431.33	1763.30
431.54	1837.03
431.74	1765.35
431.95	1787.88
432.15	1626.09
432.36	1726.44
432.56	1759.21
432.77	1931.23
432.98	1759.21
433.18	1697.77
433.39	1724.39
433.59	1593.32
433.80	1859.56
434.00	1781.73
434.21	1691.62
434.41	1642.47
434.62	1849.32
434.82	1634.28
435.03	1667.05
435.23	1724.39
435.44	1646.57
435.64	1742.82
435.85	1705.96
436.06	1791.97
436.26	1732.58
436.47	1748.97
436.67	1646.57
436.88	1699.81
437.08	1771.49
437.29	1761.25
437.49	1722.34
437.70	1748.97
437.90	1767.40
438.11	1794.02
438.31	1738.73
438.52	1812.45
438.72	1718.25
438.93	1918.95
439.13	1763.30
439.34	1859.56
439.54	1785.83
439.75	1837.03
439.95	1830.88
440.16	1683.43
440.36	1677.29
440.57	1710.05
440.77	1755.11
440.98	1751.01
441.18	1763.30
441.39	1677.29
441.59	1646.57
441.80	1798.12
442.00	1699.81
442.21	1759.21
442.41	1732.58
442.62	1757.16
442.82	1718.25
443.02	1683.43
443.23	1693.67
443.43	1736.68
443.64	1845.22
443.84	1671.14
444.05	1753.06
444.25	1781.73
444.46	1716.20
444.66	1810.40
444.87	1859.56
445.07	1712.10
445.28	1755.11
445.48	1849.32
445.69	1699.81
445.89	1888.23
446.09	1822.69
446.30	1966.05
446.50	2660.31
446.71	3696.58
446.91	4222.91
447.12	4595.64
447.32	4667.32
447.53	4190.14
447.73	3940.29
447.93	3559.37
448.14	3270.61
448.34	3086.29
448.55	2895.83
448.75	2781.14
448.96	2621.40
449.16	2377.69
449.36	2349.02
449.57	2052.06
449.77	1871.84
449.98	1808.36
450.18	1875.94
450.39	1806.31
450.59	1751.01
450.79	1800.16
451.00	1744.87
451.20	1834.98
451.41	1738.73
451.61	1748.97
451.81	1757.16
452.02	1730.53
452.22	1718.25
452.43	1771.49
452.63	1695.72
452.84	1699.81
453.04	1755.11
453.24	1740.77
453.45	1658.85
453.65	1716.20
453.86	1732.58
454.06	1734.63
454.26	1646.57
454.47	1730.53
454.67	1830.88
454.87	1689.57
455.08	1730.53
455.28	1867.75
455.49	1802.21
455.69	1718.25
455.89	1918.95
456.10	1890.28
456.30	1724.39
456.51	1763.30
456.71	1779.68
456.91	1720.29
457.12	1708.01
457.32	1730.53
457.52	1767.40
457.73	1814.50
457.93	1681.38
458.14	1689.57
458.34	1656.81
458.54	1656.81
458.75	1730.53
458.95	1787.88
459.15	1763.30
459.36	1775.59
459.56	1703.91
459.76	1884.13
459.97	1695.72
460.17	1781.73
460.37	1845.22
460.58	1734.63
460.78	1822.69
460.99	1726.44
461.19	1722.34
461.39	1710.05
461.60	1716.20
461.80	1775.59
462.00	1587.18
462.21	1734.63
462.41	1632.23
462.61	1718.25
462.82	1662.95
463.02	1761.25
463.22	1660.90
463.43	1755.11
463.63	1714.15
463.83	1826.79
464.04	1769.44
464.24	1730.53
464.44	1718.25
464.64	1769.44
464.85	1789.92
465.05	1736.68
465.25	1728.49
465.46	1677.29
465.66	1798.12
465.86	1740.77
466.07	1732.58
466.27	1765.35
466.47	1617.90
466.68	1656.81
466.88	1828.84
467.08	1716.20
467.29	1787.88
467.49	1824.74
467.69	1765.35
467.89	1832.93
468.10	1714.15
468.30	1673.19
468.50	1812.45
468.71	1671.14
468.91	1656.81
469.11	1877.99
469.31	1740.77
469.52	1703.91
469.72	1798.12
469.92	1875.94
470.13	1660.90
470.33	1679.33
470.53	1765.35
470.73	2095.07
470.94	2265.05
471.14	2338.78
471.34	2500.57
471.54	2379.74
471.75	2187.23
471.95	2150.37
472.15	2029.54
472.36	2103.26
472.56	2148.32
472.76	2037.73
472.96	2029.54
473.17	1976.29
473.37	1869.80
473.57	1757.16
473.77	1873.89
473.98	1714.15
474.18	1681.38
474.38	1896.42
474.58	1687.53
474.79	1646.57
474.99	1794.02
475.19	1867.75
475.39	1677.29
475.60	1763.30
475.80	1728.49
476.00	1718.25
476.20	1748.97
476.41	1736.68
476.61	1816.55
476.81	1732.58
477.01	1624.04
477.21	1830.88
477.42	1761.25
477.62	1703.91
477.82	1732.58
478.02	1705.96
478.23	1722.34
478.43	1591.27
478.63	1673.19
478.83	1689.57
479.03	1755.11
479.24	1697.77
479.44	1820.64
479.64	1736.68
479.84	1632.23
480.04	1662.95
480.25	1767.40
480.45	1648.61
480.65	1783.78
480.85	1791.97
481.06	1693.67
481.26	1751.01
481.46	1748.97
481.66	1730.53
481.86	1654.76
482.06	1783.78
482.27	1673.19
482.47	1751.01
482.67	1779.68
482.87	1755.11
483.07	1773.54
483.28	1640.42
483.48	1705.96
483.68	1683.43
483.88	1660.90
484.08	1683.43
484.29	1624.04
484.49	1765.35
484.69	1578.98
484.89	1802.21
485.09	1767.40
485.29	1728.49
485.50	1718.25
485.70	1681.38
485.90	1783.78
486.10	1753.06
486.30	1720.29
486.50	1746.92
486.71	1722.34
486.91	1777.64
487.11	1761.25
487.31	1667.05
487.51	1744.87
487.71	1695.72
487.91	1689.57
488.12	1665.00
488.32	1544.17
488.52	1675.24
488.72	1599.46
488.92	1738.73
489.12	1818.60
489.32	1748.97
489.53	1800.16
489.73	1591.27
489.93	1839.08
490.13	1632.23
490.33	1640.42
490.53	1759.21
490.73	1822.69
490.94	1671.14
491.14	1769.44
491.34	1828.84
491.54	1972.19
491.74	2559.96
491.94	2787.29
492.14	2987.99
492.34	3053.52
492.54	2729.94
492.75	2490.33
492.95	2410.46
493.15	2295.77
493.35	2256.86
493.55	2183.13
493.75	2109.41
493.95	2138.08
494.15	2031.58
494.35	1968.10
494.56	1787.88
494.76	1763.30
494.96	1787.88
495.16	1714.15
495.36	1834.98
495.56	1732.58
495.76	1669.09
495.96	1660.90
496.16	1654.76
496.36	1880.04
496.56	1753.06
496.77	1777.64
496.97	1689.57
497.17	1824.74
497.37	1581.03
497.57	1734.63
497.77	1796.07
497.97	1619.94
498.17	1691.62
498.37	1650.66
498.57	1681.38
498.77	1771.49
498.97	1761.25
499.17	1861.60
499.38	1787.88
499.58	1712.10
499.78	1812.45
499.98	1849.32
500.18	1775.59
500.38	1656.81
500.58	1914.85
500.78	2633.69
500.98	4458.43
501.18	5652.39
501.38	6555.55
501.58	6930.33
501.78	6483.87
501.98	5349.29
502.18	4874.17
502.38	4267.97
502.58	4184.00
502.78	3690.44
502.98	3530.70
503.18	3373.00
503.38	3096.53
503.59	2871.25
503.79	2629.59
503.99	2416.60
504.19	2230.24
504.39	2189.28
504.59	2185.18
504.79	2199.52
504.99	2142.18
505.19	1947.62
505.39	1941.47
505.59	1929.19
505.79	1943.52
505.99	1902.56
506.19	1814.50
506.39	1857.51
506.59	1759.21
506.79	1759.21
506.99	1834.98
507.19	1832.93
507.39	1800.16
507.59	1714.15
507.79	1742.82
507.99	1652.71
508.19	1744.87
508.39	1806.31
508.59	1789.92
508.79	1814.50
508.99	1839.08
509.19	1695.72
509.39	1767.40
509.59	1744.87
509.79	1693.67
509.99	1693.67
510.19	1748.97
510.39	1894.37
510.59	1738.73
510.79	1658.85
510.99	1710.05
511.19	1779.68
511.39	1777.64
511.59	1761.25
511.79	1820.64
511.99	1699.81
512.19	1816.55
512.38	1658.85
512.58	1662.95
512.78	1632.23
512.98	1738.73
513.18	1853.41
513.38	1658.85
513.58	1789.92
513.78	1767.40
513.98	1644.52
514.18	1763.30
514.38	1642.47
514.58	1763.30
514.78	1650.66
514.98	1636.33
515.18	1773.54
515.38	1669.09
515.58	1824.74
515.78	1689.57
515.98	1712.10
516.18	1781.73
516.38	1730.53
516.57	1679.33
516.77	1697.77
516.97	1812.45
517.17	1689.57
517.37	1636.33
517.57	1722.34
517.77	1746.92
517.97	1722.34
518.17	1771.49
518.37	1681.38
518.57	1689.57
518.77	1691.62
518.97	1699.81
519.16	1787.88
519.36	1798.12
519.56	1665.00
519.76	1757.16
519.96	1701.86
520.16	1791.97
520.36	1699.81
520.56	1791.97
520.76	1708.01
520.96	1724.39
521.16	1656.81
521.35	1787.88
521.55	1841.12
521.75	1693.67
521.95	1755.11
522.15	1716.20
522.35	1621.99
522.55	1656.81
522.75	1814.50
522.95	1748.97
523.14	1652.71
523.34	1710.05
523.54	1681.38
523.74	1843.17
523.94	1697.77
524.14	1648.61
524.34	1828.84
524.54	1832.93
524.73	1726.44
524.93	1767.40
525.13	1783.78
525.33	1648.61
525.53	1855.46
525.73	1730.53
525.93	1763.30
526.13	1628.14
526.32	1703.91
526.52	1779.68
526.72	1798.12
526.92	1744.87
527.12	1683.43
527.32	1617.90
527.52	1732.58
527.71	1738.73
527.91	1701.86
528.11	1779.68
528.31	1685.48
528.51	1679.33
528.71	1708.01
528.90	1734.63
529.10	1722.34
529.30	1804.26
529.50	1681.38
529.70	1834.98
529.90	1699.81
530.09	1734.63
530.29	1681.38
530.49	1599.46
530.69	1931.23
530.89	1662.95
531.09	1834.98
531.28	1712.10
531.48	1789.92
531.68	1783.78
531.88	1648.61
532.08	1800.16
532.28	1796.07
532.47	1783.78
532.67	1779.68
532.87	1761.25
533.07	1708.01
533.27	1699.81
533.46	1751.01
533.66	1781.73
533.86	1730.53
534.06	1640.42
534.26	1773.54
534.45	1705.96
534.65	1830.88
534.85	1705.96
535.05	1726.44
535.25	1777.64
535.44	1605.61
535.64	1863.65
535.84	1789.92
536.04	1697.77
536.24	1712.10
536.43	1779.68
536.63	1744.87
536.83	1773.54
537.03	1751.01
537.22	1662.95
537.42	1624.04
537.62	1730.53
537.82	1656.81
538.02	1822.69
538.21	1787.88
538.41	1869.80
538.61	1808.36
538.81	1691.62
539.00	1857.51
539.20	1648.61
539.40	1787.88
539.60	1800.16
539.79	1763.30
539.99	1658.85
540.19	1724.39
540.39	1777.64
540.58	1779.68
540.78	1734.63
540.98	1757.16
541.18	1765.35
541.37	1873.89
541.57	1701.86
541.77	1693.67
541.97	1740.77
542.16	1679.33
542.36	1740.77
542.56	1798.12
542.76	1910.75
542.95	1814.50
543.15	1771.49
543.35	1820.64
543.54	1607.66
543.74	1677.29
543.94	1775.59
544.14	1697.77
544.33	1789.92
544.53	1724.39
544.73	1779.68
544.93	1652.71
545.12	1642.47
545.32	1757.16
545.52	1798.12
545.71	1693.67
545.91	1724.39
546.11	1708.01
546.30	1726.44
546.50	1728.49
546.70	1808.36
546.90	1720.29
547.09	1583.08
547.29	1722.34
547.49	1800.16
547.68	1794.02
547.88	1693.67
548.08	1783.78
548.27	2174.94
548.47	1759.21
548.67	1695.72
548.87	1730.53
549.06	1724.39
549.26	1791.97
549.46	1849.32
549.65	1665.00
549.85	1765.35
550.05	1771.49
550.24	1728.49
550.44	1740.77
550.64	1767.40
550.83	1791.97
551.03	1779.68
551.23	1787.88
551.42	1804.26
551.62	1775.59
551.82	1763.30
552.01	1683.43
552.21	1791.97
552.41	1714.15
552.60	1865.70
552.80	1734.63
553.00	1673.19
553.19	1730.53
553.39	1865.70
553.59	1671.14
553.78	1730.53
553.98	1769.44
554.17	1705.96
554.37	1789.92
554.57	1820.64
554.76	1718.25
554.96	1658.85
555.16	1730.53
555.35	1740.77
555.55	1753.06
555.75	1748.97
555.94	1791.97
556.14	1642.47
556.33	1751.01
556.53	1716.20
556.73	1736.68
556.92	1847.27
557.12	1826.79
557.32	1843.17
557.51	1791.97
557.71	1812.45
557.90	1849.32
558.10	1796.07
558.30	1658.85
558.49	1683.43
558.69	1773.54
558.88	1701.86
559.08	1771.49
559.28	1746.92
559.47	1761.25
559.67	1781.73
559.86	1916.90
560.06	1730.53
560.26	1673.19
560.45	1798.12
560.65	1779.68
560.84	1800.16
561.04	1738.73
561.24	1816.55
561.43	1722.34
561.63	1810.40
561.82	1699.81
562.02	1693.67
562.22	1705.96
562.41	1687.53
562.61	1718.25
562.80	1679.33
563.00	1845.22
563.19	1771.49
563.39	1736.68
563.59	1767.40
563.78	1626.09
563.98	1640.42
564.17	1705.96
564.37	1626.09
564.56	1718.25
564.76	1677.29
564.96	1812.45
565.15	1769.44
565.35	1816.55
565.54	1746.92
565.74	1753.06
565.93	1708.01
566.13	1769.44
566.32	1773.54
566.52	1773.54
566.71	1757.16
566.91	1742.82
567.11	1759.21
567.30	1703.91
567.50	1785.83
567.69	1726.44
567.89	1779.68
568.08	1716.20
568.28	1771.49
568.47	1683.43
568.67	1787.88
568.86	1757.16
569.06	1779.68
569.25	1699.81
569.45	1703.91
569.64	1730.53
569.84	1730.53
570.04	1783.78
570.23	1716.20
570.43	1689.57
570.62	1765.35
570.82	1867.75
571.01	1740.77
571.21	1697.77
571.40	1665.00
571.60	1826.79
571.79	1746.92
571.99	1771.49
572.18	1701.86
572.38	1744.87
572.57	1734.63
572.77	1767.40
572.96	1941.47
573.16	1771.49
573.35	1818.60
573.55	1888.23
573.74	1845.22
573.94	1726.44
574.13	1689.57
574.33	1763.30
574.52	1796.07
574.71	1837.03
574.91	1785.83
575.10	1671.14
575.30	1767.40
575.49	1687.53
575.69	1732.58
575.88	1724.39
576.08	1720.29
576.27	1701.86
576.47	1781.73
576.66	1781.73
576.86	1857.51
577.05	1806.31
577.25	1859.56
577.44	1837.03
577.64	1699.81
577.83	1906.66
578.02	1751.01
578.22	1849.32
578.41	1886.18
578.61	1710.05
578.80	1697.77
579.00	1839.08
579.19	1732.58
579.39	1871.84
579.58	1787.88
579.77	1658.85
579.97	1812.45
580.16	1806.31
580.36	1763.30
580.55	1804.26
580.75	1765.35
580.94	1828.84
581.13	1916.90
581.33	1859.56
581.52	1812.45
581.72	1888.23
581.91	1847.27
582.11	1693.67
582.30	1763.30
582.49	1767.40
582.69	1812.45
582.88	1748.97
583.08	1708.01
583.27	1746.92
583.47	1775.59
583.66	1673.19
583.85	1677.29
584.05	1800.16
584.24	1800.16
584.44	1796.07
584.63	1826.79
584.82	1802.21
585.02	1812.45
585.21	1767.40
585.41	1847.27
585.60	1796.07
585.79	1996.77
585.99	1918.95
586.18	1863.65
586.37	2142.18
586.57	3352.52
586.76	9697.13
586.96	23570.07
587.15	33070.60
587.34	38698.42
587.54	40687.00
587.73	35089.90
587.93	25280.13
588.12	20641.48
588.31	17501.94
588.51	15716.11
588.70	14507.81
588.89	13547.31
589.09	12095.30
589.28	10645.34
589.47	8916.86
589.67	7659.40
589.86	6229.92
590.06	4769.72
590.25	3792.84
590.44	3035.09
590.64	2609.11
590.83	2199.52
591.02	2088.93
591.22	1935.33
591.41	1861.60
591.60	1796.07
591.80	1890.28
591.99	1658.85
592.18	1746.92
592.38	1837.03
592.57	1742.82
592.76	1845.22
592.96	1767.40
593.15	1759.21
593.34	1894.37
593.54	1804.26
593.73	1783.78
593.92	1738.73
594.12	1765.35
594.31	1783.78
594.50	1869.80
594.70	1802.21
594.89	1888.23
595.08	1714.15
595.28	1845.22
595.47	1937.38
595.66	1779.68
595.86	1699.81
596.05	1732.58
596.24	1683.43
596.43	1855.46
596.63	1812.45
596.82	1789.92
597.01	1783.78
597.21	1837.03
597.40	1722.34
597.59	1701.86
597.79	1695.72
597.98	1744.87
598.17	1847.27
598.36	1718.25
598.56	1802.21
598.75	1759.21
598.94	1798.12
599.14	1771.49
599.33	1720.29
599.52	1734.63
599.71	1806.31
599.91	1767.40
600.10	1767.40
600.29	1689.57
600.48	1816.55
600.68	1796.07
600.87	1689.57
601.06	1695.72
601.26	1777.64
601.45	1832.93
601.64	1738.73
601.83	1785.83
602.03	1771.49
602.22	1638.38
602.41	1791.97
602.60	1884.13
602.80	1759.21
602.99	1773.54
603.18	1665.00
603.37	1712.10
603.57	1730.53
603.76	1705.96
603.95	1759.21
604.14	1740.77
604.34	1755.11
604.53	1767.40
604.72	1751.01
604.91	1794.02
605.10	1775.59
605.30	1652.71
605.49	1851.36
605.68	1767.40
605.87	1757.16
606.07	1671.14
606.26	1728.49
606.45	1765.35
606.64	1734.63
606.84	1671.14
607.03	1726.44
607.22	1783.78
607.41	1673.19
607.60	1710.05
607.80	1824.74
607.99	1738.73
608.18	1726.44
608.37	1665.00
608.56	1720.29
608.76	1759.21
608.95	1775.59
609.14	1771.49
609.33	1765.35
609.52	1783.78
609.72	1685.48
609.91	1734.63
610.10	1777.64
610.29	1820.64
610.48	1753.06
610.68	1794.02
610.87	1783.78
611.06	1710.05
611.25	1728.49
611.44	1857.51
611.63	1748.97
611.83	1777.64
612.02	1619.94
612.21	1753.06
612.40	1652.71
612.59	1679.33
612.79	1712.10
612.98	1712.10
613.17	1826.79
613.36	1669.09
613.55	1761.25
613.74	1697.77
613.93	1648.61
614.13	1732.58
614.32	1691.62
614.51	1810.40
614.70	1681.38
614.89	1755.11
615.08	1669.09
615.28	2027.49
615.47	1630.18
615.66	1718.25
615.85	1734.63
616.04	1843.17
616.23	1720.29
616.42	1746.92
616.62	1824.74
616.81	1753.06
617.00	1734.63
617.19	1771.49
617.38	1761.25
617.57	1699.81
617.76	1785.83
617.95	1714.15
618.15	1718.25
618.34	1789.92
618.53	1621.99
618.72	1730.53
618.91	1800.16
619.10	1839.08
619.29	1699.81
619.48	1648.61
619.68	1718.25
619.87	1763.30
620.06	1744.87
620.25	1765.35
620.44	1691.62
620.63	1716.20
620.82	1642.47
621.01	1714.15
621.20	1734.63
621.39	1714.15
621.59	1726.44
621.78	1804.26
621.97	1773.54
622.16	1742.82
622.35	1679.33
622.54	1748.97
622.73	1765.35
622.92	1589.22
623.11	1761.25
623.30	1705.96
623.49	1742.82
623.68	1716.20
623.88	1800.16
624.07	1712.10
624.26	1771.49
624.45	1794.02
624.64	1689.57
624.83	1673.19
625.02	1757.16
625.21	1691.62
625.40	1718.25
625.59	1839.08
625.78	1679.33
625.97	1742.82
626.16	1779.68
626.35	1736.68
626.54	1722.34
626.74	1820.64
626.93	1716.20
627.12	1689.57
627.31	1845.22
627.50	1726.44
627.69	1787.88
627.88	1626.09
628.07	1675.24
628.26	1689.57
628.45	1738.73
628.64	1697.77
628.83	1671.14
629.02	1665.00
629.21	1796.07
629.40	1710.05
629.59	1638.38
629.78	1718.25
629.97	1705.96
630.16	1712.10
630.35	1726.44
630.54	1697.77
630.73	1665.00
630.92	1755.11
631.11	1732.58
631.30	1734.63
631.49	1779.68
631.68	1701.86
631.87	1705.96
632.06	1695.72
632.25	1861.60
632.44	1708.01
632.63	1746.92
632.82	1685.48
633.01	1630.18
633.20	1703.91
633.39	1712.10
633.58	1658.85
633.77	1654.76
633.96	1742.82
634.15	1669.09
634.34	1796.07
634.53	1673.19
634.72	1662.95
634.91	1601.51
635.10	1783.78
635.29	1699.81
635.48	1779.68
635.67	1697.77
635.86	1667.05
636.05	1816.55
636.24	1710.05
636.43	1656.81
636.62	1804.26
636.81	1597.42
637.00	1804.26
637.19	1685.48
637.38	1732.58
637.57	1593.32
637.76	1765.35
637.95	1757.16
638.14	1681.38
638.33	1728.49
638.52	1759.21
638.71	1726.44
638.89	1617.90
639.08	1845.22
639.27	1728.49
639.46	1710.05
639.65	1748.97
639.84	1710.05
640.03	1779.68
640.22	1681.38
640.41	1746.92
640.60	1669.09
640.79	1783.78
640.98	1728.49
641.17	1763.30
641.36	1781.73
641.55	1746.92
641.74	1712.10
641.92	1697.77
642.11	1646.57
642.30	1613.80
642.49	1744.87
642.68	1691.62
642.87	1730.53
643.06	1673.19
643.25	1710.05
643.44	1669.09
643.63	1759.21
643.82	1845.22
644.00	1665.00
644.19	1748.97
644.38	1685.48
644.57	1695.72
644.76	1662.95
644.95	1695.72
645.14	1783.78
645.33	1658.85
645.52	1769.44
645.71	1671.14
645.89	1550.31
646.08	1673.19
646.27	1697.77
646.46	1882.08
646.65	1736.68
646.84	1771.49
647.03	1636.33
647.22	1890.28
647.40	1708.01
647.59	1691.62
647.78	1578.98
647.97	1593.32
648.16	1669.09
648.35	1837.03
648.54	1806.31
648.73	1652.71
648.91	1773.54
649.10	1734.63
649.29	1693.67
649.48	1697.77
649.67	1665.00
649.86	1748.97
650.05	1701.86
650.23	1763.30
650.42	1689.57
650.61	1814.50
650.80	1761.25
650.99	1806.31
651.18	1736.68
651.36	1705.96
651.55	1662.95
651.74	1708.01
651.93	1691.62
652.12	1675.24
652.31	1800.16
652.49	1632.23
652.68	1705.96
652.87	1785.83
653.06	1720.29
653.25	1771.49
653.44	1685.48
653.62	1851.36
653.81	1728.49
654.00	1691.62
654.19	1714.15
654.38	1880.04
654.56	1781.73
654.75	1714.15
654.94	1763.30
655.13	1724.39
655.32	1730.53
655.51	1755.11
655.69	1744.87
655.88	1771.49
656.07	1724.39
656.26	1806.31
656.45	1562.60
656.63	1732.58
656.82	1763.30
657.01	1763.30
657.20	1751.01
657.38	1800.16
657.57	1658.85
657.76	1632.23
657.95	1759.21
658.14	1714.15
658.32	1724.39
658.51	1658.85
658.70	1787.88
658.89	1751.01
659.08	1697.77
659.26	1812.45
659.45	1708.01
659.64	1779.68
659.83	1611.75
660.01	1935.33
660.20	1710.05
660.39	1839.08
660.58	1599.46
660.76	1834.98
660.95	1642.47
661.14	1716.20
661.33	1611.75
661.51	1757.16
661.70	1714.15
661.89	1734.63
662.08	1658.85
662.26	1683.43
662.45	1652.71
662.64	1849.32
662.83	1851.36
663.01	1533.93
663.20	1726.44
663.39	1765.35
663.58	1662.95
663.76	1730.53
663.95	1775.59
664.14	1673.19
664.32	1705.96
664.51	1689.57
664.70	1654.76
664.89	1697.77
665.07	1734.63
665.26	1761.25
665.45	1671.14
665.64	1787.88
665.82	1679.33
666.01	1718.25
666.20	1685.48
666.38	1777.64
666.57	1775.59
666.76	2150.37
666.95	4556.73
667.13	10143.59
667.32	14735.14
667.51	17581.81
667.69	18413.29
667.88	17141.50
668.07	11896.65
668.25	9322.35
668.44	7915.40
668.63	7196.56
668.81	6401.95
669.00	6264.74
669.19	5523.37
669.38	4972.47
669.56	4571.07
669.75	3895.24
669.94	3360.72
670.12	2803.67
670.31	2420.70
670.50	2269.15
670.68	1972.19
670.87	1873.89
671.06	1728.49
671.24	1896.42
671.43	1810.40
671.62	1781.73
671.80	1667.05
671.99	1722.34
672.18	1759.21
672.36	1828.84
672.55	1808.36
672.74	1722.34
672.92	1740.77
673.11	1738.73
673.29	1642.47
673.48	1738.73
673.67	1722.34
673.85	1785.83
674.04	1695.72
674.23	1748.97
674.41	1804.26
674.60	1724.39
674.79	1687.53
674.97	1710.05
675.16	1738.73
675.34	1746.92
675.53	1646.57
675.72	1693.67
675.90	1841.12
676.09	1734.63
676.28	1800.16
676.46	1601.51
676.65	1744.87
676.83	1636.33
677.02	1718.25
677.21	1677.29
677.39	1767.40
677.58	1751.01
677.77	1665.00
677.95	1736.68
678.14	1699.81
678.32	1724.39
678.51	1652.71
678.70	1869.80
678.88	1722.34
679.07	1763.30
679.25	1724.39
679.44	1748.97
679.63	1634.28
679.81	1730.53
680.00	1781.73
680.18	1751.01
680.37	1808.36
680.55	1714.15
680.74	1658.85
680.93	1710.05
681.11	1740.77
681.30	1740.77
681.48	1671.14
681.67	1705.96
681.85	1746.92
682.04	1642.47
682.23	1826.79
682.41	1724.39
682.60	1652.71
682.78	1734.63
682.97	1626.09
683.15	1738.73
683.34	1753.06
683.53	1740.77
683.71	1648.61
683.90	1787.88
684.08	1830.88
684.27	1667.05
684.45	1673.19
684.64	1849.32
684.82	1669.09
685.01	1755.11
685.19	1742.82
685.38	1847.27
685.57	1802.21
685.75	1708.01
685.94	1658.85
686.12	1660.90
686.31	1669.09
686.49	1830.88
686.68	1656.81
686.86	1757.16
687.05	1712.10
687.23	1849.32
687.42	1710.05
687.60	1566.70
687.79	1732.58
687.97	1814.50
688.16	1794.02
688.34	1824.74
688.53	1658.85
688.71	1738.73
688.90	1779.68
689.08	1708.01
689.27	1599.46
689.45	1710.05
689.64	1773.54
689.82	1773.54
690.01	1773.54
690.19	1718.25
690.38	1759.21
690.56	1738.73
690.75	1701.86
690.93	1665.00
691.12	1708.01
691.30	1695.72
691.49	1681.38
691.67	1667.05
691.86	1877.99
692.04	1710.05
692.23	1632.23
692.41	1640.42
692.60	1783.78
692.78	1669.09
692.97	1710.05
693.15	1673.19
693.34	1826.79
693.52	1800.16
693.71	1640.42
693.89	1697.77
694.08	1542.12
694.26	1816.55
694.44	1757.16
694.63	1751.01
694.81	1621.99
695.00	1693.67
695.18	1781.73
695.37	1804.26
695.55	1748.97
695.74	1761.25
695.92	1646.57
696.10	1785.83
696.29	1626.09
696.47	1720.29
696.66	1679.33
696.84	1669.09
697.03	1708.01
697.21	1849.32
697.40	2265.05
697.58	1812.45
697.76	1710.05
697.95	1730.53
698.13	1671.14
698.32	1652.71
698.50	1783.78
698.68	1763.30
698.87	1736.68
699.05	1724.39
699.24	1738.73
699.42	1671.14
699.61	1648.61
699.79	1724.39
699.97	1710.05
700.16	1705.96
700.34	1607.66
700.53	1679.33
700.71	1814.50
700.89	1705.96
701.08	1718.25
701.26	1722.34
701.45	2097.12
701.63	1701.86
701.81	1726.44
702.00	1593.32
702.18	1724.39
702.37	1718.25
702.55	1730.53
702.73	1689.57
702.92	1658.85
703.10	1802.21
703.28	1783.78
703.47	1646.57
703.65	1746.92
703.84	1779.68
704.02	1636.33
704.20	1775.59
704.39	1626.09
704.57	1681.38
704.75	1767.40
704.94	1746.92
705.12	1695.72
705.30	1716.20
705.49	2244.57
705.67	4210.62
705.86	9217.91
706.04	12212.04
706.22	13829.93
706.41	15105.82
706.59	13391.67
706.77	9209.72
706.96	7190.42
707.14	6508.44
707.32	5703.59
707.51	5347.25
707.69	4945.84
707.87	4087.75
708.06	3581.90
708.24	2908.12
708.42	2467.80
708.61	2193.37
708.79	1822.69
708.97	1820.64
709.16	1818.60
709.34	1804.26
709.52	1748.97
709.71	1808.36
709.89	1777.64
710.07	1695.72
710.26	1650.66
710.44	1767.40
710.62	1775.59
710.80	1837.03
710.99	1845.22
711.17	1816.55
711.35	1697.77
711.54	1679.33
711.72	1806.31
711.90	1748.97
712.09	1730.53
712.27	1628.14
712.45	1740.77
712.63	1708.01
712.82	1654.76
713.00	1769.44
713.18	1765.35
713.37	1751.01
713.55	1710.05
713.73	1699.81
713.91	1701.86
714.10	1708.01
714.28	1695.72
714.46	1734.63
714.65	1787.88
714.83	1734.63
715.01	1634.28
715.19	1734.63
715.38	1718.25
715.56	1683.43
715.74	1644.52
715.92	1699.81
716.11	1775.59
716.29	1679.33
716.47	1726.44
716.65	1699.81
716.84	1576.94
717.02	1812.45
717.20	1642.47
717.38	1652.71
717.57	1716.20
717.75	1693.67
717.93	1740.77
718.11	1755.11
718.30	1591.27
718.48	1763.30
718.66	1742.82
718.84	1732.58
719.03	1681.38
719.21	1617.90
719.39	1759.21
719.57	1777.64
719.75	1796.07
719.94	1652.71
720.12	1656.81
720.30	1722.34
720.48	1683.43
720.67	1685.48
720.85	1638.38
721.03	1714.15
721.21	1677.29
721.39	1779.68
721.58	1677.29
721.76	1740.77
721.94	1751.01
722.12	1736.68
722.30	1773.54
722.49	1640.42
722.67	1726.44
722.85	1726.44
723.03	1773.54
723.21	1724.39
723.40	1736.68
723.58	1794.02
723.76	1787.88
723.94	1652.71
724.12	1726.44
724.30	1767.40
724.49	1869.80
724.67	1634.28
724.85	1736.68
725.03	1665.00
725.21	1724.39
725.40	1746.92
725.58	1652.71
725.76	1767.40
725.94	1781.73
726.12	1644.52
726.30	1734.63
726.49	1656.81
726.67	1615.85
726.85	1710.05
727.03	1837.03
727.21	2142.18
727.39	2815.96
727.57	3749.83
727.76	4196.29
727.94	4384.70
728.12	4310.97
728.30	3653.58
728.48	2867.16
728.66	2654.17
728.84	2469.85
729.03	2240.48
729.21	2093.02
729.39	2000.87
729.57	1859.56
729.75	1812.45
729.93	1794.02
730.11	1667.05
730.30	1699.81
730.48	1716.20
730.66	1769.44
730.84	1779.68
731.02	1722.34
731.20	1601.51
731.38	1671.14
731.56	1646.57
731.74	1628.14
731.93	1753.06
732.11	1691.62
732.29	1656.81
732.47	1685.48
732.65	1681.38
732.83	1771.49
733.01	1755.11
733.19	1648.61
733.37	1716.20
733.56	1656.81
733.74	1675.24
733.92	1724.39
734.10	1718.25
734.28	1787.88
734.46	1572.84
734.64	1675.24
734.82	1658.85
735.00	1644.52
735.18	1636.33
735.36	1726.44
735.54	1755.11
735.73	1740.77
735.91	1662.95
736.09	1759.21
736.27	1732.58
736.45	1697.77
736.63	1562.60
736.81	1665.00
736.99	1755.11
737.17	1755.11
737.35	1652.71
737.53	1701.86
737.71	1722.34
737.89	1728.49
738.07	1701.86
738.25	1671.14
738.43	1644.52
738.61	1685.48
738.80	1648.61
738.98	1636.33
739.16	1742.82
739.34	1697.77
739.52	1773.54
739.70	1705.96
739.88	1681.38
740.06	1767.40
740.24	1576.94
740.42	1714.15
740.60	1671.14
740.78	1718.25
740.96	1615.85
741.14	1636.33
741.32	1728.49
741.50	1675.24
741.68	1785.83
741.86	1751.01
742.04	1734.63
742.22	1640.42
742.40	1685.48
742.58	1736.68
742.76	1665.00
742.94	1785.83
743.12	1638.38
743.30	1705.96
743.48	1726.44
743.66	1718.25
743.84	1679.33
744.02	1712.10
744.20	1708.01
744.38	1636.33
744.56	1667.05
744.74	1789.92
744.92	1652.71
745.10	1789.92
745.28	1724.39
745.46	1800.16
745.64	1640.42
745.82	1738.73
746.00	1751.01
746.18	1746.92
746.36	1630.18
746.54	1728.49
746.72	1714.15
746.90	1609.70
747.08	1789.92
747.26	1673.19
747.44	1816.55
747.62	1740.77
747.80	1652.71
747.98	1798.12
748.15	1691.62
748.33	1779.68
748.51	1705.96
748.69	1787.88
748.87	1636.33
749.05	1783.78
749.23	1710.05
749.41	1783.78
749.59	1681.38
749.77	1769.44
749.95	1675.24
750.13	1634.28
750.31	1701.86
750.49	1763.30
750.67	1746.92
750.85	1779.68
751.03	1748.97
751.20	1785.83
751.38	1724.39
751.56	1759.21
751.74	1710.05
751.92	1736.68
752.10	1718.25
752.28	1771.49
752.46	1705.96
752.64	1738.73
752.82	1626.09
753.00	1757.16
753.18	1652.71
753.35	1656.81
753.53	1728.49
753.71	1703.91
753.89	1695.72
754.07	1767.40
754.25	1773.54
754.43	1781.73
754.61	1658.85
754.79	1722.34
754.97	1703.91
755.14	1802.21
755.32	1753.06
755.50	1697.77
755.68	1763.30
755.86	1574.89
756.04	1695.72
756.22	1615.85
756.40	1787.88
756.57	1816.55
756.75	1755.11
756.93	1787.88
757.11	1763.30
757.29	1654.76
757.47	1662.95
757.65	1576.94
757.82	1572.84
758.00	1646.57
758.18	1705.96
758.36	1691.62
758.54	1867.75
758.72	1636.33
758.90	1736.68
759.07	1765.35
759.25	1662.95
759.43	1759.21
759.61	1654.76
759.79	2265.05
759.97	1736.68
760.15	1660.90
760.32	1689.57
760.50	1810.40
760.68	1863.65
760.86	1671.14
761.04	1783.78
761.22	1716.20
761.39	1781.73
761.57	1683.43
761.75	1771.49
761.93	1724.39
762.11	1615.85
762.28	1679.33
762.46	1638.38
762.64	1796.07
762.82	1656.81
763.00	1761.25
763.18	1779.68
763.35	1613.80
763.53	1681.38
763.71	1689.57
763.89	1726.44
764.07	1726.44
764.24	1708.01
764.42	1834.98
764.60	1705.96
764.78	1613.80
764.96	1789.92
765.13	1820.64
765.31	1695.72
765.49	1748.97
765.67	1681.38
765.84	1673.19
766.02	1685.48
766.20	1628.14
766.38	1644.52
766.56	1712.10
766.73	1791.97
766.91	1695.72
767.09	1730.53
767.27	1705.96
767.44	1685.48
767.62	1751.01
767.80	1753.06
767.98	1701.86
768.15	1689.57
768.33	1734.63
768.51	1769.44
768.69	1687.53
768.87	1683.43
769.04	1757.16
769.22	1841.12
769.40	1771.49
769.58	1841.12
769.75	1753.06
769.93	1779.68
770.11	1660.90
770.28	1642.47
770.46	1697.77
770.64	1697.77
770.82	1660.90
770.99	1607.66
771.17	1775.59
771.35	1730.53
771.53	1695.72
771.70	1658.85
771.88	1628.14
772.06	1718.25
772.23	1716.20
772.41	1738.73
772.59	1765.35
772.77	1681.38
772.94	1693.67
773.12	1693.67
773.30	1660.90
773.47	1667.05
773.65	1701.86
773.83	1785.83
774.01	1630.18
774.18	1642.47
774.36	1656.81
774.54	1665.00
774.71	1710.05
774.89	1695.72
775.07	1632.23
775.24	1621.99
775.42	1710.05
775.60	1777.64
775.78	1726.44
775.95	1646.57
776.13	1548.26
776.31	1556.46
776.48	1746.92
776.66	1744.87
776.84	1689.57
777.01	1609.70
777.19	1736.68
777.37	1699.81
777.54	1771.49
777.72	1740.77
777.90	1748.97
778.07	1701.86
778.25	1877.99
778.43	1720.29
778.60	1714.15
778.78	1722.34
778.96	1810.40
779.13	1660.90
779.31	1798.12
779.49	1708.01
779.66	1701.86
779.84	1648.61
780.01	1626.09
780.19	1626.09
780.37	1767.40
780.54	1726.44
780.72	1654.76
780.90	1671.14
781.07	1665.00
781.25	1671.14
781.43	1703.91
781.60	1732.58
781.78	1746.92
781.95	1669.09
782.13	1660.90
782.31	1667.05
782.48	1648.61
782.66	1726.44
782.83	1791.97
783.01	1730.53
783.19	1771.49
783.36	1712.10
783.54	1703.91
783.72	1716.20
783.89	1732.58
784.07	1646.57
784.24	1748.97
784.42	1767.40
784.60	1728.49
784.77	1738.73
784.95	1538.02
785.12	1587.18
785.30	1708.01
785.47	1597.42
785.65	1634.28
785.83	1734.63
786.00	1640.42
786.18	1691.62
786.35	1632.23
786.53	1730.53
786.71	1689.57
786.88	1796.07
787.06	1738.73
787.23	1662.95
787.41	1560.55
787.58	1613.80
787.76	1677.29
787.94	1746.92
788.11	1699.81
788.29	1689.57
788.46	1603.56
788.64	1628.14
788.81	1734.63
788.99	1599.46
789.16	1591.27
789.34	1705.96
789.52	1648.61
789.69	1681.38
789.87	1640.42
790.04	1677.29
790.22	1732.58
790.39	1820.64
790.57	1652.71
790.74	1775.59
790.92	1767.40
791.09	1689.57
791.27	1746.92
791.44	1771.49
791.62	1617.90
791.79	1693.67
791.97	1703.91
792.15	1853.41
792.32	1779.68
792.50	1689.57
792.67	1755.11
792.85	1869.80
793.02	1738.73
793.20	1665.00
793.37	1603.56
793.55	1691.62
793.72	1683.43
793.90	1740.77
794.07	1652.71
794.25	1693.67
794.42	1687.53
794.60	1699.81
794.77	1640.42
794.95	1755.11
795.12	1761.25
795.30	1714.15
795.47	1656.81
795.65	1865.70
795.82	1681.38
796.00	1683.43
796.17	1660.90
796.34	1665.00
796.52	1642.47
796.69	1742.82
796.87	1738.73
797.04	1777.64
797.22	1746.92
797.39	1685.48
797.57	1708.01
797.74	1716.20
797.92	1697.77
798.09	1763.30
798.27	1763.30
798.44	1724.39
798.62	1654.76
798.79	1650.66
798.96	1714.15
799.14	1716.20
799.31	1757.16
799.49	1691.62
799.66	1748.97
799.84	1794.02
800.01	1650.66
800.19	1783.78
800.36	1675.24
800.53	1693.67
800.71	1673.19
800.88	1789.92
801.06	1630.18
801.23	1683.43
801.41	1738.73
801.58	1775.59
801.75	1644.52
801.93	1699.81
802.10	1767.40
802.28	1693.67
802.45	1683.43
802.63	1828.84
802.80	1882.08
802.97	1630.18
803.15	1746.92
803.32	1677.29
803.50	1705.96
803.67	1710.05
803.84	1632.23
804.02	1675.24
804.19	1730.53
804.37	1558.50
804.54	1697.77
804.71	1658.85
804.89	1619.94
805.06	1636.33
805.24	1632.23
805.41	1681.38
805.58	1673.19
805.76	1869.80
805.93	1761.25
806.10	1744.87
806.28	1660.90
806.45	1791.97
806.63	1738.73
806.80	1724.39
806.97	1658.85
807.15	1740.77
807.32	1730.53
807.49	1732.58
807.67	1705.96
807.84	1718.25
808.01	1605.61
808.19	1781.73
808.36	1841.12
808.54	1619.94
808.71	1718.25
808.88	1699.81
809.06	1701.86
809.23	1796.07
809.40	1636.33
809.58	1703.91
809.75	1679.33
809.92	1578.98
810.10	1859.56
810.27	1703.91
810.44	1728.49
810.62	1689.57
810.79	1746.92
810.96	1718.25
811.14	1736.68
811.31	1710.05
811.48	1728.49
811.66	1777.64
811.83	1847.27
812.00	1667.05
812.18	1695.72
812.35	1806.31
812.52	1724.39
812.69	1669.09
812.87	1689.57
813.04	1667.05
813.21	1632.23
813.39	1693.67
813.56	1662.95
813.73	1685.48
813.91	1640.42
814.08	1755.11
814.25	1681.38
814.42	1621.99
814.60	1728.49
814.77	1693.67
814.94	1775.59
815.12	1755.11
815.29	1759.21
815.46	1638.38
815.63	1769.44
815.81	1673.19
815.98	1689.57
816.15	1671.14
816.33	1814.50
816.50	1662.95
816.67	1681.38
816.84	1732.58
817.02	1693.67
817.19	1662.95
817.36	1724.39
817.53	1722.34
817.71	1646.57
817.88	1769.44
818.05	1718.25
818.22	1708.01
818.40	1863.65
818.57	1665.00
818.74	1732.58
818.91	1767.40
819.09	1761.25
819.26	1759.21
819.43	1697.77
819.60	1646.57
819.78	1712.10
819.95	1714.15
820.12	1595.37
820.29	1773.54
820.47	1728.49
820.64	1673.19
820.81	1652.71
820.98	1681.38
821.15	1697.77
821.33	1783.78
821.50	1615.85
821.67	1744.87
821.84	1658.85
822.02	1669.09
822.19	1746.92
822.36	1644.52
822.53	1681.38
822.70	1617.90
822.88	1751.01
823.05	1814.50
823.22	1697.77
823.39	1761.25
823.56	1660.90
823.74	1798.12
823.91	1669.09
824.08	1632.23
824.25	1685.48
824.42	1820.64
824.60	1650.66
824.77	1728.49
824.94	1708.01
825.11	1712.10
825.28	1630.18
825.45	1697.77
825.63	1740.77
825.80	1634.28
825.97	1738.73
826.14	1732.58
826.31	1624.04
826.48	1724.39
826.66	1699.81
826.83	1640.42
827.00	1683.43
827.17	1599.46
827.34	1734.63
827.51	1716.20
827.69	1679.33
827.86	1683.43
828.03	1695.72
828.20	1771.49
828.37	1640.42
828.54	1748.97
828.71	1761.25
828.89	1824.74
829.06	1810.40
829.23	1806.31
829.40	1679.33
829.57	1687.53
829.74	1783.78
829.91	1660.90
830.09	1687.53
830.26	1738.73
830.43	1777.64
830.60	1665.00
830.77	1726.44
830.94	1705.96
831.11	1697.77
831.28	1660.90
831.46	1726.44
831.63	1708.01
831.80	1712.10
831.97	1705.96
832.14	1679.33
832.31	1703.91
832.48	1683.43
832.65	1755.11
832.82	1800.16
832.99	1710.05
833.17	1726.44
833.34	1785.83
833.51	1730.53
833.68	1628.14
833.85	1767.40
834.02	1591.27
834.19	1681.38
834.36	1646.57
834.53	1773.54
834.70	1777.64
834.87	1734.63
835.04	1662.95
835.22	1636.33
835.39	1751.01
835.56	1611.75
835.73	1681.38
835.90	1714.15
836.07	1714.15
836.24	1789.92
836.41	1675.24
836.58	1703.91
836.75	1708.01
836.92	1761.25
837.09	1652.71
837.26	1712.10
837.43	1789.92
837.60	1777.64
837.77	1685.48
837.94	1736.68
838.12	1714.15
838.29	1628.14
838.46	1611.75
838.63	1712.10
838.80	1783.78
838.97	1665.00
839.14	1697.77
839.31	1730.53
839.48	1726.44
839.65	1726.44
839.82	1763.30
839.99	1695.72
840.16	1738.73
840.33	1634.28
840.50	1665.00
840.67	1636.33
840.84	1609.70
841.01	1705.96
841.18	1648.61
841.35	1683.43
841.52	1769.44
841.69	1775.59
841.86	1714.15
842.03	1695.72
842.20	1710.05
842.37	1671.14
842.54	1656.81
842.71	1718.25
842.88	1652.71
843.05	1691.62
843.22	1644.52
843.39	1761.25
843.56	1714.15
843.73	1687.53
843.90	1697.77
844.07	1701.86
844.24	1710.05
844.41	1705.96
844.58	1736.68
844.75	1724.39
844.92	1808.36
845.09	1673.19
845.26	1634.28
845.43	1755.11
845.60	1722.34
845.77	1740.77
845.94	1648.61
846.10	1724.39
846.27	1705.96
846.44	1611.75
846.61	1656.81
846.78	1677.29
846.95	1755.11
847.12	1724.39
847.29	1667.05
847.46	1689.57
847.63	1648.61
847.80	1613.80
847.97	1681.38
848.14	1824.74
848.31	1703.91
848.48	1619.94
848.65	1677.29
848.82	1742.82
848.98	1763.30
849.15	1681.38
849.32	1726.44
849.49	1765.35
849.66	1673.19
849.83	1683.43
850.00	1640.42
850.17	1722.34
850.34	1656.81
850.51	1648.61
850.68	1648.61
850.85	1812.45
851.01	1667.05
851.18	1712.10
851.35	1681.38
851.52	1753.06
851.69	1718.25
851.86	1673.19
852.03	1724.39
852.20	1738.73
852.37	1730.53
852.53	1636.33
852.70	1767.40
852.87	1708.01
853.04	1714.15
853.21	1742.82
853.38	1785.83
853.55	1720.29
853.72	1814.50
853.89	1683.43
854.05	1658.85
854.22	1650.66
854.39	1705.96
854.56	1675.24
854.73	1785.83
854.90	1712.10
855.07	1667.05
855.23	1693.67
855.40	1703.91
855.57	1681.38
855.74	1665.00
855.91	1910.75
856.08	1660.90
856.25	1632.23
856.41	1656.81
856.58	1703.91
856.75	1667.05
856.92	1693.67
857.09	1673.19
857.26	1609.70
857.42	1601.51
857.59	1746.92
857.76	1712.10
857.93	1687.53
858.10	1652.71
858.27	1652.71
858.43	1693.67
858.60	1693.67
858.77	1685.48
858.94	1671.14
859.11	1759.21
859.27	1658.85
859.44	1652.71
859.61	1787.88
859.78	1781.73
859.95	1712.10
860.12	1617.90
860.28	1818.60
860.45	1853.41
860.62	1679.33
860.79	1679.33
860.95	1732.58
861.12	1677.29
861.29	1667.05
861.46	1570.79
861.63	1726.44
861.79	1757.16
861.96	1632.23
862.13	1693.67
862.30	1718.25
862.47	1648.61
862.63	1648.61
862.80	1726.44
862.97	1728.49
863.14	1775.59
863.30	1808.36
863.47	1624.04
863.64	1824.74
863.81	1691.62
863.97	1681.38
864.14	1714.15
864.31	1669.09
864.48	1712.10
864.65	1648.61
864.81	1824.74
864.98	1675.24
865.15	1748.97
865.32	1781.73
865.48	1736.68
865.65	1816.55
865.82	1656.81
865.98	1759.21
866.15	1730.53
866.32	1718.25
866.49	1656.81
866.65	1769.44
866.82	1644.52
866.99	1761.25
867.16	1687.53
867.32	1714.15
867.49	1660.90
867.66	1648.61
867.83	1644.52
867.99	1660.90
868.16	1689.57
868.33	1675.24
868.49	1736.68
868.66	1636.33
868.83	1712.10
868.99	1681.38
869.16	1724.39
869.33	1798.12
869.50	1789.92
869.66	1654.76
869.83	1681.38
870.00	1640.42
870.16	1708.01
870.33	1685.48
870.50	1705.96
870.66	1693.67
870.83	1773.54
871.00	1617.90
871.17	1720.29
871.33	1697.77
871.50	1576.94
871.67	1691.62
871.83	1671.14
872.00	1738.73
872.17	1708.01
872.33	1755.11
872.50	1755.11
872.67	1673.19
872.83	1687.53
873.00	1755.11
873.17	1691.62
873.33	1710.05
873.50	1687.53
873.67	1722.34
873.83	1636.33
874.00	1683.43
874.16	1771.49
874.33	1675.24
874.50	1646.57
874.66	1746.92
874.83	1691.62
875.00	1783.78
875.16	1746.92
875.33	1736.68
875.50	1632.23
875.66	1636.33
875.83	1726.44
875.99	1748.97
876.16	1703.91
876.33	1648.61
876.49	1726.44
876.66	1722.34
876.83	1681.38
876.99	1658.85
877.16	1796.07
877.32	1705.96
877.49	1732.58
877.66	1722.34
877.82	1769.44
877.99	1648.61
878.15	1708.01
878.32	1710.05
878.49	1738.73
878.65	1624.04
878.82	1771.49
878.98	1693.67
879.15	1736.68
879.32	1820.64
879.48	1695.72
879.65	1660.90
879.81	1679.33
879.98	1673.19
880.15	1665.00
880.31	1714.15
880.48	1691.62
880.64	1650.66
880.81	1785.83
880.97	1863.65
881.14	1716.20
881.31	1665.00
881.47	1927.14
881.64	1695.72
881.80	1642.47
881.97	1744.87
882.13	1775.59
882.30	1568.74
882.47	1679.33
882.63	1695.72
882.80	1660.90
882.96	1691.62
883.13	1734.63
883.29	1624.04
883.46	1771.49
883.62	1863.65
883.79	1714.15
883.95	1800.16
884.12	1701.86
884.29	1695.72
884.45	1603.56
884.62	1757.16
884.78	1626.09
884.95	1773.54
885.11	1650.66
885.28	1724.39
885.44	1671.14
885.61	1787.88
885.77	1667.05
885.94	1710.05
886.10	1734.63
886.27	1687.53
886.43	1814.50
886.60	1746.92
886.76	1732.58
886.93	1685.48
887.09	1722.34
887.26	1601.51
887.42	1730.53
887.59	1722.34
887.75	1783.78
887.92	1806.31
888.08	1759.21
888.25	1867.75
888.41	1669.09
888.58	1708.01
888.74	1599.46
888.91	1632.23
>>>>>End Processed Spectral Data<<<<<
