SpectraSuite Data File
++++++++++++++++++++++++++++++++++++
Date: Mon Jun 06 14:04:17 CEST 2016
User: root
Dark Spectrum Present: No
Reference Spectrum Present: No
Number of Sampled Component Spectra: 1
Spectrometers: USB4C02835
Integration Time (usec): 100000 (USB4C02835)
Spectra Averaged: 1 (USB4C02835)
Boxcar Smoothing: 0 (USB4C02835)
Correct for Electrical Dark: No (USB4C02835)
Strobe/Lamp Enabled: No (USB4C02835)
Correct for Detector Non-linearity: No (USB4C02835)
Correct for Stray Light: No (USB4C02835)
Number of Pixels in Processed Spectrum: 3648
>>>>>Begin Processed Spectral Data<<<<<
177.47	1447.91
177.69	1447.91
177.91	1447.91
178.13	1476.59
178.36	1513.45
178.58	1646.57
178.80	1660.90
179.02	1669.09
179.24	1675.24
179.46	1822.69
179.68	1740.77
179.90	1716.20
180.13	1765.35
180.35	1574.89
180.57	1732.58
180.79	1755.11
181.01	1593.32
181.23	1794.02
181.45	1699.81
181.67	1710.05
181.90	1665.00
182.12	1701.86
182.34	1619.94
182.56	1701.86
182.78	1683.43
183.00	1738.73
183.22	1826.79
183.44	1619.94
183.66	1796.07
183.89	1802.21
184.11	1722.34
184.33	1777.64
184.55	1730.53
184.77	1720.29
184.99	1712.10
185.21	1673.19
185.43	1890.28
185.65	1648.61
185.87	1656.81
186.10	1794.02
186.32	1828.84
186.54	1771.49
186.76	1779.68
186.98	1681.38
187.20	1722.34
187.42	1679.33
187.64	1687.53
187.86	1665.00
188.08	1681.38
188.30	1679.33
188.52	1714.15
188.75	1761.25
188.97	1728.49
189.19	1644.52
189.41	1761.25
189.63	1808.36
189.85	1691.62
190.07	1675.24
190.29	1665.00
190.51	1742.82
190.73	1587.18
190.95	1785.83
191.17	1779.68
191.39	1634.28
191.61	1665.00
191.84	1683.43
192.06	1769.44
192.28	1574.89
192.50	1861.60
192.72	1736.68
192.94	1648.61
193.16	1757.16
193.38	1716.20
193.60	1656.81
193.82	1648.61
194.04	1787.88
194.26	1732.58
194.48	1738.73
194.70	1699.81
194.92	1626.09
195.14	1718.25
195.36	1665.00
195.58	1705.96
195.80	1605.61
196.02	1636.33
196.24	1763.30
196.46	1685.48
196.69	1701.86
196.91	1822.69
197.13	1626.09
197.35	1621.99
197.57	1787.88
197.79	1769.44
198.01	1724.39
198.23	1720.29
198.45	1787.88
198.67	1640.42
198.89	1705.96
199.11	1769.44
199.33	1732.58
199.55	1652.71
199.77	1693.67
199.99	1740.77
200.21	1687.53
200.43	1691.62
200.65	1605.61
200.87	1560.55
201.09	1722.34
201.31	1644.52
201.53	1728.49
201.75	1773.54
201.97	1755.11
202.19	1699.81
202.41	1769.44
202.63	1789.92
202.85	1787.88
203.07	1712.10
203.29	1636.33
203.51	1648.61
203.73	1652.71
203.95	1798.12
204.17	1767.40
204.39	1738.73
204.61	1748.97
204.83	1581.03
205.05	1757.16
205.27	1716.20
205.49	1812.45
205.71	1697.77
205.93	1691.62
206.15	1681.38
206.37	1642.47
206.59	1771.49
206.81	1681.38
207.03	1660.90
207.25	1648.61
207.47	1738.73
207.69	1677.29
207.91	1740.77
208.13	1734.63
208.34	1656.81
208.56	1732.58
208.78	1665.00
209.00	1708.01
209.22	1626.09
209.44	1724.39
209.66	1650.66
209.88	1617.90
210.10	1679.33
210.32	1644.52
210.54	1787.88
210.76	1722.34
210.98	1718.25
211.20	1605.61
211.42	1681.38
211.64	1763.30
211.86	1757.16
212.08	1722.34
212.30	1703.91
212.52	1673.19
212.74	1783.78
212.96	1708.01
213.17	1740.77
213.39	1789.92
213.61	1712.10
213.83	1763.30
214.05	1671.14
214.27	1703.91
214.49	1585.13
214.71	1705.96
214.93	1806.31
215.15	1740.77
215.37	1712.10
215.59	1609.70
215.81	1742.82
216.03	1724.39
216.24	1665.00
216.46	1714.15
216.68	1705.96
216.90	1738.73
217.12	1738.73
217.34	1753.06
217.56	1746.92
217.78	1751.01
218.00	1755.11
218.22	1746.92
218.44	1718.25
218.66	1699.81
218.87	1769.44
219.09	1675.24
219.31	1771.49
219.53	1718.25
219.75	1740.77
219.97	1751.01
220.19	1681.38
220.41	1738.73
220.63	1751.01
220.85	1730.53
221.06	1611.75
221.28	1701.86
221.50	1710.05
221.72	1775.59
221.94	1701.86
222.16	1677.29
222.38	1767.40
222.60	1705.96
222.82	1693.67
223.03	1730.53
223.25	1632.23
223.47	1695.72
223.69	1746.92
223.91	1732.58
224.13	1693.67
224.35	1658.85
224.57	1810.40
224.78	1744.87
225.00	1658.85
225.22	1665.00
225.44	1708.01
225.66	1783.78
225.88	1642.47
226.10	1779.68
226.32	1714.15
226.53	1734.63
226.75	1652.71
226.97	1634.28
227.19	1648.61
227.41	1613.80
227.63	1691.62
227.85	1630.18
228.06	1656.81
228.28	1689.57
228.50	1714.15
228.72	1617.90
228.94	1679.33
229.16	1613.80
229.37	1611.75
229.59	1660.90
229.81	1787.88
230.03	1667.05
230.25	1615.85
230.47	1646.57
230.69	1634.28
230.90	1753.06
231.12	1611.75
231.34	1675.24
231.56	1726.44
231.78	1667.05
232.00	1722.34
232.21	1716.20
232.43	1609.70
232.65	1615.85
232.87	1730.53
233.09	1667.05
233.30	1611.75
233.52	1708.01
233.74	1660.90
233.96	1650.66
234.18	1724.39
234.40	1656.81
234.61	1845.22
234.83	1652.71
235.05	1665.00
235.27	1861.60
235.49	1720.29
235.70	1669.09
235.92	1748.97
236.14	1701.86
236.36	1871.84
236.58	1617.90
236.79	1689.57
237.01	1681.38
237.23	1675.24
237.45	1720.29
237.67	1597.42
237.88	1705.96
238.10	1726.44
238.32	1660.90
238.54	1712.10
238.76	1800.16
238.97	1656.81
239.19	1595.37
239.41	1740.77
239.63	1751.01
239.85	1685.48
240.06	1708.01
240.28	1689.57
240.50	1738.73
240.72	1746.92
240.93	1677.29
241.15	1716.20
241.37	1683.43
241.59	1730.53
241.81	1785.83
242.02	1718.25
242.24	1775.59
242.46	1748.97
242.68	1583.08
242.89	1783.78
243.11	1769.44
243.33	1728.49
243.55	1683.43
243.76	1740.77
243.98	1701.86
244.20	1699.81
244.42	1708.01
244.64	1660.90
244.85	1585.13
245.07	1636.33
245.29	1730.53
245.51	1677.29
245.72	1732.58
245.94	1787.88
246.16	1738.73
246.38	1712.10
246.59	1681.38
246.81	1646.57
247.03	1767.40
247.24	1558.50
247.46	1529.83
247.68	1669.09
247.90	1791.97
248.11	1722.34
248.33	1783.78
248.55	1656.81
248.77	1701.86
248.98	1699.81
249.20	1759.21
249.42	1726.44
249.64	1669.09
249.85	1722.34
250.07	1685.48
250.29	1757.16
250.50	1765.35
250.72	1634.28
250.94	1673.19
251.16	1861.60
251.37	1794.02
251.59	1734.63
251.81	1697.77
252.02	1751.01
252.24	1683.43
252.46	1785.83
252.68	1693.67
252.89	1693.67
253.11	1656.81
253.33	1773.54
253.54	1779.68
253.76	1607.66
253.98	1679.33
254.20	1724.39
254.41	1609.70
254.63	1787.88
254.85	1585.13
255.06	1744.87
255.28	1789.92
255.50	1705.96
255.71	1691.62
255.93	1646.57
256.15	1755.11
256.36	1695.72
256.58	1662.95
256.80	1648.61
257.02	1693.67
257.23	1681.38
257.45	1675.24
257.67	1791.97
257.88	1640.42
258.10	1705.96
258.32	1724.39
258.53	1787.88
258.75	1730.53
258.97	1742.82
259.18	1705.96
259.40	1738.73
259.62	1839.08
259.83	1808.36
260.05	1751.01
260.27	2029.54
260.48	1767.40
260.70	1607.66
260.92	1769.44
261.13	1724.39
261.35	1710.05
261.57	1779.68
261.78	1650.66
262.00	1615.85
262.22	1751.01
262.43	1601.51
262.65	1705.96
262.86	1720.29
263.08	1804.26
263.30	1683.43
263.51	1699.81
263.73	1685.48
263.95	1818.60
264.16	1656.81
264.38	1636.33
264.60	1746.92
264.81	1740.77
265.03	1816.55
265.25	1712.10
265.46	1748.97
265.68	1785.83
265.89	1673.19
266.11	1554.41
266.33	1765.35
266.54	1763.30
266.76	1761.25
266.98	1757.16
267.19	1804.26
267.41	1800.16
267.62	1726.44
267.84	1660.90
268.06	1736.68
268.27	1660.90
268.49	1763.30
268.70	1753.06
268.92	1642.47
269.14	1605.61
269.35	1595.37
269.57	1646.57
269.79	1671.14
270.00	1679.33
270.22	1855.46
270.43	1720.29
270.65	1591.27
270.87	1703.91
271.08	1744.87
271.30	1767.40
271.51	1703.91
271.73	1712.10
271.95	1753.06
272.16	1779.68
272.38	1742.82
272.59	1773.54
272.81	1714.15
273.02	1697.77
273.24	1761.25
273.46	1767.40
273.67	1724.39
273.89	1650.66
274.10	1693.67
274.32	1812.45
274.54	1722.34
274.75	1679.33
274.97	1763.30
275.18	1837.03
275.40	1677.29
275.61	1705.96
275.83	1701.86
276.05	1681.38
276.26	1671.14
276.48	1822.69
276.69	1693.67
276.91	1656.81
277.12	1757.16
277.34	1728.49
277.55	1777.64
277.77	1718.25
277.99	1724.39
278.20	1667.05
278.42	1642.47
278.63	1619.94
278.85	1630.18
279.06	1615.85
279.28	1736.68
279.49	1742.82
279.71	1884.13
279.93	1714.15
280.14	1679.33
280.36	1701.86
280.57	1718.25
280.79	1781.73
281.00	1652.71
281.22	1675.24
281.43	1767.40
281.65	1640.42
281.86	1667.05
282.08	1691.62
282.29	1814.50
282.51	1628.14
282.73	1660.90
282.94	1615.85
283.16	1777.64
283.37	1818.60
283.59	1710.05
283.80	1759.21
284.02	1693.67
284.23	1736.68
284.45	1705.96
284.66	1675.24
284.88	1626.09
285.09	1714.15
285.31	1746.92
285.52	1732.58
285.74	1619.94
285.95	1753.06
286.17	1761.25
286.38	1726.44
286.60	1658.85
286.81	1669.09
287.03	1640.42
287.24	1714.15
287.46	1665.00
287.67	1746.92
287.89	1867.75
288.10	1685.48
288.32	1689.57
288.53	1800.16
288.75	1718.25
288.96	1607.66
289.18	1691.62
289.39	1662.95
289.61	1726.44
289.82	1771.49
290.04	1732.58
290.25	1658.85
290.47	1656.81
290.68	1679.33
290.90	1787.88
291.11	1644.52
291.33	1738.73
291.54	1644.52
291.76	1662.95
291.97	1767.40
292.18	1736.68
292.40	1742.82
292.61	1660.90
292.83	1808.36
293.04	1718.25
293.26	1748.97
293.47	1730.53
293.69	1644.52
293.90	1646.57
294.12	1765.35
294.33	1677.29
294.55	1689.57
294.76	1671.14
294.97	1804.26
295.19	1812.45
295.40	1675.24
295.62	1736.68
295.83	1701.86
296.05	1660.90
296.26	1785.83
296.48	1728.49
296.69	1679.33
296.90	1671.14
297.12	1679.33
297.33	1767.40
297.55	1728.49
297.76	1697.77
297.98	1736.68
298.19	1675.24
298.41	1705.96
298.62	1699.81
298.83	1796.07
299.05	1683.43
299.26	1708.01
299.48	1675.24
299.69	1730.53
299.90	1767.40
300.12	1632.23
300.33	1667.05
300.55	1660.90
300.76	1720.29
300.98	1621.99
301.19	1708.01
301.40	1705.96
301.62	1693.67
301.83	1691.62
302.05	1677.29
302.26	1681.38
302.47	1726.44
302.69	1644.52
302.90	1691.62
303.12	1652.71
303.33	1722.34
303.54	1789.92
303.76	1722.34
303.97	1660.90
304.19	1806.31
304.40	1716.20
304.61	1738.73
304.83	1832.93
305.04	1763.30
305.26	1718.25
305.47	1730.53
305.68	1705.96
305.90	1617.90
306.11	1724.39
306.33	1665.00
306.54	1671.14
306.75	1687.53
306.97	1527.78
307.18	1669.09
307.39	1705.96
307.61	1742.82
307.82	1679.33
308.04	1748.97
308.25	1683.43
308.46	1689.57
308.68	1710.05
308.89	1716.20
309.10	1810.40
309.32	1732.58
309.53	1689.57
309.74	1714.15
309.96	1685.48
310.17	1730.53
310.39	1671.14
310.60	1640.42
310.81	1673.19
311.03	1611.75
311.24	1697.77
311.45	1699.81
311.67	1828.84
311.88	1765.35
312.09	1691.62
312.31	1697.77
312.52	1746.92
312.73	1716.20
312.95	1669.09
313.16	1640.42
313.37	1763.30
313.59	1736.68
313.80	1802.21
314.01	1787.88
314.23	1662.95
314.44	1697.77
314.65	1640.42
314.87	1638.38
315.08	1687.53
315.29	1710.05
315.51	1617.90
315.72	1667.05
315.93	1820.64
316.15	1779.68
316.36	1595.37
316.57	1746.92
316.79	1695.72
317.00	1759.21
317.21	1691.62
317.43	1673.19
317.64	1736.68
317.85	1673.19
318.07	1703.91
318.28	1673.19
318.49	1857.51
318.70	1884.13
318.92	1849.32
319.13	1806.31
319.34	1877.99
319.56	1820.64
319.77	1814.50
319.98	1798.12
320.20	1740.77
320.41	1806.31
320.62	1734.63
320.83	1673.19
321.05	1853.41
321.26	1701.86
321.47	1712.10
321.69	1789.92
321.90	1673.19
322.11	1683.43
322.32	1773.54
322.54	1867.75
322.75	1705.96
322.96	1796.07
323.18	1554.41
323.39	1689.57
323.60	1679.33
323.81	1820.64
324.03	1746.92
324.24	1667.05
324.45	1732.58
324.66	1701.86
324.88	1726.44
325.09	1820.64
325.30	1759.21
325.52	1730.53
325.73	1767.40
325.94	1642.47
326.15	1615.85
326.37	1624.04
326.58	1691.62
326.79	1763.30
327.00	1683.43
327.22	1662.95
327.43	1638.38
327.64	1654.76
327.85	1683.43
328.07	1697.77
328.28	1832.93
328.49	1636.33
328.70	1652.71
328.92	1611.75
329.13	1619.94
329.34	1710.05
329.55	1794.02
329.76	1777.64
329.98	1615.85
330.19	1742.82
330.40	1705.96
330.61	1656.81
330.83	1736.68
331.04	1656.81
331.25	1646.57
331.46	1681.38
331.68	1667.05
331.89	1787.88
332.10	1753.06
332.31	1669.09
332.52	1710.05
332.74	1818.60
332.95	1619.94
333.16	1730.53
333.37	1740.77
333.58	1693.67
333.80	1728.49
334.01	1591.27
334.22	1744.87
334.43	1652.71
334.64	1689.57
334.86	1662.95
335.07	1601.51
335.28	1748.97
335.49	1611.75
335.70	1740.77
335.92	1701.86
336.13	1814.50
336.34	1675.24
336.55	1734.63
336.76	1683.43
336.98	1570.79
337.19	1734.63
337.40	1757.16
337.61	1822.69
337.82	1708.01
338.04	1736.68
338.25	1599.46
338.46	1755.11
338.67	1738.73
338.88	1705.96
339.09	1658.85
339.31	1595.37
339.52	1650.66
339.73	1691.62
339.94	1687.53
340.15	1728.49
340.36	1654.76
340.58	1763.30
340.79	1624.04
341.00	1671.14
341.21	1632.23
341.42	1783.78
341.63	1697.77
341.85	1679.33
342.06	1730.53
342.27	1611.75
342.48	1746.92
342.69	1581.03
342.90	1718.25
343.12	1767.40
343.33	1726.44
343.54	1705.96
343.75	1708.01
343.96	1712.10
344.17	1660.90
344.38	1699.81
344.60	1722.34
344.81	1660.90
345.02	1667.05
345.23	1771.49
345.44	1759.21
345.65	1757.16
345.86	1722.34
346.07	1630.18
346.29	1607.66
346.50	1769.44
346.71	1660.90
346.92	1869.80
347.13	1886.18
347.34	1722.34
347.55	1689.57
347.76	1746.92
347.98	1665.00
348.19	1691.62
348.40	1732.58
348.61	1730.53
348.82	1830.88
349.03	1718.25
349.24	1675.24
349.45	1843.17
349.66	1636.33
349.88	1626.09
350.09	1607.66
350.30	1779.68
350.51	1757.16
350.72	1699.81
350.93	1701.86
351.14	1728.49
351.35	1693.67
351.56	1728.49
351.77	1665.00
351.99	1718.25
352.20	1753.06
352.41	1646.57
352.62	1589.22
352.83	1628.14
353.04	1675.24
353.25	1656.81
353.46	1761.25
353.67	1773.54
353.88	1628.14
354.09	1701.86
354.30	1705.96
354.52	1701.86
354.73	1740.77
354.94	1738.73
355.15	1724.39
355.36	1767.40
355.57	1679.33
355.78	1705.96
355.99	1677.29
356.20	1767.40
356.41	1632.23
356.62	1691.62
356.83	1714.15
357.04	1753.06
357.25	1685.48
357.46	1632.23
357.68	1621.99
357.89	1685.48
358.10	1687.53
358.31	1718.25
358.52	1609.70
358.73	1595.37
358.94	1654.76
359.15	1656.81
359.36	1722.34
359.57	1691.62
359.78	1722.34
359.99	1726.44
360.20	1621.99
360.41	1718.25
360.62	1708.01
360.83	1673.19
361.04	1765.35
361.25	1644.52
361.46	1667.05
361.67	1763.30
361.88	1708.01
362.09	1769.44
362.30	1724.39
362.51	1701.86
362.72	1748.97
362.93	1834.98
363.14	1771.49
363.35	1687.53
363.56	1646.57
363.78	1812.45
363.99	1787.88
364.20	1671.14
364.41	1705.96
364.62	1744.87
364.83	1671.14
365.04	1681.38
365.25	1701.86
365.46	1791.97
365.67	1677.29
365.88	1693.67
366.09	1646.57
366.30	1693.67
366.51	1751.01
366.72	1650.66
366.93	1730.53
367.14	1744.87
367.35	1779.68
367.56	1677.29
367.77	1757.16
367.98	1691.62
368.18	1769.44
368.39	1652.71
368.60	1662.95
368.81	1705.96
369.02	1646.57
369.23	1748.97
369.44	1636.33
369.65	1656.81
369.86	1751.01
370.07	1789.92
370.28	1650.66
370.49	1703.91
370.70	1699.81
370.91	1636.33
371.12	1687.53
371.33	1742.82
371.54	1738.73
371.75	1812.45
371.96	1599.46
372.17	1656.81
372.38	1732.58
372.59	1701.86
372.80	1648.61
373.01	1662.95
373.22	1748.97
373.43	1724.39
373.64	1718.25
373.85	1761.25
374.06	1828.84
374.26	1757.16
374.47	1697.77
374.68	1759.21
374.89	1697.77
375.10	1662.95
375.31	1740.77
375.52	1712.10
375.73	1691.62
375.94	1660.90
376.15	1755.11
376.36	1736.68
376.57	1652.71
376.78	1691.62
376.99	1773.54
377.20	1800.16
377.40	1642.47
377.61	1794.02
377.82	1665.00
378.03	1734.63
378.24	1693.67
378.45	1730.53
378.66	1730.53
378.87	1685.48
379.08	1640.42
379.29	1710.05
379.50	1781.73
379.71	1712.10
379.91	1746.92
380.12	1671.14
380.33	1718.25
380.54	1755.11
380.75	1718.25
380.96	1640.42
381.17	1683.43
381.38	1609.70
381.59	1773.54
381.80	1720.29
382.00	1855.46
382.21	1730.53
382.42	1877.99
382.63	1869.80
382.84	1763.30
383.05	1785.83
383.26	1822.69
383.47	1720.29
383.68	1728.49
383.88	1755.11
384.09	1720.29
384.30	1769.44
384.51	1736.68
384.72	1628.14
384.93	1689.57
385.14	1722.34
385.35	1779.68
385.55	1683.43
385.76	1816.55
385.97	1699.81
386.18	1679.33
386.39	1621.99
386.60	1648.61
386.81	1761.25
387.02	1681.38
387.22	1628.14
387.43	1718.25
387.64	1744.87
387.85	1894.37
388.06	2209.76
388.27	4265.92
388.48	6746.01
388.68	8251.27
388.89	9594.73
389.10	9871.21
389.31	8697.72
389.52	7610.25
389.73	6819.74
389.93	6328.22
390.14	5914.53
390.35	5285.81
390.56	4655.03
390.77	3827.65
390.98	3129.30
391.18	2592.73
391.39	2211.81
391.60	1761.25
391.81	1765.35
392.02	1755.11
392.23	1820.64
392.43	1791.97
392.64	1710.05
392.85	1755.11
393.06	1753.06
393.27	1763.30
393.47	1669.09
393.68	1703.91
393.89	1687.53
394.10	1832.93
394.31	1699.81
394.52	1699.81
394.72	1626.09
394.93	1779.68
395.14	1652.71
395.35	1726.44
395.56	1681.38
395.76	1757.16
395.97	1810.40
396.18	1804.26
396.39	1740.77
396.60	2068.45
396.80	1791.97
397.01	1853.41
397.22	1808.36
397.43	1841.12
397.64	1746.92
397.84	1767.40
398.05	1929.19
398.26	1744.87
398.47	1740.77
398.67	1789.92
398.88	1693.67
399.09	1769.44
399.30	1740.77
399.51	1744.87
399.71	1640.42
399.92	1714.15
400.13	1808.36
400.34	1710.05
400.54	1675.24
400.75	1773.54
400.96	1681.38
401.17	1820.64
401.37	1687.53
401.58	1746.92
401.79	1736.68
402.00	1875.94
402.21	2029.54
402.41	1949.67
402.62	1957.86
402.83	1994.72
403.04	1992.67
403.24	2158.56
403.45	1777.64
403.66	1880.04
403.87	1951.71
404.07	1904.61
404.28	1902.56
404.49	1839.08
404.70	1822.69
404.90	1779.68
405.11	1736.68
405.32	1769.44
405.52	1710.05
405.73	1726.44
405.94	1613.80
406.15	1669.09
406.35	1744.87
406.56	1753.06
406.77	1738.73
406.98	1681.38
407.18	1658.85
407.39	1806.31
407.60	1705.96
407.80	1755.11
408.01	1667.05
408.22	1746.92
408.43	1728.49
408.63	1751.01
408.84	1771.49
409.05	1687.53
409.25	1613.80
409.46	1667.05
409.67	1775.59
409.88	1652.71
410.08	1671.14
410.29	1619.94
410.50	1773.54
410.70	1773.54
410.91	1724.39
411.12	1693.67
411.32	1660.90
411.53	1703.91
411.74	1847.27
411.95	1910.75
412.15	1703.91
412.36	1751.01
412.57	1697.77
412.77	1783.78
412.98	1726.44
413.19	1652.71
413.39	1767.40
413.60	1734.63
413.81	1802.21
414.01	1611.75
414.22	1806.31
414.43	1738.73
414.63	1712.10
414.84	1767.40
415.05	1726.44
415.25	1624.04
415.46	1705.96
415.67	1699.81
415.87	1701.86
416.08	1660.90
416.29	1558.50
416.49	1753.06
416.70	1654.76
416.91	1671.14
417.11	1685.48
417.32	1730.53
417.53	1787.88
417.73	1751.01
417.94	1757.16
418.15	1732.58
418.35	1771.49
418.56	1775.59
418.77	1843.17
418.97	1665.00
419.18	1716.20
419.38	1560.55
419.59	1728.49
419.80	1837.03
420.00	1632.23
420.21	1660.90
420.42	1773.54
420.62	1728.49
420.83	1650.66
421.04	1722.34
421.24	1693.67
421.45	1730.53
421.65	1724.39
421.86	1748.97
422.07	1705.96
422.27	1724.39
422.48	1728.49
422.69	1632.23
422.89	1646.57
423.10	1654.76
423.30	1603.56
423.51	1742.82
423.72	1701.86
423.92	1744.87
424.13	1751.01
424.33	1732.58
424.54	1714.15
424.75	1740.77
424.95	1896.42
425.16	1771.49
425.36	1638.38
425.57	1671.14
425.78	1769.44
425.98	1652.71
426.19	1705.96
426.39	1601.51
426.60	1632.23
426.81	1849.32
427.01	1632.23
427.22	1658.85
427.42	1695.72
427.63	1615.85
427.83	1658.85
428.04	1800.16
428.25	1705.96
428.45	1798.12
428.66	1779.68
428.86	1720.29
429.07	1738.73
429.28	1722.34
429.48	1748.97
429.69	1685.48
429.89	1652.71
430.10	1685.48
430.30	1781.73
430.51	1781.73
430.71	1708.01
430.92	1708.01
431.13	1699.81
431.33	1751.01
431.54	1708.01
431.74	1775.59
431.95	1892.32
432.15	1636.33
432.36	1787.88
432.56	1771.49
432.77	1808.36
432.98	1863.65
433.18	1826.79
433.39	1710.05
433.59	1720.29
433.80	1710.05
434.00	1845.22
434.21	1636.33
434.41	1691.62
434.62	1875.94
434.82	1601.51
435.03	1599.46
435.23	1705.96
435.44	1624.04
435.64	1660.90
435.85	1755.11
436.06	1740.77
436.26	1751.01
436.47	1689.57
436.67	1763.30
436.88	1697.77
437.08	1722.34
437.29	1753.06
437.49	1755.11
437.70	1841.12
437.90	1634.28
438.11	1787.88
438.31	1761.25
438.52	1892.32
438.72	1904.61
438.93	1873.89
439.13	1796.07
439.34	1820.64
439.54	1783.78
439.75	1783.78
439.95	1765.35
440.16	1755.11
440.36	1773.54
440.57	1732.58
440.77	1759.21
440.98	1787.88
441.18	1763.30
441.39	1720.29
441.59	1716.20
441.80	1810.40
442.00	1726.44
442.21	1800.16
442.41	1685.48
442.62	1742.82
442.82	1613.80
443.02	1738.73
443.23	1751.01
443.43	1683.43
443.64	1853.41
443.84	1716.20
444.05	1730.53
444.25	1689.57
444.46	1712.10
444.66	1697.77
444.87	1867.75
445.07	1634.28
445.28	1679.33
445.48	1794.02
445.69	1873.89
445.89	1867.75
446.09	1855.46
446.30	2009.06
446.50	2635.74
446.71	3659.72
446.91	4356.03
447.12	4698.04
447.32	4857.78
447.53	4298.69
447.73	3696.58
447.93	3561.42
448.14	3348.43
448.34	3262.41
448.55	2932.69
448.75	2858.96
448.96	2682.84
449.16	2451.42
449.36	2289.63
449.57	2013.15
449.77	1943.52
449.98	1847.27
450.18	1882.08
450.39	1800.16
450.59	1708.01
450.79	1724.39
451.00	1728.49
451.20	1832.93
451.41	1669.09
451.61	1783.78
451.81	1722.34
452.02	1734.63
452.22	1763.30
452.43	1687.53
452.63	1755.11
452.84	1783.78
453.04	1642.47
453.24	1710.05
453.45	1736.68
453.65	1720.29
453.86	1779.68
454.06	1767.40
454.26	1837.03
454.47	1724.39
454.67	1769.44
454.87	1734.63
455.08	1761.25
455.28	1798.12
455.49	1728.49
455.69	1705.96
455.89	1816.55
456.10	1828.84
456.30	1724.39
456.51	1787.88
456.71	1722.34
456.91	1798.12
457.12	1779.68
457.32	1716.20
457.52	1632.23
457.73	1775.59
457.93	1716.20
458.14	1675.24
458.34	1689.57
458.54	1693.67
458.75	1732.58
458.95	1785.83
459.15	1771.49
459.36	1800.16
459.56	1781.73
459.76	1812.45
459.97	1761.25
460.17	1753.06
460.37	1783.78
460.58	1812.45
460.78	1734.63
460.99	1736.68
461.19	1746.92
461.39	1693.67
461.60	1632.23
461.80	1705.96
462.00	1671.14
462.21	1648.61
462.41	1705.96
462.61	1615.85
462.82	1638.38
463.02	1777.64
463.22	1640.42
463.43	1763.30
463.63	1734.63
463.83	1722.34
464.04	1759.21
464.24	1669.09
464.44	1652.71
464.64	1732.58
464.85	1753.06
465.05	1851.36
465.25	1683.43
465.46	1730.53
465.66	1794.02
465.86	1775.59
466.07	1773.54
466.27	1769.44
466.47	1683.43
466.68	1767.40
466.88	1701.86
467.08	1800.16
467.29	1753.06
467.49	1794.02
467.69	1689.57
467.89	1716.20
468.10	1685.48
468.30	1744.87
468.50	1812.45
468.71	1806.31
468.91	1665.00
469.11	1767.40
469.31	1757.16
469.52	1703.91
469.72	1757.16
469.92	1834.98
470.13	1703.91
470.33	1736.68
470.53	1859.56
470.73	2127.84
470.94	2312.16
471.14	2344.92
471.34	2516.95
471.54	2428.89
471.75	2164.70
471.95	2125.79
472.15	2037.73
472.36	2129.89
472.56	2056.16
472.76	2072.54
472.96	1968.10
473.17	1984.48
473.37	1964.00
473.57	1834.98
473.77	1910.75
473.98	1800.16
474.18	1665.00
474.38	1877.99
474.58	1697.77
474.79	1697.77
474.99	1755.11
475.19	1755.11
475.39	1677.29
475.60	1769.44
475.80	1677.29
476.00	1779.68
476.20	1734.63
476.41	1699.81
476.61	1794.02
476.81	1773.54
477.01	1624.04
477.21	1841.12
477.42	1806.31
477.62	1665.00
477.82	1734.63
478.02	1685.48
478.23	1705.96
478.43	1726.44
478.63	1634.28
478.83	1738.73
479.03	1687.53
479.24	1785.83
479.44	1849.32
479.64	1669.09
479.84	1599.46
480.04	1689.57
480.25	1714.15
480.45	1669.09
480.65	1740.77
480.85	1744.87
481.06	1683.43
481.26	1718.25
481.46	1697.77
481.66	1708.01
481.86	1601.51
482.06	1845.22
482.27	1716.20
482.47	1681.38
482.67	1710.05
482.87	1626.09
483.07	1855.46
483.28	1708.01
483.48	1665.00
483.68	1736.68
483.88	1628.14
484.08	1714.15
484.29	1632.23
484.49	1712.10
484.69	1724.39
484.89	1732.58
485.09	1798.12
485.29	1822.69
485.50	1714.15
485.70	1611.75
485.90	1834.98
486.10	1753.06
486.30	1726.44
486.50	1738.73
486.71	1701.86
486.91	1804.26
487.11	1740.77
487.31	1675.24
487.51	1769.44
487.71	1660.90
487.91	1665.00
488.12	1624.04
488.32	1615.85
488.52	1665.00
488.72	1656.81
488.92	1697.77
489.12	1751.01
489.32	1705.96
489.53	1806.31
489.73	1705.96
489.93	1816.55
490.13	1722.34
490.33	1648.61
490.53	1685.48
490.73	1839.08
490.94	1685.48
491.14	1816.55
491.34	1765.35
491.54	2140.13
491.74	2645.98
491.94	2906.07
492.14	3000.27
492.34	3010.51
492.54	2828.24
492.75	2529.24
492.95	2369.50
493.15	2318.30
493.35	2265.05
493.55	2205.66
493.75	2101.22
493.95	2154.46
494.15	2056.16
494.35	1869.80
494.56	1845.22
494.76	1763.30
494.96	1771.49
495.16	1789.92
495.36	1724.39
495.56	1718.25
495.76	1789.92
495.96	1697.77
496.16	1626.09
496.36	1810.40
496.56	1722.34
496.77	1804.26
496.97	1742.82
497.17	1804.26
497.37	1703.91
497.57	1755.11
497.77	1757.16
497.97	1626.09
498.17	1665.00
498.37	1701.86
498.57	1769.44
498.77	1746.92
498.97	1812.45
499.17	1812.45
499.38	1738.73
499.58	1816.55
499.78	1826.79
499.98	1714.15
500.18	1734.63
500.38	1683.43
500.58	1898.47
500.78	2615.26
500.98	4493.24
501.18	5914.53
501.38	6817.69
501.58	7075.73
501.78	6688.67
501.98	5476.27
502.18	5001.14
502.38	4476.86
502.58	4204.48
502.78	3864.52
502.98	3661.77
503.18	3438.54
503.38	3151.82
503.59	2844.63
503.79	2705.37
503.99	2492.38
504.19	2367.45
504.39	2213.85
504.59	2187.23
504.79	2121.70
504.99	2041.82
505.19	1898.47
505.39	1863.65
505.59	1966.05
505.79	1832.93
505.99	1798.12
506.19	1763.30
506.39	1888.23
506.59	1718.25
506.79	1759.21
506.99	1800.16
507.19	1824.74
507.39	1759.21
507.59	1632.23
507.79	1712.10
507.99	1576.94
508.19	1769.44
508.39	1794.02
508.59	1734.63
508.79	1845.22
508.99	1775.59
509.19	1669.09
509.39	1763.30
509.59	1615.85
509.79	1716.20
509.99	1662.95
510.19	1769.44
510.39	1794.02
510.59	1665.00
510.79	1658.85
510.99	1673.19
511.19	1697.77
511.39	1875.94
511.59	1783.78
511.79	1822.69
511.99	1665.00
512.19	1763.30
512.38	1757.16
512.58	1705.96
512.78	1738.73
512.98	1734.63
513.18	1865.70
513.38	1648.61
513.58	1757.16
513.78	1730.53
513.98	1734.63
514.18	1757.16
514.38	1681.38
514.58	1705.96
514.78	1669.09
514.98	1710.05
515.18	1675.24
515.38	1681.38
515.58	1845.22
515.78	1689.57
515.98	1683.43
516.18	1791.97
516.38	1828.84
516.57	1746.92
516.77	1699.81
516.97	1818.60
517.17	1648.61
517.37	1576.94
517.57	1695.72
517.77	1757.16
517.97	1732.58
518.17	1710.05
518.37	1650.66
518.57	1638.38
518.77	1644.52
518.97	1720.29
519.16	1808.36
519.36	1767.40
519.56	1705.96
519.76	1726.44
519.96	1720.29
520.16	1775.59
520.36	1632.23
520.56	1791.97
520.76	1679.33
520.96	1724.39
521.16	1669.09
521.35	1720.29
521.55	1767.40
521.75	1820.64
521.95	1722.34
522.15	1734.63
522.35	1648.61
522.55	1716.20
522.75	1796.07
522.95	1693.67
523.14	1701.86
523.34	1814.50
523.54	1742.82
523.74	1773.54
523.94	1757.16
524.14	1662.95
524.34	1681.38
524.54	1861.60
524.73	1763.30
524.93	1767.40
525.13	1748.97
525.33	1652.71
525.53	1943.52
525.73	1716.20
525.93	1742.82
526.13	1789.92
526.32	1769.44
526.52	1746.92
526.72	1900.52
526.92	1794.02
527.12	1685.48
527.32	1742.82
527.52	1763.30
527.71	1734.63
527.91	1685.48
528.11	1712.10
528.31	1691.62
528.51	1718.25
528.71	1771.49
528.90	1796.07
529.10	1804.26
529.30	1859.56
529.50	1665.00
529.70	1759.21
529.90	1783.78
530.09	1691.62
530.29	1640.42
530.49	1757.16
530.69	1861.60
530.89	1710.05
531.09	1724.39
531.28	1748.97
531.48	1828.84
531.68	1730.53
531.88	1732.58
532.08	1775.59
532.28	1720.29
532.47	1806.31
532.67	1732.58
532.87	1714.15
533.07	1746.92
533.27	1742.82
533.46	1765.35
533.66	1759.21
533.86	1705.96
534.06	1701.86
534.26	1804.26
534.45	1736.68
534.65	1845.22
534.85	1722.34
535.05	1730.53
535.25	1765.35
535.44	1648.61
535.64	1759.21
535.84	1656.81
536.04	1689.57
536.24	1640.42
536.43	1724.39
536.63	1746.92
536.83	1734.63
537.03	1689.57
537.22	1644.52
537.42	1605.61
537.62	1773.54
537.82	1671.14
538.02	1804.26
538.21	1822.69
538.41	1902.56
538.61	1744.87
538.81	1763.30
539.00	1767.40
539.20	1718.25
539.40	1710.05
539.60	1673.19
539.79	1796.07
539.99	1746.92
540.19	1675.24
540.39	1683.43
540.58	1812.45
540.78	1697.77
540.98	1734.63
541.18	1806.31
541.37	1726.44
541.57	1660.90
541.77	1794.02
541.97	1748.97
542.16	1693.67
542.36	1665.00
542.56	1687.53
542.76	1859.56
542.95	1810.40
543.15	1726.44
543.35	1763.30
543.54	1691.62
543.74	1718.25
543.94	1830.88
544.14	1738.73
544.33	1705.96
544.53	1763.30
544.73	1748.97
544.93	1675.24
545.12	1699.81
545.32	1794.02
545.52	1683.43
545.71	1681.38
545.91	1689.57
546.11	1734.63
546.30	1665.00
546.50	1761.25
546.70	1746.92
546.90	1740.77
547.09	1640.42
547.29	1746.92
547.49	1791.97
547.68	1724.39
547.88	1699.81
548.08	1734.63
548.27	2111.46
548.47	1669.09
548.67	1703.91
548.87	1763.30
549.06	1746.92
549.26	1748.97
549.46	1734.63
549.65	1732.58
549.85	1748.97
550.05	1810.40
550.24	1650.66
550.44	1722.34
550.64	1708.01
550.83	1773.54
551.03	1841.12
551.23	1816.55
551.42	1814.50
551.62	1695.72
551.82	1705.96
552.01	1689.57
552.21	1806.31
552.41	1837.03
552.60	1820.64
552.80	1716.20
553.00	1738.73
553.19	1738.73
553.39	1767.40
553.59	1628.14
553.78	1802.21
553.98	1796.07
554.17	1636.33
554.37	1781.73
554.57	1816.55
554.76	1681.38
554.96	1662.95
555.16	1732.58
555.35	1712.10
555.55	1796.07
555.75	1736.68
555.94	1789.92
556.14	1705.96
556.33	1712.10
556.53	1697.77
556.73	1722.34
556.92	1751.01
557.12	1783.78
557.32	1851.36
557.51	1853.41
557.71	1753.06
557.90	1841.12
558.10	1818.60
558.30	1662.95
558.49	1775.59
558.69	1763.30
558.88	1800.16
559.08	1765.35
559.28	1685.48
559.47	1710.05
559.67	1826.79
559.86	1853.41
560.06	1710.05
560.26	1705.96
560.45	1789.92
560.65	1744.87
560.84	1820.64
561.04	1681.38
561.24	1767.40
561.43	1634.28
561.63	1898.47
561.82	1769.44
562.02	1800.16
562.22	1718.25
562.41	1746.92
562.61	1695.72
562.80	1740.77
563.00	1890.28
563.19	1789.92
563.39	1748.97
563.59	1787.88
563.78	1675.24
563.98	1630.18
564.17	1689.57
564.37	1681.38
564.56	1767.40
564.76	1703.91
564.96	1802.21
565.15	1687.53
565.35	1886.18
565.54	1697.77
565.74	1746.92
565.93	1742.82
566.13	1701.86
566.32	1759.21
566.52	1886.18
566.71	1724.39
566.91	1845.22
567.11	1740.77
567.30	1748.97
567.50	1796.07
567.69	1726.44
567.89	1726.44
568.08	1740.77
568.28	1789.92
568.47	1705.96
568.67	1667.05
568.86	1775.59
569.06	1761.25
569.25	1718.25
569.45	1687.53
569.64	1683.43
569.84	1746.92
570.04	1746.92
570.23	1646.57
570.43	1718.25
570.62	1675.24
570.82	1869.80
571.01	1681.38
571.21	1697.77
571.40	1642.47
571.60	1816.55
571.79	1724.39
571.99	1742.82
572.18	1742.82
572.38	1757.16
572.57	1742.82
572.77	1824.74
572.96	1902.56
573.16	1787.88
573.35	1746.92
573.55	1804.26
573.74	1738.73
573.94	1726.44
574.13	1654.76
574.33	1816.55
574.52	1804.26
574.71	1679.33
574.91	1701.86
575.10	1656.81
575.30	1769.44
575.49	1628.14
575.69	1689.57
575.88	1777.64
576.08	1736.68
576.27	1765.35
576.47	1701.86
576.66	1910.75
576.86	1869.80
577.05	1781.73
577.25	1789.92
577.44	1867.75
577.64	1693.67
577.83	1773.54
578.02	1693.67
578.22	1789.92
578.41	1802.21
578.61	1730.53
578.80	1628.14
579.00	1755.11
579.19	1732.58
579.39	1843.17
579.58	1783.78
579.77	1712.10
579.97	1810.40
580.16	1834.98
580.36	1736.68
580.55	1861.60
580.75	1789.92
580.94	1705.96
581.13	1918.95
581.33	1837.03
581.52	1699.81
581.72	1857.51
581.91	1849.32
582.11	1769.44
582.30	1812.45
582.49	1716.20
582.69	1867.75
582.88	1798.12
583.08	1746.92
583.27	1828.84
583.47	1771.49
583.66	1755.11
583.85	1724.39
584.05	1865.70
584.24	1779.68
584.44	1705.96
584.63	1851.36
584.82	1853.41
585.02	1757.16
585.21	1765.35
585.41	1808.36
585.60	1751.01
585.79	1920.99
585.99	1902.56
586.18	1828.84
586.37	2205.66
586.57	3319.76
586.76	9789.29
586.96	24626.82
587.15	34643.44
587.34	40707.47
587.54	42413.43
587.73	36836.81
587.93	26705.51
588.12	21497.53
588.31	18487.01
588.51	16267.02
588.70	15255.32
588.89	14368.55
589.09	12756.80
589.28	11065.18
589.47	9463.66
589.67	8038.28
589.86	6557.60
590.06	4966.32
590.25	3991.49
590.44	3114.96
590.64	2607.06
590.83	2293.72
591.02	2176.99
591.22	2013.15
591.41	1957.86
591.60	1777.64
591.80	1961.95
591.99	1746.92
592.18	1742.82
592.38	1873.89
592.57	1787.88
592.76	1796.07
592.96	1810.40
593.15	1710.05
593.34	1843.17
593.54	1716.20
593.73	1705.96
593.92	1816.55
594.12	1701.86
594.31	1730.53
594.50	1767.40
594.70	1757.16
594.89	1824.74
595.08	1673.19
595.28	1722.34
595.47	1949.67
595.66	1769.44
595.86	1667.05
596.05	1708.01
596.24	1677.29
596.43	1769.44
596.63	1832.93
596.82	1714.15
597.01	1701.86
597.21	1886.18
597.40	1816.55
597.59	1773.54
597.79	1777.64
597.98	1806.31
598.17	1781.73
598.36	1783.78
598.56	1746.92
598.75	1730.53
598.94	1779.68
599.14	1763.30
599.33	1718.25
599.52	1787.88
599.71	1755.11
599.91	1794.02
600.10	1853.41
600.29	1763.30
600.48	1808.36
600.68	1796.07
600.87	1759.21
601.06	1765.35
601.26	1751.01
601.45	1763.30
601.64	1708.01
601.83	1796.07
602.03	1755.11
602.22	1646.57
602.41	1753.06
602.60	1859.56
602.80	1761.25
602.99	1808.36
603.18	1744.87
603.37	1787.88
603.57	1720.29
603.76	1767.40
603.95	1742.82
604.14	1726.44
604.34	1679.33
604.53	1705.96
604.72	1818.60
604.91	1796.07
605.10	1767.40
605.30	1691.62
605.49	1875.94
605.68	1755.11
605.87	1767.40
606.07	1685.48
606.26	1677.29
606.45	1751.01
606.64	1763.30
606.84	1695.72
607.03	1771.49
607.22	1791.97
607.41	1644.52
607.60	1624.04
607.80	1832.93
607.99	1697.77
608.18	1738.73
608.37	1751.01
608.56	1720.29
608.76	1732.58
608.95	1894.37
609.14	1722.34
609.33	1755.11
609.52	1769.44
609.72	1777.64
609.91	1822.69
610.10	1665.00
610.29	1800.16
610.48	1718.25
610.68	1744.87
610.87	1667.05
611.06	1728.49
611.25	1769.44
611.44	1767.40
611.63	1722.34
611.83	1861.60
612.02	1632.23
612.21	1806.31
612.40	1671.14
612.59	1597.42
612.79	1693.67
612.98	1761.25
613.17	1757.16
613.36	1716.20
613.55	1818.60
613.74	1734.63
613.93	1642.47
614.13	1769.44
614.32	1710.05
614.51	1804.26
614.70	1669.09
614.89	1708.01
615.08	1796.07
615.28	2125.79
615.47	1699.81
615.66	1720.29
615.85	1755.11
616.04	1708.01
616.23	1693.67
616.42	1732.58
616.62	1720.29
616.81	1751.01
617.00	1665.00
617.19	1773.54
617.38	1718.25
617.57	1736.68
617.76	1726.44
617.95	1775.59
618.15	1730.53
618.34	1847.27
618.53	1644.52
618.72	1777.64
618.91	1855.46
619.10	1841.12
619.29	1759.21
619.48	1710.05
619.68	1669.09
619.87	1767.40
620.06	1718.25
620.25	1781.73
620.44	1701.86
620.63	1722.34
620.82	1761.25
621.01	1744.87
621.20	1679.33
621.39	1677.29
621.59	1775.59
621.78	1705.96
621.97	1687.53
622.16	1742.82
622.35	1689.57
622.54	1824.74
622.73	1820.64
622.92	1632.23
623.11	1775.59
623.30	1722.34
623.49	1841.12
623.68	1654.76
623.88	1783.78
624.07	1714.15
624.26	1740.77
624.45	1734.63
624.64	1705.96
624.83	1763.30
625.02	1701.86
625.21	1763.30
625.40	1769.44
625.59	1775.59
625.78	1722.34
625.97	1755.11
626.16	1742.82
626.35	1771.49
626.54	1648.61
626.74	1802.21
626.93	1654.76
627.12	1722.34
627.31	1787.88
627.50	1751.01
627.69	1847.27
627.88	1708.01
628.07	1671.14
628.26	1675.24
628.45	1611.75
628.64	1634.28
628.83	1771.49
629.02	1667.05
629.21	1708.01
629.40	1720.29
629.59	1701.86
629.78	1722.34
629.97	1632.23
630.16	1736.68
630.35	1720.29
630.54	1730.53
630.73	1687.53
630.92	1773.54
631.11	1648.61
631.30	1708.01
631.49	1763.30
631.68	1732.58
631.87	1775.59
632.06	1722.34
632.25	1837.03
632.44	1734.63
632.63	1708.01
632.82	1681.38
633.01	1640.42
633.20	1763.30
633.39	1695.72
633.58	1636.33
633.77	1722.34
633.96	1746.92
634.15	1800.16
634.34	1724.39
634.53	1697.77
634.72	1714.15
634.91	1644.52
635.10	1724.39
635.29	1732.58
635.48	1712.10
635.67	1669.09
635.86	1566.70
636.05	1808.36
636.24	1800.16
636.43	1685.48
636.62	1738.73
636.81	1646.57
637.00	1708.01
637.19	1812.45
637.38	1738.73
637.57	1730.53
637.76	1718.25
637.95	1744.87
638.14	1689.57
638.33	1644.52
638.52	1716.20
638.71	1615.85
638.89	1617.90
639.08	1834.98
639.27	1763.30
639.46	1691.62
639.65	1763.30
639.84	1669.09
640.03	1787.88
640.22	1718.25
640.41	1810.40
640.60	1609.70
640.79	1736.68
640.98	1769.44
641.17	1732.58
641.36	1732.58
641.55	1742.82
641.74	1611.75
641.92	1716.20
642.11	1708.01
642.30	1730.53
642.49	1783.78
642.68	1656.81
642.87	1726.44
643.06	1697.77
643.25	1710.05
643.44	1656.81
643.63	1695.72
643.82	1673.19
644.00	1714.15
644.19	1730.53
644.38	1636.33
644.57	1699.81
644.76	1703.91
644.95	1701.86
645.14	1751.01
645.33	1738.73
645.52	1744.87
645.71	1730.53
645.89	1652.71
646.08	1703.91
646.27	1732.58
646.46	1810.40
646.65	1599.46
646.84	1771.49
647.03	1572.84
647.22	1849.32
647.40	1734.63
647.59	1632.23
647.78	1576.94
647.97	1720.29
648.16	1667.05
648.35	1812.45
648.54	1771.49
648.73	1716.20
648.91	1802.21
649.10	1703.91
649.29	1654.76
649.48	1748.97
649.67	1624.04
649.86	1730.53
650.05	1619.94
650.23	1746.92
650.42	1644.52
650.61	1720.29
650.80	1738.73
650.99	1843.17
651.18	1742.82
651.36	1687.53
651.55	1689.57
651.74	1738.73
651.93	1671.14
652.12	1691.62
652.31	1669.09
652.49	1658.85
652.68	1578.98
652.87	1796.07
653.06	1742.82
653.25	1859.56
653.44	1720.29
653.62	1794.02
653.81	1763.30
654.00	1796.07
654.19	1681.38
654.38	1882.08
654.56	1695.72
654.75	1726.44
654.94	1679.33
655.13	1763.30
655.32	1755.11
655.51	1800.16
655.69	1693.67
655.88	1736.68
656.07	1746.92
656.26	1761.25
656.45	1665.00
656.63	1779.68
656.82	1718.25
657.01	1701.86
657.20	1691.62
657.38	1794.02
657.57	1626.09
657.76	1630.18
657.95	1791.97
658.14	1710.05
658.32	1759.21
658.51	1626.09
658.70	1730.53
658.89	1730.53
659.08	1646.57
659.26	1738.73
659.45	1583.08
659.64	1794.02
659.83	1589.22
660.01	1908.71
660.20	1785.83
660.39	1810.40
660.58	1603.56
660.76	1691.62
660.95	1642.47
661.14	1724.39
661.33	1636.33
661.51	1769.44
661.70	1730.53
661.89	1796.07
662.08	1742.82
662.26	1656.81
662.45	1617.90
662.64	1834.98
662.83	1748.97
663.01	1740.77
663.20	1687.53
663.39	1746.92
663.58	1720.29
663.76	1728.49
663.95	1767.40
664.14	1595.37
664.32	1671.14
664.51	1658.85
664.70	1574.89
664.89	1759.21
665.07	1652.71
665.26	1808.36
665.45	1687.53
665.64	1722.34
665.82	1767.40
666.01	1806.31
666.20	1701.86
666.38	1771.49
666.57	1818.60
666.76	2205.66
666.95	4573.11
667.13	10415.97
667.32	15193.88
667.51	17999.60
667.69	19234.52
667.88	17858.29
668.07	12293.96
668.25	9619.31
668.44	8056.71
668.63	7372.69
668.81	6872.98
669.00	6227.87
669.19	5576.62
669.38	4966.32
669.56	4622.27
669.75	4020.16
669.94	3459.02
670.12	2918.36
670.31	2598.87
670.50	2236.38
670.68	2074.59
670.87	1970.15
671.06	1880.04
671.24	1800.16
671.43	1781.73
671.62	1814.50
671.80	1654.76
671.99	1775.59
672.18	1722.34
672.36	1841.12
672.55	1693.67
672.74	1746.92
672.92	1689.57
673.11	1738.73
673.29	1652.71
673.48	1765.35
673.67	1634.28
673.85	1779.68
674.04	1710.05
674.23	1714.15
674.41	1810.40
674.60	1718.25
674.79	1648.61
674.97	1673.19
675.16	1734.63
675.34	1767.40
675.53	1658.85
675.72	1726.44
675.90	1773.54
676.09	1718.25
676.28	1757.16
676.46	1652.71
676.65	1812.45
676.83	1708.01
677.02	1791.97
677.21	1732.58
677.39	1746.92
677.58	1705.96
677.77	1691.62
677.95	1632.23
678.14	1681.38
678.32	1697.77
678.51	1660.90
678.70	1812.45
678.88	1724.39
679.07	1773.54
679.25	1722.34
679.44	1701.86
679.63	1599.46
679.81	1800.16
680.00	1763.30
680.18	1705.96
680.37	1728.49
680.55	1667.05
680.74	1671.14
680.93	1667.05
681.11	1648.61
681.30	1746.92
681.48	1667.05
681.67	1689.57
681.85	1746.92
682.04	1683.43
682.23	1798.12
682.41	1761.25
682.60	1730.53
682.78	1671.14
682.97	1716.20
683.15	1730.53
683.34	1761.25
683.53	1800.16
683.71	1640.42
683.90	1814.50
684.08	1787.88
684.27	1654.76
684.45	1701.86
684.64	1779.68
684.82	1738.73
685.01	1818.60
685.19	1783.78
685.38	1785.83
685.57	1701.86
685.75	1697.77
685.94	1650.66
686.12	1697.77
686.31	1648.61
686.49	1732.58
686.68	1599.46
686.86	1681.38
687.05	1685.48
687.23	1822.69
687.42	1716.20
687.60	1689.57
687.79	1646.57
687.97	1845.22
688.16	1769.44
688.34	1798.12
688.53	1595.37
688.71	1732.58
688.90	1722.34
689.08	1710.05
689.27	1628.14
689.45	1669.09
689.64	1638.38
689.82	1753.06
690.01	1765.35
690.19	1697.77
690.38	1703.91
690.56	1767.40
690.75	1693.67
690.93	1716.20
691.12	1701.86
691.30	1755.11
691.49	1710.05
691.67	1638.38
691.86	1826.79
692.04	1648.61
692.23	1691.62
692.41	1673.19
692.60	1816.55
692.78	1798.12
692.97	1667.05
693.15	1697.77
693.34	1783.78
693.52	1695.72
693.71	1681.38
693.89	1687.53
694.08	1632.23
694.26	1689.57
694.44	1755.11
694.63	1773.54
694.81	1677.29
695.00	1675.24
695.18	1736.68
695.37	1824.74
695.55	1732.58
695.74	1681.38
695.92	1681.38
696.10	1736.68
696.29	1632.23
696.47	1677.29
696.66	1583.08
696.84	1695.72
697.03	1648.61
697.21	1771.49
697.40	2357.21
697.58	1818.60
697.76	1619.94
697.95	1748.97
698.13	1638.38
698.32	1718.25
698.50	1650.66
698.68	1761.25
698.87	1740.77
699.05	1814.50
699.24	1736.68
699.42	1654.76
699.61	1734.63
699.79	1714.15
699.97	1685.48
700.16	1683.43
700.34	1689.57
700.53	1726.44
700.71	1810.40
700.89	1769.44
701.08	1675.24
701.26	1773.54
701.45	2093.02
701.63	1624.04
701.81	1681.38
702.00	1652.71
702.18	1712.10
702.37	1638.38
702.55	1736.68
702.73	1640.42
702.92	1669.09
703.10	1783.78
703.28	1636.33
703.47	1656.81
703.65	1771.49
703.84	1759.21
704.02	1738.73
704.20	1755.11
704.39	1628.14
704.57	1742.82
704.75	1751.01
704.94	1761.25
705.12	1705.96
705.30	1877.99
705.49	2197.47
705.67	4460.48
705.86	9510.77
706.04	12547.90
706.22	14556.96
706.41	15337.24
706.59	14143.27
706.77	9799.53
706.96	7548.81
707.14	6596.51
707.32	6006.69
707.51	5740.46
707.69	4730.81
707.87	4310.97
708.06	3561.42
708.24	2955.22
708.42	2553.82
708.61	2320.35
708.79	1923.04
708.97	1890.28
709.16	1767.40
709.34	1789.92
709.52	1710.05
709.71	1738.73
709.89	1755.11
710.07	1677.29
710.26	1642.47
710.44	1681.38
710.62	1714.15
710.80	1744.87
710.99	1810.40
711.17	1787.88
711.35	1642.47
711.54	1685.48
711.72	1779.68
711.90	1740.77
712.09	1771.49
712.27	1726.44
712.45	1742.82
712.63	1652.71
712.82	1740.77
713.00	1783.78
713.18	1787.88
713.37	1697.77
713.55	1728.49
713.73	1671.14
713.91	1820.64
714.10	1658.85
714.28	1732.58
714.46	1726.44
714.65	1812.45
714.83	1742.82
715.01	1738.73
715.19	1806.31
715.38	1714.15
715.56	1748.97
715.74	1685.48
715.92	1724.39
716.11	1800.16
716.29	1574.89
716.47	1714.15
716.65	1746.92
716.84	1644.52
717.02	1771.49
717.20	1662.95
717.38	1650.66
717.57	1708.01
717.75	1697.77
717.93	1644.52
718.11	1775.59
718.30	1658.85
718.48	1761.25
718.66	1800.16
718.84	1751.01
719.03	1671.14
719.21	1652.71
719.39	1798.12
719.57	1755.11
719.75	1744.87
719.94	1654.76
720.12	1751.01
720.30	1712.10
720.48	1722.34
720.67	1650.66
720.85	1640.42
721.03	1701.86
721.21	1621.99
721.39	1767.40
721.58	1794.02
721.76	1751.01
721.94	1742.82
722.12	1697.77
722.30	1701.86
722.49	1581.03
722.67	1691.62
722.85	1740.77
723.03	1671.14
723.21	1669.09
723.40	1812.45
723.58	1781.73
723.76	1681.38
723.94	1808.36
724.12	1730.53
724.30	1736.68
724.49	1798.12
724.67	1658.85
724.85	1720.29
725.03	1624.04
725.21	1683.43
725.40	1759.21
725.58	1630.18
725.76	1734.63
725.94	1703.91
726.12	1652.71
726.30	1812.45
726.49	1699.81
726.67	1695.72
726.85	1656.81
727.03	1808.36
727.21	2156.51
727.39	2887.64
727.57	3815.37
727.76	4194.24
727.94	4462.52
728.12	4401.08
728.30	3710.92
728.48	2836.44
728.66	2729.94
728.84	2576.34
729.03	2324.44
729.21	2117.60
729.39	1982.43
729.57	1847.27
729.75	1820.64
729.93	1857.51
730.11	1755.11
730.30	1740.77
730.48	1705.96
730.66	1818.60
730.84	1773.54
731.02	1665.00
731.20	1685.48
731.38	1730.53
731.56	1656.81
731.74	1603.56
731.93	1662.95
732.11	1714.15
732.29	1714.15
732.47	1732.58
732.65	1724.39
732.83	1763.30
733.01	1722.34
733.19	1648.61
733.37	1779.68
733.56	1875.94
733.74	1660.90
733.92	1843.17
734.10	1660.90
734.28	1779.68
734.46	1609.70
734.64	1718.25
734.82	1675.24
735.00	1615.85
735.18	1681.38
735.36	1667.05
735.54	1609.70
735.73	1708.01
735.91	1742.82
736.09	1718.25
736.27	1687.53
736.45	1660.90
736.63	1611.75
736.81	1714.15
736.99	1841.12
737.17	1753.06
737.35	1624.04
737.53	1665.00
737.71	1665.00
737.89	1814.50
738.07	1687.53
738.25	1693.67
738.43	1644.52
738.61	1699.81
738.80	1554.41
738.98	1687.53
739.16	1658.85
739.34	1683.43
739.52	1794.02
739.70	1691.62
739.88	1779.68
740.06	1755.11
740.24	1619.94
740.42	1738.73
740.60	1523.69
740.78	1628.14
740.96	1615.85
741.14	1675.24
741.32	1746.92
741.50	1691.62
741.68	1810.40
741.86	1748.97
742.04	1644.52
742.22	1679.33
742.40	1656.81
742.58	1720.29
742.76	1673.19
742.94	1826.79
743.12	1599.46
743.30	1718.25
743.48	1767.40
743.66	1705.96
743.84	1779.68
744.02	1669.09
744.20	1724.39
744.38	1677.29
744.56	1714.15
744.74	1824.74
744.92	1673.19
745.10	1775.59
745.28	1773.54
745.46	1777.64
745.64	1691.62
745.82	1779.68
746.00	1673.19
746.18	1708.01
746.36	1646.57
746.54	1775.59
746.72	1685.48
746.90	1632.23
747.08	1718.25
747.26	1650.66
747.44	1822.69
747.62	1703.91
747.80	1806.31
747.98	1716.20
748.15	1705.96
748.33	1746.92
748.51	1736.68
748.69	1744.87
748.87	1695.72
749.05	1687.53
749.23	1679.33
749.41	1728.49
749.59	1697.77
749.77	1830.88
749.95	1740.77
750.13	1697.77
750.31	1708.01
750.49	1742.82
750.67	1732.58
750.85	1820.64
751.03	1849.32
751.20	1808.36
751.38	1689.57
751.56	1660.90
751.74	1763.30
751.92	1712.10
752.10	1681.38
752.28	1755.11
752.46	1669.09
752.64	1708.01
752.82	1720.29
753.00	1818.60
753.18	1697.77
753.35	1701.86
753.53	1697.77
753.71	1648.61
753.89	1705.96
754.07	1705.96
754.25	1757.16
754.43	1728.49
754.61	1607.66
754.79	1753.06
754.97	1665.00
755.14	1708.01
755.32	1697.77
755.50	1714.15
755.68	1632.23
755.86	1724.39
756.04	1665.00
756.22	1648.61
756.40	1656.81
756.57	1832.93
756.75	1685.48
756.93	1751.01
757.11	1744.87
757.29	1656.81
757.47	1658.85
757.65	1613.80
757.82	1624.04
758.00	1742.82
758.18	1673.19
758.36	1634.28
758.54	1787.88
758.72	1574.89
758.90	1777.64
759.07	1730.53
759.25	1669.09
759.43	1699.81
759.61	1677.29
759.79	2224.09
759.97	1751.01
760.15	1642.47
760.32	1724.39
760.50	1660.90
760.68	1839.08
760.86	1581.03
761.04	1798.12
761.22	1736.68
761.39	1755.11
761.57	1701.86
761.75	1718.25
761.93	1652.71
762.11	1677.29
762.28	1708.01
762.46	1673.19
762.64	1728.49
762.82	1650.66
763.00	1669.09
763.18	1755.11
763.35	1605.61
763.53	1759.21
763.71	1699.81
763.89	1683.43
764.07	1744.87
764.24	1650.66
764.42	1732.58
764.60	1714.15
764.78	1714.15
764.96	1732.58
765.13	1781.73
765.31	1669.09
765.49	1759.21
765.67	1798.12
765.84	1665.00
766.02	1689.57
766.20	1603.56
766.38	1718.25
766.56	1830.88
766.73	1773.54
766.91	1746.92
767.09	1773.54
767.27	1687.53
767.44	1714.15
767.62	1765.35
767.80	1767.40
767.98	1765.35
768.15	1615.85
768.33	1716.20
768.51	1773.54
768.69	1683.43
768.87	1691.62
769.04	1642.47
769.22	1765.35
769.40	1789.92
769.58	1820.64
769.75	1777.64
769.93	1759.21
770.11	1757.16
770.28	1689.57
770.46	1755.11
770.64	1740.77
770.82	1642.47
770.99	1720.29
771.17	1728.49
771.35	1656.81
771.53	1603.56
771.70	1710.05
771.88	1775.59
772.06	1730.53
772.23	1732.58
772.41	1728.49
772.59	1718.25
772.77	1718.25
772.94	1691.62
773.12	1685.48
773.30	1650.66
773.47	1689.57
773.65	1609.70
773.83	1851.36
774.01	1689.57
774.18	1521.64
774.36	1701.86
774.54	1640.42
774.71	1644.52
774.89	1619.94
775.07	1630.18
775.24	1626.09
775.42	1658.85
775.60	1814.50
775.78	1783.78
775.95	1621.99
776.13	1619.94
776.31	1593.32
776.48	1751.01
776.66	1812.45
776.84	1617.90
777.01	1673.19
777.19	1736.68
777.37	1660.90
777.54	1720.29
777.72	1742.82
777.90	1734.63
778.07	1632.23
778.25	1828.84
778.43	1746.92
778.60	1650.66
778.78	1683.43
778.96	1763.30
779.13	1630.18
779.31	1724.39
779.49	1677.29
779.66	1740.77
779.84	1681.38
780.01	1662.95
780.19	1624.04
780.37	1785.83
780.54	1732.58
780.72	1658.85
780.90	1730.53
781.07	1681.38
781.25	1703.91
781.43	1693.67
781.60	1632.23
781.78	1843.17
781.95	1705.96
782.13	1673.19
782.31	1708.01
782.48	1560.55
782.66	1665.00
782.83	1828.84
783.01	1769.44
783.19	1683.43
783.36	1656.81
783.54	1701.86
783.72	1679.33
783.89	1644.52
784.07	1738.73
784.24	1650.66
784.42	1804.26
784.60	1740.77
784.77	1722.34
784.95	1617.90
785.12	1689.57
785.30	1771.49
785.47	1710.05
785.65	1652.71
785.83	1607.66
786.00	1695.72
786.18	1722.34
786.35	1671.14
786.53	1691.62
786.71	1785.83
786.88	1732.58
787.06	1785.83
787.23	1751.01
787.41	1703.91
787.58	1738.73
787.76	1673.19
787.94	1791.97
788.11	1695.72
788.29	1650.66
788.46	1632.23
788.64	1677.29
788.81	1593.32
788.99	1648.61
789.16	1701.86
789.34	1658.85
789.52	1689.57
789.69	1689.57
789.87	1597.42
790.04	1619.94
790.22	1748.97
790.39	1689.57
790.57	1681.38
790.74	1658.85
790.92	1773.54
791.09	1611.75
791.27	1746.92
791.44	1804.26
791.62	1728.49
791.79	1791.97
791.97	1699.81
792.15	1888.23
792.32	1751.01
792.50	1740.77
792.67	1802.21
792.85	1785.83
793.02	1683.43
793.20	1621.99
793.37	1615.85
793.55	1701.86
793.72	1660.90
793.90	1646.57
794.07	1632.23
794.25	1712.10
794.42	1736.68
794.60	1638.38
794.77	1744.87
794.95	1763.30
795.12	1724.39
795.30	1708.01
795.47	1615.85
795.65	1863.65
795.82	1751.01
796.00	1636.33
796.17	1693.67
796.34	1656.81
796.52	1701.86
796.69	1748.97
796.87	1763.30
797.04	1791.97
797.22	1703.91
797.39	1783.78
797.57	1751.01
797.74	1710.05
797.92	1718.25
798.09	1728.49
798.27	1748.97
798.44	1689.57
798.62	1660.90
798.79	1617.90
798.96	1767.40
799.14	1732.58
799.31	1728.49
799.49	1697.77
799.66	1662.95
799.84	1720.29
800.01	1691.62
800.19	1697.77
800.36	1652.71
800.53	1677.29
800.71	1693.67
800.88	1851.36
801.06	1701.86
801.23	1693.67
801.41	1695.72
801.58	1701.86
801.75	1685.48
801.93	1710.05
802.10	1820.64
802.28	1708.01
802.45	1660.90
802.63	1757.16
802.80	1783.78
802.97	1724.39
803.15	1697.77
803.32	1642.47
803.50	1732.58
803.67	1687.53
803.84	1601.51
804.02	1689.57
804.19	1656.81
804.37	1587.18
804.54	1640.42
804.71	1710.05
804.89	1621.99
805.06	1693.67
805.24	1693.67
805.41	1574.89
805.58	1640.42
805.76	1828.84
805.93	1757.16
806.10	1705.96
806.28	1751.01
806.45	1753.06
806.63	1742.82
806.80	1669.09
806.97	1730.53
807.15	1681.38
807.32	1730.53
807.49	1708.01
807.67	1673.19
807.84	1665.00
808.01	1665.00
808.19	1800.16
808.36	1902.56
808.54	1677.29
808.71	1699.81
808.88	1642.47
809.06	1773.54
809.23	1753.06
809.40	1689.57
809.58	1771.49
809.75	1697.77
809.92	1695.72
810.10	1732.58
810.27	1681.38
810.44	1677.29
810.62	1720.29
810.79	1744.87
810.96	1734.63
811.14	1693.67
811.31	1738.73
811.48	1722.34
811.66	1765.35
811.83	1775.59
812.00	1722.34
812.18	1689.57
812.35	1781.73
812.52	1679.33
812.69	1634.28
812.87	1636.33
813.04	1589.22
813.21	1710.05
813.39	1673.19
813.56	1611.75
813.73	1740.77
813.91	1615.85
814.08	1744.87
814.25	1767.40
814.42	1615.85
814.60	1699.81
814.77	1787.88
814.94	1687.53
815.12	1722.34
815.29	1763.30
815.46	1708.01
815.63	1742.82
815.81	1636.33
815.98	1699.81
816.15	1705.96
816.33	1714.15
816.50	1644.52
816.67	1605.61
816.84	1730.53
817.02	1701.86
817.19	1658.85
817.36	1681.38
817.53	1716.20
817.71	1554.41
817.88	1798.12
818.05	1714.15
818.22	1669.09
818.40	1763.30
818.57	1667.05
818.74	1726.44
818.91	1736.68
819.09	1740.77
819.26	1751.01
819.43	1693.67
819.60	1658.85
819.78	1769.44
819.95	1740.77
820.12	1595.37
820.29	1834.98
820.47	1779.68
820.64	1703.91
820.81	1599.46
820.98	1640.42
821.15	1701.86
821.33	1687.53
821.50	1556.46
821.67	1736.68
821.84	1632.23
822.02	1724.39
822.19	1777.64
822.36	1736.68
822.53	1642.47
822.70	1728.49
822.88	1695.72
823.05	1847.27
823.22	1724.39
823.39	1779.68
823.56	1710.05
823.74	1787.88
823.91	1712.10
824.08	1583.08
824.25	1591.27
824.42	1748.97
824.60	1619.94
824.77	1701.86
824.94	1701.86
825.11	1697.77
825.28	1669.09
825.45	1732.58
825.63	1757.16
825.80	1689.57
825.97	1742.82
826.14	1650.66
826.31	1576.94
826.48	1753.06
826.66	1691.62
826.83	1593.32
827.00	1624.04
827.17	1681.38
827.34	1667.05
827.51	1685.48
827.69	1654.76
827.86	1605.61
828.03	1642.47
828.20	1658.85
828.37	1714.15
828.54	1708.01
828.71	1660.90
828.89	1791.97
829.06	1748.97
829.23	1773.54
829.40	1621.99
829.57	1681.38
829.74	1697.77
829.91	1640.42
830.09	1671.14
830.26	1718.25
830.43	1718.25
830.60	1650.66
830.77	1697.77
830.94	1837.03
831.11	1681.38
831.28	1621.99
831.46	1818.60
831.63	1656.81
831.80	1806.31
831.97	1667.05
832.14	1662.95
832.31	1695.72
832.48	1654.76
832.65	1861.60
832.82	1681.38
832.99	1753.06
833.17	1689.57
833.34	1691.62
833.51	1742.82
833.68	1628.14
833.85	1708.01
834.02	1658.85
834.19	1619.94
834.36	1624.04
834.53	1775.59
834.70	1771.49
834.87	1693.67
835.04	1720.29
835.22	1630.18
835.39	1689.57
835.56	1726.44
835.73	1689.57
835.90	1724.39
836.07	1650.66
836.24	1753.06
836.41	1640.42
836.58	1644.52
836.75	1757.16
836.92	1677.29
837.09	1730.53
837.26	1667.05
837.43	1687.53
837.60	1701.86
837.77	1681.38
837.94	1755.11
838.12	1769.44
838.29	1683.43
838.46	1591.27
838.63	1640.42
838.80	1753.06
838.97	1763.30
839.14	1740.77
839.31	1726.44
839.48	1759.21
839.65	1763.30
839.82	1720.29
839.99	1718.25
840.16	1679.33
840.33	1671.14
840.50	1613.80
840.67	1665.00
840.84	1673.19
841.01	1697.77
841.18	1681.38
841.35	1744.87
841.52	1736.68
841.69	1812.45
841.86	1718.25
842.03	1687.53
842.20	1724.39
842.37	1675.24
842.54	1589.22
842.71	1732.58
842.88	1658.85
843.05	1669.09
843.22	1708.01
843.39	1783.78
843.56	1626.09
843.73	1703.91
843.90	1746.92
844.07	1722.34
844.24	1656.81
844.41	1753.06
844.58	1796.07
844.75	1660.90
844.92	1683.43
845.09	1697.77
845.26	1650.66
845.43	1634.28
845.60	1648.61
845.77	1726.44
845.94	1732.58
846.10	1800.16
846.27	1679.33
846.44	1656.81
846.61	1665.00
846.78	1710.05
846.95	1771.49
847.12	1665.00
847.29	1660.90
847.46	1699.81
847.63	1736.68
847.80	1685.48
847.97	1736.68
848.14	1771.49
848.31	1648.61
848.48	1662.95
848.65	1693.67
848.82	1656.81
848.98	1869.80
849.15	1751.01
849.32	1744.87
849.49	1730.53
849.66	1685.48
849.83	1701.86
850.00	1591.27
850.17	1791.97
850.34	1755.11
850.51	1685.48
850.68	1621.99
850.85	1746.92
851.01	1722.34
851.18	1687.53
851.35	1734.63
851.52	1724.39
851.69	1841.12
851.86	1621.99
852.03	1730.53
852.20	1791.97
852.37	1673.19
852.53	1679.33
852.70	1763.30
852.87	1576.94
853.04	1689.57
853.21	1667.05
853.38	1736.68
853.55	1675.24
853.72	1818.60
853.89	1658.85
854.05	1669.09
854.22	1679.33
854.39	1642.47
854.56	1751.01
854.73	1716.20
854.90	1652.71
855.07	1740.77
855.23	1689.57
855.40	1601.51
855.57	1705.96
855.74	1583.08
855.91	1884.13
856.08	1710.05
856.25	1701.86
856.41	1712.10
856.58	1677.29
856.75	1767.40
856.92	1679.33
857.09	1755.11
857.26	1585.13
857.42	1665.00
857.59	1732.58
857.76	1665.00
857.93	1718.25
858.10	1673.19
858.27	1665.00
858.43	1748.97
858.60	1701.86
858.77	1683.43
858.94	1613.80
859.11	1736.68
859.27	1667.05
859.44	1617.90
859.61	1798.12
859.78	1759.21
859.95	1714.15
860.12	1656.81
860.28	1779.68
860.45	1800.16
860.62	1679.33
860.79	1734.63
860.95	1712.10
861.12	1634.28
861.29	1687.53
861.46	1634.28
861.63	1648.61
861.79	1671.14
861.96	1667.05
862.13	1658.85
862.30	1734.63
862.47	1599.46
862.63	1626.09
862.80	1701.86
862.97	1763.30
863.14	1685.48
863.30	1769.44
863.47	1742.82
863.64	1769.44
863.81	1771.49
863.97	1722.34
864.14	1705.96
864.31	1712.10
864.48	1701.86
864.65	1587.18
864.81	1701.86
864.98	1734.63
865.15	1783.78
865.32	1771.49
865.48	1691.62
865.65	1832.93
865.82	1689.57
865.98	1789.92
866.15	1742.82
866.32	1660.90
866.49	1660.90
866.65	1726.44
866.82	1583.08
866.99	1708.01
867.16	1667.05
867.32	1642.47
867.49	1763.30
867.66	1712.10
867.83	1693.67
867.99	1558.50
868.16	1560.55
868.33	1607.66
868.49	1667.05
868.66	1703.91
868.83	1746.92
868.99	1667.05
869.16	1705.96
869.33	1779.68
869.50	1755.11
869.66	1693.67
869.83	1693.67
870.00	1685.48
870.16	1734.63
870.33	1728.49
870.50	1695.72
870.66	1632.23
870.83	1828.84
871.00	1730.53
871.17	1751.01
871.33	1697.77
871.50	1644.52
871.67	1644.52
871.83	1636.33
872.00	1796.07
872.17	1693.67
872.33	1755.11
872.50	1718.25
872.67	1681.38
872.83	1710.05
873.00	1748.97
873.17	1701.86
873.33	1769.44
873.50	1689.57
873.67	1660.90
873.83	1638.38
874.00	1640.42
874.16	1705.96
874.33	1710.05
874.50	1599.46
874.66	1665.00
874.83	1714.15
875.00	1761.25
875.16	1791.97
875.33	1740.77
875.50	1535.98
875.66	1724.39
875.83	1638.38
875.99	1705.96
876.16	1779.68
876.33	1638.38
876.49	1765.35
876.66	1673.19
876.83	1714.15
876.99	1601.51
877.16	1646.57
877.32	1716.20
877.49	1652.71
877.66	1726.44
877.82	1857.51
877.99	1718.25
878.15	1765.35
878.32	1681.38
878.49	1734.63
878.65	1646.57
878.82	1808.36
878.98	1662.95
879.15	1775.59
879.32	1804.26
879.48	1714.15
879.65	1734.63
879.81	1656.81
879.98	1607.66
880.15	1683.43
880.31	1712.10
880.48	1619.94
880.64	1755.11
880.81	1736.68
880.97	1775.59
881.14	1769.44
881.31	1601.51
881.47	1763.30
881.64	1673.19
881.80	1578.98
881.97	1703.91
882.13	1716.20
882.30	1738.73
882.47	1660.90
882.63	1710.05
882.80	1689.57
882.96	1683.43
883.13	1705.96
883.29	1685.48
883.46	1740.77
883.62	1820.64
883.79	1679.33
883.95	1755.11
884.12	1683.43
884.29	1763.30
884.45	1656.81
884.62	1839.08
884.78	1601.51
884.95	1873.89
885.11	1601.51
885.28	1708.01
885.44	1648.61
885.61	1744.87
885.77	1812.45
885.94	1753.06
886.10	1708.01
886.27	1755.11
886.43	1798.12
886.60	1767.40
886.76	1630.18
886.93	1589.22
887.09	1705.96
887.26	1677.29
887.42	1671.14
887.59	1710.05
887.75	1800.16
887.92	1757.16
888.08	1746.92
888.25	1775.59
888.41	1722.34
888.58	1675.24
888.74	1695.72
888.91	1585.13
>>>>>End Processed Spectral Data<<<<<
