SpectraSuite Data File
++++++++++++++++++++++++++++++++++++
Date: Mon Jun 06 12:28:17 CEST 2016
User: root
Dark Spectrum Present: No
Reference Spectrum Present: No
Number of Sampled Component Spectra: 1
Spectrometers: USB4C02835
Integration Time (usec): 100000 (USB4C02835)
Spectra Averaged: 1 (USB4C02835)
Boxcar Smoothing: 0 (USB4C02835)
Correct for Electrical Dark: No (USB4C02835)
Strobe/Lamp Enabled: No (USB4C02835)
Correct for Detector Non-linearity: No (USB4C02835)
Correct for Stray Light: No (USB4C02835)
Number of Pixels in Processed Spectrum: 3648
>>>>>Begin Processed Spectral Data<<<<<
177.47	1462.25
177.69	1462.25
177.91	1462.25
178.13	1552.36
178.36	1425.39
178.58	1568.74
178.80	1761.25
179.02	1619.94
179.24	1617.90
179.46	1624.04
179.68	1755.11
179.90	1720.29
180.13	1673.19
180.35	1699.81
180.57	1712.10
180.79	1714.15
181.01	1634.28
181.23	1724.39
181.45	1816.55
181.67	1687.53
181.90	1783.78
182.12	1683.43
182.34	1605.61
182.56	1710.05
182.78	1695.72
183.00	1722.34
183.22	1740.77
183.44	1617.90
183.66	1884.13
183.89	1812.45
184.11	1742.82
184.33	1742.82
184.55	1779.68
184.77	1724.39
184.99	1699.81
185.21	1671.14
185.43	1886.18
185.65	1673.19
185.87	1665.00
186.10	1740.77
186.32	1834.98
186.54	1746.92
186.76	1732.58
186.98	1685.48
187.20	1695.72
187.42	1708.01
187.64	1669.09
187.86	1669.09
188.08	1751.01
188.30	1675.24
188.52	1697.77
188.75	1724.39
188.97	1757.16
189.19	1650.66
189.41	1671.14
189.63	1724.39
189.85	1765.35
190.07	1599.46
190.29	1587.18
190.51	1677.29
190.73	1611.75
190.95	1720.29
191.17	1710.05
191.39	1722.34
191.61	1630.18
191.84	1636.33
192.06	1654.76
192.28	1619.94
192.50	1976.29
192.72	1742.82
192.94	1689.57
193.16	1804.26
193.38	1652.71
193.60	1615.85
193.82	1703.91
194.04	1783.78
194.26	1757.16
194.48	1734.63
194.70	1656.81
194.92	1646.57
195.14	1775.59
195.36	1681.38
195.58	1720.29
195.80	1621.99
196.02	1626.09
196.24	1693.67
196.46	1667.05
196.69	1603.56
196.91	1820.64
197.13	1759.21
197.35	1685.48
197.57	1828.84
197.79	1693.67
198.01	1665.00
198.23	1683.43
198.45	1630.18
198.67	1638.38
198.89	1628.14
199.11	1677.29
199.33	1554.41
199.55	1564.65
199.77	1730.53
199.99	1710.05
200.21	1726.44
200.43	1662.95
200.65	1564.65
200.87	1572.84
201.09	1710.05
201.31	1753.06
201.53	1771.49
201.75	1667.05
201.97	1783.78
202.19	1695.72
202.41	1658.85
202.63	1824.74
202.85	1658.85
203.07	1699.81
203.29	1681.38
203.51	1677.29
203.73	1619.94
203.95	1904.61
204.17	1630.18
204.39	1744.87
204.61	1650.66
204.83	1710.05
205.05	1769.44
205.27	1734.63
205.49	1832.93
205.71	1626.09
205.93	1570.79
206.15	1626.09
206.37	1738.73
206.59	1697.77
206.81	1632.23
207.03	1699.81
207.25	1613.80
207.47	1796.07
207.69	1728.49
207.91	1798.12
208.13	1796.07
208.34	1644.52
208.56	1683.43
208.78	1677.29
209.00	1748.97
209.22	1667.05
209.44	1773.54
209.66	1701.86
209.88	1710.05
210.10	1685.48
210.32	1611.75
210.54	1779.68
210.76	1665.00
210.98	1794.02
211.20	1578.98
211.42	1720.29
211.64	1726.44
211.86	1730.53
212.08	1816.55
212.30	1703.91
212.52	1656.81
212.74	1685.48
212.96	1656.81
213.17	1701.86
213.39	1691.62
213.61	1753.06
213.83	1701.86
214.05	1597.42
214.27	1734.63
214.49	1613.80
214.71	1644.52
214.93	1808.36
215.15	1628.14
215.37	1814.50
215.59	1632.23
215.81	1763.30
216.03	1828.84
216.24	1755.11
216.46	1703.91
216.68	1734.63
216.90	1789.92
217.12	1718.25
217.34	1697.77
217.56	1691.62
217.78	1744.87
218.00	1656.81
218.22	1689.57
218.44	1748.97
218.66	1691.62
218.87	1746.92
219.09	1626.09
219.31	1736.68
219.53	1720.29
219.75	1660.90
219.97	1658.85
220.19	1738.73
220.41	1679.33
220.63	1806.31
220.85	1685.48
221.06	1628.14
221.28	1796.07
221.50	1785.83
221.72	1736.68
221.94	1669.09
222.16	1605.61
222.38	1781.73
222.60	1738.73
222.82	1665.00
223.03	1761.25
223.25	1632.23
223.47	1712.10
223.69	1785.83
223.91	1683.43
224.13	1701.86
224.35	1708.01
224.57	1757.16
224.78	1718.25
225.00	1673.19
225.22	1640.42
225.44	1626.09
225.66	1687.53
225.88	1648.61
226.10	1724.39
226.32	1718.25
226.53	1746.92
226.75	1710.05
226.97	1593.32
227.19	1605.61
227.41	1689.57
227.63	1689.57
227.85	1632.23
228.06	1751.01
228.28	1675.24
228.50	1687.53
228.72	1658.85
228.94	1726.44
229.16	1603.56
229.37	1626.09
229.59	1615.85
229.81	1775.59
230.03	1714.15
230.25	1601.51
230.47	1658.85
230.69	1640.42
230.90	1740.77
231.12	1669.09
231.34	1728.49
231.56	1761.25
231.78	1656.81
232.00	1687.53
232.21	1675.24
232.43	1677.29
232.65	1572.84
232.87	1740.77
233.09	1615.85
233.30	1628.14
233.52	1779.68
233.74	1693.67
233.96	1644.52
234.18	1671.14
234.40	1687.53
234.61	1849.32
234.83	1611.75
235.05	1671.14
235.27	1845.22
235.49	1886.18
235.70	1751.01
235.92	1753.06
236.14	1642.47
236.36	1849.32
236.58	1628.14
236.79	1777.64
237.01	1716.20
237.23	1718.25
237.45	1845.22
237.67	1628.14
237.88	1703.91
238.10	1761.25
238.32	1662.95
238.54	1685.48
238.76	1703.91
238.97	1667.05
239.19	1679.33
239.41	1728.49
239.63	1765.35
239.85	1687.53
240.06	1736.68
240.28	1652.71
240.50	1708.01
240.72	1656.81
240.93	1705.96
241.15	1806.31
241.37	1687.53
241.59	1718.25
241.81	1646.57
242.02	1644.52
242.24	1656.81
242.46	1773.54
242.68	1669.09
242.89	1693.67
243.11	1753.06
243.33	1699.81
243.55	1759.21
243.76	1755.11
243.98	1703.91
244.20	1773.54
244.42	1650.66
244.64	1728.49
244.85	1677.29
245.07	1617.90
245.29	1648.61
245.51	1660.90
245.72	1679.33
245.94	1722.34
246.16	1712.10
246.38	1671.14
246.59	1572.84
246.81	1710.05
247.03	1656.81
247.24	1689.57
247.46	1648.61
247.68	1693.67
247.90	1648.61
248.11	1671.14
248.33	1712.10
248.55	1693.67
248.77	1712.10
248.98	1726.44
249.20	1722.34
249.42	1703.91
249.64	1736.68
249.85	1693.67
250.07	1656.81
250.29	1736.68
250.50	1796.07
250.72	1667.05
250.94	1730.53
251.16	1716.20
251.37	1765.35
251.59	1611.75
251.81	1646.57
252.02	1802.21
252.24	1568.74
252.46	1832.93
252.68	1673.19
252.89	1578.98
253.11	1650.66
253.33	1871.84
253.54	1757.16
253.76	1640.42
253.98	1724.39
254.20	1644.52
254.41	1638.38
254.63	1656.81
254.85	1683.43
255.06	1632.23
255.28	1667.05
255.50	1687.53
255.71	1648.61
255.93	1662.95
256.15	1644.52
256.36	1751.01
256.58	1673.19
256.80	1689.57
257.02	1703.91
257.23	1656.81
257.45	1611.75
257.67	1632.23
257.88	1652.71
258.10	1812.45
258.32	1697.77
258.53	1708.01
258.75	1769.44
258.97	1662.95
259.18	1619.94
259.40	1742.82
259.62	1779.68
259.83	1783.78
260.05	1697.77
260.27	1996.77
260.48	1759.21
260.70	1603.56
260.92	1662.95
261.13	1710.05
261.35	1662.95
261.57	1679.33
261.78	1597.42
262.00	1630.18
262.22	1712.10
262.43	1652.71
262.65	1638.38
262.86	1716.20
263.08	1794.02
263.30	1716.20
263.51	1554.41
263.73	1689.57
263.95	1755.11
264.16	1705.96
264.38	1632.23
264.60	1693.67
264.81	1675.24
265.03	1748.97
265.25	1628.14
265.46	1732.58
265.68	1812.45
265.89	1722.34
266.11	1632.23
266.33	1673.19
266.54	1765.35
266.76	1773.54
266.98	1730.53
267.19	1761.25
267.41	1734.63
267.62	1665.00
267.84	1585.13
268.06	1705.96
268.27	1656.81
268.49	1738.73
268.70	1755.11
268.92	1699.81
269.14	1691.62
269.35	1617.90
269.57	1734.63
269.79	1779.68
270.00	1691.62
270.22	1748.97
270.43	1642.47
270.65	1533.93
270.87	1720.29
271.08	1761.25
271.30	1671.14
271.51	1738.73
271.73	1734.63
271.95	1746.92
272.16	1740.77
272.38	1722.34
272.59	1648.61
272.81	1767.40
273.02	1710.05
273.24	1751.01
273.46	1785.83
273.67	1632.23
273.89	1632.23
274.10	1656.81
274.32	1751.01
274.54	1656.81
274.75	1718.25
274.97	1640.42
275.18	1708.01
275.40	1697.77
275.61	1740.77
275.83	1724.39
276.05	1638.38
276.26	1632.23
276.48	1720.29
276.69	1665.00
276.91	1685.48
277.12	1779.68
277.34	1785.83
277.55	1705.96
277.77	1642.47
277.99	1613.80
278.20	1597.42
278.42	1669.09
278.63	1640.42
278.85	1701.86
279.06	1617.90
279.28	1689.57
279.49	1783.78
279.71	1691.62
279.93	1714.15
280.14	1689.57
280.36	1679.33
280.57	1677.29
280.79	1734.63
281.00	1665.00
281.22	1671.14
281.43	1757.16
281.65	1591.27
281.86	1665.00
282.08	1759.21
282.29	1830.88
282.51	1675.24
282.73	1654.76
282.94	1648.61
283.16	1736.68
283.37	1783.78
283.59	1705.96
283.80	1738.73
284.02	1677.29
284.23	1683.43
284.45	1730.53
284.66	1665.00
284.88	1689.57
285.09	1796.07
285.31	1716.20
285.52	1730.53
285.74	1603.56
285.95	1763.30
286.17	1738.73
286.38	1726.44
286.60	1609.70
286.81	1646.57
287.03	1660.90
287.24	1712.10
287.46	1695.72
287.67	1718.25
287.89	1826.79
288.10	1619.94
288.32	1708.01
288.53	1787.88
288.75	1767.40
288.96	1802.21
289.18	1607.66
289.39	1658.85
289.61	1724.39
289.82	1751.01
290.04	1785.83
290.25	1650.66
290.47	1683.43
290.68	1611.75
290.90	1673.19
291.11	1681.38
291.33	1765.35
291.54	1626.09
291.76	1626.09
291.97	1734.63
292.18	1751.01
292.40	1652.71
292.61	1675.24
292.83	1779.68
293.04	1730.53
293.26	1728.49
293.47	1667.05
293.69	1568.74
293.90	1730.53
294.12	1761.25
294.33	1699.81
294.55	1693.67
294.76	1783.78
294.97	1738.73
295.19	1853.41
295.40	1640.42
295.62	1753.06
295.83	1830.88
296.05	1617.90
296.26	1767.40
296.48	1593.32
296.69	1646.57
296.90	1675.24
297.12	1687.53
297.33	1765.35
297.55	1677.29
297.76	1701.86
297.98	1771.49
298.19	1705.96
298.41	1710.05
298.62	1632.23
298.83	1742.82
299.05	1679.33
299.26	1630.18
299.48	1681.38
299.69	1708.01
299.90	1718.25
300.12	1669.09
300.33	1804.26
300.55	1734.63
300.76	1748.97
300.98	1695.72
301.19	1632.23
301.40	1640.42
301.62	1679.33
301.83	1757.16
302.05	1740.77
302.26	1642.47
302.47	1697.77
302.69	1648.61
302.90	1689.57
303.12	1638.38
303.33	1777.64
303.54	1714.15
303.76	1640.42
303.97	1665.00
304.19	1816.55
304.40	1667.05
304.61	1722.34
304.83	1703.91
305.04	1697.77
305.26	1720.29
305.47	1648.61
305.68	1816.55
305.90	1738.73
306.11	1687.53
306.33	1720.29
306.54	1628.14
306.75	1626.09
306.97	1640.42
307.18	1632.23
307.39	1677.29
307.61	1669.09
307.82	1728.49
308.04	1714.15
308.25	1660.90
308.46	1667.05
308.68	1703.91
308.89	1716.20
309.10	1853.41
309.32	1734.63
309.53	1644.52
309.74	1751.01
309.96	1716.20
310.17	1777.64
310.39	1636.33
310.60	1687.53
310.81	1652.71
311.03	1640.42
311.24	1712.10
311.45	1699.81
311.67	1828.84
311.88	1740.77
312.09	1687.53
312.31	1669.09
312.52	1648.61
312.73	1687.53
312.95	1650.66
313.16	1697.77
313.37	1783.78
313.59	1705.96
313.80	1791.97
314.01	1777.64
314.23	1607.66
314.44	1701.86
314.65	1570.79
314.87	1656.81
315.08	1665.00
315.29	1730.53
315.51	1581.03
315.72	1654.76
315.93	1789.92
316.15	1748.97
316.36	1650.66
316.57	1621.99
316.79	1689.57
317.00	1689.57
317.21	1665.00
317.43	1583.08
317.64	1722.34
317.85	1658.85
318.07	1689.57
318.28	1685.48
318.49	1748.97
318.70	1912.80
318.92	1898.47
319.13	1857.51
319.34	1834.98
319.56	1794.02
319.77	1791.97
319.98	1794.02
320.20	1728.49
320.41	1853.41
320.62	1701.86
320.83	1671.14
321.05	1818.60
321.26	1701.86
321.47	1677.29
321.69	1818.60
321.90	1531.88
322.11	1703.91
322.32	1644.52
322.54	1773.54
322.75	1728.49
322.96	1802.21
323.18	1636.33
323.39	1648.61
323.60	1726.44
323.81	1630.18
324.03	1630.18
324.24	1689.57
324.45	1640.42
324.66	1642.47
324.88	1828.84
325.09	1794.02
325.30	1712.10
325.52	1701.86
325.73	1751.01
325.94	1599.46
326.15	1652.71
326.37	1669.09
326.58	1724.39
326.79	1779.68
327.00	1693.67
327.22	1740.77
327.43	1621.99
327.64	1587.18
327.85	1732.58
328.07	1775.59
328.28	1798.12
328.49	1673.19
328.70	1665.00
328.92	1794.02
329.13	1656.81
329.34	1740.77
329.55	1759.21
329.76	1783.78
329.98	1701.86
330.19	1771.49
330.40	1732.58
330.61	1621.99
330.83	1759.21
331.04	1665.00
331.25	1699.81
331.46	1683.43
331.68	1576.94
331.89	1726.44
332.10	1740.77
332.31	1587.18
332.52	1740.77
332.74	1781.73
332.95	1562.60
333.16	1607.66
333.37	1751.01
333.58	1624.04
333.80	1744.87
334.01	1609.70
334.22	1683.43
334.43	1681.38
334.64	1599.46
334.86	1632.23
335.07	1634.28
335.28	1767.40
335.49	1605.61
335.70	1677.29
335.92	1808.36
336.13	1802.21
336.34	1679.33
336.55	1675.24
336.76	1722.34
336.98	1542.12
337.19	1695.72
337.40	1738.73
337.61	1890.28
337.82	1712.10
338.04	1699.81
338.25	1697.77
338.46	1701.86
338.67	1681.38
338.88	1628.14
339.09	1675.24
339.31	1691.62
339.52	1576.94
339.73	1609.70
339.94	1693.67
340.15	1722.34
340.36	1708.01
340.58	1689.57
340.79	1595.37
341.00	1767.40
341.21	1630.18
341.42	1742.82
341.63	1691.62
341.85	1722.34
342.06	1730.53
342.27	1636.33
342.48	1716.20
342.69	1607.66
342.90	1693.67
343.12	1648.61
343.33	1693.67
343.54	1712.10
343.75	1736.68
343.96	1720.29
344.17	1667.05
344.38	1665.00
344.60	1638.38
344.81	1572.84
345.02	1673.19
345.23	1742.82
345.44	1796.07
345.65	1703.91
345.86	1673.19
346.07	1726.44
346.29	1681.38
346.50	1763.30
346.71	1728.49
346.92	1738.73
347.13	1777.64
347.34	1621.99
347.55	1648.61
347.76	1691.62
347.98	1529.83
348.19	1595.37
348.40	1777.64
348.61	1708.01
348.82	1783.78
349.03	1736.68
349.24	1628.14
349.45	1802.21
349.66	1648.61
349.88	1740.77
350.09	1630.18
350.30	1738.73
350.51	1619.94
350.72	1738.73
350.93	1783.78
351.14	1699.81
351.35	1757.16
351.56	1724.39
351.77	1597.42
351.99	1667.05
352.20	1820.64
352.41	1806.31
352.62	1597.42
352.83	1671.14
353.04	1699.81
353.25	1656.81
353.46	1789.92
353.67	1697.77
353.88	1624.04
354.09	1746.92
354.30	1716.20
354.52	1759.21
354.73	1630.18
354.94	1654.76
355.15	1675.24
355.36	1779.68
355.57	1650.66
355.78	1751.01
355.99	1638.38
356.20	1699.81
356.41	1845.22
356.62	1753.06
356.83	1701.86
357.04	1753.06
357.25	1613.80
357.46	1658.85
357.68	1691.62
357.89	1601.51
358.10	1726.44
358.31	1644.52
358.52	1669.09
358.73	1660.90
358.94	1632.23
359.15	1646.57
359.36	1722.34
359.57	1671.14
359.78	1701.86
359.99	1714.15
360.20	1603.56
360.41	1730.53
360.62	1730.53
360.83	1726.44
361.04	1757.16
361.25	1695.72
361.46	1804.26
361.67	1638.38
361.88	1812.45
362.09	1751.01
362.30	1683.43
362.51	1646.57
362.72	1667.05
362.93	1757.16
363.14	1757.16
363.35	1669.09
363.56	1605.61
363.78	1804.26
363.99	1757.16
364.20	1689.57
364.41	1691.62
364.62	1867.75
364.83	1798.12
365.04	1757.16
365.25	1669.09
365.46	1794.02
365.67	1634.28
365.88	1621.99
366.09	1705.96
366.30	1675.24
366.51	1722.34
366.72	1660.90
366.93	1738.73
367.14	1681.38
367.35	1808.36
367.56	1697.77
367.77	1832.93
367.98	1728.49
368.18	1763.30
368.39	1697.77
368.60	1617.90
368.81	1748.97
369.02	1785.83
369.23	1763.30
369.44	1574.89
369.65	1660.90
369.86	1761.25
370.07	1759.21
370.28	1646.57
370.49	1734.63
370.70	1761.25
370.91	1642.47
371.12	1540.07
371.33	1814.50
371.54	1654.76
371.75	1816.55
371.96	1499.11
372.17	1759.21
372.38	1646.57
372.59	1810.40
372.80	1689.57
373.01	1724.39
373.22	1687.53
373.43	1751.01
373.64	1581.03
373.85	1695.72
374.06	1757.16
374.26	1777.64
374.47	1724.39
374.68	1796.07
374.89	1697.77
375.10	1656.81
375.31	1695.72
375.52	1697.77
375.73	1714.15
375.94	1703.91
376.15	1740.77
376.36	1683.43
376.57	1630.18
376.78	1701.86
376.99	1675.24
377.20	1753.06
377.40	1628.14
377.61	1763.30
377.82	1662.95
378.03	1791.97
378.24	1671.14
378.45	1646.57
378.66	1740.77
378.87	1609.70
379.08	1677.29
379.29	1701.86
379.50	1763.30
379.71	1693.67
379.91	1765.35
380.12	1703.91
380.33	1691.62
380.54	1730.53
380.75	1736.68
380.96	1732.58
381.17	1765.35
381.38	1714.15
381.59	1746.92
381.80	1724.39
382.00	1904.61
382.21	1748.97
382.42	1794.02
382.63	1812.45
382.84	1851.36
383.05	1808.36
383.26	1781.73
383.47	1769.44
383.68	1716.20
383.88	1693.67
384.09	1710.05
384.30	1781.73
384.51	1796.07
384.72	1689.57
384.93	1697.77
385.14	1624.04
385.35	1742.82
385.55	1658.85
385.76	1744.87
385.97	1742.82
386.18	1640.42
386.39	1687.53
386.60	1662.95
386.81	1585.13
387.02	1679.33
387.22	1691.62
387.43	1761.25
387.64	1759.21
387.85	1839.08
388.06	2260.96
388.27	4351.93
388.48	6991.77
388.68	8474.49
388.89	9789.29
389.10	10063.72
389.31	8736.63
389.52	7710.60
389.73	6838.17
389.93	6545.31
390.14	5945.25
390.35	5228.46
390.56	4650.94
390.77	3745.73
390.98	3082.19
391.18	2539.48
391.39	2090.98
391.60	1789.92
391.81	1736.68
392.02	1769.44
392.23	1880.04
392.43	1699.81
392.64	1746.92
392.85	1738.73
393.06	1845.22
393.27	1775.59
393.47	1640.42
393.68	1691.62
393.89	1667.05
394.10	1734.63
394.31	1607.66
394.52	1593.32
394.72	1624.04
394.93	1757.16
395.14	1628.14
395.35	1718.25
395.56	1681.38
395.76	1720.29
395.97	1689.57
396.18	1789.92
396.39	1841.12
396.60	2017.25
396.80	1900.52
397.01	1808.36
397.22	1787.88
397.43	1814.50
397.64	1757.16
397.84	1767.40
398.05	1865.70
398.26	1806.31
398.47	1769.44
398.67	1746.92
398.88	1716.20
399.09	1822.69
399.30	1642.47
399.51	1681.38
399.71	1646.57
399.92	1699.81
400.13	1720.29
400.34	1738.73
400.54	1658.85
400.75	1865.70
400.96	1732.58
401.17	1890.28
401.37	1759.21
401.58	1753.06
401.79	1726.44
402.00	1816.55
402.21	2004.96
402.41	1955.81
402.62	1957.86
402.83	2002.91
403.04	1933.28
403.24	2095.07
403.45	1808.36
403.66	1943.52
403.87	1857.51
404.07	1949.67
404.28	1843.17
404.49	1918.95
404.70	1814.50
404.90	1773.54
405.11	1783.78
405.32	1738.73
405.52	1671.14
405.73	1593.32
405.94	1621.99
406.15	1730.53
406.35	1736.68
406.56	1724.39
406.77	1720.29
406.98	1765.35
407.18	1722.34
407.39	1751.01
407.60	1685.48
407.80	1730.53
408.01	1667.05
408.22	1755.11
408.43	1640.42
408.63	1769.44
408.84	1794.02
409.05	1763.30
409.25	1681.38
409.46	1624.04
409.67	1624.04
409.88	1660.90
410.08	1714.15
410.29	1759.21
410.50	1816.55
410.70	1714.15
410.91	1689.57
411.12	1740.77
411.32	1728.49
411.53	1603.56
411.74	1796.07
411.95	1705.96
412.15	1718.25
412.36	1740.77
412.57	1710.05
412.77	1781.73
412.98	1691.62
413.19	1740.77
413.39	1775.59
413.60	1699.81
413.81	1789.92
414.01	1615.85
414.22	1703.91
414.43	1832.93
414.63	1669.09
414.84	1660.90
415.05	1662.95
415.25	1644.52
415.46	1669.09
415.67	1644.52
415.87	1730.53
416.08	1660.90
416.29	1671.14
416.49	1699.81
416.70	1587.18
416.91	1683.43
417.11	1738.73
417.32	1644.52
417.53	1712.10
417.73	1658.85
417.94	1755.11
418.15	1724.39
418.35	1742.82
418.56	1722.34
418.77	1808.36
418.97	1669.09
419.18	1671.14
419.38	1574.89
419.59	1691.62
419.80	1726.44
420.00	1660.90
420.21	1738.73
420.42	1763.30
420.62	1691.62
420.83	1615.85
421.04	1656.81
421.24	1660.90
421.45	1705.96
421.65	1660.90
421.86	1621.99
422.07	1714.15
422.27	1708.01
422.48	1718.25
422.69	1667.05
422.89	1689.57
423.10	1689.57
423.30	1597.42
423.51	1703.91
423.72	1693.67
423.92	1710.05
424.13	1556.46
424.33	1734.63
424.54	1701.86
424.75	1650.66
424.95	1753.06
425.16	1669.09
425.36	1652.71
425.57	1716.20
425.78	1773.54
425.98	1775.59
426.19	1669.09
426.39	1718.25
426.60	1796.07
426.81	1783.78
427.01	1728.49
427.22	1644.52
427.42	1613.80
427.63	1619.94
427.83	1722.34
428.04	1857.51
428.25	1734.63
428.45	1763.30
428.66	1732.58
428.86	1644.52
429.07	1679.33
429.28	1667.05
429.48	1677.29
429.69	1677.29
429.89	1695.72
430.10	1689.57
430.30	1783.78
430.51	1712.10
430.71	1665.00
430.92	1730.53
431.13	1685.48
431.33	1689.57
431.54	1703.91
431.74	1779.68
431.95	1812.45
432.15	1642.47
432.36	1677.29
432.56	1699.81
432.77	1839.08
432.98	1824.74
433.18	1728.49
433.39	1701.86
433.59	1734.63
433.80	1734.63
434.00	1826.79
434.21	1695.72
434.41	1705.96
434.62	1820.64
434.82	1716.20
435.03	1613.80
435.23	1765.35
435.44	1595.37
435.64	1787.88
435.85	1724.39
436.06	1779.68
436.26	1804.26
436.47	1667.05
436.67	1632.23
436.88	1730.53
437.08	1722.34
437.29	1767.40
437.49	1681.38
437.70	1759.21
437.90	1744.87
438.11	1781.73
438.31	1794.02
438.52	1830.88
438.72	1882.08
438.93	1961.95
439.13	1748.97
439.34	1771.49
439.54	1708.01
439.75	1804.26
439.95	1794.02
440.16	1722.34
440.36	1736.68
440.57	1732.58
440.77	1769.44
440.98	1730.53
441.18	1732.58
441.39	1683.43
441.59	1732.58
441.80	1814.50
442.00	1689.57
442.21	1746.92
442.41	1605.61
442.62	1751.01
442.82	1722.34
443.02	1769.44
443.23	1714.15
443.43	1660.90
443.64	1730.53
443.84	1613.80
444.05	1755.11
444.25	1665.00
444.46	1648.61
444.66	1673.19
444.87	1845.22
445.07	1585.13
445.28	1755.11
445.48	1800.16
445.69	1796.07
445.89	1789.92
446.09	1748.97
446.30	1933.28
446.50	2682.84
446.71	3684.30
446.91	4337.60
447.12	4794.29
447.32	4839.35
447.53	4425.66
447.73	3852.23
447.93	3532.75
448.14	3364.81
448.34	3196.88
448.55	2877.40
448.75	2828.24
448.96	2607.06
449.16	2418.65
449.36	2275.29
449.57	2023.39
449.77	1904.61
449.98	1755.11
450.18	1839.08
450.39	1751.01
450.59	1710.05
450.79	1734.63
451.00	1738.73
451.20	1734.63
451.41	1755.11
451.61	1710.05
451.81	1826.79
452.02	1753.06
452.22	1665.00
452.43	1658.85
452.63	1695.72
452.84	1722.34
453.04	1738.73
453.24	1734.63
453.45	1705.96
453.65	1714.15
453.86	1779.68
454.06	1757.16
454.26	1822.69
454.47	1658.85
454.67	1804.26
454.87	1765.35
455.08	1697.77
455.28	1830.88
455.49	1763.30
455.69	1673.19
455.89	1791.97
456.10	1820.64
456.30	1757.16
456.51	1724.39
456.71	1744.87
456.91	1744.87
457.12	1699.81
457.32	1675.24
457.52	1755.11
457.73	1796.07
457.93	1771.49
458.14	1748.97
458.34	1621.99
458.54	1667.05
458.75	1705.96
458.95	1759.21
459.15	1677.29
459.36	1748.97
459.56	1689.57
459.76	1839.08
459.97	1695.72
460.17	1787.88
460.37	1857.51
460.58	1656.81
460.78	1767.40
460.99	1722.34
461.19	1646.57
461.39	1652.71
461.60	1697.77
461.80	1820.64
462.00	1644.52
462.21	1796.07
462.41	1642.47
462.61	1697.77
462.82	1703.91
463.02	1781.73
463.22	1767.40
463.43	1777.64
463.63	1755.11
463.83	1755.11
464.04	1730.53
464.24	1701.86
464.44	1630.18
464.64	1636.33
464.85	1742.82
465.05	1798.12
465.25	1716.20
465.46	1734.63
465.66	1765.35
465.86	1785.83
466.07	1755.11
466.27	1685.48
466.47	1671.14
466.68	1681.38
466.88	1843.17
467.08	1748.97
467.29	1804.26
467.49	1710.05
467.69	1619.94
467.89	1759.21
468.10	1755.11
468.30	1767.40
468.50	1783.78
468.71	1738.73
468.91	1638.38
469.11	1810.40
469.31	1691.62
469.52	1755.11
469.72	1798.12
469.92	1845.22
470.13	1712.10
470.33	1812.45
470.53	1718.25
470.73	2080.74
470.94	2252.77
471.14	2320.35
471.34	2510.81
471.54	2398.17
471.75	2258.91
471.95	2187.23
472.15	2060.26
472.36	2090.98
472.56	2009.06
472.76	1994.72
472.96	2107.36
473.17	1927.14
473.37	1896.42
473.57	1777.64
473.77	1812.45
473.98	1748.97
474.18	1724.39
474.38	1886.18
474.58	1691.62
474.79	1601.51
474.99	1716.20
475.19	1724.39
475.39	1683.43
475.60	1726.44
475.80	1753.06
476.00	1769.44
476.20	1746.92
476.41	1800.16
476.61	1869.80
476.81	1806.31
477.01	1638.38
477.21	1894.37
477.42	1804.26
477.62	1730.53
477.82	1761.25
478.02	1648.61
478.23	1699.81
478.43	1667.05
478.63	1746.92
478.83	1716.20
479.03	1697.77
479.24	1730.53
479.44	1791.97
479.64	1767.40
479.84	1638.38
480.04	1665.00
480.25	1732.58
480.45	1703.91
480.65	1728.49
480.85	1804.26
481.06	1724.39
481.26	1675.24
481.46	1740.77
481.66	1656.81
481.86	1667.05
482.06	1763.30
482.27	1685.48
482.47	1691.62
482.67	1718.25
482.87	1722.34
483.07	1787.88
483.28	1675.24
483.48	1654.76
483.68	1697.77
483.88	1636.33
484.08	1599.46
484.29	1689.57
484.49	1728.49
484.69	1691.62
484.89	1783.78
485.09	1820.64
485.29	1748.97
485.50	1710.05
485.70	1656.81
485.90	1781.73
486.10	1728.49
486.30	1710.05
486.50	1765.35
486.71	1796.07
486.91	1767.40
487.11	1806.31
487.31	1654.76
487.51	1687.53
487.71	1671.14
487.91	1697.77
488.12	1681.38
488.32	1601.51
488.52	1626.09
488.72	1615.85
488.92	1689.57
489.12	1726.44
489.32	1738.73
489.53	1773.54
489.73	1734.63
489.93	1736.68
490.13	1689.57
490.33	1652.71
490.53	1771.49
490.73	1800.16
490.94	1617.90
491.14	1839.08
491.34	1861.60
491.54	2174.94
491.74	2590.68
491.94	2871.25
492.14	3078.10
492.34	2992.08
492.54	2682.84
492.75	2471.90
492.95	2492.38
493.15	2326.49
493.35	2342.88
493.55	2195.42
493.75	2144.22
493.95	2066.40
494.15	2047.97
494.35	1845.22
494.56	1896.42
494.76	1759.21
494.96	1816.55
495.16	1738.73
495.36	1765.35
495.56	1771.49
495.76	1746.92
495.96	1753.06
496.16	1636.33
496.36	1802.21
496.56	1701.86
496.77	1718.25
496.97	1687.53
497.17	1796.07
497.37	1660.90
497.57	1810.40
497.77	1726.44
497.97	1673.19
498.17	1705.96
498.37	1720.29
498.57	1726.44
498.77	1667.05
498.97	1779.68
499.17	1804.26
499.38	1744.87
499.58	1808.36
499.78	1751.01
499.98	1787.88
500.18	1683.43
500.38	1714.15
500.58	1877.99
500.78	2568.15
500.98	4519.87
501.18	6006.69
501.38	6959.00
501.58	7409.55
501.78	6692.76
501.98	5631.91
502.18	5040.05
502.38	4446.14
502.58	4130.75
502.78	3889.09
502.98	3739.59
503.18	3436.49
503.38	3188.69
503.59	2869.20
503.79	2688.98
503.99	2588.63
504.19	2238.43
504.39	2181.09
504.59	2103.26
504.79	2084.83
504.99	2056.16
505.19	1896.42
505.39	1857.51
505.59	1918.95
505.79	1886.18
505.99	1912.80
506.19	1814.50
506.39	1783.78
506.59	1683.43
506.79	1748.97
506.99	1857.51
507.19	1806.31
507.39	1771.49
507.59	1716.20
507.79	1644.52
507.99	1685.48
508.19	1734.63
508.39	1703.91
508.59	1759.21
508.79	1847.27
508.99	1800.16
509.19	1685.48
509.39	1826.79
509.59	1683.43
509.79	1624.04
509.99	1691.62
510.19	1814.50
510.39	1841.12
510.59	1751.01
510.79	1699.81
510.99	1630.18
511.19	1742.82
511.39	1859.56
511.59	1712.10
511.79	1748.97
511.99	1771.49
512.19	1738.73
512.38	1789.92
512.58	1673.19
512.78	1679.33
512.98	1771.49
513.18	1806.31
513.38	1654.76
513.58	1828.84
513.78	1689.57
513.98	1701.86
514.18	1740.77
514.38	1757.16
514.58	1798.12
514.78	1708.01
514.98	1722.34
515.18	1665.00
515.38	1701.86
515.58	1828.84
515.78	1734.63
515.98	1693.67
516.18	1726.44
516.38	1648.61
516.57	1556.46
516.77	1693.67
516.97	1767.40
517.17	1724.39
517.37	1636.33
517.57	1744.87
517.77	1724.39
517.97	1771.49
518.17	1726.44
518.37	1714.15
518.57	1701.86
518.77	1732.58
518.97	1779.68
519.16	1785.83
519.36	1796.07
519.56	1736.68
519.76	1687.53
519.96	1728.49
520.16	1769.44
520.36	1644.52
520.56	1828.84
520.76	1693.67
520.96	1673.19
521.16	1802.21
521.35	1742.82
521.55	1804.26
521.75	1789.92
521.95	1644.52
522.15	1652.71
522.35	1705.96
522.55	1746.92
522.75	1785.83
522.95	1744.87
523.14	1687.53
523.34	1791.97
523.54	1675.24
523.74	1794.02
523.94	1746.92
524.14	1644.52
524.34	1732.58
524.54	1800.16
524.73	1714.15
524.93	1708.01
525.13	1718.25
525.33	1624.04
525.53	1861.60
525.73	1783.78
525.93	1699.81
526.13	1759.21
526.32	1759.21
526.52	1712.10
526.72	1841.12
526.92	1648.61
527.12	1667.05
527.32	1667.05
527.52	1738.73
527.71	1755.11
527.91	1697.77
528.11	1687.53
528.31	1687.53
528.51	1646.57
528.71	1740.77
528.90	1751.01
529.10	1789.92
529.30	1814.50
529.50	1646.57
529.70	1759.21
529.90	1712.10
530.09	1650.66
530.29	1630.18
530.49	1767.40
530.69	1865.70
530.89	1677.29
531.09	1759.21
531.28	1751.01
531.48	1779.68
531.68	1722.34
531.88	1773.54
532.08	1720.29
532.28	1722.34
532.47	1822.69
532.67	1824.74
532.87	1775.59
533.07	1687.53
533.27	1800.16
533.46	1751.01
533.66	1755.11
533.86	1732.58
534.06	1742.82
534.26	1718.25
534.45	1673.19
534.65	1806.31
534.85	1722.34
535.05	1667.05
535.25	1789.92
535.44	1736.68
535.64	1734.63
535.84	1714.15
536.04	1718.25
536.24	1761.25
536.43	1693.67
536.63	1751.01
536.83	1669.09
537.03	1771.49
537.22	1615.85
537.42	1675.24
537.62	1746.92
537.82	1763.30
538.02	1810.40
538.21	1847.27
538.41	1837.03
538.61	1742.82
538.81	1726.44
539.00	1761.25
539.20	1665.00
539.40	1689.57
539.60	1800.16
539.79	1802.21
539.99	1640.42
540.19	1558.50
540.39	1662.95
540.58	1728.49
540.78	1812.45
540.98	1751.01
541.18	1791.97
541.37	1837.03
541.57	1689.57
541.77	1716.20
541.97	1705.96
542.16	1568.74
542.36	1667.05
542.56	1732.58
542.76	1845.22
542.95	1701.86
543.15	1732.58
543.35	1763.30
543.54	1722.34
543.74	1759.21
543.94	1855.46
544.14	1718.25
544.33	1748.97
544.53	1763.30
544.73	1705.96
544.93	1730.53
545.12	1708.01
545.32	1705.96
545.52	1691.62
545.71	1652.71
545.91	1730.53
546.11	1718.25
546.30	1660.90
546.50	1736.68
546.70	1730.53
546.90	1699.81
547.09	1607.66
547.29	1732.58
547.49	1697.77
547.68	1699.81
547.88	1675.24
548.08	1697.77
548.27	2140.13
548.47	1744.87
548.67	1667.05
548.87	1746.92
549.06	1644.52
549.26	1746.92
549.46	1789.92
549.65	1693.67
549.85	1693.67
550.05	1755.11
550.24	1548.26
550.44	1699.81
550.64	1703.91
550.83	1724.39
551.03	1828.84
551.23	1765.35
551.42	1771.49
551.62	1716.20
551.82	1744.87
552.01	1681.38
552.21	1814.50
552.41	1738.73
552.60	1798.12
552.80	1787.88
553.00	1677.29
553.19	1724.39
553.39	1763.30
553.59	1689.57
553.78	1759.21
553.98	1796.07
554.17	1548.26
554.37	1728.49
554.57	1796.07
554.76	1615.85
554.96	1705.96
555.16	1714.15
555.35	1738.73
555.55	1687.53
555.75	1728.49
555.94	1714.15
556.14	1736.68
556.33	1816.55
556.53	1716.20
556.73	1755.11
556.92	1726.44
557.12	1794.02
557.32	1875.94
557.51	1771.49
557.71	1697.77
557.90	1771.49
558.10	1775.59
558.30	1734.63
558.49	1742.82
558.69	1695.72
558.88	1822.69
559.08	1757.16
559.28	1673.19
559.47	1751.01
559.67	1798.12
559.86	1834.98
560.06	1767.40
560.26	1671.14
560.45	1720.29
560.65	1699.81
560.84	1751.01
561.04	1691.62
561.24	1826.79
561.43	1695.72
561.63	1814.50
561.82	1732.58
562.02	1800.16
562.22	1691.62
562.41	1642.47
562.61	1771.49
562.80	1703.91
563.00	1853.41
563.19	1714.15
563.39	1763.30
563.59	1769.44
563.78	1652.71
563.98	1642.47
564.17	1714.15
564.37	1644.52
564.56	1718.25
564.76	1658.85
564.96	1798.12
565.15	1806.31
565.35	1867.75
565.54	1683.43
565.74	1730.53
565.93	1734.63
566.13	1665.00
566.32	1734.63
566.52	1814.50
566.71	1716.20
566.91	1791.97
567.11	1728.49
567.30	1665.00
567.50	1751.01
567.69	1718.25
567.89	1744.87
568.08	1638.38
568.28	1755.11
568.47	1673.19
568.67	1759.21
568.86	1697.77
569.06	1738.73
569.25	1761.25
569.45	1658.85
569.64	1718.25
569.84	1683.43
570.04	1722.34
570.23	1615.85
570.43	1705.96
570.62	1804.26
570.82	1845.22
571.01	1652.71
571.21	1759.21
571.40	1701.86
571.60	1820.64
571.79	1757.16
571.99	1679.33
572.18	1576.94
572.38	1742.82
572.57	1781.73
572.77	1751.01
572.96	1873.89
573.16	1800.16
573.35	1753.06
573.55	1785.83
573.74	1669.09
573.94	1748.97
574.13	1685.48
574.33	1798.12
574.52	1779.68
574.71	1722.34
574.91	1753.06
575.10	1597.42
575.30	1687.53
575.49	1630.18
575.69	1677.29
575.88	1740.77
576.08	1665.00
576.27	1837.03
576.47	1763.30
576.66	1791.97
576.86	1822.69
577.05	1759.21
577.25	1779.68
577.44	1806.31
577.64	1687.53
577.83	1806.31
578.02	1626.09
578.22	1691.62
578.41	1880.04
578.61	1787.88
578.80	1648.61
579.00	1677.29
579.19	1804.26
579.39	1849.32
579.58	1812.45
579.77	1785.83
579.97	1810.40
580.16	1820.64
580.36	1796.07
580.55	1863.65
580.75	1822.69
580.94	1767.40
581.13	1931.23
581.33	1855.46
581.52	1761.25
581.72	1853.41
581.91	1865.70
582.11	1767.40
582.30	1761.25
582.49	1730.53
582.69	1808.36
582.88	1769.44
583.08	1753.06
583.27	1875.94
583.47	1753.06
583.66	1718.25
583.85	1671.14
584.05	1722.34
584.24	1812.45
584.44	1771.49
584.63	1746.92
584.82	1724.39
585.02	1794.02
585.21	1802.21
585.41	1843.17
585.60	1791.97
585.79	1865.70
585.99	1914.85
586.18	1863.65
586.37	2185.18
586.57	3502.03
586.76	10352.48
586.96	25480.83
587.15	35730.91
587.34	41491.85
587.54	43507.05
587.73	37772.74
587.93	27031.14
588.12	22138.54
588.31	18806.50
588.51	16934.65
588.70	15701.78
588.89	14628.64
589.09	12853.05
589.28	11257.68
589.47	9787.24
589.67	8169.35
589.86	6430.62
590.06	5021.62
590.25	3985.35
590.44	3102.67
590.64	2584.54
590.83	2187.23
591.02	2113.50
591.22	1886.18
591.41	1912.80
591.60	1869.80
591.80	1959.91
591.99	1744.87
592.18	1787.88
592.38	1855.46
592.57	1787.88
592.76	1732.58
592.96	1722.34
593.15	1794.02
593.34	1738.73
593.54	1730.53
593.73	1775.59
593.92	1759.21
594.12	1675.24
594.31	1816.55
594.50	1779.68
594.70	1802.21
594.89	1871.84
595.08	1695.72
595.28	1746.92
595.47	1912.80
595.66	1800.16
595.86	1673.19
596.05	1740.77
596.24	1679.33
596.43	1746.92
596.63	1834.98
596.82	1763.30
597.01	1646.57
597.21	1787.88
597.40	1746.92
597.59	1718.25
597.79	1757.16
597.98	1746.92
598.17	1759.21
598.36	1767.40
598.56	1785.83
598.75	1675.24
598.94	1744.87
599.14	1748.97
599.33	1599.46
599.52	1720.29
599.71	1687.53
599.91	1763.30
600.10	1755.11
600.29	1705.96
600.48	1705.96
600.68	1785.83
600.87	1740.77
601.06	1748.97
601.26	1703.91
601.45	1740.77
601.64	1693.67
601.83	1839.08
602.03	1660.90
602.22	1689.57
602.41	1789.92
602.60	1804.26
602.80	1808.36
602.99	1785.83
603.18	1722.34
603.37	1734.63
603.57	1742.82
603.76	1806.31
603.95	1759.21
604.14	1773.54
604.34	1626.09
604.53	1767.40
604.72	1695.72
604.91	1734.63
605.10	1751.01
605.30	1673.19
605.49	1744.87
605.68	1777.64
605.87	1716.20
606.07	1624.04
606.26	1744.87
606.45	1773.54
606.64	1681.38
606.84	1718.25
607.03	1777.64
607.22	1697.77
607.41	1689.57
607.60	1763.30
607.80	1685.48
607.99	1724.39
608.18	1775.59
608.37	1652.71
608.56	1689.57
608.76	1732.58
608.95	1853.41
609.14	1832.93
609.33	1740.77
609.52	1761.25
609.72	1718.25
609.91	1810.40
610.10	1763.30
610.29	1820.64
610.48	1689.57
610.68	1771.49
610.87	1755.11
611.06	1718.25
611.25	1730.53
611.44	1812.45
611.63	1642.47
611.83	1806.31
612.02	1607.66
612.21	1763.30
612.40	1611.75
612.59	1609.70
612.79	1669.09
612.98	1755.11
613.17	1794.02
613.36	1765.35
613.55	1746.92
613.74	1699.81
613.93	1734.63
614.13	1681.38
614.32	1722.34
614.51	1794.02
614.70	1728.49
614.89	1665.00
615.08	1751.01
615.28	2078.69
615.47	1632.23
615.66	1732.58
615.85	1701.86
616.04	1863.65
616.23	1703.91
616.42	1718.25
616.62	1673.19
616.81	1703.91
617.00	1708.01
617.19	1789.92
617.38	1697.77
617.57	1683.43
617.76	1744.87
617.95	1744.87
618.15	1812.45
618.34	1826.79
618.53	1701.86
618.72	1755.11
618.91	1781.73
619.10	1773.54
619.29	1714.15
619.48	1705.96
619.68	1679.33
619.87	1673.19
620.06	1656.81
620.25	1734.63
620.44	1671.14
620.63	1667.05
620.82	1779.68
621.01	1748.97
621.20	1701.86
621.39	1759.21
621.59	1740.77
621.78	1679.33
621.97	1773.54
622.16	1720.29
622.35	1681.38
622.54	1794.02
622.73	1748.97
622.92	1626.09
623.11	1724.39
623.30	1728.49
623.49	1773.54
623.68	1599.46
623.88	1744.87
624.07	1585.13
624.26	1697.77
624.45	1730.53
624.64	1681.38
624.83	1712.10
625.02	1800.16
625.21	1689.57
625.40	1714.15
625.59	1740.77
625.78	1685.48
625.97	1812.45
626.16	1740.77
626.35	1765.35
626.54	1648.61
626.74	1785.83
626.93	1699.81
627.12	1701.86
627.31	1738.73
627.50	1767.40
627.69	1816.55
627.88	1650.66
628.07	1736.68
628.26	1667.05
628.45	1640.42
628.64	1685.48
628.83	1689.57
629.02	1667.05
629.21	1705.96
629.40	1718.25
629.59	1681.38
629.78	1703.91
629.97	1634.28
630.16	1703.91
630.35	1630.18
630.54	1710.05
630.73	1640.42
630.92	1652.71
631.11	1660.90
631.30	1673.19
631.49	1710.05
631.68	1665.00
631.87	1738.73
632.06	1636.33
632.25	1802.21
632.44	1736.68
632.63	1652.71
632.82	1681.38
633.01	1644.52
633.20	1593.32
633.39	1720.29
633.58	1615.85
633.77	1716.20
633.96	1757.16
634.15	1794.02
634.34	1728.49
634.53	1699.81
634.72	1722.34
634.91	1636.33
635.10	1769.44
635.29	1691.62
635.48	1685.48
635.67	1720.29
635.86	1677.29
636.05	1771.49
636.24	1693.67
636.43	1708.01
636.62	1736.68
636.81	1550.31
637.00	1689.57
637.19	1748.97
637.38	1697.77
637.57	1714.15
637.76	1738.73
637.95	1734.63
638.14	1652.71
638.33	1757.16
638.52	1697.77
638.71	1626.09
638.89	1585.13
639.08	1785.83
639.27	1763.30
639.46	1677.29
639.65	1736.68
639.84	1724.39
640.03	1621.99
640.22	1634.28
640.41	1763.30
640.60	1626.09
640.79	1712.10
640.98	1695.72
641.17	1812.45
641.36	1660.90
641.55	1740.77
641.74	1667.05
641.92	1689.57
642.11	1628.14
642.30	1679.33
642.49	1665.00
642.68	1779.68
642.87	1726.44
643.06	1701.86
643.25	1701.86
643.44	1665.00
643.63	1687.53
643.82	1769.44
644.00	1662.95
644.19	1691.62
644.38	1667.05
644.57	1617.90
644.76	1677.29
644.95	1742.82
645.14	1687.53
645.33	1726.44
645.52	1771.49
645.71	1667.05
645.89	1660.90
646.08	1662.95
646.27	1685.48
646.46	1748.97
646.65	1613.80
646.84	1718.25
647.03	1669.09
647.22	1726.44
647.40	1785.83
647.59	1630.18
647.78	1578.98
647.97	1642.47
648.16	1650.66
648.35	1734.63
648.54	1703.91
648.73	1685.48
648.91	1794.02
649.10	1705.96
649.29	1699.81
649.48	1716.20
649.67	1669.09
649.86	1656.81
650.05	1599.46
650.23	1794.02
650.42	1566.70
650.61	1767.40
650.80	1738.73
650.99	1785.83
651.18	1699.81
651.36	1804.26
651.55	1673.19
651.74	1820.64
651.93	1665.00
652.12	1712.10
652.31	1693.67
652.49	1628.14
652.68	1654.76
652.87	1783.78
653.06	1681.38
653.25	1771.49
653.44	1656.81
653.62	1753.06
653.81	1693.67
654.00	1691.62
654.19	1724.39
654.38	1777.64
654.56	1716.20
654.75	1701.86
654.94	1746.92
655.13	1669.09
655.32	1800.16
655.51	1738.73
655.69	1654.76
655.88	1755.11
656.07	1660.90
656.26	1748.97
656.45	1632.23
656.63	1699.81
656.82	1671.14
657.01	1853.41
657.20	1697.77
657.38	1755.11
657.57	1658.85
657.76	1730.53
657.95	1781.73
658.14	1716.20
658.32	1751.01
658.51	1722.34
658.70	1665.00
658.89	1800.16
659.08	1705.96
659.26	1775.59
659.45	1685.48
659.64	1789.92
659.83	1603.56
660.01	1861.60
660.20	1685.48
660.39	1861.60
660.58	1619.94
660.76	1736.68
660.95	1626.09
661.14	1714.15
661.33	1636.33
661.51	1665.00
661.70	1630.18
661.89	1701.86
662.08	1738.73
662.26	1632.23
662.45	1669.09
662.64	1892.32
662.83	1742.82
663.01	1603.56
663.20	1689.57
663.39	1798.12
663.58	1695.72
663.76	1730.53
663.95	1701.86
664.14	1669.09
664.32	1701.86
664.51	1619.94
664.70	1583.08
664.89	1726.44
665.07	1636.33
665.26	1769.44
665.45	1599.46
665.64	1789.92
665.82	1769.44
666.01	1685.48
666.20	1638.38
666.38	1763.30
666.57	1828.84
666.76	2201.57
666.95	4614.07
667.13	10674.01
667.32	15488.79
667.51	18214.63
667.69	19670.74
667.88	18038.51
668.07	12697.41
668.25	9744.24
668.44	8189.83
668.63	7407.50
668.81	6936.47
669.00	6342.56
669.19	5898.15
669.38	5259.18
669.56	4571.07
669.75	4155.33
669.94	3405.77
670.12	2914.26
670.31	2609.11
670.50	2209.76
670.68	2027.49
670.87	2041.82
671.06	1816.55
671.24	1775.59
671.43	1796.07
671.62	1767.40
671.80	1679.33
671.99	1763.30
672.18	1742.82
672.36	1791.97
672.55	1720.29
672.74	1724.39
672.92	1646.57
673.11	1794.02
673.29	1712.10
673.48	1789.92
673.67	1667.05
673.85	1736.68
674.04	1677.29
674.23	1716.20
674.41	1855.46
674.60	1581.03
674.79	1599.46
674.97	1693.67
675.16	1734.63
675.34	1695.72
675.53	1738.73
675.72	1714.15
675.90	1814.50
676.09	1705.96
676.28	1701.86
676.46	1652.71
676.65	1736.68
676.83	1650.66
677.02	1734.63
677.21	1720.29
677.39	1708.01
677.58	1656.81
677.77	1746.92
677.95	1673.19
678.14	1667.05
678.32	1710.05
678.51	1693.67
678.70	1822.69
678.88	1693.67
679.07	1724.39
679.25	1755.11
679.44	1652.71
679.63	1630.18
679.81	1751.01
680.00	1755.11
680.18	1665.00
680.37	1736.68
680.55	1638.38
680.74	1654.76
680.93	1617.90
681.11	1712.10
681.30	1640.42
681.48	1791.97
681.67	1665.00
681.85	1699.81
682.04	1646.57
682.23	1720.29
682.41	1720.29
682.60	1695.72
682.78	1671.14
682.97	1597.42
683.15	1679.33
683.34	1701.86
683.53	1765.35
683.71	1574.89
683.90	1773.54
684.08	1828.84
684.27	1650.66
684.45	1689.57
684.64	1757.16
684.82	1769.44
685.01	1734.63
685.19	1671.14
685.38	1777.64
685.57	1693.67
685.75	1621.99
685.94	1658.85
686.12	1650.66
686.31	1726.44
686.49	1765.35
686.68	1648.61
686.86	1697.77
687.05	1632.23
687.23	1787.88
687.42	1632.23
687.60	1646.57
687.79	1710.05
687.97	1767.40
688.16	1736.68
688.34	1816.55
688.53	1665.00
688.71	1738.73
688.90	1738.73
689.08	1650.66
689.27	1648.61
689.45	1708.01
689.64	1716.20
689.82	1734.63
690.01	1761.25
690.19	1722.34
690.38	1697.77
690.56	1751.01
690.75	1658.85
690.93	1716.20
691.12	1679.33
691.30	1697.77
691.49	1634.28
691.67	1683.43
691.86	1861.60
692.04	1658.85
692.23	1640.42
692.41	1703.91
692.60	1814.50
692.78	1705.96
692.97	1660.90
693.15	1697.77
693.34	1775.59
693.52	1712.10
693.71	1687.53
693.89	1683.43
694.08	1671.14
694.26	1703.91
694.44	1763.30
694.63	1757.16
694.81	1593.32
695.00	1673.19
695.18	1781.73
695.37	1861.60
695.55	1685.48
695.74	1679.33
695.92	1677.29
696.10	1796.07
696.29	1626.09
696.47	1746.92
696.66	1632.23
696.84	1611.75
697.03	1675.24
697.21	1777.64
697.40	2269.15
697.58	1738.73
697.76	1679.33
697.95	1710.05
698.13	1687.53
698.32	1626.09
698.50	1714.15
698.68	1791.97
698.87	1722.34
699.05	1820.64
699.24	1681.38
699.42	1697.77
699.61	1677.29
699.79	1699.81
699.97	1730.53
700.16	1734.63
700.34	1746.92
700.53	1761.25
700.71	1814.50
700.89	1728.49
701.08	1714.15
701.26	1777.64
701.45	2082.78
701.63	1656.81
701.81	1681.38
702.00	1785.83
702.18	1691.62
702.37	1656.81
702.55	1691.62
702.73	1685.48
702.92	1595.37
703.10	1710.05
703.28	1613.80
703.47	1662.95
703.65	1730.53
703.84	1751.01
704.02	1685.48
704.20	1796.07
704.39	1613.80
704.57	1656.81
704.75	1701.86
704.94	1761.25
705.12	1685.48
705.30	1861.60
705.49	2318.30
705.67	4421.56
705.86	9670.51
706.04	12851.00
706.22	14958.36
706.41	15849.23
706.59	14376.74
706.77	10022.76
706.96	7548.81
707.14	6817.69
707.32	6066.08
707.51	5570.48
707.69	4990.90
707.87	4302.78
708.06	3592.14
708.24	2983.89
708.42	2416.60
708.61	2289.63
708.79	1943.52
708.97	1849.32
709.16	1816.55
709.34	1753.06
709.52	1591.27
709.71	1748.97
709.89	1783.78
710.07	1652.71
710.26	1693.67
710.44	1738.73
710.62	1734.63
710.80	1734.63
710.99	1789.92
711.17	1718.25
711.35	1640.42
711.54	1624.04
711.72	1730.53
711.90	1691.62
712.09	1650.66
712.27	1632.23
712.45	1689.57
712.63	1617.90
712.82	1710.05
713.00	1773.54
713.18	1759.21
713.37	1726.44
713.55	1781.73
713.73	1691.62
713.91	1781.73
714.10	1642.47
714.28	1673.19
714.46	1656.81
714.65	1716.20
714.83	1771.49
715.01	1648.61
715.19	1697.77
715.38	1681.38
715.56	1669.09
715.74	1640.42
715.92	1673.19
716.11	1810.40
716.29	1542.12
716.47	1718.25
716.65	1669.09
716.84	1697.77
717.02	1701.86
717.20	1632.23
717.38	1703.91
717.57	1675.24
717.75	1673.19
717.93	1705.96
718.11	1728.49
718.30	1652.71
718.48	1755.11
718.66	1763.30
718.84	1732.58
719.03	1683.43
719.21	1665.00
719.39	1755.11
719.57	1763.30
719.75	1781.73
719.94	1703.91
720.12	1632.23
720.30	1677.29
720.48	1724.39
720.67	1671.14
720.85	1677.29
721.03	1624.04
721.21	1603.56
721.39	1757.16
721.58	1761.25
721.76	1675.24
721.94	1726.44
722.12	1697.77
722.30	1785.83
722.49	1689.57
722.67	1703.91
722.85	1665.00
723.03	1558.50
723.21	1640.42
723.40	1703.91
723.58	1742.82
723.76	1837.03
723.94	1681.38
724.12	1699.81
724.30	1681.38
724.49	1724.39
724.67	1630.18
724.85	1724.39
725.03	1578.98
725.21	1722.34
725.40	1722.34
725.58	1652.71
725.76	1783.78
725.94	1685.48
726.12	1669.09
726.30	1652.71
726.49	1685.48
726.67	1624.04
726.85	1757.16
727.03	1832.93
727.21	2136.03
727.39	3004.37
727.57	3827.65
727.76	4214.72
727.94	4454.33
728.12	4374.46
728.30	3727.30
728.48	3049.43
728.66	2746.33
728.84	2578.39
729.03	2197.47
729.21	2244.57
729.39	2021.35
729.57	1865.70
729.75	1779.68
729.93	1755.11
730.11	1660.90
730.30	1734.63
730.48	1728.49
730.66	1789.92
730.84	1787.88
731.02	1732.58
731.20	1720.29
731.38	1732.58
731.56	1566.70
731.74	1671.14
731.93	1724.39
732.11	1591.27
732.29	1669.09
732.47	1705.96
732.65	1726.44
732.83	1787.88
733.01	1703.91
733.19	1599.46
733.37	1667.05
733.56	1695.72
733.74	1656.81
733.92	1724.39
734.10	1697.77
734.28	1646.57
734.46	1589.22
734.64	1644.52
734.82	1638.38
735.00	1652.71
735.18	1685.48
735.36	1681.38
735.54	1751.01
735.73	1710.05
735.91	1722.34
736.09	1679.33
736.27	1701.86
736.45	1742.82
736.63	1628.14
736.81	1646.57
736.99	1806.31
737.17	1761.25
737.35	1660.90
737.53	1697.77
737.71	1724.39
737.89	1785.83
738.07	1634.28
738.25	1558.50
738.43	1615.85
738.61	1611.75
738.80	1673.19
738.98	1587.18
739.16	1611.75
739.34	1628.14
739.52	1751.01
739.70	1658.85
739.88	1779.68
740.06	1828.84
740.24	1583.08
740.42	1734.63
740.60	1654.76
740.78	1685.48
740.96	1644.52
741.14	1621.99
741.32	1734.63
741.50	1552.36
741.68	1751.01
741.86	1732.58
742.04	1636.33
742.22	1538.02
742.40	1693.67
742.58	1714.15
742.76	1632.23
742.94	1804.26
743.12	1634.28
743.30	1744.87
743.48	1626.09
743.66	1589.22
743.84	1720.29
744.02	1669.09
744.20	1718.25
744.38	1634.28
744.56	1732.58
744.74	1777.64
744.92	1665.00
745.10	1656.81
745.28	1703.91
745.46	1748.97
745.64	1701.86
745.82	1734.63
746.00	1726.44
746.18	1714.15
746.36	1697.77
746.54	1736.68
746.72	1734.63
746.90	1640.42
747.08	1771.49
747.26	1607.66
747.44	1767.40
747.62	1755.11
747.80	1722.34
747.98	1779.68
748.15	1673.19
748.33	1787.88
748.51	1738.73
748.69	1669.09
748.87	1685.48
749.05	1738.73
749.23	1720.29
749.41	1669.09
749.59	1705.96
749.77	1773.54
749.95	1675.24
750.13	1589.22
750.31	1767.40
750.49	1695.72
750.67	1714.15
750.85	1722.34
751.03	1665.00
751.20	1845.22
751.38	1681.38
751.56	1642.47
751.74	1705.96
751.92	1685.48
752.10	1576.94
752.28	1755.11
752.46	1693.67
752.64	1675.24
752.82	1701.86
753.00	1728.49
753.18	1714.15
753.35	1699.81
753.53	1648.61
753.71	1695.72
753.89	1732.58
754.07	1759.21
754.25	1789.92
754.43	1624.04
754.61	1605.61
754.79	1708.01
754.97	1626.09
755.14	1714.15
755.32	1595.37
755.50	1697.77
755.68	1712.10
755.86	1628.14
756.04	1703.91
756.22	1609.70
756.40	1763.30
756.57	1810.40
756.75	1675.24
756.93	1765.35
757.11	1722.34
757.29	1660.90
757.47	1585.13
757.65	1601.51
757.82	1605.61
758.00	1593.32
758.18	1560.55
758.36	1634.28
758.54	1787.88
758.72	1716.20
758.90	1794.02
759.07	1767.40
759.25	1619.94
759.43	1656.81
759.61	1648.61
759.79	2127.84
759.97	1763.30
760.15	1624.04
760.32	1644.52
760.50	1728.49
760.68	1763.30
760.86	1636.33
761.04	1730.53
761.22	1699.81
761.39	1671.14
761.57	1753.06
761.75	1724.39
761.93	1759.21
762.11	1652.71
762.28	1748.97
762.46	1705.96
762.64	1753.06
762.82	1611.75
763.00	1718.25
763.18	1675.24
763.35	1654.76
763.53	1783.78
763.71	1710.05
763.89	1656.81
764.07	1779.68
764.24	1744.87
764.42	1730.53
764.60	1636.33
764.78	1763.30
764.96	1796.07
765.13	1730.53
765.31	1699.81
765.49	1656.81
765.67	1689.57
765.84	1652.71
766.02	1697.77
766.20	1619.94
766.38	1740.77
766.56	1744.87
766.73	1730.53
766.91	1667.05
767.09	1697.77
767.27	1714.15
767.44	1697.77
767.62	1679.33
767.80	1652.71
767.98	1714.15
768.15	1714.15
768.33	1710.05
768.51	1724.39
768.69	1732.58
768.87	1705.96
769.04	1677.29
769.22	1693.67
769.40	1877.99
769.58	1877.99
769.75	1710.05
769.93	1804.26
770.11	1669.09
770.28	1658.85
770.46	1724.39
770.64	1640.42
770.82	1642.47
770.99	1724.39
771.17	1730.53
771.35	1746.92
771.53	1683.43
771.70	1697.77
771.88	1714.15
772.06	1660.90
772.23	1671.14
772.41	1699.81
772.59	1689.57
772.77	1644.52
772.94	1679.33
773.12	1751.01
773.30	1697.77
773.47	1679.33
773.65	1726.44
773.83	1808.36
774.01	1632.23
774.18	1626.09
774.36	1621.99
774.54	1656.81
774.71	1757.16
774.89	1593.32
775.07	1658.85
775.24	1652.71
775.42	1624.04
775.60	1732.58
775.78	1687.53
775.95	1667.05
776.13	1632.23
776.31	1615.85
776.48	1705.96
776.66	1849.32
776.84	1660.90
777.01	1591.27
777.19	1738.73
777.37	1640.42
777.54	1742.82
777.72	1763.30
777.90	1718.25
778.07	1646.57
778.25	1861.60
778.43	1724.39
778.60	1644.52
778.78	1693.67
778.96	1787.88
779.13	1548.26
779.31	1777.64
779.49	1685.48
779.66	1605.61
779.84	1675.24
780.01	1746.92
780.19	1646.57
780.37	1718.25
780.54	1789.92
780.72	1660.90
780.90	1691.62
781.07	1714.15
781.25	1665.00
781.43	1753.06
781.60	1742.82
781.78	1746.92
781.95	1552.36
782.13	1673.19
782.31	1695.72
782.48	1611.75
782.66	1697.77
782.83	1783.78
783.01	1687.53
783.19	1708.01
783.36	1695.72
783.54	1650.66
783.72	1769.44
783.89	1726.44
784.07	1724.39
784.24	1642.47
784.42	1783.78
784.60	1722.34
784.77	1755.11
784.95	1562.60
785.12	1679.33
785.30	1689.57
785.47	1656.81
785.65	1673.19
785.83	1710.05
786.00	1617.90
786.18	1662.95
786.35	1675.24
786.53	1640.42
786.71	1808.36
786.88	1779.68
787.06	1658.85
787.23	1734.63
787.41	1585.13
787.58	1732.58
787.76	1665.00
787.94	1628.14
788.11	1683.43
788.29	1656.81
788.46	1634.28
788.64	1570.79
788.81	1636.33
788.99	1642.47
789.16	1687.53
789.34	1683.43
789.52	1734.63
789.69	1665.00
789.87	1611.75
790.04	1638.38
790.22	1654.76
790.39	1822.69
790.57	1646.57
790.74	1667.05
790.92	1734.63
791.09	1636.33
791.27	1710.05
791.44	1732.58
791.62	1695.72
791.79	1705.96
791.97	1632.23
792.15	1820.64
792.32	1740.77
792.50	1753.06
792.67	1703.91
792.85	1722.34
793.02	1771.49
793.20	1732.58
793.37	1601.51
793.55	1759.21
793.72	1671.14
793.90	1763.30
794.07	1636.33
794.25	1652.71
794.42	1763.30
794.60	1689.57
794.77	1746.92
794.95	1787.88
795.12	1730.53
795.30	1722.34
795.47	1566.70
795.65	1843.17
795.82	1736.68
796.00	1603.56
796.17	1753.06
796.34	1673.19
796.52	1654.76
796.69	1720.29
796.87	1742.82
797.04	1699.81
797.22	1628.14
797.39	1705.96
797.57	1695.72
797.74	1640.42
797.92	1724.39
798.09	1607.66
798.27	1716.20
798.44	1724.39
798.62	1677.29
798.79	1736.68
798.96	1677.29
799.14	1685.48
799.31	1804.26
799.49	1628.14
799.66	1648.61
799.84	1683.43
800.01	1689.57
800.19	1697.77
800.36	1593.32
800.53	1685.48
800.71	1701.86
800.88	1832.93
801.06	1642.47
801.23	1675.24
801.41	1687.53
801.58	1630.18
801.75	1640.42
801.93	1720.29
802.10	1710.05
802.28	1751.01
802.45	1642.47
802.63	1730.53
802.80	1740.77
802.97	1603.56
803.15	1783.78
803.32	1601.51
803.50	1619.94
803.67	1624.04
803.84	1654.76
804.02	1708.01
804.19	1648.61
804.37	1665.00
804.54	1554.41
804.71	1685.48
804.89	1654.76
805.06	1564.65
805.24	1587.18
805.41	1613.80
805.58	1703.91
805.76	1802.21
805.93	1708.01
806.10	1769.44
806.28	1734.63
806.45	1703.91
806.63	1619.94
806.80	1718.25
806.97	1695.72
807.15	1720.29
807.32	1742.82
807.49	1630.18
807.67	1615.85
807.84	1677.29
808.01	1658.85
808.19	1773.54
808.36	1796.07
808.54	1701.86
808.71	1691.62
808.88	1746.92
809.06	1816.55
809.23	1775.59
809.40	1691.62
809.58	1640.42
809.75	1673.19
809.92	1652.71
810.10	1814.50
810.27	1665.00
810.44	1767.40
810.62	1757.16
810.79	1716.20
810.96	1624.04
811.14	1611.75
811.31	1761.25
811.48	1644.52
811.66	1675.24
811.83	1738.73
812.00	1740.77
812.18	1722.34
812.35	1781.73
812.52	1619.94
812.69	1640.42
812.87	1742.82
813.04	1679.33
813.21	1753.06
813.39	1624.04
813.56	1630.18
813.73	1755.11
813.91	1589.22
814.08	1689.57
814.25	1712.10
814.42	1646.57
814.60	1638.38
814.77	1785.83
814.94	1630.18
815.12	1738.73
815.29	1808.36
815.46	1660.90
815.63	1759.21
815.81	1714.15
815.98	1705.96
816.15	1722.34
816.33	1740.77
816.50	1693.67
816.67	1710.05
816.84	1685.48
817.02	1632.23
817.19	1656.81
817.36	1724.39
817.53	1683.43
817.71	1615.85
817.88	1710.05
818.05	1753.06
818.22	1734.63
818.40	1744.87
818.57	1646.57
818.74	1767.40
818.91	1675.24
819.09	1746.92
819.26	1771.49
819.43	1585.13
819.60	1685.48
819.78	1691.62
819.95	1779.68
820.12	1630.18
820.29	1705.96
820.47	1722.34
820.64	1611.75
820.81	1656.81
820.98	1703.91
821.15	1617.90
821.33	1806.31
821.50	1597.42
821.67	1705.96
821.84	1673.19
822.02	1748.97
822.19	1753.06
822.36	1628.14
822.53	1681.38
822.70	1712.10
822.88	1705.96
823.05	1781.73
823.22	1677.29
823.39	1652.71
823.56	1714.15
823.74	1787.88
823.91	1677.29
824.08	1550.31
824.25	1632.23
824.42	1759.21
824.60	1701.86
824.77	1693.67
824.94	1689.57
825.11	1775.59
825.28	1607.66
825.45	1736.68
825.63	1636.33
825.80	1679.33
825.97	1761.25
826.14	1757.16
826.31	1601.51
826.48	1667.05
826.66	1538.02
826.83	1652.71
827.00	1753.06
827.17	1716.20
827.34	1632.23
827.51	1601.51
827.69	1687.53
827.86	1652.71
828.03	1638.38
828.20	1763.30
828.37	1691.62
828.54	1732.58
828.71	1671.14
828.89	1880.04
829.06	1701.86
829.23	1732.58
829.40	1689.57
829.57	1634.28
829.74	1765.35
829.91	1699.81
830.09	1761.25
830.26	1734.63
830.43	1791.97
830.60	1718.25
830.77	1755.11
830.94	1794.02
831.11	1712.10
831.28	1699.81
831.46	1740.77
831.63	1685.48
831.80	1724.39
831.97	1624.04
832.14	1673.19
832.31	1697.77
832.48	1734.63
832.65	1781.73
832.82	1646.57
832.99	1683.43
833.17	1601.51
833.34	1789.92
833.51	1708.01
833.68	1630.18
833.85	1781.73
834.02	1685.48
834.19	1603.56
834.36	1621.99
834.53	1742.82
834.70	1791.97
834.87	1712.10
835.04	1691.62
835.22	1626.09
835.39	1652.71
835.56	1628.14
835.73	1667.05
835.90	1738.73
836.07	1648.61
836.24	1773.54
836.41	1544.17
836.58	1636.33
836.75	1708.01
836.92	1650.66
837.09	1650.66
837.26	1681.38
837.43	1705.96
837.60	1738.73
837.77	1646.57
837.94	1634.28
838.12	1746.92
838.29	1736.68
838.46	1681.38
838.63	1603.56
838.80	1746.92
838.97	1703.91
839.14	1677.29
839.31	1701.86
839.48	1755.11
839.65	1621.99
839.82	1730.53
839.99	1738.73
840.16	1785.83
840.33	1646.57
840.50	1685.48
840.67	1611.75
840.84	1533.93
841.01	1673.19
841.18	1718.25
841.35	1681.38
841.52	1777.64
841.69	1767.40
841.86	1767.40
842.03	1677.29
842.20	1671.14
842.37	1665.00
842.54	1767.40
842.71	1679.33
842.88	1601.51
843.05	1724.39
843.22	1562.60
843.39	1697.77
843.56	1654.76
843.73	1611.75
843.90	1728.49
844.07	1685.48
844.24	1689.57
844.41	1771.49
844.58	1701.86
844.75	1650.66
844.92	1695.72
845.09	1665.00
845.26	1578.98
845.43	1689.57
845.60	1652.71
845.77	1677.29
845.94	1665.00
846.10	1701.86
846.27	1548.26
846.44	1609.70
846.61	1642.47
846.78	1648.61
846.95	1746.92
847.12	1646.57
847.29	1705.96
847.46	1644.52
847.63	1703.91
847.80	1640.42
847.97	1699.81
848.14	1779.68
848.31	1644.52
848.48	1671.14
848.65	1708.01
848.82	1656.81
848.98	1755.11
849.15	1648.61
849.32	1816.55
849.49	1853.41
849.66	1697.77
849.83	1683.43
850.00	1701.86
850.17	1765.35
850.34	1691.62
850.51	1650.66
850.68	1634.28
850.85	1871.84
851.01	1679.33
851.18	1734.63
851.35	1650.66
851.52	1734.63
851.69	1714.15
851.86	1617.90
852.03	1609.70
852.20	1710.05
852.37	1619.94
852.53	1548.26
852.70	1724.39
852.87	1681.38
853.04	1751.01
853.21	1683.43
853.38	1751.01
853.55	1697.77
853.72	1722.34
853.89	1632.23
854.05	1634.28
854.22	1665.00
854.39	1599.46
854.56	1808.36
854.73	1751.01
854.90	1624.04
855.07	1701.86
855.23	1712.10
855.40	1775.59
855.57	1669.09
855.74	1591.27
855.91	1822.69
856.08	1642.47
856.25	1583.08
856.41	1644.52
856.58	1626.09
856.75	1683.43
856.92	1581.03
857.09	1757.16
857.26	1632.23
857.42	1697.77
857.59	1681.38
857.76	1611.75
857.93	1757.16
858.10	1646.57
858.27	1603.56
858.43	1652.71
858.60	1648.61
858.77	1574.89
858.94	1578.98
859.11	1679.33
859.27	1728.49
859.44	1624.04
859.61	1798.12
859.78	1660.90
859.95	1681.38
860.12	1648.61
860.28	1871.84
860.45	1814.50
860.62	1591.27
860.79	1656.81
860.95	1607.66
861.12	1589.22
861.29	1757.16
861.46	1656.81
861.63	1650.66
861.79	1667.05
861.96	1665.00
862.13	1665.00
862.30	1687.53
862.47	1613.80
862.63	1652.71
862.80	1703.91
862.97	1742.82
863.14	1708.01
863.30	1714.15
863.47	1581.03
863.64	1777.64
863.81	1773.54
863.97	1673.19
864.14	1722.34
864.31	1642.47
864.48	1699.81
864.65	1652.71
864.81	1673.19
864.98	1718.25
865.15	1710.05
865.32	1796.07
865.48	1828.84
865.65	1791.97
865.82	1628.14
865.98	1654.76
866.15	1724.39
866.32	1730.53
866.49	1660.90
866.65	1693.67
866.82	1632.23
866.99	1730.53
867.16	1681.38
867.32	1640.42
867.49	1665.00
867.66	1654.76
867.83	1660.90
867.99	1613.80
868.16	1652.71
868.33	1611.75
868.49	1683.43
868.66	1646.57
868.83	1716.20
868.99	1708.01
869.16	1693.67
869.33	1722.34
869.50	1728.49
869.66	1650.66
869.83	1718.25
870.00	1624.04
870.16	1771.49
870.33	1695.72
870.50	1693.67
870.66	1736.68
870.83	1855.46
871.00	1703.91
871.17	1730.53
871.33	1722.34
871.50	1665.00
871.67	1677.29
871.83	1675.24
872.00	1837.03
872.17	1617.90
872.33	1791.97
872.50	1787.88
872.67	1644.52
872.83	1628.14
873.00	1710.05
873.17	1644.52
873.33	1658.85
873.50	1779.68
873.67	1665.00
873.83	1677.29
874.00	1708.01
874.16	1748.97
874.33	1703.91
874.50	1642.47
874.66	1703.91
874.83	1714.15
875.00	1726.44
875.16	1751.01
875.33	1732.58
875.50	1615.85
875.66	1619.94
875.83	1675.24
875.99	1708.01
876.16	1665.00
876.33	1675.24
876.49	1699.81
876.66	1656.81
876.83	1718.25
876.99	1597.42
877.16	1720.29
877.32	1656.81
877.49	1671.14
877.66	1697.77
877.82	1742.82
877.99	1716.20
878.15	1794.02
878.32	1728.49
878.49	1718.25
878.65	1716.20
878.82	1746.92
878.98	1644.52
879.15	1759.21
879.32	1685.48
879.48	1673.19
879.65	1656.81
879.81	1617.90
879.98	1597.42
880.15	1765.35
880.31	1759.21
880.48	1648.61
880.64	1779.68
880.81	1787.88
880.97	1736.68
881.14	1701.86
881.31	1646.57
881.47	1755.11
881.64	1624.04
881.80	1531.88
881.97	1734.63
882.13	1771.49
882.30	1636.33
882.47	1689.57
882.63	1624.04
882.80	1699.81
882.96	1705.96
883.13	1718.25
883.29	1673.19
883.46	1708.01
883.62	1812.45
883.79	1693.67
883.95	1730.53
884.12	1626.09
884.29	1693.67
884.45	1697.77
884.62	1658.85
884.78	1640.42
884.95	1820.64
885.11	1595.37
885.28	1724.39
885.44	1601.51
885.61	1763.30
885.77	1710.05
885.94	1640.42
886.10	1671.14
886.27	1689.57
886.43	1789.92
886.60	1724.39
886.76	1687.53
886.93	1673.19
887.09	1673.19
887.26	1568.74
887.42	1724.39
887.59	1724.39
887.75	1818.60
887.92	1705.96
888.08	1724.39
888.25	1804.26
888.41	1798.12
888.58	1718.25
888.74	1685.48
888.91	1652.71
>>>>>End Processed Spectral Data<<<<<
