SpectraSuite Data File
++++++++++++++++++++++++++++++++++++
Date: Mon Jun 06 12:29:57 CEST 2016
User: root
Dark Spectrum Present: No
Reference Spectrum Present: No
Number of Sampled Component Spectra: 1
Spectrometers: USB4C02835
Integration Time (usec): 100000 (USB4C02835)
Spectra Averaged: 1 (USB4C02835)
Boxcar Smoothing: 0 (USB4C02835)
Correct for Electrical Dark: No (USB4C02835)
Strobe/Lamp Enabled: No (USB4C02835)
Correct for Detector Non-linearity: No (USB4C02835)
Correct for Stray Light: No (USB4C02835)
Number of Pixels in Processed Spectrum: 3648
>>>>>Begin Processed Spectral Data<<<<<
177.47	1480.68
177.69	1480.68
177.91	1480.68
178.13	1443.82
178.36	1427.43
178.58	1624.04
178.80	1734.63
179.02	1687.53
179.24	1687.53
179.46	1646.57
179.68	1748.97
179.90	1656.81
180.13	1697.77
180.35	1691.62
180.57	1675.24
180.79	1773.54
181.01	1681.38
181.23	1701.86
181.45	1701.86
181.67	1751.01
181.90	1714.15
182.12	1714.15
182.34	1671.14
182.56	1767.40
182.78	1746.92
183.00	1734.63
183.22	1665.00
183.44	1583.08
183.66	1773.54
183.89	1812.45
184.11	1665.00
184.33	1699.81
184.55	1748.97
184.77	1685.48
184.99	1767.40
185.21	1621.99
185.43	1904.61
185.65	1644.52
185.87	1628.14
186.10	1824.74
186.32	1904.61
186.54	1738.73
186.76	1742.82
186.98	1738.73
187.20	1675.24
187.42	1683.43
187.64	1740.77
187.86	1669.09
188.08	1765.35
188.30	1691.62
188.52	1652.71
188.75	1740.77
188.97	1763.30
189.19	1650.66
189.41	1769.44
189.63	1802.21
189.85	1726.44
190.07	1613.80
190.29	1636.33
190.51	1671.14
190.73	1626.09
190.95	1751.01
191.17	1683.43
191.39	1658.85
191.61	1632.23
191.84	1617.90
192.06	1685.48
192.28	1636.33
192.50	1845.22
192.72	1753.06
192.94	1710.05
193.16	1746.92
193.38	1732.58
193.60	1619.94
193.82	1712.10
194.04	1748.97
194.26	1728.49
194.48	1712.10
194.70	1675.24
194.92	1642.47
195.14	1712.10
195.36	1660.90
195.58	1630.18
195.80	1693.67
196.02	1697.77
196.24	1671.14
196.46	1759.21
196.69	1665.00
196.91	1751.01
197.13	1669.09
197.35	1681.38
197.57	1755.11
197.79	1761.25
198.01	1716.20
198.23	1755.11
198.45	1753.06
198.67	1611.75
198.89	1691.62
199.11	1781.73
199.33	1697.77
199.55	1611.75
199.77	1722.34
199.99	1673.19
200.21	1675.24
200.43	1796.07
200.65	1652.71
200.87	1589.22
201.09	1669.09
201.31	1677.29
201.53	1712.10
201.75	1693.67
201.97	1722.34
202.19	1714.15
202.41	1742.82
202.63	1781.73
202.85	1671.14
203.07	1689.57
203.29	1685.48
203.51	1648.61
203.73	1654.76
203.95	1789.92
204.17	1761.25
204.39	1767.40
204.61	1652.71
204.83	1652.71
205.05	1720.29
205.27	1699.81
205.49	1855.46
205.71	1683.43
205.93	1621.99
206.15	1675.24
206.37	1660.90
206.59	1724.39
206.81	1689.57
207.03	1630.18
207.25	1646.57
207.47	1724.39
207.69	1679.33
207.91	1779.68
208.13	1761.25
208.34	1701.86
208.56	1634.28
208.78	1716.20
209.00	1665.00
209.22	1701.86
209.44	1673.19
209.66	1722.34
209.88	1636.33
210.10	1703.91
210.32	1703.91
210.54	1796.07
210.76	1755.11
210.98	1710.05
211.20	1562.60
211.42	1677.29
211.64	1742.82
211.86	1695.72
212.08	1708.01
212.30	1667.05
212.52	1667.05
212.74	1738.73
212.96	1708.01
213.17	1740.77
213.39	1751.01
213.61	1777.64
213.83	1662.95
214.05	1628.14
214.27	1769.44
214.49	1585.13
214.71	1662.95
214.93	1804.26
215.15	1714.15
215.37	1697.77
215.59	1570.79
215.81	1812.45
216.03	1761.25
216.24	1740.77
216.46	1662.95
216.68	1708.01
216.90	1720.29
217.12	1757.16
217.34	1746.92
217.56	1748.97
217.78	1708.01
218.00	1722.34
218.22	1660.90
218.44	1658.85
218.66	1701.86
218.87	1769.44
219.09	1701.86
219.31	1691.62
219.53	1689.57
219.75	1671.14
219.97	1716.20
220.19	1687.53
220.41	1642.47
220.63	1802.21
220.85	1738.73
221.06	1677.29
221.28	1673.19
221.50	1681.38
221.72	1708.01
221.94	1681.38
222.16	1665.00
222.38	1771.49
222.60	1767.40
222.82	1708.01
223.03	1687.53
223.25	1638.38
223.47	1658.85
223.69	1765.35
223.91	1798.12
224.13	1619.94
224.35	1699.81
224.57	1765.35
224.78	1677.29
225.00	1632.23
225.22	1619.94
225.44	1652.71
225.66	1789.92
225.88	1603.56
226.10	1732.58
226.32	1796.07
226.53	1730.53
226.75	1665.00
226.97	1679.33
227.19	1677.29
227.41	1710.05
227.63	1665.00
227.85	1605.61
228.06	1736.68
228.28	1767.40
228.50	1718.25
228.72	1660.90
228.94	1744.87
229.16	1591.27
229.37	1621.99
229.59	1714.15
229.81	1677.29
230.03	1628.14
230.25	1658.85
230.47	1681.38
230.69	1646.57
230.90	1712.10
231.12	1601.51
231.34	1716.20
231.56	1730.53
231.78	1632.23
232.00	1736.68
232.21	1652.71
232.43	1697.77
232.65	1652.71
232.87	1685.48
233.09	1597.42
233.30	1742.82
233.52	1751.01
233.74	1652.71
233.96	1667.05
234.18	1773.54
234.40	1726.44
234.61	1837.03
234.83	1619.94
235.05	1609.70
235.27	1857.51
235.49	1683.43
235.70	1701.86
235.92	1810.40
236.14	1712.10
236.36	1904.61
236.58	1560.55
236.79	1757.16
237.01	1673.19
237.23	1662.95
237.45	1759.21
237.67	1624.04
237.88	1665.00
238.10	1841.12
238.32	1665.00
238.54	1722.34
238.76	1587.18
238.97	1697.77
239.19	1675.24
239.41	1724.39
239.63	1800.16
239.85	1681.38
240.06	1644.52
240.28	1642.47
240.50	1781.73
240.72	1699.81
240.93	1669.09
241.15	1720.29
241.37	1712.10
241.59	1728.49
241.81	1597.42
242.02	1693.67
242.24	1708.01
242.46	1714.15
242.68	1636.33
242.89	1671.14
243.11	1681.38
243.33	1699.81
243.55	1734.63
243.76	1716.20
243.98	1632.23
244.20	1607.66
244.42	1701.86
244.64	1662.95
244.85	1689.57
245.07	1599.46
245.29	1787.88
245.51	1634.28
245.72	1673.19
245.94	1746.92
246.16	1689.57
246.38	1812.45
246.59	1671.14
246.81	1640.42
247.03	1718.25
247.24	1535.98
247.46	1671.14
247.68	1665.00
247.90	1544.17
248.11	1665.00
248.33	1777.64
248.55	1587.18
248.77	1632.23
248.98	1763.30
249.20	1818.60
249.42	1730.53
249.64	1701.86
249.85	1697.77
250.07	1677.29
250.29	1732.58
250.50	1767.40
250.72	1611.75
250.94	1701.86
251.16	1802.21
251.37	1779.68
251.59	1673.19
251.81	1677.29
252.02	1800.16
252.24	1587.18
252.46	1755.11
252.68	1574.89
252.89	1652.71
253.11	1595.37
253.33	1738.73
253.54	1757.16
253.76	1552.36
253.98	1701.86
254.20	1744.87
254.41	1550.31
254.63	1658.85
254.85	1654.76
255.06	1656.81
255.28	1718.25
255.50	1730.53
255.71	1652.71
255.93	1611.75
256.15	1671.14
256.36	1658.85
256.58	1652.71
256.80	1724.39
257.02	1665.00
257.23	1646.57
257.45	1701.86
257.67	1789.92
257.88	1660.90
258.10	1665.00
258.32	1693.67
258.53	1724.39
258.75	1705.96
258.97	1615.85
259.18	1708.01
259.40	1712.10
259.62	1824.74
259.83	1714.15
260.05	1685.48
260.27	1984.48
260.48	1812.45
260.70	1617.90
260.92	1712.10
261.13	1705.96
261.35	1744.87
261.57	1687.53
261.78	1642.47
262.00	1685.48
262.22	1734.63
262.43	1685.48
262.65	1624.04
262.86	1775.59
263.08	1834.98
263.30	1665.00
263.51	1638.38
263.73	1665.00
263.95	1765.35
264.16	1642.47
264.38	1665.00
264.60	1769.44
264.81	1730.53
265.03	1785.83
265.25	1714.15
265.46	1722.34
265.68	1791.97
265.89	1687.53
266.11	1646.57
266.33	1677.29
266.54	1689.57
266.76	1669.09
266.98	1800.16
267.19	1742.82
267.41	1765.35
267.62	1705.96
267.84	1619.94
268.06	1689.57
268.27	1730.53
268.49	1824.74
268.70	1751.01
268.92	1691.62
269.14	1665.00
269.35	1609.70
269.57	1746.92
269.79	1716.20
270.00	1697.77
270.22	1816.55
270.43	1624.04
270.65	1603.56
270.87	1714.15
271.08	1740.77
271.30	1748.97
271.51	1658.85
271.73	1683.43
271.95	1767.40
272.16	1724.39
272.38	1724.39
272.59	1609.70
272.81	1746.92
273.02	1736.68
273.24	1701.86
273.46	1796.07
273.67	1660.90
273.89	1589.22
274.10	1658.85
274.32	1765.35
274.54	1689.57
274.75	1697.77
274.97	1679.33
275.18	1767.40
275.40	1705.96
275.61	1726.44
275.83	1746.92
276.05	1593.32
276.26	1671.14
276.48	1771.49
276.69	1736.68
276.91	1642.47
277.12	1730.53
277.34	1736.68
277.55	1712.10
277.77	1718.25
277.99	1722.34
278.20	1576.94
278.42	1650.66
278.63	1681.38
278.85	1646.57
279.06	1624.04
279.28	1765.35
279.49	1718.25
279.71	1689.57
279.93	1724.39
280.14	1730.53
280.36	1681.38
280.57	1722.34
280.79	1755.11
281.00	1710.05
281.22	1636.33
281.43	1730.53
281.65	1617.90
281.86	1671.14
282.08	1720.29
282.29	1763.30
282.51	1613.80
282.73	1665.00
282.94	1611.75
283.16	1779.68
283.37	1789.92
283.59	1683.43
283.80	1662.95
284.02	1683.43
284.23	1720.29
284.45	1720.29
284.66	1689.57
284.88	1708.01
285.09	1679.33
285.31	1658.85
285.52	1691.62
285.74	1574.89
285.95	1714.15
286.17	1753.06
286.38	1781.73
286.60	1697.77
286.81	1662.95
287.03	1656.81
287.24	1710.05
287.46	1787.88
287.67	1677.29
287.89	1828.84
288.10	1689.57
288.32	1669.09
288.53	1703.91
288.75	1712.10
288.96	1736.68
289.18	1578.98
289.39	1703.91
289.61	1701.86
289.82	1853.41
290.04	1763.30
290.25	1617.90
290.47	1630.18
290.68	1648.61
290.90	1740.77
291.11	1636.33
291.33	1763.30
291.54	1699.81
291.76	1615.85
291.97	1763.30
292.18	1734.63
292.40	1587.18
292.61	1650.66
292.83	1800.16
293.04	1787.88
293.26	1730.53
293.47	1662.95
293.69	1695.72
293.90	1683.43
294.12	1689.57
294.33	1689.57
294.55	1599.46
294.76	1730.53
294.97	1781.73
295.19	1832.93
295.40	1734.63
295.62	1779.68
295.83	1789.92
296.05	1583.08
296.26	1804.26
296.48	1560.55
296.69	1783.78
296.90	1699.81
297.12	1720.29
297.33	1771.49
297.55	1697.77
297.76	1724.39
297.98	1742.82
298.19	1746.92
298.41	1671.14
298.62	1644.52
298.83	1744.87
299.05	1656.81
299.26	1605.61
299.48	1703.91
299.69	1740.77
299.90	1708.01
300.12	1714.15
300.33	1660.90
300.55	1687.53
300.76	1660.90
300.98	1615.85
301.19	1773.54
301.40	1724.39
301.62	1665.00
301.83	1669.09
302.05	1710.05
302.26	1634.28
302.47	1722.34
302.69	1695.72
302.90	1708.01
303.12	1578.98
303.33	1710.05
303.54	1779.68
303.76	1720.29
303.97	1705.96
304.19	1789.92
304.40	1681.38
304.61	1681.38
304.83	1783.78
305.04	1738.73
305.26	1734.63
305.47	1683.43
305.68	1665.00
305.90	1630.18
306.11	1652.71
306.33	1695.72
306.54	1771.49
306.75	1619.94
306.97	1644.52
307.18	1601.51
307.39	1624.04
307.61	1705.96
307.82	1693.67
308.04	1693.67
308.25	1613.80
308.46	1751.01
308.68	1685.48
308.89	1714.15
309.10	1787.88
309.32	1724.39
309.53	1734.63
309.74	1689.57
309.96	1730.53
310.17	1802.21
310.39	1652.71
310.60	1675.24
310.81	1732.58
311.03	1642.47
311.24	1710.05
311.45	1669.09
311.67	1818.60
311.88	1697.77
312.09	1615.85
312.31	1660.90
312.52	1681.38
312.73	1689.57
312.95	1642.47
313.16	1636.33
313.37	1769.44
313.59	1685.48
313.80	1744.87
314.01	1789.92
314.23	1699.81
314.44	1648.61
314.65	1595.37
314.87	1624.04
315.08	1736.68
315.29	1726.44
315.51	1603.56
315.72	1724.39
315.93	1724.39
316.15	1763.30
316.36	1642.47
316.57	1689.57
316.79	1724.39
317.00	1652.71
317.21	1738.73
317.43	1634.28
317.64	1714.15
317.85	1656.81
318.07	1669.09
318.28	1656.81
318.49	1830.88
318.70	1853.41
318.92	1808.36
319.13	1822.69
319.34	1937.38
319.56	1763.30
319.77	1845.22
319.98	1763.30
320.20	1767.40
320.41	1685.48
320.62	1687.53
320.83	1617.90
321.05	1808.36
321.26	1796.07
321.47	1665.00
321.69	1720.29
321.90	1652.71
322.11	1687.53
322.32	1738.73
322.54	1806.31
322.75	1685.48
322.96	1794.02
323.18	1681.38
323.39	1626.09
323.60	1634.28
323.81	1695.72
324.03	1751.01
324.24	1652.71
324.45	1773.54
324.66	1679.33
324.88	1767.40
325.09	1824.74
325.30	1640.42
325.52	1714.15
325.73	1744.87
325.94	1615.85
326.15	1533.93
326.37	1615.85
326.58	1693.67
326.79	1824.74
327.00	1718.25
327.22	1718.25
327.43	1669.09
327.64	1636.33
327.85	1781.73
328.07	1671.14
328.28	1832.93
328.49	1615.85
328.70	1665.00
328.92	1744.87
329.13	1667.05
329.34	1726.44
329.55	1755.11
329.76	1806.31
329.98	1693.67
330.19	1820.64
330.40	1757.16
330.61	1669.09
330.83	1748.97
331.04	1683.43
331.25	1675.24
331.46	1673.19
331.68	1599.46
331.89	1814.50
332.10	1642.47
332.31	1628.14
332.52	1726.44
332.74	1853.41
332.95	1546.22
333.16	1646.57
333.37	1673.19
333.58	1714.15
333.80	1716.20
334.01	1624.04
334.22	1681.38
334.43	1656.81
334.64	1636.33
334.86	1591.27
335.07	1693.67
335.28	1814.50
335.49	1679.33
335.70	1714.15
335.92	1753.06
336.13	1755.11
336.34	1730.53
336.55	1695.72
336.76	1703.91
336.98	1636.33
337.19	1662.95
337.40	1812.45
337.61	1773.54
337.82	1632.23
338.04	1808.36
338.25	1632.23
338.46	1669.09
338.67	1648.61
338.88	1564.65
339.09	1662.95
339.31	1673.19
339.52	1693.67
339.73	1662.95
339.94	1685.48
340.15	1677.29
340.36	1697.77
340.58	1716.20
340.79	1650.66
341.00	1708.01
341.21	1628.14
341.42	1849.32
341.63	1730.53
341.85	1722.34
342.06	1675.24
342.27	1634.28
342.48	1642.47
342.69	1621.99
342.90	1732.58
343.12	1693.67
343.33	1658.85
343.54	1681.38
343.75	1775.59
343.96	1662.95
344.17	1652.71
344.38	1626.09
344.60	1693.67
344.81	1626.09
345.02	1726.44
345.23	1787.88
345.44	1798.12
345.65	1724.39
345.86	1695.72
346.07	1644.52
346.29	1642.47
346.50	1681.38
346.71	1685.48
346.92	1748.97
347.13	1867.75
347.34	1658.85
347.55	1767.40
347.76	1748.97
347.98	1533.93
348.19	1675.24
348.40	1748.97
348.61	1624.04
348.82	1824.74
349.03	1789.92
349.24	1634.28
349.45	1763.30
349.66	1705.96
349.88	1697.77
350.09	1640.42
350.30	1791.97
350.51	1761.25
350.72	1728.49
350.93	1724.39
351.14	1716.20
351.35	1654.76
351.56	1712.10
351.77	1767.40
351.99	1722.34
352.20	1748.97
352.41	1730.53
352.62	1615.85
352.83	1685.48
353.04	1650.66
353.25	1736.68
353.46	1716.20
353.67	1734.63
353.88	1552.36
354.09	1667.05
354.30	1640.42
354.52	1767.40
354.73	1638.38
354.94	1681.38
355.15	1732.58
355.36	1837.03
355.57	1636.33
355.78	1689.57
355.99	1607.66
356.20	1628.14
356.41	1814.50
356.62	1703.91
356.83	1730.53
357.04	1832.93
357.25	1535.98
357.46	1621.99
357.68	1558.50
357.89	1673.19
358.10	1740.77
358.31	1656.81
358.52	1744.87
358.73	1689.57
358.94	1652.71
359.15	1654.76
359.36	1683.43
359.57	1656.81
359.78	1617.90
359.99	1689.57
360.20	1611.75
360.41	1650.66
360.62	1746.92
360.83	1755.11
361.04	1763.30
361.25	1671.14
361.46	1740.77
361.67	1728.49
361.88	1662.95
362.09	1812.45
362.30	1734.63
362.51	1656.81
362.72	1716.20
362.93	1804.26
363.14	1703.91
363.35	1708.01
363.56	1642.47
363.78	1726.44
363.99	1767.40
364.20	1662.95
364.41	1675.24
364.62	1779.68
364.83	1665.00
365.04	1703.91
365.25	1675.24
365.46	1826.79
365.67	1626.09
365.88	1624.04
366.09	1634.28
366.30	1712.10
366.51	1609.70
366.72	1624.04
366.93	1665.00
367.14	1677.29
367.35	1736.68
367.56	1724.39
367.77	1744.87
367.98	1695.72
368.18	1710.05
368.39	1738.73
368.60	1685.48
368.81	1734.63
369.02	1740.77
369.23	1751.01
369.44	1662.95
369.65	1656.81
369.86	1722.34
370.07	1689.57
370.28	1648.61
370.49	1771.49
370.70	1703.91
370.91	1615.85
371.12	1615.85
371.33	1779.68
371.54	1648.61
371.75	1853.41
371.96	1585.13
372.17	1599.46
372.38	1671.14
372.59	1703.91
372.80	1791.97
373.01	1681.38
373.22	1722.34
373.43	1708.01
373.64	1607.66
373.85	1740.77
374.06	1761.25
374.26	1722.34
374.47	1746.92
374.68	1658.85
374.89	1730.53
375.10	1597.42
375.31	1660.90
375.52	1718.25
375.73	1654.76
375.94	1683.43
376.15	1773.54
376.36	1730.53
376.57	1646.57
376.78	1681.38
376.99	1687.53
377.20	1744.87
377.40	1705.96
377.61	1812.45
377.82	1689.57
378.03	1748.97
378.24	1714.15
378.45	1759.21
378.66	1683.43
378.87	1701.86
379.08	1576.94
379.29	1681.38
379.50	1814.50
379.71	1714.15
379.91	1785.83
380.12	1671.14
380.33	1759.21
380.54	1695.72
380.75	1771.49
380.96	1677.29
381.17	1662.95
381.38	1703.91
381.59	1777.64
381.80	1705.96
382.00	1818.60
382.21	1771.49
382.42	1812.45
382.63	1888.23
382.84	1751.01
383.05	1771.49
383.26	1722.34
383.47	1650.66
383.68	1726.44
383.88	1705.96
384.09	1701.86
384.30	1785.83
384.51	1701.86
384.72	1751.01
384.93	1638.38
385.14	1693.67
385.35	1714.15
385.55	1630.18
385.76	1808.36
385.97	1732.58
386.18	1685.48
386.39	1652.71
386.60	1691.62
386.81	1644.52
387.02	1640.42
387.22	1679.33
387.43	1720.29
387.64	1699.81
387.85	1824.74
388.06	2207.71
388.27	4286.40
388.48	6854.55
388.68	8150.92
388.89	9752.43
389.10	9828.20
389.31	8642.43
389.52	7554.96
389.73	6795.16
389.93	6289.31
390.14	5867.43
390.35	5242.80
390.56	4626.36
390.77	3768.26
390.98	2959.31
391.18	2508.76
391.39	2039.78
391.60	1839.08
391.81	1861.60
392.02	1673.19
392.23	1892.32
392.43	1687.53
392.64	1845.22
392.85	1759.21
393.06	1736.68
393.27	1675.24
393.47	1695.72
393.68	1701.86
393.89	1691.62
394.10	1744.87
394.31	1689.57
394.52	1751.01
394.72	1724.39
394.93	1818.60
395.14	1734.63
395.35	1732.58
395.56	1712.10
395.76	1740.77
395.97	1701.86
396.18	1925.09
396.39	1796.07
396.60	1961.95
396.80	1847.27
397.01	1853.41
397.22	1820.64
397.43	1826.79
397.64	1726.44
397.84	1808.36
398.05	1869.80
398.26	1728.49
398.47	1779.68
398.67	1722.34
398.88	1744.87
399.09	1716.20
399.30	1636.33
399.51	1757.16
399.71	1634.28
399.92	1718.25
400.13	1685.48
400.34	1701.86
400.54	1757.16
400.75	1765.35
400.96	1751.01
401.17	1863.65
401.37	1710.05
401.58	1714.15
401.79	1703.91
402.00	1834.98
402.21	2013.15
402.41	1918.95
402.62	2002.91
402.83	2029.54
403.04	2037.73
403.24	2033.63
403.45	1902.56
403.66	1839.08
403.87	1824.74
404.07	1824.74
404.28	1968.10
404.49	1933.28
404.70	1791.97
404.90	1773.54
405.11	1720.29
405.32	1775.59
405.52	1648.61
405.73	1654.76
405.94	1685.48
406.15	1722.34
406.35	1753.06
406.56	1763.30
406.77	1765.35
406.98	1703.91
407.18	1632.23
407.39	1816.55
407.60	1695.72
407.80	1791.97
408.01	1681.38
408.22	1705.96
408.43	1669.09
408.63	1804.26
408.84	1753.06
409.05	1771.49
409.25	1662.95
409.46	1652.71
409.67	1683.43
409.88	1673.19
410.08	1744.87
410.29	1650.66
410.50	1724.39
410.70	1691.62
410.91	1636.33
411.12	1703.91
411.32	1794.02
411.53	1673.19
411.74	1800.16
411.95	1791.97
412.15	1722.34
412.36	1744.87
412.57	1769.44
412.77	1851.36
412.98	1665.00
413.19	1697.77
413.39	1734.63
413.60	1755.11
413.81	1708.01
414.01	1607.66
414.22	1785.83
414.43	1779.68
414.63	1621.99
414.84	1806.31
415.05	1724.39
415.25	1613.80
415.46	1681.38
415.67	1626.09
415.87	1771.49
416.08	1748.97
416.29	1644.52
416.49	1775.59
416.70	1638.38
416.91	1720.29
417.11	1662.95
417.32	1708.01
417.53	1689.57
417.73	1669.09
417.94	1689.57
418.15	1697.77
418.35	1671.14
418.56	1710.05
418.77	1814.50
418.97	1669.09
419.18	1738.73
419.38	1560.55
419.59	1689.57
419.80	1718.25
420.00	1689.57
420.21	1751.01
420.42	1787.88
420.62	1718.25
420.83	1736.68
421.04	1716.20
421.24	1679.33
421.45	1681.38
421.65	1802.21
421.86	1648.61
422.07	1841.12
422.27	1652.71
422.48	1800.16
422.69	1679.33
422.89	1644.52
423.10	1710.05
423.30	1693.67
423.51	1687.53
423.72	1740.77
423.92	1767.40
424.13	1632.23
424.33	1679.33
424.54	1798.12
424.75	1652.71
424.95	1798.12
425.16	1667.05
425.36	1716.20
425.57	1742.82
425.78	1744.87
425.98	1714.15
426.19	1677.29
426.39	1615.85
426.60	1757.16
426.81	1777.64
427.01	1714.15
427.22	1703.91
427.42	1634.28
427.63	1648.61
427.83	1751.01
428.04	1869.80
428.25	1722.34
428.45	1726.44
428.66	1703.91
428.86	1748.97
429.07	1662.95
429.28	1677.29
429.48	1638.38
429.69	1660.90
429.89	1689.57
430.10	1679.33
430.30	1771.49
430.51	1802.21
430.71	1615.85
430.92	1724.39
431.13	1675.24
431.33	1738.73
431.54	1689.57
431.74	1765.35
431.95	1771.49
432.15	1669.09
432.36	1656.81
432.56	1769.44
432.77	1742.82
432.98	1855.46
433.18	1701.86
433.39	1701.86
433.59	1673.19
433.80	1828.84
434.00	1845.22
434.21	1701.86
434.41	1615.85
434.62	1863.65
434.82	1669.09
435.03	1658.85
435.23	1712.10
435.44	1611.75
435.64	1701.86
435.85	1701.86
436.06	1753.06
436.26	1689.57
436.47	1726.44
436.67	1677.29
436.88	1701.86
437.08	1703.91
437.29	1761.25
437.49	1718.25
437.70	1728.49
437.90	1652.71
438.11	1826.79
438.31	1814.50
438.52	1898.47
438.72	1851.36
438.93	1880.04
439.13	1751.01
439.34	1824.74
439.54	1714.15
439.75	1742.82
439.95	1843.17
440.16	1710.05
440.36	1800.16
440.57	1746.92
440.77	1746.92
440.98	1673.19
441.18	1734.63
441.39	1748.97
441.59	1605.61
441.80	1867.75
442.00	1695.72
442.21	1794.02
442.41	1697.77
442.62	1708.01
442.82	1693.67
443.02	1675.24
443.23	1755.11
443.43	1669.09
443.64	1837.03
443.84	1662.95
444.05	1824.74
444.25	1765.35
444.46	1699.81
444.66	1689.57
444.87	1814.50
445.07	1589.22
445.28	1683.43
445.48	1851.36
445.69	1824.74
445.89	1837.03
446.09	1716.20
446.30	2035.68
446.50	2701.27
446.71	3696.58
446.91	4278.21
447.12	4722.62
447.32	4790.20
447.53	4310.97
447.73	3923.91
447.93	3557.32
448.14	3385.29
448.34	3233.74
448.55	2869.20
448.75	2852.82
448.96	2633.69
449.16	2346.97
449.36	2250.72
449.57	2088.93
449.77	1937.38
449.98	1744.87
450.18	1802.21
450.39	1812.45
450.59	1714.15
450.79	1695.72
451.00	1687.53
451.20	1845.22
451.41	1716.20
451.61	1685.48
451.81	1734.63
452.02	1828.84
452.22	1683.43
452.43	1644.52
452.63	1740.77
452.84	1720.29
453.04	1730.53
453.24	1714.15
453.45	1654.76
453.65	1665.00
453.86	1742.82
454.06	1748.97
454.26	1751.01
454.47	1619.94
454.67	1746.92
454.87	1736.68
455.08	1681.38
455.28	1818.60
455.49	1759.21
455.69	1703.91
455.89	1841.12
456.10	1802.21
456.30	1687.53
456.51	1789.92
456.71	1748.97
456.91	1837.03
457.12	1802.21
457.32	1787.88
457.52	1738.73
457.73	1757.16
457.93	1798.12
458.14	1710.05
458.34	1693.67
458.54	1652.71
458.75	1746.92
458.95	1746.92
459.15	1783.78
459.36	1738.73
459.56	1777.64
459.76	1865.70
459.97	1685.48
460.17	1732.58
460.37	1779.68
460.58	1669.09
460.78	1771.49
460.99	1697.77
461.19	1687.53
461.39	1714.15
461.60	1740.77
461.80	1759.21
462.00	1689.57
462.21	1689.57
462.41	1716.20
462.61	1681.38
462.82	1636.33
463.02	1757.16
463.22	1738.73
463.43	1773.54
463.63	1718.25
463.83	1726.44
464.04	1722.34
464.24	1732.58
464.44	1716.20
464.64	1771.49
464.85	1730.53
465.05	1849.32
465.25	1744.87
465.46	1697.77
465.66	1781.73
465.86	1665.00
466.07	1695.72
466.27	1708.01
466.47	1656.81
466.68	1685.48
466.88	1789.92
467.08	1755.11
467.29	1794.02
467.49	1767.40
467.69	1693.67
467.89	1724.39
468.10	1738.73
468.30	1748.97
468.50	1841.12
468.71	1701.86
468.91	1617.90
469.11	1734.63
469.31	1714.15
469.52	1619.94
469.72	1851.36
469.92	1810.40
470.13	1644.52
470.33	1669.09
470.53	1834.98
470.73	2119.65
470.94	2279.39
471.14	2324.44
471.34	2502.62
471.54	2351.07
471.75	2170.85
471.95	2160.61
472.15	2058.21
472.36	2142.18
472.56	2025.44
472.76	1988.58
472.96	1980.39
473.17	2007.01
473.37	1939.43
473.57	1771.49
473.77	1837.03
473.98	1818.60
474.18	1697.77
474.38	1867.75
474.58	1697.77
474.79	1665.00
474.99	1761.25
475.19	1798.12
475.39	1628.14
475.60	1705.96
475.80	1705.96
476.00	1740.77
476.20	1693.67
476.41	1732.58
476.61	1746.92
476.81	1832.93
477.01	1675.24
477.21	1824.74
477.42	1771.49
477.62	1652.71
477.82	1812.45
478.02	1689.57
478.23	1732.58
478.43	1712.10
478.63	1767.40
478.83	1730.53
479.03	1732.58
479.24	1730.53
479.44	1798.12
479.64	1632.23
479.84	1642.47
480.04	1646.57
480.25	1728.49
480.45	1689.57
480.65	1638.38
480.85	1830.88
481.06	1695.72
481.26	1771.49
481.46	1767.40
481.66	1724.39
481.86	1669.09
482.06	1787.88
482.27	1724.39
482.47	1669.09
482.67	1736.68
482.87	1617.90
483.07	1804.26
483.28	1595.37
483.48	1593.32
483.68	1697.77
483.88	1665.00
484.08	1656.81
484.29	1677.29
484.49	1755.11
484.69	1665.00
484.89	1804.26
485.09	1773.54
485.29	1718.25
485.50	1693.67
485.70	1724.39
485.90	1734.63
486.10	1669.09
486.30	1703.91
486.50	1798.12
486.71	1763.30
486.91	1771.49
487.11	1847.27
487.31	1632.23
487.51	1693.67
487.71	1726.44
487.91	1599.46
488.12	1599.46
488.32	1609.70
488.52	1765.35
488.72	1613.80
488.92	1744.87
489.12	1689.57
489.32	1744.87
489.53	1738.73
489.73	1701.86
489.93	1746.92
490.13	1658.85
490.33	1611.75
490.53	1636.33
490.73	1812.45
490.94	1675.24
491.14	1841.12
491.34	1812.45
491.54	2148.32
491.74	2592.73
491.94	2858.96
492.14	3028.95
492.34	3028.95
492.54	2840.53
492.75	2437.08
492.95	2418.65
493.15	2373.60
493.35	2191.33
493.55	2240.48
493.75	2166.75
493.95	2146.27
494.15	1978.34
494.35	1900.52
494.56	1931.23
494.76	1691.62
494.96	1769.44
495.16	1705.96
495.36	1718.25
495.56	1761.25
495.76	1726.44
495.96	1746.92
496.16	1740.77
496.36	1796.07
496.56	1642.47
496.77	1687.53
496.97	1681.38
497.17	1781.73
497.37	1648.61
497.57	1828.84
497.77	1753.06
497.97	1615.85
498.17	1734.63
498.37	1728.49
498.57	1763.30
498.77	1644.52
498.97	1722.34
499.17	1791.97
499.38	1740.77
499.58	1798.12
499.78	1775.59
499.98	1773.54
500.18	1654.76
500.38	1734.63
500.58	1920.99
500.78	2580.44
500.98	4573.11
501.18	5732.26
501.38	6893.46
501.58	7157.65
501.78	6760.34
501.98	5539.76
502.18	4958.13
502.38	4351.93
502.58	4270.01
502.78	3819.46
502.98	3696.58
503.18	3526.60
503.38	3166.16
503.59	2861.01
503.79	2547.67
503.99	2426.84
504.19	2283.49
504.39	2156.51
504.59	2217.95
504.79	2140.13
504.99	2011.11
505.19	1937.38
505.39	1906.66
505.59	1966.05
505.79	1892.32
505.99	1896.42
506.19	1810.40
506.39	1818.60
506.59	1775.59
506.79	1810.40
506.99	1777.64
507.19	1748.97
507.39	1755.11
507.59	1703.91
507.79	1693.67
507.99	1687.53
508.19	1769.44
508.39	1718.25
508.59	1800.16
508.79	1794.02
508.99	1755.11
509.19	1677.29
509.39	1669.09
509.59	1701.86
509.79	1671.14
509.99	1798.12
510.19	1783.78
510.39	1748.97
510.59	1763.30
510.79	1630.18
510.99	1615.85
511.19	1675.24
511.39	1804.26
511.59	1730.53
511.79	1857.51
511.99	1693.67
512.19	1791.97
512.38	1683.43
512.58	1736.68
512.78	1716.20
512.98	1753.06
513.18	1873.89
513.38	1624.04
513.58	1834.98
513.78	1619.94
513.98	1697.77
514.18	1732.58
514.38	1605.61
514.58	1800.16
514.78	1740.77
514.98	1755.11
515.18	1744.87
515.38	1665.00
515.58	1787.88
515.78	1708.01
515.98	1642.47
516.18	1724.39
516.38	1742.82
516.57	1720.29
516.77	1654.76
516.97	1748.97
517.17	1705.96
517.37	1624.04
517.57	1726.44
517.77	1703.91
517.97	1730.53
518.17	1751.01
518.37	1593.32
518.57	1726.44
518.77	1761.25
518.97	1642.47
519.16	1767.40
519.36	1714.15
519.56	1722.34
519.76	1732.58
519.96	1759.21
520.16	1812.45
520.36	1619.94
520.56	1845.22
520.76	1667.05
520.96	1673.19
521.16	1804.26
521.35	1779.68
521.55	1837.03
521.75	1730.53
521.95	1685.48
522.15	1679.33
522.35	1677.29
522.55	1755.11
522.75	1761.25
522.95	1718.25
523.14	1798.12
523.34	1771.49
523.54	1714.15
523.74	1820.64
523.94	1808.36
524.14	1683.43
524.34	1849.32
524.54	1826.79
524.73	1708.01
524.93	1753.06
525.13	1759.21
525.33	1648.61
525.53	1796.07
525.73	1781.73
525.93	1763.30
526.13	1695.72
526.32	1697.77
526.52	1742.82
526.72	1783.78
526.92	1677.29
527.12	1699.81
527.32	1703.91
527.52	1718.25
527.71	1734.63
527.91	1714.15
528.11	1714.15
528.31	1730.53
528.51	1665.00
528.71	1730.53
528.90	1839.08
529.10	1814.50
529.30	1751.01
529.50	1607.66
529.70	1708.01
529.90	1671.14
530.09	1720.29
530.29	1597.42
530.49	1636.33
530.69	1791.97
530.89	1755.11
531.09	1767.40
531.28	1728.49
531.48	1841.12
531.68	1716.20
531.88	1738.73
532.08	1740.77
532.28	1748.97
532.47	1832.93
532.67	1808.36
532.87	1765.35
533.07	1654.76
533.27	1773.54
533.46	1787.88
533.66	1703.91
533.86	1722.34
534.06	1712.10
534.26	1763.30
534.45	1681.38
534.65	1765.35
534.85	1718.25
535.05	1705.96
535.25	1853.41
535.44	1712.10
535.64	1726.44
535.84	1693.67
536.04	1679.33
536.24	1683.43
536.43	1677.29
536.63	1712.10
536.83	1722.34
537.03	1714.15
537.22	1701.86
537.42	1640.42
537.62	1708.01
537.82	1681.38
538.02	1779.68
538.21	1789.92
538.41	1910.75
538.61	1740.77
538.81	1714.15
539.00	1765.35
539.20	1648.61
539.40	1767.40
539.60	1781.73
539.79	1742.82
539.99	1695.72
540.19	1601.51
540.39	1779.68
540.58	1759.21
540.78	1720.29
540.98	1783.78
541.18	1740.77
541.37	1716.20
541.57	1703.91
541.77	1765.35
541.97	1685.48
542.16	1697.77
542.36	1708.01
542.56	1697.77
542.76	1789.92
542.95	1751.01
543.15	1779.68
543.35	1675.24
543.54	1681.38
543.74	1662.95
543.94	1718.25
544.14	1693.67
544.33	1781.73
544.53	1701.86
544.73	1755.11
544.93	1689.57
545.12	1669.09
545.32	1798.12
545.52	1703.91
545.71	1568.74
545.91	1667.05
546.11	1708.01
546.30	1619.94
546.50	1669.09
546.70	1775.59
546.90	1769.44
547.09	1716.20
547.29	1787.88
547.49	1742.82
547.68	1718.25
547.88	1722.34
548.08	1757.16
548.27	2131.94
548.47	1726.44
548.67	1681.38
548.87	1789.92
549.06	1722.34
549.26	1724.39
549.46	1775.59
549.65	1722.34
549.85	1687.53
550.05	1757.16
550.24	1605.61
550.44	1720.29
550.64	1767.40
550.83	1736.68
551.03	1763.30
551.23	1734.63
551.42	1724.39
551.62	1697.77
551.82	1728.49
552.01	1738.73
552.21	1779.68
552.41	1765.35
552.60	1832.93
552.80	1730.53
553.00	1722.34
553.19	1699.81
553.39	1816.55
553.59	1662.95
553.78	1828.84
553.98	1730.53
554.17	1691.62
554.37	1765.35
554.57	1781.73
554.76	1605.61
554.96	1656.81
555.16	1751.01
555.35	1683.43
555.55	1789.92
555.75	1808.36
555.94	1771.49
556.14	1648.61
556.33	1746.92
556.53	1693.67
556.73	1679.33
556.92	1751.01
557.12	1812.45
557.32	1796.07
557.51	1781.73
557.71	1785.83
557.90	1847.27
558.10	1724.39
558.30	1708.01
558.49	1734.63
558.69	1740.77
558.88	1748.97
559.08	1701.86
559.28	1740.77
559.47	1724.39
559.67	1726.44
559.86	1814.50
560.06	1734.63
560.26	1740.77
560.45	1673.19
560.65	1722.34
560.84	1857.51
561.04	1699.81
561.24	1771.49
561.43	1652.71
561.63	1882.08
561.82	1763.30
562.02	1781.73
562.22	1687.53
562.41	1771.49
562.61	1746.92
562.80	1662.95
563.00	1894.37
563.19	1779.68
563.39	1734.63
563.59	1759.21
563.78	1683.43
563.98	1556.46
564.17	1658.85
564.37	1574.89
564.56	1767.40
564.76	1648.61
564.96	1845.22
565.15	1744.87
565.35	1800.16
565.54	1726.44
565.74	1767.40
565.93	1736.68
566.13	1701.86
566.32	1765.35
566.52	1708.01
566.71	1728.49
566.91	1810.40
567.11	1812.45
567.30	1697.77
567.50	1773.54
567.69	1720.29
567.89	1710.05
568.08	1683.43
568.28	1763.30
568.47	1693.67
568.67	1742.82
568.86	1726.44
569.06	1783.78
569.25	1767.40
569.45	1562.60
569.64	1703.91
569.84	1734.63
570.04	1697.77
570.23	1761.25
570.43	1701.86
570.62	1783.78
570.82	1830.88
571.01	1742.82
571.21	1624.04
571.40	1634.28
571.60	1808.36
571.79	1742.82
571.99	1710.05
572.18	1685.48
572.38	1771.49
572.57	1699.81
572.77	1724.39
572.96	1884.13
573.16	1783.78
573.35	1679.33
573.55	1759.21
573.74	1697.77
573.94	1710.05
574.13	1724.39
574.33	1775.59
574.52	1851.36
574.71	1679.33
574.91	1824.74
575.10	1564.65
575.30	1689.57
575.49	1718.25
575.69	1652.71
575.88	1671.14
576.08	1714.15
576.27	1785.83
576.47	1724.39
576.66	1806.31
576.86	1830.88
577.05	1726.44
577.25	1834.98
577.44	1794.02
577.64	1642.47
577.83	1804.26
578.02	1740.77
578.22	1804.26
578.41	1828.84
578.61	1730.53
578.80	1654.76
579.00	1718.25
579.19	1726.44
579.39	1849.32
579.58	1869.80
579.77	1718.25
579.97	1812.45
580.16	1787.88
580.36	1839.08
580.55	1804.26
580.75	1755.11
580.94	1714.15
581.13	1804.26
581.33	1839.08
581.52	1734.63
581.72	1837.03
581.91	1834.98
582.11	1804.26
582.30	1824.74
582.49	1738.73
582.69	1851.36
582.88	1755.11
583.08	1703.91
583.27	1712.10
583.47	1820.64
583.66	1705.96
583.85	1693.67
584.05	1726.44
584.24	1800.16
584.44	1816.55
584.63	1740.77
584.82	1904.61
585.02	1843.17
585.21	1736.68
585.41	1775.59
585.60	1810.40
585.79	1910.75
585.99	1824.74
586.18	1902.56
586.37	2195.42
586.57	3348.43
586.76	9996.14
586.96	24632.97
587.15	34807.28
587.34	40865.17
587.54	42589.56
587.73	37045.71
587.93	26642.03
588.12	21665.46
588.31	18188.01
588.51	16666.37
588.70	15138.58
588.89	14173.99
589.09	12795.71
589.28	11249.49
589.47	9428.85
589.67	7929.74
589.86	6549.40
590.06	4935.60
590.25	3991.49
590.44	3114.96
590.64	2549.72
590.83	2240.48
591.02	2007.01
591.22	1947.62
591.41	1882.08
591.60	1818.60
591.80	2017.25
591.99	1757.16
592.18	1748.97
592.38	1824.74
592.57	1746.92
592.76	1779.68
592.96	1746.92
593.15	1714.15
593.34	1800.16
593.54	1718.25
593.73	1730.53
593.92	1757.16
594.12	1769.44
594.31	1763.30
594.50	1755.11
594.70	1746.92
594.89	1857.51
595.08	1656.81
595.28	1800.16
595.47	1976.29
595.66	1816.55
595.86	1656.81
596.05	1714.15
596.24	1720.29
596.43	1837.03
596.63	1845.22
596.82	1728.49
597.01	1732.58
597.21	1855.46
597.40	1734.63
597.59	1734.63
597.79	1742.82
597.98	1787.88
598.17	1722.34
598.36	1751.01
598.56	1744.87
598.75	1699.81
598.94	1740.77
599.14	1767.40
599.33	1693.67
599.52	1734.63
599.71	1755.11
599.91	1787.88
600.10	1687.53
600.29	1732.58
600.48	1761.25
600.68	1732.58
600.87	1757.16
601.06	1699.81
601.26	1701.86
601.45	1671.14
601.64	1767.40
601.83	1787.88
602.03	1779.68
602.22	1681.38
602.41	1769.44
602.60	1816.55
602.80	1763.30
602.99	1736.68
603.18	1689.57
603.37	1767.40
603.57	1718.25
603.76	1812.45
603.95	1853.41
604.14	1689.57
604.34	1671.14
604.53	1812.45
604.72	1767.40
604.91	1787.88
605.10	1751.01
605.30	1662.95
605.49	1814.50
605.68	1781.73
605.87	1734.63
606.07	1701.86
606.26	1744.87
606.45	1834.98
606.64	1701.86
606.84	1744.87
607.03	1640.42
607.22	1708.01
607.41	1667.05
607.60	1753.06
607.80	1771.49
607.99	1677.29
608.18	1705.96
608.37	1714.15
608.56	1712.10
608.76	1726.44
608.95	1753.06
609.14	1718.25
609.33	1800.16
609.52	1787.88
609.72	1708.01
609.91	1769.44
610.10	1779.68
610.29	1773.54
610.48	1798.12
610.68	1732.58
610.87	1697.77
611.06	1800.16
611.25	1705.96
611.44	1779.68
611.63	1671.14
611.83	1761.25
612.02	1644.52
612.21	1822.69
612.40	1673.19
612.59	1697.77
612.79	1724.39
612.98	1736.68
613.17	1787.88
613.36	1748.97
613.55	1832.93
613.74	1656.81
613.93	1687.53
614.13	1658.85
614.32	1740.77
614.51	1722.34
614.70	1675.24
614.89	1558.50
615.08	1832.93
615.28	1976.29
615.47	1681.38
615.66	1763.30
615.85	1744.87
616.04	1908.71
616.23	1777.64
616.42	1779.68
616.62	1658.85
616.81	1787.88
617.00	1712.10
617.19	1744.87
617.38	1599.46
617.57	1720.29
617.76	1753.06
617.95	1757.16
618.15	1757.16
618.34	1742.82
618.53	1667.05
618.72	1794.02
618.91	1736.68
619.10	1759.21
619.29	1724.39
619.48	1648.61
619.68	1642.47
619.87	1687.53
620.06	1677.29
620.25	1730.53
620.44	1699.81
620.63	1683.43
620.82	1673.19
621.01	1730.53
621.20	1611.75
621.39	1771.49
621.59	1761.25
621.78	1771.49
621.97	1716.20
622.16	1779.68
622.35	1769.44
622.54	1877.99
622.73	1734.63
622.92	1576.94
623.11	1767.40
623.30	1730.53
623.49	1796.07
623.68	1701.86
623.88	1738.73
624.07	1632.23
624.26	1722.34
624.45	1740.77
624.64	1695.72
624.83	1705.96
625.02	1679.33
625.21	1734.63
625.40	1656.81
625.59	1740.77
625.78	1646.57
625.97	1775.59
626.16	1734.63
626.35	1808.36
626.54	1679.33
626.74	1814.50
626.93	1699.81
627.12	1703.91
627.31	1742.82
627.50	1734.63
627.69	1757.16
627.88	1718.25
628.07	1689.57
628.26	1656.81
628.45	1693.67
628.64	1669.09
628.83	1802.21
629.02	1585.13
629.21	1691.62
629.40	1746.92
629.59	1665.00
629.78	1626.09
629.97	1744.87
630.16	1732.58
630.35	1728.49
630.54	1763.30
630.73	1767.40
630.92	1697.77
631.11	1656.81
631.30	1720.29
631.49	1742.82
631.68	1808.36
631.87	1767.40
632.06	1640.42
632.25	1861.60
632.44	1736.68
632.63	1730.53
632.82	1712.10
633.01	1699.81
633.20	1716.20
633.39	1693.67
633.58	1603.56
633.77	1732.58
633.96	1777.64
634.15	1761.25
634.34	1738.73
634.53	1689.57
634.72	1708.01
634.91	1665.00
635.10	1730.53
635.29	1787.88
635.48	1681.38
635.67	1757.16
635.86	1679.33
636.05	1736.68
636.24	1615.85
636.43	1716.20
636.62	1742.82
636.81	1566.70
637.00	1759.21
637.19	1746.92
637.38	1705.96
637.57	1701.86
637.76	1671.14
637.95	1675.24
638.14	1767.40
638.33	1642.47
638.52	1658.85
638.71	1605.61
638.89	1679.33
639.08	1837.03
639.27	1714.15
639.46	1648.61
639.65	1777.64
639.84	1722.34
640.03	1810.40
640.22	1738.73
640.41	1796.07
640.60	1691.62
640.79	1705.96
640.98	1642.47
641.17	1742.82
641.36	1712.10
641.55	1757.16
641.74	1650.66
641.92	1640.42
642.11	1621.99
642.30	1652.71
642.49	1685.48
642.68	1689.57
642.87	1714.15
643.06	1701.86
643.25	1650.66
643.44	1630.18
643.63	1705.96
643.82	1740.77
644.00	1632.23
644.19	1738.73
644.38	1640.42
644.57	1726.44
644.76	1648.61
644.95	1751.01
645.14	1687.53
645.33	1689.57
645.52	1753.06
645.71	1630.18
645.89	1636.33
646.08	1685.48
646.27	1669.09
646.46	1826.79
646.65	1652.71
646.84	1751.01
647.03	1722.34
647.22	1720.29
647.40	1718.25
647.59	1675.24
647.78	1636.33
647.97	1634.28
648.16	1683.43
648.35	1796.07
648.54	1761.25
648.73	1722.34
648.91	1769.44
649.10	1646.57
649.29	1650.66
649.48	1687.53
649.67	1705.96
649.86	1644.52
650.05	1669.09
650.23	1697.77
650.42	1701.86
650.61	1746.92
650.80	1744.87
650.99	1796.07
651.18	1734.63
651.36	1734.63
651.55	1660.90
651.74	1699.81
651.93	1644.52
652.12	1675.24
652.31	1650.66
652.49	1685.48
652.68	1667.05
652.87	1769.44
653.06	1693.67
653.25	1720.29
653.44	1677.29
653.62	1822.69
653.81	1732.58
654.00	1783.78
654.19	1753.06
654.38	1738.73
654.56	1681.38
654.75	1703.91
654.94	1736.68
655.13	1718.25
655.32	1779.68
655.51	1689.57
655.69	1728.49
655.88	1724.39
656.07	1669.09
656.26	1748.97
656.45	1636.33
656.63	1665.00
656.82	1742.82
657.01	1759.21
657.20	1724.39
657.38	1785.83
657.57	1708.01
657.76	1607.66
657.95	1748.97
658.14	1656.81
658.32	1718.25
658.51	1689.57
658.70	1662.95
658.89	1779.68
659.08	1583.08
659.26	1779.68
659.45	1599.46
659.64	1794.02
659.83	1550.31
660.01	1904.61
660.20	1638.38
660.39	1779.68
660.58	1636.33
660.76	1716.20
660.95	1675.24
661.14	1691.62
661.33	1638.38
661.51	1687.53
661.70	1761.25
661.89	1695.72
662.08	1689.57
662.26	1646.57
662.45	1720.29
662.64	1849.32
662.83	1761.25
663.01	1599.46
663.20	1697.77
663.39	1736.68
663.58	1681.38
663.76	1800.16
663.95	1738.73
664.14	1701.86
664.32	1701.86
664.51	1673.19
664.70	1671.14
664.89	1695.72
665.07	1730.53
665.26	1748.97
665.45	1609.70
665.64	1755.11
665.82	1654.76
666.01	1779.68
666.20	1628.14
666.38	1767.40
666.57	1748.97
666.76	2133.98
666.95	4599.74
667.13	10635.10
667.32	15443.73
667.51	18061.04
667.69	19195.61
667.88	17860.34
668.07	12478.27
668.25	9535.34
668.44	8073.09
668.63	7262.10
668.81	6952.85
669.00	6404.00
669.19	5740.46
669.38	5179.31
669.56	4640.70
669.75	4003.78
669.94	3362.76
670.12	2938.84
670.31	2641.88
670.50	2279.39
670.68	2131.94
670.87	1912.80
671.06	1806.31
671.24	1769.44
671.43	1742.82
671.62	1683.43
671.80	1746.92
671.99	1722.34
672.18	1697.77
672.36	1740.77
672.55	1662.95
672.74	1658.85
672.92	1621.99
673.11	1724.39
673.29	1681.38
673.48	1759.21
673.67	1789.92
673.85	1755.11
674.04	1673.19
674.23	1652.71
674.41	1779.68
674.60	1736.68
674.79	1611.75
674.97	1683.43
675.16	1712.10
675.34	1763.30
675.53	1687.53
675.72	1759.21
675.90	1796.07
676.09	1640.42
676.28	1679.33
676.46	1613.80
676.65	1761.25
676.83	1609.70
677.02	1695.72
677.21	1734.63
677.39	1751.01
677.58	1665.00
677.77	1667.05
677.95	1656.81
678.14	1697.77
678.32	1650.66
678.51	1626.09
678.70	1828.84
678.88	1658.85
679.07	1728.49
679.25	1691.62
679.44	1718.25
679.63	1648.61
679.81	1697.77
680.00	1722.34
680.18	1775.59
680.37	1722.34
680.55	1693.67
680.74	1593.32
680.93	1693.67
681.11	1683.43
681.30	1779.68
681.48	1722.34
681.67	1683.43
681.85	1724.39
682.04	1740.77
682.23	1720.29
682.41	1701.86
682.60	1619.94
682.78	1570.79
682.97	1677.29
683.15	1753.06
683.34	1599.46
683.53	1691.62
683.71	1677.29
683.90	1869.80
684.08	1806.31
684.27	1665.00
684.45	1685.48
684.64	1763.30
684.82	1746.92
685.01	1820.64
685.19	1687.53
685.38	1746.92
685.57	1710.05
685.75	1646.57
685.94	1632.23
686.12	1634.28
686.31	1669.09
686.49	1779.68
686.68	1634.28
686.86	1742.82
687.05	1677.29
687.23	1718.25
687.42	1691.62
687.60	1681.38
687.79	1740.77
687.97	1849.32
688.16	1730.53
688.34	1765.35
688.53	1556.46
688.71	1714.15
688.90	1722.34
689.08	1603.56
689.27	1601.51
689.45	1789.92
689.64	1673.19
689.82	1751.01
690.01	1765.35
690.19	1691.62
690.38	1738.73
690.56	1718.25
690.75	1619.94
690.93	1660.90
691.12	1662.95
691.30	1714.15
691.49	1613.80
691.67	1658.85
691.86	1843.17
692.04	1621.99
692.23	1636.33
692.41	1751.01
692.60	1824.74
692.78	1740.77
692.97	1720.29
693.15	1724.39
693.34	1855.46
693.52	1757.16
693.71	1708.01
693.89	1726.44
694.08	1617.90
694.26	1738.73
694.44	1736.68
694.63	1695.72
694.81	1646.57
695.00	1656.81
695.18	1769.44
695.37	1830.88
695.55	1783.78
695.74	1714.15
695.92	1718.25
696.10	1712.10
696.29	1652.71
696.47	1671.14
696.66	1669.09
696.84	1652.71
697.03	1695.72
697.21	1800.16
697.40	2402.27
697.58	1683.43
697.76	1652.71
697.95	1619.94
698.13	1660.90
698.32	1742.82
698.50	1648.61
698.68	1691.62
698.87	1720.29
699.05	1751.01
699.24	1734.63
699.42	1699.81
699.61	1699.81
699.79	1804.26
699.97	1714.15
700.16	1705.96
700.34	1626.09
700.53	1740.77
700.71	1751.01
700.89	1757.16
701.08	1683.43
701.26	1734.63
701.45	2129.89
701.63	1652.71
701.81	1748.97
702.00	1699.81
702.18	1738.73
702.37	1589.22
702.55	1744.87
702.73	1697.77
702.92	1679.33
703.10	1695.72
703.28	1628.14
703.47	1626.09
703.65	1789.92
703.84	1804.26
704.02	1701.86
704.20	1796.07
704.39	1617.90
704.57	1667.05
704.75	1718.25
704.94	1716.20
705.12	1693.67
705.30	1763.30
705.49	2260.96
705.67	4366.27
705.86	9570.16
706.04	12703.55
706.22	14556.96
706.41	15511.32
706.59	13961.00
706.77	9840.49
706.96	7528.33
707.14	6723.48
707.32	5955.49
707.51	5480.36
707.69	4831.16
707.87	4208.58
708.06	3528.65
708.24	2967.51
708.42	2398.17
708.61	2209.76
708.79	1943.52
708.97	1888.23
709.16	1916.90
709.34	1808.36
709.52	1665.00
709.71	1736.68
709.89	1763.30
710.07	1748.97
710.26	1673.19
710.44	1740.77
710.62	1767.40
710.80	1728.49
710.99	1777.64
711.17	1699.81
711.35	1685.48
711.54	1675.24
711.72	1830.88
711.90	1804.26
712.09	1775.59
712.27	1705.96
712.45	1640.42
712.63	1675.24
712.82	1740.77
713.00	1708.01
713.18	1726.44
713.37	1761.25
713.55	1740.77
713.73	1769.44
713.91	1730.53
714.10	1746.92
714.28	1699.81
714.46	1705.96
714.65	1718.25
714.83	1701.86
715.01	1701.86
715.19	1615.85
715.38	1671.14
715.56	1683.43
715.74	1642.47
715.92	1681.38
716.11	1832.93
716.29	1628.14
716.47	1734.63
716.65	1714.15
716.84	1609.70
717.02	1791.97
717.20	1687.53
717.38	1667.05
717.57	1679.33
717.75	1736.68
717.93	1626.09
718.11	1697.77
718.30	1591.27
718.48	1773.54
718.66	1773.54
718.84	1734.63
719.03	1669.09
719.21	1656.81
719.39	1804.26
719.57	1722.34
719.75	1806.31
719.94	1650.66
720.12	1679.33
720.30	1685.48
720.48	1802.21
720.67	1642.47
720.85	1650.66
721.03	1669.09
721.21	1648.61
721.39	1769.44
721.58	1697.77
721.76	1699.81
721.94	1687.53
722.12	1685.48
722.30	1789.92
722.49	1624.04
722.67	1695.72
722.85	1640.42
723.03	1669.09
723.21	1665.00
723.40	1628.14
723.58	1763.30
723.76	1683.43
723.94	1652.71
724.12	1705.96
724.30	1732.58
724.49	1751.01
724.67	1660.90
724.85	1800.16
725.03	1599.46
725.21	1759.21
725.40	1712.10
725.58	1695.72
725.76	1695.72
725.94	1753.06
726.12	1613.80
726.30	1783.78
726.49	1679.33
726.67	1650.66
726.85	1705.96
727.03	1761.25
727.21	2193.37
727.39	2875.35
727.57	3837.89
727.76	4257.73
727.94	4491.20
728.12	4253.63
728.30	3641.29
728.48	2987.99
728.66	2688.98
728.84	2576.34
729.03	2342.88
729.21	2148.32
729.39	1914.85
729.57	1830.88
729.75	1826.79
729.93	1863.65
730.11	1718.25
730.30	1738.73
730.48	1699.81
730.66	1882.08
730.84	1665.00
731.02	1673.19
731.20	1632.23
731.38	1691.62
731.56	1705.96
731.74	1683.43
731.93	1767.40
732.11	1693.67
732.29	1728.49
732.47	1705.96
732.65	1679.33
732.83	1796.07
733.01	1689.57
733.19	1726.44
733.37	1746.92
733.56	1685.48
733.74	1687.53
733.92	1765.35
734.10	1681.38
734.28	1779.68
734.46	1556.46
734.64	1613.80
734.82	1734.63
735.00	1681.38
735.18	1744.87
735.36	1677.29
735.54	1683.43
735.73	1798.12
735.91	1615.85
736.09	1753.06
736.27	1644.52
736.45	1763.30
736.63	1560.55
736.81	1630.18
736.99	1726.44
737.17	1781.73
737.35	1656.81
737.53	1669.09
737.71	1679.33
737.89	1726.44
738.07	1669.09
738.25	1665.00
738.43	1597.42
738.61	1626.09
738.80	1544.17
738.98	1646.57
739.16	1667.05
739.34	1615.85
739.52	1724.39
739.70	1779.68
739.88	1724.39
740.06	1779.68
740.24	1609.70
740.42	1736.68
740.60	1544.17
740.78	1644.52
740.96	1548.26
741.14	1761.25
741.32	1685.48
741.50	1665.00
741.68	1826.79
741.86	1818.60
742.04	1673.19
742.22	1583.08
742.40	1705.96
742.58	1732.58
742.76	1638.38
742.94	1763.30
743.12	1617.90
743.30	1730.53
743.48	1787.88
743.66	1638.38
743.84	1744.87
744.02	1734.63
744.20	1683.43
744.38	1665.00
744.56	1591.27
744.74	1777.64
744.92	1669.09
745.10	1718.25
745.28	1738.73
745.46	1826.79
745.64	1652.71
745.82	1742.82
746.00	1730.53
746.18	1681.38
746.36	1699.81
746.54	1763.30
746.72	1652.71
746.90	1642.47
747.08	1787.88
747.26	1654.76
747.44	1771.49
747.62	1744.87
747.80	1708.01
747.98	1744.87
748.15	1597.42
748.33	1804.26
748.51	1691.62
748.69	1804.26
748.87	1656.81
749.05	1701.86
749.23	1701.86
749.41	1816.55
749.59	1730.53
749.77	1783.78
749.95	1689.57
750.13	1705.96
750.31	1740.77
750.49	1660.90
750.67	1777.64
750.85	1757.16
751.03	1718.25
751.20	1865.70
751.38	1669.09
751.56	1757.16
751.74	1667.05
751.92	1734.63
752.10	1650.66
752.28	1800.16
752.46	1665.00
752.64	1648.61
752.82	1654.76
753.00	1722.34
753.18	1640.42
753.35	1581.03
753.53	1626.09
753.71	1650.66
753.89	1738.73
754.07	1628.14
754.25	1710.05
754.43	1740.77
754.61	1654.76
754.79	1687.53
754.97	1681.38
755.14	1773.54
755.32	1652.71
755.50	1712.10
755.68	1730.53
755.86	1665.00
756.04	1658.85
756.22	1597.42
756.40	1769.44
756.57	1767.40
756.75	1644.52
756.93	1730.53
757.11	1822.69
757.29	1683.43
757.47	1687.53
757.65	1624.04
757.82	1671.14
758.00	1587.18
758.18	1648.61
758.36	1593.32
758.54	1757.16
758.72	1615.85
758.90	1744.87
759.07	1665.00
759.25	1669.09
759.43	1773.54
759.61	1615.85
759.79	2158.56
759.97	1755.11
760.15	1689.57
760.32	1648.61
760.50	1681.38
760.68	1779.68
760.86	1648.61
761.04	1759.21
761.22	1765.35
761.39	1736.68
761.57	1755.11
761.75	1734.63
761.93	1794.02
762.11	1669.09
762.28	1748.97
762.46	1613.80
762.64	1677.29
762.82	1669.09
763.00	1761.25
763.18	1804.26
763.35	1578.98
763.53	1789.92
763.71	1734.63
763.89	1742.82
764.07	1732.58
764.24	1644.52
764.42	1648.61
764.60	1665.00
764.78	1679.33
764.96	1693.67
765.13	1773.54
765.31	1689.57
765.49	1705.96
765.67	1675.24
765.84	1681.38
766.02	1665.00
766.20	1578.98
766.38	1665.00
766.56	1732.58
766.73	1712.10
766.91	1693.67
767.09	1675.24
767.27	1789.92
767.44	1656.81
767.62	1726.44
767.80	1742.82
767.98	1726.44
768.15	1638.38
768.33	1742.82
768.51	1757.16
768.69	1718.25
768.87	1619.94
769.04	1689.57
769.22	1812.45
769.40	1765.35
769.58	1853.41
769.75	1689.57
769.93	1726.44
770.11	1724.39
770.28	1673.19
770.46	1695.72
770.64	1693.67
770.82	1716.20
770.99	1658.85
771.17	1730.53
771.35	1665.00
771.53	1744.87
771.70	1648.61
771.88	1634.28
772.06	1636.33
772.23	1734.63
772.41	1677.29
772.59	1701.86
772.77	1665.00
772.94	1665.00
773.12	1742.82
773.30	1644.52
773.47	1652.71
773.65	1648.61
773.83	1875.94
774.01	1669.09
774.18	1605.61
774.36	1644.52
774.54	1624.04
774.71	1687.53
774.89	1646.57
775.07	1660.90
775.24	1667.05
775.42	1732.58
775.60	1810.40
775.78	1632.23
775.95	1607.66
776.13	1611.75
776.31	1601.51
776.48	1736.68
776.66	1763.30
776.84	1654.76
777.01	1562.60
777.19	1624.04
777.37	1689.57
777.54	1695.72
777.72	1775.59
777.90	1675.24
778.07	1656.81
778.25	1824.74
778.43	1681.38
778.60	1632.23
778.78	1712.10
778.96	1710.05
779.13	1628.14
779.31	1789.92
779.49	1626.09
779.66	1685.48
779.84	1730.53
780.01	1718.25
780.19	1656.81
780.37	1732.58
780.54	1681.38
780.72	1589.22
780.90	1710.05
781.07	1658.85
781.25	1634.28
781.43	1697.77
781.60	1710.05
781.78	1748.97
781.95	1693.67
782.13	1718.25
782.31	1693.67
782.48	1550.31
782.66	1624.04
782.83	1730.53
783.01	1759.21
783.19	1765.35
783.36	1574.89
783.54	1634.28
783.72	1730.53
783.89	1691.62
784.07	1755.11
784.24	1726.44
784.42	1730.53
784.60	1703.91
784.77	1656.81
784.95	1593.32
785.12	1632.23
785.30	1673.19
785.47	1644.52
785.65	1681.38
785.83	1673.19
786.00	1703.91
786.18	1738.73
786.35	1634.28
786.53	1681.38
786.71	1746.92
786.88	1746.92
787.06	1783.78
787.23	1751.01
787.41	1605.61
787.58	1624.04
787.76	1648.61
787.94	1669.09
788.11	1669.09
788.29	1605.61
788.46	1609.70
788.64	1656.81
788.81	1658.85
788.99	1673.19
789.16	1642.47
789.34	1691.62
789.52	1636.33
789.69	1667.05
789.87	1697.77
790.04	1673.19
790.22	1654.76
790.39	1791.97
790.57	1583.08
790.74	1665.00
790.92	1673.19
791.09	1640.42
791.27	1644.52
791.44	1798.12
791.62	1689.57
791.79	1730.53
791.97	1658.85
792.15	1779.68
792.32	1773.54
792.50	1730.53
792.67	1777.64
792.85	1767.40
793.02	1703.91
793.20	1718.25
793.37	1589.22
793.55	1648.61
793.72	1673.19
793.90	1722.34
794.07	1697.77
794.25	1658.85
794.42	1763.30
794.60	1679.33
794.77	1796.07
794.95	1759.21
795.12	1767.40
795.30	1691.62
795.47	1626.09
795.65	1837.03
795.82	1736.68
796.00	1597.42
796.17	1587.18
796.34	1761.25
796.52	1640.42
796.69	1669.09
796.87	1705.96
797.04	1810.40
797.22	1783.78
797.39	1708.01
797.57	1714.15
797.74	1759.21
797.92	1734.63
798.09	1632.23
798.27	1726.44
798.44	1734.63
798.62	1613.80
798.79	1689.57
798.96	1789.92
799.14	1712.10
799.31	1826.79
799.49	1624.04
799.66	1669.09
799.84	1714.15
800.01	1703.91
800.19	1634.28
800.36	1605.61
800.53	1740.77
800.71	1714.15
800.88	1828.84
801.06	1658.85
801.23	1665.00
801.41	1732.58
801.58	1644.52
801.75	1621.99
801.93	1699.81
802.10	1703.91
802.28	1708.01
802.45	1681.38
802.63	1683.43
802.80	1710.05
802.97	1705.96
803.15	1705.96
803.32	1722.34
803.50	1650.66
803.67	1662.95
803.84	1640.42
804.02	1714.15
804.19	1675.24
804.37	1595.37
804.54	1587.18
804.71	1726.44
804.89	1673.19
805.06	1665.00
805.24	1619.94
805.41	1597.42
805.58	1665.00
805.76	1734.63
805.93	1662.95
806.10	1767.40
806.28	1681.38
806.45	1705.96
806.63	1654.76
806.80	1656.81
806.97	1751.01
807.15	1769.44
807.32	1660.90
807.49	1740.77
807.67	1701.86
807.84	1748.97
808.01	1628.14
808.19	1789.92
808.36	1812.45
808.54	1611.75
808.71	1675.24
808.88	1718.25
809.06	1736.68
809.23	1763.30
809.40	1630.18
809.58	1767.40
809.75	1689.57
809.92	1691.62
810.10	1843.17
810.27	1681.38
810.44	1728.49
810.62	1763.30
810.79	1748.97
810.96	1705.96
811.14	1734.63
811.31	1720.29
811.48	1708.01
811.66	1656.81
811.83	1710.05
812.00	1802.21
812.18	1720.29
812.35	1843.17
812.52	1675.24
812.69	1687.53
812.87	1650.66
813.04	1652.71
813.21	1673.19
813.39	1599.46
813.56	1591.27
813.73	1744.87
813.91	1587.18
814.08	1654.76
814.25	1705.96
814.42	1595.37
814.60	1640.42
814.77	1716.20
814.94	1675.24
815.12	1738.73
815.29	1763.30
815.46	1681.38
815.63	1701.86
815.81	1646.57
815.98	1755.11
816.15	1603.56
816.33	1701.86
816.50	1669.09
816.67	1771.49
816.84	1673.19
817.02	1591.27
817.19	1693.67
817.36	1685.48
817.53	1757.16
817.71	1726.44
817.88	1740.77
818.05	1744.87
818.22	1607.66
818.40	1789.92
818.57	1656.81
818.74	1769.44
818.91	1632.23
819.09	1703.91
819.26	1656.81
819.43	1628.14
819.60	1656.81
819.78	1847.27
819.95	1832.93
820.12	1624.04
820.29	1820.64
820.47	1722.34
820.64	1699.81
820.81	1701.86
820.98	1638.38
821.15	1654.76
821.33	1675.24
821.50	1626.09
821.67	1716.20
821.84	1654.76
822.02	1714.15
822.19	1751.01
822.36	1705.96
822.53	1662.95
822.70	1656.81
822.88	1662.95
823.05	1763.30
823.22	1683.43
823.39	1736.68
823.56	1679.33
823.74	1773.54
823.91	1630.18
824.08	1677.29
824.25	1626.09
824.42	1804.26
824.60	1638.38
824.77	1716.20
824.94	1660.90
825.11	1669.09
825.28	1683.43
825.45	1675.24
825.63	1636.33
825.80	1574.89
825.97	1687.53
826.14	1683.43
826.31	1619.94
826.48	1691.62
826.66	1613.80
826.83	1710.05
827.00	1746.92
827.17	1644.52
827.34	1697.77
827.51	1714.15
827.69	1644.52
827.86	1640.42
828.03	1617.90
828.20	1673.19
828.37	1701.86
828.54	1697.77
828.71	1650.66
828.89	1830.88
829.06	1718.25
829.23	1791.97
829.40	1665.00
829.57	1665.00
829.74	1738.73
829.91	1660.90
830.09	1722.34
830.26	1773.54
830.43	1783.78
830.60	1730.53
830.77	1763.30
830.94	1785.83
831.11	1730.53
831.28	1695.72
831.46	1720.29
831.63	1642.47
831.80	1734.63
831.97	1613.80
832.14	1587.18
832.31	1697.77
832.48	1826.79
832.65	1683.43
832.82	1685.48
832.99	1734.63
833.17	1621.99
833.34	1808.36
833.51	1705.96
833.68	1675.24
833.85	1779.68
834.02	1648.61
834.19	1607.66
834.36	1673.19
834.53	1660.90
834.70	1830.88
834.87	1738.73
835.04	1656.81
835.22	1597.42
835.39	1628.14
835.56	1638.38
835.73	1705.96
835.90	1658.85
836.07	1662.95
836.24	1724.39
836.41	1652.71
836.58	1683.43
836.75	1738.73
836.92	1630.18
837.09	1619.94
837.26	1740.77
837.43	1671.14
837.60	1767.40
837.77	1628.14
837.94	1744.87
838.12	1662.95
838.29	1617.90
838.46	1648.61
838.63	1652.71
838.80	1748.97
838.97	1689.57
839.14	1742.82
839.31	1718.25
839.48	1695.72
839.65	1693.67
839.82	1724.39
839.99	1730.53
840.16	1701.86
840.33	1710.05
840.50	1718.25
840.67	1679.33
840.84	1560.55
841.01	1685.48
841.18	1648.61
841.35	1681.38
841.52	1765.35
841.69	1771.49
841.86	1671.14
842.03	1673.19
842.20	1714.15
842.37	1628.14
842.54	1716.20
842.71	1673.19
842.88	1677.29
843.05	1722.34
843.22	1732.58
843.39	1771.49
843.56	1689.57
843.73	1712.10
843.90	1740.77
844.07	1683.43
844.24	1691.62
844.41	1779.68
844.58	1662.95
844.75	1726.44
844.92	1742.82
845.09	1681.38
845.26	1583.08
845.43	1726.44
845.60	1609.70
845.77	1767.40
845.94	1714.15
846.10	1773.54
846.27	1560.55
846.44	1619.94
846.61	1624.04
846.78	1728.49
846.95	1738.73
847.12	1724.39
847.29	1705.96
847.46	1583.08
847.63	1767.40
847.80	1689.57
847.97	1710.05
848.14	1873.89
848.31	1621.99
848.48	1673.19
848.65	1718.25
848.82	1578.98
848.98	1785.83
849.15	1736.68
849.32	1699.81
849.49	1705.96
849.66	1652.71
849.83	1761.25
850.00	1685.48
850.17	1701.86
850.34	1675.24
850.51	1652.71
850.68	1681.38
850.85	1789.92
851.01	1689.57
851.18	1742.82
851.35	1675.24
851.52	1767.40
851.69	1769.44
851.86	1634.28
852.03	1691.62
852.20	1683.43
852.37	1675.24
852.53	1656.81
852.70	1703.91
852.87	1679.33
853.04	1769.44
853.21	1710.05
853.38	1791.97
853.55	1837.03
853.72	1716.20
853.89	1644.52
854.05	1677.29
854.22	1667.05
854.39	1650.66
854.56	1726.44
854.73	1787.88
854.90	1662.95
855.07	1734.63
855.23	1736.68
855.40	1685.48
855.57	1652.71
855.74	1603.56
855.91	1890.28
856.08	1628.14
856.25	1687.53
856.41	1693.67
856.58	1673.19
856.75	1748.97
856.92	1636.33
857.09	1751.01
857.26	1603.56
857.42	1640.42
857.59	1761.25
857.76	1753.06
857.93	1701.86
858.10	1742.82
858.27	1617.90
858.43	1654.76
858.60	1742.82
858.77	1613.80
858.94	1650.66
859.11	1681.38
859.27	1673.19
859.44	1673.19
859.61	1736.68
859.78	1689.57
859.95	1693.67
860.12	1642.47
860.28	1800.16
860.45	1837.03
860.62	1681.38
860.79	1697.77
860.95	1650.66
861.12	1656.81
861.29	1683.43
861.46	1669.09
861.63	1718.25
861.79	1718.25
861.96	1611.75
862.13	1679.33
862.30	1726.44
862.47	1583.08
862.63	1687.53
862.80	1771.49
862.97	1726.44
863.14	1669.09
863.30	1751.01
863.47	1574.89
863.64	1761.25
863.81	1705.96
863.97	1656.81
864.14	1714.15
864.31	1695.72
864.48	1667.05
864.65	1638.38
864.81	1757.16
864.98	1705.96
865.15	1734.63
865.32	1759.21
865.48	1740.77
865.65	1748.97
865.82	1656.81
865.98	1714.15
866.15	1734.63
866.32	1720.29
866.49	1714.15
866.65	1705.96
866.82	1574.89
866.99	1734.63
867.16	1685.48
867.32	1669.09
867.49	1640.42
867.66	1675.24
867.83	1740.77
867.99	1677.29
868.16	1675.24
868.33	1656.81
868.49	1656.81
868.66	1722.34
868.83	1660.90
868.99	1675.24
869.16	1718.25
869.33	1810.40
869.50	1746.92
869.66	1757.16
869.83	1632.23
870.00	1652.71
870.16	1765.35
870.33	1640.42
870.50	1798.12
870.66	1677.29
870.83	1869.80
871.00	1697.77
871.17	1722.34
871.33	1716.20
871.50	1673.19
871.67	1712.10
871.83	1658.85
872.00	1689.57
872.17	1593.32
872.33	1775.59
872.50	1712.10
872.67	1665.00
872.83	1738.73
873.00	1779.68
873.17	1654.76
873.33	1665.00
873.50	1728.49
873.67	1685.48
873.83	1634.28
874.00	1665.00
874.16	1726.44
874.33	1652.71
874.50	1673.19
874.66	1630.18
874.83	1675.24
875.00	1761.25
875.16	1771.49
875.33	1697.77
875.50	1619.94
875.66	1648.61
875.83	1652.71
875.99	1740.77
876.16	1648.61
876.33	1597.42
876.49	1636.33
876.66	1712.10
876.83	1587.18
876.99	1587.18
877.16	1705.96
877.32	1693.67
877.49	1644.52
877.66	1685.48
877.82	1789.92
877.99	1646.57
878.15	1718.25
878.32	1687.53
878.49	1665.00
878.65	1648.61
878.82	1787.88
878.98	1642.47
879.15	1759.21
879.32	1755.11
879.48	1636.33
879.65	1691.62
879.81	1626.09
879.98	1599.46
880.15	1671.14
880.31	1744.87
880.48	1638.38
880.64	1740.77
880.81	1683.43
880.97	1804.26
881.14	1769.44
881.31	1689.57
881.47	1773.54
881.64	1689.57
881.80	1593.32
881.97	1738.73
882.13	1791.97
882.30	1550.31
882.47	1677.29
882.63	1626.09
882.80	1660.90
882.96	1673.19
883.13	1732.58
883.29	1679.33
883.46	1722.34
883.62	1822.69
883.79	1636.33
883.95	1783.78
884.12	1689.57
884.29	1691.62
884.45	1648.61
884.62	1730.53
884.78	1671.14
884.95	1703.91
885.11	1638.38
885.28	1810.40
885.44	1746.92
885.61	1791.97
885.77	1808.36
885.94	1703.91
886.10	1751.01
886.27	1697.77
886.43	1734.63
886.60	1730.53
886.76	1650.66
886.93	1638.38
887.09	1697.77
887.26	1615.85
887.42	1714.15
887.59	1761.25
887.75	1777.64
887.92	1697.77
888.08	1677.29
888.25	1781.73
888.41	1748.97
888.58	1724.39
888.74	1603.56
888.91	1599.46
>>>>>End Processed Spectral Data<<<<<
