SpectraSuite Data File
++++++++++++++++++++++++++++++++++++
Date: Mon Jun 06 16:53:17 CEST 2016
User: root
Dark Spectrum Present: No
Reference Spectrum Present: No
Number of Sampled Component Spectra: 1
Spectrometers: USB4C02835
Integration Time (usec): 100000 (USB4C02835)
Spectra Averaged: 1 (USB4C02835)
Boxcar Smoothing: 0 (USB4C02835)
Correct for Electrical Dark: No (USB4C02835)
Strobe/Lamp Enabled: No (USB4C02835)
Correct for Detector Non-linearity: No (USB4C02835)
Correct for Stray Light: No (USB4C02835)
Number of Pixels in Processed Spectrum: 3648
>>>>>Begin Processed Spectral Data<<<<<
177.47	1456.11
177.69	1456.11
177.91	1456.11
178.13	1480.68
178.36	1441.77
178.58	1603.56
178.80	1714.15
179.02	1660.90
179.24	1730.53
179.46	1701.86
179.68	1847.27
179.90	1763.30
180.13	1681.38
180.35	1538.02
180.57	1652.71
180.79	1730.53
181.01	1769.44
181.23	1701.86
181.45	1746.92
181.67	1736.68
181.90	1728.49
182.12	1699.81
182.34	1642.47
182.56	1757.16
182.78	1705.96
183.00	1667.05
183.22	1710.05
183.44	1638.38
183.66	1849.32
183.89	1796.07
184.11	1748.97
184.33	1746.92
184.55	1779.68
184.77	1691.62
184.99	1714.15
185.21	1675.24
185.43	1800.16
185.65	1646.57
185.87	1761.25
186.10	1802.21
186.32	1763.30
186.54	1701.86
186.76	1765.35
186.98	1740.77
187.20	1638.38
187.42	1736.68
187.64	1777.64
187.86	1775.59
188.08	1785.83
188.30	1724.39
188.52	1675.24
188.75	1697.77
188.97	1734.63
189.19	1730.53
189.41	1716.20
189.63	1796.07
189.85	1751.01
190.07	1624.04
190.29	1609.70
190.51	1710.05
190.73	1619.94
190.95	1775.59
191.17	1708.01
191.39	1593.32
191.61	1742.82
191.84	1677.29
192.06	1726.44
192.28	1636.33
192.50	1900.52
192.72	1685.48
192.94	1687.53
193.16	1779.68
193.38	1816.55
193.60	1656.81
193.82	1705.96
194.04	1755.11
194.26	1689.57
194.48	1710.05
194.70	1667.05
194.92	1671.14
195.14	1894.37
195.36	1638.38
195.58	1669.09
195.80	1720.29
196.02	1669.09
196.24	1699.81
196.46	1753.06
196.69	1689.57
196.91	1845.22
197.13	1804.26
197.35	1734.63
197.57	1765.35
197.79	1710.05
198.01	1740.77
198.23	1705.96
198.45	1785.83
198.67	1621.99
198.89	1705.96
199.11	1746.92
199.33	1742.82
199.55	1613.80
199.77	1687.53
199.99	1775.59
200.21	1722.34
200.43	1710.05
200.65	1660.90
200.87	1611.75
201.09	1687.53
201.31	1726.44
201.53	1783.78
201.75	1677.29
201.97	1755.11
202.19	1742.82
202.41	1685.48
202.63	1834.98
202.85	1736.68
203.07	1695.72
203.29	1695.72
203.51	1630.18
203.73	1699.81
203.95	1841.12
204.17	1681.38
204.39	1705.96
204.61	1669.09
204.83	1685.48
205.05	1769.44
205.27	1722.34
205.49	1746.92
205.71	1714.15
205.93	1638.38
206.15	1658.85
206.37	1734.63
206.59	1679.33
206.81	1595.37
207.03	1722.34
207.25	1677.29
207.47	1755.11
207.69	1671.14
207.91	1820.64
208.13	1779.68
208.34	1675.24
208.56	1699.81
208.78	1746.92
209.00	1687.53
209.22	1693.67
209.44	1753.06
209.66	1705.96
209.88	1683.43
210.10	1705.96
210.32	1779.68
210.54	1785.83
210.76	1669.09
210.98	1724.39
211.20	1542.12
211.42	1683.43
211.64	1794.02
211.86	1720.29
212.08	1710.05
212.30	1673.19
212.52	1691.62
212.74	1722.34
212.96	1796.07
213.17	1660.90
213.39	1757.16
213.61	1818.60
213.83	1738.73
214.05	1630.18
214.27	1777.64
214.49	1687.53
214.71	1636.33
214.93	1769.44
215.15	1718.25
215.37	1759.21
215.59	1607.66
215.81	1787.88
216.03	1816.55
216.24	1640.42
216.46	1695.72
216.68	1843.17
216.90	1755.11
217.12	1681.38
217.34	1703.91
217.56	1753.06
217.78	1787.88
218.00	1753.06
218.22	1693.67
218.44	1738.73
218.66	1763.30
218.87	1689.57
219.09	1628.14
219.31	1771.49
219.53	1744.87
219.75	1699.81
219.97	1654.76
220.19	1757.16
220.41	1703.91
220.63	1787.88
220.85	1748.97
221.06	1642.47
221.28	1763.30
221.50	1740.77
221.72	1716.20
221.94	1740.77
222.16	1703.91
222.38	1769.44
222.60	1777.64
222.82	1632.23
223.03	1732.58
223.25	1626.09
223.47	1683.43
223.69	1806.31
223.91	1781.73
224.13	1650.66
224.35	1703.91
224.57	1824.74
224.78	1716.20
225.00	1558.50
225.22	1738.73
225.44	1783.78
225.66	1701.86
225.88	1732.58
226.10	1748.97
226.32	1738.73
226.53	1726.44
226.75	1636.33
226.97	1691.62
227.19	1714.15
227.41	1742.82
227.63	1689.57
227.85	1665.00
228.06	1744.87
228.28	1675.24
228.50	1767.40
228.72	1658.85
228.94	1695.72
229.16	1607.66
229.37	1675.24
229.59	1697.77
229.81	1794.02
230.03	1687.53
230.25	1673.19
230.47	1716.20
230.69	1775.59
230.90	1761.25
231.12	1728.49
231.34	1667.05
231.56	1816.55
231.78	1585.13
232.00	1773.54
232.21	1710.05
232.43	1685.48
232.65	1578.98
232.87	1681.38
233.09	1695.72
233.30	1697.77
233.52	1736.68
233.74	1712.10
233.96	1726.44
234.18	1730.53
234.40	1689.57
234.61	1894.37
234.83	1718.25
235.05	1679.33
235.27	1820.64
235.49	1787.88
235.70	1679.33
235.92	1794.02
236.14	1705.96
236.36	1849.32
236.58	1578.98
236.79	1724.39
237.01	1724.39
237.23	1683.43
237.45	1796.07
237.67	1675.24
237.88	1726.44
238.10	1804.26
238.32	1609.70
238.54	1714.15
238.76	1697.77
238.97	1673.19
239.19	1740.77
239.41	1773.54
239.63	1755.11
239.85	1687.53
240.06	1746.92
240.28	1640.42
240.50	1759.21
240.72	1736.68
240.93	1701.86
241.15	1755.11
241.37	1728.49
241.59	1816.55
241.81	1714.15
242.02	1705.96
242.24	1724.39
242.46	1736.68
242.68	1628.14
242.89	1744.87
243.11	1699.81
243.33	1726.44
243.55	1734.63
243.76	1746.92
243.98	1726.44
244.20	1669.09
244.42	1742.82
244.64	1628.14
244.85	1656.81
245.07	1648.61
245.29	1767.40
245.51	1689.57
245.72	1777.64
245.94	1787.88
246.16	1695.72
246.38	1759.21
246.59	1677.29
246.81	1650.66
247.03	1691.62
247.24	1624.04
247.46	1734.63
247.68	1736.68
247.90	1748.97
248.11	1689.57
248.33	1648.61
248.55	1697.77
248.77	1742.82
248.98	1722.34
249.20	1734.63
249.42	1701.86
249.64	1740.77
249.85	1726.44
250.07	1677.29
250.29	1800.16
250.50	1669.09
250.72	1650.66
250.94	1722.34
251.16	1798.12
251.37	1724.39
251.59	1822.69
251.81	1769.44
252.02	1800.16
252.24	1759.21
252.46	1763.30
252.68	1615.85
252.89	1652.71
253.11	1632.23
253.33	1773.54
253.54	1726.44
253.76	1642.47
253.98	1677.29
254.20	1665.00
254.41	1595.37
254.63	1783.78
254.85	1642.47
255.06	1693.67
255.28	1658.85
255.50	1748.97
255.71	1648.61
255.93	1667.05
256.15	1632.23
256.36	1648.61
256.58	1665.00
256.80	1720.29
257.02	1716.20
257.23	1681.38
257.45	1681.38
257.67	1812.45
257.88	1695.72
258.10	1714.15
258.32	1677.29
258.53	1705.96
258.75	1816.55
258.97	1677.29
259.18	1697.77
259.40	1689.57
259.62	1728.49
259.83	1738.73
260.05	1683.43
260.27	1943.52
260.48	1738.73
260.70	1605.61
260.92	1683.43
261.13	1798.12
261.35	1687.53
261.57	1732.58
261.78	1595.37
262.00	1667.05
262.22	1759.21
262.43	1730.53
262.65	1695.72
262.86	1708.01
263.08	1839.08
263.30	1679.33
263.51	1648.61
263.73	1685.48
263.95	1736.68
264.16	1699.81
264.38	1701.86
264.60	1718.25
264.81	1691.62
265.03	1779.68
265.25	1705.96
265.46	1675.24
265.68	1765.35
265.89	1722.34
266.11	1624.04
266.33	1818.60
266.54	1814.50
266.76	1798.12
266.98	1841.12
267.19	1802.21
267.41	1763.30
267.62	1716.20
267.84	1624.04
268.06	1783.78
268.27	1718.25
268.49	1734.63
268.70	1701.86
268.92	1644.52
269.14	1755.11
269.35	1591.27
269.57	1730.53
269.79	1812.45
270.00	1648.61
270.22	1861.60
270.43	1708.01
270.65	1578.98
270.87	1705.96
271.08	1710.05
271.30	1714.15
271.51	1697.77
271.73	1724.39
271.95	1839.08
272.16	1652.71
272.38	1753.06
272.59	1720.29
272.81	1679.33
273.02	1665.00
273.24	1701.86
273.46	1789.92
273.67	1632.23
273.89	1724.39
274.10	1656.81
274.32	1781.73
274.54	1722.34
274.75	1683.43
274.97	1732.58
275.18	1689.57
275.40	1765.35
275.61	1763.30
275.83	1679.33
276.05	1591.27
276.26	1716.20
276.48	1701.86
276.69	1665.00
276.91	1763.30
277.12	1804.26
277.34	1847.27
277.55	1701.86
277.77	1712.10
277.99	1699.81
278.20	1626.09
278.42	1722.34
278.63	1652.71
278.85	1691.62
279.06	1613.80
279.28	1736.68
279.49	1740.77
279.71	1744.87
279.93	1748.97
280.14	1654.76
280.36	1697.77
280.57	1820.64
280.79	1720.29
281.00	1652.71
281.22	1656.81
281.43	1751.01
281.65	1578.98
281.86	1681.38
282.08	1734.63
282.29	1757.16
282.51	1615.85
282.73	1689.57
282.94	1576.94
283.16	1705.96
283.37	1777.64
283.59	1730.53
283.80	1691.62
284.02	1742.82
284.23	1710.05
284.45	1652.71
284.66	1683.43
284.88	1679.33
285.09	1759.21
285.31	1720.29
285.52	1753.06
285.74	1634.28
285.95	1734.63
286.17	1697.77
286.38	1822.69
286.60	1703.91
286.81	1681.38
287.03	1687.53
287.24	1679.33
287.46	1662.95
287.67	1757.16
287.89	1837.03
288.10	1736.68
288.32	1654.76
288.53	1740.77
288.75	1714.15
288.96	1845.22
289.18	1722.34
289.39	1671.14
289.61	1783.78
289.82	1826.79
290.04	1810.40
290.25	1634.28
290.47	1701.86
290.68	1712.10
290.90	1728.49
291.11	1615.85
291.33	1740.77
291.54	1546.22
291.76	1697.77
291.97	1705.96
292.18	1712.10
292.40	1703.91
292.61	1675.24
292.83	1822.69
293.04	1722.34
293.26	1769.44
293.47	1730.53
293.69	1648.61
293.90	1718.25
294.12	1791.97
294.33	1697.77
294.55	1712.10
294.76	1837.03
294.97	1843.17
295.19	1808.36
295.40	1669.09
295.62	1724.39
295.83	1755.11
296.05	1634.28
296.26	1744.87
296.48	1624.04
296.69	1685.48
296.90	1726.44
297.12	1687.53
297.33	1693.67
297.55	1652.71
297.76	1773.54
297.98	1800.16
298.19	1675.24
298.41	1665.00
298.62	1697.77
298.83	1820.64
299.05	1763.30
299.26	1755.11
299.48	1675.24
299.69	1779.68
299.90	1744.87
300.12	1613.80
300.33	1699.81
300.55	1597.42
300.76	1724.39
300.98	1667.05
301.19	1755.11
301.40	1642.47
301.62	1673.19
301.83	1769.44
302.05	1705.96
302.26	1691.62
302.47	1683.43
302.69	1679.33
302.90	1662.95
303.12	1667.05
303.33	1812.45
303.54	1832.93
303.76	1671.14
303.97	1742.82
304.19	1777.64
304.40	1585.13
304.61	1734.63
304.83	1769.44
305.04	1843.17
305.26	1736.68
305.47	1656.81
305.68	1677.29
305.90	1640.42
306.11	1742.82
306.33	1765.35
306.54	1712.10
306.75	1619.94
306.97	1564.65
307.18	1679.33
307.39	1677.29
307.61	1726.44
307.82	1730.53
308.04	1708.01
308.25	1660.90
308.46	1763.30
308.68	1699.81
308.89	1675.24
309.10	1687.53
309.32	1740.77
309.53	1658.85
309.74	1779.68
309.96	1701.86
310.17	1789.92
310.39	1726.44
310.60	1753.06
310.81	1689.57
311.03	1648.61
311.24	1814.50
311.45	1755.11
311.67	1828.84
311.88	1677.29
312.09	1665.00
312.31	1697.77
312.52	1742.82
312.73	1693.67
312.95	1687.53
313.16	1658.85
313.37	1751.01
313.59	1716.20
313.80	1759.21
314.01	1851.36
314.23	1654.76
314.44	1638.38
314.65	1619.94
314.87	1646.57
315.08	1648.61
315.29	1646.57
315.51	1644.52
315.72	1615.85
315.93	1804.26
316.15	1738.73
316.36	1636.33
316.57	1683.43
316.79	1716.20
317.00	1722.34
317.21	1759.21
317.43	1640.42
317.64	1714.15
317.85	1671.14
318.07	1665.00
318.28	1728.49
318.49	1785.83
318.70	1884.13
318.92	1902.56
319.13	1789.92
319.34	1869.80
319.56	1837.03
319.77	1789.92
319.98	1783.78
320.20	1828.84
320.41	1730.53
320.62	1796.07
320.83	1679.33
321.05	1812.45
321.26	1730.53
321.47	1722.34
321.69	1781.73
321.90	1685.48
322.11	1646.57
322.32	1705.96
322.54	1710.05
322.75	1669.09
322.96	1863.65
323.18	1597.42
323.39	1683.43
323.60	1677.29
323.81	1787.88
324.03	1720.29
324.24	1695.72
324.45	1667.05
324.66	1638.38
324.88	1794.02
325.09	1826.79
325.30	1699.81
325.52	1767.40
325.73	1828.84
325.94	1630.18
326.15	1619.94
326.37	1656.81
326.58	1710.05
326.79	1757.16
327.00	1720.29
327.22	1693.67
327.43	1687.53
327.64	1591.27
327.85	1755.11
328.07	1693.67
328.28	1783.78
328.49	1640.42
328.70	1634.28
328.92	1687.53
329.13	1675.24
329.34	1734.63
329.55	1808.36
329.76	1708.01
329.98	1619.94
330.19	1753.06
330.40	1751.01
330.61	1724.39
330.83	1785.83
331.04	1665.00
331.25	1718.25
331.46	1646.57
331.68	1693.67
331.89	1726.44
332.10	1755.11
332.31	1624.04
332.52	1669.09
332.74	1816.55
332.95	1624.04
333.16	1697.77
333.37	1814.50
333.58	1626.09
333.80	1708.01
334.01	1652.71
334.22	1671.14
334.43	1683.43
334.64	1689.57
334.86	1675.24
335.07	1656.81
335.28	1712.10
335.49	1617.90
335.70	1730.53
335.92	1806.31
336.13	1873.89
336.34	1734.63
336.55	1722.34
336.76	1710.05
336.98	1611.75
337.19	1740.77
337.40	1880.04
337.61	1851.36
337.82	1673.19
338.04	1785.83
338.25	1624.04
338.46	1669.09
338.67	1720.29
338.88	1699.81
339.09	1591.27
339.31	1648.61
339.52	1673.19
339.73	1589.22
339.94	1705.96
340.15	1705.96
340.36	1728.49
340.58	1742.82
340.79	1632.23
341.00	1677.29
341.21	1751.01
341.42	1714.15
341.63	1767.40
341.85	1751.01
342.06	1720.29
342.27	1705.96
342.48	1730.53
342.69	1640.42
342.90	1785.83
343.12	1722.34
343.33	1687.53
343.54	1652.71
343.75	1796.07
343.96	1738.73
344.17	1648.61
344.38	1746.92
344.60	1693.67
344.81	1662.95
345.02	1632.23
345.23	1800.16
345.44	1820.64
345.65	1697.77
345.86	1746.92
346.07	1742.82
346.29	1730.53
346.50	1742.82
346.71	1708.01
346.92	1820.64
347.13	1853.41
347.34	1779.68
347.55	1716.20
347.76	1740.77
347.98	1652.71
348.19	1701.86
348.40	1812.45
348.61	1810.40
348.82	1740.77
349.03	1759.21
349.24	1652.71
349.45	1812.45
349.66	1634.28
349.88	1646.57
350.09	1677.29
350.30	1744.87
350.51	1775.59
350.72	1748.97
350.93	1673.19
351.14	1650.66
351.35	1685.48
351.56	1697.77
351.77	1650.66
351.99	1757.16
352.20	1732.58
352.41	1763.30
352.62	1597.42
352.83	1642.47
353.04	1724.39
353.25	1642.47
353.46	1812.45
353.67	1843.17
353.88	1634.28
354.09	1734.63
354.30	1658.85
354.52	1722.34
354.73	1695.72
354.94	1675.24
355.15	1736.68
355.36	1847.27
355.57	1761.25
355.78	1720.29
355.99	1683.43
356.20	1714.15
356.41	1755.11
356.62	1730.53
356.83	1785.83
357.04	1759.21
357.25	1640.42
357.46	1732.58
357.68	1718.25
357.89	1619.94
358.10	1730.53
358.31	1665.00
358.52	1732.58
358.73	1624.04
358.94	1710.05
359.15	1689.57
359.36	1683.43
359.57	1734.63
359.78	1740.77
359.99	1681.38
360.20	1595.37
360.41	1660.90
360.62	1757.16
360.83	1828.84
361.04	1691.62
361.25	1769.44
361.46	1742.82
361.67	1689.57
361.88	1773.54
362.09	1755.11
362.30	1742.82
362.51	1660.90
362.72	1681.38
362.93	1787.88
363.14	1791.97
363.35	1753.06
363.56	1669.09
363.78	1791.97
363.99	1744.87
364.20	1687.53
364.41	1693.67
364.62	1898.47
364.83	1777.64
365.04	1648.61
365.25	1609.70
365.46	1820.64
365.67	1669.09
365.88	1640.42
366.09	1755.11
366.30	1693.67
366.51	1714.15
366.72	1656.81
366.93	1726.44
367.14	1705.96
367.35	1871.84
367.56	1691.62
367.77	1779.68
367.98	1757.16
368.18	1681.38
368.39	1802.21
368.60	1652.71
368.81	1728.49
369.02	1808.36
369.23	1755.11
369.44	1599.46
369.65	1607.66
369.86	1699.81
370.07	1724.39
370.28	1665.00
370.49	1738.73
370.70	1769.44
370.91	1646.57
371.12	1693.67
371.33	1820.64
371.54	1632.23
371.75	1834.98
371.96	1615.85
372.17	1669.09
372.38	1636.33
372.59	1742.82
372.80	1628.14
373.01	1724.39
373.22	1671.14
373.43	1724.39
373.64	1669.09
373.85	1791.97
374.06	1761.25
374.26	1777.64
374.47	1685.48
374.68	1802.21
374.89	1806.31
375.10	1656.81
375.31	1810.40
375.52	1687.53
375.73	1746.92
375.94	1621.99
376.15	1820.64
376.36	1603.56
376.57	1650.66
376.78	1708.01
376.99	1796.07
377.20	1794.02
377.40	1665.00
377.61	1765.35
377.82	1679.33
378.03	1820.64
378.24	1748.97
378.45	1708.01
378.66	1712.10
378.87	1630.18
379.08	1634.28
379.29	1656.81
379.50	1763.30
379.71	1734.63
379.91	1718.25
380.12	1697.77
380.33	1740.77
380.54	1695.72
380.75	1679.33
380.96	1701.86
381.17	1828.84
381.38	1767.40
381.59	1755.11
381.80	1746.92
382.00	1789.92
382.21	1742.82
382.42	1888.23
382.63	1820.64
382.84	1806.31
383.05	1708.01
383.26	1857.51
383.47	1671.14
383.68	1779.68
383.88	1697.77
384.09	1732.58
384.30	1816.55
384.51	1800.16
384.72	1624.04
384.93	1656.81
385.14	1734.63
385.35	1763.30
385.55	1642.47
385.76	1738.73
385.97	1732.58
386.18	1624.04
386.39	1708.01
386.60	1755.11
386.81	1761.25
387.02	1730.53
387.22	1648.61
387.43	1777.64
387.64	1720.29
387.85	1929.19
388.06	2207.71
388.27	4317.12
388.48	6768.54
388.68	8374.14
388.89	9670.51
389.10	9832.30
389.31	8621.95
389.52	7577.48
389.73	6576.03
389.93	6254.50
390.14	5756.84
390.35	5142.45
390.56	4634.55
390.77	3690.44
390.98	3100.62
391.18	2443.23
391.39	2160.61
391.60	1853.41
391.81	1851.36
392.02	1751.01
392.23	1839.08
392.43	1746.92
392.64	1755.11
392.85	1783.78
393.06	1781.73
393.27	1681.38
393.47	1738.73
393.68	1771.49
393.89	1699.81
394.10	1841.12
394.31	1665.00
394.52	1636.33
394.72	1705.96
394.93	1746.92
395.14	1685.48
395.35	1683.43
395.56	1703.91
395.76	1705.96
395.97	1742.82
396.18	1800.16
396.39	1847.27
396.60	1986.53
396.80	1859.56
397.01	1834.98
397.22	1853.41
397.43	1865.70
397.64	1755.11
397.84	1863.65
398.05	1802.21
398.26	1751.01
398.47	1839.08
398.67	1695.72
398.88	1738.73
399.09	1726.44
399.30	1644.52
399.51	1814.50
399.71	1753.06
399.92	1699.81
400.13	1771.49
400.34	1718.25
400.54	1740.77
400.75	1843.17
400.96	1708.01
401.17	1777.64
401.37	1753.06
401.58	1718.25
401.79	1728.49
402.00	1961.95
402.21	2004.96
402.41	1935.33
402.62	1964.00
402.83	1929.19
403.04	1902.56
403.24	2021.35
403.45	1912.80
403.66	1908.71
403.87	1976.29
404.07	1970.15
404.28	1849.32
404.49	1904.61
404.70	1880.04
404.90	1740.77
405.11	1820.64
405.32	1671.14
405.52	1767.40
405.73	1714.15
405.94	1703.91
406.15	1685.48
406.35	1791.97
406.56	1830.88
406.77	1771.49
406.98	1748.97
407.18	1671.14
407.39	1810.40
407.60	1769.44
407.80	1775.59
408.01	1703.91
408.22	1701.86
408.43	1630.18
408.63	1748.97
408.84	1769.44
409.05	1730.53
409.25	1720.29
409.46	1617.90
409.67	1665.00
409.88	1689.57
410.08	1796.07
410.29	1669.09
410.50	1730.53
410.70	1755.11
410.91	1624.04
411.12	1781.73
411.32	1755.11
411.53	1718.25
411.74	1861.60
411.95	1761.25
412.15	1796.07
412.36	1800.16
412.57	1744.87
412.77	1765.35
412.98	1703.91
413.19	1730.53
413.39	1740.77
413.60	1804.26
413.81	1791.97
414.01	1693.67
414.22	1779.68
414.43	1730.53
414.63	1703.91
414.84	1757.16
415.05	1736.68
415.25	1695.72
415.46	1824.74
415.67	1624.04
415.87	1810.40
416.08	1697.77
416.29	1740.77
416.49	1712.10
416.70	1650.66
416.91	1708.01
417.11	1673.19
417.32	1800.16
417.53	1814.50
417.73	1710.05
417.94	1705.96
418.15	1804.26
418.35	1683.43
418.56	1755.11
418.77	1822.69
418.97	1753.06
419.18	1687.53
419.38	1626.09
419.59	1714.15
419.80	1746.92
420.00	1679.33
420.21	1687.53
420.42	1781.73
420.62	1716.20
420.83	1613.80
421.04	1724.39
421.24	1732.58
421.45	1763.30
421.65	1734.63
421.86	1691.62
422.07	1734.63
422.27	1681.38
422.48	1800.16
422.69	1748.97
422.89	1779.68
423.10	1679.33
423.30	1624.04
423.51	1730.53
423.72	1738.73
423.92	1691.62
424.13	1638.38
424.33	1742.82
424.54	1683.43
424.75	1720.29
424.95	1869.80
425.16	1712.10
425.36	1708.01
425.57	1712.10
425.78	1751.01
425.98	1726.44
426.19	1720.29
426.39	1642.47
426.60	1722.34
426.81	1839.08
427.01	1744.87
427.22	1705.96
427.42	1669.09
427.63	1660.90
427.83	1755.11
428.04	1814.50
428.25	1802.21
428.45	1771.49
428.66	1736.68
428.86	1751.01
429.07	1703.91
429.28	1742.82
429.48	1746.92
429.69	1615.85
429.89	1710.05
430.10	1681.38
430.30	1697.77
430.51	1759.21
430.71	1640.42
430.92	1767.40
431.13	1665.00
431.33	1755.11
431.54	1748.97
431.74	1798.12
431.95	1837.03
432.15	1691.62
432.36	1771.49
432.56	1689.57
432.77	1853.41
432.98	1806.31
433.18	1720.29
433.39	1742.82
433.59	1732.58
433.80	1771.49
434.00	1865.70
434.21	1660.90
434.41	1675.24
434.62	1859.56
434.82	1632.23
435.03	1718.25
435.23	1746.92
435.44	1669.09
435.64	1724.39
435.85	1820.64
436.06	1839.08
436.26	1830.88
436.47	1738.73
436.67	1689.57
436.88	1744.87
437.08	1791.97
437.29	1822.69
437.49	1761.25
437.70	1755.11
437.90	1720.29
438.11	1804.26
438.31	1751.01
438.52	1863.65
438.72	1851.36
438.93	1933.28
439.13	1845.22
439.34	1810.40
439.54	1712.10
439.75	1812.45
439.95	1800.16
440.16	1751.01
440.36	1665.00
440.57	1789.92
440.77	1740.77
440.98	1728.49
441.18	1824.74
441.39	1660.90
441.59	1683.43
441.80	1849.32
442.00	1681.38
442.21	1748.97
442.41	1746.92
442.62	1802.21
442.82	1740.77
443.02	1701.86
443.23	1771.49
443.43	1755.11
443.64	1771.49
443.84	1624.04
444.05	1826.79
444.25	1751.01
444.46	1687.53
444.66	1718.25
444.87	1765.35
445.07	1628.14
445.28	1652.71
445.48	1800.16
445.69	1753.06
445.89	1873.89
446.09	1830.88
446.30	2101.22
446.50	2648.02
446.71	3794.89
446.91	4276.16
447.12	4796.34
447.32	4896.69
447.53	4345.79
447.73	3737.54
447.93	3678.15
448.14	3282.89
448.34	3178.45
448.55	2934.74
448.75	2803.67
448.96	2752.47
449.16	2459.61
449.36	2271.20
449.57	2045.92
449.77	1888.23
449.98	1828.84
450.18	1894.37
450.39	1728.49
450.59	1734.63
450.79	1763.30
451.00	1751.01
451.20	1820.64
451.41	1726.44
451.61	1753.06
451.81	1744.87
452.02	1624.04
452.22	1667.05
452.43	1716.20
452.63	1753.06
452.84	1718.25
453.04	1789.92
453.24	1775.59
453.45	1722.34
453.65	1722.34
453.86	1757.16
454.06	1726.44
454.26	1785.83
454.47	1634.28
454.67	1855.46
454.87	1738.73
455.08	1722.34
455.28	1855.46
455.49	1794.02
455.69	1755.11
455.89	1861.60
456.10	1806.31
456.30	1765.35
456.51	1791.97
456.71	1746.92
456.91	1781.73
457.12	1830.88
457.32	1738.73
457.52	1658.85
457.73	1765.35
457.93	1781.73
458.14	1646.57
458.34	1669.09
458.54	1767.40
458.75	1644.52
458.95	1798.12
459.15	1771.49
459.36	1755.11
459.56	1804.26
459.76	1789.92
459.97	1791.97
460.17	1751.01
460.37	1726.44
460.58	1748.97
460.78	1781.73
460.99	1781.73
461.19	1787.88
461.39	1621.99
461.60	1669.09
461.80	1826.79
462.00	1667.05
462.21	1728.49
462.41	1665.00
462.61	1697.77
462.82	1681.38
463.02	1738.73
463.22	1789.92
463.43	1802.21
463.63	1712.10
463.83	1781.73
464.04	1724.39
464.24	1765.35
464.44	1728.49
464.64	1800.16
464.85	1693.67
465.05	1769.44
465.25	1783.78
465.46	1669.09
465.66	1837.03
465.86	1738.73
466.07	1683.43
466.27	1693.67
466.47	1560.55
466.68	1679.33
466.88	1812.45
467.08	1794.02
467.29	1738.73
467.49	1726.44
467.69	1736.68
467.89	1730.53
468.10	1753.06
468.30	1722.34
468.50	1822.69
468.71	1744.87
468.91	1646.57
469.11	1822.69
469.31	1675.24
469.52	1681.38
469.72	1806.31
469.92	1814.50
470.13	1738.73
470.33	1726.44
470.53	1832.93
470.73	1990.63
470.94	2320.35
471.14	2316.25
471.34	2566.10
471.54	2275.29
471.75	2215.90
471.95	2156.51
472.15	2084.83
472.36	2136.03
472.56	2074.59
472.76	2058.21
472.96	2041.82
473.17	2021.35
473.37	1929.19
473.57	1880.04
473.77	1869.80
473.98	1730.53
474.18	1603.56
474.38	1808.36
474.58	1722.34
474.79	1605.61
474.99	1808.36
475.19	1728.49
475.39	1671.14
475.60	1712.10
475.80	1718.25
476.00	1691.62
476.20	1718.25
476.41	1746.92
476.61	1873.89
476.81	1769.44
477.01	1720.29
477.21	1888.23
477.42	1787.88
477.62	1695.72
477.82	1789.92
478.02	1689.57
478.23	1812.45
478.43	1671.14
478.63	1755.11
478.83	1742.82
479.03	1708.01
479.24	1884.13
479.44	1820.64
479.64	1662.95
479.84	1599.46
480.04	1732.58
480.25	1830.88
480.45	1695.72
480.65	1683.43
480.85	1789.92
481.06	1673.19
481.26	1820.64
481.46	1683.43
481.66	1796.07
481.86	1705.96
482.06	1861.60
482.27	1689.57
482.47	1705.96
482.67	1738.73
482.87	1681.38
483.07	1822.69
483.28	1734.63
483.48	1644.52
483.68	1708.01
483.88	1708.01
484.08	1621.99
484.29	1669.09
484.49	1683.43
484.69	1703.91
484.89	1746.92
485.09	1748.97
485.29	1697.77
485.50	1814.50
485.70	1644.52
485.90	1808.36
486.10	1740.77
486.30	1705.96
486.50	1742.82
486.71	1697.77
486.91	1779.68
487.11	1714.15
487.31	1742.82
487.51	1695.72
487.71	1734.63
487.91	1642.47
488.12	1607.66
488.32	1683.43
488.52	1705.96
488.72	1583.08
488.92	1769.44
489.12	1734.63
489.32	1796.07
489.53	1677.29
489.73	1566.70
489.93	1767.40
490.13	1710.05
490.33	1613.80
490.53	1714.15
490.73	1796.07
490.94	1660.90
491.14	1753.06
491.34	1865.70
491.54	2109.41
491.74	2502.62
491.94	2961.36
492.14	3108.82
492.34	3080.14
492.54	2777.05
492.75	2537.43
492.95	2455.51
493.15	2346.97
493.35	2308.06
493.55	2271.20
493.75	2168.80
493.95	2174.94
494.15	2099.17
494.35	1976.29
494.56	1849.32
494.76	1761.25
494.96	1791.97
495.16	1742.82
495.36	1806.31
495.56	1771.49
495.76	1624.04
495.96	1742.82
496.16	1705.96
496.36	1779.68
496.56	1687.53
496.77	1730.53
496.97	1718.25
497.17	1834.98
497.37	1738.73
497.57	1771.49
497.77	1767.40
497.97	1669.09
498.17	1722.34
498.37	1787.88
498.57	1834.98
498.77	1751.01
498.97	1859.56
499.17	1814.50
499.38	1742.82
499.58	1689.57
499.78	1773.54
499.98	1849.32
500.18	1724.39
500.38	1683.43
500.58	1896.42
500.78	2557.91
500.98	4460.48
501.18	6002.60
501.38	6735.77
501.58	7171.99
501.78	6633.37
501.98	5613.48
502.18	5138.35
502.38	4495.29
502.58	4093.89
502.78	3725.26
502.98	3602.38
503.18	3502.03
503.38	3149.78
503.59	2877.40
503.79	2656.22
503.99	2529.24
504.19	2357.21
504.39	2217.95
504.59	2103.26
504.79	2191.33
504.99	2136.03
505.19	1978.34
505.39	1920.99
505.59	1933.28
505.79	1939.43
505.99	1853.41
506.19	1798.12
506.39	1861.60
506.59	1753.06
506.79	1824.74
506.99	1859.56
507.19	1796.07
507.39	1742.82
507.59	1660.90
507.79	1671.14
507.99	1720.29
508.19	1730.53
508.39	1720.29
508.59	1691.62
508.79	1920.99
508.99	1916.90
509.19	1644.52
509.39	1765.35
509.59	1665.00
509.79	1761.25
509.99	1794.02
510.19	1755.11
510.39	1771.49
510.59	1765.35
510.79	1767.40
510.99	1640.42
511.19	1789.92
511.39	1804.26
511.59	1767.40
511.79	1871.84
511.99	1748.97
512.19	1849.32
512.38	1748.97
512.58	1673.19
512.78	1652.71
512.98	1824.74
513.18	1828.84
513.38	1624.04
513.58	1796.07
513.78	1701.86
513.98	1701.86
514.18	1755.11
514.38	1751.01
514.58	1796.07
514.78	1705.96
514.98	1714.15
515.18	1687.53
515.38	1697.77
515.58	1802.21
515.78	1703.91
515.98	1667.05
516.18	1734.63
516.38	1716.20
516.57	1703.91
516.77	1681.38
516.97	1781.73
517.17	1683.43
517.37	1662.95
517.57	1775.59
517.77	1734.63
517.97	1681.38
518.17	1710.05
518.37	1695.72
518.57	1652.71
518.77	1687.53
518.97	1763.30
519.16	1787.88
519.36	1822.69
519.56	1697.77
519.76	1705.96
519.96	1677.29
520.16	1777.64
520.36	1638.38
520.56	1775.59
520.76	1820.64
520.96	1757.16
521.16	1822.69
521.35	1791.97
521.55	1796.07
521.75	1761.25
521.95	1669.09
522.15	1761.25
522.35	1687.53
522.55	1748.97
522.75	1804.26
522.95	1654.76
523.14	1687.53
523.34	1759.21
523.54	1714.15
523.74	1755.11
523.94	1806.31
524.14	1658.85
524.34	1748.97
524.54	1755.11
524.73	1773.54
524.93	1828.84
525.13	1810.40
525.33	1685.48
525.53	1843.17
525.73	1730.53
525.93	1738.73
526.13	1619.94
526.32	1716.20
526.52	1767.40
526.72	1771.49
526.92	1701.86
527.12	1761.25
527.32	1665.00
527.52	1736.68
527.71	1769.44
527.91	1791.97
528.11	1712.10
528.31	1705.96
528.51	1681.38
528.71	1728.49
528.90	1779.68
529.10	1812.45
529.30	1873.89
529.50	1671.14
529.70	1771.49
529.90	1759.21
530.09	1699.81
530.29	1705.96
530.49	1720.29
530.69	1898.47
530.89	1740.77
531.09	1783.78
531.28	1761.25
531.48	1861.60
531.68	1654.76
531.88	1746.92
532.08	1785.83
532.28	1742.82
532.47	1841.12
532.67	1726.44
532.87	1777.64
533.07	1728.49
533.27	1738.73
533.46	1734.63
533.66	1781.73
533.86	1667.05
534.06	1716.20
534.26	1734.63
534.45	1718.25
534.65	1820.64
534.85	1669.09
535.05	1679.33
535.25	1812.45
535.44	1607.66
535.64	1755.11
535.84	1701.86
536.04	1705.96
536.24	1730.53
536.43	1730.53
536.63	1726.44
536.83	1728.49
537.03	1724.39
537.22	1687.53
537.42	1662.95
537.62	1769.44
537.82	1761.25
538.02	1767.40
538.21	1869.80
538.41	1884.13
538.61	1757.16
538.81	1726.44
539.00	1849.32
539.20	1746.92
539.40	1693.67
539.60	1781.73
539.79	1722.34
539.99	1734.63
540.19	1699.81
540.39	1728.49
540.58	1677.29
540.78	1738.73
540.98	1773.54
541.18	1845.22
541.37	1791.97
541.57	1693.67
541.77	1742.82
541.97	1701.86
542.16	1679.33
542.36	1779.68
542.56	1650.66
542.76	1873.89
542.95	1751.01
543.15	1722.34
543.35	1763.30
543.54	1720.29
543.74	1697.77
543.94	1841.12
544.14	1773.54
544.33	1763.30
544.53	1691.62
544.73	1683.43
544.93	1769.44
545.12	1728.49
545.32	1701.86
545.52	1734.63
545.71	1660.90
545.91	1751.01
546.11	1779.68
546.30	1673.19
546.50	1783.78
546.70	1804.26
546.90	1775.59
547.09	1646.57
547.29	1710.05
547.49	1744.87
547.68	1781.73
547.88	1703.91
548.08	1740.77
548.27	2154.46
548.47	1730.53
548.67	1669.09
548.87	1818.60
549.06	1681.38
549.26	1708.01
549.46	1826.79
549.65	1708.01
549.85	1748.97
550.05	1820.64
550.24	1652.71
550.44	1722.34
550.64	1708.01
550.83	1648.61
551.03	1826.79
551.23	1816.55
551.42	1769.44
551.62	1716.20
551.82	1720.29
552.01	1773.54
552.21	1806.31
552.41	1740.77
552.60	1794.02
552.80	1738.73
553.00	1699.81
553.19	1828.84
553.39	1918.95
553.59	1683.43
553.78	1728.49
553.98	1800.16
554.17	1722.34
554.37	1669.09
554.57	1773.54
554.76	1695.72
554.96	1687.53
555.16	1769.44
555.35	1753.06
555.55	1689.57
555.75	1781.73
555.94	1837.03
556.14	1654.76
556.33	1755.11
556.53	1685.48
556.73	1794.02
556.92	1742.82
557.12	1839.08
557.32	1869.80
557.51	1796.07
557.71	1722.34
557.90	1830.88
558.10	1787.88
558.30	1697.77
558.49	1816.55
558.69	1675.24
558.88	1794.02
559.08	1798.12
559.28	1697.77
559.47	1748.97
559.67	1724.39
559.86	1841.12
560.06	1751.01
560.26	1722.34
560.45	1687.53
560.65	1765.35
560.84	1779.68
561.04	1712.10
561.24	1746.92
561.43	1634.28
561.63	1746.92
561.82	1773.54
562.02	1787.88
562.22	1636.33
562.41	1740.77
562.61	1738.73
562.80	1705.96
563.00	1888.23
563.19	1759.21
563.39	1769.44
563.59	1734.63
563.78	1675.24
563.98	1636.33
564.17	1677.29
564.37	1726.44
564.56	1794.02
564.76	1677.29
564.96	1828.84
565.15	1710.05
565.35	1865.70
565.54	1683.43
565.74	1789.92
565.93	1791.97
566.13	1708.01
566.32	1791.97
566.52	1857.51
566.71	1730.53
566.91	1820.64
567.11	1775.59
567.30	1681.38
567.50	1789.92
567.69	1714.15
567.89	1748.97
568.08	1691.62
568.28	1761.25
568.47	1724.39
568.67	1697.77
568.86	1722.34
569.06	1789.92
569.25	1779.68
569.45	1681.38
569.64	1689.57
569.84	1712.10
570.04	1755.11
570.23	1724.39
570.43	1810.40
570.62	1791.97
570.82	1867.75
571.01	1703.91
571.21	1636.33
571.40	1732.58
571.60	1783.78
571.79	1673.19
571.99	1802.21
572.18	1703.91
572.38	1742.82
572.57	1742.82
572.77	1732.58
572.96	1884.13
573.16	1765.35
573.35	1724.39
573.55	1886.18
573.74	1732.58
573.94	1738.73
574.13	1687.53
574.33	1822.69
574.52	1871.84
574.71	1685.48
574.91	1701.86
575.10	1595.37
575.30	1751.01
575.49	1693.67
575.69	1714.15
575.88	1789.92
576.08	1732.58
576.27	1789.92
576.47	1697.77
576.66	1804.26
576.86	1861.60
577.05	1812.45
577.25	1824.74
577.44	1869.80
577.64	1718.25
577.83	1796.07
578.02	1744.87
578.22	1902.56
578.41	1851.36
578.61	1726.44
578.80	1687.53
579.00	1763.30
579.19	1787.88
579.39	1802.21
579.58	1802.21
579.77	1773.54
579.97	1869.80
580.16	1718.25
580.36	1771.49
580.55	1851.36
580.75	1806.31
580.94	1736.68
581.13	1804.26
581.33	1861.60
581.52	1697.77
581.72	1941.47
581.91	1822.69
582.11	1689.57
582.30	1796.07
582.49	1867.75
582.69	1865.70
582.88	1845.22
583.08	1705.96
583.27	1742.82
583.47	1755.11
583.66	1742.82
583.85	1636.33
584.05	1722.34
584.24	1804.26
584.44	1785.83
584.63	1845.22
584.82	1820.64
585.02	1839.08
585.21	1867.75
585.41	1890.28
585.60	1802.21
585.79	1900.52
585.99	1894.37
586.18	1806.31
586.37	2162.66
586.57	3184.59
586.76	9793.39
586.96	24348.30
587.15	34321.91
587.34	40506.77
587.54	42087.81
587.73	36961.74
587.93	26521.20
588.12	21655.22
588.31	18425.57
588.51	16187.14
588.70	15107.87
588.89	14300.97
589.09	12490.56
589.28	11106.13
589.47	9420.66
589.67	7823.24
589.86	6285.22
590.06	4945.84
590.25	4011.97
590.44	3055.57
590.64	2721.75
590.83	2224.09
591.02	2133.98
591.22	1900.52
591.41	1896.42
591.60	1783.78
591.80	1896.42
591.99	1753.06
592.18	1779.68
592.38	1857.51
592.57	1734.63
592.76	1808.36
592.96	1763.30
593.15	1712.10
593.34	1849.32
593.54	1773.54
593.73	1820.64
593.92	1699.81
594.12	1724.39
594.31	1757.16
594.50	1837.03
594.70	1822.69
594.89	1908.71
595.08	1742.82
595.28	1777.64
595.47	1841.12
595.66	1757.16
595.86	1693.67
596.05	1695.72
596.24	1736.68
596.43	1837.03
596.63	1867.75
596.82	1775.59
597.01	1759.21
597.21	1910.75
597.40	1748.97
597.59	1734.63
597.79	1705.96
597.98	1773.54
598.17	1820.64
598.36	1763.30
598.56	1830.88
598.75	1718.25
598.94	1785.83
599.14	1779.68
599.33	1748.97
599.52	1763.30
599.71	1736.68
599.91	1783.78
600.10	1771.49
600.29	1773.54
600.48	1765.35
600.68	1769.44
600.87	1841.12
601.06	1675.24
601.26	1693.67
601.45	1757.16
601.64	1730.53
601.83	1794.02
602.03	1746.92
602.22	1621.99
602.41	1767.40
602.60	1826.79
602.80	1748.97
602.99	1746.92
603.18	1691.62
603.37	1763.30
603.57	1720.29
603.76	1812.45
603.95	1767.40
604.14	1673.19
604.34	1662.95
604.53	1765.35
604.72	1753.06
604.91	1779.68
605.10	1765.35
605.30	1734.63
605.49	1923.04
605.68	1794.02
605.87	1812.45
606.07	1703.91
606.26	1773.54
606.45	1683.43
606.64	1736.68
606.84	1771.49
607.03	1751.01
607.22	1722.34
607.41	1769.44
607.60	1699.81
607.80	1779.68
607.99	1667.05
608.18	1773.54
608.37	1755.11
608.56	1617.90
608.76	1810.40
608.95	1855.46
609.14	1742.82
609.33	1789.92
609.52	1773.54
609.72	1736.68
609.91	1849.32
610.10	1730.53
610.29	1814.50
610.48	1806.31
610.68	1724.39
610.87	1673.19
611.06	1763.30
611.25	1748.97
611.44	1877.99
611.63	1662.95
611.83	1787.88
612.02	1685.48
612.21	1804.26
612.40	1648.61
612.59	1665.00
612.79	1722.34
612.98	1673.19
613.17	1773.54
613.36	1744.87
613.55	1859.56
613.74	1667.05
613.93	1708.01
614.13	1705.96
614.32	1808.36
614.51	1761.25
614.70	1691.62
614.89	1726.44
615.08	1794.02
615.28	2027.49
615.47	1712.10
615.66	1810.40
615.85	1712.10
616.04	1808.36
616.23	1791.97
616.42	1722.34
616.62	1734.63
616.81	1802.21
617.00	1744.87
617.19	1718.25
617.38	1730.53
617.57	1705.96
617.76	1761.25
617.95	1818.60
618.15	1730.53
618.34	1816.55
618.53	1595.37
618.72	1730.53
618.91	1822.69
619.10	1884.13
619.29	1755.11
619.48	1705.96
619.68	1779.68
619.87	1761.25
620.06	1656.81
620.25	1798.12
620.44	1787.88
620.63	1720.29
620.82	1730.53
621.01	1751.01
621.20	1697.77
621.39	1714.15
621.59	1712.10
621.78	1724.39
621.97	1794.02
622.16	1648.61
622.35	1740.77
622.54	1796.07
622.73	1763.30
622.92	1703.91
623.11	1820.64
623.30	1714.15
623.49	1775.59
623.68	1751.01
623.88	1730.53
624.07	1685.48
624.26	1705.96
624.45	1673.19
624.64	1650.66
624.83	1708.01
625.02	1748.97
625.21	1767.40
625.40	1742.82
625.59	1769.44
625.78	1751.01
625.97	1796.07
626.16	1761.25
626.35	1798.12
626.54	1699.81
626.74	1798.12
626.93	1697.77
627.12	1689.57
627.31	1791.97
627.50	1794.02
627.69	1834.98
627.88	1716.20
628.07	1740.77
628.26	1619.94
628.45	1669.09
628.64	1746.92
628.83	1736.68
629.02	1648.61
629.21	1773.54
629.40	1761.25
629.59	1746.92
629.78	1693.67
629.97	1683.43
630.16	1687.53
630.35	1812.45
630.54	1757.16
630.73	1736.68
630.92	1746.92
631.11	1693.67
631.30	1757.16
631.49	1791.97
631.68	1789.92
631.87	1734.63
632.06	1695.72
632.25	1865.70
632.44	1732.58
632.63	1787.88
632.82	1689.57
633.01	1613.80
633.20	1660.90
633.39	1660.90
633.58	1667.05
633.77	1814.50
633.96	1732.58
634.15	1773.54
634.34	1783.78
634.53	1634.28
634.72	1757.16
634.91	1617.90
635.10	1781.73
635.29	1738.73
635.48	1722.34
635.67	1617.90
635.86	1658.85
636.05	1820.64
636.24	1755.11
636.43	1802.21
636.62	1662.95
636.81	1583.08
637.00	1689.57
637.19	1744.87
637.38	1746.92
637.57	1615.85
637.76	1724.39
637.95	1714.15
638.14	1681.38
638.33	1783.78
638.52	1724.39
638.71	1738.73
638.89	1642.47
639.08	1783.78
639.27	1763.30
639.46	1660.90
639.65	1751.01
639.84	1763.30
640.03	1812.45
640.22	1818.60
640.41	1900.52
640.60	1652.71
640.79	1675.24
640.98	1755.11
641.17	1738.73
641.36	1761.25
641.55	1763.30
641.74	1642.47
641.92	1689.57
642.11	1619.94
642.30	1705.96
642.49	1716.20
642.68	1718.25
642.87	1771.49
643.06	1763.30
643.25	1697.77
643.44	1673.19
643.63	1710.05
643.82	1759.21
644.00	1574.89
644.19	1716.20
644.38	1626.09
644.57	1789.92
644.76	1697.77
644.95	1695.72
645.14	1728.49
645.33	1755.11
645.52	1679.33
645.71	1673.19
645.89	1724.39
646.08	1705.96
646.27	1679.33
646.46	1851.36
646.65	1660.90
646.84	1783.78
647.03	1654.76
647.22	1781.73
647.40	1697.77
647.59	1689.57
647.78	1630.18
647.97	1640.42
648.16	1712.10
648.35	1730.53
648.54	1763.30
648.73	1714.15
648.91	1779.68
649.10	1789.92
649.29	1695.72
649.48	1738.73
649.67	1804.26
649.86	1697.77
650.05	1714.15
650.23	1763.30
650.42	1587.18
650.61	1712.10
650.80	1740.77
650.99	1798.12
651.18	1730.53
651.36	1714.15
651.55	1716.20
651.74	1845.22
651.93	1687.53
652.12	1779.68
652.31	1726.44
652.49	1816.55
652.68	1636.33
652.87	1759.21
653.06	1744.87
653.25	1800.16
653.44	1683.43
653.62	1802.21
653.81	1656.81
654.00	1740.77
654.19	1804.26
654.38	1845.22
654.56	1699.81
654.75	1732.58
654.94	1701.86
655.13	1779.68
655.32	1703.91
655.51	1730.53
655.69	1701.86
655.88	1773.54
656.07	1726.44
656.26	1757.16
656.45	1628.14
656.63	1689.57
656.82	1783.78
657.01	1767.40
657.20	1693.67
657.38	1796.07
657.57	1761.25
657.76	1652.71
657.95	1789.92
658.14	1677.29
658.32	1777.64
658.51	1699.81
658.70	1654.76
658.89	1755.11
659.08	1681.38
659.26	1826.79
659.45	1613.80
659.64	1765.35
659.83	1695.72
660.01	1877.99
660.20	1753.06
660.39	1843.17
660.58	1548.26
660.76	1740.77
660.95	1665.00
661.14	1669.09
661.33	1712.10
661.51	1646.57
661.70	1710.05
661.89	1757.16
662.08	1734.63
662.26	1740.77
662.45	1683.43
662.64	1806.31
662.83	1751.01
663.01	1720.29
663.20	1673.19
663.39	1769.44
663.58	1705.96
663.76	1773.54
663.95	1738.73
664.14	1701.86
664.32	1738.73
664.51	1642.47
664.70	1646.57
664.89	1708.01
665.07	1619.94
665.26	1802.21
665.45	1583.08
665.64	1798.12
665.82	1820.64
666.01	1789.92
666.20	1695.72
666.38	1861.60
666.57	1873.89
666.76	2197.47
666.95	4601.79
667.13	10428.26
667.32	15638.29
667.51	18087.66
667.69	19115.74
667.88	17975.02
668.07	12359.49
668.25	9570.16
668.44	8216.45
668.63	7231.38
668.81	6803.35
669.00	6324.13
669.19	5836.71
669.38	5117.87
669.56	4601.79
669.75	4065.22
669.94	3413.96
670.12	2901.97
670.31	2590.68
670.50	2285.53
670.68	2035.68
670.87	1918.95
671.06	1826.79
671.24	1841.12
671.43	1796.07
671.62	1734.63
671.80	1689.57
671.99	1794.02
672.18	1744.87
672.36	1806.31
672.55	1710.05
672.74	1734.63
672.92	1742.82
673.11	1755.11
673.29	1673.19
673.48	1658.85
673.67	1699.81
673.85	1789.92
674.04	1656.81
674.23	1710.05
674.41	1851.36
674.60	1654.76
674.79	1691.62
674.97	1705.96
675.16	1751.01
675.34	1794.02
675.53	1777.64
675.72	1763.30
675.90	1820.64
676.09	1714.15
676.28	1742.82
676.46	1656.81
676.65	1765.35
676.83	1697.77
677.02	1744.87
677.21	1761.25
677.39	1781.73
677.58	1636.33
677.77	1673.19
677.95	1742.82
678.14	1730.53
678.32	1748.97
678.51	1691.62
678.70	1783.78
678.88	1650.66
679.07	1705.96
679.25	1767.40
679.44	1701.86
679.63	1595.37
679.81	1701.86
680.00	1773.54
680.18	1806.31
680.37	1781.73
680.55	1673.19
680.74	1617.90
680.93	1585.13
681.11	1726.44
681.30	1753.06
681.48	1693.67
681.67	1685.48
681.85	1722.34
682.04	1765.35
682.23	1742.82
682.41	1656.81
682.60	1677.29
682.78	1746.92
682.97	1693.67
683.15	1665.00
683.34	1726.44
683.53	1734.63
683.71	1708.01
683.90	1820.64
684.08	1765.35
684.27	1771.49
684.45	1714.15
684.64	1769.44
684.82	1628.14
685.01	1714.15
685.19	1818.60
685.38	1808.36
685.57	1777.64
685.75	1591.27
685.94	1728.49
686.12	1718.25
686.31	1691.62
686.49	1837.03
686.68	1566.70
686.86	1687.53
687.05	1726.44
687.23	1781.73
687.42	1738.73
687.60	1607.66
687.79	1734.63
687.97	1787.88
688.16	1804.26
688.34	1814.50
688.53	1646.57
688.71	1775.59
688.90	1718.25
689.08	1673.19
689.27	1624.04
689.45	1748.97
689.64	1773.54
689.82	1667.05
690.01	1753.06
690.19	1794.02
690.38	1716.20
690.56	1773.54
690.75	1658.85
690.93	1689.57
691.12	1673.19
691.30	1716.20
691.49	1673.19
691.67	1673.19
691.86	1806.31
692.04	1652.71
692.23	1783.78
692.41	1732.58
692.60	1837.03
692.78	1726.44
692.97	1761.25
693.15	1740.77
693.34	1779.68
693.52	1812.45
693.71	1646.57
693.89	1689.57
694.08	1624.04
694.26	1771.49
694.44	1787.88
694.63	1718.25
694.81	1640.42
695.00	1677.29
695.18	1763.30
695.37	1857.51
695.55	1769.44
695.74	1718.25
695.92	1687.53
696.10	1748.97
696.29	1656.81
696.47	1695.72
696.66	1634.28
696.84	1642.47
697.03	1740.77
697.21	1847.27
697.40	2342.88
697.58	1767.40
697.76	1740.77
697.95	1730.53
698.13	1638.38
698.32	1712.10
698.50	1726.44
698.68	1738.73
698.87	1720.29
699.05	1744.87
699.24	1699.81
699.42	1740.77
699.61	1734.63
699.79	1783.78
699.97	1677.29
700.16	1630.18
700.34	1669.09
700.53	1705.96
700.71	1812.45
700.89	1800.16
701.08	1679.33
701.26	1740.77
701.45	2088.93
701.63	1652.71
701.81	1640.42
702.00	1642.47
702.18	1714.15
702.37	1652.71
702.55	1689.57
702.73	1693.67
702.92	1615.85
703.10	1787.88
703.28	1796.07
703.47	1650.66
703.65	1796.07
703.84	1705.96
704.02	1673.19
704.20	1796.07
704.39	1621.99
704.57	1734.63
704.75	1740.77
704.94	1810.40
705.12	1777.64
705.30	1769.44
705.49	2281.44
705.67	4245.44
705.86	9353.07
706.04	12648.26
706.22	14765.85
706.41	15435.54
706.59	13815.60
706.77	9629.55
706.96	7325.58
707.14	6586.27
707.32	5965.73
707.51	5498.80
707.69	4888.50
707.87	4155.33
708.06	3624.90
708.24	2883.54
708.42	2469.85
708.61	2267.10
708.79	1869.80
708.97	1785.83
709.16	1837.03
709.34	1746.92
709.52	1687.53
709.71	1763.30
709.89	1748.97
710.07	1746.92
710.26	1662.95
710.44	1724.39
710.62	1683.43
710.80	1652.71
710.99	1802.21
711.17	1697.77
711.35	1673.19
711.54	1746.92
711.72	1816.55
711.90	1751.01
712.09	1695.72
712.27	1648.61
712.45	1726.44
712.63	1765.35
712.82	1701.86
713.00	1703.91
713.18	1820.64
713.37	1853.41
713.55	1746.92
713.73	1736.68
713.91	1724.39
714.10	1695.72
714.28	1667.05
714.46	1699.81
714.65	1804.26
714.83	1773.54
715.01	1728.49
715.19	1742.82
715.38	1687.53
715.56	1779.68
715.74	1769.44
715.92	1705.96
716.11	1779.68
716.29	1593.32
716.47	1716.20
716.65	1650.66
716.84	1648.61
717.02	1703.91
717.20	1642.47
717.38	1677.29
717.57	1783.78
717.75	1751.01
717.93	1636.33
718.11	1685.48
718.30	1597.42
718.48	1560.55
718.66	1751.01
718.84	1798.12
719.03	1671.14
719.21	1675.24
719.39	1720.29
719.57	1810.40
719.75	1748.97
719.94	1689.57
720.12	1675.24
720.30	1687.53
720.48	1814.50
720.67	1626.09
720.85	1638.38
721.03	1761.25
721.21	1734.63
721.39	1724.39
721.58	1773.54
721.76	1748.97
721.94	1697.77
722.12	1665.00
722.30	1798.12
722.49	1769.44
722.67	1708.01
722.85	1736.68
723.03	1609.70
723.21	1687.53
723.40	1669.09
723.58	1814.50
723.76	1669.09
723.94	1783.78
724.12	1667.05
724.30	1787.88
724.49	1710.05
724.67	1617.90
724.85	1828.84
725.03	1638.38
725.21	1746.92
725.40	1753.06
725.58	1644.52
725.76	1798.12
725.94	1710.05
726.12	1583.08
726.30	1716.20
726.49	1712.10
726.67	1787.88
726.85	1728.49
727.03	1738.73
727.21	2199.52
727.39	3008.47
727.57	3815.37
727.76	4267.97
727.94	4474.81
728.12	4458.43
728.30	3702.73
728.48	2893.78
728.66	2701.27
728.84	2523.10
729.03	2273.25
729.21	2119.65
729.39	1986.53
729.57	1945.57
729.75	1804.26
729.93	1804.26
730.11	1767.40
730.30	1677.29
730.48	1691.62
730.66	1832.93
730.84	1734.63
731.02	1650.66
731.20	1693.67
731.38	1783.78
731.56	1568.74
731.74	1624.04
731.93	1703.91
732.11	1677.29
732.29	1730.53
732.47	1781.73
732.65	1779.68
732.83	1789.92
733.01	1683.43
733.19	1757.16
733.37	1761.25
733.56	1683.43
733.74	1648.61
733.92	1824.74
734.10	1693.67
734.28	1718.25
734.46	1599.46
734.64	1665.00
734.82	1640.42
735.00	1644.52
735.18	1665.00
735.36	1689.57
735.54	1744.87
735.73	1683.43
735.91	1699.81
736.09	1746.92
736.27	1730.53
736.45	1728.49
736.63	1624.04
736.81	1669.09
736.99	1781.73
737.17	1730.53
737.35	1740.77
737.53	1734.63
737.71	1714.15
737.89	1736.68
738.07	1748.97
738.25	1652.71
738.43	1697.77
738.61	1751.01
738.80	1730.53
738.98	1681.38
739.16	1701.86
739.34	1679.33
739.52	1798.12
739.70	1675.24
739.88	1714.15
740.06	1828.84
740.24	1652.71
740.42	1791.97
740.60	1646.57
740.78	1726.44
740.96	1628.14
741.14	1689.57
741.32	1722.34
741.50	1652.71
741.68	1861.60
741.86	1701.86
742.04	1656.81
742.22	1638.38
742.40	1738.73
742.58	1695.72
742.76	1609.70
742.94	1783.78
743.12	1619.94
743.30	1662.95
743.48	1738.73
743.66	1648.61
743.84	1763.30
744.02	1716.20
744.20	1722.34
744.38	1630.18
744.56	1654.76
744.74	1837.03
744.92	1783.78
745.10	1800.16
745.28	1697.77
745.46	1800.16
745.64	1658.85
745.82	1689.57
746.00	1683.43
746.18	1716.20
746.36	1677.29
746.54	1699.81
746.72	1755.11
746.90	1798.12
747.08	1841.12
747.26	1703.91
747.44	1779.68
747.62	1720.29
747.80	1722.34
747.98	1761.25
748.15	1656.81
748.33	1820.64
748.51	1677.29
748.69	1726.44
748.87	1660.90
749.05	1609.70
749.23	1648.61
749.41	1732.58
749.59	1681.38
749.77	1755.11
749.95	1691.62
750.13	1638.38
750.31	1703.91
750.49	1720.29
750.67	1822.69
750.85	1841.12
751.03	1705.96
751.20	1822.69
751.38	1697.77
751.56	1708.01
751.74	1654.76
751.92	1675.24
752.10	1669.09
752.28	1853.41
752.46	1652.71
752.64	1691.62
752.82	1789.92
753.00	1742.82
753.18	1716.20
753.35	1812.45
753.53	1720.29
753.71	1738.73
753.89	1761.25
754.07	1708.01
754.25	1798.12
754.43	1787.88
754.61	1597.42
754.79	1726.44
754.97	1695.72
755.14	1789.92
755.32	1648.61
755.50	1705.96
755.68	1642.47
755.86	1759.21
756.04	1619.94
756.22	1669.09
756.40	1703.91
756.57	1751.01
756.75	1701.86
756.93	1738.73
757.11	1802.21
757.29	1632.23
757.47	1685.48
757.65	1624.04
757.82	1574.89
758.00	1652.71
758.18	1644.52
758.36	1667.05
758.54	1796.07
758.72	1775.59
758.90	1785.83
759.07	1775.59
759.25	1617.90
759.43	1722.34
759.61	1726.44
759.79	2273.25
759.97	1779.68
760.15	1665.00
760.32	1742.82
760.50	1742.82
760.68	1816.55
760.86	1570.79
761.04	1730.53
761.22	1765.35
761.39	1716.20
761.57	1761.25
761.75	1779.68
761.93	1718.25
762.11	1728.49
762.28	1685.48
762.46	1658.85
762.64	1769.44
762.82	1634.28
763.00	1691.62
763.18	1828.84
763.35	1601.51
763.53	1744.87
763.71	1759.21
763.89	1685.48
764.07	1753.06
764.24	1751.01
764.42	1687.53
764.60	1708.01
764.78	1720.29
764.96	1808.36
765.13	1812.45
765.31	1675.24
765.49	1730.53
765.67	1665.00
765.84	1689.57
766.02	1644.52
766.20	1677.29
766.38	1675.24
766.56	1730.53
766.73	1771.49
766.91	1720.29
767.09	1742.82
767.27	1824.74
767.44	1687.53
767.62	1724.39
767.80	1806.31
767.98	1798.12
768.15	1652.71
768.33	1716.20
768.51	1757.16
768.69	1767.40
768.87	1730.53
769.04	1683.43
769.22	1865.70
769.40	1806.31
769.58	1875.94
769.75	1740.77
769.93	1841.12
770.11	1695.72
770.28	1691.62
770.46	1705.96
770.64	1683.43
770.82	1703.91
770.99	1697.77
771.17	1783.78
771.35	1673.19
771.53	1701.86
771.70	1607.66
771.88	1734.63
772.06	1644.52
772.23	1683.43
772.41	1787.88
772.59	1734.63
772.77	1603.56
772.94	1671.14
773.12	1751.01
773.30	1601.51
773.47	1738.73
773.65	1607.66
773.83	1767.40
774.01	1648.61
774.18	1648.61
774.36	1634.28
774.54	1632.23
774.71	1798.12
774.89	1609.70
775.07	1617.90
775.24	1621.99
775.42	1720.29
775.60	1904.61
775.78	1662.95
775.95	1548.26
776.13	1583.08
776.31	1587.18
776.48	1736.68
776.66	1738.73
776.84	1671.14
777.01	1626.09
777.19	1763.30
777.37	1662.95
777.54	1779.68
777.72	1865.70
777.90	1751.01
778.07	1683.43
778.25	1908.71
778.43	1720.29
778.60	1681.38
778.78	1757.16
778.96	1798.12
779.13	1675.24
779.31	1765.35
779.49	1683.43
779.66	1705.96
779.84	1667.05
780.01	1665.00
780.19	1722.34
780.37	1726.44
780.54	1771.49
780.72	1578.98
780.90	1652.71
781.07	1636.33
781.25	1665.00
781.43	1748.97
781.60	1736.68
781.78	1767.40
781.95	1748.97
782.13	1697.77
782.31	1624.04
782.48	1609.70
782.66	1714.15
782.83	1798.12
783.01	1808.36
783.19	1777.64
783.36	1730.53
783.54	1646.57
783.72	1787.88
783.89	1681.38
784.07	1763.30
784.24	1636.33
784.42	1828.84
784.60	1677.29
784.77	1726.44
784.95	1648.61
785.12	1695.72
785.30	1697.77
785.47	1607.66
785.65	1654.76
785.83	1730.53
786.00	1683.43
786.18	1710.05
786.35	1671.14
786.53	1677.29
786.71	1771.49
786.88	1808.36
787.06	1724.39
787.23	1712.10
787.41	1673.19
787.58	1769.44
787.76	1734.63
787.94	1730.53
788.11	1787.88
788.29	1650.66
788.46	1728.49
788.64	1589.22
788.81	1738.73
788.99	1681.38
789.16	1626.09
789.34	1726.44
789.52	1673.19
789.69	1734.63
789.87	1689.57
790.04	1710.05
790.22	1687.53
790.39	1845.22
790.57	1642.47
790.74	1636.33
790.92	1710.05
791.09	1650.66
791.27	1710.05
791.44	1701.86
791.62	1759.21
791.79	1767.40
791.97	1658.85
792.15	1812.45
792.32	1769.44
792.50	1773.54
792.67	1826.79
792.85	1789.92
793.02	1693.67
793.20	1650.66
793.37	1685.48
793.55	1734.63
793.72	1640.42
793.90	1757.16
794.07	1646.57
794.25	1705.96
794.42	1648.61
794.60	1681.38
794.77	1611.75
794.95	1736.68
795.12	1736.68
795.30	1775.59
795.47	1617.90
795.65	1902.56
795.82	1763.30
796.00	1712.10
796.17	1714.15
796.34	1734.63
796.52	1701.86
796.69	1800.16
796.87	1701.86
797.04	1746.92
797.22	1841.12
797.39	1701.86
797.57	1783.78
797.74	1755.11
797.92	1710.05
798.09	1675.24
798.27	1759.21
798.44	1771.49
798.62	1697.77
798.79	1761.25
798.96	1683.43
799.14	1673.19
799.31	1828.84
799.49	1669.09
799.66	1605.61
799.84	1607.66
800.01	1665.00
800.19	1650.66
800.36	1658.85
800.53	1677.29
800.71	1732.58
800.88	1808.36
801.06	1628.14
801.23	1742.82
801.41	1669.09
801.58	1671.14
801.75	1662.95
801.93	1665.00
802.10	1808.36
802.28	1607.66
802.45	1712.10
802.63	1773.54
802.80	1789.92
802.97	1732.58
803.15	1654.76
803.32	1712.10
803.50	1687.53
803.67	1646.57
803.84	1650.66
804.02	1712.10
804.19	1718.25
804.37	1632.23
804.54	1708.01
804.71	1703.91
804.89	1742.82
805.06	1679.33
805.24	1677.29
805.41	1691.62
805.58	1738.73
805.76	1845.22
805.93	1710.05
806.10	1828.84
806.28	1701.86
806.45	1652.71
806.63	1779.68
806.80	1736.68
806.97	1673.19
807.15	1718.25
807.32	1703.91
807.49	1714.15
807.67	1636.33
807.84	1806.31
808.01	1624.04
808.19	1853.41
808.36	1783.78
808.54	1765.35
808.71	1701.86
808.88	1736.68
809.06	1775.59
809.23	1789.92
809.40	1646.57
809.58	1759.21
809.75	1642.47
809.92	1558.50
810.10	1822.69
810.27	1705.96
810.44	1710.05
810.62	1761.25
810.79	1787.88
810.96	1699.81
811.14	1654.76
811.31	1789.92
811.48	1777.64
811.66	1697.77
811.83	1800.16
812.00	1726.44
812.18	1701.86
812.35	1828.84
812.52	1673.19
812.69	1681.38
812.87	1669.09
813.04	1685.48
813.21	1613.80
813.39	1695.72
813.56	1679.33
813.73	1746.92
813.91	1665.00
814.08	1730.53
814.25	1681.38
814.42	1624.04
814.60	1710.05
814.77	1871.84
814.94	1650.66
815.12	1677.29
815.29	1814.50
815.46	1665.00
815.63	1687.53
815.81	1789.92
815.98	1720.29
816.15	1730.53
816.33	1751.01
816.50	1626.09
816.67	1710.05
816.84	1705.96
817.02	1640.42
817.19	1695.72
817.36	1802.21
817.53	1708.01
817.71	1587.18
817.88	1742.82
818.05	1734.63
818.22	1746.92
818.40	1773.54
818.57	1648.61
818.74	1693.67
818.91	1746.92
819.09	1755.11
819.26	1683.43
819.43	1722.34
819.60	1693.67
819.78	1791.97
819.95	1806.31
820.12	1644.52
820.29	1777.64
820.47	1710.05
820.64	1703.91
820.81	1552.36
820.98	1751.01
821.15	1720.29
821.33	1757.16
821.50	1669.09
821.67	1777.64
821.84	1771.49
822.02	1708.01
822.19	1740.77
822.36	1730.53
822.53	1738.73
822.70	1638.38
822.88	1630.18
823.05	1820.64
823.22	1695.72
823.39	1716.20
823.56	1701.86
823.74	1720.29
823.91	1671.14
824.08	1673.19
824.25	1669.09
824.42	1843.17
824.60	1626.09
824.77	1667.05
824.94	1691.62
825.11	1714.15
825.28	1605.61
825.45	1701.86
825.63	1673.19
825.80	1748.97
825.97	1742.82
826.14	1689.57
826.31	1722.34
826.48	1841.12
826.66	1673.19
826.83	1677.29
827.00	1769.44
827.17	1693.67
827.34	1642.47
827.51	1652.71
827.69	1708.01
827.86	1658.85
828.03	1710.05
828.20	1619.94
828.37	1693.67
828.54	1740.77
828.71	1714.15
828.89	1875.94
829.06	1703.91
829.23	1773.54
829.40	1644.52
829.57	1763.30
829.74	1787.88
829.91	1615.85
830.09	1720.29
830.26	1796.07
830.43	1734.63
830.60	1642.47
830.77	1796.07
830.94	1742.82
831.11	1755.11
831.28	1701.86
831.46	1880.04
831.63	1710.05
831.80	1787.88
831.97	1695.72
832.14	1638.38
832.31	1726.44
832.48	1708.01
832.65	1640.42
832.82	1755.11
832.99	1789.92
833.17	1654.76
833.34	1730.53
833.51	1732.58
833.68	1597.42
833.85	1742.82
834.02	1689.57
834.19	1693.67
834.36	1626.09
834.53	1736.68
834.70	1748.97
834.87	1689.57
835.04	1701.86
835.22	1630.18
835.39	1689.57
835.56	1665.00
835.73	1654.76
835.90	1783.78
836.07	1628.14
836.24	1767.40
836.41	1654.76
836.58	1628.14
836.75	1753.06
836.92	1734.63
837.09	1605.61
837.26	1794.02
837.43	1699.81
837.60	1818.60
837.77	1646.57
837.94	1738.73
838.12	1734.63
838.29	1632.23
838.46	1638.38
838.63	1671.14
838.80	1886.18
838.97	1701.86
839.14	1738.73
839.31	1615.85
839.48	1710.05
839.65	1697.77
839.82	1740.77
839.99	1619.94
840.16	1722.34
840.33	1726.44
840.50	1730.53
840.67	1632.23
840.84	1632.23
841.01	1724.39
841.18	1660.90
841.35	1669.09
841.52	1738.73
841.69	1884.13
841.86	1665.00
842.03	1714.15
842.20	1769.44
842.37	1716.20
842.54	1703.91
842.71	1652.71
842.88	1626.09
843.05	1734.63
843.22	1728.49
843.39	1740.77
843.56	1675.24
843.73	1722.34
843.90	1746.92
844.07	1732.58
844.24	1667.05
844.41	1744.87
844.58	1712.10
844.75	1685.48
844.92	1759.21
845.09	1728.49
845.26	1673.19
845.43	1732.58
845.60	1665.00
845.77	1681.38
845.94	1705.96
846.10	1798.12
846.27	1619.94
846.44	1673.19
846.61	1656.81
846.78	1703.91
846.95	1810.40
847.12	1689.57
847.29	1689.57
847.46	1726.44
847.63	1726.44
847.80	1681.38
847.97	1699.81
848.14	1857.51
848.31	1613.80
848.48	1609.70
848.65	1722.34
848.82	1691.62
848.98	1839.08
849.15	1761.25
849.32	1734.63
849.49	1740.77
849.66	1693.67
849.83	1757.16
850.00	1605.61
850.17	1753.06
850.34	1665.00
850.51	1669.09
850.68	1714.15
850.85	1800.16
851.01	1685.48
851.18	1710.05
851.35	1656.81
851.52	1738.73
851.69	1771.49
851.86	1640.42
852.03	1644.52
852.20	1665.00
852.37	1724.39
852.53	1681.38
852.70	1742.82
852.87	1681.38
853.04	1755.11
853.21	1665.00
853.38	1740.77
853.55	1748.97
853.72	1789.92
853.89	1699.81
854.05	1548.26
854.22	1632.23
854.39	1765.35
854.56	1736.68
854.73	1822.69
854.90	1667.05
855.07	1708.01
855.23	1638.38
855.40	1691.62
855.57	1685.48
855.74	1548.26
855.91	1804.26
856.08	1667.05
856.25	1597.42
856.41	1685.48
856.58	1665.00
856.75	1652.71
856.92	1689.57
857.09	1697.77
857.26	1597.42
857.42	1746.92
857.59	1730.53
857.76	1677.29
857.93	1687.53
858.10	1665.00
858.27	1714.15
858.43	1658.85
858.60	1617.90
858.77	1550.31
858.94	1683.43
859.11	1724.39
859.27	1673.19
859.44	1642.47
859.61	1849.32
859.78	1726.44
859.95	1697.77
860.12	1738.73
860.28	1837.03
860.45	1904.61
860.62	1654.76
860.79	1669.09
860.95	1607.66
861.12	1716.20
861.29	1644.52
861.46	1730.53
861.63	1693.67
861.79	1748.97
861.96	1652.71
862.13	1714.15
862.30	1773.54
862.47	1740.77
862.63	1693.67
862.80	1767.40
862.97	1763.30
863.14	1695.72
863.30	1728.49
863.47	1628.14
863.64	1785.83
863.81	1681.38
863.97	1705.96
864.14	1753.06
864.31	1763.30
864.48	1673.19
864.65	1689.57
864.81	1748.97
864.98	1773.54
865.15	1751.01
865.32	1748.97
865.48	1787.88
865.65	1714.15
865.82	1595.37
865.98	1724.39
866.15	1763.30
866.32	1624.04
866.49	1714.15
866.65	1771.49
866.82	1628.14
866.99	1632.23
867.16	1667.05
867.32	1751.01
867.49	1695.72
867.66	1718.25
867.83	1642.47
867.99	1570.79
868.16	1665.00
868.33	1726.44
868.49	1728.49
868.66	1626.09
868.83	1712.10
868.99	1773.54
869.16	1691.62
869.33	1798.12
869.50	1751.01
869.66	1677.29
869.83	1699.81
870.00	1585.13
870.16	1767.40
870.33	1708.01
870.50	1787.88
870.66	1728.49
870.83	1826.79
871.00	1746.92
871.17	1685.48
871.33	1726.44
871.50	1689.57
871.67	1724.39
871.83	1619.94
872.00	1810.40
872.17	1662.95
872.33	1810.40
872.50	1771.49
872.67	1681.38
872.83	1685.48
873.00	1767.40
873.17	1685.48
873.33	1855.46
873.50	1714.15
873.67	1673.19
873.83	1740.77
874.00	1751.01
874.16	1740.77
874.33	1763.30
874.50	1714.15
874.66	1746.92
874.83	1689.57
875.00	1794.02
875.16	1748.97
875.33	1826.79
875.50	1578.98
875.66	1605.61
875.83	1759.21
875.99	1775.59
876.16	1652.71
876.33	1681.38
876.49	1693.67
876.66	1679.33
876.83	1652.71
876.99	1640.42
877.16	1638.38
877.32	1673.19
877.49	1656.81
877.66	1703.91
877.82	1851.36
877.99	1710.05
878.15	1736.68
878.32	1705.96
878.49	1777.64
878.65	1779.68
878.82	1738.73
878.98	1585.13
879.15	1751.01
879.32	1726.44
879.48	1705.96
879.65	1689.57
879.81	1732.58
879.98	1718.25
880.15	1634.28
880.31	1712.10
880.48	1673.19
880.64	1728.49
880.81	1771.49
880.97	1777.64
881.14	1791.97
881.31	1621.99
881.47	1892.32
881.64	1705.96
881.80	1615.85
881.97	1732.58
882.13	1796.07
882.30	1677.29
882.47	1712.10
882.63	1691.62
882.80	1648.61
882.96	1724.39
883.13	1757.16
883.29	1742.82
883.46	1681.38
883.62	1802.21
883.79	1691.62
883.95	1681.38
884.12	1695.72
884.29	1714.15
884.45	1714.15
884.62	1669.09
884.78	1701.86
884.95	1771.49
885.11	1673.19
885.28	1757.16
885.44	1734.63
885.61	1771.49
885.77	1824.74
885.94	1755.11
886.10	1722.34
886.27	1687.53
886.43	1775.59
886.60	1810.40
886.76	1683.43
886.93	1611.75
887.09	1789.92
887.26	1642.47
887.42	1646.57
887.59	1726.44
887.75	1804.26
887.92	1800.16
888.08	1777.64
888.25	1787.88
888.41	1773.54
888.58	1740.77
888.74	1652.71
888.91	1660.90
>>>>>End Processed Spectral Data<<<<<
