SpectraSuite Data File
++++++++++++++++++++++++++++++++++++
Date: Mon Jun 06 13:39:17 CEST 2016
User: root
Dark Spectrum Present: No
Reference Spectrum Present: No
Number of Sampled Component Spectra: 1
Spectrometers: USB4C02835
Integration Time (usec): 100000 (USB4C02835)
Spectra Averaged: 1 (USB4C02835)
Boxcar Smoothing: 0 (USB4C02835)
Correct for Electrical Dark: No (USB4C02835)
Strobe/Lamp Enabled: No (USB4C02835)
Correct for Detector Non-linearity: No (USB4C02835)
Correct for Stray Light: No (USB4C02835)
Number of Pixels in Processed Spectrum: 3648
>>>>>Begin Processed Spectral Data<<<<<
177.47	1462.25
177.69	1462.25
177.91	1462.25
178.13	1535.98
178.36	1501.16
178.58	1624.04
178.80	1654.76
179.02	1593.32
179.24	1658.85
179.46	1667.05
179.68	1767.40
179.90	1693.67
180.13	1712.10
180.35	1585.13
180.57	1679.33
180.79	1693.67
181.01	1736.68
181.23	1734.63
181.45	1798.12
181.67	1736.68
181.90	1767.40
182.12	1660.90
182.34	1638.38
182.56	1644.52
182.78	1708.01
183.00	1673.19
183.22	1732.58
183.44	1662.95
183.66	1804.26
183.89	1804.26
184.11	1751.01
184.33	1669.09
184.55	1746.92
184.77	1695.72
184.99	1718.25
185.21	1705.96
185.43	1863.65
185.65	1658.85
185.87	1658.85
186.10	1890.28
186.32	1800.16
186.54	1665.00
186.76	1732.58
186.98	1689.57
187.20	1705.96
187.42	1656.81
187.64	1679.33
187.86	1730.53
188.08	1740.77
188.30	1665.00
188.52	1624.04
188.75	1755.11
188.97	1644.52
189.19	1701.86
189.41	1673.19
189.63	1720.29
189.85	1658.85
190.07	1626.09
190.29	1628.14
190.51	1742.82
190.73	1568.74
190.95	1806.31
191.17	1685.48
191.39	1673.19
191.61	1685.48
191.84	1728.49
192.06	1763.30
192.28	1619.94
192.50	1886.18
192.72	1619.94
192.94	1665.00
193.16	1695.72
193.38	1732.58
193.60	1679.33
193.82	1671.14
194.04	1730.53
194.26	1650.66
194.48	1619.94
194.70	1755.11
194.92	1646.57
195.14	1730.53
195.36	1728.49
195.58	1681.38
195.80	1621.99
196.02	1724.39
196.24	1697.77
196.46	1695.72
196.69	1665.00
196.91	1843.17
197.13	1656.81
197.35	1730.53
197.57	1804.26
197.79	1765.35
198.01	1691.62
198.23	1757.16
198.45	1683.43
198.67	1654.76
198.89	1724.39
199.11	1669.09
199.33	1589.22
199.55	1542.12
199.77	1640.42
199.99	1783.78
200.21	1646.57
200.43	1636.33
200.65	1621.99
200.87	1615.85
201.09	1624.04
201.31	1654.76
201.53	1691.62
201.75	1671.14
201.97	1673.19
202.19	1712.10
202.41	1738.73
202.63	1775.59
202.85	1761.25
203.07	1718.25
203.29	1589.22
203.51	1677.29
203.73	1636.33
203.95	1886.18
204.17	1716.20
204.39	1710.05
204.61	1671.14
204.83	1640.42
205.05	1671.14
205.27	1705.96
205.49	1800.16
205.71	1648.61
205.93	1613.80
206.15	1652.71
206.37	1669.09
206.59	1703.91
206.81	1642.47
207.03	1621.99
207.25	1644.52
207.47	1753.06
207.69	1740.77
207.91	1806.31
208.13	1744.87
208.34	1722.34
208.56	1671.14
208.78	1724.39
209.00	1665.00
209.22	1689.57
209.44	1708.01
209.66	1705.96
209.88	1650.66
210.10	1734.63
210.32	1669.09
210.54	1748.97
210.76	1646.57
210.98	1759.21
211.20	1607.66
211.42	1730.53
211.64	1753.06
211.86	1712.10
212.08	1767.40
212.30	1726.44
212.52	1689.57
212.74	1710.05
212.96	1705.96
213.17	1689.57
213.39	1742.82
213.61	1765.35
213.83	1646.57
214.05	1548.26
214.27	1763.30
214.49	1607.66
214.71	1671.14
214.93	1714.15
215.15	1662.95
215.37	1710.05
215.59	1632.23
215.81	1648.61
216.03	1757.16
216.24	1714.15
216.46	1675.24
216.68	1712.10
216.90	1736.68
217.12	1705.96
217.34	1685.48
217.56	1683.43
217.78	1732.58
218.00	1720.29
218.22	1667.05
218.44	1763.30
218.66	1761.25
218.87	1789.92
219.09	1603.56
219.31	1726.44
219.53	1642.47
219.75	1691.62
219.97	1742.82
220.19	1720.29
220.41	1654.76
220.63	1806.31
220.85	1685.48
221.06	1662.95
221.28	1810.40
221.50	1798.12
221.72	1652.71
221.94	1710.05
222.16	1652.71
222.38	1820.64
222.60	1763.30
222.82	1722.34
223.03	1771.49
223.25	1619.94
223.47	1732.58
223.69	1841.12
223.91	1675.24
224.13	1691.62
224.35	1691.62
224.57	1722.34
224.78	1703.91
225.00	1550.31
225.22	1673.19
225.44	1716.20
225.66	1679.33
225.88	1658.85
226.10	1783.78
226.32	1673.19
226.53	1834.98
226.75	1648.61
226.97	1742.82
227.19	1689.57
227.41	1701.86
227.63	1662.95
227.85	1595.37
228.06	1665.00
228.28	1601.51
228.50	1724.39
228.72	1710.05
228.94	1708.01
229.16	1638.38
229.37	1697.77
229.59	1636.33
229.81	1748.97
230.03	1656.81
230.25	1617.90
230.47	1652.71
230.69	1599.46
230.90	1708.01
231.12	1679.33
231.34	1638.38
231.56	1771.49
231.78	1630.18
232.00	1673.19
232.21	1646.57
232.43	1642.47
232.65	1564.65
232.87	1757.16
233.09	1591.27
233.30	1753.06
233.52	1763.30
233.74	1665.00
233.96	1703.91
234.18	1665.00
234.40	1726.44
234.61	1841.12
234.83	1628.14
235.05	1628.14
235.27	1873.89
235.49	1775.59
235.70	1703.91
235.92	1718.25
236.14	1660.90
236.36	1769.44
236.58	1583.08
236.79	1730.53
237.01	1675.24
237.23	1667.05
237.45	1812.45
237.67	1658.85
237.88	1648.61
238.10	1769.44
238.32	1665.00
238.54	1689.57
238.76	1628.14
238.97	1724.39
239.19	1667.05
239.41	1714.15
239.63	1779.68
239.85	1642.47
240.06	1689.57
240.28	1714.15
240.50	1765.35
240.72	1705.96
240.93	1689.57
241.15	1802.21
241.37	1703.91
241.59	1779.68
241.81	1693.67
242.02	1681.38
242.24	1757.16
242.46	1671.14
242.68	1648.61
242.89	1701.86
243.11	1824.74
243.33	1712.10
243.55	1718.25
243.76	1710.05
243.98	1646.57
244.20	1732.58
244.42	1740.77
244.64	1697.77
244.85	1646.57
245.07	1621.99
245.29	1775.59
245.51	1605.61
245.72	1767.40
245.94	1820.64
246.16	1708.01
246.38	1728.49
246.59	1714.15
246.81	1697.77
247.03	1619.94
247.24	1611.75
247.46	1683.43
247.68	1679.33
247.90	1722.34
248.11	1636.33
248.33	1736.68
248.55	1667.05
248.77	1742.82
248.98	1771.49
249.20	1716.20
249.42	1714.15
249.64	1716.20
249.85	1613.80
250.07	1648.61
250.29	1697.77
250.50	1773.54
250.72	1640.42
250.94	1763.30
251.16	1789.92
251.37	1757.16
251.59	1687.53
251.81	1716.20
252.02	1775.59
252.24	1718.25
252.46	1767.40
252.68	1671.14
252.89	1677.29
253.11	1595.37
253.33	1820.64
253.54	1861.60
253.76	1585.13
253.98	1748.97
254.20	1701.86
254.41	1597.42
254.63	1693.67
254.85	1644.52
255.06	1597.42
255.28	1771.49
255.50	1652.71
255.71	1716.20
255.93	1630.18
256.15	1652.71
256.36	1718.25
256.58	1671.14
256.80	1757.16
257.02	1689.57
257.23	1634.28
257.45	1691.62
257.67	1751.01
257.88	1671.14
258.10	1734.63
258.32	1697.77
258.53	1697.77
258.75	1759.21
258.97	1665.00
259.18	1722.34
259.40	1726.44
259.62	1773.54
259.83	1724.39
260.05	1748.97
260.27	2033.63
260.48	1734.63
260.70	1648.61
260.92	1685.48
261.13	1714.15
261.35	1732.58
261.57	1683.43
261.78	1583.08
262.00	1685.48
262.22	1720.29
262.43	1695.72
262.65	1677.29
262.86	1724.39
263.08	1949.67
263.30	1708.01
263.51	1607.66
263.73	1591.27
263.95	1769.44
264.16	1677.29
264.38	1619.94
264.60	1785.83
264.81	1728.49
265.03	1718.25
265.25	1746.92
265.46	1757.16
265.68	1794.02
265.89	1763.30
266.11	1597.42
266.33	1691.62
266.54	1753.06
266.76	1710.05
266.98	1712.10
267.19	1796.07
267.41	1755.11
267.62	1708.01
267.84	1667.05
268.06	1710.05
268.27	1673.19
268.49	1765.35
268.70	1755.11
268.92	1697.77
269.14	1648.61
269.35	1714.15
269.57	1722.34
269.79	1771.49
270.00	1693.67
270.22	1800.16
270.43	1638.38
270.65	1615.85
270.87	1705.96
271.08	1691.62
271.30	1810.40
271.51	1718.25
271.73	1712.10
271.95	1757.16
272.16	1644.52
272.38	1705.96
272.59	1638.38
272.81	1658.85
273.02	1722.34
273.24	1689.57
273.46	1701.86
273.67	1640.42
273.89	1671.14
274.10	1654.76
274.32	1757.16
274.54	1779.68
274.75	1669.09
274.97	1675.24
275.18	1804.26
275.40	1718.25
275.61	1695.72
275.83	1722.34
276.05	1673.19
276.26	1744.87
276.48	1771.49
276.69	1755.11
276.91	1605.61
277.12	1753.06
277.34	1763.30
277.55	1718.25
277.77	1708.01
277.99	1628.14
278.20	1626.09
278.42	1722.34
278.63	1624.04
278.85	1708.01
279.06	1578.98
279.28	1689.57
279.49	1775.59
279.71	1732.58
279.93	1728.49
280.14	1716.20
280.36	1689.57
280.57	1767.40
280.79	1736.68
281.00	1611.75
281.22	1662.95
281.43	1771.49
281.65	1624.04
281.86	1564.65
282.08	1738.73
282.29	1800.16
282.51	1587.18
282.73	1646.57
282.94	1615.85
283.16	1662.95
283.37	1839.08
283.59	1703.91
283.80	1712.10
284.02	1697.77
284.23	1701.86
284.45	1677.29
284.66	1613.80
284.88	1687.53
285.09	1748.97
285.31	1730.53
285.52	1722.34
285.74	1646.57
285.95	1716.20
286.17	1665.00
286.38	1812.45
286.60	1697.77
286.81	1742.82
287.03	1660.90
287.24	1619.94
287.46	1740.77
287.67	1697.77
287.89	1853.41
288.10	1697.77
288.32	1681.38
288.53	1765.35
288.75	1697.77
288.96	1648.61
289.18	1720.29
289.39	1726.44
289.61	1771.49
289.82	1875.94
290.04	1877.99
290.25	1615.85
290.47	1669.09
290.68	1687.53
290.90	1734.63
291.11	1621.99
291.33	1744.87
291.54	1607.66
291.76	1718.25
291.97	1777.64
292.18	1691.62
292.40	1695.72
292.61	1583.08
292.83	1738.73
293.04	1755.11
293.26	1687.53
293.47	1718.25
293.69	1660.90
293.90	1722.34
294.12	1775.59
294.33	1669.09
294.55	1736.68
294.76	1730.53
294.97	1734.63
295.19	1843.17
295.40	1730.53
295.62	1763.30
295.83	1699.81
296.05	1693.67
296.26	1746.92
296.48	1634.28
296.69	1679.33
296.90	1746.92
297.12	1761.25
297.33	1705.96
297.55	1804.26
297.76	1710.05
297.98	1720.29
298.19	1675.24
298.41	1710.05
298.62	1652.71
298.83	1824.74
299.05	1705.96
299.26	1689.57
299.48	1681.38
299.69	1705.96
299.90	1761.25
300.12	1691.62
300.33	1763.30
300.55	1755.11
300.76	1736.68
300.98	1648.61
301.19	1736.68
301.40	1669.09
301.62	1603.56
301.83	1726.44
302.05	1765.35
302.26	1738.73
302.47	1636.33
302.69	1650.66
302.90	1650.66
303.12	1703.91
303.33	1759.21
303.54	1851.36
303.76	1681.38
303.97	1736.68
304.19	1763.30
304.40	1728.49
304.61	1705.96
304.83	1720.29
305.04	1767.40
305.26	1781.73
305.47	1667.05
305.68	1720.29
305.90	1624.04
306.11	1736.68
306.33	1667.05
306.54	1675.24
306.75	1591.27
306.97	1654.76
307.18	1585.13
307.39	1673.19
307.61	1757.16
307.82	1636.33
308.04	1810.40
308.25	1589.22
308.46	1705.96
308.68	1703.91
308.89	1728.49
309.10	1769.44
309.32	1755.11
309.53	1726.44
309.74	1732.58
309.96	1662.95
310.17	1722.34
310.39	1628.14
310.60	1751.01
310.81	1755.11
311.03	1654.76
311.24	1773.54
311.45	1744.87
311.67	1824.74
311.88	1685.48
312.09	1644.52
312.31	1732.58
312.52	1708.01
312.73	1673.19
312.95	1658.85
313.16	1644.52
313.37	1826.79
313.59	1738.73
313.80	1755.11
314.01	1775.59
314.23	1734.63
314.44	1632.23
314.65	1605.61
314.87	1693.67
315.08	1687.53
315.29	1638.38
315.51	1683.43
315.72	1615.85
315.93	1767.40
316.15	1753.06
316.36	1652.71
316.57	1687.53
316.79	1781.73
317.00	1632.23
317.21	1796.07
317.43	1597.42
317.64	1724.39
317.85	1718.25
318.07	1636.33
318.28	1736.68
318.49	1765.35
318.70	1894.37
318.92	1873.89
319.13	1773.54
319.34	1837.03
319.56	1808.36
319.77	1767.40
319.98	1804.26
320.20	1751.01
320.41	1708.01
320.62	1691.62
320.83	1681.38
321.05	1855.46
321.26	1685.48
321.47	1650.66
321.69	1722.34
321.90	1677.29
322.11	1683.43
322.32	1642.47
322.54	1785.83
322.75	1638.38
322.96	1849.32
323.18	1648.61
323.39	1548.26
323.60	1632.23
323.81	1732.58
324.03	1679.33
324.24	1724.39
324.45	1677.29
324.66	1708.01
324.88	1789.92
325.09	1755.11
325.30	1648.61
325.52	1724.39
325.73	1677.29
325.94	1699.81
326.15	1677.29
326.37	1677.29
326.58	1796.07
326.79	1765.35
327.00	1642.47
327.22	1683.43
327.43	1714.15
327.64	1636.33
327.85	1726.44
328.07	1724.39
328.28	1755.11
328.49	1699.81
328.70	1722.34
328.92	1763.30
329.13	1624.04
329.34	1751.01
329.55	1791.97
329.76	1746.92
329.98	1699.81
330.19	1724.39
330.40	1710.05
330.61	1683.43
330.83	1779.68
331.04	1599.46
331.25	1714.15
331.46	1644.52
331.68	1630.18
331.89	1759.21
332.10	1703.91
332.31	1634.28
332.52	1714.15
332.74	1781.73
332.95	1636.33
333.16	1578.98
333.37	1775.59
333.58	1642.47
333.80	1656.81
334.01	1621.99
334.22	1703.91
334.43	1673.19
334.64	1667.05
334.86	1640.42
335.07	1652.71
335.28	1736.68
335.49	1626.09
335.70	1751.01
335.92	1714.15
336.13	1824.74
336.34	1714.15
336.55	1730.53
336.76	1734.63
336.98	1542.12
337.19	1689.57
337.40	1783.78
337.61	1826.79
337.82	1775.59
338.04	1794.02
338.25	1650.66
338.46	1656.81
338.67	1701.86
338.88	1638.38
339.09	1648.61
339.31	1677.29
339.52	1595.37
339.73	1607.66
339.94	1718.25
340.15	1773.54
340.36	1652.71
340.58	1685.48
340.79	1667.05
341.00	1869.80
341.21	1636.33
341.42	1775.59
341.63	1738.73
341.85	1767.40
342.06	1597.42
342.27	1638.38
342.48	1781.73
342.69	1691.62
342.90	1714.15
343.12	1791.97
343.33	1681.38
343.54	1804.26
343.75	1757.16
343.96	1675.24
344.17	1691.62
344.38	1564.65
344.60	1691.62
344.81	1581.03
345.02	1632.23
345.23	1712.10
345.44	1755.11
345.65	1806.31
345.86	1755.11
346.07	1736.68
346.29	1675.24
346.50	1716.20
346.71	1804.26
346.92	1769.44
347.13	1869.80
347.34	1654.76
347.55	1591.27
347.76	1740.77
347.98	1640.42
348.19	1601.51
348.40	1781.73
348.61	1640.42
348.82	1781.73
349.03	1708.01
349.24	1632.23
349.45	1824.74
349.66	1542.12
349.88	1777.64
350.09	1632.23
350.30	1789.92
350.51	1781.73
350.72	1675.24
350.93	1693.67
351.14	1650.66
351.35	1736.68
351.56	1701.86
351.77	1691.62
351.99	1779.68
352.20	1826.79
352.41	1763.30
352.62	1589.22
352.83	1685.48
353.04	1677.29
353.25	1675.24
353.46	1728.49
353.67	1648.61
353.88	1554.41
354.09	1724.39
354.30	1740.77
354.52	1710.05
354.73	1689.57
354.94	1628.14
355.15	1693.67
355.36	1787.88
355.57	1654.76
355.78	1746.92
355.99	1597.42
356.20	1732.58
356.41	1718.25
356.62	1767.40
356.83	1669.09
357.04	1791.97
357.25	1609.70
357.46	1685.48
357.68	1648.61
357.89	1640.42
358.10	1660.90
358.31	1732.58
358.52	1728.49
358.73	1597.42
358.94	1595.37
359.15	1685.48
359.36	1730.53
359.57	1636.33
359.78	1656.81
359.99	1742.82
360.20	1603.56
360.41	1677.29
360.62	1697.77
360.83	1654.76
361.04	1705.96
361.25	1705.96
361.46	1830.88
361.67	1650.66
361.88	1718.25
362.09	1781.73
362.30	1697.77
362.51	1691.62
362.72	1703.91
362.93	1724.39
363.14	1689.57
363.35	1675.24
363.56	1603.56
363.78	1746.92
363.99	1730.53
364.20	1687.53
364.41	1710.05
364.62	1794.02
364.83	1730.53
365.04	1710.05
365.25	1689.57
365.46	1785.83
365.67	1699.81
365.88	1570.79
366.09	1697.77
366.30	1667.05
366.51	1705.96
366.72	1644.52
366.93	1757.16
367.14	1718.25
367.35	1773.54
367.56	1681.38
367.77	1806.31
367.98	1716.20
368.18	1681.38
368.39	1791.97
368.60	1708.01
368.81	1740.77
369.02	1650.66
369.23	1757.16
369.44	1576.94
369.65	1667.05
369.86	1753.06
370.07	1753.06
370.28	1646.57
370.49	1734.63
370.70	1712.10
370.91	1578.98
371.12	1656.81
371.33	1722.34
371.54	1667.05
371.75	1869.80
371.96	1546.22
372.17	1748.97
372.38	1665.00
372.59	1736.68
372.80	1671.14
373.01	1587.18
373.22	1714.15
373.43	1732.58
373.64	1632.23
373.85	1826.79
374.06	1787.88
374.26	1775.59
374.47	1755.11
374.68	1771.49
374.89	1621.99
375.10	1658.85
375.31	1746.92
375.52	1701.86
375.73	1675.24
375.94	1640.42
376.15	1755.11
376.36	1562.60
376.57	1648.61
376.78	1671.14
376.99	1701.86
377.20	1748.97
377.40	1685.48
377.61	1796.07
377.82	1591.27
378.03	1779.68
378.24	1722.34
378.45	1699.81
378.66	1738.73
378.87	1599.46
379.08	1615.85
379.29	1642.47
379.50	1902.56
379.71	1708.01
379.91	1769.44
380.12	1650.66
380.33	1669.09
380.54	1648.61
380.75	1753.06
380.96	1624.04
381.17	1734.63
381.38	1746.92
381.59	1683.43
381.80	1703.91
382.00	1755.11
382.21	1759.21
382.42	1798.12
382.63	1865.70
382.84	1810.40
383.05	1658.85
383.26	1746.92
383.47	1708.01
383.68	1730.53
383.88	1730.53
384.09	1740.77
384.30	1724.39
384.51	1798.12
384.72	1644.52
384.93	1630.18
385.14	1681.38
385.35	1728.49
385.55	1720.29
385.76	1814.50
385.97	1742.82
386.18	1658.85
386.39	1662.95
386.60	1710.05
386.81	1669.09
387.02	1714.15
387.22	1654.76
387.43	1763.30
387.64	1755.11
387.85	1906.66
388.06	2199.52
388.27	4331.45
388.48	6909.85
388.68	8308.61
388.89	9617.26
389.10	9699.18
389.31	8535.93
389.52	7614.35
389.73	6756.25
389.93	6326.18
390.14	5879.72
390.35	5320.62
390.56	4575.16
390.77	3620.81
390.98	3004.37
391.18	2502.62
391.39	2109.41
391.60	1814.50
391.81	1845.22
392.02	1748.97
392.23	1845.22
392.43	1759.21
392.64	1771.49
392.85	1673.19
393.06	1738.73
393.27	1697.77
393.47	1693.67
393.68	1802.21
393.89	1722.34
394.10	1781.73
394.31	1681.38
394.52	1671.14
394.72	1656.81
394.93	1783.78
395.14	1619.94
395.35	1753.06
395.56	1662.95
395.76	1716.20
395.97	1806.31
396.18	1808.36
396.39	1869.80
396.60	2029.54
396.80	1882.08
397.01	1849.32
397.22	1814.50
397.43	1828.84
397.64	1701.86
397.84	1796.07
398.05	1902.56
398.26	1689.57
398.47	1761.25
398.67	1755.11
398.88	1703.91
399.09	1701.86
399.30	1648.61
399.51	1769.44
399.71	1642.47
399.92	1755.11
400.13	1722.34
400.34	1710.05
400.54	1730.53
400.75	1759.21
400.96	1763.30
401.17	1783.78
401.37	1730.53
401.58	1718.25
401.79	1771.49
402.00	1861.60
402.21	2078.69
402.41	1992.67
402.62	1990.63
402.83	2021.35
403.04	2019.30
403.24	2043.87
403.45	1849.32
403.66	1923.04
403.87	1853.41
404.07	1871.84
404.28	1808.36
404.49	1902.56
404.70	1816.55
404.90	1705.96
405.11	1673.19
405.32	1775.59
405.52	1626.09
405.73	1632.23
405.94	1654.76
406.15	1693.67
406.35	1820.64
406.56	1722.34
406.77	1673.19
406.98	1730.53
407.18	1626.09
407.39	1718.25
407.60	1718.25
407.80	1660.90
408.01	1681.38
408.22	1658.85
408.43	1701.86
408.63	1716.20
408.84	1804.26
409.05	1789.92
409.25	1677.29
409.46	1679.33
409.67	1660.90
409.88	1712.10
410.08	1656.81
410.29	1691.62
410.50	1675.24
410.70	1693.67
410.91	1626.09
411.12	1757.16
411.32	1708.01
411.53	1730.53
411.74	1789.92
411.95	1773.54
412.15	1722.34
412.36	1701.86
412.57	1761.25
412.77	1777.64
412.98	1701.86
413.19	1640.42
413.39	1761.25
413.60	1759.21
413.81	1710.05
414.01	1665.00
414.22	1701.86
414.43	1630.18
414.63	1662.95
414.84	1818.60
415.05	1669.09
415.25	1665.00
415.46	1734.63
415.67	1650.66
415.87	1695.72
416.08	1724.39
416.29	1693.67
416.49	1773.54
416.70	1673.19
416.91	1665.00
417.11	1714.15
417.32	1744.87
417.53	1753.06
417.73	1673.19
417.94	1738.73
418.15	1648.61
418.35	1734.63
418.56	1685.48
418.77	1806.31
418.97	1710.05
419.18	1669.09
419.38	1652.71
419.59	1656.81
419.80	1761.25
420.00	1730.53
420.21	1769.44
420.42	1767.40
420.62	1636.33
420.83	1734.63
421.04	1701.86
421.24	1658.85
421.45	1808.36
421.65	1669.09
421.86	1728.49
422.07	1746.92
422.27	1746.92
422.48	1714.15
422.69	1705.96
422.89	1720.29
423.10	1681.38
423.30	1716.20
423.51	1736.68
423.72	1730.53
423.92	1697.77
424.13	1634.28
424.33	1699.81
424.54	1767.40
424.75	1611.75
424.95	1814.50
425.16	1732.58
425.36	1683.43
425.57	1701.86
425.78	1775.59
425.98	1689.57
426.19	1626.09
426.39	1650.66
426.60	1720.29
426.81	1765.35
427.01	1693.67
427.22	1671.14
427.42	1624.04
427.63	1632.23
427.83	1722.34
428.04	1820.64
428.25	1732.58
428.45	1763.30
428.66	1679.33
428.86	1697.77
429.07	1654.76
429.28	1734.63
429.48	1658.85
429.69	1642.47
429.89	1681.38
430.10	1699.81
430.30	1767.40
430.51	1765.35
430.71	1763.30
430.92	1660.90
431.13	1652.71
431.33	1685.48
431.54	1796.07
431.74	1839.08
431.95	1814.50
432.15	1626.09
432.36	1767.40
432.56	1720.29
432.77	1880.04
432.98	1822.69
433.18	1689.57
433.39	1640.42
433.59	1710.05
433.80	1783.78
434.00	1802.21
434.21	1740.77
434.41	1705.96
434.62	1806.31
434.82	1712.10
435.03	1591.27
435.23	1685.48
435.44	1607.66
435.64	1675.24
435.85	1712.10
436.06	1791.97
436.26	1761.25
436.47	1705.96
436.67	1650.66
436.88	1652.71
437.08	1740.77
437.29	1781.73
437.49	1718.25
437.70	1773.54
437.90	1667.05
438.11	1808.36
438.31	1781.73
438.52	1837.03
438.72	1810.40
438.93	1886.18
439.13	1755.11
439.34	1888.23
439.54	1738.73
439.75	1857.51
439.95	1705.96
440.16	1673.19
440.36	1753.06
440.57	1708.01
440.77	1759.21
440.98	1714.15
441.18	1785.83
441.39	1591.27
441.59	1697.77
441.80	1935.33
442.00	1710.05
442.21	1849.32
442.41	1773.54
442.62	1804.26
442.82	1648.61
443.02	1695.72
443.23	1722.34
443.43	1748.97
443.64	1832.93
443.84	1660.90
444.05	1820.64
444.25	1740.77
444.46	1755.11
444.66	1767.40
444.87	1800.16
445.07	1728.49
445.28	1744.87
445.48	1837.03
445.69	1714.15
445.89	1939.43
446.09	1701.86
446.30	1947.62
446.50	2643.93
446.71	3725.26
446.91	4288.45
447.12	4755.38
447.32	4833.21
447.53	4313.02
447.73	3923.91
447.93	3385.29
448.14	3364.81
448.34	3215.31
448.55	3004.37
448.75	2811.86
448.96	2639.83
449.16	2410.46
449.36	2289.63
449.57	2025.44
449.77	1849.32
449.98	1779.68
450.18	1761.25
450.39	1830.88
450.59	1798.12
450.79	1665.00
451.00	1660.90
451.20	1787.88
451.41	1689.57
451.61	1763.30
451.81	1697.77
452.02	1695.72
452.22	1730.53
452.43	1685.48
452.63	1699.81
452.84	1746.92
453.04	1771.49
453.24	1728.49
453.45	1759.21
453.65	1757.16
453.86	1697.77
454.06	1744.87
454.26	1714.15
454.47	1675.24
454.67	1843.17
454.87	1761.25
455.08	1708.01
455.28	1865.70
455.49	1648.61
455.69	1765.35
455.89	1886.18
456.10	1869.80
456.30	1736.68
456.51	1730.53
456.71	1753.06
456.91	1726.44
457.12	1734.63
457.32	1748.97
457.52	1669.09
457.73	1775.59
457.93	1783.78
458.14	1763.30
458.34	1619.94
458.54	1726.44
458.75	1732.58
458.95	1742.82
459.15	1722.34
459.36	1783.78
459.56	1710.05
459.76	1937.38
459.97	1736.68
460.17	1716.20
460.37	1791.97
460.58	1710.05
460.78	1769.44
460.99	1722.34
461.19	1755.11
461.39	1701.86
461.60	1738.73
461.80	1812.45
462.00	1624.04
462.21	1685.48
462.41	1705.96
462.61	1621.99
462.82	1593.32
463.02	1693.67
463.22	1767.40
463.43	1826.79
463.63	1748.97
463.83	1773.54
464.04	1755.11
464.24	1734.63
464.44	1632.23
464.64	1665.00
464.85	1800.16
465.05	1806.31
465.25	1720.29
465.46	1718.25
465.66	1699.81
465.86	1755.11
466.07	1744.87
466.27	1720.29
466.47	1640.42
466.68	1679.33
466.88	1812.45
467.08	1771.49
467.29	1837.03
467.49	1687.53
467.69	1732.58
467.89	1798.12
468.10	1730.53
468.30	1742.82
468.50	1777.64
468.71	1740.77
468.91	1628.14
469.11	1830.88
469.31	1636.33
469.52	1708.01
469.72	1794.02
469.92	1892.32
470.13	1722.34
470.33	1724.39
470.53	1808.36
470.73	2117.60
470.94	2287.58
471.14	2398.17
471.34	2516.95
471.54	2459.61
471.75	2201.57
471.95	2062.30
472.15	2078.69
472.36	2037.73
472.56	2082.78
472.76	2029.54
472.96	1943.52
473.17	1957.86
473.37	1933.28
473.57	1800.16
473.77	1759.21
473.98	1685.48
474.18	1642.47
474.38	1849.32
474.58	1619.94
474.79	1705.96
474.99	1755.11
475.19	1826.79
475.39	1671.14
475.60	1728.49
475.80	1708.01
476.00	1656.81
476.20	1681.38
476.41	1705.96
476.61	1847.27
476.81	1769.44
477.01	1673.19
477.21	1853.41
477.42	1771.49
477.62	1591.27
477.82	1763.30
478.02	1697.77
478.23	1775.59
478.43	1677.29
478.63	1652.71
478.83	1734.63
479.03	1705.96
479.24	1794.02
479.44	1867.75
479.64	1701.86
479.84	1607.66
480.04	1671.14
480.25	1748.97
480.45	1638.38
480.65	1740.77
480.85	1798.12
481.06	1683.43
481.26	1708.01
481.46	1761.25
481.66	1748.97
481.86	1640.42
482.06	1736.68
482.27	1710.05
482.47	1677.29
482.67	1673.19
482.87	1648.61
483.07	1773.54
483.28	1689.57
483.48	1591.27
483.68	1722.34
483.88	1669.09
484.08	1681.38
484.29	1736.68
484.49	1724.39
484.69	1691.62
484.89	1769.44
485.09	1781.73
485.29	1794.02
485.50	1712.10
485.70	1650.66
485.90	1822.69
486.10	1734.63
486.30	1806.31
486.50	1740.77
486.71	1679.33
486.91	1712.10
487.11	1757.16
487.31	1644.52
487.51	1800.16
487.71	1703.91
487.91	1677.29
488.12	1740.77
488.32	1601.51
488.52	1681.38
488.72	1603.56
488.92	1675.24
489.12	1763.30
489.32	1761.25
489.53	1693.67
489.73	1640.42
489.93	1728.49
490.13	1638.38
490.33	1751.01
490.53	1742.82
490.73	1755.11
490.94	1636.33
491.14	1779.68
491.34	1830.88
491.54	2105.31
491.74	2521.05
491.94	2856.92
492.14	2979.79
492.34	2912.21
492.54	2734.04
492.75	2469.85
492.95	2449.37
493.15	2318.30
493.35	2263.01
493.55	2228.19
493.75	2015.20
493.95	2090.98
494.15	2033.63
494.35	1972.19
494.56	1769.44
494.76	1837.03
494.96	1759.21
495.16	1855.46
495.36	1695.72
495.56	1751.01
495.76	1683.43
495.96	1730.53
496.16	1624.04
496.36	1802.21
496.56	1738.73
496.77	1767.40
496.97	1767.40
497.17	1705.96
497.37	1599.46
497.57	1767.40
497.77	1734.63
497.97	1593.32
498.17	1673.19
498.37	1714.15
498.57	1759.21
498.77	1738.73
498.97	1759.21
499.17	1787.88
499.38	1691.62
499.58	1834.98
499.78	1775.59
499.98	1828.84
500.18	1816.55
500.38	1832.93
500.58	1939.43
500.78	2514.91
500.98	4411.32
501.18	5998.50
501.38	6815.64
501.58	7057.30
501.78	6735.77
501.98	5556.14
502.18	5091.25
502.38	4329.41
502.58	3880.90
502.78	3702.73
502.98	3594.19
503.18	3305.42
503.38	3227.60
503.59	2713.56
503.79	2576.34
503.99	2492.38
504.19	2211.81
504.39	2244.57
504.59	2217.95
504.79	2105.31
504.99	2054.11
505.19	1998.82
505.39	1859.56
505.59	1927.14
505.79	1875.94
505.99	1857.51
506.19	1759.21
506.39	1814.50
506.59	1703.91
506.79	1720.29
506.99	1816.55
507.19	1845.22
507.39	1853.41
507.59	1732.58
507.79	1673.19
507.99	1650.66
508.19	1769.44
508.39	1763.30
508.59	1734.63
508.79	1867.75
508.99	1802.21
509.19	1648.61
509.39	1775.59
509.59	1683.43
509.79	1636.33
509.99	1691.62
510.19	1841.12
510.39	1716.20
510.59	1763.30
510.79	1626.09
510.99	1658.85
511.19	1714.15
511.39	1851.36
511.59	1814.50
511.79	1826.79
511.99	1718.25
512.19	1830.88
512.38	1734.63
512.58	1777.64
512.78	1734.63
512.98	1771.49
513.18	1834.98
513.38	1621.99
513.58	1798.12
513.78	1738.73
513.98	1697.77
514.18	1687.53
514.38	1714.15
514.58	1830.88
514.78	1771.49
514.98	1665.00
515.18	1701.86
515.38	1720.29
515.58	1824.74
515.78	1701.86
515.98	1789.92
516.18	1775.59
516.38	1703.91
516.57	1724.39
516.77	1673.19
516.97	1730.53
517.17	1705.96
517.37	1562.60
517.57	1777.64
517.77	1632.23
517.97	1640.42
518.17	1804.26
518.37	1626.09
518.57	1669.09
518.77	1734.63
518.97	1734.63
519.16	1689.57
519.36	1746.92
519.56	1689.57
519.76	1814.50
519.96	1791.97
520.16	1777.64
520.36	1695.72
520.56	1771.49
520.76	1679.33
520.96	1624.04
521.16	1683.43
521.35	1777.64
521.55	1759.21
521.75	1757.16
521.95	1669.09
522.15	1732.58
522.35	1673.19
522.55	1679.33
522.75	1755.11
522.95	1691.62
523.14	1658.85
523.34	1724.39
523.54	1710.05
523.74	1759.21
523.94	1773.54
524.14	1650.66
524.34	1673.19
524.54	1798.12
524.73	1730.53
524.93	1773.54
525.13	1777.64
525.33	1648.61
525.53	1828.84
525.73	1718.25
525.93	1724.39
526.13	1671.14
526.32	1757.16
526.52	1789.92
526.72	1771.49
526.92	1724.39
527.12	1650.66
527.32	1648.61
527.52	1705.96
527.71	1740.77
527.91	1722.34
528.11	1675.24
528.31	1765.35
528.51	1660.90
528.71	1796.07
528.90	1724.39
529.10	1804.26
529.30	1746.92
529.50	1624.04
529.70	1757.16
529.90	1746.92
530.09	1693.67
530.29	1675.24
530.49	1669.09
530.69	1826.79
530.89	1783.78
531.09	1794.02
531.28	1730.53
531.48	1767.40
531.68	1755.11
531.88	1687.53
532.08	1806.31
532.28	1681.38
532.47	1712.10
532.67	1781.73
532.87	1718.25
533.07	1681.38
533.27	1740.77
533.46	1695.72
533.66	1748.97
533.86	1695.72
534.06	1748.97
534.26	1708.01
534.45	1732.58
534.65	1765.35
534.85	1824.74
535.05	1710.05
535.25	1753.06
535.44	1642.47
535.64	1783.78
535.84	1667.05
536.04	1687.53
536.24	1753.06
536.43	1671.14
536.63	1806.31
536.83	1662.95
537.03	1685.48
537.22	1652.71
537.42	1658.85
537.62	1775.59
537.82	1689.57
538.02	1857.51
538.21	1757.16
538.41	1882.08
538.61	1697.77
538.81	1738.73
539.00	1863.65
539.20	1705.96
539.40	1685.48
539.60	1761.25
539.79	1789.92
539.99	1667.05
540.19	1685.48
540.39	1751.01
540.58	1802.21
540.78	1753.06
540.98	1753.06
541.18	1837.03
541.37	1791.97
541.57	1636.33
541.77	1759.21
541.97	1705.96
542.16	1722.34
542.36	1693.67
542.56	1791.97
542.76	1808.36
542.95	1777.64
543.15	1718.25
543.35	1808.36
543.54	1755.11
543.74	1636.33
543.94	1779.68
544.14	1673.19
544.33	1757.16
544.53	1699.81
544.73	1728.49
544.93	1697.77
545.12	1708.01
545.32	1779.68
545.52	1748.97
545.71	1701.86
545.91	1712.10
546.11	1732.58
546.30	1656.81
546.50	1767.40
546.70	1785.83
546.90	1744.87
547.09	1558.50
547.29	1748.97
547.49	1642.47
547.68	1730.53
547.88	1638.38
548.08	1814.50
548.27	2189.28
548.47	1697.77
548.67	1669.09
548.87	1789.92
549.06	1736.68
549.26	1722.34
549.46	1712.10
549.65	1724.39
549.85	1820.64
550.05	1714.15
550.24	1755.11
550.44	1732.58
550.64	1720.29
550.83	1691.62
551.03	1849.32
551.23	1722.34
551.42	1787.88
551.62	1714.15
551.82	1665.00
552.01	1691.62
552.21	1767.40
552.41	1738.73
552.60	1849.32
552.80	1695.72
553.00	1724.39
553.19	1716.20
553.39	1814.50
553.59	1660.90
553.78	1767.40
553.98	1738.73
554.17	1636.33
554.37	1769.44
554.57	1656.81
554.76	1769.44
554.96	1638.38
555.16	1775.59
555.35	1611.75
555.55	1701.86
555.75	1769.44
555.94	1720.29
556.14	1673.19
556.33	1746.92
556.53	1728.49
556.73	1751.01
556.92	1769.44
557.12	1820.64
557.32	1800.16
557.51	1767.40
557.71	1812.45
557.90	1775.59
558.10	1824.74
558.30	1771.49
558.49	1730.53
558.69	1685.48
558.88	1730.53
559.08	1722.34
559.28	1644.52
559.47	1742.82
559.67	1777.64
559.86	1820.64
560.06	1734.63
560.26	1665.00
560.45	1677.29
560.65	1714.15
560.84	1759.21
561.04	1683.43
561.24	1728.49
561.43	1644.52
561.63	1843.17
561.82	1644.52
562.02	1810.40
562.22	1695.72
562.41	1687.53
562.61	1699.81
562.80	1771.49
563.00	1814.50
563.19	1812.45
563.39	1730.53
563.59	1759.21
563.78	1652.71
563.98	1660.90
564.17	1804.26
564.37	1648.61
564.56	1710.05
564.76	1638.38
564.96	1771.49
565.15	1757.16
565.35	1816.55
565.54	1714.15
565.74	1804.26
565.93	1759.21
566.13	1763.30
566.32	1796.07
566.52	1777.64
566.71	1822.69
566.91	1765.35
567.11	1798.12
567.30	1712.10
567.50	1775.59
567.69	1820.64
567.89	1714.15
568.08	1734.63
568.28	1705.96
568.47	1683.43
568.67	1689.57
568.86	1687.53
569.06	1759.21
569.25	1703.91
569.45	1726.44
569.64	1720.29
569.84	1751.01
570.04	1771.49
570.23	1693.67
570.43	1771.49
570.62	1822.69
570.82	1847.27
571.01	1679.33
571.21	1714.15
571.40	1703.91
571.60	1816.55
571.79	1753.06
571.99	1744.87
572.18	1697.77
572.38	1701.86
572.57	1691.62
572.77	1849.32
572.96	1849.32
573.16	1755.11
573.35	1687.53
573.55	1816.55
573.74	1810.40
573.94	1712.10
574.13	1671.14
574.33	1796.07
574.52	1789.92
574.71	1763.30
574.91	1744.87
575.10	1665.00
575.30	1736.68
575.49	1697.77
575.69	1660.90
575.88	1740.77
576.08	1656.81
576.27	1767.40
576.47	1746.92
576.66	1816.55
576.86	1777.64
577.05	1804.26
577.25	1757.16
577.44	1857.51
577.64	1791.97
577.83	1861.60
578.02	1720.29
578.22	1839.08
578.41	1820.64
578.61	1742.82
578.80	1656.81
579.00	1794.02
579.19	1773.54
579.39	1849.32
579.58	1769.44
579.77	1759.21
579.97	1806.31
580.16	1812.45
580.36	1814.50
580.55	1814.50
580.75	1818.60
580.94	1697.77
581.13	1820.64
581.33	1916.90
581.52	1681.38
581.72	1857.51
581.91	1800.16
582.11	1734.63
582.30	1804.26
582.49	1783.78
582.69	1904.61
582.88	1791.97
583.08	1828.84
583.27	1746.92
583.47	1701.86
583.66	1757.16
583.85	1765.35
584.05	1845.22
584.24	1763.30
584.44	1796.07
584.63	1765.35
584.82	1783.78
585.02	1877.99
585.21	1798.12
585.41	1783.78
585.60	1824.74
585.79	1902.56
585.99	1984.48
586.18	1806.31
586.37	2148.32
586.57	3444.68
586.76	9860.97
586.96	24522.38
587.15	34506.23
587.34	40105.37
587.54	42685.81
587.73	36683.22
587.93	26226.29
588.12	21505.72
588.31	18319.08
588.51	16260.87
588.70	15109.91
588.89	14208.81
589.09	12732.22
589.28	10889.05
589.47	9398.13
589.67	8077.19
589.86	6356.90
590.06	4997.04
590.25	3917.76
590.44	3139.54
590.64	2465.75
590.83	2287.58
591.02	2101.22
591.22	1964.00
591.41	1906.66
591.60	1832.93
591.80	1929.19
591.99	1734.63
592.18	1712.10
592.38	1814.50
592.57	1767.40
592.76	1789.92
592.96	1748.97
593.15	1783.78
593.34	1826.79
593.54	1726.44
593.73	1722.34
593.92	1658.85
594.12	1738.73
594.31	1699.81
594.50	1787.88
594.70	1759.21
594.89	1877.99
595.08	1642.47
595.28	1845.22
595.47	1953.76
595.66	1789.92
595.86	1697.77
596.05	1757.16
596.24	1718.25
596.43	1802.21
596.63	1810.40
596.82	1667.05
597.01	1771.49
597.21	1869.80
597.40	1753.06
597.59	1746.92
597.79	1652.71
597.98	1777.64
598.17	1847.27
598.36	1771.49
598.56	1714.15
598.75	1708.01
598.94	1791.97
599.14	1789.92
599.33	1693.67
599.52	1759.21
599.71	1757.16
599.91	1785.83
600.10	1765.35
600.29	1656.81
600.48	1705.96
600.68	1677.29
600.87	1697.77
601.06	1736.68
601.26	1697.77
601.45	1775.59
601.64	1773.54
601.83	1853.41
602.03	1699.81
602.22	1685.48
602.41	1712.10
602.60	1849.32
602.80	1767.40
602.99	1675.24
603.18	1714.15
603.37	1804.26
603.57	1757.16
603.76	1761.25
603.95	1804.26
604.14	1708.01
604.34	1677.29
604.53	1777.64
604.72	1773.54
604.91	1822.69
605.10	1771.49
605.30	1669.09
605.49	1814.50
605.68	1781.73
605.87	1759.21
606.07	1630.18
606.26	1708.01
606.45	1683.43
606.64	1767.40
606.84	1771.49
607.03	1679.33
607.22	1763.30
607.41	1650.66
607.60	1699.81
607.80	1787.88
607.99	1679.33
608.18	1734.63
608.37	1656.81
608.56	1738.73
608.76	1759.21
608.95	1804.26
609.14	1761.25
609.33	1841.12
609.52	1689.57
609.72	1738.73
609.91	1736.68
610.10	1681.38
610.29	1787.88
610.48	1826.79
610.68	1744.87
610.87	1718.25
611.06	1705.96
611.25	1716.20
611.44	1740.77
611.63	1701.86
611.83	1806.31
612.02	1650.66
612.21	1810.40
612.40	1535.98
612.59	1660.90
612.79	1679.33
612.98	1681.38
613.17	1857.51
613.36	1708.01
613.55	1841.12
613.74	1675.24
613.93	1714.15
614.13	1740.77
614.32	1714.15
614.51	1767.40
614.70	1728.49
614.89	1671.14
615.08	1779.68
615.28	2074.59
615.47	1697.77
615.66	1691.62
615.85	1734.63
616.04	1802.21
616.23	1724.39
616.42	1701.86
616.62	1705.96
616.81	1779.68
617.00	1791.97
617.19	1841.12
617.38	1656.81
617.57	1681.38
617.76	1720.29
617.95	1779.68
618.15	1791.97
618.34	1736.68
618.53	1722.34
618.72	1751.01
618.91	1785.83
619.10	1812.45
619.29	1689.57
619.48	1771.49
619.68	1638.38
619.87	1712.10
620.06	1658.85
620.25	1824.74
620.44	1714.15
620.63	1708.01
620.82	1712.10
621.01	1658.85
621.20	1701.86
621.39	1701.86
621.59	1683.43
621.78	1730.53
621.97	1761.25
622.16	1794.02
622.35	1685.48
622.54	1765.35
622.73	1810.40
622.92	1640.42
623.11	1687.53
623.30	1722.34
623.49	1746.92
623.68	1628.14
623.88	1804.26
624.07	1718.25
624.26	1712.10
624.45	1732.58
624.64	1705.96
624.83	1732.58
625.02	1722.34
625.21	1738.73
625.40	1615.85
625.59	1798.12
625.78	1714.15
625.97	1714.15
626.16	1777.64
626.35	1746.92
626.54	1656.81
626.74	1785.83
626.93	1626.09
627.12	1744.87
627.31	1785.83
627.50	1779.68
627.69	1728.49
627.88	1683.43
628.07	1632.23
628.26	1621.99
628.45	1630.18
628.64	1681.38
628.83	1755.11
629.02	1613.80
629.21	1755.11
629.40	1740.77
629.59	1603.56
629.78	1765.35
629.97	1724.39
630.16	1710.05
630.35	1712.10
630.54	1681.38
630.73	1662.95
630.92	1791.97
631.11	1708.01
631.30	1683.43
631.49	1781.73
631.68	1757.16
631.87	1720.29
632.06	1673.19
632.25	1804.26
632.44	1699.81
632.63	1777.64
632.82	1732.58
633.01	1660.90
633.20	1699.81
633.39	1648.61
633.58	1640.42
633.77	1763.30
633.96	1779.68
634.15	1791.97
634.34	1769.44
634.53	1738.73
634.72	1667.05
634.91	1634.28
635.10	1732.58
635.29	1787.88
635.48	1748.97
635.67	1736.68
635.86	1658.85
636.05	1818.60
636.24	1691.62
636.43	1767.40
636.62	1794.02
636.81	1669.09
637.00	1740.77
637.19	1738.73
637.38	1693.67
637.57	1648.61
637.76	1714.15
637.95	1716.20
638.14	1609.70
638.33	1710.05
638.52	1677.29
638.71	1621.99
638.89	1683.43
639.08	1777.64
639.27	1681.38
639.46	1640.42
639.65	1742.82
639.84	1695.72
640.03	1728.49
640.22	1638.38
640.41	1800.16
640.60	1673.19
640.79	1636.33
640.98	1722.34
641.17	1765.35
641.36	1714.15
641.55	1765.35
641.74	1665.00
641.92	1607.66
642.11	1683.43
642.30	1738.73
642.49	1687.53
642.68	1734.63
642.87	1722.34
643.06	1712.10
643.25	1703.91
643.44	1691.62
643.63	1781.73
643.82	1755.11
644.00	1611.75
644.19	1701.86
644.38	1628.14
644.57	1775.59
644.76	1685.48
644.95	1718.25
645.14	1716.20
645.33	1701.86
645.52	1693.67
645.71	1689.57
645.89	1632.23
646.08	1681.38
646.27	1642.47
646.46	1808.36
646.65	1589.22
646.84	1796.07
647.03	1648.61
647.22	1773.54
647.40	1789.92
647.59	1751.01
647.78	1576.94
647.97	1751.01
648.16	1665.00
648.35	1826.79
648.54	1839.08
648.73	1640.42
648.91	1783.78
649.10	1726.44
649.29	1634.28
649.48	1691.62
649.67	1748.97
649.86	1699.81
650.05	1695.72
650.23	1751.01
650.42	1634.28
650.61	1773.54
650.80	1826.79
650.99	1857.51
651.18	1804.26
651.36	1755.11
651.55	1695.72
651.74	1728.49
651.93	1728.49
652.12	1642.47
652.31	1708.01
652.49	1687.53
652.68	1587.18
652.87	1808.36
653.06	1724.39
653.25	1787.88
653.44	1720.29
653.62	1802.21
653.81	1693.67
654.00	1775.59
654.19	1697.77
654.38	1830.88
654.56	1746.92
654.75	1662.95
654.94	1665.00
655.13	1738.73
655.32	1730.53
655.51	1781.73
655.69	1697.77
655.88	1710.05
656.07	1691.62
656.26	1742.82
656.45	1689.57
656.63	1765.35
656.82	1781.73
657.01	1740.77
657.20	1673.19
657.38	1789.92
657.57	1624.04
657.76	1603.56
657.95	1789.92
658.14	1710.05
658.32	1765.35
658.51	1632.23
658.70	1724.39
658.89	1695.72
659.08	1697.77
659.26	1769.44
659.45	1615.85
659.64	1728.49
659.83	1687.53
660.01	1920.99
660.20	1712.10
660.39	1779.68
660.58	1636.33
660.76	1767.40
660.95	1716.20
661.14	1783.78
661.33	1650.66
661.51	1630.18
661.70	1748.97
661.89	1734.63
662.08	1849.32
662.26	1689.57
662.45	1728.49
662.64	1804.26
662.83	1726.44
663.01	1660.90
663.20	1738.73
663.39	1837.03
663.58	1708.01
663.76	1677.29
663.95	1748.97
664.14	1576.94
664.32	1691.62
664.51	1718.25
664.70	1679.33
664.89	1718.25
665.07	1607.66
665.26	1832.93
665.45	1710.05
665.64	1695.72
665.82	1705.96
666.01	1880.04
666.20	1638.38
666.38	1781.73
666.57	1757.16
666.76	2156.51
666.95	4583.35
667.13	10332.00
667.32	15132.44
667.51	17495.80
667.69	18933.47
667.88	17696.50
668.07	12205.89
668.25	9650.03
668.44	8103.81
668.63	7194.51
668.81	6915.99
669.00	6365.09
669.19	5738.41
669.38	5085.11
669.56	4466.62
669.75	4048.83
669.94	3528.65
670.12	2838.48
670.31	2562.01
670.50	2230.24
670.68	2066.40
670.87	1849.32
671.06	1785.83
671.24	1726.44
671.43	1859.56
671.62	1769.44
671.80	1685.48
671.99	1740.77
672.18	1740.77
672.36	1720.29
672.55	1794.02
672.74	1673.19
672.92	1691.62
673.11	1722.34
673.29	1685.48
673.48	1820.64
673.67	1708.01
673.85	1775.59
674.04	1708.01
674.23	1671.14
674.41	1789.92
674.60	1624.04
674.79	1550.31
674.97	1724.39
675.16	1701.86
675.34	1781.73
675.53	1669.09
675.72	1767.40
675.90	1816.55
676.09	1673.19
676.28	1685.48
676.46	1634.28
676.65	1726.44
676.83	1673.19
677.02	1730.53
677.21	1712.10
677.39	1718.25
677.58	1744.87
677.77	1712.10
677.95	1658.85
678.14	1683.43
678.32	1722.34
678.51	1660.90
678.70	1769.44
678.88	1636.33
679.07	1746.92
679.25	1681.38
679.44	1685.48
679.63	1654.76
679.81	1769.44
680.00	1767.40
680.18	1751.01
680.37	1759.21
680.55	1724.39
680.74	1611.75
680.93	1648.61
681.11	1732.58
681.30	1708.01
681.48	1734.63
681.67	1722.34
681.85	1755.11
682.04	1613.80
682.23	1775.59
682.41	1728.49
682.60	1677.29
682.78	1681.38
682.97	1658.85
683.15	1732.58
683.34	1759.21
683.53	1695.72
683.71	1665.00
683.90	1886.18
684.08	1763.30
684.27	1669.09
684.45	1689.57
684.64	1748.97
684.82	1636.33
685.01	1705.96
685.19	1697.77
685.38	1771.49
685.57	1673.19
685.75	1671.14
685.94	1693.67
686.12	1665.00
686.31	1628.14
686.49	1796.07
686.68	1646.57
686.86	1724.39
687.05	1714.15
687.23	1763.30
687.42	1695.72
687.60	1665.00
687.79	1775.59
687.97	1685.48
688.16	1751.01
688.34	1699.81
688.53	1581.03
688.71	1714.15
688.90	1779.68
689.08	1617.90
689.27	1611.75
689.45	1681.38
689.64	1732.58
689.82	1726.44
690.01	1681.38
690.19	1740.77
690.38	1652.71
690.56	1851.36
690.75	1638.38
690.93	1656.81
691.12	1695.72
691.30	1730.53
691.49	1732.58
691.67	1712.10
691.86	1830.88
692.04	1689.57
692.23	1648.61
692.41	1683.43
692.60	1896.42
692.78	1740.77
692.97	1662.95
693.15	1708.01
693.34	1837.03
693.52	1771.49
693.71	1712.10
693.89	1605.61
694.08	1603.56
694.26	1763.30
694.44	1751.01
694.63	1714.15
694.81	1650.66
695.00	1669.09
695.18	1701.86
695.37	1873.89
695.55	1726.44
695.74	1630.18
695.92	1716.20
696.10	1865.70
696.29	1660.90
696.47	1677.29
696.66	1562.60
696.84	1630.18
697.03	1708.01
697.21	1773.54
697.40	2351.07
697.58	1755.11
697.76	1671.14
697.95	1699.81
698.13	1634.28
698.32	1609.70
698.50	1732.58
698.68	1812.45
698.87	1675.24
699.05	1781.73
699.24	1667.05
699.42	1667.05
699.61	1712.10
699.79	1736.68
699.97	1673.19
700.16	1673.19
700.34	1673.19
700.53	1705.96
700.71	1822.69
700.89	1769.44
701.08	1699.81
701.26	1662.95
701.45	2127.84
701.63	1615.85
701.81	1763.30
702.00	1716.20
702.18	1751.01
702.37	1656.81
702.55	1701.86
702.73	1675.24
702.92	1722.34
703.10	1683.43
703.28	1742.82
703.47	1576.94
703.65	1767.40
703.84	1783.78
704.02	1669.09
704.20	1802.21
704.39	1677.29
704.57	1648.61
704.75	1714.15
704.94	1734.63
705.12	1761.25
705.30	1728.49
705.49	2209.76
705.67	4325.31
705.86	9375.60
706.04	12758.85
706.22	14458.66
706.41	15380.25
706.59	13715.25
706.77	9670.51
706.96	7466.89
707.14	6655.90
707.32	6125.47
707.51	5580.71
707.69	4915.12
707.87	4249.54
708.06	3663.82
708.24	2893.78
708.42	2375.64
708.61	2287.58
708.79	1882.08
708.97	1849.32
709.16	1828.84
709.34	1791.97
709.52	1742.82
709.71	1722.34
709.89	1789.92
710.07	1730.53
710.26	1650.66
710.44	1802.21
710.62	1746.92
710.80	1728.49
710.99	1800.16
711.17	1740.77
711.35	1660.90
711.54	1712.10
711.72	1771.49
711.90	1734.63
712.09	1765.35
712.27	1644.52
712.45	1716.20
712.63	1740.77
712.82	1708.01
713.00	1757.16
713.18	1757.16
713.37	1755.11
713.55	1769.44
713.73	1730.53
713.91	1837.03
714.10	1695.72
714.28	1644.52
714.46	1695.72
714.65	1718.25
714.83	1656.81
715.01	1742.82
715.19	1732.58
715.38	1642.47
715.56	1669.09
715.74	1638.38
715.92	1699.81
716.11	1730.53
716.29	1624.04
716.47	1673.19
716.65	1763.30
716.84	1607.66
717.02	1726.44
717.20	1621.99
717.38	1724.39
717.57	1714.15
717.75	1699.81
717.93	1716.20
718.11	1724.39
718.30	1621.99
718.48	1699.81
718.66	1763.30
718.84	1726.44
719.03	1765.35
719.21	1677.29
719.39	1849.32
719.57	1775.59
719.75	1777.64
719.94	1685.48
720.12	1660.90
720.30	1730.53
720.48	1716.20
720.67	1683.43
720.85	1703.91
721.03	1683.43
721.21	1699.81
721.39	1748.97
721.58	1736.68
721.76	1705.96
721.94	1761.25
722.12	1673.19
722.30	1828.84
722.49	1771.49
722.67	1703.91
722.85	1730.53
723.03	1583.08
723.21	1714.15
723.40	1658.85
723.58	1738.73
723.76	1681.38
723.94	1767.40
724.12	1701.86
724.30	1787.88
724.49	1744.87
724.67	1722.34
724.85	1779.68
725.03	1601.51
725.21	1671.14
725.40	1806.31
725.58	1658.85
725.76	1763.30
725.94	1722.34
726.12	1685.48
726.30	1714.15
726.49	1734.63
726.67	1636.33
726.85	1705.96
727.03	1738.73
727.21	2193.37
727.39	2836.44
727.57	3749.83
727.76	4196.29
727.94	4421.56
728.12	4302.78
728.30	3626.95
728.48	3076.05
728.66	2648.02
728.84	2607.06
729.03	2318.30
729.21	2172.89
729.39	1994.72
729.57	1859.56
729.75	1783.78
729.93	1816.55
730.11	1759.21
730.30	1722.34
730.48	1779.68
730.66	1892.32
730.84	1716.20
731.02	1718.25
731.20	1658.85
731.38	1730.53
731.56	1640.42
731.74	1578.98
731.93	1681.38
732.11	1667.05
732.29	1693.67
732.47	1783.78
732.65	1755.11
732.83	1751.01
733.01	1742.82
733.19	1691.62
733.37	1738.73
733.56	1734.63
733.74	1636.33
733.92	1751.01
734.10	1677.29
734.28	1785.83
734.46	1656.81
734.64	1714.15
734.82	1800.16
735.00	1757.16
735.18	1665.00
735.36	1720.29
735.54	1669.09
735.73	1724.39
735.91	1662.95
736.09	1781.73
736.27	1671.14
736.45	1724.39
736.63	1601.51
736.81	1710.05
736.99	1705.96
737.17	1812.45
737.35	1705.96
737.53	1705.96
737.71	1732.58
737.89	1787.88
738.07	1701.86
738.25	1675.24
738.43	1601.51
738.61	1611.75
738.80	1619.94
738.98	1599.46
739.16	1689.57
739.34	1660.90
739.52	1787.88
739.70	1607.66
739.88	1746.92
740.06	1708.01
740.24	1628.14
740.42	1775.59
740.60	1587.18
740.78	1619.94
740.96	1671.14
741.14	1685.48
741.32	1697.77
741.50	1605.61
741.68	1857.51
741.86	1777.64
742.04	1669.09
742.22	1669.09
742.40	1732.58
742.58	1720.29
742.76	1677.29
742.94	1748.97
743.12	1562.60
743.30	1593.32
743.48	1722.34
743.66	1630.18
743.84	1736.68
744.02	1638.38
744.20	1669.09
744.38	1658.85
744.56	1665.00
744.74	1837.03
744.92	1681.38
745.10	1736.68
745.28	1798.12
745.46	1804.26
745.64	1640.42
745.82	1716.20
746.00	1753.06
746.18	1722.34
746.36	1591.27
746.54	1673.19
746.72	1648.61
746.90	1710.05
747.08	1751.01
747.26	1720.29
747.44	1722.34
747.62	1660.90
747.80	1722.34
747.98	1794.02
748.15	1716.20
748.33	1748.97
748.51	1703.91
748.69	1714.15
748.87	1656.81
749.05	1640.42
749.23	1679.33
749.41	1724.39
749.59	1693.67
749.77	1753.06
749.95	1683.43
750.13	1552.36
750.31	1755.11
750.49	1652.71
750.67	1665.00
750.85	1830.88
751.03	1705.96
751.20	1759.21
751.38	1761.25
751.56	1662.95
751.74	1683.43
751.92	1640.42
752.10	1710.05
752.28	1783.78
752.46	1701.86
752.64	1640.42
752.82	1662.95
753.00	1783.78
753.18	1720.29
753.35	1665.00
753.53	1667.05
753.71	1630.18
753.89	1761.25
754.07	1710.05
754.25	1681.38
754.43	1730.53
754.61	1703.91
754.79	1716.20
754.97	1660.90
755.14	1771.49
755.32	1642.47
755.50	1677.29
755.68	1636.33
755.86	1595.37
756.04	1724.39
756.22	1642.47
756.40	1787.88
756.57	1849.32
756.75	1634.28
756.93	1695.72
757.11	1748.97
757.29	1601.51
757.47	1671.14
757.65	1570.79
757.82	1613.80
758.00	1583.08
758.18	1691.62
758.36	1619.94
758.54	1746.92
758.72	1595.37
758.90	1751.01
759.07	1724.39
759.25	1619.94
759.43	1724.39
759.61	1662.95
759.79	2162.66
759.97	1724.39
760.15	1712.10
760.32	1771.49
760.50	1671.14
760.68	1806.31
760.86	1583.08
761.04	1726.44
761.22	1703.91
761.39	1714.15
761.57	1712.10
761.75	1714.15
761.93	1636.33
762.11	1652.71
762.28	1716.20
762.46	1687.53
762.64	1761.25
762.82	1538.02
763.00	1687.53
763.18	1755.11
763.35	1576.94
763.53	1779.68
763.71	1705.96
763.89	1712.10
764.07	1761.25
764.24	1730.53
764.42	1730.53
764.60	1677.29
764.78	1660.90
764.96	1761.25
765.13	1705.96
765.31	1660.90
765.49	1730.53
765.67	1736.68
765.84	1658.85
766.02	1619.94
766.20	1603.56
766.38	1746.92
766.56	1703.91
766.73	1730.53
766.91	1679.33
767.09	1736.68
767.27	1703.91
767.44	1646.57
767.62	1697.77
767.80	1738.73
767.98	1648.61
768.15	1656.81
768.33	1662.95
768.51	1785.83
768.69	1644.52
768.87	1716.20
769.04	1691.62
769.22	1849.32
769.40	1834.98
769.58	1861.60
769.75	1730.53
769.93	1708.01
770.11	1744.87
770.28	1718.25
770.46	1681.38
770.64	1775.59
770.82	1738.73
770.99	1667.05
771.17	1753.06
771.35	1665.00
771.53	1722.34
771.70	1656.81
771.88	1728.49
772.06	1765.35
772.23	1681.38
772.41	1714.15
772.59	1693.67
772.77	1593.32
772.94	1671.14
773.12	1732.58
773.30	1679.33
773.47	1794.02
773.65	1712.10
773.83	1808.36
774.01	1697.77
774.18	1677.29
774.36	1605.61
774.54	1640.42
774.71	1665.00
774.89	1583.08
775.07	1624.04
775.24	1675.24
775.42	1626.09
775.60	1761.25
775.78	1671.14
775.95	1621.99
776.13	1603.56
776.31	1574.89
776.48	1656.81
776.66	1751.01
776.84	1615.85
777.01	1673.19
777.19	1632.23
777.37	1640.42
777.54	1708.01
777.72	1837.03
777.90	1705.96
778.07	1689.57
778.25	1863.65
778.43	1689.57
778.60	1691.62
778.78	1714.15
778.96	1722.34
779.13	1669.09
779.31	1751.01
779.49	1697.77
779.66	1681.38
779.84	1681.38
780.01	1675.24
780.19	1640.42
780.37	1751.01
780.54	1710.05
780.72	1689.57
780.90	1669.09
781.07	1658.85
781.25	1671.14
781.43	1759.21
781.60	1660.90
781.78	1775.59
781.95	1751.01
782.13	1628.14
782.31	1724.39
782.48	1574.89
782.66	1781.73
782.83	1783.78
783.01	1732.58
783.19	1703.91
783.36	1748.97
783.54	1671.14
783.72	1771.49
783.89	1628.14
784.07	1656.81
784.24	1734.63
784.42	1808.36
784.60	1677.29
784.77	1736.68
784.95	1626.09
785.12	1626.09
785.30	1716.20
785.47	1767.40
785.65	1644.52
785.83	1662.95
786.00	1617.90
786.18	1712.10
786.35	1656.81
786.53	1619.94
786.71	1779.68
786.88	1693.67
787.06	1675.24
787.23	1689.57
787.41	1613.80
787.58	1644.52
787.76	1701.86
787.94	1703.91
788.11	1726.44
788.29	1675.24
788.46	1665.00
788.64	1677.29
788.81	1677.29
788.99	1615.85
789.16	1671.14
789.34	1740.77
789.52	1722.34
789.69	1722.34
789.87	1613.80
790.04	1568.74
790.22	1671.14
790.39	1763.30
790.57	1689.57
790.74	1685.48
790.92	1671.14
791.09	1736.68
791.27	1654.76
791.44	1761.25
791.62	1699.81
791.79	1777.64
791.97	1644.52
792.15	1898.47
792.32	1738.73
792.50	1697.77
792.67	1714.15
792.85	1769.44
793.02	1710.05
793.20	1701.86
793.37	1583.08
793.55	1665.00
793.72	1587.18
793.90	1753.06
794.07	1675.24
794.25	1644.52
794.42	1683.43
794.60	1626.09
794.77	1681.38
794.95	1669.09
795.12	1738.73
795.30	1591.27
795.47	1617.90
795.65	1900.52
795.82	1695.72
796.00	1710.05
796.17	1683.43
796.34	1683.43
796.52	1783.78
796.69	1769.44
796.87	1724.39
797.04	1662.95
797.22	1748.97
797.39	1583.08
797.57	1726.44
797.74	1716.20
797.92	1714.15
798.09	1712.10
798.27	1779.68
798.44	1714.15
798.62	1621.99
798.79	1712.10
798.96	1724.39
799.14	1689.57
799.31	1767.40
799.49	1644.52
799.66	1689.57
799.84	1669.09
800.01	1634.28
800.19	1738.73
800.36	1566.70
800.53	1734.63
800.71	1665.00
800.88	1761.25
801.06	1665.00
801.23	1658.85
801.41	1667.05
801.58	1652.71
801.75	1650.66
801.93	1705.96
802.10	1744.87
802.28	1738.73
802.45	1621.99
802.63	1689.57
802.80	1820.64
802.97	1683.43
803.15	1697.77
803.32	1675.24
803.50	1562.60
803.67	1751.01
803.84	1603.56
804.02	1671.14
804.19	1691.62
804.37	1667.05
804.54	1652.71
804.71	1697.77
804.89	1685.48
805.06	1652.71
805.24	1607.66
805.41	1728.49
805.58	1665.00
805.76	1738.73
805.93	1656.81
806.10	1714.15
806.28	1697.77
806.45	1669.09
806.63	1708.01
806.80	1703.91
806.97	1652.71
807.15	1732.58
807.32	1744.87
807.49	1720.29
807.67	1681.38
807.84	1646.57
808.01	1570.79
808.19	1796.07
808.36	1832.93
808.54	1720.29
808.71	1558.50
808.88	1701.86
809.06	1783.78
809.23	1738.73
809.40	1546.22
809.58	1695.72
809.75	1656.81
809.92	1703.91
810.10	1822.69
810.27	1632.23
810.44	1695.72
810.62	1679.33
810.79	1691.62
810.96	1730.53
811.14	1787.88
811.31	1742.82
811.48	1773.54
811.66	1658.85
811.83	1716.20
812.00	1701.86
812.18	1734.63
812.35	1853.41
812.52	1552.36
812.69	1628.14
812.87	1681.38
813.04	1650.66
813.21	1746.92
813.39	1640.42
813.56	1634.28
813.73	1763.30
813.91	1669.09
814.08	1714.15
814.25	1703.91
814.42	1591.27
814.60	1714.15
814.77	1695.72
814.94	1654.76
815.12	1648.61
815.29	1787.88
815.46	1722.34
815.63	1628.14
815.81	1697.77
815.98	1603.56
816.15	1658.85
816.33	1648.61
816.50	1732.58
816.67	1712.10
816.84	1640.42
817.02	1660.90
817.19	1648.61
817.36	1718.25
817.53	1734.63
817.71	1683.43
817.88	1683.43
818.05	1679.33
818.22	1685.48
818.40	1808.36
818.57	1779.68
818.74	1660.90
818.91	1716.20
819.09	1779.68
819.26	1761.25
819.43	1636.33
819.60	1683.43
819.78	1673.19
819.95	1791.97
820.12	1583.08
820.29	1828.84
820.47	1771.49
820.64	1671.14
820.81	1603.56
820.98	1689.57
821.15	1701.86
821.33	1710.05
821.50	1587.18
821.67	1669.09
821.84	1683.43
822.02	1722.34
822.19	1701.86
822.36	1607.66
822.53	1665.00
822.70	1642.47
822.88	1673.19
823.05	1732.58
823.22	1669.09
823.39	1720.29
823.56	1753.06
823.74	1826.79
823.91	1654.76
824.08	1640.42
824.25	1591.27
824.42	1710.05
824.60	1632.23
824.77	1652.71
824.94	1730.53
825.11	1681.38
825.28	1656.81
825.45	1742.82
825.63	1751.01
825.80	1638.38
825.97	1755.11
826.14	1722.34
826.31	1607.66
826.48	1767.40
826.66	1648.61
826.83	1624.04
827.00	1714.15
827.17	1650.66
827.34	1669.09
827.51	1652.71
827.69	1763.30
827.86	1667.05
828.03	1687.53
828.20	1675.24
828.37	1679.33
828.54	1748.97
828.71	1744.87
828.89	1751.01
829.06	1742.82
829.23	1796.07
829.40	1609.70
829.57	1644.52
829.74	1722.34
829.91	1658.85
830.09	1648.61
830.26	1685.48
830.43	1753.06
830.60	1683.43
830.77	1728.49
830.94	1722.34
831.11	1789.92
831.28	1683.43
831.46	1830.88
831.63	1699.81
831.80	1679.33
831.97	1578.98
832.14	1757.16
832.31	1812.45
832.48	1667.05
832.65	1693.67
832.82	1744.87
832.99	1736.68
833.17	1648.61
833.34	1814.50
833.51	1808.36
833.68	1634.28
833.85	1748.97
834.02	1624.04
834.19	1654.76
834.36	1617.90
834.53	1669.09
834.70	1796.07
834.87	1783.78
835.04	1685.48
835.22	1658.85
835.39	1740.77
835.56	1587.18
835.73	1626.09
835.90	1771.49
836.07	1658.85
836.24	1734.63
836.41	1562.60
836.58	1646.57
836.75	1771.49
836.92	1630.18
837.09	1679.33
837.26	1748.97
837.43	1705.96
837.60	1724.39
837.77	1691.62
837.94	1751.01
838.12	1779.68
838.29	1796.07
838.46	1697.77
838.63	1669.09
838.80	1787.88
838.97	1738.73
839.14	1677.29
839.31	1662.95
839.48	1710.05
839.65	1658.85
839.82	1654.76
839.99	1687.53
840.16	1714.15
840.33	1640.42
840.50	1675.24
840.67	1654.76
840.84	1535.98
841.01	1705.96
841.18	1632.23
841.35	1720.29
841.52	1787.88
841.69	1820.64
841.86	1681.38
842.03	1738.73
842.20	1771.49
842.37	1783.78
842.54	1652.71
842.71	1708.01
842.88	1605.61
843.05	1736.68
843.22	1742.82
843.39	1779.68
843.56	1650.66
843.73	1656.81
843.90	1796.07
844.07	1669.09
844.24	1761.25
844.41	1714.15
844.58	1781.73
844.75	1710.05
844.92	1771.49
845.09	1712.10
845.26	1640.42
845.43	1808.36
845.60	1630.18
845.77	1705.96
845.94	1722.34
846.10	1755.11
846.27	1605.61
846.44	1660.90
846.61	1626.09
846.78	1667.05
846.95	1732.58
847.12	1650.66
847.29	1642.47
847.46	1634.28
847.63	1753.06
847.80	1693.67
847.97	1652.71
848.14	1832.93
848.31	1660.90
848.48	1634.28
848.65	1662.95
848.82	1660.90
848.98	1894.37
849.15	1712.10
849.32	1794.02
849.49	1740.77
849.66	1705.96
849.83	1669.09
850.00	1640.42
850.17	1695.72
850.34	1705.96
850.51	1624.04
850.68	1671.14
850.85	1800.16
851.01	1656.81
851.18	1763.30
851.35	1716.20
851.52	1679.33
851.69	1820.64
851.86	1619.94
852.03	1675.24
852.20	1787.88
852.37	1748.97
852.53	1644.52
852.70	1673.19
852.87	1724.39
853.04	1734.63
853.21	1632.23
853.38	1673.19
853.55	1714.15
853.72	1757.16
853.89	1648.61
854.05	1609.70
854.22	1699.81
854.39	1658.85
854.56	1755.11
854.73	1683.43
854.90	1611.75
855.07	1755.11
855.23	1578.98
855.40	1695.72
855.57	1669.09
855.74	1578.98
855.91	1861.60
856.08	1638.38
856.25	1648.61
856.41	1646.57
856.58	1652.71
856.75	1734.63
856.92	1660.90
857.09	1701.86
857.26	1595.37
857.42	1652.71
857.59	1675.24
857.76	1699.81
857.93	1748.97
858.10	1738.73
858.27	1599.46
858.43	1656.81
858.60	1634.28
858.77	1626.09
858.94	1673.19
859.11	1748.97
859.27	1638.38
859.44	1607.66
859.61	1753.06
859.78	1724.39
859.95	1568.74
860.12	1570.79
860.28	1742.82
860.45	1808.36
860.62	1697.77
860.79	1718.25
860.95	1689.57
861.12	1679.33
861.29	1650.66
861.46	1665.00
861.63	1632.23
861.79	1675.24
861.96	1613.80
862.13	1689.57
862.30	1734.63
862.47	1628.14
862.63	1662.95
862.80	1730.53
862.97	1722.34
863.14	1800.16
863.30	1699.81
863.47	1751.01
863.64	1806.31
863.81	1648.61
863.97	1705.96
864.14	1822.69
864.31	1630.18
864.48	1736.68
864.65	1687.53
864.81	1779.68
864.98	1800.16
865.15	1708.01
865.32	1658.85
865.48	1769.44
865.65	1763.30
865.82	1685.48
865.98	1693.67
866.15	1738.73
866.32	1675.24
866.49	1638.38
866.65	1734.63
866.82	1562.60
866.99	1726.44
867.16	1662.95
867.32	1628.14
867.49	1642.47
867.66	1673.19
867.83	1646.57
867.99	1640.42
868.16	1605.61
868.33	1683.43
868.49	1683.43
868.66	1640.42
868.83	1771.49
868.99	1675.24
869.16	1624.04
869.33	1677.29
869.50	1736.68
869.66	1662.95
869.83	1671.14
870.00	1689.57
870.16	1785.83
870.33	1763.30
870.50	1771.49
870.66	1695.72
870.83	1804.26
871.00	1699.81
871.17	1742.82
871.33	1746.92
871.50	1693.67
871.67	1669.09
871.83	1554.41
872.00	1818.60
872.17	1693.67
872.33	1783.78
872.50	1734.63
872.67	1697.77
872.83	1705.96
873.00	1689.57
873.17	1695.72
873.33	1736.68
873.50	1708.01
873.67	1624.04
873.83	1648.61
874.00	1619.94
874.16	1671.14
874.33	1701.86
874.50	1660.90
874.66	1665.00
874.83	1779.68
875.00	1794.02
875.16	1738.73
875.33	1742.82
875.50	1617.90
875.66	1658.85
875.83	1775.59
875.99	1681.38
876.16	1712.10
876.33	1630.18
876.49	1699.81
876.66	1755.11
876.83	1619.94
876.99	1683.43
877.16	1679.33
877.32	1615.85
877.49	1701.86
877.66	1718.25
877.82	1804.26
877.99	1646.57
878.15	1697.77
878.32	1736.68
878.49	1669.09
878.65	1720.29
878.82	1777.64
878.98	1671.14
879.15	1810.40
879.32	1689.57
879.48	1714.15
879.65	1767.40
879.81	1632.23
879.98	1632.23
880.15	1599.46
880.31	1697.77
880.48	1677.29
880.64	1708.01
880.81	1734.63
880.97	1765.35
881.14	1773.54
881.31	1593.32
881.47	1839.08
881.64	1669.09
881.80	1624.04
881.97	1597.42
882.13	1763.30
882.30	1628.14
882.47	1632.23
882.63	1683.43
882.80	1677.29
882.96	1697.77
883.13	1714.15
883.29	1669.09
883.46	1814.50
883.62	1814.50
883.79	1705.96
883.95	1718.25
884.12	1714.15
884.29	1767.40
884.45	1718.25
884.62	1662.95
884.78	1621.99
884.95	1812.45
885.11	1669.09
885.28	1712.10
885.44	1724.39
885.61	1701.86
885.77	1861.60
885.94	1705.96
886.10	1673.19
886.27	1665.00
886.43	1783.78
886.60	1785.83
886.76	1650.66
886.93	1644.52
887.09	1759.21
887.26	1652.71
887.42	1607.66
887.59	1751.01
887.75	1800.16
887.92	1849.32
888.08	1742.82
888.25	1814.50
888.41	1732.58
888.58	1648.61
888.74	1683.43
888.91	1640.42
>>>>>End Processed Spectral Data<<<<<
