SpectraSuite Data File
++++++++++++++++++++++++++++++++++++
Date: Mon Jun 06 14:18:17 CEST 2016
User: root
Dark Spectrum Present: No
Reference Spectrum Present: No
Number of Sampled Component Spectra: 1
Spectrometers: USB4C02835
Integration Time (usec): 100000 (USB4C02835)
Spectra Averaged: 1 (USB4C02835)
Boxcar Smoothing: 0 (USB4C02835)
Correct for Electrical Dark: No (USB4C02835)
Strobe/Lamp Enabled: No (USB4C02835)
Correct for Detector Non-linearity: No (USB4C02835)
Correct for Stray Light: No (USB4C02835)
Number of Pixels in Processed Spectrum: 3648
>>>>>Begin Processed Spectral Data<<<<<
177.47	1492.97
177.69	1492.97
177.91	1492.97
178.13	1499.11
178.36	1458.15
178.58	1640.42
178.80	1720.29
179.02	1687.53
179.24	1667.05
179.46	1642.47
179.68	1748.97
179.90	1677.29
180.13	1695.72
180.35	1671.14
180.57	1648.61
180.79	1740.77
181.01	1746.92
181.23	1742.82
181.45	1816.55
181.67	1701.86
181.90	1722.34
182.12	1619.94
182.34	1615.85
182.56	1798.12
182.78	1744.87
183.00	1730.53
183.22	1714.15
183.44	1611.75
183.66	1804.26
183.89	1775.59
184.11	1736.68
184.33	1703.91
184.55	1781.73
184.77	1781.73
184.99	1783.78
185.21	1656.81
185.43	1849.32
185.65	1681.38
185.87	1699.81
186.10	1822.69
186.32	1867.75
186.54	1740.77
186.76	1738.73
186.98	1775.59
187.20	1730.53
187.42	1650.66
187.64	1751.01
187.86	1693.67
188.08	1742.82
188.30	1728.49
188.52	1753.06
188.75	1738.73
188.97	1757.16
189.19	1665.00
189.41	1646.57
189.63	1726.44
189.85	1591.27
190.07	1611.75
190.29	1540.07
190.51	1748.97
190.73	1638.38
190.95	1722.34
191.17	1755.11
191.39	1572.84
191.61	1730.53
191.84	1722.34
192.06	1783.78
192.28	1638.38
192.50	1863.65
192.72	1734.63
192.94	1726.44
193.16	1759.21
193.38	1701.86
193.60	1628.14
193.82	1624.04
194.04	1798.12
194.26	1748.97
194.48	1746.92
194.70	1585.13
194.92	1708.01
195.14	1734.63
195.36	1621.99
195.58	1703.91
195.80	1654.76
196.02	1673.19
196.24	1621.99
196.46	1699.81
196.69	1669.09
196.91	1839.08
197.13	1658.85
197.35	1640.42
197.57	1763.30
197.79	1753.06
198.01	1753.06
198.23	1687.53
198.45	1779.68
198.67	1716.20
198.89	1726.44
199.11	1705.96
199.33	1689.57
199.55	1609.70
199.77	1714.15
199.99	1751.01
200.21	1687.53
200.43	1777.64
200.65	1574.89
200.87	1593.32
201.09	1722.34
201.31	1685.48
201.53	1705.96
201.75	1656.81
201.97	1742.82
202.19	1638.38
202.41	1755.11
202.63	1765.35
202.85	1697.77
203.07	1699.81
203.29	1673.19
203.51	1632.23
203.73	1599.46
203.95	1826.79
204.17	1771.49
204.39	1681.38
204.61	1773.54
204.83	1636.33
205.05	1748.97
205.27	1728.49
205.49	1865.70
205.71	1685.48
205.93	1615.85
206.15	1765.35
206.37	1615.85
206.59	1697.77
206.81	1607.66
207.03	1581.03
207.25	1673.19
207.47	1810.40
207.69	1744.87
207.91	1802.21
208.13	1746.92
208.34	1718.25
208.56	1665.00
208.78	1753.06
209.00	1591.27
209.22	1679.33
209.44	1675.24
209.66	1705.96
209.88	1697.77
210.10	1636.33
210.32	1728.49
210.54	1791.97
210.76	1673.19
210.98	1724.39
211.20	1587.18
211.42	1687.53
211.64	1748.97
211.86	1673.19
212.08	1738.73
212.30	1695.72
212.52	1683.43
212.74	1710.05
212.96	1748.97
213.17	1767.40
213.39	1691.62
213.61	1806.31
213.83	1732.58
214.05	1673.19
214.27	1734.63
214.49	1730.53
214.71	1662.95
214.93	1771.49
215.15	1708.01
215.37	1730.53
215.59	1578.98
215.81	1736.68
216.03	1877.99
216.24	1638.38
216.46	1722.34
216.68	1699.81
216.90	1708.01
217.12	1714.15
217.34	1654.76
217.56	1685.48
217.78	1689.57
218.00	1685.48
218.22	1767.40
218.44	1734.63
218.66	1751.01
218.87	1808.36
219.09	1671.14
219.31	1714.15
219.53	1675.24
219.75	1736.68
219.97	1699.81
220.19	1708.01
220.41	1710.05
220.63	1716.20
220.85	1740.77
221.06	1638.38
221.28	1798.12
221.50	1722.34
221.72	1714.15
221.94	1673.19
222.16	1771.49
222.38	1800.16
222.60	1757.16
222.82	1697.77
223.03	1714.15
223.25	1656.81
223.47	1781.73
223.69	1849.32
223.91	1828.84
224.13	1765.35
224.35	1673.19
224.57	1781.73
224.78	1714.15
225.00	1738.73
225.22	1714.15
225.44	1675.24
225.66	1695.72
225.88	1689.57
226.10	1732.58
226.32	1677.29
226.53	1761.25
226.75	1656.81
226.97	1685.48
227.19	1740.77
227.41	1669.09
227.63	1675.24
227.85	1574.89
228.06	1701.86
228.28	1693.67
228.50	1791.97
228.72	1714.15
228.94	1644.52
229.16	1662.95
229.37	1638.38
229.59	1615.85
229.81	1763.30
230.03	1705.96
230.25	1607.66
230.47	1624.04
230.69	1595.37
230.90	1701.86
231.12	1667.05
231.34	1736.68
231.56	1748.97
231.78	1599.46
232.00	1683.43
232.21	1714.15
232.43	1701.86
232.65	1611.75
232.87	1681.38
233.09	1683.43
233.30	1732.58
233.52	1800.16
233.74	1736.68
233.96	1673.19
234.18	1669.09
234.40	1619.94
234.61	1800.16
234.83	1578.98
235.05	1724.39
235.27	1763.30
235.49	1818.60
235.70	1726.44
235.92	1847.27
236.14	1701.86
236.36	1740.77
236.58	1656.81
236.79	1775.59
237.01	1685.48
237.23	1665.00
237.45	1857.51
237.67	1640.42
237.88	1714.15
238.10	1832.93
238.32	1599.46
238.54	1691.62
238.76	1665.00
238.97	1677.29
239.19	1624.04
239.41	1738.73
239.63	1751.01
239.85	1726.44
240.06	1701.86
240.28	1632.23
240.50	1742.82
240.72	1718.25
240.93	1716.20
241.15	1785.83
241.37	1656.81
241.59	1748.97
241.81	1728.49
242.02	1615.85
242.24	1759.21
242.46	1724.39
242.68	1691.62
242.89	1779.68
243.11	1714.15
243.33	1665.00
243.55	1703.91
243.76	1789.92
243.98	1728.49
244.20	1681.38
244.42	1687.53
244.64	1646.57
244.85	1660.90
245.07	1667.05
245.29	1734.63
245.51	1724.39
245.72	1693.67
245.94	1744.87
246.16	1628.14
246.38	1728.49
246.59	1675.24
246.81	1640.42
247.03	1669.09
247.24	1544.17
247.46	1667.05
247.68	1757.16
247.90	1687.53
248.11	1705.96
248.33	1722.34
248.55	1705.96
248.77	1665.00
248.98	1712.10
249.20	1777.64
249.42	1708.01
249.64	1773.54
249.85	1648.61
250.07	1697.77
250.29	1773.54
250.50	1826.79
250.72	1656.81
250.94	1744.87
251.16	1857.51
251.37	1753.06
251.59	1701.86
251.81	1681.38
252.02	1744.87
252.24	1660.90
252.46	1767.40
252.68	1658.85
252.89	1728.49
253.11	1591.27
253.33	1875.94
253.54	1851.36
253.76	1603.56
253.98	1677.29
254.20	1726.44
254.41	1595.37
254.63	1644.52
254.85	1605.61
255.06	1728.49
255.28	1810.40
255.50	1665.00
255.71	1660.90
255.93	1591.27
256.15	1677.29
256.36	1673.19
256.58	1613.80
256.80	1724.39
257.02	1722.34
257.23	1681.38
257.45	1640.42
257.67	1697.77
257.88	1607.66
258.10	1722.34
258.32	1722.34
258.53	1775.59
258.75	1771.49
258.97	1705.96
259.18	1757.16
259.40	1722.34
259.62	1847.27
259.83	1734.63
260.05	1820.64
260.27	2052.06
260.48	1751.01
260.70	1619.94
260.92	1691.62
261.13	1687.53
261.35	1812.45
261.57	1681.38
261.78	1615.85
262.00	1595.37
262.22	1708.01
262.43	1593.32
262.65	1681.38
262.86	1665.00
263.08	1814.50
263.30	1738.73
263.51	1607.66
263.73	1681.38
263.95	1796.07
264.16	1671.14
264.38	1615.85
264.60	1738.73
264.81	1695.72
265.03	1847.27
265.25	1759.21
265.46	1730.53
265.68	1689.57
265.89	1738.73
266.11	1638.38
266.33	1746.92
266.54	1779.68
266.76	1724.39
266.98	1710.05
267.19	1810.40
267.41	1800.16
267.62	1708.01
267.84	1644.52
268.06	1767.40
268.27	1705.96
268.49	1773.54
268.70	1710.05
268.92	1802.21
269.14	1638.38
269.35	1650.66
269.57	1652.71
269.79	1640.42
270.00	1667.05
270.22	1714.15
270.43	1714.15
270.65	1599.46
270.87	1650.66
271.08	1691.62
271.30	1742.82
271.51	1679.33
271.73	1693.67
271.95	1755.11
272.16	1759.21
272.38	1683.43
272.59	1685.48
272.81	1722.34
273.02	1679.33
273.24	1669.09
273.46	1720.29
273.67	1621.99
273.89	1644.52
274.10	1632.23
274.32	1703.91
274.54	1744.87
274.75	1716.20
274.97	1703.91
275.18	1771.49
275.40	1759.21
275.61	1689.57
275.83	1656.81
276.05	1595.37
276.26	1656.81
276.48	1730.53
276.69	1714.15
276.91	1652.71
277.12	1787.88
277.34	1748.97
277.55	1716.20
277.77	1720.29
277.99	1636.33
278.20	1632.23
278.42	1695.72
278.63	1675.24
278.85	1720.29
279.06	1667.05
279.28	1669.09
279.49	1763.30
279.71	1714.15
279.93	1722.34
280.14	1687.53
280.36	1615.85
280.57	1818.60
280.79	1746.92
281.00	1628.14
281.22	1632.23
281.43	1843.17
281.65	1583.08
281.86	1708.01
282.08	1726.44
282.29	1796.07
282.51	1613.80
282.73	1675.24
282.94	1617.90
283.16	1779.68
283.37	1769.44
283.59	1699.81
283.80	1667.05
284.02	1632.23
284.23	1722.34
284.45	1665.00
284.66	1650.66
284.88	1677.29
285.09	1734.63
285.31	1669.09
285.52	1742.82
285.74	1638.38
285.95	1740.77
286.17	1681.38
286.38	1816.55
286.60	1679.33
286.81	1742.82
287.03	1695.72
287.24	1722.34
287.46	1783.78
287.67	1691.62
287.89	1812.45
288.10	1718.25
288.32	1710.05
288.53	1751.01
288.75	1699.81
288.96	1755.11
289.18	1677.29
289.39	1718.25
289.61	1839.08
289.82	1785.83
290.04	1726.44
290.25	1660.90
290.47	1695.72
290.68	1734.63
290.90	1714.15
291.11	1667.05
291.33	1843.17
291.54	1628.14
291.76	1669.09
291.97	1736.68
292.18	1730.53
292.40	1654.76
292.61	1595.37
292.83	1771.49
293.04	1751.01
293.26	1687.53
293.47	1626.09
293.69	1578.98
293.90	1781.73
294.12	1812.45
294.33	1705.96
294.55	1679.33
294.76	1765.35
294.97	1728.49
295.19	1769.44
295.40	1578.98
295.62	1703.91
295.83	1740.77
296.05	1677.29
296.26	1642.47
296.48	1705.96
296.69	1673.19
296.90	1726.44
297.12	1722.34
297.33	1796.07
297.55	1634.28
297.76	1744.87
297.98	1783.78
298.19	1646.57
298.41	1765.35
298.62	1640.42
298.83	1736.68
299.05	1640.42
299.26	1714.15
299.48	1619.94
299.69	1716.20
299.90	1798.12
300.12	1609.70
300.33	1687.53
300.55	1738.73
300.76	1826.79
300.98	1693.67
301.19	1687.53
301.40	1671.14
301.62	1609.70
301.83	1720.29
302.05	1710.05
302.26	1599.46
302.47	1699.81
302.69	1640.42
302.90	1720.29
303.12	1652.71
303.33	1656.81
303.54	1767.40
303.76	1689.57
303.97	1734.63
304.19	1722.34
304.40	1619.94
304.61	1630.18
304.83	1800.16
305.04	1759.21
305.26	1718.25
305.47	1669.09
305.68	1677.29
305.90	1673.19
306.11	1720.29
306.33	1748.97
306.54	1714.15
306.75	1675.24
306.97	1667.05
307.18	1587.18
307.39	1691.62
307.61	1734.63
307.82	1734.63
308.04	1781.73
308.25	1728.49
308.46	1701.86
308.68	1630.18
308.89	1728.49
309.10	1785.83
309.32	1697.77
309.53	1646.57
309.74	1705.96
309.96	1621.99
310.17	1841.12
310.39	1667.05
310.60	1673.19
310.81	1783.78
311.03	1642.47
311.24	1751.01
311.45	1669.09
311.67	1873.89
311.88	1826.79
312.09	1720.29
312.31	1671.14
312.52	1710.05
312.73	1648.61
312.95	1564.65
313.16	1632.23
313.37	1800.16
313.59	1796.07
313.80	1771.49
314.01	1812.45
314.23	1687.53
314.44	1636.33
314.65	1638.38
314.87	1648.61
315.08	1607.66
315.29	1714.15
315.51	1648.61
315.72	1626.09
315.93	1804.26
316.15	1689.57
316.36	1658.85
316.57	1697.77
316.79	1746.92
317.00	1681.38
317.21	1714.15
317.43	1640.42
317.64	1773.54
317.85	1646.57
318.07	1662.95
318.28	1705.96
318.49	1816.55
318.70	1916.90
318.92	1757.16
319.13	1888.23
319.34	1912.80
319.56	1789.92
319.77	1781.73
319.98	1800.16
320.20	1720.29
320.41	1800.16
320.62	1753.06
320.83	1587.18
321.05	1789.92
321.26	1658.85
321.47	1662.95
321.69	1714.15
321.90	1626.09
322.11	1734.63
322.32	1728.49
322.54	1847.27
322.75	1746.92
322.96	1787.88
323.18	1599.46
323.39	1607.66
323.60	1648.61
323.81	1703.91
324.03	1650.66
324.24	1695.72
324.45	1734.63
324.66	1730.53
324.88	1757.16
325.09	1794.02
325.30	1656.81
325.52	1742.82
325.73	1736.68
325.94	1619.94
326.15	1613.80
326.37	1683.43
326.58	1773.54
326.79	1718.25
327.00	1714.15
327.22	1714.15
327.43	1667.05
327.64	1560.55
327.85	1740.77
328.07	1785.83
328.28	1816.55
328.49	1701.86
328.70	1679.33
328.92	1671.14
329.13	1669.09
329.34	1673.19
329.55	1834.98
329.76	1699.81
329.98	1642.47
330.19	1798.12
330.40	1742.82
330.61	1783.78
330.83	1716.20
331.04	1691.62
331.25	1767.40
331.46	1650.66
331.68	1656.81
331.89	1734.63
332.10	1679.33
332.31	1624.04
332.52	1705.96
332.74	1757.16
332.95	1548.26
333.16	1722.34
333.37	1742.82
333.58	1603.56
333.80	1722.34
334.01	1593.32
334.22	1658.85
334.43	1658.85
334.64	1697.77
334.86	1648.61
335.07	1669.09
335.28	1839.08
335.49	1619.94
335.70	1689.57
335.92	1710.05
336.13	1892.32
336.34	1738.73
336.55	1634.28
336.76	1773.54
336.98	1630.18
337.19	1837.03
337.40	1761.25
337.61	1769.44
337.82	1665.00
338.04	1884.13
338.25	1632.23
338.46	1675.24
338.67	1640.42
338.88	1722.34
339.09	1693.67
339.31	1656.81
339.52	1656.81
339.73	1658.85
339.94	1673.19
340.15	1730.53
340.36	1656.81
340.58	1669.09
340.79	1683.43
341.00	1761.25
341.21	1658.85
341.42	1943.52
341.63	1642.47
341.85	1783.78
342.06	1763.30
342.27	1671.14
342.48	1761.25
342.69	1685.48
342.90	1726.44
343.12	1832.93
343.33	1673.19
343.54	1765.35
343.75	1771.49
343.96	1665.00
344.17	1595.37
344.38	1679.33
344.60	1718.25
344.81	1624.04
345.02	1642.47
345.23	1712.10
345.44	1808.36
345.65	1753.06
345.86	1748.97
346.07	1728.49
346.29	1609.70
346.50	1671.14
346.71	1753.06
346.92	1751.01
347.13	1820.64
347.34	1701.86
347.55	1718.25
347.76	1681.38
347.98	1609.70
348.19	1734.63
348.40	1808.36
348.61	1644.52
348.82	1810.40
349.03	1785.83
349.24	1691.62
349.45	1818.60
349.66	1652.71
349.88	1724.39
350.09	1636.33
350.30	1767.40
350.51	1748.97
350.72	1722.34
350.93	1757.16
351.14	1687.53
351.35	1714.15
351.56	1732.58
351.77	1681.38
351.99	1714.15
352.20	1806.31
352.41	1765.35
352.62	1681.38
352.83	1726.44
353.04	1607.66
353.25	1669.09
353.46	1755.11
353.67	1783.78
353.88	1601.51
354.09	1763.30
354.30	1773.54
354.52	1720.29
354.73	1777.64
354.94	1669.09
355.15	1667.05
355.36	1882.08
355.57	1662.95
355.78	1751.01
355.99	1675.24
356.20	1691.62
356.41	1834.98
356.62	1732.58
356.83	1738.73
357.04	1763.30
357.25	1576.94
357.46	1755.11
357.68	1667.05
357.89	1630.18
358.10	1705.96
358.31	1742.82
358.52	1667.05
358.73	1681.38
358.94	1591.27
359.15	1617.90
359.36	1798.12
359.57	1624.04
359.78	1665.00
359.99	1699.81
360.20	1636.33
360.41	1675.24
360.62	1697.77
360.83	1730.53
361.04	1710.05
361.25	1646.57
361.46	1779.68
361.67	1785.83
361.88	1761.25
362.09	1775.59
362.30	1789.92
362.51	1759.21
362.72	1638.38
362.93	1718.25
363.14	1751.01
363.35	1728.49
363.56	1671.14
363.78	1691.62
363.99	1738.73
364.20	1703.91
364.41	1656.81
364.62	1839.08
364.83	1769.44
365.04	1785.83
365.25	1652.71
365.46	1748.97
365.67	1730.53
365.88	1662.95
366.09	1730.53
366.30	1718.25
366.51	1714.15
366.72	1677.29
366.93	1703.91
367.14	1712.10
367.35	1794.02
367.56	1755.11
367.77	1767.40
367.98	1703.91
368.18	1660.90
368.39	1691.62
368.60	1697.77
368.81	1845.22
369.02	1689.57
369.23	1626.09
369.44	1642.47
369.65	1656.81
369.86	1722.34
370.07	1767.40
370.28	1738.73
370.49	1777.64
370.70	1742.82
370.91	1632.23
371.12	1603.56
371.33	1783.78
371.54	1722.34
371.75	1734.63
371.96	1509.35
372.17	1693.67
372.38	1693.67
372.59	1722.34
372.80	1662.95
373.01	1763.30
373.22	1656.81
373.43	1730.53
373.64	1669.09
373.85	1777.64
374.06	1824.74
374.26	1742.82
374.47	1718.25
374.68	1753.06
374.89	1699.81
375.10	1732.58
375.31	1773.54
375.52	1708.01
375.73	1693.67
375.94	1667.05
376.15	1695.72
376.36	1693.67
376.57	1626.09
376.78	1724.39
376.99	1806.31
377.20	1665.00
377.40	1619.94
377.61	1810.40
377.82	1687.53
378.03	1757.16
378.24	1624.04
378.45	1689.57
378.66	1748.97
378.87	1595.37
379.08	1626.09
379.29	1724.39
379.50	1724.39
379.71	1753.06
379.91	1757.16
380.12	1665.00
380.33	1703.91
380.54	1638.38
380.75	1632.23
380.96	1681.38
381.17	1714.15
381.38	1689.57
381.59	1730.53
381.80	1611.75
382.00	1791.97
382.21	1738.73
382.42	1798.12
382.63	1775.59
382.84	1744.87
383.05	1761.25
383.26	1787.88
383.47	1681.38
383.68	1771.49
383.88	1728.49
384.09	1736.68
384.30	1748.97
384.51	1712.10
384.72	1650.66
384.93	1683.43
385.14	1730.53
385.35	1722.34
385.55	1683.43
385.76	1812.45
385.97	1734.63
386.18	1595.37
386.39	1687.53
386.60	1677.29
386.81	1673.19
387.02	1685.48
387.22	1724.39
387.43	1800.16
387.64	1789.92
387.85	1884.13
388.06	2267.10
388.27	4249.54
388.48	6836.12
388.68	8421.25
388.89	9707.37
389.10	9975.66
389.31	8748.92
389.52	7774.09
389.73	6750.10
389.93	6279.07
390.14	5930.92
390.35	5277.62
390.56	4634.55
390.77	3901.38
390.98	3008.47
391.18	2516.95
391.39	2123.74
391.60	1834.98
391.81	1892.32
392.02	1705.96
392.23	1892.32
392.43	1714.15
392.64	1773.54
392.85	1652.71
393.06	1837.03
393.27	1685.48
393.47	1703.91
393.68	1708.01
393.89	1683.43
394.10	1742.82
394.31	1732.58
394.52	1722.34
394.72	1673.19
394.93	1783.78
395.14	1683.43
395.35	1697.77
395.56	1675.24
395.76	1720.29
395.97	1812.45
396.18	1814.50
396.39	1886.18
396.60	2047.97
396.80	1955.81
397.01	1951.71
397.22	1791.97
397.43	1822.69
397.64	1810.40
397.84	1767.40
398.05	1855.46
398.26	1701.86
398.47	1726.44
398.67	1718.25
398.88	1818.60
399.09	1722.34
399.30	1667.05
399.51	1791.97
399.71	1697.77
399.92	1691.62
400.13	1689.57
400.34	1693.67
400.54	1716.20
400.75	1783.78
400.96	1708.01
401.17	1804.26
401.37	1740.77
401.58	1693.67
401.79	1716.20
402.00	1855.46
402.21	2050.02
402.41	1882.08
402.62	1988.58
402.83	2070.50
403.04	1990.63
403.24	2123.74
403.45	1916.90
403.66	1910.75
403.87	1904.61
404.07	1794.02
404.28	1867.75
404.49	1873.89
404.70	1740.77
404.90	1771.49
405.11	1755.11
405.32	1710.05
405.52	1656.81
405.73	1601.51
405.94	1619.94
406.15	1693.67
406.35	1699.81
406.56	1773.54
406.77	1765.35
406.98	1728.49
407.18	1679.33
407.39	1763.30
407.60	1736.68
407.80	1753.06
408.01	1763.30
408.22	1687.53
408.43	1671.14
408.63	1759.21
408.84	1802.21
409.05	1738.73
409.25	1658.85
409.46	1615.85
409.67	1751.01
409.88	1656.81
410.08	1777.64
410.29	1699.81
410.50	1751.01
410.70	1757.16
410.91	1607.66
411.12	1744.87
411.32	1705.96
411.53	1724.39
411.74	1882.08
411.95	1830.88
412.15	1685.48
412.36	1724.39
412.57	1791.97
412.77	1718.25
412.98	1689.57
413.19	1628.14
413.39	1689.57
413.60	1767.40
413.81	1816.55
414.01	1687.53
414.22	1742.82
414.43	1769.44
414.63	1681.38
414.84	1775.59
415.05	1751.01
415.25	1621.99
415.46	1757.16
415.67	1638.38
415.87	1763.30
416.08	1744.87
416.29	1705.96
416.49	1703.91
416.70	1724.39
416.91	1628.14
417.11	1769.44
417.32	1736.68
417.53	1689.57
417.73	1779.68
417.94	1693.67
418.15	1726.44
418.35	1724.39
418.56	1550.31
418.77	1869.80
418.97	1652.71
419.18	1771.49
419.38	1564.65
419.59	1687.53
419.80	1753.06
420.00	1695.72
420.21	1705.96
420.42	1785.83
420.62	1779.68
420.83	1669.09
421.04	1658.85
421.24	1734.63
421.45	1759.21
421.65	1658.85
421.86	1726.44
422.07	1757.16
422.27	1689.57
422.48	1748.97
422.69	1691.62
422.89	1695.72
423.10	1683.43
423.30	1621.99
423.51	1738.73
423.72	1701.86
423.92	1769.44
424.13	1773.54
424.33	1732.58
424.54	1710.05
424.75	1738.73
424.95	1849.32
425.16	1751.01
425.36	1669.09
425.57	1734.63
425.78	1820.64
425.98	1675.24
426.19	1613.80
426.39	1697.77
426.60	1777.64
426.81	1841.12
427.01	1736.68
427.22	1705.96
427.42	1654.76
427.63	1681.38
427.83	1751.01
428.04	1738.73
428.25	1771.49
428.45	1763.30
428.66	1787.88
428.86	1658.85
429.07	1669.09
429.28	1757.16
429.48	1701.86
429.69	1730.53
429.89	1669.09
430.10	1728.49
430.30	1761.25
430.51	1708.01
430.71	1673.19
430.92	1716.20
431.13	1632.23
431.33	1800.16
431.54	1753.06
431.74	1761.25
431.95	1808.36
432.15	1703.91
432.36	1648.61
432.56	1824.74
432.77	1791.97
432.98	1839.08
433.18	1720.29
433.39	1695.72
433.59	1675.24
433.80	1787.88
434.00	1791.97
434.21	1714.15
434.41	1677.29
434.62	1861.60
434.82	1642.47
435.03	1669.09
435.23	1757.16
435.44	1619.94
435.64	1732.58
435.85	1724.39
436.06	1703.91
436.26	1755.11
436.47	1753.06
436.67	1650.66
436.88	1767.40
437.08	1703.91
437.29	1822.69
437.49	1753.06
437.70	1826.79
437.90	1642.47
438.11	1806.31
438.31	1705.96
438.52	1845.22
438.72	1849.32
438.93	1888.23
439.13	1798.12
439.34	1808.36
439.54	1751.01
439.75	1806.31
439.95	1712.10
440.16	1693.67
440.36	1791.97
440.57	1791.97
440.77	1785.83
440.98	1675.24
441.18	1726.44
441.39	1681.38
441.59	1697.77
441.80	1814.50
442.00	1730.53
442.21	1816.55
442.41	1720.29
442.62	1814.50
442.82	1681.38
443.02	1728.49
443.23	1777.64
443.43	1738.73
443.64	1791.97
443.84	1667.05
444.05	1855.46
444.25	1695.72
444.46	1681.38
444.66	1718.25
444.87	1837.03
445.07	1570.79
445.28	1644.52
445.48	1837.03
445.69	1751.01
445.89	1798.12
446.09	1767.40
446.30	2025.44
446.50	2574.30
446.71	3762.12
446.91	4263.87
447.12	4685.75
447.32	4845.49
447.53	4419.52
447.73	3737.54
447.93	3438.54
448.14	3303.37
448.34	3178.45
448.55	2975.70
448.75	2811.86
448.96	2697.17
449.16	2424.80
449.36	2408.41
449.57	1968.10
449.77	1957.86
449.98	1789.92
450.18	1775.59
450.39	1781.73
450.59	1763.30
450.79	1736.68
451.00	1734.63
451.20	1794.02
451.41	1730.53
451.61	1826.79
451.81	1693.67
452.02	1691.62
452.22	1662.95
452.43	1689.57
452.63	1671.14
452.84	1810.40
453.04	1693.67
453.24	1740.77
453.45	1703.91
453.65	1744.87
453.86	1759.21
454.06	1675.24
454.26	1769.44
454.47	1644.52
454.67	1828.84
454.87	1730.53
455.08	1716.20
455.28	1871.84
455.49	1804.26
455.69	1716.20
455.89	1837.03
456.10	1767.40
456.30	1681.38
456.51	1814.50
456.71	1695.72
456.91	1775.59
457.12	1781.73
457.32	1748.97
457.52	1703.91
457.73	1851.36
457.93	1761.25
458.14	1656.81
458.34	1607.66
458.54	1648.61
458.75	1830.88
458.95	1746.92
459.15	1718.25
459.36	1734.63
459.56	1759.21
459.76	1853.41
459.97	1767.40
460.17	1705.96
460.37	1822.69
460.58	1736.68
460.78	1726.44
460.99	1761.25
461.19	1748.97
461.39	1691.62
461.60	1746.92
461.80	1794.02
462.00	1626.09
462.21	1710.05
462.41	1650.66
462.61	1701.86
462.82	1701.86
463.02	1820.64
463.22	1753.06
463.43	1812.45
463.63	1687.53
463.83	1812.45
464.04	1693.67
464.24	1683.43
464.44	1683.43
464.64	1773.54
464.85	1732.58
465.05	1826.79
465.25	1697.77
465.46	1744.87
465.66	1779.68
465.86	1759.21
466.07	1773.54
466.27	1724.39
466.47	1650.66
466.68	1701.86
466.88	1785.83
467.08	1726.44
467.29	1779.68
467.49	1724.39
467.69	1691.62
467.89	1804.26
468.10	1718.25
468.30	1767.40
468.50	1761.25
468.71	1785.83
468.91	1673.19
469.11	1865.70
469.31	1714.15
469.52	1738.73
469.72	1812.45
469.92	1865.70
470.13	1724.39
470.33	1722.34
470.53	1880.04
470.73	2037.73
470.94	2355.16
471.14	2312.16
471.34	2541.53
471.54	2428.89
471.75	2183.13
471.95	2125.79
472.15	2111.46
472.36	2090.98
472.56	2009.06
472.76	2076.64
472.96	2054.11
473.17	1927.14
473.37	1929.19
473.57	1759.21
473.77	1843.17
473.98	1775.59
474.18	1724.39
474.38	1861.60
474.58	1630.18
474.79	1734.63
474.99	1718.25
475.19	1794.02
475.39	1703.91
475.60	1779.68
475.80	1730.53
476.00	1763.30
476.20	1650.66
476.41	1773.54
476.61	1787.88
476.81	1763.30
477.01	1714.15
477.21	1935.33
477.42	1789.92
477.62	1619.94
477.82	1794.02
478.02	1630.18
478.23	1636.33
478.43	1679.33
478.63	1736.68
478.83	1771.49
479.03	1751.01
479.24	1669.09
479.44	1849.32
479.64	1566.70
479.84	1628.14
480.04	1722.34
480.25	1761.25
480.45	1689.57
480.65	1687.53
480.85	1724.39
481.06	1669.09
481.26	1744.87
481.46	1761.25
481.66	1679.33
481.86	1722.34
482.06	1816.55
482.27	1742.82
482.47	1724.39
482.67	1644.52
482.87	1677.29
483.07	1775.59
483.28	1632.23
483.48	1691.62
483.68	1685.48
483.88	1570.79
484.08	1609.70
484.29	1685.48
484.49	1730.53
484.69	1683.43
484.89	1818.60
485.09	1716.20
485.29	1740.77
485.50	1773.54
485.70	1662.95
485.90	1791.97
486.10	1722.34
486.30	1757.16
486.50	1763.30
486.71	1712.10
486.91	1767.40
487.11	1777.64
487.31	1644.52
487.51	1808.36
487.71	1693.67
487.91	1613.80
488.12	1601.51
488.32	1646.57
488.52	1771.49
488.72	1538.02
488.92	1712.10
489.12	1812.45
489.32	1884.13
489.53	1744.87
489.73	1662.95
489.93	1845.22
490.13	1685.48
490.33	1615.85
490.53	1742.82
490.73	1781.73
490.94	1574.89
491.14	1697.77
491.34	1789.92
491.54	2148.32
491.74	2555.86
491.94	2885.59
492.14	2963.41
492.34	3080.14
492.54	2811.86
492.75	2443.23
492.95	2443.23
493.15	2297.82
493.35	2289.63
493.55	2252.77
493.75	2080.74
493.95	2193.37
494.15	2009.06
494.35	1906.66
494.56	1900.52
494.76	1751.01
494.96	1775.59
495.16	1787.88
495.36	1765.35
495.56	1699.81
495.76	1726.44
495.96	1685.48
496.16	1673.19
496.36	1890.28
496.56	1669.09
496.77	1802.21
496.97	1691.62
497.17	1755.11
497.37	1673.19
497.57	1798.12
497.77	1714.15
497.97	1677.29
498.17	1734.63
498.37	1730.53
498.57	1763.30
498.77	1724.39
498.97	1804.26
499.17	1847.27
499.38	1732.58
499.58	1779.68
499.78	1777.64
499.98	1779.68
500.18	1804.26
500.38	1660.90
500.58	1966.05
500.78	2586.58
500.98	4542.39
501.18	5939.11
501.38	6801.30
501.58	7272.34
501.78	6801.30
501.98	5558.19
502.18	5001.14
502.38	4294.59
502.58	4184.00
502.78	3749.83
502.98	3655.62
503.18	3332.05
503.38	3248.08
503.59	2869.20
503.79	2643.93
503.99	2484.19
504.19	2351.07
504.39	2263.01
504.59	2187.23
504.79	2203.61
504.99	2031.58
505.19	1976.29
505.39	1865.70
505.59	1861.60
505.79	1777.64
505.99	1853.41
506.19	1765.35
506.39	1845.22
506.59	1781.73
506.79	1734.63
506.99	1806.31
507.19	1763.30
507.39	1765.35
507.59	1667.05
507.79	1660.90
507.99	1648.61
508.19	1662.95
508.39	1740.77
508.59	1744.87
508.79	1779.68
508.99	1920.99
509.19	1724.39
509.39	1730.53
509.59	1685.48
509.79	1570.79
509.99	1705.96
510.19	1775.59
510.39	1771.49
510.59	1726.44
510.79	1716.20
510.99	1736.68
511.19	1712.10
511.39	1849.32
511.59	1783.78
511.79	1783.78
511.99	1748.97
512.19	1814.50
512.38	1730.53
512.58	1693.67
512.78	1746.92
512.98	1724.39
513.18	1751.01
513.38	1703.91
513.58	1779.68
513.78	1746.92
513.98	1751.01
514.18	1701.86
514.38	1718.25
514.58	1775.59
514.78	1691.62
514.98	1769.44
515.18	1779.68
515.38	1675.24
515.58	1828.84
515.78	1705.96
515.98	1722.34
516.18	1742.82
516.38	1662.95
516.57	1679.33
516.77	1718.25
516.97	1800.16
517.17	1746.92
517.37	1671.14
517.57	1744.87
517.77	1734.63
517.97	1746.92
518.17	1804.26
518.37	1617.90
518.57	1656.81
518.77	1740.77
518.97	1701.86
519.16	1654.76
519.36	1791.97
519.56	1738.73
519.76	1730.53
519.96	1673.19
520.16	1865.70
520.36	1716.20
520.56	1796.07
520.76	1730.53
520.96	1619.94
521.16	1763.30
521.35	1855.46
521.55	1796.07
521.75	1732.58
521.95	1800.16
522.15	1708.01
522.35	1646.57
522.55	1656.81
522.75	1730.53
522.95	1708.01
523.14	1697.77
523.34	1806.31
523.54	1699.81
523.74	1683.43
523.94	1744.87
524.14	1662.95
524.34	1753.06
524.54	1810.40
524.73	1697.77
524.93	1839.08
525.13	1755.11
525.33	1636.33
525.53	1841.12
525.73	1699.81
525.93	1681.38
526.13	1771.49
526.32	1755.11
526.52	1777.64
526.72	1828.84
526.92	1701.86
527.12	1701.86
527.32	1728.49
527.52	1761.25
527.71	1751.01
527.91	1644.52
528.11	1720.29
528.31	1744.87
528.51	1722.34
528.71	1773.54
528.90	1755.11
529.10	1841.12
529.30	1822.69
529.50	1568.74
529.70	1718.25
529.90	1697.77
530.09	1730.53
530.29	1710.05
530.49	1689.57
530.69	1855.46
530.89	1732.58
531.09	1755.11
531.28	1689.57
531.48	1839.08
531.68	1712.10
531.88	1794.02
532.08	1759.21
532.28	1767.40
532.47	1806.31
532.67	1697.77
532.87	1712.10
533.07	1736.68
533.27	1751.01
533.46	1732.58
533.66	1746.92
533.86	1671.14
534.06	1748.97
534.26	1755.11
534.45	1652.71
534.65	1802.21
534.85	1724.39
535.05	1746.92
535.25	1767.40
535.44	1644.52
535.64	1779.68
535.84	1712.10
536.04	1714.15
536.24	1671.14
536.43	1652.71
536.63	1773.54
536.83	1652.71
537.03	1802.21
537.22	1714.15
537.42	1693.67
537.62	1763.30
537.82	1673.19
538.02	1744.87
538.21	1757.16
538.41	1857.51
538.61	1718.25
538.81	1748.97
539.00	1861.60
539.20	1675.24
539.40	1705.96
539.60	1787.88
539.79	1740.77
539.99	1738.73
540.19	1730.53
540.39	1714.15
540.58	1708.01
540.78	1783.78
540.98	1816.55
541.18	1746.92
541.37	1847.27
541.57	1640.42
541.77	1771.49
541.97	1701.86
542.16	1611.75
542.36	1730.53
542.56	1599.46
542.76	1877.99
542.95	1714.15
543.15	1789.92
543.35	1822.69
543.54	1636.33
543.74	1726.44
543.94	1855.46
544.14	1730.53
544.33	1857.51
544.53	1730.53
544.73	1736.68
544.93	1722.34
545.12	1714.15
545.32	1699.81
545.52	1605.61
545.71	1681.38
545.91	1714.15
546.11	1720.29
546.30	1634.28
546.50	1697.77
546.70	1738.73
546.90	1775.59
547.09	1673.19
547.29	1730.53
547.49	1755.11
547.68	1804.26
547.88	1587.18
548.08	1787.88
548.27	2172.89
548.47	1701.86
548.67	1753.06
548.87	1734.63
549.06	1710.05
549.26	1742.82
549.46	1814.50
549.65	1714.15
549.85	1794.02
550.05	1755.11
550.24	1654.76
550.44	1767.40
550.64	1650.66
550.83	1779.68
551.03	1832.93
551.23	1769.44
551.42	1742.82
551.62	1779.68
551.82	1787.88
552.01	1662.95
552.21	1818.60
552.41	1804.26
552.60	1726.44
552.80	1824.74
553.00	1671.14
553.19	1753.06
553.39	1777.64
553.59	1675.24
553.78	1726.44
553.98	1816.55
554.17	1640.42
554.37	1783.78
554.57	1771.49
554.76	1712.10
554.96	1695.72
555.16	1677.29
555.35	1693.67
555.55	1753.06
555.75	1724.39
555.94	1771.49
556.14	1552.36
556.33	1746.92
556.53	1691.62
556.73	1691.62
556.92	1847.27
557.12	1812.45
557.32	1818.60
557.51	1753.06
557.71	1746.92
557.90	1761.25
558.10	1822.69
558.30	1804.26
558.49	1697.77
558.69	1728.49
558.88	1787.88
559.08	1763.30
559.28	1740.77
559.47	1693.67
559.67	1777.64
559.86	1869.80
560.06	1773.54
560.26	1695.72
560.45	1710.05
560.65	1765.35
560.84	1828.84
561.04	1714.15
561.24	1748.97
561.43	1687.53
561.63	1849.32
561.82	1746.92
562.02	1789.92
562.22	1699.81
562.41	1705.96
562.61	1722.34
562.80	1675.24
563.00	1867.75
563.19	1755.11
563.39	1755.11
563.59	1794.02
563.78	1736.68
563.98	1636.33
564.17	1724.39
564.37	1589.22
564.56	1765.35
564.76	1695.72
564.96	1787.88
565.15	1685.48
565.35	1845.22
565.54	1642.47
565.74	1763.30
565.93	1759.21
566.13	1697.77
566.32	1751.01
566.52	1769.44
566.71	1794.02
566.91	1748.97
567.11	1718.25
567.30	1722.34
567.50	1777.64
567.69	1746.92
567.89	1798.12
568.08	1648.61
568.28	1718.25
568.47	1685.48
568.67	1779.68
568.86	1732.58
569.06	1808.36
569.25	1708.01
569.45	1738.73
569.64	1710.05
569.84	1710.05
570.04	1748.97
570.23	1722.34
570.43	1763.30
570.62	1746.92
570.82	1818.60
571.01	1630.18
571.21	1726.44
571.40	1708.01
571.60	1857.51
571.79	1777.64
571.99	1714.15
572.18	1705.96
572.38	1783.78
572.57	1697.77
572.77	1685.48
572.96	1861.60
573.16	1751.01
573.35	1732.58
573.55	1798.12
573.74	1710.05
573.94	1755.11
574.13	1753.06
574.33	1789.92
574.52	1841.12
574.71	1794.02
574.91	1779.68
575.10	1718.25
575.30	1712.10
575.49	1748.97
575.69	1759.21
575.88	1716.20
576.08	1763.30
576.27	1771.49
576.47	1701.86
576.66	1849.32
576.86	1837.03
577.05	1714.15
577.25	1812.45
577.44	1867.75
577.64	1687.53
577.83	1791.97
578.02	1791.97
578.22	1800.16
578.41	1845.22
578.61	1783.78
578.80	1716.20
579.00	1751.01
579.19	1748.97
579.39	1710.05
579.58	1834.98
579.77	1714.15
579.97	1877.99
580.16	1773.54
580.36	1808.36
580.55	1832.93
580.75	1834.98
580.94	1783.78
581.13	1824.74
581.33	1767.40
581.52	1751.01
581.72	1771.49
581.91	1822.69
582.11	1712.10
582.30	1748.97
582.49	1736.68
582.69	1806.31
582.88	1832.93
583.08	1765.35
583.27	1705.96
583.47	1714.15
583.66	1693.67
583.85	1759.21
584.05	1777.64
584.24	1822.69
584.44	1822.69
584.63	1814.50
584.82	1824.74
585.02	1861.60
585.21	1859.56
585.41	1869.80
585.60	1832.93
585.79	1929.19
585.99	1904.61
586.18	1937.38
586.37	2220.00
586.57	3366.86
586.76	9924.46
586.96	24702.60
587.15	34942.44
587.34	40988.05
587.54	42536.31
587.73	37238.22
587.93	26162.80
588.12	21757.62
588.31	18634.47
588.51	16428.81
588.70	15408.92
588.89	13985.58
589.09	12724.03
589.28	11151.19
589.47	9561.97
589.67	8128.39
589.86	6471.58
590.06	4872.12
590.25	3948.48
590.44	3028.95
590.64	2637.78
590.83	2330.59
591.02	2037.73
591.22	1992.67
591.41	1865.70
591.60	1806.31
591.80	2000.87
591.99	1769.44
592.18	1822.69
592.38	1787.88
592.57	1734.63
592.76	1691.62
592.96	1791.97
593.15	1837.03
593.34	1728.49
593.54	1804.26
593.73	1757.16
593.92	1753.06
594.12	1783.78
594.31	1699.81
594.50	1804.26
594.70	1720.29
594.89	1914.85
595.08	1675.24
595.28	1779.68
595.47	1898.47
595.66	1722.34
595.86	1662.95
596.05	1755.11
596.24	1765.35
596.43	1828.84
596.63	1775.59
596.82	1724.39
597.01	1722.34
597.21	1820.64
597.40	1806.31
597.59	1738.73
597.79	1794.02
597.98	1751.01
598.17	1695.72
598.36	1691.62
598.56	1734.63
598.75	1716.20
598.94	1728.49
599.14	1777.64
599.33	1652.71
599.52	1796.07
599.71	1785.83
599.91	1730.53
600.10	1765.35
600.29	1712.10
600.48	1779.68
600.68	1767.40
600.87	1800.16
601.06	1703.91
601.26	1718.25
601.45	1787.88
601.64	1732.58
601.83	1775.59
602.03	1755.11
602.22	1708.01
602.41	1841.12
602.60	1869.80
602.80	1767.40
602.99	1677.29
603.18	1748.97
603.37	1828.84
603.57	1783.78
603.76	1755.11
603.95	1820.64
604.14	1697.77
604.34	1787.88
604.53	1738.73
604.72	1767.40
604.91	1785.83
605.10	1812.45
605.30	1761.25
605.49	1818.60
605.68	1798.12
605.87	1724.39
606.07	1685.48
606.26	1699.81
606.45	1751.01
606.64	1773.54
606.84	1708.01
607.03	1712.10
607.22	1759.21
607.41	1683.43
607.60	1697.77
607.80	1794.02
607.99	1755.11
608.18	1730.53
608.37	1740.77
608.56	1742.82
608.76	1791.97
608.95	1802.21
609.14	1742.82
609.33	1779.68
609.52	1738.73
609.72	1722.34
609.91	1785.83
610.10	1787.88
610.29	1808.36
610.48	1746.92
610.68	1796.07
610.87	1710.05
611.06	1718.25
611.25	1744.87
611.44	1789.92
611.63	1689.57
611.83	1789.92
612.02	1665.00
612.21	1753.06
612.40	1683.43
612.59	1667.05
612.79	1665.00
612.98	1744.87
613.17	1820.64
613.36	1765.35
613.55	1851.36
613.74	1734.63
613.93	1695.72
614.13	1650.66
614.32	1624.04
614.51	1697.77
614.70	1728.49
614.89	1693.67
615.08	1767.40
615.28	2101.22
615.47	1615.85
615.66	1724.39
615.85	1730.53
616.04	1863.65
616.23	1814.50
616.42	1685.48
616.62	1679.33
616.81	1705.96
617.00	1748.97
617.19	1816.55
617.38	1652.71
617.57	1695.72
617.76	1794.02
617.95	1751.01
618.15	1718.25
618.34	1746.92
618.53	1683.43
618.72	1837.03
618.91	1785.83
619.10	1789.92
619.29	1728.49
619.48	1732.58
619.68	1654.76
619.87	1753.06
620.06	1568.74
620.25	1755.11
620.44	1667.05
620.63	1685.48
620.82	1710.05
621.01	1755.11
621.20	1679.33
621.39	1767.40
621.59	1738.73
621.78	1710.05
621.97	1675.24
622.16	1834.98
622.35	1679.33
622.54	1849.32
622.73	1753.06
622.92	1634.28
623.11	1701.86
623.30	1662.95
623.49	1755.11
623.68	1769.44
623.88	1740.77
624.07	1607.66
624.26	1701.86
624.45	1736.68
624.64	1697.77
624.83	1742.82
625.02	1726.44
625.21	1738.73
625.40	1812.45
625.59	1828.84
625.78	1773.54
625.97	1820.64
626.16	1697.77
626.35	1834.98
626.54	1748.97
626.74	1855.46
626.93	1699.81
627.12	1691.62
627.31	1820.64
627.50	1724.39
627.69	1753.06
627.88	1726.44
628.07	1703.91
628.26	1650.66
628.45	1667.05
628.64	1667.05
628.83	1761.25
629.02	1697.77
629.21	1781.73
629.40	1656.81
629.59	1656.81
629.78	1665.00
629.97	1675.24
630.16	1683.43
630.35	1656.81
630.54	1662.95
630.73	1652.71
630.92	1798.12
631.11	1736.68
631.30	1673.19
631.49	1720.29
631.68	1751.01
631.87	1738.73
632.06	1621.99
632.25	1779.68
632.44	1769.44
632.63	1693.67
632.82	1595.37
633.01	1730.53
633.20	1712.10
633.39	1742.82
633.58	1529.83
633.77	1712.10
633.96	1718.25
634.15	1755.11
634.34	1775.59
634.53	1714.15
634.72	1658.85
634.91	1619.94
635.10	1687.53
635.29	1677.29
635.48	1761.25
635.67	1730.53
635.86	1671.14
636.05	1728.49
636.24	1740.77
636.43	1744.87
636.62	1757.16
636.81	1669.09
637.00	1728.49
637.19	1759.21
637.38	1720.29
637.57	1697.77
637.76	1755.11
637.95	1722.34
638.14	1736.68
638.33	1732.58
638.52	1767.40
638.71	1603.56
638.89	1677.29
639.08	1865.70
639.27	1818.60
639.46	1720.29
639.65	1789.92
639.84	1722.34
640.03	1763.30
640.22	1755.11
640.41	1767.40
640.60	1687.53
640.79	1738.73
640.98	1705.96
641.17	1705.96
641.36	1730.53
641.55	1748.97
641.74	1576.94
641.92	1685.48
642.11	1644.52
642.30	1718.25
642.49	1636.33
642.68	1636.33
642.87	1720.29
643.06	1834.98
643.25	1638.38
643.44	1648.61
643.63	1675.24
643.82	1751.01
644.00	1693.67
644.19	1687.53
644.38	1603.56
644.57	1761.25
644.76	1769.44
644.95	1771.49
645.14	1822.69
645.33	1640.42
645.52	1716.20
645.71	1683.43
645.89	1630.18
646.08	1730.53
646.27	1705.96
646.46	1843.17
646.65	1638.38
646.84	1683.43
647.03	1722.34
647.22	1804.26
647.40	1716.20
647.59	1687.53
647.78	1705.96
647.97	1685.48
648.16	1693.67
648.35	1736.68
648.54	1710.05
648.73	1689.57
648.91	1705.96
649.10	1734.63
649.29	1673.19
649.48	1724.39
649.67	1744.87
649.86	1746.92
650.05	1679.33
650.23	1742.82
650.42	1697.77
650.61	1736.68
650.80	1800.16
650.99	1824.74
651.18	1763.30
651.36	1722.34
651.55	1644.52
651.74	1759.21
651.93	1662.95
652.12	1714.15
652.31	1716.20
652.49	1665.00
652.68	1724.39
652.87	1804.26
653.06	1804.26
653.25	1773.54
653.44	1751.01
653.62	1746.92
653.81	1726.44
654.00	1724.39
654.19	1787.88
654.38	1912.80
654.56	1705.96
654.75	1693.67
654.94	1767.40
655.13	1687.53
655.32	1720.29
655.51	1789.92
655.69	1699.81
655.88	1751.01
656.07	1628.14
656.26	1703.91
656.45	1626.09
656.63	1765.35
656.82	1691.62
657.01	1773.54
657.20	1652.71
657.38	1845.22
657.57	1673.19
657.76	1665.00
657.95	1703.91
658.14	1703.91
658.32	1710.05
658.51	1671.14
658.70	1726.44
658.89	1638.38
659.08	1691.62
659.26	1804.26
659.45	1644.52
659.64	1787.88
659.83	1671.14
660.01	1871.84
660.20	1691.62
660.39	1810.40
660.58	1658.85
660.76	1769.44
660.95	1568.74
661.14	1685.48
661.33	1644.52
661.51	1689.57
661.70	1667.05
661.89	1716.20
662.08	1712.10
662.26	1607.66
662.45	1677.29
662.64	1812.45
662.83	1796.07
663.01	1681.38
663.20	1691.62
663.39	1816.55
663.58	1560.55
663.76	1652.71
663.95	1748.97
664.14	1746.92
664.32	1755.11
664.51	1703.91
664.70	1673.19
664.89	1642.47
665.07	1642.47
665.26	1730.53
665.45	1669.09
665.64	1771.49
665.82	1714.15
666.01	1798.12
666.20	1654.76
666.38	1802.21
666.57	1869.80
666.76	2199.52
666.95	4585.40
667.13	10350.43
667.32	15327.00
667.51	17919.73
667.69	19304.15
667.88	17878.77
668.07	12324.68
668.25	9721.71
668.44	8218.50
668.63	7284.62
668.81	6860.70
669.00	6338.46
669.19	5601.19
669.38	5222.32
669.56	4659.13
669.75	3870.66
669.94	3485.64
670.12	2918.36
670.31	2525.15
670.50	2318.30
670.68	2068.45
670.87	1980.39
671.06	1765.35
671.24	1804.26
671.43	1853.41
671.62	1695.72
671.80	1656.81
671.99	1763.30
672.18	1654.76
672.36	1697.77
672.55	1740.77
672.74	1689.57
672.92	1650.66
673.11	1812.45
673.29	1677.29
673.48	1781.73
673.67	1693.67
673.85	1769.44
674.04	1609.70
674.23	1677.29
674.41	1820.64
674.60	1691.62
674.79	1585.13
674.97	1665.00
675.16	1685.48
675.34	1816.55
675.53	1640.42
675.72	1730.53
675.90	1783.78
676.09	1726.44
676.28	1728.49
676.46	1650.66
676.65	1730.53
676.83	1652.71
677.02	1800.16
677.21	1732.58
677.39	1703.91
677.58	1621.99
677.77	1667.05
677.95	1755.11
678.14	1673.19
678.32	1720.29
678.51	1716.20
678.70	1808.36
678.88	1742.82
679.07	1665.00
679.25	1775.59
679.44	1712.10
679.63	1640.42
679.81	1699.81
680.00	1773.54
680.18	1722.34
680.37	1810.40
680.55	1755.11
680.74	1619.94
680.93	1554.41
681.11	1746.92
681.30	1779.68
681.48	1751.01
681.67	1669.09
681.85	1705.96
682.04	1693.67
682.23	1759.21
682.41	1726.44
682.60	1697.77
682.78	1705.96
682.97	1693.67
683.15	1740.77
683.34	1675.24
683.53	1816.55
683.71	1613.80
683.90	1791.97
684.08	1867.75
684.27	1730.53
684.45	1742.82
684.64	1734.63
684.82	1703.91
685.01	1705.96
685.19	1730.53
685.38	1808.36
685.57	1689.57
685.75	1675.24
685.94	1640.42
686.12	1673.19
686.31	1628.14
686.49	1800.16
686.68	1607.66
686.86	1714.15
687.05	1689.57
687.23	1816.55
687.42	1554.41
687.60	1669.09
687.79	1734.63
687.97	1740.77
688.16	1775.59
688.34	1818.60
688.53	1716.20
688.71	1689.57
688.90	1769.44
689.08	1726.44
689.27	1542.12
689.45	1800.16
689.64	1740.77
689.82	1681.38
690.01	1710.05
690.19	1763.30
690.38	1738.73
690.56	1832.93
690.75	1669.09
690.93	1685.48
691.12	1759.21
691.30	1742.82
691.49	1609.70
691.67	1714.15
691.86	1861.60
692.04	1746.92
692.23	1689.57
692.41	1703.91
692.60	1863.65
692.78	1724.39
692.97	1683.43
693.15	1789.92
693.34	1765.35
693.52	1802.21
693.71	1673.19
693.89	1656.81
694.08	1638.38
694.26	1773.54
694.44	1828.84
694.63	1714.15
694.81	1644.52
695.00	1646.57
695.18	1738.73
695.37	1837.03
695.55	1742.82
695.74	1742.82
695.92	1642.47
696.10	1787.88
696.29	1732.58
696.47	1669.09
696.66	1640.42
696.84	1730.53
697.03	1689.57
697.21	1771.49
697.40	2377.69
697.58	1769.44
697.76	1701.86
697.95	1693.67
698.13	1718.25
698.32	1683.43
698.50	1703.91
698.68	1734.63
698.87	1730.53
699.05	1820.64
699.24	1769.44
699.42	1640.42
699.61	1728.49
699.79	1728.49
699.97	1738.73
700.16	1669.09
700.34	1677.29
700.53	1716.20
700.71	1720.29
700.89	1738.73
701.08	1724.39
701.26	1755.11
701.45	2099.17
701.63	1671.14
701.81	1705.96
702.00	1656.81
702.18	1728.49
702.37	1628.14
702.55	1681.38
702.73	1669.09
702.92	1646.57
703.10	1748.97
703.28	1667.05
703.47	1599.46
703.65	1796.07
703.84	1779.68
704.02	1669.09
704.20	1847.27
704.39	1691.62
704.57	1708.01
704.75	1755.11
704.94	1691.62
705.12	1753.06
705.30	1742.82
705.49	2326.49
705.67	4425.66
705.86	9238.39
706.04	12697.41
706.22	14794.53
706.41	15382.29
706.59	13993.77
706.77	9719.66
706.96	7454.61
707.14	6596.51
707.32	5898.15
707.51	5492.65
707.69	5095.35
707.87	4200.38
708.06	3583.95
708.24	2969.55
708.42	2508.76
708.61	2244.57
708.79	1898.47
708.97	1755.11
709.16	1810.40
709.34	1773.54
709.52	1751.01
709.71	1689.57
709.89	1740.77
710.07	1667.05
710.26	1695.72
710.44	1767.40
710.62	1761.25
710.80	1681.38
710.99	1757.16
711.17	1783.78
711.35	1757.16
711.54	1687.53
711.72	1796.07
711.90	1738.73
712.09	1691.62
712.27	1667.05
712.45	1781.73
712.63	1619.94
712.82	1746.92
713.00	1654.76
713.18	1640.42
713.37	1685.48
713.55	1759.21
713.73	1761.25
713.91	1755.11
714.10	1740.77
714.28	1685.48
714.46	1697.77
714.65	1796.07
714.83	1675.24
715.01	1665.00
715.19	1742.82
715.38	1617.90
715.56	1701.86
715.74	1734.63
715.92	1691.62
716.11	1783.78
716.29	1599.46
716.47	1669.09
716.65	1675.24
716.84	1583.08
717.02	1794.02
717.20	1630.18
717.38	1634.28
717.57	1718.25
717.75	1767.40
717.93	1671.14
718.11	1738.73
718.30	1648.61
718.48	1740.77
718.66	1767.40
718.84	1802.21
719.03	1665.00
719.21	1705.96
719.39	1841.12
719.57	1789.92
719.75	1728.49
719.94	1679.33
720.12	1789.92
720.30	1746.92
720.48	1695.72
720.67	1660.90
720.85	1658.85
721.03	1607.66
721.21	1679.33
721.39	1789.92
721.58	1789.92
721.76	1650.66
721.94	1755.11
722.12	1753.06
722.30	1820.64
722.49	1710.05
722.67	1757.16
722.85	1697.77
723.03	1624.04
723.21	1687.53
723.40	1640.42
723.58	1851.36
723.76	1789.92
723.94	1746.92
724.12	1677.29
724.30	1779.68
724.49	1722.34
724.67	1675.24
724.85	1791.97
725.03	1681.38
725.21	1710.05
725.40	1798.12
725.58	1675.24
725.76	1755.11
725.94	1701.86
726.12	1587.18
726.30	1665.00
726.49	1710.05
726.67	1689.57
726.85	1730.53
727.03	1812.45
727.21	2156.51
727.39	2840.53
727.57	3788.74
727.76	4249.54
727.94	4394.94
728.12	4337.60
728.30	3708.87
728.48	2975.70
728.66	2705.37
728.84	2586.58
729.03	2275.29
729.21	2185.18
729.39	1980.39
729.57	1822.69
729.75	1789.92
729.93	1832.93
730.11	1638.38
730.30	1691.62
730.48	1681.38
730.66	1890.28
730.84	1753.06
731.02	1683.43
731.20	1662.95
731.38	1630.18
731.56	1640.42
731.74	1646.57
731.93	1751.01
732.11	1816.55
732.29	1671.14
732.47	1759.21
732.65	1697.77
732.83	1751.01
733.01	1726.44
733.19	1718.25
733.37	1777.64
733.56	1681.38
733.74	1646.57
733.92	1757.16
734.10	1669.09
734.28	1705.96
734.46	1591.27
734.64	1630.18
734.82	1662.95
735.00	1650.66
735.18	1708.01
735.36	1705.96
735.54	1705.96
735.73	1681.38
735.91	1703.91
736.09	1722.34
736.27	1705.96
736.45	1718.25
736.63	1681.38
736.81	1685.48
736.99	1689.57
737.17	1828.84
737.35	1708.01
737.53	1763.30
737.71	1673.19
737.89	1812.45
738.07	1693.67
738.25	1697.77
738.43	1591.27
738.61	1716.20
738.80	1636.33
738.98	1615.85
739.16	1658.85
739.34	1597.42
739.52	1779.68
739.70	1722.34
739.88	1771.49
740.06	1769.44
740.24	1585.13
740.42	1677.29
740.60	1591.27
740.78	1681.38
740.96	1576.94
741.14	1621.99
741.32	1757.16
741.50	1652.71
741.68	1837.03
741.86	1775.59
742.04	1626.09
742.22	1665.00
742.40	1689.57
742.58	1689.57
742.76	1638.38
742.94	1712.10
743.12	1544.17
743.30	1689.57
743.48	1697.77
743.66	1628.14
743.84	1718.25
744.02	1689.57
744.20	1677.29
744.38	1699.81
744.56	1656.81
744.74	1753.06
744.92	1730.53
745.10	1753.06
745.28	1714.15
745.46	1804.26
745.64	1624.04
745.82	1765.35
746.00	1619.94
746.18	1673.19
746.36	1667.05
746.54	1714.15
746.72	1726.44
746.90	1724.39
747.08	1734.63
747.26	1718.25
747.44	1746.92
747.62	1753.06
747.80	1724.39
747.98	1787.88
748.15	1624.04
748.33	1812.45
748.51	1679.33
748.69	1658.85
748.87	1648.61
749.05	1677.29
749.23	1728.49
749.41	1683.43
749.59	1796.07
749.77	1722.34
749.95	1665.00
750.13	1640.42
750.31	1757.16
750.49	1759.21
750.67	1742.82
750.85	1781.73
751.03	1710.05
751.20	1775.59
751.38	1703.91
751.56	1654.76
751.74	1771.49
751.92	1701.86
752.10	1677.29
752.28	1673.19
752.46	1628.14
752.64	1748.97
752.82	1699.81
753.00	1857.51
753.18	1617.90
753.35	1662.95
753.53	1673.19
753.71	1660.90
753.89	1660.90
754.07	1654.76
754.25	1740.77
754.43	1728.49
754.61	1613.80
754.79	1681.38
754.97	1806.31
755.14	1791.97
755.32	1689.57
755.50	1759.21
755.68	1722.34
755.86	1632.23
756.04	1685.48
756.22	1533.93
756.40	1765.35
756.57	1832.93
756.75	1685.48
756.93	1761.25
757.11	1773.54
757.29	1630.18
757.47	1646.57
757.65	1621.99
757.82	1527.78
758.00	1617.90
758.18	1613.80
758.36	1638.38
758.54	1753.06
758.72	1640.42
758.90	1689.57
759.07	1736.68
759.25	1683.43
759.43	1742.82
759.61	1669.09
759.79	2209.76
759.97	1699.81
760.15	1656.81
760.32	1634.28
760.50	1710.05
760.68	1804.26
760.86	1632.23
761.04	1738.73
761.22	1802.21
761.39	1662.95
761.57	1753.06
761.75	1656.81
761.93	1736.68
762.11	1646.57
762.28	1697.77
762.46	1636.33
762.64	1712.10
762.82	1675.24
763.00	1632.23
763.18	1765.35
763.35	1564.65
763.53	1708.01
763.71	1710.05
763.89	1628.14
764.07	1681.38
764.24	1705.96
764.42	1687.53
764.60	1654.76
764.78	1751.01
764.96	1705.96
765.13	1773.54
765.31	1665.00
765.49	1763.30
765.67	1652.71
765.84	1714.15
766.02	1695.72
766.20	1599.46
766.38	1714.15
766.56	1746.92
766.73	1759.21
766.91	1710.05
767.09	1679.33
767.27	1748.97
767.44	1681.38
767.62	1748.97
767.80	1685.48
767.98	1636.33
768.15	1705.96
768.33	1779.68
768.51	1736.68
768.69	1681.38
768.87	1681.38
769.04	1656.81
769.22	1847.27
769.40	1808.36
769.58	1892.32
769.75	1669.09
769.93	1777.64
770.11	1644.52
770.28	1705.96
770.46	1773.54
770.64	1732.58
770.82	1718.25
770.99	1687.53
771.17	1794.02
771.35	1679.33
771.53	1619.94
771.70	1732.58
771.88	1757.16
772.06	1671.14
772.23	1654.76
772.41	1773.54
772.59	1716.20
772.77	1675.24
772.94	1689.57
773.12	1687.53
773.30	1781.73
773.47	1679.33
773.65	1611.75
773.83	1863.65
774.01	1746.92
774.18	1632.23
774.36	1681.38
774.54	1632.23
774.71	1679.33
774.89	1599.46
775.07	1699.81
775.24	1691.62
775.42	1626.09
775.60	1730.53
775.78	1660.90
775.95	1656.81
776.13	1601.51
776.31	1615.85
776.48	1736.68
776.66	1660.90
776.84	1621.99
777.01	1783.78
777.19	1593.32
777.37	1626.09
777.54	1769.44
777.72	1777.64
777.90	1738.73
778.07	1673.19
778.25	1859.56
778.43	1761.25
778.60	1697.77
778.78	1744.87
778.96	1798.12
779.13	1583.08
779.31	1742.82
779.49	1656.81
779.66	1728.49
779.84	1677.29
780.01	1757.16
780.19	1662.95
780.37	1732.58
780.54	1755.11
780.72	1638.38
780.90	1714.15
781.07	1681.38
781.25	1621.99
781.43	1689.57
781.60	1673.19
781.78	1800.16
781.95	1632.23
782.13	1691.62
782.31	1681.38
782.48	1615.85
782.66	1605.61
782.83	1757.16
783.01	1730.53
783.19	1699.81
783.36	1648.61
783.54	1658.85
783.72	1818.60
783.89	1679.33
784.07	1753.06
784.24	1638.38
784.42	1771.49
784.60	1744.87
784.77	1683.43
784.95	1564.65
785.12	1644.52
785.30	1712.10
785.47	1648.61
785.65	1673.19
785.83	1636.33
786.00	1722.34
786.18	1699.81
786.35	1662.95
786.53	1685.48
786.71	1689.57
786.88	1720.29
787.06	1730.53
787.23	1677.29
787.41	1710.05
787.58	1662.95
787.76	1665.00
787.94	1746.92
788.11	1689.57
788.29	1615.85
788.46	1671.14
788.64	1632.23
788.81	1720.29
788.99	1613.80
789.16	1619.94
789.34	1689.57
789.52	1673.19
789.69	1675.24
789.87	1634.28
790.04	1632.23
790.22	1712.10
790.39	1869.80
790.57	1646.57
790.74	1697.77
790.92	1751.01
791.09	1662.95
791.27	1658.85
791.44	1820.64
791.62	1669.09
791.79	1789.92
791.97	1730.53
792.15	1923.04
792.32	1671.14
792.50	1718.25
792.67	1808.36
792.85	1812.45
793.02	1738.73
793.20	1722.34
793.37	1548.26
793.55	1691.62
793.72	1640.42
793.90	1701.86
794.07	1644.52
794.25	1607.66
794.42	1710.05
794.60	1638.38
794.77	1687.53
794.95	1757.16
795.12	1755.11
795.30	1673.19
795.47	1595.37
795.65	1830.88
795.82	1712.10
796.00	1675.24
796.17	1705.96
796.34	1648.61
796.52	1714.15
796.69	1730.53
796.87	1685.48
797.04	1751.01
797.22	1818.60
797.39	1699.81
797.57	1779.68
797.74	1742.82
797.92	1699.81
798.09	1667.05
798.27	1773.54
798.44	1757.16
798.62	1660.90
798.79	1742.82
798.96	1716.20
799.14	1783.78
799.31	1816.55
799.49	1701.86
799.66	1761.25
799.84	1683.43
800.01	1615.85
800.19	1638.38
800.36	1587.18
800.53	1675.24
800.71	1703.91
800.88	1834.98
801.06	1751.01
801.23	1607.66
801.41	1683.43
801.58	1673.19
801.75	1722.34
801.93	1765.35
802.10	1775.59
802.28	1658.85
802.45	1665.00
802.63	1681.38
802.80	1791.97
802.97	1646.57
803.15	1730.53
803.32	1708.01
803.50	1624.04
803.67	1669.09
803.84	1669.09
804.02	1628.14
804.19	1662.95
804.37	1558.50
804.54	1732.58
804.71	1640.42
804.89	1781.73
805.06	1593.32
805.24	1640.42
805.41	1677.29
805.58	1691.62
805.76	1902.56
805.93	1695.72
806.10	1791.97
806.28	1683.43
806.45	1689.57
806.63	1693.67
806.80	1703.91
806.97	1718.25
807.15	1665.00
807.32	1705.96
807.49	1716.20
807.67	1636.33
807.84	1738.73
808.01	1548.26
808.19	1880.04
808.36	1740.77
808.54	1701.86
808.71	1730.53
808.88	1712.10
809.06	1736.68
809.23	1779.68
809.40	1605.61
809.58	1769.44
809.75	1695.72
809.92	1652.71
810.10	1853.41
810.27	1746.92
810.44	1820.64
810.62	1724.39
810.79	1718.25
810.96	1671.14
811.14	1603.56
811.31	1673.19
811.48	1742.82
811.66	1742.82
811.83	1708.01
812.00	1759.21
812.18	1720.29
812.35	1769.44
812.52	1644.52
812.69	1693.67
812.87	1628.14
813.04	1632.23
813.21	1667.05
813.39	1681.38
813.56	1662.95
813.73	1693.67
813.91	1669.09
814.08	1681.38
814.25	1644.52
814.42	1593.32
814.60	1646.57
814.77	1728.49
814.94	1703.91
815.12	1691.62
815.29	1794.02
815.46	1671.14
815.63	1673.19
815.81	1744.87
815.98	1638.38
816.15	1685.48
816.33	1783.78
816.50	1681.38
816.67	1683.43
816.84	1724.39
817.02	1636.33
817.19	1574.89
817.36	1753.06
817.53	1720.29
817.71	1609.70
817.88	1771.49
818.05	1712.10
818.22	1748.97
818.40	1738.73
818.57	1656.81
818.74	1646.57
818.91	1705.96
819.09	1736.68
819.26	1789.92
819.43	1765.35
819.60	1656.81
819.78	1722.34
819.95	1787.88
820.12	1628.14
820.29	1744.87
820.47	1781.73
820.64	1683.43
820.81	1587.18
820.98	1548.26
821.15	1695.72
821.33	1804.26
821.50	1607.66
821.67	1716.20
821.84	1626.09
822.02	1767.40
822.19	1722.34
822.36	1675.24
822.53	1626.09
822.70	1703.91
822.88	1724.39
823.05	1783.78
823.22	1691.62
823.39	1712.10
823.56	1742.82
823.74	1796.07
823.91	1669.09
824.08	1640.42
824.25	1601.51
824.42	1726.44
824.60	1648.61
824.77	1720.29
824.94	1665.00
825.11	1726.44
825.28	1605.61
825.45	1665.00
825.63	1736.68
825.80	1615.85
825.97	1714.15
826.14	1675.24
826.31	1605.61
826.48	1689.57
826.66	1630.18
826.83	1683.43
827.00	1636.33
827.17	1632.23
827.34	1591.27
827.51	1720.29
827.69	1644.52
827.86	1605.61
828.03	1724.39
828.20	1718.25
828.37	1607.66
828.54	1724.39
828.71	1693.67
828.89	1769.44
829.06	1644.52
829.23	1742.82
829.40	1626.09
829.57	1710.05
829.74	1667.05
829.91	1632.23
830.09	1630.18
830.26	1693.67
830.43	1804.26
830.60	1691.62
830.77	1732.58
830.94	1775.59
831.11	1726.44
831.28	1685.48
831.46	1769.44
831.63	1691.62
831.80	1771.49
831.97	1667.05
832.14	1644.52
832.31	1665.00
832.48	1636.33
832.65	1730.53
832.82	1648.61
832.99	1630.18
833.17	1634.28
833.34	1759.21
833.51	1728.49
833.68	1605.61
833.85	1728.49
834.02	1691.62
834.19	1738.73
834.36	1675.24
834.53	1679.33
834.70	1783.78
834.87	1726.44
835.04	1708.01
835.22	1603.56
835.39	1675.24
835.56	1755.11
835.73	1734.63
835.90	1810.40
836.07	1615.85
836.24	1744.87
836.41	1554.41
836.58	1677.29
836.75	1724.39
836.92	1669.09
837.09	1619.94
837.26	1718.25
837.43	1691.62
837.60	1734.63
837.77	1554.41
837.94	1734.63
838.12	1800.16
838.29	1695.72
838.46	1642.47
838.63	1720.29
838.80	1708.01
838.97	1771.49
839.14	1656.81
839.31	1665.00
839.48	1677.29
839.65	1697.77
839.82	1753.06
839.99	1708.01
840.16	1722.34
840.33	1677.29
840.50	1732.58
840.67	1603.56
840.84	1544.17
841.01	1683.43
841.18	1611.75
841.35	1632.23
841.52	1724.39
841.69	1748.97
841.86	1656.81
842.03	1699.81
842.20	1718.25
842.37	1800.16
842.54	1673.19
842.71	1699.81
842.88	1685.48
843.05	1767.40
843.22	1658.85
843.39	1703.91
843.56	1714.15
843.73	1738.73
843.90	1646.57
844.07	1671.14
844.24	1824.74
844.41	1755.11
844.58	1630.18
844.75	1724.39
844.92	1673.19
845.09	1763.30
845.26	1595.37
845.43	1759.21
845.60	1628.14
845.77	1705.96
845.94	1771.49
846.10	1742.82
846.27	1617.90
846.44	1617.90
846.61	1689.57
846.78	1759.21
846.95	1673.19
847.12	1644.52
847.29	1667.05
847.46	1689.57
847.63	1765.35
847.80	1669.09
847.97	1667.05
848.14	1828.84
848.31	1708.01
848.48	1548.26
848.65	1658.85
848.82	1658.85
848.98	1789.92
849.15	1777.64
849.32	1720.29
849.49	1769.44
849.66	1708.01
849.83	1683.43
850.00	1603.56
850.17	1748.97
850.34	1722.34
850.51	1730.53
850.68	1773.54
850.85	1804.26
851.01	1697.77
851.18	1722.34
851.35	1724.39
851.52	1681.38
851.69	1837.03
851.86	1683.43
852.03	1695.72
852.20	1738.73
852.37	1677.29
852.53	1630.18
852.70	1675.24
852.87	1710.05
853.04	1695.72
853.21	1685.48
853.38	1771.49
853.55	1699.81
853.72	1771.49
853.89	1630.18
854.05	1673.19
854.22	1685.48
854.39	1710.05
854.56	1755.11
854.73	1789.92
854.90	1777.64
855.07	1695.72
855.23	1617.90
855.40	1751.01
855.57	1685.48
855.74	1660.90
855.91	1861.60
856.08	1687.53
856.25	1619.94
856.41	1701.86
856.58	1693.67
856.75	1740.77
856.92	1652.71
857.09	1742.82
857.26	1644.52
857.42	1652.71
857.59	1714.15
857.76	1642.47
857.93	1714.15
858.10	1757.16
858.27	1738.73
858.43	1648.61
858.60	1691.62
858.77	1673.19
858.94	1667.05
859.11	1738.73
859.27	1636.33
859.44	1683.43
859.61	1841.12
859.78	1763.30
859.95	1652.71
860.12	1665.00
860.28	1867.75
860.45	1779.68
860.62	1679.33
860.79	1718.25
860.95	1689.57
861.12	1634.28
861.29	1656.81
861.46	1697.77
861.63	1693.67
861.79	1730.53
861.96	1685.48
862.13	1673.19
862.30	1685.48
862.47	1595.37
862.63	1687.53
862.80	1755.11
862.97	1769.44
863.14	1800.16
863.30	1710.05
863.47	1728.49
863.64	1855.46
863.81	1667.05
863.97	1701.86
864.14	1718.25
864.31	1742.82
864.48	1710.05
864.65	1589.22
864.81	1757.16
864.98	1699.81
865.15	1722.34
865.32	1738.73
865.48	1738.73
865.65	1785.83
865.82	1652.71
865.98	1724.39
866.15	1740.77
866.32	1685.48
866.49	1677.29
866.65	1802.21
866.82	1642.47
866.99	1714.15
867.16	1665.00
867.32	1656.81
867.49	1654.76
867.66	1691.62
867.83	1669.09
867.99	1607.66
868.16	1673.19
868.33	1634.28
868.49	1667.05
868.66	1642.47
868.83	1697.77
868.99	1730.53
869.16	1722.34
869.33	1839.08
869.50	1751.01
869.66	1736.68
869.83	1650.66
870.00	1615.85
870.16	1769.44
870.33	1689.57
870.50	1718.25
870.66	1648.61
870.83	1812.45
871.00	1736.68
871.17	1763.30
871.33	1763.30
871.50	1697.77
871.67	1730.53
871.83	1734.63
872.00	1742.82
872.17	1712.10
872.33	1818.60
872.50	1771.49
872.67	1736.68
872.83	1705.96
873.00	1681.38
873.17	1667.05
873.33	1785.83
873.50	1734.63
873.67	1681.38
873.83	1656.81
874.00	1701.86
874.16	1755.11
874.33	1648.61
874.50	1634.28
874.66	1734.63
874.83	1658.85
875.00	1828.84
875.16	1802.21
875.33	1732.58
875.50	1554.41
875.66	1665.00
875.83	1705.96
875.99	1716.20
876.16	1687.53
876.33	1677.29
876.49	1667.05
876.66	1763.30
876.83	1701.86
876.99	1546.22
877.16	1660.90
877.32	1640.42
877.49	1624.04
877.66	1673.19
877.82	1830.88
877.99	1644.52
878.15	1730.53
878.32	1691.62
878.49	1783.78
878.65	1662.95
878.82	1820.64
878.98	1667.05
879.15	1722.34
879.32	1765.35
879.48	1767.40
879.65	1701.86
879.81	1636.33
879.98	1699.81
880.15	1665.00
880.31	1775.59
880.48	1701.86
880.64	1791.97
880.81	1718.25
880.97	1851.36
881.14	1746.92
881.31	1685.48
881.47	1814.50
881.64	1736.68
881.80	1638.38
881.97	1740.77
882.13	1761.25
882.30	1621.99
882.47	1677.29
882.63	1624.04
882.80	1640.42
882.96	1669.09
883.13	1697.77
883.29	1660.90
883.46	1728.49
883.62	1834.98
883.79	1705.96
883.95	1705.96
884.12	1677.29
884.29	1722.34
884.45	1765.35
884.62	1781.73
884.78	1677.29
884.95	1757.16
885.11	1650.66
885.28	1738.73
885.44	1648.61
885.61	1753.06
885.77	1738.73
885.94	1726.44
886.10	1773.54
886.27	1695.72
886.43	1740.77
886.60	1746.92
886.76	1665.00
886.93	1611.75
887.09	1767.40
887.26	1624.04
887.42	1689.57
887.59	1742.82
887.75	1898.47
887.92	1783.78
888.08	1761.25
888.25	1767.40
888.41	1718.25
888.58	1769.44
888.74	1619.94
888.91	1730.53
>>>>>End Processed Spectral Data<<<<<
