SpectraSuite Data File
++++++++++++++++++++++++++++++++++++
Date: Mon Jun 06 13:06:57 CEST 2016
User: root
Dark Spectrum Present: No
Reference Spectrum Present: No
Number of Sampled Component Spectra: 1
Spectrometers: USB4C02835
Integration Time (usec): 100000 (USB4C02835)
Spectra Averaged: 1 (USB4C02835)
Boxcar Smoothing: 0 (USB4C02835)
Correct for Electrical Dark: No (USB4C02835)
Strobe/Lamp Enabled: No (USB4C02835)
Correct for Detector Non-linearity: No (USB4C02835)
Correct for Stray Light: No (USB4C02835)
Number of Pixels in Processed Spectrum: 3648
>>>>>Begin Processed Spectral Data<<<<<
177.47	1386.47
177.69	1386.47
177.91	1386.47
178.13	1423.34
178.36	1499.11
178.58	1660.90
178.80	1734.63
179.02	1593.32
179.24	1589.22
179.46	1697.77
179.68	1775.59
179.90	1650.66
180.13	1636.33
180.35	1714.15
180.57	1710.05
180.79	1781.73
181.01	1724.39
181.23	1744.87
181.45	1736.68
181.67	1677.29
181.90	1761.25
182.12	1593.32
182.34	1675.24
182.56	1671.14
182.78	1722.34
183.00	1734.63
183.22	1744.87
183.44	1607.66
183.66	1875.94
183.89	1845.22
184.11	1689.57
184.33	1753.06
184.55	1738.73
184.77	1699.81
184.99	1697.77
185.21	1632.23
185.43	1757.16
185.65	1710.05
185.87	1685.48
186.10	1751.01
186.32	1779.68
186.54	1791.97
186.76	1763.30
186.98	1710.05
187.20	1708.01
187.42	1587.18
187.64	1689.57
187.86	1734.63
188.08	1689.57
188.30	1662.95
188.52	1736.68
188.75	1783.78
188.97	1839.08
189.19	1609.70
189.41	1675.24
189.63	1738.73
189.85	1662.95
190.07	1714.15
190.29	1697.77
190.51	1810.40
190.73	1660.90
190.95	1777.64
191.17	1769.44
191.39	1638.38
191.61	1720.29
191.84	1665.00
192.06	1800.16
192.28	1556.46
192.50	1896.42
192.72	1679.33
192.94	1730.53
193.16	1763.30
193.38	1748.97
193.60	1710.05
193.82	1699.81
194.04	1734.63
194.26	1767.40
194.48	1699.81
194.70	1675.24
194.92	1640.42
195.14	1814.50
195.36	1638.38
195.58	1720.29
195.80	1679.33
196.02	1634.28
196.24	1716.20
196.46	1738.73
196.69	1695.72
196.91	1886.18
197.13	1642.47
197.35	1691.62
197.57	1791.97
197.79	1769.44
198.01	1738.73
198.23	1714.15
198.45	1781.73
198.67	1632.23
198.89	1769.44
199.11	1736.68
199.33	1652.71
199.55	1595.37
199.77	1705.96
199.99	1785.83
200.21	1683.43
200.43	1624.04
200.65	1658.85
200.87	1585.13
201.09	1732.58
201.31	1685.48
201.53	1738.73
201.75	1701.86
201.97	1718.25
202.19	1693.67
202.41	1644.52
202.63	1812.45
202.85	1724.39
203.07	1763.30
203.29	1710.05
203.51	1574.89
203.73	1646.57
203.95	1880.04
204.17	1718.25
204.39	1722.34
204.61	1667.05
204.83	1720.29
205.05	1742.82
205.27	1714.15
205.49	1824.74
205.71	1673.19
205.93	1587.18
206.15	1689.57
206.37	1689.57
206.59	1671.14
206.81	1609.70
207.03	1642.47
207.25	1636.33
207.47	1742.82
207.69	1679.33
207.91	1748.97
208.13	1722.34
208.34	1681.38
208.56	1685.48
208.78	1734.63
209.00	1656.81
209.22	1630.18
209.44	1718.25
209.66	1609.70
209.88	1687.53
210.10	1681.38
210.32	1691.62
210.54	1736.68
210.76	1611.75
210.98	1787.88
211.20	1642.47
211.42	1726.44
211.64	1748.97
211.86	1701.86
212.08	1718.25
212.30	1712.10
212.52	1699.81
212.74	1708.01
212.96	1687.53
213.17	1736.68
213.39	1701.86
213.61	1714.15
213.83	1794.02
214.05	1619.94
214.27	1712.10
214.49	1648.61
214.71	1648.61
214.93	1798.12
215.15	1634.28
215.37	1765.35
215.59	1595.37
215.81	1712.10
216.03	1794.02
216.24	1759.21
216.46	1669.09
216.68	1683.43
216.90	1742.82
217.12	1751.01
217.34	1679.33
217.56	1634.28
217.78	1761.25
218.00	1695.72
218.22	1615.85
218.44	1656.81
218.66	1656.81
218.87	1826.79
219.09	1705.96
219.31	1751.01
219.53	1753.06
219.75	1671.14
219.97	1665.00
220.19	1640.42
220.41	1673.19
220.63	1771.49
220.85	1773.54
221.06	1679.33
221.28	1759.21
221.50	1746.92
221.72	1734.63
221.94	1765.35
222.16	1681.38
222.38	1761.25
222.60	1740.77
222.82	1697.77
223.03	1771.49
223.25	1597.42
223.47	1736.68
223.69	1816.55
223.91	1648.61
224.13	1634.28
224.35	1650.66
224.57	1685.48
224.78	1740.77
225.00	1638.38
225.22	1722.34
225.44	1714.15
225.66	1689.57
225.88	1720.29
226.10	1746.92
226.32	1740.77
226.53	1705.96
226.75	1673.19
226.97	1667.05
227.19	1726.44
227.41	1673.19
227.63	1560.55
227.85	1603.56
228.06	1740.77
228.28	1703.91
228.50	1767.40
228.72	1669.09
228.94	1685.48
229.16	1570.79
229.37	1650.66
229.59	1554.41
229.81	1794.02
230.03	1738.73
230.25	1626.09
230.47	1624.04
230.69	1718.25
230.90	1716.20
231.12	1675.24
231.34	1675.24
231.56	1767.40
231.78	1576.94
232.00	1626.09
232.21	1652.71
232.43	1654.76
232.65	1566.70
232.87	1705.96
233.09	1632.23
233.30	1644.52
233.52	1689.57
233.74	1691.62
233.96	1710.05
234.18	1695.72
234.40	1685.48
234.61	1812.45
234.83	1617.90
235.05	1642.47
235.27	1759.21
235.49	1771.49
235.70	1669.09
235.92	1742.82
236.14	1703.91
236.36	1818.60
236.58	1607.66
236.79	1693.67
237.01	1697.77
237.23	1687.53
237.45	1789.92
237.67	1654.76
237.88	1677.29
238.10	1771.49
238.32	1630.18
238.54	1609.70
238.76	1681.38
238.97	1648.61
239.19	1648.61
239.41	1820.64
239.63	1662.95
239.85	1695.72
240.06	1765.35
240.28	1650.66
240.50	1802.21
240.72	1689.57
240.93	1669.09
241.15	1759.21
241.37	1703.91
241.59	1759.21
241.81	1677.29
242.02	1667.05
242.24	1640.42
242.46	1695.72
242.68	1716.20
242.89	1755.11
243.11	1761.25
243.33	1701.86
243.55	1720.29
243.76	1714.15
243.98	1634.28
244.20	1703.91
244.42	1697.77
244.64	1714.15
244.85	1683.43
245.07	1648.61
245.29	1714.15
245.51	1777.64
245.72	1820.64
245.94	1722.34
246.16	1777.64
246.38	1738.73
246.59	1609.70
246.81	1681.38
247.03	1640.42
247.24	1615.85
247.46	1646.57
247.68	1693.67
247.90	1703.91
248.11	1669.09
248.33	1773.54
248.55	1763.30
248.77	1804.26
248.98	1705.96
249.20	1794.02
249.42	1660.90
249.64	1736.68
249.85	1744.87
250.07	1640.42
250.29	1757.16
250.50	1683.43
250.72	1613.80
250.94	1689.57
251.16	1746.92
251.37	1787.88
251.59	1701.86
251.81	1812.45
252.02	1775.59
252.24	1669.09
252.46	1755.11
252.68	1714.15
252.89	1671.14
253.11	1640.42
253.33	1820.64
253.54	1791.97
253.76	1626.09
253.98	1691.62
254.20	1677.29
254.41	1638.38
254.63	1677.29
254.85	1613.80
255.06	1626.09
255.28	1765.35
255.50	1708.01
255.71	1648.61
255.93	1669.09
256.15	1691.62
256.36	1654.76
256.58	1656.81
256.80	1755.11
257.02	1630.18
257.23	1603.56
257.45	1738.73
257.67	1751.01
257.88	1660.90
258.10	1716.20
258.32	1703.91
258.53	1691.62
258.75	1849.32
258.97	1644.52
259.18	1660.90
259.40	1673.19
259.62	1755.11
259.83	1812.45
260.05	1691.62
260.27	2002.91
260.48	1685.48
260.70	1630.18
260.92	1716.20
261.13	1681.38
261.35	1673.19
261.57	1652.71
261.78	1652.71
262.00	1574.89
262.22	1755.11
262.43	1613.80
262.65	1679.33
262.86	1759.21
263.08	1822.69
263.30	1746.92
263.51	1595.37
263.73	1658.85
263.95	1822.69
264.16	1693.67
264.38	1644.52
264.60	1685.48
264.81	1710.05
265.03	1738.73
265.25	1710.05
265.46	1712.10
265.68	1804.26
265.89	1742.82
266.11	1607.66
266.33	1781.73
266.54	1755.11
266.76	1675.24
266.98	1714.15
267.19	1791.97
267.41	1779.68
267.62	1722.34
267.84	1673.19
268.06	1755.11
268.27	1679.33
268.49	1814.50
268.70	1769.44
268.92	1759.21
269.14	1613.80
269.35	1591.27
269.57	1716.20
269.79	1775.59
270.00	1689.57
270.22	1771.49
270.43	1665.00
270.65	1615.85
270.87	1701.86
271.08	1708.01
271.30	1779.68
271.51	1671.14
271.73	1683.43
271.95	1773.54
272.16	1599.46
272.38	1730.53
272.59	1675.24
272.81	1701.86
273.02	1767.40
273.24	1732.58
273.46	1767.40
273.67	1628.14
273.89	1691.62
274.10	1638.38
274.32	1734.63
274.54	1701.86
274.75	1714.15
274.97	1660.90
275.18	1849.32
275.40	1699.81
275.61	1613.80
275.83	1665.00
276.05	1638.38
276.26	1728.49
276.48	1748.97
276.69	1699.81
276.91	1765.35
277.12	1734.63
277.34	1728.49
277.55	1716.20
277.77	1687.53
277.99	1751.01
278.20	1603.56
278.42	1646.57
278.63	1697.77
278.85	1693.67
279.06	1644.52
279.28	1767.40
279.49	1742.82
279.71	1757.16
279.93	1753.06
280.14	1767.40
280.36	1724.39
280.57	1751.01
280.79	1804.26
281.00	1738.73
281.22	1669.09
281.43	1734.63
281.65	1615.85
281.86	1681.38
282.08	1689.57
282.29	1841.12
282.51	1656.81
282.73	1720.29
282.94	1640.42
283.16	1777.64
283.37	1744.87
283.59	1740.77
283.80	1753.06
284.02	1677.29
284.23	1722.34
284.45	1673.19
284.66	1646.57
284.88	1660.90
285.09	1767.40
285.31	1695.72
285.52	1671.14
285.74	1642.47
285.95	1738.73
286.17	1742.82
286.38	1787.88
286.60	1630.18
286.81	1628.14
287.03	1726.44
287.24	1746.92
287.46	1794.02
287.67	1710.05
287.89	1820.64
288.10	1697.77
288.32	1710.05
288.53	1796.07
288.75	1763.30
288.96	1773.54
289.18	1652.71
289.39	1681.38
289.61	1816.55
289.82	1853.41
290.04	1818.60
290.25	1613.80
290.47	1673.19
290.68	1673.19
290.90	1802.21
291.11	1662.95
291.33	1755.11
291.54	1656.81
291.76	1714.15
291.97	1691.62
292.18	1705.96
292.40	1597.42
292.61	1640.42
292.83	1839.08
293.04	1740.77
293.26	1765.35
293.47	1755.11
293.69	1624.04
293.90	1730.53
294.12	1757.16
294.33	1667.05
294.55	1679.33
294.76	1783.78
294.97	1783.78
295.19	1783.78
295.40	1595.37
295.62	1759.21
295.83	1767.40
296.05	1648.61
296.26	1763.30
296.48	1671.14
296.69	1648.61
296.90	1669.09
297.12	1751.01
297.33	1722.34
297.55	1697.77
297.76	1724.39
297.98	1722.34
298.19	1726.44
298.41	1671.14
298.62	1632.23
298.83	1808.36
299.05	1673.19
299.26	1673.19
299.48	1640.42
299.69	1685.48
299.90	1667.05
300.12	1601.51
300.33	1798.12
300.55	1574.89
300.76	1779.68
300.98	1634.28
301.19	1812.45
301.40	1665.00
301.62	1716.20
301.83	1804.26
302.05	1716.20
302.26	1669.09
302.47	1695.72
302.69	1683.43
302.90	1695.72
303.12	1587.18
303.33	1730.53
303.54	1802.21
303.76	1783.78
303.97	1718.25
304.19	1710.05
304.40	1605.61
304.61	1677.29
304.83	1826.79
305.04	1746.92
305.26	1658.85
305.47	1656.81
305.68	1634.28
305.90	1636.33
306.11	1714.15
306.33	1681.38
306.54	1703.91
306.75	1624.04
306.97	1554.41
307.18	1644.52
307.39	1679.33
307.61	1755.11
307.82	1718.25
308.04	1728.49
308.25	1708.01
308.46	1665.00
308.68	1720.29
308.89	1736.68
309.10	1695.72
309.32	1710.05
309.53	1718.25
309.74	1708.01
309.96	1695.72
310.17	1763.30
310.39	1660.90
310.60	1751.01
310.81	1650.66
311.03	1595.37
311.24	1695.72
311.45	1767.40
311.67	1761.25
311.88	1724.39
312.09	1738.73
312.31	1691.62
312.52	1658.85
312.73	1714.15
312.95	1632.23
313.16	1697.77
313.37	1767.40
313.59	1732.58
313.80	1738.73
314.01	1732.58
314.23	1695.72
314.44	1634.28
314.65	1599.46
314.87	1640.42
315.08	1656.81
315.29	1599.46
315.51	1646.57
315.72	1628.14
315.93	1781.73
316.15	1855.46
316.36	1689.57
316.57	1673.19
316.79	1757.16
317.00	1669.09
317.21	1757.16
317.43	1687.53
317.64	1669.09
317.85	1689.57
318.07	1677.29
318.28	1740.77
318.49	1761.25
318.70	1894.37
318.92	1808.36
319.13	1824.74
319.34	1863.65
319.56	1822.69
319.77	1796.07
319.98	1767.40
320.20	1808.36
320.41	1689.57
320.62	1712.10
320.83	1667.05
321.05	1812.45
321.26	1677.29
321.47	1728.49
321.69	1771.49
321.90	1581.03
322.11	1701.86
322.32	1722.34
322.54	1779.68
322.75	1708.01
322.96	1839.08
323.18	1701.86
323.39	1601.51
323.60	1716.20
323.81	1757.16
324.03	1621.99
324.24	1726.44
324.45	1695.72
324.66	1648.61
324.88	1751.01
325.09	1853.41
325.30	1751.01
325.52	1681.38
325.73	1679.33
325.94	1624.04
326.15	1595.37
326.37	1730.53
326.58	1796.07
326.79	1765.35
327.00	1669.09
327.22	1662.95
327.43	1654.76
327.64	1576.94
327.85	1761.25
328.07	1695.72
328.28	1847.27
328.49	1667.05
328.70	1615.85
328.92	1716.20
329.13	1744.87
329.34	1751.01
329.55	1785.83
329.76	1728.49
329.98	1669.09
330.19	1746.92
330.40	1759.21
330.61	1695.72
330.83	1787.88
331.04	1628.14
331.25	1775.59
331.46	1630.18
331.68	1634.28
331.89	1708.01
332.10	1601.51
332.31	1587.18
332.52	1701.86
332.74	1736.68
332.95	1599.46
333.16	1708.01
333.37	1738.73
333.58	1673.19
333.80	1673.19
334.01	1587.18
334.22	1738.73
334.43	1681.38
334.64	1710.05
334.86	1574.89
335.07	1673.19
335.28	1738.73
335.49	1591.27
335.70	1789.92
335.92	1789.92
336.13	1884.13
336.34	1632.23
336.55	1728.49
336.76	1718.25
336.98	1519.59
337.19	1644.52
337.40	1796.07
337.61	1865.70
337.82	1628.14
338.04	1759.21
338.25	1615.85
338.46	1665.00
338.67	1679.33
338.88	1714.15
339.09	1677.29
339.31	1658.85
339.52	1642.47
339.73	1607.66
339.94	1609.70
340.15	1699.81
340.36	1648.61
340.58	1730.53
340.79	1642.47
341.00	1658.85
341.21	1695.72
341.42	1744.87
341.63	1656.81
341.85	1746.92
342.06	1660.90
342.27	1677.29
342.48	1781.73
342.69	1642.47
342.90	1761.25
343.12	1722.34
343.33	1617.90
343.54	1732.58
343.75	1826.79
343.96	1697.77
344.17	1691.62
344.38	1779.68
344.60	1744.87
344.81	1697.77
345.02	1730.53
345.23	1767.40
345.44	1849.32
345.65	1714.15
345.86	1742.82
346.07	1660.90
346.29	1669.09
346.50	1791.97
346.71	1714.15
346.92	1736.68
347.13	1877.99
347.34	1693.67
347.55	1624.04
347.76	1755.11
347.98	1667.05
348.19	1697.77
348.40	1742.82
348.61	1705.96
348.82	1771.49
349.03	1722.34
349.24	1570.79
349.45	1888.23
349.66	1593.32
349.88	1669.09
350.09	1644.52
350.30	1779.68
350.51	1796.07
350.72	1679.33
350.93	1722.34
351.14	1705.96
351.35	1722.34
351.56	1697.77
351.77	1748.97
351.99	1646.57
352.20	1751.01
352.41	1765.35
352.62	1638.38
352.83	1769.44
353.04	1712.10
353.25	1662.95
353.46	1722.34
353.67	1726.44
353.88	1650.66
354.09	1695.72
354.30	1720.29
354.52	1761.25
354.73	1751.01
354.94	1689.57
355.15	1748.97
355.36	1742.82
355.57	1748.97
355.78	1722.34
355.99	1726.44
356.20	1730.53
356.41	1742.82
356.62	1689.57
356.83	1695.72
357.04	1763.30
357.25	1644.52
357.46	1705.96
357.68	1701.86
357.89	1617.90
358.10	1667.05
358.31	1640.42
358.52	1718.25
358.73	1697.77
358.94	1675.24
359.15	1654.76
359.36	1724.39
359.57	1695.72
359.78	1665.00
359.99	1689.57
360.20	1667.05
360.41	1650.66
360.62	1753.06
360.83	1753.06
361.04	1671.14
361.25	1687.53
361.46	1765.35
361.67	1726.44
361.88	1824.74
362.09	1738.73
362.30	1691.62
362.51	1665.00
362.72	1705.96
362.93	1767.40
363.14	1796.07
363.35	1757.16
363.56	1615.85
363.78	1699.81
363.99	1712.10
364.20	1574.89
364.41	1726.44
364.62	1843.17
364.83	1812.45
365.04	1621.99
365.25	1667.05
365.46	1890.28
365.67	1708.01
365.88	1581.03
366.09	1671.14
366.30	1722.34
366.51	1650.66
366.72	1619.94
366.93	1689.57
367.14	1632.23
367.35	1753.06
367.56	1699.81
367.77	1718.25
367.98	1673.19
368.18	1679.33
368.39	1748.97
368.60	1640.42
368.81	1757.16
369.02	1667.05
369.23	1679.33
369.44	1632.23
369.65	1626.09
369.86	1677.29
370.07	1742.82
370.28	1703.91
370.49	1679.33
370.70	1720.29
370.91	1601.51
371.12	1615.85
371.33	1751.01
371.54	1632.23
371.75	1816.55
371.96	1497.07
372.17	1681.38
372.38	1693.67
372.59	1734.63
372.80	1734.63
373.01	1675.24
373.22	1710.05
373.43	1708.01
373.64	1658.85
373.85	1769.44
374.06	1832.93
374.26	1746.92
374.47	1798.12
374.68	1732.58
374.89	1665.00
375.10	1679.33
375.31	1724.39
375.52	1742.82
375.73	1693.67
375.94	1607.66
376.15	1796.07
376.36	1607.66
376.57	1611.75
376.78	1650.66
376.99	1675.24
377.20	1730.53
377.40	1624.04
377.61	1787.88
377.82	1624.04
378.03	1742.82
378.24	1705.96
378.45	1699.81
378.66	1714.15
378.87	1630.18
379.08	1615.85
379.29	1714.15
379.50	1767.40
379.71	1638.38
379.91	1755.11
380.12	1697.77
380.33	1683.43
380.54	1718.25
380.75	1640.42
380.96	1642.47
381.17	1724.39
381.38	1669.09
381.59	1679.33
381.80	1732.58
382.00	1834.98
382.21	1736.68
382.42	1867.75
382.63	1888.23
382.84	1759.21
383.05	1740.77
383.26	1830.88
383.47	1699.81
383.68	1701.86
383.88	1734.63
384.09	1824.74
384.30	1832.93
384.51	1777.64
384.72	1591.27
384.93	1570.79
385.14	1718.25
385.35	1751.01
385.55	1640.42
385.76	1789.92
385.97	1626.09
386.18	1599.46
386.39	1617.90
386.60	1675.24
386.81	1724.39
387.02	1628.14
387.22	1679.33
387.43	1796.07
387.64	1787.88
387.85	1771.49
388.06	2293.72
388.27	4259.78
388.48	6768.54
388.68	8187.78
388.89	9619.31
389.10	9885.55
389.31	8642.43
389.52	7577.48
389.73	6733.72
389.93	6287.26
390.14	5724.07
390.35	5162.93
390.56	4585.40
390.77	3655.62
390.98	3047.38
391.18	2471.90
391.39	2127.84
391.60	1785.83
391.81	1851.36
392.02	1689.57
392.23	1839.08
392.43	1720.29
392.64	1841.12
392.85	1777.64
393.06	1763.30
393.27	1759.21
393.47	1669.09
393.68	1744.87
393.89	1685.48
394.10	1728.49
394.31	1687.53
394.52	1665.00
394.72	1660.90
394.93	1744.87
395.14	1634.28
395.35	1683.43
395.56	1671.14
395.76	1712.10
395.97	1863.65
396.18	1847.27
396.39	1787.88
396.60	2095.07
396.80	1814.50
397.01	1777.64
397.22	1798.12
397.43	1841.12
397.64	1712.10
397.84	1738.73
398.05	1849.32
398.26	1736.68
398.47	1716.20
398.67	1822.69
398.88	1617.90
399.09	1763.30
399.30	1742.82
399.51	1759.21
399.71	1650.66
399.92	1665.00
400.13	1773.54
400.34	1699.81
400.54	1644.52
400.75	1734.63
400.96	1716.20
401.17	1849.32
401.37	1763.30
401.58	1693.67
401.79	1705.96
402.00	1812.45
402.21	2035.68
402.41	1904.61
402.62	1935.33
402.83	2047.97
403.04	1949.67
403.24	2047.97
403.45	1853.41
403.66	1964.00
403.87	1765.35
404.07	1953.76
404.28	1818.60
404.49	1843.17
404.70	1775.59
404.90	1775.59
405.11	1705.96
405.32	1789.92
405.52	1722.34
405.73	1632.23
405.94	1636.33
406.15	1744.87
406.35	1710.05
406.56	1732.58
406.77	1705.96
406.98	1732.58
407.18	1581.03
407.39	1773.54
407.60	1607.66
407.80	1712.10
408.01	1789.92
408.22	1746.92
408.43	1708.01
408.63	1738.73
408.84	1695.72
409.05	1785.83
409.25	1636.33
409.46	1624.04
409.67	1726.44
409.88	1718.25
410.08	1660.90
410.29	1677.29
410.50	1730.53
410.70	1724.39
410.91	1595.37
411.12	1740.77
411.32	1634.28
411.53	1617.90
411.74	1828.84
411.95	1722.34
412.15	1712.10
412.36	1816.55
412.57	1734.63
412.77	1837.03
412.98	1705.96
413.19	1699.81
413.39	1767.40
413.60	1712.10
413.81	1757.16
414.01	1697.77
414.22	1775.59
414.43	1669.09
414.63	1769.44
414.84	1818.60
415.05	1642.47
415.25	1679.33
415.46	1783.78
415.67	1626.09
415.87	1732.58
416.08	1742.82
416.29	1662.95
416.49	1689.57
416.70	1724.39
416.91	1683.43
417.11	1708.01
417.32	1779.68
417.53	1744.87
417.73	1724.39
417.94	1658.85
418.15	1732.58
418.35	1656.81
418.56	1748.97
418.77	1818.60
418.97	1708.01
419.18	1736.68
419.38	1636.33
419.59	1691.62
419.80	1808.36
420.00	1732.58
420.21	1675.24
420.42	1714.15
420.62	1710.05
420.83	1630.18
421.04	1732.58
421.24	1611.75
421.45	1736.68
421.65	1759.21
421.86	1685.48
422.07	1753.06
422.27	1742.82
422.48	1693.67
422.69	1601.51
422.89	1695.72
423.10	1728.49
423.30	1615.85
423.51	1675.24
423.72	1689.57
423.92	1724.39
424.13	1646.57
424.33	1773.54
424.54	1740.77
424.75	1685.48
424.95	1736.68
425.16	1724.39
425.36	1621.99
425.57	1802.21
425.78	1726.44
425.98	1708.01
426.19	1691.62
426.39	1593.32
426.60	1759.21
426.81	1777.64
427.01	1705.96
427.22	1660.90
427.42	1587.18
427.63	1722.34
427.83	1767.40
428.04	1789.92
428.25	1804.26
428.45	1740.77
428.66	1738.73
428.86	1685.48
429.07	1656.81
429.28	1738.73
429.48	1759.21
429.69	1589.22
429.89	1722.34
430.10	1617.90
430.30	1791.97
430.51	1759.21
430.71	1648.61
430.92	1669.09
431.13	1654.76
431.33	1687.53
431.54	1716.20
431.74	1775.59
431.95	1796.07
432.15	1611.75
432.36	1746.92
432.56	1728.49
432.77	1837.03
432.98	1808.36
433.18	1777.64
433.39	1689.57
433.59	1679.33
433.80	1800.16
434.00	1820.64
434.21	1648.61
434.41	1724.39
434.62	1814.50
434.82	1720.29
435.03	1662.95
435.23	1738.73
435.44	1638.38
435.64	1642.47
435.85	1673.19
436.06	1701.86
436.26	1753.06
436.47	1689.57
436.67	1703.91
436.88	1718.25
437.08	1634.28
437.29	1843.17
437.49	1732.58
437.70	1785.83
437.90	1734.63
438.11	1882.08
438.31	1769.44
438.52	1892.32
438.72	1755.11
438.93	1980.39
439.13	1710.05
439.34	1746.92
439.54	1718.25
439.75	1845.22
439.95	1720.29
440.16	1683.43
440.36	1794.02
440.57	1724.39
440.77	1755.11
440.98	1718.25
441.18	1877.99
441.39	1675.24
441.59	1712.10
441.80	1849.32
442.00	1814.50
442.21	1867.75
442.41	1626.09
442.62	1781.73
442.82	1744.87
443.02	1693.67
443.23	1759.21
443.43	1738.73
443.64	1839.08
443.84	1701.86
444.05	1832.93
444.25	1781.73
444.46	1730.53
444.66	1734.63
444.87	1843.17
445.07	1632.23
445.28	1681.38
445.48	1839.08
445.69	1710.05
445.89	1925.09
446.09	1806.31
446.30	1937.38
446.50	2617.30
446.71	3725.26
446.91	4351.93
447.12	4708.28
447.32	4833.21
447.53	4315.07
447.73	3936.20
447.93	3557.32
448.14	3319.76
448.34	3180.50
448.55	2887.64
448.75	2877.40
448.96	2674.65
449.16	2492.38
449.36	2308.06
449.57	2105.31
449.77	1939.43
449.98	1804.26
450.18	1855.46
450.39	1761.25
450.59	1800.16
450.79	1693.67
451.00	1757.16
451.20	1761.25
451.41	1712.10
451.61	1822.69
451.81	1689.57
452.02	1800.16
452.22	1755.11
452.43	1701.86
452.63	1681.38
452.84	1746.92
453.04	1683.43
453.24	1755.11
453.45	1660.90
453.65	1726.44
453.86	1763.30
454.06	1669.09
454.26	1708.01
454.47	1699.81
454.67	1841.12
454.87	1755.11
455.08	1722.34
455.28	1769.44
455.49	1705.96
455.69	1621.99
455.89	1869.80
456.10	1789.92
456.30	1744.87
456.51	1751.01
456.71	1742.82
456.91	1734.63
457.12	1710.05
457.32	1769.44
457.52	1636.33
457.73	1726.44
457.93	1744.87
458.14	1804.26
458.34	1673.19
458.54	1734.63
458.75	1675.24
458.95	1820.64
459.15	1787.88
459.36	1816.55
459.56	1771.49
459.76	1863.65
459.97	1705.96
460.17	1730.53
460.37	1783.78
460.58	1693.67
460.78	1779.68
460.99	1701.86
461.19	1691.62
461.39	1697.77
461.60	1685.48
461.80	1736.68
462.00	1660.90
462.21	1759.21
462.41	1642.47
462.61	1679.33
462.82	1699.81
463.02	1746.92
463.22	1757.16
463.43	1742.82
463.63	1751.01
463.83	1791.97
464.04	1738.73
464.24	1740.77
464.44	1675.24
464.64	1691.62
464.85	1738.73
465.05	1777.64
465.25	1746.92
465.46	1751.01
465.66	1775.59
465.86	1814.50
466.07	1746.92
466.27	1703.91
466.47	1738.73
466.68	1667.05
466.88	1787.88
467.08	1710.05
467.29	1763.30
467.49	1624.04
467.69	1710.05
467.89	1789.92
468.10	1685.48
468.30	1767.40
468.50	1806.31
468.71	1769.44
468.91	1644.52
469.11	1849.32
469.31	1732.58
469.52	1652.71
469.72	1806.31
469.92	1906.66
470.13	1796.07
470.33	1755.11
470.53	1871.84
470.73	2136.03
470.94	2205.66
471.14	2389.98
471.34	2516.95
471.54	2453.47
471.75	2195.42
471.95	2144.22
472.15	2062.30
472.36	2158.56
472.56	2027.49
472.76	2113.50
472.96	1957.86
473.17	1910.75
473.37	1863.65
473.57	1816.55
473.77	1896.42
473.98	1697.77
474.18	1710.05
474.38	1902.56
474.58	1689.57
474.79	1730.53
474.99	1759.21
475.19	1728.49
475.39	1671.14
475.60	1697.77
475.80	1753.06
476.00	1804.26
476.20	1685.48
476.41	1699.81
476.61	1742.82
476.81	1830.88
477.01	1753.06
477.21	1849.32
477.42	1828.84
477.62	1683.43
477.82	1742.82
478.02	1759.21
478.23	1804.26
478.43	1642.47
478.63	1689.57
478.83	1734.63
479.03	1718.25
479.24	1746.92
479.44	1845.22
479.64	1607.66
479.84	1667.05
480.04	1621.99
480.25	1810.40
480.45	1648.61
480.65	1701.86
480.85	1738.73
481.06	1652.71
481.26	1726.44
481.46	1783.78
481.66	1742.82
481.86	1626.09
482.06	1785.83
482.27	1740.77
482.47	1669.09
482.67	1697.77
482.87	1714.15
483.07	1849.32
483.28	1646.57
483.48	1648.61
483.68	1671.14
483.88	1654.76
484.08	1607.66
484.29	1644.52
484.49	1632.23
484.69	1589.22
484.89	1767.40
485.09	1746.92
485.29	1673.19
485.50	1701.86
485.70	1677.29
485.90	1726.44
486.10	1789.92
486.30	1748.97
486.50	1738.73
486.71	1787.88
486.91	1810.40
487.11	1808.36
487.31	1624.04
487.51	1667.05
487.71	1763.30
487.91	1669.09
488.12	1650.66
488.32	1589.22
488.52	1681.38
488.72	1677.29
488.92	1724.39
489.12	1802.21
489.32	1779.68
489.53	1785.83
489.73	1722.34
489.93	1804.26
490.13	1755.11
490.33	1705.96
490.53	1781.73
490.73	1757.16
490.94	1718.25
491.14	1816.55
491.34	1796.07
491.54	2144.22
491.74	2525.15
491.94	2916.31
492.14	3018.71
492.34	2967.51
492.54	2779.09
492.75	2371.55
492.95	2498.52
493.15	2349.02
493.35	2281.44
493.55	2209.76
493.75	2115.55
493.95	2213.85
494.15	2039.78
494.35	1886.18
494.56	1845.22
494.76	1769.44
494.96	1789.92
495.16	1787.88
495.36	1728.49
495.56	1650.66
495.76	1712.10
495.96	1710.05
496.16	1728.49
496.36	1816.55
496.56	1753.06
496.77	1712.10
496.97	1687.53
497.17	1855.46
497.37	1611.75
497.57	1781.73
497.77	1681.38
497.97	1640.42
498.17	1714.15
498.37	1591.27
498.57	1759.21
498.77	1697.77
498.97	1779.68
499.17	1830.88
499.38	1736.68
499.58	1753.06
499.78	1781.73
499.98	1802.21
500.18	1689.57
500.38	1689.57
500.58	1818.60
500.78	2500.57
500.98	4513.72
501.18	5715.88
501.38	6801.30
501.58	7057.30
501.78	6533.02
501.98	5386.16
502.18	4913.08
502.38	4390.84
502.58	4003.78
502.78	3837.89
502.98	3676.10
503.18	3446.73
503.38	3112.91
503.59	2832.34
503.79	2637.78
503.99	2471.90
504.19	2238.43
504.39	2228.19
504.59	2199.52
504.79	2066.40
504.99	2086.88
505.19	1912.80
505.39	1869.80
505.59	1970.15
505.79	1892.32
505.99	1830.88
506.19	1890.28
506.39	1867.75
506.59	1789.92
506.79	1759.21
506.99	1787.88
507.19	1716.20
507.39	1662.95
507.59	1701.86
507.79	1753.06
507.99	1624.04
508.19	1740.77
508.39	1683.43
508.59	1722.34
508.79	1775.59
508.99	1796.07
509.19	1644.52
509.39	1697.77
509.59	1775.59
509.79	1710.05
509.99	1720.29
510.19	1822.69
510.39	1789.92
510.59	1796.07
510.79	1691.62
510.99	1679.33
511.19	1636.33
511.39	1853.41
511.59	1802.21
511.79	1771.49
511.99	1738.73
512.19	1804.26
512.38	1742.82
512.58	1693.67
512.78	1665.00
512.98	1855.46
513.18	1767.40
513.38	1595.37
513.58	1691.62
513.78	1681.38
513.98	1773.54
514.18	1785.83
514.38	1632.23
514.58	1751.01
514.78	1724.39
514.98	1615.85
515.18	1718.25
515.38	1646.57
515.58	1837.03
515.78	1650.66
515.98	1652.71
516.18	1859.56
516.38	1777.64
516.57	1703.91
516.77	1773.54
516.97	1804.26
517.17	1724.39
517.37	1681.38
517.57	1773.54
517.77	1738.73
517.97	1695.72
518.17	1830.88
518.37	1611.75
518.57	1667.05
518.77	1652.71
518.97	1705.96
519.16	1800.16
519.36	1822.69
519.56	1740.77
519.76	1646.57
519.96	1726.44
520.16	1847.27
520.36	1638.38
520.56	1775.59
520.76	1671.14
520.96	1697.77
521.16	1830.88
521.35	1847.27
521.55	1867.75
521.75	1691.62
521.95	1714.15
522.15	1699.81
522.35	1681.38
522.55	1693.67
522.75	1855.46
522.95	1626.09
523.14	1683.43
523.34	1777.64
523.54	1677.29
523.74	1781.73
523.94	1798.12
524.14	1632.23
524.34	1757.16
524.54	1777.64
524.73	1712.10
524.93	1738.73
525.13	1761.25
525.33	1689.57
525.53	1830.88
525.73	1767.40
525.93	1714.15
526.13	1746.92
526.32	1699.81
526.52	1773.54
526.72	1781.73
526.92	1753.06
527.12	1691.62
527.32	1681.38
527.52	1796.07
527.71	1822.69
527.91	1697.77
528.11	1746.92
528.31	1689.57
528.51	1656.81
528.71	1759.21
528.90	1771.49
529.10	1746.92
529.30	1748.97
529.50	1665.00
529.70	1695.72
529.90	1742.82
530.09	1753.06
530.29	1669.09
530.49	1675.24
530.69	1851.36
530.89	1724.39
531.09	1812.45
531.28	1724.39
531.48	1851.36
531.68	1701.86
531.88	1771.49
532.08	1839.08
532.28	1734.63
532.47	1796.07
532.67	1767.40
532.87	1814.50
533.07	1671.14
533.27	1761.25
533.46	1726.44
533.66	1710.05
533.86	1683.43
534.06	1673.19
534.26	1765.35
534.45	1648.61
534.65	1746.92
534.85	1665.00
535.05	1748.97
535.25	1740.77
535.44	1703.91
535.64	1796.07
535.84	1787.88
536.04	1701.86
536.24	1724.39
536.43	1660.90
536.63	1724.39
536.83	1757.16
537.03	1693.67
537.22	1728.49
537.42	1677.29
537.62	1761.25
537.82	1699.81
538.02	1775.59
538.21	1824.74
538.41	1812.45
538.61	1710.05
538.81	1728.49
539.00	1834.98
539.20	1617.90
539.40	1660.90
539.60	1759.21
539.79	1798.12
539.99	1722.34
540.19	1712.10
540.39	1791.97
540.58	1742.82
540.78	1781.73
540.98	1773.54
541.18	1720.29
541.37	1734.63
541.57	1689.57
541.77	1705.96
541.97	1669.09
542.16	1675.24
542.36	1708.01
542.56	1830.88
542.76	1839.08
542.95	1767.40
543.15	1740.77
543.35	1818.60
543.54	1642.47
543.74	1650.66
543.94	1703.91
544.14	1697.77
544.33	1722.34
544.53	1714.15
544.73	1654.76
544.93	1687.53
545.12	1712.10
545.32	1775.59
545.52	1701.86
545.71	1656.81
545.91	1695.72
546.11	1775.59
546.30	1722.34
546.50	1687.53
546.70	1718.25
546.90	1761.25
547.09	1615.85
547.29	1697.77
547.49	1789.92
547.68	1697.77
547.88	1667.05
548.08	1804.26
548.27	2183.13
548.47	1769.44
548.67	1761.25
548.87	1732.58
549.06	1695.72
549.26	1685.48
549.46	1767.40
549.65	1691.62
549.85	1740.77
550.05	1708.01
550.24	1626.09
550.44	1791.97
550.64	1789.92
550.83	1773.54
551.03	1753.06
551.23	1765.35
551.42	1710.05
551.62	1720.29
551.82	1720.29
552.01	1720.29
552.21	1769.44
552.41	1812.45
552.60	1779.68
552.80	1736.68
553.00	1695.72
553.19	1740.77
553.39	1867.75
553.59	1669.09
553.78	1804.26
553.98	1722.34
554.17	1667.05
554.37	1712.10
554.57	1798.12
554.76	1595.37
554.96	1783.78
555.16	1722.34
555.35	1714.15
555.55	1689.57
555.75	1826.79
555.94	1759.21
556.14	1665.00
556.33	1740.77
556.53	1685.48
556.73	1665.00
556.92	1744.87
557.12	1808.36
557.32	1834.98
557.51	1886.18
557.71	1755.11
557.90	1796.07
558.10	1804.26
558.30	1714.15
558.49	1683.43
558.69	1767.40
558.88	1755.11
559.08	1744.87
559.28	1736.68
559.47	1705.96
559.67	1753.06
559.86	1898.47
560.06	1714.15
560.26	1695.72
560.45	1722.34
560.65	1722.34
560.84	1738.73
561.04	1718.25
561.24	1812.45
561.43	1771.49
561.63	1804.26
561.82	1738.73
562.02	1796.07
562.22	1685.48
562.41	1714.15
562.61	1619.94
562.80	1691.62
563.00	1886.18
563.19	1703.91
563.39	1800.16
563.59	1785.83
563.78	1681.38
563.98	1634.28
564.17	1650.66
564.37	1669.09
564.56	1673.19
564.76	1617.90
564.96	1810.40
565.15	1744.87
565.35	1798.12
565.54	1763.30
565.74	1767.40
565.93	1695.72
566.13	1740.77
566.32	1720.29
566.52	1744.87
566.71	1705.96
566.91	1767.40
567.11	1751.01
567.30	1789.92
567.50	1736.68
567.69	1691.62
567.89	1722.34
568.08	1744.87
568.28	1775.59
568.47	1726.44
568.67	1708.01
568.86	1751.01
569.06	1783.78
569.25	1740.77
569.45	1689.57
569.64	1648.61
569.84	1705.96
570.04	1757.16
570.23	1671.14
570.43	1722.34
570.62	1753.06
570.82	1775.59
571.01	1652.71
571.21	1689.57
571.40	1691.62
571.60	1740.77
571.79	1771.49
571.99	1751.01
572.18	1701.86
572.38	1695.72
572.57	1779.68
572.77	1730.53
572.96	1886.18
573.16	1773.54
573.35	1671.14
573.55	1839.08
573.74	1748.97
573.94	1722.34
574.13	1767.40
574.33	1806.31
574.52	1748.97
574.71	1693.67
574.91	1771.49
575.10	1738.73
575.30	1746.92
575.49	1757.16
575.69	1716.20
575.88	1746.92
576.08	1701.86
576.27	1740.77
576.47	1789.92
576.66	1871.84
576.86	1814.50
577.05	1806.31
577.25	1703.91
577.44	1890.28
577.64	1646.57
577.83	1716.20
578.02	1744.87
578.22	1812.45
578.41	1888.23
578.61	1763.30
578.80	1689.57
579.00	1769.44
579.19	1751.01
579.39	1771.49
579.58	1816.55
579.77	1732.58
579.97	1814.50
580.16	1800.16
580.36	1767.40
580.55	1771.49
580.75	1744.87
580.94	1785.83
581.13	1830.88
581.33	1853.41
581.52	1744.87
581.72	1804.26
581.91	1855.46
582.11	1722.34
582.30	1775.59
582.49	1708.01
582.69	1912.80
582.88	1816.55
583.08	1728.49
583.27	1816.55
583.47	1804.26
583.66	1703.91
583.85	1708.01
584.05	1757.16
584.24	1771.49
584.44	1785.83
584.63	1777.64
584.82	1830.88
585.02	1894.37
585.21	1824.74
585.41	1787.88
585.60	1882.08
585.79	1871.84
585.99	1904.61
586.18	1841.12
586.37	2197.47
586.57	3411.92
586.76	10002.28
586.96	24170.13
587.15	34524.66
587.34	40664.47
587.54	42583.41
587.73	36859.34
587.93	26406.51
588.12	21970.61
588.31	18290.41
588.51	16357.13
588.70	15290.13
588.89	14173.99
589.09	12715.84
589.28	11138.90
589.47	9574.25
589.67	7935.88
589.86	6537.12
590.06	5007.28
590.25	3852.23
590.44	3059.67
590.64	2596.82
590.83	2252.77
591.02	2113.50
591.22	2000.87
591.41	1976.29
591.60	1839.08
591.80	1961.95
591.99	1794.02
592.18	1828.84
592.38	1814.50
592.57	1773.54
592.76	1738.73
592.96	1748.97
593.15	1771.49
593.34	1812.45
593.54	1693.67
593.73	1785.83
593.92	1773.54
594.12	1761.25
594.31	1765.35
594.50	1796.07
594.70	1734.63
594.89	1894.37
595.08	1658.85
595.28	1832.93
595.47	1970.15
595.66	1783.78
595.86	1728.49
596.05	1746.92
596.24	1759.21
596.43	1884.13
596.63	1802.21
596.82	1748.97
597.01	1816.55
597.21	1857.51
597.40	1751.01
597.59	1759.21
597.79	1796.07
597.98	1746.92
598.17	1761.25
598.36	1783.78
598.56	1769.44
598.75	1720.29
598.94	1775.59
599.14	1763.30
599.33	1665.00
599.52	1742.82
599.71	1789.92
599.91	1822.69
600.10	1742.82
600.29	1783.78
600.48	1804.26
600.68	1734.63
600.87	1736.68
601.06	1714.15
601.26	1662.95
601.45	1824.74
601.64	1609.70
601.83	1789.92
602.03	1648.61
602.22	1712.10
602.41	1742.82
602.60	1873.89
602.80	1855.46
602.99	1679.33
603.18	1701.86
603.37	1757.16
603.57	1822.69
603.76	1800.16
603.95	1765.35
604.14	1681.38
604.34	1681.38
604.53	1783.78
604.72	1753.06
604.91	1726.44
605.10	1886.18
605.30	1736.68
605.49	1875.94
605.68	1773.54
605.87	1738.73
606.07	1710.05
606.26	1736.68
606.45	1738.73
606.64	1708.01
606.84	1611.75
607.03	1751.01
607.22	1734.63
607.41	1626.09
607.60	1675.24
607.80	1742.82
607.99	1738.73
608.18	1689.57
608.37	1822.69
608.56	1734.63
608.76	1783.78
608.95	1806.31
609.14	1724.39
609.33	1800.16
609.52	1816.55
609.72	1759.21
609.91	1697.77
610.10	1755.11
610.29	1742.82
610.48	1716.20
610.68	1783.78
610.87	1755.11
611.06	1781.73
611.25	1714.15
611.44	1818.60
611.63	1751.01
611.83	1785.83
612.02	1675.24
612.21	1841.12
612.40	1660.90
612.59	1718.25
612.79	1691.62
612.98	1746.92
613.17	1796.07
613.36	1681.38
613.55	1832.93
613.74	1638.38
613.93	1691.62
614.13	1726.44
614.32	1779.68
614.51	1785.83
614.70	1675.24
614.89	1755.11
615.08	1617.90
615.28	1984.48
615.47	1683.43
615.66	1789.92
615.85	1677.29
616.04	1927.14
616.23	1769.44
616.42	1724.39
616.62	1734.63
616.81	1804.26
617.00	1695.72
617.19	1794.02
617.38	1724.39
617.57	1705.96
617.76	1732.58
617.95	1757.16
618.15	1748.97
618.34	1859.56
618.53	1730.53
618.72	1781.73
618.91	1783.78
619.10	1783.78
619.29	1677.29
619.48	1767.40
619.68	1675.24
619.87	1632.23
620.06	1628.14
620.25	1738.73
620.44	1701.86
620.63	1763.30
620.82	1783.78
621.01	1685.48
621.20	1646.57
621.39	1761.25
621.59	1757.16
621.78	1714.15
621.97	1693.67
622.16	1742.82
622.35	1773.54
622.54	1839.08
622.73	1789.92
622.92	1644.52
623.11	1730.53
623.30	1763.30
623.49	1839.08
623.68	1624.04
623.88	1755.11
624.07	1685.48
624.26	1714.15
624.45	1785.83
624.64	1681.38
624.83	1683.43
625.02	1695.72
625.21	1720.29
625.40	1771.49
625.59	1744.87
625.78	1738.73
625.97	1728.49
626.16	1779.68
626.35	1740.77
626.54	1714.15
626.74	1763.30
626.93	1693.67
627.12	1695.72
627.31	1746.92
627.50	1714.15
627.69	1826.79
627.88	1689.57
628.07	1648.61
628.26	1708.01
628.45	1746.92
628.64	1642.47
628.83	1712.10
629.02	1693.67
629.21	1650.66
629.40	1783.78
629.59	1658.85
629.78	1701.86
629.97	1671.14
630.16	1679.33
630.35	1677.29
630.54	1642.47
630.73	1726.44
630.92	1708.01
631.11	1738.73
631.30	1761.25
631.49	1796.07
631.68	1822.69
631.87	1716.20
632.06	1630.18
632.25	1851.36
632.44	1685.48
632.63	1677.29
632.82	1697.77
633.01	1654.76
633.20	1650.66
633.39	1632.23
633.58	1581.03
633.77	1726.44
633.96	1785.83
634.15	1697.77
634.34	1708.01
634.53	1701.86
634.72	1673.19
634.91	1628.14
635.10	1708.01
635.29	1738.73
635.48	1714.15
635.67	1675.24
635.86	1667.05
636.05	1841.12
636.24	1695.72
636.43	1783.78
636.62	1791.97
636.81	1685.48
637.00	1722.34
637.19	1734.63
637.38	1699.81
637.57	1710.05
637.76	1708.01
637.95	1708.01
638.14	1679.33
638.33	1654.76
638.52	1691.62
638.71	1607.66
638.89	1656.81
639.08	1806.31
639.27	1759.21
639.46	1714.15
639.65	1798.12
639.84	1720.29
640.03	1714.15
640.22	1734.63
640.41	1867.75
640.60	1669.09
640.79	1765.35
640.98	1665.00
641.17	1798.12
641.36	1767.40
641.55	1734.63
641.74	1697.77
641.92	1701.86
642.11	1654.76
642.30	1746.92
642.49	1632.23
642.68	1685.48
642.87	1771.49
643.06	1732.58
643.25	1578.98
643.44	1726.44
643.63	1742.82
643.82	1820.64
644.00	1695.72
644.19	1738.73
644.38	1693.67
644.57	1726.44
644.76	1712.10
644.95	1728.49
645.14	1677.29
645.33	1720.29
645.52	1763.30
645.71	1617.90
645.89	1705.96
646.08	1605.61
646.27	1724.39
646.46	1798.12
646.65	1597.42
646.84	1775.59
647.03	1689.57
647.22	1767.40
647.40	1736.68
647.59	1681.38
647.78	1599.46
647.97	1691.62
648.16	1724.39
648.35	1751.01
648.54	1755.11
648.73	1732.58
648.91	1812.45
649.10	1751.01
649.29	1687.53
649.48	1720.29
649.67	1759.21
649.86	1740.77
650.05	1654.76
650.23	1689.57
650.42	1656.81
650.61	1767.40
650.80	1669.09
650.99	1873.89
651.18	1730.53
651.36	1808.36
651.55	1697.77
651.74	1730.53
651.93	1626.09
652.12	1644.52
652.31	1712.10
652.49	1697.77
652.68	1791.97
652.87	1902.56
653.06	1660.90
653.25	1703.91
653.44	1675.24
653.62	1783.78
653.81	1701.86
654.00	1712.10
654.19	1695.72
654.38	1802.21
654.56	1777.64
654.75	1742.82
654.94	1683.43
655.13	1669.09
655.32	1669.09
655.51	1751.01
655.69	1675.24
655.88	1791.97
656.07	1652.71
656.26	1771.49
656.45	1650.66
656.63	1722.34
656.82	1822.69
657.01	1769.44
657.20	1736.68
657.38	1783.78
657.57	1755.11
657.76	1597.42
657.95	1730.53
658.14	1677.29
658.32	1712.10
658.51	1601.51
658.70	1718.25
658.89	1689.57
659.08	1701.86
659.26	1705.96
659.45	1685.48
659.64	1671.14
659.83	1615.85
660.01	1906.66
660.20	1726.44
660.39	1814.50
660.58	1660.90
660.76	1726.44
660.95	1683.43
661.14	1769.44
661.33	1650.66
661.51	1667.05
661.70	1724.39
661.89	1732.58
662.08	1726.44
662.26	1683.43
662.45	1691.62
662.64	1845.22
662.83	1779.68
663.01	1652.71
663.20	1632.23
663.39	1732.58
663.58	1732.58
663.76	1671.14
663.95	1800.16
664.14	1681.38
664.32	1662.95
664.51	1619.94
664.70	1656.81
664.89	1779.68
665.07	1683.43
665.26	1791.97
665.45	1640.42
665.64	1830.88
665.82	1773.54
666.01	1837.03
666.20	1738.73
666.38	1834.98
666.57	1783.78
666.76	2101.22
666.95	4495.29
667.13	10497.89
667.32	15140.63
667.51	17870.58
667.69	19125.98
667.88	17555.19
668.07	12523.33
668.25	9402.22
668.44	8015.75
668.63	7276.43
668.81	6889.37
669.00	6274.98
669.19	5547.95
669.38	5099.44
669.56	4540.35
669.75	3973.06
669.94	3563.47
670.12	2918.36
670.31	2551.77
670.50	2217.95
670.68	2086.88
670.87	2025.44
671.06	1775.59
671.24	1765.35
671.43	1732.58
671.62	1730.53
671.80	1646.57
671.99	1712.10
672.18	1689.57
672.36	1753.06
672.55	1691.62
672.74	1654.76
672.92	1734.63
673.11	1812.45
673.29	1660.90
673.48	1748.97
673.67	1617.90
673.85	1751.01
674.04	1671.14
674.23	1671.14
674.41	1806.31
674.60	1708.01
674.79	1550.31
674.97	1701.86
675.16	1767.40
675.34	1697.77
675.53	1652.71
675.72	1732.58
675.90	1775.59
676.09	1665.00
676.28	1701.86
676.46	1589.22
676.65	1744.87
676.83	1640.42
677.02	1787.88
677.21	1722.34
677.39	1742.82
677.58	1650.66
677.77	1710.05
677.95	1742.82
678.14	1769.44
678.32	1785.83
678.51	1697.77
678.70	1834.98
678.88	1738.73
679.07	1712.10
679.25	1730.53
679.44	1699.81
679.63	1658.85
679.81	1759.21
680.00	1800.16
680.18	1687.53
680.37	1810.40
680.55	1665.00
680.74	1660.90
680.93	1599.46
681.11	1755.11
681.30	1697.77
681.48	1751.01
681.67	1683.43
681.85	1753.06
682.04	1714.15
682.23	1722.34
682.41	1765.35
682.60	1738.73
682.78	1697.77
682.97	1685.48
683.15	1697.77
683.34	1724.39
683.53	1767.40
683.71	1605.61
683.90	1775.59
684.08	1716.20
684.27	1691.62
684.45	1687.53
684.64	1828.84
684.82	1726.44
685.01	1652.71
685.19	1648.61
685.38	1847.27
685.57	1679.33
685.75	1705.96
685.94	1724.39
686.12	1705.96
686.31	1617.90
686.49	1714.15
686.68	1662.95
686.86	1744.87
687.05	1677.29
687.23	1712.10
687.42	1714.15
687.60	1605.61
687.79	1771.49
687.97	1804.26
688.16	1722.34
688.34	1748.97
688.53	1583.08
688.71	1726.44
688.90	1720.29
689.08	1705.96
689.27	1660.90
689.45	1736.68
689.64	1814.50
689.82	1824.74
690.01	1703.91
690.19	1767.40
690.38	1734.63
690.56	1701.86
690.75	1617.90
690.93	1689.57
691.12	1646.57
691.30	1626.09
691.49	1665.00
691.67	1720.29
691.86	1863.65
692.04	1703.91
692.23	1626.09
692.41	1603.56
692.60	1765.35
692.78	1767.40
692.97	1677.29
693.15	1691.62
693.34	1681.38
693.52	1818.60
693.71	1642.47
693.89	1646.57
694.08	1636.33
694.26	1771.49
694.44	1730.53
694.63	1751.01
694.81	1642.47
695.00	1708.01
695.18	1787.88
695.37	1875.94
695.55	1763.30
695.74	1607.66
695.92	1640.42
696.10	1763.30
696.29	1724.39
696.47	1699.81
696.66	1679.33
696.84	1703.91
697.03	1705.96
697.21	1845.22
697.40	2322.40
697.58	1802.21
697.76	1671.14
697.95	1675.24
698.13	1660.90
698.32	1667.05
698.50	1734.63
698.68	1714.15
698.87	1787.88
699.05	1724.39
699.24	1708.01
699.42	1673.19
699.61	1665.00
699.79	1634.28
699.97	1716.20
700.16	1624.04
700.34	1648.61
700.53	1724.39
700.71	1775.59
700.89	1830.88
701.08	1683.43
701.26	1746.92
701.45	2090.98
701.63	1648.61
701.81	1697.77
702.00	1607.66
702.18	1683.43
702.37	1609.70
702.55	1697.77
702.73	1708.01
702.92	1597.42
703.10	1730.53
703.28	1718.25
703.47	1585.13
703.65	1746.92
703.84	1742.82
704.02	1710.05
704.20	1779.68
704.39	1712.10
704.57	1691.62
704.75	1730.53
704.94	1744.87
705.12	1769.44
705.30	1869.80
705.49	2318.30
705.67	4450.24
705.86	9480.05
706.04	12494.66
706.22	14346.02
706.41	15533.84
706.59	13985.58
706.77	9559.92
706.96	7366.54
707.14	6571.93
707.32	6090.66
707.51	5631.91
707.69	4972.47
707.87	4292.54
708.06	3454.92
708.24	3074.00
708.42	2443.23
708.61	2220.00
708.79	1861.60
708.97	1798.12
709.16	1859.56
709.34	1794.02
709.52	1787.88
709.71	1740.77
709.89	1695.72
710.07	1675.24
710.26	1677.29
710.44	1675.24
710.62	1753.06
710.80	1746.92
710.99	1763.30
711.17	1779.68
711.35	1654.76
711.54	1726.44
711.72	1863.65
711.90	1714.15
712.09	1675.24
712.27	1636.33
712.45	1777.64
712.63	1695.72
712.82	1693.67
713.00	1718.25
713.18	1695.72
713.37	1746.92
713.55	1712.10
713.73	1826.79
713.91	1687.53
714.10	1779.68
714.28	1691.62
714.46	1742.82
714.65	1720.29
714.83	1714.15
715.01	1671.14
715.19	1748.97
715.38	1671.14
715.56	1699.81
715.74	1607.66
715.92	1648.61
716.11	1712.10
716.29	1591.27
716.47	1685.48
716.65	1712.10
716.84	1589.22
717.02	1656.81
717.20	1621.99
717.38	1705.96
717.57	1785.83
717.75	1718.25
717.93	1689.57
718.11	1681.38
718.30	1691.62
718.48	1759.21
718.66	1767.40
718.84	1757.16
719.03	1710.05
719.21	1689.57
719.39	1791.97
719.57	1787.88
719.75	1732.58
719.94	1693.67
720.12	1710.05
720.30	1718.25
720.48	1781.73
720.67	1591.27
720.85	1636.33
721.03	1621.99
721.21	1667.05
721.39	1751.01
721.58	1722.34
721.76	1683.43
721.94	1736.68
722.12	1746.92
722.30	1779.68
722.49	1712.10
722.67	1687.53
722.85	1697.77
723.03	1615.85
723.21	1697.77
723.40	1683.43
723.58	1714.15
723.76	1718.25
723.94	1732.58
724.12	1738.73
724.30	1818.60
724.49	1751.01
724.67	1689.57
724.85	1781.73
725.03	1658.85
725.21	1671.14
725.40	1759.21
725.58	1619.94
725.76	1808.36
725.94	1755.11
726.12	1640.42
726.30	1679.33
726.49	1738.73
726.67	1734.63
726.85	1689.57
727.03	1779.68
727.21	2166.75
727.39	2922.45
727.57	3893.19
727.76	4003.78
727.94	4562.87
728.12	4517.82
728.30	3733.45
728.48	2957.27
728.66	2672.60
728.84	2645.98
729.03	2279.39
729.21	2203.61
729.39	1841.12
729.57	1824.74
729.75	1826.79
729.93	1832.93
730.11	1746.92
730.30	1650.66
730.48	1689.57
730.66	1742.82
730.84	1703.91
731.02	1636.33
731.20	1726.44
731.38	1679.33
731.56	1642.47
731.74	1675.24
731.93	1722.34
732.11	1759.21
732.29	1677.29
732.47	1726.44
732.65	1728.49
732.83	1775.59
733.01	1740.77
733.19	1703.91
733.37	1681.38
733.56	1763.30
733.74	1683.43
733.92	1755.11
734.10	1648.61
734.28	1802.21
734.46	1630.18
734.64	1777.64
734.82	1648.61
735.00	1640.42
735.18	1667.05
735.36	1665.00
735.54	1708.01
735.73	1767.40
735.91	1781.73
736.09	1748.97
736.27	1675.24
736.45	1712.10
736.63	1587.18
736.81	1669.09
736.99	1765.35
737.17	1734.63
737.35	1665.00
737.53	1675.24
737.71	1734.63
737.89	1775.59
738.07	1621.99
738.25	1632.23
738.43	1492.97
738.61	1708.01
738.80	1650.66
738.98	1683.43
739.16	1665.00
739.34	1691.62
739.52	1773.54
739.70	1742.82
739.88	1763.30
740.06	1744.87
740.24	1621.99
740.42	1742.82
740.60	1673.19
740.78	1642.47
740.96	1535.98
741.14	1652.71
741.32	1763.30
741.50	1681.38
741.68	1812.45
741.86	1734.63
742.04	1609.70
742.22	1685.48
742.40	1742.82
742.58	1708.01
742.76	1660.90
742.94	1751.01
743.12	1624.04
743.30	1607.66
743.48	1703.91
743.66	1630.18
743.84	1732.58
744.02	1665.00
744.20	1722.34
744.38	1642.47
744.56	1646.57
744.74	1761.25
744.92	1695.72
745.10	1724.39
745.28	1751.01
745.46	1763.30
745.64	1626.09
745.82	1787.88
746.00	1679.33
746.18	1740.77
746.36	1581.03
746.54	1660.90
746.72	1714.15
746.90	1683.43
747.08	1734.63
747.26	1675.24
747.44	1722.34
747.62	1744.87
747.80	1656.81
747.98	1787.88
748.15	1652.71
748.33	1822.69
748.51	1636.33
748.69	1742.82
748.87	1705.96
749.05	1665.00
749.23	1701.86
749.41	1720.29
749.59	1667.05
749.77	1751.01
749.95	1624.04
750.13	1634.28
750.31	1761.25
750.49	1742.82
750.67	1677.29
750.85	1753.06
751.03	1781.73
751.20	1804.26
751.38	1646.57
751.56	1708.01
751.74	1740.77
751.92	1574.89
752.10	1654.76
752.28	1732.58
752.46	1648.61
752.64	1691.62
752.82	1699.81
753.00	1765.35
753.18	1716.20
753.35	1587.18
753.53	1724.39
753.71	1617.90
753.89	1740.77
754.07	1630.18
754.25	1765.35
754.43	1699.81
754.61	1615.85
754.79	1796.07
754.97	1777.64
755.14	1798.12
755.32	1708.01
755.50	1679.33
755.68	1703.91
755.86	1656.81
756.04	1675.24
756.22	1554.41
756.40	1675.24
756.57	1828.84
756.75	1652.71
756.93	1705.96
757.11	1765.35
757.29	1658.85
757.47	1656.81
757.65	1683.43
757.82	1611.75
758.00	1644.52
758.18	1646.57
758.36	1644.52
758.54	1697.77
758.72	1613.80
758.90	1767.40
759.07	1710.05
759.25	1693.67
759.43	1656.81
759.61	1644.52
759.79	2193.37
759.97	1734.63
760.15	1658.85
760.32	1648.61
760.50	1728.49
760.68	1798.12
760.86	1665.00
761.04	1693.67
761.22	1736.68
761.39	1654.76
761.57	1720.29
761.75	1652.71
761.93	1767.40
762.11	1726.44
762.28	1710.05
762.46	1683.43
762.64	1748.97
762.82	1646.57
763.00	1640.42
763.18	1820.64
763.35	1607.66
763.53	1738.73
763.71	1763.30
763.89	1677.29
764.07	1783.78
764.24	1667.05
764.42	1781.73
764.60	1689.57
764.78	1695.72
764.96	1767.40
765.13	1689.57
765.31	1757.16
765.49	1746.92
765.67	1597.42
765.84	1691.62
766.02	1624.04
766.20	1609.70
766.38	1685.48
766.56	1712.10
766.73	1755.11
766.91	1746.92
767.09	1693.67
767.27	1763.30
767.44	1648.61
767.62	1751.01
767.80	1642.47
767.98	1687.53
768.15	1675.24
768.33	1734.63
768.51	1665.00
768.69	1714.15
768.87	1761.25
769.04	1677.29
769.22	1822.69
769.40	1806.31
769.58	1888.23
769.75	1720.29
769.93	1826.79
770.11	1615.85
770.28	1675.24
770.46	1785.83
770.64	1740.77
770.82	1581.03
770.99	1720.29
771.17	1599.46
771.35	1759.21
771.53	1705.96
771.70	1644.52
771.88	1712.10
772.06	1695.72
772.23	1681.38
772.41	1740.77
772.59	1697.77
772.77	1587.18
772.94	1681.38
773.12	1720.29
773.30	1716.20
773.47	1712.10
773.65	1619.94
773.83	1763.30
774.01	1710.05
774.18	1609.70
774.36	1755.11
774.54	1630.18
774.71	1726.44
774.89	1628.14
775.07	1671.14
775.24	1607.66
775.42	1656.81
775.60	1669.09
775.78	1724.39
775.95	1578.98
776.13	1611.75
776.31	1521.64
776.48	1621.99
776.66	1830.88
776.84	1683.43
777.01	1712.10
777.19	1687.53
777.37	1650.66
777.54	1722.34
777.72	1794.02
777.90	1740.77
778.07	1609.70
778.25	1867.75
778.43	1796.07
778.60	1671.14
778.78	1722.34
778.96	1691.62
779.13	1642.47
779.31	1757.16
779.49	1634.28
779.66	1687.53
779.84	1646.57
780.01	1720.29
780.19	1714.15
780.37	1796.07
780.54	1693.67
780.72	1703.91
780.90	1685.48
781.07	1720.29
781.25	1693.67
781.43	1720.29
781.60	1660.90
781.78	1849.32
781.95	1724.39
782.13	1632.23
782.31	1710.05
782.48	1574.89
782.66	1675.24
782.83	1767.40
783.01	1718.25
783.19	1773.54
783.36	1693.67
783.54	1669.09
783.72	1710.05
783.89	1718.25
784.07	1751.01
784.24	1673.19
784.42	1767.40
784.60	1736.68
784.77	1755.11
784.95	1693.67
785.12	1689.57
785.30	1779.68
785.47	1665.00
785.65	1683.43
785.83	1736.68
786.00	1603.56
786.18	1656.81
786.35	1652.71
786.53	1693.67
786.71	1705.96
786.88	1738.73
787.06	1660.90
787.23	1658.85
787.41	1638.38
787.58	1630.18
787.76	1583.08
787.94	1703.91
788.11	1716.20
788.29	1615.85
788.46	1703.91
788.64	1636.33
788.81	1716.20
788.99	1650.66
789.16	1681.38
789.34	1738.73
789.52	1748.97
789.69	1701.86
789.87	1581.03
790.04	1714.15
790.22	1732.58
790.39	1839.08
790.57	1624.04
790.74	1611.75
790.92	1619.94
791.09	1574.89
791.27	1697.77
791.44	1716.20
791.62	1656.81
791.79	1734.63
791.97	1652.71
792.15	1867.75
792.32	1683.43
792.50	1794.02
792.67	1716.20
792.85	1802.21
793.02	1695.72
793.20	1693.67
793.37	1689.57
793.55	1681.38
793.72	1628.14
793.90	1777.64
794.07	1644.52
794.25	1652.71
794.42	1734.63
794.60	1697.77
794.77	1689.57
794.95	1722.34
795.12	1720.29
795.30	1708.01
795.47	1603.56
795.65	1886.18
795.82	1716.20
796.00	1708.01
796.17	1673.19
796.34	1783.78
796.52	1671.14
796.69	1746.92
796.87	1748.97
797.04	1665.00
797.22	1677.29
797.39	1662.95
797.57	1789.92
797.74	1714.15
797.92	1667.05
798.09	1716.20
798.27	1701.86
798.44	1687.53
798.62	1671.14
798.79	1689.57
798.96	1769.44
799.14	1699.81
799.31	1779.68
799.49	1671.14
799.66	1648.61
799.84	1722.34
800.01	1626.09
800.19	1748.97
800.36	1621.99
800.53	1718.25
800.71	1798.12
800.88	1753.06
801.06	1585.13
801.23	1716.20
801.41	1695.72
801.58	1642.47
801.75	1681.38
801.93	1705.96
802.10	1708.01
802.28	1689.57
802.45	1632.23
802.63	1693.67
802.80	1783.78
802.97	1736.68
803.15	1613.80
803.32	1626.09
803.50	1628.14
803.67	1628.14
803.84	1675.24
804.02	1683.43
804.19	1671.14
804.37	1609.70
804.54	1607.66
804.71	1742.82
804.89	1728.49
805.06	1720.29
805.24	1638.38
805.41	1650.66
805.58	1671.14
805.76	1830.88
805.93	1632.23
806.10	1804.26
806.28	1673.19
806.45	1775.59
806.63	1728.49
806.80	1656.81
806.97	1691.62
807.15	1775.59
807.32	1642.47
807.49	1777.64
807.67	1669.09
807.84	1732.58
808.01	1603.56
808.19	1751.01
808.36	1794.02
808.54	1685.48
808.71	1681.38
808.88	1701.86
809.06	1732.58
809.23	1755.11
809.40	1689.57
809.58	1740.77
809.75	1660.90
809.92	1609.70
810.10	1804.26
810.27	1677.29
810.44	1746.92
810.62	1714.15
810.79	1671.14
810.96	1648.61
811.14	1636.33
811.31	1759.21
811.48	1710.05
811.66	1726.44
811.83	1740.77
812.00	1728.49
812.18	1728.49
812.35	1798.12
812.52	1724.39
812.69	1658.85
812.87	1742.82
813.04	1656.81
813.21	1751.01
813.39	1605.61
813.56	1677.29
813.73	1755.11
813.91	1630.18
814.08	1689.57
814.25	1755.11
814.42	1654.76
814.60	1656.81
814.77	1767.40
814.94	1767.40
815.12	1771.49
815.29	1777.64
815.46	1738.73
815.63	1767.40
815.81	1726.44
815.98	1710.05
816.15	1724.39
816.33	1740.77
816.50	1763.30
816.67	1724.39
816.84	1734.63
817.02	1658.85
817.19	1697.77
817.36	1722.34
817.53	1779.68
817.71	1681.38
817.88	1746.92
818.05	1718.25
818.22	1730.53
818.40	1839.08
818.57	1726.44
818.74	1681.38
818.91	1736.68
819.09	1714.15
819.26	1675.24
819.43	1701.86
819.60	1607.66
819.78	1728.49
819.95	1771.49
820.12	1650.66
820.29	1785.83
820.47	1753.06
820.64	1705.96
820.81	1685.48
820.98	1724.39
821.15	1634.28
821.33	1695.72
821.50	1714.15
821.67	1742.82
821.84	1660.90
822.02	1693.67
822.19	1773.54
822.36	1693.67
822.53	1691.62
822.70	1722.34
822.88	1650.66
823.05	1746.92
823.22	1724.39
823.39	1742.82
823.56	1753.06
823.74	1828.84
823.91	1677.29
824.08	1626.09
824.25	1593.32
824.42	1818.60
824.60	1617.90
824.77	1714.15
824.94	1660.90
825.11	1765.35
825.28	1619.94
825.45	1714.15
825.63	1679.33
825.80	1658.85
825.97	1720.29
826.14	1644.52
826.31	1628.14
826.48	1718.25
826.66	1701.86
826.83	1724.39
827.00	1699.81
827.17	1683.43
827.34	1693.67
827.51	1585.13
827.69	1689.57
827.86	1617.90
828.03	1697.77
828.20	1630.18
828.37	1695.72
828.54	1718.25
828.71	1669.09
828.89	1771.49
829.06	1710.05
829.23	1740.77
829.40	1585.13
829.57	1640.42
829.74	1726.44
829.91	1624.04
830.09	1640.42
830.26	1810.40
830.43	1779.68
830.60	1697.77
830.77	1705.96
830.94	1742.82
831.11	1800.16
831.28	1650.66
831.46	1746.92
831.63	1671.14
831.80	1718.25
831.97	1689.57
832.14	1640.42
832.31	1722.34
832.48	1671.14
832.65	1755.11
832.82	1724.39
832.99	1634.28
833.17	1669.09
833.34	1796.07
833.51	1730.53
833.68	1638.38
833.85	1642.47
834.02	1656.81
834.19	1644.52
834.36	1652.71
834.53	1738.73
834.70	1769.44
834.87	1763.30
835.04	1740.77
835.22	1681.38
835.39	1650.66
835.56	1603.56
835.73	1699.81
835.90	1769.44
836.07	1689.57
836.24	1710.05
836.41	1605.61
836.58	1632.23
836.75	1773.54
836.92	1738.73
837.09	1648.61
837.26	1720.29
837.43	1644.52
837.60	1748.97
837.77	1726.44
837.94	1802.21
838.12	1775.59
838.29	1759.21
838.46	1630.18
838.63	1648.61
838.80	1740.77
838.97	1695.72
839.14	1705.96
839.31	1689.57
839.48	1716.20
839.65	1699.81
839.82	1693.67
839.99	1671.14
840.16	1748.97
840.33	1638.38
840.50	1738.73
840.67	1630.18
840.84	1650.66
841.01	1652.71
841.18	1755.11
841.35	1744.87
841.52	1697.77
841.69	1828.84
841.86	1636.33
842.03	1660.90
842.20	1732.58
842.37	1705.96
842.54	1675.24
842.71	1656.81
842.88	1585.13
843.05	1787.88
843.22	1632.23
843.39	1693.67
843.56	1673.19
843.73	1736.68
843.90	1609.70
844.07	1712.10
844.24	1720.29
844.41	1791.97
844.58	1634.28
844.75	1718.25
844.92	1648.61
845.09	1736.68
845.26	1677.29
845.43	1701.86
845.60	1667.05
845.77	1714.15
845.94	1728.49
846.10	1658.85
846.27	1617.90
846.44	1685.48
846.61	1703.91
846.78	1673.19
846.95	1794.02
847.12	1634.28
847.29	1626.09
847.46	1681.38
847.63	1771.49
847.80	1660.90
847.97	1683.43
848.14	1718.25
848.31	1693.67
848.48	1703.91
848.65	1714.15
848.82	1667.05
848.98	1818.60
849.15	1703.91
849.32	1751.01
849.49	1699.81
849.66	1652.71
849.83	1736.68
850.00	1636.33
850.17	1679.33
850.34	1671.14
850.51	1671.14
850.68	1681.38
850.85	1771.49
851.01	1783.78
851.18	1685.48
851.35	1685.48
851.52	1671.14
851.69	1775.59
851.86	1595.37
852.03	1705.96
852.20	1716.20
852.37	1646.57
852.53	1578.98
852.70	1644.52
852.87	1675.24
853.04	1761.25
853.21	1703.91
853.38	1783.78
853.55	1865.70
853.72	1708.01
853.89	1593.32
854.05	1632.23
854.22	1679.33
854.39	1675.24
854.56	1732.58
854.73	1720.29
854.90	1691.62
855.07	1714.15
855.23	1654.76
855.40	1726.44
855.57	1681.38
855.74	1576.94
855.91	1837.03
856.08	1593.32
856.25	1595.37
856.41	1703.91
856.58	1679.33
856.75	1748.97
856.92	1632.23
857.09	1812.45
857.26	1585.13
857.42	1689.57
857.59	1736.68
857.76	1712.10
857.93	1708.01
858.10	1740.77
858.27	1607.66
858.43	1708.01
858.60	1679.33
858.77	1609.70
858.94	1665.00
859.11	1759.21
859.27	1648.61
859.44	1753.06
859.61	1742.82
859.78	1746.92
859.95	1638.38
860.12	1691.62
860.28	1828.84
860.45	1789.92
860.62	1665.00
860.79	1716.20
860.95	1701.86
861.12	1646.57
861.29	1744.87
861.46	1652.71
861.63	1693.67
861.79	1693.67
861.96	1679.33
862.13	1685.48
862.30	1787.88
862.47	1708.01
862.63	1597.42
862.80	1771.49
862.97	1730.53
863.14	1722.34
863.30	1755.11
863.47	1591.27
863.64	1718.25
863.81	1691.62
863.97	1656.81
864.14	1740.77
864.31	1677.29
864.48	1720.29
864.65	1710.05
864.81	1720.29
864.98	1712.10
865.15	1726.44
865.32	1693.67
865.48	1746.92
865.65	1789.92
865.82	1712.10
865.98	1650.66
866.15	1703.91
866.32	1673.19
866.49	1662.95
866.65	1796.07
866.82	1648.61
866.99	1689.57
867.16	1667.05
867.32	1683.43
867.49	1751.01
867.66	1679.33
867.83	1628.14
867.99	1654.76
868.16	1679.33
868.33	1603.56
868.49	1691.62
868.66	1673.19
868.83	1685.48
868.99	1724.39
869.16	1652.71
869.33	1669.09
869.50	1705.96
869.66	1759.21
869.83	1656.81
870.00	1656.81
870.16	1746.92
870.33	1673.19
870.50	1726.44
870.66	1710.05
870.83	1812.45
871.00	1697.77
871.17	1656.81
871.33	1693.67
871.50	1626.09
871.67	1771.49
871.83	1626.09
872.00	1746.92
872.17	1652.71
872.33	1730.53
872.50	1798.12
872.67	1710.05
872.83	1679.33
873.00	1685.48
873.17	1691.62
873.33	1757.16
873.50	1691.62
873.67	1636.33
873.83	1605.61
874.00	1722.34
874.16	1712.10
874.33	1697.77
874.50	1607.66
874.66	1699.81
874.83	1767.40
875.00	1675.24
875.16	1761.25
875.33	1685.48
875.50	1628.14
875.66	1607.66
875.83	1742.82
875.99	1714.15
876.16	1648.61
876.33	1603.56
876.49	1695.72
876.66	1693.67
876.83	1705.96
876.99	1636.33
877.16	1730.53
877.32	1787.88
877.49	1640.42
877.66	1677.29
877.82	1802.21
877.99	1794.02
878.15	1787.88
878.32	1748.97
878.49	1703.91
878.65	1701.86
878.82	1773.54
878.98	1687.53
879.15	1708.01
879.32	1638.38
879.48	1667.05
879.65	1650.66
879.81	1626.09
879.98	1646.57
880.15	1603.56
880.31	1769.44
880.48	1591.27
880.64	1796.07
880.81	1665.00
880.97	1804.26
881.14	1818.60
881.31	1611.75
881.47	1769.44
881.64	1681.38
881.80	1599.46
881.97	1757.16
882.13	1744.87
882.30	1630.18
882.47	1705.96
882.63	1671.14
882.80	1679.33
882.96	1665.00
883.13	1738.73
883.29	1693.67
883.46	1732.58
883.62	1705.96
883.79	1667.05
883.95	1669.09
884.12	1753.06
884.29	1720.29
884.45	1763.30
884.62	1757.16
884.78	1681.38
884.95	1763.30
885.11	1650.66
885.28	1708.01
885.44	1742.82
885.61	1738.73
885.77	1808.36
885.94	1648.61
886.10	1697.77
886.27	1769.44
886.43	1720.29
886.60	1769.44
886.76	1685.48
886.93	1697.77
887.09	1705.96
887.26	1652.71
887.42	1685.48
887.59	1734.63
887.75	1699.81
887.92	1755.11
888.08	1773.54
888.25	1748.97
888.41	1755.11
888.58	1736.68
888.74	1640.42
888.91	1669.09
>>>>>End Processed Spectral Data<<<<<
