SpectraSuite Data File
++++++++++++++++++++++++++++++++++++
Date: Mon Jun 06 13:54:57 CEST 2016
User: root
Dark Spectrum Present: No
Reference Spectrum Present: No
Number of Sampled Component Spectra: 1
Spectrometers: USB4C02835
Integration Time (usec): 100000 (USB4C02835)
Spectra Averaged: 1 (USB4C02835)
Boxcar Smoothing: 0 (USB4C02835)
Correct for Electrical Dark: No (USB4C02835)
Strobe/Lamp Enabled: No (USB4C02835)
Correct for Detector Non-linearity: No (USB4C02835)
Correct for Stray Light: No (USB4C02835)
Number of Pixels in Processed Spectrum: 3648
>>>>>Begin Processed Spectral Data<<<<<
177.47	1499.11
177.69	1499.11
177.91	1499.11
178.13	1490.92
178.36	1443.82
178.58	1613.80
178.80	1740.77
179.02	1550.31
179.24	1591.27
179.46	1660.90
179.68	1763.30
179.90	1648.61
180.13	1720.29
180.35	1667.05
180.57	1736.68
180.79	1734.63
181.01	1708.01
181.23	1691.62
181.45	1763.30
181.67	1630.18
181.90	1767.40
182.12	1652.71
182.34	1652.71
182.56	1746.92
182.78	1810.40
183.00	1646.57
183.22	1685.48
183.44	1605.61
183.66	1888.23
183.89	1742.82
184.11	1683.43
184.33	1630.18
184.55	1761.25
184.77	1703.91
184.99	1673.19
185.21	1660.90
185.43	1812.45
185.65	1662.95
185.87	1648.61
186.10	1816.55
186.32	1849.32
186.54	1712.10
186.76	1679.33
186.98	1785.83
187.20	1665.00
187.42	1656.81
187.64	1730.53
187.86	1681.38
188.08	1726.44
188.30	1689.57
188.52	1665.00
188.75	1738.73
188.97	1705.96
189.19	1648.61
189.41	1671.14
189.63	1669.09
189.85	1701.86
190.07	1636.33
190.29	1638.38
190.51	1785.83
190.73	1642.47
190.95	1783.78
191.17	1693.67
191.39	1581.03
191.61	1724.39
191.84	1671.14
192.06	1775.59
192.28	1617.90
192.50	1906.66
192.72	1712.10
192.94	1693.67
193.16	1757.16
193.38	1689.57
193.60	1681.38
193.82	1722.34
194.04	1789.92
194.26	1669.09
194.48	1665.00
194.70	1683.43
194.92	1585.13
195.14	1783.78
195.36	1626.09
195.58	1718.25
195.80	1787.88
196.02	1650.66
196.24	1705.96
196.46	1740.77
196.69	1669.09
196.91	1822.69
197.13	1718.25
197.35	1605.61
197.57	1767.40
197.79	1773.54
198.01	1742.82
198.23	1724.39
198.45	1681.38
198.67	1648.61
198.89	1630.18
199.11	1701.86
199.33	1597.42
199.55	1638.38
199.77	1638.38
199.99	1755.11
200.21	1589.22
200.43	1736.68
200.65	1621.99
200.87	1560.55
201.09	1693.67
201.31	1689.57
201.53	1757.16
201.75	1734.63
201.97	1740.77
202.19	1701.86
202.41	1689.57
202.63	1839.08
202.85	1687.53
203.07	1667.05
203.29	1677.29
203.51	1701.86
203.73	1703.91
203.95	1855.46
204.17	1685.48
204.39	1714.15
204.61	1765.35
204.83	1726.44
205.05	1710.05
205.27	1724.39
205.49	1763.30
205.71	1738.73
205.93	1619.94
206.15	1697.77
206.37	1652.71
206.59	1703.91
206.81	1613.80
207.03	1685.48
207.25	1710.05
207.47	1701.86
207.69	1736.68
207.91	1765.35
208.13	1808.36
208.34	1591.27
208.56	1705.96
208.78	1667.05
209.00	1689.57
209.22	1650.66
209.44	1687.53
209.66	1683.43
209.88	1658.85
210.10	1687.53
210.32	1675.24
210.54	1759.21
210.76	1644.52
210.98	1787.88
211.20	1583.08
211.42	1722.34
211.64	1748.97
211.86	1699.81
212.08	1669.09
212.30	1777.64
212.52	1746.92
212.74	1677.29
212.96	1646.57
213.17	1759.21
213.39	1714.15
213.61	1753.06
213.83	1769.44
214.05	1683.43
214.27	1697.77
214.49	1673.19
214.71	1716.20
214.93	1824.74
215.15	1728.49
215.37	1705.96
215.59	1695.72
215.81	1724.39
216.03	1800.16
216.24	1671.14
216.46	1689.57
216.68	1742.82
216.90	1757.16
217.12	1701.86
217.34	1665.00
217.56	1718.25
217.78	1716.20
218.00	1714.15
218.22	1701.86
218.44	1705.96
218.66	1644.52
218.87	1761.25
219.09	1683.43
219.31	1665.00
219.53	1716.20
219.75	1636.33
219.97	1640.42
220.19	1728.49
220.41	1669.09
220.63	1785.83
220.85	1662.95
221.06	1710.05
221.28	1689.57
221.50	1705.96
221.72	1722.34
221.94	1691.62
222.16	1681.38
222.38	1697.77
222.60	1759.21
222.82	1640.42
223.03	1781.73
223.25	1632.23
223.47	1765.35
223.69	1767.40
223.91	1767.40
224.13	1703.91
224.35	1695.72
224.57	1763.30
224.78	1683.43
225.00	1656.81
225.22	1650.66
225.44	1681.38
225.66	1746.92
225.88	1658.85
226.10	1794.02
226.32	1757.16
226.53	1724.39
226.75	1720.29
226.97	1701.86
227.19	1697.77
227.41	1781.73
227.63	1710.05
227.85	1691.62
228.06	1685.48
228.28	1689.57
228.50	1775.59
228.72	1607.66
228.94	1626.09
229.16	1644.52
229.37	1673.19
229.59	1675.24
229.81	1794.02
230.03	1683.43
230.25	1593.32
230.47	1628.14
230.69	1630.18
230.90	1648.61
231.12	1660.90
231.34	1720.29
231.56	1730.53
231.78	1593.32
232.00	1716.20
232.21	1722.34
232.43	1628.14
232.65	1603.56
232.87	1718.25
233.09	1683.43
233.30	1724.39
233.52	1695.72
233.74	1687.53
233.96	1660.90
234.18	1757.16
234.40	1687.53
234.61	1880.04
234.83	1677.29
235.05	1675.24
235.27	1832.93
235.49	1802.21
235.70	1697.77
235.92	1767.40
236.14	1665.00
236.36	1734.63
236.58	1595.37
236.79	1667.05
237.01	1634.28
237.23	1673.19
237.45	1814.50
237.67	1685.48
237.88	1769.44
238.10	1789.92
238.32	1609.70
238.54	1742.82
238.76	1785.83
238.97	1611.75
239.19	1667.05
239.41	1857.51
239.63	1689.57
239.85	1638.38
240.06	1652.71
240.28	1673.19
240.50	1763.30
240.72	1767.40
240.93	1654.76
241.15	1773.54
241.37	1742.82
241.59	1787.88
241.81	1697.77
242.02	1669.09
242.24	1701.86
242.46	1673.19
242.68	1595.37
242.89	1767.40
243.11	1687.53
243.33	1740.77
243.55	1708.01
243.76	1841.12
243.98	1710.05
244.20	1673.19
244.42	1683.43
244.64	1710.05
244.85	1654.76
245.07	1650.66
245.29	1720.29
245.51	1581.03
245.72	1683.43
245.94	1712.10
246.16	1683.43
246.38	1693.67
246.59	1701.86
246.81	1656.81
247.03	1578.98
247.24	1630.18
247.46	1646.57
247.68	1699.81
247.90	1667.05
248.11	1691.62
248.33	1791.97
248.55	1648.61
248.77	1744.87
248.98	1757.16
249.20	1777.64
249.42	1677.29
249.64	1689.57
249.85	1665.00
250.07	1624.04
250.29	1742.82
250.50	1759.21
250.72	1667.05
250.94	1728.49
251.16	1796.07
251.37	1734.63
251.59	1769.44
251.81	1718.25
252.02	1734.63
252.24	1640.42
252.46	1800.16
252.68	1736.68
252.89	1724.39
253.11	1533.93
253.33	1796.07
253.54	1800.16
253.76	1544.17
253.98	1677.29
254.20	1720.29
254.41	1669.09
254.63	1785.83
254.85	1660.90
255.06	1753.06
255.28	1746.92
255.50	1714.15
255.71	1636.33
255.93	1644.52
256.15	1652.71
256.36	1689.57
256.58	1710.05
256.80	1761.25
257.02	1705.96
257.23	1720.29
257.45	1755.11
257.67	1810.40
257.88	1669.09
258.10	1755.11
258.32	1679.33
258.53	1732.58
258.75	1789.92
258.97	1648.61
259.18	1740.77
259.40	1746.92
259.62	1820.64
259.83	1841.12
260.05	1775.59
260.27	1947.62
260.48	1740.77
260.70	1636.33
260.92	1611.75
261.13	1738.73
261.35	1716.20
261.57	1697.77
261.78	1583.08
262.00	1640.42
262.22	1767.40
262.43	1685.48
262.65	1710.05
262.86	1683.43
263.08	1812.45
263.30	1665.00
263.51	1634.28
263.73	1677.29
263.95	1802.21
264.16	1646.57
264.38	1677.29
264.60	1658.85
264.81	1687.53
265.03	1763.30
265.25	1648.61
265.46	1710.05
265.68	1791.97
265.89	1693.67
266.11	1597.42
266.33	1710.05
266.54	1708.01
266.76	1693.67
266.98	1705.96
267.19	1791.97
267.41	1728.49
267.62	1785.83
267.84	1673.19
268.06	1697.77
268.27	1701.86
268.49	1732.58
268.70	1744.87
268.92	1609.70
269.14	1636.33
269.35	1621.99
269.57	1689.57
269.79	1708.01
270.00	1669.09
270.22	1724.39
270.43	1626.09
270.65	1581.03
270.87	1624.04
271.08	1697.77
271.30	1761.25
271.51	1738.73
271.73	1794.02
271.95	1810.40
272.16	1658.85
272.38	1681.38
272.59	1613.80
272.81	1710.05
273.02	1732.58
273.24	1746.92
273.46	1767.40
273.67	1615.85
273.89	1714.15
274.10	1701.86
274.32	1728.49
274.54	1683.43
274.75	1710.05
274.97	1722.34
275.18	1716.20
275.40	1734.63
275.61	1705.96
275.83	1675.24
276.05	1638.38
276.26	1736.68
276.48	1695.72
276.69	1673.19
276.91	1652.71
277.12	1869.80
277.34	1806.31
277.55	1845.22
277.77	1757.16
277.99	1607.66
278.20	1634.28
278.42	1746.92
278.63	1599.46
278.85	1673.19
279.06	1593.32
279.28	1742.82
279.49	1742.82
279.71	1685.48
279.93	1716.20
280.14	1665.00
280.36	1642.47
280.57	1771.49
280.79	1744.87
281.00	1701.86
281.22	1642.47
281.43	1734.63
281.65	1544.17
281.86	1699.81
282.08	1736.68
282.29	1900.52
282.51	1587.18
282.73	1656.81
282.94	1611.75
283.16	1720.29
283.37	1834.98
283.59	1693.67
283.80	1712.10
284.02	1705.96
284.23	1763.30
284.45	1665.00
284.66	1671.14
284.88	1615.85
285.09	1771.49
285.31	1744.87
285.52	1648.61
285.74	1597.42
285.95	1800.16
286.17	1681.38
286.38	1744.87
286.60	1650.66
286.81	1642.47
287.03	1619.94
287.24	1673.19
287.46	1755.11
287.67	1773.54
287.89	1826.79
288.10	1722.34
288.32	1648.61
288.53	1781.73
288.75	1679.33
288.96	1753.06
289.18	1644.52
289.39	1736.68
289.61	1732.58
289.82	1841.12
290.04	1820.64
290.25	1693.67
290.47	1765.35
290.68	1615.85
290.90	1671.14
291.11	1593.32
291.33	1730.53
291.54	1652.71
291.76	1671.14
291.97	1654.76
292.18	1677.29
292.40	1605.61
292.61	1621.99
292.83	1755.11
293.04	1644.52
293.26	1667.05
293.47	1615.85
293.69	1701.86
293.90	1642.47
294.12	1759.21
294.33	1667.05
294.55	1658.85
294.76	1667.05
294.97	1763.30
295.19	1789.92
295.40	1669.09
295.62	1730.53
295.83	1687.53
296.05	1681.38
296.26	1837.03
296.48	1644.52
296.69	1611.75
296.90	1755.11
297.12	1730.53
297.33	1763.30
297.55	1718.25
297.76	1697.77
297.98	1744.87
298.19	1697.77
298.41	1744.87
298.62	1669.09
298.83	1804.26
299.05	1685.48
299.26	1671.14
299.48	1732.58
299.69	1660.90
299.90	1703.91
300.12	1638.38
300.33	1798.12
300.55	1765.35
300.76	1761.25
300.98	1701.86
301.19	1716.20
301.40	1652.71
301.62	1685.48
301.83	1757.16
302.05	1720.29
302.26	1724.39
302.47	1689.57
302.69	1626.09
302.90	1611.75
303.12	1701.86
303.33	1796.07
303.54	1757.16
303.76	1642.47
303.97	1714.15
304.19	1832.93
304.40	1650.66
304.61	1789.92
304.83	1755.11
305.04	1708.01
305.26	1701.86
305.47	1656.81
305.68	1671.14
305.90	1568.74
306.11	1804.26
306.33	1724.39
306.54	1640.42
306.75	1621.99
306.97	1636.33
307.18	1619.94
307.39	1632.23
307.61	1759.21
307.82	1746.92
308.04	1681.38
308.25	1591.27
308.46	1699.81
308.68	1697.77
308.89	1621.99
309.10	1779.68
309.32	1765.35
309.53	1662.95
309.74	1699.81
309.96	1728.49
310.17	1781.73
310.39	1665.00
310.60	1746.92
310.81	1730.53
311.03	1630.18
311.24	1787.88
311.45	1687.53
311.67	1863.65
311.88	1767.40
312.09	1679.33
312.31	1763.30
312.52	1695.72
312.73	1714.15
312.95	1736.68
313.16	1681.38
313.37	1773.54
313.59	1738.73
313.80	1755.11
314.01	1818.60
314.23	1691.62
314.44	1640.42
314.65	1601.51
314.87	1585.13
315.08	1679.33
315.29	1673.19
315.51	1611.75
315.72	1564.65
315.93	1767.40
316.15	1820.64
316.36	1658.85
316.57	1697.77
316.79	1804.26
317.00	1626.09
317.21	1691.62
317.43	1763.30
317.64	1644.52
317.85	1654.76
318.07	1605.61
318.28	1724.39
318.49	1826.79
318.70	1894.37
318.92	1894.37
319.13	1839.08
319.34	1845.22
319.56	1775.59
319.77	1748.97
319.98	1837.03
320.20	1804.26
320.41	1718.25
320.62	1695.72
320.83	1613.80
321.05	1841.12
321.26	1716.20
321.47	1724.39
321.69	1857.51
321.90	1626.09
322.11	1714.15
322.32	1703.91
322.54	1773.54
322.75	1722.34
322.96	1857.51
323.18	1642.47
323.39	1632.23
323.60	1619.94
323.81	1779.68
324.03	1677.29
324.24	1652.71
324.45	1705.96
324.66	1667.05
324.88	1679.33
325.09	1746.92
325.30	1724.39
325.52	1705.96
325.73	1738.73
325.94	1650.66
326.15	1562.60
326.37	1675.24
326.58	1734.63
326.79	1796.07
327.00	1603.56
327.22	1708.01
327.43	1660.90
327.64	1687.53
327.85	1720.29
328.07	1775.59
328.28	1789.92
328.49	1624.04
328.70	1748.97
328.92	1619.94
329.13	1705.96
329.34	1791.97
329.55	1759.21
329.76	1841.12
329.98	1671.14
330.19	1755.11
330.40	1652.71
330.61	1728.49
330.83	1781.73
331.04	1679.33
331.25	1665.00
331.46	1726.44
331.68	1753.06
331.89	1767.40
332.10	1734.63
332.31	1650.66
332.52	1693.67
332.74	1779.68
332.95	1583.08
333.16	1632.23
333.37	1736.68
333.58	1660.90
333.80	1722.34
334.01	1576.94
334.22	1687.53
334.43	1652.71
334.64	1681.38
334.86	1638.38
335.07	1679.33
335.28	1748.97
335.49	1621.99
335.70	1705.96
335.92	1693.67
336.13	1869.80
336.34	1785.83
336.55	1603.56
336.76	1675.24
336.98	1576.94
337.19	1701.86
337.40	1763.30
337.61	1898.47
337.82	1691.62
338.04	1732.58
338.25	1601.51
338.46	1734.63
338.67	1699.81
338.88	1636.33
339.09	1697.77
339.31	1644.52
339.52	1642.47
339.73	1662.95
339.94	1636.33
340.15	1781.73
340.36	1712.10
340.58	1685.48
340.79	1677.29
341.00	1751.01
341.21	1644.52
341.42	1832.93
341.63	1710.05
341.85	1753.06
342.06	1722.34
342.27	1621.99
342.48	1755.11
342.69	1671.14
342.90	1726.44
343.12	1761.25
343.33	1681.38
343.54	1773.54
343.75	1757.16
343.96	1636.33
344.17	1609.70
344.38	1720.29
344.60	1689.57
344.81	1581.03
345.02	1730.53
345.23	1695.72
345.44	1755.11
345.65	1722.34
345.86	1771.49
346.07	1720.29
346.29	1630.18
346.50	1689.57
346.71	1744.87
346.92	1746.92
347.13	1787.88
347.34	1677.29
347.55	1683.43
347.76	1773.54
347.98	1624.04
348.19	1714.15
348.40	1781.73
348.61	1681.38
348.82	1808.36
349.03	1761.25
349.24	1613.80
349.45	1834.98
349.66	1632.23
349.88	1693.67
350.09	1656.81
350.30	1763.30
350.51	1728.49
350.72	1757.16
350.93	1753.06
351.14	1728.49
351.35	1675.24
351.56	1677.29
351.77	1714.15
351.99	1689.57
352.20	1820.64
352.41	1720.29
352.62	1697.77
352.83	1646.57
353.04	1691.62
353.25	1748.97
353.46	1685.48
353.67	1742.82
353.88	1570.79
354.09	1726.44
354.30	1658.85
354.52	1789.92
354.73	1654.76
354.94	1691.62
355.15	1730.53
355.36	1834.98
355.57	1730.53
355.78	1701.86
355.99	1720.29
356.20	1736.68
356.41	1763.30
356.62	1726.44
356.83	1740.77
357.04	1789.92
357.25	1677.29
357.46	1624.04
357.68	1675.24
357.89	1609.70
358.10	1660.90
358.31	1679.33
358.52	1660.90
358.73	1554.41
358.94	1585.13
359.15	1714.15
359.36	1744.87
359.57	1693.67
359.78	1734.63
359.99	1742.82
360.20	1628.14
360.41	1669.09
360.62	1716.20
360.83	1728.49
361.04	1650.66
361.25	1740.77
361.46	1746.92
361.67	1710.05
361.88	1791.97
362.09	1734.63
362.30	1757.16
362.51	1681.38
362.72	1665.00
362.93	1755.11
363.14	1710.05
363.35	1718.25
363.56	1613.80
363.78	1710.05
363.99	1714.15
364.20	1662.95
364.41	1640.42
364.62	1746.92
364.83	1632.23
365.04	1771.49
365.25	1628.14
365.46	1851.36
365.67	1609.70
365.88	1642.47
366.09	1708.01
366.30	1710.05
366.51	1705.96
366.72	1687.53
366.93	1624.04
367.14	1714.15
367.35	1712.10
367.56	1669.09
367.77	1796.07
367.98	1671.14
368.18	1763.30
368.39	1755.11
368.60	1658.85
368.81	1783.78
369.02	1728.49
369.23	1718.25
369.44	1648.61
369.65	1644.52
369.86	1726.44
370.07	1712.10
370.28	1712.10
370.49	1728.49
370.70	1667.05
370.91	1658.85
371.12	1605.61
371.33	1691.62
371.54	1691.62
371.75	1714.15
371.96	1581.03
372.17	1701.86
372.38	1679.33
372.59	1738.73
372.80	1677.29
373.01	1681.38
373.22	1634.28
373.43	1693.67
373.64	1640.42
373.85	1814.50
374.06	1796.07
374.26	1765.35
374.47	1681.38
374.68	1755.11
374.89	1757.16
375.10	1726.44
375.31	1787.88
375.52	1636.33
375.73	1687.53
375.94	1591.27
376.15	1886.18
376.36	1677.29
376.57	1669.09
376.78	1644.52
376.99	1763.30
377.20	1751.01
377.40	1617.90
377.61	1904.61
377.82	1665.00
378.03	1820.64
378.24	1724.39
378.45	1701.86
378.66	1685.48
378.87	1599.46
379.08	1667.05
379.29	1738.73
379.50	1724.39
379.71	1665.00
379.91	1748.97
380.12	1632.23
380.33	1748.97
380.54	1642.47
380.75	1632.23
380.96	1677.29
381.17	1726.44
381.38	1710.05
381.59	1779.68
381.80	1681.38
382.00	1861.60
382.21	1728.49
382.42	1802.21
382.63	1853.41
382.84	1767.40
383.05	1781.73
383.26	1794.02
383.47	1767.40
383.68	1757.16
383.88	1697.77
384.09	1748.97
384.30	1800.16
384.51	1751.01
384.72	1736.68
384.93	1628.14
385.14	1757.16
385.35	1798.12
385.55	1730.53
385.76	1722.34
385.97	1701.86
386.18	1691.62
386.39	1626.09
386.60	1640.42
386.81	1734.63
387.02	1630.18
387.22	1673.19
387.43	1812.45
387.64	1847.27
387.85	1828.84
388.06	2230.24
388.27	4300.73
388.48	6770.58
388.68	8279.94
388.89	9650.03
389.10	9676.65
389.31	8814.46
389.52	7538.57
389.73	6635.42
389.93	6238.11
390.14	5863.33
390.35	5169.07
390.56	4556.73
390.77	3903.43
390.98	3022.80
391.18	2541.53
391.39	2123.74
391.60	1824.74
391.81	1896.42
392.02	1744.87
392.23	1783.78
392.43	1732.58
392.64	1759.21
392.85	1673.19
393.06	1843.17
393.27	1757.16
393.47	1650.66
393.68	1695.72
393.89	1679.33
394.10	1812.45
394.31	1687.53
394.52	1687.53
394.72	1712.10
394.93	1728.49
395.14	1748.97
395.35	1687.53
395.56	1755.11
395.76	1794.02
395.97	1791.97
396.18	1798.12
396.39	1787.88
396.60	1959.91
396.80	1923.04
397.01	1804.26
397.22	1804.26
397.43	1753.06
397.64	1734.63
397.84	1671.14
398.05	1873.89
398.26	1726.44
398.47	1775.59
398.67	1703.91
398.88	1699.81
399.09	1710.05
399.30	1705.96
399.51	1761.25
399.71	1701.86
399.92	1671.14
400.13	1748.97
400.34	1728.49
400.54	1716.20
400.75	1736.68
400.96	1738.73
401.17	1726.44
401.37	1679.33
401.58	1685.48
401.79	1701.86
402.00	1894.37
402.21	2013.15
402.41	1871.84
402.62	1986.53
402.83	2093.02
403.04	1920.99
403.24	2019.30
403.45	1867.75
403.66	1906.66
403.87	1916.90
404.07	1845.22
404.28	1804.26
404.49	1843.17
404.70	1767.40
404.90	1740.77
405.11	1718.25
405.32	1701.86
405.52	1738.73
405.73	1669.09
405.94	1687.53
406.15	1683.43
406.35	1677.29
406.56	1714.15
406.77	1730.53
406.98	1763.30
407.18	1619.94
407.39	1783.78
407.60	1689.57
407.80	1714.15
408.01	1685.48
408.22	1736.68
408.43	1660.90
408.63	1736.68
408.84	1736.68
409.05	1814.50
409.25	1662.95
409.46	1660.90
409.67	1675.24
409.88	1697.77
410.08	1708.01
410.29	1640.42
410.50	1718.25
410.70	1757.16
410.91	1671.14
411.12	1716.20
411.32	1662.95
411.53	1640.42
411.74	1802.21
411.95	1771.49
412.15	1746.92
412.36	1689.57
412.57	1701.86
412.77	1814.50
412.98	1669.09
413.19	1708.01
413.39	1722.34
413.60	1746.92
413.81	1804.26
414.01	1660.90
414.22	1710.05
414.43	1724.39
414.63	1665.00
414.84	1724.39
415.05	1638.38
415.25	1624.04
415.46	1816.55
415.67	1697.77
415.87	1726.44
416.08	1683.43
416.29	1689.57
416.49	1755.11
416.70	1716.20
416.91	1683.43
417.11	1660.90
417.32	1716.20
417.53	1820.64
417.73	1720.29
417.94	1820.64
418.15	1779.68
418.35	1726.44
418.56	1689.57
418.77	1814.50
418.97	1632.23
419.18	1626.09
419.38	1574.89
419.59	1617.90
419.80	1757.16
420.00	1644.52
420.21	1765.35
420.42	1818.60
420.62	1699.81
420.83	1665.00
421.04	1701.86
421.24	1685.48
421.45	1722.34
421.65	1746.92
421.86	1650.66
422.07	1732.58
422.27	1738.73
422.48	1695.72
422.69	1650.66
422.89	1716.20
423.10	1636.33
423.30	1574.89
423.51	1730.53
423.72	1722.34
423.92	1759.21
424.13	1687.53
424.33	1757.16
424.54	1738.73
424.75	1767.40
424.95	1806.31
425.16	1679.33
425.36	1744.87
425.57	1763.30
425.78	1681.38
425.98	1722.34
426.19	1660.90
426.39	1714.15
426.60	1755.11
426.81	1757.16
427.01	1669.09
427.22	1630.18
427.42	1601.51
427.63	1652.71
427.83	1724.39
428.04	1814.50
428.25	1771.49
428.45	1779.68
428.66	1796.07
428.86	1798.12
429.07	1617.90
429.28	1619.94
429.48	1699.81
429.69	1587.18
429.89	1708.01
430.10	1669.09
430.30	1753.06
430.51	1812.45
430.71	1697.77
430.92	1665.00
431.13	1679.33
431.33	1751.01
431.54	1705.96
431.74	1837.03
431.95	1812.45
432.15	1574.89
432.36	1683.43
432.56	1714.15
432.77	1806.31
432.98	1744.87
433.18	1705.96
433.39	1701.86
433.59	1689.57
433.80	1781.73
434.00	1834.98
434.21	1681.38
434.41	1648.61
434.62	1796.07
434.82	1683.43
435.03	1630.18
435.23	1671.14
435.44	1607.66
435.64	1712.10
435.85	1703.91
436.06	1716.20
436.26	1837.03
436.47	1722.34
436.67	1689.57
436.88	1718.25
437.08	1755.11
437.29	1794.02
437.49	1738.73
437.70	1759.21
437.90	1683.43
438.11	1798.12
438.31	1794.02
438.52	1810.40
438.72	1857.51
438.93	1966.05
439.13	1791.97
439.34	1751.01
439.54	1787.88
439.75	1763.30
439.95	1718.25
440.16	1683.43
440.36	1714.15
440.57	1751.01
440.77	1773.54
440.98	1669.09
441.18	1794.02
441.39	1632.23
441.59	1687.53
441.80	1779.68
442.00	1724.39
442.21	1781.73
442.41	1701.86
442.62	1765.35
442.82	1673.19
443.02	1812.45
443.23	1683.43
443.43	1703.91
443.64	1765.35
443.84	1734.63
444.05	1775.59
444.25	1791.97
444.46	1673.19
444.66	1718.25
444.87	1806.31
445.07	1630.18
445.28	1718.25
445.48	1769.44
445.69	1734.63
445.89	1800.16
446.09	1740.77
446.30	1961.95
446.50	2500.57
446.71	3631.05
446.91	4325.31
447.12	4777.91
447.32	4759.48
447.53	4392.89
447.73	3932.10
447.93	3540.94
448.14	3276.75
448.34	3248.08
448.55	2926.55
448.75	2828.24
448.96	2633.69
449.16	2461.66
449.36	2234.33
449.57	2009.06
449.77	1810.40
449.98	1767.40
450.18	1808.36
450.39	1822.69
450.59	1734.63
450.79	1708.01
451.00	1705.96
451.20	1816.55
451.41	1734.63
451.61	1775.59
451.81	1755.11
452.02	1701.86
452.22	1701.86
452.43	1673.19
452.63	1681.38
452.84	1802.21
453.04	1726.44
453.24	1730.53
453.45	1697.77
453.65	1660.90
453.86	1734.63
454.06	1738.73
454.26	1765.35
454.47	1730.53
454.67	1828.84
454.87	1787.88
455.08	1693.67
455.28	1853.41
455.49	1767.40
455.69	1642.47
455.89	1875.94
456.10	1843.17
456.30	1736.68
456.51	1763.30
456.71	1705.96
456.91	1710.05
457.12	1744.87
457.32	1683.43
457.52	1656.81
457.73	1851.36
457.93	1769.44
458.14	1703.91
458.34	1673.19
458.54	1746.92
458.75	1675.24
458.95	1777.64
459.15	1769.44
459.36	1742.82
459.56	1802.21
459.76	1851.36
459.97	1746.92
460.17	1740.77
460.37	1763.30
460.58	1714.15
460.78	1732.58
460.99	1665.00
461.19	1689.57
461.39	1724.39
461.60	1705.96
461.80	1763.30
462.00	1736.68
462.21	1722.34
462.41	1677.29
462.61	1693.67
462.82	1626.09
463.02	1757.16
463.22	1751.01
463.43	1857.51
463.63	1796.07
463.83	1787.88
464.04	1705.96
464.24	1742.82
464.44	1642.47
464.64	1724.39
464.85	1755.11
465.05	1804.26
465.25	1724.39
465.46	1708.01
465.66	1791.97
465.86	1744.87
466.07	1712.10
466.27	1673.19
466.47	1601.51
466.68	1693.67
466.88	1787.88
467.08	1853.41
467.29	1804.26
467.49	1781.73
467.69	1665.00
467.89	1806.31
468.10	1757.16
468.30	1669.09
468.50	1826.79
468.71	1765.35
468.91	1671.14
469.11	1812.45
469.31	1687.53
469.52	1615.85
469.72	1800.16
469.92	1900.52
470.13	1757.16
470.33	1681.38
470.53	1820.64
470.73	2107.36
470.94	2353.12
471.14	2314.20
471.34	2584.54
471.54	2418.65
471.75	2320.35
471.95	2127.84
472.15	2080.74
472.36	2037.73
472.56	2027.49
472.76	2072.54
472.96	2011.11
473.17	1880.04
473.37	1906.66
473.57	1783.78
473.77	1763.30
473.98	1740.77
474.18	1667.05
474.38	1955.81
474.58	1642.47
474.79	1728.49
474.99	1685.48
475.19	1738.73
475.39	1652.71
475.60	1693.67
475.80	1726.44
476.00	1710.05
476.20	1691.62
476.41	1769.44
476.61	1894.37
476.81	1746.92
477.01	1697.77
477.21	1830.88
477.42	1841.12
477.62	1701.86
477.82	1787.88
478.02	1742.82
478.23	1759.21
478.43	1660.90
478.63	1740.77
478.83	1615.85
479.03	1722.34
479.24	1742.82
479.44	1755.11
479.64	1636.33
479.84	1568.74
480.04	1728.49
480.25	1742.82
480.45	1667.05
480.65	1705.96
480.85	1763.30
481.06	1708.01
481.26	1726.44
481.46	1796.07
481.66	1767.40
481.86	1665.00
482.06	1839.08
482.27	1656.81
482.47	1751.01
482.67	1771.49
482.87	1660.90
483.07	1708.01
483.28	1652.71
483.48	1611.75
483.68	1771.49
483.88	1660.90
484.08	1595.37
484.29	1693.67
484.49	1691.62
484.69	1681.38
484.89	1787.88
485.09	1744.87
485.29	1734.63
485.50	1669.09
485.70	1689.57
485.90	1798.12
486.10	1794.02
486.30	1714.15
486.50	1693.67
486.71	1773.54
486.91	1755.11
487.11	1796.07
487.31	1613.80
487.51	1732.58
487.71	1658.85
487.91	1632.23
488.12	1648.61
488.32	1597.42
488.52	1708.01
488.72	1624.04
488.92	1671.14
489.12	1767.40
489.32	1810.40
489.53	1703.91
489.73	1648.61
489.93	1755.11
490.13	1669.09
490.33	1650.66
490.53	1789.92
490.73	1802.21
490.94	1650.66
491.14	1738.73
491.34	1830.88
491.54	2031.58
491.74	2525.15
491.94	2951.12
492.14	3004.37
492.34	3098.58
492.54	2809.81
492.75	2430.94
492.95	2484.19
493.15	2359.26
493.35	2267.10
493.55	2263.01
493.75	2154.46
493.95	2152.42
494.15	2066.40
494.35	1914.85
494.56	1886.18
494.76	1808.36
494.96	1775.59
495.16	1804.26
495.36	1648.61
495.56	1785.83
495.76	1708.01
495.96	1679.33
496.16	1687.53
496.36	1851.36
496.56	1742.82
496.77	1738.73
496.97	1644.52
497.17	1820.64
497.37	1677.29
497.57	1761.25
497.77	1665.00
497.97	1644.52
498.17	1628.14
498.37	1720.29
498.57	1767.40
498.77	1781.73
498.97	1726.44
499.17	1843.17
499.38	1732.58
499.58	1689.57
499.78	1769.44
499.98	1855.46
500.18	1677.29
500.38	1689.57
500.58	1978.34
500.78	2570.20
500.98	4566.97
501.18	5869.48
501.38	6723.48
501.58	7188.37
501.78	6748.06
501.98	5541.80
502.18	4986.80
502.38	4460.48
502.58	4073.41
502.78	3798.98
502.98	3602.38
503.18	3438.54
503.38	3067.86
503.59	2869.20
503.79	2678.74
503.99	2521.05
504.19	2246.62
504.39	2265.05
504.59	2156.51
504.79	2050.02
504.99	2033.63
505.19	1949.67
505.39	1925.09
505.59	1982.43
505.79	1892.32
505.99	1918.95
506.19	1857.51
506.39	1869.80
506.59	1740.77
506.79	1777.64
506.99	1841.12
507.19	1796.07
507.39	1665.00
507.59	1726.44
507.79	1669.09
507.99	1730.53
508.19	1701.86
508.39	1798.12
508.59	1785.83
508.79	1796.07
508.99	1927.14
509.19	1699.81
509.39	1734.63
509.59	1656.81
509.79	1734.63
509.99	1738.73
510.19	1859.56
510.39	1812.45
510.59	1689.57
510.79	1683.43
510.99	1665.00
511.19	1708.01
511.39	1925.09
511.59	1730.53
511.79	1763.30
511.99	1761.25
512.19	1839.08
512.38	1810.40
512.58	1697.77
512.78	1660.90
512.98	1742.82
513.18	1869.80
513.38	1662.95
513.58	1841.12
513.78	1658.85
513.98	1753.06
514.18	1658.85
514.38	1794.02
514.58	1703.91
514.78	1683.43
514.98	1634.28
515.18	1710.05
515.38	1667.05
515.58	1787.88
515.78	1738.73
515.98	1771.49
516.18	1714.15
516.38	1726.44
516.57	1708.01
516.77	1738.73
516.97	1755.11
517.17	1746.92
517.37	1617.90
517.57	1871.84
517.77	1818.60
517.97	1746.92
518.17	1740.77
518.37	1675.24
518.57	1679.33
518.77	1699.81
518.97	1773.54
519.16	1755.11
519.36	1736.68
519.56	1718.25
519.76	1691.62
519.96	1673.19
520.16	1828.84
520.36	1677.29
520.56	1800.16
520.76	1669.09
520.96	1675.24
521.16	1769.44
521.35	1726.44
521.55	1814.50
521.75	1763.30
521.95	1705.96
522.15	1695.72
522.35	1669.09
522.55	1611.75
522.75	1812.45
522.95	1681.38
523.14	1662.95
523.34	1734.63
523.54	1693.67
523.74	1685.48
523.94	1779.68
524.14	1681.38
524.34	1695.72
524.54	1777.64
524.73	1705.96
524.93	1767.40
525.13	1726.44
525.33	1652.71
525.53	1943.52
525.73	1785.83
525.93	1689.57
526.13	1654.76
526.32	1644.52
526.52	1834.98
526.72	1783.78
526.92	1738.73
527.12	1787.88
527.32	1644.52
527.52	1759.21
527.71	1734.63
527.91	1771.49
528.11	1636.33
528.31	1734.63
528.51	1630.18
528.71	1759.21
528.90	1705.96
529.10	1751.01
529.30	1779.68
529.50	1640.42
529.70	1767.40
529.90	1621.99
530.09	1726.44
530.29	1683.43
530.49	1712.10
530.69	1892.32
530.89	1722.34
531.09	1851.36
531.28	1771.49
531.48	1787.88
531.68	1771.49
531.88	1714.15
532.08	1779.68
532.28	1718.25
532.47	1777.64
532.67	1785.83
532.87	1798.12
533.07	1685.48
533.27	1826.79
533.46	1691.62
533.66	1728.49
533.86	1708.01
534.06	1697.77
534.26	1730.53
534.45	1714.15
534.65	1775.59
534.85	1810.40
535.05	1671.14
535.25	1718.25
535.44	1611.75
535.64	1710.05
535.84	1740.77
536.04	1675.24
536.24	1634.28
536.43	1640.42
536.63	1712.10
536.83	1832.93
537.03	1685.48
537.22	1683.43
537.42	1658.85
537.62	1775.59
537.82	1621.99
538.02	1798.12
538.21	1767.40
538.41	1906.66
538.61	1834.98
538.81	1644.52
539.00	1787.88
539.20	1646.57
539.40	1669.09
539.60	1787.88
539.79	1728.49
539.99	1781.73
540.19	1634.28
540.39	1693.67
540.58	1757.16
540.78	1761.25
540.98	1736.68
541.18	1783.78
541.37	1820.64
541.57	1697.77
541.77	1705.96
541.97	1714.15
542.16	1640.42
542.36	1714.15
542.56	1738.73
542.76	1845.22
542.95	1748.97
543.15	1753.06
543.35	1789.92
543.54	1728.49
543.74	1718.25
543.94	1828.84
544.14	1742.82
544.33	1763.30
544.53	1691.62
544.73	1710.05
544.93	1685.48
545.12	1714.15
545.32	1738.73
545.52	1751.01
545.71	1728.49
545.91	1767.40
546.11	1718.25
546.30	1648.61
546.50	1763.30
546.70	1732.58
546.90	1738.73
547.09	1634.28
547.29	1722.34
547.49	1781.73
547.68	1724.39
547.88	1710.05
548.08	1730.53
548.27	2109.41
548.47	1712.10
548.67	1624.04
548.87	1722.34
549.06	1693.67
549.26	1814.50
549.46	1775.59
549.65	1738.73
549.85	1714.15
550.05	1775.59
550.24	1660.90
550.44	1748.97
550.64	1759.21
550.83	1724.39
551.03	1822.69
551.23	1796.07
551.42	1767.40
551.62	1673.19
551.82	1730.53
552.01	1708.01
552.21	1806.31
552.41	1759.21
552.60	1812.45
552.80	1734.63
553.00	1656.81
553.19	1732.58
553.39	1822.69
553.59	1693.67
553.78	1783.78
553.98	1753.06
554.17	1724.39
554.37	1755.11
554.57	1732.58
554.76	1753.06
554.96	1787.88
555.16	1751.01
555.35	1728.49
555.55	1794.02
555.75	1761.25
555.94	1761.25
556.14	1626.09
556.33	1800.16
556.53	1738.73
556.73	1794.02
556.92	1800.16
557.12	1826.79
557.32	1769.44
557.51	1818.60
557.71	1775.59
557.90	1800.16
558.10	1820.64
558.30	1675.24
558.49	1728.49
558.69	1726.44
558.88	1740.77
559.08	1773.54
559.28	1740.77
559.47	1757.16
559.67	1697.77
559.86	1845.22
560.06	1775.59
560.26	1681.38
560.45	1761.25
560.65	1732.58
560.84	1798.12
561.04	1712.10
561.24	1714.15
561.43	1693.67
561.63	1839.08
561.82	1771.49
562.02	1763.30
562.22	1687.53
562.41	1710.05
562.61	1742.82
562.80	1708.01
563.00	1918.95
563.19	1779.68
563.39	1802.21
563.59	1791.97
563.78	1638.38
563.98	1656.81
564.17	1755.11
564.37	1593.32
564.56	1665.00
564.76	1603.56
564.96	1832.93
565.15	1667.05
565.35	1832.93
565.54	1730.53
565.74	1673.19
565.93	1779.68
566.13	1718.25
566.32	1718.25
566.52	1779.68
566.71	1742.82
566.91	1740.77
567.11	1734.63
567.30	1689.57
567.50	1730.53
567.69	1746.92
567.89	1742.82
568.08	1708.01
568.28	1728.49
568.47	1603.56
568.67	1734.63
568.86	1714.15
569.06	1689.57
569.25	1748.97
569.45	1658.85
569.64	1755.11
569.84	1718.25
570.04	1777.64
570.23	1699.81
570.43	1714.15
570.62	1781.73
570.82	1785.83
571.01	1689.57
571.21	1708.01
571.40	1624.04
571.60	1814.50
571.79	1744.87
571.99	1736.68
572.18	1665.00
572.38	1830.88
572.57	1619.94
572.77	1785.83
572.96	1894.37
573.16	1798.12
573.35	1697.77
573.55	1820.64
573.74	1779.68
573.94	1701.86
574.13	1720.29
574.33	1798.12
574.52	1828.84
574.71	1714.15
574.91	1845.22
575.10	1718.25
575.30	1787.88
575.49	1683.43
575.69	1710.05
575.88	1785.83
576.08	1675.24
576.27	1753.06
576.47	1769.44
576.66	1882.08
576.86	1802.21
577.05	1748.97
577.25	1761.25
577.44	1920.99
577.64	1681.38
577.83	1757.16
578.02	1744.87
578.22	1904.61
578.41	1855.46
578.61	1757.16
578.80	1718.25
579.00	1814.50
579.19	1746.92
579.39	1742.82
579.58	1806.31
579.77	1773.54
579.97	1839.08
580.16	1820.64
580.36	1886.18
580.55	1855.46
580.75	1834.98
580.94	1753.06
581.13	1884.13
581.33	1861.60
581.52	1800.16
581.72	1861.60
581.91	1804.26
582.11	1751.01
582.30	1808.36
582.49	1693.67
582.69	1832.93
582.88	1746.92
583.08	1757.16
583.27	1830.88
583.47	1759.21
583.66	1677.29
583.85	1775.59
584.05	1845.22
584.24	1771.49
584.44	1732.58
584.63	1800.16
584.82	1773.54
585.02	1861.60
585.21	1853.41
585.41	1869.80
585.60	1859.56
585.79	1873.89
585.99	1920.99
586.18	1828.84
586.37	2090.98
586.57	3495.88
586.76	9926.50
586.96	24612.49
587.15	34659.82
587.34	40809.87
587.54	42218.88
587.73	37060.04
587.93	26556.01
588.12	21597.88
588.31	18628.32
588.51	16502.53
588.70	15126.30
588.89	14075.69
589.09	12539.71
589.28	11091.80
589.47	9543.53
589.67	8034.18
589.86	6504.35
590.06	4919.22
590.25	3975.11
590.44	3217.36
590.64	2537.43
590.83	2240.48
591.02	2174.94
591.22	1861.60
591.41	1847.27
591.60	1830.88
591.80	1970.15
591.99	1724.39
592.18	1755.11
592.38	1851.36
592.57	1785.83
592.76	1771.49
592.96	1812.45
593.15	1710.05
593.34	1777.64
593.54	1783.78
593.73	1763.30
593.92	1734.63
594.12	1757.16
594.31	1722.34
594.50	1865.70
594.70	1703.91
594.89	1898.47
595.08	1710.05
595.28	1837.03
595.47	1957.86
595.66	1794.02
595.86	1693.67
596.05	1695.72
596.24	1701.86
596.43	1822.69
596.63	1822.69
596.82	1685.48
597.01	1746.92
597.21	1847.27
597.40	1736.68
597.59	1738.73
597.79	1710.05
597.98	1746.92
598.17	1810.40
598.36	1730.53
598.56	1697.77
598.75	1726.44
598.94	1742.82
599.14	1726.44
599.33	1734.63
599.52	1693.67
599.71	1798.12
599.91	1828.84
600.10	1771.49
600.29	1683.43
600.48	1847.27
600.68	1751.01
600.87	1763.30
601.06	1728.49
601.26	1685.48
601.45	1787.88
601.64	1675.24
601.83	1789.92
602.03	1632.23
602.22	1681.38
602.41	1800.16
602.60	1900.52
602.80	1863.65
602.99	1738.73
603.18	1730.53
603.37	1730.53
603.57	1781.73
603.76	1800.16
603.95	1841.12
604.14	1748.97
604.34	1681.38
604.53	1677.29
604.72	1665.00
604.91	1824.74
605.10	1808.36
605.30	1701.86
605.49	1837.03
605.68	1794.02
605.87	1699.81
606.07	1701.86
606.26	1751.01
606.45	1740.77
606.64	1841.12
606.84	1589.22
607.03	1681.38
607.22	1710.05
607.41	1642.47
607.60	1722.34
607.80	1816.55
607.99	1679.33
608.18	1730.53
608.37	1732.58
608.56	1665.00
608.76	1794.02
608.95	1800.16
609.14	1755.11
609.33	1771.49
609.52	1738.73
609.72	1667.05
609.91	1757.16
610.10	1691.62
610.29	1787.88
610.48	1832.93
610.68	1777.64
610.87	1740.77
611.06	1757.16
611.25	1714.15
611.44	1830.88
611.63	1628.14
611.83	1787.88
612.02	1744.87
612.21	1763.30
612.40	1710.05
612.59	1619.94
612.79	1665.00
612.98	1732.58
613.17	1890.28
613.36	1724.39
613.55	1796.07
613.74	1687.53
613.93	1689.57
614.13	1726.44
614.32	1785.83
614.51	1779.68
614.70	1705.96
614.89	1714.15
615.08	1718.25
615.28	2105.31
615.47	1632.23
615.66	1662.95
615.85	1726.44
616.04	1755.11
616.23	1759.21
616.42	1722.34
616.62	1746.92
616.81	1753.06
617.00	1693.67
617.19	1785.83
617.38	1716.20
617.57	1781.73
617.76	1683.43
617.95	1763.30
618.15	1724.39
618.34	1816.55
618.53	1636.33
618.72	1843.17
618.91	1841.12
619.10	1796.07
619.29	1626.09
619.48	1732.58
619.68	1658.85
619.87	1617.90
620.06	1660.90
620.25	1673.19
620.44	1652.71
620.63	1675.24
620.82	1765.35
621.01	1757.16
621.20	1667.05
621.39	1701.86
621.59	1748.97
621.78	1642.47
621.97	1710.05
622.16	1705.96
622.35	1730.53
622.54	1722.34
622.73	1769.44
622.92	1681.38
623.11	1818.60
623.30	1615.85
623.49	1755.11
623.68	1697.77
623.88	1845.22
624.07	1665.00
624.26	1697.77
624.45	1755.11
624.64	1697.77
624.83	1724.39
625.02	1683.43
625.21	1783.78
625.40	1761.25
625.59	1767.40
625.78	1673.19
625.97	1796.07
626.16	1796.07
626.35	1779.68
626.54	1769.44
626.74	1746.92
626.93	1730.53
627.12	1703.91
627.31	1746.92
627.50	1798.12
627.69	1726.44
627.88	1652.71
628.07	1710.05
628.26	1519.59
628.45	1759.21
628.64	1621.99
628.83	1617.90
629.02	1574.89
629.21	1716.20
629.40	1683.43
629.59	1652.71
629.78	1693.67
629.97	1652.71
630.16	1718.25
630.35	1728.49
630.54	1742.82
630.73	1705.96
630.92	1714.15
631.11	1673.19
631.30	1714.15
631.49	1755.11
631.68	1720.29
631.87	1753.06
632.06	1710.05
632.25	1880.04
632.44	1791.97
632.63	1744.87
632.82	1695.72
633.01	1644.52
633.20	1746.92
633.39	1677.29
633.58	1654.76
633.77	1781.73
633.96	1687.53
634.15	1710.05
634.34	1701.86
634.53	1734.63
634.72	1705.96
634.91	1667.05
635.10	1703.91
635.29	1751.01
635.48	1710.05
635.67	1722.34
635.86	1681.38
636.05	1767.40
636.24	1732.58
636.43	1689.57
636.62	1669.09
636.81	1578.98
637.00	1734.63
637.19	1701.86
637.38	1722.34
637.57	1673.19
637.76	1689.57
637.95	1796.07
638.14	1705.96
638.33	1720.29
638.52	1759.21
638.71	1609.70
638.89	1656.81
639.08	1847.27
639.27	1789.92
639.46	1671.14
639.65	1804.26
639.84	1710.05
640.03	1748.97
640.22	1634.28
640.41	1818.60
640.60	1677.29
640.79	1722.34
640.98	1701.86
641.17	1753.06
641.36	1701.86
641.55	1796.07
641.74	1695.72
641.92	1658.85
642.11	1662.95
642.30	1787.88
642.49	1671.14
642.68	1591.27
642.87	1814.50
643.06	1755.11
643.25	1740.77
643.44	1699.81
643.63	1730.53
643.82	1765.35
644.00	1665.00
644.19	1771.49
644.38	1638.38
644.57	1742.82
644.76	1681.38
644.95	1744.87
645.14	1746.92
645.33	1708.01
645.52	1738.73
645.71	1669.09
645.89	1675.24
646.08	1689.57
646.27	1665.00
646.46	1775.59
646.65	1617.90
646.84	1636.33
647.03	1679.33
647.22	1755.11
647.40	1755.11
647.59	1724.39
647.78	1640.42
647.97	1720.29
648.16	1718.25
648.35	1816.55
648.54	1763.30
648.73	1722.34
648.91	1722.34
649.10	1714.15
649.29	1654.76
649.48	1675.24
649.67	1697.77
649.86	1697.77
650.05	1722.34
650.23	1804.26
650.42	1644.52
650.61	1779.68
650.80	1714.15
650.99	1828.84
651.18	1773.54
651.36	1740.77
651.55	1703.91
651.74	1730.53
651.93	1697.77
652.12	1722.34
652.31	1742.82
652.49	1689.57
652.68	1636.33
652.87	1755.11
653.06	1703.91
653.25	1820.64
653.44	1652.71
653.62	1808.36
653.81	1734.63
654.00	1755.11
654.19	1761.25
654.38	1927.14
654.56	1740.77
654.75	1714.15
654.94	1755.11
655.13	1714.15
655.32	1710.05
655.51	1724.39
655.69	1665.00
655.88	1759.21
656.07	1693.67
656.26	1718.25
656.45	1697.77
656.63	1730.53
656.82	1767.40
657.01	1789.92
657.20	1746.92
657.38	1804.26
657.57	1687.53
657.76	1632.23
657.95	1832.93
658.14	1716.20
658.32	1751.01
658.51	1705.96
658.70	1683.43
658.89	1767.40
659.08	1671.14
659.26	1779.68
659.45	1675.24
659.64	1679.33
659.83	1626.09
660.01	1884.13
660.20	1763.30
660.39	1826.79
660.58	1708.01
660.76	1714.15
660.95	1656.81
661.14	1656.81
661.33	1732.58
661.51	1722.34
661.70	1681.38
661.89	1730.53
662.08	1705.96
662.26	1662.95
662.45	1683.43
662.64	1834.98
662.83	1769.44
663.01	1658.85
663.20	1646.57
663.39	1886.18
663.58	1697.77
663.76	1732.58
663.95	1775.59
664.14	1673.19
664.32	1646.57
664.51	1693.67
664.70	1595.37
664.89	1695.72
665.07	1701.86
665.26	1710.05
665.45	1658.85
665.64	1740.77
665.82	1722.34
666.01	1771.49
666.20	1759.21
666.38	1824.74
666.57	1867.75
666.76	2113.50
666.95	4552.63
667.13	10391.39
667.32	15503.12
667.51	17913.58
667.69	19220.19
667.88	17575.67
668.07	12404.55
668.25	9652.08
668.44	8204.16
668.63	7321.49
668.81	6850.46
669.00	6195.11
669.19	5908.39
669.38	5040.05
669.56	4573.11
669.75	3958.72
669.94	3463.12
670.12	2893.78
670.31	2492.38
670.50	2248.67
670.68	1982.43
670.87	1890.28
671.06	1802.21
671.24	1796.07
671.43	1759.21
671.62	1718.25
671.80	1740.77
671.99	1751.01
672.18	1683.43
672.36	1763.30
672.55	1712.10
672.74	1697.77
672.92	1632.23
673.11	1796.07
673.29	1656.81
673.48	1789.92
673.67	1732.58
673.85	1847.27
674.04	1615.85
674.23	1789.92
674.41	1791.97
674.60	1619.94
674.79	1650.66
674.97	1701.86
675.16	1681.38
675.34	1759.21
675.53	1632.23
675.72	1705.96
675.90	1759.21
676.09	1658.85
676.28	1677.29
676.46	1621.99
676.65	1767.40
676.83	1701.86
677.02	1656.81
677.21	1732.58
677.39	1693.67
677.58	1748.97
677.77	1654.76
677.95	1701.86
678.14	1640.42
678.32	1728.49
678.51	1732.58
678.70	1771.49
678.88	1734.63
679.07	1705.96
679.25	1720.29
679.44	1617.90
679.63	1628.14
679.81	1732.58
680.00	1824.74
680.18	1763.30
680.37	1693.67
680.55	1697.77
680.74	1626.09
680.93	1611.75
681.11	1757.16
681.30	1730.53
681.48	1783.78
681.67	1656.81
681.85	1662.95
682.04	1646.57
682.23	1798.12
682.41	1736.68
682.60	1677.29
682.78	1662.95
682.97	1599.46
683.15	1722.34
683.34	1699.81
683.53	1789.92
683.71	1644.52
683.90	1759.21
684.08	1888.23
684.27	1640.42
684.45	1681.38
684.64	1730.53
684.82	1697.77
685.01	1726.44
685.19	1681.38
685.38	1767.40
685.57	1679.33
685.75	1699.81
685.94	1691.62
686.12	1589.22
686.31	1636.33
686.49	1828.84
686.68	1652.71
686.86	1671.14
687.05	1679.33
687.23	1798.12
687.42	1679.33
687.60	1681.38
687.79	1724.39
687.97	1763.30
688.16	1730.53
688.34	1679.33
688.53	1638.38
688.71	1767.40
688.90	1765.35
689.08	1634.28
689.27	1656.81
689.45	1697.77
689.64	1794.02
689.82	1740.77
690.01	1632.23
690.19	1671.14
690.38	1720.29
690.56	1834.98
690.75	1607.66
690.93	1697.77
691.12	1636.33
691.30	1708.01
691.49	1644.52
691.67	1757.16
691.86	1814.50
692.04	1636.33
692.23	1646.57
692.41	1722.34
692.60	1814.50
692.78	1755.11
692.97	1751.01
693.15	1763.30
693.34	1755.11
693.52	1779.68
693.71	1720.29
693.89	1607.66
694.08	1660.90
694.26	1771.49
694.44	1730.53
694.63	1763.30
694.81	1644.52
695.00	1640.42
695.18	1726.44
695.37	1802.21
695.55	1615.85
695.74	1652.71
695.92	1615.85
696.10	1808.36
696.29	1638.38
696.47	1652.71
696.66	1636.33
696.84	1679.33
697.03	1697.77
697.21	1800.16
697.40	2353.12
697.58	1771.49
697.76	1581.03
697.95	1658.85
698.13	1585.13
698.32	1660.90
698.50	1640.42
698.68	1689.57
698.87	1699.81
699.05	1767.40
699.24	1775.59
699.42	1642.47
699.61	1665.00
699.79	1779.68
699.97	1771.49
700.16	1642.47
700.34	1701.86
700.53	1687.53
700.71	1822.69
700.89	1697.77
701.08	1671.14
701.26	1697.77
701.45	2095.07
701.63	1724.39
701.81	1701.86
702.00	1746.92
702.18	1714.15
702.37	1617.90
702.55	1845.22
702.73	1626.09
702.92	1646.57
703.10	1867.75
703.28	1732.58
703.47	1624.04
703.65	1714.15
703.84	1837.03
704.02	1636.33
704.20	1748.97
704.39	1683.43
704.57	1646.57
704.75	1726.44
704.94	1740.77
705.12	1689.57
705.30	1814.50
705.49	2152.42
705.67	4458.43
705.86	9480.05
706.04	12576.58
706.22	14376.74
706.41	15597.33
706.59	13897.52
706.77	9598.83
706.96	7481.23
707.14	6616.99
707.32	5947.30
707.51	5664.68
707.69	4913.08
707.87	4233.15
708.06	3610.57
708.24	2885.59
708.42	2435.03
708.61	2275.29
708.79	1861.60
708.97	1841.12
709.16	1820.64
709.34	1740.77
709.52	1687.53
709.71	1751.01
709.89	1769.44
710.07	1730.53
710.26	1621.99
710.44	1685.48
710.62	1832.93
710.80	1710.05
710.99	1777.64
711.17	1761.25
711.35	1658.85
711.54	1665.00
711.72	1828.84
711.90	1724.39
712.09	1642.47
712.27	1630.18
712.45	1775.59
712.63	1617.90
712.82	1734.63
713.00	1720.29
713.18	1689.57
713.37	1755.11
713.55	1740.77
713.73	1683.43
713.91	1695.72
714.10	1660.90
714.28	1712.10
714.46	1730.53
714.65	1748.97
714.83	1761.25
715.01	1722.34
715.19	1712.10
715.38	1671.14
715.56	1734.63
715.74	1636.33
715.92	1748.97
716.11	1804.26
716.29	1564.65
716.47	1681.38
716.65	1712.10
716.84	1640.42
717.02	1787.88
717.20	1619.94
717.38	1683.43
717.57	1730.53
717.75	1724.39
717.93	1714.15
718.11	1726.44
718.30	1665.00
718.48	1710.05
718.66	1761.25
718.84	1738.73
719.03	1697.77
719.21	1626.09
719.39	1783.78
719.57	1736.68
719.75	1675.24
719.94	1626.09
720.12	1732.58
720.30	1708.01
720.48	1710.05
720.67	1693.67
720.85	1595.37
721.03	1648.61
721.21	1681.38
721.39	1748.97
721.58	1640.42
721.76	1648.61
721.94	1781.73
722.12	1755.11
722.30	1755.11
722.49	1642.47
722.67	1787.88
722.85	1732.58
723.03	1671.14
723.21	1644.52
723.40	1814.50
723.58	1746.92
723.76	1738.73
723.94	1767.40
724.12	1693.67
724.30	1781.73
724.49	1677.29
724.67	1642.47
724.85	1804.26
725.03	1570.79
725.21	1708.01
725.40	1775.59
725.58	1681.38
725.76	1781.73
725.94	1746.92
726.12	1697.77
726.30	1701.86
726.49	1656.81
726.67	1734.63
726.85	1744.87
727.03	1753.06
727.21	2148.32
727.39	2822.10
727.57	3891.14
727.76	4188.10
727.94	4566.97
728.12	4347.84
728.30	3635.14
728.48	2940.88
728.66	2809.81
728.84	2539.48
729.03	2275.29
729.21	2201.57
729.39	2035.68
729.57	1920.99
729.75	1812.45
729.93	1828.84
730.11	1703.91
730.30	1697.77
730.48	1681.38
730.66	1753.06
730.84	1755.11
731.02	1740.77
731.20	1656.81
731.38	1699.81
731.56	1621.99
731.74	1656.81
731.93	1742.82
732.11	1757.16
732.29	1693.67
732.47	1697.77
732.65	1712.10
732.83	1783.78
733.01	1701.86
733.19	1691.62
733.37	1751.01
733.56	1738.73
733.74	1648.61
733.92	1830.88
734.10	1677.29
734.28	1763.30
734.46	1632.23
734.64	1624.04
734.82	1687.53
735.00	1681.38
735.18	1710.05
735.36	1748.97
735.54	1732.58
735.73	1781.73
735.91	1763.30
736.09	1738.73
736.27	1683.43
736.45	1708.01
736.63	1619.94
736.81	1673.19
736.99	1730.53
737.17	1787.88
737.35	1675.24
737.53	1691.62
737.71	1667.05
737.89	1791.97
738.07	1681.38
738.25	1636.33
738.43	1660.90
738.61	1660.90
738.80	1703.91
738.98	1656.81
739.16	1607.66
739.34	1656.81
739.52	1755.11
739.70	1630.18
739.88	1730.53
740.06	1736.68
740.24	1640.42
740.42	1808.36
740.60	1685.48
740.78	1712.10
740.96	1683.43
741.14	1677.29
741.32	1687.53
741.50	1619.94
741.68	1918.95
741.86	1787.88
742.04	1697.77
742.22	1675.24
742.40	1730.53
742.58	1755.11
742.76	1648.61
742.94	1736.68
743.12	1546.22
743.30	1681.38
743.48	1753.06
743.66	1685.48
743.84	1667.05
744.02	1665.00
744.20	1691.62
744.38	1615.85
744.56	1595.37
744.74	1775.59
744.92	1705.96
745.10	1767.40
745.28	1714.15
745.46	1865.70
745.64	1656.81
745.82	1785.83
746.00	1744.87
746.18	1689.57
746.36	1648.61
746.54	1656.81
746.72	1671.14
746.90	1697.77
747.08	1708.01
747.26	1738.73
747.44	1732.58
747.62	1763.30
747.80	1771.49
747.98	1681.38
748.15	1714.15
748.33	1773.54
748.51	1687.53
748.69	1738.73
748.87	1693.67
749.05	1662.95
749.23	1656.81
749.41	1675.24
749.59	1642.47
749.77	1724.39
749.95	1660.90
750.13	1621.99
750.31	1703.91
750.49	1714.15
750.67	1730.53
750.85	1710.05
751.03	1712.10
751.20	1826.79
751.38	1662.95
751.56	1652.71
751.74	1701.86
751.92	1646.57
752.10	1626.09
752.28	1769.44
752.46	1701.86
752.64	1665.00
752.82	1724.39
753.00	1714.15
753.18	1673.19
753.35	1662.95
753.53	1697.77
753.71	1689.57
753.89	1714.15
754.07	1732.58
754.25	1732.58
754.43	1665.00
754.61	1658.85
754.79	1697.77
754.97	1665.00
755.14	1755.11
755.32	1638.38
755.50	1697.77
755.68	1689.57
755.86	1724.39
756.04	1576.94
756.22	1599.46
756.40	1683.43
756.57	1837.03
756.75	1689.57
756.93	1769.44
757.11	1765.35
757.29	1599.46
757.47	1722.34
757.65	1671.14
757.82	1562.60
758.00	1630.18
758.18	1656.81
758.36	1705.96
758.54	1806.31
758.72	1562.60
758.90	1716.20
759.07	1767.40
759.25	1644.52
759.43	1677.29
759.61	1615.85
759.79	2279.39
759.97	1761.25
760.15	1652.71
760.32	1751.01
760.50	1705.96
760.68	1712.10
760.86	1578.98
761.04	1730.53
761.22	1701.86
761.39	1777.64
761.57	1726.44
761.75	1732.58
761.93	1728.49
762.11	1699.81
762.28	1736.68
762.46	1642.47
762.64	1697.77
762.82	1603.56
763.00	1656.81
763.18	1781.73
763.35	1642.47
763.53	1734.63
763.71	1726.44
763.89	1722.34
764.07	1642.47
764.24	1718.25
764.42	1773.54
764.60	1677.29
764.78	1681.38
764.96	1730.53
765.13	1693.67
765.31	1771.49
765.49	1705.96
765.67	1714.15
765.84	1677.29
766.02	1673.19
766.20	1607.66
766.38	1753.06
766.56	1757.16
766.73	1789.92
766.91	1712.10
767.09	1689.57
767.27	1761.25
767.44	1656.81
767.62	1720.29
767.80	1697.77
767.98	1724.39
768.15	1640.42
768.33	1701.86
768.51	1693.67
768.69	1736.68
768.87	1730.53
769.04	1691.62
769.22	1732.58
769.40	1802.21
769.58	1894.37
769.75	1781.73
769.93	1767.40
770.11	1755.11
770.28	1673.19
770.46	1732.58
770.64	1769.44
770.82	1730.53
770.99	1654.76
771.17	1779.68
771.35	1705.96
771.53	1720.29
771.70	1761.25
771.88	1689.57
772.06	1748.97
772.23	1687.53
772.41	1771.49
772.59	1703.91
772.77	1597.42
772.94	1718.25
773.12	1648.61
773.30	1701.86
773.47	1722.34
773.65	1683.43
773.83	1796.07
774.01	1644.52
774.18	1640.42
774.36	1714.15
774.54	1603.56
774.71	1689.57
774.89	1726.44
775.07	1679.33
775.24	1689.57
775.42	1656.81
775.60	1798.12
775.78	1650.66
775.95	1605.61
776.13	1648.61
776.31	1574.89
776.48	1744.87
776.66	1867.75
776.84	1650.66
777.01	1660.90
777.19	1654.76
777.37	1708.01
777.54	1720.29
777.72	1816.55
777.90	1669.09
778.07	1689.57
778.25	1857.51
778.43	1705.96
778.60	1691.62
778.78	1730.53
778.96	1763.30
779.13	1624.04
779.31	1724.39
779.49	1730.53
779.66	1712.10
779.84	1769.44
780.01	1730.53
780.19	1615.85
780.37	1726.44
780.54	1687.53
780.72	1615.85
780.90	1730.53
781.07	1671.14
781.25	1677.29
781.43	1736.68
781.60	1744.87
781.78	1732.58
781.95	1740.77
782.13	1617.90
782.31	1624.04
782.48	1675.24
782.66	1683.43
782.83	1677.29
783.01	1769.44
783.19	1783.78
783.36	1708.01
783.54	1658.85
783.72	1701.86
783.89	1714.15
784.07	1677.29
784.24	1701.86
784.42	1816.55
784.60	1705.96
784.77	1779.68
784.95	1589.22
785.12	1621.99
785.30	1714.15
785.47	1626.09
785.65	1742.82
785.83	1691.62
786.00	1601.51
786.18	1785.83
786.35	1589.22
786.53	1636.33
786.71	1677.29
786.88	1718.25
787.06	1716.20
787.23	1705.96
787.41	1703.91
787.58	1724.39
787.76	1662.95
787.94	1660.90
788.11	1675.24
788.29	1656.81
788.46	1624.04
788.64	1613.80
788.81	1675.24
788.99	1708.01
789.16	1617.90
789.34	1673.19
789.52	1636.33
789.69	1648.61
789.87	1599.46
790.04	1710.05
790.22	1744.87
790.39	1791.97
790.57	1665.00
790.74	1677.29
790.92	1761.25
791.09	1669.09
791.27	1634.28
791.44	1736.68
791.62	1621.99
791.79	1693.67
791.97	1607.66
792.15	1857.51
792.32	1681.38
792.50	1658.85
792.67	1824.74
792.85	1783.78
793.02	1693.67
793.20	1658.85
793.37	1632.23
793.55	1699.81
793.72	1583.08
793.90	1740.77
794.07	1603.56
794.25	1603.56
794.42	1658.85
794.60	1667.05
794.77	1634.28
794.95	1744.87
795.12	1787.88
795.30	1765.35
795.47	1636.33
795.65	1781.73
795.82	1687.53
796.00	1689.57
796.17	1687.53
796.34	1677.29
796.52	1673.19
796.69	1742.82
796.87	1712.10
797.04	1738.73
797.22	1757.16
797.39	1722.34
797.57	1744.87
797.74	1699.81
797.92	1652.71
798.09	1599.46
798.27	1738.73
798.44	1732.58
798.62	1599.46
798.79	1773.54
798.96	1714.15
799.14	1730.53
799.31	1832.93
799.49	1697.77
799.66	1613.80
799.84	1689.57
800.01	1605.61
800.19	1714.15
800.36	1671.14
800.53	1757.16
800.71	1628.14
800.88	1832.93
801.06	1677.29
801.23	1644.52
801.41	1689.57
801.58	1665.00
801.75	1675.24
801.93	1685.48
802.10	1656.81
802.28	1697.77
802.45	1685.48
802.63	1658.85
802.80	1689.57
802.97	1685.48
803.15	1671.14
803.32	1632.23
803.50	1642.47
803.67	1636.33
803.84	1671.14
804.02	1785.83
804.19	1650.66
804.37	1503.21
804.54	1597.42
804.71	1689.57
804.89	1697.77
805.06	1726.44
805.24	1685.48
805.41	1630.18
805.58	1648.61
805.76	1820.64
805.93	1736.68
806.10	1718.25
806.28	1789.92
806.45	1697.77
806.63	1710.05
806.80	1722.34
806.97	1601.51
807.15	1679.33
807.32	1689.57
807.49	1697.77
807.67	1562.60
807.84	1730.53
808.01	1640.42
808.19	1794.02
808.36	1765.35
808.54	1740.77
808.71	1630.18
808.88	1720.29
809.06	1724.39
809.23	1775.59
809.40	1648.61
809.58	1800.16
809.75	1722.34
809.92	1609.70
810.10	1816.55
810.27	1681.38
810.44	1710.05
810.62	1685.48
810.79	1748.97
810.96	1689.57
811.14	1599.46
811.31	1693.67
811.48	1728.49
811.66	1636.33
811.83	1757.16
812.00	1736.68
812.18	1695.72
812.35	1871.84
812.52	1636.33
812.69	1648.61
812.87	1701.86
813.04	1609.70
813.21	1732.58
813.39	1669.09
813.56	1695.72
813.73	1843.17
813.91	1613.80
814.08	1675.24
814.25	1675.24
814.42	1591.27
814.60	1720.29
814.77	1736.68
814.94	1640.42
815.12	1718.25
815.29	1789.92
815.46	1697.77
815.63	1722.34
815.81	1665.00
815.98	1683.43
816.15	1683.43
816.33	1716.20
816.50	1615.85
816.67	1671.14
816.84	1607.66
817.02	1650.66
817.19	1605.61
817.36	1714.15
817.53	1734.63
817.71	1703.91
817.88	1748.97
818.05	1699.81
818.22	1566.70
818.40	1748.97
818.57	1728.49
818.74	1705.96
818.91	1665.00
819.09	1685.48
819.26	1728.49
819.43	1621.99
819.60	1656.81
819.78	1746.92
819.95	1787.88
820.12	1710.05
820.29	1804.26
820.47	1748.97
820.64	1597.42
820.81	1603.56
820.98	1665.00
821.15	1642.47
821.33	1748.97
821.50	1628.14
821.67	1648.61
821.84	1703.91
822.02	1708.01
822.19	1755.11
822.36	1650.66
822.53	1624.04
822.70	1701.86
822.88	1718.25
823.05	1744.87
823.22	1646.57
823.39	1714.15
823.56	1679.33
823.74	1751.01
823.91	1681.38
824.08	1660.90
824.25	1621.99
824.42	1839.08
824.60	1624.04
824.77	1660.90
824.94	1634.28
825.11	1632.23
825.28	1691.62
825.45	1738.73
825.63	1640.42
825.80	1646.57
825.97	1767.40
826.14	1722.34
826.31	1564.65
826.48	1660.90
826.66	1660.90
826.83	1669.09
827.00	1542.12
827.17	1667.05
827.34	1689.57
827.51	1619.94
827.69	1732.58
827.86	1593.32
828.03	1742.82
828.20	1771.49
828.37	1607.66
828.54	1787.88
828.71	1615.85
828.89	1816.55
829.06	1759.21
829.23	1730.53
829.40	1667.05
829.57	1583.08
829.74	1785.83
829.91	1695.72
830.09	1650.66
830.26	1685.48
830.43	1785.83
830.60	1699.81
830.77	1791.97
830.94	1718.25
831.11	1644.52
831.28	1693.67
831.46	1824.74
831.63	1695.72
831.80	1783.78
831.97	1644.52
832.14	1685.48
832.31	1775.59
832.48	1669.09
832.65	1746.92
832.82	1611.75
832.99	1685.48
833.17	1632.23
833.34	1726.44
833.51	1734.63
833.68	1599.46
833.85	1761.25
834.02	1689.57
834.19	1591.27
834.36	1648.61
834.53	1658.85
834.70	1742.82
834.87	1740.77
835.04	1619.94
835.22	1570.79
835.39	1730.53
835.56	1667.05
835.73	1691.62
835.90	1738.73
836.07	1689.57
836.24	1734.63
836.41	1652.71
836.58	1654.76
836.75	1736.68
836.92	1765.35
837.09	1697.77
837.26	1728.49
837.43	1775.59
837.60	1683.43
837.77	1656.81
837.94	1644.52
838.12	1736.68
838.29	1724.39
838.46	1574.89
838.63	1638.38
838.80	1787.88
838.97	1642.47
839.14	1681.38
839.31	1685.48
839.48	1736.68
839.65	1751.01
839.82	1722.34
839.99	1728.49
840.16	1693.67
840.33	1609.70
840.50	1705.96
840.67	1632.23
840.84	1595.37
841.01	1693.67
841.18	1654.76
841.35	1628.14
841.52	1732.58
841.69	1818.60
841.86	1673.19
842.03	1595.37
842.20	1689.57
842.37	1693.67
842.54	1697.77
842.71	1648.61
842.88	1591.27
843.05	1718.25
843.22	1650.66
843.39	1691.62
843.56	1681.38
843.73	1746.92
843.90	1705.96
844.07	1710.05
844.24	1722.34
844.41	1718.25
844.58	1708.01
844.75	1726.44
844.92	1738.73
845.09	1697.77
845.26	1644.52
845.43	1771.49
845.60	1656.81
845.77	1791.97
845.94	1718.25
846.10	1710.05
846.27	1708.01
846.44	1611.75
846.61	1640.42
846.78	1685.48
846.95	1740.77
847.12	1701.86
847.29	1734.63
847.46	1722.34
847.63	1728.49
847.80	1675.24
847.97	1667.05
848.14	1830.88
848.31	1665.00
848.48	1566.70
848.65	1703.91
848.82	1644.52
848.98	1847.27
849.15	1648.61
849.32	1757.16
849.49	1712.10
849.66	1675.24
849.83	1710.05
850.00	1636.33
850.17	1746.92
850.34	1708.01
850.51	1593.32
850.68	1708.01
850.85	1865.70
851.01	1746.92
851.18	1765.35
851.35	1658.85
851.52	1714.15
851.69	1732.58
851.86	1624.04
852.03	1634.28
852.20	1787.88
852.37	1695.72
852.53	1583.08
852.70	1724.39
852.87	1712.10
853.04	1701.86
853.21	1683.43
853.38	1730.53
853.55	1773.54
853.72	1773.54
853.89	1701.86
854.05	1648.61
854.22	1689.57
854.39	1587.18
854.56	1738.73
854.73	1798.12
854.90	1626.09
855.07	1740.77
855.23	1669.09
855.40	1763.30
855.57	1697.77
855.74	1593.32
855.91	1863.65
856.08	1677.29
856.25	1601.51
856.41	1671.14
856.58	1689.57
856.75	1652.71
856.92	1632.23
857.09	1746.92
857.26	1619.94
857.42	1744.87
857.59	1759.21
857.76	1708.01
857.93	1699.81
858.10	1765.35
858.27	1621.99
858.43	1681.38
858.60	1658.85
858.77	1656.81
858.94	1755.11
859.11	1847.27
859.27	1634.28
859.44	1650.66
859.61	1783.78
859.78	1724.39
859.95	1695.72
860.12	1689.57
860.28	1816.55
860.45	1755.11
860.62	1662.95
860.79	1665.00
860.95	1638.38
861.12	1638.38
861.29	1714.15
861.46	1640.42
861.63	1638.38
861.79	1687.53
861.96	1703.91
862.13	1726.44
862.30	1697.77
862.47	1646.57
862.63	1738.73
862.80	1779.68
862.97	1718.25
863.14	1705.96
863.30	1746.92
863.47	1667.05
863.64	1763.30
863.81	1730.53
863.97	1718.25
864.14	1783.78
864.31	1669.09
864.48	1734.63
864.65	1613.80
864.81	1665.00
864.98	1732.58
865.15	1701.86
865.32	1685.48
865.48	1765.35
865.65	1699.81
865.82	1701.86
865.98	1732.58
866.15	1714.15
866.32	1689.57
866.49	1705.96
866.65	1742.82
866.82	1607.66
866.99	1814.50
867.16	1648.61
867.32	1650.66
867.49	1689.57
867.66	1595.37
867.83	1619.94
867.99	1675.24
868.16	1710.05
868.33	1632.23
868.49	1648.61
868.66	1591.27
868.83	1669.09
868.99	1726.44
869.16	1755.11
869.33	1781.73
869.50	1726.44
869.66	1714.15
869.83	1755.11
870.00	1642.47
870.16	1742.82
870.33	1665.00
870.50	1732.58
870.66	1669.09
870.83	1779.68
871.00	1611.75
871.17	1708.01
871.33	1787.88
871.50	1710.05
871.67	1728.49
871.83	1599.46
872.00	1828.84
872.17	1685.48
872.33	1828.84
872.50	1714.15
872.67	1683.43
872.83	1677.29
873.00	1771.49
873.17	1714.15
873.33	1759.21
873.50	1726.44
873.67	1624.04
873.83	1652.71
874.00	1705.96
874.16	1736.68
874.33	1712.10
874.50	1599.46
874.66	1703.91
874.83	1665.00
875.00	1748.97
875.16	1693.67
875.33	1759.21
875.50	1589.22
875.66	1628.14
875.83	1701.86
875.99	1687.53
876.16	1632.23
876.33	1662.95
876.49	1724.39
876.66	1726.44
876.83	1697.77
876.99	1597.42
877.16	1738.73
877.32	1685.48
877.49	1714.15
877.66	1671.14
877.82	1710.05
877.99	1714.15
878.15	1773.54
878.32	1667.05
878.49	1658.85
878.65	1650.66
878.82	1779.68
878.98	1669.09
879.15	1763.30
879.32	1767.40
879.48	1708.01
879.65	1665.00
879.81	1705.96
879.98	1708.01
880.15	1617.90
880.31	1773.54
880.48	1613.80
880.64	1730.53
880.81	1736.68
880.97	1810.40
881.14	1685.48
881.31	1658.85
881.47	1877.99
881.64	1630.18
881.80	1603.56
881.97	1722.34
882.13	1779.68
882.30	1640.42
882.47	1640.42
882.63	1601.51
882.80	1677.29
882.96	1675.24
883.13	1800.16
883.29	1675.24
883.46	1675.24
883.62	1779.68
883.79	1662.95
883.95	1791.97
884.12	1648.61
884.29	1738.73
884.45	1689.57
884.62	1789.92
884.78	1640.42
884.95	1783.78
885.11	1648.61
885.28	1726.44
885.44	1703.91
885.61	1759.21
885.77	1734.63
885.94	1765.35
886.10	1701.86
886.27	1607.66
886.43	1796.07
886.60	1759.21
886.76	1640.42
886.93	1691.62
887.09	1699.81
887.26	1619.94
887.42	1722.34
887.59	1806.31
887.75	1824.74
887.92	1781.73
888.08	1763.30
888.25	1818.60
888.41	1714.15
888.58	1648.61
888.74	1626.09
888.91	1691.62
>>>>>End Processed Spectral Data<<<<<
