SpectraSuite Data File
++++++++++++++++++++++++++++++++++++
Date: Mon Jun 06 12:16:17 CEST 2016
User: root
Dark Spectrum Present: No
Reference Spectrum Present: No
Number of Sampled Component Spectra: 1
Spectrometers: USB4C02835
Integration Time (usec): 100000 (USB4C02835)
Spectra Averaged: 1 (USB4C02835)
Boxcar Smoothing: 0 (USB4C02835)
Correct for Electrical Dark: No (USB4C02835)
Strobe/Lamp Enabled: No (USB4C02835)
Correct for Detector Non-linearity: No (USB4C02835)
Correct for Stray Light: No (USB4C02835)
Number of Pixels in Processed Spectrum: 3648
>>>>>Begin Processed Spectral Data<<<<<
177.47	1478.63
177.69	1478.63
177.91	1478.63
178.13	1482.73
178.36	1499.11
178.58	1636.33
178.80	1712.10
179.02	1601.51
179.24	1662.95
179.46	1648.61
179.68	1761.25
179.90	1683.43
180.13	1775.59
180.35	1673.19
180.57	1656.81
180.79	1744.87
181.01	1675.24
181.23	1748.97
181.45	1710.05
181.67	1726.44
181.90	1701.86
182.12	1648.61
182.34	1615.85
182.56	1746.92
182.78	1710.05
183.00	1761.25
183.22	1701.86
183.44	1529.83
183.66	1845.22
183.89	1716.20
184.11	1699.81
184.33	1761.25
184.55	1775.59
184.77	1751.01
184.99	1667.05
185.21	1640.42
185.43	1832.93
185.65	1621.99
185.87	1722.34
186.10	1783.78
186.32	1841.12
186.54	1722.34
186.76	1746.92
186.98	1671.14
187.20	1685.48
187.42	1656.81
187.64	1650.66
187.86	1763.30
188.08	1671.14
188.30	1728.49
188.52	1619.94
188.75	1710.05
188.97	1720.29
189.19	1621.99
189.41	1705.96
189.63	1691.62
189.85	1634.28
190.07	1677.29
190.29	1587.18
190.51	1683.43
190.73	1650.66
190.95	1771.49
191.17	1669.09
191.39	1591.27
191.61	1669.09
191.84	1669.09
192.06	1724.39
192.28	1572.84
192.50	1853.41
192.72	1708.01
192.94	1665.00
193.16	1746.92
193.38	1699.81
193.60	1699.81
193.82	1677.29
194.04	1740.77
194.26	1652.71
194.48	1687.53
194.70	1607.66
194.92	1660.90
195.14	1798.12
195.36	1683.43
195.58	1714.15
195.80	1619.94
196.02	1705.96
196.24	1673.19
196.46	1757.16
196.69	1681.38
196.91	1839.08
197.13	1630.18
197.35	1665.00
197.57	1683.43
197.79	1669.09
198.01	1710.05
198.23	1640.42
198.45	1705.96
198.67	1646.57
198.89	1755.11
199.11	1763.30
199.33	1587.18
199.55	1497.07
199.77	1751.01
199.99	1761.25
200.21	1667.05
200.43	1812.45
200.65	1630.18
200.87	1578.98
201.09	1687.53
201.31	1677.29
201.53	1724.39
201.75	1738.73
201.97	1714.15
202.19	1697.77
202.41	1683.43
202.63	1806.31
202.85	1695.72
203.07	1662.95
203.29	1665.00
203.51	1656.81
203.73	1650.66
203.95	1832.93
204.17	1794.02
204.39	1660.90
204.61	1710.05
204.83	1597.42
205.05	1724.39
205.27	1767.40
205.49	1806.31
205.71	1714.15
205.93	1593.32
206.15	1609.70
206.37	1685.48
206.59	1718.25
206.81	1615.85
207.03	1638.38
207.25	1521.64
207.47	1720.29
207.69	1675.24
207.91	1800.16
208.13	1746.92
208.34	1591.27
208.56	1701.86
208.78	1708.01
209.00	1609.70
209.22	1773.54
209.44	1679.33
209.66	1683.43
209.88	1634.28
210.10	1667.05
210.32	1613.80
210.54	1757.16
210.76	1705.96
210.98	1824.74
211.20	1636.33
211.42	1732.58
211.64	1757.16
211.86	1699.81
212.08	1675.24
212.30	1738.73
212.52	1730.53
212.74	1710.05
212.96	1683.43
213.17	1660.90
213.39	1683.43
213.61	1785.83
213.83	1757.16
214.05	1648.61
214.27	1703.91
214.49	1611.75
214.71	1615.85
214.93	1820.64
215.15	1621.99
215.37	1673.19
215.59	1644.52
215.81	1738.73
216.03	1781.73
216.24	1746.92
216.46	1714.15
216.68	1687.53
216.90	1742.82
217.12	1751.01
217.34	1755.11
217.56	1718.25
217.78	1748.97
218.00	1712.10
218.22	1712.10
218.44	1697.77
218.66	1712.10
218.87	1712.10
219.09	1632.23
219.31	1763.30
219.53	1746.92
219.75	1652.71
219.97	1656.81
220.19	1716.20
220.41	1742.82
220.63	1791.97
220.85	1738.73
221.06	1656.81
221.28	1783.78
221.50	1712.10
221.72	1796.07
221.94	1636.33
222.16	1724.39
222.38	1714.15
222.60	1675.24
222.82	1644.52
223.03	1701.86
223.25	1617.90
223.47	1736.68
223.69	1816.55
223.91	1658.85
224.13	1683.43
224.35	1650.66
224.57	1755.11
224.78	1697.77
225.00	1673.19
225.22	1675.24
225.44	1736.68
225.66	1718.25
225.88	1658.85
226.10	1748.97
226.32	1667.05
226.53	1714.15
226.75	1665.00
226.97	1718.25
227.19	1703.91
227.41	1640.42
227.63	1648.61
227.85	1609.70
228.06	1677.29
228.28	1722.34
228.50	1714.15
228.72	1617.90
228.94	1652.71
229.16	1540.07
229.37	1617.90
229.59	1624.04
229.81	1736.68
230.03	1642.47
230.25	1626.09
230.47	1621.99
230.69	1632.23
230.90	1681.38
231.12	1619.94
231.34	1673.19
231.56	1720.29
231.78	1628.14
232.00	1681.38
232.21	1728.49
232.43	1673.19
232.65	1554.41
232.87	1757.16
233.09	1638.38
233.30	1681.38
233.52	1761.25
233.74	1701.86
233.96	1701.86
234.18	1716.20
234.40	1687.53
234.61	1843.17
234.83	1587.18
235.05	1634.28
235.27	1861.60
235.49	1761.25
235.70	1703.91
235.92	1814.50
236.14	1808.36
236.36	1871.84
236.58	1581.03
236.79	1824.74
237.01	1767.40
237.23	1679.33
237.45	1691.62
237.67	1599.46
237.88	1701.86
238.10	1877.99
238.32	1671.14
238.54	1658.85
238.76	1744.87
238.97	1652.71
239.19	1642.47
239.41	1763.30
239.63	1751.01
239.85	1695.72
240.06	1665.00
240.28	1656.81
240.50	1701.86
240.72	1683.43
240.93	1642.47
241.15	1685.48
241.37	1726.44
241.59	1652.71
241.81	1662.95
242.02	1691.62
242.24	1775.59
242.46	1703.91
242.68	1667.05
242.89	1771.49
243.11	1722.34
243.33	1734.63
243.55	1751.01
243.76	1722.34
243.98	1556.46
244.20	1681.38
244.42	1652.71
244.64	1703.91
244.85	1673.19
245.07	1669.09
245.29	1699.81
245.51	1640.42
245.72	1673.19
245.94	1718.25
246.16	1763.30
246.38	1753.06
246.59	1630.18
246.81	1658.85
247.03	1648.61
247.24	1607.66
247.46	1644.52
247.68	1679.33
247.90	1667.05
248.11	1671.14
248.33	1738.73
248.55	1677.29
248.77	1726.44
248.98	1714.15
249.20	1710.05
249.42	1673.19
249.64	1636.33
249.85	1619.94
250.07	1654.76
250.29	1697.77
250.50	1697.77
250.72	1638.38
250.94	1671.14
251.16	1812.45
251.37	1761.25
251.59	1718.25
251.81	1714.15
252.02	1726.44
252.24	1712.10
252.46	1777.64
252.68	1667.05
252.89	1746.92
253.11	1597.42
253.33	1789.92
253.54	1777.64
253.76	1632.23
253.98	1689.57
254.20	1601.51
254.41	1581.03
254.63	1685.48
254.85	1665.00
255.06	1689.57
255.28	1744.87
255.50	1746.92
255.71	1570.79
255.93	1591.27
256.15	1619.94
256.36	1695.72
256.58	1722.34
256.80	1708.01
257.02	1687.53
257.23	1656.81
257.45	1730.53
257.67	1665.00
257.88	1656.81
258.10	1718.25
258.32	1687.53
258.53	1658.85
258.75	1785.83
258.97	1642.47
259.18	1660.90
259.40	1695.72
259.62	1845.22
259.83	1744.87
260.05	1777.64
260.27	1961.95
260.48	1759.21
260.70	1652.71
260.92	1648.61
261.13	1787.88
261.35	1685.48
261.57	1705.96
261.78	1638.38
262.00	1656.81
262.22	1720.29
262.43	1648.61
262.65	1650.66
262.86	1654.76
263.08	1828.84
263.30	1708.01
263.51	1570.79
263.73	1603.56
263.95	1834.98
264.16	1615.85
264.38	1605.61
264.60	1757.16
264.81	1658.85
265.03	1806.31
265.25	1724.39
265.46	1708.01
265.68	1806.31
265.89	1691.62
266.11	1615.85
266.33	1720.29
266.54	1820.64
266.76	1755.11
266.98	1734.63
267.19	1712.10
267.41	1744.87
267.62	1720.29
267.84	1615.85
268.06	1675.24
268.27	1742.82
268.49	1710.05
268.70	1667.05
268.92	1607.66
269.14	1611.75
269.35	1589.22
269.57	1699.81
269.79	1703.91
270.00	1654.76
270.22	1841.12
270.43	1681.38
270.65	1591.27
270.87	1646.57
271.08	1710.05
271.30	1726.44
271.51	1665.00
271.73	1726.44
271.95	1761.25
272.16	1693.67
272.38	1660.90
272.59	1619.94
272.81	1738.73
273.02	1679.33
273.24	1685.48
273.46	1775.59
273.67	1669.09
273.89	1632.23
274.10	1665.00
274.32	1789.92
274.54	1665.00
274.75	1728.49
274.97	1648.61
275.18	1824.74
275.40	1732.58
275.61	1654.76
275.83	1683.43
276.05	1648.61
276.26	1689.57
276.48	1685.48
276.69	1681.38
276.91	1646.57
277.12	1748.97
277.34	1791.97
277.55	1726.44
277.77	1685.48
277.99	1624.04
278.20	1662.95
278.42	1667.05
278.63	1585.13
278.85	1630.18
279.06	1589.22
279.28	1812.45
279.49	1785.83
279.71	1744.87
279.93	1734.63
280.14	1730.53
280.36	1630.18
280.57	1755.11
280.79	1701.86
281.00	1607.66
281.22	1667.05
281.43	1751.01
281.65	1593.32
281.86	1642.47
282.08	1716.20
282.29	1779.68
282.51	1593.32
282.73	1710.05
282.94	1628.14
283.16	1724.39
283.37	1669.09
283.59	1689.57
283.80	1677.29
284.02	1652.71
284.23	1751.01
284.45	1601.51
284.66	1578.98
284.88	1615.85
285.09	1646.57
285.31	1726.44
285.52	1726.44
285.74	1517.54
285.95	1718.25
286.17	1648.61
286.38	1726.44
286.60	1652.71
286.81	1634.28
287.03	1675.24
287.24	1658.85
287.46	1689.57
287.67	1753.06
287.89	1820.64
288.10	1660.90
288.32	1689.57
288.53	1695.72
288.75	1697.77
288.96	1689.57
289.18	1662.95
289.39	1769.44
289.61	1734.63
289.82	1851.36
290.04	1798.12
290.25	1671.14
290.47	1757.16
290.68	1710.05
290.90	1755.11
291.11	1687.53
291.33	1724.39
291.54	1650.66
291.76	1628.14
291.97	1751.01
292.18	1693.67
292.40	1640.42
292.61	1656.81
292.83	1783.78
293.04	1716.20
293.26	1648.61
293.47	1689.57
293.69	1683.43
293.90	1669.09
294.12	1828.84
294.33	1662.95
294.55	1640.42
294.76	1759.21
294.97	1742.82
295.19	1789.92
295.40	1748.97
295.62	1687.53
295.83	1734.63
296.05	1701.86
296.26	1652.71
296.48	1544.17
296.69	1691.62
296.90	1708.01
297.12	1781.73
297.33	1708.01
297.55	1697.77
297.76	1677.29
297.98	1740.77
298.19	1732.58
298.41	1628.14
298.62	1576.94
298.83	1748.97
299.05	1671.14
299.26	1646.57
299.48	1648.61
299.69	1710.05
299.90	1671.14
300.12	1638.38
300.33	1751.01
300.55	1708.01
300.76	1738.73
300.98	1611.75
301.19	1689.57
301.40	1681.38
301.62	1654.76
301.83	1691.62
302.05	1748.97
302.26	1732.58
302.47	1667.05
302.69	1644.52
302.90	1691.62
303.12	1523.69
303.33	1738.73
303.54	1767.40
303.76	1689.57
303.97	1658.85
304.19	1757.16
304.40	1642.47
304.61	1710.05
304.83	1798.12
305.04	1683.43
305.26	1710.05
305.47	1703.91
305.68	1703.91
305.90	1636.33
306.11	1730.53
306.33	1744.87
306.54	1679.33
306.75	1617.90
306.97	1650.66
307.18	1591.27
307.39	1642.47
307.61	1724.39
307.82	1611.75
308.04	1667.05
308.25	1687.53
308.46	1683.43
308.68	1640.42
308.89	1681.38
309.10	1695.72
309.32	1718.25
309.53	1671.14
309.74	1640.42
309.96	1695.72
310.17	1755.11
310.39	1638.38
310.60	1757.16
310.81	1722.34
311.03	1574.89
311.24	1660.90
311.45	1665.00
311.67	1855.46
311.88	1683.43
312.09	1632.23
312.31	1621.99
312.52	1689.57
312.73	1673.19
312.95	1648.61
313.16	1638.38
313.37	1771.49
313.59	1722.34
313.80	1746.92
314.01	1701.86
314.23	1689.57
314.44	1648.61
314.65	1632.23
314.87	1699.81
315.08	1640.42
315.29	1626.09
315.51	1640.42
315.72	1624.04
315.93	1787.88
316.15	1798.12
316.36	1595.37
316.57	1757.16
316.79	1744.87
317.00	1685.48
317.21	1726.44
317.43	1578.98
317.64	1763.30
317.85	1658.85
318.07	1632.23
318.28	1779.68
318.49	1716.20
318.70	1920.99
318.92	1800.16
319.13	1769.44
319.34	1855.46
319.56	1755.11
319.77	1816.55
319.98	1779.68
320.20	1767.40
320.41	1681.38
320.62	1679.33
320.83	1624.04
321.05	1765.35
321.26	1769.44
321.47	1677.29
321.69	1701.86
321.90	1595.37
322.11	1701.86
322.32	1669.09
322.54	1724.39
322.75	1685.48
322.96	1755.11
323.18	1560.55
323.39	1576.94
323.60	1683.43
323.81	1783.78
324.03	1705.96
324.24	1699.81
324.45	1675.24
324.66	1634.28
324.88	1802.21
325.09	1746.92
325.30	1669.09
325.52	1726.44
325.73	1675.24
325.94	1593.32
326.15	1705.96
326.37	1601.51
326.58	1710.05
326.79	1726.44
327.00	1685.48
327.22	1714.15
327.43	1726.44
327.64	1624.04
327.85	1705.96
328.07	1683.43
328.28	1791.97
328.49	1695.72
328.70	1671.14
328.92	1746.92
329.13	1599.46
329.34	1691.62
329.55	1738.73
329.76	1740.77
329.98	1642.47
330.19	1701.86
330.40	1738.73
330.61	1699.81
330.83	1767.40
331.04	1665.00
331.25	1611.75
331.46	1656.81
331.68	1646.57
331.89	1697.77
332.10	1683.43
332.31	1660.90
332.52	1648.61
332.74	1767.40
332.95	1652.71
333.16	1736.68
333.37	1742.82
333.58	1626.09
333.80	1740.77
334.01	1634.28
334.22	1669.09
334.43	1705.96
334.64	1738.73
334.86	1669.09
335.07	1626.09
335.28	1746.92
335.49	1632.23
335.70	1669.09
335.92	1710.05
336.13	1814.50
336.34	1738.73
336.55	1728.49
336.76	1705.96
336.98	1609.70
337.19	1636.33
337.40	1773.54
337.61	1814.50
337.82	1691.62
338.04	1710.05
338.25	1632.23
338.46	1675.24
338.67	1669.09
338.88	1644.52
339.09	1585.13
339.31	1601.51
339.52	1617.90
339.73	1611.75
339.94	1716.20
340.15	1740.77
340.36	1628.14
340.58	1695.72
340.79	1566.70
341.00	1675.24
341.21	1581.03
341.42	1730.53
341.63	1697.77
341.85	1722.34
342.06	1667.05
342.27	1538.02
342.48	1791.97
342.69	1605.61
342.90	1673.19
343.12	1783.78
343.33	1728.49
343.54	1820.64
343.75	1773.54
343.96	1705.96
344.17	1650.66
344.38	1738.73
344.60	1624.04
344.81	1646.57
345.02	1712.10
345.23	1761.25
345.44	1806.31
345.65	1744.87
345.86	1673.19
346.07	1665.00
346.29	1628.14
346.50	1677.29
346.71	1642.47
346.92	1726.44
347.13	1777.64
347.34	1640.42
347.55	1730.53
347.76	1746.92
347.98	1597.42
348.19	1636.33
348.40	1738.73
348.61	1617.90
348.82	1845.22
349.03	1736.68
349.24	1624.04
349.45	1853.41
349.66	1599.46
349.88	1671.14
350.09	1753.06
350.30	1734.63
350.51	1794.02
350.72	1681.38
350.93	1695.72
351.14	1572.84
351.35	1722.34
351.56	1697.77
351.77	1605.61
351.99	1701.86
352.20	1794.02
352.41	1748.97
352.62	1607.66
352.83	1701.86
353.04	1712.10
353.25	1681.38
353.46	1730.53
353.67	1703.91
353.88	1665.00
354.09	1714.15
354.30	1681.38
354.52	1777.64
354.73	1730.53
354.94	1652.71
355.15	1656.81
355.36	1726.44
355.57	1673.19
355.78	1781.73
355.99	1642.47
356.20	1665.00
356.41	1705.96
356.62	1658.85
356.83	1751.01
357.04	1769.44
357.25	1701.86
357.46	1607.66
357.68	1632.23
357.89	1636.33
358.10	1638.38
358.31	1658.85
358.52	1615.85
358.73	1626.09
358.94	1595.37
359.15	1710.05
359.36	1744.87
359.57	1681.38
359.78	1636.33
359.99	1669.09
360.20	1615.85
360.41	1644.52
360.62	1718.25
360.83	1705.96
361.04	1708.01
361.25	1658.85
361.46	1740.77
361.67	1759.21
361.88	1705.96
362.09	1728.49
362.30	1734.63
362.51	1605.61
362.72	1673.19
362.93	1726.44
363.14	1662.95
363.35	1675.24
363.56	1638.38
363.78	1728.49
363.99	1812.45
364.20	1669.09
364.41	1677.29
364.62	1751.01
364.83	1691.62
365.04	1673.19
365.25	1683.43
365.46	1859.56
365.67	1624.04
365.88	1654.76
366.09	1570.79
366.30	1697.77
366.51	1691.62
366.72	1560.55
366.93	1652.71
367.14	1712.10
367.35	1773.54
367.56	1693.67
367.77	1765.35
367.98	1734.63
368.18	1765.35
368.39	1726.44
368.60	1597.42
368.81	1673.19
369.02	1738.73
369.23	1746.92
369.44	1578.98
369.65	1638.38
369.86	1673.19
370.07	1755.11
370.28	1648.61
370.49	1767.40
370.70	1742.82
370.91	1642.47
371.12	1697.77
371.33	1660.90
371.54	1693.67
371.75	1722.34
371.96	1538.02
372.17	1599.46
372.38	1632.23
372.59	1691.62
372.80	1636.33
373.01	1671.14
373.22	1714.15
373.43	1722.34
373.64	1603.56
373.85	1767.40
374.06	1779.68
374.26	1705.96
374.47	1712.10
374.68	1722.34
374.89	1720.29
375.10	1677.29
375.31	1738.73
375.52	1730.53
375.73	1693.67
375.94	1656.81
376.15	1800.16
376.36	1673.19
376.57	1673.19
376.78	1648.61
376.99	1718.25
377.20	1740.77
377.40	1701.86
377.61	1763.30
377.82	1638.38
378.03	1806.31
378.24	1683.43
378.45	1640.42
378.66	1705.96
378.87	1636.33
379.08	1542.12
379.29	1642.47
379.50	1755.11
379.71	1718.25
379.91	1806.31
380.12	1708.01
380.33	1705.96
380.54	1642.47
380.75	1718.25
380.96	1574.89
381.17	1757.16
381.38	1716.20
381.59	1695.72
381.80	1714.15
382.00	1787.88
382.21	1714.15
382.42	1808.36
382.63	1888.23
382.84	1722.34
383.05	1808.36
383.26	1726.44
383.47	1660.90
383.68	1642.47
383.88	1732.58
384.09	1626.09
384.30	1765.35
384.51	1748.97
384.72	1703.91
384.93	1656.81
385.14	1734.63
385.35	1738.73
385.55	1585.13
385.76	1798.12
385.97	1679.33
386.18	1605.61
386.39	1603.56
386.60	1689.57
386.81	1767.40
387.02	1681.38
387.22	1660.90
387.43	1804.26
387.64	1685.48
387.85	1931.23
388.06	2230.24
388.27	4433.85
388.48	6838.17
388.68	8359.81
388.89	9895.78
389.10	10241.89
389.31	8898.42
389.52	7804.81
389.73	7012.24
389.93	6313.89
390.14	5980.07
390.35	5396.40
390.56	4642.75
390.77	3846.09
390.98	3041.23
391.18	2574.30
391.39	2131.94
391.60	1849.32
391.81	1849.32
392.02	1763.30
392.23	1945.57
392.43	1701.86
392.64	1796.07
392.85	1667.05
393.06	1849.32
393.27	1675.24
393.47	1654.76
393.68	1656.81
393.89	1654.76
394.10	1740.77
394.31	1693.67
394.52	1648.61
394.72	1652.71
394.93	1761.25
395.14	1671.14
395.35	1708.01
395.56	1642.47
395.76	1636.33
395.97	1757.16
396.18	1923.04
396.39	1880.04
396.60	2041.82
396.80	1892.32
397.01	1804.26
397.22	1816.55
397.43	1806.31
397.64	1671.14
397.84	1791.97
398.05	1816.55
398.26	1740.77
398.47	1724.39
398.67	1773.54
398.88	1714.15
399.09	1617.90
399.30	1652.71
399.51	1742.82
399.71	1660.90
399.92	1644.52
400.13	1701.86
400.34	1685.48
400.54	1685.48
400.75	1800.16
400.96	1699.81
401.17	1767.40
401.37	1748.97
401.58	1587.18
401.79	1695.72
402.00	1884.13
402.21	1984.48
402.41	1953.76
402.62	1990.63
402.83	1976.29
403.04	1937.38
403.24	2050.02
403.45	1837.03
403.66	1853.41
403.87	1886.18
404.07	1912.80
404.28	1976.29
404.49	1845.22
404.70	1810.40
404.90	1722.34
405.11	1806.31
405.32	1722.34
405.52	1662.95
405.73	1654.76
405.94	1634.28
406.15	1669.09
406.35	1691.62
406.56	1716.20
406.77	1755.11
406.98	1714.15
407.18	1587.18
407.39	1669.09
407.60	1677.29
407.80	1716.20
408.01	1705.96
408.22	1722.34
408.43	1566.70
408.63	1685.48
408.84	1775.59
409.05	1714.15
409.25	1705.96
409.46	1648.61
409.67	1634.28
409.88	1628.14
410.08	1759.21
410.29	1619.94
410.50	1691.62
410.70	1738.73
410.91	1632.23
411.12	1683.43
411.32	1705.96
411.53	1595.37
411.74	1759.21
411.95	1804.26
412.15	1791.97
412.36	1751.01
412.57	1730.53
412.77	1755.11
412.98	1714.15
413.19	1701.86
413.39	1742.82
413.60	1771.49
413.81	1767.40
414.01	1665.00
414.22	1771.49
414.43	1753.06
414.63	1681.38
414.84	1769.44
415.05	1748.97
415.25	1656.81
415.46	1783.78
415.67	1665.00
415.87	1773.54
416.08	1695.72
416.29	1642.47
416.49	1751.01
416.70	1697.77
416.91	1720.29
417.11	1671.14
417.32	1718.25
417.53	1783.78
417.73	1736.68
417.94	1720.29
418.15	1689.57
418.35	1640.42
418.56	1615.85
418.77	1781.73
418.97	1703.91
419.18	1732.58
419.38	1601.51
419.59	1660.90
419.80	1849.32
420.00	1722.34
420.21	1775.59
420.42	1742.82
420.62	1708.01
420.83	1656.81
421.04	1736.68
421.24	1687.53
421.45	1816.55
421.65	1681.38
421.86	1697.77
422.07	1746.92
422.27	1724.39
422.48	1660.90
422.69	1607.66
422.89	1638.38
423.10	1724.39
423.30	1624.04
423.51	1697.77
423.72	1710.05
423.92	1718.25
424.13	1587.18
424.33	1693.67
424.54	1775.59
424.75	1705.96
424.95	1808.36
425.16	1734.63
425.36	1714.15
425.57	1781.73
425.78	1699.81
425.98	1796.07
426.19	1685.48
426.39	1587.18
426.60	1753.06
426.81	1775.59
427.01	1746.92
427.22	1675.24
427.42	1533.93
427.63	1675.24
427.83	1800.16
428.04	1818.60
428.25	1695.72
428.45	1775.59
428.66	1822.69
428.86	1738.73
429.07	1720.29
429.28	1673.19
429.48	1648.61
429.69	1644.52
429.89	1726.44
430.10	1630.18
430.30	1746.92
430.51	1771.49
430.71	1646.57
430.92	1705.96
431.13	1613.80
431.33	1708.01
431.54	1755.11
431.74	1787.88
431.95	1789.92
432.15	1753.06
432.36	1640.42
432.56	1748.97
432.77	1812.45
432.98	1763.30
433.18	1781.73
433.39	1671.14
433.59	1730.53
433.80	1779.68
434.00	1753.06
434.21	1673.19
434.41	1615.85
434.62	1822.69
434.82	1669.09
435.03	1638.38
435.23	1705.96
435.44	1648.61
435.64	1703.91
435.85	1818.60
436.06	1681.38
436.26	1791.97
436.47	1669.09
436.67	1644.52
436.88	1716.20
437.08	1724.39
437.29	1779.68
437.49	1730.53
437.70	1818.60
437.90	1771.49
438.11	1830.88
438.31	1771.49
438.52	1900.52
438.72	1794.02
438.93	1884.13
439.13	1724.39
439.34	1828.84
439.54	1691.62
439.75	1802.21
439.95	1773.54
440.16	1695.72
440.36	1687.53
440.57	1781.73
440.77	1808.36
440.98	1798.12
441.18	1730.53
441.39	1701.86
441.59	1705.96
441.80	1834.98
442.00	1662.95
442.21	1767.40
442.41	1673.19
442.62	1705.96
442.82	1638.38
443.02	1685.48
443.23	1726.44
443.43	1732.58
443.64	1808.36
443.84	1673.19
444.05	1781.73
444.25	1722.34
444.46	1671.14
444.66	1630.18
444.87	1732.58
445.07	1636.33
445.28	1726.44
445.48	1763.30
445.69	1791.97
445.89	1810.40
446.09	1708.01
446.30	1998.82
446.50	2648.02
446.71	3866.56
446.91	4368.32
447.12	4947.89
447.32	4939.70
447.53	4321.21
447.73	3782.60
447.93	3542.99
448.14	3268.56
448.34	3160.02
448.55	2979.79
448.75	2830.29
448.96	2758.61
449.16	2365.40
449.36	2248.67
449.57	2000.87
449.77	1877.99
449.98	1812.45
450.18	1726.44
450.39	1847.27
450.59	1689.57
450.79	1695.72
451.00	1765.35
451.20	1794.02
451.41	1751.01
451.61	1755.11
451.81	1728.49
452.02	1740.77
452.22	1681.38
452.43	1726.44
452.63	1697.77
452.84	1638.38
453.04	1714.15
453.24	1734.63
453.45	1677.29
453.65	1712.10
453.86	1726.44
454.06	1730.53
454.26	1685.48
454.47	1746.92
454.67	1800.16
454.87	1742.82
455.08	1734.63
455.28	1816.55
455.49	1693.67
455.69	1691.62
455.89	1847.27
456.10	1837.03
456.30	1693.67
456.51	1796.07
456.71	1767.40
456.91	1800.16
457.12	1660.90
457.32	1716.20
457.52	1624.04
457.73	1759.21
457.93	1728.49
458.14	1714.15
458.34	1583.08
458.54	1658.85
458.75	1626.09
458.95	1812.45
459.15	1705.96
459.36	1744.87
459.56	1718.25
459.76	1816.55
459.97	1716.20
460.17	1720.29
460.37	1789.92
460.58	1716.20
460.78	1798.12
460.99	1714.15
461.19	1755.11
461.39	1716.20
461.60	1757.16
461.80	1763.30
462.00	1632.23
462.21	1777.64
462.41	1665.00
462.61	1724.39
462.82	1624.04
463.02	1671.14
463.22	1802.21
463.43	1720.29
463.63	1755.11
463.83	1718.25
464.04	1779.68
464.24	1730.53
464.44	1652.71
464.64	1714.15
464.85	1787.88
465.05	1820.64
465.25	1742.82
465.46	1662.95
465.66	1781.73
465.86	1695.72
466.07	1689.57
466.27	1683.43
466.47	1699.81
466.68	1660.90
466.88	1765.35
467.08	1675.24
467.29	1820.64
467.49	1697.77
467.69	1677.29
467.89	1798.12
468.10	1665.00
468.30	1722.34
468.50	1806.31
468.71	1669.09
468.91	1652.71
469.11	1841.12
469.31	1683.43
469.52	1673.19
469.72	1738.73
469.92	1804.26
470.13	1689.57
470.33	1734.63
470.53	1820.64
470.73	1945.57
470.94	2234.33
471.14	2322.40
471.34	2551.77
471.54	2394.08
471.75	2187.23
471.95	2125.79
472.15	2129.89
472.36	2076.64
472.56	2111.46
472.76	2043.87
472.96	2033.63
473.17	1955.81
473.37	1861.60
473.57	1796.07
473.77	1785.83
473.98	1728.49
474.18	1667.05
474.38	1873.89
474.58	1695.72
474.79	1681.38
474.99	1773.54
475.19	1697.77
475.39	1648.61
475.60	1687.53
475.80	1681.38
476.00	1755.11
476.20	1689.57
476.41	1710.05
476.61	1841.12
476.81	1765.35
477.01	1587.18
477.21	1796.07
477.42	1775.59
477.62	1638.38
477.82	1744.87
478.02	1722.34
478.23	1683.43
478.43	1697.77
478.63	1626.09
478.83	1714.15
479.03	1646.57
479.24	1834.98
479.44	1802.21
479.64	1638.38
479.84	1634.28
480.04	1693.67
480.25	1845.22
480.45	1691.62
480.65	1730.53
480.85	1748.97
481.06	1656.81
481.26	1683.43
481.46	1701.86
481.66	1765.35
481.86	1697.77
482.06	1789.92
482.27	1724.39
482.47	1628.14
482.67	1744.87
482.87	1654.76
483.07	1730.53
483.28	1720.29
483.48	1652.71
483.68	1699.81
483.88	1667.05
484.08	1609.70
484.29	1755.11
484.49	1722.34
484.69	1677.29
484.89	1781.73
485.09	1671.14
485.29	1732.58
485.50	1753.06
485.70	1705.96
485.90	1755.11
486.10	1708.01
486.30	1697.77
486.50	1769.44
486.71	1746.92
486.91	1720.29
487.11	1773.54
487.31	1658.85
487.51	1712.10
487.71	1697.77
487.91	1624.04
488.12	1589.22
488.32	1646.57
488.52	1703.91
488.72	1640.42
488.92	1638.38
489.12	1732.58
489.32	1732.58
489.53	1730.53
489.73	1660.90
489.93	1779.68
490.13	1695.72
490.33	1626.09
490.53	1718.25
490.73	1802.21
490.94	1650.66
491.14	1718.25
491.34	1832.93
491.54	2168.80
491.74	2484.19
491.94	3033.04
492.14	3110.86
492.34	3121.10
492.54	2789.33
492.75	2545.63
492.95	2371.55
493.15	2230.24
493.35	2353.12
493.55	2250.72
493.75	2174.94
493.95	2138.08
494.15	1966.05
494.35	1861.60
494.56	1822.69
494.76	1765.35
494.96	1806.31
495.16	1791.97
495.36	1748.97
495.56	1736.68
495.76	1679.33
495.96	1720.29
496.16	1669.09
496.36	1796.07
496.56	1671.14
496.77	1812.45
496.97	1679.33
497.17	1796.07
497.37	1687.53
497.57	1759.21
497.77	1761.25
497.97	1607.66
498.17	1736.68
498.37	1712.10
498.57	1781.73
498.77	1665.00
498.97	1697.77
499.17	1849.32
499.38	1742.82
499.58	1869.80
499.78	1794.02
499.98	1865.70
500.18	1642.47
500.38	1701.86
500.58	1824.74
500.78	2512.86
500.98	4509.63
501.18	5953.45
501.38	6973.33
501.58	7157.65
501.78	6694.81
501.98	5670.83
502.18	5003.19
502.38	4581.31
502.58	4114.37
502.78	3784.65
502.98	3698.63
503.18	3368.91
503.38	3155.92
503.59	2879.44
503.79	2660.31
503.99	2519.00
504.19	2344.92
504.39	2150.37
504.59	2181.09
504.79	2119.65
504.99	2082.78
505.19	1888.23
505.39	1902.56
505.59	1961.95
505.79	1904.61
505.99	1837.03
506.19	1736.68
506.39	1808.36
506.59	1685.48
506.79	1755.11
506.99	1785.83
507.19	1810.40
507.39	1814.50
507.59	1621.99
507.79	1654.76
507.99	1718.25
508.19	1681.38
508.39	1718.25
508.59	1738.73
508.79	1785.83
508.99	1853.41
509.19	1662.95
509.39	1748.97
509.59	1710.05
509.79	1640.42
509.99	1734.63
510.19	1748.97
510.39	1796.07
510.59	1720.29
510.79	1667.05
510.99	1615.85
511.19	1685.48
511.39	1746.92
511.59	1785.83
511.79	1765.35
511.99	1697.77
512.19	1859.56
512.38	1730.53
512.58	1607.66
512.78	1755.11
512.98	1746.92
513.18	1837.03
513.38	1640.42
513.58	1740.77
513.78	1699.81
513.98	1695.72
514.18	1624.04
514.38	1683.43
514.58	1583.08
514.78	1626.09
514.98	1630.18
515.18	1679.33
515.38	1693.67
515.58	1847.27
515.78	1675.24
515.98	1798.12
516.18	1794.02
516.38	1800.16
516.57	1654.76
516.77	1654.76
516.97	1720.29
517.17	1753.06
517.37	1665.00
517.57	1753.06
517.77	1740.77
517.97	1671.14
518.17	1748.97
518.37	1722.34
518.57	1687.53
518.77	1669.09
518.97	1675.24
519.16	1767.40
519.36	1734.63
519.56	1650.66
519.76	1746.92
519.96	1773.54
520.16	1746.92
520.36	1665.00
520.56	1816.55
520.76	1691.62
520.96	1660.90
521.16	1822.69
521.35	1748.97
521.55	1771.49
521.75	1763.30
521.95	1636.33
522.15	1665.00
522.35	1716.20
522.55	1681.38
522.75	1812.45
522.95	1738.73
523.14	1662.95
523.34	1673.19
523.54	1673.19
523.74	1748.97
523.94	1736.68
524.14	1710.05
524.34	1728.49
524.54	1775.59
524.73	1734.63
524.93	1734.63
525.13	1697.77
525.33	1714.15
525.53	1884.13
525.73	1728.49
525.93	1699.81
526.13	1646.57
526.32	1644.52
526.52	1767.40
526.72	1800.16
526.92	1658.85
527.12	1693.67
527.32	1660.90
527.52	1771.49
527.71	1736.68
527.91	1708.01
528.11	1730.53
528.31	1722.34
528.51	1671.14
528.71	1767.40
528.90	1761.25
529.10	1759.21
529.30	1820.64
529.50	1593.32
529.70	1769.44
529.90	1642.47
530.09	1771.49
530.29	1611.75
530.49	1648.61
530.69	1802.21
530.89	1761.25
531.09	1726.44
531.28	1714.15
531.48	1783.78
531.68	1759.21
531.88	1746.92
532.08	1658.85
532.28	1683.43
532.47	1753.06
532.67	1748.97
532.87	1771.49
533.07	1669.09
533.27	1738.73
533.46	1767.40
533.66	1767.40
533.86	1746.92
534.06	1708.01
534.26	1705.96
534.45	1732.58
534.65	1804.26
534.85	1798.12
535.05	1683.43
535.25	1769.44
535.44	1634.28
535.64	1761.25
535.84	1689.57
536.04	1705.96
536.24	1744.87
536.43	1736.68
536.63	1763.30
536.83	1755.11
537.03	1755.11
537.22	1552.36
537.42	1562.60
537.62	1767.40
537.82	1724.39
538.02	1783.78
538.21	1802.21
538.41	1861.60
538.61	1714.15
538.81	1853.41
539.00	1759.21
539.20	1630.18
539.40	1699.81
539.60	1746.92
539.79	1689.57
539.99	1761.25
540.19	1730.53
540.39	1710.05
540.58	1734.63
540.78	1771.49
540.98	1802.21
541.18	1769.44
541.37	1669.09
541.57	1697.77
541.77	1662.95
541.97	1714.15
542.16	1636.33
542.36	1736.68
542.56	1708.01
542.76	1818.60
542.95	1820.64
543.15	1718.25
543.35	1701.86
543.54	1708.01
543.74	1693.67
543.94	1771.49
544.14	1740.77
544.33	1753.06
544.53	1759.21
544.73	1677.29
544.93	1718.25
545.12	1755.11
545.32	1708.01
545.52	1708.01
545.71	1724.39
545.91	1650.66
546.11	1679.33
546.30	1685.48
546.50	1738.73
546.70	1685.48
546.90	1646.57
547.09	1652.71
547.29	1757.16
547.49	1769.44
547.68	1708.01
547.88	1644.52
548.08	1808.36
548.27	2150.37
548.47	1714.15
548.67	1609.70
548.87	1751.01
549.06	1697.77
549.26	1748.97
549.46	1740.77
549.65	1671.14
549.85	1787.88
550.05	1726.44
550.24	1712.10
550.44	1662.95
550.64	1724.39
550.83	1673.19
551.03	1802.21
551.23	1730.53
551.42	1738.73
551.62	1697.77
551.82	1802.21
552.01	1679.33
552.21	1800.16
552.41	1748.97
552.60	1816.55
552.80	1755.11
553.00	1669.09
553.19	1746.92
553.39	1757.16
553.59	1667.05
553.78	1791.97
553.98	1718.25
554.17	1691.62
554.37	1755.11
554.57	1687.53
554.76	1654.76
554.96	1744.87
555.16	1820.64
555.35	1740.77
555.55	1834.98
555.75	1708.01
555.94	1791.97
556.14	1558.50
556.33	1705.96
556.53	1681.38
556.73	1734.63
556.92	1730.53
557.12	1808.36
557.32	1789.92
557.51	1865.70
557.71	1849.32
557.90	1849.32
558.10	1886.18
558.30	1746.92
558.49	1613.80
558.69	1771.49
558.88	1728.49
559.08	1812.45
559.28	1681.38
559.47	1832.93
559.67	1710.05
559.86	1920.99
560.06	1751.01
560.26	1722.34
560.45	1759.21
560.65	1806.31
560.84	1814.50
561.04	1738.73
561.24	1728.49
561.43	1624.04
561.63	1871.84
561.82	1806.31
562.02	1742.82
562.22	1621.99
562.41	1703.91
562.61	1673.19
562.80	1626.09
563.00	1925.09
563.19	1693.67
563.39	1748.97
563.59	1673.19
563.78	1716.20
563.98	1646.57
564.17	1785.83
564.37	1626.09
564.56	1689.57
564.76	1648.61
564.96	1748.97
565.15	1658.85
565.35	1806.31
565.54	1843.17
565.74	1796.07
565.93	1726.44
566.13	1765.35
566.32	1763.30
566.52	1775.59
566.71	1718.25
566.91	1744.87
567.11	1726.44
567.30	1662.95
567.50	1722.34
567.69	1716.20
567.89	1701.86
568.08	1714.15
568.28	1798.12
568.47	1652.71
568.67	1746.92
568.86	1693.67
569.06	1830.88
569.25	1701.86
569.45	1652.71
569.64	1705.96
569.84	1712.10
570.04	1710.05
570.23	1662.95
570.43	1837.03
570.62	1728.49
570.82	1843.17
571.01	1677.29
571.21	1796.07
571.40	1716.20
571.60	1755.11
571.79	1742.82
571.99	1767.40
572.18	1607.66
572.38	1798.12
572.57	1730.53
572.77	1785.83
572.96	1863.65
573.16	1746.92
573.35	1708.01
573.55	1742.82
573.74	1693.67
573.94	1667.05
574.13	1703.91
574.33	1804.26
574.52	1839.08
574.71	1714.15
574.91	1681.38
575.10	1708.01
575.30	1716.20
575.49	1621.99
575.69	1675.24
575.88	1763.30
576.08	1613.80
576.27	1781.73
576.47	1697.77
576.66	1857.51
576.86	1763.30
577.05	1738.73
577.25	1816.55
577.44	1839.08
577.64	1742.82
577.83	1763.30
578.02	1708.01
578.22	1798.12
578.41	1859.56
578.61	1671.14
578.80	1734.63
579.00	1779.68
579.19	1783.78
579.39	1787.88
579.58	1787.88
579.77	1755.11
579.97	1798.12
580.16	1888.23
580.36	1824.74
580.55	1794.02
580.75	1738.73
580.94	1720.29
581.13	1800.16
581.33	1855.46
581.52	1806.31
581.72	1890.28
581.91	1824.74
582.11	1687.53
582.30	1685.48
582.49	1777.64
582.69	1847.27
582.88	1744.87
583.08	1734.63
583.27	1820.64
583.47	1757.16
583.66	1738.73
583.85	1656.81
584.05	1748.97
584.24	1748.97
584.44	1820.64
584.63	1773.54
584.82	1800.16
585.02	1845.22
585.21	1886.18
585.41	1800.16
585.60	1787.88
585.79	1882.08
585.99	1855.46
586.18	1888.23
586.37	2236.38
586.57	3321.81
586.76	10100.58
586.96	25384.57
587.15	35986.91
587.34	42034.56
587.54	43650.41
587.73	37916.09
587.93	27250.27
588.12	22365.87
588.31	19011.29
588.51	16914.17
588.70	15669.01
588.89	14440.23
589.09	12816.19
589.28	11493.20
589.47	9883.50
589.67	8279.94
589.86	6649.75
590.06	5181.36
590.25	4061.12
590.44	3166.16
590.64	2568.15
590.83	2303.96
591.02	2127.84
591.22	1914.85
591.41	1968.10
591.60	1896.42
591.80	1880.04
591.99	1798.12
592.18	1806.31
592.38	1871.84
592.57	1716.20
592.76	1775.59
592.96	1802.21
593.15	1742.82
593.34	1818.60
593.54	1744.87
593.73	1785.83
593.92	1714.15
594.12	1730.53
594.31	1787.88
594.50	1802.21
594.70	1736.68
594.89	1826.79
595.08	1742.82
595.28	1695.72
595.47	2009.06
595.66	1820.64
595.86	1595.37
596.05	1714.15
596.24	1722.34
596.43	1826.79
596.63	1832.93
596.82	1769.44
597.01	1642.47
597.21	1834.98
597.40	1849.32
597.59	1789.92
597.79	1763.30
597.98	1781.73
598.17	1734.63
598.36	1705.96
598.56	1734.63
598.75	1724.39
598.94	1742.82
599.14	1771.49
599.33	1679.33
599.52	1759.21
599.71	1662.95
599.91	1791.97
600.10	1701.86
600.29	1712.10
600.48	1806.31
600.68	1751.01
600.87	1710.05
601.06	1617.90
601.26	1732.58
601.45	1806.31
601.64	1695.72
601.83	1830.88
602.03	1638.38
602.22	1718.25
602.41	1775.59
602.60	1828.84
602.80	1812.45
602.99	1767.40
603.18	1667.05
603.37	1720.29
603.57	1751.01
603.76	1794.02
603.95	1671.14
604.14	1605.61
604.34	1693.67
604.53	1734.63
604.72	1671.14
604.91	1695.72
605.10	1708.01
605.30	1703.91
605.49	1904.61
605.68	1787.88
605.87	1730.53
606.07	1722.34
606.26	1761.25
606.45	1736.68
606.64	1753.06
606.84	1763.30
607.03	1705.96
607.22	1732.58
607.41	1677.29
607.60	1669.09
607.80	1722.34
607.99	1732.58
608.18	1699.81
608.37	1716.20
608.56	1675.24
608.76	1855.46
608.95	1802.21
609.14	1658.85
609.33	1812.45
609.52	1771.49
609.72	1748.97
609.91	1761.25
610.10	1722.34
610.29	1826.79
610.48	1615.85
610.68	1732.58
610.87	1730.53
611.06	1781.73
611.25	1738.73
611.44	1734.63
611.63	1673.19
611.83	1777.64
612.02	1646.57
612.21	1816.55
612.40	1648.61
612.59	1681.38
612.79	1652.71
612.98	1748.97
613.17	1830.88
613.36	1740.77
613.55	1779.68
613.74	1773.54
613.93	1751.01
614.13	1673.19
614.32	1734.63
614.51	1787.88
614.70	1738.73
614.89	1787.88
615.08	1767.40
615.28	2058.21
615.47	1648.61
615.66	1769.44
615.85	1701.86
616.04	1820.64
616.23	1644.52
616.42	1691.62
616.62	1705.96
616.81	1710.05
617.00	1728.49
617.19	1714.15
617.38	1662.95
617.57	1677.29
617.76	1718.25
617.95	1683.43
618.15	1755.11
618.34	1777.64
618.53	1607.66
618.72	1765.35
618.91	1787.88
619.10	1773.54
619.29	1753.06
619.48	1681.38
619.68	1660.90
619.87	1730.53
620.06	1566.70
620.25	1783.78
620.44	1712.10
620.63	1710.05
620.82	1796.07
621.01	1765.35
621.20	1757.16
621.39	1738.73
621.59	1679.33
621.78	1658.85
621.97	1767.40
622.16	1734.63
622.35	1763.30
622.54	1703.91
622.73	1794.02
622.92	1597.42
623.11	1712.10
623.30	1683.43
623.49	1691.62
623.68	1714.15
623.88	1814.50
624.07	1632.23
624.26	1728.49
624.45	1699.81
624.64	1722.34
624.83	1742.82
625.02	1742.82
625.21	1630.18
625.40	1662.95
625.59	1787.88
625.78	1744.87
625.97	1755.11
626.16	1767.40
626.35	1703.91
626.54	1714.15
626.74	1740.77
626.93	1673.19
627.12	1665.00
627.31	1794.02
627.50	1681.38
627.69	1658.85
627.88	1685.48
628.07	1683.43
628.26	1589.22
628.45	1619.94
628.64	1736.68
628.83	1712.10
629.02	1693.67
629.21	1720.29
629.40	1755.11
629.59	1736.68
629.78	1691.62
629.97	1742.82
630.16	1714.15
630.35	1669.09
630.54	1710.05
630.73	1742.82
630.92	1806.31
631.11	1720.29
631.30	1689.57
631.49	1734.63
631.68	1685.48
631.87	1738.73
632.06	1665.00
632.25	1855.46
632.44	1726.44
632.63	1671.14
632.82	1740.77
633.01	1634.28
633.20	1722.34
633.39	1597.42
633.58	1564.65
633.77	1748.97
633.96	1730.53
634.15	1689.57
634.34	1730.53
634.53	1746.92
634.72	1626.09
634.91	1681.38
635.10	1646.57
635.29	1751.01
635.48	1662.95
635.67	1687.53
635.86	1611.75
636.05	1748.97
636.24	1677.29
636.43	1689.57
636.62	1734.63
636.81	1583.08
637.00	1697.77
637.19	1796.07
637.38	1697.77
637.57	1650.66
637.76	1636.33
637.95	1746.92
638.14	1654.76
638.33	1599.46
638.52	1681.38
638.71	1626.09
638.89	1689.57
639.08	1875.94
639.27	1689.57
639.46	1783.78
639.65	1775.59
639.84	1826.79
640.03	1658.85
640.22	1689.57
640.41	1767.40
640.60	1687.53
640.79	1714.15
640.98	1755.11
641.17	1763.30
641.36	1710.05
641.55	1701.86
641.74	1607.66
641.92	1630.18
642.11	1654.76
642.30	1730.53
642.49	1619.94
642.68	1648.61
642.87	1728.49
643.06	1712.10
643.25	1665.00
643.44	1695.72
643.63	1779.68
643.82	1703.91
644.00	1677.29
644.19	1701.86
644.38	1701.86
644.57	1781.73
644.76	1642.47
644.95	1689.57
645.14	1734.63
645.33	1654.76
645.52	1671.14
645.71	1607.66
645.89	1644.52
646.08	1689.57
646.27	1685.48
646.46	1845.22
646.65	1585.13
646.84	1757.16
647.03	1669.09
647.22	1748.97
647.40	1734.63
647.59	1650.66
647.78	1640.42
647.97	1613.80
648.16	1638.38
648.35	1785.83
648.54	1789.92
648.73	1712.10
648.91	1759.21
649.10	1722.34
649.29	1632.23
649.48	1701.86
649.67	1679.33
649.86	1712.10
650.05	1675.24
650.23	1734.63
650.42	1677.29
650.61	1726.44
650.80	1697.77
650.99	1787.88
651.18	1736.68
651.36	1730.53
651.55	1685.48
651.74	1734.63
651.93	1619.94
652.12	1716.20
652.31	1720.29
652.49	1699.81
652.68	1738.73
652.87	1791.97
653.06	1703.91
653.25	1796.07
653.44	1689.57
653.62	1796.07
653.81	1757.16
654.00	1683.43
654.19	1746.92
654.38	1841.12
654.56	1761.25
654.75	1722.34
654.94	1763.30
655.13	1718.25
655.32	1718.25
655.51	1763.30
655.69	1654.76
655.88	1683.43
656.07	1695.72
656.26	1771.49
656.45	1617.90
656.63	1621.99
656.82	1732.58
657.01	1785.83
657.20	1693.67
657.38	1804.26
657.57	1705.96
657.76	1728.49
657.95	1775.59
658.14	1720.29
658.32	1757.16
658.51	1632.23
658.70	1728.49
658.89	1673.19
659.08	1638.38
659.26	1787.88
659.45	1640.42
659.64	1697.77
659.83	1708.01
660.01	1912.80
660.20	1697.77
660.39	1701.86
660.58	1652.71
660.76	1802.21
660.95	1660.90
661.14	1722.34
661.33	1619.94
661.51	1705.96
661.70	1722.34
661.89	1724.39
662.08	1646.57
662.26	1624.04
662.45	1673.19
662.64	1810.40
662.83	1734.63
663.01	1658.85
663.20	1710.05
663.39	1769.44
663.58	1660.90
663.76	1652.71
663.95	1748.97
664.14	1742.82
664.32	1726.44
664.51	1646.57
664.70	1564.65
664.89	1808.36
665.07	1671.14
665.26	1710.05
665.45	1654.76
665.64	1708.01
665.82	1716.20
666.01	1769.44
666.20	1624.04
666.38	1751.01
666.57	1837.03
666.76	2166.75
666.95	4648.89
667.13	10592.09
667.32	15976.20
667.51	18349.80
667.69	19523.29
667.88	18251.50
668.07	12666.69
668.25	9789.29
668.44	8327.04
668.63	7620.49
668.81	6870.94
669.00	6299.55
669.19	5773.22
669.38	5304.24
669.56	4704.18
669.75	4149.18
669.94	3473.36
670.12	2969.55
670.31	2555.86
670.50	2273.25
670.68	1998.82
670.87	1984.48
671.06	1742.82
671.24	1773.54
671.43	1849.32
671.62	1738.73
671.80	1728.49
671.99	1693.67
672.18	1720.29
672.36	1759.21
672.55	1728.49
672.74	1701.86
672.92	1691.62
673.11	1757.16
673.29	1683.43
673.48	1771.49
673.67	1722.34
673.85	1767.40
674.04	1681.38
674.23	1689.57
674.41	1734.63
674.60	1685.48
674.79	1732.58
674.97	1658.85
675.16	1755.11
675.34	1697.77
675.53	1718.25
675.72	1689.57
675.90	1789.92
676.09	1667.05
676.28	1730.53
676.46	1640.42
676.65	1761.25
676.83	1708.01
677.02	1710.05
677.21	1683.43
677.39	1673.19
677.58	1734.63
677.77	1624.04
677.95	1722.34
678.14	1685.48
678.32	1755.11
678.51	1642.47
678.70	1941.47
678.88	1732.58
679.07	1812.45
679.25	1662.95
679.44	1683.43
679.63	1687.53
679.81	1708.01
680.00	1769.44
680.18	1689.57
680.37	1740.77
680.55	1732.58
680.74	1626.09
680.93	1630.18
681.11	1673.19
681.30	1648.61
681.48	1685.48
681.67	1705.96
681.85	1685.48
682.04	1716.20
682.23	1779.68
682.41	1695.72
682.60	1701.86
682.78	1699.81
682.97	1591.27
683.15	1710.05
683.34	1789.92
683.53	1738.73
683.71	1585.13
683.90	1755.11
684.08	1720.29
684.27	1675.24
684.45	1728.49
684.64	1763.30
684.82	1665.00
685.01	1755.11
685.19	1701.86
685.38	1773.54
685.57	1712.10
685.75	1683.43
685.94	1720.29
686.12	1695.72
686.31	1710.05
686.49	1734.63
686.68	1578.98
686.86	1761.25
687.05	1624.04
687.23	1783.78
687.42	1669.09
687.60	1615.85
687.79	1710.05
687.97	1738.73
688.16	1738.73
688.34	1830.88
688.53	1554.41
688.71	1767.40
688.90	1732.58
689.08	1722.34
689.27	1634.28
689.45	1726.44
689.64	1738.73
689.82	1699.81
690.01	1708.01
690.19	1638.38
690.38	1685.48
690.56	1738.73
690.75	1609.70
690.93	1671.14
691.12	1615.85
691.30	1693.67
691.49	1667.05
691.67	1710.05
691.86	1781.73
692.04	1652.71
692.23	1714.15
692.41	1673.19
692.60	1834.98
692.78	1656.81
692.97	1677.29
693.15	1757.16
693.34	1804.26
693.52	1871.84
693.71	1552.36
693.89	1683.43
694.08	1654.76
694.26	1740.77
694.44	1716.20
694.63	1746.92
694.81	1658.85
695.00	1626.09
695.18	1701.86
695.37	1841.12
695.55	1675.24
695.74	1626.09
695.92	1675.24
696.10	1777.64
696.29	1576.94
696.47	1693.67
696.66	1601.51
696.84	1640.42
697.03	1724.39
697.21	1781.73
697.40	2273.25
697.58	1746.92
697.76	1646.57
697.95	1648.61
698.13	1652.71
698.32	1671.14
698.50	1640.42
698.68	1726.44
698.87	1783.78
699.05	1736.68
699.24	1712.10
699.42	1701.86
699.61	1667.05
699.79	1798.12
699.97	1734.63
700.16	1650.66
700.34	1662.95
700.53	1630.18
700.71	1796.07
700.89	1689.57
701.08	1712.10
701.26	1609.70
701.45	2027.49
701.63	1642.47
701.81	1646.57
702.00	1710.05
702.18	1624.04
702.37	1554.41
702.55	1695.72
702.73	1730.53
702.92	1611.75
703.10	1675.24
703.28	1667.05
703.47	1630.18
703.65	1755.11
703.84	1763.30
704.02	1615.85
704.20	1822.69
704.39	1613.80
704.57	1626.09
704.75	1759.21
704.94	1693.67
705.12	1675.24
705.30	1705.96
705.49	2256.86
705.67	4437.95
705.86	9611.12
706.04	13178.68
706.22	15081.24
706.41	15988.49
706.59	14495.52
706.77	9961.32
706.96	7540.62
707.14	6819.74
707.32	6211.49
707.51	5859.24
707.69	5060.53
707.87	4366.27
708.06	3491.79
708.24	2990.03
708.42	2469.85
708.61	2287.58
708.79	1918.95
708.97	1810.40
709.16	1886.18
709.34	1771.49
709.52	1673.19
709.71	1763.30
709.89	1742.82
710.07	1660.90
710.26	1648.61
710.44	1710.05
710.62	1773.54
710.80	1660.90
710.99	1705.96
711.17	1681.38
711.35	1685.48
711.54	1683.43
711.72	1798.12
711.90	1759.21
712.09	1742.82
712.27	1673.19
712.45	1787.88
712.63	1667.05
712.82	1636.33
713.00	1683.43
713.18	1787.88
713.37	1726.44
713.55	1759.21
713.73	1734.63
713.91	1710.05
714.10	1650.66
714.28	1683.43
714.46	1732.58
714.65	1669.09
714.83	1697.77
715.01	1800.16
715.19	1656.81
715.38	1701.86
715.56	1732.58
715.74	1728.49
715.92	1669.09
716.11	1787.88
716.29	1626.09
716.47	1738.73
716.65	1640.42
716.84	1566.70
717.02	1693.67
717.20	1611.75
717.38	1667.05
717.57	1683.43
717.75	1673.19
717.93	1597.42
718.11	1751.01
718.30	1615.85
718.48	1757.16
718.66	1656.81
718.84	1759.21
719.03	1675.24
719.21	1656.81
719.39	1724.39
719.57	1753.06
719.75	1734.63
719.94	1708.01
720.12	1648.61
720.30	1658.85
720.48	1722.34
720.67	1697.77
720.85	1621.99
721.03	1687.53
721.21	1658.85
721.39	1767.40
721.58	1677.29
721.76	1624.04
721.94	1662.95
722.12	1748.97
722.30	1779.68
722.49	1667.05
722.67	1703.91
722.85	1767.40
723.03	1611.75
723.21	1697.77
723.40	1753.06
723.58	1746.92
723.76	1611.75
723.94	1761.25
724.12	1687.53
724.30	1738.73
724.49	1777.64
724.67	1714.15
724.85	1683.43
725.03	1630.18
725.21	1714.15
725.40	1806.31
725.58	1662.95
725.76	1798.12
725.94	1683.43
726.12	1654.76
726.30	1730.53
726.49	1662.95
726.67	1705.96
726.85	1765.35
727.03	1738.73
727.21	2150.37
727.39	2924.50
727.57	3934.15
727.76	4396.99
727.94	4585.40
728.12	4331.45
728.30	3772.36
728.48	3106.77
728.66	2760.66
728.84	2635.74
729.03	2365.40
729.21	2136.03
729.39	1959.91
729.57	1834.98
729.75	1753.06
729.93	1787.88
730.11	1748.97
730.30	1634.28
730.48	1714.15
730.66	1738.73
730.84	1726.44
731.02	1667.05
731.20	1728.49
731.38	1740.77
731.56	1607.66
731.74	1697.77
731.93	1789.92
732.11	1660.90
732.29	1662.95
732.47	1714.15
732.65	1724.39
732.83	1765.35
733.01	1681.38
733.19	1710.05
733.37	1742.82
733.56	1640.42
733.74	1665.00
733.92	1863.65
734.10	1648.61
734.28	1746.92
734.46	1597.42
734.64	1652.71
734.82	1675.24
735.00	1722.34
735.18	1701.86
735.36	1679.33
735.54	1710.05
735.73	1624.04
735.91	1726.44
736.09	1777.64
736.27	1736.68
736.45	1767.40
736.63	1546.22
736.81	1644.52
736.99	1798.12
737.17	1736.68
737.35	1665.00
737.53	1767.40
737.71	1718.25
737.89	1759.21
738.07	1669.09
738.25	1724.39
738.43	1630.18
738.61	1681.38
738.80	1566.70
738.98	1701.86
739.16	1650.66
739.34	1638.38
739.52	1738.73
739.70	1607.66
739.88	1675.24
740.06	1757.16
740.24	1636.33
740.42	1720.29
740.60	1570.79
740.78	1665.00
740.96	1609.70
741.14	1728.49
741.32	1654.76
741.50	1615.85
741.68	1802.21
741.86	1703.91
742.04	1681.38
742.22	1615.85
742.40	1667.05
742.58	1757.16
742.76	1617.90
742.94	1757.16
743.12	1613.80
743.30	1705.96
743.48	1656.81
743.66	1658.85
743.84	1714.15
744.02	1630.18
744.20	1683.43
744.38	1648.61
744.56	1693.67
744.74	1828.84
744.92	1667.05
745.10	1812.45
745.28	1687.53
745.46	1693.67
745.64	1662.95
745.82	1728.49
746.00	1665.00
746.18	1781.73
746.36	1621.99
746.54	1708.01
746.72	1689.57
746.90	1667.05
747.08	1837.03
747.26	1714.15
747.44	1722.34
747.62	1748.97
747.80	1701.86
747.98	1816.55
748.15	1720.29
748.33	1734.63
748.51	1611.75
748.69	1744.87
748.87	1638.38
749.05	1660.90
749.23	1716.20
749.41	1724.39
749.59	1626.09
749.77	1705.96
749.95	1615.85
750.13	1751.01
750.31	1742.82
750.49	1667.05
750.67	1732.58
750.85	1796.07
751.03	1765.35
751.20	1798.12
751.38	1703.91
751.56	1708.01
751.74	1624.04
751.92	1679.33
752.10	1621.99
752.28	1746.92
752.46	1703.91
752.64	1667.05
752.82	1648.61
753.00	1794.02
753.18	1769.44
753.35	1710.05
753.53	1658.85
753.71	1589.22
753.89	1673.19
754.07	1691.62
754.25	1769.44
754.43	1730.53
754.61	1638.38
754.79	1716.20
754.97	1687.53
755.14	1830.88
755.32	1619.94
755.50	1675.24
755.68	1714.15
755.86	1583.08
756.04	1669.09
756.22	1593.32
756.40	1746.92
756.57	1730.53
756.75	1660.90
756.93	1695.72
757.11	1849.32
757.29	1613.80
757.47	1640.42
757.65	1611.75
757.82	1548.26
758.00	1617.90
758.18	1708.01
758.36	1673.19
758.54	1814.50
758.72	1636.33
758.90	1748.97
759.07	1665.00
759.25	1619.94
759.43	1714.15
759.61	1665.00
759.79	2215.90
759.97	1720.29
760.15	1613.80
760.32	1673.19
760.50	1783.78
760.68	1767.40
760.86	1638.38
761.04	1755.11
761.22	1810.40
761.39	1726.44
761.57	1734.63
761.75	1763.30
761.93	1761.25
762.11	1636.33
762.28	1748.97
762.46	1607.66
762.64	1730.53
762.82	1640.42
763.00	1640.42
763.18	1736.68
763.35	1583.08
763.53	1695.72
763.71	1714.15
763.89	1722.34
764.07	1716.20
764.24	1693.67
764.42	1718.25
764.60	1708.01
764.78	1677.29
764.96	1826.79
765.13	1708.01
765.31	1703.91
765.49	1740.77
765.67	1673.19
765.84	1703.91
766.02	1658.85
766.20	1621.99
766.38	1675.24
766.56	1775.59
766.73	1714.15
766.91	1724.39
767.09	1763.30
767.27	1722.34
767.44	1728.49
767.62	1644.52
767.80	1722.34
767.98	1665.00
768.15	1720.29
768.33	1755.11
768.51	1710.05
768.69	1699.81
768.87	1728.49
769.04	1753.06
769.22	1779.68
769.40	1820.64
769.58	1834.98
769.75	1673.19
769.93	1751.01
770.11	1636.33
770.28	1609.70
770.46	1757.16
770.64	1615.85
770.82	1615.85
770.99	1660.90
771.17	1691.62
771.35	1742.82
771.53	1669.09
771.70	1654.76
771.88	1726.44
772.06	1662.95
772.23	1652.71
772.41	1656.81
772.59	1636.33
772.77	1556.46
772.94	1712.10
773.12	1687.53
773.30	1611.75
773.47	1744.87
773.65	1624.04
773.83	1804.26
774.01	1714.15
774.18	1587.18
774.36	1603.56
774.54	1619.94
774.71	1763.30
774.89	1644.52
775.07	1652.71
775.24	1681.38
775.42	1578.98
775.60	1798.12
775.78	1675.24
775.95	1591.27
776.13	1617.90
776.31	1599.46
776.48	1624.04
776.66	1751.01
776.84	1773.54
777.01	1691.62
777.19	1665.00
777.37	1681.38
777.54	1665.00
777.72	1828.84
777.90	1656.81
778.07	1742.82
778.25	1871.84
778.43	1673.19
778.60	1644.52
778.78	1708.01
778.96	1746.92
779.13	1613.80
779.31	1730.53
779.49	1669.09
779.66	1712.10
779.84	1683.43
780.01	1648.61
780.19	1689.57
780.37	1775.59
780.54	1667.05
780.72	1607.66
780.90	1646.57
781.07	1683.43
781.25	1642.47
781.43	1662.95
781.60	1619.94
781.78	1767.40
781.95	1683.43
782.13	1689.57
782.31	1673.19
782.48	1630.18
782.66	1671.14
782.83	1791.97
783.01	1685.48
783.19	1701.86
783.36	1662.95
783.54	1601.51
783.72	1724.39
783.89	1638.38
784.07	1652.71
784.24	1687.53
784.42	1755.11
784.60	1730.53
784.77	1767.40
784.95	1632.23
785.12	1669.09
785.30	1660.90
785.47	1667.05
785.65	1658.85
785.83	1636.33
786.00	1597.42
786.18	1687.53
786.35	1603.56
786.53	1603.56
786.71	1748.97
786.88	1681.38
787.06	1640.42
787.23	1662.95
787.41	1626.09
787.58	1699.81
787.76	1603.56
787.94	1689.57
788.11	1687.53
788.29	1617.90
788.46	1615.85
788.64	1626.09
788.81	1652.71
788.99	1681.38
789.16	1648.61
789.34	1681.38
789.52	1671.14
789.69	1697.77
789.87	1624.04
790.04	1642.47
790.22	1714.15
790.39	1812.45
790.57	1628.14
790.74	1624.04
790.92	1662.95
791.09	1644.52
791.27	1712.10
791.44	1777.64
791.62	1726.44
791.79	1781.73
791.97	1732.58
792.15	1900.52
792.32	1703.91
792.50	1710.05
792.67	1765.35
792.85	1726.44
793.02	1701.86
793.20	1701.86
793.37	1544.17
793.55	1673.19
793.72	1599.46
793.90	1726.44
794.07	1628.14
794.25	1597.42
794.42	1732.58
794.60	1693.67
794.77	1748.97
794.95	1763.30
795.12	1751.01
795.30	1654.76
795.47	1626.09
795.65	1882.08
795.82	1744.87
796.00	1621.99
796.17	1609.70
796.34	1708.01
796.52	1689.57
796.69	1763.30
796.87	1695.72
797.04	1658.85
797.22	1681.38
797.39	1765.35
797.57	1677.29
797.74	1777.64
797.92	1669.09
798.09	1679.33
798.27	1722.34
798.44	1710.05
798.62	1660.90
798.79	1710.05
798.96	1746.92
799.14	1632.23
799.31	1863.65
799.49	1691.62
799.66	1703.91
799.84	1671.14
800.01	1658.85
800.19	1691.62
800.36	1665.00
800.53	1718.25
800.71	1718.25
800.88	1779.68
801.06	1658.85
801.23	1701.86
801.41	1710.05
801.58	1658.85
801.75	1667.05
801.93	1708.01
802.10	1734.63
802.28	1683.43
802.45	1675.24
802.63	1726.44
802.80	1753.06
802.97	1755.11
803.15	1675.24
803.32	1634.28
803.50	1595.37
803.67	1607.66
803.84	1660.90
804.02	1648.61
804.19	1695.72
804.37	1554.41
804.54	1646.57
804.71	1726.44
804.89	1734.63
805.06	1697.77
805.24	1630.18
805.41	1634.28
805.58	1603.56
805.76	1853.41
805.93	1679.33
806.10	1740.77
806.28	1751.01
806.45	1667.05
806.63	1652.71
806.80	1681.38
806.97	1634.28
807.15	1693.67
807.32	1714.15
807.49	1783.78
807.67	1630.18
807.84	1708.01
808.01	1636.33
808.19	1798.12
808.36	1718.25
808.54	1656.81
808.71	1669.09
808.88	1757.16
809.06	1697.77
809.23	1791.97
809.40	1667.05
809.58	1755.11
809.75	1728.49
809.92	1599.46
810.10	1863.65
810.27	1734.63
810.44	1691.62
810.62	1740.77
810.79	1751.01
810.96	1687.53
811.14	1683.43
811.31	1718.25
811.48	1728.49
811.66	1712.10
811.83	1767.40
812.00	1732.58
812.18	1718.25
812.35	1843.17
812.52	1685.48
812.69	1642.47
812.87	1665.00
813.04	1638.38
813.21	1736.68
813.39	1652.71
813.56	1587.18
813.73	1789.92
813.91	1605.61
814.08	1662.95
814.25	1658.85
814.42	1607.66
814.60	1701.86
814.77	1708.01
814.94	1583.08
815.12	1744.87
815.29	1732.58
815.46	1650.66
815.63	1730.53
815.81	1589.22
815.98	1689.57
816.15	1650.66
816.33	1669.09
816.50	1757.16
816.67	1681.38
816.84	1642.47
817.02	1617.90
817.19	1667.05
817.36	1740.77
817.53	1755.11
817.71	1673.19
817.88	1755.11
818.05	1615.85
818.22	1585.13
818.40	1710.05
818.57	1683.43
818.74	1791.97
818.91	1601.51
819.09	1740.77
819.26	1751.01
819.43	1601.51
819.60	1640.42
819.78	1738.73
819.95	1779.68
820.12	1667.05
820.29	1779.68
820.47	1742.82
820.64	1634.28
820.81	1640.42
820.98	1632.23
821.15	1638.38
821.33	1753.06
821.50	1591.27
821.67	1677.29
821.84	1724.39
822.02	1656.81
822.19	1736.68
822.36	1740.77
822.53	1585.13
822.70	1632.23
822.88	1675.24
823.05	1765.35
823.22	1669.09
823.39	1710.05
823.56	1648.61
823.74	1755.11
823.91	1626.09
824.08	1677.29
824.25	1519.59
824.42	1728.49
824.60	1632.23
824.77	1714.15
824.94	1656.81
825.11	1722.34
825.28	1601.51
825.45	1748.97
825.63	1683.43
825.80	1603.56
825.97	1726.44
826.14	1683.43
826.31	1642.47
826.48	1687.53
826.66	1650.66
826.83	1634.28
827.00	1593.32
827.17	1605.61
827.34	1718.25
827.51	1658.85
827.69	1624.04
827.86	1566.70
828.03	1638.38
828.20	1673.19
828.37	1615.85
828.54	1789.92
828.71	1638.38
828.89	1828.84
829.06	1683.43
829.23	1818.60
829.40	1611.75
829.57	1652.71
829.74	1748.97
829.91	1726.44
830.09	1566.70
830.26	1757.16
830.43	1755.11
830.60	1650.66
830.77	1705.96
830.94	1732.58
831.11	1787.88
831.28	1640.42
831.46	1773.54
831.63	1779.68
831.80	1693.67
831.97	1689.57
832.14	1734.63
832.31	1734.63
832.48	1677.29
832.65	1730.53
832.82	1691.62
832.99	1656.81
833.17	1675.24
833.34	1769.44
833.51	1771.49
833.68	1566.70
833.85	1665.00
834.02	1652.71
834.19	1589.22
834.36	1650.66
834.53	1638.38
834.70	1751.01
834.87	1720.29
835.04	1650.66
835.22	1615.85
835.39	1646.57
835.56	1626.09
835.73	1630.18
835.90	1701.86
836.07	1611.75
836.24	1691.62
836.41	1650.66
836.58	1646.57
836.75	1720.29
836.92	1708.01
837.09	1705.96
837.26	1669.09
837.43	1644.52
837.60	1712.10
837.77	1644.52
837.94	1693.67
838.12	1730.53
838.29	1693.67
838.46	1662.95
838.63	1554.41
838.80	1787.88
838.97	1726.44
839.14	1605.61
839.31	1603.56
839.48	1654.76
839.65	1656.81
839.82	1730.53
839.99	1609.70
840.16	1679.33
840.33	1714.15
840.50	1603.56
840.67	1703.91
840.84	1667.05
841.01	1708.01
841.18	1621.99
841.35	1705.96
841.52	1683.43
841.69	1726.44
841.86	1761.25
842.03	1685.48
842.20	1746.92
842.37	1687.53
842.54	1703.91
842.71	1703.91
842.88	1607.66
843.05	1677.29
843.22	1601.51
843.39	1769.44
843.56	1595.37
843.73	1712.10
843.90	1718.25
844.07	1591.27
844.24	1751.01
844.41	1689.57
844.58	1685.48
844.75	1646.57
844.92	1619.94
845.09	1710.05
845.26	1624.04
845.43	1712.10
845.60	1644.52
845.77	1714.15
845.94	1648.61
846.10	1716.20
846.27	1615.85
846.44	1634.28
846.61	1624.04
846.78	1720.29
846.95	1722.34
847.12	1679.33
847.29	1665.00
847.46	1660.90
847.63	1689.57
847.80	1601.51
847.97	1632.23
848.14	1767.40
848.31	1650.66
848.48	1669.09
848.65	1640.42
848.82	1695.72
848.98	1853.41
849.15	1755.11
849.32	1681.38
849.49	1689.57
849.66	1695.72
849.83	1636.33
850.00	1640.42
850.17	1730.53
850.34	1638.38
850.51	1650.66
850.68	1652.71
850.85	1755.11
851.01	1693.67
851.18	1705.96
851.35	1705.96
851.52	1699.81
851.69	1734.63
851.86	1656.81
852.03	1726.44
852.20	1697.77
852.37	1546.22
852.53	1597.42
852.70	1726.44
852.87	1710.05
853.04	1691.62
853.21	1691.62
853.38	1814.50
853.55	1742.82
853.72	1804.26
853.89	1683.43
854.05	1699.81
854.22	1658.85
854.39	1675.24
854.56	1697.77
854.73	1779.68
854.90	1720.29
855.07	1755.11
855.23	1662.95
855.40	1683.43
855.57	1665.00
855.74	1617.90
855.91	1806.31
856.08	1630.18
856.25	1681.38
856.41	1634.28
856.58	1681.38
856.75	1658.85
856.92	1675.24
857.09	1806.31
857.26	1679.33
857.42	1667.05
857.59	1710.05
857.76	1656.81
857.93	1734.63
858.10	1720.29
858.27	1673.19
858.43	1615.85
858.60	1703.91
858.77	1605.61
858.94	1701.86
859.11	1699.81
859.27	1667.05
859.44	1601.51
859.61	1822.69
859.78	1699.81
859.95	1646.57
860.12	1601.51
860.28	1740.77
860.45	1796.07
860.62	1730.53
860.79	1656.81
860.95	1697.77
861.12	1638.38
861.29	1691.62
861.46	1638.38
861.63	1697.77
861.79	1720.29
861.96	1673.19
862.13	1624.04
862.30	1683.43
862.47	1609.70
862.63	1581.03
862.80	1798.12
862.97	1710.05
863.14	1726.44
863.30	1695.72
863.47	1609.70
863.64	1705.96
863.81	1771.49
863.97	1638.38
864.14	1691.62
864.31	1636.33
864.48	1705.96
864.65	1619.94
864.81	1730.53
864.98	1685.48
865.15	1714.15
865.32	1781.73
865.48	1779.68
865.65	1753.06
865.82	1669.09
865.98	1746.92
866.15	1712.10
866.32	1724.39
866.49	1619.94
866.65	1669.09
866.82	1615.85
866.99	1697.77
867.16	1699.81
867.32	1716.20
867.49	1652.71
867.66	1607.66
867.83	1634.28
867.99	1595.37
868.16	1753.06
868.33	1628.14
868.49	1681.38
868.66	1685.48
868.83	1736.68
868.99	1693.67
869.16	1720.29
869.33	1746.92
869.50	1783.78
869.66	1671.14
869.83	1671.14
870.00	1628.14
870.16	1693.67
870.33	1652.71
870.50	1703.91
870.66	1708.01
870.83	1832.93
871.00	1767.40
871.17	1708.01
871.33	1730.53
871.50	1693.67
871.67	1667.05
871.83	1675.24
872.00	1751.01
872.17	1736.68
872.33	1689.57
872.50	1785.83
872.67	1681.38
872.83	1714.15
873.00	1671.14
873.17	1609.70
873.33	1748.97
873.50	1722.34
873.67	1669.09
873.83	1667.05
874.00	1732.58
874.16	1710.05
874.33	1701.86
874.50	1650.66
874.66	1722.34
874.83	1640.42
875.00	1587.18
875.16	1724.39
875.33	1714.15
875.50	1535.98
875.66	1677.29
875.83	1681.38
875.99	1736.68
876.16	1636.33
876.33	1665.00
876.49	1656.81
876.66	1683.43
876.83	1701.86
876.99	1576.94
877.16	1681.38
877.32	1634.28
877.49	1671.14
877.66	1701.86
877.82	1722.34
877.99	1714.15
878.15	1775.59
878.32	1691.62
878.49	1705.96
878.65	1703.91
878.82	1779.68
878.98	1660.90
879.15	1722.34
879.32	1677.29
879.48	1671.14
879.65	1708.01
879.81	1710.05
879.98	1714.15
880.15	1632.23
880.31	1740.77
880.48	1644.52
880.64	1732.58
880.81	1755.11
880.97	1738.73
881.14	1732.58
881.31	1656.81
881.47	1763.30
881.64	1673.19
881.80	1591.27
881.97	1705.96
882.13	1802.21
882.30	1609.70
882.47	1724.39
882.63	1599.46
882.80	1671.14
882.96	1525.74
883.13	1697.77
883.29	1703.91
883.46	1699.81
883.62	1826.79
883.79	1677.29
883.95	1742.82
884.12	1636.33
884.29	1767.40
884.45	1693.67
884.62	1677.29
884.78	1695.72
884.95	1716.20
885.11	1732.58
885.28	1701.86
885.44	1601.51
885.61	1714.15
885.77	1781.73
885.94	1665.00
886.10	1695.72
886.27	1669.09
886.43	1771.49
886.60	1771.49
886.76	1685.48
886.93	1650.66
887.09	1640.42
887.26	1607.66
887.42	1705.96
887.59	1738.73
887.75	1820.64
887.92	1794.02
888.08	1751.01
888.25	1849.32
888.41	1738.73
888.58	1683.43
888.74	1648.61
888.91	1660.90
>>>>>End Processed Spectral Data<<<<<
