SpectraSuite Data File
++++++++++++++++++++++++++++++++++++
Date: Mon Jun 06 15:24:17 CEST 2016
User: root
Dark Spectrum Present: No
Reference Spectrum Present: No
Number of Sampled Component Spectra: 1
Spectrometers: USB4C02835
Integration Time (usec): 100000 (USB4C02835)
Spectra Averaged: 1 (USB4C02835)
Boxcar Smoothing: 0 (USB4C02835)
Correct for Electrical Dark: No (USB4C02835)
Strobe/Lamp Enabled: No (USB4C02835)
Correct for Detector Non-linearity: No (USB4C02835)
Correct for Stray Light: No (USB4C02835)
Number of Pixels in Processed Spectrum: 3648
>>>>>Begin Processed Spectral Data<<<<<
177.47	1472.49
177.69	1472.49
177.91	1472.49
178.13	1445.87
178.36	1503.21
178.58	1658.85
178.80	1730.53
179.02	1607.66
179.24	1656.81
179.46	1730.53
179.68	1744.87
179.90	1742.82
180.13	1761.25
180.35	1712.10
180.57	1695.72
180.79	1734.63
181.01	1699.81
181.23	1697.77
181.45	1761.25
181.67	1669.09
181.90	1775.59
182.12	1722.34
182.34	1628.14
182.56	1798.12
182.78	1675.24
183.00	1667.05
183.22	1740.77
183.44	1636.33
183.66	1914.85
183.89	1732.58
184.11	1732.58
184.33	1773.54
184.55	1794.02
184.77	1753.06
184.99	1693.67
185.21	1669.09
185.43	1816.55
185.65	1669.09
185.87	1742.82
186.10	1814.50
186.32	1902.56
186.54	1728.49
186.76	1683.43
186.98	1726.44
187.20	1638.38
187.42	1728.49
187.64	1742.82
187.86	1695.72
188.08	1787.88
188.30	1689.57
188.52	1714.15
188.75	1783.78
188.97	1806.31
189.19	1675.24
189.41	1656.81
189.63	1751.01
189.85	1751.01
190.07	1638.38
190.29	1626.09
190.51	1740.77
190.73	1624.04
190.95	1769.44
191.17	1763.30
191.39	1662.95
191.61	1679.33
191.84	1652.71
192.06	1755.11
192.28	1652.71
192.50	1910.75
192.72	1761.25
192.94	1681.38
193.16	1742.82
193.38	1732.58
193.60	1726.44
193.82	1648.61
194.04	1816.55
194.26	1701.86
194.48	1753.06
194.70	1761.25
194.92	1742.82
195.14	1703.91
195.36	1656.81
195.58	1703.91
195.80	1640.42
196.02	1685.48
196.24	1675.24
196.46	1718.25
196.69	1689.57
196.91	1875.94
197.13	1736.68
197.35	1667.05
197.57	1816.55
197.79	1736.68
198.01	1742.82
198.23	1751.01
198.45	1769.44
198.67	1640.42
198.89	1677.29
199.11	1757.16
199.33	1697.77
199.55	1564.65
199.77	1763.30
199.99	1736.68
200.21	1642.47
200.43	1759.21
200.65	1673.19
200.87	1566.70
201.09	1607.66
201.31	1746.92
201.53	1755.11
201.75	1701.86
201.97	1718.25
202.19	1718.25
202.41	1755.11
202.63	1875.94
202.85	1708.01
203.07	1703.91
203.29	1757.16
203.51	1626.09
203.73	1685.48
203.95	1880.04
204.17	1705.96
204.39	1697.77
204.61	1732.58
204.83	1767.40
205.05	1742.82
205.27	1693.67
205.49	1916.90
205.71	1718.25
205.93	1605.61
206.15	1673.19
206.37	1724.39
206.59	1689.57
206.81	1656.81
207.03	1673.19
207.25	1642.47
207.47	1740.77
207.69	1681.38
207.91	1779.68
208.13	1783.78
208.34	1667.05
208.56	1755.11
208.78	1808.36
209.00	1615.85
209.22	1755.11
209.44	1761.25
209.66	1607.66
209.88	1748.97
210.10	1722.34
210.32	1763.30
210.54	1757.16
210.76	1642.47
210.98	1769.44
211.20	1560.55
211.42	1736.68
211.64	1740.77
211.86	1714.15
212.08	1693.67
212.30	1736.68
212.52	1687.53
212.74	1732.58
212.96	1736.68
213.17	1742.82
213.39	1712.10
213.61	1824.74
213.83	1748.97
214.05	1675.24
214.27	1759.21
214.49	1654.76
214.71	1710.05
214.93	1849.32
215.15	1712.10
215.37	1763.30
215.59	1697.77
215.81	1732.58
216.03	1767.40
216.24	1720.29
216.46	1705.96
216.68	1767.40
216.90	1697.77
217.12	1757.16
217.34	1697.77
217.56	1767.40
217.78	1771.49
218.00	1681.38
218.22	1720.29
218.44	1730.53
218.66	1718.25
218.87	1834.98
219.09	1728.49
219.31	1722.34
219.53	1705.96
219.75	1697.77
219.97	1748.97
220.19	1679.33
220.41	1724.39
220.63	1785.83
220.85	1675.24
221.06	1722.34
221.28	1810.40
221.50	1728.49
221.72	1636.33
221.94	1708.01
222.16	1693.67
222.38	1777.64
222.60	1763.30
222.82	1671.14
223.03	1671.14
223.25	1665.00
223.47	1845.22
223.69	1824.74
223.91	1665.00
224.13	1710.05
224.35	1746.92
224.57	1785.83
224.78	1746.92
225.00	1595.37
225.22	1767.40
225.44	1656.81
225.66	1771.49
225.88	1744.87
226.10	1785.83
226.32	1722.34
226.53	1843.17
226.75	1648.61
226.97	1701.86
227.19	1697.77
227.41	1691.62
227.63	1613.80
227.85	1617.90
228.06	1710.05
228.28	1742.82
228.50	1806.31
228.72	1697.77
228.94	1734.63
229.16	1652.71
229.37	1673.19
229.59	1701.86
229.81	1914.85
230.03	1609.70
230.25	1652.71
230.47	1677.29
230.69	1705.96
230.90	1744.87
231.12	1677.29
231.34	1785.83
231.56	1783.78
231.78	1665.00
232.00	1714.15
232.21	1695.72
232.43	1636.33
232.65	1583.08
232.87	1697.77
233.09	1699.81
233.30	1589.22
233.52	1785.83
233.74	1708.01
233.96	1712.10
234.18	1695.72
234.40	1681.38
234.61	1849.32
234.83	1697.77
235.05	1589.22
235.27	1851.36
235.49	1783.78
235.70	1767.40
235.92	1806.31
236.14	1767.40
236.36	1880.04
236.58	1662.95
236.79	1761.25
237.01	1660.90
237.23	1705.96
237.45	1880.04
237.67	1656.81
237.88	1720.29
238.10	1869.80
238.32	1708.01
238.54	1751.01
238.76	1718.25
238.97	1691.62
239.19	1630.18
239.41	1742.82
239.63	1669.09
239.85	1611.75
240.06	1685.48
240.28	1673.19
240.50	1800.16
240.72	1675.24
240.93	1681.38
241.15	1771.49
241.37	1669.09
241.59	1779.68
241.81	1685.48
242.02	1693.67
242.24	1755.11
242.46	1755.11
242.68	1593.32
242.89	1755.11
243.11	1763.30
243.33	1738.73
243.55	1673.19
243.76	1761.25
243.98	1695.72
244.20	1660.90
244.42	1722.34
244.64	1720.29
244.85	1718.25
245.07	1589.22
245.29	1701.86
245.51	1705.96
245.72	1650.66
245.94	1701.86
246.16	1712.10
246.38	1824.74
246.59	1662.95
246.81	1613.80
247.03	1669.09
247.24	1626.09
247.46	1677.29
247.68	1699.81
247.90	1708.01
248.11	1691.62
248.33	1791.97
248.55	1681.38
248.77	1718.25
248.98	1789.92
249.20	1886.18
249.42	1769.44
249.64	1787.88
249.85	1722.34
250.07	1701.86
250.29	1720.29
250.50	1738.73
250.72	1601.51
250.94	1673.19
251.16	1816.55
251.37	1796.07
251.59	1800.16
251.81	1730.53
252.02	1718.25
252.24	1628.14
252.46	1783.78
252.68	1589.22
252.89	1761.25
253.11	1624.04
253.33	1845.22
253.54	1812.45
253.76	1656.81
253.98	1648.61
254.20	1595.37
254.41	1609.70
254.63	1660.90
254.85	1632.23
255.06	1697.77
255.28	1787.88
255.50	1779.68
255.71	1736.68
255.93	1669.09
256.15	1718.25
256.36	1787.88
256.58	1742.82
256.80	1740.77
257.02	1687.53
257.23	1673.19
257.45	1775.59
257.67	1802.21
257.88	1734.63
258.10	1714.15
258.32	1734.63
258.53	1714.15
258.75	1806.31
258.97	1667.05
259.18	1757.16
259.40	1687.53
259.62	1789.92
259.83	1732.58
260.05	1732.58
260.27	1968.10
260.48	1779.68
260.70	1669.09
260.92	1730.53
261.13	1822.69
261.35	1619.94
261.57	1697.77
261.78	1595.37
262.00	1673.19
262.22	1781.73
262.43	1734.63
262.65	1714.15
262.86	1746.92
263.08	1841.12
263.30	1837.03
263.51	1658.85
263.73	1607.66
263.95	1777.64
264.16	1652.71
264.38	1566.70
264.60	1771.49
264.81	1714.15
265.03	1771.49
265.25	1751.01
265.46	1691.62
265.68	1742.82
265.89	1802.21
266.11	1626.09
266.33	1744.87
266.54	1785.83
266.76	1722.34
266.98	1742.82
267.19	1714.15
267.41	1765.35
267.62	1714.15
267.84	1687.53
268.06	1720.29
268.27	1730.53
268.49	1824.74
268.70	1794.02
268.92	1708.01
269.14	1642.47
269.35	1595.37
269.57	1732.58
269.79	1800.16
270.00	1742.82
270.22	1777.64
270.43	1669.09
270.65	1599.46
270.87	1705.96
271.08	1779.68
271.30	1771.49
271.51	1740.77
271.73	1759.21
271.95	1798.12
272.16	1703.91
272.38	1699.81
272.59	1699.81
272.81	1701.86
273.02	1734.63
273.24	1796.07
273.46	1751.01
273.67	1652.71
273.89	1699.81
274.10	1656.81
274.32	1794.02
274.54	1677.29
274.75	1699.81
274.97	1677.29
275.18	1789.92
275.40	1718.25
275.61	1697.77
275.83	1685.48
276.05	1617.90
276.26	1712.10
276.48	1746.92
276.69	1726.44
276.91	1634.28
277.12	1755.11
277.34	1757.16
277.55	1718.25
277.77	1730.53
277.99	1658.85
278.20	1595.37
278.42	1636.33
278.63	1658.85
278.85	1722.34
279.06	1654.76
279.28	1816.55
279.49	1757.16
279.71	1691.62
279.93	1726.44
280.14	1681.38
280.36	1671.14
280.57	1744.87
280.79	1751.01
281.00	1607.66
281.22	1691.62
281.43	1765.35
281.65	1560.55
281.86	1624.04
282.08	1765.35
282.29	1863.65
282.51	1556.46
282.73	1669.09
282.94	1605.61
283.16	1720.29
283.37	1777.64
283.59	1738.73
283.80	1775.59
284.02	1679.33
284.23	1759.21
284.45	1697.77
284.66	1632.23
284.88	1673.19
285.09	1730.53
285.31	1740.77
285.52	1767.40
285.74	1667.05
285.95	1751.01
286.17	1791.97
286.38	1810.40
286.60	1607.66
286.81	1654.76
287.03	1732.58
287.24	1644.52
287.46	1722.34
287.67	1695.72
287.89	1834.98
288.10	1771.49
288.32	1798.12
288.53	1855.46
288.75	1763.30
288.96	1802.21
289.18	1712.10
289.39	1746.92
289.61	1722.34
289.82	1851.36
290.04	1851.36
290.25	1675.24
290.47	1710.05
290.68	1691.62
290.90	1746.92
291.11	1630.18
291.33	1779.68
291.54	1609.70
291.76	1624.04
291.97	1746.92
292.18	1773.54
292.40	1654.76
292.61	1628.14
292.83	1880.04
293.04	1660.90
293.26	1740.77
293.47	1677.29
293.69	1656.81
293.90	1603.56
294.12	1779.68
294.33	1765.35
294.55	1699.81
294.76	1724.39
294.97	1746.92
295.19	1814.50
295.40	1644.52
295.62	1775.59
295.83	1800.16
296.05	1701.86
296.26	1765.35
296.48	1705.96
296.69	1679.33
296.90	1730.53
297.12	1753.06
297.33	1763.30
297.55	1667.05
297.76	1710.05
297.98	1804.26
298.19	1689.57
298.41	1677.29
298.62	1642.47
298.83	1771.49
299.05	1699.81
299.26	1615.85
299.48	1697.77
299.69	1701.86
299.90	1665.00
300.12	1644.52
300.33	1705.96
300.55	1648.61
300.76	1673.19
300.98	1642.47
301.19	1714.15
301.40	1679.33
301.62	1691.62
301.83	1714.15
302.05	1744.87
302.26	1716.20
302.47	1656.81
302.69	1677.29
302.90	1681.38
303.12	1650.66
303.33	1740.77
303.54	1806.31
303.76	1742.82
303.97	1705.96
304.19	1791.97
304.40	1617.90
304.61	1634.28
304.83	1728.49
305.04	1701.86
305.26	1669.09
305.47	1667.05
305.68	1710.05
305.90	1689.57
306.11	1808.36
306.33	1683.43
306.54	1693.67
306.75	1705.96
306.97	1619.94
307.18	1681.38
307.39	1695.72
307.61	1724.39
307.82	1718.25
308.04	1718.25
308.25	1710.05
308.46	1636.33
308.68	1742.82
308.89	1697.77
309.10	1798.12
309.32	1697.77
309.53	1757.16
309.74	1787.88
309.96	1669.09
310.17	1851.36
310.39	1624.04
310.60	1775.59
310.81	1740.77
311.03	1662.95
311.24	1753.06
311.45	1761.25
311.67	1812.45
311.88	1693.67
312.09	1703.91
312.31	1619.94
312.52	1669.09
312.73	1609.70
312.95	1683.43
313.16	1642.47
313.37	1796.07
313.59	1783.78
313.80	1726.44
314.01	1724.39
314.23	1660.90
314.44	1730.53
314.65	1591.27
314.87	1658.85
315.08	1652.71
315.29	1628.14
315.51	1665.00
315.72	1658.85
315.93	1847.27
316.15	1767.40
316.36	1671.14
316.57	1705.96
316.79	1677.29
317.00	1642.47
317.21	1751.01
317.43	1677.29
317.64	1767.40
317.85	1642.47
318.07	1703.91
318.28	1751.01
318.49	1820.64
318.70	1875.94
318.92	1845.22
319.13	1714.15
319.34	1884.13
319.56	1839.08
319.77	1791.97
319.98	1759.21
320.20	1824.74
320.41	1730.53
320.62	1773.54
320.83	1646.57
321.05	1798.12
321.26	1712.10
321.47	1665.00
321.69	1804.26
321.90	1644.52
322.11	1681.38
322.32	1712.10
322.54	1746.92
322.75	1730.53
322.96	1787.88
323.18	1621.99
323.39	1595.37
323.60	1714.15
323.81	1816.55
324.03	1722.34
324.24	1683.43
324.45	1718.25
324.66	1691.62
324.88	1787.88
325.09	1843.17
325.30	1689.57
325.52	1753.06
325.73	1703.91
325.94	1714.15
326.15	1568.74
326.37	1781.73
326.58	1779.68
326.79	1765.35
327.00	1648.61
327.22	1726.44
327.43	1734.63
327.64	1656.81
327.85	1746.92
328.07	1767.40
328.28	1769.44
328.49	1777.64
328.70	1761.25
328.92	1683.43
329.13	1716.20
329.34	1705.96
329.55	1851.36
329.76	1710.05
329.98	1759.21
330.19	1814.50
330.40	1765.35
330.61	1646.57
330.83	1687.53
331.04	1646.57
331.25	1800.16
331.46	1634.28
331.68	1615.85
331.89	1726.44
332.10	1742.82
332.31	1691.62
332.52	1718.25
332.74	1814.50
332.95	1613.80
333.16	1724.39
333.37	1722.34
333.58	1589.22
333.80	1738.73
334.01	1732.58
334.22	1681.38
334.43	1714.15
334.64	1697.77
334.86	1648.61
335.07	1628.14
335.28	1820.64
335.49	1685.48
335.70	1710.05
335.92	1726.44
336.13	1880.04
336.34	1722.34
336.55	1779.68
336.76	1759.21
336.98	1581.03
337.19	1687.53
337.40	1796.07
337.61	1875.94
337.82	1705.96
338.04	1849.32
338.25	1642.47
338.46	1665.00
338.67	1665.00
338.88	1638.38
339.09	1630.18
339.31	1638.38
339.52	1609.70
339.73	1660.90
339.94	1697.77
340.15	1783.78
340.36	1687.53
340.58	1703.91
340.79	1671.14
341.00	1691.62
341.21	1658.85
341.42	1828.84
341.63	1730.53
341.85	1732.58
342.06	1724.39
342.27	1626.09
342.48	1722.34
342.69	1683.43
342.90	1761.25
343.12	1789.92
343.33	1662.95
343.54	1767.40
343.75	1808.36
343.96	1589.22
344.17	1722.34
344.38	1742.82
344.60	1626.09
344.81	1628.14
345.02	1699.81
345.23	1755.11
345.44	1775.59
345.65	1798.12
345.86	1785.83
346.07	1660.90
346.29	1652.71
346.50	1728.49
346.71	1800.16
346.92	1720.29
347.13	1904.61
347.34	1816.55
347.55	1660.90
347.76	1671.14
347.98	1581.03
348.19	1738.73
348.40	1769.44
348.61	1658.85
348.82	1714.15
349.03	1681.38
349.24	1630.18
349.45	1847.27
349.66	1601.51
349.88	1701.86
350.09	1667.05
350.30	1808.36
350.51	1775.59
350.72	1693.67
350.93	1781.73
351.14	1748.97
351.35	1736.68
351.56	1640.42
351.77	1732.58
351.99	1736.68
352.20	1810.40
352.41	1748.97
352.62	1599.46
352.83	1638.38
353.04	1701.86
353.25	1716.20
353.46	1783.78
353.67	1699.81
353.88	1595.37
354.09	1665.00
354.30	1744.87
354.52	1748.97
354.73	1710.05
354.94	1673.19
355.15	1726.44
355.36	1771.49
355.57	1665.00
355.78	1777.64
355.99	1705.96
356.20	1619.94
356.41	1875.94
356.62	1720.29
356.83	1791.97
357.04	1826.79
357.25	1652.71
357.46	1648.61
357.68	1621.99
357.89	1617.90
358.10	1736.68
358.31	1740.77
358.52	1681.38
358.73	1626.09
358.94	1714.15
359.15	1646.57
359.36	1722.34
359.57	1679.33
359.78	1804.26
359.99	1734.63
360.20	1634.28
360.41	1695.72
360.62	1744.87
360.83	1712.10
361.04	1652.71
361.25	1816.55
361.46	1861.60
361.67	1703.91
361.88	1746.92
362.09	1746.92
362.30	1736.68
362.51	1685.48
362.72	1718.25
362.93	1796.07
363.14	1775.59
363.35	1710.05
363.56	1695.72
363.78	1787.88
363.99	1775.59
364.20	1679.33
364.41	1701.86
364.62	1759.21
364.83	1714.15
365.04	1722.34
365.25	1642.47
365.46	1775.59
365.67	1669.09
365.88	1669.09
366.09	1687.53
366.30	1667.05
366.51	1728.49
366.72	1634.28
366.93	1681.38
367.14	1724.39
367.35	1834.98
367.56	1777.64
367.77	1828.84
367.98	1718.25
368.18	1726.44
368.39	1714.15
368.60	1628.14
368.81	1755.11
369.02	1734.63
369.23	1636.33
369.44	1660.90
369.65	1757.16
369.86	1732.58
370.07	1728.49
370.28	1656.81
370.49	1753.06
370.70	1736.68
370.91	1665.00
371.12	1695.72
371.33	1755.11
371.54	1646.57
371.75	1847.27
371.96	1587.18
372.17	1697.77
372.38	1601.51
372.59	1689.57
372.80	1716.20
373.01	1742.82
373.22	1804.26
373.43	1783.78
373.64	1640.42
373.85	1763.30
374.06	1812.45
374.26	1736.68
374.47	1718.25
374.68	1822.69
374.89	1751.01
375.10	1703.91
375.31	1789.92
375.52	1703.91
375.73	1730.53
375.94	1720.29
376.15	1755.11
376.36	1724.39
376.57	1660.90
376.78	1566.70
376.99	1783.78
377.20	1812.45
377.40	1689.57
377.61	1839.08
377.82	1617.90
378.03	1810.40
378.24	1785.83
378.45	1720.29
378.66	1779.68
378.87	1538.02
379.08	1619.94
379.29	1701.86
379.50	1818.60
379.71	1746.92
379.91	1769.44
380.12	1675.24
380.33	1751.01
380.54	1710.05
380.75	1699.81
380.96	1652.71
381.17	1822.69
381.38	1789.92
381.59	1769.44
381.80	1710.05
382.00	1826.79
382.21	1705.96
382.42	1781.73
382.63	1841.12
382.84	1779.68
383.05	1767.40
383.26	1804.26
383.47	1687.53
383.68	1826.79
383.88	1724.39
384.09	1710.05
384.30	1804.26
384.51	1609.70
384.72	1755.11
384.93	1683.43
385.14	1775.59
385.35	1808.36
385.55	1626.09
385.76	1751.01
385.97	1738.73
386.18	1632.23
386.39	1771.49
386.60	1714.15
386.81	1681.38
387.02	1658.85
387.22	1628.14
387.43	1724.39
387.64	1808.36
387.85	1767.40
388.06	2324.44
388.27	4175.81
388.48	6664.09
388.68	8054.66
388.89	9451.38
389.10	9660.27
389.31	8292.23
389.52	7427.98
389.73	6510.49
389.93	6121.38
390.14	5785.51
390.35	5095.35
390.56	4480.96
390.77	3762.12
390.98	2977.75
391.18	2394.08
391.39	2086.88
391.60	1789.92
391.81	1828.84
392.02	1757.16
392.23	1904.61
392.43	1804.26
392.64	1865.70
392.85	1683.43
393.06	1812.45
393.27	1732.58
393.47	1644.52
393.68	1763.30
393.89	1769.44
394.10	1753.06
394.31	1712.10
394.52	1724.39
394.72	1634.28
394.93	1845.22
395.14	1634.28
395.35	1767.40
395.56	1679.33
395.76	1716.20
395.97	1796.07
396.18	1849.32
396.39	1832.93
396.60	2090.98
396.80	1945.57
397.01	1820.64
397.22	1849.32
397.43	1886.18
397.64	1708.01
397.84	1818.60
398.05	1824.74
398.26	1708.01
398.47	1810.40
398.67	1783.78
398.88	1806.31
399.09	1755.11
399.30	1681.38
399.51	1697.77
399.71	1619.94
399.92	1763.30
400.13	1705.96
400.34	1691.62
400.54	1701.86
400.75	1820.64
400.96	1775.59
401.17	1740.77
401.37	1755.11
401.58	1699.81
401.79	1742.82
402.00	1812.45
402.21	2035.68
402.41	1925.09
402.62	2004.96
402.83	2060.26
403.04	2004.96
403.24	2068.45
403.45	1871.84
403.66	1910.75
403.87	1904.61
404.07	1935.33
404.28	1918.95
404.49	1900.52
404.70	1783.78
404.90	1730.53
405.11	1703.91
405.32	1767.40
405.52	1640.42
405.73	1691.62
405.94	1726.44
406.15	1701.86
406.35	1820.64
406.56	1746.92
406.77	1654.76
406.98	1763.30
407.18	1673.19
407.39	1798.12
407.60	1726.44
407.80	1748.97
408.01	1685.48
408.22	1722.34
408.43	1636.33
408.63	1763.30
408.84	1816.55
409.05	1746.92
409.25	1673.19
409.46	1689.57
409.67	1783.78
409.88	1662.95
410.08	1712.10
410.29	1667.05
410.50	1767.40
410.70	1757.16
410.91	1720.29
411.12	1751.01
411.32	1853.41
411.53	1677.29
411.74	1753.06
411.95	1804.26
412.15	1777.64
412.36	1783.78
412.57	1802.21
412.77	1765.35
412.98	1761.25
413.19	1730.53
413.39	1771.49
413.60	1847.27
413.81	1830.88
414.01	1619.94
414.22	1787.88
414.43	1820.64
414.63	1628.14
414.84	1781.73
415.05	1708.01
415.25	1689.57
415.46	1759.21
415.67	1669.09
415.87	1738.73
416.08	1693.67
416.29	1695.72
416.49	1796.07
416.70	1699.81
416.91	1718.25
417.11	1740.77
417.32	1730.53
417.53	1826.79
417.73	1689.57
417.94	1716.20
418.15	1675.24
418.35	1730.53
418.56	1726.44
418.77	1869.80
418.97	1718.25
419.18	1751.01
419.38	1685.48
419.59	1693.67
419.80	1830.88
420.00	1695.72
420.21	1720.29
420.42	1759.21
420.62	1740.77
420.83	1650.66
421.04	1665.00
421.24	1687.53
421.45	1718.25
421.65	1826.79
421.86	1746.92
422.07	1773.54
422.27	1691.62
422.48	1714.15
422.69	1605.61
422.89	1734.63
423.10	1693.67
423.30	1679.33
423.51	1763.30
423.72	1748.97
423.92	1771.49
424.13	1648.61
424.33	1730.53
424.54	1765.35
424.75	1755.11
424.95	1824.74
425.16	1724.39
425.36	1730.53
425.57	1828.84
425.78	1751.01
425.98	1738.73
426.19	1755.11
426.39	1605.61
426.60	1697.77
426.81	1900.52
427.01	1703.91
427.22	1685.48
427.42	1628.14
427.63	1712.10
427.83	1824.74
428.04	1882.08
428.25	1761.25
428.45	1683.43
428.66	1732.58
428.86	1746.92
429.07	1699.81
429.28	1689.57
429.48	1703.91
429.69	1765.35
429.89	1736.68
430.10	1683.43
430.30	1828.84
430.51	1806.31
430.71	1708.01
430.92	1716.20
431.13	1708.01
431.33	1767.40
431.54	1744.87
431.74	1861.60
431.95	1845.22
432.15	1658.85
432.36	1675.24
432.56	1691.62
432.77	1796.07
432.98	1796.07
433.18	1685.48
433.39	1802.21
433.59	1738.73
433.80	1757.16
434.00	1849.32
434.21	1712.10
434.41	1681.38
434.62	1873.89
434.82	1746.92
435.03	1720.29
435.23	1761.25
435.44	1714.15
435.64	1744.87
435.85	1753.06
436.06	1740.77
436.26	1773.54
436.47	1642.47
436.67	1658.85
436.88	1691.62
437.08	1710.05
437.29	1810.40
437.49	1697.77
437.70	1746.92
437.90	1726.44
438.11	1892.32
438.31	1882.08
438.52	1912.80
438.72	1771.49
438.93	1894.37
439.13	1796.07
439.34	1853.41
439.54	1757.16
439.75	1812.45
439.95	1800.16
440.16	1691.62
440.36	1794.02
440.57	1828.84
440.77	1767.40
440.98	1722.34
441.18	1748.97
441.39	1767.40
441.59	1658.85
441.80	1851.36
442.00	1675.24
442.21	1771.49
442.41	1638.38
442.62	1791.97
442.82	1665.00
443.02	1783.78
443.23	1687.53
443.43	1832.93
443.64	1837.03
443.84	1677.29
444.05	1839.08
444.25	1730.53
444.46	1742.82
444.66	1744.87
444.87	1812.45
445.07	1662.95
445.28	1734.63
445.48	1798.12
445.69	1763.30
445.89	1927.14
446.09	1816.55
446.30	2000.87
446.50	2598.87
446.71	3755.97
446.91	4208.58
447.12	4708.28
447.32	4749.24
447.53	4431.80
447.73	3807.17
447.93	3487.69
448.14	3229.65
448.34	3192.78
448.55	2906.07
448.75	2828.24
448.96	2680.79
449.16	2437.08
449.36	2215.90
449.57	2115.55
449.77	1929.19
449.98	1761.25
450.18	1810.40
450.39	1863.65
450.59	1824.74
450.79	1724.39
451.00	1755.11
451.20	1789.92
451.41	1738.73
451.61	1691.62
451.81	1769.44
452.02	1656.81
452.22	1728.49
452.43	1650.66
452.63	1708.01
452.84	1785.83
453.04	1777.64
453.24	1726.44
453.45	1701.86
453.65	1697.77
453.86	1775.59
454.06	1798.12
454.26	1691.62
454.47	1697.77
454.67	1812.45
454.87	1802.21
455.08	1779.68
455.28	1882.08
455.49	1798.12
455.69	1669.09
455.89	1865.70
456.10	1787.88
456.30	1746.92
456.51	1773.54
456.71	1787.88
456.91	1685.48
457.12	1771.49
457.32	1734.63
457.52	1751.01
457.73	1761.25
457.93	1759.21
458.14	1697.77
458.34	1697.77
458.54	1746.92
458.75	1738.73
458.95	1851.36
459.15	1759.21
459.36	1783.78
459.56	1763.30
459.76	1869.80
459.97	1763.30
460.17	1714.15
460.37	1828.84
460.58	1751.01
460.78	1789.92
460.99	1705.96
461.19	1791.97
461.39	1656.81
461.60	1697.77
461.80	1781.73
462.00	1665.00
462.21	1705.96
462.41	1718.25
462.61	1736.68
462.82	1615.85
463.02	1845.22
463.22	1710.05
463.43	1794.02
463.63	1769.44
463.83	1789.92
464.04	1826.79
464.24	1785.83
464.44	1662.95
464.64	1767.40
464.85	1863.65
465.05	1785.83
465.25	1779.68
465.46	1757.16
465.66	1767.40
465.86	1802.21
466.07	1781.73
466.27	1771.49
466.47	1595.37
466.68	1619.94
466.88	1853.41
467.08	1751.01
467.29	1822.69
467.49	1763.30
467.69	1732.58
467.89	1775.59
468.10	1765.35
468.30	1697.77
468.50	1841.12
468.71	1783.78
468.91	1703.91
469.11	1900.52
469.31	1708.01
469.52	1744.87
469.72	1867.75
469.92	1779.68
470.13	1683.43
470.33	1714.15
470.53	1863.65
470.73	2140.13
470.94	2256.86
471.14	2379.74
471.34	2512.86
471.54	2451.42
471.75	2187.23
471.95	2170.85
472.15	2070.50
472.36	2095.07
472.56	2107.36
472.76	2103.26
472.96	1986.53
473.17	1898.47
473.37	1910.75
473.57	1751.01
473.77	1849.32
473.98	1802.21
474.18	1742.82
474.38	1886.18
474.58	1687.53
474.79	1691.62
474.99	1796.07
475.19	1757.16
475.39	1740.77
475.60	1710.05
475.80	1712.10
476.00	1718.25
476.20	1742.82
476.41	1783.78
476.61	1812.45
476.81	1726.44
477.01	1726.44
477.21	1857.51
477.42	1779.68
477.62	1687.53
477.82	1720.29
478.02	1773.54
478.23	1734.63
478.43	1716.20
478.63	1652.71
478.83	1738.73
479.03	1781.73
479.24	1779.68
479.44	1812.45
479.64	1716.20
479.84	1603.56
480.04	1746.92
480.25	1814.50
480.45	1736.68
480.65	1691.62
480.85	1806.31
481.06	1767.40
481.26	1755.11
481.46	1830.88
481.66	1724.39
481.86	1728.49
482.06	1820.64
482.27	1757.16
482.47	1695.72
482.67	1716.20
482.87	1673.19
483.07	1755.11
483.28	1644.52
483.48	1667.05
483.68	1710.05
483.88	1644.52
484.08	1617.90
484.29	1621.99
484.49	1785.83
484.69	1560.55
484.89	1755.11
485.09	1804.26
485.29	1781.73
485.50	1710.05
485.70	1708.01
485.90	1828.84
486.10	1798.12
486.30	1736.68
486.50	1806.31
486.71	1667.05
486.91	1734.63
487.11	1914.85
487.31	1636.33
487.51	1720.29
487.71	1656.81
487.91	1652.71
488.12	1701.86
488.32	1640.42
488.52	1691.62
488.72	1644.52
488.92	1638.38
489.12	1830.88
489.32	1763.30
489.53	1839.08
489.73	1611.75
489.93	1834.98
490.13	1724.39
490.33	1665.00
490.53	1744.87
490.73	1773.54
490.94	1597.42
491.14	1812.45
491.34	1787.88
491.54	2160.61
491.74	2564.06
491.94	2959.31
492.14	2983.89
492.34	2994.13
492.54	2775.00
492.75	2410.46
492.95	2367.45
493.15	2303.96
493.35	2213.85
493.55	2283.49
493.75	2146.27
493.95	2099.17
494.15	2078.69
494.35	1855.46
494.56	1832.93
494.76	1826.79
494.96	1744.87
495.16	1794.02
495.36	1751.01
495.56	1787.88
495.76	1785.83
495.96	1761.25
496.16	1748.97
496.36	1798.12
496.56	1748.97
496.77	1730.53
496.97	1662.95
497.17	1880.04
497.37	1710.05
497.57	1724.39
497.77	1697.77
497.97	1769.44
498.17	1751.01
498.37	1699.81
498.57	1775.59
498.77	1781.73
498.97	1720.29
499.17	1865.70
499.38	1763.30
499.58	1757.16
499.78	1783.78
499.98	1830.88
500.18	1669.09
500.38	1755.11
500.58	1947.62
500.78	2525.15
500.98	4601.79
501.18	5826.47
501.38	6719.39
501.58	7073.68
501.78	6537.12
501.98	5558.19
502.18	4917.17
502.38	4448.19
502.58	4100.03
502.78	3688.39
502.98	3704.78
503.18	3487.69
503.38	3143.63
503.59	2893.78
503.79	2609.11
503.99	2570.20
504.19	2314.20
504.39	2179.04
504.59	2097.12
504.79	2109.41
504.99	1992.67
505.19	1937.38
505.39	1939.43
505.59	1982.43
505.79	1947.62
505.99	1877.99
506.19	1781.73
506.39	1871.84
506.59	1767.40
506.79	1753.06
506.99	1826.79
507.19	1812.45
507.39	1763.30
507.59	1611.75
507.79	1642.47
507.99	1683.43
508.19	1716.20
508.39	1665.00
508.59	1679.33
508.79	1888.23
508.99	1939.43
509.19	1699.81
509.39	1771.49
509.59	1708.01
509.79	1701.86
509.99	1763.30
510.19	1755.11
510.39	1832.93
510.59	1734.63
510.79	1785.83
510.99	1628.14
511.19	1791.97
511.39	1748.97
511.59	1779.68
511.79	1738.73
511.99	1716.20
512.19	1806.31
512.38	1742.82
512.58	1773.54
512.78	1705.96
512.98	1746.92
513.18	1857.51
513.38	1650.66
513.58	1875.94
513.78	1689.57
513.98	1681.38
514.18	1736.68
514.38	1724.39
514.58	1804.26
514.78	1712.10
514.98	1669.09
515.18	1722.34
515.38	1742.82
515.58	1765.35
515.78	1726.44
515.98	1701.86
516.18	1783.78
516.38	1714.15
516.57	1746.92
516.77	1710.05
516.97	1814.50
517.17	1730.53
517.37	1613.80
517.57	1849.32
517.77	1730.53
517.97	1755.11
518.17	1775.59
518.37	1675.24
518.57	1726.44
518.77	1755.11
518.97	1730.53
519.16	1796.07
519.36	1771.49
519.56	1757.16
519.76	1699.81
519.96	1718.25
520.16	1812.45
520.36	1603.56
520.56	1896.42
520.76	1675.24
520.96	1757.16
521.16	1830.88
521.35	1746.92
521.55	1753.06
521.75	1746.92
521.95	1642.47
522.15	1734.63
522.35	1697.77
522.55	1738.73
522.75	1742.82
522.95	1740.77
523.14	1681.38
523.34	1869.80
523.54	1581.03
523.74	1789.92
523.94	1693.67
524.14	1570.79
524.34	1783.78
524.54	1851.36
524.73	1697.77
524.93	1820.64
525.13	1779.68
525.33	1732.58
525.53	1832.93
525.73	1736.68
525.93	1755.11
526.13	1689.57
526.32	1814.50
526.52	1777.64
526.72	1834.98
526.92	1732.58
527.12	1728.49
527.32	1656.81
527.52	1761.25
527.71	1763.30
527.91	1757.16
528.11	1734.63
528.31	1697.77
528.51	1660.90
528.71	1851.36
528.90	1730.53
529.10	1898.47
529.30	1834.98
529.50	1619.94
529.70	1783.78
529.90	1724.39
530.09	1759.21
530.29	1783.78
530.49	1736.68
530.69	1857.51
530.89	1787.88
531.09	1849.32
531.28	1699.81
531.48	1783.78
531.68	1820.64
531.88	1708.01
532.08	1712.10
532.28	1763.30
532.47	1804.26
532.67	1767.40
532.87	1724.39
533.07	1619.94
533.27	1728.49
533.46	1789.92
533.66	1771.49
533.86	1751.01
534.06	1742.82
534.26	1816.55
534.45	1769.44
534.65	1798.12
534.85	1738.73
535.05	1685.48
535.25	1763.30
535.44	1689.57
535.64	1734.63
535.84	1761.25
536.04	1691.62
536.24	1716.20
536.43	1705.96
536.63	1834.98
536.83	1671.14
537.03	1802.21
537.22	1677.29
537.42	1708.01
537.62	1746.92
537.82	1746.92
538.02	1812.45
538.21	1724.39
538.41	1859.56
538.61	1755.11
538.81	1798.12
539.00	1751.01
539.20	1769.44
539.40	1794.02
539.60	1779.68
539.79	1822.69
539.99	1681.38
540.19	1665.00
540.39	1773.54
540.58	1767.40
540.78	1800.16
540.98	1746.92
541.18	1751.01
541.37	1855.46
541.57	1734.63
541.77	1722.34
541.97	1667.05
542.16	1632.23
542.36	1767.40
542.56	1708.01
542.76	1873.89
542.95	1828.84
543.15	1781.73
543.35	1800.16
543.54	1703.91
543.74	1767.40
543.94	1808.36
544.14	1667.05
544.33	1773.54
544.53	1703.91
544.73	1761.25
544.93	1648.61
545.12	1794.02
545.32	1761.25
545.52	1693.67
545.71	1589.22
545.91	1748.97
546.11	1736.68
546.30	1767.40
546.50	1691.62
546.70	1740.77
546.90	1765.35
547.09	1658.85
547.29	1761.25
547.49	1738.73
547.68	1763.30
547.88	1660.90
548.08	1646.57
548.27	2174.94
548.47	1691.62
548.67	1693.67
548.87	1802.21
549.06	1814.50
549.26	1771.49
549.46	1781.73
549.65	1671.14
549.85	1800.16
550.05	1726.44
550.24	1603.56
550.44	1720.29
550.64	1703.91
550.83	1736.68
551.03	1837.03
551.23	1832.93
551.42	1794.02
551.62	1722.34
551.82	1751.01
552.01	1814.50
552.21	1808.36
552.41	1789.92
552.60	1865.70
552.80	1787.88
553.00	1673.19
553.19	1705.96
553.39	1865.70
553.59	1648.61
553.78	1744.87
553.98	1785.83
554.17	1634.28
554.37	1679.33
554.57	1769.44
554.76	1669.09
554.96	1654.76
555.16	1722.34
555.35	1730.53
555.55	1738.73
555.75	1753.06
555.94	1777.64
556.14	1675.24
556.33	1705.96
556.53	1812.45
556.73	1787.88
556.92	1771.49
557.12	1804.26
557.32	1798.12
557.51	1806.31
557.71	1802.21
557.90	1847.27
558.10	1771.49
558.30	1732.58
558.49	1718.25
558.69	1669.09
558.88	1839.08
559.08	1681.38
559.28	1732.58
559.47	1796.07
559.67	1671.14
559.86	1802.21
560.06	1884.13
560.26	1734.63
560.45	1806.31
560.65	1730.53
560.84	1818.60
561.04	1771.49
561.24	1736.68
561.43	1685.48
561.63	1875.94
561.82	1708.01
562.02	1871.84
562.22	1703.91
562.41	1722.34
562.61	1699.81
562.80	1683.43
563.00	1880.04
563.19	1738.73
563.39	1785.83
563.59	1734.63
563.78	1777.64
563.98	1675.24
564.17	1673.19
564.37	1718.25
564.56	1705.96
564.76	1665.00
564.96	1892.32
565.15	1734.63
565.35	1943.52
565.54	1722.34
565.74	1828.84
565.93	1716.20
566.13	1755.11
566.32	1765.35
566.52	1843.17
566.71	1683.43
566.91	1736.68
567.11	1738.73
567.30	1671.14
567.50	1818.60
567.69	1746.92
567.89	1693.67
568.08	1730.53
568.28	1777.64
568.47	1822.69
568.67	1740.77
568.86	1712.10
569.06	1740.77
569.25	1744.87
569.45	1685.48
569.64	1734.63
569.84	1744.87
570.04	1742.82
570.23	1665.00
570.43	1726.44
570.62	1781.73
570.82	1814.50
571.01	1787.88
571.21	1642.47
571.40	1714.15
571.60	1804.26
571.79	1730.53
571.99	1701.86
572.18	1726.44
572.38	1871.84
572.57	1753.06
572.77	1728.49
572.96	1904.61
573.16	1808.36
573.35	1665.00
573.55	1871.84
573.74	1734.63
573.94	1789.92
574.13	1687.53
574.33	1806.31
574.52	1734.63
574.71	1748.97
574.91	1759.21
575.10	1701.86
575.30	1742.82
575.49	1701.86
575.69	1630.18
575.88	1794.02
576.08	1687.53
576.27	1845.22
576.47	1775.59
576.66	1802.21
576.86	1841.12
577.05	1748.97
577.25	1771.49
577.44	1877.99
577.64	1632.23
577.83	1812.45
578.02	1775.59
578.22	1843.17
578.41	1873.89
578.61	1753.06
578.80	1671.14
579.00	1791.97
579.19	1789.92
579.39	1849.32
579.58	1798.12
579.77	1810.40
579.97	1855.46
580.16	1808.36
580.36	1818.60
580.55	1869.80
580.75	1812.45
580.94	1718.25
581.13	1898.47
581.33	1826.79
581.52	1781.73
581.72	1843.17
581.91	1890.28
582.11	1761.25
582.30	1816.55
582.49	1808.36
582.69	1820.64
582.88	1814.50
583.08	1710.05
583.27	1714.15
583.47	1736.68
583.66	1761.25
583.85	1746.92
584.05	1812.45
584.24	1781.73
584.44	1736.68
584.63	1865.70
584.82	1789.92
585.02	1863.65
585.21	1861.60
585.41	1828.84
585.60	1894.37
585.79	1912.80
585.99	1939.43
586.18	1931.23
586.37	2246.62
586.57	3327.95
586.76	9836.39
586.96	23998.10
587.15	33902.07
587.34	39497.13
587.54	40981.90
587.73	36009.43
587.93	25820.79
588.12	20920.00
588.31	17999.60
588.51	15974.16
588.70	14933.79
588.89	13950.76
589.09	12314.44
589.28	10782.56
589.47	9195.38
589.67	7722.89
589.86	6436.77
590.06	4908.98
590.25	3872.71
590.44	3006.42
590.64	2545.63
590.83	2303.96
591.02	2215.90
591.22	1914.85
591.41	1863.65
591.60	1800.16
591.80	1914.85
591.99	1746.92
592.18	1755.11
592.38	1839.08
592.57	1716.20
592.76	1781.73
592.96	1740.77
593.15	1773.54
593.34	1834.98
593.54	1787.88
593.73	1791.97
593.92	1738.73
594.12	1769.44
594.31	1802.21
594.50	1830.88
594.70	1810.40
594.89	1947.62
595.08	1681.38
595.28	1748.97
595.47	1943.52
595.66	1806.31
595.86	1734.63
596.05	1781.73
596.24	1656.81
596.43	1861.60
596.63	1841.12
596.82	1720.29
597.01	1763.30
597.21	1884.13
597.40	1800.16
597.59	1693.67
597.79	1732.58
597.98	1859.56
598.17	1820.64
598.36	1724.39
598.56	1798.12
598.75	1691.62
598.94	1751.01
599.14	1818.60
599.33	1677.29
599.52	1755.11
599.71	1767.40
599.91	1925.09
600.10	1779.68
600.29	1697.77
600.48	1755.11
600.68	1826.79
600.87	1712.10
601.06	1771.49
601.26	1736.68
601.45	1753.06
601.64	1771.49
601.83	1859.56
602.03	1765.35
602.22	1656.81
602.41	1800.16
602.60	1898.47
602.80	1783.78
602.99	1675.24
603.18	1705.96
603.37	1736.68
603.57	1775.59
603.76	1779.68
603.95	1767.40
604.14	1740.77
604.34	1718.25
604.53	1710.05
604.72	1695.72
604.91	1851.36
605.10	1845.22
605.30	1787.88
605.49	1853.41
605.68	1724.39
605.87	1822.69
606.07	1755.11
606.26	1814.50
606.45	1849.32
606.64	1771.49
606.84	1769.44
607.03	1705.96
607.22	1714.15
607.41	1673.19
607.60	1708.01
607.80	1785.83
607.99	1712.10
608.18	1781.73
608.37	1824.74
608.56	1724.39
608.76	1705.96
608.95	1812.45
609.14	1701.86
609.33	1847.27
609.52	1841.12
609.72	1751.01
609.91	1730.53
610.10	1808.36
610.29	1804.26
610.48	1708.01
610.68	1726.44
610.87	1744.87
611.06	1773.54
611.25	1742.82
611.44	1759.21
611.63	1697.77
611.83	1873.89
612.02	1730.53
612.21	1832.93
612.40	1695.72
612.59	1642.47
612.79	1681.38
612.98	1699.81
613.17	1812.45
613.36	1697.77
613.55	1873.89
613.74	1691.62
613.93	1693.67
614.13	1720.29
614.32	1662.95
614.51	1785.83
614.70	1701.86
614.89	1699.81
615.08	1791.97
615.28	2086.88
615.47	1722.34
615.66	1738.73
615.85	1656.81
616.04	1849.32
616.23	1673.19
616.42	1753.06
616.62	1689.57
616.81	1810.40
617.00	1802.21
617.19	1783.78
617.38	1648.61
617.57	1773.54
617.76	1759.21
617.95	1732.58
618.15	1697.77
618.34	1822.69
618.53	1675.24
618.72	1728.49
618.91	1798.12
619.10	1800.16
619.29	1800.16
619.48	1755.11
619.68	1640.42
619.87	1726.44
620.06	1671.14
620.25	1746.92
620.44	1683.43
620.63	1775.59
620.82	1740.77
621.01	1730.53
621.20	1746.92
621.39	1822.69
621.59	1691.62
621.78	1720.29
621.97	1753.06
622.16	1767.40
622.35	1769.44
622.54	1781.73
622.73	1734.63
622.92	1677.29
623.11	1759.21
623.30	1671.14
623.49	1816.55
623.68	1751.01
623.88	1920.99
624.07	1665.00
624.26	1820.64
624.45	1691.62
624.64	1710.05
624.83	1751.01
625.02	1730.53
625.21	1794.02
625.40	1697.77
625.59	1796.07
625.78	1734.63
625.97	1763.30
626.16	1761.25
626.35	1798.12
626.54	1673.19
626.74	1828.84
626.93	1742.82
627.12	1718.25
627.31	1857.51
627.50	1810.40
627.69	1767.40
627.88	1648.61
628.07	1718.25
628.26	1699.81
628.45	1660.90
628.64	1619.94
628.83	1689.57
629.02	1607.66
629.21	1830.88
629.40	1830.88
629.59	1685.48
629.78	1732.58
629.97	1693.67
630.16	1748.97
630.35	1720.29
630.54	1765.35
630.73	1742.82
630.92	1685.48
631.11	1654.76
631.30	1757.16
631.49	1777.64
631.68	1771.49
631.87	1769.44
632.06	1654.76
632.25	1861.60
632.44	1730.53
632.63	1787.88
632.82	1699.81
633.01	1722.34
633.20	1767.40
633.39	1699.81
633.58	1617.90
633.77	1775.59
633.96	1783.78
634.15	1800.16
634.34	1744.87
634.53	1810.40
634.72	1665.00
634.91	1644.52
635.10	1744.87
635.29	1701.86
635.48	1767.40
635.67	1708.01
635.86	1724.39
636.05	1705.96
636.24	1724.39
636.43	1722.34
636.62	1769.44
636.81	1566.70
637.00	1718.25
637.19	1744.87
637.38	1687.53
637.57	1658.85
637.76	1730.53
637.95	1763.30
638.14	1667.05
638.33	1779.68
638.52	1685.48
638.71	1642.47
638.89	1583.08
639.08	1839.08
639.27	1767.40
639.46	1644.52
639.65	1812.45
639.84	1777.64
640.03	1798.12
640.22	1681.38
640.41	1804.26
640.60	1798.12
640.79	1724.39
640.98	1718.25
641.17	1783.78
641.36	1687.53
641.55	1765.35
641.74	1648.61
641.92	1748.97
642.11	1613.80
642.30	1744.87
642.49	1775.59
642.68	1671.14
642.87	1812.45
643.06	1730.53
643.25	1681.38
643.44	1716.20
643.63	1736.68
643.82	1808.36
644.00	1689.57
644.19	1738.73
644.38	1675.24
644.57	1718.25
644.76	1720.29
644.95	1791.97
645.14	1755.11
645.33	1757.16
645.52	1712.10
645.71	1578.98
645.89	1667.05
646.08	1777.64
646.27	1736.68
646.46	1869.80
646.65	1687.53
646.84	1763.30
647.03	1677.29
647.22	1783.78
647.40	1773.54
647.59	1730.53
647.78	1677.29
647.97	1681.38
648.16	1673.19
648.35	1781.73
648.54	1820.64
648.73	1714.15
648.91	1771.49
649.10	1744.87
649.29	1681.38
649.48	1730.53
649.67	1777.64
649.86	1765.35
650.05	1746.92
650.23	1751.01
650.42	1703.91
650.61	1769.44
650.80	1794.02
650.99	1767.40
651.18	1816.55
651.36	1767.40
651.55	1759.21
651.74	1740.77
651.93	1675.24
652.12	1732.58
652.31	1732.58
652.49	1730.53
652.68	1669.09
652.87	1779.68
653.06	1624.04
653.25	1855.46
653.44	1701.86
653.62	1796.07
653.81	1736.68
654.00	1759.21
654.19	1753.06
654.38	1865.70
654.56	1765.35
654.75	1722.34
654.94	1771.49
655.13	1740.77
655.32	1630.18
655.51	1732.58
655.69	1734.63
655.88	1767.40
656.07	1697.77
656.26	1716.20
656.45	1599.46
656.63	1673.19
656.82	1759.21
657.01	1820.64
657.20	1767.40
657.38	1818.60
657.57	1677.29
657.76	1665.00
657.95	1751.01
658.14	1669.09
658.32	1744.87
658.51	1685.48
658.70	1761.25
658.89	1769.44
659.08	1757.16
659.26	1851.36
659.45	1660.90
659.64	1714.15
659.83	1697.77
660.01	1925.09
660.20	1755.11
660.39	1759.21
660.58	1576.94
660.76	1814.50
660.95	1742.82
661.14	1716.20
661.33	1632.23
661.51	1665.00
661.70	1683.43
661.89	1771.49
662.08	1701.86
662.26	1656.81
662.45	1679.33
662.64	1806.31
662.83	1806.31
663.01	1716.20
663.20	1611.75
663.39	1824.74
663.58	1656.81
663.76	1665.00
663.95	1730.53
664.14	1673.19
664.32	1728.49
664.51	1693.67
664.70	1615.85
664.89	1779.68
665.07	1722.34
665.26	1712.10
665.45	1626.09
665.64	1804.26
665.82	1720.29
666.01	1751.01
666.20	1632.23
666.38	1812.45
666.57	1751.01
666.76	2209.76
666.95	4448.19
667.13	10495.84
667.32	15118.11
667.51	17600.24
667.69	18523.88
667.88	17157.88
668.07	12013.38
668.25	9389.94
668.44	7849.86
668.63	7157.65
668.81	6848.41
669.00	6252.45
669.19	5681.07
669.38	5070.77
669.56	4487.10
669.75	4003.78
669.94	3229.65
670.12	2869.20
670.31	2451.42
670.50	2195.42
670.68	2060.26
670.87	1974.24
671.06	1896.42
671.24	1771.49
671.43	1855.46
671.62	1746.92
671.80	1771.49
671.99	1716.20
672.18	1742.82
672.36	1798.12
672.55	1757.16
672.74	1714.15
672.92	1751.01
673.11	1771.49
673.29	1697.77
673.48	1697.77
673.67	1699.81
673.85	1740.77
674.04	1656.81
674.23	1673.19
674.41	1708.01
674.60	1646.57
674.79	1650.66
674.97	1699.81
675.16	1777.64
675.34	1748.97
675.53	1703.91
675.72	1785.83
675.90	1800.16
676.09	1767.40
676.28	1671.14
676.46	1583.08
676.65	1744.87
676.83	1656.81
677.02	1726.44
677.21	1722.34
677.39	1712.10
677.58	1656.81
677.77	1691.62
677.95	1636.33
678.14	1701.86
678.32	1681.38
678.51	1759.21
678.70	1884.13
678.88	1673.19
679.07	1759.21
679.25	1701.86
679.44	1673.19
679.63	1589.22
679.81	1775.59
680.00	1710.05
680.18	1812.45
680.37	1826.79
680.55	1718.25
680.74	1583.08
680.93	1654.76
681.11	1656.81
681.30	1726.44
681.48	1740.77
681.67	1697.77
681.85	1679.33
682.04	1609.70
682.23	1769.44
682.41	1697.77
682.60	1611.75
682.78	1779.68
682.97	1646.57
683.15	1705.96
683.34	1673.19
683.53	1800.16
683.71	1652.71
683.90	1746.92
684.08	1806.31
684.27	1619.94
684.45	1718.25
684.64	1812.45
684.82	1757.16
685.01	1757.16
685.19	1734.63
685.38	1849.32
685.57	1740.77
685.75	1697.77
685.94	1685.48
686.12	1738.73
686.31	1740.77
686.49	1804.26
686.68	1710.05
686.86	1753.06
687.05	1724.39
687.23	1800.16
687.42	1656.81
687.60	1648.61
687.79	1767.40
687.97	1761.25
688.16	1794.02
688.34	1775.59
688.53	1705.96
688.71	1783.78
688.90	1703.91
689.08	1712.10
689.27	1630.18
689.45	1789.92
689.64	1759.21
689.82	1781.73
690.01	1763.30
690.19	1724.39
690.38	1798.12
690.56	1837.03
690.75	1718.25
690.93	1740.77
691.12	1636.33
691.30	1767.40
691.49	1662.95
691.67	1728.49
691.86	1714.15
692.04	1679.33
692.23	1724.39
692.41	1720.29
692.60	1853.41
692.78	1759.21
692.97	1691.62
693.15	1791.97
693.34	1837.03
693.52	1773.54
693.71	1685.48
693.89	1687.53
694.08	1605.61
694.26	1808.36
694.44	1822.69
694.63	1812.45
694.81	1646.57
695.00	1667.05
695.18	1814.50
695.37	1855.46
695.55	1687.53
695.74	1681.38
695.92	1740.77
696.10	1832.93
696.29	1570.79
696.47	1695.72
696.66	1665.00
696.84	1634.28
697.03	1746.92
697.21	1871.84
697.40	2435.03
697.58	1837.03
697.76	1658.85
697.95	1787.88
698.13	1585.13
698.32	1685.48
698.50	1660.90
698.68	1730.53
698.87	1681.38
699.05	1800.16
699.24	1677.29
699.42	1669.09
699.61	1748.97
699.79	1726.44
699.97	1708.01
700.16	1681.38
700.34	1685.48
700.53	1738.73
700.71	1822.69
700.89	1785.83
701.08	1708.01
701.26	1685.48
701.45	2035.68
701.63	1660.90
701.81	1705.96
702.00	1697.77
702.18	1740.77
702.37	1685.48
702.55	1873.89
702.73	1714.15
702.92	1654.76
703.10	1742.82
703.28	1734.63
703.47	1689.57
703.65	1755.11
703.84	1789.92
704.02	1695.72
704.20	1873.89
704.39	1593.32
704.57	1697.77
704.75	1785.83
704.94	1777.64
705.12	1761.25
705.30	1783.78
705.49	2267.10
705.67	4534.20
705.86	9240.44
706.04	12427.07
706.22	14253.86
706.41	15339.29
706.59	13381.43
706.77	9394.03
706.96	7229.33
707.14	6518.68
707.32	5799.85
707.51	5402.54
707.69	4736.95
707.87	4114.37
708.06	3479.50
708.24	2893.78
708.42	2371.55
708.61	2179.04
708.79	1894.37
708.97	1871.84
709.16	1834.98
709.34	1765.35
709.52	1634.28
709.71	1689.57
709.89	1740.77
710.07	1730.53
710.26	1685.48
710.44	1736.68
710.62	1783.78
710.80	1751.01
710.99	1662.95
711.17	1796.07
711.35	1746.92
711.54	1613.80
711.72	1746.92
711.90	1730.53
712.09	1748.97
712.27	1652.71
712.45	1810.40
712.63	1632.23
712.82	1767.40
713.00	1718.25
713.18	1609.70
713.37	1822.69
713.55	1732.58
713.73	1714.15
713.91	1761.25
714.10	1730.53
714.28	1648.61
714.46	1705.96
714.65	1812.45
714.83	1681.38
715.01	1701.86
715.19	1748.97
715.38	1656.81
715.56	1820.64
715.74	1705.96
715.92	1669.09
716.11	1808.36
716.29	1708.01
716.47	1693.67
716.65	1761.25
716.84	1570.79
717.02	1810.40
717.20	1576.94
717.38	1691.62
717.57	1740.77
717.75	1699.81
717.93	1650.66
718.11	1716.20
718.30	1589.22
718.48	1732.58
718.66	1689.57
718.84	1769.44
719.03	1662.95
719.21	1716.20
719.39	1820.64
719.57	1763.30
719.75	1828.84
719.94	1650.66
720.12	1632.23
720.30	1658.85
720.48	1804.26
720.67	1673.19
720.85	1673.19
721.03	1710.05
721.21	1701.86
721.39	1738.73
721.58	1738.73
721.76	1628.14
721.94	1789.92
722.12	1683.43
722.30	1767.40
722.49	1732.58
722.67	1710.05
722.85	1755.11
723.03	1644.52
723.21	1621.99
723.40	1765.35
723.58	1734.63
723.76	1789.92
723.94	1759.21
724.12	1759.21
724.30	1808.36
724.49	1775.59
724.67	1685.48
724.85	1820.64
725.03	1632.23
725.21	1748.97
725.40	1730.53
725.58	1716.20
725.76	1791.97
725.94	1712.10
726.12	1611.75
726.30	1736.68
726.49	1767.40
726.67	1679.33
726.85	1787.88
727.03	1748.97
727.21	2183.13
727.39	2949.08
727.57	3780.55
727.76	4116.42
727.94	4427.71
728.12	4405.18
728.30	3637.19
728.48	2998.23
728.66	2717.65
728.84	2564.06
729.03	2258.91
729.21	2136.03
729.39	1957.86
729.57	1847.27
729.75	1855.46
729.93	1906.66
730.11	1650.66
730.30	1714.15
730.48	1689.57
730.66	1804.26
730.84	1753.06
731.02	1769.44
731.20	1644.52
731.38	1722.34
731.56	1556.46
731.74	1677.29
731.93	1757.16
732.11	1722.34
732.29	1691.62
732.47	1771.49
732.65	1738.73
732.83	1791.97
733.01	1765.35
733.19	1675.24
733.37	1734.63
733.56	1767.40
733.74	1720.29
733.92	1779.68
734.10	1757.16
734.28	1771.49
734.46	1583.08
734.64	1667.05
734.82	1722.34
735.00	1675.24
735.18	1697.77
735.36	1695.72
735.54	1714.15
735.73	1763.30
735.91	1677.29
736.09	1820.64
736.27	1720.29
736.45	1705.96
736.63	1697.77
736.81	1718.25
736.99	1746.92
737.17	1816.55
737.35	1718.25
737.53	1800.16
737.71	1697.77
737.89	1824.74
738.07	1683.43
738.25	1665.00
738.43	1591.27
738.61	1767.40
738.80	1671.14
738.98	1589.22
739.16	1648.61
739.34	1714.15
739.52	1808.36
739.70	1687.53
739.88	1751.01
740.06	1777.64
740.24	1581.03
740.42	1740.77
740.60	1613.80
740.78	1687.53
740.96	1722.34
741.14	1714.15
741.32	1771.49
741.50	1662.95
741.68	1941.47
741.86	1738.73
742.04	1710.05
742.22	1660.90
742.40	1720.29
742.58	1751.01
742.76	1687.53
742.94	1816.55
743.12	1644.52
743.30	1658.85
743.48	1738.73
743.66	1691.62
743.84	1773.54
744.02	1728.49
744.20	1656.81
744.38	1617.90
744.56	1677.29
744.74	1812.45
744.92	1646.57
745.10	1828.84
745.28	1746.92
745.46	1877.99
745.64	1710.05
745.82	1753.06
746.00	1662.95
746.18	1759.21
746.36	1687.53
746.54	1720.29
746.72	1624.04
746.90	1636.33
747.08	1837.03
747.26	1708.01
747.44	1738.73
747.62	1763.30
747.80	1681.38
747.98	1708.01
748.15	1724.39
748.33	1763.30
748.51	1689.57
748.69	1683.43
748.87	1710.05
749.05	1726.44
749.23	1796.07
749.41	1710.05
749.59	1685.48
749.77	1783.78
749.95	1767.40
750.13	1654.76
750.31	1736.68
750.49	1734.63
750.67	1669.09
750.85	1787.88
751.03	1767.40
751.20	1880.04
751.38	1710.05
751.56	1683.43
751.74	1701.86
751.92	1619.94
752.10	1656.81
752.28	1789.92
752.46	1679.33
752.64	1736.68
752.82	1667.05
753.00	1853.41
753.18	1712.10
753.35	1675.24
753.53	1689.57
753.71	1746.92
753.89	1732.58
754.07	1736.68
754.25	1751.01
754.43	1769.44
754.61	1667.05
754.79	1728.49
754.97	1648.61
755.14	1785.83
755.32	1667.05
755.50	1673.19
755.68	1669.09
755.86	1628.14
756.04	1755.11
756.22	1615.85
756.40	1746.92
756.57	1861.60
756.75	1681.38
756.93	1685.48
757.11	1763.30
757.29	1652.71
757.47	1734.63
757.65	1642.47
757.82	1624.04
758.00	1624.04
758.18	1691.62
758.36	1675.24
758.54	1789.92
758.72	1621.99
758.90	1738.73
759.07	1781.73
759.25	1611.75
759.43	1765.35
759.61	1673.19
759.79	2228.19
759.97	1720.29
760.15	1667.05
760.32	1757.16
760.50	1705.96
760.68	1796.07
760.86	1615.85
761.04	1710.05
761.22	1755.11
761.39	1769.44
761.57	1789.92
761.75	1783.78
761.93	1767.40
762.11	1728.49
762.28	1671.14
762.46	1718.25
762.64	1705.96
762.82	1689.57
763.00	1691.62
763.18	1748.97
763.35	1677.29
763.53	1738.73
763.71	1677.29
763.89	1615.85
764.07	1720.29
764.24	1763.30
764.42	1783.78
764.60	1683.43
764.78	1718.25
764.96	1834.98
765.13	1726.44
765.31	1669.09
765.49	1708.01
765.67	1609.70
765.84	1675.24
766.02	1701.86
766.20	1628.14
766.38	1751.01
766.56	1777.64
766.73	1683.43
766.91	1669.09
767.09	1777.64
767.27	1728.49
767.44	1675.24
767.62	1675.24
767.80	1771.49
767.98	1687.53
768.15	1718.25
768.33	1822.69
768.51	1726.44
768.69	1751.01
768.87	1703.91
769.04	1699.81
769.22	1918.95
769.40	1822.69
769.58	1853.41
769.75	1720.29
769.93	1771.49
770.11	1677.29
770.28	1671.14
770.46	1722.34
770.64	1662.95
770.82	1710.05
770.99	1650.66
771.17	1728.49
771.35	1726.44
771.53	1767.40
771.70	1677.29
771.88	1767.40
772.06	1761.25
772.23	1726.44
772.41	1712.10
772.59	1675.24
772.77	1658.85
772.94	1714.15
773.12	1736.68
773.30	1701.86
773.47	1765.35
773.65	1710.05
773.83	1810.40
774.01	1693.67
774.18	1605.61
774.36	1728.49
774.54	1597.42
774.71	1724.39
774.89	1556.46
775.07	1667.05
775.24	1667.05
775.42	1662.95
775.60	1892.32
775.78	1738.73
775.95	1667.05
776.13	1654.76
776.31	1673.19
776.48	1671.14
776.66	1787.88
776.84	1650.66
777.01	1665.00
777.19	1714.15
777.37	1730.53
777.54	1720.29
777.72	1820.64
777.90	1687.53
778.07	1675.24
778.25	1880.04
778.43	1781.73
778.60	1699.81
778.78	1763.30
778.96	1783.78
779.13	1665.00
779.31	1816.55
779.49	1755.11
779.66	1773.54
779.84	1730.53
780.01	1626.09
780.19	1591.27
780.37	1730.53
780.54	1734.63
780.72	1593.32
780.90	1712.10
781.07	1746.92
781.25	1742.82
781.43	1656.81
781.60	1673.19
781.78	1898.47
781.95	1773.54
782.13	1681.38
782.31	1681.38
782.48	1603.56
782.66	1726.44
782.83	1802.21
783.01	1802.21
783.19	1781.73
783.36	1738.73
783.54	1693.67
783.72	1773.54
783.89	1734.63
784.07	1806.31
784.24	1779.68
784.42	1867.75
784.60	1646.57
784.77	1673.19
784.95	1638.38
785.12	1681.38
785.30	1753.06
785.47	1708.01
785.65	1642.47
785.83	1697.77
786.00	1710.05
786.18	1708.01
786.35	1587.18
786.53	1593.32
786.71	1724.39
786.88	1779.68
787.06	1759.21
787.23	1679.33
787.41	1626.09
787.58	1773.54
787.76	1611.75
787.94	1695.72
788.11	1703.91
788.29	1652.71
788.46	1689.57
788.64	1648.61
788.81	1662.95
788.99	1687.53
789.16	1630.18
789.34	1703.91
789.52	1617.90
789.69	1740.77
789.87	1603.56
790.04	1667.05
790.22	1683.43
790.39	1869.80
790.57	1644.52
790.74	1681.38
790.92	1783.78
791.09	1613.80
791.27	1708.01
791.44	1812.45
791.62	1681.38
791.79	1755.11
791.97	1673.19
792.15	1875.94
792.32	1742.82
792.50	1701.86
792.67	1769.44
792.85	1769.44
793.02	1699.81
793.20	1703.91
793.37	1628.14
793.55	1673.19
793.72	1683.43
793.90	1712.10
794.07	1650.66
794.25	1611.75
794.42	1716.20
794.60	1667.05
794.77	1761.25
794.95	1849.32
795.12	1695.72
795.30	1697.77
795.47	1595.37
795.65	1910.75
795.82	1759.21
796.00	1705.96
796.17	1673.19
796.34	1673.19
796.52	1738.73
796.69	1673.19
796.87	1724.39
797.04	1761.25
797.22	1736.68
797.39	1683.43
797.57	1757.16
797.74	1697.77
797.92	1730.53
798.09	1658.85
798.27	1703.91
798.44	1671.14
798.62	1654.76
798.79	1738.73
798.96	1705.96
799.14	1757.16
799.31	1904.61
799.49	1677.29
799.66	1662.95
799.84	1718.25
800.01	1599.46
800.19	1732.58
800.36	1648.61
800.53	1722.34
800.71	1730.53
800.88	1822.69
801.06	1705.96
801.23	1712.10
801.41	1665.00
801.58	1652.71
801.75	1753.06
801.93	1771.49
802.10	1699.81
802.28	1740.77
802.45	1683.43
802.63	1812.45
802.80	1765.35
802.97	1656.81
803.15	1775.59
803.32	1724.39
803.50	1665.00
803.67	1648.61
803.84	1619.94
804.02	1734.63
804.19	1617.90
804.37	1544.17
804.54	1656.81
804.71	1677.29
804.89	1726.44
805.06	1703.91
805.24	1587.18
805.41	1595.37
805.58	1634.28
805.76	1808.36
805.93	1761.25
806.10	1732.58
806.28	1759.21
806.45	1671.14
806.63	1685.48
806.80	1742.82
806.97	1710.05
807.15	1759.21
807.32	1738.73
807.49	1658.85
807.67	1673.19
807.84	1785.83
808.01	1634.28
808.19	1787.88
808.36	1806.31
808.54	1683.43
808.71	1685.48
808.88	1734.63
809.06	1697.77
809.23	1847.27
809.40	1681.38
809.58	1724.39
809.75	1701.86
809.92	1697.77
810.10	1822.69
810.27	1718.25
810.44	1726.44
810.62	1669.09
810.79	1679.33
810.96	1648.61
811.14	1691.62
811.31	1703.91
811.48	1720.29
811.66	1675.24
811.83	1761.25
812.00	1710.05
812.18	1697.77
812.35	1798.12
812.52	1722.34
812.69	1615.85
812.87	1724.39
813.04	1667.05
813.21	1712.10
813.39	1673.19
813.56	1701.86
813.73	1771.49
813.91	1611.75
814.08	1718.25
814.25	1724.39
814.42	1560.55
814.60	1689.57
814.77	1675.24
814.94	1615.85
815.12	1710.05
815.29	1791.97
815.46	1669.09
815.63	1697.77
815.81	1732.58
815.98	1703.91
816.15	1662.95
816.33	1708.01
816.50	1755.11
816.67	1705.96
816.84	1710.05
817.02	1681.38
817.19	1740.77
817.36	1667.05
817.53	1689.57
817.71	1632.23
817.88	1791.97
818.05	1705.96
818.22	1689.57
818.40	1730.53
818.57	1722.34
818.74	1716.20
818.91	1587.18
819.09	1730.53
819.26	1777.64
819.43	1642.47
819.60	1738.73
819.78	1763.30
819.95	1769.44
820.12	1621.99
820.29	1820.64
820.47	1687.53
820.64	1728.49
820.81	1607.66
820.98	1652.71
821.15	1681.38
821.33	1769.44
821.50	1544.17
821.67	1728.49
821.84	1675.24
822.02	1740.77
822.19	1808.36
822.36	1722.34
822.53	1658.85
822.70	1650.66
822.88	1730.53
823.05	1757.16
823.22	1722.34
823.39	1681.38
823.56	1685.48
823.74	1849.32
823.91	1615.85
824.08	1716.20
824.25	1685.48
824.42	1810.40
824.60	1589.22
824.77	1726.44
824.94	1699.81
825.11	1699.81
825.28	1681.38
825.45	1810.40
825.63	1783.78
825.80	1714.15
825.97	1691.62
826.14	1697.77
826.31	1591.27
826.48	1636.33
826.66	1734.63
826.83	1685.48
827.00	1769.44
827.17	1619.94
827.34	1730.53
827.51	1640.42
827.69	1716.20
827.86	1675.24
828.03	1722.34
828.20	1755.11
828.37	1716.20
828.54	1757.16
828.71	1630.18
828.89	1796.07
829.06	1697.77
829.23	1755.11
829.40	1632.23
829.57	1734.63
829.74	1716.20
829.91	1599.46
830.09	1724.39
830.26	1720.29
830.43	1773.54
830.60	1699.81
830.77	1740.77
830.94	1714.15
831.11	1740.77
831.28	1751.01
831.46	1757.16
831.63	1685.48
831.80	1779.68
831.97	1710.05
832.14	1667.05
832.31	1742.82
832.48	1763.30
832.65	1755.11
832.82	1689.57
832.99	1734.63
833.17	1662.95
833.34	1800.16
833.51	1705.96
833.68	1574.89
833.85	1748.97
834.02	1613.80
834.19	1644.52
834.36	1650.66
834.53	1708.01
834.70	1726.44
834.87	1714.15
835.04	1738.73
835.22	1767.40
835.39	1658.85
835.56	1648.61
835.73	1724.39
835.90	1751.01
836.07	1593.32
836.24	1724.39
836.41	1744.87
836.58	1714.15
836.75	1708.01
836.92	1695.72
837.09	1710.05
837.26	1689.57
837.43	1669.09
837.60	1771.49
837.77	1708.01
837.94	1744.87
838.12	1736.68
838.29	1728.49
838.46	1675.24
838.63	1671.14
838.80	1789.92
838.97	1787.88
839.14	1763.30
839.31	1773.54
839.48	1746.92
839.65	1703.91
839.82	1794.02
839.99	1705.96
840.16	1677.29
840.33	1759.21
840.50	1683.43
840.67	1681.38
840.84	1554.41
841.01	1730.53
841.18	1699.81
841.35	1691.62
841.52	1771.49
841.69	1908.71
841.86	1716.20
842.03	1665.00
842.20	1697.77
842.37	1638.38
842.54	1693.67
842.71	1677.29
842.88	1578.98
843.05	1740.77
843.22	1693.67
843.39	1726.44
843.56	1689.57
843.73	1734.63
843.90	1775.59
844.07	1683.43
844.24	1787.88
844.41	1714.15
844.58	1720.29
844.75	1701.86
844.92	1806.31
845.09	1703.91
845.26	1693.67
845.43	1771.49
845.60	1673.19
845.77	1822.69
845.94	1775.59
846.10	1855.46
846.27	1669.09
846.44	1673.19
846.61	1667.05
846.78	1724.39
846.95	1734.63
847.12	1751.01
847.29	1712.10
847.46	1720.29
847.63	1742.82
847.80	1714.15
847.97	1710.05
848.14	1841.12
848.31	1724.39
848.48	1671.14
848.65	1724.39
848.82	1685.48
848.98	1892.32
849.15	1716.20
849.32	1697.77
849.49	1697.77
849.66	1667.05
849.83	1744.87
850.00	1644.52
850.17	1740.77
850.34	1683.43
850.51	1691.62
850.68	1726.44
850.85	1892.32
851.01	1728.49
851.18	1705.96
851.35	1724.39
851.52	1767.40
851.69	1757.16
851.86	1621.99
852.03	1685.48
852.20	1689.57
852.37	1736.68
852.53	1644.52
852.70	1712.10
852.87	1759.21
853.04	1718.25
853.21	1691.62
853.38	1714.15
853.55	1753.06
853.72	1773.54
853.89	1703.91
854.05	1673.19
854.22	1671.14
854.39	1685.48
854.56	1705.96
854.73	1796.07
854.90	1730.53
855.07	1574.89
855.23	1648.61
855.40	1658.85
855.57	1687.53
855.74	1632.23
855.91	1880.04
856.08	1650.66
856.25	1648.61
856.41	1761.25
856.58	1685.48
856.75	1691.62
856.92	1685.48
857.09	1765.35
857.26	1642.47
857.42	1687.53
857.59	1789.92
857.76	1714.15
857.93	1802.21
858.10	1687.53
858.27	1619.94
858.43	1675.24
858.60	1624.04
858.77	1634.28
858.94	1675.24
859.11	1755.11
859.27	1656.81
859.44	1730.53
859.61	1822.69
859.78	1671.14
859.95	1640.42
860.12	1679.33
860.28	1847.27
860.45	1849.32
860.62	1665.00
860.79	1660.90
860.95	1642.47
861.12	1624.04
861.29	1697.77
861.46	1658.85
861.63	1701.86
861.79	1728.49
861.96	1734.63
862.13	1642.47
862.30	1720.29
862.47	1677.29
862.63	1656.81
862.80	1718.25
862.97	1691.62
863.14	1716.20
863.30	1787.88
863.47	1609.70
863.64	1775.59
863.81	1701.86
863.97	1705.96
864.14	1783.78
864.31	1710.05
864.48	1732.58
864.65	1716.20
864.81	1765.35
864.98	1683.43
865.15	1662.95
865.32	1738.73
865.48	1755.11
865.65	1800.16
865.82	1695.72
865.98	1806.31
866.15	1685.48
866.32	1673.19
866.49	1644.52
866.65	1726.44
866.82	1798.12
866.99	1662.95
867.16	1781.73
867.32	1660.90
867.49	1708.01
867.66	1701.86
867.83	1697.77
867.99	1646.57
868.16	1736.68
868.33	1675.24
868.49	1691.62
868.66	1705.96
868.83	1826.79
868.99	1755.11
869.16	1667.05
869.33	1783.78
869.50	1765.35
869.66	1771.49
869.83	1677.29
870.00	1683.43
870.16	1796.07
870.33	1626.09
870.50	1794.02
870.66	1769.44
870.83	1796.07
871.00	1773.54
871.17	1708.01
871.33	1736.68
871.50	1705.96
871.67	1679.33
871.83	1626.09
872.00	1814.50
872.17	1722.34
872.33	1843.17
872.50	1732.58
872.67	1718.25
872.83	1689.57
873.00	1732.58
873.17	1683.43
873.33	1781.73
873.50	1746.92
873.67	1619.94
873.83	1675.24
874.00	1791.97
874.16	1812.45
874.33	1753.06
874.50	1710.05
874.66	1767.40
874.83	1732.58
875.00	1785.83
875.16	1734.63
875.33	1800.16
875.50	1656.81
875.66	1687.53
875.83	1712.10
875.99	1769.44
876.16	1679.33
876.33	1679.33
876.49	1718.25
876.66	1767.40
876.83	1667.05
876.99	1634.28
877.16	1667.05
877.32	1724.39
877.49	1677.29
877.66	1652.71
877.82	1718.25
877.99	1708.01
878.15	1751.01
878.32	1763.30
878.49	1738.73
878.65	1665.00
878.82	1812.45
878.98	1726.44
879.15	1755.11
879.32	1722.34
879.48	1683.43
879.65	1689.57
879.81	1718.25
879.98	1689.57
880.15	1687.53
880.31	1703.91
880.48	1632.23
880.64	1791.97
880.81	1759.21
880.97	1798.12
881.14	1720.29
881.31	1617.90
881.47	1849.32
881.64	1824.74
881.80	1636.33
881.97	1685.48
882.13	1806.31
882.30	1662.95
882.47	1710.05
882.63	1650.66
882.80	1671.14
882.96	1658.85
883.13	1757.16
883.29	1738.73
883.46	1671.14
883.62	1923.04
883.79	1730.53
883.95	1775.59
884.12	1679.33
884.29	1734.63
884.45	1705.96
884.62	1751.01
884.78	1691.62
884.95	1755.11
885.11	1677.29
885.28	1705.96
885.44	1691.62
885.61	1787.88
885.77	1771.49
885.94	1726.44
886.10	1697.77
886.27	1703.91
886.43	1808.36
886.60	1789.92
886.76	1652.71
886.93	1654.76
887.09	1722.34
887.26	1640.42
887.42	1722.34
887.59	1767.40
887.75	1808.36
887.92	1771.49
888.08	1755.11
888.25	1730.53
888.41	1794.02
888.58	1673.19
888.74	1673.19
888.91	1654.76
>>>>>End Processed Spectral Data<<<<<
