SpectraSuite Data File
++++++++++++++++++++++++++++++++++++
Date: Mon Jun 06 14:26:57 CEST 2016
User: root
Dark Spectrum Present: No
Reference Spectrum Present: No
Number of Sampled Component Spectra: 1
Spectrometers: USB4C02835
Integration Time (usec): 100000 (USB4C02835)
Spectra Averaged: 1 (USB4C02835)
Boxcar Smoothing: 0 (USB4C02835)
Correct for Electrical Dark: No (USB4C02835)
Strobe/Lamp Enabled: No (USB4C02835)
Correct for Detector Non-linearity: No (USB4C02835)
Correct for Stray Light: No (USB4C02835)
Number of Pixels in Processed Spectrum: 3648
>>>>>Begin Processed Spectral Data<<<<<
177.47	1462.25
177.69	1462.25
177.91	1462.25
178.13	1486.83
178.36	1515.50
178.58	1630.18
178.80	1718.25
179.02	1654.76
179.24	1650.66
179.46	1742.82
179.68	1697.77
179.90	1691.62
180.13	1705.96
180.35	1644.52
180.57	1689.57
180.79	1726.44
181.01	1724.39
181.23	1755.11
181.45	1796.07
181.67	1718.25
181.90	1820.64
182.12	1665.00
182.34	1570.79
182.56	1691.62
182.78	1769.44
183.00	1675.24
183.22	1744.87
183.44	1646.57
183.66	1822.69
183.89	1884.13
184.11	1789.92
184.33	1712.10
184.55	1755.11
184.77	1769.44
184.99	1665.00
185.21	1755.11
185.43	1904.61
185.65	1636.33
185.87	1794.02
186.10	1791.97
186.32	1814.50
186.54	1843.17
186.76	1779.68
186.98	1789.92
187.20	1718.25
187.42	1683.43
187.64	1705.96
187.86	1705.96
188.08	1742.82
188.30	1689.57
188.52	1681.38
188.75	1785.83
188.97	1773.54
189.19	1677.29
189.41	1667.05
189.63	1607.66
189.85	1654.76
190.07	1687.53
190.29	1585.13
190.51	1689.57
190.73	1595.37
190.95	1798.12
191.17	1687.53
191.39	1646.57
191.61	1755.11
191.84	1712.10
192.06	1687.53
192.28	1644.52
192.50	1896.42
192.72	1728.49
192.94	1677.29
193.16	1746.92
193.38	1740.77
193.60	1673.19
193.82	1640.42
194.04	1812.45
194.26	1714.15
194.48	1691.62
194.70	1646.57
194.92	1748.97
195.14	1771.49
195.36	1609.70
195.58	1718.25
195.80	1699.81
196.02	1734.63
196.24	1695.72
196.46	1718.25
196.69	1683.43
196.91	1898.47
197.13	1701.86
197.35	1658.85
197.57	1826.79
197.79	1798.12
198.01	1705.96
198.23	1748.97
198.45	1720.29
198.67	1693.67
198.89	1734.63
199.11	1718.25
199.33	1650.66
199.55	1527.78
199.77	1699.81
199.99	1687.53
200.21	1568.74
200.43	1710.05
200.65	1695.72
200.87	1650.66
201.09	1703.91
201.31	1660.90
201.53	1771.49
201.75	1693.67
201.97	1679.33
202.19	1744.87
202.41	1761.25
202.63	1787.88
202.85	1691.62
203.07	1708.01
203.29	1701.86
203.51	1589.22
203.73	1650.66
203.95	1791.97
204.17	1722.34
204.39	1722.34
204.61	1648.61
204.83	1695.72
205.05	1783.78
205.27	1773.54
205.49	1775.59
205.71	1650.66
205.93	1603.56
206.15	1681.38
206.37	1693.67
206.59	1724.39
206.81	1642.47
207.03	1621.99
207.25	1619.94
207.47	1726.44
207.69	1638.38
207.91	1755.11
208.13	1734.63
208.34	1703.91
208.56	1597.42
208.78	1738.73
209.00	1656.81
209.22	1603.56
209.44	1728.49
209.66	1699.81
209.88	1626.09
210.10	1693.67
210.32	1679.33
210.54	1796.07
210.76	1685.48
210.98	1716.20
211.20	1611.75
211.42	1761.25
211.64	1726.44
211.86	1665.00
212.08	1796.07
212.30	1689.57
212.52	1656.81
212.74	1632.23
212.96	1767.40
213.17	1765.35
213.39	1730.53
213.61	1791.97
213.83	1665.00
214.05	1689.57
214.27	1728.49
214.49	1665.00
214.71	1710.05
214.93	1785.83
215.15	1734.63
215.37	1767.40
215.59	1615.85
215.81	1701.86
216.03	1738.73
216.24	1689.57
216.46	1742.82
216.68	1720.29
216.90	1718.25
217.12	1675.24
217.34	1744.87
217.56	1732.58
217.78	1800.16
218.00	1697.77
218.22	1617.90
218.44	1724.39
218.66	1673.19
218.87	1814.50
219.09	1732.58
219.31	1722.34
219.53	1730.53
219.75	1656.81
219.97	1673.19
220.19	1693.67
220.41	1642.47
220.63	1781.73
220.85	1722.34
221.06	1738.73
221.28	1837.03
221.50	1763.30
221.72	1718.25
221.94	1728.49
222.16	1677.29
222.38	1742.82
222.60	1779.68
222.82	1697.77
223.03	1769.44
223.25	1585.13
223.47	1724.39
223.69	1896.42
223.91	1687.53
224.13	1751.01
224.35	1669.09
224.57	1763.30
224.78	1738.73
225.00	1716.20
225.22	1785.83
225.44	1609.70
225.66	1701.86
225.88	1701.86
226.10	1734.63
226.32	1734.63
226.53	1718.25
226.75	1652.71
226.97	1673.19
227.19	1626.09
227.41	1632.23
227.63	1718.25
227.85	1597.42
228.06	1705.96
228.28	1712.10
228.50	1759.21
228.72	1626.09
228.94	1720.29
229.16	1624.04
229.37	1648.61
229.59	1632.23
229.81	1777.64
230.03	1642.47
230.25	1638.38
230.47	1685.48
230.69	1636.33
230.90	1761.25
231.12	1710.05
231.34	1665.00
231.56	1789.92
231.78	1699.81
232.00	1712.10
232.21	1648.61
232.43	1656.81
232.65	1560.55
232.87	1673.19
233.09	1652.71
233.30	1656.81
233.52	1634.28
233.74	1779.68
233.96	1669.09
234.18	1689.57
234.40	1701.86
234.61	1839.08
234.83	1636.33
235.05	1517.54
235.27	1939.43
235.49	1755.11
235.70	1738.73
235.92	1759.21
236.14	1771.49
236.36	1906.66
236.58	1646.57
236.79	1779.68
237.01	1703.91
237.23	1681.38
237.45	1765.35
237.67	1677.29
237.88	1675.24
238.10	1830.88
238.32	1630.18
238.54	1695.72
238.76	1669.09
238.97	1648.61
239.19	1658.85
239.41	1785.83
239.63	1779.68
239.85	1714.15
240.06	1738.73
240.28	1628.14
240.50	1669.09
240.72	1689.57
240.93	1734.63
241.15	1820.64
241.37	1746.92
241.59	1814.50
241.81	1761.25
242.02	1730.53
242.24	1695.72
242.46	1791.97
242.68	1640.42
242.89	1650.66
243.11	1748.97
243.33	1679.33
243.55	1640.42
243.76	1732.58
243.98	1662.95
244.20	1763.30
244.42	1695.72
244.64	1773.54
244.85	1583.08
245.07	1681.38
245.29	1794.02
245.51	1775.59
245.72	1683.43
245.94	1699.81
246.16	1685.48
246.38	1810.40
246.59	1701.86
246.81	1669.09
247.03	1667.05
247.24	1662.95
247.46	1628.14
247.68	1748.97
247.90	1728.49
248.11	1732.58
248.33	1681.38
248.55	1720.29
248.77	1687.53
248.98	1734.63
249.20	1730.53
249.42	1751.01
249.64	1679.33
249.85	1660.90
250.07	1693.67
250.29	1755.11
250.50	1759.21
250.72	1609.70
250.94	1712.10
251.16	1849.32
251.37	1802.21
251.59	1695.72
251.81	1640.42
252.02	1755.11
252.24	1642.47
252.46	1708.01
252.68	1630.18
252.89	1689.57
253.11	1593.32
253.33	1763.30
253.54	1693.67
253.76	1695.72
253.98	1662.95
254.20	1673.19
254.41	1669.09
254.63	1685.48
254.85	1644.52
255.06	1701.86
255.28	1767.40
255.50	1634.28
255.71	1621.99
255.93	1693.67
256.15	1640.42
256.36	1812.45
256.58	1716.20
256.80	1738.73
257.02	1738.73
257.23	1679.33
257.45	1732.58
257.67	1787.88
257.88	1695.72
258.10	1720.29
258.32	1693.67
258.53	1685.48
258.75	1814.50
258.97	1716.20
259.18	1740.77
259.40	1693.67
259.62	1796.07
259.83	1816.55
260.05	1796.07
260.27	2013.15
260.48	1728.49
260.70	1689.57
260.92	1685.48
261.13	1710.05
261.35	1748.97
261.57	1726.44
261.78	1599.46
262.00	1640.42
262.22	1808.36
262.43	1703.91
262.65	1732.58
262.86	1703.91
263.08	1865.70
263.30	1734.63
263.51	1619.94
263.73	1710.05
263.95	1771.49
264.16	1689.57
264.38	1701.86
264.60	1693.67
264.81	1669.09
265.03	1781.73
265.25	1779.68
265.46	1736.68
265.68	1740.77
265.89	1705.96
266.11	1619.94
266.33	1673.19
266.54	1808.36
266.76	1771.49
266.98	1724.39
267.19	1814.50
267.41	1771.49
267.62	1683.43
267.84	1628.14
268.06	1699.81
268.27	1716.20
268.49	1701.86
268.70	1755.11
268.92	1699.81
269.14	1675.24
269.35	1626.09
269.57	1787.88
269.79	1751.01
270.00	1603.56
270.22	1763.30
270.43	1687.53
270.65	1574.89
270.87	1705.96
271.08	1812.45
271.30	1757.16
271.51	1705.96
271.73	1740.77
271.95	1761.25
272.16	1718.25
272.38	1671.14
272.59	1648.61
272.81	1681.38
273.02	1716.20
273.24	1687.53
273.46	1726.44
273.67	1613.80
273.89	1578.98
274.10	1740.77
274.32	1746.92
274.54	1726.44
274.75	1763.30
274.97	1656.81
275.18	1714.15
275.40	1787.88
275.61	1656.81
275.83	1671.14
276.05	1607.66
276.26	1673.19
276.48	1767.40
276.69	1640.42
276.91	1644.52
277.12	1755.11
277.34	1732.58
277.55	1730.53
277.77	1724.39
277.99	1710.05
278.20	1605.61
278.42	1640.42
278.63	1689.57
278.85	1591.27
279.06	1667.05
279.28	1722.34
279.49	1736.68
279.71	1804.26
279.93	1742.82
280.14	1693.67
280.36	1714.15
280.57	1757.16
280.79	1730.53
281.00	1624.04
281.22	1703.91
281.43	1748.97
281.65	1599.46
281.86	1662.95
282.08	1728.49
282.29	1796.07
282.51	1578.98
282.73	1646.57
282.94	1568.74
283.16	1757.16
283.37	1777.64
283.59	1667.05
283.80	1736.68
284.02	1726.44
284.23	1738.73
284.45	1619.94
284.66	1638.38
284.88	1718.25
285.09	1677.29
285.31	1726.44
285.52	1720.29
285.74	1644.52
285.95	1699.81
286.17	1730.53
286.38	1816.55
286.60	1697.77
286.81	1683.43
287.03	1671.14
287.24	1673.19
287.46	1742.82
287.67	1695.72
287.89	1751.01
288.10	1701.86
288.32	1697.77
288.53	1783.78
288.75	1609.70
288.96	1732.58
289.18	1710.05
289.39	1796.07
289.61	1726.44
289.82	1875.94
290.04	1759.21
290.25	1716.20
290.47	1705.96
290.68	1699.81
290.90	1800.16
291.11	1581.03
291.33	1734.63
291.54	1621.99
291.76	1730.53
291.97	1740.77
292.18	1740.77
292.40	1632.23
292.61	1671.14
292.83	1789.92
293.04	1744.87
293.26	1701.86
293.47	1654.76
293.69	1687.53
293.90	1642.47
294.12	1765.35
294.33	1699.81
294.55	1705.96
294.76	1824.74
294.97	1769.44
295.19	1800.16
295.40	1683.43
295.62	1738.73
295.83	1785.83
296.05	1734.63
296.26	1724.39
296.48	1654.76
296.69	1705.96
296.90	1617.90
297.12	1787.88
297.33	1718.25
297.55	1724.39
297.76	1726.44
297.98	1761.25
298.19	1687.53
298.41	1742.82
298.62	1681.38
298.83	1800.16
299.05	1755.11
299.26	1718.25
299.48	1675.24
299.69	1759.21
299.90	1669.09
300.12	1671.14
300.33	1757.16
300.55	1677.29
300.76	1769.44
300.98	1638.38
301.19	1681.38
301.40	1718.25
301.62	1691.62
301.83	1669.09
302.05	1677.29
302.26	1669.09
302.47	1681.38
302.69	1574.89
302.90	1646.57
303.12	1619.94
303.33	1675.24
303.54	1869.80
303.76	1734.63
303.97	1730.53
304.19	1779.68
304.40	1619.94
304.61	1679.33
304.83	1824.74
305.04	1783.78
305.26	1787.88
305.47	1660.90
305.68	1691.62
305.90	1595.37
306.11	1798.12
306.33	1736.68
306.54	1722.34
306.75	1636.33
306.97	1624.04
307.18	1597.42
307.39	1595.37
307.61	1751.01
307.82	1767.40
308.04	1746.92
308.25	1669.09
308.46	1732.58
308.68	1755.11
308.89	1636.33
309.10	1714.15
309.32	1728.49
309.53	1611.75
309.74	1708.01
309.96	1652.71
310.17	1740.77
310.39	1662.95
310.60	1716.20
310.81	1673.19
311.03	1607.66
311.24	1753.06
311.45	1720.29
311.67	1779.68
311.88	1730.53
312.09	1636.33
312.31	1689.57
312.52	1660.90
312.73	1708.01
312.95	1615.85
313.16	1673.19
313.37	1818.60
313.59	1779.68
313.80	1753.06
314.01	1796.07
314.23	1638.38
314.44	1722.34
314.65	1638.38
314.87	1708.01
315.08	1738.73
315.29	1654.76
315.51	1624.04
315.72	1665.00
315.93	1763.30
316.15	1806.31
316.36	1665.00
316.57	1640.42
316.79	1699.81
317.00	1720.29
317.21	1746.92
317.43	1609.70
317.64	1767.40
317.85	1685.48
318.07	1722.34
318.28	1644.52
318.49	1775.59
318.70	1931.23
318.92	1853.41
319.13	1839.08
319.34	1783.78
319.56	1779.68
319.77	1867.75
319.98	1773.54
320.20	1845.22
320.41	1765.35
320.62	1746.92
320.83	1675.24
321.05	1865.70
321.26	1785.83
321.47	1746.92
321.69	1744.87
321.90	1611.75
322.11	1705.96
322.32	1722.34
322.54	1779.68
322.75	1740.77
322.96	1744.87
323.18	1656.81
323.39	1599.46
323.60	1648.61
323.81	1751.01
324.03	1773.54
324.24	1679.33
324.45	1791.97
324.66	1705.96
324.88	1714.15
325.09	1826.79
325.30	1728.49
325.52	1691.62
325.73	1736.68
325.94	1652.71
326.15	1562.60
326.37	1720.29
326.58	1726.44
326.79	1802.21
327.00	1710.05
327.22	1751.01
327.43	1662.95
327.64	1648.61
327.85	1736.68
328.07	1736.68
328.28	1761.25
328.49	1648.61
328.70	1640.42
328.92	1718.25
329.13	1671.14
329.34	1689.57
329.55	1843.17
329.76	1781.73
329.98	1611.75
330.19	1791.97
330.40	1777.64
330.61	1753.06
330.83	1763.30
331.04	1617.90
331.25	1703.91
331.46	1705.96
331.68	1626.09
331.89	1771.49
332.10	1689.57
332.31	1691.62
332.52	1716.20
332.74	1759.21
332.95	1638.38
333.16	1656.81
333.37	1691.62
333.58	1697.77
333.80	1787.88
334.01	1609.70
334.22	1730.53
334.43	1673.19
334.64	1681.38
334.86	1693.67
335.07	1662.95
335.28	1708.01
335.49	1697.77
335.70	1679.33
335.92	1781.73
336.13	1800.16
336.34	1732.58
336.55	1701.86
336.76	1771.49
336.98	1599.46
337.19	1667.05
337.40	1771.49
337.61	1824.74
337.82	1630.18
338.04	1765.35
338.25	1576.94
338.46	1705.96
338.67	1607.66
338.88	1636.33
339.09	1617.90
339.31	1720.29
339.52	1675.24
339.73	1646.57
339.94	1699.81
340.15	1728.49
340.36	1699.81
340.58	1677.29
340.79	1708.01
341.00	1775.59
341.21	1673.19
341.42	1712.10
341.63	1734.63
341.85	1744.87
342.06	1732.58
342.27	1656.81
342.48	1767.40
342.69	1671.14
342.90	1726.44
343.12	1787.88
343.33	1652.71
343.54	1816.55
343.75	1781.73
343.96	1640.42
344.17	1624.04
344.38	1662.95
344.60	1599.46
344.81	1697.77
345.02	1648.61
345.23	1740.77
345.44	1738.73
345.65	1787.88
345.86	1699.81
346.07	1708.01
346.29	1652.71
346.50	1710.05
346.71	1720.29
346.92	1726.44
347.13	1820.64
347.34	1703.91
347.55	1697.77
347.76	1773.54
347.98	1581.03
348.19	1650.66
348.40	1814.50
348.61	1632.23
348.82	1777.64
349.03	1744.87
349.24	1718.25
349.45	1791.97
349.66	1574.89
349.88	1757.16
350.09	1746.92
350.30	1740.77
350.51	1755.11
350.72	1728.49
350.93	1691.62
351.14	1662.95
351.35	1714.15
351.56	1726.44
351.77	1697.77
351.99	1742.82
352.20	1730.53
352.41	1757.16
352.62	1667.05
352.83	1708.01
353.04	1660.90
353.25	1699.81
353.46	1699.81
353.67	1732.58
353.88	1587.18
354.09	1705.96
354.30	1648.61
354.52	1880.04
354.73	1746.92
354.94	1730.53
355.15	1675.24
355.36	1845.22
355.57	1673.19
355.78	1744.87
355.99	1619.94
356.20	1683.43
356.41	1705.96
356.62	1710.05
356.83	1701.86
357.04	1779.68
357.25	1589.22
357.46	1648.61
357.68	1640.42
357.89	1679.33
358.10	1683.43
358.31	1738.73
358.52	1728.49
358.73	1665.00
358.94	1701.86
359.15	1826.79
359.36	1777.64
359.57	1679.33
359.78	1679.33
359.99	1732.58
360.20	1642.47
360.41	1767.40
360.62	1769.44
360.83	1724.39
361.04	1671.14
361.25	1701.86
361.46	1826.79
361.67	1726.44
361.88	1712.10
362.09	1769.44
362.30	1777.64
362.51	1669.09
362.72	1697.77
362.93	1763.30
363.14	1730.53
363.35	1726.44
363.56	1744.87
363.78	1708.01
363.99	1730.53
364.20	1703.91
364.41	1736.68
364.62	1751.01
364.83	1740.77
365.04	1699.81
365.25	1699.81
365.46	1816.55
365.67	1642.47
365.88	1574.89
366.09	1714.15
366.30	1593.32
366.51	1718.25
366.72	1681.38
366.93	1687.53
367.14	1665.00
367.35	1755.11
367.56	1689.57
367.77	1779.68
367.98	1656.81
368.18	1769.44
368.39	1798.12
368.60	1583.08
368.81	1775.59
369.02	1689.57
369.23	1578.98
369.44	1525.74
369.65	1724.39
369.86	1746.92
370.07	1753.06
370.28	1673.19
370.49	1738.73
370.70	1697.77
370.91	1728.49
371.12	1599.46
371.33	1724.39
371.54	1701.86
371.75	1708.01
371.96	1632.23
372.17	1736.68
372.38	1675.24
372.59	1732.58
372.80	1681.38
373.01	1671.14
373.22	1748.97
373.43	1703.91
373.64	1667.05
373.85	1734.63
374.06	1755.11
374.26	1834.98
374.47	1675.24
374.68	1783.78
374.89	1591.27
375.10	1695.72
375.31	1757.16
375.52	1650.66
375.73	1724.39
375.94	1624.04
376.15	1787.88
376.36	1638.38
376.57	1628.14
376.78	1779.68
376.99	1738.73
377.20	1708.01
377.40	1697.77
377.61	1861.60
377.82	1656.81
378.03	1808.36
378.24	1767.40
378.45	1628.14
378.66	1751.01
378.87	1621.99
379.08	1628.14
379.29	1669.09
379.50	1736.68
379.71	1654.76
379.91	1720.29
380.12	1791.97
380.33	1701.86
380.54	1691.62
380.75	1716.20
380.96	1751.01
381.17	1730.53
381.38	1708.01
381.59	1675.24
381.80	1658.85
382.00	1839.08
382.21	1791.97
382.42	1767.40
382.63	1873.89
382.84	1677.29
383.05	1726.44
383.26	1853.41
383.47	1730.53
383.68	1830.88
383.88	1742.82
384.09	1783.78
384.30	1728.49
384.51	1646.57
384.72	1671.14
384.93	1671.14
385.14	1716.20
385.35	1744.87
385.55	1636.33
385.76	1798.12
385.97	1736.68
386.18	1638.38
386.39	1640.42
386.60	1701.86
386.81	1726.44
387.02	1681.38
387.22	1640.42
387.43	1738.73
387.64	1814.50
387.85	1904.61
388.06	2191.33
388.27	4366.27
388.48	6737.82
388.68	8267.65
388.89	9578.35
389.10	9885.55
389.31	8748.92
389.52	7622.54
389.73	6862.74
389.93	6336.42
390.14	5986.21
390.35	5300.14
390.56	4609.98
390.77	3880.90
390.98	3129.30
391.18	2437.08
391.39	2101.22
391.60	1787.88
391.81	1894.37
392.02	1730.53
392.23	1890.28
392.43	1738.73
392.64	1763.30
392.85	1730.53
393.06	1818.60
393.27	1767.40
393.47	1746.92
393.68	1773.54
393.89	1646.57
394.10	1761.25
394.31	1673.19
394.52	1699.81
394.72	1667.05
394.93	1755.11
395.14	1650.66
395.35	1746.92
395.56	1691.62
395.76	1699.81
395.97	1816.55
396.18	1759.21
396.39	1802.21
396.60	2011.11
396.80	1931.23
397.01	1744.87
397.22	1771.49
397.43	1853.41
397.64	1757.16
397.84	1812.45
398.05	1884.13
398.26	1699.81
398.47	1779.68
398.67	1763.30
398.88	1726.44
399.09	1759.21
399.30	1697.77
399.51	1740.77
399.71	1699.81
399.92	1681.38
400.13	1800.16
400.34	1667.05
400.54	1656.81
400.75	1841.12
400.96	1642.47
401.17	1867.75
401.37	1695.72
401.58	1722.34
401.79	1769.44
402.00	1900.52
402.21	2033.63
402.41	1925.09
402.62	2011.11
402.83	1980.39
403.04	2000.87
403.24	2062.30
403.45	1886.18
403.66	1892.32
403.87	1892.32
404.07	1875.94
404.28	1875.94
404.49	1863.65
404.70	1765.35
404.90	1800.16
405.11	1716.20
405.32	1796.07
405.52	1718.25
405.73	1656.81
405.94	1630.18
406.15	1716.20
406.35	1716.20
406.56	1738.73
406.77	1650.66
406.98	1732.58
407.18	1673.19
407.39	1804.26
407.60	1710.05
407.80	1779.68
408.01	1619.94
408.22	1734.63
408.43	1671.14
408.63	1669.09
408.84	1734.63
409.05	1748.97
409.25	1642.47
409.46	1701.86
409.67	1638.38
409.88	1697.77
410.08	1728.49
410.29	1697.77
410.50	1763.30
410.70	1751.01
410.91	1689.57
411.12	1759.21
411.32	1699.81
411.53	1650.66
411.74	1787.88
411.95	1742.82
412.15	1794.02
412.36	1820.64
412.57	1779.68
412.77	1796.07
412.98	1697.77
413.19	1787.88
413.39	1697.77
413.60	1781.73
413.81	1767.40
414.01	1724.39
414.22	1714.15
414.43	1748.97
414.63	1695.72
414.84	1699.81
415.05	1726.44
415.25	1705.96
415.46	1730.53
415.67	1681.38
415.87	1673.19
416.08	1783.78
416.29	1699.81
416.49	1740.77
416.70	1673.19
416.91	1718.25
417.11	1636.33
417.32	1740.77
417.53	1703.91
417.73	1732.58
417.94	1705.96
418.15	1757.16
418.35	1738.73
418.56	1701.86
418.77	1818.60
418.97	1814.50
419.18	1632.23
419.38	1574.89
419.59	1665.00
419.80	1802.21
420.00	1724.39
420.21	1677.29
420.42	1765.35
420.62	1730.53
420.83	1603.56
421.04	1683.43
421.24	1740.77
421.45	1722.34
421.65	1701.86
421.86	1689.57
422.07	1787.88
422.27	1716.20
422.48	1748.97
422.69	1732.58
422.89	1628.14
423.10	1806.31
423.30	1599.46
423.51	1722.34
423.72	1746.92
423.92	1732.58
424.13	1691.62
424.33	1714.15
424.54	1728.49
424.75	1808.36
424.95	1834.98
425.16	1685.48
425.36	1679.33
425.57	1728.49
425.78	1738.73
425.98	1816.55
426.19	1691.62
426.39	1675.24
426.60	1716.20
426.81	1791.97
427.01	1730.53
427.22	1607.66
427.42	1562.60
427.63	1660.90
427.83	1826.79
428.04	1796.07
428.25	1730.53
428.45	1781.73
428.66	1812.45
428.86	1744.87
429.07	1646.57
429.28	1746.92
429.48	1646.57
429.69	1671.14
429.89	1726.44
430.10	1587.18
430.30	1783.78
430.51	1755.11
430.71	1650.66
430.92	1734.63
431.13	1712.10
431.33	1761.25
431.54	1712.10
431.74	1820.64
431.95	1826.79
432.15	1636.33
432.36	1683.43
432.56	1724.39
432.77	1859.56
432.98	1849.32
433.18	1699.81
433.39	1619.94
433.59	1681.38
433.80	1880.04
434.00	1902.56
434.21	1660.90
434.41	1685.48
434.62	1896.42
434.82	1695.72
435.03	1730.53
435.23	1755.11
435.44	1624.04
435.64	1720.29
435.85	1701.86
436.06	1693.67
436.26	1677.29
436.47	1730.53
436.67	1708.01
436.88	1701.86
437.08	1761.25
437.29	1814.50
437.49	1708.01
437.70	1710.05
437.90	1746.92
438.11	1763.30
438.31	1796.07
438.52	1855.46
438.72	1873.89
438.93	1849.32
439.13	1800.16
439.34	1789.92
439.54	1808.36
439.75	1734.63
439.95	1708.01
440.16	1687.53
440.36	1812.45
440.57	1806.31
440.77	1773.54
440.98	1738.73
441.18	1775.59
441.39	1634.28
441.59	1714.15
441.80	1839.08
442.00	1695.72
442.21	1826.79
442.41	1716.20
442.62	1808.36
442.82	1658.85
443.02	1710.05
443.23	1806.31
443.43	1652.71
443.64	1857.51
443.84	1746.92
444.05	1712.10
444.25	1755.11
444.46	1693.67
444.66	1712.10
444.87	1734.63
445.07	1712.10
445.28	1699.81
445.48	1802.21
445.69	1779.68
445.89	1912.80
446.09	1712.10
446.30	2041.82
446.50	2584.54
446.71	3729.35
446.91	4270.01
447.12	4745.14
447.32	4911.03
447.53	4423.61
447.73	3841.99
447.93	3487.69
448.14	3319.76
448.34	3168.21
448.55	2836.44
448.75	2775.00
448.96	2705.37
449.16	2443.23
449.36	2254.81
449.57	2109.41
449.77	1947.62
449.98	1769.44
450.18	1845.22
450.39	1798.12
450.59	1796.07
450.79	1783.78
451.00	1660.90
451.20	1832.93
451.41	1638.38
451.61	1671.14
451.81	1724.39
452.02	1728.49
452.22	1755.11
452.43	1779.68
452.63	1675.24
452.84	1691.62
453.04	1755.11
453.24	1757.16
453.45	1656.81
453.65	1730.53
453.86	1724.39
454.06	1683.43
454.26	1791.97
454.47	1665.00
454.67	1783.78
454.87	1705.96
455.08	1738.73
455.28	1794.02
455.49	1779.68
455.69	1740.77
455.89	1888.23
456.10	1824.74
456.30	1660.90
456.51	1767.40
456.71	1746.92
456.91	1798.12
457.12	1775.59
457.32	1728.49
457.52	1619.94
457.73	1726.44
457.93	1804.26
458.14	1710.05
458.34	1697.77
458.54	1720.29
458.75	1683.43
458.95	1818.60
459.15	1681.38
459.36	1783.78
459.56	1712.10
459.76	1810.40
459.97	1665.00
460.17	1779.68
460.37	1751.01
460.58	1716.20
460.78	1769.44
460.99	1730.53
461.19	1748.97
461.39	1771.49
461.60	1730.53
461.80	1802.21
462.00	1691.62
462.21	1734.63
462.41	1703.91
462.61	1695.72
462.82	1593.32
463.02	1746.92
463.22	1722.34
463.43	1738.73
463.63	1742.82
463.83	1775.59
464.04	1753.06
464.24	1785.83
464.44	1716.20
464.64	1708.01
464.85	1855.46
465.05	1757.16
465.25	1730.53
465.46	1652.71
465.66	1791.97
465.86	1742.82
466.07	1751.01
466.27	1767.40
466.47	1636.33
466.68	1701.86
466.88	1791.97
467.08	1746.92
467.29	1736.68
467.49	1779.68
467.69	1732.58
467.89	1716.20
468.10	1673.19
468.30	1720.29
468.50	1781.73
468.71	1783.78
468.91	1689.57
469.11	1847.27
469.31	1783.78
469.52	1691.62
469.72	1753.06
469.92	1847.27
470.13	1710.05
470.33	1748.97
470.53	1853.41
470.73	2050.02
470.94	2377.69
471.14	2238.43
471.34	2512.86
471.54	2455.51
471.75	2275.29
471.95	2078.69
472.15	2013.15
472.36	2019.30
472.56	2041.82
472.76	1998.82
472.96	2050.02
473.17	1998.82
473.37	1882.08
473.57	1828.84
473.77	1875.94
473.98	1759.21
474.18	1753.06
474.38	1918.95
474.58	1722.34
474.79	1660.90
474.99	1822.69
475.19	1802.21
475.39	1769.44
475.60	1767.40
475.80	1675.24
476.00	1679.33
476.20	1640.42
476.41	1765.35
476.61	1787.88
476.81	1812.45
477.01	1703.91
477.21	1812.45
477.42	1746.92
477.62	1757.16
477.82	1734.63
478.02	1665.00
478.23	1802.21
478.43	1662.95
478.63	1714.15
478.83	1722.34
479.03	1714.15
479.24	1800.16
479.44	1865.70
479.64	1671.14
479.84	1595.37
480.04	1681.38
480.25	1755.11
480.45	1699.81
480.65	1673.19
480.85	1816.55
481.06	1699.81
481.26	1761.25
481.46	1783.78
481.66	1705.96
481.86	1689.57
482.06	1787.88
482.27	1687.53
482.47	1677.29
482.67	1734.63
482.87	1669.09
483.07	1742.82
483.28	1640.42
483.48	1640.42
483.68	1771.49
483.88	1691.62
484.08	1691.62
484.29	1605.61
484.49	1748.97
484.69	1650.66
484.89	1804.26
485.09	1748.97
485.29	1742.82
485.50	1705.96
485.70	1718.25
485.90	1912.80
486.10	1755.11
486.30	1730.53
486.50	1695.72
486.71	1771.49
486.91	1794.02
487.11	1798.12
487.31	1691.62
487.51	1732.58
487.71	1646.57
487.91	1632.23
488.12	1708.01
488.32	1615.85
488.52	1708.01
488.72	1650.66
488.92	1769.44
489.12	1759.21
489.32	1802.21
489.53	1806.31
489.73	1619.94
489.93	1773.54
490.13	1689.57
490.33	1697.77
490.53	1771.49
490.73	1787.88
490.94	1609.70
491.14	1845.22
491.34	1843.17
491.54	2109.41
491.74	2492.38
491.94	2875.35
492.14	3059.67
492.34	2994.13
492.54	2725.85
492.75	2582.49
492.95	2469.85
493.15	2316.25
493.35	2279.39
493.55	2191.33
493.75	2172.89
493.95	2162.66
494.15	2007.01
494.35	2017.25
494.56	1884.13
494.76	1796.07
494.96	1839.08
495.16	1822.69
495.36	1759.21
495.56	1769.44
495.76	1695.72
495.96	1728.49
496.16	1671.14
496.36	1857.51
496.56	1781.73
496.77	1763.30
496.97	1708.01
497.17	1822.69
497.37	1667.05
497.57	1730.53
497.77	1771.49
497.97	1724.39
498.17	1667.05
498.37	1679.33
498.57	1724.39
498.77	1767.40
498.97	1849.32
499.17	1824.74
499.38	1742.82
499.58	1755.11
499.78	1746.92
499.98	1787.88
500.18	1746.92
500.38	1716.20
500.58	1916.90
500.78	2525.15
500.98	4644.79
501.18	5906.34
501.38	6836.12
501.58	7079.83
501.78	6762.39
501.98	5595.05
502.18	4933.56
502.38	4409.28
502.58	4108.23
502.78	3839.94
502.98	3717.06
503.18	3424.20
503.38	3184.59
503.59	2914.26
503.79	2602.97
503.99	2475.99
504.19	2310.11
504.39	2183.13
504.59	2189.28
504.79	2152.42
504.99	2082.78
505.19	1959.91
505.39	1916.90
505.59	1970.15
505.79	1845.22
505.99	1892.32
506.19	1859.56
506.39	1869.80
506.59	1705.96
506.79	1746.92
506.99	1800.16
507.19	1822.69
507.39	1753.06
507.59	1642.47
507.79	1720.29
507.99	1710.05
508.19	1722.34
508.39	1718.25
508.59	1681.38
508.79	1814.50
508.99	1804.26
509.19	1720.29
509.39	1800.16
509.59	1691.62
509.79	1769.44
509.99	1685.48
510.19	1728.49
510.39	1830.88
510.59	1687.53
510.79	1677.29
510.99	1691.62
511.19	1759.21
511.39	1863.65
511.59	1734.63
511.79	1705.96
511.99	1724.39
512.19	1910.75
512.38	1765.35
512.58	1697.77
512.78	1710.05
512.98	1849.32
513.18	1843.17
513.38	1681.38
513.58	1718.25
513.78	1789.92
513.98	1728.49
514.18	1640.42
514.38	1665.00
514.58	1787.88
514.78	1710.05
514.98	1636.33
515.18	1789.92
515.38	1593.32
515.58	1773.54
515.78	1693.67
515.98	1742.82
516.18	1791.97
516.38	1751.01
516.57	1759.21
516.77	1665.00
516.97	1810.40
517.17	1705.96
517.37	1662.95
517.57	1826.79
517.77	1669.09
517.97	1708.01
518.17	1781.73
518.37	1724.39
518.57	1677.29
518.77	1650.66
518.97	1724.39
519.16	1691.62
519.36	1746.92
519.56	1703.91
519.76	1726.44
519.96	1734.63
520.16	1849.32
520.36	1687.53
520.56	1794.02
520.76	1648.61
520.96	1744.87
521.16	1757.16
521.35	1779.68
521.55	1773.54
521.75	1755.11
521.95	1691.62
522.15	1691.62
522.35	1624.04
522.55	1669.09
522.75	1816.55
522.95	1691.62
523.14	1679.33
523.34	1738.73
523.54	1693.67
523.74	1775.59
523.94	1755.11
524.14	1681.38
524.34	1705.96
524.54	1816.55
524.73	1730.53
524.93	1839.08
525.13	1800.16
525.33	1632.23
525.53	1877.99
525.73	1849.32
525.93	1708.01
526.13	1650.66
526.32	1705.96
526.52	1753.06
526.72	1820.64
526.92	1746.92
527.12	1714.15
527.32	1656.81
527.52	1777.64
527.71	1755.11
527.91	1634.28
528.11	1730.53
528.31	1638.38
528.51	1691.62
528.71	1779.68
528.90	1765.35
529.10	1728.49
529.30	1847.27
529.50	1665.00
529.70	1675.24
529.90	1732.58
530.09	1705.96
530.29	1708.01
530.49	1701.86
530.69	1892.32
530.89	1773.54
531.09	1779.68
531.28	1742.82
531.48	1814.50
531.68	1748.97
531.88	1781.73
532.08	1802.21
532.28	1695.72
532.47	1800.16
532.67	1863.65
532.87	1783.78
533.07	1681.38
533.27	1695.72
533.46	1783.78
533.66	1767.40
533.86	1732.58
534.06	1683.43
534.26	1783.78
534.45	1701.86
534.65	1787.88
534.85	1720.29
535.05	1734.63
535.25	1744.87
535.44	1673.19
535.64	1755.11
535.84	1699.81
536.04	1720.29
536.24	1638.38
536.43	1730.53
536.63	1804.26
536.83	1728.49
537.03	1734.63
537.22	1673.19
537.42	1665.00
537.62	1746.92
537.82	1589.22
538.02	1767.40
538.21	1746.92
538.41	1912.80
538.61	1751.01
538.81	1701.86
539.00	1824.74
539.20	1646.57
539.40	1705.96
539.60	1740.77
539.79	1828.84
539.99	1740.77
540.19	1685.48
540.39	1675.24
540.58	1665.00
540.78	1785.83
540.98	1746.92
541.18	1757.16
541.37	1736.68
541.57	1712.10
541.77	1810.40
541.97	1630.18
542.16	1660.90
542.36	1734.63
542.56	1753.06
542.76	1890.28
542.95	1791.97
543.15	1808.36
543.35	1769.44
543.54	1685.48
543.74	1732.58
543.94	1851.36
544.14	1667.05
544.33	1847.27
544.53	1783.78
544.73	1769.44
544.93	1656.81
545.12	1685.48
545.32	1660.90
545.52	1740.77
545.71	1701.86
545.91	1685.48
546.11	1693.67
546.30	1675.24
546.50	1726.44
546.70	1767.40
546.90	1785.83
547.09	1576.94
547.29	1722.34
547.49	1812.45
547.68	1748.97
547.88	1673.19
548.08	1703.91
548.27	2207.71
548.47	1697.77
548.67	1699.81
548.87	1746.92
549.06	1748.97
549.26	1761.25
549.46	1759.21
549.65	1736.68
549.85	1697.77
550.05	1722.34
550.24	1679.33
550.44	1689.57
550.64	1812.45
550.83	1761.25
551.03	1814.50
551.23	1787.88
551.42	1791.97
551.62	1730.53
551.82	1724.39
552.01	1675.24
552.21	1857.51
552.41	1724.39
552.60	1804.26
552.80	1753.06
553.00	1646.57
553.19	1697.77
553.39	1820.64
553.59	1718.25
553.78	1781.73
553.98	1703.91
554.17	1673.19
554.37	1779.68
554.57	1765.35
554.76	1677.29
554.96	1714.15
555.16	1728.49
555.35	1644.52
555.55	1685.48
555.75	1708.01
555.94	1824.74
556.14	1619.94
556.33	1738.73
556.53	1742.82
556.73	1746.92
556.92	1779.68
557.12	1804.26
557.32	1918.95
557.51	1779.68
557.71	1824.74
557.90	1837.03
558.10	1853.41
558.30	1761.25
558.49	1695.72
558.69	1746.92
558.88	1824.74
559.08	1724.39
559.28	1722.34
559.47	1722.34
559.67	1802.21
559.86	1832.93
560.06	1734.63
560.26	1726.44
560.45	1783.78
560.65	1748.97
560.84	1767.40
561.04	1665.00
561.24	1742.82
561.43	1689.57
561.63	1849.32
561.82	1714.15
562.02	1742.82
562.22	1759.21
562.41	1650.66
562.61	1687.53
562.80	1650.66
563.00	1884.13
563.19	1777.64
563.39	1757.16
563.59	1746.92
563.78	1675.24
563.98	1671.14
564.17	1697.77
564.37	1683.43
564.56	1714.15
564.76	1677.29
564.96	1884.13
565.15	1787.88
565.35	1847.27
565.54	1744.87
565.74	1812.45
565.93	1775.59
566.13	1734.63
566.32	1775.59
566.52	1796.07
566.71	1789.92
566.91	1724.39
567.11	1785.83
567.30	1722.34
567.50	1779.68
567.69	1751.01
567.89	1701.86
568.08	1746.92
568.28	1697.77
568.47	1662.95
568.67	1769.44
568.86	1652.71
569.06	1804.26
569.25	1828.84
569.45	1738.73
569.64	1705.96
569.84	1763.30
570.04	1724.39
570.23	1658.85
570.43	1789.92
570.62	1751.01
570.82	1738.73
571.01	1695.72
571.21	1691.62
571.40	1712.10
571.60	1767.40
571.79	1822.69
571.99	1675.24
572.18	1693.67
572.38	1789.92
572.57	1734.63
572.77	1796.07
572.96	1851.36
573.16	1658.85
573.35	1701.86
573.55	1865.70
573.74	1816.55
573.94	1757.16
574.13	1705.96
574.33	1814.50
574.52	1857.51
574.71	1734.63
574.91	1773.54
575.10	1658.85
575.30	1734.63
575.49	1636.33
575.69	1744.87
575.88	1746.92
576.08	1777.64
576.27	1705.96
576.47	1736.68
576.66	1767.40
576.86	1855.46
577.05	1708.01
577.25	1787.88
577.44	1884.13
577.64	1730.53
577.83	1847.27
578.02	1738.73
578.22	1767.40
578.41	1877.99
578.61	1783.78
578.80	1605.61
579.00	1765.35
579.19	1710.05
579.39	1755.11
579.58	1853.41
579.77	1765.35
579.97	1853.41
580.16	1849.32
580.36	1861.60
580.55	1845.22
580.75	1804.26
580.94	1814.50
581.13	1855.46
581.33	1855.46
581.52	1712.10
581.72	1822.69
581.91	1869.80
582.11	1669.09
582.30	1796.07
582.49	1787.88
582.69	1865.70
582.88	1853.41
583.08	1804.26
583.27	1804.26
583.47	1755.11
583.66	1708.01
583.85	1771.49
584.05	1759.21
584.24	1775.59
584.44	1798.12
584.63	1806.31
584.82	1775.59
585.02	1808.36
585.21	1839.08
585.41	1755.11
585.60	1820.64
585.79	1974.24
585.99	1904.61
586.18	1888.23
586.37	2232.29
586.57	3409.87
586.76	10006.38
586.96	24870.53
587.15	35141.10
587.34	40779.15
587.54	42796.40
587.73	37275.08
587.93	26775.14
588.12	22054.58
588.31	18603.75
588.51	16643.84
588.70	15144.73
588.89	14200.62
589.09	12670.78
589.28	11110.23
589.47	9478.00
589.67	8087.43
589.86	6459.29
590.06	5033.91
590.25	3968.96
590.44	3071.95
590.64	2648.02
590.83	2250.72
591.02	2095.07
591.22	1980.39
591.41	1871.84
591.60	1843.17
591.80	1900.52
591.99	1791.97
592.18	1710.05
592.38	1800.16
592.57	1732.58
592.76	1796.07
592.96	1755.11
593.15	1757.16
593.34	1828.84
593.54	1705.96
593.73	1748.97
593.92	1755.11
594.12	1746.92
594.31	1781.73
594.50	1773.54
594.70	1794.02
594.89	1843.17
595.08	1708.01
595.28	1726.44
595.47	1902.56
595.66	1773.54
595.86	1755.11
596.05	1748.97
596.24	1632.23
596.43	1812.45
596.63	1820.64
596.82	1701.86
597.01	1744.87
597.21	1839.08
597.40	1714.15
597.59	1685.48
597.79	1775.59
597.98	1759.21
598.17	1751.01
598.36	1791.97
598.56	1791.97
598.75	1705.96
598.94	1732.58
599.14	1730.53
599.33	1693.67
599.52	1837.03
599.71	1775.59
599.91	1798.12
600.10	1716.20
600.29	1705.96
600.48	1789.92
600.68	1746.92
600.87	1742.82
601.06	1744.87
601.26	1738.73
601.45	1834.98
601.64	1802.21
601.83	1820.64
602.03	1730.53
602.22	1681.38
602.41	1759.21
602.60	1812.45
602.80	1804.26
602.99	1689.57
603.18	1634.28
603.37	1675.24
603.57	1767.40
603.76	1828.84
603.95	1832.93
604.14	1724.39
604.34	1626.09
604.53	1714.15
604.72	1779.68
604.91	1837.03
605.10	1734.63
605.30	1665.00
605.49	1863.65
605.68	1771.49
605.87	1718.25
606.07	1736.68
606.26	1697.77
606.45	1740.77
606.64	1718.25
606.84	1677.29
607.03	1708.01
607.22	1751.01
607.41	1669.09
607.60	1812.45
607.80	1812.45
607.99	1669.09
608.18	1724.39
608.37	1642.47
608.56	1718.25
608.76	1777.64
608.95	1775.59
609.14	1654.76
609.33	1812.45
609.52	1769.44
609.72	1730.53
609.91	1781.73
610.10	1656.81
610.29	1822.69
610.48	1820.64
610.68	1722.34
610.87	1738.73
611.06	1824.74
611.25	1777.64
611.44	1740.77
611.63	1751.01
611.83	1787.88
612.02	1642.47
612.21	1755.11
612.40	1683.43
612.59	1667.05
612.79	1748.97
612.98	1712.10
613.17	1742.82
613.36	1665.00
613.55	1767.40
613.74	1693.67
613.93	1683.43
614.13	1705.96
614.32	1708.01
614.51	1746.92
614.70	1671.14
614.89	1669.09
615.08	1775.59
615.28	2101.22
615.47	1701.86
615.66	1753.06
615.85	1724.39
616.04	1886.18
616.23	1740.77
616.42	1771.49
616.62	1808.36
616.81	1755.11
617.00	1613.80
617.19	1689.57
617.38	1710.05
617.57	1695.72
617.76	1726.44
617.95	1701.86
618.15	1685.48
618.34	1847.27
618.53	1675.24
618.72	1755.11
618.91	1791.97
619.10	1869.80
619.29	1724.39
619.48	1685.48
619.68	1667.05
619.87	1787.88
620.06	1742.82
620.25	1765.35
620.44	1746.92
620.63	1757.16
620.82	1701.86
621.01	1718.25
621.20	1691.62
621.39	1816.55
621.59	1667.05
621.78	1712.10
621.97	1697.77
622.16	1722.34
622.35	1734.63
622.54	1767.40
622.73	1808.36
622.92	1640.42
623.11	1765.35
623.30	1708.01
623.49	1726.44
623.68	1673.19
623.88	1779.68
624.07	1646.57
624.26	1755.11
624.45	1791.97
624.64	1703.91
624.83	1699.81
625.02	1755.11
625.21	1701.86
625.40	1755.11
625.59	1834.98
625.78	1687.53
625.97	1742.82
626.16	1724.39
626.35	1761.25
626.54	1718.25
626.74	1779.68
626.93	1669.09
627.12	1699.81
627.31	1808.36
627.50	1785.83
627.69	1812.45
627.88	1654.76
628.07	1722.34
628.26	1652.71
628.45	1730.53
628.64	1697.77
628.83	1722.34
629.02	1640.42
629.21	1798.12
629.40	1751.01
629.59	1701.86
629.78	1658.85
629.97	1669.09
630.16	1638.38
630.35	1677.29
630.54	1683.43
630.73	1738.73
630.92	1683.43
631.11	1693.67
631.30	1662.95
631.49	1769.44
631.68	1681.38
631.87	1826.79
632.06	1624.04
632.25	1837.03
632.44	1652.71
632.63	1658.85
632.82	1708.01
633.01	1644.52
633.20	1720.29
633.39	1677.29
633.58	1724.39
633.77	1705.96
633.96	1746.92
634.15	1775.59
634.34	1773.54
634.53	1705.96
634.72	1662.95
634.91	1591.27
635.10	1763.30
635.29	1785.83
635.48	1697.77
635.67	1669.09
635.86	1689.57
636.05	1742.82
636.24	1722.34
636.43	1763.30
636.62	1804.26
636.81	1533.93
637.00	1773.54
637.19	1716.20
637.38	1773.54
637.57	1701.86
637.76	1769.44
637.95	1648.61
638.14	1642.47
638.33	1693.67
638.52	1669.09
638.71	1685.48
638.89	1630.18
639.08	1755.11
639.27	1728.49
639.46	1652.71
639.65	1742.82
639.84	1642.47
640.03	1771.49
640.22	1679.33
640.41	1787.88
640.60	1685.48
640.79	1646.57
640.98	1687.53
641.17	1726.44
641.36	1697.77
641.55	1742.82
641.74	1646.57
641.92	1744.87
642.11	1675.24
642.30	1689.57
642.49	1697.77
642.68	1695.72
642.87	1759.21
643.06	1751.01
643.25	1671.14
643.44	1665.00
643.63	1714.15
643.82	1746.92
644.00	1677.29
644.19	1683.43
644.38	1591.27
644.57	1724.39
644.76	1720.29
644.95	1755.11
645.14	1798.12
645.33	1675.24
645.52	1712.10
645.71	1693.67
645.89	1718.25
646.08	1697.77
646.27	1662.95
646.46	1849.32
646.65	1669.09
646.84	1763.30
647.03	1671.14
647.22	1712.10
647.40	1712.10
647.59	1654.76
647.78	1601.51
647.97	1748.97
648.16	1697.77
648.35	1755.11
648.54	1832.93
648.73	1654.76
648.91	1806.31
649.10	1677.29
649.29	1730.53
649.48	1673.19
649.67	1751.01
649.86	1724.39
650.05	1630.18
650.23	1746.92
650.42	1714.15
650.61	1726.44
650.80	1787.88
650.99	1853.41
651.18	1761.25
651.36	1839.08
651.55	1726.44
651.74	1826.79
651.93	1716.20
652.12	1708.01
652.31	1656.81
652.49	1671.14
652.68	1683.43
652.87	1798.12
653.06	1648.61
653.25	1785.83
653.44	1691.62
653.62	1796.07
653.81	1720.29
654.00	1689.57
654.19	1763.30
654.38	1877.99
654.56	1689.57
654.75	1712.10
654.94	1791.97
655.13	1714.15
655.32	1710.05
655.51	1834.98
655.69	1701.86
655.88	1728.49
656.07	1644.52
656.26	1697.77
656.45	1634.28
656.63	1648.61
656.82	1810.40
657.01	1740.77
657.20	1716.20
657.38	1796.07
657.57	1685.48
657.76	1652.71
657.95	1667.05
658.14	1699.81
658.32	1726.44
658.51	1681.38
658.70	1695.72
658.89	1697.77
659.08	1691.62
659.26	1818.60
659.45	1665.00
659.64	1800.16
659.83	1669.09
660.01	1822.69
660.20	1712.10
660.39	1851.36
660.58	1603.56
660.76	1738.73
660.95	1679.33
661.14	1685.48
661.33	1568.74
661.51	1736.68
661.70	1632.23
661.89	1787.88
662.08	1667.05
662.26	1638.38
662.45	1615.85
662.64	1787.88
662.83	1781.73
663.01	1718.25
663.20	1683.43
663.39	1800.16
663.58	1724.39
663.76	1705.96
663.95	1746.92
664.14	1656.81
664.32	1757.16
664.51	1681.38
664.70	1677.29
664.89	1787.88
665.07	1656.81
665.26	1794.02
665.45	1546.22
665.64	1685.48
665.82	1789.92
666.01	1730.53
666.20	1705.96
666.38	1869.80
666.57	1771.49
666.76	2189.28
666.95	4577.21
667.13	10620.77
667.32	15187.74
667.51	18165.48
667.69	19492.57
667.88	17721.07
668.07	12601.15
668.25	9602.93
668.44	8159.11
668.63	7339.92
668.81	6938.52
669.00	6252.45
669.19	5646.25
669.38	5294.00
669.56	4751.29
669.75	3975.11
669.94	3459.02
670.12	2957.27
670.31	2549.72
670.50	2215.90
670.68	2144.22
670.87	1974.24
671.06	1808.36
671.24	1851.36
671.43	1806.31
671.62	1841.12
671.80	1703.91
671.99	1665.00
672.18	1734.63
672.36	1789.92
672.55	1673.19
672.74	1757.16
672.92	1691.62
673.11	1734.63
673.29	1654.76
673.48	1841.12
673.67	1705.96
673.85	1677.29
674.04	1703.91
674.23	1738.73
674.41	1826.79
674.60	1662.95
674.79	1640.42
674.97	1652.71
675.16	1642.47
675.34	1691.62
675.53	1755.11
675.72	1716.20
675.90	1816.55
676.09	1705.96
676.28	1798.12
676.46	1626.09
676.65	1769.44
676.83	1656.81
677.02	1683.43
677.21	1724.39
677.39	1748.97
677.58	1695.72
677.77	1712.10
677.95	1687.53
678.14	1742.82
678.32	1648.61
678.51	1675.24
678.70	1884.13
678.88	1650.66
679.07	1703.91
679.25	1740.77
679.44	1771.49
679.63	1646.57
679.81	1669.09
680.00	1759.21
680.18	1691.62
680.37	1744.87
680.55	1730.53
680.74	1656.81
680.93	1607.66
681.11	1628.14
681.30	1701.86
681.48	1789.92
681.67	1677.29
681.85	1722.34
682.04	1632.23
682.23	1724.39
682.41	1728.49
682.60	1720.29
682.78	1673.19
682.97	1656.81
683.15	1689.57
683.34	1642.47
683.53	1775.59
683.71	1683.43
683.90	1695.72
684.08	1814.50
684.27	1701.86
684.45	1697.77
684.64	1816.55
684.82	1742.82
685.01	1773.54
685.19	1712.10
685.38	1748.97
685.57	1722.34
685.75	1652.71
685.94	1669.09
686.12	1628.14
686.31	1683.43
686.49	1728.49
686.68	1605.61
686.86	1679.33
687.05	1716.20
687.23	1753.06
687.42	1665.00
687.60	1585.13
687.79	1748.97
687.97	1808.36
688.16	1751.01
688.34	1800.16
688.53	1574.89
688.71	1708.01
688.90	1771.49
689.08	1656.81
689.27	1708.01
689.45	1701.86
689.64	1638.38
689.82	1753.06
690.01	1787.88
690.19	1689.57
690.38	1665.00
690.56	1681.38
690.75	1691.62
690.93	1630.18
691.12	1673.19
691.30	1740.77
691.49	1630.18
691.67	1656.81
691.86	1757.16
692.04	1691.62
692.23	1714.15
692.41	1648.61
692.60	1830.88
692.78	1712.10
692.97	1728.49
693.15	1736.68
693.34	1808.36
693.52	1777.64
693.71	1724.39
693.89	1708.01
694.08	1581.03
694.26	1722.34
694.44	1724.39
694.63	1742.82
694.81	1662.95
695.00	1693.67
695.18	1814.50
695.37	1851.36
695.55	1767.40
695.74	1693.67
695.92	1681.38
696.10	1820.64
696.29	1603.56
696.47	1695.72
696.66	1617.90
696.84	1660.90
697.03	1722.34
697.21	1828.84
697.40	2410.46
697.58	1871.84
697.76	1652.71
697.95	1673.19
698.13	1652.71
698.32	1630.18
698.50	1751.01
698.68	1667.05
698.87	1787.88
699.05	1787.88
699.24	1689.57
699.42	1669.09
699.61	1699.81
699.79	1703.91
699.97	1736.68
700.16	1599.46
700.34	1714.15
700.53	1716.20
700.71	1867.75
700.89	1738.73
701.08	1665.00
701.26	1773.54
701.45	2097.12
701.63	1726.44
701.81	1738.73
702.00	1685.48
702.18	1607.66
702.37	1716.20
702.55	1773.54
702.73	1746.92
702.92	1708.01
703.10	1779.68
703.28	1701.86
703.47	1583.08
703.65	1732.58
703.84	1763.30
704.02	1677.29
704.20	1720.29
704.39	1640.42
704.57	1775.59
704.75	1802.21
704.94	1734.63
705.12	1746.92
705.30	1714.15
705.49	2226.14
705.67	4425.66
705.86	9582.45
706.04	12767.04
706.22	14849.82
706.41	15818.51
706.59	14149.42
706.77	9699.18
706.96	7409.55
707.14	6651.80
707.32	5851.05
707.51	5650.35
707.69	4960.18
707.87	4317.12
708.06	3672.01
708.24	2930.64
708.42	2465.75
708.61	2301.92
708.79	1908.71
708.97	1871.84
709.16	1824.74
709.34	1857.51
709.52	1798.12
709.71	1763.30
709.89	1718.25
710.07	1695.72
710.26	1665.00
710.44	1728.49
710.62	1710.05
710.80	1761.25
710.99	1736.68
711.17	1677.29
711.35	1681.38
711.54	1734.63
711.72	1761.25
711.90	1734.63
712.09	1742.82
712.27	1734.63
712.45	1744.87
712.63	1658.85
712.82	1708.01
713.00	1658.85
713.18	1695.72
713.37	1787.88
713.55	1710.05
713.73	1714.15
713.91	1738.73
714.10	1703.91
714.28	1642.47
714.46	1736.68
714.65	1730.53
714.83	1734.63
715.01	1742.82
715.19	1687.53
715.38	1648.61
715.56	1720.29
715.74	1679.33
715.92	1705.96
716.11	1789.92
716.29	1587.18
716.47	1732.58
716.65	1679.33
716.84	1728.49
717.02	1710.05
717.20	1638.38
717.38	1726.44
717.57	1722.34
717.75	1722.34
717.93	1712.10
718.11	1730.53
718.30	1695.72
718.48	1726.44
718.66	1734.63
718.84	1689.57
719.03	1644.52
719.21	1646.57
719.39	1755.11
719.57	1785.83
719.75	1798.12
719.94	1734.63
720.12	1775.59
720.30	1654.76
720.48	1736.68
720.67	1669.09
720.85	1597.42
721.03	1658.85
721.21	1632.23
721.39	1771.49
721.58	1689.57
721.76	1660.90
721.94	1759.21
722.12	1755.11
722.30	1751.01
722.49	1675.24
722.67	1665.00
722.85	1744.87
723.03	1724.39
723.21	1697.77
723.40	1722.34
723.58	1751.01
723.76	1710.05
723.94	1755.11
724.12	1685.48
724.30	1808.36
724.49	1699.81
724.67	1724.39
724.85	1753.06
725.03	1634.28
725.21	1714.15
725.40	1740.77
725.58	1665.00
725.76	1759.21
725.94	1634.28
726.12	1685.48
726.30	1732.58
726.49	1732.58
726.67	1683.43
726.85	1742.82
727.03	1816.55
727.21	2217.95
727.39	2875.35
727.57	3796.93
727.76	4278.21
727.94	4468.67
728.12	4313.02
728.30	3772.36
728.48	2973.65
728.66	2738.13
728.84	2580.44
729.03	2289.63
729.21	2123.74
729.39	2009.06
729.57	1816.55
729.75	1814.50
729.93	1826.79
730.11	1708.01
730.30	1722.34
730.48	1691.62
730.66	1755.11
730.84	1738.73
731.02	1716.20
731.20	1718.25
731.38	1761.25
731.56	1683.43
731.74	1638.38
731.93	1658.85
732.11	1753.06
732.29	1802.21
732.47	1746.92
732.65	1701.86
732.83	1732.58
733.01	1677.29
733.19	1681.38
733.37	1701.86
733.56	1736.68
733.74	1683.43
733.92	1755.11
734.10	1679.33
734.28	1814.50
734.46	1689.57
734.64	1697.77
734.82	1662.95
735.00	1738.73
735.18	1728.49
735.36	1720.29
735.54	1685.48
735.73	1718.25
735.91	1689.57
736.09	1781.73
736.27	1697.77
736.45	1724.39
736.63	1656.81
736.81	1726.44
736.99	1726.44
737.17	1798.12
737.35	1732.58
737.53	1683.43
737.71	1720.29
737.89	1800.16
738.07	1611.75
738.25	1658.85
738.43	1634.28
738.61	1691.62
738.80	1605.61
738.98	1697.77
739.16	1660.90
739.34	1624.04
739.52	1806.31
739.70	1675.24
739.88	1701.86
740.06	1724.39
740.24	1591.27
740.42	1699.81
740.60	1677.29
740.78	1710.05
740.96	1656.81
741.14	1626.09
741.32	1703.91
741.50	1626.09
741.68	1804.26
741.86	1816.55
742.04	1632.23
742.22	1669.09
742.40	1730.53
742.58	1726.44
742.76	1658.85
742.94	1730.53
743.12	1685.48
743.30	1734.63
743.48	1751.01
743.66	1660.90
743.84	1761.25
744.02	1638.38
744.20	1605.61
744.38	1548.26
744.56	1650.66
744.74	1744.87
744.92	1748.97
745.10	1802.21
745.28	1687.53
745.46	1804.26
745.64	1640.42
745.82	1736.68
746.00	1648.61
746.18	1693.67
746.36	1689.57
746.54	1753.06
746.72	1638.38
746.90	1681.38
747.08	1763.30
747.26	1671.14
747.44	1636.33
747.62	1746.92
747.80	1710.05
747.98	1746.92
748.15	1624.04
748.33	1824.74
748.51	1748.97
748.69	1744.87
748.87	1601.51
749.05	1699.81
749.23	1734.63
749.41	1849.32
749.59	1714.15
749.77	1781.73
749.95	1751.01
750.13	1667.05
750.31	1708.01
750.49	1722.34
750.67	1748.97
750.85	1845.22
751.03	1712.10
751.20	1843.17
751.38	1685.48
751.56	1656.81
751.74	1683.43
751.92	1605.61
752.10	1675.24
752.28	1718.25
752.46	1650.66
752.64	1724.39
752.82	1718.25
753.00	1791.97
753.18	1675.24
753.35	1599.46
753.53	1683.43
753.71	1697.77
753.89	1767.40
754.07	1701.86
754.25	1722.34
754.43	1685.48
754.61	1566.70
754.79	1767.40
754.97	1679.33
755.14	1765.35
755.32	1667.05
755.50	1720.29
755.68	1712.10
755.86	1583.08
756.04	1658.85
756.22	1558.50
756.40	1748.97
756.57	1867.75
756.75	1677.29
756.93	1759.21
757.11	1740.77
757.29	1611.75
757.47	1718.25
757.65	1642.47
757.82	1595.37
758.00	1669.09
758.18	1734.63
758.36	1689.57
758.54	1796.07
758.72	1677.29
758.90	1701.86
759.07	1669.09
759.25	1689.57
759.43	1716.20
759.61	1568.74
759.79	2191.33
759.97	1787.88
760.15	1658.85
760.32	1687.53
760.50	1691.62
760.68	1716.20
760.86	1595.37
761.04	1765.35
761.22	1697.77
761.39	1755.11
761.57	1712.10
761.75	1765.35
761.93	1748.97
762.11	1644.52
762.28	1648.61
762.46	1681.38
762.64	1802.21
762.82	1624.04
763.00	1720.29
763.18	1746.92
763.35	1667.05
763.53	1720.29
763.71	1748.97
763.89	1716.20
764.07	1673.19
764.24	1687.53
764.42	1775.59
764.60	1652.71
764.78	1759.21
764.96	1738.73
765.13	1660.90
765.31	1742.82
765.49	1794.02
765.67	1640.42
765.84	1658.85
766.02	1646.57
766.20	1640.42
766.38	1732.58
766.56	1787.88
766.73	1765.35
766.91	1763.30
767.09	1738.73
767.27	1757.16
767.44	1658.85
767.62	1730.53
767.80	1679.33
767.98	1683.43
768.15	1773.54
768.33	1718.25
768.51	1748.97
768.69	1742.82
768.87	1746.92
769.04	1714.15
769.22	1779.68
769.40	1781.73
769.58	1851.36
769.75	1716.20
769.93	1775.59
770.11	1677.29
770.28	1701.86
770.46	1738.73
770.64	1685.48
770.82	1685.48
770.99	1718.25
771.17	1744.87
771.35	1689.57
771.53	1693.67
771.70	1650.66
771.88	1726.44
772.06	1689.57
772.23	1705.96
772.41	1740.77
772.59	1648.61
772.77	1613.80
772.94	1777.64
773.12	1652.71
773.30	1632.23
773.47	1708.01
773.65	1693.67
773.83	1730.53
774.01	1740.77
774.18	1562.60
774.36	1708.01
774.54	1576.94
774.71	1800.16
774.89	1589.22
775.07	1697.77
775.24	1636.33
775.42	1742.82
775.60	1814.50
775.78	1644.52
775.95	1626.09
776.13	1576.94
776.31	1576.94
776.48	1687.53
776.66	1865.70
776.84	1671.14
777.01	1683.43
777.19	1660.90
777.37	1677.29
777.54	1732.58
777.72	1839.08
777.90	1665.00
778.07	1654.76
778.25	1900.52
778.43	1726.44
778.60	1701.86
778.78	1746.92
778.96	1722.34
779.13	1636.33
779.31	1710.05
779.49	1708.01
779.66	1669.09
779.84	1710.05
780.01	1611.75
780.19	1650.66
780.37	1705.96
780.54	1775.59
780.72	1607.66
780.90	1701.86
781.07	1685.48
781.25	1642.47
781.43	1789.92
781.60	1685.48
781.78	1691.62
781.95	1703.91
782.13	1611.75
782.31	1703.91
782.48	1542.12
782.66	1753.06
782.83	1751.01
783.01	1689.57
783.19	1710.05
783.36	1705.96
783.54	1619.94
783.72	1730.53
783.89	1662.95
784.07	1789.92
784.24	1669.09
784.42	1710.05
784.60	1732.58
784.77	1773.54
784.95	1529.83
785.12	1581.03
785.30	1703.91
785.47	1673.19
785.65	1648.61
785.83	1601.51
786.00	1677.29
786.18	1746.92
786.35	1636.33
786.53	1603.56
786.71	1744.87
786.88	1695.72
787.06	1708.01
787.23	1697.77
787.41	1703.91
787.58	1728.49
787.76	1587.18
787.94	1669.09
788.11	1662.95
788.29	1726.44
788.46	1716.20
788.64	1578.98
788.81	1712.10
788.99	1710.05
789.16	1683.43
789.34	1648.61
789.52	1660.90
789.69	1671.14
789.87	1589.22
790.04	1644.52
790.22	1671.14
790.39	1787.88
790.57	1640.42
790.74	1660.90
790.92	1751.01
791.09	1724.39
791.27	1716.20
791.44	1816.55
791.62	1621.99
791.79	1763.30
791.97	1703.91
792.15	1910.75
792.32	1714.15
792.50	1724.39
792.67	1759.21
792.85	1755.11
793.02	1753.06
793.20	1665.00
793.37	1626.09
793.55	1724.39
793.72	1644.52
793.90	1742.82
794.07	1630.18
794.25	1722.34
794.42	1697.77
794.60	1671.14
794.77	1751.01
794.95	1744.87
795.12	1728.49
795.30	1634.28
795.47	1564.65
795.65	1828.84
795.82	1748.97
796.00	1652.71
796.17	1636.33
796.34	1640.42
796.52	1681.38
796.69	1839.08
796.87	1716.20
797.04	1703.91
797.22	1675.24
797.39	1730.53
797.57	1759.21
797.74	1738.73
797.92	1726.44
798.09	1650.66
798.27	1736.68
798.44	1728.49
798.62	1669.09
798.79	1660.90
798.96	1775.59
799.14	1691.62
799.31	1855.46
799.49	1681.38
799.66	1695.72
799.84	1714.15
800.01	1626.09
800.19	1714.15
800.36	1632.23
800.53	1738.73
800.71	1697.77
800.88	1742.82
801.06	1642.47
801.23	1673.19
801.41	1691.62
801.58	1724.39
801.75	1738.73
801.93	1634.28
802.10	1708.01
802.28	1689.57
802.45	1634.28
802.63	1708.01
802.80	1775.59
802.97	1634.28
803.15	1683.43
803.32	1634.28
803.50	1656.81
803.67	1636.33
803.84	1691.62
804.02	1724.39
804.19	1630.18
804.37	1589.22
804.54	1552.36
804.71	1658.85
804.89	1720.29
805.06	1621.99
805.24	1710.05
805.41	1646.57
805.58	1634.28
805.76	1820.64
805.93	1613.80
806.10	1736.68
806.28	1777.64
806.45	1671.14
806.63	1669.09
806.80	1710.05
806.97	1675.24
807.15	1767.40
807.32	1748.97
807.49	1708.01
807.67	1615.85
807.84	1710.05
808.01	1648.61
808.19	1812.45
808.36	1816.55
808.54	1701.86
808.71	1638.38
808.88	1726.44
809.06	1734.63
809.23	1779.68
809.40	1656.81
809.58	1783.78
809.75	1685.48
809.92	1724.39
810.10	1812.45
810.27	1755.11
810.44	1705.96
810.62	1669.09
810.79	1712.10
810.96	1691.62
811.14	1677.29
811.31	1748.97
811.48	1808.36
811.66	1642.47
811.83	1726.44
812.00	1748.97
812.18	1726.44
812.35	1806.31
812.52	1716.20
812.69	1667.05
812.87	1720.29
813.04	1611.75
813.21	1658.85
813.39	1708.01
813.56	1642.47
813.73	1705.96
813.91	1626.09
814.08	1701.86
814.25	1714.15
814.42	1599.46
814.60	1662.95
814.77	1738.73
814.94	1734.63
815.12	1724.39
815.29	1744.87
815.46	1658.85
815.63	1691.62
815.81	1740.77
815.98	1697.77
816.15	1675.24
816.33	1705.96
816.50	1716.20
816.67	1636.33
816.84	1689.57
817.02	1648.61
817.19	1695.72
817.36	1697.77
817.53	1798.12
817.71	1656.81
817.88	1779.68
818.05	1714.15
818.22	1734.63
818.40	1777.64
818.57	1714.15
818.74	1746.92
818.91	1695.72
819.09	1705.96
819.26	1675.24
819.43	1656.81
819.60	1697.77
819.78	1689.57
819.95	1763.30
820.12	1703.91
820.29	1849.32
820.47	1738.73
820.64	1669.09
820.81	1652.71
820.98	1601.51
821.15	1695.72
821.33	1779.68
821.50	1644.52
821.67	1738.73
821.84	1679.33
822.02	1787.88
822.19	1785.83
822.36	1677.29
822.53	1699.81
822.70	1718.25
822.88	1667.05
823.05	1814.50
823.22	1710.05
823.39	1705.96
823.56	1677.29
823.74	1789.92
823.91	1617.90
824.08	1677.29
824.25	1546.22
824.42	1765.35
824.60	1621.99
824.77	1748.97
824.94	1679.33
825.11	1734.63
825.28	1675.24
825.45	1718.25
825.63	1755.11
825.80	1687.53
825.97	1710.05
826.14	1634.28
826.31	1591.27
826.48	1693.67
826.66	1607.66
826.83	1656.81
827.00	1726.44
827.17	1607.66
827.34	1675.24
827.51	1660.90
827.69	1638.38
827.86	1689.57
828.03	1761.25
828.20	1787.88
828.37	1656.81
828.54	1714.15
828.71	1660.90
828.89	1763.30
829.06	1730.53
829.23	1765.35
829.40	1701.86
829.57	1669.09
829.74	1732.58
829.91	1712.10
830.09	1599.46
830.26	1724.39
830.43	1800.16
830.60	1736.68
830.77	1675.24
830.94	1771.49
831.11	1689.57
831.28	1634.28
831.46	1724.39
831.63	1701.86
831.80	1794.02
831.97	1632.23
832.14	1685.48
832.31	1783.78
832.48	1775.59
832.65	1740.77
832.82	1648.61
832.99	1689.57
833.17	1634.28
833.34	1757.16
833.51	1732.58
833.68	1619.94
833.85	1703.91
834.02	1679.33
834.19	1599.46
834.36	1679.33
834.53	1695.72
834.70	1789.92
834.87	1730.53
835.04	1763.30
835.22	1601.51
835.39	1665.00
835.56	1654.76
835.73	1673.19
835.90	1759.21
836.07	1652.71
836.24	1716.20
836.41	1640.42
836.58	1703.91
836.75	1773.54
836.92	1718.25
837.09	1656.81
837.26	1769.44
837.43	1703.91
837.60	1679.33
837.77	1742.82
837.94	1796.07
838.12	1748.97
838.29	1705.96
838.46	1667.05
838.63	1693.67
838.80	1751.01
838.97	1763.30
839.14	1632.23
839.31	1669.09
839.48	1697.77
839.65	1617.90
839.82	1726.44
839.99	1701.86
840.16	1753.06
840.33	1724.39
840.50	1665.00
840.67	1689.57
840.84	1554.41
841.01	1693.67
841.18	1656.81
841.35	1673.19
841.52	1683.43
841.69	1738.73
841.86	1763.30
842.03	1662.95
842.20	1722.34
842.37	1648.61
842.54	1753.06
842.71	1751.01
842.88	1640.42
843.05	1708.01
843.22	1769.44
843.39	1640.42
843.56	1712.10
843.73	1765.35
843.90	1708.01
844.07	1673.19
844.24	1710.05
844.41	1720.29
844.58	1738.73
844.75	1716.20
844.92	1724.39
845.09	1761.25
845.26	1679.33
845.43	1726.44
845.60	1720.29
845.77	1681.38
845.94	1759.21
846.10	1783.78
846.27	1591.27
846.44	1630.18
846.61	1712.10
846.78	1771.49
846.95	1746.92
847.12	1583.08
847.29	1722.34
847.46	1695.72
847.63	1785.83
847.80	1578.98
847.97	1693.67
848.14	1720.29
848.31	1660.90
848.48	1626.09
848.65	1671.14
848.82	1701.86
848.98	1828.84
849.15	1703.91
849.32	1736.68
849.49	1714.15
849.66	1636.33
849.83	1662.95
850.00	1675.24
850.17	1658.85
850.34	1669.09
850.51	1636.33
850.68	1697.77
850.85	1796.07
851.01	1716.20
851.18	1746.92
851.35	1687.53
851.52	1746.92
851.69	1875.94
851.86	1607.66
852.03	1695.72
852.20	1738.73
852.37	1675.24
852.53	1599.46
852.70	1683.43
852.87	1710.05
853.04	1691.62
853.21	1716.20
853.38	1703.91
853.55	1732.58
853.72	1669.09
853.89	1660.90
854.05	1722.34
854.22	1628.14
854.39	1628.14
854.56	1665.00
854.73	1697.77
854.90	1662.95
855.07	1720.29
855.23	1765.35
855.40	1648.61
855.57	1636.33
855.74	1621.99
855.91	1910.75
856.08	1665.00
856.25	1652.71
856.41	1660.90
856.58	1640.42
856.75	1738.73
856.92	1607.66
857.09	1726.44
857.26	1597.42
857.42	1757.16
857.59	1755.11
857.76	1634.28
857.93	1751.01
858.10	1621.99
858.27	1609.70
858.43	1720.29
858.60	1658.85
858.77	1585.13
858.94	1716.20
859.11	1837.03
859.27	1703.91
859.44	1701.86
859.61	1769.44
859.78	1730.53
859.95	1728.49
860.12	1632.23
860.28	1787.88
860.45	1837.03
860.62	1767.40
860.79	1697.77
860.95	1669.09
861.12	1583.08
861.29	1658.85
861.46	1601.51
861.63	1734.63
861.79	1712.10
861.96	1597.42
862.13	1671.14
862.30	1685.48
862.47	1650.66
862.63	1652.71
862.80	1703.91
862.97	1771.49
863.14	1689.57
863.30	1724.39
863.47	1654.76
863.64	1787.88
863.81	1761.25
863.97	1693.67
864.14	1673.19
864.31	1714.15
864.48	1773.54
864.65	1681.38
864.81	1828.84
864.98	1656.81
865.15	1703.91
865.32	1859.56
865.48	1693.67
865.65	1810.40
865.82	1708.01
865.98	1722.34
866.15	1722.34
866.32	1716.20
866.49	1607.66
866.65	1832.93
866.82	1675.24
866.99	1671.14
867.16	1720.29
867.32	1736.68
867.49	1662.95
867.66	1714.15
867.83	1671.14
867.99	1566.70
868.16	1619.94
868.33	1658.85
868.49	1767.40
868.66	1716.20
868.83	1763.30
868.99	1718.25
869.16	1714.15
869.33	1742.82
869.50	1757.16
869.66	1685.48
869.83	1662.95
870.00	1593.32
870.16	1779.68
870.33	1705.96
870.50	1753.06
870.66	1648.61
870.83	1787.88
871.00	1708.01
871.17	1763.30
871.33	1683.43
871.50	1763.30
871.67	1738.73
871.83	1628.14
872.00	1851.36
872.17	1710.05
872.33	1722.34
872.50	1771.49
872.67	1712.10
872.83	1667.05
873.00	1646.57
873.17	1669.09
873.33	1720.29
873.50	1789.92
873.67	1685.48
873.83	1544.17
874.00	1679.33
874.16	1744.87
874.33	1734.63
874.50	1648.61
874.66	1714.15
874.83	1728.49
875.00	1748.97
875.16	1816.55
875.33	1841.12
875.50	1656.81
875.66	1646.57
875.83	1724.39
875.99	1720.29
876.16	1652.71
876.33	1644.52
876.49	1734.63
876.66	1716.20
876.83	1746.92
876.99	1636.33
877.16	1736.68
877.32	1812.45
877.49	1681.38
877.66	1738.73
877.82	1755.11
877.99	1744.87
878.15	1820.64
878.32	1693.67
878.49	1695.72
878.65	1697.77
878.82	1839.08
878.98	1630.18
879.15	1710.05
879.32	1681.38
879.48	1697.77
879.65	1697.77
879.81	1691.62
879.98	1636.33
880.15	1687.53
880.31	1773.54
880.48	1681.38
880.64	1751.01
880.81	1742.82
880.97	1736.68
881.14	1773.54
881.31	1628.14
881.47	1820.64
881.64	1685.48
881.80	1533.93
881.97	1730.53
882.13	1765.35
882.30	1640.42
882.47	1687.53
882.63	1685.48
882.80	1662.95
882.96	1652.71
883.13	1685.48
883.29	1673.19
883.46	1660.90
883.62	1794.02
883.79	1746.92
883.95	1679.33
884.12	1656.81
884.29	1744.87
884.45	1646.57
884.62	1734.63
884.78	1740.77
884.95	1722.34
885.11	1730.53
885.28	1726.44
885.44	1634.28
885.61	1615.85
885.77	1789.92
885.94	1693.67
886.10	1746.92
886.27	1654.76
886.43	1740.77
886.60	1771.49
886.76	1630.18
886.93	1673.19
887.09	1708.01
887.26	1570.79
887.42	1617.90
887.59	1697.77
887.75	1894.37
887.92	1720.29
888.08	1738.73
888.25	1832.93
888.41	1783.78
888.58	1796.07
888.74	1599.46
888.91	1611.75
>>>>>End Processed Spectral Data<<<<<
