SpectraSuite Data File
++++++++++++++++++++++++++++++++++++
Date: Mon Jun 06 17:12:17 CEST 2016
User: root
Dark Spectrum Present: No
Reference Spectrum Present: No
Number of Sampled Component Spectra: 1
Spectrometers: USB4C02835
Integration Time (usec): 100000 (USB4C02835)
Spectra Averaged: 1 (USB4C02835)
Boxcar Smoothing: 0 (USB4C02835)
Correct for Electrical Dark: No (USB4C02835)
Strobe/Lamp Enabled: No (USB4C02835)
Correct for Detector Non-linearity: No (USB4C02835)
Correct for Stray Light: No (USB4C02835)
Number of Pixels in Processed Spectrum: 3648
>>>>>Begin Processed Spectral Data<<<<<
177.47	1439.72
177.69	1439.72
177.91	1439.72
178.13	1495.02
178.36	1443.82
178.58	1656.81
178.80	1662.95
179.02	1624.04
179.24	1677.29
179.46	1695.72
179.68	1804.26
179.90	1683.43
180.13	1724.39
180.35	1662.95
180.57	1619.94
180.79	1734.63
181.01	1687.53
181.23	1812.45
181.45	1775.59
181.67	1724.39
181.90	1738.73
182.12	1701.86
182.34	1667.05
182.56	1734.63
182.78	1732.58
183.00	1751.01
183.22	1646.57
183.44	1632.23
183.66	1918.95
183.89	1810.40
184.11	1703.91
184.33	1716.20
184.55	1798.12
184.77	1681.38
184.99	1759.21
185.21	1652.71
185.43	1796.07
185.65	1693.67
185.87	1751.01
186.10	1861.60
186.32	1890.28
186.54	1755.11
186.76	1693.67
186.98	1714.15
187.20	1728.49
187.42	1738.73
187.64	1685.48
187.86	1699.81
188.08	1714.15
188.30	1607.66
188.52	1765.35
188.75	1751.01
188.97	1722.34
189.19	1726.44
189.41	1726.44
189.63	1687.53
189.85	1636.33
190.07	1689.57
190.29	1632.23
190.51	1787.88
190.73	1648.61
190.95	1728.49
191.17	1740.77
191.39	1601.51
191.61	1712.10
191.84	1767.40
192.06	1689.57
192.28	1581.03
192.50	1896.42
192.72	1716.20
192.94	1724.39
193.16	1748.97
193.38	1716.20
193.60	1632.23
193.82	1763.30
194.04	1763.30
194.26	1744.87
194.48	1708.01
194.70	1638.38
194.92	1769.44
195.14	1726.44
195.36	1681.38
195.58	1765.35
195.80	1691.62
196.02	1677.29
196.24	1751.01
196.46	1812.45
196.69	1734.63
196.91	1820.64
197.13	1746.92
197.35	1705.96
197.57	1828.84
197.79	1796.07
198.01	1689.57
198.23	1740.77
198.45	1748.97
198.67	1699.81
198.89	1665.00
199.11	1691.62
199.33	1675.24
199.55	1570.79
199.77	1693.67
199.99	1708.01
200.21	1703.91
200.43	1761.25
200.65	1677.29
200.87	1648.61
201.09	1708.01
201.31	1755.11
201.53	1816.55
201.75	1699.81
201.97	1763.30
202.19	1697.77
202.41	1693.67
202.63	1763.30
202.85	1802.21
203.07	1730.53
203.29	1697.77
203.51	1638.38
203.73	1689.57
203.95	1918.95
204.17	1705.96
204.39	1634.28
204.61	1638.38
204.83	1675.24
205.05	1728.49
205.27	1761.25
205.49	1748.97
205.71	1763.30
205.93	1726.44
206.15	1681.38
206.37	1708.01
206.59	1589.22
206.81	1603.56
207.03	1646.57
207.25	1677.29
207.47	1755.11
207.69	1669.09
207.91	1826.79
208.13	1804.26
208.34	1628.14
208.56	1646.57
208.78	1730.53
209.00	1703.91
209.22	1662.95
209.44	1652.71
209.66	1667.05
209.88	1656.81
210.10	1583.08
210.32	1669.09
210.54	1785.83
210.76	1673.19
210.98	1806.31
211.20	1648.61
211.42	1728.49
211.64	1839.08
211.86	1742.82
212.08	1746.92
212.30	1705.96
212.52	1734.63
212.74	1755.11
212.96	1751.01
213.17	1736.68
213.39	1773.54
213.61	1839.08
213.83	1730.53
214.05	1658.85
214.27	1814.50
214.49	1640.42
214.71	1765.35
214.93	1771.49
215.15	1767.40
215.37	1787.88
215.59	1621.99
215.81	1746.92
216.03	1769.44
216.24	1732.58
216.46	1677.29
216.68	1697.77
216.90	1755.11
217.12	1800.16
217.34	1679.33
217.56	1683.43
217.78	1800.16
218.00	1677.29
218.22	1695.72
218.44	1679.33
218.66	1746.92
218.87	1783.78
219.09	1652.71
219.31	1781.73
219.53	1701.86
219.75	1738.73
219.97	1712.10
220.19	1773.54
220.41	1681.38
220.63	1779.68
220.85	1710.05
221.06	1656.81
221.28	1791.97
221.50	1730.53
221.72	1746.92
221.94	1796.07
222.16	1695.72
222.38	1781.73
222.60	1701.86
222.82	1648.61
223.03	1746.92
223.25	1621.99
223.47	1777.64
223.69	1826.79
223.91	1767.40
224.13	1726.44
224.35	1714.15
224.57	1837.03
224.78	1796.07
225.00	1677.29
225.22	1683.43
225.44	1691.62
225.66	1738.73
225.88	1671.14
226.10	1705.96
226.32	1783.78
226.53	1746.92
226.75	1683.43
226.97	1671.14
227.19	1626.09
227.41	1607.66
227.63	1652.71
227.85	1638.38
228.06	1769.44
228.28	1744.87
228.50	1763.30
228.72	1660.90
228.94	1703.91
229.16	1660.90
229.37	1611.75
229.59	1583.08
229.81	1787.88
230.03	1650.66
230.25	1710.05
230.47	1607.66
230.69	1638.38
230.90	1773.54
231.12	1679.33
231.34	1746.92
231.56	1730.53
231.78	1576.94
232.00	1732.58
232.21	1630.18
232.43	1658.85
232.65	1603.56
232.87	1736.68
233.09	1685.48
233.30	1689.57
233.52	1767.40
233.74	1703.91
233.96	1697.77
234.18	1667.05
234.40	1697.77
234.61	1849.32
234.83	1701.86
235.05	1714.15
235.27	1777.64
235.49	1728.49
235.70	1738.73
235.92	1828.84
236.14	1791.97
236.36	1908.71
236.58	1630.18
236.79	1716.20
237.01	1681.38
237.23	1708.01
237.45	1918.95
237.67	1648.61
237.88	1746.92
238.10	1837.03
238.32	1638.38
238.54	1685.48
238.76	1638.38
238.97	1669.09
239.19	1638.38
239.41	1748.97
239.63	1816.55
239.85	1669.09
240.06	1652.71
240.28	1701.86
240.50	1675.24
240.72	1720.29
240.93	1751.01
241.15	1763.30
241.37	1755.11
241.59	1759.21
241.81	1693.67
242.02	1757.16
242.24	1767.40
242.46	1744.87
242.68	1730.53
242.89	1755.11
243.11	1724.39
243.33	1746.92
243.55	1734.63
243.76	1732.58
243.98	1701.86
244.20	1693.67
244.42	1701.86
244.64	1757.16
244.85	1740.77
245.07	1667.05
245.29	1703.91
245.51	1652.71
245.72	1755.11
245.94	1869.80
246.16	1724.39
246.38	1791.97
246.59	1646.57
246.81	1654.76
247.03	1689.57
247.24	1665.00
247.46	1693.67
247.68	1710.05
247.90	1632.23
248.11	1642.47
248.33	1730.53
248.55	1685.48
248.77	1742.82
248.98	1759.21
249.20	1779.68
249.42	1677.29
249.64	1740.77
249.85	1689.57
250.07	1728.49
250.29	1763.30
250.50	1755.11
250.72	1673.19
250.94	1785.83
251.16	1851.36
251.37	1812.45
251.59	1748.97
251.81	1716.20
252.02	1783.78
252.24	1687.53
252.46	1800.16
252.68	1656.81
252.89	1597.42
253.11	1650.66
253.33	1753.06
253.54	1718.25
253.76	1636.33
253.98	1732.58
254.20	1701.86
254.41	1615.85
254.63	1730.53
254.85	1652.71
255.06	1656.81
255.28	1722.34
255.50	1710.05
255.71	1593.32
255.93	1632.23
256.15	1714.15
256.36	1726.44
256.58	1671.14
256.80	1751.01
257.02	1675.24
257.23	1708.01
257.45	1703.91
257.67	1699.81
257.88	1689.57
258.10	1775.59
258.32	1710.05
258.53	1708.01
258.75	1732.58
258.97	1638.38
259.18	1736.68
259.40	1683.43
259.62	1796.07
259.83	1806.31
260.05	1751.01
260.27	1996.77
260.48	1732.58
260.70	1691.62
260.92	1769.44
261.13	1689.57
261.35	1677.29
261.57	1771.49
261.78	1630.18
262.00	1642.47
262.22	1755.11
262.43	1640.42
262.65	1689.57
262.86	1726.44
263.08	1802.21
263.30	1767.40
263.51	1624.04
263.73	1681.38
263.95	1806.31
264.16	1642.47
264.38	1671.14
264.60	1775.59
264.81	1730.53
265.03	1734.63
265.25	1738.73
265.46	1742.82
265.68	1724.39
265.89	1728.49
266.11	1624.04
266.33	1751.01
266.54	1791.97
266.76	1689.57
266.98	1728.49
267.19	1789.92
267.41	1685.48
267.62	1718.25
267.84	1638.38
268.06	1787.88
268.27	1736.68
268.49	1796.07
268.70	1751.01
268.92	1675.24
269.14	1673.19
269.35	1718.25
269.57	1714.15
269.79	1728.49
270.00	1720.29
270.22	1757.16
270.43	1746.92
270.65	1621.99
270.87	1728.49
271.08	1791.97
271.30	1751.01
271.51	1767.40
271.73	1769.44
271.95	1763.30
272.16	1679.33
272.38	1708.01
272.59	1708.01
272.81	1771.49
273.02	1724.39
273.24	1765.35
273.46	1753.06
273.67	1691.62
273.89	1660.90
274.10	1660.90
274.32	1779.68
274.54	1718.25
274.75	1740.77
274.97	1705.96
275.18	1759.21
275.40	1740.77
275.61	1681.38
275.83	1755.11
276.05	1667.05
276.26	1656.81
276.48	1705.96
276.69	1677.29
276.91	1699.81
277.12	1804.26
277.34	1787.88
277.55	1755.11
277.77	1763.30
277.99	1683.43
278.20	1658.85
278.42	1746.92
278.63	1689.57
278.85	1708.01
279.06	1640.42
279.28	1734.63
279.49	1775.59
279.71	1660.90
279.93	1755.11
280.14	1740.77
280.36	1634.28
280.57	1701.86
280.79	1769.44
281.00	1755.11
281.22	1693.67
281.43	1834.98
281.65	1593.32
281.86	1650.66
282.08	1808.36
282.29	1820.64
282.51	1689.57
282.73	1656.81
282.94	1564.65
283.16	1738.73
283.37	1794.02
283.59	1689.57
283.80	1710.05
284.02	1714.15
284.23	1736.68
284.45	1699.81
284.66	1640.42
284.88	1689.57
285.09	1744.87
285.31	1798.12
285.52	1667.05
285.74	1574.89
285.95	1834.98
286.17	1779.68
286.38	1841.12
286.60	1642.47
286.81	1681.38
287.03	1630.18
287.24	1687.53
287.46	1738.73
287.67	1773.54
287.89	1814.50
288.10	1736.68
288.32	1767.40
288.53	1777.64
288.75	1734.63
288.96	1804.26
289.18	1718.25
289.39	1644.52
289.61	1714.15
289.82	1867.75
290.04	1806.31
290.25	1591.27
290.47	1681.38
290.68	1681.38
290.90	1757.16
291.11	1609.70
291.33	1761.25
291.54	1581.03
291.76	1693.67
291.97	1673.19
292.18	1677.29
292.40	1695.72
292.61	1648.61
292.83	1826.79
293.04	1742.82
293.26	1771.49
293.47	1732.58
293.69	1675.24
293.90	1660.90
294.12	1802.21
294.33	1730.53
294.55	1650.66
294.76	1828.84
294.97	1757.16
295.19	1808.36
295.40	1673.19
295.62	1748.97
295.83	1728.49
296.05	1677.29
296.26	1691.62
296.48	1697.77
296.69	1687.53
296.90	1802.21
297.12	1796.07
297.33	1794.02
297.55	1742.82
297.76	1726.44
297.98	1730.53
298.19	1728.49
298.41	1699.81
298.62	1654.76
298.83	1781.73
299.05	1738.73
299.26	1695.72
299.48	1673.19
299.69	1710.05
299.90	1671.14
300.12	1675.24
300.33	1722.34
300.55	1765.35
300.76	1781.73
300.98	1697.77
301.19	1656.81
301.40	1712.10
301.62	1718.25
301.83	1734.63
302.05	1746.92
302.26	1718.25
302.47	1718.25
302.69	1656.81
302.90	1675.24
303.12	1570.79
303.33	1771.49
303.54	1738.73
303.76	1724.39
303.97	1650.66
304.19	1789.92
304.40	1632.23
304.61	1718.25
304.83	1771.49
305.04	1783.78
305.26	1736.68
305.47	1708.01
305.68	1722.34
305.90	1679.33
306.11	1738.73
306.33	1642.47
306.54	1671.14
306.75	1691.62
306.97	1681.38
307.18	1624.04
307.39	1689.57
307.61	1791.97
307.82	1689.57
308.04	1812.45
308.25	1701.86
308.46	1705.96
308.68	1712.10
308.89	1742.82
309.10	1720.29
309.32	1759.21
309.53	1759.21
309.74	1763.30
309.96	1673.19
310.17	1800.16
310.39	1701.86
310.60	1736.68
310.81	1708.01
311.03	1685.48
311.24	1710.05
311.45	1652.71
311.67	1814.50
311.88	1728.49
312.09	1724.39
312.31	1677.29
312.52	1720.29
312.73	1679.33
312.95	1683.43
313.16	1683.43
313.37	1781.73
313.59	1689.57
313.80	1802.21
314.01	1773.54
314.23	1705.96
314.44	1712.10
314.65	1697.77
314.87	1693.67
315.08	1726.44
315.29	1701.86
315.51	1638.38
315.72	1658.85
315.93	1898.47
316.15	1804.26
316.36	1644.52
316.57	1732.58
316.79	1730.53
317.00	1714.15
317.21	1724.39
317.43	1640.42
317.64	1744.87
317.85	1701.86
318.07	1632.23
318.28	1765.35
318.49	1759.21
318.70	1912.80
318.92	1791.97
319.13	1837.03
319.34	1865.70
319.56	1763.30
319.77	1798.12
319.98	1832.93
320.20	1765.35
320.41	1779.68
320.62	1787.88
320.83	1658.85
321.05	1880.04
321.26	1705.96
321.47	1634.28
321.69	1824.74
321.90	1683.43
322.11	1697.77
322.32	1710.05
322.54	1755.11
322.75	1710.05
322.96	1847.27
323.18	1638.38
323.39	1644.52
323.60	1679.33
323.81	1800.16
324.03	1669.09
324.24	1732.58
324.45	1718.25
324.66	1740.77
324.88	1669.09
325.09	1738.73
325.30	1662.95
325.52	1751.01
325.73	1734.63
325.94	1714.15
326.15	1628.14
326.37	1603.56
326.58	1761.25
326.79	1892.32
327.00	1679.33
327.22	1708.01
327.43	1665.00
327.64	1714.15
327.85	1755.11
328.07	1724.39
328.28	1779.68
328.49	1669.09
328.70	1705.96
328.92	1699.81
329.13	1699.81
329.34	1796.07
329.55	1794.02
329.76	1734.63
329.98	1722.34
330.19	1767.40
330.40	1767.40
330.61	1736.68
330.83	1806.31
331.04	1648.61
331.25	1699.81
331.46	1716.20
331.68	1673.19
331.89	1759.21
332.10	1683.43
332.31	1654.76
332.52	1744.87
332.74	1748.97
332.95	1548.26
333.16	1677.29
333.37	1796.07
333.58	1691.62
333.80	1697.77
334.01	1656.81
334.22	1728.49
334.43	1667.05
334.64	1718.25
334.86	1624.04
335.07	1738.73
335.28	1744.87
335.49	1640.42
335.70	1726.44
335.92	1816.55
336.13	1843.17
336.34	1742.82
336.55	1748.97
336.76	1716.20
336.98	1595.37
337.19	1689.57
337.40	1798.12
337.61	1779.68
337.82	1587.18
338.04	1734.63
338.25	1619.94
338.46	1691.62
338.67	1656.81
338.88	1648.61
339.09	1619.94
339.31	1714.15
339.52	1665.00
339.73	1603.56
339.94	1640.42
340.15	1791.97
340.36	1650.66
340.58	1804.26
340.79	1708.01
341.00	1685.48
341.21	1667.05
341.42	1810.40
341.63	1695.72
341.85	1755.11
342.06	1730.53
342.27	1660.90
342.48	1751.01
342.69	1607.66
342.90	1744.87
343.12	1726.44
343.33	1699.81
343.54	1767.40
343.75	1816.55
343.96	1658.85
344.17	1619.94
344.38	1697.77
344.60	1781.73
344.81	1640.42
345.02	1728.49
345.23	1785.83
345.44	1787.88
345.65	1708.01
345.86	1753.06
346.07	1693.67
346.29	1665.00
346.50	1804.26
346.71	1687.53
346.92	1769.44
347.13	1824.74
347.34	1681.38
347.55	1675.24
347.76	1728.49
347.98	1624.04
348.19	1714.15
348.40	1806.31
348.61	1658.85
348.82	1732.58
349.03	1810.40
349.24	1662.95
349.45	1822.69
349.66	1656.81
349.88	1626.09
350.09	1591.27
350.30	1785.83
350.51	1730.53
350.72	1736.68
350.93	1689.57
351.14	1732.58
351.35	1759.21
351.56	1656.81
351.77	1744.87
351.99	1679.33
352.20	1855.46
352.41	1775.59
352.62	1572.84
352.83	1697.77
353.04	1708.01
353.25	1689.57
353.46	1738.73
353.67	1765.35
353.88	1609.70
354.09	1722.34
354.30	1722.34
354.52	1767.40
354.73	1773.54
354.94	1624.04
355.15	1722.34
355.36	1757.16
355.57	1656.81
355.78	1716.20
355.99	1701.86
356.20	1605.61
356.41	1765.35
356.62	1728.49
356.83	1665.00
357.04	1757.16
357.25	1607.66
357.46	1667.05
357.68	1609.70
357.89	1681.38
358.10	1681.38
358.31	1730.53
358.52	1646.57
358.73	1648.61
358.94	1667.05
359.15	1644.52
359.36	1724.39
359.57	1648.61
359.78	1748.97
359.99	1722.34
360.20	1644.52
360.41	1736.68
360.62	1734.63
360.83	1726.44
361.04	1771.49
361.25	1691.62
361.46	1873.89
361.67	1755.11
361.88	1781.73
362.09	1740.77
362.30	1767.40
362.51	1646.57
362.72	1705.96
362.93	1689.57
363.14	1763.30
363.35	1689.57
363.56	1738.73
363.78	1736.68
363.99	1775.59
364.20	1714.15
364.41	1712.10
364.62	1908.71
364.83	1732.58
365.04	1726.44
365.25	1654.76
365.46	1847.27
365.67	1767.40
365.88	1619.94
366.09	1671.14
366.30	1669.09
366.51	1755.11
366.72	1632.23
366.93	1726.44
367.14	1734.63
367.35	1791.97
367.56	1718.25
367.77	1767.40
367.98	1681.38
368.18	1755.11
368.39	1722.34
368.60	1685.48
368.81	1705.96
369.02	1630.18
369.23	1669.09
369.44	1554.41
369.65	1689.57
369.86	1734.63
370.07	1722.34
370.28	1740.77
370.49	1742.82
370.70	1777.64
370.91	1648.61
371.12	1658.85
371.33	1843.17
371.54	1687.53
371.75	1783.78
371.96	1564.65
372.17	1693.67
372.38	1617.90
372.59	1781.73
372.80	1642.47
373.01	1697.77
373.22	1767.40
373.43	1705.96
373.64	1591.27
373.85	1769.44
374.06	1724.39
374.26	1689.57
374.47	1695.72
374.68	1763.30
374.89	1751.01
375.10	1630.18
375.31	1755.11
375.52	1703.91
375.73	1761.25
375.94	1597.42
376.15	1753.06
376.36	1697.77
376.57	1697.77
376.78	1703.91
376.99	1673.19
377.20	1820.64
377.40	1748.97
377.61	1869.80
377.82	1689.57
378.03	1753.06
378.24	1761.25
378.45	1703.91
378.66	1767.40
378.87	1603.56
379.08	1634.28
379.29	1681.38
379.50	1783.78
379.71	1605.61
379.91	1730.53
380.12	1685.48
380.33	1755.11
380.54	1742.82
380.75	1605.61
380.96	1665.00
381.17	1718.25
381.38	1683.43
381.59	1755.11
381.80	1746.92
382.00	1849.32
382.21	1816.55
382.42	1859.56
382.63	1920.99
382.84	1751.01
383.05	1845.22
383.26	1826.79
383.47	1775.59
383.68	1798.12
383.88	1732.58
384.09	1742.82
384.30	1839.08
384.51	1714.15
384.72	1701.86
384.93	1648.61
385.14	1683.43
385.35	1767.40
385.55	1595.37
385.76	1812.45
385.97	1714.15
386.18	1693.67
386.39	1671.14
386.60	1712.10
386.81	1660.90
387.02	1646.57
387.22	1677.29
387.43	1837.03
387.64	1802.21
387.85	1918.95
388.06	2185.18
388.27	4106.18
388.48	6754.20
388.68	8163.20
388.89	9502.58
389.10	9654.12
389.31	8370.05
389.52	7434.13
389.73	6508.44
389.93	6121.38
390.14	5898.15
390.35	5253.04
390.56	4540.35
390.77	3833.80
390.98	3020.75
391.18	2543.58
391.39	2148.32
391.60	1808.36
391.81	1927.14
392.02	1787.88
392.23	1882.08
392.43	1716.20
392.64	1802.21
392.85	1773.54
393.06	1882.08
393.27	1671.14
393.47	1734.63
393.68	1705.96
393.89	1710.05
394.10	1777.64
394.31	1746.92
394.52	1693.67
394.72	1701.86
394.93	1796.07
395.14	1697.77
395.35	1726.44
395.56	1689.57
395.76	1773.54
395.97	1826.79
396.18	1843.17
396.39	1834.98
396.60	2027.49
396.80	1847.27
397.01	1802.21
397.22	1843.17
397.43	1863.65
397.64	1705.96
397.84	1816.55
398.05	1871.84
398.26	1710.05
398.47	1738.73
398.67	1779.68
398.88	1718.25
399.09	1806.31
399.30	1720.29
399.51	1732.58
399.71	1656.81
399.92	1730.53
400.13	1699.81
400.34	1703.91
400.54	1613.80
400.75	1806.31
400.96	1759.21
401.17	1843.17
401.37	1839.08
401.58	1746.92
401.79	1759.21
402.00	1839.08
402.21	1986.53
402.41	1906.66
402.62	2115.55
402.83	2041.82
403.04	2013.15
403.24	2150.37
403.45	1832.93
403.66	1957.86
403.87	1843.17
404.07	1853.41
404.28	1947.62
404.49	1796.07
404.70	1777.64
404.90	1734.63
405.11	1746.92
405.32	1722.34
405.52	1699.81
405.73	1773.54
405.94	1775.59
406.15	1677.29
406.35	1763.30
406.56	1734.63
406.77	1705.96
406.98	1806.31
407.18	1617.90
407.39	1841.12
407.60	1687.53
407.80	1714.15
408.01	1695.72
408.22	1759.21
408.43	1681.38
408.63	1726.44
408.84	1755.11
409.05	1775.59
409.25	1671.14
409.46	1667.05
409.67	1708.01
409.88	1656.81
410.08	1724.39
410.29	1738.73
410.50	1726.44
410.70	1732.58
410.91	1703.91
411.12	1736.68
411.32	1693.67
411.53	1738.73
411.74	1785.83
411.95	1769.44
412.15	1748.97
412.36	1812.45
412.57	1806.31
412.77	1806.31
412.98	1757.16
413.19	1716.20
413.39	1820.64
413.60	1783.78
413.81	1869.80
414.01	1638.38
414.22	1812.45
414.43	1785.83
414.63	1695.72
414.84	1710.05
415.05	1695.72
415.25	1724.39
415.46	1761.25
415.67	1679.33
415.87	1785.83
416.08	1710.05
416.29	1648.61
416.49	1824.74
416.70	1619.94
416.91	1681.38
417.11	1662.95
417.32	1716.20
417.53	1757.16
417.73	1740.77
417.94	1720.29
418.15	1683.43
418.35	1761.25
418.56	1722.34
418.77	1845.22
418.97	1718.25
419.18	1761.25
419.38	1630.18
419.59	1726.44
419.80	1789.92
420.00	1691.62
420.21	1718.25
420.42	1812.45
420.62	1767.40
420.83	1599.46
421.04	1726.44
421.24	1759.21
421.45	1728.49
421.65	1667.05
421.86	1722.34
422.07	1742.82
422.27	1681.38
422.48	1734.63
422.69	1630.18
422.89	1644.52
423.10	1708.01
423.30	1710.05
423.51	1714.15
423.72	1787.88
423.92	1728.49
424.13	1601.51
424.33	1630.18
424.54	1759.21
424.75	1673.19
424.95	1812.45
425.16	1812.45
425.36	1755.11
425.57	1796.07
425.78	1775.59
425.98	1830.88
426.19	1693.67
426.39	1609.70
426.60	1800.16
426.81	1738.73
427.01	1712.10
427.22	1626.09
427.42	1665.00
427.63	1660.90
427.83	1708.01
428.04	1771.49
428.25	1837.03
428.45	1734.63
428.66	1691.62
428.86	1742.82
429.07	1699.81
429.28	1695.72
429.48	1710.05
429.69	1638.38
429.89	1738.73
430.10	1607.66
430.30	1755.11
430.51	1755.11
430.71	1589.22
430.92	1724.39
431.13	1685.48
431.33	1806.31
431.54	1689.57
431.74	1771.49
431.95	1873.89
432.15	1634.28
432.36	1861.60
432.56	1777.64
432.77	1851.36
432.98	1820.64
433.18	1724.39
433.39	1677.29
433.59	1734.63
433.80	1828.84
434.00	1855.46
434.21	1689.57
434.41	1755.11
434.62	1927.14
434.82	1632.23
435.03	1644.52
435.23	1671.14
435.44	1656.81
435.64	1738.73
435.85	1708.01
436.06	1734.63
436.26	1806.31
436.47	1712.10
436.67	1644.52
436.88	1757.16
437.08	1753.06
437.29	1785.83
437.49	1796.07
437.70	1812.45
437.90	1730.53
438.11	1802.21
438.31	1877.99
438.52	1894.37
438.72	1816.55
438.93	1884.13
439.13	1722.34
439.34	1832.93
439.54	1763.30
439.75	1808.36
439.95	1847.27
440.16	1787.88
440.36	1734.63
440.57	1753.06
440.77	1804.26
440.98	1710.05
441.18	1787.88
441.39	1742.82
441.59	1632.23
441.80	1847.27
442.00	1800.16
442.21	1826.79
442.41	1705.96
442.62	1757.16
442.82	1769.44
443.02	1675.24
443.23	1716.20
443.43	1726.44
443.64	1785.83
443.84	1665.00
444.05	1738.73
444.25	1703.91
444.46	1732.58
444.66	1703.91
444.87	1822.69
445.07	1640.42
445.28	1738.73
445.48	1869.80
445.69	1806.31
445.89	1943.52
446.09	1787.88
446.30	2115.55
446.50	2633.69
446.71	3741.64
446.91	4366.27
447.12	4792.25
447.32	4712.38
447.53	4351.93
447.73	3880.90
447.93	3555.27
448.14	3227.60
448.34	3231.69
448.55	2826.20
448.75	2926.55
448.96	2672.60
449.16	2435.03
449.36	2246.62
449.57	2066.40
449.77	1904.61
449.98	1796.07
450.18	1779.68
450.39	1814.50
450.59	1763.30
450.79	1773.54
451.00	1746.92
451.20	1769.44
451.41	1777.64
451.61	1775.59
451.81	1769.44
452.02	1699.81
452.22	1708.01
452.43	1722.34
452.63	1640.42
452.84	1779.68
453.04	1705.96
453.24	1781.73
453.45	1708.01
453.65	1738.73
453.86	1738.73
454.06	1822.69
454.26	1726.44
454.47	1693.67
454.67	1830.88
454.87	1730.53
455.08	1771.49
455.28	1775.59
455.49	1705.96
455.69	1779.68
455.89	1855.46
456.10	1826.79
456.30	1720.29
456.51	1789.92
456.71	1814.50
456.91	1834.98
457.12	1753.06
457.32	1669.09
457.52	1634.28
457.73	1822.69
457.93	1730.53
458.14	1689.57
458.34	1722.34
458.54	1642.47
458.75	1769.44
458.95	1769.44
459.15	1724.39
459.36	1769.44
459.56	1769.44
459.76	1800.16
459.97	1710.05
460.17	1767.40
460.37	1751.01
460.58	1765.35
460.78	1800.16
460.99	1695.72
461.19	1687.53
461.39	1697.77
461.60	1693.67
461.80	1798.12
462.00	1708.01
462.21	1660.90
462.41	1726.44
462.61	1675.24
462.82	1728.49
463.02	1820.64
463.22	1755.11
463.43	1847.27
463.63	1789.92
463.83	1804.26
464.04	1828.84
464.24	1849.32
464.44	1693.67
464.64	1787.88
464.85	1765.35
465.05	1785.83
465.25	1736.68
465.46	1724.39
465.66	1849.32
465.86	1718.25
466.07	1718.25
466.27	1746.92
466.47	1728.49
466.68	1667.05
466.88	1789.92
467.08	1718.25
467.29	1794.02
467.49	1820.64
467.69	1773.54
467.89	1742.82
468.10	1773.54
468.30	1720.29
468.50	1814.50
468.71	1787.88
468.91	1650.66
469.11	1855.46
469.31	1738.73
469.52	1689.57
469.72	1896.42
469.92	1890.28
470.13	1708.01
470.33	1732.58
470.53	1845.22
470.73	2117.60
470.94	2228.19
471.14	2297.82
471.34	2375.64
471.54	2414.56
471.75	2148.32
471.95	2140.13
472.15	2160.61
472.36	2166.75
472.56	2154.46
472.76	2050.02
472.96	1933.28
473.17	1970.15
473.37	1984.48
473.57	1787.88
473.77	1837.03
473.98	1738.73
474.18	1648.61
474.38	1947.62
474.58	1691.62
474.79	1736.68
474.99	1787.88
475.19	1716.20
475.39	1585.13
475.60	1877.99
475.80	1806.31
476.00	1607.66
476.20	1691.62
476.41	1779.68
476.61	1841.12
476.81	1765.35
477.01	1660.90
477.21	1888.23
477.42	1841.12
477.62	1652.71
477.82	1785.83
478.02	1701.86
478.23	1751.01
478.43	1677.29
478.63	1605.61
478.83	1732.58
479.03	1730.53
479.24	1877.99
479.44	1871.84
479.64	1689.57
479.84	1658.85
480.04	1708.01
480.25	1697.77
480.45	1724.39
480.65	1730.53
480.85	1810.40
481.06	1658.85
481.26	1724.39
481.46	1732.58
481.66	1826.79
481.86	1738.73
482.06	1775.59
482.27	1638.38
482.47	1703.91
482.67	1740.77
482.87	1628.14
483.07	1791.97
483.28	1716.20
483.48	1601.51
483.68	1662.95
483.88	1699.81
484.08	1562.60
484.29	1648.61
484.49	1732.58
484.69	1671.14
484.89	1843.17
485.09	1794.02
485.29	1857.51
485.50	1755.11
485.70	1656.81
485.90	1751.01
486.10	1787.88
486.30	1804.26
486.50	1828.84
486.71	1800.16
486.91	1767.40
487.11	1796.07
487.31	1630.18
487.51	1746.92
487.71	1744.87
487.91	1665.00
488.12	1642.47
488.32	1562.60
488.52	1685.48
488.72	1617.90
488.92	1734.63
489.12	1757.16
489.32	1777.64
489.53	1789.92
489.73	1677.29
489.93	1796.07
490.13	1689.57
490.33	1677.29
490.53	1691.62
490.73	1798.12
490.94	1640.42
491.14	1820.64
491.34	1832.93
491.54	2158.56
491.74	2469.85
491.94	2932.69
492.14	2971.60
492.34	3065.81
492.54	2717.65
492.75	2500.57
492.95	2529.24
493.15	2351.07
493.35	2244.57
493.55	2275.29
493.75	2176.99
493.95	2072.54
494.15	1992.67
494.35	1882.08
494.56	1877.99
494.76	1812.45
494.96	1847.27
495.16	1851.36
495.36	1769.44
495.56	1771.49
495.76	1685.48
495.96	1687.53
496.16	1646.57
496.36	1757.16
496.56	1744.87
496.77	1746.92
496.97	1710.05
497.17	1796.07
497.37	1673.19
497.57	1765.35
497.77	1759.21
497.97	1699.81
498.17	1748.97
498.37	1777.64
498.57	1834.98
498.77	1740.77
498.97	1765.35
499.17	1810.40
499.38	1751.01
499.58	1771.49
499.78	1828.84
499.98	1839.08
500.18	1728.49
500.38	1759.21
500.58	1863.65
500.78	2566.10
500.98	4417.47
501.18	5707.69
501.38	6625.18
501.58	6985.62
501.78	6696.86
501.98	5447.60
502.18	5007.28
502.38	4370.37
502.58	4173.76
502.78	3694.54
502.98	3680.20
503.18	3502.03
503.38	3205.07
503.59	2791.38
503.79	2609.11
503.99	2394.08
504.19	2342.88
504.39	2263.01
504.59	2127.84
504.79	2150.37
504.99	2119.65
505.19	1902.56
505.39	1918.95
505.59	1974.24
505.79	1951.71
505.99	1927.14
506.19	1802.21
506.39	1886.18
506.59	1789.92
506.79	1783.78
506.99	1781.73
507.19	1802.21
507.39	1722.34
507.59	1691.62
507.79	1705.96
507.99	1667.05
508.19	1742.82
508.39	1746.92
508.59	1705.96
508.79	1820.64
508.99	1880.04
509.19	1687.53
509.39	1781.73
509.59	1742.82
509.79	1701.86
509.99	1701.86
510.19	1779.68
510.39	1794.02
510.59	1736.68
510.79	1742.82
510.99	1609.70
511.19	1730.53
511.39	1757.16
511.59	1863.65
511.79	1845.22
511.99	1755.11
512.19	1820.64
512.38	1767.40
512.58	1728.49
512.78	1732.58
512.98	1736.68
513.18	1740.77
513.38	1630.18
513.58	1734.63
513.78	1712.10
513.98	1693.67
514.18	1662.95
514.38	1615.85
514.58	1748.97
514.78	1751.01
514.98	1742.82
515.18	1665.00
515.38	1742.82
515.58	1877.99
515.78	1673.19
515.98	1720.29
516.18	1744.87
516.38	1794.02
516.57	1662.95
516.77	1718.25
516.97	1781.73
517.17	1673.19
517.37	1697.77
517.57	1734.63
517.77	1671.14
517.97	1660.90
518.17	1779.68
518.37	1705.96
518.57	1751.01
518.77	1679.33
518.97	1660.90
519.16	1722.34
519.36	1712.10
519.56	1751.01
519.76	1730.53
519.96	1726.44
520.16	1802.21
520.36	1699.81
520.56	1767.40
520.76	1771.49
520.96	1718.25
521.16	1785.83
521.35	1804.26
521.55	1787.88
521.75	1736.68
521.95	1730.53
522.15	1804.26
522.35	1681.38
522.55	1726.44
522.75	1812.45
522.95	1742.82
523.14	1652.71
523.34	1748.97
523.54	1669.09
523.74	1734.63
523.94	1767.40
524.14	1677.29
524.34	1812.45
524.54	1757.16
524.73	1791.97
524.93	1832.93
525.13	1730.53
525.33	1624.04
525.53	1886.18
525.73	1787.88
525.93	1765.35
526.13	1685.48
526.32	1667.05
526.52	1908.71
526.72	1828.84
526.92	1746.92
527.12	1718.25
527.32	1601.51
527.52	1738.73
527.71	1708.01
527.91	1740.77
528.11	1738.73
528.31	1738.73
528.51	1695.72
528.71	1755.11
528.90	1808.36
529.10	1804.26
529.30	1832.93
529.50	1691.62
529.70	1789.92
529.90	1681.38
530.09	1701.86
530.29	1724.39
530.49	1693.67
530.69	1806.31
530.89	1765.35
531.09	1820.64
531.28	1720.29
531.48	1794.02
531.68	1812.45
531.88	1787.88
532.08	1755.11
532.28	1705.96
532.47	1816.55
532.67	1847.27
532.87	1732.58
533.07	1724.39
533.27	1783.78
533.46	1726.44
533.66	1716.20
533.86	1812.45
534.06	1728.49
534.26	1763.30
534.45	1720.29
534.65	1757.16
534.85	1806.31
535.05	1695.72
535.25	1794.02
535.44	1595.37
535.64	1808.36
535.84	1710.05
536.04	1712.10
536.24	1699.81
536.43	1695.72
536.63	1855.46
536.83	1695.72
537.03	1736.68
537.22	1716.20
537.42	1628.14
537.62	1769.44
537.82	1726.44
538.02	1808.36
538.21	1818.60
538.41	1953.76
538.61	1818.60
538.81	1693.67
539.00	1898.47
539.20	1691.62
539.40	1658.85
539.60	1777.64
539.79	1767.40
539.99	1732.58
540.19	1703.91
540.39	1767.40
540.58	1738.73
540.78	1789.92
540.98	1757.16
541.18	1765.35
541.37	1755.11
541.57	1759.21
541.77	1789.92
541.97	1716.20
542.16	1677.29
542.36	1746.92
542.56	1847.27
542.76	1779.68
542.95	1841.12
543.15	1787.88
543.35	1779.68
543.54	1669.09
543.74	1650.66
543.94	1800.16
544.14	1660.90
544.33	1841.12
544.53	1744.87
544.73	1783.78
544.93	1783.78
545.12	1718.25
545.32	1705.96
545.52	1736.68
545.71	1738.73
545.91	1689.57
546.11	1685.48
546.30	1708.01
546.50	1673.19
546.70	1851.36
546.90	1816.55
547.09	1652.71
547.29	1832.93
547.49	1800.16
547.68	1812.45
547.88	1624.04
548.08	1718.25
548.27	2240.48
548.47	1728.49
548.67	1634.28
548.87	1697.77
549.06	1708.01
549.26	1658.85
549.46	1796.07
549.65	1685.48
549.85	1783.78
550.05	1701.86
550.24	1564.65
550.44	1755.11
550.64	1728.49
550.83	1685.48
551.03	1812.45
551.23	1775.59
551.42	1736.68
551.62	1716.20
551.82	1716.20
552.01	1738.73
552.21	1800.16
552.41	1773.54
552.60	1851.36
552.80	1675.24
553.00	1734.63
553.19	1753.06
553.39	1880.04
553.59	1679.33
553.78	1738.73
553.98	1849.32
554.17	1697.77
554.37	1791.97
554.57	1814.50
554.76	1621.99
554.96	1705.96
555.16	1755.11
555.35	1765.35
555.55	1796.07
555.75	1730.53
555.94	1769.44
556.14	1683.43
556.33	1783.78
556.53	1687.53
556.73	1728.49
556.92	1746.92
557.12	1779.68
557.32	1814.50
557.51	1828.84
557.71	1810.40
557.90	1771.49
558.10	1841.12
558.30	1714.15
558.49	1699.81
558.69	1755.11
558.88	1763.30
559.08	1769.44
559.28	1777.64
559.47	1787.88
559.67	1794.02
559.86	1804.26
560.06	1789.92
560.26	1705.96
560.45	1718.25
560.65	1683.43
560.84	1796.07
561.04	1765.35
561.24	1730.53
561.43	1710.05
561.63	1810.40
561.82	1720.29
562.02	1779.68
562.22	1734.63
562.41	1734.63
562.61	1708.01
562.80	1683.43
563.00	1804.26
563.19	1804.26
563.39	1789.92
563.59	1812.45
563.78	1646.57
563.98	1611.75
564.17	1687.53
564.37	1667.05
564.56	1738.73
564.76	1677.29
564.96	1896.42
565.15	1726.44
565.35	1849.32
565.54	1669.09
565.74	1763.30
565.93	1789.92
566.13	1716.20
566.32	1669.09
566.52	1798.12
566.71	1677.29
566.91	1847.27
567.11	1718.25
567.30	1714.15
567.50	1712.10
567.69	1759.21
567.89	1714.15
568.08	1718.25
568.28	1779.68
568.47	1708.01
568.67	1783.78
568.86	1689.57
569.06	1843.17
569.25	1730.53
569.45	1785.83
569.64	1714.15
569.84	1716.20
570.04	1802.21
570.23	1734.63
570.43	1767.40
570.62	1796.07
570.82	1906.66
571.01	1697.77
571.21	1763.30
571.40	1691.62
571.60	1761.25
571.79	1679.33
571.99	1816.55
572.18	1662.95
572.38	1740.77
572.57	1697.77
572.77	1796.07
572.96	1841.12
573.16	1771.49
573.35	1710.05
573.55	1822.69
573.74	1761.25
573.94	1748.97
574.13	1785.83
574.33	1783.78
574.52	1843.17
574.71	1748.97
574.91	1767.40
575.10	1681.38
575.30	1630.18
575.49	1705.96
575.69	1732.58
575.88	1832.93
576.08	1650.66
576.27	1822.69
576.47	1728.49
576.66	1812.45
576.86	1820.64
577.05	1779.68
577.25	1763.30
577.44	1886.18
577.64	1726.44
577.83	1714.15
578.02	1695.72
578.22	1845.22
578.41	1918.95
578.61	1724.39
578.80	1638.38
579.00	1804.26
579.19	1724.39
579.39	1824.74
579.58	1783.78
579.77	1767.40
579.97	1886.18
580.16	1855.46
580.36	1847.27
580.55	1796.07
580.75	1830.88
580.94	1728.49
581.13	1912.80
581.33	1875.94
581.52	1761.25
581.72	1853.41
581.91	1849.32
582.11	1804.26
582.30	1857.51
582.49	1736.68
582.69	1845.22
582.88	1816.55
583.08	1789.92
583.27	1789.92
583.47	1775.59
583.66	1748.97
583.85	1673.19
584.05	1816.55
584.24	1824.74
584.44	1826.79
584.63	1755.11
584.82	1828.84
585.02	1912.80
585.21	1855.46
585.41	1898.47
585.60	1798.12
585.79	1912.80
585.99	1943.52
586.18	1871.84
586.37	2258.91
586.57	3405.77
586.76	9713.52
586.96	23936.66
587.15	33840.64
587.34	39583.14
587.54	41278.86
587.73	36146.65
587.93	25908.85
588.12	21135.04
588.31	18134.76
588.51	15853.33
588.70	14858.01
588.89	13795.12
589.09	12537.66
589.28	10751.84
589.47	9138.04
589.67	7782.28
589.86	6401.95
590.06	4900.79
590.25	3813.32
590.44	3117.01
590.64	2643.93
590.83	2228.19
591.02	2086.88
591.22	1912.80
591.41	1943.52
591.60	1857.51
591.80	1964.00
591.99	1777.64
592.18	1773.54
592.38	1828.84
592.57	1734.63
592.76	1779.68
592.96	1796.07
593.15	1781.73
593.34	1787.88
593.54	1683.43
593.73	1794.02
593.92	1740.77
594.12	1800.16
594.31	1710.05
594.50	1896.42
594.70	1757.16
594.89	1976.29
595.08	1748.97
595.28	1699.81
595.47	1941.47
595.66	1808.36
595.86	1652.71
596.05	1730.53
596.24	1708.01
596.43	1832.93
596.63	1841.12
596.82	1802.21
597.01	1771.49
597.21	1834.98
597.40	1630.18
597.59	1744.87
597.79	1708.01
597.98	1837.03
598.17	1744.87
598.36	1767.40
598.56	1757.16
598.75	1763.30
598.94	1714.15
599.14	1824.74
599.33	1687.53
599.52	1816.55
599.71	1777.64
599.91	1769.44
600.10	1794.02
600.29	1765.35
600.48	1822.69
600.68	1818.60
600.87	1763.30
601.06	1714.15
601.26	1763.30
601.45	1691.62
601.64	1734.63
601.83	1822.69
602.03	1728.49
602.22	1726.44
602.41	1800.16
602.60	1923.04
602.80	1853.41
602.99	1738.73
603.18	1753.06
603.37	1742.82
603.57	1730.53
603.76	1873.89
603.95	1853.41
604.14	1703.91
604.34	1669.09
604.53	1697.77
604.72	1775.59
604.91	1806.31
605.10	1806.31
605.30	1646.57
605.49	1902.56
605.68	1820.64
605.87	1765.35
606.07	1683.43
606.26	1759.21
606.45	1708.01
606.64	1785.83
606.84	1697.77
607.03	1740.77
607.22	1794.02
607.41	1708.01
607.60	1722.34
607.80	1785.83
607.99	1744.87
608.18	1714.15
608.37	1806.31
608.56	1802.21
608.76	1820.64
608.95	1751.01
609.14	1773.54
609.33	1732.58
609.52	1765.35
609.72	1710.05
609.91	1765.35
610.10	1744.87
610.29	1785.83
610.48	1796.07
610.68	1763.30
610.87	1705.96
611.06	1777.64
611.25	1726.44
611.44	1759.21
611.63	1683.43
611.83	1787.88
612.02	1654.76
612.21	1851.36
612.40	1650.66
612.59	1744.87
612.79	1718.25
612.98	1742.82
613.17	1812.45
613.36	1638.38
613.55	1839.08
613.74	1748.97
613.93	1654.76
614.13	1656.81
614.32	1755.11
614.51	1701.86
614.70	1767.40
614.89	1681.38
615.08	1779.68
615.28	2111.46
615.47	1576.94
615.66	1740.77
615.85	1740.77
616.04	1769.44
616.23	1787.88
616.42	1681.38
616.62	1798.12
616.81	1839.08
617.00	1738.73
617.19	1699.81
617.38	1685.48
617.57	1677.29
617.76	1742.82
617.95	1740.77
618.15	1712.10
618.34	1796.07
618.53	1681.38
618.72	1857.51
618.91	1808.36
619.10	1718.25
619.29	1767.40
619.48	1777.64
619.68	1734.63
619.87	1734.63
620.06	1613.80
620.25	1783.78
620.44	1796.07
620.63	1738.73
620.82	1697.77
621.01	1669.09
621.20	1746.92
621.39	1816.55
621.59	1794.02
621.78	1734.63
621.97	1705.96
622.16	1816.55
622.35	1724.39
622.54	1806.31
622.73	1810.40
622.92	1720.29
623.11	1787.88
623.30	1710.05
623.49	1728.49
623.68	1662.95
623.88	1841.12
624.07	1755.11
624.26	1701.86
624.45	1771.49
624.64	1714.15
624.83	1677.29
625.02	1718.25
625.21	1732.58
625.40	1689.57
625.59	1787.88
625.78	1781.73
625.97	1765.35
626.16	1755.11
626.35	1740.77
626.54	1689.57
626.74	1785.83
626.93	1701.86
627.12	1734.63
627.31	1824.74
627.50	1820.64
627.69	1736.68
627.88	1630.18
628.07	1748.97
628.26	1621.99
628.45	1572.84
628.64	1673.19
628.83	1779.68
629.02	1632.23
629.21	1708.01
629.40	1687.53
629.59	1656.81
629.78	1699.81
629.97	1701.86
630.16	1753.06
630.35	1638.38
630.54	1648.61
630.73	1740.77
630.92	1746.92
631.11	1734.63
631.30	1746.92
631.49	1740.77
631.68	1740.77
631.87	1783.78
632.06	1677.29
632.25	1902.56
632.44	1796.07
632.63	1755.11
632.82	1697.77
633.01	1621.99
633.20	1751.01
633.39	1759.21
633.58	1683.43
633.77	1744.87
633.96	1738.73
634.15	1728.49
634.34	1832.93
634.53	1689.57
634.72	1744.87
634.91	1619.94
635.10	1712.10
635.29	1695.72
635.48	1789.92
635.67	1697.77
635.86	1603.56
636.05	1855.46
636.24	1714.15
636.43	1738.73
636.62	1798.12
636.81	1611.75
637.00	1716.20
637.19	1724.39
637.38	1746.92
637.57	1693.67
637.76	1697.77
637.95	1740.77
638.14	1634.28
638.33	1654.76
638.52	1736.68
638.71	1632.23
638.89	1603.56
639.08	1789.92
639.27	1794.02
639.46	1724.39
639.65	1740.77
639.84	1722.34
640.03	1767.40
640.22	1720.29
640.41	1816.55
640.60	1665.00
640.79	1746.92
640.98	1619.94
641.17	1775.59
641.36	1781.73
641.55	1753.06
641.74	1669.09
641.92	1644.52
642.11	1593.32
642.30	1689.57
642.49	1765.35
642.68	1675.24
642.87	1767.40
643.06	1761.25
643.25	1665.00
643.44	1763.30
643.63	1673.19
643.82	1730.53
644.00	1732.58
644.19	1791.97
644.38	1687.53
644.57	1714.15
644.76	1744.87
644.95	1714.15
645.14	1728.49
645.33	1734.63
645.52	1761.25
645.71	1740.77
645.89	1660.90
646.08	1716.20
646.27	1765.35
646.46	1857.51
646.65	1601.51
646.84	1714.15
647.03	1644.52
647.22	1783.78
647.40	1832.93
647.59	1708.01
647.78	1626.09
647.97	1703.91
648.16	1708.01
648.35	1824.74
648.54	1783.78
648.73	1732.58
648.91	1777.64
649.10	1796.07
649.29	1748.97
649.48	1714.15
649.67	1730.53
649.86	1748.97
650.05	1677.29
650.23	1757.16
650.42	1634.28
650.61	1771.49
650.80	1789.92
650.99	1822.69
651.18	1759.21
651.36	1781.73
651.55	1705.96
651.74	1742.82
651.93	1728.49
652.12	1736.68
652.31	1718.25
652.49	1679.33
652.68	1705.96
652.87	1755.11
653.06	1748.97
653.25	1763.30
653.44	1679.33
653.62	1791.97
653.81	1609.70
654.00	1693.67
654.19	1736.68
654.38	1865.70
654.56	1804.26
654.75	1755.11
654.94	1753.06
655.13	1732.58
655.32	1603.56
655.51	1744.87
655.69	1693.67
655.88	1736.68
656.07	1722.34
656.26	1763.30
656.45	1650.66
656.63	1730.53
656.82	1789.92
657.01	1783.78
657.20	1726.44
657.38	1820.64
657.57	1714.15
657.76	1730.53
657.95	1800.16
658.14	1689.57
658.32	1759.21
658.51	1681.38
658.70	1736.68
658.89	1716.20
659.08	1710.05
659.26	1828.84
659.45	1679.33
659.64	1734.63
659.83	1683.43
660.01	1896.42
660.20	1718.25
660.39	1757.16
660.58	1613.80
660.76	1710.05
660.95	1576.94
661.14	1693.67
661.33	1710.05
661.51	1755.11
661.70	1683.43
661.89	1742.82
662.08	1746.92
662.26	1583.08
662.45	1691.62
662.64	1837.03
662.83	1837.03
663.01	1615.85
663.20	1683.43
663.39	1775.59
663.58	1757.16
663.76	1681.38
663.95	1800.16
664.14	1638.38
664.32	1689.57
664.51	1693.67
664.70	1669.09
664.89	1800.16
665.07	1669.09
665.26	1769.44
665.45	1624.04
665.64	1777.64
665.82	1748.97
666.01	1759.21
666.20	1677.29
666.38	1798.12
666.57	1834.98
666.76	2240.48
666.95	4444.09
667.13	10221.41
667.32	15005.47
667.51	17956.59
667.69	18900.70
667.88	17497.84
668.07	12328.77
668.25	9416.56
668.44	8247.17
668.63	7346.06
668.81	6883.22
669.00	6272.93
669.19	5660.59
669.38	5072.82
669.56	4575.16
669.75	3913.67
669.94	3407.82
670.12	2920.40
670.31	2539.48
670.50	2267.10
670.68	2056.16
670.87	1968.10
671.06	1898.47
671.24	1837.03
671.43	1808.36
671.62	1783.78
671.80	1644.52
671.99	1763.30
672.18	1773.54
672.36	1779.68
672.55	1738.73
672.74	1691.62
672.92	1693.67
673.11	1742.82
673.29	1689.57
673.48	1779.68
673.67	1742.82
673.85	1781.73
674.04	1730.53
674.23	1765.35
674.41	1865.70
674.60	1730.53
674.79	1628.14
674.97	1742.82
675.16	1837.03
675.34	1765.35
675.53	1708.01
675.72	1777.64
675.90	1837.03
676.09	1665.00
676.28	1701.86
676.46	1665.00
676.65	1736.68
676.83	1703.91
677.02	1697.77
677.21	1712.10
677.39	1732.58
677.58	1566.70
677.77	1650.66
677.95	1722.34
678.14	1691.62
678.32	1753.06
678.51	1703.91
678.70	1865.70
678.88	1701.86
679.07	1677.29
679.25	1677.29
679.44	1757.16
679.63	1708.01
679.81	1734.63
680.00	1812.45
680.18	1757.16
680.37	1777.64
680.55	1740.77
680.74	1621.99
680.93	1566.70
681.11	1693.67
681.30	1705.96
681.48	1669.09
681.67	1697.77
681.85	1695.72
682.04	1615.85
682.23	1767.40
682.41	1755.11
682.60	1734.63
682.78	1683.43
682.97	1697.77
683.15	1693.67
683.34	1724.39
683.53	1806.31
683.71	1621.99
683.90	1789.92
684.08	1757.16
684.27	1697.77
684.45	1714.15
684.64	1746.92
684.82	1636.33
685.01	1753.06
685.19	1777.64
685.38	1826.79
685.57	1716.20
685.75	1665.00
685.94	1695.72
686.12	1736.68
686.31	1671.14
686.49	1888.23
686.68	1574.89
686.86	1761.25
687.05	1726.44
687.23	1808.36
687.42	1689.57
687.60	1673.19
687.79	1730.53
687.97	1800.16
688.16	1759.21
688.34	1755.11
688.53	1613.80
688.71	1767.40
688.90	1804.26
689.08	1730.53
689.27	1595.37
689.45	1748.97
689.64	1755.11
689.82	1742.82
690.01	1773.54
690.19	1763.30
690.38	1681.38
690.56	1859.56
690.75	1630.18
690.93	1632.23
691.12	1691.62
691.30	1763.30
691.49	1773.54
691.67	1683.43
691.86	1742.82
692.04	1734.63
692.23	1628.14
692.41	1701.86
692.60	1814.50
692.78	1810.40
692.97	1693.67
693.15	1722.34
693.34	1820.64
693.52	1761.25
693.71	1677.29
693.89	1658.85
694.08	1656.81
694.26	1710.05
694.44	1808.36
694.63	1736.68
694.81	1722.34
695.00	1673.19
695.18	1791.97
695.37	1826.79
695.55	1714.15
695.74	1779.68
695.92	1742.82
696.10	1822.69
696.29	1675.24
696.47	1605.61
696.66	1628.14
696.84	1697.77
697.03	1726.44
697.21	1839.08
697.40	2361.31
697.58	1871.84
697.76	1712.10
697.95	1730.53
698.13	1677.29
698.32	1634.28
698.50	1673.19
698.68	1759.21
698.87	1748.97
699.05	1794.02
699.24	1693.67
699.42	1693.67
699.61	1755.11
699.79	1718.25
699.97	1716.20
700.16	1599.46
700.34	1673.19
700.53	1689.57
700.71	1791.97
700.89	1763.30
701.08	1705.96
701.26	1660.90
701.45	2127.84
701.63	1648.61
701.81	1691.62
702.00	1724.39
702.18	1634.28
702.37	1732.58
702.55	1796.07
702.73	1710.05
702.92	1646.57
703.10	1785.83
703.28	1712.10
703.47	1615.85
703.65	1800.16
703.84	1722.34
704.02	1697.77
704.20	1769.44
704.39	1660.90
704.57	1720.29
704.75	1687.53
704.94	1796.07
705.12	1705.96
705.30	1789.92
705.49	2250.72
705.67	4392.89
705.86	9199.48
706.04	12496.71
706.22	14231.33
706.41	15025.95
706.59	13332.28
706.77	9287.54
706.96	7153.55
707.14	6406.05
707.32	5963.68
707.51	5416.88
707.69	4870.07
707.87	4091.84
708.06	3471.31
708.24	3028.95
708.42	2488.28
708.61	2203.61
708.79	1898.47
708.97	1929.19
709.16	1843.17
709.34	1824.74
709.52	1771.49
709.71	1789.92
709.89	1751.01
710.07	1615.85
710.26	1728.49
710.44	1771.49
710.62	1779.68
710.80	1753.06
710.99	1710.05
711.17	1794.02
711.35	1705.96
711.54	1675.24
711.72	1763.30
711.90	1734.63
712.09	1722.34
712.27	1740.77
712.45	1712.10
712.63	1763.30
712.82	1710.05
713.00	1689.57
713.18	1738.73
713.37	1720.29
713.55	1740.77
713.73	1691.62
713.91	1712.10
714.10	1701.86
714.28	1728.49
714.46	1705.96
714.65	1820.64
714.83	1746.92
715.01	1726.44
715.19	1624.04
715.38	1722.34
715.56	1716.20
715.74	1656.81
715.92	1708.01
716.11	1832.93
716.29	1667.05
716.47	1714.15
716.65	1695.72
716.84	1587.18
717.02	1755.11
717.20	1595.37
717.38	1697.77
717.57	1787.88
717.75	1730.53
717.93	1677.29
718.11	1728.49
718.30	1669.09
718.48	1738.73
718.66	1730.53
718.84	1679.33
719.03	1746.92
719.21	1648.61
719.39	1800.16
719.57	1722.34
719.75	1710.05
719.94	1718.25
720.12	1701.86
720.30	1761.25
720.48	1765.35
720.67	1703.91
720.85	1560.55
721.03	1636.33
721.21	1644.52
721.39	1771.49
721.58	1738.73
721.76	1691.62
721.94	1787.88
722.12	1751.01
722.30	1851.36
722.49	1710.05
722.67	1751.01
722.85	1740.77
723.03	1587.18
723.21	1695.72
723.40	1720.29
723.58	1771.49
723.76	1689.57
723.94	1730.53
724.12	1730.53
724.30	1783.78
724.49	1777.64
724.67	1654.76
724.85	1775.59
725.03	1665.00
725.21	1726.44
725.40	1787.88
725.58	1669.09
725.76	1796.07
725.94	1738.73
726.12	1624.04
726.30	1687.53
726.49	1675.24
726.67	1652.71
726.85	1767.40
727.03	1775.59
727.21	2213.85
727.39	2932.69
727.57	3690.44
727.76	4186.05
727.94	4480.96
728.12	4429.76
728.30	3635.14
728.48	3002.32
728.66	2693.08
728.84	2521.05
729.03	2277.34
729.21	2176.99
729.39	2019.30
729.57	1822.69
729.75	1794.02
729.93	1796.07
730.11	1718.25
730.30	1650.66
730.48	1695.72
730.66	1814.50
730.84	1771.49
731.02	1689.57
731.20	1642.47
731.38	1722.34
731.56	1646.57
731.74	1634.28
731.93	1730.53
732.11	1718.25
732.29	1699.81
732.47	1753.06
732.65	1779.68
732.83	1724.39
733.01	1726.44
733.19	1673.19
733.37	1724.39
733.56	1689.57
733.74	1722.34
733.92	1828.84
734.10	1656.81
734.28	1761.25
734.46	1673.19
734.64	1685.48
734.82	1724.39
735.00	1679.33
735.18	1720.29
735.36	1720.29
735.54	1730.53
735.73	1681.38
735.91	1796.07
736.09	1789.92
736.27	1738.73
736.45	1718.25
736.63	1652.71
736.81	1662.95
736.99	1742.82
737.17	1812.45
737.35	1665.00
737.53	1765.35
737.71	1681.38
737.89	1794.02
738.07	1738.73
738.25	1660.90
738.43	1683.43
738.61	1708.01
738.80	1576.94
738.98	1693.67
739.16	1673.19
739.34	1746.92
739.52	1771.49
739.70	1656.81
739.88	1806.31
740.06	1849.32
740.24	1642.47
740.42	1720.29
740.60	1593.32
740.78	1746.92
740.96	1652.71
741.14	1654.76
741.32	1738.73
741.50	1617.90
741.68	1839.08
741.86	1746.92
742.04	1644.52
742.22	1634.28
742.40	1724.39
742.58	1738.73
742.76	1658.85
742.94	1773.54
743.12	1593.32
743.30	1730.53
743.48	1748.97
743.66	1650.66
743.84	1681.38
744.02	1656.81
744.20	1699.81
744.38	1732.58
744.56	1687.53
744.74	1800.16
744.92	1779.68
745.10	1804.26
745.28	1802.21
745.46	1753.06
745.64	1734.63
745.82	1701.86
746.00	1660.90
746.18	1744.87
746.36	1591.27
746.54	1708.01
746.72	1675.24
746.90	1648.61
747.08	1773.54
747.26	1710.05
747.44	1779.68
747.62	1714.15
747.80	1710.05
747.98	1662.95
748.15	1699.81
748.33	1791.97
748.51	1699.81
748.69	1822.69
748.87	1644.52
749.05	1669.09
749.23	1691.62
749.41	1730.53
749.59	1757.16
749.77	1693.67
749.95	1626.09
750.13	1673.19
750.31	1726.44
750.49	1695.72
750.67	1763.30
750.85	1816.55
751.03	1722.34
751.20	1787.88
751.38	1736.68
751.56	1689.57
751.74	1779.68
751.92	1646.57
752.10	1601.51
752.28	1738.73
752.46	1705.96
752.64	1722.34
752.82	1767.40
753.00	1804.26
753.18	1710.05
753.35	1607.66
753.53	1722.34
753.71	1689.57
753.89	1826.79
754.07	1718.25
754.25	1742.82
754.43	1767.40
754.61	1712.10
754.79	1712.10
754.97	1642.47
755.14	1812.45
755.32	1660.90
755.50	1722.34
755.68	1712.10
755.86	1751.01
756.04	1621.99
756.22	1574.89
756.40	1728.49
756.57	1814.50
756.75	1658.85
756.93	1738.73
757.11	1742.82
757.29	1591.27
757.47	1667.05
757.65	1558.50
757.82	1591.27
758.00	1726.44
758.18	1687.53
758.36	1632.23
758.54	1779.68
758.72	1650.66
758.90	1796.07
759.07	1701.86
759.25	1615.85
759.43	1767.40
759.61	1671.14
759.79	2076.64
759.97	1730.53
760.15	1693.67
760.32	1689.57
760.50	1710.05
760.68	1773.54
760.86	1673.19
761.04	1777.64
761.22	1703.91
761.39	1763.30
761.57	1736.68
761.75	1677.29
761.93	1826.79
762.11	1734.63
762.28	1748.97
762.46	1732.58
762.64	1763.30
762.82	1652.71
763.00	1687.53
763.18	1785.83
763.35	1689.57
763.53	1759.21
763.71	1703.91
763.89	1732.58
764.07	1755.11
764.24	1691.62
764.42	1738.73
764.60	1763.30
764.78	1761.25
764.96	1781.73
765.13	1697.77
765.31	1796.07
765.49	1771.49
765.67	1695.72
765.84	1632.23
766.02	1710.05
766.20	1646.57
766.38	1675.24
766.56	1703.91
766.73	1730.53
766.91	1734.63
767.09	1724.39
767.27	1724.39
767.44	1714.15
767.62	1650.66
767.80	1687.53
767.98	1742.82
768.15	1697.77
768.33	1654.76
768.51	1751.01
768.69	1679.33
768.87	1789.92
769.04	1699.81
769.22	1865.70
769.40	1816.55
769.58	1830.88
769.75	1738.73
769.93	1771.49
770.11	1626.09
770.28	1689.57
770.46	1773.54
770.64	1734.63
770.82	1757.16
770.99	1710.05
771.17	1699.81
771.35	1636.33
771.53	1687.53
771.70	1703.91
771.88	1667.05
772.06	1650.66
772.23	1687.53
772.41	1751.01
772.59	1691.62
772.77	1646.57
772.94	1687.53
773.12	1681.38
773.30	1687.53
773.47	1722.34
773.65	1638.38
773.83	1832.93
774.01	1759.21
774.18	1566.70
774.36	1746.92
774.54	1652.71
774.71	1714.15
774.89	1587.18
775.07	1667.05
775.24	1765.35
775.42	1677.29
775.60	1834.98
775.78	1712.10
775.95	1576.94
776.13	1650.66
776.31	1609.70
776.48	1755.11
776.66	1757.16
776.84	1669.09
777.01	1660.90
777.19	1681.38
777.37	1624.04
777.54	1771.49
777.72	1789.92
777.90	1728.49
778.07	1681.38
778.25	1859.56
778.43	1740.77
778.60	1662.95
778.78	1796.07
778.96	1843.17
779.13	1632.23
779.31	1667.05
779.49	1742.82
779.66	1730.53
779.84	1685.48
780.01	1685.48
780.19	1652.71
780.37	1767.40
780.54	1771.49
780.72	1578.98
780.90	1753.06
781.07	1689.57
781.25	1626.09
781.43	1724.39
781.60	1722.34
781.78	1753.06
781.95	1693.67
782.13	1689.57
782.31	1767.40
782.48	1607.66
782.66	1685.48
782.83	1837.03
783.01	1720.29
783.19	1759.21
783.36	1718.25
783.54	1667.05
783.72	1804.26
783.89	1718.25
784.07	1667.05
784.24	1814.50
784.42	1773.54
784.60	1695.72
784.77	1656.81
784.95	1593.32
785.12	1669.09
785.30	1667.05
785.47	1671.14
785.65	1675.24
785.83	1736.68
786.00	1640.42
786.18	1759.21
786.35	1679.33
786.53	1634.28
786.71	1646.57
786.88	1693.67
787.06	1656.81
787.23	1779.68
787.41	1667.05
787.58	1804.26
787.76	1648.61
787.94	1705.96
788.11	1701.86
788.29	1656.81
788.46	1708.01
788.64	1630.18
788.81	1695.72
788.99	1656.81
789.16	1626.09
789.34	1683.43
789.52	1742.82
789.69	1724.39
789.87	1624.04
790.04	1648.61
790.22	1671.14
790.39	1740.77
790.57	1732.58
790.74	1687.53
790.92	1734.63
791.09	1591.27
791.27	1736.68
791.44	1822.69
791.62	1693.67
791.79	1785.83
791.97	1691.62
792.15	1904.61
792.32	1708.01
792.50	1867.75
792.67	1832.93
792.85	1834.98
793.02	1748.97
793.20	1701.86
793.37	1626.09
793.55	1667.05
793.72	1644.52
793.90	1714.15
794.07	1693.67
794.25	1648.61
794.42	1701.86
794.60	1638.38
794.77	1748.97
794.95	1738.73
795.12	1718.25
795.30	1656.81
795.47	1624.04
795.65	1834.98
795.82	1689.57
796.00	1714.15
796.17	1724.39
796.34	1787.88
796.52	1730.53
796.69	1847.27
796.87	1814.50
797.04	1740.77
797.22	1753.06
797.39	1716.20
797.57	1699.81
797.74	1722.34
797.92	1691.62
798.09	1656.81
798.27	1724.39
798.44	1736.68
798.62	1703.91
798.79	1744.87
798.96	1724.39
799.14	1730.53
799.31	1828.84
799.49	1701.86
799.66	1693.67
799.84	1755.11
800.01	1652.71
800.19	1763.30
800.36	1556.46
800.53	1667.05
800.71	1710.05
800.88	1732.58
801.06	1634.28
801.23	1773.54
801.41	1650.66
801.58	1671.14
801.75	1761.25
801.93	1757.16
802.10	1697.77
802.28	1720.29
802.45	1640.42
802.63	1808.36
802.80	1814.50
802.97	1693.67
803.15	1605.61
803.32	1675.24
803.50	1746.92
803.67	1640.42
803.84	1669.09
804.02	1701.86
804.19	1701.86
804.37	1660.90
804.54	1624.04
804.71	1697.77
804.89	1691.62
805.06	1642.47
805.24	1587.18
805.41	1658.85
805.58	1720.29
805.76	1755.11
805.93	1714.15
806.10	1761.25
806.28	1730.53
806.45	1763.30
806.63	1685.48
806.80	1732.58
806.97	1738.73
807.15	1724.39
807.32	1703.91
807.49	1728.49
807.67	1660.90
807.84	1777.64
808.01	1699.81
808.19	1806.31
808.36	1802.21
808.54	1636.33
808.71	1636.33
808.88	1703.91
809.06	1708.01
809.23	1796.07
809.40	1695.72
809.58	1771.49
809.75	1736.68
809.92	1673.19
810.10	1826.79
810.27	1748.97
810.44	1734.63
810.62	1753.06
810.79	1730.53
810.96	1646.57
811.14	1771.49
811.31	1763.30
811.48	1742.82
811.66	1742.82
811.83	1804.26
812.00	1724.39
812.18	1744.87
812.35	1800.16
812.52	1658.85
812.69	1802.21
812.87	1724.39
813.04	1683.43
813.21	1720.29
813.39	1644.52
813.56	1654.76
813.73	1744.87
813.91	1601.51
814.08	1714.15
814.25	1767.40
814.42	1615.85
814.60	1738.73
814.77	1755.11
814.94	1699.81
815.12	1734.63
815.29	1763.30
815.46	1738.73
815.63	1773.54
815.81	1787.88
815.98	1730.53
816.15	1683.43
816.33	1740.77
816.50	1654.76
816.67	1712.10
816.84	1746.92
817.02	1746.92
817.19	1677.29
817.36	1665.00
817.53	1779.68
817.71	1671.14
817.88	1771.49
818.05	1708.01
818.22	1634.28
818.40	1822.69
818.57	1777.64
818.74	1691.62
818.91	1726.44
819.09	1767.40
819.26	1761.25
819.43	1624.04
819.60	1695.72
819.78	1777.64
819.95	1757.16
820.12	1628.14
820.29	1755.11
820.47	1746.92
820.64	1720.29
820.81	1609.70
820.98	1644.52
821.15	1675.24
821.33	1787.88
821.50	1578.98
821.67	1742.82
821.84	1667.05
822.02	1746.92
822.19	1767.40
822.36	1652.71
822.53	1646.57
822.70	1644.52
822.88	1638.38
823.05	1781.73
823.22	1779.68
823.39	1800.16
823.56	1689.57
823.74	1796.07
823.91	1697.77
824.08	1689.57
824.25	1607.66
824.42	1781.73
824.60	1693.67
824.77	1732.58
824.94	1697.77
825.11	1675.24
825.28	1683.43
825.45	1705.96
825.63	1734.63
825.80	1660.90
825.97	1751.01
826.14	1734.63
826.31	1587.18
826.48	1742.82
826.66	1636.33
826.83	1687.53
827.00	1757.16
827.17	1679.33
827.34	1642.47
827.51	1640.42
827.69	1630.18
827.86	1648.61
828.03	1742.82
828.20	1673.19
828.37	1724.39
828.54	1746.92
828.71	1648.61
828.89	1818.60
829.06	1691.62
829.23	1748.97
829.40	1681.38
829.57	1714.15
829.74	1693.67
829.91	1587.18
830.09	1654.76
830.26	1730.53
830.43	1757.16
830.60	1757.16
830.77	1701.86
830.94	1742.82
831.11	1677.29
831.28	1691.62
831.46	1708.01
831.63	1699.81
831.80	1732.58
831.97	1656.81
832.14	1705.96
832.31	1726.44
832.48	1740.77
832.65	1763.30
832.82	1781.73
832.99	1705.96
833.17	1654.76
833.34	1820.64
833.51	1736.68
833.68	1638.38
833.85	1779.68
834.02	1648.61
834.19	1710.05
834.36	1685.48
834.53	1714.15
834.70	1765.35
834.87	1812.45
835.04	1683.43
835.22	1611.75
835.39	1617.90
835.56	1665.00
835.73	1748.97
835.90	1722.34
836.07	1720.29
836.24	1746.92
836.41	1665.00
836.58	1591.27
836.75	1746.92
836.92	1791.97
837.09	1669.09
837.26	1665.00
837.43	1742.82
837.60	1718.25
837.77	1648.61
837.94	1781.73
838.12	1767.40
838.29	1697.77
838.46	1587.18
838.63	1693.67
838.80	1779.68
838.97	1658.85
839.14	1673.19
839.31	1710.05
839.48	1712.10
839.65	1722.34
839.82	1720.29
839.99	1697.77
840.16	1722.34
840.33	1687.53
840.50	1755.11
840.67	1660.90
840.84	1628.14
841.01	1648.61
841.18	1648.61
841.35	1583.08
841.52	1796.07
841.69	1841.12
841.86	1738.73
842.03	1673.19
842.20	1773.54
842.37	1671.14
842.54	1716.20
842.71	1722.34
842.88	1669.09
843.05	1744.87
843.22	1665.00
843.39	1789.92
843.56	1669.09
843.73	1660.90
843.90	1736.68
844.07	1613.80
844.24	1726.44
844.41	1767.40
844.58	1693.67
844.75	1624.04
844.92	1724.39
845.09	1722.34
845.26	1771.49
845.43	1730.53
845.60	1718.25
845.77	1701.86
845.94	1718.25
846.10	1798.12
846.27	1542.12
846.44	1632.23
846.61	1693.67
846.78	1703.91
846.95	1761.25
847.12	1726.44
847.29	1751.01
847.46	1703.91
847.63	1843.17
847.80	1710.05
847.97	1697.77
848.14	1845.22
848.31	1691.62
848.48	1591.27
848.65	1710.05
848.82	1652.71
848.98	1746.92
849.15	1724.39
849.32	1767.40
849.49	1804.26
849.66	1683.43
849.83	1759.21
850.00	1644.52
850.17	1650.66
850.34	1683.43
850.51	1720.29
850.68	1656.81
850.85	1796.07
851.01	1798.12
851.18	1720.29
851.35	1671.14
851.52	1714.15
851.69	1773.54
851.86	1615.85
852.03	1613.80
852.20	1767.40
852.37	1699.81
852.53	1570.79
852.70	1687.53
852.87	1665.00
853.04	1744.87
853.21	1736.68
853.38	1759.21
853.55	1753.06
853.72	1802.21
853.89	1615.85
854.05	1708.01
854.22	1701.86
854.39	1734.63
854.56	1740.77
854.73	1828.84
854.90	1667.05
855.07	1718.25
855.23	1646.57
855.40	1746.92
855.57	1765.35
855.74	1538.02
855.91	1898.47
856.08	1722.34
856.25	1626.09
856.41	1642.47
856.58	1714.15
856.75	1705.96
856.92	1550.31
857.09	1738.73
857.26	1619.94
857.42	1636.33
857.59	1765.35
857.76	1554.41
857.93	1753.06
858.10	1718.25
858.27	1665.00
858.43	1677.29
858.60	1675.24
858.77	1525.74
858.94	1681.38
859.11	1769.44
859.27	1679.33
859.44	1751.01
859.61	1787.88
859.78	1765.35
859.95	1681.38
860.12	1705.96
860.28	1804.26
860.45	1875.94
860.62	1656.81
860.79	1705.96
860.95	1652.71
861.12	1689.57
861.29	1716.20
861.46	1642.47
861.63	1652.71
861.79	1720.29
861.96	1665.00
862.13	1662.95
862.30	1714.15
862.47	1662.95
862.63	1699.81
862.80	1751.01
862.97	1761.25
863.14	1746.92
863.30	1687.53
863.47	1708.01
863.64	1808.36
863.81	1724.39
863.97	1656.81
864.14	1769.44
864.31	1703.91
864.48	1742.82
864.65	1679.33
864.81	1771.49
864.98	1765.35
865.15	1718.25
865.32	1708.01
865.48	1757.16
865.65	1785.83
865.82	1675.24
865.98	1708.01
866.15	1771.49
866.32	1652.71
866.49	1658.85
866.65	1806.31
866.82	1642.47
866.99	1660.90
867.16	1697.77
867.32	1650.66
867.49	1642.47
867.66	1697.77
867.83	1697.77
867.99	1605.61
868.16	1738.73
868.33	1722.34
868.49	1740.77
868.66	1669.09
868.83	1791.97
868.99	1697.77
869.16	1708.01
869.33	1777.64
869.50	1775.59
869.66	1654.76
869.83	1701.86
870.00	1652.71
870.16	1818.60
870.33	1689.57
870.50	1748.97
870.66	1658.85
870.83	1789.92
871.00	1697.77
871.17	1703.91
871.33	1710.05
871.50	1669.09
871.67	1650.66
871.83	1728.49
872.00	1822.69
872.17	1701.86
872.33	1748.97
872.50	1759.21
872.67	1728.49
872.83	1757.16
873.00	1695.72
873.17	1644.52
873.33	1775.59
873.50	1738.73
873.67	1636.33
873.83	1615.85
874.00	1683.43
874.16	1841.12
874.33	1714.15
874.50	1656.81
874.66	1687.53
874.83	1654.76
875.00	1736.68
875.16	1687.53
875.33	1839.08
875.50	1583.08
875.66	1652.71
875.83	1667.05
875.99	1781.73
876.16	1746.92
876.33	1687.53
876.49	1724.39
876.66	1693.67
876.83	1658.85
876.99	1624.04
877.16	1812.45
877.32	1759.21
877.49	1652.71
877.66	1714.15
877.82	1804.26
877.99	1699.81
878.15	1789.92
878.32	1658.85
878.49	1675.24
878.65	1759.21
878.82	1779.68
878.98	1640.42
879.15	1755.11
879.32	1738.73
879.48	1740.77
879.65	1667.05
879.81	1681.38
879.98	1660.90
880.15	1669.09
880.31	1662.95
880.48	1644.52
880.64	1744.87
880.81	1730.53
880.97	1789.92
881.14	1843.17
881.31	1619.94
881.47	1906.66
881.64	1652.71
881.80	1667.05
881.97	1660.90
882.13	1783.78
882.30	1667.05
882.47	1660.90
882.63	1628.14
882.80	1738.73
882.96	1693.67
883.13	1761.25
883.29	1751.01
883.46	1759.21
883.62	1886.18
883.79	1765.35
883.95	1701.86
884.12	1716.20
884.29	1708.01
884.45	1705.96
884.62	1783.78
884.78	1617.90
884.95	1771.49
885.11	1675.24
885.28	1654.76
885.44	1675.24
885.61	1660.90
885.77	1742.82
885.94	1746.92
886.10	1675.24
886.27	1744.87
886.43	1834.98
886.60	1798.12
886.76	1665.00
886.93	1617.90
887.09	1783.78
887.26	1644.52
887.42	1665.00
887.59	1740.77
887.75	1865.70
887.92	1761.25
888.08	1808.36
888.25	1763.30
888.41	1748.97
888.58	1701.86
888.74	1675.24
888.91	1648.61
>>>>>End Processed Spectral Data<<<<<
