SpectraSuite Data File
++++++++++++++++++++++++++++++++++++
Date: Mon Jun 06 14:48:57 CEST 2016
User: root
Dark Spectrum Present: No
Reference Spectrum Present: No
Number of Sampled Component Spectra: 1
Spectrometers: USB4C02835
Integration Time (usec): 100000 (USB4C02835)
Spectra Averaged: 1 (USB4C02835)
Boxcar Smoothing: 0 (USB4C02835)
Correct for Electrical Dark: No (USB4C02835)
Strobe/Lamp Enabled: No (USB4C02835)
Correct for Detector Non-linearity: No (USB4C02835)
Correct for Stray Light: No (USB4C02835)
Number of Pixels in Processed Spectrum: 3648
>>>>>Begin Processed Spectral Data<<<<<
177.47	1509.35
177.69	1509.35
177.91	1509.35
178.13	1486.83
178.36	1437.67
178.58	1597.42
178.80	1705.96
179.02	1650.66
179.24	1634.28
179.46	1648.61
179.68	1726.44
179.90	1624.04
180.13	1677.29
180.35	1665.00
180.57	1685.48
180.79	1748.97
181.01	1740.77
181.23	1877.99
181.45	1746.92
181.67	1650.66
181.90	1761.25
182.12	1595.37
182.34	1636.33
182.56	1677.29
182.78	1798.12
183.00	1660.90
183.22	1699.81
183.44	1654.76
183.66	1808.36
183.89	1802.21
184.11	1755.11
184.33	1691.62
184.55	1761.25
184.77	1636.33
184.99	1736.68
185.21	1665.00
185.43	1834.98
185.65	1658.85
185.87	1683.43
186.10	1757.16
186.32	1781.73
186.54	1777.64
186.76	1720.29
186.98	1734.63
187.20	1671.14
187.42	1669.09
187.64	1665.00
187.86	1671.14
188.08	1763.30
188.30	1693.67
188.52	1677.29
188.75	1814.50
188.97	1779.68
189.19	1738.73
189.41	1687.53
189.63	1744.87
189.85	1615.85
190.07	1607.66
190.29	1615.85
190.51	1681.38
190.73	1681.38
190.95	1730.53
191.17	1726.44
191.39	1609.70
191.61	1574.89
191.84	1673.19
192.06	1822.69
192.28	1552.36
192.50	1830.88
192.72	1665.00
192.94	1665.00
193.16	1726.44
193.38	1757.16
193.60	1658.85
193.82	1703.91
194.04	1724.39
194.26	1724.39
194.48	1759.21
194.70	1650.66
194.92	1691.62
195.14	1804.26
195.36	1671.14
195.58	1742.82
195.80	1646.57
196.02	1669.09
196.24	1732.58
196.46	1705.96
196.69	1644.52
196.91	1859.56
197.13	1636.33
197.35	1703.91
197.57	1763.30
197.79	1708.01
198.01	1748.97
198.23	1791.97
198.45	1689.57
198.67	1624.04
198.89	1669.09
199.11	1734.63
199.33	1746.92
199.55	1583.08
199.77	1685.48
199.99	1724.39
200.21	1669.09
200.43	1746.92
200.65	1552.36
200.87	1665.00
201.09	1712.10
201.31	1640.42
201.53	1730.53
201.75	1734.63
201.97	1710.05
202.19	1740.77
202.41	1718.25
202.63	1857.51
202.85	1730.53
203.07	1734.63
203.29	1693.67
203.51	1669.09
203.73	1656.81
203.95	1900.52
204.17	1724.39
204.39	1673.19
204.61	1644.52
204.83	1689.57
205.05	1816.55
205.27	1771.49
205.49	1814.50
205.71	1763.30
205.93	1710.05
206.15	1681.38
206.37	1697.77
206.59	1703.91
206.81	1619.94
207.03	1583.08
207.25	1669.09
207.47	1759.21
207.69	1667.05
207.91	1771.49
208.13	1744.87
208.34	1665.00
208.56	1677.29
208.78	1691.62
209.00	1673.19
209.22	1677.29
209.44	1761.25
209.66	1671.14
209.88	1701.86
210.10	1636.33
210.32	1681.38
210.54	1845.22
210.76	1591.27
210.98	1685.48
211.20	1603.56
211.42	1730.53
211.64	1757.16
211.86	1675.24
212.08	1691.62
212.30	1685.48
212.52	1673.19
212.74	1626.09
212.96	1640.42
213.17	1789.92
213.39	1693.67
213.61	1804.26
213.83	1679.33
214.05	1603.56
214.27	1802.21
214.49	1673.19
214.71	1626.09
214.93	1783.78
215.15	1652.71
215.37	1681.38
215.59	1648.61
215.81	1751.01
216.03	1806.31
216.24	1720.29
216.46	1599.46
216.68	1701.86
216.90	1740.77
217.12	1824.74
217.34	1697.77
217.56	1734.63
217.78	1847.27
218.00	1746.92
218.22	1687.53
218.44	1630.18
218.66	1611.75
218.87	1738.73
219.09	1624.04
219.31	1689.57
219.53	1771.49
219.75	1628.14
219.97	1714.15
220.19	1714.15
220.41	1689.57
220.63	1744.87
220.85	1615.85
221.06	1634.28
221.28	1751.01
221.50	1728.49
221.72	1714.15
221.94	1656.81
222.16	1673.19
222.38	1716.20
222.60	1722.34
222.82	1697.77
223.03	1742.82
223.25	1646.57
223.47	1732.58
223.69	1834.98
223.91	1779.68
224.13	1656.81
224.35	1687.53
224.57	1746.92
224.78	1712.10
225.00	1697.77
225.22	1689.57
225.44	1787.88
225.66	1722.34
225.88	1642.47
226.10	1708.01
226.32	1677.29
226.53	1845.22
226.75	1654.76
226.97	1728.49
227.19	1648.61
227.41	1705.96
227.63	1685.48
227.85	1624.04
228.06	1665.00
228.28	1683.43
228.50	1730.53
228.72	1634.28
228.94	1626.09
229.16	1638.38
229.37	1636.33
229.59	1691.62
229.81	1671.14
230.03	1652.71
230.25	1656.81
230.47	1679.33
230.69	1646.57
230.90	1720.29
231.12	1642.47
231.34	1671.14
231.56	1777.64
231.78	1642.47
232.00	1771.49
232.21	1644.52
232.43	1714.15
232.65	1628.14
232.87	1675.24
233.09	1624.04
233.30	1658.85
233.52	1781.73
233.74	1679.33
233.96	1636.33
234.18	1710.05
234.40	1658.85
234.61	1798.12
234.83	1646.57
235.05	1552.36
235.27	1834.98
235.49	1785.83
235.70	1751.01
235.92	1773.54
236.14	1650.66
236.36	1888.23
236.58	1734.63
236.79	1646.57
237.01	1726.44
237.23	1722.34
237.45	1773.54
237.67	1667.05
237.88	1765.35
238.10	1710.05
238.32	1611.75
238.54	1624.04
238.76	1714.15
238.97	1701.86
239.19	1630.18
239.41	1714.15
239.63	1742.82
239.85	1705.96
240.06	1669.09
240.28	1609.70
240.50	1761.25
240.72	1630.18
240.93	1681.38
241.15	1769.44
241.37	1665.00
241.59	1773.54
241.81	1693.67
242.02	1683.43
242.24	1712.10
242.46	1726.44
242.68	1662.95
242.89	1771.49
243.11	1720.29
243.33	1679.33
243.55	1738.73
243.76	1763.30
243.98	1697.77
244.20	1683.43
244.42	1755.11
244.64	1720.29
244.85	1621.99
245.07	1624.04
245.29	1734.63
245.51	1726.44
245.72	1714.15
245.94	1769.44
246.16	1716.20
246.38	1744.87
246.59	1716.20
246.81	1660.90
247.03	1724.39
247.24	1654.76
247.46	1716.20
247.68	1679.33
247.90	1609.70
248.11	1634.28
248.33	1814.50
248.55	1685.48
248.77	1689.57
248.98	1689.57
249.20	1763.30
249.42	1714.15
249.64	1697.77
249.85	1683.43
250.07	1671.14
250.29	1708.01
250.50	1693.67
250.72	1593.32
250.94	1724.39
251.16	1802.21
251.37	1724.39
251.59	1712.10
251.81	1757.16
252.02	1738.73
252.24	1632.23
252.46	1771.49
252.68	1654.76
252.89	1617.90
253.11	1685.48
253.33	1812.45
253.54	1789.92
253.76	1624.04
253.98	1791.97
254.20	1675.24
254.41	1658.85
254.63	1656.81
254.85	1554.41
255.06	1693.67
255.28	1716.20
255.50	1677.29
255.71	1660.90
255.93	1646.57
256.15	1748.97
256.36	1738.73
256.58	1679.33
256.80	1675.24
257.02	1714.15
257.23	1724.39
257.45	1703.91
257.67	1755.11
257.88	1615.85
258.10	1658.85
258.32	1722.34
258.53	1656.81
258.75	1732.58
258.97	1587.18
259.18	1658.85
259.40	1755.11
259.62	1832.93
259.83	1820.64
260.05	1708.01
260.27	1986.53
260.48	1703.91
260.70	1644.52
260.92	1697.77
261.13	1667.05
261.35	1675.24
261.57	1779.68
261.78	1611.75
262.00	1640.42
262.22	1720.29
262.43	1624.04
262.65	1738.73
262.86	1757.16
263.08	1832.93
263.30	1708.01
263.51	1617.90
263.73	1695.72
263.95	1834.98
264.16	1613.80
264.38	1718.25
264.60	1685.48
264.81	1673.19
265.03	1763.30
265.25	1693.67
265.46	1685.48
265.68	1736.68
265.89	1677.29
266.11	1601.51
266.33	1738.73
266.54	1812.45
266.76	1671.14
266.98	1779.68
267.19	1748.97
267.41	1728.49
267.62	1652.71
267.84	1603.56
268.06	1736.68
268.27	1708.01
268.49	1642.47
268.70	1669.09
268.92	1689.57
269.14	1605.61
269.35	1576.94
269.57	1681.38
269.79	1720.29
270.00	1613.80
270.22	1771.49
270.43	1660.90
270.65	1607.66
270.87	1679.33
271.08	1738.73
271.30	1718.25
271.51	1714.15
271.73	1677.29
271.95	1837.03
272.16	1736.68
272.38	1699.81
272.59	1728.49
272.81	1751.01
273.02	1710.05
273.24	1763.30
273.46	1746.92
273.67	1669.09
273.89	1632.23
274.10	1656.81
274.32	1751.01
274.54	1763.30
274.75	1710.05
274.97	1665.00
275.18	1689.57
275.40	1689.57
275.61	1763.30
275.83	1634.28
276.05	1683.43
276.26	1628.14
276.48	1693.67
276.69	1646.57
276.91	1652.71
277.12	1753.06
277.34	1716.20
277.55	1751.01
277.77	1716.20
277.99	1581.03
278.20	1650.66
278.42	1652.71
278.63	1646.57
278.85	1656.81
279.06	1554.41
279.28	1640.42
279.49	1806.31
279.71	1708.01
279.93	1734.63
280.14	1746.92
280.36	1689.57
280.57	1794.02
280.79	1781.73
281.00	1654.76
281.22	1697.77
281.43	1734.63
281.65	1644.52
281.86	1626.09
282.08	1736.68
282.29	1779.68
282.51	1644.52
282.73	1697.77
282.94	1644.52
283.16	1742.82
283.37	1787.88
283.59	1626.09
283.80	1738.73
284.02	1632.23
284.23	1718.25
284.45	1658.85
284.66	1656.81
284.88	1708.01
285.09	1777.64
285.31	1718.25
285.52	1714.15
285.74	1546.22
285.95	1722.34
286.17	1708.01
286.38	1732.58
286.60	1679.33
286.81	1640.42
287.03	1773.54
287.24	1712.10
287.46	1804.26
287.67	1701.86
287.89	1802.21
288.10	1644.52
288.32	1660.90
288.53	1775.59
288.75	1787.88
288.96	1710.05
289.18	1636.33
289.39	1638.38
289.61	1724.39
289.82	1828.84
290.04	1834.98
290.25	1673.19
290.47	1722.34
290.68	1669.09
290.90	1810.40
291.11	1665.00
291.33	1791.97
291.54	1615.85
291.76	1669.09
291.97	1673.19
292.18	1673.19
292.40	1634.28
292.61	1615.85
292.83	1853.41
293.04	1613.80
293.26	1705.96
293.47	1716.20
293.69	1667.05
293.90	1730.53
294.12	1699.81
294.33	1693.67
294.55	1714.15
294.76	1783.78
294.97	1634.28
295.19	1853.41
295.40	1673.19
295.62	1751.01
295.83	1724.39
296.05	1628.14
296.26	1751.01
296.48	1681.38
296.69	1662.95
296.90	1722.34
297.12	1820.64
297.33	1775.59
297.55	1665.00
297.76	1685.48
297.98	1740.77
298.19	1646.57
298.41	1658.85
298.62	1648.61
298.83	1777.64
299.05	1748.97
299.26	1701.86
299.48	1687.53
299.69	1761.25
299.90	1695.72
300.12	1697.77
300.33	1703.91
300.55	1640.42
300.76	1699.81
300.98	1605.61
301.19	1787.88
301.40	1701.86
301.62	1761.25
301.83	1701.86
302.05	1660.90
302.26	1712.10
302.47	1681.38
302.69	1626.09
302.90	1746.92
303.12	1607.66
303.33	1738.73
303.54	1816.55
303.76	1677.29
303.97	1810.40
304.19	1826.79
304.40	1656.81
304.61	1734.63
304.83	1857.51
305.04	1808.36
305.26	1681.38
305.47	1677.29
305.68	1699.81
305.90	1624.04
306.11	1775.59
306.33	1638.38
306.54	1603.56
306.75	1669.09
306.97	1589.22
307.18	1669.09
307.39	1751.01
307.61	1785.83
307.82	1683.43
308.04	1714.15
308.25	1693.67
308.46	1693.67
308.68	1716.20
308.89	1771.49
309.10	1689.57
309.32	1736.68
309.53	1722.34
309.74	1718.25
309.96	1677.29
310.17	1732.58
310.39	1626.09
310.60	1669.09
310.81	1701.86
311.03	1689.57
311.24	1691.62
311.45	1740.77
311.67	1779.68
311.88	1685.48
312.09	1710.05
312.31	1656.81
312.52	1683.43
312.73	1769.44
312.95	1599.46
313.16	1683.43
313.37	1791.97
313.59	1724.39
313.80	1800.16
314.01	1740.77
314.23	1730.53
314.44	1669.09
314.65	1685.48
314.87	1660.90
315.08	1748.97
315.29	1630.18
315.51	1617.90
315.72	1570.79
315.93	1800.16
316.15	1791.97
316.36	1703.91
316.57	1697.77
316.79	1791.97
317.00	1681.38
317.21	1730.53
317.43	1654.76
317.64	1687.53
317.85	1636.33
318.07	1619.94
318.28	1708.01
318.49	1859.56
318.70	1896.42
318.92	1800.16
319.13	1873.89
319.34	1794.02
319.56	1818.60
319.77	1746.92
319.98	1787.88
320.20	1742.82
320.41	1783.78
320.62	1742.82
320.83	1720.29
321.05	1861.60
321.26	1708.01
321.47	1697.77
321.69	1810.40
321.90	1611.75
322.11	1574.89
322.32	1701.86
322.54	1871.84
322.75	1632.23
322.96	1798.12
323.18	1648.61
323.39	1583.08
323.60	1667.05
323.81	1736.68
324.03	1617.90
324.24	1736.68
324.45	1687.53
324.66	1675.24
324.88	1796.07
325.09	1697.77
325.30	1665.00
325.52	1677.29
325.73	1712.10
325.94	1656.81
326.15	1605.61
326.37	1587.18
326.58	1802.21
326.79	1751.01
327.00	1701.86
327.22	1746.92
327.43	1662.95
327.64	1648.61
327.85	1693.67
328.07	1728.49
328.28	1751.01
328.49	1626.09
328.70	1673.19
328.92	1740.77
329.13	1654.76
329.34	1681.38
329.55	1882.08
329.76	1730.53
329.98	1677.29
330.19	1755.11
330.40	1681.38
330.61	1722.34
330.83	1755.11
331.04	1685.48
331.25	1720.29
331.46	1730.53
331.68	1621.99
331.89	1738.73
332.10	1658.85
332.31	1638.38
332.52	1640.42
332.74	1777.64
332.95	1587.18
333.16	1712.10
333.37	1794.02
333.58	1722.34
333.80	1718.25
334.01	1601.51
334.22	1611.75
334.43	1673.19
334.64	1693.67
334.86	1701.86
335.07	1712.10
335.28	1861.60
335.49	1654.76
335.70	1748.97
335.92	1748.97
336.13	1808.36
336.34	1722.34
336.55	1683.43
336.76	1761.25
336.98	1562.60
337.19	1656.81
337.40	1796.07
337.61	1779.68
337.82	1673.19
338.04	1732.58
338.25	1665.00
338.46	1728.49
338.67	1687.53
338.88	1722.34
339.09	1695.72
339.31	1708.01
339.52	1621.99
339.73	1640.42
339.94	1687.53
340.15	1697.77
340.36	1611.75
340.58	1730.53
340.79	1595.37
341.00	1736.68
341.21	1609.70
341.42	1791.97
341.63	1646.57
341.85	1769.44
342.06	1685.48
342.27	1679.33
342.48	1742.82
342.69	1646.57
342.90	1736.68
343.12	1693.67
343.33	1753.06
343.54	1734.63
343.75	1802.21
343.96	1714.15
344.17	1687.53
344.38	1693.67
344.60	1724.39
344.81	1615.85
345.02	1691.62
345.23	1802.21
345.44	1720.29
345.65	1742.82
345.86	1777.64
346.07	1712.10
346.29	1589.22
346.50	1763.30
346.71	1705.96
346.92	1757.16
347.13	1820.64
347.34	1787.88
347.55	1667.05
347.76	1722.34
347.98	1617.90
348.19	1697.77
348.40	1773.54
348.61	1601.51
348.82	1683.43
349.03	1804.26
349.24	1697.77
349.45	1824.74
349.66	1607.66
349.88	1648.61
350.09	1658.85
350.30	1726.44
350.51	1779.68
350.72	1765.35
350.93	1724.39
351.14	1662.95
351.35	1693.67
351.56	1716.20
351.77	1699.81
351.99	1806.31
352.20	1755.11
352.41	1783.78
352.62	1619.94
352.83	1665.00
353.04	1648.61
353.25	1642.47
353.46	1771.49
353.67	1726.44
353.88	1662.95
354.09	1705.96
354.30	1699.81
354.52	1710.05
354.73	1662.95
354.94	1667.05
355.15	1650.66
355.36	1832.93
355.57	1640.42
355.78	1722.34
355.99	1685.48
356.20	1621.99
356.41	1671.14
356.62	1742.82
356.83	1699.81
357.04	1755.11
357.25	1619.94
357.46	1656.81
357.68	1558.50
357.89	1673.19
358.10	1728.49
358.31	1689.57
358.52	1740.77
358.73	1669.09
358.94	1593.32
359.15	1724.39
359.36	1804.26
359.57	1679.33
359.78	1683.43
359.99	1710.05
360.20	1632.23
360.41	1685.48
360.62	1642.47
360.83	1710.05
361.04	1662.95
361.25	1726.44
361.46	1775.59
361.67	1697.77
361.88	1755.11
362.09	1744.87
362.30	1705.96
362.51	1689.57
362.72	1710.05
362.93	1697.77
363.14	1691.62
363.35	1640.42
363.56	1683.43
363.78	1724.39
363.99	1714.15
364.20	1710.05
364.41	1681.38
364.62	1863.65
364.83	1665.00
365.04	1665.00
365.25	1640.42
365.46	1855.46
365.67	1587.18
365.88	1636.33
366.09	1712.10
366.30	1667.05
366.51	1665.00
366.72	1644.52
366.93	1712.10
367.14	1701.86
367.35	1761.25
367.56	1669.09
367.77	1738.73
367.98	1751.01
368.18	1689.57
368.39	1710.05
368.60	1587.18
368.81	1773.54
369.02	1679.33
369.23	1634.28
369.44	1699.81
369.65	1746.92
369.86	1724.39
370.07	1724.39
370.28	1718.25
370.49	1775.59
370.70	1783.78
370.91	1746.92
371.12	1665.00
371.33	1773.54
371.54	1656.81
371.75	1789.92
371.96	1515.50
372.17	1685.48
372.38	1726.44
372.59	1712.10
372.80	1697.77
373.01	1662.95
373.22	1718.25
373.43	1712.10
373.64	1599.46
373.85	1775.59
374.06	1789.92
374.26	1738.73
374.47	1681.38
374.68	1691.62
374.89	1701.86
375.10	1662.95
375.31	1765.35
375.52	1722.34
375.73	1748.97
375.94	1654.76
376.15	1781.73
376.36	1621.99
376.57	1675.24
376.78	1699.81
376.99	1763.30
377.20	1732.58
377.40	1669.09
377.61	1816.55
377.82	1648.61
378.03	1751.01
378.24	1783.78
378.45	1681.38
378.66	1648.61
378.87	1648.61
379.08	1665.00
379.29	1665.00
379.50	1705.96
379.71	1669.09
379.91	1775.59
380.12	1648.61
380.33	1673.19
380.54	1724.39
380.75	1740.77
380.96	1667.05
381.17	1722.34
381.38	1730.53
381.59	1667.05
381.80	1751.01
382.00	1857.51
382.21	1777.64
382.42	1810.40
382.63	1818.60
382.84	1697.77
383.05	1834.98
383.26	1781.73
383.47	1726.44
383.68	1779.68
383.88	1685.48
384.09	1734.63
384.30	1755.11
384.51	1693.67
384.72	1617.90
384.93	1640.42
385.14	1660.90
385.35	1763.30
385.55	1667.05
385.76	1777.64
385.97	1665.00
386.18	1599.46
386.39	1632.23
386.60	1708.01
386.81	1724.39
387.02	1611.75
387.22	1691.62
387.43	1818.60
387.64	1816.55
387.85	1804.26
388.06	2207.71
388.27	4292.54
388.48	6856.60
388.68	8439.68
388.89	9707.37
389.10	9713.52
389.31	8660.86
389.52	7600.01
389.73	6813.59
389.93	6317.98
390.14	5879.72
390.35	5171.12
390.56	4526.01
390.77	3954.63
390.98	3030.99
391.18	2535.39
391.39	2150.37
391.60	1814.50
391.81	1869.80
392.02	1712.10
392.23	1886.18
392.43	1763.30
392.64	1855.46
392.85	1767.40
393.06	1822.69
393.27	1636.33
393.47	1640.42
393.68	1738.73
393.89	1681.38
394.10	1791.97
394.31	1599.46
394.52	1630.18
394.72	1677.29
394.93	1789.92
395.14	1658.85
395.35	1730.53
395.56	1708.01
395.76	1789.92
395.97	1791.97
396.18	1734.63
396.39	1808.36
396.60	2025.44
396.80	1880.04
397.01	1849.32
397.22	1871.84
397.43	1861.60
397.64	1730.53
397.84	1746.92
398.05	1906.66
398.26	1685.48
398.47	1783.78
398.67	1777.64
398.88	1708.01
399.09	1691.62
399.30	1673.19
399.51	1755.11
399.71	1687.53
399.92	1730.53
400.13	1777.64
400.34	1781.73
400.54	1769.44
400.75	1822.69
400.96	1685.48
401.17	1816.55
401.37	1755.11
401.58	1673.19
401.79	1732.58
402.00	1873.89
402.21	1931.23
402.41	1978.34
402.62	1986.53
402.83	2086.88
403.04	2043.87
403.24	2031.58
403.45	1882.08
403.66	1900.52
403.87	1935.33
404.07	1890.28
404.28	1920.99
404.49	1929.19
404.70	1779.68
404.90	1804.26
405.11	1714.15
405.32	1767.40
405.52	1669.09
405.73	1613.80
405.94	1644.52
406.15	1648.61
406.35	1822.69
406.56	1734.63
406.77	1693.67
406.98	1798.12
407.18	1673.19
407.39	1751.01
407.60	1628.14
407.80	1757.16
408.01	1699.81
408.22	1728.49
408.43	1572.84
408.63	1753.06
408.84	1748.97
409.05	1746.92
409.25	1636.33
409.46	1660.90
409.67	1738.73
409.88	1648.61
410.08	1759.21
410.29	1667.05
410.50	1751.01
410.70	1669.09
410.91	1613.80
411.12	1689.57
411.32	1787.88
411.53	1718.25
411.74	1898.47
411.95	1806.31
412.15	1791.97
412.36	1853.41
412.57	1771.49
412.77	1839.08
412.98	1748.97
413.19	1732.58
413.39	1697.77
413.60	1806.31
413.81	1853.41
414.01	1691.62
414.22	1796.07
414.43	1757.16
414.63	1714.15
414.84	1800.16
415.05	1748.97
415.25	1615.85
415.46	1818.60
415.67	1705.96
415.87	1798.12
416.08	1611.75
416.29	1665.00
416.49	1683.43
416.70	1660.90
416.91	1652.71
417.11	1646.57
417.32	1734.63
417.53	1769.44
417.73	1742.82
417.94	1746.92
418.15	1724.39
418.35	1636.33
418.56	1693.67
418.77	1863.65
418.97	1701.86
419.18	1669.09
419.38	1574.89
419.59	1656.81
419.80	1751.01
420.00	1742.82
420.21	1722.34
420.42	1791.97
420.62	1728.49
420.83	1636.33
421.04	1673.19
421.24	1669.09
421.45	1716.20
421.65	1822.69
421.86	1705.96
422.07	1771.49
422.27	1732.58
422.48	1695.72
422.69	1621.99
422.89	1714.15
423.10	1656.81
423.30	1650.66
423.51	1720.29
423.72	1697.77
423.92	1759.21
424.13	1624.04
424.33	1734.63
424.54	1738.73
424.75	1763.30
424.95	1693.67
425.16	1738.73
425.36	1718.25
425.57	1748.97
425.78	1746.92
425.98	1763.30
426.19	1716.20
426.39	1746.92
426.60	1656.81
426.81	1787.88
427.01	1759.21
427.22	1626.09
427.42	1538.02
427.63	1656.81
427.83	1693.67
428.04	1791.97
428.25	1855.46
428.45	1746.92
428.66	1773.54
428.86	1662.95
429.07	1689.57
429.28	1761.25
429.48	1701.86
429.69	1736.68
429.89	1693.67
430.10	1619.94
430.30	1820.64
430.51	1787.88
430.71	1665.00
430.92	1650.66
431.13	1681.38
431.33	1718.25
431.54	1689.57
431.74	1863.65
431.95	1820.64
432.15	1656.81
432.36	1658.85
432.56	1763.30
432.77	1861.60
432.98	1796.07
433.18	1773.54
433.39	1730.53
433.59	1726.44
433.80	1761.25
434.00	1820.64
434.21	1665.00
434.41	1626.09
434.62	1914.85
434.82	1755.11
435.03	1630.18
435.23	1736.68
435.44	1583.08
435.64	1689.57
435.85	1703.91
436.06	1769.44
436.26	1847.27
436.47	1640.42
436.67	1687.53
436.88	1669.09
437.08	1660.90
437.29	1839.08
437.49	1720.29
437.70	1730.53
437.90	1742.82
438.11	1843.17
438.31	1746.92
438.52	1841.12
438.72	1820.64
438.93	1849.32
439.13	1822.69
439.34	1796.07
439.54	1777.64
439.75	1826.79
439.95	1822.69
440.16	1753.06
440.36	1783.78
440.57	1771.49
440.77	1757.16
440.98	1734.63
441.18	1767.40
441.39	1687.53
441.59	1677.29
441.80	1802.21
442.00	1697.77
442.21	1800.16
442.41	1679.33
442.62	1781.73
442.82	1675.24
443.02	1726.44
443.23	1777.64
443.43	1705.96
443.64	1787.88
443.84	1648.61
444.05	1859.56
444.25	1642.47
444.46	1708.01
444.66	1687.53
444.87	1832.93
445.07	1726.44
445.28	1744.87
445.48	1765.35
445.69	1751.01
445.89	1812.45
446.09	1763.30
446.30	1992.67
446.50	2703.32
446.71	3733.45
446.91	4374.46
447.12	4935.60
447.32	4663.22
447.53	4368.32
447.73	3796.93
447.93	3592.14
448.14	3325.90
448.34	3190.74
448.55	2897.88
448.75	2828.24
448.96	2770.90
449.16	2486.23
449.36	2355.16
449.57	2076.64
449.77	1820.64
449.98	1841.12
450.18	1847.27
450.39	1804.26
450.59	1755.11
450.79	1681.38
451.00	1685.48
451.20	1722.34
451.41	1779.68
451.61	1796.07
451.81	1738.73
452.02	1730.53
452.22	1742.82
452.43	1714.15
452.63	1734.63
452.84	1669.09
453.04	1757.16
453.24	1644.52
453.45	1712.10
453.65	1714.15
453.86	1722.34
454.06	1667.05
454.26	1773.54
454.47	1738.73
454.67	1775.59
454.87	1718.25
455.08	1708.01
455.28	1818.60
455.49	1769.44
455.69	1779.68
455.89	1865.70
456.10	1787.88
456.30	1730.53
456.51	1781.73
456.71	1738.73
456.91	1781.73
457.12	1789.92
457.32	1796.07
457.52	1613.80
457.73	1810.40
457.93	1738.73
458.14	1726.44
458.34	1671.14
458.54	1685.48
458.75	1710.05
458.95	1783.78
459.15	1720.29
459.36	1761.25
459.56	1730.53
459.76	1789.92
459.97	1753.06
460.17	1693.67
460.37	1773.54
460.58	1781.73
460.78	1722.34
460.99	1712.10
461.19	1675.24
461.39	1677.29
461.60	1708.01
461.80	1720.29
462.00	1632.23
462.21	1757.16
462.41	1595.37
462.61	1669.09
462.82	1691.62
463.02	1734.63
463.22	1736.68
463.43	1796.07
463.63	1748.97
463.83	1802.21
464.04	1740.77
464.24	1804.26
464.44	1681.38
464.64	1693.67
464.85	1742.82
465.05	1796.07
465.25	1812.45
465.46	1658.85
465.66	1779.68
465.86	1804.26
466.07	1685.48
466.27	1732.58
466.47	1640.42
466.68	1650.66
466.88	1763.30
467.08	1738.73
467.29	1779.68
467.49	1753.06
467.69	1705.96
467.89	1742.82
468.10	1699.81
468.30	1777.64
468.50	1785.83
468.71	1697.77
468.91	1634.28
469.11	1861.60
469.31	1789.92
469.52	1742.82
469.72	1751.01
469.92	1812.45
470.13	1681.38
470.33	1710.05
470.53	1798.12
470.73	2146.27
470.94	2301.92
471.14	2334.68
471.34	2451.42
471.54	2340.83
471.75	2207.71
471.95	2109.41
472.15	2090.98
472.36	2076.64
472.56	2068.45
472.76	2011.11
472.96	2070.50
473.17	1912.80
473.37	1935.33
473.57	1873.89
473.77	1837.03
473.98	1757.16
474.18	1660.90
474.38	1824.74
474.58	1708.01
474.79	1703.91
474.99	1705.96
475.19	1732.58
475.39	1716.20
475.60	1724.39
475.80	1683.43
476.00	1701.86
476.20	1718.25
476.41	1722.34
476.61	1814.50
476.81	1767.40
477.01	1738.73
477.21	1845.22
477.42	1761.25
477.62	1652.71
477.82	1730.53
478.02	1691.62
478.23	1701.86
478.43	1617.90
478.63	1773.54
478.83	1787.88
479.03	1697.77
479.24	1765.35
479.44	1873.89
479.64	1748.97
479.84	1628.14
480.04	1695.72
480.25	1728.49
480.45	1703.91
480.65	1697.77
480.85	1773.54
481.06	1679.33
481.26	1681.38
481.46	1763.30
481.66	1714.15
481.86	1619.94
482.06	1783.78
482.27	1746.92
482.47	1626.09
482.67	1716.20
482.87	1710.05
483.07	1796.07
483.28	1693.67
483.48	1632.23
483.68	1718.25
483.88	1662.95
484.08	1601.51
484.29	1714.15
484.49	1699.81
484.69	1685.48
484.89	1765.35
485.09	1763.30
485.29	1691.62
485.50	1701.86
485.70	1662.95
485.90	1759.21
486.10	1740.77
486.30	1773.54
486.50	1781.73
486.71	1751.01
486.91	1759.21
487.11	1787.88
487.31	1626.09
487.51	1712.10
487.71	1724.39
487.91	1730.53
488.12	1691.62
488.32	1599.46
488.52	1650.66
488.72	1624.04
488.92	1683.43
489.12	1724.39
489.32	1742.82
489.53	1765.35
489.73	1673.19
489.93	1800.16
490.13	1699.81
490.33	1646.57
490.53	1687.53
490.73	1812.45
490.94	1621.99
491.14	1718.25
491.34	1853.41
491.54	2054.11
491.74	2502.62
491.94	2987.99
492.14	3061.71
492.34	2959.31
492.54	2781.14
492.75	2541.53
492.95	2467.80
493.15	2340.83
493.35	2295.77
493.55	2252.77
493.75	2121.70
493.95	2113.50
494.15	2000.87
494.35	1873.89
494.56	1787.88
494.76	1771.49
494.96	1767.40
495.16	1818.60
495.36	1802.21
495.56	1679.33
495.76	1724.39
495.96	1683.43
496.16	1654.76
496.36	1798.12
496.56	1753.06
496.77	1830.88
496.97	1728.49
497.17	1791.97
497.37	1658.85
497.57	1757.16
497.77	1671.14
497.97	1703.91
498.17	1798.12
498.37	1730.53
498.57	1687.53
498.77	1677.29
498.97	1767.40
499.17	1869.80
499.38	1781.73
499.58	1779.68
499.78	1775.59
499.98	1820.64
500.18	1742.82
500.38	1755.11
500.58	1884.13
500.78	2609.11
500.98	4511.68
501.18	5875.62
501.38	6842.26
501.58	7251.86
501.78	6573.98
501.98	5593.00
502.18	4968.37
502.38	4464.57
502.58	4097.99
502.78	3682.25
502.98	3665.86
503.18	3538.89
503.38	3168.21
503.59	2801.62
503.79	2709.46
503.99	2537.43
504.19	2312.16
504.39	2084.83
504.59	2131.94
504.79	2066.40
504.99	2088.93
505.19	1875.94
505.39	1820.64
505.59	1964.00
505.79	1849.32
505.99	1859.56
506.19	1753.06
506.39	1877.99
506.59	1726.44
506.79	1691.62
506.99	1787.88
507.19	1777.64
507.39	1755.11
507.59	1697.77
507.79	1722.34
507.99	1642.47
508.19	1701.86
508.39	1658.85
508.59	1718.25
508.79	1789.92
508.99	1867.75
509.19	1718.25
509.39	1724.39
509.59	1705.96
509.79	1691.62
509.99	1746.92
510.19	1796.07
510.39	1773.54
510.59	1724.39
510.79	1689.57
510.99	1673.19
511.19	1710.05
511.39	1740.77
511.59	1734.63
511.79	1789.92
511.99	1693.67
512.19	1884.13
512.38	1732.58
512.58	1794.02
512.78	1783.78
512.98	1800.16
513.18	1794.02
513.38	1619.94
513.58	1724.39
513.78	1720.29
513.98	1740.77
514.18	1693.67
514.38	1710.05
514.58	1785.83
514.78	1703.91
514.98	1695.72
515.18	1642.47
515.38	1632.23
515.58	1828.84
515.78	1665.00
515.98	1757.16
516.18	1712.10
516.38	1722.34
516.57	1765.35
516.77	1755.11
516.97	1755.11
517.17	1667.05
517.37	1669.09
517.57	1787.88
517.77	1769.44
517.97	1751.01
518.17	1769.44
518.37	1673.19
518.57	1714.15
518.77	1677.29
518.97	1689.57
519.16	1611.75
519.36	1775.59
519.56	1732.58
519.76	1751.01
519.96	1716.20
520.16	1775.59
520.36	1626.09
520.56	1877.99
520.76	1673.19
520.96	1746.92
521.16	1751.01
521.35	1767.40
521.55	1732.58
521.75	1640.42
521.95	1703.91
522.15	1708.01
522.35	1615.85
522.55	1765.35
522.75	1859.56
522.95	1773.54
523.14	1675.24
523.34	1656.81
523.54	1759.21
523.74	1787.88
523.94	1703.91
524.14	1636.33
524.34	1748.97
524.54	1783.78
524.73	1714.15
524.93	1689.57
525.13	1794.02
525.33	1638.38
525.53	1888.23
525.73	1851.36
525.93	1730.53
526.13	1671.14
526.32	1730.53
526.52	1728.49
526.72	1787.88
526.92	1665.00
527.12	1765.35
527.32	1677.29
527.52	1677.29
527.71	1714.15
527.91	1744.87
528.11	1648.61
528.31	1714.15
528.51	1667.05
528.71	1794.02
528.90	1742.82
529.10	1755.11
529.30	1865.70
529.50	1564.65
529.70	1761.25
529.90	1658.85
530.09	1730.53
530.29	1730.53
530.49	1693.67
530.69	1902.56
530.89	1724.39
531.09	1851.36
531.28	1783.78
531.48	1804.26
531.68	1777.64
531.88	1765.35
532.08	1755.11
532.28	1677.29
532.47	1753.06
532.67	1806.31
532.87	1812.45
533.07	1660.90
533.27	1787.88
533.46	1757.16
533.66	1769.44
533.86	1732.58
534.06	1748.97
534.26	1753.06
534.45	1738.73
534.65	1808.36
534.85	1720.29
535.05	1742.82
535.25	1751.01
535.44	1652.71
535.64	1705.96
535.84	1724.39
536.04	1759.21
536.24	1718.25
536.43	1708.01
536.63	1718.25
536.83	1703.91
537.03	1714.15
537.22	1619.94
537.42	1703.91
537.62	1771.49
537.82	1685.48
538.02	1828.84
538.21	1796.07
538.41	1923.04
538.61	1712.10
538.81	1736.68
539.00	1748.97
539.20	1738.73
539.40	1746.92
539.60	1746.92
539.79	1759.21
539.99	1767.40
540.19	1658.85
540.39	1738.73
540.58	1794.02
540.78	1826.79
540.98	1697.77
541.18	1767.40
541.37	1779.68
541.57	1718.25
541.77	1710.05
541.97	1683.43
542.16	1691.62
542.36	1621.99
542.56	1724.39
542.76	1890.28
542.95	1783.78
543.15	1796.07
543.35	1771.49
543.54	1630.18
543.74	1755.11
543.94	1871.84
544.14	1679.33
544.33	1816.55
544.53	1730.53
544.73	1710.05
544.93	1714.15
545.12	1738.73
545.32	1705.96
545.52	1693.67
545.71	1628.14
545.91	1716.20
546.11	1724.39
546.30	1679.33
546.50	1794.02
546.70	1746.92
546.90	1761.25
547.09	1673.19
547.29	1769.44
547.49	1816.55
547.68	1697.77
547.88	1665.00
548.08	1822.69
548.27	2152.42
548.47	1722.34
548.67	1742.82
548.87	1689.57
549.06	1691.62
549.26	1775.59
549.46	1728.49
549.65	1734.63
549.85	1705.96
550.05	1791.97
550.24	1681.38
550.44	1699.81
550.64	1746.92
550.83	1771.49
551.03	1812.45
551.23	1763.30
551.42	1732.58
551.62	1705.96
551.82	1673.19
552.01	1769.44
552.21	1769.44
552.41	1832.93
552.60	1808.36
552.80	1759.21
553.00	1587.18
553.19	1753.06
553.39	1722.34
553.59	1724.39
553.78	1820.64
553.98	1783.78
554.17	1660.90
554.37	1732.58
554.57	1798.12
554.76	1705.96
554.96	1673.19
555.16	1785.83
555.35	1665.00
555.55	1673.19
555.75	1675.24
555.94	1753.06
556.14	1701.86
556.33	1855.46
556.53	1675.24
556.73	1751.01
556.92	1826.79
557.12	1851.36
557.32	1863.65
557.51	1828.84
557.71	1802.21
557.90	1818.60
558.10	1808.36
558.30	1701.86
558.49	1699.81
558.69	1734.63
558.88	1783.78
559.08	1699.81
559.28	1716.20
559.47	1734.63
559.67	1808.36
559.86	1886.18
560.06	1800.16
560.26	1697.77
560.45	1755.11
560.65	1697.77
560.84	1785.83
561.04	1726.44
561.24	1763.30
561.43	1710.05
561.63	1800.16
561.82	1732.58
562.02	1693.67
562.22	1660.90
562.41	1673.19
562.61	1761.25
562.80	1705.96
563.00	1869.80
563.19	1775.59
563.39	1753.06
563.59	1775.59
563.78	1624.04
563.98	1640.42
564.17	1695.72
564.37	1722.34
564.56	1718.25
564.76	1677.29
564.96	1865.70
565.15	1806.31
565.35	1851.36
565.54	1753.06
565.74	1697.77
565.93	1685.48
566.13	1693.67
566.32	1693.67
566.52	1814.50
566.71	1804.26
566.91	1855.46
567.11	1699.81
567.30	1699.81
567.50	1765.35
567.69	1783.78
567.89	1773.54
568.08	1611.75
568.28	1695.72
568.47	1665.00
568.67	1779.68
568.86	1708.01
569.06	1767.40
569.25	1685.48
569.45	1642.47
569.64	1757.16
569.84	1689.57
570.04	1789.92
570.23	1718.25
570.43	1714.15
570.62	1783.78
570.82	1837.03
571.01	1701.86
571.21	1667.05
571.40	1722.34
571.60	1783.78
571.79	1703.91
571.99	1691.62
572.18	1642.47
572.38	1675.24
572.57	1705.96
572.77	1730.53
572.96	1865.70
573.16	1781.73
573.35	1644.52
573.55	1748.97
573.74	1798.12
573.94	1748.97
574.13	1738.73
574.33	1744.87
574.52	1798.12
574.71	1687.53
574.91	1822.69
575.10	1609.70
575.30	1800.16
575.49	1718.25
575.69	1716.20
575.88	1740.77
576.08	1751.01
576.27	1726.44
576.47	1656.81
576.66	1773.54
576.86	1796.07
577.05	1761.25
577.25	1759.21
577.44	1865.70
577.64	1660.90
577.83	1783.78
578.02	1738.73
578.22	1812.45
578.41	1824.74
578.61	1730.53
578.80	1738.73
579.00	1734.63
579.19	1742.82
579.39	1767.40
579.58	1705.96
579.77	1798.12
579.97	1759.21
580.16	1759.21
580.36	1777.64
580.55	1882.08
580.75	1789.92
580.94	1828.84
581.13	1888.23
581.33	1886.18
581.52	1685.48
581.72	1830.88
581.91	1837.03
582.11	1728.49
582.30	1855.46
582.49	1763.30
582.69	1849.32
582.88	1779.68
583.08	1716.20
583.27	1765.35
583.47	1787.88
583.66	1677.29
583.85	1697.77
584.05	1769.44
584.24	1851.36
584.44	1812.45
584.63	1759.21
584.82	1832.93
585.02	1871.84
585.21	1818.60
585.41	1884.13
585.60	1783.78
585.79	1912.80
585.99	1830.88
586.18	1898.47
586.37	2162.66
586.57	3399.63
586.76	9961.32
586.96	24530.57
587.15	34438.64
587.34	40715.67
587.54	42417.53
587.73	37166.54
587.93	26355.31
588.12	21739.19
588.31	18460.39
588.51	16678.66
588.70	15195.93
588.89	14188.33
589.09	12666.69
589.28	11249.49
589.47	9502.58
589.67	8077.19
589.86	6442.91
590.06	4884.41
590.25	4016.07
590.44	3145.68
590.64	2643.93
590.83	2248.67
591.02	2101.22
591.22	1894.37
591.41	1959.91
591.60	1740.77
591.80	1816.55
591.99	1757.16
592.18	1718.25
592.38	1824.74
592.57	1777.64
592.76	1683.43
592.96	1732.58
593.15	1744.87
593.34	1877.99
593.54	1720.29
593.73	1779.68
593.92	1681.38
594.12	1695.72
594.31	1730.53
594.50	1841.12
594.70	1787.88
594.89	1945.57
595.08	1642.47
595.28	1746.92
595.47	1959.91
595.66	1861.60
595.86	1746.92
596.05	1724.39
596.24	1710.05
596.43	1853.41
596.63	1845.22
596.82	1804.26
597.01	1757.16
597.21	1861.60
597.40	1763.30
597.59	1689.57
597.79	1738.73
597.98	1697.77
598.17	1708.01
598.36	1763.30
598.56	1730.53
598.75	1660.90
598.94	1667.05
599.14	1748.97
599.33	1683.43
599.52	1734.63
599.71	1718.25
599.91	1755.11
600.10	1773.54
600.29	1775.59
600.48	1767.40
600.68	1691.62
600.87	1728.49
601.06	1705.96
601.26	1656.81
601.45	1804.26
601.64	1675.24
601.83	1855.46
602.03	1708.01
602.22	1619.94
602.41	1767.40
602.60	1857.51
602.80	1761.25
602.99	1738.73
603.18	1746.92
603.37	1730.53
603.57	1726.44
603.76	1791.97
603.95	1763.30
604.14	1722.34
604.34	1767.40
604.53	1769.44
604.72	1759.21
604.91	1779.68
605.10	1783.78
605.30	1705.96
605.49	1865.70
605.68	1726.44
605.87	1771.49
606.07	1701.86
606.26	1726.44
606.45	1851.36
606.64	1808.36
606.84	1697.77
607.03	1765.35
607.22	1757.16
607.41	1693.67
607.60	1734.63
607.80	1787.88
607.99	1693.67
608.18	1783.78
608.37	1753.06
608.56	1746.92
608.76	1814.50
608.95	1843.17
609.14	1800.16
609.33	1906.66
609.52	1812.45
609.72	1710.05
609.91	1783.78
610.10	1708.01
610.29	1851.36
610.48	1777.64
610.68	1681.38
610.87	1748.97
611.06	1742.82
611.25	1724.39
611.44	1810.40
611.63	1705.96
611.83	1800.16
612.02	1751.01
612.21	1839.08
612.40	1591.27
612.59	1675.24
612.79	1644.52
612.98	1732.58
613.17	1781.73
613.36	1683.43
613.55	1841.12
613.74	1734.63
613.93	1765.35
614.13	1710.05
614.32	1763.30
614.51	1673.19
614.70	1722.34
614.89	1738.73
615.08	1814.50
615.28	2047.97
615.47	1695.72
615.66	1742.82
615.85	1677.29
616.04	1841.12
616.23	1679.33
616.42	1777.64
616.62	1728.49
616.81	1701.86
617.00	1683.43
617.19	1789.92
617.38	1714.15
617.57	1701.86
617.76	1728.49
617.95	1775.59
618.15	1705.96
618.34	1796.07
618.53	1591.27
618.72	1761.25
618.91	1853.41
619.10	1802.21
619.29	1724.39
619.48	1671.14
619.68	1630.18
619.87	1691.62
620.06	1636.33
620.25	1746.92
620.44	1732.58
620.63	1724.39
620.82	1701.86
621.01	1712.10
621.20	1665.00
621.39	1699.81
621.59	1759.21
621.78	1738.73
621.97	1722.34
622.16	1757.16
622.35	1822.69
622.54	1765.35
622.73	1732.58
622.92	1615.85
623.11	1804.26
623.30	1685.48
623.49	1759.21
623.68	1695.72
623.88	1773.54
624.07	1714.15
624.26	1689.57
624.45	1755.11
624.64	1677.29
624.83	1789.92
625.02	1671.14
625.21	1730.53
625.40	1705.96
625.59	1779.68
625.78	1732.58
625.97	1816.55
626.16	1767.40
626.35	1769.44
626.54	1683.43
626.74	1738.73
626.93	1705.96
627.12	1673.19
627.31	1765.35
627.50	1714.15
627.69	1751.01
627.88	1767.40
628.07	1691.62
628.26	1652.71
628.45	1761.25
628.64	1636.33
628.83	1705.96
629.02	1673.19
629.21	1771.49
629.40	1718.25
629.59	1634.28
629.78	1634.28
629.97	1753.06
630.16	1742.82
630.35	1744.87
630.54	1708.01
630.73	1677.29
630.92	1753.06
631.11	1720.29
631.30	1802.21
631.49	1732.58
631.68	1701.86
631.87	1683.43
632.06	1624.04
632.25	1847.27
632.44	1699.81
632.63	1734.63
632.82	1656.81
633.01	1669.09
633.20	1722.34
633.39	1656.81
633.58	1648.61
633.77	1740.77
633.96	1699.81
634.15	1748.97
634.34	1816.55
634.53	1822.69
634.72	1646.57
634.91	1617.90
635.10	1724.39
635.29	1796.07
635.48	1740.77
635.67	1683.43
635.86	1587.18
636.05	1751.01
636.24	1650.66
636.43	1685.48
636.62	1787.88
636.81	1634.28
637.00	1724.39
637.19	1736.68
637.38	1755.11
637.57	1642.47
637.76	1818.60
637.95	1740.77
638.14	1724.39
638.33	1736.68
638.52	1714.15
638.71	1644.52
638.89	1599.46
639.08	1800.16
639.27	1736.68
639.46	1642.47
639.65	1804.26
639.84	1640.42
640.03	1693.67
640.22	1648.61
640.41	1869.80
640.60	1669.09
640.79	1656.81
640.98	1699.81
641.17	1779.68
641.36	1769.44
641.55	1734.63
641.74	1658.85
641.92	1667.05
642.11	1656.81
642.30	1767.40
642.49	1697.77
642.68	1689.57
642.87	1722.34
643.06	1775.59
643.25	1693.67
643.44	1589.22
643.63	1703.91
643.82	1640.42
644.00	1675.24
644.19	1710.05
644.38	1746.92
644.57	1703.91
644.76	1763.30
644.95	1640.42
645.14	1673.19
645.33	1638.38
645.52	1691.62
645.71	1693.67
645.89	1591.27
646.08	1716.20
646.27	1693.67
646.46	1796.07
646.65	1671.14
646.84	1712.10
647.03	1699.81
647.22	1773.54
647.40	1677.29
647.59	1654.76
647.78	1667.05
647.97	1738.73
648.16	1576.94
648.35	1822.69
648.54	1787.88
648.73	1683.43
648.91	1763.30
649.10	1701.86
649.29	1667.05
649.48	1767.40
649.67	1738.73
649.86	1753.06
650.05	1656.81
650.23	1755.11
650.42	1687.53
650.61	1808.36
650.80	1730.53
650.99	1755.11
651.18	1697.77
651.36	1765.35
651.55	1677.29
651.74	1728.49
651.93	1609.70
652.12	1677.29
652.31	1740.77
652.49	1681.38
652.68	1765.35
652.87	1757.16
653.06	1794.02
653.25	1880.04
653.44	1701.86
653.62	1802.21
653.81	1691.62
654.00	1781.73
654.19	1697.77
654.38	1828.84
654.56	1703.91
654.75	1701.86
654.94	1759.21
655.13	1761.25
655.32	1697.77
655.51	1810.40
655.69	1654.76
655.88	1808.36
656.07	1667.05
656.26	1740.77
656.45	1677.29
656.63	1681.38
656.82	1763.30
657.01	1789.92
657.20	1669.09
657.38	1783.78
657.57	1710.05
657.76	1599.46
657.95	1779.68
658.14	1626.09
658.32	1705.96
658.51	1687.53
658.70	1701.86
658.89	1787.88
659.08	1746.92
659.26	1816.55
659.45	1701.86
659.64	1714.15
659.83	1599.46
660.01	1929.19
660.20	1718.25
660.39	1755.11
660.58	1566.70
660.76	1701.86
660.95	1611.75
661.14	1777.64
661.33	1646.57
661.51	1636.33
661.70	1695.72
661.89	1771.49
662.08	1738.73
662.26	1597.42
662.45	1683.43
662.64	1834.98
662.83	1814.50
663.01	1607.66
663.20	1681.38
663.39	1763.30
663.58	1742.82
663.76	1755.11
663.95	1708.01
664.14	1685.48
664.32	1695.72
664.51	1669.09
664.70	1660.90
664.89	1738.73
665.07	1693.67
665.26	1763.30
665.45	1595.37
665.64	1724.39
665.82	1716.20
666.01	1748.97
666.20	1667.05
666.38	1746.92
666.57	1714.15
666.76	2129.89
666.95	4476.86
667.13	10381.15
667.32	15320.85
667.51	17977.07
667.69	18978.53
667.88	17825.52
668.07	12648.26
668.25	9686.89
668.44	8259.46
668.63	7364.50
668.81	6866.84
669.00	6277.02
669.19	5736.36
669.38	5132.21
669.56	4499.39
669.75	3913.67
669.94	3432.40
670.12	2987.99
670.31	2471.90
670.50	2332.64
670.68	2148.32
670.87	1910.75
671.06	1820.64
671.24	1734.63
671.43	1834.98
671.62	1712.10
671.80	1742.82
671.99	1853.41
672.18	1804.26
672.36	1699.81
672.55	1738.73
672.74	1738.73
672.92	1669.09
673.11	1724.39
673.29	1568.74
673.48	1767.40
673.67	1710.05
673.85	1759.21
674.04	1621.99
674.23	1740.77
674.41	1873.89
674.60	1603.56
674.79	1646.57
674.97	1665.00
675.16	1714.15
675.34	1794.02
675.53	1689.57
675.72	1724.39
675.90	1824.74
676.09	1748.97
676.28	1705.96
676.46	1619.94
676.65	1779.68
676.83	1646.57
677.02	1683.43
677.21	1716.20
677.39	1748.97
677.58	1683.43
677.77	1730.53
677.95	1675.24
678.14	1751.01
678.32	1697.77
678.51	1654.76
678.70	1849.32
678.88	1691.62
679.07	1785.83
679.25	1736.68
679.44	1697.77
679.63	1689.57
679.81	1621.99
680.00	1736.68
680.18	1673.19
680.37	1710.05
680.55	1665.00
680.74	1619.94
680.93	1560.55
681.11	1716.20
681.30	1732.58
681.48	1753.06
681.67	1771.49
681.85	1687.53
682.04	1626.09
682.23	1695.72
682.41	1710.05
682.60	1693.67
682.78	1628.14
682.97	1597.42
683.15	1675.24
683.34	1669.09
683.53	1820.64
683.71	1662.95
683.90	1757.16
684.08	1816.55
684.27	1665.00
684.45	1746.92
684.64	1738.73
684.82	1734.63
685.01	1701.86
685.19	1720.29
685.38	1796.07
685.57	1671.14
685.75	1730.53
685.94	1708.01
686.12	1638.38
686.31	1665.00
686.49	1763.30
686.68	1615.85
686.86	1714.15
687.05	1746.92
687.23	1791.97
687.42	1638.38
687.60	1613.80
687.79	1736.68
687.97	1746.92
688.16	1771.49
688.34	1755.11
688.53	1621.99
688.71	1708.01
688.90	1769.44
689.08	1644.52
689.27	1669.09
689.45	1736.68
689.64	1771.49
689.82	1718.25
690.01	1757.16
690.19	1798.12
690.38	1769.44
690.56	1834.98
690.75	1699.81
690.93	1687.53
691.12	1685.48
691.30	1718.25
691.49	1642.47
691.67	1687.53
691.86	1816.55
692.04	1705.96
692.23	1757.16
692.41	1669.09
692.60	1812.45
692.78	1757.16
692.97	1673.19
693.15	1785.83
693.34	1886.18
693.52	1779.68
693.71	1712.10
693.89	1648.61
694.08	1746.92
694.26	1671.14
694.44	1769.44
694.63	1730.53
694.81	1648.61
695.00	1699.81
695.18	1763.30
695.37	1783.78
695.55	1759.21
695.74	1603.56
695.92	1615.85
696.10	1787.88
696.29	1628.14
696.47	1665.00
696.66	1681.38
696.84	1656.81
697.03	1673.19
697.21	1861.60
697.40	2226.14
697.58	1787.88
697.76	1701.86
697.95	1708.01
698.13	1697.77
698.32	1716.20
698.50	1720.29
698.68	1712.10
698.87	1753.06
699.05	1740.77
699.24	1779.68
699.42	1642.47
699.61	1714.15
699.79	1671.14
699.97	1648.61
700.16	1658.85
700.34	1642.47
700.53	1724.39
700.71	1877.99
700.89	1746.92
701.08	1671.14
701.26	1619.94
701.45	2113.50
701.63	1685.48
701.81	1738.73
702.00	1714.15
702.18	1656.81
702.37	1599.46
702.55	1767.40
702.73	1626.09
702.92	1736.68
703.10	1755.11
703.28	1775.59
703.47	1632.23
703.65	1734.63
703.84	1796.07
704.02	1691.62
704.20	1740.77
704.39	1585.13
704.57	1718.25
704.75	1763.30
704.94	1751.01
705.12	1738.73
705.30	1824.74
705.49	2224.09
705.67	4358.08
705.86	9342.83
706.04	12531.52
706.22	14677.79
706.41	15355.67
706.59	13942.57
706.77	9717.61
706.96	7389.07
707.14	6811.54
707.32	5914.53
707.51	5539.76
707.69	4966.32
707.87	4272.06
708.06	3647.43
708.24	3020.75
708.42	2465.75
708.61	2238.43
708.79	1886.18
708.97	1865.70
709.16	1898.47
709.34	1847.27
709.52	1689.57
709.71	1697.77
709.89	1718.25
710.07	1722.34
710.26	1708.01
710.44	1748.97
710.62	1705.96
710.80	1712.10
710.99	1796.07
711.17	1730.53
711.35	1695.72
711.54	1730.53
711.72	1816.55
711.90	1730.53
712.09	1724.39
712.27	1677.29
712.45	1701.86
712.63	1652.71
712.82	1718.25
713.00	1763.30
713.18	1675.24
713.37	1753.06
713.55	1744.87
713.73	1691.62
713.91	1693.67
714.10	1708.01
714.28	1650.66
714.46	1626.09
714.65	1681.38
714.83	1685.48
715.01	1722.34
715.19	1669.09
715.38	1628.14
715.56	1677.29
715.74	1648.61
715.92	1632.23
716.11	1816.55
716.29	1540.07
716.47	1728.49
716.65	1703.91
716.84	1658.85
717.02	1742.82
717.20	1634.28
717.38	1722.34
717.57	1720.29
717.75	1593.32
717.93	1658.85
718.11	1724.39
718.30	1654.76
718.48	1710.05
718.66	1675.24
718.84	1779.68
719.03	1705.96
719.21	1572.84
719.39	1736.68
719.57	1697.77
719.75	1779.68
719.94	1732.58
720.12	1714.15
720.30	1705.96
720.48	1656.81
720.67	1667.05
720.85	1726.44
721.03	1656.81
721.21	1640.42
721.39	1779.68
721.58	1769.44
721.76	1665.00
721.94	1742.82
722.12	1703.91
722.30	1814.50
722.49	1722.34
722.67	1771.49
722.85	1742.82
723.03	1609.70
723.21	1699.81
723.40	1669.09
723.58	1740.77
723.76	1726.44
723.94	1806.31
724.12	1705.96
724.30	1816.55
724.49	1658.85
724.67	1667.05
724.85	1789.92
725.03	1628.14
725.21	1785.83
725.40	1689.57
725.58	1673.19
725.76	1681.38
725.94	1722.34
726.12	1585.13
726.30	1669.09
726.49	1671.14
726.67	1660.90
726.85	1705.96
727.03	1796.07
727.21	2082.78
727.39	2897.88
727.57	3768.26
727.76	4151.23
727.94	4405.18
728.12	4396.99
728.30	3819.46
728.48	2922.45
728.66	2756.57
728.84	2537.43
729.03	2301.92
729.21	2168.80
729.39	1920.99
729.57	1845.22
729.75	1820.64
729.93	1851.36
730.11	1695.72
730.30	1716.20
730.48	1722.34
730.66	1785.83
730.84	1796.07
731.02	1789.92
731.20	1679.33
731.38	1738.73
731.56	1636.33
731.74	1656.81
731.93	1714.15
732.11	1632.23
732.29	1693.67
732.47	1787.88
732.65	1691.62
732.83	1773.54
733.01	1728.49
733.19	1650.66
733.37	1759.21
733.56	1714.15
733.74	1624.04
733.92	1718.25
734.10	1681.38
734.28	1703.91
734.46	1599.46
734.64	1677.29
734.82	1630.18
735.00	1636.33
735.18	1759.21
735.36	1705.96
735.54	1753.06
735.73	1667.05
735.91	1697.77
736.09	1771.49
736.27	1738.73
736.45	1755.11
736.63	1587.18
736.81	1652.71
736.99	1759.21
737.17	1812.45
737.35	1755.11
737.53	1740.77
737.71	1732.58
737.89	1791.97
738.07	1728.49
738.25	1697.77
738.43	1652.71
738.61	1697.77
738.80	1640.42
738.98	1644.52
739.16	1720.29
739.34	1685.48
739.52	1837.03
739.70	1712.10
739.88	1724.39
740.06	1724.39
740.24	1576.94
740.42	1787.88
740.60	1667.05
740.78	1669.09
740.96	1660.90
741.14	1650.66
741.32	1685.48
741.50	1634.28
741.68	1845.22
741.86	1767.40
742.04	1697.77
742.22	1650.66
742.40	1675.24
742.58	1732.58
742.76	1738.73
742.94	1800.16
743.12	1619.94
743.30	1701.86
743.48	1722.34
743.66	1714.15
743.84	1806.31
744.02	1638.38
744.20	1675.24
744.38	1720.29
744.56	1652.71
744.74	1767.40
744.92	1730.53
745.10	1820.64
745.28	1746.92
745.46	1755.11
745.64	1701.86
745.82	1701.86
746.00	1665.00
746.18	1734.63
746.36	1677.29
746.54	1730.53
746.72	1681.38
746.90	1697.77
747.08	1771.49
747.26	1722.34
747.44	1736.68
747.62	1691.62
747.80	1748.97
747.98	1789.92
748.15	1699.81
748.33	1769.44
748.51	1671.14
748.69	1718.25
748.87	1630.18
749.05	1728.49
749.23	1714.15
749.41	1669.09
749.59	1665.00
749.77	1832.93
749.95	1607.66
750.13	1658.85
750.31	1669.09
750.49	1650.66
750.67	1728.49
750.85	1794.02
751.03	1796.07
751.20	1787.88
751.38	1685.48
751.56	1726.44
751.74	1640.42
751.92	1697.77
752.10	1601.51
752.28	1759.21
752.46	1640.42
752.64	1693.67
752.82	1722.34
753.00	1777.64
753.18	1712.10
753.35	1697.77
753.53	1654.76
753.71	1660.90
753.89	1693.67
754.07	1781.73
754.25	1765.35
754.43	1722.34
754.61	1589.22
754.79	1730.53
754.97	1736.68
755.14	1789.92
755.32	1691.62
755.50	1693.67
755.68	1697.77
755.86	1554.41
756.04	1640.42
756.22	1617.90
756.40	1693.67
756.57	1798.12
756.75	1710.05
756.93	1724.39
757.11	1724.39
757.29	1632.23
757.47	1675.24
757.65	1628.14
757.82	1562.60
758.00	1665.00
758.18	1652.71
758.36	1693.67
758.54	1830.88
758.72	1617.90
758.90	1746.92
759.07	1742.82
759.25	1607.66
759.43	1775.59
759.61	1648.61
759.79	2203.61
759.97	1763.30
760.15	1742.82
760.32	1654.76
760.50	1759.21
760.68	1767.40
760.86	1656.81
761.04	1740.77
761.22	1677.29
761.39	1687.53
761.57	1765.35
761.75	1726.44
761.93	1720.29
762.11	1683.43
762.28	1720.29
762.46	1773.54
762.64	1734.63
762.82	1621.99
763.00	1736.68
763.18	1822.69
763.35	1697.77
763.53	1734.63
763.71	1753.06
763.89	1716.20
764.07	1759.21
764.24	1691.62
764.42	1783.78
764.60	1673.19
764.78	1708.01
764.96	1767.40
765.13	1736.68
765.31	1734.63
765.49	1785.83
765.67	1624.04
765.84	1558.50
766.02	1619.94
766.20	1638.38
766.38	1699.81
766.56	1718.25
766.73	1779.68
766.91	1724.39
767.09	1689.57
767.27	1693.67
767.44	1648.61
767.62	1662.95
767.80	1673.19
767.98	1656.81
768.15	1689.57
768.33	1730.53
768.51	1746.92
768.69	1763.30
768.87	1681.38
769.04	1712.10
769.22	1861.60
769.40	1716.20
769.58	1849.32
769.75	1716.20
769.93	1720.29
770.11	1714.15
770.28	1705.96
770.46	1662.95
770.64	1751.01
770.82	1658.85
770.99	1613.80
771.17	1777.64
771.35	1689.57
771.53	1601.51
771.70	1648.61
771.88	1708.01
772.06	1675.24
772.23	1660.90
772.41	1693.67
772.59	1697.77
772.77	1654.76
772.94	1624.04
773.12	1675.24
773.30	1722.34
773.47	1734.63
773.65	1611.75
773.83	1783.78
774.01	1681.38
774.18	1583.08
774.36	1646.57
774.54	1673.19
774.71	1699.81
774.89	1595.37
775.07	1650.66
775.24	1597.42
775.42	1687.53
775.60	1798.12
775.78	1626.09
775.95	1583.08
776.13	1619.94
776.31	1540.07
776.48	1714.15
776.66	1746.92
776.84	1646.57
777.01	1716.20
777.19	1644.52
777.37	1650.66
777.54	1759.21
777.72	1800.16
777.90	1726.44
778.07	1628.14
778.25	1888.23
778.43	1685.48
778.60	1701.86
778.78	1687.53
778.96	1775.59
779.13	1660.90
779.31	1718.25
779.49	1710.05
779.66	1683.43
779.84	1742.82
780.01	1665.00
780.19	1685.48
780.37	1697.77
780.54	1769.44
780.72	1665.00
780.90	1701.86
781.07	1697.77
781.25	1654.76
781.43	1742.82
781.60	1630.18
781.78	1759.21
781.95	1744.87
782.13	1667.05
782.31	1642.47
782.48	1609.70
782.66	1697.77
782.83	1716.20
783.01	1779.68
783.19	1718.25
783.36	1697.77
783.54	1638.38
783.72	1757.16
783.89	1728.49
784.07	1681.38
784.24	1761.25
784.42	1744.87
784.60	1742.82
784.77	1708.01
784.95	1626.09
785.12	1671.14
785.30	1701.86
785.47	1615.85
785.65	1587.18
785.83	1689.57
786.00	1636.33
786.18	1806.31
786.35	1675.24
786.53	1718.25
786.71	1773.54
786.88	1771.49
787.06	1712.10
787.23	1621.99
787.41	1640.42
787.58	1665.00
787.76	1691.62
787.94	1701.86
788.11	1650.66
788.29	1624.04
788.46	1621.99
788.64	1611.75
788.81	1695.72
788.99	1671.14
789.16	1656.81
789.34	1615.85
789.52	1630.18
789.69	1662.95
789.87	1642.47
790.04	1740.77
790.22	1669.09
790.39	1814.50
790.57	1701.86
790.74	1650.66
790.92	1726.44
791.09	1681.38
791.27	1681.38
791.44	1763.30
791.62	1611.75
791.79	1753.06
791.97	1720.29
792.15	1886.18
792.32	1732.58
792.50	1796.07
792.67	1822.69
792.85	1794.02
793.02	1718.25
793.20	1748.97
793.37	1644.52
793.55	1689.57
793.72	1660.90
793.90	1808.36
794.07	1685.48
794.25	1705.96
794.42	1726.44
794.60	1654.76
794.77	1748.97
794.95	1849.32
795.12	1767.40
795.30	1701.86
795.47	1546.22
795.65	1841.12
795.82	1779.68
796.00	1658.85
796.17	1728.49
796.34	1650.66
796.52	1701.86
796.69	1724.39
796.87	1730.53
797.04	1718.25
797.22	1763.30
797.39	1669.09
797.57	1740.77
797.74	1791.97
797.92	1644.52
798.09	1673.19
798.27	1800.16
798.44	1755.11
798.62	1652.71
798.79	1675.24
798.96	1673.19
799.14	1755.11
799.31	1820.64
799.49	1660.90
799.66	1703.91
799.84	1722.34
800.01	1656.81
800.19	1710.05
800.36	1611.75
800.53	1724.39
800.71	1712.10
800.88	1734.63
801.06	1662.95
801.23	1658.85
801.41	1673.19
801.58	1681.38
801.75	1669.09
801.93	1787.88
802.10	1730.53
802.28	1671.14
802.45	1675.24
802.63	1828.84
802.80	1744.87
802.97	1665.00
803.15	1646.57
803.32	1658.85
803.50	1654.76
803.67	1656.81
803.84	1583.08
804.02	1710.05
804.19	1681.38
804.37	1603.56
804.54	1574.89
804.71	1691.62
804.89	1685.48
805.06	1617.90
805.24	1617.90
805.41	1669.09
805.58	1607.66
805.76	1855.46
805.93	1718.25
806.10	1732.58
806.28	1687.53
806.45	1697.77
806.63	1728.49
806.80	1746.92
806.97	1665.00
807.15	1716.20
807.32	1685.48
807.49	1738.73
807.67	1650.66
807.84	1705.96
808.01	1640.42
808.19	1822.69
808.36	1789.92
808.54	1644.52
808.71	1699.81
808.88	1746.92
809.06	1689.57
809.23	1804.26
809.40	1658.85
809.58	1843.17
809.75	1667.05
809.92	1679.33
810.10	1908.71
810.27	1732.58
810.44	1732.58
810.62	1746.92
810.79	1722.34
810.96	1601.51
811.14	1705.96
811.31	1691.62
811.48	1744.87
811.66	1738.73
811.83	1763.30
812.00	1722.34
812.18	1708.01
812.35	1818.60
812.52	1669.09
812.69	1683.43
812.87	1724.39
813.04	1632.23
813.21	1736.68
813.39	1738.73
813.56	1599.46
813.73	1763.30
813.91	1564.65
814.08	1665.00
814.25	1730.53
814.42	1648.61
814.60	1660.90
814.77	1705.96
814.94	1710.05
815.12	1687.53
815.29	1712.10
815.46	1640.42
815.63	1619.94
815.81	1675.24
815.98	1742.82
816.15	1703.91
816.33	1689.57
816.50	1662.95
816.67	1712.10
816.84	1705.96
817.02	1634.28
817.19	1712.10
817.36	1781.73
817.53	1751.01
817.71	1730.53
817.88	1705.96
818.05	1656.81
818.22	1722.34
818.40	1781.73
818.57	1667.05
818.74	1724.39
818.91	1714.15
819.09	1794.02
819.26	1689.57
819.43	1665.00
819.60	1667.05
819.78	1726.44
819.95	1675.24
820.12	1638.38
820.29	1746.92
820.47	1769.44
820.64	1677.29
820.81	1591.27
820.98	1671.14
821.15	1685.48
821.33	1751.01
821.50	1581.03
821.67	1701.86
821.84	1710.05
822.02	1757.16
822.19	1740.77
822.36	1685.48
822.53	1712.10
822.70	1626.09
822.88	1703.91
823.05	1744.87
823.22	1681.38
823.39	1742.82
823.56	1708.01
823.74	1720.29
823.91	1619.94
824.08	1685.48
824.25	1576.94
824.42	1820.64
824.60	1632.23
824.77	1689.57
824.94	1714.15
825.11	1652.71
825.28	1621.99
825.45	1662.95
825.63	1683.43
825.80	1615.85
825.97	1724.39
826.14	1638.38
826.31	1621.99
826.48	1736.68
826.66	1626.09
826.83	1675.24
827.00	1775.59
827.17	1656.81
827.34	1681.38
827.51	1646.57
827.69	1771.49
827.86	1658.85
828.03	1708.01
828.20	1736.68
828.37	1683.43
828.54	1681.38
828.71	1628.14
828.89	1767.40
829.06	1720.29
829.23	1665.00
829.40	1638.38
829.57	1599.46
829.74	1740.77
829.91	1673.19
830.09	1742.82
830.26	1722.34
830.43	1791.97
830.60	1611.75
830.77	1751.01
830.94	1724.39
831.11	1769.44
831.28	1667.05
831.46	1726.44
831.63	1710.05
831.80	1753.06
831.97	1656.81
832.14	1644.52
832.31	1720.29
832.48	1775.59
832.65	1740.77
832.82	1687.53
832.99	1730.53
833.17	1583.08
833.34	1816.55
833.51	1697.77
833.68	1595.37
833.85	1806.31
834.02	1619.94
834.19	1626.09
834.36	1619.94
834.53	1667.05
834.70	1730.53
834.87	1767.40
835.04	1722.34
835.22	1570.79
835.39	1708.01
835.56	1570.79
835.73	1699.81
835.90	1667.05
836.07	1576.94
836.24	1722.34
836.41	1675.24
836.58	1693.67
836.75	1791.97
836.92	1617.90
837.09	1576.94
837.26	1619.94
837.43	1722.34
837.60	1744.87
837.77	1697.77
837.94	1648.61
838.12	1748.97
838.29	1632.23
838.46	1619.94
838.63	1660.90
838.80	1746.92
838.97	1701.86
839.14	1777.64
839.31	1681.38
839.48	1701.86
839.65	1636.33
839.82	1703.91
839.99	1757.16
840.16	1701.86
840.33	1662.95
840.50	1632.23
840.67	1556.46
840.84	1529.83
841.01	1708.01
841.18	1683.43
841.35	1593.32
841.52	1710.05
841.69	1845.22
841.86	1714.15
842.03	1693.67
842.20	1716.20
842.37	1732.58
842.54	1652.71
842.71	1697.77
842.88	1607.66
843.05	1779.68
843.22	1691.62
843.39	1673.19
843.56	1695.72
843.73	1742.82
843.90	1736.68
844.07	1746.92
844.24	1755.11
844.41	1718.25
844.58	1724.39
844.75	1687.53
844.92	1734.63
845.09	1720.29
845.26	1648.61
845.43	1699.81
845.60	1677.29
845.77	1720.29
845.94	1734.63
846.10	1724.39
846.27	1628.14
846.44	1689.57
846.61	1587.18
846.78	1708.01
846.95	1708.01
847.12	1644.52
847.29	1673.19
847.46	1648.61
847.63	1744.87
847.80	1689.57
847.97	1595.37
848.14	1826.79
848.31	1679.33
848.48	1632.23
848.65	1718.25
848.82	1613.80
848.98	1826.79
849.15	1691.62
849.32	1818.60
849.49	1699.81
849.66	1714.15
849.83	1646.57
850.00	1640.42
850.17	1734.63
850.34	1683.43
850.51	1685.48
850.68	1656.81
850.85	1757.16
851.01	1685.48
851.18	1716.20
851.35	1673.19
851.52	1728.49
851.69	1701.86
851.86	1617.90
852.03	1654.76
852.20	1746.92
852.37	1677.29
852.53	1560.55
852.70	1587.18
852.87	1675.24
853.04	1714.15
853.21	1648.61
853.38	1650.66
853.55	1814.50
853.72	1779.68
853.89	1646.57
854.05	1613.80
854.22	1615.85
854.39	1724.39
854.56	1701.86
854.73	1669.09
854.90	1628.14
855.07	1714.15
855.23	1601.51
855.40	1693.67
855.57	1593.32
855.74	1560.55
855.91	1888.23
856.08	1642.47
856.25	1617.90
856.41	1638.38
856.58	1648.61
856.75	1708.01
856.92	1701.86
857.09	1730.53
857.26	1550.31
857.42	1691.62
857.59	1746.92
857.76	1693.67
857.93	1755.11
858.10	1726.44
858.27	1662.95
858.43	1718.25
858.60	1665.00
858.77	1609.70
858.94	1572.84
859.11	1808.36
859.27	1697.77
859.44	1652.71
859.61	1882.08
859.78	1763.30
859.95	1646.57
860.12	1630.18
860.28	1710.05
860.45	1816.55
860.62	1660.90
860.79	1738.73
860.95	1714.15
861.12	1650.66
861.29	1714.15
861.46	1615.85
861.63	1601.51
861.79	1695.72
861.96	1613.80
862.13	1779.68
862.30	1767.40
862.47	1648.61
862.63	1675.24
862.80	1689.57
862.97	1738.73
863.14	1722.34
863.30	1751.01
863.47	1656.81
863.64	1722.34
863.81	1687.53
863.97	1644.52
864.14	1722.34
864.31	1652.71
864.48	1755.11
864.65	1675.24
864.81	1806.31
864.98	1722.34
865.15	1783.78
865.32	1738.73
865.48	1753.06
865.65	1730.53
865.82	1675.24
865.98	1759.21
866.15	1726.44
866.32	1634.28
866.49	1722.34
866.65	1806.31
866.82	1587.18
866.99	1759.21
867.16	1665.00
867.32	1599.46
867.49	1646.57
867.66	1726.44
867.83	1681.38
867.99	1574.89
868.16	1656.81
868.33	1585.13
868.49	1699.81
868.66	1687.53
868.83	1730.53
868.99	1703.91
869.16	1761.25
869.33	1787.88
869.50	1771.49
869.66	1730.53
869.83	1658.85
870.00	1656.81
870.16	1693.67
870.33	1665.00
870.50	1710.05
870.66	1695.72
870.83	1798.12
871.00	1671.14
871.17	1677.29
871.33	1765.35
871.50	1679.33
871.67	1634.28
871.83	1624.04
872.00	1783.78
872.17	1636.33
872.33	1812.45
872.50	1757.16
872.67	1748.97
872.83	1619.94
873.00	1730.53
873.17	1732.58
873.33	1771.49
873.50	1728.49
873.67	1597.42
873.83	1617.90
874.00	1697.77
874.16	1804.26
874.33	1759.21
874.50	1615.85
874.66	1753.06
874.83	1687.53
875.00	1748.97
875.16	1746.92
875.33	1763.30
875.50	1634.28
875.66	1667.05
875.83	1648.61
875.99	1748.97
876.16	1720.29
876.33	1628.14
876.49	1693.67
876.66	1691.62
876.83	1759.21
876.99	1652.71
877.16	1761.25
877.32	1697.77
877.49	1738.73
877.66	1767.40
877.82	1785.83
877.99	1669.09
878.15	1732.58
878.32	1646.57
878.49	1632.23
878.65	1673.19
878.82	1773.54
878.98	1607.66
879.15	1744.87
879.32	1730.53
879.48	1662.95
879.65	1679.33
879.81	1697.77
879.98	1753.06
880.15	1693.67
880.31	1701.86
880.48	1585.13
880.64	1763.30
880.81	1738.73
880.97	1820.64
881.14	1662.95
881.31	1667.05
881.47	1796.07
881.64	1705.96
881.80	1632.23
881.97	1708.01
882.13	1785.83
882.30	1581.03
882.47	1681.38
882.63	1660.90
882.80	1695.72
882.96	1710.05
883.13	1701.86
883.29	1693.67
883.46	1738.73
883.62	1732.58
883.79	1751.01
883.95	1757.16
884.12	1753.06
884.29	1744.87
884.45	1759.21
884.62	1789.92
884.78	1751.01
884.95	1720.29
885.11	1665.00
885.28	1761.25
885.44	1656.81
885.61	1728.49
885.77	1773.54
885.94	1781.73
886.10	1648.61
886.27	1746.92
886.43	1757.16
886.60	1761.25
886.76	1636.33
886.93	1642.47
887.09	1710.05
887.26	1593.32
887.42	1638.38
887.59	1677.29
887.75	1857.51
887.92	1734.63
888.08	1738.73
888.25	1832.93
888.41	1726.44
888.58	1685.48
888.74	1638.38
888.91	1710.05
>>>>>End Processed Spectral Data<<<<<
