SpectraSuite Data File
++++++++++++++++++++++++++++++++++++
Date: Mon Jun 06 15:49:57 CEST 2016
User: root
Dark Spectrum Present: No
Reference Spectrum Present: No
Number of Sampled Component Spectra: 1
Spectrometers: USB4C02835
Integration Time (usec): 100000 (USB4C02835)
Spectra Averaged: 1 (USB4C02835)
Boxcar Smoothing: 0 (USB4C02835)
Correct for Electrical Dark: No (USB4C02835)
Strobe/Lamp Enabled: No (USB4C02835)
Correct for Detector Non-linearity: No (USB4C02835)
Correct for Stray Light: No (USB4C02835)
Number of Pixels in Processed Spectrum: 3648
>>>>>Begin Processed Spectral Data<<<<<
177.47	1472.49
177.69	1472.49
177.91	1472.49
178.13	1468.39
178.36	1476.59
178.58	1615.85
178.80	1683.43
179.02	1597.42
179.24	1667.05
179.46	1708.01
179.68	1791.97
179.90	1724.39
180.13	1705.96
180.35	1648.61
180.57	1636.33
180.79	1689.57
181.01	1691.62
181.23	1816.55
181.45	1789.92
181.67	1800.16
181.90	1755.11
182.12	1671.14
182.34	1626.09
182.56	1691.62
182.78	1724.39
183.00	1726.44
183.22	1740.77
183.44	1601.51
183.66	1853.41
183.89	1728.49
184.11	1781.73
184.33	1708.01
184.55	1839.08
184.77	1763.30
184.99	1798.12
185.21	1642.47
185.43	1841.12
185.65	1728.49
185.87	1767.40
186.10	1800.16
186.32	1863.65
186.54	1769.44
186.76	1710.05
186.98	1734.63
187.20	1677.29
187.42	1656.81
187.64	1722.34
187.86	1683.43
188.08	1701.86
188.30	1599.46
188.52	1734.63
188.75	1742.82
188.97	1771.49
189.19	1636.33
189.41	1710.05
189.63	1787.88
189.85	1576.94
190.07	1658.85
190.29	1628.14
190.51	1744.87
190.73	1613.80
190.95	1699.81
191.17	1761.25
191.39	1701.86
191.61	1689.57
191.84	1705.96
192.06	1677.29
192.28	1531.88
192.50	1931.23
192.72	1730.53
192.94	1638.38
193.16	1818.60
193.38	1724.39
193.60	1621.99
193.82	1691.62
194.04	1777.64
194.26	1691.62
194.48	1675.24
194.70	1619.94
194.92	1677.29
195.14	1718.25
195.36	1621.99
195.58	1648.61
195.80	1673.19
196.02	1669.09
196.24	1658.85
196.46	1730.53
196.69	1660.90
196.91	1871.84
197.13	1650.66
197.35	1646.57
197.57	1839.08
197.79	1697.77
198.01	1714.15
198.23	1734.63
198.45	1718.25
198.67	1626.09
198.89	1681.38
199.11	1710.05
199.33	1601.51
199.55	1621.99
199.77	1724.39
199.99	1796.07
200.21	1697.77
200.43	1742.82
200.65	1611.75
200.87	1675.24
201.09	1681.38
201.31	1687.53
201.53	1738.73
201.75	1787.88
201.97	1744.87
202.19	1740.77
202.41	1755.11
202.63	1843.17
202.85	1701.86
203.07	1656.81
203.29	1720.29
203.51	1693.67
203.73	1728.49
203.95	1898.47
204.17	1673.19
204.39	1734.63
204.61	1755.11
204.83	1679.33
205.05	1765.35
205.27	1755.11
205.49	1849.32
205.71	1654.76
205.93	1601.51
206.15	1697.77
206.37	1720.29
206.59	1658.85
206.81	1619.94
207.03	1656.81
207.25	1691.62
207.47	1720.29
207.69	1708.01
207.91	1746.92
208.13	1806.31
208.34	1746.92
208.56	1638.38
208.78	1736.68
209.00	1652.71
209.22	1687.53
209.44	1665.00
209.66	1687.53
209.88	1693.67
210.10	1701.86
210.32	1671.14
210.54	1808.36
210.76	1767.40
210.98	1751.01
211.20	1660.90
211.42	1671.14
211.64	1734.63
211.86	1738.73
212.08	1744.87
212.30	1798.12
212.52	1701.86
212.74	1767.40
212.96	1703.91
213.17	1820.64
213.39	1802.21
213.61	1820.64
213.83	1794.02
214.05	1699.81
214.27	1708.01
214.49	1652.71
214.71	1699.81
214.93	1712.10
215.15	1755.11
215.37	1746.92
215.59	1630.18
215.81	1763.30
216.03	1767.40
216.24	1718.25
216.46	1634.28
216.68	1730.53
216.90	1699.81
217.12	1701.86
217.34	1728.49
217.56	1740.77
217.78	1740.77
218.00	1697.77
218.22	1681.38
218.44	1785.83
218.66	1716.20
218.87	1748.97
219.09	1746.92
219.31	1658.85
219.53	1710.05
219.75	1677.29
219.97	1705.96
220.19	1767.40
220.41	1681.38
220.63	1859.56
220.85	1763.30
221.06	1658.85
221.28	1777.64
221.50	1738.73
221.72	1654.76
221.94	1722.34
222.16	1748.97
222.38	1777.64
222.60	1724.39
222.82	1667.05
223.03	1757.16
223.25	1710.05
223.47	1738.73
223.69	1800.16
223.91	1716.20
224.13	1673.19
224.35	1693.67
224.57	1740.77
224.78	1726.44
225.00	1716.20
225.22	1710.05
225.44	1681.38
225.66	1763.30
225.88	1677.29
226.10	1771.49
226.32	1753.06
226.53	1724.39
226.75	1658.85
226.97	1726.44
227.19	1675.24
227.41	1654.76
227.63	1730.53
227.85	1640.42
228.06	1865.70
228.28	1710.05
228.50	1818.60
228.72	1652.71
228.94	1681.38
229.16	1583.08
229.37	1679.33
229.59	1634.28
229.81	1757.16
230.03	1638.38
230.25	1691.62
230.47	1687.53
230.69	1599.46
230.90	1679.33
231.12	1689.57
231.34	1753.06
231.56	1751.01
231.78	1705.96
232.00	1734.63
232.21	1738.73
232.43	1691.62
232.65	1665.00
232.87	1789.92
233.09	1691.62
233.30	1601.51
233.52	1751.01
233.74	1734.63
233.96	1705.96
234.18	1775.59
234.40	1710.05
234.61	1865.70
234.83	1677.29
235.05	1677.29
235.27	1933.28
235.49	1695.72
235.70	1699.81
235.92	1767.40
236.14	1697.77
236.36	1839.08
236.58	1677.29
236.79	1669.09
237.01	1667.05
237.23	1728.49
237.45	1812.45
237.67	1669.09
237.88	1681.38
238.10	1734.63
238.32	1675.24
238.54	1740.77
238.76	1714.15
238.97	1703.91
239.19	1624.04
239.41	1748.97
239.63	1777.64
239.85	1665.00
240.06	1714.15
240.28	1712.10
240.50	1742.82
240.72	1693.67
240.93	1697.77
241.15	1783.78
241.37	1730.53
241.59	1742.82
241.81	1714.15
242.02	1689.57
242.24	1732.58
242.46	1736.68
242.68	1630.18
242.89	1791.97
243.11	1755.11
243.33	1689.57
243.55	1722.34
243.76	1748.97
243.98	1624.04
244.20	1656.81
244.42	1757.16
244.64	1673.19
244.85	1673.19
245.07	1601.51
245.29	1703.91
245.51	1677.29
245.72	1673.19
245.94	1810.40
246.16	1646.57
246.38	1798.12
246.59	1730.53
246.81	1656.81
247.03	1675.24
247.24	1597.42
247.46	1662.95
247.68	1736.68
247.90	1740.77
248.11	1599.46
248.33	1736.68
248.55	1656.81
248.77	1769.44
248.98	1759.21
249.20	1759.21
249.42	1777.64
249.64	1718.25
249.85	1640.42
250.07	1689.57
250.29	1779.68
250.50	1832.93
250.72	1583.08
250.94	1738.73
251.16	1763.30
251.37	1781.73
251.59	1806.31
251.81	1787.88
252.02	1773.54
252.24	1603.56
252.46	1814.50
252.68	1665.00
252.89	1656.81
253.11	1570.79
253.33	1806.31
253.54	1783.78
253.76	1587.18
253.98	1607.66
254.20	1681.38
254.41	1677.29
254.63	1705.96
254.85	1613.80
255.06	1748.97
255.28	1763.30
255.50	1724.39
255.71	1740.77
255.93	1624.04
256.15	1669.09
256.36	1742.82
256.58	1763.30
256.80	1697.77
257.02	1730.53
257.23	1693.67
257.45	1728.49
257.67	1742.82
257.88	1671.14
258.10	1701.86
258.32	1742.82
258.53	1714.15
258.75	1722.34
258.97	1665.00
259.18	1669.09
259.40	1689.57
259.62	1882.08
259.83	1773.54
260.05	1779.68
260.27	1914.85
260.48	1787.88
260.70	1673.19
260.92	1748.97
261.13	1712.10
261.35	1720.29
261.57	1794.02
261.78	1626.09
262.00	1615.85
262.22	1763.30
262.43	1656.81
262.65	1658.85
262.86	1695.72
263.08	1816.55
263.30	1646.57
263.51	1578.98
263.73	1677.29
263.95	1816.55
264.16	1687.53
264.38	1695.72
264.60	1742.82
264.81	1748.97
265.03	1757.16
265.25	1820.64
265.46	1722.34
265.68	1746.92
265.89	1726.44
266.11	1679.33
266.33	1746.92
266.54	1783.78
266.76	1730.53
266.98	1720.29
267.19	1794.02
267.41	1734.63
267.62	1769.44
267.84	1609.70
268.06	1679.33
268.27	1820.64
268.49	1718.25
268.70	1751.01
268.92	1634.28
269.14	1665.00
269.35	1587.18
269.57	1724.39
269.79	1718.25
270.00	1697.77
270.22	1818.60
270.43	1665.00
270.65	1581.03
270.87	1781.73
271.08	1736.68
271.30	1740.77
271.51	1693.67
271.73	1751.01
271.95	1771.49
272.16	1718.25
272.38	1701.86
272.59	1699.81
272.81	1685.48
273.02	1781.73
273.24	1775.59
273.46	1771.49
273.67	1718.25
273.89	1605.61
274.10	1640.42
274.32	1810.40
274.54	1796.07
274.75	1767.40
274.97	1691.62
275.18	1724.39
275.40	1796.07
275.61	1726.44
275.83	1687.53
276.05	1673.19
276.26	1691.62
276.48	1757.16
276.69	1691.62
276.91	1730.53
277.12	1814.50
277.34	1773.54
277.55	1699.81
277.77	1701.86
277.99	1697.77
278.20	1638.38
278.42	1636.33
278.63	1638.38
278.85	1630.18
279.06	1673.19
279.28	1734.63
279.49	1787.88
279.71	1773.54
279.93	1695.72
280.14	1757.16
280.36	1708.01
280.57	1669.09
280.79	1718.25
281.00	1656.81
281.22	1628.14
281.43	1701.86
281.65	1634.28
281.86	1669.09
282.08	1781.73
282.29	1845.22
282.51	1576.94
282.73	1687.53
282.94	1632.23
283.16	1710.05
283.37	1818.60
283.59	1669.09
283.80	1751.01
284.02	1734.63
284.23	1757.16
284.45	1730.53
284.66	1712.10
284.88	1681.38
285.09	1720.29
285.31	1695.72
285.52	1746.92
285.74	1535.98
285.95	1761.25
286.17	1710.05
286.38	1714.15
286.60	1691.62
286.81	1685.48
287.03	1802.21
287.24	1720.29
287.46	1740.77
287.67	1714.15
287.89	1785.83
288.10	1714.15
288.32	1759.21
288.53	1822.69
288.75	1740.77
288.96	1744.87
289.18	1615.85
289.39	1730.53
289.61	1740.77
289.82	1789.92
290.04	1871.84
290.25	1650.66
290.47	1765.35
290.68	1746.92
290.90	1798.12
291.11	1581.03
291.33	1804.26
291.54	1624.04
291.76	1705.96
291.97	1726.44
292.18	1787.88
292.40	1738.73
292.61	1673.19
292.83	1818.60
293.04	1740.77
293.26	1751.01
293.47	1708.01
293.69	1703.91
293.90	1660.90
294.12	1783.78
294.33	1624.04
294.55	1740.77
294.76	1789.92
294.97	1761.25
295.19	1779.68
295.40	1701.86
295.62	1763.30
295.83	1683.43
296.05	1755.11
296.26	1740.77
296.48	1656.81
296.69	1654.76
296.90	1761.25
297.12	1736.68
297.33	1757.16
297.55	1677.29
297.76	1615.85
297.98	1730.53
298.19	1705.96
298.41	1632.23
298.62	1644.52
298.83	1798.12
299.05	1716.20
299.26	1726.44
299.48	1640.42
299.69	1779.68
299.90	1734.63
300.12	1677.29
300.33	1796.07
300.55	1710.05
300.76	1718.25
300.98	1669.09
301.19	1648.61
301.40	1701.86
301.62	1630.18
301.83	1845.22
302.05	1714.15
302.26	1734.63
302.47	1691.62
302.69	1677.29
302.90	1738.73
303.12	1654.76
303.33	1849.32
303.54	1779.68
303.76	1738.73
303.97	1691.62
304.19	1724.39
304.40	1681.38
304.61	1628.14
304.83	1734.63
305.04	1742.82
305.26	1769.44
305.47	1714.15
305.68	1808.36
305.90	1632.23
306.11	1845.22
306.33	1673.19
306.54	1685.48
306.75	1632.23
306.97	1574.89
307.18	1628.14
307.39	1695.72
307.61	1718.25
307.82	1685.48
308.04	1742.82
308.25	1673.19
308.46	1730.53
308.68	1693.67
308.89	1660.90
309.10	1824.74
309.32	1615.85
309.53	1728.49
309.74	1705.96
309.96	1710.05
310.17	1759.21
310.39	1714.15
310.60	1722.34
310.81	1757.16
311.03	1722.34
311.24	1779.68
311.45	1681.38
311.67	1771.49
311.88	1626.09
312.09	1703.91
312.31	1581.03
312.52	1705.96
312.73	1757.16
312.95	1658.85
313.16	1660.90
313.37	1824.74
313.59	1730.53
313.80	1779.68
314.01	1751.01
314.23	1617.90
314.44	1642.47
314.65	1665.00
314.87	1679.33
315.08	1599.46
315.29	1607.66
315.51	1574.89
315.72	1681.38
315.93	1894.37
316.15	1771.49
316.36	1673.19
316.57	1675.24
316.79	1779.68
317.00	1769.44
317.21	1738.73
317.43	1679.33
317.64	1685.48
317.85	1648.61
318.07	1703.91
318.28	1724.39
318.49	1726.44
318.70	1937.38
318.92	1763.30
319.13	1746.92
319.34	1816.55
319.56	1755.11
319.77	1802.21
319.98	1845.22
320.20	1712.10
320.41	1738.73
320.62	1775.59
320.83	1689.57
321.05	1871.84
321.26	1740.77
321.47	1734.63
321.69	1765.35
321.90	1693.67
322.11	1658.85
322.32	1761.25
322.54	1761.25
322.75	1714.15
322.96	1830.88
323.18	1669.09
323.39	1576.94
323.60	1642.47
323.81	1746.92
324.03	1624.04
324.24	1681.38
324.45	1726.44
324.66	1734.63
324.88	1771.49
325.09	1730.53
325.30	1710.05
325.52	1736.68
325.73	1660.90
325.94	1716.20
326.15	1615.85
326.37	1658.85
326.58	1710.05
326.79	1834.98
327.00	1695.72
327.22	1787.88
327.43	1730.53
327.64	1621.99
327.85	1730.53
328.07	1683.43
328.28	1828.84
328.49	1695.72
328.70	1697.77
328.92	1722.34
329.13	1669.09
329.34	1759.21
329.55	1812.45
329.76	1808.36
329.98	1724.39
330.19	1775.59
330.40	1683.43
330.61	1697.77
330.83	1751.01
331.04	1660.90
331.25	1714.15
331.46	1701.86
331.68	1607.66
331.89	1742.82
332.10	1730.53
332.31	1609.70
332.52	1708.01
332.74	1759.21
332.95	1650.66
333.16	1705.96
333.37	1751.01
333.58	1673.19
333.80	1734.63
334.01	1607.66
334.22	1689.57
334.43	1591.27
334.64	1742.82
334.86	1710.05
335.07	1683.43
335.28	1787.88
335.49	1640.42
335.70	1769.44
335.92	1773.54
336.13	1843.17
336.34	1771.49
336.55	1734.63
336.76	1730.53
336.98	1548.26
337.19	1718.25
337.40	1849.32
337.61	1892.32
337.82	1744.87
338.04	1771.49
338.25	1658.85
338.46	1708.01
338.67	1628.14
338.88	1673.19
339.09	1673.19
339.31	1677.29
339.52	1685.48
339.73	1617.90
339.94	1705.96
340.15	1767.40
340.36	1613.80
340.58	1652.71
340.79	1595.37
341.00	1720.29
341.21	1654.76
341.42	1802.21
341.63	1728.49
341.85	1662.95
342.06	1757.16
342.27	1683.43
342.48	1757.16
342.69	1757.16
342.90	1726.44
343.12	1730.53
343.33	1685.48
343.54	1779.68
343.75	1865.70
343.96	1753.06
344.17	1667.05
344.38	1720.29
344.60	1665.00
344.81	1634.28
345.02	1665.00
345.23	1822.69
345.44	1716.20
345.65	1671.14
345.86	1683.43
346.07	1701.86
346.29	1740.77
346.50	1818.60
346.71	1732.58
346.92	1761.25
347.13	1828.84
347.34	1648.61
347.55	1691.62
347.76	1722.34
347.98	1632.23
348.19	1703.91
348.40	1775.59
348.61	1738.73
348.82	1730.53
349.03	1728.49
349.24	1726.44
349.45	1804.26
349.66	1652.71
349.88	1697.77
350.09	1630.18
350.30	1777.64
350.51	1796.07
350.72	1671.14
350.93	1673.19
351.14	1699.81
351.35	1677.29
351.56	1734.63
351.77	1660.90
351.99	1791.97
352.20	1814.50
352.41	1755.11
352.62	1736.68
352.83	1685.48
353.04	1742.82
353.25	1748.97
353.46	1865.70
353.67	1800.16
353.88	1599.46
354.09	1705.96
354.30	1757.16
354.52	1671.14
354.73	1718.25
354.94	1662.95
355.15	1732.58
355.36	1771.49
355.57	1679.33
355.78	1683.43
355.99	1742.82
356.20	1724.39
356.41	1783.78
356.62	1816.55
356.83	1748.97
357.04	1830.88
357.25	1636.33
357.46	1687.53
357.68	1736.68
357.89	1671.14
358.10	1718.25
358.31	1757.16
358.52	1671.14
358.73	1742.82
358.94	1628.14
359.15	1746.92
359.36	1736.68
359.57	1712.10
359.78	1624.04
359.99	1726.44
360.20	1636.33
360.41	1734.63
360.62	1714.15
360.83	1724.39
361.04	1701.86
361.25	1763.30
361.46	1810.40
361.67	1742.82
361.88	1785.83
362.09	1767.40
362.30	1724.39
362.51	1669.09
362.72	1619.94
362.93	1720.29
363.14	1728.49
363.35	1720.29
363.56	1669.09
363.78	1759.21
363.99	1724.39
364.20	1730.53
364.41	1638.38
364.62	1837.03
364.83	1759.21
365.04	1687.53
365.25	1691.62
365.46	1804.26
365.67	1708.01
365.88	1701.86
366.09	1695.72
366.30	1621.99
366.51	1667.05
366.72	1656.81
366.93	1726.44
367.14	1675.24
367.35	1812.45
367.56	1669.09
367.77	1787.88
367.98	1656.81
368.18	1839.08
368.39	1769.44
368.60	1644.52
368.81	1800.16
369.02	1703.91
369.23	1726.44
369.44	1578.98
369.65	1689.57
369.86	1761.25
370.07	1724.39
370.28	1665.00
370.49	1771.49
370.70	1742.82
370.91	1665.00
371.12	1599.46
371.33	1712.10
371.54	1726.44
371.75	1855.46
371.96	1585.13
372.17	1732.58
372.38	1705.96
372.59	1746.92
372.80	1716.20
373.01	1658.85
373.22	1726.44
373.43	1677.29
373.64	1667.05
373.85	1777.64
374.06	1808.36
374.26	1714.15
374.47	1697.77
374.68	1720.29
374.89	1759.21
375.10	1757.16
375.31	1769.44
375.52	1681.38
375.73	1726.44
375.94	1677.29
376.15	1808.36
376.36	1703.91
376.57	1720.29
376.78	1667.05
376.99	1691.62
377.20	1769.44
377.40	1656.81
377.61	1861.60
377.82	1605.61
378.03	1765.35
378.24	1734.63
378.45	1738.73
378.66	1751.01
378.87	1558.50
379.08	1591.27
379.29	1667.05
379.50	1853.41
379.71	1660.90
379.91	1712.10
380.12	1755.11
380.33	1726.44
380.54	1736.68
380.75	1677.29
380.96	1697.77
381.17	1718.25
381.38	1712.10
381.59	1751.01
381.80	1787.88
382.00	1982.43
382.21	1806.31
382.42	1853.41
382.63	1865.70
382.84	1789.92
383.05	1775.59
383.26	1867.75
383.47	1777.64
383.68	1787.88
383.88	1775.59
384.09	1796.07
384.30	1832.93
384.51	1720.29
384.72	1648.61
384.93	1675.24
385.14	1626.09
385.35	1789.92
385.55	1640.42
385.76	1845.22
385.97	1783.78
386.18	1667.05
386.39	1718.25
386.60	1693.67
386.81	1693.67
387.02	1591.27
387.22	1656.81
387.43	1738.73
387.64	1830.88
387.85	1841.12
388.06	2156.51
388.27	4124.61
388.48	6614.94
388.68	7968.65
388.89	9443.18
389.10	9664.36
389.31	8345.47
389.52	7550.86
389.73	6586.27
389.93	6166.43
390.14	5787.56
390.35	5158.83
390.56	4462.52
390.77	3755.97
390.98	3057.62
391.18	2504.67
391.39	2099.17
391.60	1824.74
391.81	1828.84
392.02	1681.38
392.23	1796.07
392.43	1763.30
392.64	1755.11
392.85	1732.58
393.06	1746.92
393.27	1685.48
393.47	1691.62
393.68	1748.97
393.89	1667.05
394.10	1837.03
394.31	1673.19
394.52	1626.09
394.72	1732.58
394.93	1796.07
395.14	1728.49
395.35	1773.54
395.56	1685.48
395.76	1767.40
395.97	1812.45
396.18	1804.26
396.39	1845.22
396.60	2023.39
396.80	1826.79
397.01	1855.46
397.22	1824.74
397.43	1916.90
397.64	1789.92
397.84	1812.45
398.05	1832.93
398.26	1738.73
398.47	1822.69
398.67	1783.78
398.88	1777.64
399.09	1802.21
399.30	1751.01
399.51	1751.01
399.71	1630.18
399.92	1679.33
400.13	1742.82
400.34	1708.01
400.54	1748.97
400.75	1830.88
400.96	1677.29
401.17	1798.12
401.37	1753.06
401.58	1791.97
401.79	1718.25
402.00	1857.51
402.21	1935.33
402.41	2031.58
402.62	1931.23
402.83	2017.25
403.04	1978.34
403.24	2045.92
403.45	1841.12
403.66	1937.38
403.87	1785.83
404.07	1880.04
404.28	1902.56
404.49	1882.08
404.70	1789.92
404.90	1818.60
405.11	1710.05
405.32	1734.63
405.52	1699.81
405.73	1671.14
405.94	1660.90
406.15	1773.54
406.35	1804.26
406.56	1837.03
406.77	1763.30
406.98	1798.12
407.18	1685.48
407.39	1773.54
407.60	1763.30
407.80	1642.47
408.01	1660.90
408.22	1699.81
408.43	1783.78
408.63	1761.25
408.84	1710.05
409.05	1761.25
409.25	1667.05
409.46	1648.61
409.67	1683.43
409.88	1630.18
410.08	1783.78
410.29	1705.96
410.50	1759.21
410.70	1798.12
410.91	1685.48
411.12	1738.73
411.32	1765.35
411.53	1681.38
411.74	1832.93
411.95	1777.64
412.15	1761.25
412.36	1759.21
412.57	1775.59
412.77	1781.73
412.98	1746.92
413.19	1746.92
413.39	1736.68
413.60	1703.91
413.81	1791.97
414.01	1705.96
414.22	1761.25
414.43	1771.49
414.63	1748.97
414.84	1775.59
415.05	1640.42
415.25	1773.54
415.46	1716.20
415.67	1685.48
415.87	1759.21
416.08	1701.86
416.29	1650.66
416.49	1701.86
416.70	1712.10
416.91	1738.73
417.11	1718.25
417.32	1751.01
417.53	1738.73
417.73	1771.49
417.94	1708.01
418.15	1689.57
418.35	1791.97
418.56	1767.40
418.77	1785.83
418.97	1796.07
419.18	1673.19
419.38	1615.85
419.59	1662.95
419.80	1798.12
420.00	1728.49
420.21	1691.62
420.42	1755.11
420.62	1710.05
420.83	1660.90
421.04	1748.97
421.24	1759.21
421.45	1818.60
421.65	1781.73
421.86	1705.96
422.07	1755.11
422.27	1642.47
422.48	1722.34
422.69	1593.32
422.89	1724.39
423.10	1667.05
423.30	1605.61
423.51	1771.49
423.72	1767.40
423.92	1812.45
424.13	1648.61
424.33	1654.76
424.54	1763.30
424.75	1763.30
424.95	1845.22
425.16	1742.82
425.36	1660.90
425.57	1802.21
425.78	1785.83
425.98	1730.53
426.19	1693.67
426.39	1732.58
426.60	1726.44
426.81	1830.88
427.01	1748.97
427.22	1699.81
427.42	1693.67
427.63	1644.52
427.83	1763.30
428.04	1667.05
428.25	1767.40
428.45	1839.08
428.66	1798.12
428.86	1714.15
429.07	1652.71
429.28	1736.68
429.48	1636.33
429.69	1679.33
429.89	1753.06
430.10	1613.80
430.30	1705.96
430.51	1791.97
430.71	1726.44
430.92	1763.30
431.13	1681.38
431.33	1785.83
431.54	1681.38
431.74	1777.64
431.95	1859.56
432.15	1681.38
432.36	1638.38
432.56	1669.09
432.77	1818.60
432.98	1853.41
433.18	1705.96
433.39	1689.57
433.59	1744.87
433.80	1822.69
434.00	1845.22
434.21	1728.49
434.41	1675.24
434.62	1882.08
434.82	1683.43
435.03	1691.62
435.23	1777.64
435.44	1644.52
435.64	1693.67
435.85	1746.92
436.06	1720.29
436.26	1789.92
436.47	1703.91
436.67	1630.18
436.88	1714.15
437.08	1703.91
437.29	1863.65
437.49	1751.01
437.70	1857.51
437.90	1710.05
438.11	1814.50
438.31	1882.08
438.52	1875.94
438.72	1906.66
438.93	1904.61
439.13	1802.21
439.34	1886.18
439.54	1703.91
439.75	1757.16
439.95	1787.88
440.16	1675.24
440.36	1722.34
440.57	1779.68
440.77	1798.12
440.98	1753.06
441.18	1648.61
441.39	1703.91
441.59	1609.70
441.80	1886.18
442.00	1822.69
442.21	1767.40
442.41	1687.53
442.62	1796.07
442.82	1699.81
443.02	1740.77
443.23	1710.05
443.43	1693.67
443.64	1822.69
443.84	1691.62
444.05	1824.74
444.25	1710.05
444.46	1675.24
444.66	1697.77
444.87	1837.03
445.07	1673.19
445.28	1732.58
445.48	1718.25
445.69	1837.03
445.89	1884.13
446.09	1742.82
446.30	2037.73
446.50	2635.74
446.71	3637.19
446.91	4222.91
447.12	4671.42
447.32	4802.49
447.53	4345.79
447.73	3860.42
447.93	3475.40
448.14	3280.85
448.34	3151.82
448.55	2856.92
448.75	2889.68
448.96	2652.12
449.16	2383.84
449.36	2330.59
449.57	2045.92
449.77	1951.71
449.98	1855.46
450.18	1855.46
450.39	1861.60
450.59	1712.10
450.79	1736.68
451.00	1726.44
451.20	1800.16
451.41	1703.91
451.61	1832.93
451.81	1720.29
452.02	1751.01
452.22	1746.92
452.43	1822.69
452.63	1701.86
452.84	1775.59
453.04	1757.16
453.24	1728.49
453.45	1675.24
453.65	1685.48
453.86	1755.11
454.06	1746.92
454.26	1734.63
454.47	1683.43
454.67	1888.23
454.87	1818.60
455.08	1796.07
455.28	1865.70
455.49	1816.55
455.69	1720.29
455.89	1888.23
456.10	1794.02
456.30	1796.07
456.51	1759.21
456.71	1814.50
456.91	1775.59
457.12	1796.07
457.32	1759.21
457.52	1675.24
457.73	1724.39
457.93	1816.55
458.14	1658.85
458.34	1679.33
458.54	1662.95
458.75	1710.05
458.95	1781.73
459.15	1746.92
459.36	1742.82
459.56	1806.31
459.76	1880.04
459.97	1701.86
460.17	1693.67
460.37	1843.17
460.58	1697.77
460.78	1771.49
460.99	1703.91
461.19	1763.30
461.39	1718.25
461.60	1667.05
461.80	1736.68
462.00	1660.90
462.21	1744.87
462.41	1697.77
462.61	1671.14
462.82	1601.51
463.02	1802.21
463.22	1693.67
463.43	1796.07
463.63	1738.73
463.83	1812.45
464.04	1810.40
464.24	1794.02
464.44	1701.86
464.64	1687.53
464.85	1736.68
465.05	1814.50
465.25	1746.92
465.46	1742.82
465.66	1810.40
465.86	1787.88
466.07	1796.07
466.27	1746.92
466.47	1624.04
466.68	1634.28
466.88	1755.11
467.08	1787.88
467.29	1783.78
467.49	1728.49
467.69	1722.34
467.89	1773.54
468.10	1722.34
468.30	1765.35
468.50	1841.12
468.71	1724.39
468.91	1605.61
469.11	1890.28
469.31	1796.07
469.52	1701.86
469.72	1828.84
469.92	1830.88
470.13	1726.44
470.33	1712.10
470.53	1824.74
470.73	2154.46
470.94	2320.35
471.14	2250.72
471.34	2428.89
471.54	2426.84
471.75	2213.85
471.95	2093.02
472.15	2115.55
472.36	2033.63
472.56	2129.89
472.76	2015.20
472.96	1957.86
473.17	1984.48
473.37	1964.00
473.57	1796.07
473.77	1845.22
473.98	1740.77
474.18	1669.09
474.38	1882.08
474.58	1677.29
474.79	1726.44
474.99	1820.64
475.19	1748.97
475.39	1640.42
475.60	1785.83
475.80	1804.26
476.00	1730.53
476.20	1652.71
476.41	1746.92
476.61	1708.01
476.81	1802.21
477.01	1642.47
477.21	1834.98
477.42	1832.93
477.62	1607.66
477.82	1738.73
478.02	1697.77
478.23	1697.77
478.43	1681.38
478.63	1665.00
478.83	1677.29
479.03	1689.57
479.24	1748.97
479.44	1834.98
479.64	1689.57
479.84	1644.52
480.04	1701.86
480.25	1759.21
480.45	1734.63
480.65	1765.35
480.85	1828.84
481.06	1708.01
481.26	1732.58
481.46	1755.11
481.66	1759.21
481.86	1718.25
482.06	1804.26
482.27	1738.73
482.47	1675.24
482.67	1755.11
482.87	1697.77
483.07	1810.40
483.28	1710.05
483.48	1675.24
483.68	1679.33
483.88	1648.61
484.08	1673.19
484.29	1640.42
484.49	1693.67
484.69	1697.77
484.89	1882.08
485.09	1812.45
485.29	1736.68
485.50	1732.58
485.70	1699.81
485.90	1763.30
486.10	1775.59
486.30	1728.49
486.50	1742.82
486.71	1773.54
486.91	1832.93
487.11	1849.32
487.31	1681.38
487.51	1771.49
487.71	1644.52
487.91	1681.38
488.12	1705.96
488.32	1613.80
488.52	1695.72
488.72	1656.81
488.92	1769.44
489.12	1798.12
489.32	1755.11
489.53	1736.68
489.73	1701.86
489.93	1808.36
490.13	1712.10
490.33	1636.33
490.53	1728.49
490.73	1777.64
490.94	1570.79
491.14	1798.12
491.34	1851.36
491.54	2111.46
491.74	2529.24
491.94	2922.45
492.14	2928.60
492.34	3065.81
492.54	2779.09
492.75	2451.42
492.95	2461.66
493.15	2367.45
493.35	2295.77
493.55	2238.43
493.75	2070.50
493.95	2138.08
494.15	2021.35
494.35	1970.15
494.56	1920.99
494.76	1738.73
494.96	1757.16
495.16	1828.84
495.36	1748.97
495.56	1705.96
495.76	1718.25
495.96	1771.49
496.16	1675.24
496.36	1845.22
496.56	1796.07
496.77	1837.03
496.97	1769.44
497.17	1781.73
497.37	1644.52
497.57	1683.43
497.77	1806.31
497.97	1806.31
498.17	1714.15
498.37	1609.70
498.57	1820.64
498.77	1697.77
498.97	1806.31
499.17	1882.08
499.38	1738.73
499.58	1781.73
499.78	1804.26
499.98	1837.03
500.18	1781.73
500.38	1671.14
500.58	2033.63
500.78	2576.34
500.98	4491.20
501.18	5787.56
501.38	6584.22
501.58	6987.67
501.78	6457.25
501.98	5550.00
502.18	4825.01
502.38	4403.13
502.58	4059.07
502.78	3737.54
502.98	3600.33
503.18	3354.57
503.38	3194.83
503.59	2744.28
503.79	2709.46
503.99	2551.77
504.19	2338.78
504.39	2123.74
504.59	2185.18
504.79	2136.03
504.99	2060.26
505.19	1894.37
505.39	1925.09
505.59	1941.47
505.79	1882.08
505.99	1794.02
506.19	1828.84
506.39	1871.84
506.59	1798.12
506.79	1816.55
506.99	1859.56
507.19	1695.72
507.39	1775.59
507.59	1738.73
507.79	1695.72
507.99	1738.73
508.19	1714.15
508.39	1705.96
508.59	1705.96
508.79	1863.65
508.99	1841.12
509.19	1652.71
509.39	1816.55
509.59	1667.05
509.79	1738.73
509.99	1794.02
510.19	1785.83
510.39	1785.83
510.59	1746.92
510.79	1697.77
510.99	1703.91
511.19	1806.31
511.39	1847.27
511.59	1828.84
511.79	1785.83
511.99	1736.68
512.19	1814.50
512.38	1785.83
512.58	1699.81
512.78	1722.34
512.98	1808.36
513.18	1777.64
513.38	1677.29
513.58	1837.03
513.78	1759.21
513.98	1677.29
514.18	1822.69
514.38	1683.43
514.58	1708.01
514.78	1746.92
514.98	1714.15
515.18	1738.73
515.38	1730.53
515.58	1824.74
515.78	1841.12
515.98	1642.47
516.18	1791.97
516.38	1724.39
516.57	1697.77
516.77	1830.88
516.97	1804.26
517.17	1712.10
517.37	1646.57
517.57	1796.07
517.77	1779.68
517.97	1648.61
518.17	1863.65
518.37	1710.05
518.57	1738.73
518.77	1742.82
518.97	1701.86
519.16	1810.40
519.36	1701.86
519.56	1765.35
519.76	1765.35
519.96	1716.20
520.16	1804.26
520.36	1611.75
520.56	1791.97
520.76	1669.09
520.96	1791.97
521.16	1755.11
521.35	1853.41
521.55	1863.65
521.75	1701.86
521.95	1734.63
522.15	1775.59
522.35	1730.53
522.55	1722.34
522.75	1791.97
522.95	1681.38
523.14	1724.39
523.34	1740.77
523.54	1728.49
523.74	1748.97
523.94	1779.68
524.14	1716.20
524.34	1787.88
524.54	1820.64
524.73	1632.23
524.93	1812.45
525.13	1753.06
525.33	1621.99
525.53	1814.50
525.73	1781.73
525.93	1767.40
526.13	1693.67
526.32	1779.68
526.52	1779.68
526.72	1884.13
526.92	1679.33
527.12	1716.20
527.32	1689.57
527.52	1751.01
527.71	1724.39
527.91	1783.78
528.11	1730.53
528.31	1722.34
528.51	1660.90
528.71	1787.88
528.90	1796.07
529.10	1884.13
529.30	1777.64
529.50	1632.23
529.70	1703.91
529.90	1650.66
530.09	1753.06
530.29	1677.29
530.49	1742.82
530.69	1882.08
530.89	1830.88
531.09	1751.01
531.28	1740.77
531.48	1744.87
531.68	1818.60
531.88	1773.54
532.08	1710.05
532.28	1689.57
532.47	1744.87
532.67	1777.64
532.87	1789.92
533.07	1679.33
533.27	1796.07
533.46	1779.68
533.66	1744.87
533.86	1705.96
534.06	1701.86
534.26	1753.06
534.45	1710.05
534.65	1832.93
534.85	1740.77
535.05	1695.72
535.25	1826.79
535.44	1685.48
535.64	1763.30
535.84	1697.77
536.04	1662.95
536.24	1738.73
536.43	1652.71
536.63	1779.68
536.83	1775.59
537.03	1697.77
537.22	1581.03
537.42	1703.91
537.62	1779.68
537.82	1638.38
538.02	1781.73
538.21	1824.74
538.41	1890.28
538.61	1716.20
538.81	1701.86
539.00	1812.45
539.20	1710.05
539.40	1802.21
539.60	1812.45
539.79	1767.40
539.99	1785.83
540.19	1732.58
540.39	1740.77
540.58	1744.87
540.78	1769.44
540.98	1744.87
541.18	1808.36
541.37	1779.68
541.57	1781.73
541.77	1779.68
541.97	1683.43
542.16	1642.47
542.36	1771.49
542.56	1773.54
542.76	1763.30
542.95	1771.49
543.15	1710.05
543.35	1775.59
543.54	1740.77
543.74	1765.35
543.94	1783.78
544.14	1734.63
544.33	1775.59
544.53	1771.49
544.73	1683.43
544.93	1791.97
545.12	1769.44
545.32	1742.82
545.52	1724.39
545.71	1761.25
545.91	1675.24
546.11	1736.68
546.30	1644.52
546.50	1722.34
546.70	1771.49
546.90	1804.26
547.09	1624.04
547.29	1796.07
547.49	1810.40
547.68	1671.14
547.88	1738.73
548.08	1748.97
548.27	2115.55
548.47	1738.73
548.67	1697.77
548.87	1773.54
549.06	1767.40
549.26	1771.49
549.46	1783.78
549.65	1765.35
549.85	1791.97
550.05	1767.40
550.24	1697.77
550.44	1765.35
550.64	1761.25
550.83	1687.53
551.03	1812.45
551.23	1820.64
551.42	1746.92
551.62	1726.44
551.82	1722.34
552.01	1796.07
552.21	1824.74
552.41	1765.35
552.60	1863.65
552.80	1769.44
553.00	1658.85
553.19	1730.53
553.39	1783.78
553.59	1630.18
553.78	1783.78
553.98	1767.40
554.17	1679.33
554.37	1810.40
554.57	1832.93
554.76	1720.29
554.96	1755.11
555.16	1824.74
555.35	1703.91
555.55	1796.07
555.75	1834.98
555.94	1837.03
556.14	1710.05
556.33	1773.54
556.53	1822.69
556.73	1787.88
556.92	1740.77
557.12	1806.31
557.32	1853.41
557.51	1822.69
557.71	1724.39
557.90	1728.49
558.10	1796.07
558.30	1781.73
558.49	1710.05
558.69	1771.49
558.88	1847.27
559.08	1734.63
559.28	1714.15
559.47	1701.86
559.67	1796.07
559.86	1773.54
560.06	1718.25
560.26	1757.16
560.45	1771.49
560.65	1806.31
560.84	1810.40
561.04	1755.11
561.24	1814.50
561.43	1675.24
561.63	1853.41
561.82	1798.12
562.02	1832.93
562.22	1773.54
562.41	1712.10
562.61	1759.21
562.80	1693.67
563.00	1910.75
563.19	1740.77
563.39	1703.91
563.59	1699.81
563.78	1724.39
563.98	1628.14
564.17	1679.33
564.37	1671.14
564.56	1755.11
564.76	1683.43
564.96	1775.59
565.15	1775.59
565.35	1822.69
565.54	1708.01
565.74	1869.80
565.93	1710.05
566.13	1724.39
566.32	1746.92
566.52	1736.68
566.71	1689.57
566.91	1718.25
567.11	1746.92
567.30	1759.21
567.50	1796.07
567.69	1714.15
567.89	1736.68
568.08	1697.77
568.28	1777.64
568.47	1619.94
568.67	1724.39
568.86	1720.29
569.06	1785.83
569.25	1730.53
569.45	1689.57
569.64	1695.72
569.84	1699.81
570.04	1775.59
570.23	1783.78
570.43	1677.29
570.62	1779.68
570.82	1865.70
571.01	1654.76
571.21	1734.63
571.40	1654.76
571.60	1828.84
571.79	1738.73
571.99	1742.82
572.18	1742.82
572.38	1851.36
572.57	1734.63
572.77	1808.36
572.96	1894.37
573.16	1771.49
573.35	1705.96
573.55	1814.50
573.74	1775.59
573.94	1720.29
574.13	1767.40
574.33	1785.83
574.52	1781.73
574.71	1730.53
574.91	1759.21
575.10	1710.05
575.30	1785.83
575.49	1703.91
575.69	1810.40
575.88	1791.97
576.08	1757.16
576.27	1802.21
576.47	1691.62
576.66	1880.04
576.86	1818.60
577.05	1820.64
577.25	1791.97
577.44	1849.32
577.64	1769.44
577.83	1837.03
578.02	1771.49
578.22	1777.64
578.41	1804.26
578.61	1724.39
578.80	1646.57
579.00	1652.71
579.19	1732.58
579.39	1804.26
579.58	1822.69
579.77	1818.60
579.97	1900.52
580.16	1839.08
580.36	1880.04
580.55	1798.12
580.75	1779.68
580.94	1744.87
581.13	1920.99
581.33	1839.08
581.52	1775.59
581.72	1804.26
581.91	1779.68
582.11	1730.53
582.30	1898.47
582.49	1687.53
582.69	1808.36
582.88	1824.74
583.08	1705.96
583.27	1767.40
583.47	1738.73
583.66	1730.53
583.85	1710.05
584.05	1697.77
584.24	1712.10
584.44	1757.16
584.63	1789.92
584.82	1853.41
585.02	1871.84
585.21	1869.80
585.41	1863.65
585.60	1779.68
585.79	1951.71
585.99	1933.28
586.18	1900.52
586.37	2179.04
586.57	3330.00
586.76	9695.08
586.96	23781.01
587.15	33410.56
587.34	39374.25
587.54	40570.26
587.73	35448.29
587.93	25333.37
588.12	21184.19
588.31	17747.70
588.51	15785.74
588.70	14737.18
588.89	13745.97
589.09	12255.04
589.28	10835.80
589.47	9295.73
589.67	7720.84
589.86	6178.72
590.06	4822.97
590.25	3786.69
590.44	3037.14
590.64	2551.77
590.83	2287.58
591.02	2060.26
591.22	1964.00
591.41	1900.52
591.60	1830.88
591.80	1943.52
591.99	1761.25
592.18	1722.34
592.38	1912.80
592.57	1808.36
592.76	1787.88
592.96	1716.20
593.15	1775.59
593.34	1777.64
593.54	1693.67
593.73	1849.32
593.92	1763.30
594.12	1763.30
594.31	1812.45
594.50	1900.52
594.70	1832.93
594.89	1834.98
595.08	1714.15
595.28	1812.45
595.47	1900.52
595.66	1861.60
595.86	1691.62
596.05	1738.73
596.24	1732.58
596.43	1871.84
596.63	1796.07
596.82	1824.74
597.01	1697.77
597.21	1886.18
597.40	1742.82
597.59	1695.72
597.79	1769.44
597.98	1816.55
598.17	1746.92
598.36	1791.97
598.56	1759.21
598.75	1658.85
598.94	1798.12
599.14	1783.78
599.33	1757.16
599.52	1746.92
599.71	1734.63
599.91	1798.12
600.10	1779.68
600.29	1710.05
600.48	1767.40
600.68	1730.53
600.87	1804.26
601.06	1736.68
601.26	1757.16
601.45	1773.54
601.64	1697.77
601.83	1820.64
602.03	1742.82
602.22	1681.38
602.41	1746.92
602.60	1873.89
602.80	1812.45
602.99	1787.88
603.18	1744.87
603.37	1763.30
603.57	1708.01
603.76	1767.40
603.95	1769.44
604.14	1738.73
604.34	1736.68
604.53	1751.01
604.72	1734.63
604.91	1839.08
605.10	1812.45
605.30	1675.24
605.49	1804.26
605.68	1810.40
605.87	1759.21
606.07	1699.81
606.26	1746.92
606.45	1804.26
606.64	1769.44
606.84	1640.42
607.03	1789.92
607.22	1757.16
607.41	1685.48
607.60	1751.01
607.80	1847.27
607.99	1744.87
608.18	1665.00
608.37	1740.77
608.56	1806.31
608.76	1822.69
608.95	1843.17
609.14	1755.11
609.33	1802.21
609.52	1748.97
609.72	1693.67
609.91	1746.92
610.10	1689.57
610.29	1896.42
610.48	1800.16
610.68	1789.92
610.87	1765.35
611.06	1783.78
611.25	1701.86
611.44	1847.27
611.63	1689.57
611.83	1802.21
612.02	1636.33
612.21	1783.78
612.40	1681.38
612.59	1650.66
612.79	1699.81
612.98	1691.62
613.17	1746.92
613.36	1761.25
613.55	1837.03
613.74	1689.57
613.93	1699.81
614.13	1812.45
614.32	1705.96
614.51	1738.73
614.70	1703.91
614.89	1726.44
615.08	1771.49
615.28	2062.30
615.47	1665.00
615.66	1808.36
615.85	1726.44
616.04	1873.89
616.23	1695.72
616.42	1697.77
616.62	1769.44
616.81	1744.87
617.00	1753.06
617.19	1744.87
617.38	1697.77
617.57	1773.54
617.76	1783.78
617.95	1751.01
618.15	1753.06
618.34	1834.98
618.53	1703.91
618.72	1718.25
618.91	1810.40
619.10	1857.51
619.29	1779.68
619.48	1820.64
619.68	1824.74
619.87	1705.96
620.06	1636.33
620.25	1767.40
620.44	1734.63
620.63	1689.57
620.82	1689.57
621.01	1751.01
621.20	1714.15
621.39	1796.07
621.59	1730.53
621.78	1677.29
621.97	1740.77
622.16	1777.64
622.35	1765.35
622.54	1716.20
622.73	1820.64
622.92	1705.96
623.11	1726.44
623.30	1673.19
623.49	1767.40
623.68	1662.95
623.88	1798.12
624.07	1724.39
624.26	1755.11
624.45	1775.59
624.64	1693.67
624.83	1843.17
625.02	1683.43
625.21	1656.81
625.40	1705.96
625.59	1808.36
625.78	1738.73
625.97	1816.55
626.16	1810.40
626.35	1730.53
626.54	1755.11
626.74	1830.88
626.93	1695.72
627.12	1652.71
627.31	1781.73
627.50	1757.16
627.69	1834.98
627.88	1726.44
628.07	1669.09
628.26	1617.90
628.45	1761.25
628.64	1667.05
628.83	1759.21
629.02	1656.81
629.21	1791.97
629.40	1714.15
629.59	1697.77
629.78	1755.11
629.97	1812.45
630.16	1689.57
630.35	1640.42
630.54	1732.58
630.73	1671.14
630.92	1665.00
631.11	1679.33
631.30	1744.87
631.49	1722.34
631.68	1714.15
631.87	1785.83
632.06	1683.43
632.25	1863.65
632.44	1726.44
632.63	1708.01
632.82	1695.72
633.01	1646.57
633.20	1591.27
633.39	1695.72
633.58	1656.81
633.77	1730.53
633.96	1779.68
634.15	1748.97
634.34	1751.01
634.53	1759.21
634.72	1691.62
634.91	1587.18
635.10	1708.01
635.29	1820.64
635.48	1767.40
635.67	1699.81
635.86	1667.05
636.05	1753.06
636.24	1710.05
636.43	1677.29
636.62	1730.53
636.81	1638.38
637.00	1759.21
637.19	1689.57
637.38	1759.21
637.57	1681.38
637.76	1746.92
637.95	1736.68
638.14	1734.63
638.33	1681.38
638.52	1748.97
638.71	1646.57
638.89	1683.43
639.08	1882.08
639.27	1773.54
639.46	1667.05
639.65	1810.40
639.84	1806.31
640.03	1796.07
640.22	1644.52
640.41	1826.79
640.60	1658.85
640.79	1751.01
640.98	1701.86
641.17	1771.49
641.36	1710.05
641.55	1834.98
641.74	1695.72
641.92	1710.05
642.11	1681.38
642.30	1697.77
642.49	1615.85
642.68	1744.87
642.87	1720.29
643.06	1767.40
643.25	1621.99
643.44	1626.09
643.63	1701.86
643.82	1798.12
644.00	1609.70
644.19	1703.91
644.38	1679.33
644.57	1804.26
644.76	1761.25
644.95	1767.40
645.14	1693.67
645.33	1708.01
645.52	1755.11
645.71	1710.05
645.89	1708.01
646.08	1746.92
646.27	1695.72
646.46	1849.32
646.65	1693.67
646.84	1798.12
647.03	1554.41
647.22	1798.12
647.40	1832.93
647.59	1734.63
647.78	1609.70
647.97	1708.01
648.16	1689.57
648.35	1832.93
648.54	1722.34
648.73	1681.38
648.91	1779.68
649.10	1738.73
649.29	1656.81
649.48	1644.52
649.67	1705.96
649.86	1751.01
650.05	1767.40
650.23	1814.50
650.42	1701.86
650.61	1757.16
650.80	1714.15
650.99	1814.50
651.18	1730.53
651.36	1783.78
651.55	1656.81
651.74	1738.73
651.93	1660.90
652.12	1613.80
652.31	1724.39
652.49	1695.72
652.68	1697.77
652.87	1732.58
653.06	1771.49
653.25	1751.01
653.44	1671.14
653.62	1765.35
653.81	1728.49
654.00	1757.16
654.19	1736.68
654.38	1886.18
654.56	1767.40
654.75	1742.82
654.94	1673.19
655.13	1779.68
655.32	1675.24
655.51	1751.01
655.69	1685.48
655.88	1796.07
656.07	1662.95
656.26	1722.34
656.45	1683.43
656.63	1673.19
656.82	1720.29
657.01	1794.02
657.20	1632.23
657.38	1794.02
657.57	1718.25
657.76	1662.95
657.95	1763.30
658.14	1705.96
658.32	1710.05
658.51	1656.81
658.70	1697.77
658.89	1708.01
659.08	1705.96
659.26	1806.31
659.45	1703.91
659.64	1716.20
659.83	1703.91
660.01	1845.22
660.20	1599.46
660.39	1857.51
660.58	1595.37
660.76	1718.25
660.95	1636.33
661.14	1724.39
661.33	1708.01
661.51	1652.71
661.70	1703.91
661.89	1751.01
662.08	1710.05
662.26	1697.77
662.45	1673.19
662.64	1867.75
662.83	1771.49
663.01	1695.72
663.20	1724.39
663.39	1800.16
663.58	1748.97
663.76	1738.73
663.95	1798.12
664.14	1724.39
664.32	1677.29
664.51	1785.83
664.70	1691.62
664.89	1697.77
665.07	1671.14
665.26	1816.55
665.45	1630.18
665.64	1830.88
665.82	1763.30
666.01	1794.02
666.20	1665.00
666.38	1806.31
666.57	1855.46
666.76	2271.20
666.95	4548.54
667.13	10162.02
667.32	14878.49
667.51	17254.14
667.69	18566.88
667.88	17403.64
668.07	12187.46
668.25	9258.87
668.44	7942.02
668.63	7204.75
668.81	6868.89
669.00	6123.43
669.19	5638.06
669.38	5019.57
669.56	4497.34
669.75	3844.04
669.94	3373.00
670.12	2856.92
670.31	2525.15
670.50	2222.05
670.68	2115.55
670.87	1912.80
671.06	1712.10
671.24	1849.32
671.43	1892.32
671.62	1791.97
671.80	1710.05
671.99	1730.53
672.18	1771.49
672.36	1693.67
672.55	1769.44
672.74	1665.00
672.92	1685.48
673.11	1726.44
673.29	1644.52
673.48	1789.92
673.67	1703.91
673.85	1787.88
674.04	1728.49
674.23	1724.39
674.41	1787.88
674.60	1671.14
674.79	1619.94
674.97	1660.90
675.16	1736.68
675.34	1849.32
675.53	1630.18
675.72	1773.54
675.90	1755.11
676.09	1761.25
676.28	1763.30
676.46	1673.19
676.65	1812.45
676.83	1732.58
677.02	1722.34
677.21	1728.49
677.39	1708.01
677.58	1652.71
677.77	1634.28
677.95	1677.29
678.14	1677.29
678.32	1740.77
678.51	1691.62
678.70	1783.78
678.88	1736.68
679.07	1667.05
679.25	1691.62
679.44	1771.49
679.63	1613.80
679.81	1755.11
680.00	1824.74
680.18	1777.64
680.37	1818.60
680.55	1765.35
680.74	1650.66
680.93	1599.46
681.11	1710.05
681.30	1677.29
681.48	1757.16
681.67	1710.05
681.85	1771.49
682.04	1726.44
682.23	1759.21
682.41	1740.77
682.60	1665.00
682.78	1753.06
682.97	1726.44
683.15	1693.67
683.34	1748.97
683.53	1708.01
683.71	1679.33
683.90	1773.54
684.08	1755.11
684.27	1736.68
684.45	1763.30
684.64	1787.88
684.82	1671.14
685.01	1765.35
685.19	1681.38
685.38	1892.32
685.57	1761.25
685.75	1722.34
685.94	1734.63
686.12	1744.87
686.31	1751.01
686.49	1869.80
686.68	1660.90
686.86	1726.44
687.05	1656.81
687.23	1869.80
687.42	1695.72
687.60	1679.33
687.79	1777.64
687.97	1804.26
688.16	1808.36
688.34	1812.45
688.53	1648.61
688.71	1681.38
688.90	1736.68
689.08	1773.54
689.27	1669.09
689.45	1771.49
689.64	1775.59
689.82	1738.73
690.01	1720.29
690.19	1732.58
690.38	1757.16
690.56	1855.46
690.75	1689.57
690.93	1624.04
691.12	1705.96
691.30	1691.62
691.49	1642.47
691.67	1669.09
691.86	1839.08
692.04	1636.33
692.23	1736.68
692.41	1630.18
692.60	1781.73
692.78	1800.16
692.97	1636.33
693.15	1787.88
693.34	1871.84
693.52	1748.97
693.71	1779.68
693.89	1683.43
694.08	1593.32
694.26	1814.50
694.44	1755.11
694.63	1693.67
694.81	1619.94
695.00	1644.52
695.18	1849.32
695.37	1824.74
695.55	1732.58
695.74	1687.53
695.92	1699.81
696.10	1855.46
696.29	1621.99
696.47	1683.43
696.66	1628.14
696.84	1665.00
697.03	1751.01
697.21	1814.50
697.40	2385.88
697.58	1771.49
697.76	1740.77
697.95	1595.37
698.13	1701.86
698.32	1687.53
698.50	1722.34
698.68	1771.49
698.87	1738.73
699.05	1783.78
699.24	1712.10
699.42	1671.14
699.61	1734.63
699.79	1751.01
699.97	1736.68
700.16	1679.33
700.34	1658.85
700.53	1679.33
700.71	1791.97
700.89	1789.92
701.08	1716.20
701.26	1677.29
701.45	2111.46
701.63	1685.48
701.81	1705.96
702.00	1693.67
702.18	1642.47
702.37	1673.19
702.55	1730.53
702.73	1705.96
702.92	1699.81
703.10	1789.92
703.28	1712.10
703.47	1716.20
703.65	1832.93
703.84	1705.96
704.02	1722.34
704.20	1867.75
704.39	1679.33
704.57	1742.82
704.75	1732.58
704.94	1847.27
705.12	1744.87
705.30	1767.40
705.49	2226.14
705.67	4388.80
705.86	9287.54
706.04	12316.48
706.22	14147.37
706.41	14862.11
706.59	13500.21
706.77	9238.39
706.96	7174.03
707.14	6320.03
707.32	5779.37
707.51	5296.05
707.69	4716.47
707.87	4212.67
708.06	3364.81
708.24	2887.64
708.42	2361.31
708.61	2248.67
708.79	1900.52
708.97	1873.89
709.16	1814.50
709.34	1794.02
709.52	1767.40
709.71	1691.62
709.89	1781.73
710.07	1617.90
710.26	1665.00
710.44	1691.62
710.62	1812.45
710.80	1802.21
710.99	1763.30
711.17	1828.84
711.35	1718.25
711.54	1714.15
711.72	1890.28
711.90	1705.96
712.09	1699.81
712.27	1701.86
712.45	1761.25
712.63	1697.77
712.82	1699.81
713.00	1697.77
713.18	1718.25
713.37	1781.73
713.55	1828.84
713.73	1746.92
713.91	1724.39
714.10	1685.48
714.28	1779.68
714.46	1806.31
714.65	1769.44
714.83	1746.92
715.01	1724.39
715.19	1767.40
715.38	1665.00
715.56	1746.92
715.74	1640.42
715.92	1673.19
716.11	1738.73
716.29	1662.95
716.47	1701.86
716.65	1716.20
716.84	1708.01
717.02	1789.92
717.20	1669.09
717.38	1695.72
717.57	1765.35
717.75	1740.77
717.93	1611.75
718.11	1742.82
718.30	1708.01
718.48	1753.06
718.66	1773.54
718.84	1845.22
719.03	1734.63
719.21	1626.09
719.39	1839.08
719.57	1748.97
719.75	1730.53
719.94	1683.43
720.12	1683.43
720.30	1665.00
720.48	1738.73
720.67	1681.38
720.85	1662.95
721.03	1730.53
721.21	1701.86
721.39	1847.27
721.58	1691.62
721.76	1791.97
721.94	1757.16
722.12	1710.05
722.30	1806.31
722.49	1695.72
722.67	1783.78
722.85	1748.97
723.03	1669.09
723.21	1722.34
723.40	1759.21
723.58	1791.97
723.76	1722.34
723.94	1863.65
724.12	1689.57
724.30	1763.30
724.49	1748.97
724.67	1697.77
724.85	1761.25
725.03	1671.14
725.21	1730.53
725.40	1751.01
725.58	1748.97
725.76	1769.44
725.94	1701.86
726.12	1630.18
726.30	1705.96
726.49	1656.81
726.67	1705.96
726.85	1695.72
727.03	1765.35
727.21	2095.07
727.39	2930.64
727.57	3807.17
727.76	4104.13
727.94	4487.10
728.12	4360.13
728.30	3551.18
728.48	3028.95
728.66	2727.89
728.84	2574.30
729.03	2258.91
729.21	2179.04
729.39	2000.87
729.57	1867.75
729.75	1783.78
729.93	1794.02
730.11	1732.58
730.30	1697.77
730.48	1744.87
730.66	1828.84
730.84	1759.21
731.02	1730.53
731.20	1783.78
731.38	1710.05
731.56	1699.81
731.74	1673.19
731.93	1720.29
732.11	1789.92
732.29	1669.09
732.47	1773.54
732.65	1767.40
732.83	1773.54
733.01	1665.00
733.19	1642.47
733.37	1755.11
733.56	1761.25
733.74	1654.76
733.92	1810.40
734.10	1753.06
734.28	1763.30
734.46	1712.10
734.64	1740.77
734.82	1681.38
735.00	1689.57
735.18	1755.11
735.36	1705.96
735.54	1662.95
735.73	1800.16
735.91	1759.21
736.09	1728.49
736.27	1691.62
736.45	1673.19
736.63	1636.33
736.81	1665.00
736.99	1771.49
737.17	1763.30
737.35	1687.53
737.53	1767.40
737.71	1714.15
737.89	1779.68
738.07	1691.62
738.25	1716.20
738.43	1662.95
738.61	1710.05
738.80	1593.32
738.98	1650.66
739.16	1656.81
739.34	1685.48
739.52	1865.70
739.70	1722.34
739.88	1759.21
740.06	1705.96
740.24	1517.54
740.42	1759.21
740.60	1603.56
740.78	1652.71
740.96	1595.37
741.14	1681.38
741.32	1632.23
741.50	1599.46
741.68	1900.52
741.86	1785.83
742.04	1654.76
742.22	1724.39
742.40	1722.34
742.58	1755.11
742.76	1685.48
742.94	1679.33
743.12	1642.47
743.30	1701.86
743.48	1755.11
743.66	1665.00
743.84	1740.77
744.02	1708.01
744.20	1687.53
744.38	1675.24
744.56	1632.23
744.74	1808.36
744.92	1759.21
745.10	1845.22
745.28	1785.83
745.46	1712.10
745.64	1705.96
745.82	1746.92
746.00	1736.68
746.18	1796.07
746.36	1662.95
746.54	1794.02
746.72	1708.01
746.90	1624.04
747.08	1740.77
747.26	1710.05
747.44	1703.91
747.62	1763.30
747.80	1748.97
747.98	1744.87
748.15	1671.14
748.33	1806.31
748.51	1628.14
748.69	1689.57
748.87	1603.56
749.05	1673.19
749.23	1689.57
749.41	1751.01
749.59	1763.30
749.77	1851.36
749.95	1693.67
750.13	1607.66
750.31	1744.87
750.49	1751.01
750.67	1798.12
750.85	1849.32
751.03	1728.49
751.20	1867.75
751.38	1691.62
751.56	1703.91
751.74	1656.81
751.92	1677.29
752.10	1642.47
752.28	1738.73
752.46	1708.01
752.64	1748.97
752.82	1673.19
753.00	1748.97
753.18	1624.04
753.35	1603.56
753.53	1765.35
753.71	1732.58
753.89	1820.64
754.07	1648.61
754.25	1796.07
754.43	1720.29
754.61	1636.33
754.79	1787.88
754.97	1744.87
755.14	1845.22
755.32	1687.53
755.50	1736.68
755.68	1736.68
755.86	1617.90
756.04	1685.48
756.22	1665.00
756.40	1798.12
756.57	1759.21
756.75	1705.96
756.93	1767.40
757.11	1738.73
757.29	1615.85
757.47	1615.85
757.65	1591.27
757.82	1630.18
758.00	1683.43
758.18	1658.85
758.36	1648.61
758.54	1824.74
758.72	1671.14
758.90	1767.40
759.07	1683.43
759.25	1642.47
759.43	1736.68
759.61	1683.43
759.79	2265.05
759.97	1771.49
760.15	1671.14
760.32	1691.62
760.50	1742.82
760.68	1812.45
760.86	1640.42
761.04	1828.84
761.22	1730.53
761.39	1691.62
761.57	1728.49
761.75	1751.01
761.93	1791.97
762.11	1656.81
762.28	1708.01
762.46	1642.47
762.64	1753.06
762.82	1621.99
763.00	1769.44
763.18	1808.36
763.35	1650.66
763.53	1771.49
763.71	1714.15
763.89	1720.29
764.07	1669.09
764.24	1742.82
764.42	1814.50
764.60	1626.09
764.78	1849.32
764.96	1781.73
765.13	1705.96
765.31	1712.10
765.49	1818.60
765.67	1681.38
765.84	1652.71
766.02	1648.61
766.20	1636.33
766.38	1675.24
766.56	1693.67
766.73	1773.54
766.91	1669.09
767.09	1744.87
767.27	1822.69
767.44	1683.43
767.62	1796.07
767.80	1738.73
767.98	1671.14
768.15	1738.73
768.33	1820.64
768.51	1812.45
768.69	1734.63
768.87	1804.26
769.04	1853.41
769.22	1890.28
769.40	1777.64
769.58	1863.65
769.75	1685.48
769.93	1837.03
770.11	1677.29
770.28	1624.04
770.46	1763.30
770.64	1722.34
770.82	1662.95
770.99	1722.34
771.17	1656.81
771.35	1697.77
771.53	1701.86
771.70	1656.81
771.88	1734.63
772.06	1701.86
772.23	1726.44
772.41	1796.07
772.59	1685.48
772.77	1646.57
772.94	1691.62
773.12	1775.59
773.30	1728.49
773.47	1724.39
773.65	1687.53
773.83	1839.08
774.01	1669.09
774.18	1597.42
774.36	1648.61
774.54	1673.19
774.71	1734.63
774.89	1669.09
775.07	1660.90
775.24	1687.53
775.42	1660.90
775.60	1779.68
775.78	1679.33
775.95	1691.62
776.13	1673.19
776.31	1615.85
776.48	1738.73
776.66	1804.26
776.84	1636.33
777.01	1689.57
777.19	1679.33
777.37	1646.57
777.54	1744.87
777.72	1837.03
777.90	1777.64
778.07	1673.19
778.25	1912.80
778.43	1705.96
778.60	1642.47
778.78	1701.86
778.96	1832.93
779.13	1640.42
779.31	1771.49
779.49	1738.73
779.66	1748.97
779.84	1732.58
780.01	1769.44
780.19	1660.90
780.37	1769.44
780.54	1685.48
780.72	1646.57
780.90	1689.57
781.07	1689.57
781.25	1693.67
781.43	1814.50
781.60	1650.66
781.78	1763.30
781.95	1683.43
782.13	1652.71
782.31	1736.68
782.48	1589.22
782.66	1724.39
782.83	1839.08
783.01	1730.53
783.19	1822.69
783.36	1701.86
783.54	1642.47
783.72	1730.53
783.89	1658.85
784.07	1738.73
784.24	1718.25
784.42	1806.31
784.60	1726.44
784.77	1820.64
784.95	1665.00
785.12	1757.16
785.30	1697.77
785.47	1703.91
785.65	1710.05
785.83	1677.29
786.00	1644.52
786.18	1757.16
786.35	1634.28
786.53	1703.91
786.71	1794.02
786.88	1767.40
787.06	1701.86
787.23	1744.87
787.41	1656.81
787.58	1689.57
787.76	1673.19
787.94	1642.47
788.11	1708.01
788.29	1689.57
788.46	1681.38
788.64	1665.00
788.81	1720.29
788.99	1677.29
789.16	1640.42
789.34	1705.96
789.52	1607.66
789.69	1687.53
789.87	1515.50
790.04	1734.63
790.22	1687.53
790.39	1830.88
790.57	1703.91
790.74	1656.81
790.92	1812.45
791.09	1595.37
791.27	1746.92
791.44	1748.97
791.62	1761.25
791.79	1800.16
791.97	1648.61
792.15	1900.52
792.32	1710.05
792.50	1845.22
792.67	1843.17
792.85	1701.86
793.02	1697.77
793.20	1691.62
793.37	1675.24
793.55	1681.38
793.72	1644.52
793.90	1757.16
794.07	1693.67
794.25	1712.10
794.42	1753.06
794.60	1673.19
794.77	1773.54
794.95	1755.11
795.12	1693.67
795.30	1710.05
795.47	1626.09
795.65	1843.17
795.82	1689.57
796.00	1658.85
796.17	1685.48
796.34	1714.15
796.52	1755.11
796.69	1708.01
796.87	1746.92
797.04	1726.44
797.22	1650.66
797.39	1730.53
797.57	1656.81
797.74	1691.62
797.92	1738.73
798.09	1687.53
798.27	1810.40
798.44	1699.81
798.62	1677.29
798.79	1685.48
798.96	1734.63
799.14	1677.29
799.31	1828.84
799.49	1634.28
799.66	1681.38
799.84	1644.52
800.01	1675.24
800.19	1779.68
800.36	1583.08
800.53	1771.49
800.71	1679.33
800.88	1808.36
801.06	1685.48
801.23	1697.77
801.41	1691.62
801.58	1642.47
801.75	1722.34
801.93	1746.92
802.10	1746.92
802.28	1591.27
802.45	1718.25
802.63	1730.53
802.80	1781.73
802.97	1667.05
803.15	1732.58
803.32	1634.28
803.50	1712.10
803.67	1665.00
803.84	1710.05
804.02	1738.73
804.19	1691.62
804.37	1562.60
804.54	1566.70
804.71	1708.01
804.89	1710.05
805.06	1759.21
805.24	1652.71
805.41	1675.24
805.58	1679.33
805.76	1896.42
805.93	1718.25
806.10	1759.21
806.28	1765.35
806.45	1771.49
806.63	1714.15
806.80	1767.40
806.97	1728.49
807.15	1748.97
807.32	1734.63
807.49	1726.44
807.67	1675.24
807.84	1744.87
808.01	1675.24
808.19	1781.73
808.36	1832.93
808.54	1630.18
808.71	1736.68
808.88	1710.05
809.06	1683.43
809.23	1828.84
809.40	1751.01
809.58	1763.30
809.75	1732.58
809.92	1658.85
810.10	1869.80
810.27	1689.57
810.44	1744.87
810.62	1757.16
810.79	1740.77
810.96	1738.73
811.14	1755.11
811.31	1724.39
811.48	1669.09
811.66	1642.47
811.83	1712.10
812.00	1703.91
812.18	1777.64
812.35	1886.18
812.52	1683.43
812.69	1675.24
812.87	1689.57
813.04	1689.57
813.21	1708.01
813.39	1675.24
813.56	1658.85
813.73	1640.42
813.91	1583.08
814.08	1785.83
814.25	1683.43
814.42	1619.94
814.60	1669.09
814.77	1751.01
814.94	1718.25
815.12	1673.19
815.29	1791.97
815.46	1665.00
815.63	1755.11
815.81	1718.25
815.98	1675.24
816.15	1705.96
816.33	1775.59
816.50	1703.91
816.67	1722.34
816.84	1728.49
817.02	1601.51
817.19	1665.00
817.36	1755.11
817.53	1773.54
817.71	1726.44
817.88	1755.11
818.05	1658.85
818.22	1728.49
818.40	1765.35
818.57	1646.57
818.74	1742.82
818.91	1648.61
819.09	1740.77
819.26	1742.82
819.43	1699.81
819.60	1601.51
819.78	1699.81
819.95	1812.45
820.12	1705.96
820.29	1796.07
820.47	1712.10
820.64	1648.61
820.81	1665.00
820.98	1652.71
821.15	1677.29
821.33	1705.96
821.50	1619.94
821.67	1757.16
821.84	1730.53
822.02	1785.83
822.19	1763.30
822.36	1691.62
822.53	1722.34
822.70	1679.33
822.88	1644.52
823.05	1820.64
823.22	1695.72
823.39	1697.77
823.56	1742.82
823.74	1732.58
823.91	1673.19
824.08	1697.77
824.25	1667.05
824.42	1847.27
824.60	1615.85
824.77	1814.50
824.94	1718.25
825.11	1726.44
825.28	1644.52
825.45	1685.48
825.63	1738.73
825.80	1728.49
825.97	1701.86
826.14	1699.81
826.31	1697.77
826.48	1789.92
826.66	1644.52
826.83	1753.06
827.00	1728.49
827.17	1636.33
827.34	1705.96
827.51	1648.61
827.69	1699.81
827.86	1615.85
828.03	1730.53
828.20	1783.78
828.37	1681.38
828.54	1695.72
828.71	1726.44
828.89	1810.40
829.06	1777.64
829.23	1757.16
829.40	1595.37
829.57	1677.29
829.74	1736.68
829.91	1599.46
830.09	1621.99
830.26	1701.86
830.43	1806.31
830.60	1720.29
830.77	1730.53
830.94	1783.78
831.11	1740.77
831.28	1669.09
831.46	1845.22
831.63	1701.86
831.80	1693.67
831.97	1736.68
832.14	1705.96
832.31	1734.63
832.48	1714.15
832.65	1791.97
832.82	1744.87
832.99	1703.91
833.17	1617.90
833.34	1767.40
833.51	1798.12
833.68	1591.27
833.85	1777.64
834.02	1632.23
834.19	1626.09
834.36	1662.95
834.53	1624.04
834.70	1695.72
834.87	1796.07
835.04	1671.14
835.22	1685.48
835.39	1677.29
835.56	1634.28
835.73	1751.01
835.90	1781.73
836.07	1615.85
836.24	1755.11
836.41	1705.96
836.58	1605.61
836.75	1834.98
836.92	1757.16
837.09	1679.33
837.26	1689.57
837.43	1740.77
837.60	1738.73
837.77	1683.43
837.94	1714.15
838.12	1800.16
838.29	1738.73
838.46	1591.27
838.63	1652.71
838.80	1761.25
838.97	1765.35
839.14	1757.16
839.31	1609.70
839.48	1736.68
839.65	1728.49
839.82	1689.57
839.99	1791.97
840.16	1722.34
840.33	1605.61
840.50	1734.63
840.67	1671.14
840.84	1636.33
841.01	1742.82
841.18	1619.94
841.35	1710.05
841.52	1736.68
841.69	1828.84
841.86	1652.71
842.03	1691.62
842.20	1726.44
842.37	1687.53
842.54	1691.62
842.71	1699.81
842.88	1656.81
843.05	1654.76
843.22	1714.15
843.39	1708.01
843.56	1705.96
843.73	1728.49
843.90	1724.39
844.07	1751.01
844.24	1753.06
844.41	1701.86
844.58	1730.53
844.75	1728.49
844.92	1714.15
845.09	1667.05
845.26	1681.38
845.43	1697.77
845.60	1691.62
845.77	1834.98
845.94	1798.12
846.10	1722.34
846.27	1648.61
846.44	1734.63
846.61	1644.52
846.78	1689.57
846.95	1855.46
847.12	1646.57
847.29	1720.29
847.46	1660.90
847.63	1769.44
847.80	1662.95
847.97	1687.53
848.14	1828.84
848.31	1757.16
848.48	1609.70
848.65	1748.97
848.82	1636.33
848.98	1861.60
849.15	1695.72
849.32	1718.25
849.49	1806.31
849.66	1763.30
849.83	1681.38
850.00	1644.52
850.17	1822.69
850.34	1656.81
850.51	1669.09
850.68	1642.47
850.85	1837.03
851.01	1775.59
851.18	1748.97
851.35	1701.86
851.52	1740.77
851.69	1812.45
851.86	1585.13
852.03	1687.53
852.20	1732.58
852.37	1687.53
852.53	1607.66
852.70	1769.44
852.87	1681.38
853.04	1753.06
853.21	1740.77
853.38	1712.10
853.55	1775.59
853.72	1828.84
853.89	1703.91
854.05	1656.81
854.22	1677.29
854.39	1632.23
854.56	1689.57
854.73	1757.16
854.90	1693.67
855.07	1683.43
855.23	1621.99
855.40	1708.01
855.57	1763.30
855.74	1607.66
855.91	1908.71
856.08	1611.75
856.25	1691.62
856.41	1628.14
856.58	1689.57
856.75	1638.38
856.92	1603.56
857.09	1812.45
857.26	1611.75
857.42	1728.49
857.59	1624.04
857.76	1626.09
857.93	1656.81
858.10	1748.97
858.27	1599.46
858.43	1705.96
858.60	1726.44
858.77	1638.38
858.94	1673.19
859.11	1769.44
859.27	1691.62
859.44	1708.01
859.61	1871.84
859.78	1775.59
859.95	1650.66
860.12	1652.71
860.28	1839.08
860.45	1853.41
860.62	1632.23
860.79	1712.10
860.95	1615.85
861.12	1638.38
861.29	1722.34
861.46	1718.25
861.63	1759.21
861.79	1755.11
861.96	1667.05
862.13	1722.34
862.30	1761.25
862.47	1673.19
862.63	1650.66
862.80	1806.31
862.97	1701.86
863.14	1667.05
863.30	1757.16
863.47	1605.61
863.64	1810.40
863.81	1718.25
863.97	1636.33
864.14	1755.11
864.31	1724.39
864.48	1798.12
864.65	1736.68
864.81	1708.01
864.98	1824.74
865.15	1724.39
865.32	1818.60
865.48	1812.45
865.65	1773.54
865.82	1712.10
865.98	1679.33
866.15	1746.92
866.32	1697.77
866.49	1673.19
866.65	1767.40
866.82	1642.47
866.99	1701.86
867.16	1695.72
867.32	1665.00
867.49	1714.15
867.66	1683.43
867.83	1695.72
867.99	1650.66
868.16	1730.53
868.33	1624.04
868.49	1669.09
868.66	1671.14
868.83	1787.88
868.99	1740.77
869.16	1673.19
869.33	1789.92
869.50	1816.55
869.66	1710.05
869.83	1738.73
870.00	1685.48
870.16	1783.78
870.33	1755.11
870.50	1820.64
870.66	1787.88
870.83	1755.11
871.00	1695.72
871.17	1755.11
871.33	1687.53
871.50	1667.05
871.67	1746.92
871.83	1640.42
872.00	1832.93
872.17	1667.05
872.33	1746.92
872.50	1806.31
872.67	1660.90
872.83	1681.38
873.00	1693.67
873.17	1621.99
873.33	1726.44
873.50	1697.77
873.67	1640.42
873.83	1695.72
874.00	1757.16
874.16	1732.58
874.33	1648.61
874.50	1628.14
874.66	1705.96
874.83	1673.19
875.00	1779.68
875.16	1791.97
875.33	1771.49
875.50	1632.23
875.66	1650.66
875.83	1714.15
875.99	1757.16
876.16	1726.44
876.33	1654.76
876.49	1720.29
876.66	1781.73
876.83	1687.53
876.99	1644.52
877.16	1640.42
877.32	1693.67
877.49	1636.33
877.66	1675.24
877.82	1806.31
877.99	1716.20
878.15	1763.30
878.32	1669.09
878.49	1722.34
878.65	1742.82
878.82	1736.68
878.98	1740.77
879.15	1714.15
879.32	1787.88
879.48	1685.48
879.65	1673.19
879.81	1601.51
879.98	1689.57
880.15	1705.96
880.31	1808.36
880.48	1599.46
880.64	1789.92
880.81	1728.49
880.97	1828.84
881.14	1781.73
881.31	1689.57
881.47	1839.08
881.64	1658.85
881.80	1603.56
881.97	1742.82
882.13	1724.39
882.30	1636.33
882.47	1662.95
882.63	1677.29
882.80	1624.04
882.96	1636.33
883.13	1742.82
883.29	1732.58
883.46	1742.82
883.62	1804.26
883.79	1675.24
883.95	1771.49
884.12	1726.44
884.29	1714.15
884.45	1753.06
884.62	1689.57
884.78	1724.39
884.95	1865.70
885.11	1679.33
885.28	1652.71
885.44	1705.96
885.61	1802.21
885.77	1779.68
885.94	1710.05
886.10	1673.19
886.27	1759.21
886.43	1734.63
886.60	1787.88
886.76	1730.53
886.93	1665.00
887.09	1789.92
887.26	1662.95
887.42	1714.15
887.59	1841.12
887.75	1884.13
887.92	1742.82
888.08	1789.92
888.25	1816.55
888.41	1746.92
888.58	1724.39
888.74	1689.57
888.91	1716.20
>>>>>End Processed Spectral Data<<<<<
