SpectraSuite Data File
++++++++++++++++++++++++++++++++++++
Date: Mon Jun 06 17:22:57 CEST 2016
User: root
Dark Spectrum Present: No
Reference Spectrum Present: No
Number of Sampled Component Spectra: 1
Spectrometers: USB4C02835
Integration Time (usec): 100000 (USB4C02835)
Spectra Averaged: 1 (USB4C02835)
Boxcar Smoothing: 0 (USB4C02835)
Correct for Electrical Dark: No (USB4C02835)
Strobe/Lamp Enabled: No (USB4C02835)
Correct for Detector Non-linearity: No (USB4C02835)
Correct for Stray Light: No (USB4C02835)
Number of Pixels in Processed Spectrum: 3648
>>>>>Begin Processed Spectral Data<<<<<
177.47	1488.87
177.69	1488.87
177.91	1488.87
178.13	1505.26
178.36	1490.92
178.58	1636.33
178.80	1705.96
179.02	1632.23
179.24	1665.00
179.46	1681.38
179.68	1742.82
179.90	1720.29
180.13	1615.85
180.35	1734.63
180.57	1681.38
180.79	1761.25
181.01	1763.30
181.23	1789.92
181.45	1746.92
181.67	1769.44
181.90	1759.21
182.12	1695.72
182.34	1765.35
182.56	1804.26
182.78	1763.30
183.00	1677.29
183.22	1718.25
183.44	1646.57
183.66	1841.12
183.89	1804.26
184.11	1673.19
184.33	1705.96
184.55	1822.69
184.77	1701.86
184.99	1703.91
185.21	1726.44
185.43	1832.93
185.65	1765.35
185.87	1714.15
186.10	1935.33
186.32	1877.99
186.54	1763.30
186.76	1769.44
186.98	1773.54
187.20	1767.40
187.42	1705.96
187.64	1710.05
187.86	1746.92
188.08	1759.21
188.30	1660.90
188.52	1751.01
188.75	1720.29
188.97	1759.21
189.19	1693.67
189.41	1726.44
189.63	1742.82
189.85	1611.75
190.07	1675.24
190.29	1705.96
190.51	1710.05
190.73	1697.77
190.95	1755.11
191.17	1675.24
191.39	1529.83
191.61	1726.44
191.84	1693.67
192.06	1763.30
192.28	1621.99
192.50	1902.56
192.72	1789.92
192.94	1624.04
193.16	1755.11
193.38	1781.73
193.60	1648.61
193.82	1742.82
194.04	1789.92
194.26	1732.58
194.48	1662.95
194.70	1662.95
194.92	1654.76
195.14	1742.82
195.36	1650.66
195.58	1800.16
195.80	1665.00
196.02	1740.77
196.24	1689.57
196.46	1771.49
196.69	1640.42
196.91	1820.64
197.13	1775.59
197.35	1646.57
197.57	1787.88
197.79	1681.38
198.01	1708.01
198.23	1697.77
198.45	1730.53
198.67	1624.04
198.89	1650.66
199.11	1697.77
199.33	1679.33
199.55	1665.00
199.77	1673.19
199.99	1794.02
200.21	1679.33
200.43	1675.24
200.65	1687.53
200.87	1650.66
201.09	1746.92
201.31	1720.29
201.53	1775.59
201.75	1699.81
201.97	1730.53
202.19	1767.40
202.41	1658.85
202.63	1822.69
202.85	1753.06
203.07	1683.43
203.29	1693.67
203.51	1630.18
203.73	1703.91
203.95	1865.70
204.17	1710.05
204.39	1771.49
204.61	1724.39
204.83	1660.90
205.05	1734.63
205.27	1640.42
205.49	1800.16
205.71	1658.85
205.93	1667.05
206.15	1730.53
206.37	1675.24
206.59	1656.81
206.81	1691.62
207.03	1636.33
207.25	1656.81
207.47	1761.25
207.69	1667.05
207.91	1869.80
208.13	1781.73
208.34	1753.06
208.56	1587.18
208.78	1738.73
209.00	1652.71
209.22	1699.81
209.44	1626.09
209.66	1634.28
209.88	1673.19
210.10	1744.87
210.32	1681.38
210.54	1787.88
210.76	1652.71
210.98	1804.26
211.20	1603.56
211.42	1732.58
211.64	1726.44
211.86	1701.86
212.08	1771.49
212.30	1665.00
212.52	1751.01
212.74	1746.92
212.96	1708.01
213.17	1841.12
213.39	1734.63
213.61	1787.88
213.83	1785.83
214.05	1712.10
214.27	1767.40
214.49	1710.05
214.71	1746.92
214.93	1800.16
215.15	1775.59
215.37	1730.53
215.59	1660.90
215.81	1714.15
216.03	1763.30
216.24	1640.42
216.46	1675.24
216.68	1730.53
216.90	1722.34
217.12	1759.21
217.34	1708.01
217.56	1726.44
217.78	1816.55
218.00	1789.92
218.22	1783.78
218.44	1761.25
218.66	1703.91
218.87	1789.92
219.09	1681.38
219.31	1757.16
219.53	1720.29
219.75	1753.06
219.97	1748.97
220.19	1744.87
220.41	1738.73
220.63	1718.25
220.85	1710.05
221.06	1718.25
221.28	1779.68
221.50	1779.68
221.72	1761.25
221.94	1640.42
222.16	1722.34
222.38	1761.25
222.60	1685.48
222.82	1705.96
223.03	1726.44
223.25	1646.57
223.47	1716.20
223.69	1824.74
223.91	1839.08
224.13	1726.44
224.35	1746.92
224.57	1751.01
224.78	1781.73
225.00	1693.67
225.22	1693.67
225.44	1771.49
225.66	1742.82
225.88	1675.24
226.10	1824.74
226.32	1761.25
226.53	1753.06
226.75	1652.71
226.97	1738.73
227.19	1662.95
227.41	1626.09
227.63	1656.81
227.85	1640.42
228.06	1697.77
228.28	1648.61
228.50	1710.05
228.72	1605.61
228.94	1701.86
229.16	1681.38
229.37	1591.27
229.59	1720.29
229.81	1810.40
230.03	1603.56
230.25	1658.85
230.47	1740.77
230.69	1699.81
230.90	1767.40
231.12	1675.24
231.34	1648.61
231.56	1877.99
231.78	1669.09
232.00	1712.10
232.21	1705.96
232.43	1714.15
232.65	1556.46
232.87	1730.53
233.09	1697.77
233.30	1615.85
233.52	1753.06
233.74	1714.15
233.96	1630.18
234.18	1669.09
234.40	1714.15
234.61	1779.68
234.83	1667.05
235.05	1689.57
235.27	1853.41
235.49	1820.64
235.70	1705.96
235.92	1832.93
236.14	1769.44
236.36	1839.08
236.58	1636.33
236.79	1718.25
237.01	1685.48
237.23	1658.85
237.45	1851.36
237.67	1722.34
237.88	1730.53
238.10	1820.64
238.32	1648.61
238.54	1724.39
238.76	1683.43
238.97	1699.81
239.19	1703.91
239.41	1740.77
239.63	1771.49
239.85	1626.09
240.06	1671.14
240.28	1716.20
240.50	1742.82
240.72	1732.58
240.93	1724.39
241.15	1777.64
241.37	1632.23
241.59	1714.15
241.81	1693.67
242.02	1753.06
242.24	1705.96
242.46	1738.73
242.68	1638.38
242.89	1697.77
243.11	1771.49
243.33	1724.39
243.55	1757.16
243.76	1759.21
243.98	1595.37
244.20	1773.54
244.42	1759.21
244.64	1724.39
244.85	1644.52
245.07	1675.24
245.29	1787.88
245.51	1689.57
245.72	1701.86
245.94	1765.35
246.16	1726.44
246.38	1656.81
246.59	1732.58
246.81	1685.48
247.03	1671.14
247.24	1632.23
247.46	1654.76
247.68	1705.96
247.90	1697.77
248.11	1722.34
248.33	1783.78
248.55	1759.21
248.77	1736.68
248.98	1714.15
249.20	1837.03
249.42	1708.01
249.64	1699.81
249.85	1755.11
250.07	1724.39
250.29	1751.01
250.50	1734.63
250.72	1562.60
250.94	1665.00
251.16	1877.99
251.37	1822.69
251.59	1728.49
251.81	1714.15
252.02	1736.68
252.24	1699.81
252.46	1765.35
252.68	1660.90
252.89	1730.53
253.11	1634.28
253.33	1816.55
253.54	1808.36
253.76	1697.77
253.98	1679.33
254.20	1773.54
254.41	1607.66
254.63	1683.43
254.85	1583.08
255.06	1656.81
255.28	1681.38
255.50	1677.29
255.71	1714.15
255.93	1619.94
256.15	1773.54
256.36	1710.05
256.58	1759.21
256.80	1767.40
257.02	1755.11
257.23	1683.43
257.45	1681.38
257.67	1820.64
257.88	1685.48
258.10	1751.01
258.32	1753.06
258.53	1718.25
258.75	1781.73
258.97	1609.70
259.18	1738.73
259.40	1710.05
259.62	1851.36
259.83	1748.97
260.05	1773.54
260.27	2078.69
260.48	1765.35
260.70	1687.53
260.92	1730.53
261.13	1685.48
261.35	1769.44
261.57	1697.77
261.78	1603.56
262.00	1617.90
262.22	1763.30
262.43	1671.14
262.65	1693.67
262.86	1705.96
263.08	1810.40
263.30	1728.49
263.51	1570.79
263.73	1730.53
263.95	1777.64
264.16	1613.80
264.38	1650.66
264.60	1800.16
264.81	1765.35
265.03	1753.06
265.25	1755.11
265.46	1710.05
265.68	1767.40
265.89	1798.12
266.11	1587.18
266.33	1695.72
266.54	1714.15
266.76	1699.81
266.98	1802.21
267.19	1822.69
267.41	1779.68
267.62	1742.82
267.84	1673.19
268.06	1693.67
268.27	1734.63
268.49	1839.08
268.70	1783.78
268.92	1718.25
269.14	1587.18
269.35	1609.70
269.57	1726.44
269.79	1779.68
270.00	1667.05
270.22	1849.32
270.43	1693.67
270.65	1550.31
270.87	1669.09
271.08	1683.43
271.30	1744.87
271.51	1714.15
271.73	1767.40
271.95	1787.88
272.16	1718.25
272.38	1720.29
272.59	1757.16
272.81	1798.12
273.02	1720.29
273.24	1779.68
273.46	1751.01
273.67	1617.90
273.89	1683.43
274.10	1671.14
274.32	1884.13
274.54	1683.43
274.75	1687.53
274.97	1611.75
275.18	1730.53
275.40	1832.93
275.61	1718.25
275.83	1732.58
276.05	1701.86
276.26	1718.25
276.48	1673.19
276.69	1703.91
276.91	1667.05
277.12	1691.62
277.34	1834.98
277.55	1730.53
277.77	1712.10
277.99	1638.38
278.20	1730.53
278.42	1689.57
278.63	1615.85
278.85	1605.61
279.06	1648.61
279.28	1697.77
279.49	1802.21
279.71	1708.01
279.93	1734.63
280.14	1673.19
280.36	1697.77
280.57	1755.11
280.79	1828.84
281.00	1703.91
281.22	1697.77
281.43	1767.40
281.65	1509.35
281.86	1636.33
282.08	1812.45
282.29	1849.32
282.51	1669.09
282.73	1611.75
282.94	1607.66
283.16	1716.20
283.37	1769.44
283.59	1779.68
283.80	1738.73
284.02	1710.05
284.23	1683.43
284.45	1665.00
284.66	1644.52
284.88	1748.97
285.09	1738.73
285.31	1718.25
285.52	1740.77
285.74	1519.59
285.95	1824.74
286.17	1679.33
286.38	1777.64
286.60	1714.15
286.81	1671.14
287.03	1744.87
287.24	1710.05
287.46	1775.59
287.67	1656.81
287.89	1841.12
288.10	1732.58
288.32	1720.29
288.53	1794.02
288.75	1753.06
288.96	1746.92
289.18	1714.15
289.39	1689.57
289.61	1751.01
289.82	1818.60
290.04	1898.47
290.25	1621.99
290.47	1685.48
290.68	1695.72
290.90	1746.92
291.11	1644.52
291.33	1814.50
291.54	1703.91
291.76	1632.23
291.97	1742.82
292.18	1718.25
292.40	1665.00
292.61	1669.09
292.83	1810.40
293.04	1783.78
293.26	1722.34
293.47	1740.77
293.69	1673.19
293.90	1705.96
294.12	1710.05
294.33	1683.43
294.55	1734.63
294.76	1751.01
294.97	1802.21
295.19	1820.64
295.40	1673.19
295.62	1767.40
295.83	1800.16
296.05	1701.86
296.26	1791.97
296.48	1710.05
296.69	1662.95
296.90	1691.62
297.12	1701.86
297.33	1753.06
297.55	1693.67
297.76	1738.73
297.98	1800.16
298.19	1693.67
298.41	1787.88
298.62	1652.71
298.83	1832.93
299.05	1730.53
299.26	1767.40
299.48	1673.19
299.69	1736.68
299.90	1689.57
300.12	1603.56
300.33	1691.62
300.55	1751.01
300.76	1685.48
300.98	1656.81
301.19	1804.26
301.40	1640.42
301.62	1728.49
301.83	1722.34
302.05	1712.10
302.26	1740.77
302.47	1787.88
302.69	1597.42
302.90	1763.30
303.12	1675.24
303.33	1759.21
303.54	1791.97
303.76	1644.52
303.97	1681.38
304.19	1791.97
304.40	1673.19
304.61	1736.68
304.83	1906.66
305.04	1714.15
305.26	1712.10
305.47	1665.00
305.68	1638.38
305.90	1630.18
306.11	1802.21
306.33	1677.29
306.54	1685.48
306.75	1730.53
306.97	1671.14
307.18	1642.47
307.39	1652.71
307.61	1761.25
307.82	1673.19
308.04	1765.35
308.25	1619.94
308.46	1775.59
308.68	1697.77
308.89	1722.34
309.10	1832.93
309.32	1734.63
309.53	1660.90
309.74	1738.73
309.96	1685.48
310.17	1834.98
310.39	1716.20
310.60	1685.48
310.81	1738.73
311.03	1720.29
311.24	1746.92
311.45	1693.67
311.67	1800.16
311.88	1732.58
312.09	1603.56
312.31	1726.44
312.52	1648.61
312.73	1728.49
312.95	1576.94
313.16	1644.52
313.37	1732.58
313.59	1775.59
313.80	1783.78
314.01	1767.40
314.23	1675.24
314.44	1703.91
314.65	1632.23
314.87	1710.05
315.08	1611.75
315.29	1660.90
315.51	1628.14
315.72	1601.51
315.93	1787.88
316.15	1753.06
316.36	1716.20
316.57	1693.67
316.79	1787.88
317.00	1710.05
317.21	1761.25
317.43	1687.53
317.64	1660.90
317.85	1722.34
318.07	1671.14
318.28	1699.81
318.49	1865.70
318.70	1947.62
318.92	1810.40
319.13	1804.26
319.34	1939.43
319.56	1863.65
319.77	1851.36
319.98	1834.98
320.20	1789.92
320.41	1751.01
320.62	1789.92
320.83	1681.38
321.05	1855.46
321.26	1740.77
321.47	1728.49
321.69	1757.16
321.90	1667.05
322.11	1740.77
322.32	1732.58
322.54	1751.01
322.75	1712.10
322.96	1783.78
323.18	1683.43
323.39	1646.57
323.60	1644.52
323.81	1689.57
324.03	1771.49
324.24	1703.91
324.45	1765.35
324.66	1691.62
324.88	1796.07
325.09	1796.07
325.30	1665.00
325.52	1798.12
325.73	1753.06
325.94	1712.10
326.15	1535.98
326.37	1714.15
326.58	1775.59
326.79	1787.88
327.00	1636.33
327.22	1740.77
327.43	1687.53
327.64	1660.90
327.85	1759.21
328.07	1767.40
328.28	1791.97
328.49	1689.57
328.70	1644.52
328.92	1701.86
329.13	1710.05
329.34	1738.73
329.55	1869.80
329.76	1744.87
329.98	1642.47
330.19	1832.93
330.40	1769.44
330.61	1699.81
330.83	1787.88
331.04	1669.09
331.25	1703.91
331.46	1714.15
331.68	1656.81
331.89	1798.12
332.10	1734.63
332.31	1621.99
332.52	1712.10
332.74	1779.68
332.95	1673.19
333.16	1710.05
333.37	1724.39
333.58	1615.85
333.80	1681.38
334.01	1642.47
334.22	1646.57
334.43	1712.10
334.64	1697.77
334.86	1628.14
335.07	1740.77
335.28	1787.88
335.49	1605.61
335.70	1746.92
335.92	1755.11
336.13	1859.56
336.34	1736.68
336.55	1714.15
336.76	1660.90
336.98	1611.75
337.19	1687.53
337.40	1800.16
337.61	1886.18
337.82	1734.63
338.04	1744.87
338.25	1587.18
338.46	1720.29
338.67	1708.01
338.88	1574.89
339.09	1738.73
339.31	1757.16
339.52	1613.80
339.73	1624.04
339.94	1681.38
340.15	1755.11
340.36	1677.29
340.58	1722.34
340.79	1730.53
341.00	1775.59
341.21	1593.32
341.42	1837.03
341.63	1689.57
341.85	1744.87
342.06	1671.14
342.27	1656.81
342.48	1794.02
342.69	1552.36
342.90	1644.52
343.12	1753.06
343.33	1730.53
343.54	1759.21
343.75	1843.17
343.96	1687.53
344.17	1738.73
344.38	1632.23
344.60	1689.57
344.81	1736.68
345.02	1628.14
345.23	1783.78
345.44	1810.40
345.65	1832.93
345.86	1656.81
346.07	1689.57
346.29	1673.19
346.50	1751.01
346.71	1794.02
346.92	1781.73
347.13	1841.12
347.34	1710.05
347.55	1746.92
347.76	1699.81
347.98	1558.50
348.19	1718.25
348.40	1812.45
348.61	1748.97
348.82	1742.82
349.03	1765.35
349.24	1683.43
349.45	1837.03
349.66	1619.94
349.88	1693.67
350.09	1724.39
350.30	1720.29
350.51	1763.30
350.72	1759.21
350.93	1677.29
351.14	1705.96
351.35	1773.54
351.56	1718.25
351.77	1689.57
351.99	1816.55
352.20	1818.60
352.41	1753.06
352.62	1595.37
352.83	1667.05
353.04	1681.38
353.25	1714.15
353.46	1820.64
353.67	1761.25
353.88	1599.46
354.09	1755.11
354.30	1767.40
354.52	1810.40
354.73	1660.90
354.94	1630.18
355.15	1697.77
355.36	1808.36
355.57	1691.62
355.78	1714.15
355.99	1691.62
356.20	1714.15
356.41	1802.21
356.62	1740.77
356.83	1755.11
357.04	1771.49
357.25	1656.81
357.46	1710.05
357.68	1615.85
357.89	1644.52
358.10	1642.47
358.31	1701.86
358.52	1673.19
358.73	1624.04
358.94	1632.23
359.15	1740.77
359.36	1800.16
359.57	1730.53
359.78	1748.97
359.99	1785.83
360.20	1658.85
360.41	1734.63
360.62	1814.50
360.83	1734.63
361.04	1710.05
361.25	1734.63
361.46	1841.12
361.67	1740.77
361.88	1832.93
362.09	1802.21
362.30	1708.01
362.51	1677.29
362.72	1716.20
362.93	1744.87
363.14	1771.49
363.35	1693.67
363.56	1777.64
363.78	1828.84
363.99	1755.11
364.20	1722.34
364.41	1716.20
364.62	1839.08
364.83	1705.96
365.04	1773.54
365.25	1695.72
365.46	1800.16
365.67	1685.48
365.88	1660.90
366.09	1714.15
366.30	1665.00
366.51	1705.96
366.72	1527.78
366.93	1771.49
367.14	1726.44
367.35	1767.40
367.56	1730.53
367.77	1851.36
367.98	1746.92
368.18	1730.53
368.39	1783.78
368.60	1667.05
368.81	1785.83
369.02	1757.16
369.23	1695.72
369.44	1615.85
369.65	1656.81
369.86	1779.68
370.07	1761.25
370.28	1757.16
370.49	1755.11
370.70	1763.30
370.91	1621.99
371.12	1646.57
371.33	1763.30
371.54	1710.05
371.75	1871.84
371.96	1521.64
372.17	1738.73
372.38	1681.38
372.59	1779.68
372.80	1742.82
373.01	1794.02
373.22	1705.96
373.43	1722.34
373.64	1691.62
373.85	1777.64
374.06	1832.93
374.26	1697.77
374.47	1710.05
374.68	1777.64
374.89	1767.40
375.10	1624.04
375.31	1724.39
375.52	1771.49
375.73	1712.10
375.94	1673.19
376.15	1796.07
376.36	1722.34
376.57	1738.73
376.78	1736.68
376.99	1689.57
377.20	1736.68
377.40	1644.52
377.61	1822.69
377.82	1714.15
378.03	1802.21
378.24	1783.78
378.45	1699.81
378.66	1732.58
378.87	1617.90
379.08	1648.61
379.29	1710.05
379.50	1720.29
379.71	1724.39
379.91	1755.11
380.12	1720.29
380.33	1697.77
380.54	1701.86
380.75	1691.62
380.96	1722.34
381.17	1806.31
381.38	1683.43
381.59	1730.53
381.80	1734.63
382.00	1763.30
382.21	1744.87
382.42	1839.08
382.63	1877.99
382.84	1699.81
383.05	1787.88
383.26	1802.21
383.47	1726.44
383.68	1796.07
383.88	1769.44
384.09	1789.92
384.30	1796.07
384.51	1767.40
384.72	1665.00
384.93	1689.57
385.14	1722.34
385.35	1818.60
385.55	1652.71
385.76	1787.88
385.97	1724.39
386.18	1591.27
386.39	1695.72
386.60	1730.53
386.81	1818.60
387.02	1636.33
387.22	1742.82
387.43	1837.03
387.64	1773.54
387.85	1857.51
388.06	2265.05
388.27	4120.51
388.48	6842.26
388.68	8030.09
388.89	9523.05
389.10	9707.37
389.31	8540.03
389.52	7630.73
389.73	6621.08
389.93	6225.82
390.14	5924.77
390.35	5148.59
390.56	4558.78
390.77	3657.67
390.98	2942.93
391.18	2533.34
391.39	2136.03
391.60	1812.45
391.81	1880.04
392.02	1765.35
392.23	1777.64
392.43	1794.02
392.64	1904.61
392.85	1687.53
393.06	1867.75
393.27	1744.87
393.47	1722.34
393.68	1732.58
393.89	1714.15
394.10	1820.64
394.31	1728.49
394.52	1675.24
394.72	1667.05
394.93	1824.74
395.14	1634.28
395.35	1699.81
395.56	1712.10
395.76	1806.31
395.97	1787.88
396.18	1808.36
396.39	1882.08
396.60	2039.78
396.80	1882.08
397.01	1843.17
397.22	1779.68
397.43	1869.80
397.64	1708.01
397.84	1837.03
398.05	1898.47
398.26	1794.02
398.47	1822.69
398.67	1757.16
398.88	1671.14
399.09	1769.44
399.30	1662.95
399.51	1777.64
399.71	1689.57
399.92	1681.38
400.13	1675.24
400.34	1742.82
400.54	1722.34
400.75	1826.79
400.96	1757.16
401.17	1865.70
401.37	1785.83
401.58	1675.24
401.79	1718.25
402.00	1841.12
402.21	2035.68
402.41	1939.43
402.62	1939.43
402.83	2062.30
403.04	1970.15
403.24	2068.45
403.45	1824.74
403.66	1920.99
403.87	1894.37
404.07	1943.52
404.28	1906.66
404.49	1900.52
404.70	1869.80
404.90	1732.58
405.11	1683.43
405.32	1761.25
405.52	1720.29
405.73	1722.34
405.94	1617.90
406.15	1726.44
406.35	1755.11
406.56	1685.48
406.77	1781.73
406.98	1708.01
407.18	1677.29
407.39	1800.16
407.60	1740.77
407.80	1716.20
408.01	1703.91
408.22	1730.53
408.43	1648.61
408.63	1757.16
408.84	1794.02
409.05	1794.02
409.25	1705.96
409.46	1685.48
409.67	1714.15
409.88	1654.76
410.08	1757.16
410.29	1658.85
410.50	1734.63
410.70	1738.73
410.91	1652.71
411.12	1783.78
411.32	1765.35
411.53	1654.76
411.74	1896.42
411.95	1832.93
412.15	1728.49
412.36	1806.31
412.57	1755.11
412.77	1796.07
412.98	1652.71
413.19	1703.91
413.39	1816.55
413.60	1765.35
413.81	1810.40
414.01	1654.76
414.22	1718.25
414.43	1748.97
414.63	1718.25
414.84	1740.77
415.05	1673.19
415.25	1634.28
415.46	1736.68
415.67	1705.96
415.87	1775.59
416.08	1705.96
416.29	1738.73
416.49	1742.82
416.70	1691.62
416.91	1718.25
417.11	1736.68
417.32	1755.11
417.53	1728.49
417.73	1771.49
417.94	1748.97
418.15	1685.48
418.35	1812.45
418.56	1722.34
418.77	1851.36
418.97	1703.91
419.18	1732.58
419.38	1621.99
419.59	1718.25
419.80	1822.69
420.00	1660.90
420.21	1726.44
420.42	1808.36
420.62	1726.44
420.83	1597.42
421.04	1689.57
421.24	1734.63
421.45	1759.21
421.65	1742.82
421.86	1685.48
422.07	1781.73
422.27	1712.10
422.48	1722.34
422.69	1646.57
422.89	1726.44
423.10	1720.29
423.30	1646.57
423.51	1728.49
423.72	1724.39
423.92	1810.40
424.13	1736.68
424.33	1738.73
424.54	1734.63
424.75	1710.05
424.95	1787.88
425.16	1685.48
425.36	1753.06
425.57	1802.21
425.78	1710.05
425.98	1714.15
426.19	1724.39
426.39	1658.85
426.60	1763.30
426.81	1806.31
427.01	1726.44
427.22	1632.23
427.42	1695.72
427.63	1626.09
427.83	1839.08
428.04	1830.88
428.25	1726.44
428.45	1837.03
428.66	1812.45
428.86	1773.54
429.07	1734.63
429.28	1769.44
429.48	1742.82
429.69	1689.57
429.89	1775.59
430.10	1630.18
430.30	1722.34
430.51	1757.16
430.71	1759.21
430.92	1695.72
431.13	1746.92
431.33	1828.84
431.54	1679.33
431.74	1861.60
431.95	1824.74
432.15	1687.53
432.36	1701.86
432.56	1777.64
432.77	1851.36
432.98	1904.61
433.18	1673.19
433.39	1771.49
433.59	1748.97
433.80	1779.68
434.00	1896.42
434.21	1703.91
434.41	1785.83
434.62	1845.22
434.82	1658.85
435.03	1642.47
435.23	1769.44
435.44	1626.09
435.64	1802.21
435.85	1705.96
436.06	1720.29
436.26	1738.73
436.47	1761.25
436.67	1724.39
436.88	1728.49
437.08	1775.59
437.29	1785.83
437.49	1771.49
437.70	1777.64
437.90	1740.77
438.11	1882.08
438.31	1851.36
438.52	1859.56
438.72	1888.23
438.93	1970.15
439.13	1773.54
439.34	1861.60
439.54	1783.78
439.75	1796.07
439.95	1789.92
440.16	1718.25
440.36	1816.55
440.57	1789.92
440.77	1761.25
440.98	1742.82
441.18	1755.11
441.39	1730.53
441.59	1726.44
441.80	1746.92
442.00	1683.43
442.21	1843.17
442.41	1644.52
442.62	1759.21
442.82	1708.01
443.02	1740.77
443.23	1722.34
443.43	1757.16
443.64	1802.21
443.84	1722.34
444.05	1808.36
444.25	1710.05
444.46	1726.44
444.66	1734.63
444.87	1791.97
445.07	1624.04
445.28	1714.15
445.48	1849.32
445.69	1775.59
445.89	1888.23
446.09	1787.88
446.30	1980.39
446.50	2729.94
446.71	3719.11
446.91	4229.06
447.12	4743.10
447.32	4923.32
447.53	4347.84
447.73	3749.83
447.93	3571.66
448.14	3330.00
448.34	3225.55
448.55	2826.20
448.75	2713.56
448.96	2645.98
449.16	2445.27
449.36	2254.81
449.57	2015.20
449.77	1943.52
449.98	1855.46
450.18	1849.32
450.39	1869.80
450.59	1710.05
450.79	1779.68
451.00	1699.81
451.20	1779.68
451.41	1687.53
451.61	1783.78
451.81	1726.44
452.02	1781.73
452.22	1837.03
452.43	1761.25
452.63	1714.15
452.84	1794.02
453.04	1755.11
453.24	1730.53
453.45	1738.73
453.65	1710.05
453.86	1744.87
454.06	1699.81
454.26	1775.59
454.47	1673.19
454.67	1800.16
454.87	1771.49
455.08	1701.86
455.28	1900.52
455.49	1751.01
455.69	1693.67
455.89	1880.04
456.10	1857.51
456.30	1681.38
456.51	1759.21
456.71	1845.22
456.91	1724.39
457.12	1738.73
457.32	1751.01
457.52	1638.38
457.73	1869.80
457.93	1785.83
458.14	1679.33
458.34	1626.09
458.54	1722.34
458.75	1744.87
458.95	1779.68
459.15	1718.25
459.36	1771.49
459.56	1755.11
459.76	1914.85
459.97	1712.10
460.17	1851.36
460.37	1816.55
460.58	1724.39
460.78	1767.40
460.99	1755.11
461.19	1830.88
461.39	1689.57
461.60	1759.21
461.80	1652.71
462.00	1708.01
462.21	1720.29
462.41	1767.40
462.61	1665.00
462.82	1656.81
463.02	1787.88
463.22	1667.05
463.43	1808.36
463.63	1789.92
463.83	1777.64
464.04	1751.01
464.24	1658.85
464.44	1691.62
464.64	1744.87
464.85	1783.78
465.05	1787.88
465.25	1828.84
465.46	1609.70
465.66	1804.26
465.86	1785.83
466.07	1648.61
466.27	1742.82
466.47	1638.38
466.68	1662.95
466.88	1843.17
467.08	1759.21
467.29	1814.50
467.49	1814.50
467.69	1681.38
467.89	1798.12
468.10	1646.57
468.30	1726.44
468.50	1834.98
468.71	1796.07
468.91	1554.41
469.11	1839.08
469.31	1763.30
469.52	1693.67
469.72	1787.88
469.92	1818.60
470.13	1660.90
470.33	1755.11
470.53	1738.73
470.73	2170.85
470.94	2306.01
471.14	2369.50
471.34	2580.44
471.54	2349.02
471.75	2222.05
471.95	2142.18
472.15	2076.64
472.36	2072.54
472.56	2107.36
472.76	2060.26
472.96	1996.77
473.17	1976.29
473.37	1910.75
473.57	1769.44
473.77	1841.12
473.98	1769.44
474.18	1660.90
474.38	1849.32
474.58	1748.97
474.79	1816.55
474.99	1673.19
475.19	1820.64
475.39	1705.96
475.60	1779.68
475.80	1753.06
476.00	1769.44
476.20	1687.53
476.41	1759.21
476.61	1789.92
476.81	1890.28
477.01	1695.72
477.21	1884.13
477.42	1720.29
477.62	1736.68
477.82	1734.63
478.02	1744.87
478.23	1722.34
478.43	1730.53
478.63	1757.16
478.83	1763.30
479.03	1671.14
479.24	1769.44
479.44	1800.16
479.64	1593.32
479.84	1636.33
480.04	1656.81
480.25	1779.68
480.45	1671.14
480.65	1761.25
480.85	1808.36
481.06	1789.92
481.26	1765.35
481.46	1746.92
481.66	1781.73
481.86	1634.28
482.06	1785.83
482.27	1804.26
482.47	1656.81
482.67	1849.32
482.87	1699.81
483.07	1787.88
483.28	1636.33
483.48	1656.81
483.68	1673.19
483.88	1652.71
484.08	1615.85
484.29	1693.67
484.49	1753.06
484.69	1720.29
484.89	1808.36
485.09	1710.05
485.29	1712.10
485.50	1697.77
485.70	1742.82
485.90	1734.63
486.10	1722.34
486.30	1826.79
486.50	1759.21
486.71	1767.40
486.91	1800.16
487.11	1748.97
487.31	1650.66
487.51	1783.78
487.71	1714.15
487.91	1669.09
488.12	1652.71
488.32	1669.09
488.52	1699.81
488.72	1675.24
488.92	1726.44
489.12	1777.64
489.32	1796.07
489.53	1699.81
489.73	1613.80
489.93	1810.40
490.13	1681.38
490.33	1660.90
490.53	1824.74
490.73	1748.97
490.94	1714.15
491.14	1742.82
491.34	1855.46
491.54	2123.74
491.74	2559.96
491.94	2811.86
492.14	2942.93
492.34	3018.71
492.54	2777.05
492.75	2516.95
492.95	2531.29
493.15	2363.36
493.35	2230.24
493.55	2179.04
493.75	2179.04
493.95	2164.70
494.15	2009.06
494.35	1882.08
494.56	1894.37
494.76	1718.25
494.96	1828.84
495.16	1802.21
495.36	1781.73
495.56	1744.87
495.76	1705.96
495.96	1757.16
496.16	1724.39
496.36	1828.84
496.56	1773.54
496.77	1771.49
496.97	1751.01
497.17	1771.49
497.37	1671.14
497.57	1783.78
497.77	1789.92
497.97	1730.53
498.17	1796.07
498.37	1751.01
498.57	1767.40
498.77	1648.61
498.97	1779.68
499.17	1859.56
499.38	1722.34
499.58	1812.45
499.78	1787.88
499.98	1759.21
500.18	1726.44
500.38	1740.77
500.58	1931.23
500.78	2508.76
500.98	4536.25
501.18	5717.93
501.38	6834.07
501.58	7167.89
501.78	6655.90
501.98	5621.67
502.18	4921.27
502.38	4392.89
502.58	4085.70
502.78	3887.04
502.98	3518.41
503.18	3436.49
503.38	3221.45
503.59	2848.72
503.79	2666.46
503.99	2639.83
504.19	2328.54
504.39	2215.90
504.59	2183.13
504.79	2133.98
504.99	2131.94
505.19	1906.66
505.39	1912.80
505.59	1943.52
505.79	1949.67
505.99	1814.50
506.19	1794.02
506.39	1918.95
506.59	1714.15
506.79	1740.77
506.99	1888.23
507.19	1779.68
507.39	1740.77
507.59	1789.92
507.79	1712.10
507.99	1691.62
508.19	1730.53
508.39	1746.92
508.59	1665.00
508.79	1853.41
508.99	1826.79
509.19	1656.81
509.39	1738.73
509.59	1701.86
509.79	1701.86
509.99	1722.34
510.19	1841.12
510.39	1708.01
510.59	1763.30
510.79	1681.38
510.99	1611.75
511.19	1757.16
511.39	1802.21
511.59	1789.92
511.79	1857.51
511.99	1656.81
512.19	1812.45
512.38	1738.73
512.58	1785.83
512.78	1783.78
512.98	1783.78
513.18	1751.01
513.38	1624.04
513.58	1828.84
513.78	1728.49
513.98	1703.91
514.18	1673.19
514.38	1753.06
514.58	1716.20
514.78	1740.77
514.98	1689.57
515.18	1722.34
515.38	1689.57
515.58	1798.12
515.78	1728.49
515.98	1779.68
516.18	1804.26
516.38	1789.92
516.57	1650.66
516.77	1671.14
516.97	1832.93
517.17	1708.01
517.37	1654.76
517.57	1671.14
517.77	1740.77
517.97	1708.01
518.17	1787.88
518.37	1570.79
518.57	1748.97
518.77	1708.01
518.97	1734.63
519.16	1775.59
519.36	1783.78
519.56	1691.62
519.76	1736.68
519.96	1769.44
520.16	1849.32
520.36	1652.71
520.56	1779.68
520.76	1714.15
520.96	1765.35
521.16	1720.29
521.35	1783.78
521.55	1806.31
521.75	1755.11
521.95	1658.85
522.15	1798.12
522.35	1708.01
522.55	1708.01
522.75	1738.73
522.95	1767.40
523.14	1619.94
523.34	1794.02
523.54	1677.29
523.74	1734.63
523.94	1744.87
524.14	1718.25
524.34	1708.01
524.54	1820.64
524.73	1681.38
524.93	1734.63
525.13	1726.44
525.33	1654.76
525.53	1877.99
525.73	1673.19
525.93	1775.59
526.13	1796.07
526.32	1769.44
526.52	1808.36
526.72	1726.44
526.92	1785.83
527.12	1738.73
527.32	1650.66
527.52	1738.73
527.71	1789.92
527.91	1812.45
528.11	1701.86
528.31	1730.53
528.51	1644.52
528.71	1759.21
528.90	1773.54
529.10	1816.55
529.30	1796.07
529.50	1691.62
529.70	1720.29
529.90	1755.11
530.09	1728.49
530.29	1691.62
530.49	1769.44
530.69	1818.60
530.89	1757.16
531.09	1845.22
531.28	1734.63
531.48	1800.16
531.68	1708.01
531.88	1777.64
532.08	1753.06
532.28	1732.58
532.47	1736.68
532.67	1775.59
532.87	1794.02
533.07	1693.67
533.27	1783.78
533.46	1826.79
533.66	1791.97
533.86	1751.01
534.06	1726.44
534.26	1779.68
534.45	1708.01
534.65	1785.83
534.85	1734.63
535.05	1665.00
535.25	1804.26
535.44	1699.81
535.64	1785.83
535.84	1677.29
536.04	1632.23
536.24	1640.42
536.43	1740.77
536.63	1787.88
536.83	1781.73
537.03	1722.34
537.22	1679.33
537.42	1632.23
537.62	1775.59
537.82	1675.24
538.02	1843.17
538.21	1730.53
538.41	1863.65
538.61	1738.73
538.81	1777.64
539.00	1855.46
539.20	1644.52
539.40	1734.63
539.60	1724.39
539.79	1757.16
539.99	1781.73
540.19	1611.75
540.39	1722.34
540.58	1765.35
540.78	1830.88
540.98	1730.53
541.18	1777.64
541.37	1722.34
541.57	1695.72
541.77	1796.07
541.97	1683.43
542.16	1687.53
542.36	1787.88
542.56	1714.15
542.76	1890.28
542.95	1753.06
543.15	1812.45
543.35	1794.02
543.54	1681.38
543.74	1779.68
543.94	1808.36
544.14	1748.97
544.33	1759.21
544.53	1708.01
544.73	1691.62
544.93	1697.77
545.12	1662.95
545.32	1771.49
545.52	1697.77
545.71	1724.39
545.91	1773.54
546.11	1742.82
546.30	1640.42
546.50	1734.63
546.70	1826.79
546.90	1791.97
547.09	1710.05
547.29	1777.64
547.49	1751.01
547.68	1796.07
547.88	1720.29
548.08	1789.92
548.27	2172.89
548.47	1775.59
548.67	1757.16
548.87	1800.16
549.06	1658.85
549.26	1722.34
549.46	1804.26
549.65	1736.68
549.85	1767.40
550.05	1683.43
550.24	1636.33
550.44	1765.35
550.64	1742.82
550.83	1755.11
551.03	1794.02
551.23	1839.08
551.42	1818.60
551.62	1765.35
551.82	1751.01
552.01	1791.97
552.21	1763.30
552.41	1767.40
552.60	1755.11
552.80	1767.40
553.00	1796.07
553.19	1673.19
553.39	1882.08
553.59	1722.34
553.78	1769.44
553.98	1828.84
554.17	1658.85
554.37	1757.16
554.57	1759.21
554.76	1628.14
554.96	1710.05
555.16	1798.12
555.35	1722.34
555.55	1763.30
555.75	1699.81
555.94	1818.60
556.14	1603.56
556.33	1798.12
556.53	1712.10
556.73	1726.44
556.92	1837.03
557.12	1810.40
557.32	1828.84
557.51	1845.22
557.71	1712.10
557.90	1812.45
558.10	1851.36
558.30	1724.39
558.49	1738.73
558.69	1681.38
558.88	1802.21
559.08	1730.53
559.28	1716.20
559.47	1714.15
559.67	1857.51
559.86	1871.84
560.06	1734.63
560.26	1751.01
560.45	1734.63
560.65	1718.25
560.84	1880.04
561.04	1701.86
561.24	1810.40
561.43	1712.10
561.63	1771.49
561.82	1746.92
562.02	1763.30
562.22	1679.33
562.41	1675.24
562.61	1744.87
562.80	1714.15
563.00	1873.89
563.19	1714.15
563.39	1724.39
563.59	1771.49
563.78	1679.33
563.98	1607.66
564.17	1765.35
564.37	1685.48
564.56	1748.97
564.76	1726.44
564.96	1857.51
565.15	1804.26
565.35	1943.52
565.54	1726.44
565.74	1755.11
565.93	1767.40
566.13	1734.63
566.32	1845.22
566.52	1847.27
566.71	1796.07
566.91	1877.99
567.11	1716.20
567.30	1728.49
567.50	1800.16
567.69	1724.39
567.89	1722.34
568.08	1632.23
568.28	1775.59
568.47	1726.44
568.67	1710.05
568.86	1781.73
569.06	1746.92
569.25	1765.35
569.45	1767.40
569.64	1722.34
569.84	1744.87
570.04	1701.86
570.23	1726.44
570.43	1724.39
570.62	1742.82
570.82	1867.75
571.01	1660.90
571.21	1699.81
571.40	1685.48
571.60	1849.32
571.79	1761.25
571.99	1796.07
572.18	1689.57
572.38	1812.45
572.57	1667.05
572.77	1751.01
572.96	1867.75
573.16	1804.26
573.35	1708.01
573.55	1796.07
573.74	1710.05
573.94	1714.15
574.13	1781.73
574.33	1826.79
574.52	1841.12
574.71	1796.07
574.91	1783.78
575.10	1665.00
575.30	1699.81
575.49	1742.82
575.69	1701.86
575.88	1775.59
576.08	1693.67
576.27	1849.32
576.47	1796.07
576.66	1843.17
576.86	1837.03
577.05	1781.73
577.25	1767.40
577.44	1877.99
577.64	1716.20
577.83	1773.54
578.02	1699.81
578.22	1828.84
578.41	1869.80
578.61	1693.67
578.80	1689.57
579.00	1789.92
579.19	1710.05
579.39	1871.84
579.58	1746.92
579.77	1822.69
579.97	1820.64
580.16	1832.93
580.36	1892.32
580.55	1830.88
580.75	1820.64
580.94	1673.19
581.13	1832.93
581.33	1863.65
581.52	1767.40
581.72	1886.18
581.91	1890.28
582.11	1746.92
582.30	1689.57
582.49	1734.63
582.69	1808.36
582.88	1748.97
583.08	1761.25
583.27	1853.41
583.47	1703.91
583.66	1746.92
583.85	1669.09
584.05	1763.30
584.24	1748.97
584.44	1822.69
584.63	1804.26
584.82	1832.93
585.02	1804.26
585.21	1863.65
585.41	1841.12
585.60	1804.26
585.79	2000.87
585.99	1927.14
586.18	1834.98
586.37	2195.42
586.57	3399.63
586.76	9998.18
586.96	24362.64
587.15	34119.16
587.34	40295.83
587.54	42034.56
587.73	36330.97
587.93	26267.25
588.12	21393.08
588.31	17895.15
588.51	16142.09
588.70	15111.96
588.89	13969.19
589.09	12408.64
589.28	11069.27
589.47	9383.79
589.67	8042.37
589.86	6395.81
590.06	4880.31
590.25	3905.48
590.44	3043.28
590.64	2490.33
590.83	2242.53
591.02	2099.17
591.22	1970.15
591.41	1896.42
591.60	1822.69
591.80	1935.33
591.99	1779.68
592.18	1843.17
592.38	1845.22
592.57	1777.64
592.76	1853.41
592.96	1822.69
593.15	1722.34
593.34	1839.08
593.54	1802.21
593.73	1877.99
593.92	1771.49
594.12	1765.35
594.31	1765.35
594.50	1812.45
594.70	1845.22
594.89	1959.91
595.08	1775.59
595.28	1763.30
595.47	1902.56
595.66	1886.18
595.86	1671.14
596.05	1763.30
596.24	1734.63
596.43	1843.17
596.63	1814.50
596.82	1779.68
597.01	1832.93
597.21	1855.46
597.40	1705.96
597.59	1773.54
597.79	1796.07
597.98	1755.11
598.17	1785.83
598.36	1767.40
598.56	1789.92
598.75	1701.86
598.94	1730.53
599.14	1699.81
599.33	1732.58
599.52	1822.69
599.71	1771.49
599.91	1800.16
600.10	1826.79
600.29	1689.57
600.48	1822.69
600.68	1898.47
600.87	1794.02
601.06	1697.77
601.26	1695.72
601.45	1812.45
601.64	1665.00
601.83	1785.83
602.03	1677.29
602.22	1607.66
602.41	1806.31
602.60	1867.75
602.80	1849.32
602.99	1765.35
603.18	1710.05
603.37	1787.88
603.57	1746.92
603.76	1814.50
603.95	1818.60
604.14	1726.44
604.34	1652.71
604.53	1718.25
604.72	1791.97
604.91	1775.59
605.10	1812.45
605.30	1746.92
605.49	1886.18
605.68	1761.25
605.87	1787.88
606.07	1701.86
606.26	1789.92
606.45	1712.10
606.64	1755.11
606.84	1652.71
607.03	1738.73
607.22	1873.89
607.41	1691.62
607.60	1714.15
607.80	1824.74
607.99	1697.77
608.18	1728.49
608.37	1751.01
608.56	1734.63
608.76	1771.49
608.95	1873.89
609.14	1742.82
609.33	1822.69
609.52	1777.64
609.72	1648.61
609.91	1796.07
610.10	1742.82
610.29	1910.75
610.48	1877.99
610.68	1751.01
610.87	1689.57
611.06	1683.43
611.25	1757.16
611.44	1830.88
611.63	1689.57
611.83	1763.30
612.02	1589.22
612.21	1787.88
612.40	1626.09
612.59	1732.58
612.79	1693.67
612.98	1665.00
613.17	1841.12
613.36	1740.77
613.55	1771.49
613.74	1736.68
613.93	1718.25
614.13	1742.82
614.32	1736.68
614.51	1742.82
614.70	1699.81
614.89	1724.39
615.08	1742.82
615.28	1994.72
615.47	1687.53
615.66	1781.73
615.85	1726.44
616.04	1804.26
616.23	1710.05
616.42	1771.49
616.62	1779.68
616.81	1712.10
617.00	1718.25
617.19	1718.25
617.38	1755.11
617.57	1697.77
617.76	1787.88
617.95	1685.48
618.15	1693.67
618.34	1734.63
618.53	1648.61
618.72	1791.97
618.91	1804.26
619.10	1849.32
619.29	1718.25
619.48	1718.25
619.68	1687.53
619.87	1787.88
620.06	1728.49
620.25	1708.01
620.44	1619.94
620.63	1714.15
620.82	1693.67
621.01	1748.97
621.20	1720.29
621.39	1761.25
621.59	1767.40
621.78	1687.53
621.97	1748.97
622.16	1826.79
622.35	1716.20
622.54	1726.44
622.73	1853.41
622.92	1703.91
623.11	1837.03
623.30	1693.67
623.49	1722.34
623.68	1677.29
623.88	1853.41
624.07	1773.54
624.26	1697.77
624.45	1728.49
624.64	1683.43
624.83	1701.86
625.02	1769.44
625.21	1759.21
625.40	1748.97
625.59	1896.42
625.78	1697.77
625.97	1783.78
626.16	1785.83
626.35	1853.41
626.54	1728.49
626.74	1791.97
626.93	1728.49
627.12	1755.11
627.31	1822.69
627.50	1748.97
627.69	1761.25
627.88	1685.48
628.07	1734.63
628.26	1628.14
628.45	1693.67
628.64	1738.73
628.83	1755.11
629.02	1677.29
629.21	1806.31
629.40	1705.96
629.59	1619.94
629.78	1771.49
629.97	1685.48
630.16	1724.39
630.35	1660.90
630.54	1730.53
630.73	1736.68
630.92	1714.15
631.11	1691.62
631.30	1738.73
631.49	1785.83
631.68	1712.10
631.87	1718.25
632.06	1667.05
632.25	1894.37
632.44	1748.97
632.63	1693.67
632.82	1673.19
633.01	1732.58
633.20	1701.86
633.39	1667.05
633.58	1728.49
633.77	1705.96
633.96	1728.49
634.15	1812.45
634.34	1726.44
634.53	1816.55
634.72	1751.01
634.91	1626.09
635.10	1775.59
635.29	1767.40
635.48	1724.39
635.67	1720.29
635.86	1650.66
636.05	1808.36
636.24	1736.68
636.43	1728.49
636.62	1708.01
636.81	1605.61
637.00	1675.24
637.19	1716.20
637.38	1673.19
637.57	1726.44
637.76	1720.29
637.95	1773.54
638.14	1642.47
638.33	1640.42
638.52	1734.63
638.71	1652.71
638.89	1718.25
639.08	1800.16
639.27	1765.35
639.46	1716.20
639.65	1818.60
639.84	1724.39
640.03	1763.30
640.22	1687.53
640.41	1837.03
640.60	1751.01
640.79	1689.57
640.98	1785.83
641.17	1769.44
641.36	1820.64
641.55	1724.39
641.74	1654.76
641.92	1574.89
642.11	1656.81
642.30	1675.24
642.49	1673.19
642.68	1693.67
642.87	1767.40
643.06	1798.12
643.25	1718.25
643.44	1611.75
643.63	1673.19
643.82	1757.16
644.00	1722.34
644.19	1808.36
644.38	1630.18
644.57	1810.40
644.76	1746.92
644.95	1695.72
645.14	1697.77
645.33	1703.91
645.52	1726.44
645.71	1687.53
645.89	1687.53
646.08	1693.67
646.27	1720.29
646.46	1755.11
646.65	1628.14
646.84	1738.73
647.03	1632.23
647.22	1753.06
647.40	1683.43
647.59	1644.52
647.78	1624.04
647.97	1689.57
648.16	1740.77
648.35	1775.59
648.54	1761.25
648.73	1804.26
648.91	1718.25
649.10	1712.10
649.29	1681.38
649.48	1703.91
649.67	1769.44
649.86	1697.77
650.05	1726.44
650.23	1820.64
650.42	1705.96
650.61	1826.79
650.80	1744.87
650.99	1900.52
651.18	1751.01
651.36	1796.07
651.55	1656.81
651.74	1765.35
651.93	1640.42
652.12	1679.33
652.31	1699.81
652.49	1693.67
652.68	1681.38
652.87	1771.49
653.06	1740.77
653.25	1890.28
653.44	1675.24
653.62	1806.31
653.81	1652.71
654.00	1746.92
654.19	1724.39
654.38	1955.81
654.56	1746.92
654.75	1773.54
654.94	1767.40
655.13	1757.16
655.32	1738.73
655.51	1800.16
655.69	1673.19
655.88	1814.50
656.07	1693.67
656.26	1693.67
656.45	1794.02
656.63	1746.92
656.82	1796.07
657.01	1773.54
657.20	1722.34
657.38	1800.16
657.57	1644.52
657.76	1667.05
657.95	1765.35
658.14	1699.81
658.32	1675.24
658.51	1681.38
658.70	1751.01
658.89	1787.88
659.08	1755.11
659.26	1822.69
659.45	1665.00
659.64	1748.97
659.83	1716.20
660.01	1892.32
660.20	1757.16
660.39	1814.50
660.58	1638.38
660.76	1783.78
660.95	1652.71
661.14	1728.49
661.33	1660.90
661.51	1691.62
661.70	1695.72
661.89	1816.55
662.08	1728.49
662.26	1679.33
662.45	1642.47
662.64	1800.16
662.83	1791.97
663.01	1689.57
663.20	1652.71
663.39	1814.50
663.58	1611.75
663.76	1722.34
663.95	1761.25
664.14	1693.67
664.32	1712.10
664.51	1771.49
664.70	1636.33
664.89	1738.73
665.07	1658.85
665.26	1810.40
665.45	1576.94
665.64	1804.26
665.82	1746.92
666.01	1689.57
666.20	1624.04
666.38	1785.83
666.57	1769.44
666.76	2234.33
666.95	4546.49
667.13	10604.38
667.32	15357.72
667.51	17981.17
667.69	19142.36
667.88	17882.86
668.07	12322.63
668.25	9422.70
668.44	8073.09
668.63	7272.34
668.81	6934.42
669.00	6289.31
669.19	5742.50
669.38	5044.15
669.56	4630.46
669.75	4022.21
669.94	3442.64
670.12	2998.23
670.31	2463.71
670.50	2207.71
670.68	2109.41
670.87	1931.23
671.06	1783.78
671.24	1847.27
671.43	1761.25
671.62	1763.30
671.80	1740.77
671.99	1826.79
672.18	1753.06
672.36	1724.39
672.55	1771.49
672.74	1742.82
672.92	1679.33
673.11	1787.88
673.29	1677.29
673.48	1730.53
673.67	1853.41
673.85	1865.70
674.04	1611.75
674.23	1779.68
674.41	1816.55
674.60	1648.61
674.79	1617.90
674.97	1654.76
675.16	1748.97
675.34	1638.38
675.53	1681.38
675.72	1751.01
675.90	1863.65
676.09	1724.39
676.28	1730.53
676.46	1695.72
676.65	1730.53
676.83	1710.05
677.02	1746.92
677.21	1757.16
677.39	1740.77
677.58	1638.38
677.77	1763.30
677.95	1642.47
678.14	1693.67
678.32	1681.38
678.51	1673.19
678.70	1816.55
678.88	1726.44
679.07	1740.77
679.25	1730.53
679.44	1695.72
679.63	1726.44
679.81	1720.29
680.00	1804.26
680.18	1744.87
680.37	1740.77
680.55	1757.16
680.74	1566.70
680.93	1617.90
681.11	1734.63
681.30	1806.31
681.48	1751.01
681.67	1773.54
681.85	1654.76
682.04	1673.19
682.23	1689.57
682.41	1701.86
682.60	1701.86
682.78	1679.33
682.97	1705.96
683.15	1720.29
683.34	1748.97
683.53	1763.30
683.71	1677.29
683.90	1767.40
684.08	1808.36
684.27	1746.92
684.45	1685.48
684.64	1767.40
684.82	1662.95
685.01	1761.25
685.19	1734.63
685.38	1871.84
685.57	1746.92
685.75	1720.29
685.94	1767.40
686.12	1689.57
686.31	1720.29
686.49	1771.49
686.68	1585.13
686.86	1687.53
687.05	1728.49
687.23	1814.50
687.42	1791.97
687.60	1802.21
687.79	1751.01
687.97	1800.16
688.16	1769.44
688.34	1773.54
688.53	1691.62
688.71	1744.87
688.90	1789.92
689.08	1714.15
689.27	1574.89
689.45	1755.11
689.64	1748.97
689.82	1699.81
690.01	1744.87
690.19	1765.35
690.38	1658.85
690.56	1810.40
690.75	1673.19
690.93	1652.71
691.12	1732.58
691.30	1806.31
691.49	1675.24
691.67	1705.96
691.86	1839.08
692.04	1730.53
692.23	1718.25
692.41	1716.20
692.60	1853.41
692.78	1855.46
692.97	1701.86
693.15	1806.31
693.34	1783.78
693.52	1787.88
693.71	1679.33
693.89	1755.11
694.08	1574.89
694.26	1730.53
694.44	1767.40
694.63	1765.35
694.81	1630.18
695.00	1624.04
695.18	1781.73
695.37	1857.51
695.55	1701.86
695.74	1777.64
695.92	1738.73
696.10	1837.03
696.29	1630.18
696.47	1589.22
696.66	1624.04
696.84	1718.25
697.03	1675.24
697.21	1853.41
697.40	2281.44
697.58	1787.88
697.76	1611.75
697.95	1714.15
698.13	1675.24
698.32	1701.86
698.50	1726.44
698.68	1712.10
698.87	1693.67
699.05	1779.68
699.24	1765.35
699.42	1634.28
699.61	1796.07
699.79	1718.25
699.97	1724.39
700.16	1665.00
700.34	1669.09
700.53	1693.67
700.71	1810.40
700.89	1855.46
701.08	1732.58
701.26	1734.63
701.45	2215.90
701.63	1738.73
701.81	1763.30
702.00	1716.20
702.18	1689.57
702.37	1681.38
702.55	1773.54
702.73	1738.73
702.92	1617.90
703.10	1734.63
703.28	1722.34
703.47	1689.57
703.65	1769.44
703.84	1751.01
704.02	1724.39
704.20	1798.12
704.39	1683.43
704.57	1787.88
704.75	1810.40
704.94	1771.49
705.12	1734.63
705.30	1853.41
705.49	2232.29
705.67	4360.13
705.86	9422.70
706.04	12339.01
706.22	14382.88
706.41	15077.15
706.59	13670.19
706.77	9475.95
706.96	7214.99
707.14	6571.93
707.32	5904.29
707.51	5517.23
707.69	4808.63
707.87	4194.24
708.06	3465.16
708.24	2889.68
708.42	2424.80
708.61	2215.90
708.79	1964.00
708.97	1920.99
709.16	1847.27
709.34	1789.92
709.52	1826.79
709.71	1742.82
709.89	1728.49
710.07	1728.49
710.26	1689.57
710.44	1710.05
710.62	1748.97
710.80	1751.01
710.99	1751.01
711.17	1789.92
711.35	1572.84
711.54	1759.21
711.72	1740.77
711.90	1675.24
712.09	1640.42
712.27	1671.14
712.45	1773.54
712.63	1652.71
712.82	1773.54
713.00	1632.23
713.18	1699.81
713.37	1816.55
713.55	1787.88
713.73	1785.83
713.91	1789.92
714.10	1724.39
714.28	1658.85
714.46	1748.97
714.65	1648.61
714.83	1687.53
715.01	1712.10
715.19	1683.43
715.38	1656.81
715.56	1810.40
715.74	1697.77
715.92	1658.85
716.11	1787.88
716.29	1613.80
716.47	1767.40
716.65	1701.86
716.84	1628.14
717.02	1820.64
717.20	1673.19
717.38	1648.61
717.57	1720.29
717.75	1779.68
717.93	1679.33
718.11	1781.73
718.30	1656.81
718.48	1759.21
718.66	1759.21
718.84	1791.97
719.03	1716.20
719.21	1640.42
719.39	1796.07
719.57	1683.43
719.75	1755.11
719.94	1718.25
720.12	1675.24
720.30	1748.97
720.48	1734.63
720.67	1746.92
720.85	1615.85
721.03	1736.68
721.21	1665.00
721.39	1771.49
721.58	1796.07
721.76	1783.78
721.94	1781.73
722.12	1798.12
722.30	1761.25
722.49	1730.53
722.67	1751.01
722.85	1783.78
723.03	1615.85
723.21	1765.35
723.40	1689.57
723.58	1765.35
723.76	1746.92
723.94	1779.68
724.12	1634.28
724.30	1796.07
724.49	1771.49
724.67	1654.76
724.85	1796.07
725.03	1716.20
725.21	1730.53
725.40	1791.97
725.58	1718.25
725.76	1779.68
725.94	1703.91
726.12	1712.10
726.30	1662.95
726.49	1746.92
726.67	1728.49
726.85	1708.01
727.03	1787.88
727.21	2174.94
727.39	2963.41
727.57	3776.45
727.76	4198.34
727.94	4474.81
728.12	4337.60
728.30	3649.48
728.48	3088.34
728.66	2731.99
728.84	2594.78
729.03	2369.50
729.21	2168.80
729.39	1986.53
729.57	1865.70
729.75	1851.36
729.93	1849.32
730.11	1787.88
730.30	1673.19
730.48	1724.39
730.66	1873.89
730.84	1748.97
731.02	1785.83
731.20	1656.81
731.38	1701.86
731.56	1619.94
731.74	1632.23
731.93	1712.10
732.11	1751.01
732.29	1724.39
732.47	1783.78
732.65	1699.81
732.83	1843.17
733.01	1787.88
733.19	1613.80
733.37	1724.39
733.56	1691.62
733.74	1665.00
733.92	1845.22
734.10	1619.94
734.28	1640.42
734.46	1648.61
734.64	1708.01
734.82	1681.38
735.00	1638.38
735.18	1746.92
735.36	1806.31
735.54	1701.86
735.73	1732.58
735.91	1708.01
736.09	1841.12
736.27	1703.91
736.45	1765.35
736.63	1624.04
736.81	1644.52
736.99	1722.34
737.17	1718.25
737.35	1724.39
737.53	1734.63
737.71	1658.85
737.89	1791.97
738.07	1648.61
738.25	1685.48
738.43	1591.27
738.61	1650.66
738.80	1660.90
738.98	1642.47
739.16	1669.09
739.34	1673.19
739.52	1779.68
739.70	1771.49
739.88	1714.15
740.06	1830.88
740.24	1597.42
740.42	1755.11
740.60	1624.04
740.78	1673.19
740.96	1685.48
741.14	1691.62
741.32	1658.85
741.50	1644.52
741.68	1869.80
741.86	1808.36
742.04	1695.72
742.22	1638.38
742.40	1714.15
742.58	1687.53
742.76	1634.28
742.94	1814.50
743.12	1642.47
743.30	1753.06
743.48	1769.44
743.66	1640.42
743.84	1814.50
744.02	1685.48
744.20	1757.16
744.38	1705.96
744.56	1675.24
744.74	1814.50
744.92	1734.63
745.10	1779.68
745.28	1753.06
745.46	1779.68
745.64	1683.43
745.82	1728.49
746.00	1714.15
746.18	1767.40
746.36	1753.06
746.54	1757.16
746.72	1701.86
746.90	1726.44
747.08	1789.92
747.26	1722.34
747.44	1699.81
747.62	1783.78
747.80	1681.38
747.98	1726.44
748.15	1718.25
748.33	1787.88
748.51	1783.78
748.69	1771.49
748.87	1675.24
749.05	1654.76
749.23	1708.01
749.41	1705.96
749.59	1703.91
749.77	1755.11
749.95	1699.81
750.13	1675.24
750.31	1769.44
750.49	1658.85
750.67	1751.01
750.85	1802.21
751.03	1773.54
751.20	1855.46
751.38	1697.77
751.56	1689.57
751.74	1695.72
751.92	1718.25
752.10	1660.90
752.28	1775.59
752.46	1681.38
752.64	1701.86
752.82	1728.49
753.00	1724.39
753.18	1746.92
753.35	1677.29
753.53	1656.81
753.71	1712.10
753.89	1691.62
754.07	1685.48
754.25	1814.50
754.43	1748.97
754.61	1591.27
754.79	1705.96
754.97	1693.67
755.14	1751.01
755.32	1652.71
755.50	1816.55
755.68	1748.97
755.86	1638.38
756.04	1673.19
756.22	1595.37
756.40	1687.53
756.57	1779.68
756.75	1658.85
756.93	1773.54
757.11	1746.92
757.29	1638.38
757.47	1777.64
757.65	1597.42
757.82	1628.14
758.00	1611.75
758.18	1695.72
758.36	1712.10
758.54	1863.65
758.72	1597.42
758.90	1708.01
759.07	1718.25
759.25	1632.23
759.43	1755.11
759.61	1708.01
759.79	2271.20
759.97	1730.53
760.15	1722.34
760.32	1710.05
760.50	1716.20
760.68	1695.72
760.86	1650.66
761.04	1757.16
761.22	1783.78
761.39	1730.53
761.57	1744.87
761.75	1716.20
761.93	1748.97
762.11	1800.16
762.28	1689.57
762.46	1691.62
762.64	1748.97
762.82	1662.95
763.00	1691.62
763.18	1759.21
763.35	1648.61
763.53	1753.06
763.71	1744.87
763.89	1824.74
764.07	1689.57
764.24	1640.42
764.42	1710.05
764.60	1636.33
764.78	1730.53
764.96	1814.50
765.13	1724.39
765.31	1628.14
765.49	1748.97
765.67	1619.94
765.84	1607.66
766.02	1673.19
766.20	1632.23
766.38	1665.00
766.56	1796.07
766.73	1746.92
766.91	1710.05
767.09	1732.58
767.27	1722.34
767.44	1654.76
767.62	1785.83
767.80	1685.48
767.98	1617.90
768.15	1734.63
768.33	1742.82
768.51	1775.59
768.69	1720.29
768.87	1757.16
769.04	1656.81
769.22	1853.41
769.40	1738.73
769.58	1865.70
769.75	1693.67
769.93	1834.98
770.11	1646.57
770.28	1675.24
770.46	1761.25
770.64	1744.87
770.82	1669.09
770.99	1775.59
771.17	1775.59
771.35	1722.34
771.53	1626.09
771.70	1689.57
771.88	1710.05
772.06	1673.19
772.23	1654.76
772.41	1775.59
772.59	1761.25
772.77	1589.22
772.94	1658.85
773.12	1767.40
773.30	1648.61
773.47	1738.73
773.65	1660.90
773.83	1726.44
774.01	1777.64
774.18	1636.33
774.36	1765.35
774.54	1626.09
774.71	1708.01
774.89	1593.32
775.07	1724.39
775.24	1654.76
775.42	1660.90
775.60	1769.44
775.78	1658.85
775.95	1646.57
776.13	1658.85
776.31	1591.27
776.48	1761.25
776.66	1771.49
776.84	1701.86
777.01	1677.29
777.19	1693.67
777.37	1720.29
777.54	1767.40
777.72	1789.92
777.90	1773.54
778.07	1697.77
778.25	1871.84
778.43	1751.01
778.60	1695.72
778.78	1722.34
778.96	1763.30
779.13	1722.34
779.31	1753.06
779.49	1689.57
779.66	1683.43
779.84	1755.11
780.01	1712.10
780.19	1662.95
780.37	1718.25
780.54	1734.63
780.72	1716.20
780.90	1699.81
781.07	1773.54
781.25	1681.38
781.43	1830.88
781.60	1595.37
781.78	1736.68
781.95	1759.21
782.13	1712.10
782.31	1767.40
782.48	1654.76
782.66	1730.53
782.83	1802.21
783.01	1802.21
783.19	1753.06
783.36	1656.81
783.54	1658.85
783.72	1816.55
783.89	1677.29
784.07	1710.05
784.24	1759.21
784.42	1771.49
784.60	1740.77
784.77	1781.73
784.95	1652.71
785.12	1656.81
785.30	1689.57
785.47	1677.29
785.65	1673.19
785.83	1744.87
786.00	1675.24
786.18	1671.14
786.35	1624.04
786.53	1630.18
786.71	1677.29
786.88	1687.53
787.06	1705.96
787.23	1665.00
787.41	1646.57
787.58	1738.73
787.76	1687.53
787.94	1716.20
788.11	1716.20
788.29	1640.42
788.46	1683.43
788.64	1648.61
788.81	1724.39
788.99	1591.27
789.16	1701.86
789.34	1660.90
789.52	1726.44
789.69	1671.14
789.87	1550.31
790.04	1646.57
790.22	1693.67
790.39	1740.77
790.57	1628.14
790.74	1673.19
790.92	1677.29
791.09	1693.67
791.27	1693.67
791.44	1712.10
791.62	1677.29
791.79	1730.53
791.97	1642.47
792.15	1865.70
792.32	1720.29
792.50	1716.20
792.67	1812.45
792.85	1724.39
793.02	1751.01
793.20	1726.44
793.37	1693.67
793.55	1656.81
793.72	1656.81
793.90	1763.30
794.07	1714.15
794.25	1665.00
794.42	1671.14
794.60	1736.68
794.77	1716.20
794.95	1800.16
795.12	1759.21
795.30	1703.91
795.47	1638.38
795.65	1861.60
795.82	1753.06
796.00	1673.19
796.17	1724.39
796.34	1757.16
796.52	1720.29
796.69	1791.97
796.87	1728.49
797.04	1708.01
797.22	1730.53
797.39	1753.06
797.57	1808.36
797.74	1703.91
797.92	1685.48
798.09	1662.95
798.27	1781.73
798.44	1759.21
798.62	1640.42
798.79	1765.35
798.96	1658.85
799.14	1748.97
799.31	1863.65
799.49	1744.87
799.66	1621.99
799.84	1691.62
800.01	1642.47
800.19	1652.71
800.36	1662.95
800.53	1722.34
800.71	1714.15
800.88	1796.07
801.06	1624.04
801.23	1748.97
801.41	1681.38
801.58	1667.05
801.75	1701.86
801.93	1755.11
802.10	1777.64
802.28	1730.53
802.45	1744.87
802.63	1822.69
802.80	1755.11
802.97	1710.05
803.15	1763.30
803.32	1730.53
803.50	1585.13
803.67	1656.81
803.84	1636.33
804.02	1730.53
804.19	1695.72
804.37	1648.61
804.54	1734.63
804.71	1744.87
804.89	1683.43
805.06	1691.62
805.24	1611.75
805.41	1617.90
805.58	1662.95
805.76	1847.27
805.93	1648.61
806.10	1855.46
806.28	1751.01
806.45	1742.82
806.63	1695.72
806.80	1740.77
806.97	1722.34
807.15	1695.72
807.32	1718.25
807.49	1746.92
807.67	1669.09
807.84	1685.48
808.01	1656.81
808.19	1771.49
808.36	1845.22
808.54	1746.92
808.71	1617.90
808.88	1710.05
809.06	1744.87
809.23	1830.88
809.40	1619.94
809.58	1724.39
809.75	1724.39
809.92	1667.05
810.10	1875.94
810.27	1769.44
810.44	1742.82
810.62	1726.44
810.79	1746.92
810.96	1697.77
811.14	1667.05
811.31	1767.40
811.48	1681.38
811.66	1738.73
811.83	1822.69
812.00	1779.68
812.18	1742.82
812.35	1806.31
812.52	1736.68
812.69	1687.53
812.87	1710.05
813.04	1683.43
813.21	1712.10
813.39	1679.33
813.56	1544.17
813.73	1708.01
813.91	1648.61
814.08	1697.77
814.25	1746.92
814.42	1605.61
814.60	1714.15
814.77	1775.59
814.94	1660.90
815.12	1691.62
815.29	1810.40
815.46	1724.39
815.63	1730.53
815.81	1673.19
815.98	1673.19
816.15	1703.91
816.33	1718.25
816.50	1687.53
816.67	1695.72
816.84	1689.57
817.02	1652.71
817.19	1669.09
817.36	1683.43
817.53	1773.54
817.71	1671.14
817.88	1777.64
818.05	1679.33
818.22	1665.00
818.40	1783.78
818.57	1632.23
818.74	1662.95
818.91	1726.44
819.09	1787.88
819.26	1802.21
819.43	1644.52
819.60	1751.01
819.78	1699.81
819.95	1769.44
820.12	1677.29
820.29	1746.92
820.47	1818.60
820.64	1724.39
820.81	1617.90
820.98	1607.66
821.15	1777.64
821.33	1744.87
821.50	1617.90
821.67	1732.58
821.84	1708.01
822.02	1728.49
822.19	1820.64
822.36	1607.66
822.53	1677.29
822.70	1591.27
822.88	1748.97
823.05	1804.26
823.22	1744.87
823.39	1828.84
823.56	1613.80
823.74	1779.68
823.91	1722.34
824.08	1585.13
824.25	1681.38
824.42	1761.25
824.60	1621.99
824.77	1714.15
824.94	1689.57
825.11	1755.11
825.28	1644.52
825.45	1740.77
825.63	1742.82
825.80	1605.61
825.97	1763.30
826.14	1683.43
826.31	1558.50
826.48	1730.53
826.66	1701.86
826.83	1673.19
827.00	1746.92
827.17	1609.70
827.34	1644.52
827.51	1718.25
827.69	1697.77
827.86	1681.38
828.03	1646.57
828.20	1757.16
828.37	1675.24
828.54	1746.92
828.71	1669.09
828.89	1748.97
829.06	1644.52
829.23	1834.98
829.40	1648.61
829.57	1605.61
829.74	1714.15
829.91	1677.29
830.09	1720.29
830.26	1734.63
830.43	1708.01
830.60	1611.75
830.77	1740.77
830.94	1839.08
831.11	1798.12
831.28	1591.27
831.46	1736.68
831.63	1681.38
831.80	1824.74
831.97	1757.16
832.14	1667.05
832.31	1744.87
832.48	1722.34
832.65	1773.54
832.82	1734.63
832.99	1824.74
833.17	1730.53
833.34	1839.08
833.51	1787.88
833.68	1673.19
833.85	1708.01
834.02	1656.81
834.19	1716.20
834.36	1619.94
834.53	1683.43
834.70	1800.16
834.87	1781.73
835.04	1710.05
835.22	1687.53
835.39	1669.09
835.56	1597.42
835.73	1648.61
835.90	1677.29
836.07	1626.09
836.24	1738.73
836.41	1712.10
836.58	1710.05
836.75	1742.82
836.92	1767.40
837.09	1626.09
837.26	1777.64
837.43	1708.01
837.60	1687.53
837.77	1675.24
837.94	1775.59
838.12	1763.30
838.29	1726.44
838.46	1630.18
838.63	1628.14
838.80	1820.64
838.97	1751.01
839.14	1689.57
839.31	1701.86
839.48	1744.87
839.65	1605.61
839.82	1619.94
839.99	1728.49
840.16	1699.81
840.33	1673.19
840.50	1710.05
840.67	1710.05
840.84	1619.94
841.01	1718.25
841.18	1687.53
841.35	1701.86
841.52	1730.53
841.69	1834.98
841.86	1712.10
842.03	1660.90
842.20	1783.78
842.37	1654.76
842.54	1673.19
842.71	1714.15
842.88	1667.05
843.05	1724.39
843.22	1648.61
843.39	1787.88
843.56	1712.10
843.73	1705.96
843.90	1759.21
844.07	1730.53
844.24	1771.49
844.41	1798.12
844.58	1783.78
844.75	1759.21
844.92	1697.77
845.09	1728.49
845.26	1718.25
845.43	1669.09
845.60	1714.15
845.77	1710.05
845.94	1693.67
846.10	1722.34
846.27	1591.27
846.44	1665.00
846.61	1660.90
846.78	1748.97
846.95	1781.73
847.12	1665.00
847.29	1740.77
847.46	1609.70
847.63	1816.55
847.80	1701.86
847.97	1710.05
848.14	1843.17
848.31	1632.23
848.48	1652.71
848.65	1757.16
848.82	1652.71
848.98	1779.68
849.15	1685.48
849.32	1755.11
849.49	1732.58
849.66	1667.05
849.83	1746.92
850.00	1624.04
850.17	1742.82
850.34	1689.57
850.51	1671.14
850.68	1648.61
850.85	1845.22
851.01	1744.87
851.18	1765.35
851.35	1667.05
851.52	1705.96
851.69	1763.30
851.86	1535.98
852.03	1716.20
852.20	1779.68
852.37	1660.90
852.53	1644.52
852.70	1683.43
852.87	1679.33
853.04	1738.73
853.21	1738.73
853.38	1763.30
853.55	1804.26
853.72	1826.79
853.89	1738.73
854.05	1675.24
854.22	1691.62
854.39	1726.44
854.56	1771.49
854.73	1755.11
854.90	1687.53
855.07	1705.96
855.23	1619.94
855.40	1660.90
855.57	1736.68
855.74	1578.98
855.91	1912.80
856.08	1626.09
856.25	1566.70
856.41	1636.33
856.58	1617.90
856.75	1677.29
856.92	1644.52
857.09	1763.30
857.26	1587.18
857.42	1716.20
857.59	1705.96
857.76	1683.43
857.93	1773.54
858.10	1703.91
858.27	1605.61
858.43	1679.33
858.60	1693.67
858.77	1695.72
858.94	1665.00
859.11	1767.40
859.27	1675.24
859.44	1656.81
859.61	1730.53
859.78	1734.63
859.95	1687.53
860.12	1595.37
860.28	1753.06
860.45	1755.11
860.62	1662.95
860.79	1726.44
860.95	1765.35
861.12	1636.33
861.29	1714.15
861.46	1585.13
861.63	1685.48
861.79	1710.05
861.96	1701.86
862.13	1693.67
862.30	1761.25
862.47	1697.77
862.63	1648.61
862.80	1755.11
862.97	1759.21
863.14	1728.49
863.30	1804.26
863.47	1669.09
863.64	1863.65
863.81	1748.97
863.97	1683.43
864.14	1597.42
864.31	1681.38
864.48	1755.11
864.65	1705.96
864.81	1697.77
864.98	1796.07
865.15	1683.43
865.32	1716.20
865.48	1742.82
865.65	1748.97
865.82	1652.71
865.98	1738.73
866.15	1716.20
866.32	1714.15
866.49	1669.09
866.65	1804.26
866.82	1593.32
866.99	1679.33
867.16	1658.85
867.32	1718.25
867.49	1740.77
867.66	1619.94
867.83	1619.94
867.99	1644.52
868.16	1720.29
868.33	1607.66
868.49	1685.48
868.66	1689.57
868.83	1751.01
868.99	1732.58
869.16	1720.29
869.33	1744.87
869.50	1771.49
869.66	1732.58
869.83	1705.96
870.00	1648.61
870.16	1798.12
870.33	1673.19
870.50	1755.11
870.66	1687.53
870.83	1857.51
871.00	1703.91
871.17	1720.29
871.33	1742.82
871.50	1708.01
871.67	1697.77
871.83	1593.32
872.00	1748.97
872.17	1619.94
872.33	1798.12
872.50	1726.44
872.67	1738.73
872.83	1699.81
873.00	1763.30
873.17	1775.59
873.33	1755.11
873.50	1751.01
873.67	1722.34
873.83	1640.42
874.00	1646.57
874.16	1755.11
874.33	1689.57
874.50	1671.14
874.66	1759.21
874.83	1734.63
875.00	1751.01
875.16	1755.11
875.33	1759.21
875.50	1583.08
875.66	1701.86
875.83	1636.33
875.99	1720.29
876.16	1683.43
876.33	1673.19
876.49	1632.23
876.66	1839.08
876.83	1789.92
876.99	1652.71
877.16	1730.53
877.32	1654.76
877.49	1642.47
877.66	1708.01
877.82	1808.36
877.99	1746.92
878.15	1771.49
878.32	1689.57
878.49	1644.52
878.65	1648.61
878.82	1808.36
878.98	1703.91
879.15	1701.86
879.32	1767.40
879.48	1714.15
879.65	1714.15
879.81	1681.38
879.98	1648.61
880.15	1695.72
880.31	1796.07
880.48	1683.43
880.64	1736.68
880.81	1787.88
880.97	1814.50
881.14	1718.25
881.31	1699.81
881.47	1841.12
881.64	1687.53
881.80	1570.79
881.97	1691.62
882.13	1810.40
882.30	1605.61
882.47	1716.20
882.63	1628.14
882.80	1624.04
882.96	1628.14
883.13	1761.25
883.29	1755.11
883.46	1761.25
883.62	1796.07
883.79	1681.38
883.95	1697.77
884.12	1693.67
884.29	1753.06
884.45	1736.68
884.62	1734.63
884.78	1697.77
884.95	1771.49
885.11	1673.19
885.28	1691.62
885.44	1738.73
885.61	1726.44
885.77	1769.44
885.94	1742.82
886.10	1677.29
886.27	1751.01
886.43	1732.58
886.60	1806.31
886.76	1714.15
886.93	1736.68
887.09	1773.54
887.26	1632.23
887.42	1785.83
887.59	1726.44
887.75	1859.56
887.92	1787.88
888.08	1808.36
888.25	1802.21
888.41	1775.59
888.58	1683.43
888.74	1683.43
888.91	1621.99
>>>>>End Processed Spectral Data<<<<<
