SpectraSuite Data File
++++++++++++++++++++++++++++++++++++
Date: Mon Jun 06 17:03:37 CEST 2016
User: root
Dark Spectrum Present: No
Reference Spectrum Present: No
Number of Sampled Component Spectra: 1
Spectrometers: USB4C02835
Integration Time (usec): 100000 (USB4C02835)
Spectra Averaged: 1 (USB4C02835)
Boxcar Smoothing: 0 (USB4C02835)
Correct for Electrical Dark: No (USB4C02835)
Strobe/Lamp Enabled: No (USB4C02835)
Correct for Detector Non-linearity: No (USB4C02835)
Correct for Stray Light: No (USB4C02835)
Number of Pixels in Processed Spectrum: 3648
>>>>>Begin Processed Spectral Data<<<<<
177.47	1472.49
177.69	1472.49
177.91	1472.49
178.13	1458.15
178.36	1548.26
178.58	1644.52
178.80	1722.34
179.02	1617.90
179.24	1669.09
179.46	1669.09
179.68	1705.96
179.90	1675.24
180.13	1728.49
180.35	1726.44
180.57	1626.09
180.79	1794.02
181.01	1710.05
181.23	1787.88
181.45	1738.73
181.67	1726.44
181.90	1708.01
182.12	1675.24
182.34	1621.99
182.56	1718.25
182.78	1701.86
183.00	1730.53
183.22	1693.67
183.44	1599.46
183.66	1820.64
183.89	1773.54
184.11	1738.73
184.33	1771.49
184.55	1796.07
184.77	1714.15
184.99	1683.43
185.21	1687.53
185.43	1908.71
185.65	1691.62
185.87	1658.85
186.10	1806.31
186.32	1896.42
186.54	1667.05
186.76	1744.87
186.98	1742.82
187.20	1687.53
187.42	1679.33
187.64	1716.20
187.86	1691.62
188.08	1814.50
188.30	1662.95
188.52	1746.92
188.75	1746.92
188.97	1802.21
189.19	1632.23
189.41	1683.43
189.63	1724.39
189.85	1656.81
190.07	1650.66
190.29	1624.04
190.51	1740.77
190.73	1671.14
190.95	1806.31
191.17	1703.91
191.39	1671.14
191.61	1648.61
191.84	1656.81
192.06	1761.25
192.28	1615.85
192.50	1927.14
192.72	1730.53
192.94	1746.92
193.16	1769.44
193.38	1755.11
193.60	1671.14
193.82	1658.85
194.04	1777.64
194.26	1722.34
194.48	1691.62
194.70	1660.90
194.92	1722.34
195.14	1648.61
195.36	1714.15
195.58	1640.42
195.80	1681.38
196.02	1615.85
196.24	1724.39
196.46	1771.49
196.69	1687.53
196.91	1918.95
197.13	1658.85
197.35	1656.81
197.57	1677.29
197.79	1705.96
198.01	1761.25
198.23	1658.85
198.45	1673.19
198.67	1640.42
198.89	1710.05
199.11	1738.73
199.33	1662.95
199.55	1613.80
199.77	1593.32
199.99	1769.44
200.21	1634.28
200.43	1744.87
200.65	1636.33
200.87	1591.27
201.09	1708.01
201.31	1710.05
201.53	1751.01
201.75	1775.59
201.97	1738.73
202.19	1753.06
202.41	1769.44
202.63	1841.12
202.85	1671.14
203.07	1673.19
203.29	1679.33
203.51	1660.90
203.73	1615.85
203.95	1814.50
204.17	1726.44
204.39	1730.53
204.61	1751.01
204.83	1708.01
205.05	1742.82
205.27	1837.03
205.49	1892.32
205.71	1740.77
205.93	1628.14
206.15	1677.29
206.37	1685.48
206.59	1730.53
206.81	1617.90
207.03	1677.29
207.25	1632.23
207.47	1771.49
207.69	1710.05
207.91	1746.92
208.13	1791.97
208.34	1714.15
208.56	1626.09
208.78	1753.06
209.00	1669.09
209.22	1628.14
209.44	1675.24
209.66	1665.00
209.88	1693.67
210.10	1695.72
210.32	1763.30
210.54	1759.21
210.76	1646.57
210.98	1830.88
211.20	1652.71
211.42	1724.39
211.64	1759.21
211.86	1773.54
212.08	1728.49
212.30	1681.38
212.52	1791.97
212.74	1765.35
212.96	1779.68
213.17	1716.20
213.39	1708.01
213.61	1802.21
213.83	1714.15
214.05	1603.56
214.27	1783.78
214.49	1722.34
214.71	1705.96
214.93	1763.30
215.15	1763.30
215.37	1755.11
215.59	1640.42
215.81	1703.91
216.03	1730.53
216.24	1730.53
216.46	1689.57
216.68	1744.87
216.90	1744.87
217.12	1796.07
217.34	1724.39
217.56	1767.40
217.78	1814.50
218.00	1734.63
218.22	1726.44
218.44	1783.78
218.66	1730.53
218.87	1787.88
219.09	1673.19
219.31	1734.63
219.53	1763.30
219.75	1652.71
219.97	1718.25
220.19	1779.68
220.41	1650.66
220.63	1808.36
220.85	1757.16
221.06	1654.76
221.28	1785.83
221.50	1812.45
221.72	1759.21
221.94	1701.86
222.16	1746.92
222.38	1734.63
222.60	1771.49
222.82	1697.77
223.03	1785.83
223.25	1603.56
223.47	1796.07
223.69	1849.32
223.91	1697.77
224.13	1626.09
224.35	1722.34
224.57	1759.21
224.78	1740.77
225.00	1681.38
225.22	1748.97
225.44	1718.25
225.66	1746.92
225.88	1738.73
226.10	1832.93
226.32	1773.54
226.53	1787.88
226.75	1669.09
226.97	1781.73
227.19	1724.39
227.41	1669.09
227.63	1662.95
227.85	1621.99
228.06	1742.82
228.28	1665.00
228.50	1771.49
228.72	1626.09
228.94	1755.11
229.16	1607.66
229.37	1669.09
229.59	1671.14
229.81	1757.16
230.03	1691.62
230.25	1732.58
230.47	1677.29
230.69	1597.42
230.90	1705.96
231.12	1656.81
231.34	1689.57
231.56	1785.83
231.78	1646.57
232.00	1753.06
232.21	1691.62
232.43	1665.00
232.65	1681.38
232.87	1857.51
233.09	1613.80
233.30	1615.85
233.52	1658.85
233.74	1671.14
233.96	1705.96
234.18	1767.40
234.40	1722.34
234.61	1806.31
234.83	1619.94
235.05	1609.70
235.27	1767.40
235.49	1832.93
235.70	1742.82
235.92	1814.50
236.14	1705.96
236.36	1820.64
236.58	1671.14
236.79	1748.97
237.01	1681.38
237.23	1726.44
237.45	1841.12
237.67	1730.53
237.88	1800.16
238.10	1773.54
238.32	1675.24
238.54	1681.38
238.76	1685.48
238.97	1718.25
239.19	1693.67
239.41	1632.23
239.63	1775.59
239.85	1714.15
240.06	1697.77
240.28	1677.29
240.50	1726.44
240.72	1802.21
240.93	1630.18
241.15	1751.01
241.37	1787.88
241.59	1798.12
241.81	1630.18
242.02	1687.53
242.24	1685.48
242.46	1751.01
242.68	1662.95
242.89	1740.77
243.11	1769.44
243.33	1703.91
243.55	1640.42
243.76	1753.06
243.98	1660.90
244.20	1689.57
244.42	1732.58
244.64	1660.90
244.85	1662.95
245.07	1665.00
245.29	1789.92
245.51	1777.64
245.72	1720.29
245.94	1875.94
246.16	1705.96
246.38	1757.16
246.59	1673.19
246.81	1728.49
247.03	1671.14
247.24	1675.24
247.46	1744.87
247.68	1703.91
247.90	1632.23
248.11	1685.48
248.33	1806.31
248.55	1703.91
248.77	1667.05
248.98	1710.05
249.20	1828.84
249.42	1681.38
249.64	1689.57
249.85	1708.01
250.07	1626.09
250.29	1746.92
250.50	1703.91
250.72	1562.60
250.94	1708.01
251.16	1820.64
251.37	1716.20
251.59	1738.73
251.81	1777.64
252.02	1802.21
252.24	1656.81
252.46	1775.59
252.68	1630.18
252.89	1796.07
253.11	1548.26
253.33	1822.69
253.54	1847.27
253.76	1650.66
253.98	1738.73
254.20	1765.35
254.41	1708.01
254.63	1650.66
254.85	1667.05
255.06	1755.11
255.28	1697.77
255.50	1656.81
255.71	1669.09
255.93	1638.38
256.15	1673.19
256.36	1785.83
256.58	1665.00
256.80	1734.63
257.02	1695.72
257.23	1730.53
257.45	1767.40
257.67	1818.60
257.88	1677.29
258.10	1763.30
258.32	1759.21
258.53	1712.10
258.75	1839.08
258.97	1693.67
259.18	1724.39
259.40	1689.57
259.62	1814.50
259.83	1816.55
260.05	1814.50
260.27	1978.34
260.48	1775.59
260.70	1671.14
260.92	1673.19
261.13	1746.92
261.35	1738.73
261.57	1724.39
261.78	1597.42
262.00	1710.05
262.22	1761.25
262.43	1667.05
262.65	1759.21
262.86	1708.01
263.08	1828.84
263.30	1716.20
263.51	1619.94
263.73	1626.09
263.95	1839.08
264.16	1656.81
264.38	1703.91
264.60	1652.71
264.81	1728.49
265.03	1779.68
265.25	1767.40
265.46	1699.81
265.68	1773.54
265.89	1738.73
266.11	1665.00
266.33	1746.92
266.54	1691.62
266.76	1699.81
266.98	1804.26
267.19	1789.92
267.41	1732.58
267.62	1714.15
267.84	1628.14
268.06	1665.00
268.27	1646.57
268.49	1728.49
268.70	1769.44
268.92	1716.20
269.14	1685.48
269.35	1593.32
269.57	1710.05
269.79	1742.82
270.00	1701.86
270.22	1763.30
270.43	1679.33
270.65	1527.78
270.87	1689.57
271.08	1710.05
271.30	1738.73
271.51	1677.29
271.73	1775.59
271.95	1806.31
272.16	1798.12
272.38	1761.25
272.59	1716.20
272.81	1789.92
273.02	1679.33
273.24	1710.05
273.46	1808.36
273.67	1665.00
273.89	1671.14
274.10	1695.72
274.32	1855.46
274.54	1660.90
274.75	1789.92
274.97	1705.96
275.18	1755.11
275.40	1740.77
275.61	1695.72
275.83	1742.82
276.05	1568.74
276.26	1724.39
276.48	1720.29
276.69	1685.48
276.91	1619.94
277.12	1785.83
277.34	1802.21
277.55	1736.68
277.77	1695.72
277.99	1689.57
278.20	1730.53
278.42	1603.56
278.63	1587.18
278.85	1701.86
279.06	1593.32
279.28	1759.21
279.49	1761.25
279.71	1734.63
279.93	1748.97
280.14	1732.58
280.36	1699.81
280.57	1783.78
280.79	1781.73
281.00	1669.09
281.22	1640.42
281.43	1710.05
281.65	1634.28
281.86	1718.25
282.08	1806.31
282.29	1814.50
282.51	1658.85
282.73	1697.77
282.94	1611.75
283.16	1779.68
283.37	1812.45
283.59	1753.06
283.80	1730.53
284.02	1691.62
284.23	1746.92
284.45	1705.96
284.66	1654.76
284.88	1656.81
285.09	1755.11
285.31	1775.59
285.52	1675.24
285.74	1648.61
285.95	1767.40
286.17	1732.58
286.38	1826.79
286.60	1679.33
286.81	1640.42
287.03	1710.05
287.24	1673.19
287.46	1669.09
287.67	1812.45
287.89	1832.93
288.10	1660.90
288.32	1726.44
288.53	1812.45
288.75	1716.20
288.96	1802.21
289.18	1689.57
289.39	1671.14
289.61	1716.20
289.82	1873.89
290.04	1761.25
290.25	1615.85
290.47	1744.87
290.68	1714.15
290.90	1783.78
291.11	1648.61
291.33	1652.71
291.54	1662.95
291.76	1656.81
291.97	1738.73
292.18	1746.92
292.40	1740.77
292.61	1613.80
292.83	1908.71
293.04	1751.01
293.26	1714.15
293.47	1755.11
293.69	1634.28
293.90	1665.00
294.12	1816.55
294.33	1771.49
294.55	1683.43
294.76	1738.73
294.97	1830.88
295.19	1798.12
295.40	1654.76
295.62	1697.77
295.83	1794.02
296.05	1619.94
296.26	1841.12
296.48	1646.57
296.69	1695.72
296.90	1652.71
297.12	1773.54
297.33	1726.44
297.55	1665.00
297.76	1695.72
297.98	1763.30
298.19	1718.25
298.41	1785.83
298.62	1607.66
298.83	1826.79
299.05	1730.53
299.26	1630.18
299.48	1732.58
299.69	1730.53
299.90	1640.42
300.12	1628.14
300.33	1759.21
300.55	1716.20
300.76	1804.26
300.98	1665.00
301.19	1765.35
301.40	1658.85
301.62	1775.59
301.83	1738.73
302.05	1785.83
302.26	1703.91
302.47	1679.33
302.69	1578.98
302.90	1685.48
303.12	1619.94
303.33	1720.29
303.54	1818.60
303.76	1626.09
303.97	1716.20
304.19	1824.74
304.40	1646.57
304.61	1691.62
304.83	1851.36
305.04	1755.11
305.26	1732.58
305.47	1738.73
305.68	1759.21
305.90	1583.08
306.11	1720.29
306.33	1730.53
306.54	1695.72
306.75	1593.32
306.97	1556.46
307.18	1710.05
307.39	1689.57
307.61	1806.31
307.82	1619.94
308.04	1738.73
308.25	1720.29
308.46	1794.02
308.68	1722.34
308.89	1748.97
309.10	1691.62
309.32	1724.39
309.53	1642.47
309.74	1802.21
309.96	1671.14
310.17	1802.21
310.39	1667.05
310.60	1689.57
310.81	1755.11
311.03	1714.15
311.24	1689.57
311.45	1712.10
311.67	1820.64
311.88	1712.10
312.09	1708.01
312.31	1652.71
312.52	1724.39
312.73	1722.34
312.95	1544.17
313.16	1677.29
313.37	1687.53
313.59	1730.53
313.80	1787.88
314.01	1789.92
314.23	1675.24
314.44	1658.85
314.65	1683.43
314.87	1710.05
315.08	1726.44
315.29	1755.11
315.51	1646.57
315.72	1679.33
315.93	1820.64
316.15	1673.19
316.36	1675.24
316.57	1619.94
316.79	1728.49
317.00	1638.38
317.21	1744.87
317.43	1710.05
317.64	1701.86
317.85	1738.73
318.07	1632.23
318.28	1742.82
318.49	1769.44
318.70	1929.19
318.92	1855.46
319.13	1781.73
319.34	1959.91
319.56	1822.69
319.77	1822.69
319.98	1763.30
320.20	1806.31
320.41	1708.01
320.62	1716.20
320.83	1679.33
321.05	1812.45
321.26	1693.67
321.47	1710.05
321.69	1800.16
321.90	1603.56
322.11	1662.95
322.32	1736.68
322.54	1779.68
322.75	1638.38
322.96	1818.60
323.18	1574.89
323.39	1628.14
323.60	1626.09
323.81	1789.92
324.03	1683.43
324.24	1685.48
324.45	1775.59
324.66	1650.66
324.88	1734.63
325.09	1773.54
325.30	1646.57
325.52	1665.00
325.73	1718.25
325.94	1634.28
326.15	1624.04
326.37	1671.14
326.58	1722.34
326.79	1832.93
327.00	1658.85
327.22	1724.39
327.43	1730.53
327.64	1656.81
327.85	1765.35
328.07	1695.72
328.28	1839.08
328.49	1712.10
328.70	1667.05
328.92	1759.21
329.13	1632.23
329.34	1693.67
329.55	1798.12
329.76	1773.54
329.98	1667.05
330.19	1798.12
330.40	1742.82
330.61	1599.46
330.83	1769.44
331.04	1650.66
331.25	1677.29
331.46	1630.18
331.68	1576.94
331.89	1787.88
332.10	1640.42
332.31	1665.00
332.52	1759.21
332.74	1804.26
332.95	1738.73
333.16	1720.29
333.37	1763.30
333.58	1658.85
333.80	1744.87
334.01	1648.61
334.22	1697.77
334.43	1722.34
334.64	1613.80
334.86	1673.19
335.07	1693.67
335.28	1861.60
335.49	1665.00
335.70	1755.11
335.92	1755.11
336.13	1826.79
336.34	1746.92
336.55	1730.53
336.76	1779.68
336.98	1646.57
337.19	1660.90
337.40	1730.53
337.61	1810.40
337.82	1714.15
338.04	1800.16
338.25	1617.90
338.46	1691.62
338.67	1689.57
338.88	1636.33
339.09	1726.44
339.31	1640.42
339.52	1630.18
339.73	1695.72
339.94	1681.38
340.15	1718.25
340.36	1667.05
340.58	1751.01
340.79	1724.39
341.00	1736.68
341.21	1683.43
341.42	1755.11
341.63	1759.21
341.85	1726.44
342.06	1699.81
342.27	1613.80
342.48	1665.00
342.69	1621.99
342.90	1691.62
343.12	1804.26
343.33	1615.85
343.54	1771.49
343.75	1818.60
343.96	1726.44
344.17	1722.34
344.38	1681.38
344.60	1673.19
344.81	1665.00
345.02	1658.85
345.23	1822.69
345.44	1912.80
345.65	1744.87
345.86	1705.96
346.07	1701.86
346.29	1703.91
346.50	1791.97
346.71	1738.73
346.92	1765.35
347.13	1800.16
347.34	1691.62
347.55	1671.14
347.76	1636.33
347.98	1632.23
348.19	1726.44
348.40	1787.88
348.61	1632.23
348.82	1746.92
349.03	1734.63
349.24	1636.33
349.45	1820.64
349.66	1576.94
349.88	1701.86
350.09	1628.14
350.30	1820.64
350.51	1804.26
350.72	1724.39
350.93	1705.96
351.14	1693.67
351.35	1761.25
351.56	1775.59
351.77	1708.01
351.99	1753.06
352.20	1775.59
352.41	1771.49
352.62	1550.31
352.83	1691.62
353.04	1718.25
353.25	1701.86
353.46	1722.34
353.67	1732.58
353.88	1570.79
354.09	1771.49
354.30	1677.29
354.52	1734.63
354.73	1675.24
354.94	1689.57
355.15	1736.68
355.36	1789.92
355.57	1714.15
355.78	1732.58
355.99	1726.44
356.20	1757.16
356.41	1839.08
356.62	1697.77
356.83	1740.77
357.04	1855.46
357.25	1597.42
357.46	1660.90
357.68	1609.70
357.89	1650.66
358.10	1705.96
358.31	1650.66
358.52	1773.54
358.73	1662.95
358.94	1648.61
359.15	1736.68
359.36	1800.16
359.57	1718.25
359.78	1652.71
359.99	1738.73
360.20	1658.85
360.41	1656.81
360.62	1724.39
360.83	1787.88
361.04	1671.14
361.25	1755.11
361.46	1740.77
361.67	1738.73
361.88	1796.07
362.09	1724.39
362.30	1748.97
362.51	1718.25
362.72	1701.86
362.93	1738.73
363.14	1818.60
363.35	1740.77
363.56	1701.86
363.78	1841.12
363.99	1814.50
364.20	1636.33
364.41	1691.62
364.62	1730.53
364.83	1751.01
365.04	1769.44
365.25	1710.05
365.46	1849.32
365.67	1701.86
365.88	1570.79
366.09	1738.73
366.30	1720.29
366.51	1646.57
366.72	1619.94
366.93	1660.90
367.14	1789.92
367.35	1779.68
367.56	1744.87
367.77	1728.49
367.98	1685.48
368.18	1701.86
368.39	1708.01
368.60	1699.81
368.81	1771.49
369.02	1652.71
369.23	1718.25
369.44	1677.29
369.65	1667.05
369.86	1732.58
370.07	1820.64
370.28	1671.14
370.49	1697.77
370.70	1787.88
370.91	1658.85
371.12	1605.61
371.33	1804.26
371.54	1617.90
371.75	1804.26
371.96	1533.93
372.17	1720.29
372.38	1648.61
372.59	1703.91
372.80	1681.38
373.01	1685.48
373.22	1660.90
373.43	1675.24
373.64	1683.43
373.85	1697.77
374.06	1787.88
374.26	1720.29
374.47	1763.30
374.68	1810.40
374.89	1757.16
375.10	1644.52
375.31	1714.15
375.52	1703.91
375.73	1699.81
375.94	1652.71
376.15	1820.64
376.36	1630.18
376.57	1705.96
376.78	1615.85
376.99	1812.45
377.20	1810.40
377.40	1673.19
377.61	1845.22
377.82	1603.56
378.03	1810.40
378.24	1771.49
378.45	1578.98
378.66	1755.11
378.87	1589.22
379.08	1630.18
379.29	1656.81
379.50	1693.67
379.71	1714.15
379.91	1820.64
380.12	1734.63
380.33	1662.95
380.54	1742.82
380.75	1683.43
380.96	1685.48
381.17	1810.40
381.38	1779.68
381.59	1667.05
381.80	1796.07
382.00	1869.80
382.21	1771.49
382.42	1810.40
382.63	1853.41
382.84	1730.53
383.05	1718.25
383.26	1773.54
383.47	1740.77
383.68	1779.68
383.88	1761.25
384.09	1808.36
384.30	1847.27
384.51	1810.40
384.72	1759.21
384.93	1595.37
385.14	1744.87
385.35	1765.35
385.55	1695.72
385.76	1781.73
385.97	1740.77
386.18	1722.34
386.39	1652.71
386.60	1675.24
386.81	1740.77
387.02	1708.01
387.22	1665.00
387.43	1804.26
387.64	1796.07
387.85	1869.80
388.06	2152.42
388.27	4302.78
388.48	6651.80
388.68	8073.09
388.89	9684.84
389.10	9756.52
389.31	8544.13
389.52	7319.44
389.73	6606.75
389.93	5955.49
390.14	5838.76
390.35	5144.50
390.56	4642.75
390.77	3758.02
390.98	3071.95
391.18	2488.28
391.39	2068.45
391.60	1914.85
391.81	1837.03
392.02	1687.53
392.23	1890.28
392.43	1863.65
392.64	1800.16
392.85	1714.15
393.06	1816.55
393.27	1701.86
393.47	1738.73
393.68	1705.96
393.89	1744.87
394.10	1751.01
394.31	1687.53
394.52	1593.32
394.72	1675.24
394.93	1802.21
395.14	1646.57
395.35	1718.25
395.56	1656.81
395.76	1771.49
395.97	1789.92
396.18	1865.70
396.39	1882.08
396.60	2074.59
396.80	1949.67
397.01	1935.33
397.22	1853.41
397.43	1886.18
397.64	1693.67
397.84	1779.68
398.05	1865.70
398.26	1740.77
398.47	1791.97
398.67	1822.69
398.88	1642.47
399.09	1699.81
399.30	1665.00
399.51	1708.01
399.71	1619.94
399.92	1642.47
400.13	1800.16
400.34	1705.96
400.54	1767.40
400.75	1763.30
400.96	1820.64
401.17	1779.68
401.37	1693.67
401.58	1703.91
401.79	1716.20
402.00	1861.60
402.21	2009.06
402.41	1974.24
402.62	2023.39
402.83	2090.98
403.04	2017.25
403.24	2041.82
403.45	1861.60
403.66	1882.08
403.87	1890.28
404.07	1861.60
404.28	1902.56
404.49	1843.17
404.70	1765.35
404.90	1708.01
405.11	1767.40
405.32	1779.68
405.52	1669.09
405.73	1691.62
405.94	1632.23
406.15	1757.16
406.35	1710.05
406.56	1710.05
406.77	1746.92
406.98	1632.23
407.18	1757.16
407.39	1804.26
407.60	1693.67
407.80	1705.96
408.01	1695.72
408.22	1685.48
408.43	1665.00
408.63	1748.97
408.84	1757.16
409.05	1804.26
409.25	1562.60
409.46	1660.90
409.67	1724.39
409.88	1740.77
410.08	1712.10
410.29	1689.57
410.50	1765.35
410.70	1857.51
410.91	1654.76
411.12	1787.88
411.32	1701.86
411.53	1673.19
411.74	1755.11
411.95	1816.55
412.15	1730.53
412.36	1880.04
412.57	1777.64
412.77	1849.32
412.98	1695.72
413.19	1650.66
413.39	1742.82
413.60	1796.07
413.81	1826.79
414.01	1630.18
414.22	1681.38
414.43	1783.78
414.63	1757.16
414.84	1796.07
415.05	1738.73
415.25	1652.71
415.46	1781.73
415.67	1615.85
415.87	1695.72
416.08	1787.88
416.29	1796.07
416.49	1765.35
416.70	1642.47
416.91	1771.49
417.11	1753.06
417.32	1806.31
417.53	1755.11
417.73	1796.07
417.94	1660.90
418.15	1728.49
418.35	1759.21
418.56	1683.43
418.77	1857.51
418.97	1710.05
419.18	1710.05
419.38	1626.09
419.59	1705.96
419.80	1794.02
420.00	1652.71
420.21	1755.11
420.42	1775.59
420.62	1705.96
420.83	1708.01
421.04	1779.68
421.24	1734.63
421.45	1757.16
421.65	1726.44
421.86	1812.45
422.07	1757.16
422.27	1689.57
422.48	1697.77
422.69	1560.55
422.89	1665.00
423.10	1665.00
423.30	1626.09
423.51	1701.86
423.72	1705.96
423.92	1751.01
424.13	1595.37
424.33	1673.19
424.54	1722.34
424.75	1734.63
424.95	1839.08
425.16	1746.92
425.36	1718.25
425.57	1726.44
425.78	1773.54
425.98	1791.97
426.19	1628.14
426.39	1667.05
426.60	1740.77
426.81	1765.35
427.01	1738.73
427.22	1597.42
427.42	1581.03
427.63	1650.66
427.83	1763.30
428.04	1794.02
428.25	1828.84
428.45	1783.78
428.66	1800.16
428.86	1781.73
429.07	1650.66
429.28	1617.90
429.48	1765.35
429.69	1679.33
429.89	1718.25
430.10	1617.90
430.30	1851.36
430.51	1773.54
430.71	1642.47
430.92	1669.09
431.13	1669.09
431.33	1720.29
431.54	1615.85
431.74	1802.21
431.95	1828.84
432.15	1619.94
432.36	1693.67
432.56	1705.96
432.77	1824.74
432.98	1783.78
433.18	1748.97
433.39	1644.52
433.59	1718.25
433.80	1869.80
434.00	1812.45
434.21	1658.85
434.41	1617.90
434.62	1849.32
434.82	1679.33
435.03	1685.48
435.23	1763.30
435.44	1587.18
435.64	1630.18
435.85	1669.09
436.06	1728.49
436.26	1708.01
436.47	1755.11
436.67	1634.28
436.88	1783.78
437.08	1755.11
437.29	1767.40
437.49	1724.39
437.70	1769.44
437.90	1667.05
438.11	1779.68
438.31	1751.01
438.52	1902.56
438.72	1794.02
438.93	1828.84
439.13	1740.77
439.34	1851.36
439.54	1804.26
439.75	1865.70
439.95	1804.26
440.16	1708.01
440.36	1722.34
440.57	1794.02
440.77	1767.40
440.98	1714.15
441.18	1789.92
441.39	1671.14
441.59	1722.34
441.80	1779.68
442.00	1730.53
442.21	1726.44
442.41	1685.48
442.62	1740.77
442.82	1642.47
443.02	1744.87
443.23	1714.15
443.43	1767.40
443.64	1808.36
443.84	1710.05
444.05	1779.68
444.25	1785.83
444.46	1701.86
444.66	1710.05
444.87	1828.84
445.07	1601.51
445.28	1691.62
445.48	1798.12
445.69	1767.40
445.89	1810.40
446.09	1757.16
446.30	2047.97
446.50	2682.84
446.71	3678.15
446.91	4323.26
447.12	4863.93
447.32	4874.17
447.53	4192.19
447.73	3887.04
447.93	3528.65
448.14	3213.26
448.34	3231.69
448.55	2869.20
448.75	2863.06
448.96	2731.99
449.16	2392.03
449.36	2232.29
449.57	2045.92
449.77	1865.70
449.98	1808.36
450.18	1822.69
450.39	1822.69
450.59	1806.31
450.79	1714.15
451.00	1652.71
451.20	1804.26
451.41	1771.49
451.61	1814.50
451.81	1669.09
452.02	1726.44
452.22	1757.16
452.43	1654.76
452.63	1660.90
452.84	1718.25
453.04	1748.97
453.24	1734.63
453.45	1697.77
453.65	1771.49
453.86	1775.59
454.06	1783.78
454.26	1699.81
454.47	1681.38
454.67	1824.74
454.87	1769.44
455.08	1785.83
455.28	1869.80
455.49	1724.39
455.69	1708.01
455.89	1855.46
456.10	1798.12
456.30	1759.21
456.51	1808.36
456.71	1699.81
456.91	1769.44
457.12	1667.05
457.32	1806.31
457.52	1665.00
457.73	1857.51
457.93	1742.82
458.14	1710.05
458.34	1677.29
458.54	1718.25
458.75	1767.40
458.95	1703.91
459.15	1712.10
459.36	1697.77
459.56	1730.53
459.76	1859.56
459.97	1714.15
460.17	1814.50
460.37	1826.79
460.58	1705.96
460.78	1734.63
460.99	1736.68
461.19	1730.53
461.39	1656.81
461.60	1669.09
461.80	1800.16
462.00	1679.33
462.21	1812.45
462.41	1718.25
462.61	1683.43
462.82	1673.19
463.02	1716.20
463.22	1748.97
463.43	1882.08
463.63	1703.91
463.83	1789.92
464.04	1798.12
464.24	1712.10
464.44	1685.48
464.64	1710.05
464.85	1748.97
465.05	1837.03
465.25	1732.58
465.46	1695.72
465.66	1748.97
465.86	1824.74
466.07	1716.20
466.27	1683.43
466.47	1658.85
466.68	1656.81
466.88	1755.11
467.08	1771.49
467.29	1769.44
467.49	1755.11
467.69	1652.71
467.89	1771.49
468.10	1665.00
468.30	1777.64
468.50	1763.30
468.71	1779.68
468.91	1665.00
469.11	1810.40
469.31	1751.01
469.52	1730.53
469.72	1800.16
469.92	1927.14
470.13	1650.66
470.33	1665.00
470.53	1849.32
470.73	2136.03
470.94	2256.86
471.14	2439.13
471.34	2586.58
471.54	2426.84
471.75	2232.29
471.95	2125.79
472.15	2080.74
472.36	2127.84
472.56	2078.69
472.76	2088.93
472.96	2041.82
473.17	2045.92
473.37	1894.37
473.57	1822.69
473.77	1751.01
473.98	1718.25
474.18	1656.81
474.38	1869.80
474.58	1738.73
474.79	1689.57
474.99	1755.11
475.19	1738.73
475.39	1783.78
475.60	1755.11
475.80	1724.39
476.00	1796.07
476.20	1646.57
476.41	1761.25
476.61	1845.22
476.81	1740.77
477.01	1734.63
477.21	1818.60
477.42	1880.04
477.62	1677.29
477.82	1798.12
478.02	1738.73
478.23	1738.73
478.43	1689.57
478.63	1669.09
478.83	1751.01
479.03	1685.48
479.24	1781.73
479.44	1839.08
479.64	1642.47
479.84	1681.38
480.04	1621.99
480.25	1800.16
480.45	1701.86
480.65	1734.63
480.85	1800.16
481.06	1751.01
481.26	1691.62
481.46	1734.63
481.66	1734.63
481.86	1712.10
482.06	1761.25
482.27	1726.44
482.47	1634.28
482.67	1710.05
482.87	1689.57
483.07	1757.16
483.28	1675.24
483.48	1675.24
483.68	1681.38
483.88	1660.90
484.08	1685.48
484.29	1648.61
484.49	1751.01
484.69	1662.95
484.89	1824.74
485.09	1763.30
485.29	1703.91
485.50	1757.16
485.70	1714.15
485.90	1775.59
486.10	1738.73
486.30	1796.07
486.50	1724.39
486.71	1802.21
486.91	1705.96
487.11	1802.21
487.31	1613.80
487.51	1675.24
487.71	1665.00
487.91	1675.24
488.12	1679.33
488.32	1560.55
488.52	1738.73
488.72	1538.02
488.92	1779.68
489.12	1806.31
489.32	1830.88
489.53	1806.31
489.73	1751.01
489.93	1818.60
490.13	1681.38
490.33	1650.66
490.53	1785.83
490.73	1812.45
490.94	1585.13
491.14	1814.50
491.34	1804.26
491.54	2103.26
491.74	2525.15
491.94	2887.64
492.14	3045.33
492.34	2938.84
492.54	2795.48
492.75	2559.96
492.95	2480.09
493.15	2283.49
493.35	2263.01
493.55	2273.25
493.75	2140.13
493.95	2105.31
494.15	2070.50
494.35	1959.91
494.56	1863.65
494.76	1814.50
494.96	1834.98
495.16	1812.45
495.36	1683.43
495.56	1669.09
495.76	1767.40
495.96	1738.73
496.16	1751.01
496.36	1841.12
496.56	1685.48
496.77	1783.78
496.97	1687.53
497.17	1857.51
497.37	1695.72
497.57	1808.36
497.77	1718.25
497.97	1685.48
498.17	1763.30
498.37	1642.47
498.57	1804.26
498.77	1654.76
498.97	1767.40
499.17	1843.17
499.38	1710.05
499.58	1744.87
499.78	1794.02
499.98	1777.64
500.18	1744.87
500.38	1767.40
500.58	1908.71
500.78	2553.82
500.98	4450.24
501.18	5824.42
501.38	6567.84
501.58	6889.37
501.78	6625.18
501.98	5506.99
502.18	4990.90
502.38	4327.36
502.58	3944.39
502.78	3852.23
502.98	3639.24
503.18	3475.40
503.38	3102.67
503.59	2959.31
503.79	2684.89
503.99	2519.00
504.19	2271.20
504.39	2232.29
504.59	2232.29
504.79	2164.70
504.99	2052.06
505.19	1923.04
505.39	1855.46
505.59	1978.34
505.79	1923.04
505.99	1857.51
506.19	1861.60
506.39	1837.03
506.59	1779.68
506.79	1789.92
506.99	1804.26
507.19	1736.68
507.39	1777.64
507.59	1703.91
507.79	1714.15
507.99	1650.66
508.19	1748.97
508.39	1746.92
508.59	1753.06
508.79	1851.36
508.99	1744.87
509.19	1753.06
509.39	1742.82
509.59	1699.81
509.79	1667.05
509.99	1691.62
510.19	1828.84
510.39	1691.62
510.59	1796.07
510.79	1722.34
510.99	1710.05
511.19	1699.81
511.39	1820.64
511.59	1789.92
511.79	1800.16
511.99	1665.00
512.19	1751.01
512.38	1730.53
512.58	1617.90
512.78	1777.64
512.98	1845.22
513.18	1855.46
513.38	1593.32
513.58	1787.88
513.78	1679.33
513.98	1691.62
514.18	1695.72
514.38	1746.92
514.58	1728.49
514.78	1617.90
514.98	1691.62
515.18	1753.06
515.38	1578.98
515.58	1757.16
515.78	1742.82
515.98	1742.82
516.18	1824.74
516.38	1691.62
516.57	1660.90
516.77	1667.05
516.97	1832.93
517.17	1732.58
517.37	1687.53
517.57	1773.54
517.77	1761.25
517.97	1699.81
518.17	1757.16
518.37	1675.24
518.57	1665.00
518.77	1703.91
518.97	1724.39
519.16	1777.64
519.36	1787.88
519.56	1753.06
519.76	1685.48
519.96	1757.16
520.16	1824.74
520.36	1632.23
520.56	1894.37
520.76	1662.95
520.96	1746.92
521.16	1826.79
521.35	1796.07
521.55	1783.78
521.75	1763.30
521.95	1773.54
522.15	1748.97
522.35	1685.48
522.55	1708.01
522.75	1712.10
522.95	1755.11
523.14	1648.61
523.34	1826.79
523.54	1755.11
523.74	1759.21
523.94	1783.78
524.14	1656.81
524.34	1751.01
524.54	1773.54
524.73	1746.92
524.93	1732.58
525.13	1757.16
525.33	1660.90
525.53	1925.09
525.73	1826.79
525.93	1810.40
526.13	1765.35
526.32	1708.01
526.52	1798.12
526.72	1832.93
526.92	1722.34
527.12	1757.16
527.32	1607.66
527.52	1693.67
527.71	1785.83
527.91	1718.25
528.11	1685.48
528.31	1771.49
528.51	1697.77
528.71	1740.77
528.90	1753.06
529.10	1740.77
529.30	1796.07
529.50	1591.27
529.70	1705.96
529.90	1794.02
530.09	1701.86
530.29	1726.44
530.49	1708.01
530.69	1849.32
530.89	1724.39
531.09	1791.97
531.28	1751.01
531.48	1787.88
531.68	1837.03
531.88	1804.26
532.08	1808.36
532.28	1748.97
532.47	1716.20
532.67	1773.54
532.87	1779.68
533.07	1628.14
533.27	1736.68
533.46	1769.44
533.66	1751.01
533.86	1689.57
534.06	1828.84
534.26	1748.97
534.45	1683.43
534.65	1781.73
534.85	1755.11
535.05	1660.90
535.25	1740.77
535.44	1689.57
535.64	1810.40
535.84	1722.34
536.04	1652.71
536.24	1611.75
536.43	1683.43
536.63	1779.68
536.83	1687.53
537.03	1755.11
537.22	1681.38
537.42	1642.47
537.62	1771.49
537.82	1689.57
538.02	1763.30
538.21	1882.08
538.41	1957.86
538.61	1701.86
538.81	1701.86
539.00	1759.21
539.20	1708.01
539.40	1626.09
539.60	1800.16
539.79	1789.92
539.99	1720.29
540.19	1730.53
540.39	1712.10
540.58	1812.45
540.78	1787.88
540.98	1814.50
541.18	1771.49
541.37	1873.89
541.57	1695.72
541.77	1742.82
541.97	1759.21
542.16	1611.75
542.36	1751.01
542.56	1708.01
542.76	1861.60
542.95	1789.92
543.15	1763.30
543.35	1808.36
543.54	1773.54
543.74	1714.15
543.94	1763.30
544.14	1738.73
544.33	1763.30
544.53	1718.25
544.73	1699.81
544.93	1746.92
545.12	1753.06
545.32	1720.29
545.52	1724.39
545.71	1632.23
545.91	1687.53
546.11	1738.73
546.30	1648.61
546.50	1781.73
546.70	1791.97
546.90	1806.31
547.09	1640.42
547.29	1722.34
547.49	1765.35
547.68	1753.06
547.88	1683.43
548.08	1800.16
548.27	2148.32
548.47	1675.24
548.67	1673.19
548.87	1728.49
549.06	1757.16
549.26	1779.68
549.46	1781.73
549.65	1673.19
549.85	1763.30
550.05	1720.29
550.24	1720.29
550.44	1693.67
550.64	1744.87
550.83	1685.48
551.03	1775.59
551.23	1794.02
551.42	1773.54
551.62	1773.54
551.82	1703.91
552.01	1724.39
552.21	1722.34
552.41	1800.16
552.60	1816.55
552.80	1783.78
553.00	1701.86
553.19	1759.21
553.39	1802.21
553.59	1720.29
553.78	1832.93
553.98	1759.21
554.17	1630.18
554.37	1771.49
554.57	1734.63
554.76	1650.66
554.96	1632.23
555.16	1755.11
555.35	1759.21
555.55	1783.78
555.75	1751.01
555.94	1814.50
556.14	1609.70
556.33	1810.40
556.53	1802.21
556.73	1675.24
556.92	1777.64
557.12	1894.37
557.32	1839.08
557.51	1763.30
557.71	1802.21
557.90	1861.60
558.10	1787.88
558.30	1695.72
558.49	1732.58
558.69	1759.21
558.88	1765.35
559.08	1755.11
559.28	1767.40
559.47	1738.73
559.67	1787.88
559.86	1824.74
560.06	1718.25
560.26	1726.44
560.45	1779.68
560.65	1755.11
560.84	1783.78
561.04	1787.88
561.24	1773.54
561.43	1665.00
561.63	1890.28
561.82	1796.07
562.02	1806.31
562.22	1726.44
562.41	1695.72
562.61	1636.33
562.80	1679.33
563.00	1863.65
563.19	1667.05
563.39	1695.72
563.59	1783.78
563.78	1673.19
563.98	1671.14
564.17	1642.47
564.37	1581.03
564.56	1740.77
564.76	1636.33
564.96	1767.40
565.15	1697.77
565.35	1779.68
565.54	1746.92
565.74	1783.78
565.93	1779.68
566.13	1763.30
566.32	1765.35
566.52	1832.93
566.71	1708.01
566.91	1800.16
567.11	1648.61
567.30	1656.81
567.50	1839.08
567.69	1714.15
567.89	1691.62
568.08	1742.82
568.28	1775.59
568.47	1701.86
568.67	1818.60
568.86	1632.23
569.06	1830.88
569.25	1781.73
569.45	1660.90
569.64	1642.47
569.84	1712.10
570.04	1794.02
570.23	1714.15
570.43	1732.58
570.62	1753.06
570.82	1753.06
571.01	1708.01
571.21	1730.53
571.40	1667.05
571.60	1845.22
571.79	1759.21
571.99	1681.38
572.18	1716.20
572.38	1724.39
572.57	1728.49
572.77	1748.97
572.96	1859.56
573.16	1738.73
573.35	1689.57
573.55	1855.46
573.74	1820.64
573.94	1787.88
574.13	1718.25
574.33	1816.55
574.52	1769.44
574.71	1781.73
574.91	1804.26
575.10	1642.47
575.30	1791.97
575.49	1732.58
575.69	1724.39
575.88	1771.49
576.08	1736.68
576.27	1800.16
576.47	1738.73
576.66	1853.41
576.86	1691.62
577.05	1783.78
577.25	1775.59
577.44	1814.50
577.64	1730.53
577.83	1853.41
578.02	1677.29
578.22	1822.69
578.41	1828.84
578.61	1773.54
578.80	1738.73
579.00	1748.97
579.19	1751.01
579.39	1775.59
579.58	1800.16
579.77	1863.65
579.97	1843.17
580.16	1814.50
580.36	1830.88
580.55	1837.03
580.75	1724.39
580.94	1732.58
581.13	1849.32
581.33	1834.98
581.52	1767.40
581.72	1900.52
581.91	1863.65
582.11	1712.10
582.30	1832.93
582.49	1855.46
582.69	1845.22
582.88	1816.55
583.08	1718.25
583.27	1869.80
583.47	1769.44
583.66	1705.96
583.85	1699.81
584.05	1804.26
584.24	1812.45
584.44	1779.68
584.63	1773.54
584.82	1773.54
585.02	1886.18
585.21	1888.23
585.41	1904.61
585.60	1826.79
585.79	1939.43
585.99	1875.94
586.18	1875.94
586.37	2174.94
586.57	3334.09
586.76	9789.29
586.96	24155.79
587.15	33940.99
587.34	39824.80
587.54	41266.57
587.73	36054.49
587.93	25915.00
588.12	21169.85
588.31	18011.89
588.51	15996.68
588.70	15038.23
588.89	13889.32
589.09	12431.17
589.28	10983.26
589.47	9176.95
589.67	7899.02
589.86	6338.46
590.06	5021.62
590.25	4001.73
590.44	3145.68
590.64	2555.86
590.83	2303.96
591.02	2136.03
591.22	1978.34
591.41	1943.52
591.60	1832.93
591.80	1994.72
591.99	1787.88
592.18	1791.97
592.38	1824.74
592.57	1771.49
592.76	1812.45
592.96	1789.92
593.15	1771.49
593.34	1781.73
593.54	1718.25
593.73	1820.64
593.92	1830.88
594.12	1744.87
594.31	1763.30
594.50	1806.31
594.70	1798.12
594.89	1978.34
595.08	1648.61
595.28	1832.93
595.47	1943.52
595.66	1820.64
595.86	1710.05
596.05	1769.44
596.24	1685.48
596.43	1845.22
596.63	1832.93
596.82	1830.88
597.01	1693.67
597.21	1845.22
597.40	1794.02
597.59	1714.15
597.79	1710.05
597.98	1789.92
598.17	1806.31
598.36	1693.67
598.56	1779.68
598.75	1730.53
598.94	1716.20
599.14	1730.53
599.33	1660.90
599.52	1820.64
599.71	1765.35
599.91	1732.58
600.10	1705.96
600.29	1724.39
600.48	1763.30
600.68	1779.68
600.87	1720.29
601.06	1714.15
601.26	1820.64
601.45	1763.30
601.64	1716.20
601.83	1812.45
602.03	1804.26
602.22	1677.29
602.41	1740.77
602.60	1888.23
602.80	1796.07
602.99	1773.54
603.18	1746.92
603.37	1708.01
603.57	1712.10
603.76	1824.74
603.95	1734.63
604.14	1626.09
604.34	1677.29
604.53	1710.05
604.72	1787.88
604.91	1794.02
605.10	1738.73
605.30	1726.44
605.49	1923.04
605.68	1763.30
605.87	1738.73
606.07	1691.62
606.26	1652.71
606.45	1730.53
606.64	1708.01
606.84	1771.49
607.03	1742.82
607.22	1767.40
607.41	1660.90
607.60	1748.97
607.80	1796.07
607.99	1708.01
608.18	1685.48
608.37	1722.34
608.56	1705.96
608.76	1755.11
608.95	1732.58
609.14	1783.78
609.33	1812.45
609.52	1796.07
609.72	1718.25
609.91	1871.84
610.10	1751.01
610.29	1804.26
610.48	1785.83
610.68	1730.53
610.87	1714.15
611.06	1812.45
611.25	1724.39
611.44	1812.45
611.63	1681.38
611.83	1757.16
612.02	1601.51
612.21	1806.31
612.40	1634.28
612.59	1681.38
612.79	1738.73
612.98	1699.81
613.17	1816.55
613.36	1751.01
613.55	1767.40
613.74	1748.97
613.93	1691.62
614.13	1691.62
614.32	1724.39
614.51	1757.16
614.70	1697.77
614.89	1660.90
615.08	1810.40
615.28	2009.06
615.47	1708.01
615.66	1662.95
615.85	1748.97
616.04	1890.28
616.23	1701.86
616.42	1714.15
616.62	1748.97
616.81	1716.20
617.00	1632.23
617.19	1787.88
617.38	1837.03
617.57	1763.30
617.76	1777.64
617.95	1759.21
618.15	1767.40
618.34	1761.25
618.53	1681.38
618.72	1830.88
618.91	1763.30
619.10	1822.69
619.29	1654.76
619.48	1802.21
619.68	1648.61
619.87	1710.05
620.06	1734.63
620.25	1677.29
620.44	1712.10
620.63	1693.67
620.82	1705.96
621.01	1748.97
621.20	1720.29
621.39	1765.35
621.59	1777.64
621.78	1687.53
621.97	1677.29
622.16	1734.63
622.35	1681.38
622.54	1830.88
622.73	1689.57
622.92	1644.52
623.11	1710.05
623.30	1683.43
623.49	1783.78
623.68	1691.62
623.88	1753.06
624.07	1652.71
624.26	1716.20
624.45	1718.25
624.64	1751.01
624.83	1728.49
625.02	1642.47
625.21	1736.68
625.40	1759.21
625.59	1765.35
625.78	1669.09
625.97	1798.12
626.16	1863.65
626.35	1783.78
626.54	1728.49
626.74	1886.18
626.93	1630.18
627.12	1761.25
627.31	1691.62
627.50	1730.53
627.69	1769.44
627.88	1685.48
628.07	1724.39
628.26	1689.57
628.45	1689.57
628.64	1675.24
628.83	1791.97
629.02	1710.05
629.21	1695.72
629.40	1744.87
629.59	1646.57
629.78	1716.20
629.97	1755.11
630.16	1656.81
630.35	1701.86
630.54	1763.30
630.73	1693.67
630.92	1746.92
631.11	1656.81
631.30	1714.15
631.49	1822.69
631.68	1705.96
631.87	1722.34
632.06	1656.81
632.25	1890.28
632.44	1734.63
632.63	1761.25
632.82	1681.38
633.01	1697.77
633.20	1744.87
633.39	1650.66
633.58	1624.04
633.77	1691.62
633.96	1779.68
634.15	1759.21
634.34	1681.38
634.53	1781.73
634.72	1728.49
634.91	1638.38
635.10	1800.16
635.29	1806.31
635.48	1734.63
635.67	1718.25
635.86	1652.71
636.05	1751.01
636.24	1712.10
636.43	1726.44
636.62	1763.30
636.81	1644.52
637.00	1757.16
637.19	1763.30
637.38	1785.83
637.57	1669.09
637.76	1681.38
637.95	1693.67
638.14	1722.34
638.33	1703.91
638.52	1726.44
638.71	1652.71
638.89	1587.18
639.08	1859.56
639.27	1761.25
639.46	1699.81
639.65	1763.30
639.84	1740.77
640.03	1751.01
640.22	1738.73
640.41	1851.36
640.60	1652.71
640.79	1716.20
640.98	1712.10
641.17	1773.54
641.36	1714.15
641.55	1777.64
641.74	1601.51
641.92	1695.72
642.11	1701.86
642.30	1685.48
642.49	1681.38
642.68	1701.86
642.87	1716.20
643.06	1783.78
643.25	1705.96
643.44	1689.57
643.63	1765.35
643.82	1748.97
644.00	1638.38
644.19	1699.81
644.38	1677.29
644.57	1726.44
644.76	1697.77
644.95	1667.05
645.14	1693.67
645.33	1712.10
645.52	1640.42
645.71	1677.29
645.89	1677.29
646.08	1685.48
646.27	1685.48
646.46	1816.55
646.65	1679.33
646.84	1693.67
647.03	1652.71
647.22	1746.92
647.40	1705.96
647.59	1779.68
647.78	1669.09
647.97	1710.05
648.16	1689.57
648.35	1824.74
648.54	1781.73
648.73	1722.34
648.91	1800.16
649.10	1761.25
649.29	1728.49
649.48	1669.09
649.67	1732.58
649.86	1712.10
650.05	1714.15
650.23	1763.30
650.42	1667.05
650.61	1765.35
650.80	1724.39
650.99	1796.07
651.18	1787.88
651.36	1779.68
651.55	1667.05
651.74	1826.79
651.93	1736.68
652.12	1734.63
652.31	1714.15
652.49	1699.81
652.68	1746.92
652.87	1808.36
653.06	1738.73
653.25	1791.97
653.44	1658.85
653.62	1834.98
653.81	1734.63
654.00	1724.39
654.19	1761.25
654.38	1865.70
654.56	1791.97
654.75	1648.61
654.94	1746.92
655.13	1738.73
655.32	1755.11
655.51	1720.29
655.69	1746.92
655.88	1769.44
656.07	1660.90
656.26	1724.39
656.45	1628.14
656.63	1742.82
656.82	1703.91
657.01	1769.44
657.20	1673.19
657.38	1785.83
657.57	1722.34
657.76	1660.90
657.95	1722.34
658.14	1675.24
658.32	1720.29
658.51	1691.62
658.70	1705.96
658.89	1695.72
659.08	1746.92
659.26	1871.84
659.45	1773.54
659.64	1775.59
659.83	1671.14
660.01	1877.99
660.20	1734.63
660.39	1808.36
660.58	1599.46
660.76	1730.53
660.95	1705.96
661.14	1781.73
661.33	1687.53
661.51	1708.01
661.70	1679.33
661.89	1785.83
662.08	1742.82
662.26	1701.86
662.45	1673.19
662.64	1843.17
662.83	1744.87
663.01	1611.75
663.20	1685.48
663.39	1806.31
663.58	1718.25
663.76	1728.49
663.95	1824.74
664.14	1730.53
664.32	1669.09
664.51	1660.90
664.70	1628.14
664.89	1726.44
665.07	1677.29
665.26	1714.15
665.45	1728.49
665.64	1839.08
665.82	1689.57
666.01	1800.16
666.20	1732.58
666.38	1843.17
666.57	1787.88
666.76	2168.80
666.95	4425.66
667.13	10233.70
667.32	15247.13
667.51	17721.07
667.69	18902.75
667.88	17469.17
668.07	12238.66
668.25	9594.73
668.44	8161.16
668.63	7374.74
668.81	6647.71
669.00	6121.38
669.19	5468.08
669.38	4958.13
669.56	4591.55
669.75	3885.00
669.94	3403.72
670.12	2914.26
670.31	2557.91
670.50	2275.29
670.68	2160.61
670.87	1904.61
671.06	1839.08
671.24	1847.27
671.43	1826.79
671.62	1810.40
671.80	1667.05
671.99	1787.88
672.18	1699.81
672.36	1853.41
672.55	1740.77
672.74	1785.83
672.92	1744.87
673.11	1761.25
673.29	1673.19
673.48	1837.03
673.67	1675.24
673.85	1798.12
674.04	1669.09
674.23	1738.73
674.41	1871.84
674.60	1701.86
674.79	1687.53
674.97	1697.77
675.16	1771.49
675.34	1669.09
675.53	1687.53
675.72	1771.49
675.90	1775.59
676.09	1738.73
676.28	1796.07
676.46	1724.39
676.65	1828.84
676.83	1722.34
677.02	1781.73
677.21	1708.01
677.39	1738.73
677.58	1605.61
677.77	1660.90
677.95	1714.15
678.14	1730.53
678.32	1705.96
678.51	1683.43
678.70	1804.26
678.88	1660.90
679.07	1761.25
679.25	1701.86
679.44	1791.97
679.63	1691.62
679.81	1708.01
680.00	1785.83
680.18	1730.53
680.37	1824.74
680.55	1732.58
680.74	1679.33
680.93	1611.75
681.11	1736.68
681.30	1708.01
681.48	1734.63
681.67	1658.85
681.85	1812.45
682.04	1726.44
682.23	1679.33
682.41	1705.96
682.60	1720.29
682.78	1763.30
682.97	1644.52
683.15	1771.49
683.34	1693.67
683.53	1816.55
683.71	1675.24
683.90	1902.56
684.08	1787.88
684.27	1705.96
684.45	1742.82
684.64	1783.78
684.82	1673.19
685.01	1705.96
685.19	1726.44
685.38	1853.41
685.57	1720.29
685.75	1726.44
685.94	1714.15
686.12	1755.11
686.31	1732.58
686.49	1816.55
686.68	1617.90
686.86	1789.92
687.05	1726.44
687.23	1773.54
687.42	1681.38
687.60	1585.13
687.79	1705.96
687.97	1767.40
688.16	1775.59
688.34	1794.02
688.53	1638.38
688.71	1708.01
688.90	1830.88
689.08	1691.62
689.27	1642.47
689.45	1732.58
689.64	1826.79
689.82	1705.96
690.01	1746.92
690.19	1781.73
690.38	1716.20
690.56	1769.44
690.75	1671.14
690.93	1669.09
691.12	1693.67
691.30	1677.29
691.49	1634.28
691.67	1626.09
691.86	1824.74
692.04	1708.01
692.23	1662.95
692.41	1662.95
692.60	1859.56
692.78	1720.29
692.97	1669.09
693.15	1705.96
693.34	1800.16
693.52	1738.73
693.71	1724.39
693.89	1708.01
694.08	1675.24
694.26	1824.74
694.44	1718.25
694.63	1761.25
694.81	1748.97
695.00	1675.24
695.18	1742.82
695.37	1857.51
695.55	1699.81
695.74	1705.96
695.92	1619.94
696.10	1746.92
696.29	1644.52
696.47	1695.72
696.66	1759.21
696.84	1783.78
697.03	1697.77
697.21	1877.99
697.40	2371.55
697.58	1701.86
697.76	1654.76
697.95	1697.77
698.13	1701.86
698.32	1685.48
698.50	1722.34
698.68	1785.83
698.87	1722.34
699.05	1775.59
699.24	1695.72
699.42	1683.43
699.61	1742.82
699.79	1761.25
699.97	1730.53
700.16	1681.38
700.34	1603.56
700.53	1763.30
700.71	1826.79
700.89	1771.49
701.08	1691.62
701.26	1746.92
701.45	2123.74
701.63	1605.61
701.81	1681.38
702.00	1662.95
702.18	1726.44
702.37	1699.81
702.55	1812.45
702.73	1740.77
702.92	1677.29
703.10	1718.25
703.28	1736.68
703.47	1583.08
703.65	1773.54
703.84	1818.60
704.02	1689.57
704.20	1755.11
704.39	1667.05
704.57	1724.39
704.75	1781.73
704.94	1720.29
705.12	1775.59
705.30	1820.64
705.49	2293.72
705.67	4265.92
705.86	9023.35
706.04	12484.42
706.22	13991.72
706.41	14937.88
706.59	13449.01
706.77	9459.57
706.96	7165.84
707.14	6447.01
707.32	5820.33
707.51	5502.89
707.69	4882.36
707.87	4210.62
708.06	3514.31
708.24	2897.88
708.42	2359.26
708.61	2265.05
708.79	1882.08
708.97	1914.85
709.16	1920.99
709.34	1853.41
709.52	1755.11
709.71	1779.68
709.89	1773.54
710.07	1671.14
710.26	1601.51
710.44	1787.88
710.62	1726.44
710.80	1710.05
710.99	1828.84
711.17	1705.96
711.35	1640.42
711.54	1611.75
711.72	1822.69
711.90	1753.06
712.09	1730.53
712.27	1609.70
712.45	1779.68
712.63	1691.62
712.82	1763.30
713.00	1687.53
713.18	1755.11
713.37	1800.16
713.55	1755.11
713.73	1718.25
713.91	1724.39
714.10	1697.77
714.28	1714.15
714.46	1769.44
714.65	1751.01
714.83	1705.96
715.01	1685.48
715.19	1718.25
715.38	1730.53
715.56	1736.68
715.74	1656.81
715.92	1708.01
716.11	1796.07
716.29	1587.18
716.47	1681.38
716.65	1728.49
716.84	1697.77
717.02	1771.49
717.20	1660.90
717.38	1673.19
717.57	1730.53
717.75	1609.70
717.93	1796.07
718.11	1677.29
718.30	1546.22
718.48	1751.01
718.66	1763.30
718.84	1726.44
719.03	1695.72
719.21	1617.90
719.39	1800.16
719.57	1748.97
719.75	1734.63
719.94	1675.24
720.12	1705.96
720.30	1708.01
720.48	1710.05
720.67	1689.57
720.85	1673.19
721.03	1718.25
721.21	1599.46
721.39	1820.64
721.58	1734.63
721.76	1732.58
721.94	1732.58
722.12	1787.88
722.30	1810.40
722.49	1648.61
722.67	1703.91
722.85	1730.53
723.03	1656.81
723.21	1685.48
723.40	1689.57
723.58	1726.44
723.76	1708.01
723.94	1810.40
724.12	1726.44
724.30	1740.77
724.49	1767.40
724.67	1632.23
724.85	1761.25
725.03	1595.37
725.21	1746.92
725.40	1732.58
725.58	1718.25
725.76	1722.34
725.94	1693.67
726.12	1648.61
726.30	1708.01
726.49	1712.10
726.67	1679.33
726.85	1705.96
727.03	1724.39
727.21	2131.94
727.39	2805.72
727.57	3850.18
727.76	4196.29
727.94	4519.87
728.12	4374.46
728.30	3510.22
728.48	2947.03
728.66	2791.38
728.84	2527.19
729.03	2385.88
729.21	2197.47
729.39	1970.15
729.57	1861.60
729.75	1802.21
729.93	1861.60
730.11	1640.42
730.30	1796.07
730.48	1703.91
730.66	1769.44
730.84	1773.54
731.02	1785.83
731.20	1667.05
731.38	1732.58
731.56	1609.70
731.74	1689.57
731.93	1712.10
732.11	1716.20
732.29	1728.49
732.47	1726.44
732.65	1781.73
732.83	1808.36
733.01	1697.77
733.19	1669.09
733.37	1800.16
733.56	1738.73
733.74	1724.39
733.92	1757.16
734.10	1701.86
734.28	1814.50
734.46	1689.57
734.64	1730.53
734.82	1683.43
735.00	1648.61
735.18	1658.85
735.36	1708.01
735.54	1730.53
735.73	1728.49
735.91	1767.40
736.09	1638.38
736.27	1638.38
736.45	1728.49
736.63	1595.37
736.81	1671.14
736.99	1769.44
737.17	1775.59
737.35	1640.42
737.53	1712.10
737.71	1744.87
737.89	1808.36
738.07	1677.29
738.25	1630.18
738.43	1662.95
738.61	1693.67
738.80	1599.46
738.98	1574.89
739.16	1597.42
739.34	1660.90
739.52	1828.84
739.70	1722.34
739.88	1744.87
740.06	1740.77
740.24	1615.85
740.42	1738.73
740.60	1632.23
740.78	1609.70
740.96	1626.09
741.14	1699.81
741.32	1734.63
741.50	1632.23
741.68	1857.51
741.86	1769.44
742.04	1714.15
742.22	1687.53
742.40	1667.05
742.58	1748.97
742.76	1662.95
742.94	1812.45
743.12	1638.38
743.30	1710.05
743.48	1734.63
743.66	1660.90
743.84	1675.24
744.02	1660.90
744.20	1708.01
744.38	1624.04
744.56	1765.35
744.74	1826.79
744.92	1730.53
745.10	1791.97
745.28	1855.46
745.46	1753.06
745.64	1675.24
745.82	1738.73
746.00	1697.77
746.18	1730.53
746.36	1613.80
746.54	1724.39
746.72	1708.01
746.90	1667.05
747.08	1781.73
747.26	1644.52
747.44	1787.88
747.62	1705.96
747.80	1787.88
747.98	1701.86
748.15	1705.96
748.33	1791.97
748.51	1726.44
748.69	1773.54
748.87	1681.38
749.05	1665.00
749.23	1746.92
749.41	1767.40
749.59	1673.19
749.77	1773.54
749.95	1650.66
750.13	1640.42
750.31	1751.01
750.49	1642.47
750.67	1791.97
750.85	1759.21
751.03	1718.25
751.20	1814.50
751.38	1652.71
751.56	1751.01
751.74	1742.82
751.92	1736.68
752.10	1572.84
752.28	1722.34
752.46	1652.71
752.64	1689.57
752.82	1728.49
753.00	1722.34
753.18	1705.96
753.35	1636.33
753.53	1665.00
753.71	1716.20
753.89	1763.30
754.07	1763.30
754.25	1771.49
754.43	1697.77
754.61	1652.71
754.79	1726.44
754.97	1703.91
755.14	1794.02
755.32	1658.85
755.50	1669.09
755.68	1765.35
755.86	1638.38
756.04	1701.86
756.22	1570.79
756.40	1785.83
756.57	1822.69
756.75	1697.77
756.93	1816.55
757.11	1820.64
757.29	1638.38
757.47	1724.39
757.65	1660.90
757.82	1538.02
758.00	1669.09
758.18	1658.85
758.36	1630.18
758.54	1789.92
758.72	1581.03
758.90	1820.64
759.07	1687.53
759.25	1595.37
759.43	1716.20
759.61	1595.37
759.79	2191.33
759.97	1822.69
760.15	1669.09
760.32	1720.29
760.50	1730.53
760.68	1796.07
760.86	1656.81
761.04	1787.88
761.22	1863.65
761.39	1677.29
761.57	1841.12
761.75	1621.99
761.93	1691.62
762.11	1722.34
762.28	1763.30
762.46	1640.42
762.64	1822.69
762.82	1648.61
763.00	1691.62
763.18	1697.77
763.35	1669.09
763.53	1677.29
763.71	1857.51
763.89	1665.00
764.07	1724.39
764.24	1781.73
764.42	1726.44
764.60	1646.57
764.78	1734.63
764.96	1828.84
765.13	1712.10
765.31	1710.05
765.49	1779.68
765.67	1662.95
765.84	1632.23
766.02	1705.96
766.20	1712.10
766.38	1644.52
766.56	1763.30
766.73	1806.31
766.91	1705.96
767.09	1738.73
767.27	1699.81
767.44	1648.61
767.62	1748.97
767.80	1751.01
767.98	1613.80
768.15	1699.81
768.33	1763.30
768.51	1779.68
768.69	1712.10
768.87	1640.42
769.04	1662.95
769.22	1869.80
769.40	1746.92
769.58	1898.47
769.75	1716.20
769.93	1759.21
770.11	1634.28
770.28	1679.33
770.46	1826.79
770.64	1757.16
770.82	1714.15
770.99	1691.62
771.17	1701.86
771.35	1763.30
771.53	1689.57
771.70	1673.19
771.88	1757.16
772.06	1671.14
772.23	1689.57
772.41	1718.25
772.59	1667.05
772.77	1656.81
772.94	1734.63
773.12	1773.54
773.30	1652.71
773.47	1757.16
773.65	1636.33
773.83	1822.69
774.01	1726.44
774.18	1638.38
774.36	1681.38
774.54	1634.28
774.71	1746.92
774.89	1613.80
775.07	1654.76
775.24	1648.61
775.42	1687.53
775.60	1767.40
775.78	1673.19
775.95	1722.34
776.13	1617.90
776.31	1597.42
776.48	1724.39
776.66	1773.54
776.84	1560.55
777.01	1605.61
777.19	1642.47
777.37	1574.89
777.54	1730.53
777.72	1855.46
777.90	1665.00
778.07	1681.38
778.25	1851.36
778.43	1720.29
778.60	1677.29
778.78	1789.92
778.96	1769.44
779.13	1628.14
779.31	1681.38
779.49	1783.78
779.66	1736.68
779.84	1722.34
780.01	1748.97
780.19	1605.61
780.37	1757.16
780.54	1722.34
780.72	1632.23
780.90	1693.67
781.07	1710.05
781.25	1619.94
781.43	1660.90
781.60	1765.35
781.78	1740.77
781.95	1730.53
782.13	1773.54
782.31	1734.63
782.48	1646.57
782.66	1718.25
782.83	1820.64
783.01	1740.77
783.19	1757.16
783.36	1708.01
783.54	1671.14
783.72	1779.68
783.89	1693.67
784.07	1710.05
784.24	1765.35
784.42	1781.73
784.60	1689.57
784.77	1691.62
784.95	1587.18
785.12	1695.72
785.30	1695.72
785.47	1615.85
785.65	1687.53
785.83	1738.73
786.00	1654.76
786.18	1703.91
786.35	1601.51
786.53	1611.75
786.71	1785.83
786.88	1732.58
787.06	1722.34
787.23	1763.30
787.41	1554.41
787.58	1681.38
787.76	1603.56
787.94	1703.91
788.11	1689.57
788.29	1685.48
788.46	1626.09
788.64	1648.61
788.81	1712.10
788.99	1654.76
789.16	1648.61
789.34	1777.64
789.52	1693.67
789.69	1693.67
789.87	1615.85
790.04	1640.42
790.22	1693.67
790.39	1822.69
790.57	1605.61
790.74	1765.35
790.92	1771.49
791.09	1568.74
791.27	1728.49
791.44	1779.68
791.62	1662.95
791.79	1822.69
791.97	1714.15
792.15	1814.50
792.32	1646.57
792.50	1695.72
792.67	1744.87
792.85	1767.40
793.02	1722.34
793.20	1697.77
793.37	1697.77
793.55	1708.01
793.72	1656.81
793.90	1742.82
794.07	1681.38
794.25	1669.09
794.42	1753.06
794.60	1783.78
794.77	1691.62
794.95	1832.93
795.12	1775.59
795.30	1722.34
795.47	1548.26
795.65	1884.13
795.82	1724.39
796.00	1609.70
796.17	1665.00
796.34	1658.85
796.52	1693.67
796.69	1701.86
796.87	1751.01
797.04	1705.96
797.22	1751.01
797.39	1669.09
797.57	1738.73
797.74	1722.34
797.92	1675.24
798.09	1716.20
798.27	1726.44
798.44	1736.68
798.62	1691.62
798.79	1705.96
798.96	1804.26
799.14	1714.15
799.31	1781.73
799.49	1681.38
799.66	1695.72
799.84	1703.91
800.01	1671.14
800.19	1718.25
800.36	1607.66
800.53	1728.49
800.71	1712.10
800.88	1781.73
801.06	1671.14
801.23	1738.73
801.41	1701.86
801.58	1699.81
801.75	1646.57
801.93	1746.92
802.10	1675.24
802.28	1751.01
802.45	1699.81
802.63	1828.84
802.80	1763.30
802.97	1740.77
803.15	1787.88
803.32	1712.10
803.50	1615.85
803.67	1701.86
803.84	1691.62
804.02	1687.53
804.19	1665.00
804.37	1626.09
804.54	1613.80
804.71	1705.96
804.89	1681.38
805.06	1689.57
805.24	1660.90
805.41	1636.33
805.58	1705.96
805.76	1763.30
805.93	1728.49
806.10	1746.92
806.28	1699.81
806.45	1683.43
806.63	1748.97
806.80	1767.40
806.97	1703.91
807.15	1779.68
807.32	1748.97
807.49	1705.96
807.67	1677.29
807.84	1773.54
808.01	1681.38
808.19	1908.71
808.36	1861.60
808.54	1681.38
808.71	1617.90
808.88	1646.57
809.06	1759.21
809.23	1740.77
809.40	1716.20
809.58	1734.63
809.75	1787.88
809.92	1679.33
810.10	1855.46
810.27	1734.63
810.44	1712.10
810.62	1746.92
810.79	1619.94
810.96	1734.63
811.14	1712.10
811.31	1677.29
811.48	1785.83
811.66	1658.85
811.83	1765.35
812.00	1718.25
812.18	1640.42
812.35	1849.32
812.52	1703.91
812.69	1691.62
812.87	1738.73
813.04	1712.10
813.21	1689.57
813.39	1671.14
813.56	1679.33
813.73	1783.78
813.91	1626.09
814.08	1789.92
814.25	1699.81
814.42	1673.19
814.60	1667.05
814.77	1736.68
814.94	1755.11
815.12	1703.91
815.29	1796.07
815.46	1669.09
815.63	1789.92
815.81	1738.73
815.98	1699.81
816.15	1685.48
816.33	1722.34
816.50	1701.86
816.67	1703.91
816.84	1671.14
817.02	1621.99
817.19	1730.53
817.36	1720.29
817.53	1751.01
817.71	1613.80
817.88	1705.96
818.05	1677.29
818.22	1714.15
818.40	1708.01
818.57	1732.58
818.74	1765.35
818.91	1761.25
819.09	1740.77
819.26	1748.97
819.43	1607.66
819.60	1652.71
819.78	1761.25
819.95	1798.12
820.12	1576.94
820.29	1757.16
820.47	1753.06
820.64	1720.29
820.81	1605.61
820.98	1728.49
821.15	1701.86
821.33	1689.57
821.50	1636.33
821.67	1765.35
821.84	1665.00
822.02	1810.40
822.19	1763.30
822.36	1699.81
822.53	1705.96
822.70	1697.77
822.88	1755.11
823.05	1875.94
823.22	1685.48
823.39	1757.16
823.56	1742.82
823.74	1832.93
823.91	1673.19
824.08	1708.01
824.25	1644.52
824.42	1832.93
824.60	1679.33
824.77	1730.53
824.94	1689.57
825.11	1789.92
825.28	1601.51
825.45	1693.67
825.63	1732.58
825.80	1656.81
825.97	1777.64
826.14	1712.10
826.31	1718.25
826.48	1740.77
826.66	1695.72
826.83	1734.63
827.00	1732.58
827.17	1669.09
827.34	1738.73
827.51	1642.47
827.69	1714.15
827.86	1652.71
828.03	1724.39
828.20	1708.01
828.37	1689.57
828.54	1697.77
828.71	1675.24
828.89	1818.60
829.06	1761.25
829.23	1679.33
829.40	1701.86
829.57	1722.34
829.74	1708.01
829.91	1636.33
830.09	1615.85
830.26	1667.05
830.43	1779.68
830.60	1695.72
830.77	1791.97
830.94	1783.78
831.11	1757.16
831.28	1701.86
831.46	1843.17
831.63	1673.19
831.80	1742.82
831.97	1755.11
832.14	1687.53
832.31	1755.11
832.48	1701.86
832.65	1720.29
832.82	1718.25
832.99	1787.88
833.17	1611.75
833.34	1800.16
833.51	1699.81
833.68	1656.81
833.85	1712.10
834.02	1665.00
834.19	1675.24
834.36	1736.68
834.53	1695.72
834.70	1822.69
834.87	1763.30
835.04	1708.01
835.22	1740.77
835.39	1681.38
835.56	1693.67
835.73	1646.57
835.90	1843.17
836.07	1652.71
836.24	1769.44
836.41	1644.52
836.58	1662.95
836.75	1718.25
836.92	1755.11
837.09	1665.00
837.26	1777.64
837.43	1769.44
837.60	1705.96
837.77	1581.03
837.94	1800.16
838.12	1744.87
838.29	1652.71
838.46	1683.43
838.63	1710.05
838.80	1796.07
838.97	1710.05
839.14	1650.66
839.31	1738.73
839.48	1718.25
839.65	1566.70
839.82	1753.06
839.99	1712.10
840.16	1753.06
840.33	1652.71
840.50	1787.88
840.67	1687.53
840.84	1595.37
841.01	1679.33
841.18	1671.14
841.35	1695.72
841.52	1771.49
841.69	1826.79
841.86	1710.05
842.03	1671.14
842.20	1775.59
842.37	1689.57
842.54	1681.38
842.71	1685.48
842.88	1624.04
843.05	1730.53
843.22	1701.86
843.39	1779.68
843.56	1607.66
843.73	1744.87
843.90	1740.77
844.07	1677.29
844.24	1828.84
844.41	1779.68
844.58	1724.39
844.75	1730.53
844.92	1746.92
845.09	1710.05
845.26	1632.23
845.43	1753.06
845.60	1705.96
845.77	1740.77
845.94	1783.78
846.10	1763.30
846.27	1624.04
846.44	1595.37
846.61	1640.42
846.78	1724.39
846.95	1765.35
847.12	1685.48
847.29	1585.13
847.46	1621.99
847.63	1800.16
847.80	1681.38
847.97	1714.15
848.14	1832.93
848.31	1708.01
848.48	1603.56
848.65	1652.71
848.82	1595.37
848.98	1816.55
849.15	1718.25
849.32	1787.88
849.49	1736.68
849.66	1761.25
849.83	1656.81
850.00	1626.09
850.17	1705.96
850.34	1662.95
850.51	1665.00
850.68	1685.48
850.85	1771.49
851.01	1724.39
851.18	1789.92
851.35	1693.67
851.52	1724.39
851.69	1781.73
851.86	1605.61
852.03	1724.39
852.20	1726.44
852.37	1689.57
852.53	1619.94
852.70	1658.85
852.87	1703.91
853.04	1798.12
853.21	1765.35
853.38	1804.26
853.55	1800.16
853.72	1755.11
853.89	1636.33
854.05	1662.95
854.22	1687.53
854.39	1691.62
854.56	1714.15
854.73	1730.53
854.90	1689.57
855.07	1671.14
855.23	1701.86
855.40	1697.77
855.57	1646.57
855.74	1613.80
855.91	1920.99
856.08	1595.37
856.25	1638.38
856.41	1677.29
856.58	1658.85
856.75	1697.77
856.92	1646.57
857.09	1724.39
857.26	1597.42
857.42	1650.66
857.59	1800.16
857.76	1691.62
857.93	1693.67
858.10	1763.30
858.27	1705.96
858.43	1652.71
858.60	1693.67
858.77	1636.33
858.94	1585.13
859.11	1761.25
859.27	1652.71
859.44	1677.29
859.61	1773.54
859.78	1689.57
859.95	1652.71
860.12	1710.05
860.28	1898.47
860.45	1910.75
860.62	1642.47
860.79	1767.40
860.95	1646.57
861.12	1611.75
861.29	1642.47
861.46	1652.71
861.63	1628.14
861.79	1714.15
861.96	1648.61
862.13	1617.90
862.30	1701.86
862.47	1658.85
862.63	1644.52
862.80	1718.25
862.97	1755.11
863.14	1671.14
863.30	1722.34
863.47	1677.29
863.64	1755.11
863.81	1736.68
863.97	1683.43
864.14	1714.15
864.31	1691.62
864.48	1697.77
864.65	1632.23
864.81	1785.83
864.98	1660.90
865.15	1773.54
865.32	1798.12
865.48	1820.64
865.65	1873.89
865.82	1685.48
865.98	1695.72
866.15	1777.64
866.32	1642.47
866.49	1677.29
866.65	1826.79
866.82	1636.33
866.99	1777.64
867.16	1697.77
867.32	1673.19
867.49	1652.71
867.66	1722.34
867.83	1648.61
867.99	1601.51
868.16	1761.25
868.33	1626.09
868.49	1681.38
868.66	1746.92
868.83	1708.01
868.99	1734.63
869.16	1677.29
869.33	1712.10
869.50	1720.29
869.66	1748.97
869.83	1665.00
870.00	1607.66
870.16	1714.15
870.33	1644.52
870.50	1710.05
870.66	1681.38
870.83	1781.73
871.00	1730.53
871.17	1740.77
871.33	1705.96
871.50	1726.44
871.67	1669.09
871.83	1736.68
872.00	1781.73
872.17	1650.66
872.33	1785.83
872.50	1744.87
872.67	1648.61
872.83	1732.58
873.00	1689.57
873.17	1632.23
873.33	1828.84
873.50	1757.16
873.67	1662.95
873.83	1617.90
874.00	1705.96
874.16	1689.57
874.33	1738.73
874.50	1675.24
874.66	1697.77
874.83	1654.76
875.00	1802.21
875.16	1718.25
875.33	1710.05
875.50	1642.47
875.66	1701.86
875.83	1632.23
875.99	1710.05
876.16	1740.77
876.33	1648.61
876.49	1722.34
876.66	1759.21
876.83	1718.25
876.99	1658.85
877.16	1632.23
877.32	1687.53
877.49	1695.72
877.66	1685.48
877.82	1701.86
877.99	1755.11
878.15	1794.02
878.32	1695.72
878.49	1699.81
878.65	1736.68
878.82	1826.79
878.98	1652.71
879.15	1746.92
879.32	1730.53
879.48	1728.49
879.65	1726.44
879.81	1660.90
879.98	1677.29
880.15	1691.62
880.31	1787.88
880.48	1701.86
880.64	1748.97
880.81	1740.77
880.97	1822.69
881.14	1740.77
881.31	1677.29
881.47	1808.36
881.64	1716.20
881.80	1632.23
881.97	1683.43
882.13	1800.16
882.30	1591.27
882.47	1660.90
882.63	1734.63
882.80	1665.00
882.96	1681.38
883.13	1783.78
883.29	1693.67
883.46	1703.91
883.62	1767.40
883.79	1656.81
883.95	1732.58
884.12	1771.49
884.29	1724.39
884.45	1763.30
884.62	1738.73
884.78	1722.34
884.95	1804.26
885.11	1734.63
885.28	1679.33
885.44	1683.43
885.61	1716.20
885.77	1828.84
885.94	1683.43
886.10	1660.90
886.27	1785.83
886.43	1834.98
886.60	1796.07
886.76	1705.96
886.93	1751.01
887.09	1691.62
887.26	1632.23
887.42	1769.44
887.59	1732.58
887.75	1837.03
887.92	1701.86
888.08	1728.49
888.25	1736.68
888.41	1884.13
888.58	1771.49
888.74	1673.19
888.91	1615.85
>>>>>End Processed Spectral Data<<<<<
