SpectraSuite Data File
++++++++++++++++++++++++++++++++++++
Date: Mon Jun 06 17:00:37 CEST 2016
User: root
Dark Spectrum Present: No
Reference Spectrum Present: No
Number of Sampled Component Spectra: 1
Spectrometers: USB4C02835
Integration Time (usec): 100000 (USB4C02835)
Spectra Averaged: 1 (USB4C02835)
Boxcar Smoothing: 0 (USB4C02835)
Correct for Electrical Dark: No (USB4C02835)
Strobe/Lamp Enabled: No (USB4C02835)
Correct for Detector Non-linearity: No (USB4C02835)
Correct for Stray Light: No (USB4C02835)
Number of Pixels in Processed Spectrum: 3648
>>>>>Begin Processed Spectral Data<<<<<
177.47	1404.91
177.69	1404.91
177.91	1404.91
178.13	1527.78
178.36	1409.00
178.58	1611.75
178.80	1740.77
179.02	1658.85
179.24	1705.96
179.46	1722.34
179.68	1781.73
179.90	1726.44
180.13	1714.15
180.35	1662.95
180.57	1685.48
180.79	1871.84
181.01	1703.91
181.23	1775.59
181.45	1783.78
181.67	1767.40
181.90	1757.16
182.12	1617.90
182.34	1703.91
182.56	1767.40
182.78	1718.25
183.00	1656.81
183.22	1724.39
183.44	1585.13
183.66	1894.37
183.89	1771.49
184.11	1730.53
184.33	1736.68
184.55	1751.01
184.77	1769.44
184.99	1789.92
185.21	1665.00
185.43	1861.60
185.65	1681.38
185.87	1675.24
186.10	1796.07
186.32	1853.41
186.54	1693.67
186.76	1722.34
186.98	1759.21
187.20	1652.71
187.42	1634.28
187.64	1697.77
187.86	1763.30
188.08	1814.50
188.30	1738.73
188.52	1724.39
188.75	1777.64
188.97	1746.92
189.19	1656.81
189.41	1751.01
189.63	1765.35
189.85	1673.19
190.07	1667.05
190.29	1632.23
190.51	1654.76
190.73	1669.09
190.95	1769.44
191.17	1728.49
191.39	1673.19
191.61	1736.68
191.84	1712.10
192.06	1730.53
192.28	1621.99
192.50	1861.60
192.72	1695.72
192.94	1636.33
193.16	1773.54
193.38	1683.43
193.60	1656.81
193.82	1689.57
194.04	1742.82
194.26	1687.53
194.48	1753.06
194.70	1699.81
194.92	1656.81
195.14	1689.57
195.36	1656.81
195.58	1732.58
195.80	1777.64
196.02	1648.61
196.24	1738.73
196.46	1734.63
196.69	1677.29
196.91	1859.56
197.13	1673.19
197.35	1671.14
197.57	1789.92
197.79	1769.44
198.01	1714.15
198.23	1744.87
198.45	1705.96
198.67	1599.46
198.89	1681.38
199.11	1761.25
199.33	1689.57
199.55	1656.81
199.77	1691.62
199.99	1826.79
200.21	1708.01
200.43	1718.25
200.65	1628.14
200.87	1613.80
201.09	1636.33
201.31	1724.39
201.53	1865.70
201.75	1720.29
201.97	1662.95
202.19	1722.34
202.41	1769.44
202.63	1746.92
202.85	1710.05
203.07	1773.54
203.29	1699.81
203.51	1687.53
203.73	1710.05
203.95	1851.36
204.17	1710.05
204.39	1740.77
204.61	1738.73
204.83	1714.15
205.05	1771.49
205.27	1769.44
205.49	1830.88
205.71	1615.85
205.93	1642.47
206.15	1771.49
206.37	1712.10
206.59	1671.14
206.81	1646.57
207.03	1656.81
207.25	1628.14
207.47	1775.59
207.69	1675.24
207.91	1796.07
208.13	1796.07
208.34	1763.30
208.56	1648.61
208.78	1765.35
209.00	1699.81
209.22	1642.47
209.44	1718.25
209.66	1677.29
209.88	1650.66
210.10	1730.53
210.32	1738.73
210.54	1812.45
210.76	1609.70
210.98	1796.07
211.20	1669.09
211.42	1734.63
211.64	1763.30
211.86	1757.16
212.08	1732.58
212.30	1796.07
212.52	1740.77
212.74	1722.34
212.96	1705.96
213.17	1665.00
213.39	1701.86
213.61	1839.08
213.83	1681.38
214.05	1587.18
214.27	1744.87
214.49	1675.24
214.71	1603.56
214.93	1716.20
215.15	1734.63
215.37	1712.10
215.59	1710.05
215.81	1734.63
216.03	1734.63
216.24	1755.11
216.46	1746.92
216.68	1632.23
216.90	1781.73
217.12	1837.03
217.34	1673.19
217.56	1759.21
217.78	1753.06
218.00	1765.35
218.22	1767.40
218.44	1652.71
218.66	1681.38
218.87	1812.45
219.09	1748.97
219.31	1814.50
219.53	1763.30
219.75	1738.73
219.97	1746.92
220.19	1708.01
220.41	1648.61
220.63	1849.32
220.85	1705.96
221.06	1683.43
221.28	1871.84
221.50	1619.94
221.72	1716.20
221.94	1697.77
222.16	1609.70
222.38	1769.44
222.60	1779.68
222.82	1644.52
223.03	1738.73
223.25	1624.04
223.47	1757.16
223.69	1855.46
223.91	1751.01
224.13	1812.45
224.35	1681.38
224.57	1865.70
224.78	1826.79
225.00	1705.96
225.22	1648.61
225.44	1689.57
225.66	1767.40
225.88	1665.00
226.10	1693.67
226.32	1746.92
226.53	1873.89
226.75	1781.73
226.97	1624.04
227.19	1722.34
227.41	1667.05
227.63	1779.68
227.85	1626.09
228.06	1777.64
228.28	1693.67
228.50	1783.78
228.72	1632.23
228.94	1642.47
229.16	1654.76
229.37	1728.49
229.59	1710.05
229.81	1777.64
230.03	1632.23
230.25	1656.81
230.47	1636.33
230.69	1667.05
230.90	1753.06
231.12	1751.01
231.34	1718.25
231.56	1826.79
231.78	1638.38
232.00	1736.68
232.21	1718.25
232.43	1732.58
232.65	1632.23
232.87	1746.92
233.09	1628.14
233.30	1677.29
233.52	1673.19
233.74	1689.57
233.96	1734.63
234.18	1681.38
234.40	1775.59
234.61	1834.98
234.83	1665.00
235.05	1665.00
235.27	1875.94
235.49	1794.02
235.70	1804.26
235.92	1877.99
236.14	1757.16
236.36	1841.12
236.58	1669.09
236.79	1701.86
237.01	1626.09
237.23	1667.05
237.45	1871.84
237.67	1683.43
237.88	1689.57
238.10	1796.07
238.32	1658.85
238.54	1781.73
238.76	1662.95
238.97	1683.43
239.19	1634.28
239.41	1718.25
239.63	1800.16
239.85	1730.53
240.06	1748.97
240.28	1644.52
240.50	1751.01
240.72	1761.25
240.93	1675.24
241.15	1771.49
241.37	1648.61
241.59	1787.88
241.81	1742.82
242.02	1662.95
242.24	1783.78
242.46	1689.57
242.68	1683.43
242.89	1734.63
243.11	1665.00
243.33	1671.14
243.55	1726.44
243.76	1646.57
243.98	1665.00
244.20	1697.77
244.42	1718.25
244.64	1742.82
244.85	1673.19
245.07	1599.46
245.29	1767.40
245.51	1724.39
245.72	1714.15
245.94	1773.54
246.16	1701.86
246.38	1853.41
246.59	1712.10
246.81	1697.77
247.03	1683.43
247.24	1611.75
247.46	1648.61
247.68	1687.53
247.90	1736.68
248.11	1722.34
248.33	1671.14
248.55	1716.20
248.77	1753.06
248.98	1724.39
249.20	1814.50
249.42	1734.63
249.64	1697.77
249.85	1718.25
250.07	1763.30
250.29	1701.86
250.50	1820.64
250.72	1632.23
250.94	1800.16
251.16	1798.12
251.37	1820.64
251.59	1708.01
251.81	1730.53
252.02	1871.84
252.24	1697.77
252.46	1769.44
252.68	1662.95
252.89	1710.05
253.11	1634.28
253.33	1816.55
253.54	1791.97
253.76	1691.62
253.98	1636.33
254.20	1769.44
254.41	1671.14
254.63	1697.77
254.85	1703.91
255.06	1681.38
255.28	1726.44
255.50	1677.29
255.71	1667.05
255.93	1736.68
256.15	1742.82
256.36	1693.67
256.58	1640.42
256.80	1736.68
257.02	1679.33
257.23	1685.48
257.45	1732.58
257.67	1701.86
257.88	1728.49
258.10	1775.59
258.32	1695.72
258.53	1763.30
258.75	1751.01
258.97	1716.20
259.18	1755.11
259.40	1746.92
259.62	1806.31
259.83	1824.74
260.05	1736.68
260.27	1851.36
260.48	1720.29
260.70	1599.46
260.92	1646.57
261.13	1642.47
261.35	1705.96
261.57	1730.53
261.78	1734.63
262.00	1673.19
262.22	1667.05
262.43	1665.00
262.65	1652.71
262.86	1720.29
263.08	1914.85
263.30	1718.25
263.51	1572.84
263.73	1798.12
263.95	1771.49
264.16	1736.68
264.38	1699.81
264.60	1714.15
264.81	1693.67
265.03	1894.37
265.25	1757.16
265.46	1669.09
265.68	1775.59
265.89	1746.92
266.11	1671.14
266.33	1773.54
266.54	1769.44
266.76	1753.06
266.98	1728.49
267.19	1804.26
267.41	1796.07
267.62	1705.96
267.84	1624.04
268.06	1697.77
268.27	1728.49
268.49	1818.60
268.70	1728.49
268.92	1724.39
269.14	1708.01
269.35	1638.38
269.57	1716.20
269.79	1658.85
270.00	1714.15
270.22	1808.36
270.43	1691.62
270.65	1589.22
270.87	1751.01
271.08	1808.36
271.30	1710.05
271.51	1662.95
271.73	1802.21
271.95	1789.92
272.16	1724.39
272.38	1722.34
272.59	1646.57
272.81	1779.68
273.02	1771.49
273.24	1755.11
273.46	1796.07
273.67	1601.51
273.89	1683.43
274.10	1703.91
274.32	1716.20
274.54	1726.44
274.75	1826.79
274.97	1656.81
275.18	1769.44
275.40	1691.62
275.61	1665.00
275.83	1693.67
276.05	1724.39
276.26	1738.73
276.48	1722.34
276.69	1595.37
276.91	1628.14
277.12	1814.50
277.34	1791.97
277.55	1763.30
277.77	1718.25
277.99	1665.00
278.20	1763.30
278.42	1646.57
278.63	1669.09
278.85	1632.23
279.06	1581.03
279.28	1687.53
279.49	1822.69
279.71	1757.16
279.93	1708.01
280.14	1736.68
280.36	1683.43
280.57	1785.83
280.79	1734.63
281.00	1646.57
281.22	1695.72
281.43	1783.78
281.65	1644.52
281.86	1685.48
282.08	1771.49
282.29	1812.45
282.51	1619.94
282.73	1634.28
282.94	1583.08
283.16	1757.16
283.37	1861.60
283.59	1716.20
283.80	1822.69
284.02	1640.42
284.23	1742.82
284.45	1710.05
284.66	1642.47
284.88	1648.61
285.09	1763.30
285.31	1755.11
285.52	1705.96
285.74	1611.75
285.95	1787.88
286.17	1753.06
286.38	1757.16
286.60	1689.57
286.81	1738.73
287.03	1660.90
287.24	1660.90
287.46	1804.26
287.67	1705.96
287.89	1804.26
288.10	1675.24
288.32	1744.87
288.53	1824.74
288.75	1673.19
288.96	1701.86
289.18	1748.97
289.39	1710.05
289.61	1773.54
289.82	1875.94
290.04	1845.22
290.25	1591.27
290.47	1681.38
290.68	1718.25
290.90	1755.11
291.11	1617.90
291.33	1742.82
291.54	1634.28
291.76	1724.39
291.97	1679.33
292.18	1730.53
292.40	1675.24
292.61	1613.80
292.83	1818.60
293.04	1761.25
293.26	1710.05
293.47	1656.81
293.69	1681.38
293.90	1708.01
294.12	1765.35
294.33	1755.11
294.55	1718.25
294.76	1708.01
294.97	1857.51
295.19	1861.60
295.40	1728.49
295.62	1746.92
295.83	1730.53
296.05	1650.66
296.26	1791.97
296.48	1699.81
296.69	1701.86
296.90	1716.20
297.12	1650.66
297.33	1724.39
297.55	1703.91
297.76	1732.58
297.98	1765.35
298.19	1665.00
298.41	1714.15
298.62	1603.56
298.83	1832.93
299.05	1734.63
299.26	1673.19
299.48	1685.48
299.69	1763.30
299.90	1712.10
300.12	1652.71
300.33	1796.07
300.55	1777.64
300.76	1705.96
300.98	1681.38
301.19	1759.21
301.40	1718.25
301.62	1648.61
301.83	1755.11
302.05	1755.11
302.26	1742.82
302.47	1742.82
302.69	1746.92
302.90	1724.39
303.12	1611.75
303.33	1740.77
303.54	1775.59
303.76	1677.29
303.97	1757.16
304.19	1765.35
304.40	1654.76
304.61	1720.29
304.83	1800.16
305.04	1767.40
305.26	1736.68
305.47	1662.95
305.68	1634.28
305.90	1632.23
306.11	1779.68
306.33	1726.44
306.54	1658.85
306.75	1646.57
306.97	1660.90
307.18	1660.90
307.39	1642.47
307.61	1732.58
307.82	1759.21
308.04	1675.24
308.25	1673.19
308.46	1722.34
308.68	1773.54
308.89	1679.33
309.10	1705.96
309.32	1701.86
309.53	1695.72
309.74	1789.92
309.96	1656.81
310.17	1791.97
310.39	1775.59
310.60	1734.63
310.81	1689.57
311.03	1726.44
311.24	1734.63
311.45	1654.76
311.67	1791.97
311.88	1736.68
312.09	1673.19
312.31	1738.73
312.52	1742.82
312.73	1697.77
312.95	1691.62
313.16	1691.62
313.37	1785.83
313.59	1718.25
313.80	1849.32
314.01	1808.36
314.23	1701.86
314.44	1648.61
314.65	1607.66
314.87	1642.47
315.08	1718.25
315.29	1787.88
315.51	1624.04
315.72	1593.32
315.93	1816.55
316.15	1767.40
316.36	1607.66
316.57	1648.61
316.79	1761.25
317.00	1681.38
317.21	1708.01
317.43	1710.05
317.64	1638.38
317.85	1681.38
318.07	1691.62
318.28	1841.12
318.49	1779.68
318.70	1949.67
318.92	1798.12
319.13	1839.08
319.34	1841.12
319.56	1734.63
319.77	1730.53
319.98	1757.16
320.20	1853.41
320.41	1787.88
320.62	1785.83
320.83	1712.10
321.05	1892.32
321.26	1642.47
321.47	1720.29
321.69	1824.74
321.90	1624.04
322.11	1697.77
322.32	1794.02
322.54	1746.92
322.75	1751.01
322.96	1851.36
323.18	1710.05
323.39	1609.70
323.60	1626.09
323.81	1783.78
324.03	1734.63
324.24	1718.25
324.45	1708.01
324.66	1611.75
324.88	1781.73
325.09	1738.73
325.30	1683.43
325.52	1683.43
325.73	1744.87
325.94	1681.38
326.15	1562.60
326.37	1646.57
326.58	1751.01
326.79	1802.21
327.00	1675.24
327.22	1738.73
327.43	1738.73
327.64	1681.38
327.85	1732.58
328.07	1705.96
328.28	1779.68
328.49	1621.99
328.70	1667.05
328.92	1773.54
329.13	1783.78
329.34	1718.25
329.55	1755.11
329.76	1812.45
329.98	1701.86
330.19	1740.77
330.40	1687.53
330.61	1751.01
330.83	1826.79
331.04	1660.90
331.25	1710.05
331.46	1705.96
331.68	1636.33
331.89	1839.08
332.10	1654.76
332.31	1570.79
332.52	1740.77
332.74	1898.47
332.95	1720.29
333.16	1710.05
333.37	1791.97
333.58	1658.85
333.80	1701.86
334.01	1650.66
334.22	1746.92
334.43	1677.29
334.64	1658.85
334.86	1673.19
335.07	1650.66
335.28	1794.02
335.49	1724.39
335.70	1730.53
335.92	1847.27
336.13	1861.60
336.34	1728.49
336.55	1673.19
336.76	1755.11
336.98	1640.42
337.19	1751.01
337.40	1718.25
337.61	1847.27
337.82	1662.95
338.04	1779.68
338.25	1572.84
338.46	1681.38
338.67	1624.04
338.88	1642.47
339.09	1634.28
339.31	1665.00
339.52	1624.04
339.73	1685.48
339.94	1755.11
340.15	1705.96
340.36	1751.01
340.58	1640.42
340.79	1660.90
341.00	1726.44
341.21	1669.09
341.42	1785.83
341.63	1646.57
341.85	1759.21
342.06	1753.06
342.27	1734.63
342.48	1755.11
342.69	1654.76
342.90	1708.01
343.12	1708.01
343.33	1763.30
343.54	1746.92
343.75	1839.08
343.96	1681.38
344.17	1587.18
344.38	1710.05
344.60	1626.09
344.81	1662.95
345.02	1761.25
345.23	1771.49
345.44	1753.06
345.65	1765.35
345.86	1710.05
346.07	1710.05
346.29	1681.38
346.50	1687.53
346.71	1748.97
346.92	1810.40
347.13	1746.92
347.34	1691.62
347.55	1757.16
347.76	1691.62
347.98	1642.47
348.19	1667.05
348.40	1757.16
348.61	1601.51
348.82	1859.56
349.03	1724.39
349.24	1624.04
349.45	1781.73
349.66	1634.28
349.88	1685.48
350.09	1708.01
350.30	1755.11
350.51	1798.12
350.72	1675.24
350.93	1710.05
351.14	1654.76
351.35	1773.54
351.56	1732.58
351.77	1705.96
351.99	1701.86
352.20	1824.74
352.41	1755.11
352.62	1650.66
352.83	1722.34
353.04	1705.96
353.25	1677.29
353.46	1689.57
353.67	1816.55
353.88	1587.18
354.09	1687.53
354.30	1697.77
354.52	1724.39
354.73	1740.77
354.94	1708.01
355.15	1761.25
355.36	1779.68
355.57	1673.19
355.78	1724.39
355.99	1673.19
356.20	1658.85
356.41	1722.34
356.62	1757.16
356.83	1726.44
357.04	1834.98
357.25	1570.79
357.46	1705.96
357.68	1652.71
357.89	1730.53
358.10	1683.43
358.31	1660.90
358.52	1763.30
358.73	1605.61
358.94	1603.56
359.15	1685.48
359.36	1757.16
359.57	1712.10
359.78	1681.38
359.99	1724.39
360.20	1673.19
360.41	1693.67
360.62	1748.97
360.83	1683.43
361.04	1710.05
361.25	1794.02
361.46	1859.56
361.67	1783.78
361.88	1794.02
362.09	1791.97
362.30	1789.92
362.51	1660.90
362.72	1705.96
362.93	1794.02
363.14	1728.49
363.35	1714.15
363.56	1648.61
363.78	1722.34
363.99	1753.06
364.20	1697.77
364.41	1730.53
364.62	1824.74
364.83	1777.64
365.04	1693.67
365.25	1671.14
365.46	1818.60
365.67	1646.57
365.88	1652.71
366.09	1746.92
366.30	1665.00
366.51	1738.73
366.72	1621.99
366.93	1665.00
367.14	1642.47
367.35	1734.63
367.56	1746.92
367.77	1849.32
367.98	1748.97
368.18	1761.25
368.39	1718.25
368.60	1714.15
368.81	1800.16
369.02	1724.39
369.23	1718.25
369.44	1638.38
369.65	1642.47
369.86	1671.14
370.07	1771.49
370.28	1673.19
370.49	1671.14
370.70	1738.73
370.91	1632.23
371.12	1699.81
371.33	1761.25
371.54	1685.48
371.75	1714.15
371.96	1634.28
372.17	1720.29
372.38	1677.29
372.59	1753.06
372.80	1632.23
373.01	1681.38
373.22	1714.15
373.43	1724.39
373.64	1652.71
373.85	1796.07
374.06	1824.74
374.26	1814.50
374.47	1791.97
374.68	1787.88
374.89	1650.66
375.10	1691.62
375.31	1800.16
375.52	1785.83
375.73	1724.39
375.94	1683.43
376.15	1789.92
376.36	1660.90
376.57	1732.58
376.78	1703.91
376.99	1736.68
377.20	1826.79
377.40	1736.68
377.61	1832.93
377.82	1691.62
378.03	1769.44
378.24	1822.69
378.45	1722.34
378.66	1755.11
378.87	1701.86
379.08	1640.42
379.29	1697.77
379.50	1796.07
379.71	1665.00
379.91	1736.68
380.12	1673.19
380.33	1683.43
380.54	1697.77
380.75	1667.05
380.96	1693.67
381.17	1667.05
381.38	1740.77
381.59	1804.26
381.80	1708.01
382.00	1818.60
382.21	1726.44
382.42	1783.78
382.63	1837.03
382.84	1804.26
383.05	1742.82
383.26	1877.99
383.47	1693.67
383.68	1816.55
383.88	1691.62
384.09	1644.52
384.30	1781.73
384.51	1736.68
384.72	1640.42
384.93	1609.70
385.14	1656.81
385.35	1742.82
385.55	1650.66
385.76	1798.12
385.97	1775.59
386.18	1640.42
386.39	1691.62
386.60	1734.63
386.81	1665.00
387.02	1808.36
387.22	1656.81
387.43	1701.86
387.64	1867.75
387.85	1916.90
388.06	2193.37
388.27	4093.89
388.48	6567.84
388.68	8066.95
388.89	9332.59
389.10	9539.44
389.31	8497.02
389.52	7323.54
389.73	6776.73
389.93	6199.20
390.14	5771.18
390.35	5216.18
390.56	4507.58
390.77	3741.64
390.98	3092.43
391.18	2392.03
391.39	2187.23
391.60	1861.60
391.81	1820.64
392.02	1716.20
392.23	1904.61
392.43	1691.62
392.64	1769.44
392.85	1746.92
393.06	1861.60
393.27	1710.05
393.47	1660.90
393.68	1726.44
393.89	1693.67
394.10	1806.31
394.31	1638.38
394.52	1650.66
394.72	1742.82
394.93	1804.26
395.14	1636.33
395.35	1695.72
395.56	1685.48
395.76	1867.75
395.97	1763.30
396.18	1804.26
396.39	1839.08
396.60	2074.59
396.80	1902.56
397.01	1839.08
397.22	1785.83
397.43	1837.03
397.64	1755.11
397.84	1785.83
398.05	1892.32
398.26	1742.82
398.47	1726.44
398.67	1755.11
398.88	1751.01
399.09	1802.21
399.30	1746.92
399.51	1699.81
399.71	1662.95
399.92	1667.05
400.13	1705.96
400.34	1710.05
400.54	1683.43
400.75	1742.82
400.96	1773.54
401.17	1837.03
401.37	1755.11
401.58	1683.43
401.79	1714.15
402.00	1890.28
402.21	1986.53
402.41	1961.95
402.62	1988.58
402.83	1978.34
403.04	1886.18
403.24	1982.43
403.45	1822.69
403.66	1869.80
403.87	1882.08
404.07	1920.99
404.28	1859.56
404.49	1890.28
404.70	1767.40
404.90	1742.82
405.11	1722.34
405.32	1800.16
405.52	1681.38
405.73	1697.77
405.94	1660.90
406.15	1679.33
406.35	1697.77
406.56	1716.20
406.77	1662.95
406.98	1656.81
407.18	1730.53
407.39	1806.31
407.60	1755.11
407.80	1761.25
408.01	1675.24
408.22	1773.54
408.43	1669.09
408.63	1740.77
408.84	1783.78
409.05	1820.64
409.25	1648.61
409.46	1671.14
409.67	1691.62
409.88	1703.91
410.08	1800.16
410.29	1687.53
410.50	1753.06
410.70	1677.29
410.91	1624.04
411.12	1794.02
411.32	1708.01
411.53	1705.96
411.74	1763.30
411.95	1794.02
412.15	1744.87
412.36	1828.84
412.57	1804.26
412.77	1777.64
412.98	1748.97
413.19	1708.01
413.39	1726.44
413.60	1742.82
413.81	1789.92
414.01	1599.46
414.22	1820.64
414.43	1796.07
414.63	1648.61
414.84	1746.92
415.05	1738.73
415.25	1691.62
415.46	1691.62
415.67	1705.96
415.87	1667.05
416.08	1783.78
416.29	1720.29
416.49	1771.49
416.70	1669.09
416.91	1691.62
417.11	1757.16
417.32	1777.64
417.53	1718.25
417.73	1726.44
417.94	1589.22
418.15	1812.45
418.35	1736.68
418.56	1753.06
418.77	1826.79
418.97	1642.47
419.18	1708.01
419.38	1587.18
419.59	1744.87
419.80	1763.30
420.00	1736.68
420.21	1714.15
420.42	1812.45
420.62	1720.29
420.83	1712.10
421.04	1730.53
421.24	1710.05
421.45	1734.63
421.65	1755.11
421.86	1695.72
422.07	1748.97
422.27	1701.86
422.48	1683.43
422.69	1679.33
422.89	1681.38
423.10	1697.77
423.30	1660.90
423.51	1761.25
423.72	1705.96
423.92	1718.25
424.13	1626.09
424.33	1665.00
424.54	1880.04
424.75	1687.53
424.95	1843.17
425.16	1746.92
425.36	1708.01
425.57	1783.78
425.78	1812.45
425.98	1726.44
426.19	1669.09
426.39	1626.09
426.60	1755.11
426.81	1816.55
427.01	1751.01
427.22	1695.72
427.42	1603.56
427.63	1669.09
427.83	1718.25
428.04	1769.44
428.25	1849.32
428.45	1820.64
428.66	1742.82
428.86	1724.39
429.07	1685.48
429.28	1761.25
429.48	1665.00
429.69	1701.86
429.89	1689.57
430.10	1613.80
430.30	1773.54
430.51	1703.91
430.71	1628.14
430.92	1748.97
431.13	1658.85
431.33	1701.86
431.54	1808.36
431.74	1826.79
431.95	1826.79
432.15	1699.81
432.36	1695.72
432.56	1759.21
432.77	1855.46
432.98	1886.18
433.18	1675.24
433.39	1712.10
433.59	1734.63
433.80	1877.99
434.00	1863.65
434.21	1755.11
434.41	1642.47
434.62	1841.12
434.82	1619.94
435.03	1763.30
435.23	1730.53
435.44	1628.14
435.64	1701.86
435.85	1685.48
436.06	1648.61
436.26	1761.25
436.47	1744.87
436.67	1630.18
436.88	1615.85
437.08	1828.84
437.29	1765.35
437.49	1742.82
437.70	1787.88
437.90	1724.39
438.11	1900.52
438.31	1759.21
438.52	1800.16
438.72	1920.99
438.93	1857.51
439.13	1787.88
439.34	1822.69
439.54	1722.34
439.75	1800.16
439.95	1832.93
440.16	1722.34
440.36	1730.53
440.57	1791.97
440.77	1796.07
440.98	1728.49
441.18	1767.40
441.39	1693.67
441.59	1644.52
441.80	1896.42
442.00	1718.25
442.21	1914.85
442.41	1652.71
442.62	1816.55
442.82	1720.29
443.02	1742.82
443.23	1697.77
443.43	1783.78
443.64	1773.54
443.84	1689.57
444.05	1837.03
444.25	1748.97
444.46	1732.58
444.66	1677.29
444.87	1884.13
445.07	1669.09
445.28	1759.21
445.48	1802.21
445.69	1789.92
445.89	1865.70
446.09	1839.08
446.30	1998.82
446.50	2648.02
446.71	3682.25
446.91	4335.55
447.12	4777.91
447.32	4831.16
447.53	4286.40
447.73	3850.18
447.93	3561.42
448.14	3327.95
448.34	3270.61
448.55	2858.96
448.75	2799.57
448.96	2717.65
449.16	2299.87
449.36	2279.39
449.57	2109.41
449.77	1912.80
449.98	1712.10
450.18	1886.18
450.39	1861.60
450.59	1734.63
450.79	1763.30
451.00	1656.81
451.20	1695.72
451.41	1685.48
451.61	1779.68
451.81	1708.01
452.02	1730.53
452.22	1673.19
452.43	1687.53
452.63	1673.19
452.84	1712.10
453.04	1667.05
453.24	1769.44
453.45	1705.96
453.65	1671.14
453.86	1746.92
454.06	1892.32
454.26	1705.96
454.47	1740.77
454.67	1832.93
454.87	1703.91
455.08	1740.77
455.28	1798.12
455.49	1791.97
455.69	1658.85
455.89	1886.18
456.10	1785.83
456.30	1730.53
456.51	1787.88
456.71	1755.11
456.91	1830.88
457.12	1708.01
457.32	1828.84
457.52	1648.61
457.73	1746.92
457.93	1728.49
458.14	1708.01
458.34	1642.47
458.54	1693.67
458.75	1738.73
458.95	1771.49
459.15	1798.12
459.36	1755.11
459.56	1767.40
459.76	1880.04
459.97	1767.40
460.17	1742.82
460.37	1794.02
460.58	1660.90
460.78	1722.34
460.99	1781.73
461.19	1665.00
461.39	1767.40
461.60	1710.05
461.80	1767.40
462.00	1742.82
462.21	1718.25
462.41	1683.43
462.61	1689.57
462.82	1656.81
463.02	1751.01
463.22	1708.01
463.43	1773.54
463.63	1771.49
463.83	1843.17
464.04	1775.59
464.24	1701.86
464.44	1626.09
464.64	1728.49
464.85	1791.97
465.05	1763.30
465.25	1767.40
465.46	1693.67
465.66	1697.77
465.86	1804.26
466.07	1720.29
466.27	1701.86
466.47	1662.95
466.68	1722.34
466.88	1705.96
467.08	1722.34
467.29	1783.78
467.49	1744.87
467.69	1791.97
467.89	1763.30
468.10	1705.96
468.30	1757.16
468.50	1785.83
468.71	1669.09
468.91	1710.05
469.11	1783.78
469.31	1718.25
469.52	1742.82
469.72	1808.36
469.92	1884.13
470.13	1691.62
470.33	1773.54
470.53	1791.97
470.73	2090.98
470.94	2273.25
471.14	2326.49
471.34	2529.24
471.54	2539.48
471.75	2172.89
471.95	2105.31
472.15	2166.75
472.36	2197.47
472.56	2041.82
472.76	2090.98
472.96	2052.06
473.17	1945.57
473.37	1951.71
473.57	1888.23
473.77	1843.17
473.98	1773.54
474.18	1624.04
474.38	1906.66
474.58	1660.90
474.79	1691.62
474.99	1712.10
475.19	1710.05
475.39	1677.29
475.60	1681.38
475.80	1763.30
476.00	1708.01
476.20	1726.44
476.41	1734.63
476.61	1857.51
476.81	1837.03
477.01	1701.86
477.21	1867.75
477.42	1865.70
477.62	1685.48
477.82	1826.79
478.02	1791.97
478.23	1816.55
478.43	1654.76
478.63	1689.57
478.83	1732.58
479.03	1722.34
479.24	1775.59
479.44	1851.36
479.64	1679.33
479.84	1566.70
480.04	1665.00
480.25	1771.49
480.45	1689.57
480.65	1781.73
480.85	1746.92
481.06	1652.71
481.26	1794.02
481.46	1808.36
481.66	1742.82
481.86	1732.58
482.06	1798.12
482.27	1691.62
482.47	1695.72
482.67	1724.39
482.87	1681.38
483.07	1812.45
483.28	1615.85
483.48	1654.76
483.68	1814.50
483.88	1701.86
484.08	1626.09
484.29	1679.33
484.49	1728.49
484.69	1650.66
484.89	1779.68
485.09	1789.92
485.29	1781.73
485.50	1796.07
485.70	1652.71
485.90	1789.92
486.10	1808.36
486.30	1755.11
486.50	1769.44
486.71	1773.54
486.91	1839.08
487.11	1837.03
487.31	1683.43
487.51	1714.15
487.71	1726.44
487.91	1642.47
488.12	1630.18
488.32	1632.23
488.52	1710.05
488.72	1710.05
488.92	1775.59
489.12	1818.60
489.32	1755.11
489.53	1728.49
489.73	1624.04
489.93	1785.83
490.13	1697.77
490.33	1685.48
490.53	1710.05
490.73	1769.44
490.94	1712.10
491.14	1761.25
491.34	1777.64
491.54	2133.98
491.74	2516.95
491.94	2858.96
492.14	3065.81
492.34	3012.56
492.54	2803.67
492.75	2435.03
492.95	2498.52
493.15	2389.98
493.35	2297.82
493.55	2265.05
493.75	2064.35
493.95	2148.32
494.15	1986.53
494.35	1906.66
494.56	1847.27
494.76	1718.25
494.96	1787.88
495.16	1857.51
495.36	1732.58
495.56	1654.76
495.76	1695.72
495.96	1673.19
496.16	1697.77
496.36	1863.65
496.56	1755.11
496.77	1708.01
496.97	1746.92
497.17	1847.27
497.37	1617.90
497.57	1761.25
497.77	1712.10
497.97	1783.78
498.17	1724.39
498.37	1658.85
498.57	1773.54
498.77	1673.19
498.97	1753.06
499.17	1837.03
499.38	1699.81
499.58	1736.68
499.78	1804.26
499.98	1828.84
500.18	1753.06
500.38	1787.88
500.58	1955.81
500.78	2514.91
500.98	4526.01
501.18	5789.61
501.38	6729.63
501.58	7063.44
501.78	6829.98
501.98	5621.67
502.18	4958.13
502.38	4417.47
502.58	4054.98
502.78	3690.44
502.98	3661.77
503.18	3497.93
503.38	3248.08
503.59	2863.06
503.79	2680.79
503.99	2519.00
504.19	2344.92
504.39	2281.44
504.59	2209.76
504.79	2070.50
504.99	2115.55
505.19	1937.38
505.39	1884.13
505.59	2013.15
505.79	1957.86
505.99	1888.23
506.19	1880.04
506.39	1837.03
506.59	1824.74
506.79	1771.49
506.99	1894.37
507.19	1689.57
507.39	1757.16
507.59	1640.42
507.79	1669.09
507.99	1763.30
508.19	1763.30
508.39	1654.76
508.59	1714.15
508.79	1796.07
508.99	1865.70
509.19	1685.48
509.39	1785.83
509.59	1705.96
509.79	1675.24
509.99	1695.72
510.19	1796.07
510.39	1861.60
510.59	1724.39
510.79	1726.44
510.99	1759.21
511.19	1816.55
511.39	1857.51
511.59	1820.64
511.79	1869.80
511.99	1791.97
512.19	1832.93
512.38	1710.05
512.58	1673.19
512.78	1748.97
512.98	1734.63
513.18	1830.88
513.38	1624.04
513.58	1710.05
513.78	1605.61
513.98	1798.12
514.18	1693.67
514.38	1697.77
514.58	1779.68
514.78	1718.25
514.98	1744.87
515.18	1751.01
515.38	1632.23
515.58	1875.94
515.78	1681.38
515.98	1669.09
516.18	1775.59
516.38	1624.04
516.57	1693.67
516.77	1738.73
516.97	1718.25
517.17	1791.97
517.37	1724.39
517.57	1751.01
517.77	1708.01
517.97	1714.15
518.17	1775.59
518.37	1734.63
518.57	1726.44
518.77	1712.10
518.97	1689.57
519.16	1800.16
519.36	1777.64
519.56	1798.12
519.76	1695.72
519.96	1738.73
520.16	1771.49
520.36	1677.29
520.56	1896.42
520.76	1751.01
520.96	1693.67
521.16	1738.73
521.35	1759.21
521.55	1767.40
521.75	1775.59
521.95	1675.24
522.15	1736.68
522.35	1685.48
522.55	1640.42
522.75	1828.84
522.95	1718.25
523.14	1718.25
523.34	1773.54
523.54	1736.68
523.74	1794.02
523.94	1740.77
524.14	1710.05
524.34	1757.16
524.54	1845.22
524.73	1652.71
524.93	1767.40
525.13	1767.40
525.33	1734.63
525.53	1853.41
525.73	1796.07
525.93	1755.11
526.13	1759.21
526.32	1683.43
526.52	1832.93
526.72	1746.92
526.92	1699.81
527.12	1689.57
527.32	1640.42
527.52	1814.50
527.71	1755.11
527.91	1677.29
528.11	1761.25
528.31	1744.87
528.51	1681.38
528.71	1732.58
528.90	1744.87
529.10	1890.28
529.30	1816.55
529.50	1605.61
529.70	1714.15
529.90	1738.73
530.09	1759.21
530.29	1656.81
530.49	1699.81
530.69	1941.47
530.89	1708.01
531.09	1820.64
531.28	1738.73
531.48	1794.02
531.68	1726.44
531.88	1742.82
532.08	1875.94
532.28	1705.96
532.47	1740.77
532.67	1810.40
532.87	1759.21
533.07	1673.19
533.27	1748.97
533.46	1736.68
533.66	1861.60
533.86	1826.79
534.06	1697.77
534.26	1714.15
534.45	1689.57
534.65	1703.91
534.85	1703.91
535.05	1716.20
535.25	1753.06
535.44	1685.48
535.64	1812.45
535.84	1738.73
536.04	1689.57
536.24	1740.77
536.43	1720.29
536.63	1779.68
536.83	1722.34
537.03	1779.68
537.22	1611.75
537.42	1603.56
537.62	1740.77
537.82	1734.63
538.02	1798.12
538.21	1789.92
538.41	1886.18
538.61	1738.73
538.81	1732.58
539.00	1765.35
539.20	1751.01
539.40	1740.77
539.60	1716.20
539.79	1771.49
539.99	1693.67
540.19	1769.44
540.39	1738.73
540.58	1730.53
540.78	1837.03
540.98	1841.12
541.18	1785.83
541.37	1693.67
541.57	1763.30
541.77	1773.54
541.97	1699.81
542.16	1685.48
542.36	1718.25
542.56	1730.53
542.76	1839.08
542.95	1791.97
543.15	1689.57
543.35	1822.69
543.54	1728.49
543.74	1708.01
543.94	1779.68
544.14	1769.44
544.33	1767.40
544.53	1755.11
544.73	1767.40
544.93	1710.05
545.12	1773.54
545.32	1794.02
545.52	1701.86
545.71	1718.25
545.91	1759.21
546.11	1826.79
546.30	1683.43
546.50	1753.06
546.70	1785.83
546.90	1697.77
547.09	1660.90
547.29	1753.06
547.49	1716.20
547.68	1734.63
547.88	1708.01
548.08	1726.44
548.27	2181.09
548.47	1597.42
548.67	1724.39
548.87	1798.12
549.06	1710.05
549.26	1779.68
549.46	1767.40
549.65	1695.72
549.85	1705.96
550.05	1828.84
550.24	1781.73
550.44	1763.30
550.64	1734.63
550.83	1691.62
551.03	1785.83
551.23	1855.46
551.42	1640.42
551.62	1769.44
551.82	1714.15
552.01	1738.73
552.21	1806.31
552.41	1787.88
552.60	1794.02
552.80	1767.40
553.00	1718.25
553.19	1681.38
553.39	1820.64
553.59	1671.14
553.78	1734.63
553.98	1757.16
554.17	1732.58
554.37	1802.21
554.57	1832.93
554.76	1712.10
554.96	1669.09
555.16	1816.55
555.35	1798.12
555.55	1828.84
555.75	1802.21
555.94	1763.30
556.14	1660.90
556.33	1701.86
556.53	1705.96
556.73	1759.21
556.92	1755.11
557.12	1812.45
557.32	1787.88
557.51	1767.40
557.71	1837.03
557.90	1845.22
558.10	1787.88
558.30	1705.96
558.49	1720.29
558.69	1738.73
558.88	1794.02
559.08	1816.55
559.28	1748.97
559.47	1665.00
559.67	1751.01
559.86	1853.41
560.06	1732.58
560.26	1701.86
560.45	1777.64
560.65	1697.77
560.84	1843.17
561.04	1705.96
561.24	1771.49
561.43	1675.24
561.63	1832.93
561.82	1734.63
562.02	1777.64
562.22	1744.87
562.41	1703.91
562.61	1746.92
562.80	1607.66
563.00	1851.36
563.19	1791.97
563.39	1724.39
563.59	1769.44
563.78	1689.57
563.98	1646.57
564.17	1732.58
564.37	1687.53
564.56	1710.05
564.76	1689.57
564.96	1902.56
565.15	1667.05
565.35	1888.23
565.54	1734.63
565.74	1755.11
565.93	1697.77
566.13	1787.88
566.32	1789.92
566.52	1806.31
566.71	1746.92
566.91	1791.97
567.11	1683.43
567.30	1722.34
567.50	1763.30
567.69	1757.16
567.89	1769.44
568.08	1722.34
568.28	1785.83
568.47	1679.33
568.67	1734.63
568.86	1734.63
569.06	1812.45
569.25	1634.28
569.45	1658.85
569.64	1611.75
569.84	1679.33
570.04	1781.73
570.23	1751.01
570.43	1759.21
570.62	1804.26
570.82	1841.12
571.01	1638.38
571.21	1730.53
571.40	1710.05
571.60	1785.83
571.79	1734.63
571.99	1767.40
572.18	1644.52
572.38	1720.29
572.57	1796.07
572.77	1765.35
572.96	1910.75
573.16	1783.78
573.35	1697.77
573.55	1894.37
573.74	1810.40
573.94	1728.49
574.13	1724.39
574.33	1740.77
574.52	1849.32
574.71	1742.82
574.91	1781.73
575.10	1689.57
575.30	1724.39
575.49	1722.34
575.69	1738.73
575.88	1779.68
576.08	1746.92
576.27	1779.68
576.47	1740.77
576.66	1845.22
576.86	1832.93
577.05	1773.54
577.25	1904.61
577.44	1837.03
577.64	1650.66
577.83	1722.34
578.02	1722.34
578.22	1849.32
578.41	1814.50
578.61	1730.53
578.80	1730.53
579.00	1722.34
579.19	1767.40
579.39	1734.63
579.58	1861.60
579.77	1771.49
579.97	1806.31
580.16	1853.41
580.36	1880.04
580.55	1849.32
580.75	1853.41
580.94	1863.65
581.13	1877.99
581.33	1859.56
581.52	1787.88
581.72	1873.89
581.91	1857.51
582.11	1708.01
582.30	1802.21
582.49	1765.35
582.69	1789.92
582.88	1773.54
583.08	1808.36
583.27	1834.98
583.47	1806.31
583.66	1744.87
583.85	1710.05
584.05	1693.67
584.24	1861.60
584.44	1748.97
584.63	1875.94
584.82	1791.97
585.02	1853.41
585.21	1736.68
585.41	1837.03
585.60	1861.60
585.79	1902.56
585.99	1902.56
586.18	1847.27
586.37	2256.86
586.57	3350.48
586.76	9695.08
586.96	24168.08
587.15	33680.89
587.34	39478.69
587.54	41424.26
587.73	35941.85
587.93	25675.38
588.12	21053.12
588.31	18058.99
588.51	16131.85
588.70	14927.64
588.89	13846.32
589.09	12345.16
589.28	10946.39
589.47	9389.94
589.67	7780.23
589.86	6363.04
590.06	4902.84
590.25	3874.76
590.44	3110.86
590.64	2551.77
590.83	2240.48
591.02	2037.73
591.22	1980.39
591.41	1900.52
591.60	1804.26
591.80	1947.62
591.99	1716.20
592.18	1746.92
592.38	1832.93
592.57	1748.97
592.76	1779.68
592.96	1783.78
593.15	1775.59
593.34	1773.54
593.54	1771.49
593.73	1820.64
593.92	1812.45
594.12	1746.92
594.31	1802.21
594.50	1851.36
594.70	1880.04
594.89	1859.56
595.08	1753.06
595.28	1802.21
595.47	1976.29
595.66	1773.54
595.86	1673.19
596.05	1746.92
596.24	1734.63
596.43	1861.60
596.63	1798.12
596.82	1724.39
597.01	1765.35
597.21	1867.75
597.40	1779.68
597.59	1718.25
597.79	1708.01
597.98	1787.88
598.17	1755.11
598.36	1798.12
598.56	1773.54
598.75	1783.78
598.94	1716.20
599.14	1771.49
599.33	1734.63
599.52	1753.06
599.71	1734.63
599.91	1853.41
600.10	1748.97
600.29	1779.68
600.48	1740.77
600.68	1808.36
600.87	1761.25
601.06	1763.30
601.26	1794.02
601.45	1759.21
601.64	1695.72
601.83	1820.64
602.03	1761.25
602.22	1697.77
602.41	1783.78
602.60	1806.31
602.80	1812.45
602.99	1726.44
603.18	1820.64
603.37	1751.01
603.57	1728.49
603.76	1791.97
603.95	1837.03
604.14	1783.78
604.34	1685.48
604.53	1669.09
604.72	1738.73
604.91	1722.34
605.10	1818.60
605.30	1654.76
605.49	1818.60
605.68	1710.05
605.87	1796.07
606.07	1695.72
606.26	1738.73
606.45	1810.40
606.64	1718.25
606.84	1683.43
607.03	1667.05
607.22	1808.36
607.41	1695.72
607.60	1701.86
607.80	1822.69
607.99	1738.73
608.18	1767.40
608.37	1724.39
608.56	1691.62
608.76	1765.35
608.95	1843.17
609.14	1763.30
609.33	1806.31
609.52	1677.29
609.72	1791.97
609.91	1787.88
610.10	1712.10
610.29	1877.99
610.48	1746.92
610.68	1738.73
610.87	1757.16
611.06	1781.73
611.25	1812.45
611.44	1871.84
611.63	1683.43
611.83	1849.32
612.02	1658.85
612.21	1828.84
612.40	1685.48
612.59	1708.01
612.79	1652.71
612.98	1751.01
613.17	1847.27
613.36	1687.53
613.55	1769.44
613.74	1685.48
613.93	1685.48
614.13	1763.30
614.32	1728.49
614.51	1724.39
614.70	1755.11
614.89	1726.44
615.08	1746.92
615.28	2047.97
615.47	1689.57
615.66	1697.77
615.85	1710.05
616.04	1806.31
616.23	1673.19
616.42	1779.68
616.62	1777.64
616.81	1736.68
617.00	1783.78
617.19	1765.35
617.38	1714.15
617.57	1751.01
617.76	1744.87
617.95	1724.39
618.15	1671.14
618.34	1898.47
618.53	1703.91
618.72	1796.07
618.91	1857.51
619.10	1828.84
619.29	1695.72
619.48	1765.35
619.68	1761.25
619.87	1738.73
620.06	1730.53
620.25	1785.83
620.44	1726.44
620.63	1734.63
620.82	1718.25
621.01	1730.53
621.20	1687.53
621.39	1775.59
621.59	1695.72
621.78	1726.44
621.97	1701.86
622.16	1789.92
622.35	1722.34
622.54	1763.30
622.73	1761.25
622.92	1634.28
623.11	1722.34
623.30	1677.29
623.49	1765.35
623.68	1626.09
623.88	1716.20
624.07	1779.68
624.26	1701.86
624.45	1714.15
624.64	1662.95
624.83	1738.73
625.02	1693.67
625.21	1742.82
625.40	1759.21
625.59	1816.55
625.78	1699.81
625.97	1742.82
626.16	1826.79
626.35	1730.53
626.54	1677.29
626.74	1763.30
626.93	1697.77
627.12	1775.59
627.31	1837.03
627.50	1748.97
627.69	1812.45
627.88	1716.20
628.07	1730.53
628.26	1665.00
628.45	1642.47
628.64	1681.38
628.83	1712.10
629.02	1658.85
629.21	1773.54
629.40	1757.16
629.59	1662.95
629.78	1740.77
629.97	1802.21
630.16	1767.40
630.35	1705.96
630.54	1734.63
630.73	1708.01
630.92	1763.30
631.11	1665.00
631.30	1736.68
631.49	1810.40
631.68	1753.06
631.87	1705.96
632.06	1714.15
632.25	1877.99
632.44	1775.59
632.63	1820.64
632.82	1714.15
633.01	1640.42
633.20	1712.10
633.39	1658.85
633.58	1650.66
633.77	1689.57
633.96	1726.44
634.15	1765.35
634.34	1794.02
634.53	1671.14
634.72	1708.01
634.91	1609.70
635.10	1734.63
635.29	1794.02
635.48	1716.20
635.67	1720.29
635.86	1638.38
636.05	1779.68
636.24	1716.20
636.43	1716.20
636.62	1787.88
636.81	1574.89
637.00	1783.78
637.19	1738.73
637.38	1726.44
637.57	1687.53
637.76	1679.33
637.95	1738.73
638.14	1767.40
638.33	1751.01
638.52	1634.28
638.71	1697.77
638.89	1626.09
639.08	1847.27
639.27	1779.68
639.46	1736.68
639.65	1777.64
639.84	1736.68
640.03	1826.79
640.22	1675.24
640.41	1837.03
640.60	1626.09
640.79	1673.19
640.98	1683.43
641.17	1781.73
641.36	1720.29
641.55	1685.48
641.74	1691.62
641.92	1765.35
642.11	1818.60
642.30	1763.30
642.49	1607.66
642.68	1638.38
642.87	1751.01
643.06	1716.20
643.25	1783.78
643.44	1732.58
643.63	1767.40
643.82	1738.73
644.00	1736.68
644.19	1742.82
644.38	1695.72
644.57	1787.88
644.76	1705.96
644.95	1751.01
645.14	1714.15
645.33	1665.00
645.52	1697.77
645.71	1634.28
645.89	1703.91
646.08	1806.31
646.27	1685.48
646.46	1812.45
646.65	1665.00
646.84	1708.01
647.03	1662.95
647.22	1759.21
647.40	1718.25
647.59	1660.90
647.78	1738.73
647.97	1677.29
648.16	1681.38
648.35	1826.79
648.54	1822.69
648.73	1691.62
648.91	1771.49
649.10	1755.11
649.29	1697.77
649.48	1710.05
649.67	1654.76
649.86	1683.43
650.05	1683.43
650.23	1781.73
650.42	1658.85
650.61	1820.64
650.80	1818.60
650.99	1880.04
651.18	1720.29
651.36	1763.30
651.55	1724.39
651.74	1779.68
651.93	1683.43
652.12	1675.24
652.31	1712.10
652.49	1689.57
652.68	1779.68
652.87	1845.22
653.06	1806.31
653.25	1808.36
653.44	1765.35
653.62	1730.53
653.81	1705.96
654.00	1755.11
654.19	1746.92
654.38	1871.84
654.56	1763.30
654.75	1705.96
654.94	1755.11
655.13	1777.64
655.32	1691.62
655.51	1685.48
655.69	1632.23
655.88	1724.39
656.07	1675.24
656.26	1751.01
656.45	1675.24
656.63	1705.96
656.82	1718.25
657.01	1798.12
657.20	1652.71
657.38	1810.40
657.57	1699.81
657.76	1640.42
657.95	1843.17
658.14	1675.24
658.32	1742.82
658.51	1597.42
658.70	1681.38
658.89	1699.81
659.08	1738.73
659.26	1898.47
659.45	1671.14
659.64	1679.33
659.83	1673.19
660.01	1943.52
660.20	1726.44
660.39	1779.68
660.58	1611.75
660.76	1818.60
660.95	1667.05
661.14	1710.05
661.33	1718.25
661.51	1646.57
661.70	1658.85
661.89	1796.07
662.08	1779.68
662.26	1611.75
662.45	1730.53
662.64	1857.51
662.83	1832.93
663.01	1685.48
663.20	1746.92
663.39	1837.03
663.58	1753.06
663.76	1759.21
663.95	1697.77
664.14	1675.24
664.32	1683.43
664.51	1683.43
664.70	1624.04
664.89	1789.92
665.07	1650.66
665.26	1771.49
665.45	1683.43
665.64	1810.40
665.82	1767.40
666.01	1742.82
666.20	1677.29
666.38	1871.84
666.57	1720.29
666.76	2183.13
666.95	4462.52
667.13	10286.95
667.32	15034.14
667.51	17694.45
667.69	18781.92
667.88	17477.37
668.07	12269.38
668.25	9564.01
668.44	8005.51
668.63	7303.06
668.81	6875.03
669.00	6170.53
669.19	5607.34
669.38	4990.90
669.56	4593.59
669.75	3938.24
669.94	3491.79
670.12	2975.70
670.31	2543.58
670.50	2308.06
670.68	2068.45
670.87	1863.65
671.06	1806.31
671.24	1779.68
671.43	1884.13
671.62	1728.49
671.80	1751.01
671.99	1812.45
672.18	1771.49
672.36	1781.73
672.55	1794.02
672.74	1779.68
672.92	1665.00
673.11	1808.36
673.29	1603.56
673.48	1734.63
673.67	1632.23
673.85	1800.16
674.04	1718.25
674.23	1818.60
674.41	1820.64
674.60	1599.46
674.79	1542.12
674.97	1689.57
675.16	1716.20
675.34	1771.49
675.53	1693.67
675.72	1761.25
675.90	1841.12
676.09	1714.15
676.28	1791.97
676.46	1626.09
676.65	1703.91
676.83	1644.52
677.02	1658.85
677.21	1775.59
677.39	1804.26
677.58	1718.25
677.77	1601.51
677.95	1738.73
678.14	1726.44
678.32	1775.59
678.51	1757.16
678.70	1894.37
678.88	1691.62
679.07	1740.77
679.25	1632.23
679.44	1654.76
679.63	1617.90
679.81	1726.44
680.00	1697.77
680.18	1771.49
680.37	1757.16
680.55	1701.86
680.74	1693.67
680.93	1695.72
681.11	1701.86
681.30	1675.24
681.48	1744.87
681.67	1714.15
681.85	1705.96
682.04	1703.91
682.23	1773.54
682.41	1658.85
682.60	1634.28
682.78	1757.16
682.97	1621.99
683.15	1697.77
683.34	1742.82
683.53	1693.67
683.71	1615.85
683.90	1814.50
684.08	1812.45
684.27	1693.67
684.45	1718.25
684.64	1857.51
684.82	1677.29
685.01	1722.34
685.19	1742.82
685.38	1791.97
685.57	1726.44
685.75	1673.19
685.94	1701.86
686.12	1652.71
686.31	1736.68
686.49	1863.65
686.68	1601.51
686.86	1802.21
687.05	1720.29
687.23	1828.84
687.42	1703.91
687.60	1699.81
687.79	1699.81
687.97	1796.07
688.16	1703.91
688.34	1736.68
688.53	1578.98
688.71	1675.24
688.90	1748.97
689.08	1677.29
689.27	1687.53
689.45	1738.73
689.64	1744.87
689.82	1814.50
690.01	1732.58
690.19	1710.05
690.38	1736.68
690.56	1787.88
690.75	1601.51
690.93	1724.39
691.12	1675.24
691.30	1837.03
691.49	1708.01
691.67	1642.47
691.86	1814.50
692.04	1689.57
692.23	1697.77
692.41	1689.57
692.60	1806.31
692.78	1822.69
692.97	1740.77
693.15	1677.29
693.34	1818.60
693.52	1710.05
693.71	1650.66
693.89	1648.61
694.08	1640.42
694.26	1771.49
694.44	1738.73
694.63	1781.73
694.81	1605.61
695.00	1705.96
695.18	1789.92
695.37	1816.55
695.55	1736.68
695.74	1771.49
695.92	1683.43
696.10	1697.77
696.29	1632.23
696.47	1665.00
696.66	1609.70
696.84	1708.01
697.03	1634.28
697.21	1742.82
697.40	2342.88
697.58	1785.83
697.76	1718.25
697.95	1644.52
698.13	1613.80
698.32	1687.53
698.50	1726.44
698.68	1761.25
698.87	1728.49
699.05	1849.32
699.24	1714.15
699.42	1714.15
699.61	1701.86
699.79	1812.45
699.97	1726.44
700.16	1701.86
700.34	1728.49
700.53	1742.82
700.71	1818.60
700.89	1761.25
701.08	1699.81
701.26	1689.57
701.45	2148.32
701.63	1677.29
701.81	1765.35
702.00	1705.96
702.18	1734.63
702.37	1675.24
702.55	1701.86
702.73	1640.42
702.92	1701.86
703.10	1705.96
703.28	1748.97
703.47	1607.66
703.65	1826.79
703.84	1773.54
704.02	1626.09
704.20	1791.97
704.39	1742.82
704.57	1658.85
704.75	1755.11
704.94	1841.12
705.12	1730.53
705.30	1892.32
705.49	2248.67
705.67	4323.26
705.86	9191.28
706.04	12216.13
706.22	14171.94
706.41	15089.43
706.59	13750.06
706.77	9252.72
706.96	7346.06
707.14	6399.90
707.32	5902.25
707.51	5640.11
707.69	4949.94
707.87	4251.58
708.06	3440.59
708.24	2863.06
708.42	2453.47
708.61	2189.28
708.79	1929.19
708.97	1798.12
709.16	1890.28
709.34	1789.92
709.52	1773.54
709.71	1791.97
709.89	1775.59
710.07	1660.90
710.26	1660.90
710.44	1773.54
710.62	1839.08
710.80	1697.77
710.99	1849.32
711.17	1718.25
711.35	1677.29
711.54	1644.52
711.72	1841.12
711.90	1748.97
712.09	1695.72
712.27	1681.38
712.45	1740.77
712.63	1679.33
712.82	1675.24
713.00	1716.20
713.18	1730.53
713.37	1705.96
713.55	1779.68
713.73	1724.39
713.91	1804.26
714.10	1736.68
714.28	1718.25
714.46	1767.40
714.65	1796.07
714.83	1761.25
715.01	1736.68
715.19	1781.73
715.38	1560.55
715.56	1765.35
715.74	1648.61
715.92	1658.85
716.11	1761.25
716.29	1593.32
716.47	1767.40
716.65	1699.81
716.84	1634.28
717.02	1732.58
717.20	1646.57
717.38	1652.71
717.57	1722.34
717.75	1708.01
717.93	1777.64
718.11	1726.44
718.30	1701.86
718.48	1685.48
718.66	1734.63
718.84	1853.41
719.03	1712.10
719.21	1632.23
719.39	1816.55
719.57	1796.07
719.75	1796.07
719.94	1675.24
720.12	1732.58
720.30	1705.96
720.48	1767.40
720.67	1607.66
720.85	1714.15
721.03	1697.77
721.21	1681.38
721.39	1812.45
721.58	1679.33
721.76	1771.49
721.94	1703.91
722.12	1695.72
722.30	1802.21
722.49	1746.92
722.67	1705.96
722.85	1710.05
723.03	1662.95
723.21	1804.26
723.40	1691.62
723.58	1777.64
723.76	1761.25
723.94	1755.11
724.12	1759.21
724.30	1781.73
724.49	1771.49
724.67	1683.43
724.85	1804.26
725.03	1652.71
725.21	1693.67
725.40	1753.06
725.58	1724.39
725.76	1759.21
725.94	1771.49
726.12	1615.85
726.30	1783.78
726.49	1712.10
726.67	1656.81
726.85	1724.39
727.03	1810.40
727.21	2199.52
727.39	2863.06
727.57	3780.55
727.76	4089.79
727.94	4358.08
728.12	4313.02
728.30	3712.97
728.48	3030.99
728.66	2695.13
728.84	2590.68
729.03	2287.58
729.21	2205.66
729.39	1984.48
729.57	1818.60
729.75	1796.07
729.93	1863.65
730.11	1689.57
730.30	1748.97
730.48	1681.38
730.66	1724.39
730.84	1783.78
731.02	1728.49
731.20	1736.68
731.38	1722.34
731.56	1759.21
731.74	1720.29
731.93	1753.06
732.11	1722.34
732.29	1675.24
732.47	1722.34
732.65	1718.25
732.83	1789.92
733.01	1746.92
733.19	1605.61
733.37	1744.87
733.56	1652.71
733.74	1710.05
733.92	1730.53
734.10	1710.05
734.28	1785.83
734.46	1615.85
734.64	1646.57
734.82	1675.24
735.00	1685.48
735.18	1722.34
735.36	1759.21
735.54	1746.92
735.73	1632.23
735.91	1699.81
736.09	1714.15
736.27	1667.05
736.45	1703.91
736.63	1589.22
736.81	1783.78
736.99	1730.53
737.17	1773.54
737.35	1699.81
737.53	1716.20
737.71	1648.61
737.89	1757.16
738.07	1687.53
738.25	1669.09
738.43	1648.61
738.61	1648.61
738.80	1568.74
738.98	1722.34
739.16	1734.63
739.34	1640.42
739.52	1751.01
739.70	1734.63
739.88	1759.21
740.06	1757.16
740.24	1591.27
740.42	1777.64
740.60	1636.33
740.78	1658.85
740.96	1619.94
741.14	1607.66
741.32	1665.00
741.50	1634.28
741.68	1837.03
741.86	1824.74
742.04	1615.85
742.22	1662.95
742.40	1734.63
742.58	1753.06
742.76	1667.05
742.94	1746.92
743.12	1621.99
743.30	1767.40
743.48	1794.02
743.66	1644.52
743.84	1710.05
744.02	1701.86
744.20	1738.73
744.38	1677.29
744.56	1630.18
744.74	1851.36
744.92	1738.73
745.10	1816.55
745.28	1654.76
745.46	1800.16
745.64	1677.29
745.82	1744.87
746.00	1789.92
746.18	1714.15
746.36	1640.42
746.54	1703.91
746.72	1716.20
746.90	1675.24
747.08	1853.41
747.26	1673.19
747.44	1718.25
747.62	1693.67
747.80	1771.49
747.98	1814.50
748.15	1648.61
748.33	1757.16
748.51	1681.38
748.69	1822.69
748.87	1689.57
749.05	1683.43
749.23	1742.82
749.41	1748.97
749.59	1648.61
749.77	1837.03
749.95	1669.09
750.13	1697.77
750.31	1742.82
750.49	1677.29
750.67	1714.15
750.85	1736.68
751.03	1701.86
751.20	1837.03
751.38	1695.72
751.56	1724.39
751.74	1677.29
751.92	1642.47
752.10	1671.14
752.28	1771.49
752.46	1671.14
752.64	1687.53
752.82	1642.47
753.00	1812.45
753.18	1677.29
753.35	1738.73
753.53	1699.81
753.71	1726.44
753.89	1732.58
754.07	1751.01
754.25	1787.88
754.43	1626.09
754.61	1624.04
754.79	1718.25
754.97	1728.49
755.14	1759.21
755.32	1636.33
755.50	1763.30
755.68	1695.72
755.86	1640.42
756.04	1671.14
756.22	1613.80
756.40	1679.33
756.57	1826.79
756.75	1671.14
756.93	1779.68
757.11	1742.82
757.29	1617.90
757.47	1658.85
757.65	1632.23
757.82	1730.53
758.00	1720.29
758.18	1673.19
758.36	1701.86
758.54	1761.25
758.72	1648.61
758.90	1724.39
759.07	1736.68
759.25	1671.14
759.43	1769.44
759.61	1581.03
759.79	2203.61
759.97	1730.53
760.15	1712.10
760.32	1722.34
760.50	1718.25
760.68	1746.92
760.86	1662.95
761.04	1724.39
761.22	1804.26
761.39	1677.29
761.57	1728.49
761.75	1648.61
761.93	1834.98
762.11	1687.53
762.28	1748.97
762.46	1689.57
762.64	1765.35
762.82	1626.09
763.00	1763.30
763.18	1759.21
763.35	1621.99
763.53	1665.00
763.71	1710.05
763.89	1718.25
764.07	1716.20
764.24	1708.01
764.42	1828.84
764.60	1691.62
764.78	1687.53
764.96	1812.45
765.13	1738.73
765.31	1658.85
765.49	1810.40
765.67	1665.00
765.84	1669.09
766.02	1759.21
766.20	1599.46
766.38	1757.16
766.56	1708.01
766.73	1759.21
766.91	1697.77
767.09	1642.47
767.27	1759.21
767.44	1726.44
767.62	1701.86
767.80	1771.49
767.98	1736.68
768.15	1738.73
768.33	1724.39
768.51	1701.86
768.69	1753.06
768.87	1732.58
769.04	1738.73
769.22	1845.22
769.40	1753.06
769.58	1798.12
769.75	1771.49
769.93	1787.88
770.11	1726.44
770.28	1671.14
770.46	1742.82
770.64	1775.59
770.82	1714.15
770.99	1683.43
771.17	1763.30
771.35	1695.72
771.53	1697.77
771.70	1710.05
771.88	1673.19
772.06	1720.29
772.23	1611.75
772.41	1775.59
772.59	1775.59
772.77	1615.85
772.94	1685.48
773.12	1712.10
773.30	1695.72
773.47	1820.64
773.65	1626.09
773.83	1740.77
774.01	1662.95
774.18	1611.75
774.36	1650.66
774.54	1634.28
774.71	1689.57
774.89	1642.47
775.07	1636.33
775.24	1593.32
775.42	1652.71
775.60	1832.93
775.78	1628.14
775.95	1603.56
776.13	1621.99
776.31	1585.13
776.48	1695.72
776.66	1820.64
776.84	1703.91
777.01	1703.91
777.19	1632.23
777.37	1632.23
777.54	1728.49
777.72	1828.84
777.90	1744.87
778.07	1638.38
778.25	1845.22
778.43	1783.78
778.60	1710.05
778.78	1730.53
778.96	1779.68
779.13	1615.85
779.31	1785.83
779.49	1662.95
779.66	1671.14
779.84	1775.59
780.01	1685.48
780.19	1613.80
780.37	1808.36
780.54	1779.68
780.72	1638.38
780.90	1697.77
781.07	1712.10
781.25	1673.19
781.43	1699.81
781.60	1691.62
781.78	1730.53
781.95	1624.04
782.13	1695.72
782.31	1693.67
782.48	1613.80
782.66	1742.82
782.83	1767.40
783.01	1779.68
783.19	1830.88
783.36	1732.58
783.54	1669.09
783.72	1781.73
783.89	1685.48
784.07	1695.72
784.24	1681.38
784.42	1759.21
784.60	1753.06
784.77	1689.57
784.95	1574.89
785.12	1650.66
785.30	1687.53
785.47	1695.72
785.65	1689.57
785.83	1660.90
786.00	1718.25
786.18	1703.91
786.35	1605.61
786.53	1644.52
786.71	1783.78
786.88	1759.21
787.06	1763.30
787.23	1726.44
787.41	1632.23
787.58	1753.06
787.76	1726.44
787.94	1742.82
788.11	1687.53
788.29	1626.09
788.46	1701.86
788.64	1636.33
788.81	1644.52
788.99	1644.52
789.16	1736.68
789.34	1730.53
789.52	1652.71
789.69	1658.85
789.87	1613.80
790.04	1675.24
790.22	1730.53
790.39	1826.79
790.57	1583.08
790.74	1675.24
790.92	1781.73
791.09	1607.66
791.27	1787.88
791.44	1806.31
791.62	1714.15
791.79	1732.58
791.97	1716.20
792.15	1929.19
792.32	1726.44
792.50	1759.21
792.67	1759.21
792.85	1798.12
793.02	1724.39
793.20	1730.53
793.37	1652.71
793.55	1689.57
793.72	1609.70
793.90	1665.00
794.07	1630.18
794.25	1648.61
794.42	1691.62
794.60	1710.05
794.77	1734.63
794.95	1675.24
795.12	1783.78
795.30	1779.68
795.47	1650.66
795.65	1931.23
795.82	1773.54
796.00	1755.11
796.17	1695.72
796.34	1656.81
796.52	1673.19
796.69	1800.16
796.87	1746.92
797.04	1699.81
797.22	1746.92
797.39	1689.57
797.57	1771.49
797.74	1660.90
797.92	1742.82
798.09	1591.27
798.27	1757.16
798.44	1763.30
798.62	1632.23
798.79	1703.91
798.96	1744.87
799.14	1683.43
799.31	1923.04
799.49	1744.87
799.66	1722.34
799.84	1734.63
800.01	1646.57
800.19	1716.20
800.36	1673.19
800.53	1724.39
800.71	1665.00
800.88	1845.22
801.06	1683.43
801.23	1777.64
801.41	1681.38
801.58	1681.38
801.75	1755.11
801.93	1718.25
802.10	1777.64
802.28	1759.21
802.45	1705.96
802.63	1755.11
802.80	1853.41
802.97	1697.77
803.15	1697.77
803.32	1724.39
803.50	1699.81
803.67	1734.63
803.84	1611.75
804.02	1730.53
804.19	1693.67
804.37	1511.40
804.54	1675.24
804.71	1724.39
804.89	1695.72
805.06	1673.19
805.24	1603.56
805.41	1656.81
805.58	1746.92
805.76	1869.80
805.93	1603.56
806.10	1810.40
806.28	1730.53
806.45	1656.81
806.63	1812.45
806.80	1781.73
806.97	1726.44
807.15	1697.77
807.32	1845.22
807.49	1716.20
807.67	1708.01
807.84	1757.16
808.01	1621.99
808.19	1853.41
808.36	1877.99
808.54	1693.67
808.71	1667.05
808.88	1767.40
809.06	1726.44
809.23	1761.25
809.40	1646.57
809.58	1798.12
809.75	1701.86
809.92	1755.11
810.10	1849.32
810.27	1701.86
810.44	1703.91
810.62	1814.50
810.79	1791.97
810.96	1689.57
811.14	1742.82
811.31	1738.73
811.48	1720.29
811.66	1695.72
811.83	1789.92
812.00	1685.48
812.18	1671.14
812.35	1779.68
812.52	1691.62
812.69	1675.24
812.87	1689.57
813.04	1716.20
813.21	1648.61
813.39	1689.57
813.56	1683.43
813.73	1757.16
813.91	1708.01
814.08	1705.96
814.25	1742.82
814.42	1619.94
814.60	1689.57
814.77	1746.92
814.94	1658.85
815.12	1701.86
815.29	1806.31
815.46	1722.34
815.63	1687.53
815.81	1699.81
815.98	1736.68
816.15	1746.92
816.33	1695.72
816.50	1697.77
816.67	1685.48
816.84	1667.05
817.02	1705.96
817.19	1638.38
817.36	1689.57
817.53	1757.16
817.71	1718.25
817.88	1742.82
818.05	1722.34
818.22	1740.77
818.40	1791.97
818.57	1728.49
818.74	1814.50
818.91	1669.09
819.09	1736.68
819.26	1785.83
819.43	1746.92
819.60	1718.25
819.78	1796.07
819.95	1757.16
820.12	1640.42
820.29	1761.25
820.47	1716.20
820.64	1671.14
820.81	1613.80
820.98	1720.29
821.15	1693.67
821.33	1722.34
821.50	1538.02
821.67	1738.73
821.84	1685.48
822.02	1730.53
822.19	1738.73
822.36	1683.43
822.53	1675.24
822.70	1671.14
822.88	1695.72
823.05	1847.27
823.22	1708.01
823.39	1671.14
823.56	1656.81
823.74	1755.11
823.91	1716.20
824.08	1646.57
824.25	1654.76
824.42	1834.98
824.60	1648.61
824.77	1761.25
824.94	1662.95
825.11	1800.16
825.28	1574.89
825.45	1716.20
825.63	1603.56
825.80	1736.68
825.97	1722.34
826.14	1626.09
826.31	1591.27
826.48	1781.73
826.66	1710.05
826.83	1708.01
827.00	1683.43
827.17	1603.56
827.34	1644.52
827.51	1660.90
827.69	1683.43
827.86	1658.85
828.03	1683.43
828.20	1755.11
828.37	1652.71
828.54	1714.15
828.71	1738.73
828.89	1832.93
829.06	1691.62
829.23	1779.68
829.40	1621.99
829.57	1572.84
829.74	1728.49
829.91	1681.38
830.09	1722.34
830.26	1660.90
830.43	1841.12
830.60	1671.14
830.77	1808.36
830.94	1804.26
831.11	1791.97
831.28	1640.42
831.46	1810.40
831.63	1619.94
831.80	1759.21
831.97	1675.24
832.14	1736.68
832.31	1710.05
832.48	1714.15
832.65	1789.92
832.82	1753.06
832.99	1691.62
833.17	1626.09
833.34	1796.07
833.51	1716.20
833.68	1632.23
833.85	1734.63
834.02	1624.04
834.19	1658.85
834.36	1576.94
834.53	1685.48
834.70	1736.68
834.87	1736.68
835.04	1710.05
835.22	1681.38
835.39	1722.34
835.56	1677.29
835.73	1736.68
835.90	1665.00
836.07	1642.47
836.24	1769.44
836.41	1593.32
836.58	1626.09
836.75	1765.35
836.92	1728.49
837.09	1671.14
837.26	1730.53
837.43	1726.44
837.60	1755.11
837.77	1691.62
837.94	1714.15
838.12	1841.12
838.29	1730.53
838.46	1630.18
838.63	1681.38
838.80	1802.21
838.97	1763.30
839.14	1632.23
839.31	1689.57
839.48	1777.64
839.65	1636.33
839.82	1724.39
839.99	1802.21
840.16	1767.40
840.33	1691.62
840.50	1656.81
840.67	1722.34
840.84	1599.46
841.01	1732.58
841.18	1677.29
841.35	1636.33
841.52	1730.53
841.69	1826.79
841.86	1714.15
842.03	1683.43
842.20	1755.11
842.37	1673.19
842.54	1812.45
842.71	1718.25
842.88	1617.90
843.05	1730.53
843.22	1636.33
843.39	1781.73
843.56	1714.15
843.73	1691.62
843.90	1689.57
844.07	1763.30
844.24	1724.39
844.41	1855.46
844.58	1673.19
844.75	1699.81
844.92	1740.77
845.09	1632.23
845.26	1714.15
845.43	1685.48
845.60	1705.96
845.77	1771.49
845.94	1667.05
846.10	1734.63
846.27	1626.09
846.44	1632.23
846.61	1693.67
846.78	1757.16
846.95	1742.82
847.12	1603.56
847.29	1814.50
847.46	1660.90
847.63	1714.15
847.80	1660.90
847.97	1720.29
848.14	1820.64
848.31	1689.57
848.48	1662.95
848.65	1732.58
848.82	1748.97
848.98	1759.21
849.15	1736.68
849.32	1757.16
849.49	1728.49
849.66	1691.62
849.83	1699.81
850.00	1560.55
850.17	1738.73
850.34	1693.67
850.51	1744.87
850.68	1613.80
850.85	1845.22
851.01	1722.34
851.18	1746.92
851.35	1679.33
851.52	1771.49
851.69	1802.21
851.86	1681.38
852.03	1710.05
852.20	1708.01
852.37	1689.57
852.53	1617.90
852.70	1775.59
852.87	1771.49
853.04	1738.73
853.21	1724.39
853.38	1812.45
853.55	1753.06
853.72	1800.16
853.89	1685.48
854.05	1621.99
854.22	1665.00
854.39	1667.05
854.56	1748.97
854.73	1820.64
854.90	1640.42
855.07	1683.43
855.23	1677.29
855.40	1687.53
855.57	1642.47
855.74	1558.50
855.91	1873.89
856.08	1578.98
856.25	1626.09
856.41	1722.34
856.58	1705.96
856.75	1740.77
856.92	1628.14
857.09	1791.97
857.26	1667.05
857.42	1716.20
857.59	1724.39
857.76	1748.97
857.93	1732.58
858.10	1755.11
858.27	1665.00
858.43	1730.53
858.60	1656.81
858.77	1599.46
858.94	1673.19
859.11	1736.68
859.27	1662.95
859.44	1679.33
859.61	1769.44
859.78	1701.86
859.95	1665.00
860.12	1630.18
860.28	1845.22
860.45	1908.71
860.62	1660.90
860.79	1648.61
860.95	1738.73
861.12	1697.77
861.29	1685.48
861.46	1699.81
861.63	1691.62
861.79	1732.58
861.96	1626.09
862.13	1681.38
862.30	1779.68
862.47	1689.57
862.63	1632.23
862.80	1791.97
862.97	1722.34
863.14	1689.57
863.30	1648.61
863.47	1624.04
863.64	1816.55
863.81	1732.58
863.97	1677.29
864.14	1703.91
864.31	1771.49
864.48	1781.73
864.65	1748.97
864.81	1718.25
864.98	1742.82
865.15	1730.53
865.32	1759.21
865.48	1767.40
865.65	1787.88
865.82	1693.67
865.98	1771.49
866.15	1787.88
866.32	1665.00
866.49	1738.73
866.65	1822.69
866.82	1634.28
866.99	1699.81
867.16	1667.05
867.32	1667.05
867.49	1605.61
867.66	1734.63
867.83	1712.10
867.99	1576.94
868.16	1763.30
868.33	1652.71
868.49	1677.29
868.66	1730.53
868.83	1730.53
868.99	1712.10
869.16	1689.57
869.33	1837.03
869.50	1746.92
869.66	1705.96
869.83	1730.53
870.00	1628.14
870.16	1689.57
870.33	1734.63
870.50	1765.35
870.66	1744.87
870.83	1783.78
871.00	1765.35
871.17	1738.73
871.33	1703.91
871.50	1742.82
871.67	1746.92
871.83	1691.62
872.00	1781.73
872.17	1691.62
872.33	1759.21
872.50	1746.92
872.67	1720.29
872.83	1675.24
873.00	1656.81
873.17	1720.29
873.33	1738.73
873.50	1771.49
873.67	1662.95
873.83	1642.47
874.00	1718.25
874.16	1789.92
874.33	1695.72
874.50	1667.05
874.66	1759.21
874.83	1654.76
875.00	1763.30
875.16	1779.68
875.33	1824.74
875.50	1642.47
875.66	1697.77
875.83	1689.57
875.99	1720.29
876.16	1746.92
876.33	1650.66
876.49	1681.38
876.66	1695.72
876.83	1722.34
876.99	1660.90
877.16	1660.90
877.32	1712.10
877.49	1675.24
877.66	1718.25
877.82	1771.49
877.99	1759.21
878.15	1703.91
878.32	1701.86
878.49	1763.30
878.65	1619.94
878.82	1800.16
878.98	1646.57
879.15	1763.30
879.32	1755.11
879.48	1691.62
879.65	1736.68
879.81	1652.71
879.98	1716.20
880.15	1695.72
880.31	1714.15
880.48	1732.58
880.64	1791.97
880.81	1724.39
880.97	1861.60
881.14	1732.58
881.31	1595.37
881.47	1818.60
881.64	1695.72
881.80	1705.96
881.97	1767.40
882.13	1800.16
882.30	1652.71
882.47	1640.42
882.63	1644.52
882.80	1652.71
882.96	1722.34
883.13	1783.78
883.29	1681.38
883.46	1693.67
883.62	1802.21
883.79	1689.57
883.95	1810.40
884.12	1675.24
884.29	1667.05
884.45	1632.23
884.62	1732.58
884.78	1648.61
884.95	1697.77
885.11	1669.09
885.28	1681.38
885.44	1658.85
885.61	1677.29
885.77	1734.63
885.94	1746.92
886.10	1685.48
886.27	1677.29
886.43	1767.40
886.60	1810.40
886.76	1708.01
886.93	1591.27
887.09	1740.77
887.26	1642.47
887.42	1714.15
887.59	1734.63
887.75	1877.99
887.92	1804.26
888.08	1718.25
888.25	1789.92
888.41	1765.35
888.58	1650.66
888.74	1740.77
888.91	1689.57
>>>>>End Processed Spectral Data<<<<<
