SpectraSuite Data File
++++++++++++++++++++++++++++++++++++
Date: Mon Jun 06 12:30:17 CEST 2016
User: root
Dark Spectrum Present: No
Reference Spectrum Present: No
Number of Sampled Component Spectra: 1
Spectrometers: USB4C02835
Integration Time (usec): 100000 (USB4C02835)
Spectra Averaged: 1 (USB4C02835)
Boxcar Smoothing: 0 (USB4C02835)
Correct for Electrical Dark: No (USB4C02835)
Strobe/Lamp Enabled: No (USB4C02835)
Correct for Detector Non-linearity: No (USB4C02835)
Correct for Stray Light: No (USB4C02835)
Number of Pixels in Processed Spectrum: 3648
>>>>>Begin Processed Spectral Data<<<<<
177.47	1423.34
177.69	1423.34
177.91	1423.34
178.13	1394.67
178.36	1435.63
178.58	1642.47
178.80	1705.96
179.02	1636.33
179.24	1578.98
179.46	1691.62
179.68	1703.91
179.90	1681.38
180.13	1740.77
180.35	1613.80
180.57	1675.24
180.79	1679.33
181.01	1697.77
181.23	1761.25
181.45	1822.69
181.67	1679.33
181.90	1763.30
182.12	1705.96
182.34	1665.00
182.56	1720.29
182.78	1720.29
183.00	1677.29
183.22	1724.39
183.44	1646.57
183.66	1822.69
183.89	1783.78
184.11	1685.48
184.33	1755.11
184.55	1734.63
184.77	1673.19
184.99	1697.77
185.21	1675.24
185.43	1824.74
185.65	1710.05
185.87	1671.14
186.10	1794.02
186.32	1816.55
186.54	1710.05
186.76	1769.44
186.98	1714.15
187.20	1705.96
187.42	1658.85
187.64	1738.73
187.86	1738.73
188.08	1753.06
188.30	1708.01
188.52	1714.15
188.75	1712.10
188.97	1697.77
189.19	1718.25
189.41	1687.53
189.63	1771.49
189.85	1669.09
190.07	1722.34
190.29	1611.75
190.51	1693.67
190.73	1617.90
190.95	1646.57
191.17	1710.05
191.39	1654.76
191.61	1667.05
191.84	1626.09
192.06	1738.73
192.28	1644.52
192.50	1867.75
192.72	1726.44
192.94	1673.19
193.16	1734.63
193.38	1642.47
193.60	1671.14
193.82	1632.23
194.04	1806.31
194.26	1712.10
194.48	1695.72
194.70	1667.05
194.92	1665.00
195.14	1755.11
195.36	1628.14
195.58	1656.81
195.80	1634.28
196.02	1687.53
196.24	1648.61
196.46	1695.72
196.69	1630.18
196.91	1736.68
197.13	1681.38
197.35	1685.48
197.57	1763.30
197.79	1677.29
198.01	1714.15
198.23	1746.92
198.45	1722.34
198.67	1665.00
198.89	1736.68
199.11	1763.30
199.33	1599.46
199.55	1611.75
199.77	1701.86
199.99	1810.40
200.21	1699.81
200.43	1675.24
200.65	1642.47
200.87	1568.74
201.09	1693.67
201.31	1648.61
201.53	1744.87
201.75	1714.15
201.97	1679.33
202.19	1626.09
202.41	1693.67
202.63	1826.79
202.85	1658.85
203.07	1722.34
203.29	1701.86
203.51	1687.53
203.73	1644.52
203.95	1914.85
204.17	1697.77
204.39	1765.35
204.61	1636.33
204.83	1658.85
205.05	1675.24
205.27	1744.87
205.49	1775.59
205.71	1710.05
205.93	1634.28
206.15	1656.81
206.37	1667.05
206.59	1724.39
206.81	1705.96
207.03	1632.23
207.25	1576.94
207.47	1722.34
207.69	1726.44
207.91	1748.97
208.13	1771.49
208.34	1615.85
208.56	1599.46
208.78	1796.07
209.00	1718.25
209.22	1689.57
209.44	1665.00
209.66	1699.81
209.88	1701.86
210.10	1679.33
210.32	1705.96
210.54	1716.20
210.76	1654.76
210.98	1701.86
211.20	1609.70
211.42	1763.30
211.64	1722.34
211.86	1722.34
212.08	1677.29
212.30	1740.77
212.52	1652.71
212.74	1759.21
212.96	1701.86
213.17	1742.82
213.39	1683.43
213.61	1751.01
213.83	1673.19
214.05	1640.42
214.27	1785.83
214.49	1566.70
214.71	1673.19
214.93	1822.69
215.15	1730.53
215.37	1689.57
215.59	1638.38
215.81	1640.42
216.03	1816.55
216.24	1665.00
216.46	1652.71
216.68	1705.96
216.90	1771.49
217.12	1765.35
217.34	1677.29
217.56	1718.25
217.78	1798.12
218.00	1708.01
218.22	1701.86
218.44	1720.29
218.66	1722.34
218.87	1826.79
219.09	1632.23
219.31	1689.57
219.53	1701.86
219.75	1628.14
219.97	1662.95
220.19	1718.25
220.41	1619.94
220.63	1779.68
220.85	1746.92
221.06	1605.61
221.28	1701.86
221.50	1755.11
221.72	1642.47
221.94	1687.53
222.16	1705.96
222.38	1763.30
222.60	1742.82
222.82	1693.67
223.03	1624.04
223.25	1656.81
223.47	1724.39
223.69	1767.40
223.91	1744.87
224.13	1714.15
224.35	1640.42
224.57	1777.64
224.78	1732.58
225.00	1605.61
225.22	1665.00
225.44	1689.57
225.66	1701.86
225.88	1667.05
226.10	1691.62
226.32	1677.29
226.53	1732.58
226.75	1673.19
226.97	1687.53
227.19	1720.29
227.41	1630.18
227.63	1671.14
227.85	1572.84
228.06	1724.39
228.28	1720.29
228.50	1746.92
228.72	1601.51
228.94	1644.52
229.16	1609.70
229.37	1626.09
229.59	1685.48
229.81	1824.74
230.03	1644.52
230.25	1703.91
230.47	1636.33
230.69	1652.71
230.90	1712.10
231.12	1673.19
231.34	1652.71
231.56	1685.48
231.78	1642.47
232.00	1705.96
232.21	1726.44
232.43	1738.73
232.65	1591.27
232.87	1724.39
233.09	1621.99
233.30	1656.81
233.52	1683.43
233.74	1638.38
233.96	1624.04
234.18	1697.77
234.40	1683.43
234.61	1794.02
234.83	1619.94
235.05	1677.29
235.27	1820.64
235.49	1820.64
235.70	1667.05
235.92	1701.86
236.14	1767.40
236.36	1789.92
236.58	1574.89
236.79	1773.54
237.01	1689.57
237.23	1599.46
237.45	1830.88
237.67	1734.63
237.88	1705.96
238.10	1851.36
238.32	1693.67
238.54	1675.24
238.76	1603.56
238.97	1679.33
239.19	1660.90
239.41	1693.67
239.63	1718.25
239.85	1658.85
240.06	1710.05
240.28	1665.00
240.50	1619.94
240.72	1708.01
240.93	1726.44
241.15	1779.68
241.37	1701.86
241.59	1736.68
241.81	1757.16
242.02	1669.09
242.24	1675.24
242.46	1767.40
242.68	1691.62
242.89	1804.26
243.11	1853.41
243.33	1718.25
243.55	1763.30
243.76	1757.16
243.98	1619.94
244.20	1718.25
244.42	1642.47
244.64	1726.44
244.85	1617.90
245.07	1675.24
245.29	1734.63
245.51	1705.96
245.72	1744.87
245.94	1757.16
246.16	1728.49
246.38	1744.87
246.59	1728.49
246.81	1652.71
247.03	1689.57
247.24	1607.66
247.46	1650.66
247.68	1654.76
247.90	1671.14
248.11	1697.77
248.33	1769.44
248.55	1708.01
248.77	1665.00
248.98	1734.63
249.20	1724.39
249.42	1738.73
249.64	1689.57
249.85	1615.85
250.07	1599.46
250.29	1718.25
250.50	1765.35
250.72	1595.37
250.94	1710.05
251.16	1822.69
251.37	1798.12
251.59	1755.11
251.81	1660.90
252.02	1722.34
252.24	1656.81
252.46	1746.92
252.68	1683.43
252.89	1656.81
253.11	1626.09
253.33	1759.21
253.54	1851.36
253.76	1572.84
253.98	1730.53
254.20	1691.62
254.41	1597.42
254.63	1652.71
254.85	1697.77
255.06	1662.95
255.28	1701.86
255.50	1703.91
255.71	1671.14
255.93	1667.05
256.15	1685.48
256.36	1691.62
256.58	1689.57
256.80	1726.44
257.02	1759.21
257.23	1712.10
257.45	1748.97
257.67	1781.73
257.88	1628.14
258.10	1710.05
258.32	1691.62
258.53	1681.38
258.75	1775.59
258.97	1615.85
259.18	1718.25
259.40	1656.81
259.62	1771.49
259.83	1812.45
260.05	1687.53
260.27	2052.06
260.48	1658.85
260.70	1648.61
260.92	1636.33
261.13	1671.14
261.35	1675.24
261.57	1716.20
261.78	1636.33
262.00	1656.81
262.22	1673.19
262.43	1658.85
262.65	1640.42
262.86	1601.51
263.08	1783.78
263.30	1656.81
263.51	1583.08
263.73	1652.71
263.95	1691.62
264.16	1617.90
264.38	1603.56
264.60	1718.25
264.81	1662.95
265.03	1701.86
265.25	1798.12
265.46	1644.52
265.68	1712.10
265.89	1665.00
266.11	1617.90
266.33	1736.68
266.54	1748.97
266.76	1679.33
266.98	1673.19
267.19	1865.70
267.41	1763.30
267.62	1744.87
267.84	1644.52
268.06	1730.53
268.27	1681.38
268.49	1779.68
268.70	1722.34
268.92	1714.15
269.14	1578.98
269.35	1638.38
269.57	1691.62
269.79	1796.07
270.00	1624.04
270.22	1751.01
270.43	1675.24
270.65	1615.85
270.87	1726.44
271.08	1716.20
271.30	1738.73
271.51	1683.43
271.73	1724.39
271.95	1753.06
272.16	1724.39
272.38	1654.76
272.59	1697.77
272.81	1767.40
273.02	1648.61
273.24	1718.25
273.46	1697.77
273.67	1689.57
273.89	1619.94
274.10	1654.76
274.32	1763.30
274.54	1695.72
274.75	1621.99
274.97	1738.73
275.18	1726.44
275.40	1734.63
275.61	1585.13
275.83	1746.92
276.05	1642.47
276.26	1671.14
276.48	1791.97
276.69	1708.01
276.91	1611.75
277.12	1718.25
277.34	1650.66
277.55	1781.73
277.77	1730.53
277.99	1695.72
278.20	1658.85
278.42	1644.52
278.63	1646.57
278.85	1636.33
279.06	1578.98
279.28	1665.00
279.49	1787.88
279.71	1746.92
279.93	1734.63
280.14	1685.48
280.36	1601.51
280.57	1738.73
280.79	1779.68
281.00	1720.29
281.22	1617.90
281.43	1757.16
281.65	1499.11
281.86	1673.19
282.08	1693.67
282.29	1816.55
282.51	1632.23
282.73	1693.67
282.94	1617.90
283.16	1744.87
283.37	1755.11
283.59	1751.01
283.80	1716.20
284.02	1734.63
284.23	1763.30
284.45	1714.15
284.66	1662.95
284.88	1669.09
285.09	1724.39
285.31	1734.63
285.52	1699.81
285.74	1595.37
285.95	1757.16
286.17	1732.58
286.38	1746.92
286.60	1675.24
286.81	1718.25
287.03	1691.62
287.24	1699.81
287.46	1757.16
287.67	1728.49
287.89	1771.49
288.10	1724.39
288.32	1722.34
288.53	1746.92
288.75	1687.53
288.96	1744.87
289.18	1697.77
289.39	1705.96
289.61	1712.10
289.82	1826.79
290.04	1789.92
290.25	1626.09
290.47	1675.24
290.68	1640.42
290.90	1742.82
291.11	1609.70
291.33	1722.34
291.54	1683.43
291.76	1753.06
291.97	1748.97
292.18	1779.68
292.40	1601.51
292.61	1667.05
292.83	1787.88
293.04	1718.25
293.26	1757.16
293.47	1667.05
293.69	1550.31
293.90	1722.34
294.12	1697.77
294.33	1734.63
294.55	1665.00
294.76	1665.00
294.97	1769.44
295.19	1822.69
295.40	1632.23
295.62	1744.87
295.83	1796.07
296.05	1607.66
296.26	1818.60
296.48	1617.90
296.69	1705.96
296.90	1685.48
297.12	1761.25
297.33	1785.83
297.55	1730.53
297.76	1744.87
297.98	1701.86
298.19	1660.90
298.41	1697.77
298.62	1628.14
298.83	1785.83
299.05	1734.63
299.26	1681.38
299.48	1718.25
299.69	1728.49
299.90	1716.20
300.12	1697.77
300.33	1701.86
300.55	1703.91
300.76	1740.77
300.98	1675.24
301.19	1746.92
301.40	1695.72
301.62	1619.94
301.83	1714.15
302.05	1636.33
302.26	1701.86
302.47	1763.30
302.69	1699.81
302.90	1697.77
303.12	1615.85
303.33	1728.49
303.54	1728.49
303.76	1697.77
303.97	1732.58
304.19	1810.40
304.40	1634.28
304.61	1673.19
304.83	1775.59
305.04	1720.29
305.26	1697.77
305.47	1660.90
305.68	1708.01
305.90	1607.66
306.11	1714.15
306.33	1683.43
306.54	1634.28
306.75	1609.70
306.97	1619.94
307.18	1621.99
307.39	1681.38
307.61	1748.97
307.82	1630.18
308.04	1724.39
308.25	1681.38
308.46	1738.73
308.68	1781.73
308.89	1691.62
309.10	1697.77
309.32	1757.16
309.53	1691.62
309.74	1705.96
309.96	1652.71
310.17	1802.21
310.39	1665.00
310.60	1675.24
310.81	1751.01
311.03	1595.37
311.24	1742.82
311.45	1726.44
311.67	1767.40
311.88	1736.68
312.09	1701.86
312.31	1681.38
312.52	1665.00
312.73	1744.87
312.95	1583.08
313.16	1650.66
313.37	1753.06
313.59	1744.87
313.80	1732.58
314.01	1804.26
314.23	1628.14
314.44	1615.85
314.65	1669.09
314.87	1673.19
315.08	1703.91
315.29	1693.67
315.51	1654.76
315.72	1667.05
315.93	1796.07
316.15	1779.68
316.36	1650.66
316.57	1656.81
316.79	1781.73
317.00	1665.00
317.21	1632.23
317.43	1640.42
317.64	1710.05
317.85	1603.56
318.07	1701.86
318.28	1716.20
318.49	1779.68
318.70	1937.38
318.92	1771.49
319.13	1812.45
319.34	1853.41
319.56	1775.59
319.77	1785.83
319.98	1773.54
320.20	1765.35
320.41	1722.34
320.62	1732.58
320.83	1621.99
321.05	1757.16
321.26	1710.05
321.47	1632.23
321.69	1759.21
321.90	1628.14
322.11	1703.91
322.32	1675.24
322.54	1783.78
322.75	1728.49
322.96	1845.22
323.18	1626.09
323.39	1574.89
323.60	1578.98
323.81	1689.57
324.03	1665.00
324.24	1658.85
324.45	1628.14
324.66	1728.49
324.88	1677.29
325.09	1767.40
325.30	1697.77
325.52	1718.25
325.73	1710.05
325.94	1650.66
326.15	1601.51
326.37	1673.19
326.58	1738.73
326.79	1740.77
327.00	1648.61
327.22	1689.57
327.43	1636.33
327.64	1677.29
327.85	1777.64
328.07	1644.52
328.28	1755.11
328.49	1679.33
328.70	1689.57
328.92	1757.16
329.13	1699.81
329.34	1730.53
329.55	1755.11
329.76	1724.39
329.98	1693.67
330.19	1744.87
330.40	1708.01
330.61	1662.95
330.83	1824.74
331.04	1628.14
331.25	1671.14
331.46	1716.20
331.68	1603.56
331.89	1681.38
332.10	1648.61
332.31	1587.18
332.52	1673.19
332.74	1722.34
332.95	1652.71
333.16	1724.39
333.37	1714.15
333.58	1685.48
333.80	1656.81
334.01	1624.04
334.22	1703.91
334.43	1701.86
334.64	1642.47
334.86	1685.48
335.07	1593.32
335.28	1757.16
335.49	1599.46
335.70	1722.34
335.92	1789.92
336.13	1845.22
336.34	1746.92
336.55	1681.38
336.76	1701.86
336.98	1599.46
337.19	1677.29
337.40	1828.84
337.61	1824.74
337.82	1640.42
338.04	1759.21
338.25	1642.47
338.46	1699.81
338.67	1689.57
338.88	1712.10
339.09	1636.33
339.31	1683.43
339.52	1632.23
339.73	1712.10
339.94	1665.00
340.15	1718.25
340.36	1628.14
340.58	1714.15
340.79	1626.09
341.00	1703.91
341.21	1554.41
341.42	1824.74
341.63	1662.95
341.85	1775.59
342.06	1714.15
342.27	1615.85
342.48	1697.77
342.69	1699.81
342.90	1695.72
343.12	1695.72
343.33	1683.43
343.54	1783.78
343.75	1820.64
343.96	1671.14
344.17	1529.83
344.38	1619.94
344.60	1687.53
344.81	1626.09
345.02	1734.63
345.23	1791.97
345.44	1734.63
345.65	1722.34
345.86	1763.30
346.07	1708.01
346.29	1710.05
346.50	1736.68
346.71	1734.63
346.92	1710.05
347.13	1826.79
347.34	1675.24
347.55	1740.77
347.76	1777.64
347.98	1708.01
348.19	1683.43
348.40	1697.77
348.61	1708.01
348.82	1796.07
349.03	1757.16
349.24	1611.75
349.45	1812.45
349.66	1638.38
349.88	1714.15
350.09	1673.19
350.30	1748.97
350.51	1677.29
350.72	1654.76
350.93	1691.62
351.14	1677.29
351.35	1691.62
351.56	1689.57
351.77	1669.09
351.99	1726.44
352.20	1800.16
352.41	1751.01
352.62	1632.23
352.83	1652.71
353.04	1675.24
353.25	1617.90
353.46	1708.01
353.67	1708.01
353.88	1570.79
354.09	1689.57
354.30	1748.97
354.52	1755.11
354.73	1681.38
354.94	1671.14
355.15	1677.29
355.36	1791.97
355.57	1687.53
355.78	1763.30
355.99	1701.86
356.20	1757.16
356.41	1748.97
356.62	1753.06
356.83	1685.48
357.04	1781.73
357.25	1630.18
357.46	1722.34
357.68	1656.81
357.89	1615.85
358.10	1697.77
358.31	1597.42
358.52	1675.24
358.73	1667.05
358.94	1615.85
359.15	1675.24
359.36	1708.01
359.57	1714.15
359.78	1673.19
359.99	1689.57
360.20	1683.43
360.41	1669.09
360.62	1736.68
360.83	1769.44
361.04	1665.00
361.25	1634.28
361.46	1769.44
361.67	1724.39
361.88	1691.62
362.09	1777.64
362.30	1673.19
362.51	1710.05
362.72	1732.58
362.93	1697.77
363.14	1755.11
363.35	1726.44
363.56	1679.33
363.78	1759.21
363.99	1734.63
364.20	1720.29
364.41	1738.73
364.62	1759.21
364.83	1722.34
365.04	1632.23
365.25	1681.38
365.46	1783.78
365.67	1632.23
365.88	1640.42
366.09	1669.09
366.30	1650.66
366.51	1689.57
366.72	1658.85
366.93	1685.48
367.14	1767.40
367.35	1763.30
367.56	1705.96
367.77	1714.15
367.98	1677.29
368.18	1744.87
368.39	1763.30
368.60	1691.62
368.81	1703.91
369.02	1718.25
369.23	1697.77
369.44	1617.90
369.65	1609.70
369.86	1738.73
370.07	1695.72
370.28	1701.86
370.49	1761.25
370.70	1671.14
370.91	1630.18
371.12	1615.85
371.33	1732.58
371.54	1656.81
371.75	1779.68
371.96	1587.18
372.17	1767.40
372.38	1708.01
372.59	1730.53
372.80	1669.09
373.01	1654.76
373.22	1626.09
373.43	1751.01
373.64	1679.33
373.85	1787.88
374.06	1773.54
374.26	1814.50
374.47	1734.63
374.68	1853.41
374.89	1710.05
375.10	1665.00
375.31	1718.25
375.52	1652.71
375.73	1748.97
375.94	1615.85
376.15	1765.35
376.36	1601.51
376.57	1665.00
376.78	1624.04
376.99	1720.29
377.20	1755.11
377.40	1685.48
377.61	1851.36
377.82	1609.70
378.03	1734.63
378.24	1681.38
378.45	1689.57
378.66	1675.24
378.87	1621.99
379.08	1673.19
379.29	1701.86
379.50	1703.91
379.71	1636.33
379.91	1742.82
380.12	1730.53
380.33	1755.11
380.54	1736.68
380.75	1718.25
380.96	1646.57
381.17	1757.16
381.38	1695.72
381.59	1689.57
381.80	1712.10
382.00	1820.64
382.21	1722.34
382.42	1808.36
382.63	1894.37
382.84	1708.01
383.05	1789.92
383.26	1812.45
383.47	1748.97
383.68	1763.30
383.88	1728.49
384.09	1722.34
384.30	1779.68
384.51	1693.67
384.72	1650.66
384.93	1691.62
385.14	1718.25
385.35	1722.34
385.55	1628.14
385.76	1751.01
385.97	1632.23
386.18	1685.48
386.39	1710.05
386.60	1683.43
386.81	1673.19
387.02	1671.14
387.22	1630.18
387.43	1765.35
387.64	1779.68
387.85	1869.80
388.06	2369.50
388.27	4224.96
388.48	6803.35
388.68	8372.10
388.89	9842.54
389.10	9899.88
389.31	8716.16
389.52	7759.75
389.73	6915.99
389.93	6457.25
390.14	5935.01
390.35	5259.18
390.56	4661.18
390.77	3862.47
390.98	3084.24
391.18	2543.58
391.39	2158.56
391.60	1869.80
391.81	1791.97
392.02	1656.81
392.23	1820.64
392.43	1746.92
392.64	1744.87
392.85	1683.43
393.06	1802.21
393.27	1683.43
393.47	1652.71
393.68	1689.57
393.89	1660.90
394.10	1722.34
394.31	1710.05
394.52	1734.63
394.72	1699.81
394.93	1759.21
395.14	1662.95
395.35	1740.77
395.56	1621.99
395.76	1757.16
395.97	1806.31
396.18	1759.21
396.39	1851.36
396.60	2021.35
396.80	1939.43
397.01	1787.88
397.22	1886.18
397.43	1753.06
397.64	1748.97
397.84	1740.77
398.05	1884.13
398.26	1718.25
398.47	1759.21
398.67	1738.73
398.88	1728.49
399.09	1710.05
399.30	1662.95
399.51	1783.78
399.71	1656.81
399.92	1650.66
400.13	1685.48
400.34	1699.81
400.54	1710.05
400.75	1796.07
400.96	1765.35
401.17	1816.55
401.37	1740.77
401.58	1640.42
401.79	1658.85
402.00	1826.79
402.21	1910.75
402.41	1910.75
402.62	2029.54
402.83	2168.80
403.04	2009.06
403.24	2131.94
403.45	1794.02
403.66	1902.56
403.87	1906.66
404.07	1904.61
404.28	1839.08
404.49	1855.46
404.70	1734.63
404.90	1726.44
405.11	1746.92
405.32	1722.34
405.52	1728.49
405.73	1642.47
405.94	1699.81
406.15	1673.19
406.35	1779.68
406.56	1843.17
406.77	1689.57
406.98	1740.77
407.18	1626.09
407.39	1753.06
407.60	1755.11
407.80	1679.33
408.01	1624.04
408.22	1703.91
408.43	1705.96
408.63	1697.77
408.84	1763.30
409.05	1802.21
409.25	1642.47
409.46	1681.38
409.67	1609.70
409.88	1677.29
410.08	1746.92
410.29	1665.00
410.50	1718.25
410.70	1693.67
410.91	1626.09
411.12	1705.96
411.32	1748.97
411.53	1662.95
411.74	1830.88
411.95	1765.35
412.15	1759.21
412.36	1746.92
412.57	1808.36
412.77	1798.12
412.98	1787.88
413.19	1658.85
413.39	1755.11
413.60	1740.77
413.81	1808.36
414.01	1658.85
414.22	1769.44
414.43	1869.80
414.63	1726.44
414.84	1785.83
415.05	1685.48
415.25	1632.23
415.46	1726.44
415.67	1665.00
415.87	1716.20
416.08	1677.29
416.29	1665.00
416.49	1746.92
416.70	1687.53
416.91	1644.52
417.11	1685.48
417.32	1740.77
417.53	1794.02
417.73	1728.49
417.94	1699.81
418.15	1599.46
418.35	1728.49
418.56	1746.92
418.77	1820.64
418.97	1728.49
419.18	1693.67
419.38	1619.94
419.59	1683.43
419.80	1765.35
420.00	1705.96
420.21	1695.72
420.42	1744.87
420.62	1691.62
420.83	1669.09
421.04	1667.05
421.24	1640.42
421.45	1734.63
421.65	1769.44
421.86	1591.27
422.07	1712.10
422.27	1738.73
422.48	1761.25
422.69	1673.19
422.89	1603.56
423.10	1693.67
423.30	1552.36
423.51	1712.10
423.72	1716.20
423.92	1703.91
424.13	1640.42
424.33	1757.16
424.54	1718.25
424.75	1687.53
424.95	1927.14
425.16	1697.77
425.36	1656.81
425.57	1757.16
425.78	1759.21
425.98	1722.34
426.19	1654.76
426.39	1642.47
426.60	1742.82
426.81	1732.58
427.01	1673.19
427.22	1624.04
427.42	1587.18
427.63	1595.37
427.83	1720.29
428.04	1730.53
428.25	1820.64
428.45	1746.92
428.66	1757.16
428.86	1746.92
429.07	1665.00
429.28	1751.01
429.48	1712.10
429.69	1671.14
429.89	1710.05
430.10	1658.85
430.30	1718.25
430.51	1771.49
430.71	1640.42
430.92	1744.87
431.13	1652.71
431.33	1763.30
431.54	1722.34
431.74	1798.12
431.95	1822.69
432.15	1701.86
432.36	1769.44
432.56	1744.87
432.77	1771.49
432.98	1794.02
433.18	1734.63
433.39	1736.68
433.59	1673.19
433.80	1843.17
434.00	1826.79
434.21	1685.48
434.41	1656.81
434.62	1798.12
434.82	1681.38
435.03	1671.14
435.23	1691.62
435.44	1632.23
435.64	1732.58
435.85	1691.62
436.06	1769.44
436.26	1705.96
436.47	1712.10
436.67	1640.42
436.88	1714.15
437.08	1722.34
437.29	1777.64
437.49	1732.58
437.70	1839.08
437.90	1763.30
438.11	1857.51
438.31	1759.21
438.52	1880.04
438.72	1882.08
438.93	1888.23
439.13	1757.16
439.34	1828.84
439.54	1757.16
439.75	1810.40
439.95	1677.29
440.16	1652.71
440.36	1746.92
440.57	1765.35
440.77	1755.11
440.98	1695.72
441.18	1669.09
441.39	1759.21
441.59	1748.97
441.80	1771.49
442.00	1644.52
442.21	1773.54
442.41	1710.05
442.62	1812.45
442.82	1724.39
443.02	1656.81
443.23	1714.15
443.43	1609.70
443.64	1806.31
443.84	1658.85
444.05	1787.88
444.25	1787.88
444.46	1648.61
444.66	1730.53
444.87	1861.60
445.07	1632.23
445.28	1773.54
445.48	1789.92
445.69	1806.31
445.89	1828.84
446.09	1761.25
446.30	2043.87
446.50	2590.68
446.71	3719.11
446.91	4550.59
447.12	4708.28
447.32	4835.25
447.53	4497.34
447.73	3891.14
447.93	3522.51
448.14	3325.90
448.34	3215.31
448.55	2947.03
448.75	2879.44
448.96	2727.89
449.16	2492.38
449.36	2291.68
449.57	1992.67
449.77	1898.47
449.98	1785.83
450.18	1869.80
450.39	1779.68
450.59	1720.29
450.79	1746.92
451.00	1708.01
451.20	1828.84
451.41	1705.96
451.61	1779.68
451.81	1742.82
452.02	1730.53
452.22	1652.71
452.43	1789.92
452.63	1656.81
452.84	1759.21
453.04	1675.24
453.24	1791.97
453.45	1660.90
453.65	1710.05
453.86	1728.49
454.06	1736.68
454.26	1746.92
454.47	1632.23
454.67	1839.08
454.87	1800.16
455.08	1769.44
455.28	1869.80
455.49	1800.16
455.69	1765.35
455.89	1810.40
456.10	1734.63
456.30	1693.67
456.51	1730.53
456.71	1785.83
456.91	1763.30
457.12	1794.02
457.32	1804.26
457.52	1646.57
457.73	1775.59
457.93	1816.55
458.14	1720.29
458.34	1568.74
458.54	1777.64
458.75	1710.05
458.95	1763.30
459.15	1714.15
459.36	1740.77
459.56	1705.96
459.76	1861.60
459.97	1755.11
460.17	1759.21
460.37	1736.68
460.58	1708.01
460.78	1775.59
460.99	1732.58
461.19	1718.25
461.39	1718.25
461.60	1751.01
461.80	1769.44
462.00	1673.19
462.21	1761.25
462.41	1632.23
462.61	1652.71
462.82	1648.61
463.02	1738.73
463.22	1748.97
463.43	1701.86
463.63	1755.11
463.83	1775.59
464.04	1748.97
464.24	1724.39
464.44	1652.71
464.64	1744.87
464.85	1785.83
465.05	1789.92
465.25	1732.58
465.46	1701.86
465.66	1660.90
465.86	1724.39
466.07	1748.97
466.27	1736.68
466.47	1595.37
466.68	1656.81
466.88	1759.21
467.08	1732.58
467.29	1716.20
467.49	1779.68
467.69	1763.30
467.89	1738.73
468.10	1765.35
468.30	1693.67
468.50	1818.60
468.71	1830.88
468.91	1658.85
469.11	1871.84
469.31	1757.16
469.52	1626.09
469.72	1830.88
469.92	1798.12
470.13	1812.45
470.33	1757.16
470.53	1828.84
470.73	2111.46
470.94	2320.35
471.14	2320.35
471.34	2523.10
471.54	2445.27
471.75	2263.01
471.95	2090.98
472.15	2097.12
472.36	2074.59
472.56	2080.74
472.76	2095.07
472.96	1959.91
473.17	1957.86
473.37	1925.09
473.57	1763.30
473.77	1845.22
473.98	1714.15
474.18	1652.71
474.38	1882.08
474.58	1615.85
474.79	1677.29
474.99	1736.68
475.19	1767.40
475.39	1665.00
475.60	1716.20
475.80	1748.97
476.00	1675.24
476.20	1683.43
476.41	1669.09
476.61	1810.40
476.81	1779.68
477.01	1753.06
477.21	1867.75
477.42	1832.93
477.62	1591.27
477.82	1685.48
478.02	1603.56
478.23	1699.81
478.43	1705.96
478.63	1718.25
478.83	1751.01
479.03	1681.38
479.24	1755.11
479.44	1880.04
479.64	1671.14
479.84	1544.17
480.04	1683.43
480.25	1822.69
480.45	1689.57
480.65	1679.33
480.85	1849.32
481.06	1712.10
481.26	1746.92
481.46	1781.73
481.66	1718.25
481.86	1662.95
482.06	1810.40
482.27	1693.67
482.47	1728.49
482.67	1732.58
482.87	1722.34
483.07	1763.30
483.28	1697.77
483.48	1581.03
483.68	1693.67
483.88	1730.53
484.08	1556.46
484.29	1632.23
484.49	1650.66
484.69	1591.27
484.89	1732.58
485.09	1791.97
485.29	1695.72
485.50	1734.63
485.70	1685.48
485.90	1818.60
486.10	1673.19
486.30	1746.92
486.50	1742.82
486.71	1771.49
486.91	1824.74
487.11	1726.44
487.31	1607.66
487.51	1693.67
487.71	1693.67
487.91	1601.51
488.12	1601.51
488.32	1591.27
488.52	1683.43
488.72	1578.98
488.92	1763.30
489.12	1841.12
489.32	1783.78
489.53	1718.25
489.73	1634.28
489.93	1732.58
490.13	1705.96
490.33	1556.46
490.53	1687.53
490.73	1804.26
490.94	1605.61
491.14	1781.73
491.34	1798.12
491.54	2160.61
491.74	2658.26
491.94	2858.96
492.14	3035.09
492.34	2951.12
492.54	2709.46
492.75	2435.03
492.95	2506.71
493.15	2344.92
493.35	2269.15
493.55	2170.85
493.75	2146.27
493.95	2093.02
494.15	2072.54
494.35	1882.08
494.56	1783.78
494.76	1802.21
494.96	1759.21
495.16	1757.16
495.36	1679.33
495.56	1689.57
495.76	1685.48
495.96	1695.72
496.16	1765.35
496.36	1796.07
496.56	1755.11
496.77	1763.30
496.97	1705.96
497.17	1794.02
497.37	1636.33
497.57	1736.68
497.77	1734.63
497.97	1685.48
498.17	1701.86
498.37	1712.10
498.57	1738.73
498.77	1740.77
498.97	1755.11
499.17	1851.36
499.38	1712.10
499.58	1771.49
499.78	1730.53
499.98	1771.49
500.18	1716.20
500.38	1691.62
500.58	1929.19
500.78	2471.90
500.98	4704.18
501.18	5801.90
501.38	6825.88
501.58	7133.08
501.78	6815.64
501.98	5576.62
502.18	4980.66
502.38	4452.28
502.58	4093.89
502.78	3844.04
502.98	3694.54
503.18	3426.25
503.38	3178.45
503.59	2863.06
503.79	2731.99
503.99	2428.89
504.19	2183.13
504.39	2174.94
504.59	2183.13
504.79	2088.93
504.99	1998.82
505.19	1961.95
505.39	1939.43
505.59	1992.67
505.79	1880.04
505.99	1857.51
506.19	1853.41
506.39	1865.70
506.59	1730.53
506.79	1777.64
506.99	1800.16
507.19	1779.68
507.39	1724.39
507.59	1728.49
507.79	1691.62
507.99	1607.66
508.19	1716.20
508.39	1697.77
508.59	1771.49
508.79	1834.98
508.99	1861.60
509.19	1677.29
509.39	1742.82
509.59	1665.00
509.79	1638.38
509.99	1757.16
510.19	1773.54
510.39	1734.63
510.59	1722.34
510.79	1677.29
510.99	1679.33
511.19	1746.92
511.39	1771.49
511.59	1748.97
511.79	1781.73
511.99	1761.25
512.19	1785.83
512.38	1710.05
512.58	1689.57
512.78	1773.54
512.98	1798.12
513.18	1748.97
513.38	1669.09
513.58	1802.21
513.78	1720.29
513.98	1789.92
514.18	1687.53
514.38	1708.01
514.58	1732.58
514.78	1693.67
514.98	1724.39
515.18	1734.63
515.38	1722.34
515.58	1857.51
515.78	1708.01
515.98	1720.29
516.18	1818.60
516.38	1751.01
516.57	1746.92
516.77	1669.09
516.97	1671.14
517.17	1697.77
517.37	1658.85
517.57	1742.82
517.77	1685.48
517.97	1726.44
518.17	1759.21
518.37	1632.23
518.57	1775.59
518.77	1734.63
518.97	1644.52
519.16	1697.77
519.36	1820.64
519.56	1714.15
519.76	1734.63
519.96	1728.49
520.16	1804.26
520.36	1732.58
520.56	1820.64
520.76	1722.34
520.96	1714.15
521.16	1755.11
521.35	1771.49
521.55	1791.97
521.75	1671.14
521.95	1718.25
522.15	1740.77
522.35	1656.81
522.55	1695.72
522.75	1759.21
522.95	1716.20
523.14	1654.76
523.34	1738.73
523.54	1705.96
523.74	1810.40
523.94	1720.29
524.14	1691.62
524.34	1761.25
524.54	1773.54
524.73	1636.33
524.93	1736.68
525.13	1677.29
525.33	1660.90
525.53	1900.52
525.73	1796.07
525.93	1677.29
526.13	1665.00
526.32	1748.97
526.52	1742.82
526.72	1781.73
526.92	1703.91
527.12	1705.96
527.32	1677.29
527.52	1808.36
527.71	1777.64
527.91	1705.96
528.11	1673.19
528.31	1730.53
528.51	1712.10
528.71	1708.01
528.90	1740.77
529.10	1798.12
529.30	1839.08
529.50	1540.07
529.70	1708.01
529.90	1736.68
530.09	1742.82
530.29	1642.47
530.49	1701.86
530.69	1904.61
530.89	1744.87
531.09	1734.63
531.28	1701.86
531.48	1724.39
531.68	1714.15
531.88	1728.49
532.08	1787.88
532.28	1695.72
532.47	1769.44
532.67	1794.02
532.87	1748.97
533.07	1703.91
533.27	1724.39
533.46	1779.68
533.66	1742.82
533.86	1734.63
534.06	1767.40
534.26	1685.48
534.45	1728.49
534.65	1775.59
534.85	1697.77
535.05	1658.85
535.25	1736.68
535.44	1638.38
535.64	1748.97
535.84	1705.96
536.04	1720.29
536.24	1667.05
536.43	1615.85
536.63	1798.12
536.83	1650.66
537.03	1742.82
537.22	1699.81
537.42	1642.47
537.62	1736.68
537.82	1703.91
538.02	1773.54
538.21	1804.26
538.41	1896.42
538.61	1830.88
538.81	1746.92
539.00	1736.68
539.20	1601.51
539.40	1759.21
539.60	1720.29
539.79	1751.01
539.99	1691.62
540.19	1667.05
540.39	1744.87
540.58	1763.30
540.78	1804.26
540.98	1755.11
541.18	1755.11
541.37	1712.10
541.57	1697.77
541.77	1738.73
541.97	1642.47
542.16	1634.28
542.36	1726.44
542.56	1746.92
542.76	1771.49
542.95	1759.21
543.15	1822.69
543.35	1673.19
543.54	1744.87
543.74	1685.48
543.94	1791.97
544.14	1630.18
544.33	1781.73
544.53	1718.25
544.73	1667.05
544.93	1685.48
545.12	1673.19
545.32	1714.15
545.52	1726.44
545.71	1683.43
545.91	1685.48
546.11	1708.01
546.30	1708.01
546.50	1665.00
546.70	1822.69
546.90	1765.35
547.09	1615.85
547.29	1693.67
547.49	1765.35
547.68	1658.85
547.88	1654.76
548.08	1734.63
548.27	2201.57
548.47	1654.76
548.67	1669.09
548.87	1718.25
549.06	1759.21
549.26	1714.15
549.46	1675.24
549.65	1681.38
549.85	1789.92
550.05	1796.07
550.24	1617.90
550.44	1734.63
550.64	1759.21
550.83	1753.06
551.03	1804.26
551.23	1691.62
551.42	1781.73
551.62	1759.21
551.82	1767.40
552.01	1687.53
552.21	1765.35
552.41	1691.62
552.60	1830.88
552.80	1701.86
553.00	1683.43
553.19	1652.71
553.39	1861.60
553.59	1667.05
553.78	1771.49
553.98	1746.92
554.17	1701.86
554.37	1783.78
554.57	1761.25
554.76	1665.00
554.96	1691.62
555.16	1726.44
555.35	1679.33
555.55	1759.21
555.75	1796.07
555.94	1798.12
556.14	1601.51
556.33	1744.87
556.53	1765.35
556.73	1740.77
556.92	1816.55
557.12	1822.69
557.32	1720.29
557.51	1767.40
557.71	1753.06
557.90	1861.60
558.10	1853.41
558.30	1726.44
558.49	1722.34
558.69	1771.49
558.88	1718.25
559.08	1685.48
559.28	1677.29
559.47	1691.62
559.67	1695.72
559.86	1869.80
560.06	1701.86
560.26	1697.77
560.45	1757.16
560.65	1675.24
560.84	1882.08
561.04	1646.57
561.24	1755.11
561.43	1701.86
561.63	1843.17
561.82	1757.16
562.02	1718.25
562.22	1773.54
562.41	1660.90
562.61	1763.30
562.80	1681.38
563.00	1806.31
563.19	1703.91
563.39	1701.86
563.59	1726.44
563.78	1712.10
563.98	1671.14
564.17	1738.73
564.37	1638.38
564.56	1732.58
564.76	1621.99
564.96	1845.22
565.15	1726.44
565.35	1845.22
565.54	1691.62
565.74	1744.87
565.93	1736.68
566.13	1689.57
566.32	1720.29
566.52	1763.30
566.71	1740.77
566.91	1767.40
567.11	1740.77
567.30	1705.96
567.50	1818.60
567.69	1781.73
567.89	1705.96
568.08	1693.67
568.28	1722.34
568.47	1673.19
568.67	1826.79
568.86	1744.87
569.06	1734.63
569.25	1701.86
569.45	1710.05
569.64	1693.67
569.84	1665.00
570.04	1738.73
570.23	1796.07
570.43	1718.25
570.62	1726.44
570.82	1806.31
571.01	1714.15
571.21	1619.94
571.40	1714.15
571.60	1789.92
571.79	1710.05
571.99	1724.39
572.18	1710.05
572.38	1765.35
572.57	1746.92
572.77	1769.44
572.96	1904.61
573.16	1755.11
573.35	1787.88
573.55	1789.92
573.74	1681.38
573.94	1671.14
574.13	1687.53
574.33	1738.73
574.52	1789.92
574.71	1761.25
574.91	1763.30
575.10	1691.62
575.30	1761.25
575.49	1671.14
575.69	1703.91
575.88	1708.01
576.08	1705.96
576.27	1761.25
576.47	1699.81
576.66	1818.60
576.86	1726.44
577.05	1753.06
577.25	1808.36
577.44	1935.33
577.64	1677.29
577.83	1824.74
578.02	1669.09
578.22	1826.79
578.41	1841.12
578.61	1710.05
578.80	1638.38
579.00	1769.44
579.19	1634.28
579.39	1796.07
579.58	1730.53
579.77	1765.35
579.97	1820.64
580.16	1918.95
580.36	1880.04
580.55	1863.65
580.75	1783.78
580.94	1787.88
581.13	1882.08
581.33	1841.12
581.52	1732.58
581.72	1806.31
581.91	1853.41
582.11	1757.16
582.30	1714.15
582.49	1763.30
582.69	1894.37
582.88	1656.81
583.08	1738.73
583.27	1796.07
583.47	1755.11
583.66	1695.72
583.85	1693.67
584.05	1742.82
584.24	1824.74
584.44	1814.50
584.63	1820.64
584.82	1812.45
585.02	1818.60
585.21	1822.69
585.41	1787.88
585.60	1875.94
585.79	1914.85
585.99	1923.04
586.18	1837.03
586.37	2168.80
586.57	3424.20
586.76	10282.85
586.96	25212.54
587.15	35433.96
587.34	41729.41
587.54	42788.21
587.73	37344.71
587.93	26809.96
588.12	22099.63
588.31	18738.91
588.51	16961.28
588.70	15206.17
588.89	14448.42
589.09	12728.13
589.28	11288.40
589.47	9654.12
589.67	8200.07
589.86	6461.34
590.06	4995.00
590.25	3981.25
590.44	3135.44
590.64	2555.86
590.83	2215.90
591.02	2119.65
591.22	1937.38
591.41	1902.56
591.60	1820.64
591.80	1880.04
591.99	1748.97
592.18	1771.49
592.38	1781.73
592.57	1759.21
592.76	1757.16
592.96	1775.59
593.15	1783.78
593.34	1798.12
593.54	1712.10
593.73	1804.26
593.92	1716.20
594.12	1791.97
594.31	1697.77
594.50	1804.26
594.70	1757.16
594.89	1964.00
595.08	1681.38
595.28	1726.44
595.47	1855.46
595.66	1796.07
595.86	1783.78
596.05	1648.61
596.24	1724.39
596.43	1763.30
596.63	1769.44
596.82	1742.82
597.01	1783.78
597.21	1796.07
597.40	1701.86
597.59	1722.34
597.79	1710.05
597.98	1798.12
598.17	1740.77
598.36	1746.92
598.56	1761.25
598.75	1689.57
598.94	1714.15
599.14	1767.40
599.33	1703.91
599.52	1730.53
599.71	1767.40
599.91	1783.78
600.10	1808.36
600.29	1728.49
600.48	1777.64
600.68	1763.30
600.87	1714.15
601.06	1736.68
601.26	1794.02
601.45	1742.82
601.64	1662.95
601.83	1794.02
602.03	1697.77
602.22	1728.49
602.41	1662.95
602.60	1898.47
602.80	1742.82
602.99	1789.92
603.18	1691.62
603.37	1710.05
603.57	1798.12
603.76	1779.68
603.95	1773.54
604.14	1755.11
604.34	1736.68
604.53	1759.21
604.72	1769.44
604.91	1761.25
605.10	1642.47
605.30	1634.28
605.49	1871.84
605.68	1767.40
605.87	1771.49
606.07	1679.33
606.26	1689.57
606.45	1722.34
606.64	1771.49
606.84	1710.05
607.03	1740.77
607.22	1765.35
607.41	1656.81
607.60	1658.85
607.80	1710.05
607.99	1779.68
608.18	1759.21
608.37	1695.72
608.56	1683.43
608.76	1759.21
608.95	1785.83
609.14	1791.97
609.33	1767.40
609.52	1769.44
609.72	1744.87
609.91	1843.17
610.10	1763.30
610.29	1812.45
610.48	1775.59
610.68	1794.02
610.87	1765.35
611.06	1728.49
611.25	1734.63
611.44	1746.92
611.63	1681.38
611.83	1871.84
612.02	1708.01
612.21	1849.32
612.40	1695.72
612.59	1669.09
612.79	1660.90
612.98	1740.77
613.17	1834.98
613.36	1724.39
613.55	1787.88
613.74	1656.81
613.93	1714.15
614.13	1722.34
614.32	1675.24
614.51	1796.07
614.70	1753.06
614.89	1652.71
615.08	1740.77
615.28	2107.36
615.47	1652.71
615.66	1785.83
615.85	1703.91
616.04	1755.11
616.23	1732.58
616.42	1718.25
616.62	1777.64
616.81	1726.44
617.00	1691.62
617.19	1830.88
617.38	1636.33
617.57	1724.39
617.76	1736.68
617.95	1714.15
618.15	1744.87
618.34	1837.03
618.53	1693.67
618.72	1767.40
618.91	1783.78
619.10	1796.07
619.29	1599.46
619.48	1695.72
619.68	1640.42
619.87	1714.15
620.06	1613.80
620.25	1765.35
620.44	1740.77
620.63	1773.54
620.82	1722.34
621.01	1777.64
621.20	1746.92
621.39	1746.92
621.59	1699.81
621.78	1679.33
621.97	1673.19
622.16	1765.35
622.35	1685.48
622.54	1771.49
622.73	1742.82
622.92	1699.81
623.11	1718.25
623.30	1710.05
623.49	1718.25
623.68	1757.16
623.88	1791.97
624.07	1703.91
624.26	1755.11
624.45	1738.73
624.64	1611.75
624.83	1746.92
625.02	1779.68
625.21	1718.25
625.40	1751.01
625.59	1734.63
625.78	1787.88
625.97	1720.29
626.16	1787.88
626.35	1796.07
626.54	1679.33
626.74	1785.83
626.93	1734.63
627.12	1716.20
627.31	1728.49
627.50	1791.97
627.69	1781.73
627.88	1716.20
628.07	1665.00
628.26	1617.90
628.45	1701.86
628.64	1693.67
628.83	1738.73
629.02	1603.56
629.21	1701.86
629.40	1728.49
629.59	1662.95
629.78	1740.77
629.97	1646.57
630.16	1648.61
630.35	1648.61
630.54	1658.85
630.73	1732.58
630.92	1808.36
631.11	1658.85
631.30	1759.21
631.49	1730.53
631.68	1685.48
631.87	1681.38
632.06	1601.51
632.25	1880.04
632.44	1689.57
632.63	1660.90
632.82	1738.73
633.01	1621.99
633.20	1648.61
633.39	1695.72
633.58	1640.42
633.77	1689.57
633.96	1654.76
634.15	1734.63
634.34	1730.53
634.53	1693.67
634.72	1669.09
634.91	1578.98
635.10	1726.44
635.29	1773.54
635.48	1751.01
635.67	1673.19
635.86	1607.66
636.05	1767.40
636.24	1738.73
636.43	1738.73
636.62	1798.12
636.81	1572.84
637.00	1728.49
637.19	1746.92
637.38	1644.52
637.57	1609.70
637.76	1681.38
637.95	1679.33
638.14	1626.09
638.33	1693.67
638.52	1679.33
638.71	1609.70
638.89	1601.51
639.08	1806.31
639.27	1748.97
639.46	1708.01
639.65	1908.71
639.84	1738.73
640.03	1791.97
640.22	1708.01
640.41	1814.50
640.60	1660.90
640.79	1777.64
640.98	1679.33
641.17	1673.19
641.36	1638.38
641.55	1722.34
641.74	1669.09
641.92	1589.22
642.11	1652.71
642.30	1693.67
642.49	1595.37
642.68	1742.82
642.87	1810.40
643.06	1806.31
643.25	1656.81
643.44	1722.34
643.63	1652.71
643.82	1701.86
644.00	1603.56
644.19	1746.92
644.38	1652.71
644.57	1753.06
644.76	1722.34
644.95	1748.97
645.14	1632.23
645.33	1718.25
645.52	1732.58
645.71	1718.25
645.89	1693.67
646.08	1755.11
646.27	1646.57
646.46	1865.70
646.65	1638.38
646.84	1712.10
647.03	1689.57
647.22	1785.83
647.40	1732.58
647.59	1574.89
647.78	1564.65
647.97	1632.23
648.16	1572.84
648.35	1765.35
648.54	1812.45
648.73	1718.25
648.91	1673.19
649.10	1796.07
649.29	1695.72
649.48	1736.68
649.67	1789.92
649.86	1742.82
650.05	1660.90
650.23	1810.40
650.42	1652.71
650.61	1697.77
650.80	1812.45
650.99	1814.50
651.18	1781.73
651.36	1708.01
651.55	1685.48
651.74	1726.44
651.93	1669.09
652.12	1669.09
652.31	1644.52
652.49	1769.44
652.68	1712.10
652.87	1791.97
653.06	1671.14
653.25	1802.21
653.44	1695.72
653.62	1808.36
653.81	1689.57
654.00	1763.30
654.19	1789.92
654.38	1763.30
654.56	1691.62
654.75	1669.09
654.94	1757.16
655.13	1755.11
655.32	1648.61
655.51	1730.53
655.69	1720.29
655.88	1781.73
656.07	1665.00
656.26	1724.39
656.45	1619.94
656.63	1644.52
656.82	1662.95
657.01	1755.11
657.20	1734.63
657.38	1814.50
657.57	1675.24
657.76	1662.95
657.95	1728.49
658.14	1712.10
658.32	1730.53
658.51	1710.05
658.70	1673.19
658.89	1759.21
659.08	1708.01
659.26	1857.51
659.45	1630.18
659.64	1695.72
659.83	1611.75
660.01	1880.04
660.20	1738.73
660.39	1757.16
660.58	1583.08
660.76	1712.10
660.95	1714.15
661.14	1656.81
661.33	1703.91
661.51	1626.09
661.70	1683.43
661.89	1765.35
662.08	1712.10
662.26	1671.14
662.45	1689.57
662.64	1826.79
662.83	1730.53
663.01	1683.43
663.20	1728.49
663.39	1787.88
663.58	1701.86
663.76	1654.76
663.95	1718.25
664.14	1699.81
664.32	1665.00
664.51	1724.39
664.70	1619.94
664.89	1714.15
665.07	1665.00
665.26	1757.16
665.45	1701.86
665.64	1734.63
665.82	1689.57
666.01	1742.82
666.20	1679.33
666.38	1796.07
666.57	1812.45
666.76	2306.01
666.95	4571.07
667.13	10688.35
667.32	15626.00
667.51	18114.28
667.69	19441.37
667.88	17958.64
668.07	12543.81
668.25	9779.05
668.44	8292.23
668.63	7456.65
668.81	6969.24
669.00	6449.05
669.19	5740.46
669.38	5205.94
669.56	4642.75
669.75	4040.64
669.94	3475.40
670.12	2934.74
670.31	2619.35
670.50	2281.44
670.68	2066.40
670.87	2000.87
671.06	1763.30
671.24	1843.17
671.43	1871.84
671.62	1710.05
671.80	1656.81
671.99	1740.77
672.18	1718.25
672.36	1765.35
672.55	1757.16
672.74	1667.05
672.92	1703.91
673.11	1722.34
673.29	1585.13
673.48	1767.40
673.67	1710.05
673.85	1787.88
674.04	1671.14
674.23	1697.77
674.41	1785.83
674.60	1624.04
674.79	1599.46
674.97	1683.43
675.16	1703.91
675.34	1705.96
675.53	1701.86
675.72	1722.34
675.90	1837.03
676.09	1687.53
676.28	1693.67
676.46	1611.75
676.65	1771.49
676.83	1603.56
677.02	1701.86
677.21	1695.72
677.39	1734.63
677.58	1724.39
677.77	1599.46
677.95	1691.62
678.14	1689.57
678.32	1732.58
678.51	1626.09
678.70	1777.64
678.88	1736.68
679.07	1751.01
679.25	1714.15
679.44	1681.38
679.63	1658.85
679.81	1665.00
680.00	1744.87
680.18	1701.86
680.37	1781.73
680.55	1697.77
680.74	1656.81
680.93	1552.36
681.11	1691.62
681.30	1689.57
681.48	1742.82
681.67	1710.05
681.85	1689.57
682.04	1710.05
682.23	1730.53
682.41	1759.21
682.60	1712.10
682.78	1753.06
682.97	1658.85
683.15	1730.53
683.34	1761.25
683.53	1746.92
683.71	1650.66
683.90	1724.39
684.08	1789.92
684.27	1718.25
684.45	1736.68
684.64	1779.68
684.82	1669.09
685.01	1765.35
685.19	1683.43
685.38	1777.64
685.57	1679.33
685.75	1697.77
685.94	1671.14
686.12	1648.61
686.31	1628.14
686.49	1714.15
686.68	1621.99
686.86	1755.11
687.05	1665.00
687.23	1791.97
687.42	1669.09
687.60	1619.94
687.79	1742.82
687.97	1769.44
688.16	1791.97
688.34	1781.73
688.53	1644.52
688.71	1693.67
688.90	1671.14
689.08	1693.67
689.27	1685.48
689.45	1746.92
689.64	1791.97
689.82	1746.92
690.01	1624.04
690.19	1746.92
690.38	1697.77
690.56	1775.59
690.75	1701.86
690.93	1714.15
691.12	1697.77
691.30	1681.38
691.49	1701.86
691.67	1665.00
691.86	1763.30
692.04	1660.90
692.23	1697.77
692.41	1636.33
692.60	1779.68
692.78	1761.25
692.97	1683.43
693.15	1675.24
693.34	1855.46
693.52	1806.31
693.71	1689.57
693.89	1679.33
694.08	1662.95
694.26	1718.25
694.44	1744.87
694.63	1810.40
694.81	1673.19
695.00	1662.95
695.18	1777.64
695.37	1865.70
695.55	1628.14
695.74	1652.71
695.92	1660.90
696.10	1722.34
696.29	1511.40
696.47	1656.81
696.66	1613.80
696.84	1644.52
697.03	1708.01
697.21	1761.25
697.40	2344.92
697.58	1808.36
697.76	1736.68
697.95	1591.27
698.13	1648.61
698.32	1673.19
698.50	1691.62
698.68	1787.88
698.87	1691.62
699.05	1802.21
699.24	1667.05
699.42	1667.05
699.61	1742.82
699.79	1722.34
699.97	1638.38
700.16	1691.62
700.34	1632.23
700.53	1710.05
700.71	1755.11
700.89	1755.11
701.08	1687.53
701.26	1689.57
701.45	2101.22
701.63	1753.06
701.81	1667.05
702.00	1732.58
702.18	1648.61
702.37	1732.58
702.55	1806.31
702.73	1669.09
702.92	1726.44
703.10	1781.73
703.28	1746.92
703.47	1677.29
703.65	1746.92
703.84	1748.97
704.02	1587.18
704.20	1824.74
704.39	1697.77
704.57	1648.61
704.75	1767.40
704.94	1755.11
705.12	1732.58
705.30	1765.35
705.49	2230.24
705.67	4466.62
705.86	9725.80
706.04	12871.48
706.22	14722.85
706.41	15779.60
706.59	14090.02
706.77	9826.15
706.96	7456.65
707.14	6750.10
707.32	6025.12
707.51	5683.11
707.69	4968.37
707.87	4333.50
708.06	3663.82
708.24	2938.84
708.42	2451.42
708.61	2191.33
708.79	1834.98
708.97	1832.93
709.16	1832.93
709.34	1777.64
709.52	1679.33
709.71	1763.30
709.89	1771.49
710.07	1628.14
710.26	1722.34
710.44	1673.19
710.62	1740.77
710.80	1660.90
710.99	1781.73
711.17	1814.50
711.35	1705.96
711.54	1640.42
711.72	1624.04
711.90	1748.97
712.09	1746.92
712.27	1697.77
712.45	1701.86
712.63	1701.86
712.82	1679.33
713.00	1677.29
713.18	1763.30
713.37	1789.92
713.55	1697.77
713.73	1783.78
713.91	1734.63
714.10	1689.57
714.28	1644.52
714.46	1748.97
714.65	1705.96
714.83	1751.01
715.01	1796.07
715.19	1673.19
715.38	1648.61
715.56	1656.81
715.74	1714.15
715.92	1589.22
716.11	1822.69
716.29	1624.04
716.47	1656.81
716.65	1730.53
716.84	1597.42
717.02	1714.15
717.20	1609.70
717.38	1658.85
717.57	1726.44
717.75	1662.95
717.93	1642.47
718.11	1671.14
718.30	1615.85
718.48	1691.62
718.66	1769.44
718.84	1714.15
719.03	1695.72
719.21	1667.05
719.39	1884.13
719.57	1744.87
719.75	1767.40
719.94	1630.18
720.12	1730.53
720.30	1691.62
720.48	1789.92
720.67	1675.24
720.85	1738.73
721.03	1660.90
721.21	1722.34
721.39	1767.40
721.58	1767.40
721.76	1665.00
721.94	1621.99
722.12	1691.62
722.30	1732.58
722.49	1640.42
722.67	1673.19
722.85	1726.44
723.03	1570.79
723.21	1755.11
723.40	1716.20
723.58	1708.01
723.76	1705.96
723.94	1701.86
724.12	1736.68
724.30	1720.29
724.49	1724.39
724.67	1613.80
724.85	1863.65
725.03	1589.22
725.21	1710.05
725.40	1789.92
725.58	1695.72
725.76	1712.10
725.94	1691.62
726.12	1695.72
726.30	1765.35
726.49	1710.05
726.67	1646.57
726.85	1650.66
727.03	1783.78
727.21	2158.56
727.39	2877.40
727.57	3819.46
727.76	4179.90
727.94	4478.91
728.12	4431.80
728.30	3796.93
728.48	2998.23
728.66	2688.98
728.84	2439.13
729.03	2283.49
729.21	2154.46
729.39	1945.57
729.57	1918.95
729.75	1800.16
729.93	1839.08
730.11	1708.01
730.30	1636.33
730.48	1705.96
730.66	1910.75
730.84	1787.88
731.02	1636.33
731.20	1667.05
731.38	1761.25
731.56	1632.23
731.74	1556.46
731.93	1820.64
732.11	1804.26
732.29	1742.82
732.47	1722.34
732.65	1720.29
732.83	1773.54
733.01	1812.45
733.19	1673.19
733.37	1785.83
733.56	1734.63
733.74	1687.53
733.92	1769.44
734.10	1624.04
734.28	1701.86
734.46	1599.46
734.64	1658.85
734.82	1650.66
735.00	1665.00
735.18	1697.77
735.36	1718.25
735.54	1640.42
735.73	1759.21
735.91	1771.49
736.09	1712.10
736.27	1689.57
736.45	1730.53
736.63	1658.85
736.81	1636.33
736.99	1744.87
737.17	1757.16
737.35	1683.43
737.53	1716.20
737.71	1714.15
737.89	1781.73
738.07	1587.18
738.25	1642.47
738.43	1665.00
738.61	1728.49
738.80	1685.48
738.98	1665.00
739.16	1611.75
739.34	1656.81
739.52	1757.16
739.70	1683.43
739.88	1697.77
740.06	1814.50
740.24	1523.69
740.42	1763.30
740.60	1576.94
740.78	1677.29
740.96	1609.70
741.14	1638.38
741.32	1689.57
741.50	1597.42
741.68	1722.34
741.86	1808.36
742.04	1681.38
742.22	1583.08
742.40	1812.45
742.58	1630.18
742.76	1722.34
742.94	1744.87
743.12	1687.53
743.30	1691.62
743.48	1736.68
743.66	1642.47
743.84	1763.30
744.02	1701.86
744.20	1785.83
744.38	1572.84
744.56	1673.19
744.74	1734.63
744.92	1742.82
745.10	1796.07
745.28	1746.92
745.46	1763.30
745.64	1652.71
745.82	1800.16
746.00	1677.29
746.18	1619.94
746.36	1624.04
746.54	1716.20
746.72	1695.72
746.90	1730.53
747.08	1691.62
747.26	1638.38
747.44	1726.44
747.62	1710.05
747.80	1699.81
747.98	1767.40
748.15	1691.62
748.33	1751.01
748.51	1701.86
748.69	1714.15
748.87	1695.72
749.05	1722.34
749.23	1761.25
749.41	1648.61
749.59	1697.77
749.77	1736.68
749.95	1710.05
750.13	1714.15
750.31	1679.33
750.49	1652.71
750.67	1785.83
750.85	1779.68
751.03	1624.04
751.20	1783.78
751.38	1695.72
751.56	1560.55
751.74	1681.38
751.92	1710.05
752.10	1572.84
752.28	1736.68
752.46	1671.14
752.64	1673.19
752.82	1705.96
753.00	1767.40
753.18	1726.44
753.35	1648.61
753.53	1687.53
753.71	1714.15
753.89	1787.88
754.07	1665.00
754.25	1783.78
754.43	1656.81
754.61	1624.04
754.79	1755.11
754.97	1667.05
755.14	1722.34
755.32	1642.47
755.50	1724.39
755.68	1722.34
755.86	1597.42
756.04	1640.42
756.22	1603.56
756.40	1722.34
756.57	1886.18
756.75	1708.01
756.93	1785.83
757.11	1687.53
757.29	1685.48
757.47	1624.04
757.65	1552.36
757.82	1556.46
758.00	1687.53
758.18	1640.42
758.36	1587.18
758.54	1781.73
758.72	1636.33
758.90	1705.96
759.07	1687.53
759.25	1626.09
759.43	1755.11
759.61	1615.85
759.79	2138.08
759.97	1763.30
760.15	1722.34
760.32	1658.85
760.50	1693.67
760.68	1767.40
760.86	1656.81
761.04	1728.49
761.22	1748.97
761.39	1755.11
761.57	1773.54
761.75	1630.18
761.93	1804.26
762.11	1665.00
762.28	1640.42
762.46	1732.58
762.64	1714.15
762.82	1593.32
763.00	1718.25
763.18	1701.86
763.35	1660.90
763.53	1699.81
763.71	1703.91
763.89	1687.53
764.07	1689.57
764.24	1767.40
764.42	1712.10
764.60	1673.19
764.78	1789.92
764.96	1675.24
765.13	1716.20
765.31	1689.57
765.49	1761.25
765.67	1693.67
765.84	1671.14
766.02	1628.14
766.20	1624.04
766.38	1691.62
766.56	1755.11
766.73	1769.44
766.91	1665.00
767.09	1679.33
767.27	1691.62
767.44	1697.77
767.62	1695.72
767.80	1703.91
767.98	1724.39
768.15	1648.61
768.33	1716.20
768.51	1732.58
768.69	1728.49
768.87	1769.44
769.04	1701.86
769.22	1841.12
769.40	1718.25
769.58	1841.12
769.75	1730.53
769.93	1742.82
770.11	1591.27
770.28	1671.14
770.46	1703.91
770.64	1613.80
770.82	1609.70
770.99	1671.14
771.17	1765.35
771.35	1665.00
771.53	1763.30
771.70	1671.14
771.88	1734.63
772.06	1748.97
772.23	1652.71
772.41	1703.91
772.59	1687.53
772.77	1660.90
772.94	1658.85
773.12	1697.77
773.30	1718.25
773.47	1701.86
773.65	1619.94
773.83	1800.16
774.01	1675.24
774.18	1685.48
774.36	1722.34
774.54	1636.33
774.71	1658.85
774.89	1568.74
775.07	1697.77
775.24	1628.14
775.42	1679.33
775.60	1746.92
775.78	1691.62
775.95	1583.08
776.13	1638.38
776.31	1578.98
776.48	1701.86
776.66	1806.31
776.84	1665.00
777.01	1634.28
777.19	1603.56
777.37	1685.48
777.54	1679.33
777.72	1767.40
777.90	1681.38
778.07	1751.01
778.25	1896.42
778.43	1738.73
778.60	1669.09
778.78	1744.87
778.96	1748.97
779.13	1628.14
779.31	1767.40
779.49	1642.47
779.66	1662.95
779.84	1632.23
780.01	1669.09
780.19	1650.66
780.37	1775.59
780.54	1746.92
780.72	1671.14
780.90	1755.11
781.07	1654.76
781.25	1697.77
781.43	1689.57
781.60	1626.09
781.78	1783.78
781.95	1681.38
782.13	1626.09
782.31	1671.14
782.48	1595.37
782.66	1796.07
782.83	1732.58
783.01	1681.38
783.19	1757.16
783.36	1642.47
783.54	1603.56
783.72	1697.77
783.89	1751.01
784.07	1726.44
784.24	1695.72
784.42	1796.07
784.60	1695.72
784.77	1675.24
784.95	1660.90
785.12	1665.00
785.30	1718.25
785.47	1638.38
785.65	1689.57
785.83	1687.53
786.00	1662.95
786.18	1701.86
786.35	1632.23
786.53	1613.80
786.71	1787.88
786.88	1740.77
787.06	1708.01
787.23	1724.39
787.41	1662.95
787.58	1757.16
787.76	1599.46
787.94	1724.39
788.11	1683.43
788.29	1646.57
788.46	1665.00
788.64	1581.03
788.81	1701.86
788.99	1630.18
789.16	1662.95
789.34	1669.09
789.52	1624.04
789.69	1654.76
789.87	1513.45
790.04	1660.90
790.22	1703.91
790.39	1832.93
790.57	1695.72
790.74	1648.61
790.92	1818.60
791.09	1628.14
791.27	1685.48
791.44	1765.35
791.62	1591.27
791.79	1708.01
791.97	1697.77
792.15	1953.76
792.32	1755.11
792.50	1763.30
792.67	1814.50
792.85	1771.49
793.02	1677.29
793.20	1679.33
793.37	1648.61
793.55	1714.15
793.72	1685.48
793.90	1746.92
794.07	1617.90
794.25	1583.08
794.42	1681.38
794.60	1607.66
794.77	1703.91
794.95	1746.92
795.12	1693.67
795.30	1624.04
795.47	1619.94
795.65	1845.22
795.82	1699.81
796.00	1646.57
796.17	1634.28
796.34	1679.33
796.52	1693.67
796.69	1697.77
796.87	1826.79
797.04	1710.05
797.22	1689.57
797.39	1742.82
797.57	1695.72
797.74	1736.68
797.92	1718.25
798.09	1609.70
798.27	1757.16
798.44	1726.44
798.62	1576.94
798.79	1671.14
798.96	1603.56
799.14	1679.33
799.31	1787.88
799.49	1708.01
799.66	1662.95
799.84	1732.58
800.01	1615.85
800.19	1746.92
800.36	1648.61
800.53	1636.33
800.71	1669.09
800.88	1734.63
801.06	1675.24
801.23	1662.95
801.41	1779.68
801.58	1714.15
801.75	1634.28
801.93	1740.77
802.10	1695.72
802.28	1730.53
802.45	1611.75
802.63	1732.58
802.80	1728.49
802.97	1648.61
803.15	1665.00
803.32	1642.47
803.50	1660.90
803.67	1701.86
803.84	1568.74
804.02	1687.53
804.19	1699.81
804.37	1632.23
804.54	1572.84
804.71	1708.01
804.89	1650.66
805.06	1679.33
805.24	1611.75
805.41	1638.38
805.58	1650.66
805.76	1863.65
805.93	1689.57
806.10	1832.93
806.28	1761.25
806.45	1736.68
806.63	1695.72
806.80	1712.10
806.97	1748.97
807.15	1841.12
807.32	1675.24
807.49	1730.53
807.67	1712.10
807.84	1677.29
808.01	1630.18
808.19	1714.15
808.36	1808.36
808.54	1624.04
808.71	1626.09
808.88	1691.62
809.06	1746.92
809.23	1771.49
809.40	1583.08
809.58	1757.16
809.75	1660.90
809.92	1599.46
810.10	1806.31
810.27	1675.24
810.44	1679.33
810.62	1683.43
810.79	1691.62
810.96	1695.72
811.14	1634.28
811.31	1775.59
811.48	1638.38
811.66	1652.71
811.83	1736.68
812.00	1681.38
812.18	1714.15
812.35	1746.92
812.52	1736.68
812.69	1681.38
812.87	1652.71
813.04	1726.44
813.21	1714.15
813.39	1640.42
813.56	1652.71
813.73	1765.35
813.91	1583.08
814.08	1679.33
814.25	1650.66
814.42	1611.75
814.60	1656.81
814.77	1763.30
814.94	1685.48
815.12	1757.16
815.29	1710.05
815.46	1679.33
815.63	1703.91
815.81	1681.38
815.98	1646.57
816.15	1603.56
816.33	1748.97
816.50	1660.90
816.67	1691.62
816.84	1746.92
817.02	1630.18
817.19	1687.53
817.36	1742.82
817.53	1648.61
817.71	1689.57
817.88	1755.11
818.05	1689.57
818.22	1671.14
818.40	1755.11
818.57	1646.57
818.74	1701.86
818.91	1697.77
819.09	1791.97
819.26	1726.44
819.43	1658.85
819.60	1665.00
819.78	1689.57
819.95	1783.78
820.12	1675.24
820.29	1763.30
820.47	1720.29
820.64	1759.21
820.81	1638.38
820.98	1683.43
821.15	1667.05
821.33	1738.73
821.50	1617.90
821.67	1740.77
821.84	1679.33
822.02	1798.12
822.19	1818.60
822.36	1615.85
822.53	1624.04
822.70	1642.47
822.88	1681.38
823.05	1828.84
823.22	1697.77
823.39	1789.92
823.56	1693.67
823.74	1734.63
823.91	1671.14
824.08	1705.96
824.25	1652.71
824.42	1796.07
824.60	1593.32
824.77	1742.82
824.94	1705.96
825.11	1708.01
825.28	1636.33
825.45	1628.14
825.63	1705.96
825.80	1640.42
825.97	1744.87
826.14	1683.43
826.31	1593.32
826.48	1617.90
826.66	1626.09
826.83	1652.71
827.00	1708.01
827.17	1691.62
827.34	1677.29
827.51	1619.94
827.69	1728.49
827.86	1660.90
828.03	1685.48
828.20	1665.00
828.37	1632.23
828.54	1724.39
828.71	1665.00
828.89	1832.93
829.06	1722.34
829.23	1779.68
829.40	1732.58
829.57	1665.00
829.74	1755.11
829.91	1652.71
830.09	1632.23
830.26	1669.09
830.43	1800.16
830.60	1718.25
830.77	1779.68
830.94	1705.96
831.11	1693.67
831.28	1665.00
831.46	1748.97
831.63	1648.61
831.80	1734.63
831.97	1648.61
832.14	1634.28
832.31	1716.20
832.48	1781.73
832.65	1742.82
832.82	1695.72
832.99	1769.44
833.17	1654.76
833.34	1746.92
833.51	1695.72
833.68	1656.81
833.85	1763.30
834.02	1665.00
834.19	1724.39
834.36	1648.61
834.53	1699.81
834.70	1738.73
834.87	1734.63
835.04	1726.44
835.22	1570.79
835.39	1701.86
835.56	1691.62
835.73	1642.47
835.90	1738.73
836.07	1648.61
836.24	1779.68
836.41	1656.81
836.58	1679.33
836.75	1732.58
836.92	1697.77
837.09	1710.05
837.26	1769.44
837.43	1710.05
837.60	1802.21
837.77	1669.09
837.94	1722.34
838.12	1757.16
838.29	1714.15
838.46	1665.00
838.63	1691.62
838.80	1697.77
838.97	1746.92
839.14	1652.71
839.31	1660.90
839.48	1699.81
839.65	1699.81
839.82	1755.11
839.99	1714.15
840.16	1642.47
840.33	1665.00
840.50	1685.48
840.67	1640.42
840.84	1566.70
841.01	1757.16
841.18	1658.85
841.35	1679.33
841.52	1755.11
841.69	1824.74
841.86	1687.53
842.03	1742.82
842.20	1728.49
842.37	1648.61
842.54	1673.19
842.71	1662.95
842.88	1628.14
843.05	1785.83
843.22	1687.53
843.39	1710.05
843.56	1658.85
843.73	1675.24
843.90	1683.43
844.07	1699.81
844.24	1630.18
844.41	1742.82
844.58	1699.81
844.75	1632.23
844.92	1734.63
845.09	1607.66
845.26	1640.42
845.43	1812.45
845.60	1689.57
845.77	1765.35
845.94	1705.96
846.10	1732.58
846.27	1593.32
846.44	1716.20
846.61	1621.99
846.78	1714.15
846.95	1691.62
847.12	1587.18
847.29	1652.71
847.46	1634.28
847.63	1773.54
847.80	1673.19
847.97	1728.49
848.14	1820.64
848.31	1652.71
848.48	1681.38
848.65	1679.33
848.82	1689.57
848.98	1791.97
849.15	1701.86
849.32	1777.64
849.49	1710.05
849.66	1640.42
849.83	1654.76
850.00	1585.13
850.17	1726.44
850.34	1748.97
850.51	1638.38
850.68	1632.23
850.85	1769.44
851.01	1712.10
851.18	1681.38
851.35	1660.90
851.52	1726.44
851.69	1812.45
851.86	1572.84
852.03	1667.05
852.20	1693.67
852.37	1705.96
852.53	1595.37
852.70	1738.73
852.87	1667.05
853.04	1714.15
853.21	1724.39
853.38	1730.53
853.55	1751.01
853.72	1716.20
853.89	1650.66
854.05	1611.75
854.22	1619.94
854.39	1634.28
854.56	1677.29
854.73	1716.20
854.90	1658.85
855.07	1673.19
855.23	1671.14
855.40	1609.70
855.57	1734.63
855.74	1611.75
855.91	1849.32
856.08	1572.84
856.25	1644.52
856.41	1681.38
856.58	1636.33
856.75	1654.76
856.92	1605.61
857.09	1699.81
857.26	1552.36
857.42	1660.90
857.59	1679.33
857.76	1722.34
857.93	1728.49
858.10	1720.29
858.27	1656.81
858.43	1673.19
858.60	1712.10
858.77	1636.33
858.94	1652.71
859.11	1687.53
859.27	1724.39
859.44	1699.81
859.61	1798.12
859.78	1763.30
859.95	1667.05
860.12	1679.33
860.28	1751.01
860.45	1830.88
860.62	1720.29
860.79	1712.10
860.95	1665.00
861.12	1632.23
861.29	1714.15
861.46	1689.57
861.63	1671.14
861.79	1765.35
861.96	1683.43
862.13	1683.43
862.30	1800.16
862.47	1687.53
862.63	1652.71
862.80	1714.15
862.97	1677.29
863.14	1777.64
863.30	1683.43
863.47	1634.28
863.64	1804.26
863.81	1718.25
863.97	1699.81
864.14	1675.24
864.31	1734.63
864.48	1783.78
864.65	1576.94
864.81	1679.33
864.98	1716.20
865.15	1759.21
865.32	1679.33
865.48	1783.78
865.65	1767.40
865.82	1671.14
865.98	1648.61
866.15	1740.77
866.32	1693.67
866.49	1646.57
866.65	1748.97
866.82	1601.51
866.99	1716.20
867.16	1714.15
867.32	1687.53
867.49	1734.63
867.66	1722.34
867.83	1640.42
867.99	1550.31
868.16	1677.29
868.33	1632.23
868.49	1759.21
868.66	1744.87
868.83	1697.77
868.99	1687.53
869.16	1769.44
869.33	1656.81
869.50	1748.97
869.66	1662.95
869.83	1660.90
870.00	1562.60
870.16	1683.43
870.33	1722.34
870.50	1669.09
870.66	1650.66
870.83	1794.02
871.00	1677.29
871.17	1685.48
871.33	1710.05
871.50	1658.85
871.67	1718.25
871.83	1587.18
872.00	1757.16
872.17	1718.25
872.33	1820.64
872.50	1820.64
872.67	1652.71
872.83	1675.24
873.00	1779.68
873.17	1640.42
873.33	1673.19
873.50	1738.73
873.67	1585.13
873.83	1677.29
874.00	1640.42
874.16	1730.53
874.33	1697.77
874.50	1665.00
874.66	1716.20
874.83	1669.09
875.00	1753.06
875.16	1689.57
875.33	1802.21
875.50	1533.93
875.66	1626.09
875.83	1660.90
875.99	1740.77
876.16	1597.42
876.33	1701.86
876.49	1728.49
876.66	1751.01
876.83	1644.52
876.99	1546.22
877.16	1675.24
877.32	1662.95
877.49	1662.95
877.66	1724.39
877.82	1705.96
877.99	1662.95
878.15	1665.00
878.32	1730.53
878.49	1794.02
878.65	1734.63
878.82	1824.74
878.98	1687.53
879.15	1675.24
879.32	1726.44
879.48	1701.86
879.65	1669.09
879.81	1654.76
879.98	1689.57
880.15	1665.00
880.31	1708.01
880.48	1675.24
880.64	1734.63
880.81	1689.57
880.97	1763.30
881.14	1693.67
881.31	1591.27
881.47	1824.74
881.64	1681.38
881.80	1595.37
881.97	1695.72
882.13	1738.73
882.30	1581.03
882.47	1673.19
882.63	1722.34
882.80	1611.75
882.96	1687.53
883.13	1705.96
883.29	1742.82
883.46	1740.77
883.62	1791.97
883.79	1667.05
883.95	1730.53
884.12	1693.67
884.29	1689.57
884.45	1691.62
884.62	1728.49
884.78	1632.23
884.95	1824.74
885.11	1652.71
885.28	1753.06
885.44	1646.57
885.61	1665.00
885.77	1755.11
885.94	1748.97
886.10	1667.05
886.27	1708.01
886.43	1753.06
886.60	1769.44
886.76	1638.38
886.93	1705.96
887.09	1726.44
887.26	1597.42
887.42	1693.67
887.59	1753.06
887.75	1886.18
887.92	1753.06
888.08	1726.44
888.25	1791.97
888.41	1734.63
888.58	1724.39
888.74	1675.24
888.91	1671.14
>>>>>End Processed Spectral Data<<<<<
