SpectraSuite Data File
++++++++++++++++++++++++++++++++++++
Date: Mon Jun 06 15:23:57 CEST 2016
User: root
Dark Spectrum Present: No
Reference Spectrum Present: No
Number of Sampled Component Spectra: 1
Spectrometers: USB4C02835
Integration Time (usec): 100000 (USB4C02835)
Spectra Averaged: 1 (USB4C02835)
Boxcar Smoothing: 0 (USB4C02835)
Correct for Electrical Dark: No (USB4C02835)
Strobe/Lamp Enabled: No (USB4C02835)
Correct for Detector Non-linearity: No (USB4C02835)
Correct for Stray Light: No (USB4C02835)
Number of Pixels in Processed Spectrum: 3648
>>>>>Begin Processed Spectral Data<<<<<
177.47	1511.40
177.69	1511.40
177.91	1511.40
178.13	1439.72
178.36	1515.50
178.58	1621.99
178.80	1710.05
179.02	1671.14
179.24	1662.95
179.46	1689.57
179.68	1763.30
179.90	1761.25
180.13	1677.29
180.35	1658.85
180.57	1665.00
180.79	1683.43
181.01	1748.97
181.23	1789.92
181.45	1783.78
181.67	1763.30
181.90	1757.16
182.12	1665.00
182.34	1621.99
182.56	1708.01
182.78	1673.19
183.00	1771.49
183.22	1724.39
183.44	1628.14
183.66	1855.46
183.89	1771.49
184.11	1712.10
184.33	1683.43
184.55	1689.57
184.77	1710.05
184.99	1761.25
185.21	1738.73
185.43	1861.60
185.65	1669.09
185.87	1767.40
186.10	1798.12
186.32	1787.88
186.54	1726.44
186.76	1791.97
186.98	1763.30
187.20	1679.33
187.42	1638.38
187.64	1697.77
187.86	1683.43
188.08	1806.31
188.30	1634.28
188.52	1753.06
188.75	1791.97
188.97	1808.36
189.19	1757.16
189.41	1714.15
189.63	1726.44
189.85	1699.81
190.07	1634.28
190.29	1679.33
190.51	1701.86
190.73	1624.04
190.95	1763.30
191.17	1730.53
191.39	1703.91
191.61	1724.39
191.84	1624.04
192.06	1710.05
192.28	1599.46
192.50	1845.22
192.72	1656.81
192.94	1640.42
193.16	1800.16
193.38	1800.16
193.60	1630.18
193.82	1798.12
194.04	1681.38
194.26	1703.91
194.48	1736.68
194.70	1640.42
194.92	1615.85
195.14	1699.81
195.36	1701.86
195.58	1787.88
195.80	1716.20
196.02	1675.24
196.24	1726.44
196.46	1773.54
196.69	1701.86
196.91	1863.65
197.13	1746.92
197.35	1619.94
197.57	1791.97
197.79	1722.34
198.01	1798.12
198.23	1732.58
198.45	1753.06
198.67	1589.22
198.89	1712.10
199.11	1746.92
199.33	1599.46
199.55	1599.46
199.77	1755.11
199.99	1767.40
200.21	1710.05
200.43	1753.06
200.65	1581.03
200.87	1619.94
201.09	1660.90
201.31	1648.61
201.53	1748.97
201.75	1751.01
201.97	1681.38
202.19	1748.97
202.41	1777.64
202.63	1834.98
202.85	1796.07
203.07	1693.67
203.29	1667.05
203.51	1662.95
203.73	1669.09
203.95	1912.80
204.17	1730.53
204.39	1789.92
204.61	1697.77
204.83	1724.39
205.05	1771.49
205.27	1787.88
205.49	1783.78
205.71	1697.77
205.93	1652.71
206.15	1624.04
206.37	1697.77
206.59	1765.35
206.81	1589.22
207.03	1591.27
207.25	1714.15
207.47	1771.49
207.69	1763.30
207.91	1822.69
208.13	1773.54
208.34	1628.14
208.56	1667.05
208.78	1808.36
209.00	1720.29
209.22	1736.68
209.44	1740.77
209.66	1673.19
209.88	1687.53
210.10	1755.11
210.32	1820.64
210.54	1742.82
210.76	1714.15
210.98	1714.15
211.20	1626.09
211.42	1708.01
211.64	1742.82
211.86	1695.72
212.08	1779.68
212.30	1818.60
212.52	1720.29
212.74	1767.40
212.96	1716.20
213.17	1769.44
213.39	1683.43
213.61	1787.88
213.83	1787.88
214.05	1689.57
214.27	1746.92
214.49	1710.05
214.71	1632.23
214.93	1796.07
215.15	1728.49
215.37	1779.68
215.59	1665.00
215.81	1728.49
216.03	1830.88
216.24	1728.49
216.46	1722.34
216.68	1789.92
216.90	1683.43
217.12	1748.97
217.34	1681.38
217.56	1736.68
217.78	1724.39
218.00	1734.63
218.22	1665.00
218.44	1693.67
218.66	1757.16
218.87	1798.12
219.09	1712.10
219.31	1667.05
219.53	1769.44
219.75	1679.33
219.97	1701.86
220.19	1755.11
220.41	1738.73
220.63	1771.49
220.85	1646.57
221.06	1662.95
221.28	1826.79
221.50	1716.20
221.72	1712.10
221.94	1767.40
222.16	1677.29
222.38	1726.44
222.60	1701.86
222.82	1689.57
223.03	1806.31
223.25	1691.62
223.47	1662.95
223.69	1869.80
223.91	1753.06
224.13	1724.39
224.35	1759.21
224.57	1787.88
224.78	1751.01
225.00	1695.72
225.22	1728.49
225.44	1806.31
225.66	1718.25
225.88	1726.44
226.10	1767.40
226.32	1738.73
226.53	1759.21
226.75	1724.39
226.97	1697.77
227.19	1638.38
227.41	1638.38
227.63	1656.81
227.85	1646.57
228.06	1785.83
228.28	1710.05
228.50	1753.06
228.72	1669.09
228.94	1673.19
229.16	1626.09
229.37	1658.85
229.59	1624.04
229.81	1765.35
230.03	1722.34
230.25	1609.70
230.47	1665.00
230.69	1703.91
230.90	1681.38
231.12	1628.14
231.34	1748.97
231.56	1861.60
231.78	1644.52
232.00	1748.97
232.21	1665.00
232.43	1687.53
232.65	1667.05
232.87	1763.30
233.09	1710.05
233.30	1708.01
233.52	1732.58
233.74	1714.15
233.96	1728.49
234.18	1748.97
234.40	1679.33
234.61	1820.64
234.83	1640.42
235.05	1603.56
235.27	1867.75
235.49	1822.69
235.70	1648.61
235.92	1779.68
236.14	1689.57
236.36	1886.18
236.58	1605.61
236.79	1728.49
237.01	1644.52
237.23	1789.92
237.45	1783.78
237.67	1667.05
237.88	1783.78
238.10	1794.02
238.32	1667.05
238.54	1660.90
238.76	1613.80
238.97	1658.85
239.19	1665.00
239.41	1691.62
239.63	1787.88
239.85	1701.86
240.06	1738.73
240.28	1722.34
240.50	1834.98
240.72	1806.31
240.93	1677.29
241.15	1796.07
241.37	1701.86
241.59	1761.25
241.81	1683.43
242.02	1744.87
242.24	1730.53
242.46	1796.07
242.68	1689.57
242.89	1798.12
243.11	1738.73
243.33	1738.73
243.55	1718.25
243.76	1712.10
243.98	1615.85
244.20	1718.25
244.42	1660.90
244.64	1712.10
244.85	1652.71
245.07	1642.47
245.29	1703.91
245.51	1640.42
245.72	1566.70
245.94	1837.03
246.16	1652.71
246.38	1810.40
246.59	1632.23
246.81	1636.33
247.03	1689.57
247.24	1697.77
247.46	1710.05
247.68	1718.25
247.90	1728.49
248.11	1771.49
248.33	1789.92
248.55	1722.34
248.77	1771.49
248.98	1697.77
249.20	1845.22
249.42	1777.64
249.64	1712.10
249.85	1697.77
250.07	1742.82
250.29	1753.06
250.50	1763.30
250.72	1640.42
250.94	1683.43
251.16	1818.60
251.37	1755.11
251.59	1705.96
251.81	1665.00
252.02	1894.37
252.24	1769.44
252.46	1877.99
252.68	1681.38
252.89	1693.67
253.11	1599.46
253.33	1794.02
253.54	1763.30
253.76	1636.33
253.98	1718.25
254.20	1804.26
254.41	1665.00
254.63	1665.00
254.85	1615.85
255.06	1720.29
255.28	1691.62
255.50	1708.01
255.71	1640.42
255.93	1640.42
256.15	1605.61
256.36	1685.48
256.58	1748.97
256.80	1746.92
257.02	1677.29
257.23	1716.20
257.45	1701.86
257.67	1767.40
257.88	1658.85
258.10	1751.01
258.32	1734.63
258.53	1710.05
258.75	1773.54
258.97	1710.05
259.18	1656.81
259.40	1705.96
259.62	1773.54
259.83	1781.73
260.05	1734.63
260.27	2011.11
260.48	1771.49
260.70	1593.32
260.92	1697.77
261.13	1656.81
261.35	1730.53
261.57	1789.92
261.78	1578.98
262.00	1697.77
262.22	1751.01
262.43	1742.82
262.65	1773.54
262.86	1695.72
263.08	1867.75
263.30	1779.68
263.51	1531.88
263.73	1712.10
263.95	1771.49
264.16	1646.57
264.38	1642.47
264.60	1748.97
264.81	1767.40
265.03	1798.12
265.25	1656.81
265.46	1732.58
265.68	1708.01
265.89	1716.20
266.11	1595.37
266.33	1783.78
266.54	1847.27
266.76	1832.93
266.98	1734.63
267.19	1865.70
267.41	1740.77
267.62	1669.09
267.84	1640.42
268.06	1769.44
268.27	1714.15
268.49	1728.49
268.70	1755.11
268.92	1720.29
269.14	1693.67
269.35	1656.81
269.57	1662.95
269.79	1791.97
270.00	1761.25
270.22	1783.78
270.43	1689.57
270.65	1642.47
270.87	1683.43
271.08	1689.57
271.30	1771.49
271.51	1712.10
271.73	1775.59
271.95	1791.97
272.16	1701.86
272.38	1703.91
272.59	1642.47
272.81	1779.68
273.02	1714.15
273.24	1681.38
273.46	1759.21
273.67	1621.99
273.89	1630.18
274.10	1718.25
274.32	1732.58
274.54	1718.25
274.75	1708.01
274.97	1695.72
275.18	1755.11
275.40	1730.53
275.61	1699.81
275.83	1728.49
276.05	1636.33
276.26	1675.24
276.48	1761.25
276.69	1734.63
276.91	1644.52
277.12	1826.79
277.34	1718.25
277.55	1789.92
277.77	1724.39
277.99	1642.47
278.20	1611.75
278.42	1722.34
278.63	1716.20
278.85	1626.09
279.06	1636.33
279.28	1763.30
279.49	1740.77
279.71	1783.78
279.93	1699.81
280.14	1689.57
280.36	1660.90
280.57	1748.97
280.79	1726.44
281.00	1697.77
281.22	1705.96
281.43	1732.58
281.65	1617.90
281.86	1683.43
282.08	1779.68
282.29	1775.59
282.51	1642.47
282.73	1675.24
282.94	1621.99
283.16	1722.34
283.37	1773.54
283.59	1736.68
283.80	1689.57
284.02	1757.16
284.23	1765.35
284.45	1703.91
284.66	1681.38
284.88	1712.10
285.09	1671.14
285.31	1781.73
285.52	1736.68
285.74	1656.81
285.95	1798.12
286.17	1681.38
286.38	1873.89
286.60	1740.77
286.81	1603.56
287.03	1712.10
287.24	1669.09
287.46	1796.07
287.67	1701.86
287.89	1777.64
288.10	1734.63
288.32	1660.90
288.53	1806.31
288.75	1732.58
288.96	1832.93
289.18	1716.20
289.39	1726.44
289.61	1763.30
289.82	1890.28
290.04	1746.92
290.25	1617.90
290.47	1705.96
290.68	1673.19
290.90	1697.77
291.11	1646.57
291.33	1796.07
291.54	1667.05
291.76	1673.19
291.97	1718.25
292.18	1730.53
292.40	1681.38
292.61	1699.81
292.83	1828.84
293.04	1736.68
293.26	1759.21
293.47	1751.01
293.69	1654.76
293.90	1677.29
294.12	1855.46
294.33	1714.15
294.55	1742.82
294.76	1734.63
294.97	1869.80
295.19	1865.70
295.40	1705.96
295.62	1714.15
295.83	1718.25
296.05	1681.38
296.26	1744.87
296.48	1685.48
296.69	1669.09
296.90	1714.15
297.12	1695.72
297.33	1800.16
297.55	1699.81
297.76	1665.00
297.98	1828.84
298.19	1755.11
298.41	1689.57
298.62	1669.09
298.83	1703.91
299.05	1683.43
299.26	1652.71
299.48	1714.15
299.69	1777.64
299.90	1755.11
300.12	1701.86
300.33	1728.49
300.55	1656.81
300.76	1722.34
300.98	1662.95
301.19	1773.54
301.40	1724.39
301.62	1705.96
301.83	1775.59
302.05	1660.90
302.26	1730.53
302.47	1714.15
302.69	1589.22
302.90	1685.48
303.12	1589.22
303.33	1779.68
303.54	1810.40
303.76	1654.76
303.97	1724.39
304.19	1787.88
304.40	1671.14
304.61	1628.14
304.83	1849.32
305.04	1712.10
305.26	1685.48
305.47	1630.18
305.68	1708.01
305.90	1611.75
306.11	1783.78
306.33	1681.38
306.54	1748.97
306.75	1681.38
306.97	1581.03
307.18	1628.14
307.39	1644.52
307.61	1751.01
307.82	1732.58
308.04	1732.58
308.25	1695.72
308.46	1755.11
308.68	1738.73
308.89	1718.25
309.10	1742.82
309.32	1751.01
309.53	1730.53
309.74	1712.10
309.96	1685.48
310.17	1837.03
310.39	1722.34
310.60	1751.01
310.81	1728.49
311.03	1644.52
311.24	1746.92
311.45	1673.19
311.67	1834.98
311.88	1726.44
312.09	1789.92
312.31	1708.01
312.52	1597.42
312.73	1804.26
312.95	1591.27
313.16	1642.47
313.37	1748.97
313.59	1751.01
313.80	1847.27
314.01	1798.12
314.23	1658.85
314.44	1751.01
314.65	1699.81
314.87	1603.56
315.08	1728.49
315.29	1712.10
315.51	1656.81
315.72	1638.38
315.93	1912.80
316.15	1730.53
316.36	1714.15
316.57	1730.53
316.79	1779.68
317.00	1740.77
317.21	1767.40
317.43	1708.01
317.64	1720.29
317.85	1646.57
318.07	1636.33
318.28	1685.48
318.49	1769.44
318.70	1902.56
318.92	1902.56
319.13	1837.03
319.34	1931.23
319.56	1767.40
319.77	1804.26
319.98	1761.25
320.20	1726.44
320.41	1728.49
320.62	1736.68
320.83	1665.00
321.05	1855.46
321.26	1804.26
321.47	1656.81
321.69	1818.60
321.90	1591.27
322.11	1765.35
322.32	1726.44
322.54	1787.88
322.75	1763.30
322.96	1818.60
323.18	1669.09
323.39	1597.42
323.60	1621.99
323.81	1730.53
324.03	1695.72
324.24	1759.21
324.45	1669.09
324.66	1648.61
324.88	1845.22
325.09	1771.49
325.30	1701.86
325.52	1730.53
325.73	1738.73
325.94	1652.71
326.15	1572.84
326.37	1636.33
326.58	1771.49
326.79	1843.17
327.00	1572.84
327.22	1746.92
327.43	1675.24
327.64	1675.24
327.85	1714.15
328.07	1691.62
328.28	1853.41
328.49	1658.85
328.70	1708.01
328.92	1693.67
329.13	1791.97
329.34	1763.30
329.55	1804.26
329.76	1816.55
329.98	1671.14
330.19	1751.01
330.40	1734.63
330.61	1724.39
330.83	1724.39
331.04	1656.81
331.25	1775.59
331.46	1724.39
331.68	1701.86
331.89	1834.98
332.10	1636.33
332.31	1634.28
332.52	1722.34
332.74	1785.83
332.95	1665.00
333.16	1665.00
333.37	1791.97
333.58	1685.48
333.80	1773.54
334.01	1632.23
334.22	1638.38
334.43	1650.66
334.64	1767.40
334.86	1652.71
335.07	1640.42
335.28	1693.67
335.49	1693.67
335.70	1703.91
335.92	1789.92
336.13	1855.46
336.34	1779.68
336.55	1636.33
336.76	1779.68
336.98	1642.47
337.19	1712.10
337.40	1861.60
337.61	1837.03
337.82	1650.66
338.04	1732.58
338.25	1587.18
338.46	1791.97
338.67	1771.49
338.88	1650.66
339.09	1697.77
339.31	1701.86
339.52	1705.96
339.73	1640.42
339.94	1791.97
340.15	1669.09
340.36	1716.20
340.58	1695.72
340.79	1714.15
341.00	1775.59
341.21	1644.52
341.42	1847.27
341.63	1687.53
341.85	1791.97
342.06	1767.40
342.27	1611.75
342.48	1677.29
342.69	1566.70
342.90	1722.34
343.12	1785.83
343.33	1732.58
343.54	1800.16
343.75	1773.54
343.96	1730.53
344.17	1585.13
344.38	1708.01
344.60	1685.48
344.81	1599.46
345.02	1671.14
345.23	1763.30
345.44	1865.70
345.65	1771.49
345.86	1751.01
346.07	1681.38
346.29	1701.86
346.50	1693.67
346.71	1699.81
346.92	1677.29
347.13	1916.90
347.34	1683.43
347.55	1716.20
347.76	1708.01
347.98	1636.33
348.19	1658.85
348.40	1679.33
348.61	1734.63
348.82	1787.88
349.03	1787.88
349.24	1640.42
349.45	1789.92
349.66	1632.23
349.88	1687.53
350.09	1648.61
350.30	1798.12
350.51	1771.49
350.72	1726.44
350.93	1718.25
351.14	1712.10
351.35	1730.53
351.56	1746.92
351.77	1703.91
351.99	1726.44
352.20	1763.30
352.41	1742.82
352.62	1611.75
352.83	1685.48
353.04	1708.01
353.25	1658.85
353.46	1822.69
353.67	1773.54
353.88	1615.85
354.09	1697.77
354.30	1683.43
354.52	1761.25
354.73	1748.97
354.94	1677.29
355.15	1640.42
355.36	1826.79
355.57	1634.28
355.78	1701.86
355.99	1718.25
356.20	1703.91
356.41	1783.78
356.62	1734.63
356.83	1734.63
357.04	1779.68
357.25	1583.08
357.46	1748.97
357.68	1632.23
357.89	1648.61
358.10	1734.63
358.31	1685.48
358.52	1783.78
358.73	1611.75
358.94	1669.09
359.15	1669.09
359.36	1732.58
359.57	1718.25
359.78	1724.39
359.99	1718.25
360.20	1621.99
360.41	1658.85
360.62	1726.44
360.83	1701.86
361.04	1746.92
361.25	1783.78
361.46	1777.64
361.67	1738.73
361.88	1783.78
362.09	1787.88
362.30	1697.77
362.51	1746.92
362.72	1701.86
362.93	1777.64
363.14	1730.53
363.35	1783.78
363.56	1712.10
363.78	1796.07
363.99	1658.85
364.20	1769.44
364.41	1746.92
364.62	1880.04
364.83	1697.77
365.04	1683.43
365.25	1740.77
365.46	1771.49
365.67	1681.38
365.88	1578.98
366.09	1703.91
366.30	1718.25
366.51	1705.96
366.72	1574.89
366.93	1673.19
367.14	1736.68
367.35	1771.49
367.56	1708.01
367.77	1834.98
367.98	1759.21
368.18	1736.68
368.39	1716.20
368.60	1705.96
368.81	1814.50
369.02	1746.92
369.23	1726.44
369.44	1642.47
369.65	1703.91
369.86	1679.33
370.07	1753.06
370.28	1669.09
370.49	1742.82
370.70	1732.58
370.91	1732.58
371.12	1654.76
371.33	1785.83
371.54	1730.53
371.75	1787.88
371.96	1611.75
372.17	1748.97
372.38	1619.94
372.59	1619.94
372.80	1759.21
373.01	1679.33
373.22	1751.01
373.43	1720.29
373.64	1648.61
373.85	1716.20
374.06	1828.84
374.26	1834.98
374.47	1693.67
374.68	1896.42
374.89	1685.48
375.10	1671.14
375.31	1783.78
375.52	1730.53
375.73	1818.60
375.94	1697.77
376.15	1818.60
376.36	1671.14
376.57	1689.57
376.78	1718.25
376.99	1787.88
377.20	1755.11
377.40	1697.77
377.61	1857.51
377.82	1607.66
378.03	1732.58
378.24	1759.21
378.45	1779.68
378.66	1779.68
378.87	1646.57
379.08	1562.60
379.29	1708.01
379.50	1886.18
379.71	1769.44
379.91	1800.16
380.12	1744.87
380.33	1748.97
380.54	1703.91
380.75	1679.33
380.96	1701.86
381.17	1701.86
381.38	1705.96
381.59	1787.88
381.80	1818.60
382.00	1834.98
382.21	1751.01
382.42	1779.68
382.63	1892.32
382.84	1716.20
383.05	1746.92
383.26	1828.84
383.47	1748.97
383.68	1798.12
383.88	1800.16
384.09	1751.01
384.30	1857.51
384.51	1740.77
384.72	1746.92
384.93	1705.96
385.14	1726.44
385.35	1765.35
385.55	1675.24
385.76	1714.15
385.97	1738.73
386.18	1697.77
386.39	1665.00
386.60	1714.15
386.81	1650.66
387.02	1691.62
387.22	1624.04
387.43	1818.60
387.64	1734.63
387.85	1816.55
388.06	2189.28
388.27	4087.75
388.48	6633.37
388.68	7978.89
388.89	9430.90
389.10	9652.08
389.31	8333.18
389.52	7425.93
389.73	6662.04
389.93	6141.86
390.14	5732.26
390.35	5271.47
390.56	4521.92
390.77	3661.77
390.98	3088.34
391.18	2486.23
391.39	2037.73
391.60	1890.28
391.81	1818.60
392.02	1697.77
392.23	1916.90
392.43	1736.68
392.64	1796.07
392.85	1644.52
393.06	1822.69
393.27	1716.20
393.47	1742.82
393.68	1667.05
393.89	1691.62
394.10	1740.77
394.31	1662.95
394.52	1581.03
394.72	1677.29
394.93	1867.75
395.14	1689.57
395.35	1753.06
395.56	1722.34
395.76	1755.11
395.97	1867.75
396.18	1810.40
396.39	1783.78
396.60	2029.54
396.80	1865.70
397.01	1849.32
397.22	1783.78
397.43	1808.36
397.64	1748.97
397.84	1806.31
398.05	1896.42
398.26	1757.16
398.47	1789.92
398.67	1826.79
398.88	1798.12
399.09	1746.92
399.30	1718.25
399.51	1712.10
399.71	1712.10
399.92	1734.63
400.13	1699.81
400.34	1687.53
400.54	1675.24
400.75	1720.29
400.96	1796.07
401.17	1853.41
401.37	1769.44
401.58	1728.49
401.79	1820.64
402.00	1853.41
402.21	2041.82
402.41	1953.76
402.62	1964.00
402.83	2004.96
403.04	1994.72
403.24	2060.26
403.45	1845.22
403.66	1865.70
403.87	1982.43
404.07	1822.69
404.28	1886.18
404.49	1890.28
404.70	1732.58
404.90	1785.83
405.11	1742.82
405.32	1820.64
405.52	1722.34
405.73	1714.15
405.94	1708.01
406.15	1744.87
406.35	1701.86
406.56	1740.77
406.77	1691.62
406.98	1744.87
407.18	1687.53
407.39	1826.79
407.60	1654.76
407.80	1650.66
408.01	1634.28
408.22	1755.11
408.43	1669.09
408.63	1683.43
408.84	1740.77
409.05	1771.49
409.25	1697.77
409.46	1730.53
409.67	1763.30
409.88	1689.57
410.08	1705.96
410.29	1673.19
410.50	1845.22
410.70	1757.16
410.91	1642.47
411.12	1751.01
411.32	1746.92
411.53	1742.82
411.74	1755.11
411.95	1794.02
412.15	1738.73
412.36	1820.64
412.57	1761.25
412.77	1798.12
412.98	1699.81
413.19	1640.42
413.39	1808.36
413.60	1708.01
413.81	1781.73
414.01	1687.53
414.22	1871.84
414.43	1718.25
414.63	1685.48
414.84	1775.59
415.05	1767.40
415.25	1644.52
415.46	1695.72
415.67	1673.19
415.87	1841.12
416.08	1728.49
416.29	1665.00
416.49	1816.55
416.70	1746.92
416.91	1785.83
417.11	1714.15
417.32	1748.97
417.53	1806.31
417.73	1665.00
417.94	1753.06
418.15	1730.53
418.35	1779.68
418.56	1740.77
418.77	1824.74
418.97	1656.81
419.18	1734.63
419.38	1562.60
419.59	1648.61
419.80	1859.56
420.00	1656.81
420.21	1761.25
420.42	1806.31
420.62	1773.54
420.83	1671.14
421.04	1708.01
421.24	1769.44
421.45	1744.87
421.65	1740.77
421.86	1642.47
422.07	1736.68
422.27	1777.64
422.48	1757.16
422.69	1693.67
422.89	1671.14
423.10	1669.09
423.30	1671.14
423.51	1738.73
423.72	1740.77
423.92	1777.64
424.13	1673.19
424.33	1744.87
424.54	1775.59
424.75	1730.53
424.95	1785.83
425.16	1738.73
425.36	1726.44
425.57	1691.62
425.78	1771.49
425.98	1828.84
426.19	1736.68
426.39	1746.92
426.60	1689.57
426.81	1822.69
427.01	1697.77
427.22	1691.62
427.42	1617.90
427.63	1701.86
427.83	1744.87
428.04	1822.69
428.25	1748.97
428.45	1773.54
428.66	1734.63
428.86	1732.58
429.07	1693.67
429.28	1697.77
429.48	1693.67
429.69	1644.52
429.89	1679.33
430.10	1693.67
430.30	1810.40
430.51	1847.27
430.71	1693.67
430.92	1675.24
431.13	1697.77
431.33	1718.25
431.54	1742.82
431.74	1853.41
431.95	1912.80
432.15	1619.94
432.36	1714.15
432.56	1712.10
432.77	1839.08
432.98	1861.60
433.18	1853.41
433.39	1744.87
433.59	1703.91
433.80	1847.27
434.00	1814.50
434.21	1675.24
434.41	1671.14
434.62	1824.74
434.82	1628.14
435.03	1591.27
435.23	1802.21
435.44	1699.81
435.64	1703.91
435.85	1775.59
436.06	1787.88
436.26	1798.12
436.47	1736.68
436.67	1615.85
436.88	1677.29
437.08	1732.58
437.29	1783.78
437.49	1794.02
437.70	1798.12
437.90	1783.78
438.11	1779.68
438.31	1800.16
438.52	1882.08
438.72	1820.64
438.93	2000.87
439.13	1906.66
439.34	1796.07
439.54	1734.63
439.75	1791.97
439.95	1808.36
440.16	1736.68
440.36	1757.16
440.57	1802.21
440.77	1755.11
440.98	1796.07
441.18	1728.49
441.39	1703.91
441.59	1728.49
441.80	1806.31
442.00	1783.78
442.21	1787.88
442.41	1609.70
442.62	1810.40
442.82	1687.53
443.02	1763.30
443.23	1730.53
443.43	1652.71
443.64	1806.31
443.84	1667.05
444.05	1820.64
444.25	1796.07
444.46	1708.01
444.66	1742.82
444.87	1814.50
445.07	1669.09
445.28	1742.82
445.48	1802.21
445.69	1847.27
445.89	1857.51
446.09	1755.11
446.30	2013.15
446.50	2537.43
446.71	3712.97
446.91	4214.72
447.12	4544.44
447.32	4810.68
447.53	4274.11
447.73	3786.69
447.93	3504.07
448.14	3311.57
448.34	3174.35
448.55	2912.21
448.75	2762.71
448.96	2615.26
449.16	2379.74
449.36	2297.82
449.57	1970.15
449.77	1931.23
449.98	1771.49
450.18	1804.26
450.39	1826.79
450.59	1818.60
450.79	1818.60
451.00	1712.10
451.20	1763.30
451.41	1701.86
451.61	1708.01
451.81	1755.11
452.02	1742.82
452.22	1691.62
452.43	1669.09
452.63	1656.81
452.84	1607.66
453.04	1718.25
453.24	1736.68
453.45	1693.67
453.65	1798.12
453.86	1691.62
454.06	1781.73
454.26	1755.11
454.47	1740.77
454.67	1800.16
454.87	1761.25
455.08	1693.67
455.28	1791.97
455.49	1773.54
455.69	1791.97
455.89	1837.03
456.10	1824.74
456.30	1724.39
456.51	1783.78
456.71	1804.26
456.91	1822.69
457.12	1796.07
457.32	1769.44
457.52	1671.14
457.73	1751.01
457.93	1740.77
458.14	1744.87
458.34	1751.01
458.54	1716.20
458.75	1779.68
458.95	1771.49
459.15	1691.62
459.36	1763.30
459.56	1796.07
459.76	1890.28
459.97	1771.49
460.17	1705.96
460.37	1773.54
460.58	1804.26
460.78	1785.83
460.99	1691.62
461.19	1742.82
461.39	1755.11
461.60	1769.44
461.80	1716.20
462.00	1728.49
462.21	1742.82
462.41	1720.29
462.61	1660.90
462.82	1626.09
463.02	1761.25
463.22	1746.92
463.43	1732.58
463.63	1812.45
463.83	1812.45
464.04	1804.26
464.24	1681.38
464.44	1703.91
464.64	1697.77
464.85	1730.53
465.05	1859.56
465.25	1746.92
465.46	1712.10
465.66	1845.22
465.86	1773.54
466.07	1765.35
466.27	1800.16
466.47	1660.90
466.68	1691.62
466.88	1812.45
467.08	1812.45
467.29	1857.51
467.49	1761.25
467.69	1773.54
467.89	1794.02
468.10	1740.77
468.30	1701.86
468.50	1751.01
468.71	1753.06
468.91	1665.00
469.11	1828.84
469.31	1697.77
469.52	1642.47
469.72	1814.50
469.92	1849.32
470.13	1734.63
470.33	1736.68
470.53	1847.27
470.73	2111.46
470.94	2344.92
471.14	2273.25
471.34	2619.35
471.54	2336.73
471.75	2234.33
471.95	2107.36
472.15	2090.98
472.36	2103.26
472.56	2041.82
472.76	2047.97
472.96	2047.97
473.17	1959.91
473.37	1976.29
473.57	1753.06
473.77	1886.18
473.98	1785.83
474.18	1691.62
474.38	1871.84
474.58	1677.29
474.79	1681.38
474.99	1783.78
475.19	1740.77
475.39	1712.10
475.60	1839.08
475.80	1757.16
476.00	1748.97
476.20	1697.77
476.41	1677.29
476.61	1777.64
476.81	1822.69
477.01	1697.77
477.21	1841.12
477.42	1771.49
477.62	1589.22
477.82	1806.31
478.02	1775.59
478.23	1781.73
478.43	1660.90
478.63	1691.62
478.83	1705.96
479.03	1648.61
479.24	1800.16
479.44	1810.40
479.64	1716.20
479.84	1624.04
480.04	1677.29
480.25	1775.59
480.45	1755.11
480.65	1734.63
480.85	1812.45
481.06	1589.22
481.26	1787.88
481.46	1714.15
481.66	1708.01
481.86	1669.09
482.06	1740.77
482.27	1712.10
482.47	1685.48
482.67	1751.01
482.87	1789.92
483.07	1789.92
483.28	1730.53
483.48	1705.96
483.68	1775.59
483.88	1667.05
484.08	1640.42
484.29	1607.66
484.49	1722.34
484.69	1732.58
484.89	1771.49
485.09	1837.03
485.29	1783.78
485.50	1748.97
485.70	1783.78
485.90	1769.44
486.10	1798.12
486.30	1773.54
486.50	1726.44
486.71	1732.58
486.91	1767.40
487.11	1691.62
487.31	1693.67
487.51	1720.29
487.71	1552.36
487.91	1667.05
488.12	1693.67
488.32	1681.38
488.52	1648.61
488.72	1751.01
488.92	1714.15
489.12	1746.92
489.32	1785.83
489.53	1841.12
489.73	1636.33
489.93	1814.50
490.13	1648.61
490.33	1691.62
490.53	1761.25
490.73	1781.73
490.94	1656.81
491.14	1781.73
491.34	1853.41
491.54	2045.92
491.74	2562.01
491.94	2854.87
492.14	3004.37
492.34	2899.92
492.54	2691.03
492.75	2516.95
492.95	2455.51
493.15	2357.21
493.35	2293.72
493.55	2244.57
493.75	2195.42
493.95	2080.74
494.15	2011.11
494.35	1931.23
494.56	1832.93
494.76	1740.77
494.96	1775.59
495.16	1806.31
495.36	1716.20
495.56	1798.12
495.76	1742.82
495.96	1665.00
496.16	1722.34
496.36	1902.56
496.56	1781.73
496.77	1705.96
496.97	1693.67
497.17	1779.68
497.37	1699.81
497.57	1765.35
497.77	1742.82
497.97	1765.35
498.17	1697.77
498.37	1708.01
498.57	1755.11
498.77	1755.11
498.97	1759.21
499.17	1873.89
499.38	1703.91
499.58	1841.12
499.78	1753.06
499.98	1847.27
500.18	1714.15
500.38	1693.67
500.58	1953.76
500.78	2559.96
500.98	4523.96
501.18	5758.89
501.38	6569.88
501.58	7083.92
501.78	6547.36
501.98	5578.67
502.18	4874.17
502.38	4345.79
502.58	3977.16
502.78	3688.39
502.98	3639.24
503.18	3395.53
503.38	3098.58
503.59	2729.94
503.79	2578.39
503.99	2504.67
504.19	2269.15
504.39	2207.71
504.59	2203.61
504.79	2125.79
504.99	2113.50
505.19	1916.90
505.39	1841.12
505.59	2000.87
505.79	1951.71
505.99	1841.12
506.19	1765.35
506.39	1826.79
506.59	1689.57
506.79	1757.16
506.99	1820.64
507.19	1808.36
507.39	1787.88
507.59	1695.72
507.79	1689.57
507.99	1785.83
508.19	1822.69
508.39	1718.25
508.59	1761.25
508.79	1767.40
508.99	1810.40
509.19	1710.05
509.39	1757.16
509.59	1718.25
509.79	1728.49
509.99	1740.77
510.19	1853.41
510.39	1789.92
510.59	1734.63
510.79	1697.77
510.99	1736.68
511.19	1681.38
511.39	1785.83
511.59	1746.92
511.79	1812.45
511.99	1773.54
512.19	1847.27
512.38	1742.82
512.58	1630.18
512.78	1789.92
512.98	1865.70
513.18	1804.26
513.38	1669.09
513.58	1832.93
513.78	1648.61
513.98	1677.29
514.18	1740.77
514.38	1787.88
514.58	1740.77
514.78	1714.15
514.98	1734.63
515.18	1744.87
515.38	1710.05
515.58	1871.84
515.78	1724.39
515.98	1732.58
516.18	1732.58
516.38	1728.49
516.57	1716.20
516.77	1699.81
516.97	1771.49
517.17	1691.62
517.37	1736.68
517.57	1861.60
517.77	1722.34
517.97	1748.97
518.17	1724.39
518.37	1636.33
518.57	1681.38
518.77	1695.72
518.97	1718.25
519.16	1773.54
519.36	1757.16
519.56	1732.58
519.76	1732.58
519.96	1740.77
520.16	1857.51
520.36	1685.48
520.56	1785.83
520.76	1699.81
520.96	1697.77
521.16	1732.58
521.35	1755.11
521.55	1861.60
521.75	1798.12
521.95	1685.48
522.15	1730.53
522.35	1710.05
522.55	1689.57
522.75	1769.44
522.95	1769.44
523.14	1730.53
523.34	1806.31
523.54	1705.96
523.74	1822.69
523.94	1742.82
524.14	1738.73
524.34	1751.01
524.54	1847.27
524.73	1757.16
524.93	1751.01
525.13	1720.29
525.33	1683.43
525.53	1982.43
525.73	1779.68
525.93	1726.44
526.13	1695.72
526.32	1679.33
526.52	1791.97
526.72	1722.34
526.92	1734.63
527.12	1701.86
527.32	1695.72
527.52	1705.96
527.71	1777.64
527.91	1775.59
528.11	1738.73
528.31	1773.54
528.51	1716.20
528.71	1777.64
528.90	1722.34
529.10	1798.12
529.30	1910.75
529.50	1681.38
529.70	1812.45
529.90	1665.00
530.09	1763.30
530.29	1652.71
530.49	1791.97
530.69	1826.79
530.89	1759.21
531.09	1814.50
531.28	1767.40
531.48	1837.03
531.68	1759.21
531.88	1697.77
532.08	1808.36
532.28	1730.53
532.47	1761.25
532.67	1718.25
532.87	1794.02
533.07	1642.47
533.27	1880.04
533.46	1828.84
533.66	1697.77
533.86	1714.15
534.06	1814.50
534.26	1771.49
534.45	1681.38
534.65	1837.03
534.85	1775.59
535.05	1738.73
535.25	1748.97
535.44	1626.09
535.64	1759.21
535.84	1665.00
536.04	1714.15
536.24	1726.44
536.43	1621.99
536.63	1777.64
536.83	1699.81
537.03	1736.68
537.22	1677.29
537.42	1544.17
537.62	1796.07
537.82	1732.58
538.02	1830.88
538.21	1810.40
538.41	1886.18
538.61	1732.58
538.81	1705.96
539.00	1806.31
539.20	1595.37
539.40	1681.38
539.60	1710.05
539.79	1802.21
539.99	1742.82
540.19	1718.25
540.39	1781.73
540.58	1751.01
540.78	1796.07
540.98	1728.49
541.18	1802.21
541.37	1724.39
541.57	1757.16
541.77	1804.26
541.97	1697.77
542.16	1732.58
542.36	1679.33
542.56	1689.57
542.76	1834.98
542.95	1718.25
543.15	1744.87
543.35	1757.16
543.54	1734.63
543.74	1787.88
543.94	1810.40
544.14	1757.16
544.33	1796.07
544.53	1714.15
544.73	1775.59
544.93	1724.39
545.12	1722.34
545.32	1759.21
545.52	1734.63
545.71	1693.67
545.91	1730.53
546.11	1787.88
546.30	1683.43
546.50	1759.21
546.70	1849.32
546.90	1802.21
547.09	1601.51
547.29	1796.07
547.49	1783.78
547.68	1746.92
547.88	1687.53
548.08	1785.83
548.27	2246.62
548.47	1724.39
548.67	1652.71
548.87	1785.83
549.06	1746.92
549.26	1746.92
549.46	1824.74
549.65	1640.42
549.85	1775.59
550.05	1701.86
550.24	1681.38
550.44	1761.25
550.64	1689.57
550.83	1771.49
551.03	1812.45
551.23	1804.26
551.42	1789.92
551.62	1751.01
551.82	1701.86
552.01	1767.40
552.21	1812.45
552.41	1771.49
552.60	1810.40
552.80	1763.30
553.00	1720.29
553.19	1738.73
553.39	1875.94
553.59	1665.00
553.78	1769.44
553.98	1693.67
554.17	1695.72
554.37	1738.73
554.57	1753.06
554.76	1671.14
554.96	1757.16
555.16	1779.68
555.35	1800.16
555.55	1845.22
555.75	1785.83
555.94	1779.68
556.14	1599.46
556.33	1765.35
556.53	1748.97
556.73	1775.59
556.92	1777.64
557.12	1892.32
557.32	1914.85
557.51	1857.51
557.71	1732.58
557.90	1796.07
558.10	1796.07
558.30	1769.44
558.49	1646.57
558.69	1710.05
558.88	1757.16
559.08	1773.54
559.28	1705.96
559.47	1730.53
559.67	1888.23
559.86	1894.37
560.06	1800.16
560.26	1714.15
560.45	1746.92
560.65	1796.07
560.84	1830.88
561.04	1740.77
561.24	1804.26
561.43	1660.90
561.63	1806.31
561.82	1732.58
562.02	1816.55
562.22	1705.96
562.41	1714.15
562.61	1705.96
562.80	1712.10
563.00	1869.80
563.19	1738.73
563.39	1757.16
563.59	1800.16
563.78	1667.05
563.98	1665.00
564.17	1734.63
564.37	1665.00
564.56	1705.96
564.76	1615.85
564.96	1857.51
565.15	1791.97
565.35	1873.89
565.54	1746.92
565.74	1775.59
565.93	1822.69
566.13	1791.97
566.32	1886.18
566.52	1783.78
566.71	1736.68
566.91	1804.26
567.11	1830.88
567.30	1775.59
567.50	1783.78
567.69	1812.45
567.89	1769.44
568.08	1724.39
568.28	1753.06
568.47	1669.09
568.67	1812.45
568.86	1652.71
569.06	1748.97
569.25	1757.16
569.45	1705.96
569.64	1693.67
569.84	1714.15
570.04	1779.68
570.23	1699.81
570.43	1652.71
570.62	1751.01
570.82	1933.28
571.01	1673.19
571.21	1738.73
571.40	1757.16
571.60	1712.10
571.79	1783.78
571.99	1775.59
572.18	1662.95
572.38	1789.92
572.57	1705.96
572.77	1830.88
572.96	1933.28
573.16	1798.12
573.35	1775.59
573.55	1849.32
573.74	1759.21
573.94	1726.44
574.13	1730.53
574.33	1855.46
574.52	1802.21
574.71	1740.77
574.91	1714.15
575.10	1662.95
575.30	1736.68
575.49	1646.57
575.69	1716.20
575.88	1810.40
576.08	1748.97
576.27	1804.26
576.47	1794.02
576.66	1849.32
576.86	1871.84
577.05	1705.96
577.25	1783.78
577.44	1916.90
577.64	1697.77
577.83	1763.30
578.02	1753.06
578.22	1826.79
578.41	1912.80
578.61	1638.38
578.80	1615.85
579.00	1814.50
579.19	1734.63
579.39	1755.11
579.58	1812.45
579.77	1787.88
579.97	1857.51
580.16	1849.32
580.36	1865.70
580.55	1789.92
580.75	1847.27
580.94	1746.92
581.13	1910.75
581.33	1816.55
581.52	1765.35
581.72	1888.23
581.91	1890.28
582.11	1794.02
582.30	1830.88
582.49	1724.39
582.69	1914.85
582.88	1767.40
583.08	1763.30
583.27	1789.92
583.47	1703.91
583.66	1726.44
583.85	1734.63
584.05	1701.86
584.24	1779.68
584.44	1759.21
584.63	1759.21
584.82	1959.91
585.02	1779.68
585.21	1820.64
585.41	1877.99
585.60	1908.71
585.79	2023.39
585.99	1949.67
586.18	1875.94
586.37	2179.04
586.57	3313.61
586.76	9713.52
586.96	24008.34
587.15	33771.00
587.34	39437.73
587.54	40969.61
587.73	35454.44
587.93	25351.81
588.12	20844.23
588.31	18065.13
588.51	16113.42
588.70	14772.00
588.89	13807.41
589.09	12228.42
589.28	10604.38
589.47	9230.20
589.67	7843.72
589.86	6260.64
590.06	4808.63
590.25	3811.27
590.44	3102.67
590.64	2510.81
590.83	2291.68
591.02	2152.42
591.22	1945.57
591.41	1937.38
591.60	1867.75
591.80	1976.29
591.99	1800.16
592.18	1814.50
592.38	1898.47
592.57	1794.02
592.76	1796.07
592.96	1816.55
593.15	1736.68
593.34	1804.26
593.54	1759.21
593.73	1757.16
593.92	1744.87
594.12	1724.39
594.31	1771.49
594.50	1791.97
594.70	1841.12
594.89	1898.47
595.08	1656.81
595.28	1775.59
595.47	1961.95
595.66	1814.50
595.86	1748.97
596.05	1701.86
596.24	1773.54
596.43	1812.45
596.63	1812.45
596.82	1691.62
597.01	1808.36
597.21	1806.31
597.40	1748.97
597.59	1744.87
597.79	1783.78
597.98	1816.55
598.17	1759.21
598.36	1759.21
598.56	1818.60
598.75	1730.53
598.94	1763.30
599.14	1806.31
599.33	1800.16
599.52	1806.31
599.71	1683.43
599.91	1794.02
600.10	1847.27
600.29	1830.88
600.48	1894.37
600.68	1841.12
600.87	1777.64
601.06	1658.85
601.26	1763.30
601.45	1714.15
601.64	1812.45
601.83	1814.50
602.03	1644.52
602.22	1660.90
602.41	1720.29
602.60	1908.71
602.80	1812.45
602.99	1794.02
603.18	1738.73
603.37	1804.26
603.57	1759.21
603.76	1798.12
603.95	1810.40
604.14	1734.63
604.34	1746.92
604.53	1785.83
604.72	1736.68
604.91	1783.78
605.10	1705.96
605.30	1718.25
605.49	1849.32
605.68	1759.21
605.87	1763.30
606.07	1710.05
606.26	1720.29
606.45	1789.92
606.64	1740.77
606.84	1712.10
607.03	1724.39
607.22	1804.26
607.41	1740.77
607.60	1626.09
607.80	1757.16
607.99	1726.44
608.18	1695.72
608.37	1826.79
608.56	1804.26
608.76	1806.31
608.95	1871.84
609.14	1763.30
609.33	1705.96
609.52	1818.60
609.72	1714.15
609.91	1861.60
610.10	1746.92
610.29	1849.32
610.48	1765.35
610.68	1751.01
610.87	1761.25
611.06	1802.21
611.25	1759.21
611.44	1777.64
611.63	1751.01
611.83	1763.30
612.02	1708.01
612.21	1822.69
612.40	1636.33
612.59	1671.14
612.79	1679.33
612.98	1843.17
613.17	1789.92
613.36	1751.01
613.55	1759.21
613.74	1673.19
613.93	1712.10
614.13	1724.39
614.32	1773.54
614.51	1763.30
614.70	1697.77
614.89	1652.71
615.08	1789.92
615.28	2025.44
615.47	1718.25
615.66	1708.01
615.85	1736.68
616.04	1826.79
616.23	1683.43
616.42	1714.15
616.62	1722.34
616.81	1820.64
617.00	1701.86
617.19	1812.45
617.38	1763.30
617.57	1824.74
617.76	1736.68
617.95	1767.40
618.15	1683.43
618.34	1865.70
618.53	1636.33
618.72	1708.01
618.91	1845.22
619.10	1851.36
619.29	1763.30
619.48	1818.60
619.68	1675.24
619.87	1679.33
620.06	1667.05
620.25	1759.21
620.44	1669.09
620.63	1705.96
620.82	1720.29
621.01	1796.07
621.20	1726.44
621.39	1699.81
621.59	1800.16
621.78	1705.96
621.97	1791.97
622.16	1740.77
622.35	1767.40
622.54	1771.49
622.73	1812.45
622.92	1683.43
623.11	1759.21
623.30	1642.47
623.49	1753.06
623.68	1818.60
623.88	1769.44
624.07	1687.53
624.26	1687.53
624.45	1875.94
624.64	1771.49
624.83	1734.63
625.02	1669.09
625.21	1699.81
625.40	1789.92
625.59	1828.84
625.78	1669.09
625.97	1775.59
626.16	1830.88
626.35	1728.49
626.54	1640.42
626.74	1806.31
626.93	1714.15
627.12	1714.15
627.31	1744.87
627.50	1736.68
627.69	1810.40
627.88	1718.25
628.07	1791.97
628.26	1675.24
628.45	1589.22
628.64	1677.29
628.83	1648.61
629.02	1693.67
629.21	1669.09
629.40	1781.73
629.59	1701.86
629.78	1730.53
629.97	1714.15
630.16	1818.60
630.35	1710.05
630.54	1718.25
630.73	1712.10
630.92	1779.68
631.11	1701.86
631.30	1773.54
631.49	1830.88
631.68	1728.49
631.87	1775.59
632.06	1705.96
632.25	1808.36
632.44	1748.97
632.63	1779.68
632.82	1751.01
633.01	1652.71
633.20	1730.53
633.39	1726.44
633.58	1660.90
633.77	1685.48
633.96	1689.57
634.15	1775.59
634.34	1697.77
634.53	1703.91
634.72	1656.81
634.91	1673.19
635.10	1714.15
635.29	1728.49
635.48	1689.57
635.67	1636.33
635.86	1652.71
636.05	1789.92
636.24	1699.81
636.43	1753.06
636.62	1763.30
636.81	1544.17
637.00	1718.25
637.19	1710.05
637.38	1679.33
637.57	1736.68
637.76	1755.11
637.95	1734.63
638.14	1587.18
638.33	1687.53
638.52	1742.82
638.71	1642.47
638.89	1667.05
639.08	1898.47
639.27	1712.10
639.46	1646.57
639.65	1837.03
639.84	1658.85
640.03	1804.26
640.22	1705.96
640.41	1865.70
640.60	1673.19
640.79	1798.12
640.98	1685.48
641.17	1730.53
641.36	1705.96
641.55	1708.01
641.74	1650.66
641.92	1683.43
642.11	1701.86
642.30	1720.29
642.49	1658.85
642.68	1699.81
642.87	1726.44
643.06	1681.38
643.25	1669.09
643.44	1771.49
643.63	1744.87
643.82	1785.83
644.00	1710.05
644.19	1705.96
644.38	1640.42
644.57	1683.43
644.76	1734.63
644.95	1693.67
645.14	1742.82
645.33	1697.77
645.52	1701.86
645.71	1624.04
645.89	1705.96
646.08	1746.92
646.27	1726.44
646.46	1826.79
646.65	1638.38
646.84	1673.19
647.03	1679.33
647.22	1808.36
647.40	1685.48
647.59	1683.43
647.78	1611.75
647.97	1691.62
648.16	1658.85
648.35	1818.60
648.54	1748.97
648.73	1705.96
648.91	1798.12
649.10	1748.97
649.29	1679.33
649.48	1701.86
649.67	1734.63
649.86	1732.58
650.05	1734.63
650.23	1720.29
650.42	1687.53
650.61	1789.92
650.80	1724.39
650.99	1820.64
651.18	1789.92
651.36	1794.02
651.55	1669.09
651.74	1830.88
651.93	1695.72
652.12	1779.68
652.31	1722.34
652.49	1728.49
652.68	1673.19
652.87	1781.73
653.06	1669.09
653.25	1834.98
653.44	1738.73
653.62	1882.08
653.81	1732.58
654.00	1746.92
654.19	1773.54
654.38	1834.98
654.56	1720.29
654.75	1669.09
654.94	1783.78
655.13	1728.49
655.32	1812.45
655.51	1738.73
655.69	1693.67
655.88	1673.19
656.07	1734.63
656.26	1736.68
656.45	1710.05
656.63	1685.48
656.82	1751.01
657.01	1695.72
657.20	1783.78
657.38	1806.31
657.57	1730.53
657.76	1656.81
657.95	1763.30
658.14	1675.24
658.32	1814.50
658.51	1724.39
658.70	1732.58
658.89	1708.01
659.08	1722.34
659.26	1798.12
659.45	1677.29
659.64	1693.67
659.83	1697.77
660.01	1873.89
660.20	1738.73
660.39	1839.08
660.58	1611.75
660.76	1773.54
660.95	1679.33
661.14	1656.81
661.33	1716.20
661.51	1648.61
661.70	1763.30
661.89	1812.45
662.08	1718.25
662.26	1648.61
662.45	1650.66
662.64	1826.79
662.83	1742.82
663.01	1640.42
663.20	1720.29
663.39	1791.97
663.58	1701.86
663.76	1757.16
663.95	1746.92
664.14	1730.53
664.32	1738.73
664.51	1697.77
664.70	1638.38
664.89	1755.11
665.07	1650.66
665.26	1742.82
665.45	1691.62
665.64	1779.68
665.82	1640.42
666.01	1718.25
666.20	1685.48
666.38	1818.60
666.57	1804.26
666.76	2176.99
666.95	4558.78
667.13	10387.30
667.32	15126.30
667.51	17247.99
667.69	18712.29
667.88	17137.40
668.07	11927.37
668.25	9316.21
668.44	8009.61
668.63	7223.19
668.81	6766.49
669.00	6150.05
669.19	5676.97
669.38	5066.67
669.56	4378.56
669.75	3979.20
669.94	3450.83
670.12	2822.10
670.31	2572.25
670.50	2324.44
670.68	2023.39
670.87	1943.52
671.06	1898.47
671.24	1767.40
671.43	1755.11
671.62	1705.96
671.80	1701.86
671.99	1789.92
672.18	1708.01
672.36	1710.05
672.55	1781.73
672.74	1722.34
672.92	1738.73
673.11	1804.26
673.29	1703.91
673.48	1732.58
673.67	1658.85
673.85	1767.40
674.04	1673.19
674.23	1656.81
674.41	1828.84
674.60	1640.42
674.79	1658.85
674.97	1681.38
675.16	1804.26
675.34	1849.32
675.53	1615.85
675.72	1775.59
675.90	1832.93
676.09	1742.82
676.28	1703.91
676.46	1656.81
676.65	1775.59
676.83	1679.33
677.02	1845.22
677.21	1771.49
677.39	1767.40
677.58	1648.61
677.77	1646.57
677.95	1667.05
678.14	1738.73
678.32	1701.86
678.51	1636.33
678.70	1822.69
678.88	1730.53
679.07	1726.44
679.25	1681.38
679.44	1798.12
679.63	1642.47
679.81	1712.10
680.00	1814.50
680.18	1787.88
680.37	1828.84
680.55	1751.01
680.74	1603.56
680.93	1636.33
681.11	1691.62
681.30	1794.02
681.48	1640.42
681.67	1738.73
681.85	1796.07
682.04	1656.81
682.23	1755.11
682.41	1718.25
682.60	1681.38
682.78	1689.57
682.97	1648.61
683.15	1730.53
683.34	1804.26
683.53	1859.56
683.71	1624.04
683.90	1828.84
684.08	1832.93
684.27	1687.53
684.45	1730.53
684.64	1800.16
684.82	1716.20
685.01	1738.73
685.19	1738.73
685.38	1804.26
685.57	1738.73
685.75	1619.94
685.94	1695.72
686.12	1693.67
686.31	1656.81
686.49	1806.31
686.68	1593.32
686.86	1787.88
687.05	1724.39
687.23	1791.97
687.42	1626.09
687.60	1630.18
687.79	1800.16
687.97	1929.19
688.16	1798.12
688.34	1812.45
688.53	1685.48
688.71	1810.40
688.90	1853.41
689.08	1671.14
689.27	1621.99
689.45	1779.68
689.64	1783.78
689.82	1755.11
690.01	1742.82
690.19	1705.96
690.38	1755.11
690.56	1830.88
690.75	1695.72
690.93	1648.61
691.12	1691.62
691.30	1705.96
691.49	1705.96
691.67	1673.19
691.86	1773.54
692.04	1755.11
692.23	1742.82
692.41	1736.68
692.60	1843.17
692.78	1816.55
692.97	1753.06
693.15	1712.10
693.34	1828.84
693.52	1804.26
693.71	1683.43
693.89	1757.16
694.08	1568.74
694.26	1740.77
694.44	1800.16
694.63	1748.97
694.81	1646.57
695.00	1660.90
695.18	1791.97
695.37	1824.74
695.55	1759.21
695.74	1742.82
695.92	1724.39
696.10	1753.06
696.29	1669.09
696.47	1712.10
696.66	1619.94
696.84	1615.85
697.03	1687.53
697.21	1753.06
697.40	2232.29
697.58	1820.64
697.76	1748.97
697.95	1626.09
698.13	1599.46
698.32	1697.77
698.50	1728.49
698.68	1705.96
698.87	1830.88
699.05	1839.08
699.24	1665.00
699.42	1626.09
699.61	1726.44
699.79	1734.63
699.97	1699.81
700.16	1677.29
700.34	1613.80
700.53	1718.25
700.71	1781.73
700.89	1746.92
701.08	1675.24
701.26	1718.25
701.45	2107.36
701.63	1675.24
701.81	1654.76
702.00	1748.97
702.18	1695.72
702.37	1744.87
702.55	1728.49
702.73	1736.68
702.92	1628.14
703.10	1755.11
703.28	1693.67
703.47	1619.94
703.65	1753.06
703.84	1753.06
704.02	1710.05
704.20	1710.05
704.39	1636.33
704.57	1681.38
704.75	1822.69
704.94	1800.16
705.12	1748.97
705.30	1767.40
705.49	2281.44
705.67	4339.65
705.86	9443.18
706.04	12447.55
706.22	14241.57
706.41	15085.34
706.59	13649.71
706.77	9297.78
706.96	7305.10
707.14	6471.58
707.32	5787.56
707.51	5506.99
707.69	4736.95
707.87	4046.79
708.06	3565.51
708.24	2879.44
708.42	2428.89
708.61	2256.86
708.79	1935.33
708.97	1853.41
709.16	1865.70
709.34	1767.40
709.52	1718.25
709.71	1685.48
709.89	1814.50
710.07	1740.77
710.26	1640.42
710.44	1667.05
710.62	1773.54
710.80	1693.67
710.99	1832.93
711.17	1804.26
711.35	1767.40
711.54	1712.10
711.72	1759.21
711.90	1701.86
712.09	1773.54
712.27	1673.19
712.45	1757.16
712.63	1701.86
712.82	1734.63
713.00	1681.38
713.18	1738.73
713.37	1714.15
713.55	1839.08
713.73	1697.77
713.91	1751.01
714.10	1716.20
714.28	1736.68
714.46	1716.20
714.65	1732.58
714.83	1736.68
715.01	1751.01
715.19	1683.43
715.38	1665.00
715.56	1804.26
715.74	1687.53
715.92	1669.09
716.11	1742.82
716.29	1615.85
716.47	1632.23
716.65	1775.59
716.84	1652.71
717.02	1791.97
717.20	1558.50
717.38	1681.38
717.57	1759.21
717.75	1716.20
717.93	1720.29
718.11	1843.17
718.30	1683.43
718.48	1802.21
718.66	1832.93
718.84	1777.64
719.03	1681.38
719.21	1658.85
719.39	1886.18
719.57	1675.24
719.75	1791.97
719.94	1673.19
720.12	1693.67
720.30	1726.44
720.48	1705.96
720.67	1636.33
720.85	1677.29
721.03	1595.37
721.21	1736.68
721.39	1810.40
721.58	1718.25
721.76	1699.81
721.94	1722.34
722.12	1718.25
722.30	1771.49
722.49	1714.15
722.67	1683.43
722.85	1755.11
723.03	1591.27
723.21	1640.42
723.40	1681.38
723.58	1785.83
723.76	1751.01
723.94	1789.92
724.12	1697.77
724.30	1736.68
724.49	1798.12
724.67	1576.94
724.85	1783.78
725.03	1685.48
725.21	1742.82
725.40	1828.84
725.58	1742.82
725.76	1730.53
725.94	1734.63
726.12	1636.33
726.30	1705.96
726.49	1671.14
726.67	1636.33
726.85	1722.34
727.03	1777.64
727.21	2183.13
727.39	2996.18
727.57	3680.20
727.76	4143.04
727.94	4384.70
728.12	4247.49
728.30	3649.48
728.48	2854.87
728.66	2772.95
728.84	2574.30
729.03	2230.24
729.21	2123.74
729.39	1964.00
729.57	1847.27
729.75	1763.30
729.93	1859.56
730.11	1798.12
730.30	1736.68
730.48	1691.62
730.66	1818.60
730.84	1691.62
731.02	1726.44
731.20	1744.87
731.38	1667.05
731.56	1650.66
731.74	1636.33
731.93	1771.49
732.11	1673.19
732.29	1669.09
732.47	1732.58
732.65	1615.85
732.83	1730.53
733.01	1748.97
733.19	1662.95
733.37	1779.68
733.56	1705.96
733.74	1738.73
733.92	1857.51
734.10	1714.15
734.28	1718.25
734.46	1568.74
734.64	1767.40
734.82	1710.05
735.00	1697.77
735.18	1607.66
735.36	1695.72
735.54	1722.34
735.73	1724.39
735.91	1753.06
736.09	1710.05
736.27	1761.25
736.45	1761.25
736.63	1593.32
736.81	1665.00
736.99	1783.78
737.17	1771.49
737.35	1687.53
737.53	1671.14
737.71	1675.24
737.89	1798.12
738.07	1738.73
738.25	1718.25
738.43	1621.99
738.61	1746.92
738.80	1660.90
738.98	1636.33
739.16	1644.52
739.34	1646.57
739.52	1757.16
739.70	1701.86
739.88	1736.68
740.06	1830.88
740.24	1613.80
740.42	1748.97
740.60	1566.70
740.78	1669.09
740.96	1564.65
741.14	1685.48
741.32	1732.58
741.50	1642.47
741.68	1763.30
741.86	1787.88
742.04	1648.61
742.22	1658.85
742.40	1726.44
742.58	1808.36
742.76	1646.57
742.94	1755.11
743.12	1615.85
743.30	1794.02
743.48	1740.77
743.66	1619.94
743.84	1808.36
744.02	1658.85
744.20	1734.63
744.38	1691.62
744.56	1687.53
744.74	1839.08
744.92	1708.01
745.10	1826.79
745.28	1806.31
745.46	1765.35
745.64	1712.10
745.82	1751.01
746.00	1667.05
746.18	1738.73
746.36	1687.53
746.54	1759.21
746.72	1697.77
746.90	1677.29
747.08	1763.30
747.26	1716.20
747.44	1740.77
747.62	1695.72
747.80	1714.15
747.98	1708.01
748.15	1665.00
748.33	1804.26
748.51	1765.35
748.69	1767.40
748.87	1667.05
749.05	1744.87
749.23	1673.19
749.41	1730.53
749.59	1742.82
749.77	1794.02
749.95	1642.47
750.13	1673.19
750.31	1806.31
750.49	1658.85
750.67	1720.29
750.85	1773.54
751.03	1738.73
751.20	1828.84
751.38	1697.77
751.56	1757.16
751.74	1740.77
751.92	1673.19
752.10	1691.62
752.28	1791.97
752.46	1697.77
752.64	1716.20
752.82	1767.40
753.00	1804.26
753.18	1726.44
753.35	1691.62
753.53	1689.57
753.71	1644.52
753.89	1677.29
754.07	1728.49
754.25	1781.73
754.43	1710.05
754.61	1644.52
754.79	1724.39
754.97	1638.38
755.14	1804.26
755.32	1652.71
755.50	1691.62
755.68	1765.35
755.86	1703.91
756.04	1705.96
756.22	1634.28
756.40	1718.25
756.57	1765.35
756.75	1755.11
756.93	1855.46
757.11	1806.31
757.29	1689.57
757.47	1724.39
757.65	1640.42
757.82	1609.70
758.00	1728.49
758.18	1697.77
758.36	1693.67
758.54	1820.64
758.72	1611.75
758.90	1693.67
759.07	1728.49
759.25	1738.73
759.43	1759.21
759.61	1617.90
759.79	2187.23
759.97	1820.64
760.15	1728.49
760.32	1699.81
760.50	1677.29
760.68	1812.45
760.86	1644.52
761.04	1806.31
761.22	1708.01
761.39	1665.00
761.57	1757.16
761.75	1621.99
761.93	1800.16
762.11	1630.18
762.28	1673.19
762.46	1687.53
762.64	1789.92
762.82	1695.72
763.00	1654.76
763.18	1841.12
763.35	1587.18
763.53	1746.92
763.71	1714.15
763.89	1808.36
764.07	1705.96
764.24	1806.31
764.42	1722.34
764.60	1679.33
764.78	1701.86
764.96	1720.29
765.13	1722.34
765.31	1789.92
765.49	1751.01
765.67	1642.47
765.84	1660.90
766.02	1673.19
766.20	1576.94
766.38	1730.53
766.56	1701.86
766.73	1736.68
766.91	1654.76
767.09	1728.49
767.27	1775.59
767.44	1632.23
767.62	1746.92
767.80	1699.81
767.98	1695.72
768.15	1669.09
768.33	1767.40
768.51	1849.32
768.69	1730.53
768.87	1722.34
769.04	1718.25
769.22	1783.78
769.40	1773.54
769.58	1822.69
769.75	1677.29
769.93	1759.21
770.11	1683.43
770.28	1705.96
770.46	1703.91
770.64	1730.53
770.82	1673.19
770.99	1648.61
771.17	1828.84
771.35	1681.38
771.53	1679.33
771.70	1689.57
771.88	1742.82
772.06	1708.01
772.23	1699.81
772.41	1736.68
772.59	1667.05
772.77	1617.90
772.94	1681.38
773.12	1687.53
773.30	1732.58
773.47	1771.49
773.65	1669.09
773.83	1732.58
774.01	1681.38
774.18	1640.42
774.36	1697.77
774.54	1691.62
774.71	1642.47
774.89	1626.09
775.07	1640.42
775.24	1732.58
775.42	1673.19
775.60	1894.37
775.78	1681.38
775.95	1587.18
776.13	1595.37
776.31	1658.85
776.48	1748.97
776.66	1695.72
776.84	1642.47
777.01	1669.09
777.19	1734.63
777.37	1665.00
777.54	1755.11
777.72	1816.55
777.90	1810.40
778.07	1683.43
778.25	1855.46
778.43	1781.73
778.60	1665.00
778.78	1755.11
778.96	1787.88
779.13	1656.81
779.31	1826.79
779.49	1781.73
779.66	1689.57
779.84	1693.67
780.01	1681.38
780.19	1656.81
780.37	1748.97
780.54	1675.24
780.72	1669.09
780.90	1648.61
781.07	1718.25
781.25	1677.29
781.43	1773.54
781.60	1656.81
781.78	1810.40
781.95	1736.68
782.13	1624.04
782.31	1642.47
782.48	1601.51
782.66	1748.97
782.83	1865.70
783.01	1742.82
783.19	1722.34
783.36	1736.68
783.54	1703.91
783.72	1730.53
783.89	1654.76
784.07	1685.48
784.24	1806.31
784.42	1798.12
784.60	1730.53
784.77	1720.29
784.95	1611.75
785.12	1708.01
785.30	1652.71
785.47	1589.22
785.65	1621.99
785.83	1714.15
786.00	1726.44
786.18	1705.96
786.35	1593.32
786.53	1656.81
786.71	1751.01
786.88	1615.85
787.06	1662.95
787.23	1667.05
787.41	1687.53
787.58	1697.77
787.76	1714.15
787.94	1759.21
788.11	1748.97
788.29	1728.49
788.46	1695.72
788.64	1611.75
788.81	1658.85
788.99	1662.95
789.16	1708.01
789.34	1712.10
789.52	1671.14
789.69	1701.86
789.87	1615.85
790.04	1673.19
790.22	1693.67
790.39	1769.44
790.57	1591.27
790.74	1720.29
790.92	1759.21
791.09	1662.95
791.27	1740.77
791.44	1834.98
791.62	1660.90
791.79	1759.21
791.97	1665.00
792.15	1822.69
792.32	1734.63
792.50	1742.82
792.67	1783.78
792.85	1857.51
793.02	1705.96
793.20	1685.48
793.37	1736.68
793.55	1634.28
793.72	1665.00
793.90	1779.68
794.07	1660.90
794.25	1671.14
794.42	1767.40
794.60	1718.25
794.77	1781.73
794.95	1705.96
795.12	1697.77
795.30	1703.91
795.47	1626.09
795.65	1869.80
795.82	1716.20
796.00	1640.42
796.17	1699.81
796.34	1642.47
796.52	1693.67
796.69	1746.92
796.87	1734.63
797.04	1646.57
797.22	1787.88
797.39	1783.78
797.57	1718.25
797.74	1689.57
797.92	1628.14
798.09	1652.71
798.27	1712.10
798.44	1697.77
798.62	1720.29
798.79	1708.01
798.96	1742.82
799.14	1710.05
799.31	1834.98
799.49	1693.67
799.66	1619.94
799.84	1761.25
800.01	1660.90
800.19	1699.81
800.36	1669.09
800.53	1753.06
800.71	1779.68
800.88	1861.60
801.06	1763.30
801.23	1687.53
801.41	1695.72
801.58	1734.63
801.75	1613.80
801.93	1783.78
802.10	1718.25
802.28	1665.00
802.45	1789.92
802.63	1751.01
802.80	1806.31
802.97	1738.73
803.15	1636.33
803.32	1730.53
803.50	1648.61
803.67	1759.21
803.84	1607.66
804.02	1697.77
804.19	1697.77
804.37	1644.52
804.54	1720.29
804.71	1712.10
804.89	1730.53
805.06	1687.53
805.24	1671.14
805.41	1638.38
805.58	1736.68
805.76	1822.69
805.93	1751.01
806.10	1746.92
806.28	1789.92
806.45	1753.06
806.63	1669.09
806.80	1736.68
806.97	1791.97
807.15	1765.35
807.32	1775.59
807.49	1730.53
807.67	1689.57
807.84	1681.38
808.01	1595.37
808.19	1888.23
808.36	1802.21
808.54	1777.64
808.71	1671.14
808.88	1689.57
809.06	1730.53
809.23	1824.74
809.40	1640.42
809.58	1798.12
809.75	1728.49
809.92	1728.49
810.10	1861.60
810.27	1724.39
810.44	1730.53
810.62	1705.96
810.79	1761.25
810.96	1667.05
811.14	1619.94
811.31	1853.41
811.48	1769.44
811.66	1667.05
811.83	1763.30
812.00	1705.96
812.18	1662.95
812.35	1861.60
812.52	1687.53
812.69	1705.96
812.87	1658.85
813.04	1689.57
813.21	1757.16
813.39	1656.81
813.56	1607.66
813.73	1812.45
813.91	1615.85
814.08	1730.53
814.25	1712.10
814.42	1609.70
814.60	1734.63
814.77	1773.54
814.94	1732.58
815.12	1638.38
815.29	1761.25
815.46	1648.61
815.63	1685.48
815.81	1722.34
815.98	1599.46
816.15	1755.11
816.33	1716.20
816.50	1691.62
816.67	1767.40
816.84	1693.67
817.02	1712.10
817.19	1656.81
817.36	1746.92
817.53	1753.06
817.71	1640.42
817.88	1724.39
818.05	1683.43
818.22	1683.43
818.40	1765.35
818.57	1726.44
818.74	1763.30
818.91	1619.94
819.09	1755.11
819.26	1732.58
819.43	1751.01
819.60	1714.15
819.78	1685.48
819.95	1720.29
820.12	1617.90
820.29	1751.01
820.47	1726.44
820.64	1708.01
820.81	1601.51
820.98	1642.47
821.15	1693.67
821.33	1773.54
821.50	1695.72
821.67	1718.25
821.84	1705.96
822.02	1744.87
822.19	1734.63
822.36	1683.43
822.53	1671.14
822.70	1652.71
822.88	1701.86
823.05	1822.69
823.22	1632.23
823.39	1724.39
823.56	1699.81
823.74	1802.21
823.91	1669.09
824.08	1665.00
824.25	1615.85
824.42	1806.31
824.60	1593.32
824.77	1763.30
824.94	1617.90
825.11	1720.29
825.28	1671.14
825.45	1744.87
825.63	1665.00
825.80	1722.34
825.97	1759.21
826.14	1726.44
826.31	1593.32
826.48	1757.16
826.66	1656.81
826.83	1671.14
827.00	1665.00
827.17	1652.71
827.34	1742.82
827.51	1738.73
827.69	1728.49
827.86	1667.05
828.03	1675.24
828.20	1673.19
828.37	1687.53
828.54	1755.11
828.71	1540.07
828.89	1863.65
829.06	1794.02
829.23	1791.97
829.40	1681.38
829.57	1724.39
829.74	1738.73
829.91	1652.71
830.09	1671.14
830.26	1787.88
830.43	1748.97
830.60	1742.82
830.77	1755.11
830.94	1757.16
831.11	1755.11
831.28	1734.63
831.46	1767.40
831.63	1703.91
831.80	1804.26
831.97	1685.48
832.14	1734.63
832.31	1730.53
832.48	1708.01
832.65	1826.79
832.82	1669.09
832.99	1712.10
833.17	1621.99
833.34	1818.60
833.51	1712.10
833.68	1595.37
833.85	1701.86
834.02	1734.63
834.19	1624.04
834.36	1693.67
834.53	1712.10
834.70	1871.84
834.87	1791.97
835.04	1658.85
835.22	1673.19
835.39	1697.77
835.56	1640.42
835.73	1708.01
835.90	1687.53
836.07	1646.57
836.24	1695.72
836.41	1673.19
836.58	1673.19
836.75	1779.68
836.92	1712.10
837.09	1673.19
837.26	1716.20
837.43	1773.54
837.60	1720.29
837.77	1708.01
837.94	1744.87
838.12	1804.26
838.29	1708.01
838.46	1734.63
838.63	1665.00
838.80	1759.21
838.97	1699.81
839.14	1791.97
839.31	1662.95
839.48	1730.53
839.65	1742.82
839.82	1800.16
839.99	1685.48
840.16	1783.78
840.33	1691.62
840.50	1695.72
840.67	1732.58
840.84	1533.93
841.01	1697.77
841.18	1683.43
841.35	1675.24
841.52	1781.73
841.69	1871.84
841.86	1738.73
842.03	1626.09
842.20	1718.25
842.37	1732.58
842.54	1685.48
842.71	1632.23
842.88	1570.79
843.05	1695.72
843.22	1658.85
843.39	1691.62
843.56	1689.57
843.73	1644.52
843.90	1701.86
844.07	1748.97
844.24	1761.25
844.41	1677.29
844.58	1662.95
844.75	1705.96
844.92	1757.16
845.09	1722.34
845.26	1665.00
845.43	1720.29
845.60	1665.00
845.77	1744.87
845.94	1816.55
846.10	1740.77
846.27	1665.00
846.44	1671.14
846.61	1677.29
846.78	1751.01
846.95	1742.82
847.12	1724.39
847.29	1714.15
847.46	1751.01
847.63	1773.54
847.80	1587.18
847.97	1669.09
848.14	1789.92
848.31	1640.42
848.48	1636.33
848.65	1699.81
848.82	1726.44
848.98	1806.31
849.15	1748.97
849.32	1781.73
849.49	1804.26
849.66	1695.72
849.83	1705.96
850.00	1662.95
850.17	1691.62
850.34	1683.43
850.51	1658.85
850.68	1656.81
850.85	1775.59
851.01	1787.88
851.18	1769.44
851.35	1724.39
851.52	1714.15
851.69	1791.97
851.86	1583.08
852.03	1714.15
852.20	1810.40
852.37	1777.64
852.53	1572.84
852.70	1716.20
852.87	1722.34
853.04	1806.31
853.21	1687.53
853.38	1783.78
853.55	1724.39
853.72	1855.46
853.89	1656.81
854.05	1710.05
854.22	1701.86
854.39	1654.76
854.56	1722.34
854.73	1714.15
854.90	1648.61
855.07	1679.33
855.23	1724.39
855.40	1695.72
855.57	1736.68
855.74	1593.32
855.91	1849.32
856.08	1628.14
856.25	1607.66
856.41	1740.77
856.58	1665.00
856.75	1716.20
856.92	1697.77
857.09	1759.21
857.26	1650.66
857.42	1722.34
857.59	1779.68
857.76	1679.33
857.93	1650.66
858.10	1738.73
858.27	1687.53
858.43	1714.15
858.60	1718.25
858.77	1587.18
858.94	1667.05
859.11	1744.87
859.27	1677.29
859.44	1632.23
859.61	1787.88
859.78	1763.30
859.95	1671.14
860.12	1644.52
860.28	1806.31
860.45	1847.27
860.62	1615.85
860.79	1746.92
860.95	1642.47
861.12	1636.33
861.29	1716.20
861.46	1724.39
861.63	1687.53
861.79	1761.25
861.96	1654.76
862.13	1710.05
862.30	1796.07
862.47	1689.57
862.63	1648.61
862.80	1800.16
862.97	1748.97
863.14	1730.53
863.30	1669.09
863.47	1693.67
863.64	1767.40
863.81	1667.05
863.97	1697.77
864.14	1726.44
864.31	1714.15
864.48	1681.38
864.65	1671.14
864.81	1761.25
864.98	1734.63
865.15	1724.39
865.32	1734.63
865.48	1738.73
865.65	1748.97
865.82	1730.53
865.98	1736.68
866.15	1757.16
866.32	1640.42
866.49	1667.05
866.65	1796.07
866.82	1665.00
866.99	1632.23
867.16	1689.57
867.32	1646.57
867.49	1712.10
867.66	1626.09
867.83	1632.23
867.99	1617.90
868.16	1767.40
868.33	1632.23
868.49	1720.29
868.66	1669.09
868.83	1820.64
868.99	1714.15
869.16	1755.11
869.33	1822.69
869.50	1802.21
869.66	1759.21
869.83	1646.57
870.00	1624.04
870.16	1832.93
870.33	1714.15
870.50	1722.34
870.66	1730.53
870.83	1832.93
871.00	1691.62
871.17	1722.34
871.33	1730.53
871.50	1632.23
871.67	1697.77
871.83	1640.42
872.00	1898.47
872.17	1753.06
872.33	1824.74
872.50	1779.68
872.67	1701.86
872.83	1736.68
873.00	1748.97
873.17	1714.15
873.33	1744.87
873.50	1665.00
873.67	1667.05
873.83	1642.47
874.00	1677.29
874.16	1714.15
874.33	1730.53
874.50	1697.77
874.66	1732.58
874.83	1765.35
875.00	1822.69
875.16	1771.49
875.33	1767.40
875.50	1591.27
875.66	1681.38
875.83	1730.53
875.99	1689.57
876.16	1751.01
876.33	1603.56
876.49	1689.57
876.66	1808.36
876.83	1708.01
876.99	1683.43
877.16	1718.25
877.32	1699.81
877.49	1753.06
877.66	1748.97
877.82	1818.60
877.99	1599.46
878.15	1736.68
878.32	1761.25
878.49	1740.77
878.65	1712.10
878.82	1767.40
878.98	1679.33
879.15	1722.34
879.32	1759.21
879.48	1730.53
879.65	1685.48
879.81	1714.15
879.98	1675.24
880.15	1662.95
880.31	1779.68
880.48	1615.85
880.64	1812.45
880.81	1738.73
880.97	1822.69
881.14	1763.30
881.31	1656.81
881.47	1871.84
881.64	1755.11
881.80	1718.25
881.97	1656.81
882.13	1738.73
882.30	1656.81
882.47	1705.96
882.63	1658.85
882.80	1761.25
882.96	1687.53
883.13	1630.18
883.29	1708.01
883.46	1722.34
883.62	1775.59
883.79	1652.71
883.95	1693.67
884.12	1730.53
884.29	1798.12
884.45	1701.86
884.62	1744.87
884.78	1669.09
884.95	1728.49
885.11	1667.05
885.28	1746.92
885.44	1685.48
885.61	1761.25
885.77	1822.69
885.94	1730.53
886.10	1779.68
886.27	1738.73
886.43	1773.54
886.60	1755.11
886.76	1675.24
886.93	1685.48
887.09	1722.34
887.26	1673.19
887.42	1744.87
887.59	1761.25
887.75	1841.12
887.92	1765.35
888.08	1832.93
888.25	1734.63
888.41	1783.78
888.58	1660.90
888.74	1658.85
888.91	1691.62
>>>>>End Processed Spectral Data<<<<<
