SpectraSuite Data File
++++++++++++++++++++++++++++++++++++
Date: Mon Jun 06 16:38:17 CEST 2016
User: root
Dark Spectrum Present: No
Reference Spectrum Present: No
Number of Sampled Component Spectra: 1
Spectrometers: USB4C02835
Integration Time (usec): 100000 (USB4C02835)
Spectra Averaged: 1 (USB4C02835)
Boxcar Smoothing: 0 (USB4C02835)
Correct for Electrical Dark: No (USB4C02835)
Strobe/Lamp Enabled: No (USB4C02835)
Correct for Detector Non-linearity: No (USB4C02835)
Correct for Stray Light: No (USB4C02835)
Number of Pixels in Processed Spectrum: 3648
>>>>>Begin Processed Spectral Data<<<<<
177.47	1470.44
177.69	1470.44
177.91	1470.44
178.13	1433.58
178.36	1443.82
178.58	1689.57
178.80	1734.63
179.02	1607.66
179.24	1705.96
179.46	1761.25
179.68	1748.97
179.90	1662.95
180.13	1705.96
180.35	1646.57
180.57	1710.05
180.79	1796.07
181.01	1767.40
181.23	1791.97
181.45	1796.07
181.67	1650.66
181.90	1716.20
182.12	1712.10
182.34	1601.51
182.56	1687.53
182.78	1738.73
183.00	1775.59
183.22	1667.05
183.44	1640.42
183.66	1796.07
183.89	1736.68
184.11	1695.72
184.33	1746.92
184.55	1767.40
184.77	1701.86
184.99	1714.15
185.21	1734.63
185.43	1851.36
185.65	1673.19
185.87	1785.83
186.10	1830.88
186.32	1853.41
186.54	1761.25
186.76	1765.35
186.98	1724.39
187.20	1705.96
187.42	1599.46
187.64	1730.53
187.86	1697.77
188.08	1710.05
188.30	1677.29
188.52	1779.68
188.75	1757.16
188.97	1789.92
189.19	1642.47
189.41	1710.05
189.63	1765.35
189.85	1671.14
190.07	1673.19
190.29	1619.94
190.51	1820.64
190.73	1757.16
190.95	1769.44
191.17	1714.15
191.39	1615.85
191.61	1642.47
191.84	1630.18
192.06	1755.11
192.28	1560.55
192.50	1986.53
192.72	1736.68
192.94	1730.53
193.16	1783.78
193.38	1673.19
193.60	1669.09
193.82	1689.57
194.04	1710.05
194.26	1660.90
194.48	1712.10
194.70	1652.71
194.92	1613.80
195.14	1724.39
195.36	1632.23
195.58	1775.59
195.80	1716.20
196.02	1765.35
196.24	1767.40
196.46	1722.34
196.69	1720.29
196.91	1912.80
197.13	1667.05
197.35	1703.91
197.57	1812.45
197.79	1736.68
198.01	1728.49
198.23	1712.10
198.45	1765.35
198.67	1665.00
198.89	1732.58
199.11	1703.91
199.33	1685.48
199.55	1591.27
199.77	1742.82
199.99	1767.40
200.21	1714.15
200.43	1679.33
200.65	1609.70
200.87	1527.78
201.09	1763.30
201.31	1689.57
201.53	1675.24
201.75	1697.77
201.97	1730.53
202.19	1724.39
202.41	1761.25
202.63	1871.84
202.85	1746.92
203.07	1783.78
203.29	1642.47
203.51	1669.09
203.73	1705.96
203.95	1849.32
204.17	1722.34
204.39	1681.38
204.61	1712.10
204.83	1654.76
205.05	1726.44
205.27	1791.97
205.49	1802.21
205.71	1667.05
205.93	1644.52
206.15	1722.34
206.37	1755.11
206.59	1728.49
206.81	1613.80
207.03	1609.70
207.25	1714.15
207.47	1730.53
207.69	1669.09
207.91	1751.01
208.13	1757.16
208.34	1724.39
208.56	1656.81
208.78	1738.73
209.00	1757.16
209.22	1699.81
209.44	1710.05
209.66	1671.14
209.88	1734.63
210.10	1611.75
210.32	1714.15
210.54	1845.22
210.76	1748.97
210.98	1769.44
211.20	1654.76
211.42	1720.29
211.64	1728.49
211.86	1775.59
212.08	1718.25
212.30	1724.39
212.52	1703.91
212.74	1730.53
212.96	1746.92
213.17	1716.20
213.39	1808.36
213.61	1783.78
213.83	1640.42
214.05	1621.99
214.27	1769.44
214.49	1667.05
214.71	1677.29
214.93	1828.84
215.15	1767.40
215.37	1787.88
215.59	1632.23
215.81	1648.61
216.03	1812.45
216.24	1712.10
216.46	1763.30
216.68	1705.96
216.90	1734.63
217.12	1699.81
217.34	1691.62
217.56	1681.38
217.78	1818.60
218.00	1722.34
218.22	1695.72
218.44	1705.96
218.66	1751.01
218.87	1859.56
219.09	1650.66
219.31	1757.16
219.53	1787.88
219.75	1718.25
219.97	1671.14
220.19	1693.67
220.41	1744.87
220.63	1800.16
220.85	1785.83
221.06	1675.24
221.28	1771.49
221.50	1710.05
221.72	1705.96
221.94	1689.57
222.16	1640.42
222.38	1802.21
222.60	1697.77
222.82	1679.33
223.03	1820.64
223.25	1701.86
223.47	1789.92
223.69	1867.75
223.91	1753.06
224.13	1701.86
224.35	1650.66
224.57	1775.59
224.78	1755.11
225.00	1646.57
225.22	1734.63
225.44	1685.48
225.66	1845.22
225.88	1640.42
226.10	1826.79
226.32	1677.29
226.53	1781.73
226.75	1763.30
226.97	1718.25
227.19	1677.29
227.41	1687.53
227.63	1710.05
227.85	1615.85
228.06	1710.05
228.28	1755.11
228.50	1638.38
228.72	1689.57
228.94	1718.25
229.16	1570.79
229.37	1632.23
229.59	1703.91
229.81	1703.91
230.03	1724.39
230.25	1626.09
230.47	1648.61
230.69	1695.72
230.90	1751.01
231.12	1673.19
231.34	1808.36
231.56	1757.16
231.78	1636.33
232.00	1765.35
232.21	1691.62
232.43	1665.00
232.65	1632.23
232.87	1779.68
233.09	1648.61
233.30	1685.48
233.52	1771.49
233.74	1681.38
233.96	1656.81
234.18	1724.39
234.40	1679.33
234.61	1857.51
234.83	1712.10
235.05	1714.15
235.27	1841.12
235.49	1845.22
235.70	1712.10
235.92	1779.68
236.14	1751.01
236.36	1918.95
236.58	1636.33
236.79	1726.44
237.01	1691.62
237.23	1662.95
237.45	1808.36
237.67	1640.42
237.88	1708.01
238.10	1894.37
238.32	1576.94
238.54	1681.38
238.76	1691.62
238.97	1738.73
239.19	1730.53
239.41	1761.25
239.63	1800.16
239.85	1701.86
240.06	1681.38
240.28	1701.86
240.50	1732.58
240.72	1669.09
240.93	1728.49
241.15	1701.86
241.37	1730.53
241.59	1726.44
241.81	1691.62
242.02	1689.57
242.24	1675.24
242.46	1726.44
242.68	1578.98
242.89	1730.53
243.11	1753.06
243.33	1742.82
243.55	1763.30
243.76	1708.01
243.98	1626.09
244.20	1621.99
244.42	1787.88
244.64	1824.74
244.85	1681.38
245.07	1624.04
245.29	1734.63
245.51	1701.86
245.72	1730.53
245.94	1757.16
246.16	1779.68
246.38	1787.88
246.59	1652.71
246.81	1726.44
247.03	1662.95
247.24	1568.74
247.46	1660.90
247.68	1746.92
247.90	1689.57
248.11	1697.77
248.33	1765.35
248.55	1685.48
248.77	1734.63
248.98	1730.53
249.20	1869.80
249.42	1648.61
249.64	1757.16
249.85	1689.57
250.07	1689.57
250.29	1667.05
250.50	1738.73
250.72	1599.46
250.94	1724.39
251.16	1904.61
251.37	1769.44
251.59	1699.81
251.81	1763.30
252.02	1800.16
252.24	1656.81
252.46	1753.06
252.68	1712.10
252.89	1640.42
253.11	1617.90
253.33	1787.88
253.54	1746.92
253.76	1683.43
253.98	1697.77
254.20	1701.86
254.41	1673.19
254.63	1705.96
254.85	1683.43
255.06	1667.05
255.28	1695.72
255.50	1671.14
255.71	1671.14
255.93	1654.76
256.15	1699.81
256.36	1714.15
256.58	1652.71
256.80	1681.38
257.02	1765.35
257.23	1699.81
257.45	1851.36
257.67	1765.35
257.88	1652.71
258.10	1744.87
258.32	1738.73
258.53	1654.76
258.75	1744.87
258.97	1646.57
259.18	1785.83
259.40	1669.09
259.62	1744.87
259.83	1802.21
260.05	1687.53
260.27	2062.30
260.48	1734.63
260.70	1703.91
260.92	1755.11
261.13	1705.96
261.35	1771.49
261.57	1703.91
261.78	1591.27
262.00	1675.24
262.22	1742.82
262.43	1658.85
262.65	1632.23
262.86	1671.14
263.08	1785.83
263.30	1650.66
263.51	1632.23
263.73	1685.48
263.95	1769.44
264.16	1685.48
264.38	1734.63
264.60	1671.14
264.81	1652.71
265.03	1736.68
265.25	1708.01
265.46	1642.47
265.68	1767.40
265.89	1759.21
266.11	1654.76
266.33	1826.79
266.54	1724.39
266.76	1736.68
266.98	1804.26
267.19	1753.06
267.41	1748.97
267.62	1703.91
267.84	1576.94
268.06	1771.49
268.27	1726.44
268.49	1812.45
268.70	1751.01
268.92	1650.66
269.14	1613.80
269.35	1705.96
269.57	1705.96
269.79	1751.01
270.00	1654.76
270.22	1748.97
270.43	1695.72
270.65	1624.04
270.87	1673.19
271.08	1794.02
271.30	1699.81
271.51	1677.29
271.73	1763.30
271.95	1830.88
272.16	1708.01
272.38	1654.76
272.59	1636.33
272.81	1720.29
273.02	1822.69
273.24	1730.53
273.46	1734.63
273.67	1691.62
273.89	1673.19
274.10	1738.73
274.32	1863.65
274.54	1748.97
274.75	1796.07
274.97	1697.77
275.18	1759.21
275.40	1685.48
275.61	1710.05
275.83	1691.62
276.05	1660.90
276.26	1703.91
276.48	1693.67
276.69	1703.91
276.91	1628.14
277.12	1753.06
277.34	1755.11
277.55	1742.82
277.77	1712.10
277.99	1685.48
278.20	1701.86
278.42	1599.46
278.63	1626.09
278.85	1689.57
279.06	1681.38
279.28	1742.82
279.49	1746.92
279.71	1755.11
279.93	1789.92
280.14	1705.96
280.36	1669.09
280.57	1753.06
280.79	1769.44
281.00	1675.24
281.22	1632.23
281.43	1779.68
281.65	1662.95
281.86	1630.18
282.08	1736.68
282.29	1820.64
282.51	1669.09
282.73	1662.95
282.94	1634.28
283.16	1695.72
283.37	1791.97
283.59	1705.96
283.80	1687.53
284.02	1699.81
284.23	1708.01
284.45	1679.33
284.66	1669.09
284.88	1675.24
285.09	1789.92
285.31	1771.49
285.52	1738.73
285.74	1621.99
285.95	1687.53
286.17	1773.54
286.38	1710.05
286.60	1683.43
286.81	1714.15
287.03	1712.10
287.24	1720.29
287.46	1701.86
287.67	1757.16
287.89	1779.68
288.10	1693.67
288.32	1832.93
288.53	1875.94
288.75	1712.10
288.96	1726.44
289.18	1632.23
289.39	1636.33
289.61	1800.16
289.82	1808.36
290.04	1820.64
290.25	1740.77
290.47	1730.53
290.68	1705.96
290.90	1720.29
291.11	1675.24
291.33	1820.64
291.54	1671.14
291.76	1716.20
291.97	1695.72
292.18	1679.33
292.40	1712.10
292.61	1689.57
292.83	1853.41
293.04	1757.16
293.26	1714.15
293.47	1675.24
293.69	1671.14
293.90	1626.09
294.12	1765.35
294.33	1697.77
294.55	1738.73
294.76	1763.30
294.97	1742.82
295.19	1830.88
295.40	1640.42
295.62	1697.77
295.83	1757.16
296.05	1683.43
296.26	1779.68
296.48	1679.33
296.69	1685.48
296.90	1667.05
297.12	1730.53
297.33	1816.55
297.55	1687.53
297.76	1781.73
297.98	1783.78
298.19	1710.05
298.41	1617.90
298.62	1656.81
298.83	1841.12
299.05	1669.09
299.26	1808.36
299.48	1617.90
299.69	1708.01
299.90	1687.53
300.12	1742.82
300.33	1714.15
300.55	1724.39
300.76	1746.92
300.98	1644.52
301.19	1806.31
301.40	1712.10
301.62	1740.77
301.83	1753.06
302.05	1789.92
302.26	1695.72
302.47	1746.92
302.69	1624.04
302.90	1675.24
303.12	1568.74
303.33	1804.26
303.54	1791.97
303.76	1677.29
303.97	1705.96
304.19	1816.55
304.40	1705.96
304.61	1755.11
304.83	1759.21
305.04	1828.84
305.26	1710.05
305.47	1679.33
305.68	1720.29
305.90	1646.57
306.11	1746.92
306.33	1662.95
306.54	1687.53
306.75	1658.85
306.97	1671.14
307.18	1650.66
307.39	1736.68
307.61	1718.25
307.82	1832.93
308.04	1730.53
308.25	1679.33
308.46	1716.20
308.68	1615.85
308.89	1781.73
309.10	1775.59
309.32	1757.16
309.53	1763.30
309.74	1699.81
309.96	1705.96
310.17	1763.30
310.39	1705.96
310.60	1761.25
310.81	1732.58
311.03	1648.61
311.24	1748.97
311.45	1667.05
311.67	1740.77
311.88	1722.34
312.09	1689.57
312.31	1572.84
312.52	1748.97
312.73	1681.38
312.95	1624.04
313.16	1697.77
313.37	1781.73
313.59	1775.59
313.80	1710.05
314.01	1771.49
314.23	1708.01
314.44	1626.09
314.65	1689.57
314.87	1718.25
315.08	1699.81
315.29	1681.38
315.51	1665.00
315.72	1687.53
315.93	1789.92
316.15	1785.83
316.36	1646.57
316.57	1724.39
316.79	1738.73
317.00	1636.33
317.21	1789.92
317.43	1740.77
317.64	1736.68
317.85	1732.58
318.07	1685.48
318.28	1705.96
318.49	1808.36
318.70	1863.65
318.92	1787.88
319.13	1804.26
319.34	1847.27
319.56	1812.45
319.77	1748.97
319.98	1810.40
320.20	1781.73
320.41	1732.58
320.62	1771.49
320.83	1652.71
321.05	1869.80
321.26	1740.77
321.47	1701.86
321.69	1740.77
321.90	1595.37
322.11	1697.77
322.32	1638.38
322.54	1775.59
322.75	1634.28
322.96	1814.50
323.18	1638.38
323.39	1578.98
323.60	1683.43
323.81	1804.26
324.03	1650.66
324.24	1773.54
324.45	1755.11
324.66	1722.34
324.88	1798.12
325.09	1794.02
325.30	1738.73
325.52	1744.87
325.73	1722.34
325.94	1693.67
326.15	1640.42
326.37	1722.34
326.58	1785.83
326.79	1820.64
327.00	1665.00
327.22	1730.53
327.43	1675.24
327.64	1650.66
327.85	1722.34
328.07	1755.11
328.28	1845.22
328.49	1687.53
328.70	1738.73
328.92	1687.53
329.13	1724.39
329.34	1693.67
329.55	1828.84
329.76	1787.88
329.98	1708.01
330.19	1767.40
330.40	1808.36
330.61	1683.43
330.83	1763.30
331.04	1650.66
331.25	1712.10
331.46	1728.49
331.68	1671.14
331.89	1773.54
332.10	1708.01
332.31	1624.04
332.52	1710.05
332.74	1773.54
332.95	1660.90
333.16	1669.09
333.37	1718.25
333.58	1685.48
333.80	1724.39
334.01	1609.70
334.22	1783.78
334.43	1675.24
334.64	1746.92
334.86	1632.23
335.07	1642.47
335.28	1845.22
335.49	1656.81
335.70	1736.68
335.92	1886.18
336.13	1908.71
336.34	1740.77
336.55	1695.72
336.76	1763.30
336.98	1644.52
337.19	1744.87
337.40	1738.73
337.61	1791.97
337.82	1746.92
338.04	1710.05
338.25	1615.85
338.46	1708.01
338.67	1640.42
338.88	1726.44
339.09	1693.67
339.31	1728.49
339.52	1638.38
339.73	1605.61
339.94	1742.82
340.15	1718.25
340.36	1730.53
340.58	1757.16
340.79	1699.81
341.00	1685.48
341.21	1617.90
341.42	1820.64
341.63	1734.63
341.85	1812.45
342.06	1730.53
342.27	1673.19
342.48	1757.16
342.69	1599.46
342.90	1777.64
343.12	1734.63
343.33	1636.33
343.54	1777.64
343.75	1849.32
343.96	1757.16
344.17	1755.11
344.38	1652.71
344.60	1679.33
344.81	1671.14
345.02	1632.23
345.23	1800.16
345.44	1828.84
345.65	1787.88
345.86	1767.40
346.07	1759.21
346.29	1716.20
346.50	1777.64
346.71	1724.39
346.92	1806.31
347.13	1816.55
347.34	1705.96
347.55	1681.38
347.76	1724.39
347.98	1671.14
348.19	1681.38
348.40	1834.98
348.61	1681.38
348.82	1816.55
349.03	1742.82
349.24	1695.72
349.45	1820.64
349.66	1642.47
349.88	1722.34
350.09	1689.57
350.30	1767.40
350.51	1822.69
350.72	1744.87
350.93	1742.82
351.14	1652.71
351.35	1697.77
351.56	1716.20
351.77	1685.48
351.99	1693.67
352.20	1699.81
352.41	1771.49
352.62	1619.94
352.83	1654.76
353.04	1804.26
353.25	1650.66
353.46	1724.39
353.67	1806.31
353.88	1591.27
354.09	1777.64
354.30	1755.11
354.52	1800.16
354.73	1734.63
354.94	1638.38
355.15	1708.01
355.36	1771.49
355.57	1632.23
355.78	1724.39
355.99	1636.33
356.20	1705.96
356.41	1751.01
356.62	1728.49
356.83	1798.12
357.04	1802.21
357.25	1650.66
357.46	1701.86
357.68	1667.05
357.89	1693.67
358.10	1712.10
358.31	1689.57
358.52	1687.53
358.73	1671.14
358.94	1660.90
359.15	1697.77
359.36	1783.78
359.57	1738.73
359.78	1724.39
359.99	1687.53
360.20	1658.85
360.41	1687.53
360.62	1712.10
360.83	1697.77
361.04	1718.25
361.25	1681.38
361.46	1828.84
361.67	1687.53
361.88	1714.15
362.09	1742.82
362.30	1783.78
362.51	1708.01
362.72	1683.43
362.93	1765.35
363.14	1765.35
363.35	1710.05
363.56	1679.33
363.78	1818.60
363.99	1796.07
364.20	1701.86
364.41	1683.43
364.62	1837.03
364.83	1798.12
365.04	1665.00
365.25	1769.44
365.46	1902.56
365.67	1757.16
365.88	1697.77
366.09	1746.92
366.30	1744.87
366.51	1703.91
366.72	1617.90
366.93	1703.91
367.14	1736.68
367.35	1771.49
367.56	1652.71
367.77	1789.92
367.98	1716.20
368.18	1748.97
368.39	1757.16
368.60	1673.19
368.81	1746.92
369.02	1708.01
369.23	1714.15
369.44	1642.47
369.65	1687.53
369.86	1705.96
370.07	1763.30
370.28	1615.85
370.49	1681.38
370.70	1796.07
370.91	1599.46
371.12	1617.90
371.33	1757.16
371.54	1677.29
371.75	1845.22
371.96	1599.46
372.17	1701.86
372.38	1751.01
372.59	1710.05
372.80	1710.05
373.01	1722.34
373.22	1687.53
373.43	1703.91
373.64	1681.38
373.85	1734.63
374.06	1783.78
374.26	1673.19
374.47	1804.26
374.68	1886.18
374.89	1658.85
375.10	1642.47
375.31	1787.88
375.52	1781.73
375.73	1736.68
375.94	1701.86
376.15	1884.13
376.36	1656.81
376.57	1693.67
376.78	1667.05
376.99	1699.81
377.20	1814.50
377.40	1687.53
377.61	1855.46
377.82	1568.74
378.03	1789.92
378.24	1691.62
378.45	1753.06
378.66	1732.58
378.87	1673.19
379.08	1691.62
379.29	1679.33
379.50	1763.30
379.71	1691.62
379.91	1837.03
380.12	1710.05
380.33	1814.50
380.54	1689.57
380.75	1757.16
380.96	1728.49
381.17	1796.07
381.38	1767.40
381.59	1751.01
381.80	1748.97
382.00	1857.51
382.21	1746.92
382.42	1841.12
382.63	1908.71
382.84	1789.92
383.05	1800.16
383.26	1794.02
383.47	1640.42
383.68	1710.05
383.88	1740.77
384.09	1742.82
384.30	1820.64
384.51	1740.77
384.72	1748.97
384.93	1636.33
385.14	1714.15
385.35	1746.92
385.55	1660.90
385.76	1824.74
385.97	1660.90
386.18	1671.14
386.39	1658.85
386.60	1613.80
386.81	1726.44
387.02	1732.58
387.22	1673.19
387.43	1785.83
387.64	1828.84
387.85	1900.52
388.06	2168.80
388.27	4274.11
388.48	6698.91
388.68	8021.89
388.89	9508.72
389.10	9768.81
389.31	8671.10
389.52	7720.84
389.73	6786.97
389.93	6229.92
390.14	5728.17
390.35	5134.26
390.56	4483.00
390.77	3784.65
390.98	2965.46
391.18	2529.24
391.39	2095.07
391.60	1843.17
391.81	1906.66
392.02	1650.66
392.23	1853.41
392.43	1736.68
392.64	1769.44
392.85	1710.05
393.06	1732.58
393.27	1712.10
393.47	1687.53
393.68	1751.01
393.89	1691.62
394.10	1787.88
394.31	1738.73
394.52	1681.38
394.72	1665.00
394.93	1806.31
395.14	1632.23
395.35	1796.07
395.56	1712.10
395.76	1736.68
395.97	1824.74
396.18	1896.42
396.39	1796.07
396.60	1996.77
396.80	1923.04
397.01	1865.70
397.22	1839.08
397.43	1939.43
397.64	1734.63
397.84	1777.64
398.05	1882.08
398.26	1705.96
398.47	1755.11
398.67	1761.25
398.88	1757.16
399.09	1748.97
399.30	1714.15
399.51	1714.15
399.71	1587.18
399.92	1599.46
400.13	1777.64
400.34	1722.34
400.54	1736.68
400.75	1787.88
400.96	1736.68
401.17	1828.84
401.37	1732.58
401.58	1722.34
401.79	1734.63
402.00	1871.84
402.21	2013.15
402.41	1902.56
402.62	2015.20
402.83	2031.58
403.04	1974.24
403.24	2015.20
403.45	1890.28
403.66	1914.85
403.87	1896.42
404.07	1845.22
404.28	1902.56
404.49	1966.05
404.70	1841.12
404.90	1708.01
405.11	1763.30
405.32	1804.26
405.52	1703.91
405.73	1632.23
405.94	1630.18
406.15	1652.71
406.35	1757.16
406.56	1722.34
406.77	1722.34
406.98	1837.03
407.18	1671.14
407.39	1828.84
407.60	1695.72
407.80	1695.72
408.01	1738.73
408.22	1699.81
408.43	1665.00
408.63	1630.18
408.84	1732.58
409.05	1761.25
409.25	1703.91
409.46	1640.42
409.67	1658.85
409.88	1681.38
410.08	1697.77
410.29	1703.91
410.50	1734.63
410.70	1703.91
410.91	1722.34
411.12	1787.88
411.32	1732.58
411.53	1617.90
411.74	1787.88
411.95	1804.26
412.15	1740.77
412.36	1802.21
412.57	1779.68
412.77	1826.79
412.98	1693.67
413.19	1783.78
413.39	1710.05
413.60	1748.97
413.81	1767.40
414.01	1642.47
414.22	1798.12
414.43	1763.30
414.63	1660.90
414.84	1710.05
415.05	1802.21
415.25	1720.29
415.46	1746.92
415.67	1773.54
415.87	1667.05
416.08	1726.44
416.29	1679.33
416.49	1685.48
416.70	1738.73
416.91	1646.57
417.11	1671.14
417.32	1771.49
417.53	1857.51
417.73	1703.91
417.94	1677.29
418.15	1810.40
418.35	1695.72
418.56	1636.33
418.77	1800.16
418.97	1660.90
419.18	1730.53
419.38	1540.07
419.59	1671.14
419.80	1783.78
420.00	1691.62
420.21	1705.96
420.42	1738.73
420.62	1765.35
420.83	1630.18
421.04	1705.96
421.24	1648.61
421.45	1789.92
421.65	1669.09
421.86	1724.39
422.07	1732.58
422.27	1667.05
422.48	1751.01
422.69	1667.05
422.89	1742.82
423.10	1742.82
423.30	1576.94
423.51	1714.15
423.72	1726.44
423.92	1771.49
424.13	1669.09
424.33	1732.58
424.54	1736.68
424.75	1722.34
424.95	1765.35
425.16	1732.58
425.36	1687.53
425.57	1779.68
425.78	1746.92
425.98	1814.50
426.19	1673.19
426.39	1703.91
426.60	1687.53
426.81	1779.68
427.01	1746.92
427.22	1751.01
427.42	1656.81
427.63	1687.53
427.83	1683.43
428.04	1824.74
428.25	1771.49
428.45	1820.64
428.66	1714.15
428.86	1730.53
429.07	1751.01
429.28	1742.82
429.48	1746.92
429.69	1617.90
429.89	1697.77
430.10	1599.46
430.30	1695.72
430.51	1740.77
430.71	1671.14
430.92	1642.47
431.13	1697.77
431.33	1763.30
431.54	1742.82
431.74	1841.12
431.95	1902.56
432.15	1660.90
432.36	1710.05
432.56	1701.86
432.77	1826.79
432.98	1839.08
433.18	1716.20
433.39	1738.73
433.59	1779.68
433.80	1802.21
434.00	1933.28
434.21	1740.77
434.41	1671.14
434.62	1888.23
434.82	1683.43
435.03	1675.24
435.23	1765.35
435.44	1662.95
435.64	1697.77
435.85	1726.44
436.06	1800.16
436.26	1794.02
436.47	1693.67
436.67	1679.33
436.88	1734.63
437.08	1767.40
437.29	1824.74
437.49	1738.73
437.70	1787.88
437.90	1785.83
438.11	1918.95
438.31	1765.35
438.52	1845.22
438.72	1837.03
438.93	1882.08
439.13	1789.92
439.34	1826.79
439.54	1763.30
439.75	1826.79
439.95	1740.77
440.16	1681.38
440.36	1796.07
440.57	1759.21
440.77	1759.21
440.98	1785.83
441.18	1812.45
441.39	1744.87
441.59	1734.63
441.80	1787.88
442.00	1728.49
442.21	1757.16
442.41	1632.23
442.62	1869.80
442.82	1613.80
443.02	1722.34
443.23	1767.40
443.43	1763.30
443.64	1812.45
443.84	1656.81
444.05	1789.92
444.25	1771.49
444.46	1681.38
444.66	1695.72
444.87	1869.80
445.07	1665.00
445.28	1791.97
445.48	1828.84
445.69	1732.58
445.89	1806.31
446.09	1789.92
446.30	2117.60
446.50	2643.93
446.71	3729.35
446.91	4282.30
447.12	4593.59
447.32	4886.45
447.53	4327.36
447.73	3821.51
447.93	3588.04
448.14	3379.15
448.34	3217.36
448.55	2918.36
448.75	2852.82
448.96	2703.32
449.16	2365.40
449.36	2273.25
449.57	2107.36
449.77	1837.03
449.98	1761.25
450.18	1736.68
450.39	1937.38
450.59	1845.22
450.79	1728.49
451.00	1751.01
451.20	1806.31
451.41	1693.67
451.61	1771.49
451.81	1748.97
452.02	1730.53
452.22	1683.43
452.43	1755.11
452.63	1718.25
452.84	1773.54
453.04	1732.58
453.24	1753.06
453.45	1720.29
453.65	1845.22
453.86	1736.68
454.06	1724.39
454.26	1726.44
454.47	1744.87
454.67	1837.03
454.87	1789.92
455.08	1728.49
455.28	1798.12
455.49	1740.77
455.69	1630.18
455.89	1816.55
456.10	1794.02
456.30	1751.01
456.51	1763.30
456.71	1744.87
456.91	1810.40
457.12	1832.93
457.32	1724.39
457.52	1708.01
457.73	1789.92
457.93	1775.59
458.14	1722.34
458.34	1632.23
458.54	1722.34
458.75	1783.78
458.95	1841.12
459.15	1779.68
459.36	1789.92
459.56	1765.35
459.76	1816.55
459.97	1675.24
460.17	1785.83
460.37	1722.34
460.58	1685.48
460.78	1730.53
460.99	1679.33
461.19	1755.11
461.39	1726.44
461.60	1804.26
461.80	1765.35
462.00	1683.43
462.21	1718.25
462.41	1714.15
462.61	1656.81
462.82	1624.04
463.02	1740.77
463.22	1724.39
463.43	1779.68
463.63	1804.26
463.83	1812.45
464.04	1820.64
464.24	1703.91
464.44	1656.81
464.64	1726.44
464.85	1710.05
465.05	1861.60
465.25	1800.16
465.46	1726.44
465.66	1751.01
465.86	1687.53
466.07	1703.91
466.27	1677.29
466.47	1658.85
466.68	1632.23
466.88	1890.28
467.08	1789.92
467.29	1796.07
467.49	1732.58
467.69	1705.96
467.89	1800.16
468.10	1689.57
468.30	1746.92
468.50	1839.08
468.71	1767.40
468.91	1724.39
469.11	1843.17
469.31	1714.15
469.52	1632.23
469.72	1927.14
469.92	1828.84
470.13	1796.07
470.33	1712.10
470.53	1877.99
470.73	2144.22
470.94	2279.39
471.14	2316.25
471.34	2553.82
471.54	2406.36
471.75	2230.24
471.95	2123.74
472.15	2133.98
472.36	2090.98
472.56	2062.30
472.76	2037.73
472.96	1961.95
473.17	1937.38
473.37	1943.52
473.57	1822.69
473.77	1886.18
473.98	1759.21
474.18	1671.14
474.38	1894.37
474.58	1632.23
474.79	1624.04
474.99	1759.21
475.19	1759.21
475.39	1632.23
475.60	1779.68
475.80	1740.77
476.00	1726.44
476.20	1673.19
476.41	1710.05
476.61	1800.16
476.81	1855.46
477.01	1738.73
477.21	1818.60
477.42	1832.93
477.62	1660.90
477.82	1824.74
478.02	1716.20
478.23	1787.88
478.43	1611.75
478.63	1751.01
478.83	1761.25
479.03	1734.63
479.24	1818.60
479.44	1849.32
479.64	1609.70
479.84	1658.85
480.04	1712.10
480.25	1732.58
480.45	1646.57
480.65	1705.96
480.85	1800.16
481.06	1796.07
481.26	1683.43
481.46	1728.49
481.66	1730.53
481.86	1720.29
482.06	1810.40
482.27	1691.62
482.47	1693.67
482.67	1732.58
482.87	1673.19
483.07	1816.55
483.28	1687.53
483.48	1687.53
483.68	1701.86
483.88	1730.53
484.08	1658.85
484.29	1619.94
484.49	1738.73
484.69	1691.62
484.89	1845.22
485.09	1794.02
485.29	1787.88
485.50	1740.77
485.70	1773.54
485.90	1738.73
486.10	1740.77
486.30	1794.02
486.50	1808.36
486.71	1708.01
486.91	1769.44
487.11	1789.92
487.31	1726.44
487.51	1757.16
487.71	1683.43
487.91	1689.57
488.12	1703.91
488.32	1615.85
488.52	1691.62
488.72	1628.14
488.92	1712.10
489.12	1785.83
489.32	1796.07
489.53	1789.92
489.73	1648.61
489.93	1834.98
490.13	1734.63
490.33	1587.18
490.53	1730.53
490.73	1804.26
490.94	1656.81
491.14	1740.77
491.34	1849.32
491.54	2133.98
491.74	2660.31
491.94	2912.21
492.14	2996.18
492.34	3071.95
492.54	2770.90
492.75	2445.27
492.95	2545.63
493.15	2326.49
493.35	2287.58
493.55	2275.29
493.75	2082.78
493.95	2115.55
494.15	1953.76
494.35	1949.67
494.56	1826.79
494.76	1796.07
494.96	1730.53
495.16	1703.91
495.36	1804.26
495.56	1701.86
495.76	1730.53
495.96	1726.44
496.16	1683.43
496.36	1812.45
496.56	1697.77
496.77	1701.86
496.97	1697.77
497.17	1746.92
497.37	1626.09
497.57	1841.12
497.77	1742.82
497.97	1738.73
498.17	1751.01
498.37	1761.25
498.57	1810.40
498.77	1753.06
498.97	1730.53
499.17	1843.17
499.38	1751.01
499.58	1755.11
499.78	1857.51
499.98	1810.40
500.18	1806.31
500.38	1699.81
500.58	1806.31
500.78	2551.77
500.98	4505.53
501.18	5873.57
501.38	6758.30
501.58	7030.68
501.78	6500.25
501.98	5644.20
502.18	4966.32
502.38	4446.14
502.58	4251.58
502.78	3772.36
502.98	3590.09
503.18	3434.44
503.38	3174.35
503.59	2781.14
503.79	2643.93
503.99	2541.53
504.19	2234.33
504.39	2189.28
504.59	2205.66
504.79	2156.51
504.99	2072.54
505.19	1910.75
505.39	1865.70
505.59	1974.24
505.79	1908.71
505.99	1888.23
506.19	1810.40
506.39	1920.99
506.59	1828.84
506.79	1779.68
506.99	1877.99
507.19	1814.50
507.39	1765.35
507.59	1718.25
507.79	1701.86
507.99	1716.20
508.19	1714.15
508.39	1714.15
508.59	1738.73
508.79	1861.60
508.99	1855.46
509.19	1732.58
509.39	1714.15
509.59	1779.68
509.79	1785.83
509.99	1753.06
510.19	1845.22
510.39	1781.73
510.59	1746.92
510.79	1718.25
510.99	1675.24
511.19	1787.88
511.39	1830.88
511.59	1763.30
511.79	1855.46
511.99	1724.39
512.19	1830.88
512.38	1751.01
512.58	1701.86
512.78	1656.81
512.98	1759.21
513.18	1822.69
513.38	1646.57
513.58	1798.12
513.78	1669.09
513.98	1740.77
514.18	1738.73
514.38	1708.01
514.58	1753.06
514.78	1697.77
514.98	1699.81
515.18	1697.77
515.38	1691.62
515.58	1818.60
515.78	1695.72
515.98	1761.25
516.18	1730.53
516.38	1646.57
516.57	1755.11
516.77	1699.81
516.97	1761.25
517.17	1738.73
517.37	1640.42
517.57	1759.21
517.77	1714.15
517.97	1654.76
518.17	1783.78
518.37	1685.48
518.57	1656.81
518.77	1785.83
518.97	1691.62
519.16	1808.36
519.36	1783.78
519.56	1757.16
519.76	1673.19
519.96	1718.25
520.16	1837.03
520.36	1681.38
520.56	1761.25
520.76	1605.61
520.96	1779.68
521.16	1734.63
521.35	1806.31
521.55	1820.64
521.75	1744.87
521.95	1726.44
522.15	1720.29
522.35	1718.25
522.55	1726.44
522.75	1787.88
522.95	1722.34
523.14	1660.90
523.34	1726.44
523.54	1689.57
523.74	1740.77
523.94	1787.88
524.14	1712.10
524.34	1734.63
524.54	1812.45
524.73	1658.85
524.93	1742.82
525.13	1757.16
525.33	1626.09
525.53	1935.33
525.73	1722.34
525.93	1734.63
526.13	1677.29
526.32	1746.92
526.52	1753.06
526.72	1853.41
526.92	1781.73
527.12	1646.57
527.32	1679.33
527.52	1712.10
527.71	1828.84
527.91	1728.49
528.11	1744.87
528.31	1716.20
528.51	1720.29
528.71	1740.77
528.90	1744.87
529.10	1820.64
529.30	1869.80
529.50	1630.18
529.70	1769.44
529.90	1718.25
530.09	1746.92
530.29	1730.53
530.49	1642.47
530.69	1837.03
530.89	1791.97
531.09	1824.74
531.28	1650.66
531.48	1798.12
531.68	1783.78
531.88	1742.82
532.08	1691.62
532.28	1753.06
532.47	1726.44
532.67	1824.74
532.87	1802.21
533.07	1679.33
533.27	1779.68
533.46	1777.64
533.66	1767.40
533.86	1746.92
534.06	1781.73
534.26	1777.64
534.45	1718.25
534.65	1789.92
534.85	1722.34
535.05	1660.90
535.25	1757.16
535.44	1685.48
535.64	1716.20
535.84	1722.34
536.04	1734.63
536.24	1742.82
536.43	1650.66
536.63	1736.68
536.83	1720.29
537.03	1775.59
537.22	1650.66
537.42	1626.09
537.62	1781.73
537.82	1730.53
538.02	1888.23
538.21	1869.80
538.41	1834.98
538.61	1783.78
538.81	1660.90
539.00	1861.60
539.20	1673.19
539.40	1691.62
539.60	1806.31
539.79	1812.45
539.99	1697.77
540.19	1705.96
540.39	1746.92
540.58	1757.16
540.78	1765.35
540.98	1777.64
541.18	1828.84
541.37	1699.81
541.57	1734.63
541.77	1769.44
541.97	1662.95
542.16	1689.57
542.36	1710.05
542.56	1660.90
542.76	1839.08
542.95	1791.97
543.15	1753.06
543.35	1767.40
543.54	1669.09
543.74	1775.59
543.94	1740.77
544.14	1748.97
544.33	1814.50
544.53	1800.16
544.73	1693.67
544.93	1665.00
545.12	1769.44
545.32	1689.57
545.52	1730.53
545.71	1703.91
545.91	1687.53
546.11	1724.39
546.30	1656.81
546.50	1808.36
546.70	1779.68
546.90	1779.68
547.09	1660.90
547.29	1775.59
547.49	1705.96
547.68	1683.43
547.88	1597.42
548.08	1806.31
548.27	2121.70
548.47	1791.97
548.67	1695.72
548.87	1734.63
549.06	1728.49
549.26	1783.78
549.46	1802.21
549.65	1712.10
549.85	1783.78
550.05	1777.64
550.24	1705.96
550.44	1730.53
550.64	1812.45
550.83	1746.92
551.03	1841.12
551.23	1849.32
551.42	1759.21
551.62	1734.63
551.82	1695.72
552.01	1714.15
552.21	1742.82
552.41	1658.85
552.60	1880.04
552.80	1804.26
553.00	1724.39
553.19	1621.99
553.39	1787.88
553.59	1687.53
553.78	1794.02
553.98	1785.83
554.17	1787.88
554.37	1789.92
554.57	1730.53
554.76	1640.42
554.96	1732.58
555.16	1693.67
555.35	1751.01
555.55	1726.44
555.75	1732.58
555.94	1800.16
556.14	1699.81
556.33	1771.49
556.53	1730.53
556.73	1726.44
556.92	1802.21
557.12	1757.16
557.32	1777.64
557.51	1898.47
557.71	1810.40
557.90	1853.41
558.10	1761.25
558.30	1781.73
558.49	1679.33
558.69	1753.06
558.88	1714.15
559.08	1765.35
559.28	1705.96
559.47	1738.73
559.67	1736.68
559.86	1849.32
560.06	1798.12
560.26	1730.53
560.45	1718.25
560.65	1812.45
560.84	1849.32
561.04	1736.68
561.24	1814.50
561.43	1695.72
561.63	1843.17
561.82	1787.88
562.02	1816.55
562.22	1748.97
562.41	1736.68
562.61	1714.15
562.80	1697.77
563.00	1888.23
563.19	1765.35
563.39	1808.36
563.59	1794.02
563.78	1738.73
563.98	1691.62
564.17	1683.43
564.37	1677.29
564.56	1765.35
564.76	1665.00
564.96	1828.84
565.15	1802.21
565.35	1877.99
565.54	1746.92
565.74	1738.73
565.93	1814.50
566.13	1724.39
566.32	1808.36
566.52	1759.21
566.71	1693.67
566.91	1771.49
567.11	1779.68
567.30	1744.87
567.50	1808.36
567.69	1724.39
567.89	1701.86
568.08	1730.53
568.28	1716.20
568.47	1783.78
568.67	1814.50
568.86	1671.14
569.06	1828.84
569.25	1791.97
569.45	1662.95
569.64	1728.49
569.84	1755.11
570.04	1751.01
570.23	1685.48
570.43	1759.21
570.62	1787.88
570.82	1826.79
571.01	1689.57
571.21	1718.25
571.40	1691.62
571.60	1812.45
571.79	1794.02
571.99	1783.78
572.18	1681.38
572.38	1757.16
572.57	1757.16
572.77	1748.97
572.96	1886.18
573.16	1767.40
573.35	1748.97
573.55	1841.12
573.74	1834.98
573.94	1740.77
574.13	1759.21
574.33	1834.98
574.52	1822.69
574.71	1736.68
574.91	1767.40
575.10	1726.44
575.30	1699.81
575.49	1767.40
575.69	1734.63
575.88	1773.54
576.08	1687.53
576.27	1869.80
576.47	1687.53
576.66	1890.28
576.86	1814.50
577.05	1757.16
577.25	1806.31
577.44	1920.99
577.64	1665.00
577.83	1791.97
578.02	1701.86
578.22	1828.84
578.41	1894.37
578.61	1810.40
578.80	1705.96
579.00	1757.16
579.19	1734.63
579.39	1800.16
579.58	1826.79
579.77	1806.31
579.97	1791.97
580.16	1830.88
580.36	1873.89
580.55	1853.41
580.75	1767.40
580.94	1767.40
581.13	1898.47
581.33	1855.46
581.52	1796.07
581.72	1851.36
581.91	1787.88
582.11	1771.49
582.30	1804.26
582.49	1779.68
582.69	1859.56
582.88	1800.16
583.08	1798.12
583.27	1736.68
583.47	1755.11
583.66	1714.15
583.85	1742.82
584.05	1755.11
584.24	1800.16
584.44	1867.75
584.63	1796.07
584.82	1830.88
585.02	1849.32
585.21	1822.69
585.41	1873.89
585.60	1863.65
585.79	1931.23
585.99	1906.66
586.18	1906.66
586.37	2238.43
586.57	3368.91
586.76	9736.04
586.96	23987.86
587.15	34123.26
587.34	40086.94
587.54	41418.12
587.73	36265.43
587.93	26199.66
588.12	21122.75
588.31	18024.17
588.51	16219.91
588.70	14978.84
588.89	14130.98
589.09	12443.46
589.28	10987.35
589.47	9324.40
589.67	7944.07
589.86	6440.86
590.06	5003.19
590.25	3864.52
590.44	3051.47
590.64	2555.86
590.83	2316.25
591.02	2099.17
591.22	1982.43
591.41	1859.56
591.60	1837.03
591.80	1976.29
591.99	1748.97
592.18	1845.22
592.38	1796.07
592.57	1765.35
592.76	1742.82
592.96	1773.54
593.15	1800.16
593.34	1843.17
593.54	1728.49
593.73	1822.69
593.92	1779.68
594.12	1812.45
594.31	1720.29
594.50	1851.36
594.70	1841.12
594.89	1875.94
595.08	1726.44
595.28	1824.74
595.47	1931.23
595.66	1822.69
595.86	1695.72
596.05	1703.91
596.24	1671.14
596.43	1779.68
596.63	1843.17
596.82	1787.88
597.01	1777.64
597.21	1839.08
597.40	1789.92
597.59	1800.16
597.79	1804.26
597.98	1857.51
598.17	1769.44
598.36	1712.10
598.56	1777.64
598.75	1771.49
598.94	1683.43
599.14	1791.97
599.33	1787.88
599.52	1804.26
599.71	1832.93
599.91	1861.60
600.10	1787.88
600.29	1740.77
600.48	1789.92
600.68	1765.35
600.87	1748.97
601.06	1753.06
601.26	1814.50
601.45	1851.36
601.64	1701.86
601.83	1822.69
602.03	1689.57
602.22	1816.55
602.41	1773.54
602.60	1892.32
602.80	1820.64
602.99	1779.68
603.18	1796.07
603.37	1697.77
603.57	1796.07
603.76	1785.83
603.95	1722.34
604.14	1697.77
604.34	1708.01
604.53	1703.91
604.72	1669.09
604.91	1746.92
605.10	1849.32
605.30	1714.15
605.49	1828.84
605.68	1845.22
605.87	1771.49
606.07	1777.64
606.26	1714.15
606.45	1849.32
606.64	1789.92
606.84	1787.88
607.03	1796.07
607.22	1806.31
607.41	1689.57
607.60	1722.34
607.80	1769.44
607.99	1708.01
608.18	1804.26
608.37	1683.43
608.56	1689.57
608.76	1796.07
608.95	1824.74
609.14	1734.63
609.33	1794.02
609.52	1751.01
609.72	1722.34
609.91	1705.96
610.10	1798.12
610.29	1855.46
610.48	1742.82
610.68	1703.91
610.87	1718.25
611.06	1798.12
611.25	1783.78
611.44	1753.06
611.63	1738.73
611.83	1824.74
612.02	1687.53
612.21	1753.06
612.40	1679.33
612.59	1724.39
612.79	1671.14
612.98	1710.05
613.17	1796.07
613.36	1708.01
613.55	1787.88
613.74	1681.38
613.93	1703.91
614.13	1773.54
614.32	1732.58
614.51	1744.87
614.70	1748.97
614.89	1705.96
615.08	1724.39
615.28	2052.06
615.47	1675.24
615.66	1800.16
615.85	1779.68
616.04	1861.60
616.23	1746.92
616.42	1671.14
616.62	1789.92
616.81	1701.86
617.00	1740.77
617.19	1744.87
617.38	1701.86
617.57	1757.16
617.76	1736.68
617.95	1765.35
618.15	1789.92
618.34	1798.12
618.53	1626.09
618.72	1839.08
618.91	1789.92
619.10	1789.92
619.29	1742.82
619.48	1718.25
619.68	1687.53
619.87	1646.57
620.06	1652.71
620.25	1771.49
620.44	1748.97
620.63	1751.01
620.82	1722.34
621.01	1722.34
621.20	1708.01
621.39	1820.64
621.59	1699.81
621.78	1738.73
621.97	1796.07
622.16	1720.29
622.35	1785.83
622.54	1789.92
622.73	1765.35
622.92	1697.77
623.11	1755.11
623.30	1710.05
623.49	1808.36
623.68	1691.62
623.88	1724.39
624.07	1673.19
624.26	1773.54
624.45	1812.45
624.64	1716.20
624.83	1787.88
625.02	1765.35
625.21	1804.26
625.40	1802.21
625.59	1832.93
625.78	1718.25
625.97	1759.21
626.16	1761.25
626.35	1738.73
626.54	1697.77
626.74	1826.79
626.93	1681.38
627.12	1687.53
627.31	1828.84
627.50	1785.83
627.69	1744.87
627.88	1701.86
628.07	1763.30
628.26	1636.33
628.45	1677.29
628.64	1716.20
628.83	1734.63
629.02	1726.44
629.21	1775.59
629.40	1738.73
629.59	1677.29
629.78	1744.87
629.97	1687.53
630.16	1746.92
630.35	1662.95
630.54	1726.44
630.73	1648.61
630.92	1787.88
631.11	1744.87
631.30	1773.54
631.49	1777.64
631.68	1722.34
631.87	1742.82
632.06	1665.00
632.25	1886.18
632.44	1812.45
632.63	1710.05
632.82	1716.20
633.01	1667.05
633.20	1744.87
633.39	1593.32
633.58	1609.70
633.77	1779.68
633.96	1685.48
634.15	1728.49
634.34	1718.25
634.53	1830.88
634.72	1648.61
634.91	1583.08
635.10	1830.88
635.29	1802.21
635.48	1724.39
635.67	1644.52
635.86	1697.77
636.05	1837.03
636.24	1732.58
636.43	1742.82
636.62	1751.01
636.81	1656.81
637.00	1718.25
637.19	1652.71
637.38	1728.49
637.57	1656.81
637.76	1751.01
637.95	1800.16
638.14	1677.29
638.33	1728.49
638.52	1716.20
638.71	1609.70
638.89	1609.70
639.08	1771.49
639.27	1775.59
639.46	1720.29
639.65	1794.02
639.84	1773.54
640.03	1847.27
640.22	1669.09
640.41	1861.60
640.60	1669.09
640.79	1718.25
640.98	1708.01
641.17	1814.50
641.36	1806.31
641.55	1761.25
641.74	1673.19
641.92	1732.58
642.11	1740.77
642.30	1691.62
642.49	1660.90
642.68	1759.21
642.87	1777.64
643.06	1849.32
643.25	1748.97
643.44	1673.19
643.63	1697.77
643.82	1757.16
644.00	1665.00
644.19	1683.43
644.38	1648.61
644.57	1820.64
644.76	1820.64
644.95	1787.88
645.14	1742.82
645.33	1689.57
645.52	1742.82
645.71	1703.91
645.89	1669.09
646.08	1652.71
646.27	1689.57
646.46	1800.16
646.65	1648.61
646.84	1701.86
647.03	1703.91
647.22	1755.11
647.40	1691.62
647.59	1765.35
647.78	1646.57
647.97	1642.47
648.16	1611.75
648.35	1771.49
648.54	1736.68
648.73	1720.29
648.91	1751.01
649.10	1673.19
649.29	1648.61
649.48	1710.05
649.67	1685.48
649.86	1728.49
650.05	1734.63
650.23	1812.45
650.42	1589.22
650.61	1796.07
650.80	1761.25
650.99	1787.88
651.18	1740.77
651.36	1783.78
651.55	1708.01
651.74	1746.92
651.93	1712.10
652.12	1724.39
652.31	1755.11
652.49	1708.01
652.68	1679.33
652.87	1791.97
653.06	1753.06
653.25	1847.27
653.44	1658.85
653.62	1845.22
653.81	1718.25
654.00	1656.81
654.19	1677.29
654.38	1828.84
654.56	1695.72
654.75	1665.00
654.94	1781.73
655.13	1718.25
655.32	1732.58
655.51	1818.60
655.69	1656.81
655.88	1769.44
656.07	1595.37
656.26	1744.87
656.45	1665.00
656.63	1736.68
656.82	1763.30
657.01	1824.74
657.20	1697.77
657.38	1763.30
657.57	1701.86
657.76	1722.34
657.95	1796.07
658.14	1775.59
658.32	1705.96
658.51	1636.33
658.70	1701.86
658.89	1773.54
659.08	1738.73
659.26	1755.11
659.45	1665.00
659.64	1767.40
659.83	1728.49
660.01	1929.19
660.20	1769.44
660.39	1744.87
660.58	1583.08
660.76	1763.30
660.95	1720.29
661.14	1714.15
661.33	1691.62
661.51	1685.48
661.70	1683.43
661.89	1755.11
662.08	1730.53
662.26	1681.38
662.45	1640.42
662.64	1779.68
662.83	1701.86
663.01	1689.57
663.20	1726.44
663.39	1818.60
663.58	1722.34
663.76	1691.62
663.95	1736.68
664.14	1705.96
664.32	1705.96
664.51	1695.72
664.70	1675.24
664.89	1732.58
665.07	1638.38
665.26	1785.83
665.45	1650.66
665.64	1777.64
665.82	1767.40
666.01	1806.31
666.20	1714.15
666.38	1804.26
666.57	1816.55
666.76	2203.61
666.95	4485.05
667.13	10184.55
667.32	15183.64
667.51	17719.03
667.69	18994.91
667.88	17633.01
668.07	12212.04
668.25	9490.29
668.44	8128.39
668.63	7202.71
668.81	6836.12
669.00	6195.11
669.19	5863.33
669.38	5070.77
669.56	4632.51
669.75	3893.19
669.94	3487.69
670.12	2969.55
670.31	2619.35
670.50	2297.82
670.68	2127.84
670.87	1966.05
671.06	1861.60
671.24	1812.45
671.43	1867.75
671.62	1734.63
671.80	1718.25
671.99	1783.78
672.18	1648.61
672.36	1763.30
672.55	1722.34
672.74	1654.76
672.92	1732.58
673.11	1753.06
673.29	1611.75
673.48	1710.05
673.67	1646.57
673.85	1861.60
674.04	1685.48
674.23	1714.15
674.41	1873.89
674.60	1650.66
674.79	1626.09
674.97	1626.09
675.16	1726.44
675.34	1734.63
675.53	1738.73
675.72	1777.64
675.90	1759.21
676.09	1665.00
676.28	1783.78
676.46	1658.85
676.65	1802.21
676.83	1673.19
677.02	1701.86
677.21	1687.53
677.39	1716.20
677.58	1640.42
677.77	1742.82
677.95	1570.79
678.14	1730.53
678.32	1789.92
678.51	1716.20
678.70	1845.22
678.88	1718.25
679.07	1703.91
679.25	1744.87
679.44	1705.96
679.63	1609.70
679.81	1804.26
680.00	1738.73
680.18	1681.38
680.37	1800.16
680.55	1800.16
680.74	1640.42
680.93	1583.08
681.11	1665.00
681.30	1693.67
681.48	1644.52
681.67	1775.59
681.85	1742.82
682.04	1714.15
682.23	1771.49
682.41	1796.07
682.60	1669.09
682.78	1736.68
682.97	1697.77
683.15	1691.62
683.34	1759.21
683.53	1777.64
683.71	1568.74
683.90	1814.50
684.08	1734.63
684.27	1652.71
684.45	1744.87
684.64	1798.12
684.82	1718.25
685.01	1753.06
685.19	1716.20
685.38	1808.36
685.57	1736.68
685.75	1714.15
685.94	1714.15
686.12	1593.32
686.31	1773.54
686.49	1877.99
686.68	1740.77
686.86	1693.67
687.05	1773.54
687.23	1777.64
687.42	1630.18
687.60	1624.04
687.79	1685.48
687.97	1738.73
688.16	1791.97
688.34	1789.92
688.53	1660.90
688.71	1742.82
688.90	1816.55
689.08	1738.73
689.27	1640.42
689.45	1806.31
689.64	1751.01
689.82	1765.35
690.01	1658.85
690.19	1697.77
690.38	1761.25
690.56	1796.07
690.75	1603.56
690.93	1718.25
691.12	1701.86
691.30	1724.39
691.49	1708.01
691.67	1763.30
691.86	1828.84
692.04	1708.01
692.23	1763.30
692.41	1726.44
692.60	1861.60
692.78	1812.45
692.97	1712.10
693.15	1603.56
693.34	1882.08
693.52	1820.64
693.71	1693.67
693.89	1642.47
694.08	1720.29
694.26	1761.25
694.44	1697.77
694.63	1648.61
694.81	1755.11
695.00	1662.95
695.18	1773.54
695.37	1916.90
695.55	1685.48
695.74	1712.10
695.92	1667.05
696.10	1814.50
696.29	1632.23
696.47	1746.92
696.66	1615.85
696.84	1677.29
697.03	1671.14
697.21	1847.27
697.40	2346.97
697.58	1775.59
697.76	1769.44
697.95	1724.39
698.13	1624.04
698.32	1662.95
698.50	1769.44
698.68	1765.35
698.87	1687.53
699.05	1808.36
699.24	1730.53
699.42	1685.48
699.61	1720.29
699.79	1714.15
699.97	1812.45
700.16	1648.61
700.34	1632.23
700.53	1724.39
700.71	1812.45
700.89	1742.82
701.08	1744.87
701.26	1658.85
701.45	2179.04
701.63	1697.77
701.81	1724.39
702.00	1730.53
702.18	1738.73
702.37	1667.05
702.55	1789.92
702.73	1769.44
702.92	1617.90
703.10	1796.07
703.28	1718.25
703.47	1689.57
703.65	1746.92
703.84	1761.25
704.02	1708.01
704.20	1771.49
704.39	1703.91
704.57	1705.96
704.75	1712.10
704.94	1794.02
705.12	1650.66
705.30	1755.11
705.49	2209.76
705.67	4411.32
705.86	9193.33
706.04	12345.16
706.22	14337.83
706.41	15204.12
706.59	13877.04
706.77	9502.58
706.96	7438.22
707.14	6526.88
707.32	5805.99
707.51	5535.66
707.69	4896.69
707.87	4102.08
708.06	3485.64
708.24	2977.75
708.42	2389.98
708.61	2248.67
708.79	1943.52
708.97	1894.37
709.16	1832.93
709.34	1796.07
709.52	1804.26
709.71	1710.05
709.89	1724.39
710.07	1658.85
710.26	1728.49
710.44	1734.63
710.62	1763.30
710.80	1642.47
710.99	1808.36
711.17	1769.44
711.35	1697.77
711.54	1654.76
711.72	1841.12
711.90	1708.01
712.09	1751.01
712.27	1636.33
712.45	1681.38
712.63	1761.25
712.82	1734.63
713.00	1691.62
713.18	1730.53
713.37	1726.44
713.55	1781.73
713.73	1787.88
713.91	1677.29
714.10	1705.96
714.28	1687.53
714.46	1751.01
714.65	1810.40
714.83	1814.50
715.01	1716.20
715.19	1724.39
715.38	1636.33
715.56	1783.78
715.74	1689.57
715.92	1632.23
716.11	1853.41
716.29	1628.14
716.47	1705.96
716.65	1673.19
716.84	1632.23
717.02	1779.68
717.20	1574.89
717.38	1716.20
717.57	1730.53
717.75	1751.01
717.93	1693.67
718.11	1699.81
718.30	1671.14
718.48	1773.54
718.66	1734.63
718.84	1781.73
719.03	1691.62
719.21	1701.86
719.39	1794.02
719.57	1771.49
719.75	1808.36
719.94	1714.15
720.12	1699.81
720.30	1652.71
720.48	1716.20
720.67	1671.14
720.85	1675.24
721.03	1771.49
721.21	1716.20
721.39	1832.93
721.58	1765.35
721.76	1726.44
721.94	1710.05
722.12	1724.39
722.30	1804.26
722.49	1724.39
722.67	1775.59
722.85	1724.39
723.03	1632.23
723.21	1691.62
723.40	1691.62
723.58	1771.49
723.76	1697.77
723.94	1826.79
724.12	1685.48
724.30	1773.54
724.49	1742.82
724.67	1691.62
724.85	1820.64
725.03	1654.76
725.21	1755.11
725.40	1783.78
725.58	1667.05
725.76	1787.88
725.94	1677.29
726.12	1665.00
726.30	1695.72
726.49	1708.01
726.67	1699.81
726.85	1746.92
727.03	1804.26
727.21	2158.56
727.39	2893.78
727.57	3807.17
727.76	4173.76
727.94	4446.14
728.12	4458.43
728.30	3686.34
728.48	2942.93
728.66	2719.70
728.84	2498.52
729.03	2400.22
729.21	2211.81
729.39	1974.24
729.57	1861.60
729.75	1812.45
729.93	1847.27
730.11	1712.10
730.30	1730.53
730.48	1626.09
730.66	1851.36
730.84	1742.82
731.02	1771.49
731.20	1685.48
731.38	1810.40
731.56	1714.15
731.74	1697.77
731.93	1738.73
732.11	1624.04
732.29	1634.28
732.47	1740.77
732.65	1697.77
732.83	1734.63
733.01	1689.57
733.19	1691.62
733.37	1796.07
733.56	1611.75
733.74	1714.15
733.92	1773.54
734.10	1746.92
734.28	1728.49
734.46	1681.38
734.64	1691.62
734.82	1746.92
735.00	1708.01
735.18	1730.53
735.36	1650.66
735.54	1662.95
735.73	1662.95
735.91	1683.43
736.09	1726.44
736.27	1648.61
736.45	1847.27
736.63	1624.04
736.81	1640.42
736.99	1794.02
737.17	1755.11
737.35	1744.87
737.53	1703.91
737.71	1718.25
737.89	1839.08
738.07	1656.81
738.25	1679.33
738.43	1632.23
738.61	1748.97
738.80	1724.39
738.98	1607.66
739.16	1695.72
739.34	1660.90
739.52	1755.11
739.70	1681.38
739.88	1779.68
740.06	1812.45
740.24	1658.85
740.42	1841.12
740.60	1673.19
740.78	1626.09
740.96	1691.62
741.14	1636.33
741.32	1748.97
741.50	1705.96
741.68	1871.84
741.86	1773.54
742.04	1710.05
742.22	1689.57
742.40	1767.40
742.58	1816.55
742.76	1693.67
742.94	1744.87
743.12	1634.28
743.30	1695.72
743.48	1658.85
743.66	1726.44
743.84	1746.92
744.02	1751.01
744.20	1677.29
744.38	1589.22
744.56	1658.85
744.74	1736.68
744.92	1671.14
745.10	1771.49
745.28	1787.88
745.46	1791.97
745.64	1677.29
745.82	1691.62
746.00	1677.29
746.18	1742.82
746.36	1593.32
746.54	1759.21
746.72	1687.53
746.90	1632.23
747.08	1865.70
747.26	1677.29
747.44	1789.92
747.62	1751.01
747.80	1681.38
747.98	1787.88
748.15	1746.92
748.33	1791.97
748.51	1738.73
748.69	1802.21
748.87	1638.38
749.05	1695.72
749.23	1732.58
749.41	1734.63
749.59	1710.05
749.77	1722.34
749.95	1691.62
750.13	1685.48
750.31	1767.40
750.49	1812.45
750.67	1675.24
750.85	1849.32
751.03	1705.96
751.20	1742.82
751.38	1644.52
751.56	1710.05
751.74	1798.12
751.92	1679.33
752.10	1609.70
752.28	1779.68
752.46	1636.33
752.64	1693.67
752.82	1708.01
753.00	1783.78
753.18	1689.57
753.35	1761.25
753.53	1757.16
753.71	1771.49
753.89	1759.21
754.07	1748.97
754.25	1757.16
754.43	1708.01
754.61	1624.04
754.79	1683.43
754.97	1673.19
755.14	1775.59
755.32	1673.19
755.50	1777.64
755.68	1701.86
755.86	1708.01
756.04	1695.72
756.22	1648.61
756.40	1710.05
756.57	1808.36
756.75	1619.94
756.93	1710.05
757.11	1763.30
757.29	1673.19
757.47	1632.23
757.65	1681.38
757.82	1591.27
758.00	1734.63
758.18	1718.25
758.36	1685.48
758.54	1822.69
758.72	1636.33
758.90	1730.53
759.07	1755.11
759.25	1626.09
759.43	1777.64
759.61	1665.00
759.79	2217.95
759.97	1763.30
760.15	1642.47
760.32	1665.00
760.50	1701.86
760.68	1759.21
760.86	1603.56
761.04	1763.30
761.22	1722.34
761.39	1697.77
761.57	1757.16
761.75	1693.67
761.93	1742.82
762.11	1714.15
762.28	1767.40
762.46	1710.05
762.64	1800.16
762.82	1611.75
763.00	1667.05
763.18	1765.35
763.35	1597.42
763.53	1724.39
763.71	1794.02
763.89	1712.10
764.07	1753.06
764.24	1759.21
764.42	1748.97
764.60	1755.11
764.78	1720.29
764.96	1681.38
765.13	1744.87
765.31	1720.29
765.49	1767.40
765.67	1650.66
765.84	1636.33
766.02	1621.99
766.20	1613.80
766.38	1755.11
766.56	1751.01
766.73	1787.88
766.91	1728.49
767.09	1746.92
767.27	1730.53
767.44	1624.04
767.62	1730.53
767.80	1624.04
767.98	1712.10
768.15	1667.05
768.33	1685.48
768.51	1724.39
768.69	1687.53
768.87	1667.05
769.04	1736.68
769.22	1865.70
769.40	1816.55
769.58	1861.60
769.75	1785.83
769.93	1804.26
770.11	1777.64
770.28	1677.29
770.46	1720.29
770.64	1724.39
770.82	1753.06
770.99	1734.63
771.17	1791.97
771.35	1714.15
771.53	1685.48
771.70	1767.40
771.88	1685.48
772.06	1683.43
772.23	1708.01
772.41	1781.73
772.59	1742.82
772.77	1640.42
772.94	1679.33
773.12	1748.97
773.30	1691.62
773.47	1744.87
773.65	1671.14
773.83	1841.12
774.01	1683.43
774.18	1728.49
774.36	1683.43
774.54	1609.70
774.71	1703.91
774.89	1593.32
775.07	1687.53
775.24	1681.38
775.42	1681.38
775.60	1830.88
775.78	1710.05
775.95	1648.61
776.13	1660.90
776.31	1619.94
776.48	1744.87
776.66	1800.16
776.84	1669.09
777.01	1595.37
777.19	1740.77
777.37	1675.24
777.54	1681.38
777.72	1857.51
777.90	1693.67
778.07	1677.29
778.25	1929.19
778.43	1781.73
778.60	1660.90
778.78	1710.05
778.96	1765.35
779.13	1705.96
779.31	1787.88
779.49	1710.05
779.66	1755.11
779.84	1632.23
780.01	1720.29
780.19	1716.20
780.37	1796.07
780.54	1712.10
780.72	1683.43
780.90	1701.86
781.07	1691.62
781.25	1804.26
781.43	1734.63
781.60	1687.53
781.78	1746.92
781.95	1714.15
782.13	1699.81
782.31	1695.72
782.48	1607.66
782.66	1679.33
782.83	1812.45
783.01	1746.92
783.19	1828.84
783.36	1716.20
783.54	1646.57
783.72	1724.39
783.89	1662.95
784.07	1673.19
784.24	1812.45
784.42	1789.92
784.60	1667.05
784.77	1732.58
784.95	1654.76
785.12	1693.67
785.30	1763.30
785.47	1689.57
785.65	1748.97
785.83	1722.34
786.00	1691.62
786.18	1740.77
786.35	1613.80
786.53	1693.67
786.71	1769.44
786.88	1708.01
787.06	1710.05
787.23	1720.29
787.41	1660.90
787.58	1738.73
787.76	1699.81
787.94	1656.81
788.11	1751.01
788.29	1718.25
788.46	1624.04
788.64	1574.89
788.81	1677.29
788.99	1699.81
789.16	1669.09
789.34	1720.29
789.52	1687.53
789.69	1703.91
789.87	1583.08
790.04	1693.67
790.22	1677.29
790.39	1689.57
790.57	1671.14
790.74	1695.72
790.92	1730.53
791.09	1683.43
791.27	1697.77
791.44	1812.45
791.62	1589.22
791.79	1796.07
791.97	1767.40
792.15	1892.32
792.32	1685.48
792.50	1732.58
792.67	1857.51
792.85	1777.64
793.02	1699.81
793.20	1673.19
793.37	1632.23
793.55	1648.61
793.72	1638.38
793.90	1748.97
794.07	1677.29
794.25	1673.19
794.42	1697.77
794.60	1714.15
794.77	1761.25
794.95	1798.12
795.12	1763.30
795.30	1697.77
795.47	1572.84
795.65	1912.80
795.82	1687.53
796.00	1658.85
796.17	1701.86
796.34	1736.68
796.52	1730.53
796.69	1673.19
796.87	1705.96
797.04	1701.86
797.22	1708.01
797.39	1796.07
797.57	1673.19
797.74	1746.92
797.92	1724.39
798.09	1697.77
798.27	1783.78
798.44	1689.57
798.62	1712.10
798.79	1732.58
798.96	1746.92
799.14	1632.23
799.31	1877.99
799.49	1687.53
799.66	1636.33
799.84	1789.92
800.01	1726.44
800.19	1681.38
800.36	1656.81
800.53	1691.62
800.71	1714.15
800.88	1779.68
801.06	1689.57
801.23	1699.81
801.41	1703.91
801.58	1662.95
801.75	1738.73
801.93	1751.01
802.10	1744.87
802.28	1695.72
802.45	1751.01
802.63	1767.40
802.80	1853.41
802.97	1742.82
803.15	1718.25
803.32	1746.92
803.50	1648.61
803.67	1732.58
803.84	1605.61
804.02	1701.86
804.19	1683.43
804.37	1568.74
804.54	1669.09
804.71	1787.88
804.89	1726.44
805.06	1724.39
805.24	1665.00
805.41	1603.56
805.58	1630.18
805.76	1816.55
805.93	1714.15
806.10	1705.96
806.28	1804.26
806.45	1681.38
806.63	1746.92
806.80	1728.49
806.97	1660.90
807.15	1773.54
807.32	1638.38
807.49	1742.82
807.67	1640.42
807.84	1697.77
808.01	1632.23
808.19	1877.99
808.36	1828.84
808.54	1701.86
808.71	1613.80
808.88	1716.20
809.06	1730.53
809.23	1781.73
809.40	1564.65
809.58	1662.95
809.75	1632.23
809.92	1636.33
810.10	1851.36
810.27	1705.96
810.44	1730.53
810.62	1718.25
810.79	1775.59
810.96	1601.51
811.14	1714.15
811.31	1665.00
811.48	1699.81
811.66	1683.43
811.83	1742.82
812.00	1751.01
812.18	1736.68
812.35	1830.88
812.52	1710.05
812.69	1658.85
812.87	1701.86
813.04	1701.86
813.21	1636.33
813.39	1656.81
813.56	1701.86
813.73	1714.15
813.91	1589.22
814.08	1714.15
814.25	1705.96
814.42	1628.14
814.60	1587.18
814.77	1642.47
814.94	1685.48
815.12	1753.06
815.29	1783.78
815.46	1677.29
815.63	1712.10
815.81	1773.54
815.98	1658.85
816.15	1724.39
816.33	1630.18
816.50	1738.73
816.67	1728.49
816.84	1656.81
817.02	1691.62
817.19	1636.33
817.36	1662.95
817.53	1691.62
817.71	1679.33
817.88	1787.88
818.05	1746.92
818.22	1648.61
818.40	1763.30
818.57	1724.39
818.74	1753.06
818.91	1630.18
819.09	1757.16
819.26	1736.68
819.43	1550.31
819.60	1632.23
819.78	1759.21
819.95	1779.68
820.12	1671.14
820.29	1763.30
820.47	1759.21
820.64	1669.09
820.81	1638.38
820.98	1601.51
821.15	1703.91
821.33	1697.77
821.50	1615.85
821.67	1734.63
821.84	1697.77
822.02	1722.34
822.19	1753.06
822.36	1740.77
822.53	1748.97
822.70	1607.66
822.88	1773.54
823.05	1845.22
823.22	1751.01
823.39	1667.05
823.56	1718.25
823.74	1779.68
823.91	1693.67
824.08	1665.00
824.25	1617.90
824.42	1794.02
824.60	1603.56
824.77	1632.23
824.94	1656.81
825.11	1771.49
825.28	1566.70
825.45	1742.82
825.63	1722.34
825.80	1638.38
825.97	1726.44
826.14	1714.15
826.31	1695.72
826.48	1710.05
826.66	1718.25
826.83	1644.52
827.00	1716.20
827.17	1640.42
827.34	1648.61
827.51	1708.01
827.69	1689.57
827.86	1693.67
828.03	1683.43
828.20	1710.05
828.37	1601.51
828.54	1783.78
828.71	1693.67
828.89	1791.97
829.06	1789.92
829.23	1789.92
829.40	1589.22
829.57	1742.82
829.74	1712.10
829.91	1710.05
830.09	1695.72
830.26	1726.44
830.43	1816.55
830.60	1714.15
830.77	1736.68
830.94	1804.26
831.11	1705.96
831.28	1728.49
831.46	1847.27
831.63	1658.85
831.80	1742.82
831.97	1632.23
832.14	1726.44
832.31	1716.20
832.48	1732.58
832.65	1804.26
832.82	1708.01
832.99	1691.62
833.17	1568.74
833.34	1810.40
833.51	1732.58
833.68	1671.14
833.85	1697.77
834.02	1626.09
834.19	1634.28
834.36	1593.32
834.53	1714.15
834.70	1771.49
834.87	1732.58
835.04	1665.00
835.22	1626.09
835.39	1710.05
835.56	1685.48
835.73	1708.01
835.90	1820.64
836.07	1642.47
836.24	1740.77
836.41	1683.43
836.58	1695.72
836.75	1763.30
836.92	1703.91
837.09	1677.29
837.26	1697.77
837.43	1781.73
837.60	1748.97
837.77	1675.24
837.94	1695.72
838.12	1804.26
838.29	1689.57
838.46	1607.66
838.63	1607.66
838.80	1771.49
838.97	1718.25
839.14	1679.33
839.31	1734.63
839.48	1755.11
839.65	1689.57
839.82	1771.49
839.99	1718.25
840.16	1697.77
840.33	1718.25
840.50	1691.62
840.67	1619.94
840.84	1617.90
841.01	1742.82
841.18	1681.38
841.35	1691.62
841.52	1779.68
841.69	1804.26
841.86	1726.44
842.03	1751.01
842.20	1783.78
842.37	1630.18
842.54	1765.35
842.71	1722.34
842.88	1626.09
843.05	1757.16
843.22	1681.38
843.39	1728.49
843.56	1587.18
843.73	1771.49
843.90	1765.35
844.07	1689.57
844.24	1748.97
844.41	1789.92
844.58	1734.63
844.75	1728.49
844.92	1699.81
845.09	1783.78
845.26	1665.00
845.43	1748.97
845.60	1705.96
845.77	1773.54
845.94	1734.63
846.10	1794.02
846.27	1640.42
846.44	1681.38
846.61	1646.57
846.78	1765.35
846.95	1814.50
847.12	1695.72
847.29	1640.42
847.46	1662.95
847.63	1853.41
847.80	1642.47
847.97	1708.01
848.14	1826.79
848.31	1644.52
848.48	1673.19
848.65	1769.44
848.82	1652.71
848.98	1839.08
849.15	1771.49
849.32	1763.30
849.49	1724.39
849.66	1679.33
849.83	1699.81
850.00	1671.14
850.17	1681.38
850.34	1654.76
850.51	1605.61
850.68	1751.01
850.85	1759.21
851.01	1718.25
851.18	1693.67
851.35	1718.25
851.52	1728.49
851.69	1753.06
851.86	1603.56
852.03	1658.85
852.20	1724.39
852.37	1677.29
852.53	1597.42
852.70	1660.90
852.87	1695.72
853.04	1849.32
853.21	1685.48
853.38	1773.54
853.55	1781.73
853.72	1740.77
853.89	1626.09
854.05	1667.05
854.22	1665.00
854.39	1705.96
854.56	1671.14
854.73	1740.77
854.90	1665.00
855.07	1708.01
855.23	1679.33
855.40	1714.15
855.57	1699.81
855.74	1542.12
855.91	1902.56
856.08	1617.90
856.25	1601.51
856.41	1685.48
856.58	1669.09
856.75	1708.01
856.92	1626.09
857.09	1765.35
857.26	1730.53
857.42	1804.26
857.59	1726.44
857.76	1708.01
857.93	1728.49
858.10	1705.96
858.27	1767.40
858.43	1728.49
858.60	1665.00
858.77	1656.81
858.94	1656.81
859.11	1800.16
859.27	1671.14
859.44	1730.53
859.61	1771.49
859.78	1763.30
859.95	1705.96
860.12	1712.10
860.28	1798.12
860.45	1789.92
860.62	1697.77
860.79	1720.29
860.95	1683.43
861.12	1683.43
861.29	1648.61
861.46	1675.24
861.63	1607.66
861.79	1757.16
861.96	1751.01
862.13	1732.58
862.30	1798.12
862.47	1632.23
862.63	1722.34
862.80	1791.97
862.97	1734.63
863.14	1742.82
863.30	1740.77
863.47	1648.61
863.64	1808.36
863.81	1724.39
863.97	1730.53
864.14	1738.73
864.31	1640.42
864.48	1783.78
864.65	1648.61
864.81	1734.63
864.98	1742.82
865.15	1783.78
865.32	1714.15
865.48	1789.92
865.65	1808.36
865.82	1656.81
865.98	1771.49
866.15	1806.31
866.32	1689.57
866.49	1701.86
866.65	1703.91
866.82	1685.48
866.99	1724.39
867.16	1740.77
867.32	1652.71
867.49	1703.91
867.66	1597.42
867.83	1716.20
867.99	1654.76
868.16	1656.81
868.33	1632.23
868.49	1703.91
868.66	1658.85
868.83	1765.35
868.99	1742.82
869.16	1703.91
869.33	1728.49
869.50	1757.16
869.66	1722.34
869.83	1710.05
870.00	1613.80
870.16	1765.35
870.33	1699.81
870.50	1763.30
870.66	1654.76
870.83	1796.07
871.00	1695.72
871.17	1755.11
871.33	1718.25
871.50	1699.81
871.67	1724.39
871.83	1728.49
872.00	1800.16
872.17	1710.05
872.33	1859.56
872.50	1751.01
872.67	1644.52
872.83	1652.71
873.00	1714.15
873.17	1773.54
873.33	1701.86
873.50	1744.87
873.67	1726.44
873.83	1701.86
874.00	1724.39
874.16	1839.08
874.33	1722.34
874.50	1624.04
874.66	1798.12
874.83	1757.16
875.00	1740.77
875.16	1755.11
875.33	1751.01
875.50	1624.04
875.66	1732.58
875.83	1648.61
875.99	1726.44
876.16	1687.53
876.33	1615.85
876.49	1673.19
876.66	1779.68
876.83	1644.52
876.99	1662.95
877.16	1660.90
877.32	1728.49
877.49	1732.58
877.66	1677.29
877.82	1763.30
877.99	1726.44
878.15	1765.35
878.32	1667.05
878.49	1779.68
878.65	1708.01
878.82	1769.44
878.98	1642.47
879.15	1779.68
879.32	1714.15
879.48	1683.43
879.65	1742.82
879.81	1648.61
879.98	1705.96
880.15	1689.57
880.31	1701.86
880.48	1681.38
880.64	1734.63
880.81	1726.44
880.97	1837.03
881.14	1734.63
881.31	1652.71
881.47	1789.92
881.64	1783.78
881.80	1648.61
881.97	1728.49
882.13	1732.58
882.30	1665.00
882.47	1648.61
882.63	1710.05
882.80	1703.91
882.96	1732.58
883.13	1755.11
883.29	1652.71
883.46	1783.78
883.62	1802.21
883.79	1779.68
883.95	1738.73
884.12	1675.24
884.29	1849.32
884.45	1705.96
884.62	1753.06
884.78	1665.00
884.95	1800.16
885.11	1630.18
885.28	1744.87
885.44	1603.56
885.61	1748.97
885.77	1785.83
885.94	1789.92
886.10	1728.49
886.27	1730.53
886.43	1824.74
886.60	1791.97
886.76	1628.14
886.93	1638.38
887.09	1738.73
887.26	1648.61
887.42	1636.33
887.59	1798.12
887.75	1800.16
887.92	1791.97
888.08	1736.68
888.25	1763.30
888.41	1703.91
888.58	1730.53
888.74	1662.95
888.91	1755.11
>>>>>End Processed Spectral Data<<<<<
