SpectraSuite Data File
++++++++++++++++++++++++++++++++++++
Date: Mon Jun 06 14:56:37 CEST 2016
User: root
Dark Spectrum Present: No
Reference Spectrum Present: No
Number of Sampled Component Spectra: 1
Spectrometers: USB4C02835
Integration Time (usec): 100000 (USB4C02835)
Spectra Averaged: 1 (USB4C02835)
Boxcar Smoothing: 0 (USB4C02835)
Correct for Electrical Dark: No (USB4C02835)
Strobe/Lamp Enabled: No (USB4C02835)
Correct for Detector Non-linearity: No (USB4C02835)
Correct for Stray Light: No (USB4C02835)
Number of Pixels in Processed Spectrum: 3648
>>>>>Begin Processed Spectral Data<<<<<
177.47	1495.02
177.69	1495.02
177.91	1495.02
178.13	1449.96
178.36	1490.92
178.58	1679.33
178.80	1689.57
179.02	1652.71
179.24	1673.19
179.46	1644.52
179.68	1681.38
179.90	1638.38
180.13	1796.07
180.35	1654.76
180.57	1701.86
180.79	1685.48
181.01	1714.15
181.23	1751.01
181.45	1726.44
181.67	1771.49
181.90	1736.68
182.12	1662.95
182.34	1632.23
182.56	1708.01
182.78	1736.68
183.00	1718.25
183.22	1724.39
183.44	1583.08
183.66	1900.52
183.89	1769.44
184.11	1658.85
184.33	1724.39
184.55	1751.01
184.77	1779.68
184.99	1740.77
185.21	1708.01
185.43	1906.66
185.65	1675.24
185.87	1701.86
186.10	1816.55
186.32	1929.19
186.54	1665.00
186.76	1720.29
186.98	1791.97
187.20	1652.71
187.42	1671.14
187.64	1708.01
187.86	1662.95
188.08	1732.58
188.30	1675.24
188.52	1656.81
188.75	1785.83
188.97	1779.68
189.19	1673.19
189.41	1673.19
189.63	1812.45
189.85	1691.62
190.07	1619.94
190.29	1728.49
190.51	1751.01
190.73	1615.85
190.95	1847.27
191.17	1697.77
191.39	1638.38
191.61	1697.77
191.84	1644.52
192.06	1740.77
192.28	1597.42
192.50	1806.31
192.72	1726.44
192.94	1710.05
193.16	1759.21
193.38	1740.77
193.60	1697.77
193.82	1669.09
194.04	1765.35
194.26	1665.00
194.48	1673.19
194.70	1650.66
194.92	1660.90
195.14	1755.11
195.36	1638.38
195.58	1720.29
195.80	1716.20
196.02	1660.90
196.24	1714.15
196.46	1667.05
196.69	1640.42
196.91	1896.42
197.13	1759.21
197.35	1677.29
197.57	1740.77
197.79	1714.15
198.01	1710.05
198.23	1722.34
198.45	1742.82
198.67	1675.24
198.89	1744.87
199.11	1681.38
199.33	1662.95
199.55	1560.55
199.77	1730.53
199.99	1759.21
200.21	1677.29
200.43	1767.40
200.65	1613.80
200.87	1558.50
201.09	1810.40
201.31	1660.90
201.53	1769.44
201.75	1734.63
201.97	1732.58
202.19	1681.38
202.41	1763.30
202.63	1816.55
202.85	1720.29
203.07	1732.58
203.29	1669.09
203.51	1656.81
203.73	1669.09
203.95	1847.27
204.17	1746.92
204.39	1708.01
204.61	1712.10
204.83	1660.90
205.05	1738.73
205.27	1718.25
205.49	1767.40
205.71	1640.42
205.93	1626.09
206.15	1636.33
206.37	1628.14
206.59	1699.81
206.81	1626.09
207.03	1634.28
207.25	1650.66
207.47	1761.25
207.69	1736.68
207.91	1802.21
208.13	1765.35
208.34	1658.85
208.56	1605.61
208.78	1736.68
209.00	1658.85
209.22	1607.66
209.44	1693.67
209.66	1716.20
209.88	1646.57
210.10	1726.44
210.32	1724.39
210.54	1734.63
210.76	1685.48
210.98	1695.72
211.20	1583.08
211.42	1761.25
211.64	1847.27
211.86	1736.68
212.08	1771.49
212.30	1744.87
212.52	1669.09
212.74	1699.81
212.96	1693.67
213.17	1732.58
213.39	1751.01
213.61	1705.96
213.83	1679.33
214.05	1652.71
214.27	1753.06
214.49	1599.46
214.71	1632.23
214.93	1701.86
215.15	1697.77
215.37	1712.10
215.59	1624.04
215.81	1705.96
216.03	1812.45
216.24	1724.39
216.46	1699.81
216.68	1751.01
216.90	1683.43
217.12	1738.73
217.34	1656.81
217.56	1660.90
217.78	1882.08
218.00	1804.26
218.22	1634.28
218.44	1710.05
218.66	1712.10
218.87	1775.59
219.09	1669.09
219.31	1675.24
219.53	1695.72
219.75	1732.58
219.97	1712.10
220.19	1691.62
220.41	1689.57
220.63	1804.26
220.85	1753.06
221.06	1634.28
221.28	1765.35
221.50	1697.77
221.72	1675.24
221.94	1689.57
222.16	1699.81
222.38	1746.92
222.60	1662.95
222.82	1665.00
223.03	1783.78
223.25	1605.61
223.47	1738.73
223.69	1859.56
223.91	1712.10
224.13	1693.67
224.35	1673.19
224.57	1818.60
224.78	1748.97
225.00	1648.61
225.22	1658.85
225.44	1742.82
225.66	1687.53
225.88	1734.63
226.10	1755.11
226.32	1650.66
226.53	1806.31
226.75	1656.81
226.97	1732.58
227.19	1687.53
227.41	1669.09
227.63	1615.85
227.85	1646.57
228.06	1710.05
228.28	1740.77
228.50	1718.25
228.72	1652.71
228.94	1658.85
229.16	1611.75
229.37	1673.19
229.59	1691.62
229.81	1798.12
230.03	1667.05
230.25	1628.14
230.47	1587.18
230.69	1656.81
230.90	1708.01
231.12	1634.28
231.34	1718.25
231.56	1697.77
231.78	1587.18
232.00	1712.10
232.21	1720.29
232.43	1669.09
232.65	1560.55
232.87	1705.96
233.09	1673.19
233.30	1761.25
233.52	1689.57
233.74	1662.95
233.96	1746.92
234.18	1695.72
234.40	1648.61
234.61	1798.12
234.83	1560.55
235.05	1509.35
235.27	1722.34
235.49	1796.07
235.70	1689.57
235.92	1787.88
236.14	1687.53
236.36	1816.55
236.58	1646.57
236.79	1738.73
237.01	1710.05
237.23	1665.00
237.45	1875.94
237.67	1626.09
237.88	1669.09
238.10	1832.93
238.32	1611.75
238.54	1736.68
238.76	1646.57
238.97	1660.90
239.19	1660.90
239.41	1812.45
239.63	1751.01
239.85	1740.77
240.06	1683.43
240.28	1705.96
240.50	1767.40
240.72	1644.52
240.93	1720.29
241.15	1808.36
241.37	1755.11
241.59	1822.69
241.81	1716.20
242.02	1677.29
242.24	1769.44
242.46	1718.25
242.68	1673.19
242.89	1716.20
243.11	1771.49
243.33	1662.95
243.55	1751.01
243.76	1730.53
243.98	1718.25
244.20	1681.38
244.42	1685.48
244.64	1699.81
244.85	1652.71
245.07	1609.70
245.29	1744.87
245.51	1703.91
245.72	1726.44
245.94	1763.30
246.16	1671.14
246.38	1695.72
246.59	1660.90
246.81	1656.81
247.03	1689.57
247.24	1675.24
247.46	1755.11
247.68	1636.33
247.90	1708.01
248.11	1679.33
248.33	1693.67
248.55	1705.96
248.77	1701.86
248.98	1718.25
249.20	1722.34
249.42	1669.09
249.64	1636.33
249.85	1656.81
250.07	1636.33
250.29	1738.73
250.50	1730.53
250.72	1593.32
250.94	1744.87
251.16	1765.35
251.37	1769.44
251.59	1751.01
251.81	1785.83
252.02	1740.77
252.24	1673.19
252.46	1724.39
252.68	1638.38
252.89	1703.91
253.11	1638.38
253.33	1757.16
253.54	1767.40
253.76	1566.70
253.98	1734.63
254.20	1660.90
254.41	1677.29
254.63	1636.33
254.85	1632.23
255.06	1722.34
255.28	1814.50
255.50	1601.51
255.71	1677.29
255.93	1640.42
256.15	1783.78
256.36	1744.87
256.58	1636.33
256.80	1740.77
257.02	1687.53
257.23	1613.80
257.45	1718.25
257.67	1771.49
257.88	1699.81
258.10	1683.43
258.32	1751.01
258.53	1685.48
258.75	1712.10
258.97	1628.14
259.18	1738.73
259.40	1685.48
259.62	1812.45
259.83	1693.67
260.05	1708.01
260.27	1880.04
260.48	1796.07
260.70	1648.61
260.92	1697.77
261.13	1699.81
261.35	1689.57
261.57	1722.34
261.78	1576.94
262.00	1691.62
262.22	1693.67
262.43	1609.70
262.65	1673.19
262.86	1734.63
263.08	1888.23
263.30	1626.09
263.51	1640.42
263.73	1677.29
263.95	1810.40
264.16	1683.43
264.38	1638.38
264.60	1730.53
264.81	1681.38
265.03	1724.39
265.25	1769.44
265.46	1714.15
265.68	1712.10
265.89	1671.14
266.11	1652.71
266.33	1837.03
266.54	1763.30
266.76	1751.01
266.98	1744.87
267.19	1777.64
267.41	1685.48
267.62	1701.86
267.84	1624.04
268.06	1714.15
268.27	1771.49
268.49	1785.83
268.70	1769.44
268.92	1673.19
269.14	1671.14
269.35	1621.99
269.57	1730.53
269.79	1746.92
270.00	1722.34
270.22	1873.89
270.43	1636.33
270.65	1634.28
270.87	1738.73
271.08	1796.07
271.30	1744.87
271.51	1679.33
271.73	1683.43
271.95	1794.02
272.16	1667.05
272.38	1757.16
272.59	1718.25
272.81	1669.09
273.02	1669.09
273.24	1777.64
273.46	1724.39
273.67	1605.61
273.89	1683.43
274.10	1648.61
274.32	1710.05
274.54	1681.38
274.75	1667.05
274.97	1681.38
275.18	1757.16
275.40	1742.82
275.61	1753.06
275.83	1728.49
276.05	1683.43
276.26	1662.95
276.48	1769.44
276.69	1679.33
276.91	1667.05
277.12	1763.30
277.34	1787.88
277.55	1740.77
277.77	1746.92
277.99	1730.53
278.20	1636.33
278.42	1728.49
278.63	1675.24
278.85	1662.95
279.06	1660.90
279.28	1718.25
279.49	1716.20
279.71	1714.15
279.93	1724.39
280.14	1728.49
280.36	1636.33
280.57	1740.77
280.79	1757.16
281.00	1632.23
281.22	1675.24
281.43	1830.88
281.65	1587.18
281.86	1595.37
282.08	1763.30
282.29	1814.50
282.51	1605.61
282.73	1621.99
282.94	1630.18
283.16	1730.53
283.37	1810.40
283.59	1726.44
283.80	1708.01
284.02	1718.25
284.23	1736.68
284.45	1591.27
284.66	1652.71
284.88	1619.94
285.09	1734.63
285.31	1787.88
285.52	1748.97
285.74	1568.74
285.95	1744.87
286.17	1812.45
286.38	1755.11
286.60	1634.28
286.81	1673.19
287.03	1697.77
287.24	1603.56
287.46	1720.29
287.67	1667.05
287.89	1828.84
288.10	1654.76
288.32	1720.29
288.53	1763.30
288.75	1720.29
288.96	1763.30
289.18	1568.74
289.39	1722.34
289.61	1810.40
289.82	1748.97
290.04	1794.02
290.25	1656.81
290.47	1712.10
290.68	1609.70
290.90	1759.21
291.11	1603.56
291.33	1732.58
291.54	1734.63
291.76	1613.80
291.97	1712.10
292.18	1775.59
292.40	1640.42
292.61	1615.85
292.83	1769.44
293.04	1621.99
293.26	1740.77
293.47	1708.01
293.69	1646.57
293.90	1662.95
294.12	1804.26
294.33	1701.86
294.55	1699.81
294.76	1740.77
294.97	1861.60
295.19	1802.21
295.40	1593.32
295.62	1757.16
295.83	1734.63
296.05	1632.23
296.26	1812.45
296.48	1619.94
296.69	1621.99
296.90	1718.25
297.12	1779.68
297.33	1732.58
297.55	1693.67
297.76	1705.96
297.98	1789.92
298.19	1679.33
298.41	1722.34
298.62	1642.47
298.83	1791.97
299.05	1748.97
299.26	1669.09
299.48	1656.81
299.69	1693.67
299.90	1662.95
300.12	1591.27
300.33	1783.78
300.55	1693.67
300.76	1787.88
300.98	1630.18
301.19	1740.77
301.40	1681.38
301.62	1662.95
301.83	1716.20
302.05	1691.62
302.26	1728.49
302.47	1718.25
302.69	1660.90
302.90	1708.01
303.12	1562.60
303.33	1724.39
303.54	1791.97
303.76	1652.71
303.97	1728.49
304.19	1751.01
304.40	1662.95
304.61	1732.58
304.83	1849.32
305.04	1757.16
305.26	1732.58
305.47	1615.85
305.68	1669.09
305.90	1636.33
306.11	1814.50
306.33	1705.96
306.54	1671.14
306.75	1640.42
306.97	1591.27
307.18	1642.47
307.39	1742.82
307.61	1718.25
307.82	1697.77
308.04	1671.14
308.25	1703.91
308.46	1769.44
308.68	1716.20
308.89	1734.63
309.10	1751.01
309.32	1755.11
309.53	1720.29
309.74	1751.01
309.96	1679.33
310.17	1697.77
310.39	1683.43
310.60	1748.97
310.81	1640.42
311.03	1615.85
311.24	1685.48
311.45	1656.81
311.67	1804.26
311.88	1671.14
312.09	1687.53
312.31	1585.13
312.52	1738.73
312.73	1673.19
312.95	1634.28
313.16	1673.19
313.37	1769.44
313.59	1763.30
313.80	1740.77
314.01	1804.26
314.23	1642.47
314.44	1667.05
314.65	1673.19
314.87	1611.75
315.08	1669.09
315.29	1669.09
315.51	1665.00
315.72	1685.48
315.93	1873.89
316.15	1708.01
316.36	1632.23
316.57	1703.91
316.79	1746.92
317.00	1691.62
317.21	1667.05
317.43	1658.85
317.64	1685.48
317.85	1611.75
318.07	1656.81
318.28	1689.57
318.49	1789.92
318.70	1855.46
318.92	1769.44
319.13	1824.74
319.34	1777.64
319.56	1802.21
319.77	1771.49
319.98	1775.59
320.20	1746.92
320.41	1748.97
320.62	1724.39
320.83	1646.57
321.05	1855.46
321.26	1673.19
321.47	1685.48
321.69	1755.11
321.90	1644.52
322.11	1621.99
322.32	1746.92
322.54	1757.16
322.75	1662.95
322.96	1882.08
323.18	1632.23
323.39	1566.70
323.60	1681.38
323.81	1773.54
324.03	1652.71
324.24	1697.77
324.45	1767.40
324.66	1740.77
324.88	1746.92
325.09	1810.40
325.30	1761.25
325.52	1685.48
325.73	1785.83
325.94	1632.23
326.15	1601.51
326.37	1652.71
326.58	1765.35
326.79	1861.60
327.00	1689.57
327.22	1626.09
327.43	1617.90
327.64	1685.48
327.85	1746.92
328.07	1738.73
328.28	1818.60
328.49	1660.90
328.70	1646.57
328.92	1638.38
329.13	1656.81
329.34	1697.77
329.55	1761.25
329.76	1789.92
329.98	1638.38
330.19	1781.73
330.40	1732.58
330.61	1708.01
330.83	1755.11
331.04	1648.61
331.25	1730.53
331.46	1669.09
331.68	1642.47
331.89	1732.58
332.10	1705.96
332.31	1593.32
332.52	1730.53
332.74	1808.36
332.95	1638.38
333.16	1660.90
333.37	1699.81
333.58	1691.62
333.80	1746.92
334.01	1617.90
334.22	1675.24
334.43	1703.91
334.64	1685.48
334.86	1560.55
335.07	1640.42
335.28	1808.36
335.49	1609.70
335.70	1691.62
335.92	1851.36
336.13	1763.30
336.34	1658.85
336.55	1683.43
336.76	1753.06
336.98	1632.23
337.19	1724.39
337.40	1802.21
337.61	1837.03
337.82	1654.76
338.04	1730.53
338.25	1636.33
338.46	1687.53
338.67	1732.58
338.88	1644.52
339.09	1693.67
339.31	1624.04
339.52	1638.38
339.73	1658.85
339.94	1671.14
340.15	1751.01
340.36	1673.19
340.58	1705.96
340.79	1722.34
341.00	1726.44
341.21	1667.05
341.42	1769.44
341.63	1658.85
341.85	1714.15
342.06	1730.53
342.27	1640.42
342.48	1720.29
342.69	1632.23
342.90	1705.96
343.12	1791.97
343.33	1716.20
343.54	1767.40
343.75	1753.06
343.96	1665.00
344.17	1675.24
344.38	1677.29
344.60	1656.81
344.81	1660.90
345.02	1646.57
345.23	1781.73
345.44	1783.78
345.65	1716.20
345.86	1732.58
346.07	1755.11
346.29	1656.81
346.50	1712.10
346.71	1728.49
346.92	1773.54
347.13	1822.69
347.34	1656.81
347.55	1734.63
347.76	1734.63
347.98	1697.77
348.19	1701.86
348.40	1804.26
348.61	1681.38
348.82	1822.69
349.03	1718.25
349.24	1693.67
349.45	1824.74
349.66	1566.70
349.88	1654.76
350.09	1718.25
350.30	1808.36
350.51	1832.93
350.72	1689.57
350.93	1781.73
351.14	1705.96
351.35	1802.21
351.56	1728.49
351.77	1701.86
351.99	1687.53
352.20	1734.63
352.41	1779.68
352.62	1558.50
352.83	1695.72
353.04	1642.47
353.25	1769.44
353.46	1652.71
353.67	1675.24
353.88	1624.04
354.09	1726.44
354.30	1675.24
354.52	1716.20
354.73	1697.77
354.94	1714.15
355.15	1701.86
355.36	1814.50
355.57	1726.44
355.78	1705.96
355.99	1669.09
356.20	1695.72
356.41	1736.68
356.62	1751.01
356.83	1669.09
357.04	1800.16
357.25	1607.66
357.46	1708.01
357.68	1724.39
357.89	1619.94
358.10	1632.23
358.31	1767.40
358.52	1787.88
358.73	1648.61
358.94	1710.05
359.15	1652.71
359.36	1775.59
359.57	1714.15
359.78	1648.61
359.99	1787.88
360.20	1611.75
360.41	1695.72
360.62	1654.76
360.83	1740.77
361.04	1671.14
361.25	1751.01
361.46	1871.84
361.67	1734.63
361.88	1818.60
362.09	1816.55
362.30	1718.25
362.51	1640.42
362.72	1763.30
362.93	1763.30
363.14	1710.05
363.35	1726.44
363.56	1714.15
363.78	1710.05
363.99	1761.25
364.20	1646.57
364.41	1697.77
364.62	1847.27
364.83	1710.05
365.04	1677.29
365.25	1581.03
365.46	1798.12
365.67	1636.33
365.88	1667.05
366.09	1656.81
366.30	1724.39
366.51	1724.39
366.72	1695.72
366.93	1681.38
367.14	1701.86
367.35	1724.39
367.56	1675.24
367.77	1818.60
367.98	1697.77
368.18	1691.62
368.39	1765.35
368.60	1636.33
368.81	1734.63
369.02	1703.91
369.23	1761.25
369.44	1605.61
369.65	1755.11
369.86	1703.91
370.07	1689.57
370.28	1685.48
370.49	1746.92
370.70	1718.25
370.91	1673.19
371.12	1619.94
371.33	1746.92
371.54	1677.29
371.75	1837.03
371.96	1617.90
372.17	1648.61
372.38	1650.66
372.59	1705.96
372.80	1689.57
373.01	1722.34
373.22	1710.05
373.43	1705.96
373.64	1734.63
373.85	1740.77
374.06	1830.88
374.26	1769.44
374.47	1738.73
374.68	1763.30
374.89	1644.52
375.10	1662.95
375.31	1705.96
375.52	1677.29
375.73	1724.39
375.94	1603.56
376.15	1789.92
376.36	1689.57
376.57	1724.39
376.78	1695.72
376.99	1746.92
377.20	1777.64
377.40	1665.00
377.61	1867.75
377.82	1646.57
378.03	1781.73
378.24	1718.25
378.45	1660.90
378.66	1746.92
378.87	1621.99
379.08	1613.80
379.29	1578.98
379.50	1814.50
379.71	1662.95
379.91	1748.97
380.12	1728.49
380.33	1681.38
380.54	1722.34
380.75	1710.05
380.96	1619.94
381.17	1757.16
381.38	1710.05
381.59	1740.77
381.80	1697.77
382.00	1808.36
382.21	1814.50
382.42	1859.56
382.63	1816.55
382.84	1691.62
383.05	1804.26
383.26	1855.46
383.47	1773.54
383.68	1746.92
383.88	1726.44
384.09	1621.99
384.30	1751.01
384.51	1722.34
384.72	1667.05
384.93	1675.24
385.14	1640.42
385.35	1845.22
385.55	1562.60
385.76	1769.44
385.97	1687.53
386.18	1632.23
386.39	1638.38
386.60	1771.49
386.81	1726.44
387.02	1679.33
387.22	1615.85
387.43	1822.69
387.64	1812.45
387.85	1882.08
388.06	2205.66
388.27	4073.41
388.48	6528.92
388.68	8105.86
388.89	9402.22
389.10	9553.77
389.31	8482.69
389.52	7452.56
389.73	6481.82
389.93	6008.74
390.14	5658.54
390.35	5087.15
390.56	4587.45
390.77	3635.14
390.98	2914.26
391.18	2488.28
391.39	2054.11
391.60	1828.84
391.81	1802.21
392.02	1775.59
392.23	1873.89
392.43	1761.25
392.64	1824.74
392.85	1695.72
393.06	1769.44
393.27	1705.96
393.47	1640.42
393.68	1695.72
393.89	1708.01
394.10	1810.40
394.31	1669.09
394.52	1722.34
394.72	1697.77
394.93	1753.06
395.14	1630.18
395.35	1773.54
395.56	1675.24
395.76	1701.86
395.97	1781.73
396.18	1869.80
396.39	1882.08
396.60	1980.39
396.80	1820.64
397.01	1794.02
397.22	1822.69
397.43	1845.22
397.64	1675.24
397.84	1759.21
398.05	1920.99
398.26	1773.54
398.47	1687.53
398.67	1791.97
398.88	1712.10
399.09	1765.35
399.30	1714.15
399.51	1787.88
399.71	1705.96
399.92	1687.53
400.13	1675.24
400.34	1677.29
400.54	1744.87
400.75	1820.64
400.96	1724.39
401.17	1820.64
401.37	1775.59
401.58	1730.53
401.79	1714.15
402.00	1861.60
402.21	1992.67
402.41	1945.57
402.62	2025.44
402.83	2002.91
403.04	1994.72
403.24	2015.20
403.45	1837.03
403.66	1832.93
403.87	1810.40
404.07	1861.60
404.28	1941.47
404.49	1918.95
404.70	1773.54
404.90	1822.69
405.11	1822.69
405.32	1691.62
405.52	1669.09
405.73	1617.90
405.94	1656.81
406.15	1751.01
406.35	1753.06
406.56	1773.54
406.77	1691.62
406.98	1726.44
407.18	1722.34
407.39	1761.25
407.60	1691.62
407.80	1718.25
408.01	1701.86
408.22	1734.63
408.43	1703.91
408.63	1697.77
408.84	1757.16
409.05	1701.86
409.25	1662.95
409.46	1630.18
409.67	1716.20
409.88	1724.39
410.08	1720.29
410.29	1628.14
410.50	1751.01
410.70	1677.29
410.91	1607.66
411.12	1748.97
411.32	1744.87
411.53	1705.96
411.74	1828.84
411.95	1734.63
412.15	1810.40
412.36	1710.05
412.57	1689.57
412.77	1798.12
412.98	1716.20
413.19	1699.81
413.39	1800.16
413.60	1771.49
413.81	1802.21
414.01	1730.53
414.22	1783.78
414.43	1742.82
414.63	1714.15
414.84	1779.68
415.05	1665.00
415.25	1605.61
415.46	1804.26
415.67	1603.56
415.87	1679.33
416.08	1671.14
416.29	1673.19
416.49	1759.21
416.70	1673.19
416.91	1710.05
417.11	1693.67
417.32	1685.48
417.53	1718.25
417.73	1732.58
417.94	1681.38
418.15	1687.53
418.35	1642.47
418.56	1660.90
418.77	1824.74
418.97	1665.00
419.18	1681.38
419.38	1519.59
419.59	1763.30
419.80	1853.41
420.00	1675.24
420.21	1699.81
420.42	1812.45
420.62	1697.77
420.83	1599.46
421.04	1683.43
421.24	1626.09
421.45	1767.40
421.65	1714.15
421.86	1755.11
422.07	1742.82
422.27	1722.34
422.48	1781.73
422.69	1673.19
422.89	1691.62
423.10	1722.34
423.30	1675.24
423.51	1685.48
423.72	1718.25
423.92	1697.77
424.13	1669.09
424.33	1726.44
424.54	1746.92
424.75	1716.20
424.95	1787.88
425.16	1781.73
425.36	1679.33
425.57	1767.40
425.78	1714.15
425.98	1751.01
426.19	1705.96
426.39	1644.52
426.60	1710.05
426.81	1728.49
427.01	1722.34
427.22	1662.95
427.42	1599.46
427.63	1640.42
427.83	1755.11
428.04	1791.97
428.25	1728.49
428.45	1841.12
428.66	1796.07
428.86	1712.10
429.07	1685.48
429.28	1683.43
429.48	1671.14
429.69	1638.38
429.89	1636.33
430.10	1669.09
430.30	1794.02
430.51	1822.69
430.71	1660.90
430.92	1669.09
431.13	1621.99
431.33	1708.01
431.54	1687.53
431.74	1849.32
431.95	1806.31
432.15	1705.96
432.36	1658.85
432.56	1728.49
432.77	1818.60
432.98	1814.50
433.18	1769.44
433.39	1736.68
433.59	1685.48
433.80	1791.97
434.00	1863.65
434.21	1546.22
434.41	1705.96
434.62	1810.40
434.82	1699.81
435.03	1699.81
435.23	1755.11
435.44	1593.32
435.64	1644.52
435.85	1689.57
436.06	1837.03
436.26	1794.02
436.47	1742.82
436.67	1654.76
436.88	1665.00
437.08	1779.68
437.29	1757.16
437.49	1746.92
437.70	1652.71
437.90	1626.09
438.11	1843.17
438.31	1765.35
438.52	1808.36
438.72	1830.88
438.93	1873.89
439.13	1730.53
439.34	1849.32
439.54	1744.87
439.75	1761.25
439.95	1794.02
440.16	1671.14
440.36	1724.39
440.57	1675.24
440.77	1724.39
440.98	1724.39
441.18	1701.86
441.39	1697.77
441.59	1634.28
441.80	1789.92
442.00	1722.34
442.21	1759.21
442.41	1650.66
442.62	1789.92
442.82	1634.28
443.02	1695.72
443.23	1748.97
443.43	1617.90
443.64	1802.21
443.84	1714.15
444.05	1773.54
444.25	1812.45
444.46	1718.25
444.66	1726.44
444.87	1837.03
445.07	1640.42
445.28	1759.21
445.48	1796.07
445.69	1744.87
445.89	1867.75
446.09	1738.73
446.30	2002.91
446.50	2615.26
446.71	3592.14
446.91	4216.77
447.12	4581.31
447.32	4712.38
447.53	4202.43
447.73	3794.89
447.93	3430.35
448.14	3227.60
448.34	3100.62
448.55	2842.58
448.75	2807.77
448.96	2660.31
449.16	2439.13
449.36	2322.40
449.57	1992.67
449.77	1935.33
449.98	1814.50
450.18	1802.21
450.39	1828.84
450.59	1677.29
450.79	1748.97
451.00	1751.01
451.20	1755.11
451.41	1673.19
451.61	1779.68
451.81	1761.25
452.02	1662.95
452.22	1697.77
452.43	1667.05
452.63	1636.33
452.84	1746.92
453.04	1763.30
453.24	1810.40
453.45	1714.15
453.65	1673.19
453.86	1740.77
454.06	1681.38
454.26	1777.64
454.47	1736.68
454.67	1800.16
454.87	1728.49
455.08	1701.86
455.28	1820.64
455.49	1746.92
455.69	1748.97
455.89	1882.08
456.10	1791.97
456.30	1728.49
456.51	1724.39
456.71	1757.16
456.91	1775.59
457.12	1689.57
457.32	1773.54
457.52	1712.10
457.73	1783.78
457.93	1730.53
458.14	1759.21
458.34	1632.23
458.54	1730.53
458.75	1638.38
458.95	1798.12
459.15	1718.25
459.36	1830.88
459.56	1798.12
459.76	1818.60
459.97	1687.53
460.17	1695.72
460.37	1804.26
460.58	1724.39
460.78	1769.44
460.99	1697.77
461.19	1669.09
461.39	1705.96
461.60	1642.47
461.80	1804.26
462.00	1665.00
462.21	1714.15
462.41	1671.14
462.61	1634.28
462.82	1705.96
463.02	1693.67
463.22	1705.96
463.43	1857.51
463.63	1845.22
463.83	1763.30
464.04	1755.11
464.24	1800.16
464.44	1734.63
464.64	1665.00
464.85	1789.92
465.05	1763.30
465.25	1763.30
465.46	1681.38
465.66	1732.58
465.86	1726.44
466.07	1744.87
466.27	1689.57
466.47	1638.38
466.68	1652.71
466.88	1820.64
467.08	1787.88
467.29	1781.73
467.49	1703.91
467.69	1744.87
467.89	1724.39
468.10	1701.86
468.30	1730.53
468.50	1816.55
468.71	1748.97
468.91	1646.57
469.11	1800.16
469.31	1738.73
469.52	1607.66
469.72	1839.08
469.92	1808.36
470.13	1771.49
470.33	1753.06
470.53	1779.68
470.73	2107.36
470.94	2279.39
471.14	2387.93
471.34	2607.06
471.54	2406.36
471.75	2152.42
471.95	2080.74
472.15	2080.74
472.36	2056.16
472.56	2068.45
472.76	2115.55
472.96	2027.49
473.17	1964.00
473.37	1966.05
473.57	1839.08
473.77	1830.88
473.98	1742.82
474.18	1646.57
474.38	1904.61
474.58	1677.29
474.79	1779.68
474.99	1726.44
475.19	1791.97
475.39	1701.86
475.60	1687.53
475.80	1773.54
476.00	1716.20
476.20	1601.51
476.41	1689.57
476.61	1738.73
476.81	1837.03
477.01	1767.40
477.21	1869.80
477.42	1808.36
477.62	1605.61
477.82	1753.06
478.02	1683.43
478.23	1771.49
478.43	1677.29
478.63	1718.25
478.83	1675.24
479.03	1730.53
479.24	1771.49
479.44	1802.21
479.64	1753.06
479.84	1685.48
480.04	1654.76
480.25	1759.21
480.45	1660.90
480.65	1699.81
480.85	1708.01
481.06	1652.71
481.26	1734.63
481.46	1677.29
481.66	1662.95
481.86	1644.52
482.06	1714.15
482.27	1724.39
482.47	1716.20
482.67	1789.92
482.87	1695.72
483.07	1791.97
483.28	1699.81
483.48	1683.43
483.68	1701.86
483.88	1591.27
484.08	1634.28
484.29	1695.72
484.49	1722.34
484.69	1669.09
484.89	1771.49
485.09	1781.73
485.29	1740.77
485.50	1800.16
485.70	1619.94
485.90	1773.54
486.10	1796.07
486.30	1746.92
486.50	1769.44
486.71	1730.53
486.91	1818.60
487.11	1787.88
487.31	1621.99
487.51	1726.44
487.71	1691.62
487.91	1710.05
488.12	1644.52
488.32	1624.04
488.52	1638.38
488.72	1697.77
488.92	1746.92
489.12	1794.02
489.32	1734.63
489.53	1730.53
489.73	1648.61
489.93	1783.78
490.13	1675.24
490.33	1658.85
490.53	1679.33
490.73	1804.26
490.94	1599.46
491.14	1783.78
491.34	1814.50
491.54	2086.88
491.74	2574.30
491.94	2899.92
492.14	3069.91
492.34	2918.36
492.54	2793.43
492.75	2377.69
492.95	2437.08
493.15	2224.09
493.35	2240.48
493.55	2238.43
493.75	2115.55
493.95	2099.17
494.15	1970.15
494.35	1898.47
494.56	1877.99
494.76	1769.44
494.96	1705.96
495.16	1761.25
495.36	1708.01
495.56	1791.97
495.76	1675.24
495.96	1736.68
496.16	1677.29
496.36	1832.93
496.56	1759.21
496.77	1796.07
496.97	1726.44
497.17	1791.97
497.37	1640.42
497.57	1708.01
497.77	1812.45
497.97	1648.61
498.17	1759.21
498.37	1738.73
498.57	1689.57
498.77	1708.01
498.97	1759.21
499.17	1806.31
499.38	1677.29
499.58	1720.29
499.78	1791.97
499.98	1761.25
500.18	1656.81
500.38	1742.82
500.58	1837.03
500.78	2541.53
500.98	4497.34
501.18	5740.46
501.38	6506.40
501.58	6934.42
501.78	6471.58
501.98	5443.50
502.18	4779.96
502.38	4417.47
502.58	4014.02
502.78	3639.24
502.98	3538.89
503.18	3389.39
503.38	3104.72
503.59	2815.96
503.79	2623.45
503.99	2408.41
504.19	2295.77
504.39	2209.76
504.59	2117.60
504.79	2056.16
504.99	2070.50
505.19	1869.80
505.39	1787.88
505.59	1988.58
505.79	1902.56
505.99	1843.17
506.19	1775.59
506.39	1834.98
506.59	1740.77
506.79	1705.96
506.99	1830.88
507.19	1775.59
507.39	1804.26
507.59	1761.25
507.79	1673.19
507.99	1683.43
508.19	1779.68
508.39	1667.05
508.59	1689.57
508.79	1796.07
508.99	1832.93
509.19	1689.57
509.39	1794.02
509.59	1665.00
509.79	1675.24
509.99	1732.58
510.19	1824.74
510.39	1802.21
510.59	1748.97
510.79	1671.14
510.99	1634.28
511.19	1798.12
511.39	1869.80
511.59	1871.84
511.79	1847.27
511.99	1822.69
512.19	1810.40
512.38	1691.62
512.58	1638.38
512.78	1724.39
512.98	1830.88
513.18	1732.58
513.38	1646.57
513.58	1771.49
513.78	1679.33
513.98	1775.59
514.18	1744.87
514.38	1673.19
514.58	1740.77
514.78	1642.47
514.98	1673.19
515.18	1736.68
515.38	1636.33
515.58	1775.59
515.78	1669.09
515.98	1767.40
516.18	1728.49
516.38	1730.53
516.57	1667.05
516.77	1681.38
516.97	1769.44
517.17	1699.81
517.37	1605.61
517.57	1816.55
517.77	1701.86
517.97	1705.96
518.17	1791.97
518.37	1632.23
518.57	1701.86
518.77	1742.82
518.97	1742.82
519.16	1742.82
519.36	1699.81
519.56	1742.82
519.76	1738.73
519.96	1742.82
520.16	1849.32
520.36	1675.24
520.56	1691.62
520.76	1697.77
520.96	1693.67
521.16	1816.55
521.35	1796.07
521.55	1767.40
521.75	1671.14
521.95	1742.82
522.15	1712.10
522.35	1730.53
522.55	1705.96
522.75	1794.02
522.95	1671.14
523.14	1720.29
523.34	1720.29
523.54	1705.96
523.74	1771.49
523.94	1730.53
524.14	1667.05
524.34	1738.73
524.54	1855.46
524.73	1740.77
524.93	1751.01
525.13	1718.25
525.33	1654.76
525.53	1834.98
525.73	1781.73
525.93	1796.07
526.13	1644.52
526.32	1724.39
526.52	1775.59
526.72	1804.26
526.92	1726.44
527.12	1710.05
527.32	1683.43
527.52	1775.59
527.71	1851.36
527.91	1708.01
528.11	1712.10
528.31	1714.15
528.51	1679.33
528.71	1837.03
528.90	1781.73
529.10	1742.82
529.30	1853.41
529.50	1634.28
529.70	1701.86
529.90	1755.11
530.09	1720.29
530.29	1705.96
530.49	1626.09
530.69	1945.57
530.89	1718.25
531.09	1845.22
531.28	1667.05
531.48	1830.88
531.68	1755.11
531.88	1777.64
532.08	1759.21
532.28	1685.48
532.47	1714.15
532.67	1791.97
532.87	1677.29
533.07	1632.23
533.27	1800.16
533.46	1708.01
533.66	1738.73
533.86	1724.39
534.06	1712.10
534.26	1705.96
534.45	1798.12
534.65	1834.98
534.85	1818.60
535.05	1689.57
535.25	1822.69
535.44	1660.90
535.64	1763.30
535.84	1703.91
536.04	1718.25
536.24	1644.52
536.43	1617.90
536.63	1798.12
536.83	1744.87
537.03	1619.94
537.22	1626.09
537.42	1593.32
537.62	1765.35
537.82	1705.96
538.02	1724.39
538.21	1763.30
538.41	1906.66
538.61	1716.20
538.81	1679.33
539.00	1804.26
539.20	1701.86
539.40	1677.29
539.60	1736.68
539.79	1701.86
539.99	1796.07
540.19	1710.05
540.39	1703.91
540.58	1763.30
540.78	1726.44
540.98	1730.53
541.18	1818.60
541.37	1800.16
541.57	1691.62
541.77	1773.54
541.97	1656.81
542.16	1675.24
542.36	1720.29
542.56	1716.20
542.76	1851.36
542.95	1779.68
543.15	1697.77
543.35	1753.06
543.54	1714.15
543.74	1691.62
543.94	1865.70
544.14	1638.38
544.33	1701.86
544.53	1699.81
544.73	1693.67
544.93	1710.05
545.12	1703.91
545.32	1753.06
545.52	1755.11
545.71	1652.71
545.91	1746.92
546.11	1687.53
546.30	1701.86
546.50	1736.68
546.70	1777.64
546.90	1728.49
547.09	1634.28
547.29	1787.88
547.49	1714.15
547.68	1787.88
547.88	1697.77
548.08	1730.53
548.27	2150.37
548.47	1695.72
548.67	1689.57
548.87	1769.44
549.06	1679.33
549.26	1800.16
549.46	1759.21
549.65	1681.38
549.85	1740.77
550.05	1710.05
550.24	1654.76
550.44	1781.73
550.64	1710.05
550.83	1732.58
551.03	1808.36
551.23	1732.58
551.42	1712.10
551.62	1695.72
551.82	1822.69
552.01	1757.16
552.21	1843.17
552.41	1748.97
552.60	1765.35
552.80	1828.84
553.00	1628.14
553.19	1730.53
553.39	1765.35
553.59	1697.77
553.78	1712.10
553.98	1738.73
554.17	1654.76
554.37	1785.83
554.57	1740.77
554.76	1681.38
554.96	1716.20
555.16	1755.11
555.35	1658.85
555.55	1765.35
555.75	1693.67
555.94	1775.59
556.14	1630.18
556.33	1787.88
556.53	1714.15
556.73	1691.62
556.92	1787.88
557.12	1853.41
557.32	1849.32
557.51	1794.02
557.71	1703.91
557.90	1849.32
558.10	1800.16
558.30	1699.81
558.49	1755.11
558.69	1742.82
558.88	1681.38
559.08	1738.73
559.28	1796.07
559.47	1689.57
559.67	1757.16
559.86	1787.88
560.06	1726.44
560.26	1740.77
560.45	1767.40
560.65	1746.92
560.84	1748.97
561.04	1699.81
561.24	1808.36
561.43	1675.24
561.63	1787.88
561.82	1757.16
562.02	1761.25
562.22	1693.67
562.41	1689.57
562.61	1685.48
562.80	1628.14
563.00	1867.75
563.19	1738.73
563.39	1744.87
563.59	1742.82
563.78	1683.43
563.98	1665.00
564.17	1732.58
564.37	1640.42
564.56	1734.63
564.76	1681.38
564.96	1873.89
565.15	1722.34
565.35	1853.41
565.54	1669.09
565.74	1796.07
565.93	1781.73
566.13	1732.58
566.32	1755.11
566.52	1783.78
566.71	1748.97
566.91	1777.64
567.11	1728.49
567.30	1785.83
567.50	1781.73
567.69	1763.30
567.89	1689.57
568.08	1775.59
568.28	1798.12
568.47	1634.28
568.67	1798.12
568.86	1658.85
569.06	1806.31
569.25	1693.67
569.45	1619.94
569.64	1693.67
569.84	1769.44
570.04	1751.01
570.23	1740.77
570.43	1718.25
570.62	1781.73
570.82	1894.37
571.01	1642.47
571.21	1724.39
571.40	1685.48
571.60	1816.55
571.79	1804.26
571.99	1767.40
572.18	1738.73
572.38	1785.83
572.57	1675.24
572.77	1740.77
572.96	1875.94
573.16	1732.58
573.35	1820.64
573.55	1863.65
573.74	1759.21
573.94	1730.53
574.13	1753.06
574.33	1767.40
574.52	1755.11
574.71	1724.39
574.91	1796.07
575.10	1734.63
575.30	1794.02
575.49	1714.15
575.69	1769.44
575.88	1728.49
576.08	1695.72
576.27	1763.30
576.47	1765.35
576.66	1791.97
576.86	1789.92
577.05	1785.83
577.25	1888.23
577.44	1880.04
577.64	1718.25
577.83	1816.55
578.02	1673.19
578.22	1828.84
578.41	1855.46
578.61	1779.68
578.80	1722.34
579.00	1757.16
579.19	1732.58
579.39	1746.92
579.58	1779.68
579.77	1746.92
579.97	1816.55
580.16	1892.32
580.36	1773.54
580.55	1808.36
580.75	1753.06
580.94	1798.12
581.13	1877.99
581.33	1808.36
581.52	1755.11
581.72	1806.31
581.91	1834.98
582.11	1710.05
582.30	1783.78
582.49	1695.72
582.69	1877.99
582.88	1773.54
583.08	1806.31
583.27	1869.80
583.47	1751.01
583.66	1708.01
583.85	1744.87
584.05	1808.36
584.24	1787.88
584.44	1839.08
584.63	1755.11
584.82	1843.17
585.02	1810.40
585.21	1789.92
585.41	1804.26
585.60	1777.64
585.79	1953.76
585.99	1884.13
586.18	1865.70
586.37	2244.57
586.57	3303.37
586.76	9316.21
586.96	23506.59
587.15	33074.70
587.34	39409.06
587.54	41014.67
587.73	35681.76
587.93	25435.77
588.12	21161.66
588.31	17948.40
588.51	15957.77
588.70	14565.15
588.89	13838.12
589.09	12105.54
589.28	10688.35
589.47	9250.67
589.67	7741.32
589.86	6338.46
590.06	4810.68
590.25	3887.04
590.44	3057.62
590.64	2428.89
590.83	2295.77
591.02	2058.21
591.22	1984.48
591.41	1847.27
591.60	1826.79
591.80	1910.75
591.99	1763.30
592.18	1789.92
592.38	1837.03
592.57	1779.68
592.76	1742.82
592.96	1796.07
593.15	1775.59
593.34	1845.22
593.54	1779.68
593.73	1732.58
593.92	1718.25
594.12	1714.15
594.31	1726.44
594.50	1742.82
594.70	1857.51
594.89	1871.84
595.08	1730.53
595.28	1771.49
595.47	1886.18
595.66	1828.84
595.86	1699.81
596.05	1773.54
596.24	1716.20
596.43	1761.25
596.63	1746.92
596.82	1753.06
597.01	1730.53
597.21	1732.58
597.40	1753.06
597.59	1705.96
597.79	1746.92
597.98	1757.16
598.17	1705.96
598.36	1732.58
598.56	1751.01
598.75	1730.53
598.94	1746.92
599.14	1771.49
599.33	1697.77
599.52	1773.54
599.71	1714.15
599.91	1847.27
600.10	1753.06
600.29	1738.73
600.48	1767.40
600.68	1775.59
600.87	1718.25
601.06	1730.53
601.26	1726.44
601.45	1761.25
601.64	1744.87
601.83	1843.17
602.03	1722.34
602.22	1693.67
602.41	1773.54
602.60	1877.99
602.80	1720.29
602.99	1751.01
603.18	1634.28
603.37	1783.78
603.57	1695.72
603.76	1839.08
603.95	1736.68
604.14	1708.01
604.34	1722.34
604.53	1794.02
604.72	1744.87
604.91	1787.88
605.10	1755.11
605.30	1665.00
605.49	1920.99
605.68	1763.30
605.87	1787.88
606.07	1652.71
606.26	1718.25
606.45	1771.49
606.64	1720.29
606.84	1744.87
607.03	1722.34
607.22	1769.44
607.41	1703.91
607.60	1677.29
607.80	1794.02
607.99	1759.21
608.18	1726.44
608.37	1679.33
608.56	1777.64
608.76	1689.57
608.95	1761.25
609.14	1769.44
609.33	1740.77
609.52	1783.78
609.72	1783.78
609.91	1773.54
610.10	1658.85
610.29	1787.88
610.48	1775.59
610.68	1732.58
610.87	1687.53
611.06	1890.28
611.25	1644.52
611.44	1785.83
611.63	1699.81
611.83	1830.88
612.02	1685.48
612.21	1718.25
612.40	1667.05
612.59	1624.04
612.79	1730.53
612.98	1755.11
613.17	1744.87
613.36	1710.05
613.55	1857.51
613.74	1775.59
613.93	1669.09
614.13	1646.57
614.32	1708.01
614.51	1802.21
614.70	1761.25
614.89	1665.00
615.08	1800.16
615.28	2090.98
615.47	1679.33
615.66	1736.68
615.85	1712.10
616.04	1839.08
616.23	1794.02
616.42	1691.62
616.62	1693.67
616.81	1724.39
617.00	1656.81
617.19	1746.92
617.38	1697.77
617.57	1728.49
617.76	1736.68
617.95	1705.96
618.15	1767.40
618.34	1738.73
618.53	1624.04
618.72	1724.39
618.91	1775.59
619.10	1865.70
619.29	1738.73
619.48	1714.15
619.68	1671.14
619.87	1775.59
620.06	1646.57
620.25	1755.11
620.44	1705.96
620.63	1636.33
620.82	1769.44
621.01	1697.77
621.20	1687.53
621.39	1675.24
621.59	1753.06
621.78	1755.11
621.97	1673.19
622.16	1787.88
622.35	1714.15
622.54	1753.06
622.73	1814.50
622.92	1601.51
623.11	1845.22
623.30	1681.38
623.49	1724.39
623.68	1763.30
623.88	1779.68
624.07	1689.57
624.26	1681.38
624.45	1730.53
624.64	1636.33
624.83	1748.97
625.02	1667.05
625.21	1689.57
625.40	1687.53
625.59	1755.11
625.78	1712.10
625.97	1736.68
626.16	1771.49
626.35	1755.11
626.54	1748.97
626.74	1779.68
626.93	1740.77
627.12	1673.19
627.31	1722.34
627.50	1746.92
627.69	1785.83
627.88	1671.14
628.07	1669.09
628.26	1619.94
628.45	1761.25
628.64	1593.32
628.83	1710.05
629.02	1619.94
629.21	1775.59
629.40	1718.25
629.59	1658.85
629.78	1722.34
629.97	1740.77
630.16	1689.57
630.35	1714.15
630.54	1796.07
630.73	1693.67
630.92	1689.57
631.11	1685.48
631.30	1720.29
631.49	1714.15
631.68	1673.19
631.87	1787.88
632.06	1644.52
632.25	1873.89
632.44	1705.96
632.63	1646.57
632.82	1650.66
633.01	1681.38
633.20	1710.05
633.39	1693.67
633.58	1656.81
633.77	1705.96
633.96	1742.82
634.15	1720.29
634.34	1751.01
634.53	1726.44
634.72	1669.09
634.91	1638.38
635.10	1777.64
635.29	1826.79
635.48	1732.58
635.67	1673.19
635.86	1626.09
636.05	1779.68
636.24	1697.77
636.43	1726.44
636.62	1665.00
636.81	1638.38
637.00	1626.09
637.19	1714.15
637.38	1703.91
637.57	1644.52
637.76	1798.12
637.95	1810.40
638.14	1671.14
638.33	1677.29
638.52	1810.40
638.71	1611.75
638.89	1589.22
639.08	1824.74
639.27	1755.11
639.46	1671.14
639.65	1763.30
639.84	1742.82
640.03	1748.97
640.22	1619.94
640.41	1822.69
640.60	1638.38
640.79	1638.38
640.98	1722.34
641.17	1724.39
641.36	1720.29
641.55	1828.84
641.74	1726.44
641.92	1626.09
642.11	1630.18
642.30	1691.62
642.49	1724.39
642.68	1703.91
642.87	1742.82
643.06	1761.25
643.25	1681.38
643.44	1605.61
643.63	1685.48
643.82	1753.06
644.00	1722.34
644.19	1722.34
644.38	1691.62
644.57	1806.31
644.76	1710.05
644.95	1763.30
645.14	1712.10
645.33	1695.72
645.52	1761.25
645.71	1597.42
645.89	1650.66
646.08	1730.53
646.27	1767.40
646.46	1867.75
646.65	1712.10
646.84	1755.11
647.03	1644.52
647.22	1824.74
647.40	1740.77
647.59	1683.43
647.78	1583.08
647.97	1757.16
648.16	1673.19
648.35	1734.63
648.54	1771.49
648.73	1699.81
648.91	1722.34
649.10	1742.82
649.29	1699.81
649.48	1759.21
649.67	1712.10
649.86	1714.15
650.05	1769.44
650.23	1789.92
650.42	1656.81
650.61	1767.40
650.80	1779.68
650.99	1886.18
651.18	1742.82
651.36	1724.39
651.55	1630.18
651.74	1779.68
651.93	1673.19
652.12	1677.29
652.31	1675.24
652.49	1636.33
652.68	1769.44
652.87	1828.84
653.06	1716.20
653.25	1748.97
653.44	1740.77
653.62	1824.74
653.81	1650.66
654.00	1730.53
654.19	1751.01
654.38	1845.22
654.56	1769.44
654.75	1708.01
654.94	1736.68
655.13	1673.19
655.32	1748.97
655.51	1759.21
655.69	1603.56
655.88	1753.06
656.07	1611.75
656.26	1693.67
656.45	1724.39
656.63	1753.06
656.82	1808.36
657.01	1775.59
657.20	1619.94
657.38	1820.64
657.57	1634.28
657.76	1626.09
657.95	1730.53
658.14	1681.38
658.32	1640.42
658.51	1609.70
658.70	1712.10
658.89	1714.15
659.08	1736.68
659.26	1845.22
659.45	1656.81
659.64	1724.39
659.83	1708.01
660.01	1861.60
660.20	1730.53
660.39	1767.40
660.58	1650.66
660.76	1703.91
660.95	1685.48
661.14	1748.97
661.33	1617.90
661.51	1763.30
661.70	1634.28
661.89	1734.63
662.08	1822.69
662.26	1607.66
662.45	1736.68
662.64	1804.26
662.83	1726.44
663.01	1689.57
663.20	1701.86
663.39	1746.92
663.58	1644.52
663.76	1679.33
663.95	1751.01
664.14	1751.01
664.32	1665.00
664.51	1669.09
664.70	1624.04
664.89	1718.25
665.07	1685.48
665.26	1732.58
665.45	1673.19
665.64	1681.38
665.82	1730.53
666.01	1720.29
666.20	1705.96
666.38	1746.92
666.57	1800.16
666.76	2195.42
666.95	4286.40
667.13	9959.27
667.32	14640.93
667.51	17127.16
667.69	18237.16
667.88	17352.44
668.07	12259.14
668.25	9275.25
668.44	7878.54
668.63	7358.35
668.81	6641.56
669.00	6113.19
669.19	5625.77
669.38	4919.22
669.56	4454.33
669.75	3850.18
669.94	3270.61
670.12	2787.29
670.31	2506.71
670.50	2263.01
670.68	2007.01
670.87	1964.00
671.06	1767.40
671.24	1822.69
671.43	1775.59
671.62	1685.48
671.80	1652.71
671.99	1796.07
672.18	1763.30
672.36	1759.21
672.55	1742.82
672.74	1681.38
672.92	1638.38
673.11	1757.16
673.29	1642.47
673.48	1751.01
673.67	1646.57
673.85	1740.77
674.04	1662.95
674.23	1730.53
674.41	1865.70
674.60	1656.81
674.79	1589.22
674.97	1714.15
675.16	1730.53
675.34	1808.36
675.53	1634.28
675.72	1736.68
675.90	1830.88
676.09	1693.67
676.28	1730.53
676.46	1634.28
676.65	1751.01
676.83	1689.57
677.02	1667.05
677.21	1683.43
677.39	1689.57
677.58	1658.85
677.77	1624.04
677.95	1671.14
678.14	1759.21
678.32	1673.19
678.51	1734.63
678.70	1861.60
678.88	1697.77
679.07	1695.72
679.25	1689.57
679.44	1662.95
679.63	1644.52
679.81	1695.72
680.00	1722.34
680.18	1779.68
680.37	1746.92
680.55	1720.29
680.74	1626.09
680.93	1542.12
681.11	1658.85
681.30	1685.48
681.48	1697.77
681.67	1726.44
681.85	1722.34
682.04	1736.68
682.23	1773.54
682.41	1703.91
682.60	1718.25
682.78	1712.10
682.97	1648.61
683.15	1738.73
683.34	1757.16
683.53	1718.25
683.71	1675.24
683.90	1724.39
684.08	1896.42
684.27	1679.33
684.45	1751.01
684.64	1877.99
684.82	1753.06
685.01	1714.15
685.19	1724.39
685.38	1830.88
685.57	1693.67
685.75	1712.10
685.94	1624.04
686.12	1685.48
686.31	1644.52
686.49	1900.52
686.68	1519.59
686.86	1753.06
687.05	1720.29
687.23	1781.73
687.42	1785.83
687.60	1626.09
687.79	1742.82
687.97	1742.82
688.16	1820.64
688.34	1796.07
688.53	1630.18
688.71	1658.85
688.90	1818.60
689.08	1679.33
689.27	1710.05
689.45	1669.09
689.64	1726.44
689.82	1673.19
690.01	1757.16
690.19	1771.49
690.38	1691.62
690.56	1802.21
690.75	1644.52
690.93	1628.14
691.12	1687.53
691.30	1755.11
691.49	1667.05
691.67	1695.72
691.86	1843.17
692.04	1660.90
692.23	1724.39
692.41	1665.00
692.60	1773.54
692.78	1726.44
692.97	1634.28
693.15	1628.14
693.34	1808.36
693.52	1775.59
693.71	1646.57
693.89	1654.76
694.08	1574.89
694.26	1791.97
694.44	1769.44
694.63	1742.82
694.81	1652.71
695.00	1757.16
695.18	1755.11
695.37	1808.36
695.55	1730.53
695.74	1677.29
695.92	1669.09
696.10	1781.73
696.29	1597.42
696.47	1687.53
696.66	1628.14
696.84	1738.73
697.03	1726.44
697.21	1806.31
697.40	2283.49
697.58	1738.73
697.76	1646.57
697.95	1662.95
698.13	1650.66
698.32	1656.81
698.50	1656.81
698.68	1775.59
698.87	1730.53
699.05	1777.64
699.24	1652.71
699.42	1652.71
699.61	1703.91
699.79	1675.24
699.97	1769.44
700.16	1574.89
700.34	1644.52
700.53	1775.59
700.71	1800.16
700.89	1806.31
701.08	1689.57
701.26	1728.49
701.45	2236.38
701.63	1652.71
701.81	1671.14
702.00	1687.53
702.18	1724.39
702.37	1722.34
702.55	1681.38
702.73	1648.61
702.92	1677.29
703.10	1681.38
703.28	1777.64
703.47	1599.46
703.65	1701.86
703.84	1718.25
704.02	1632.23
704.20	1773.54
704.39	1650.66
704.57	1595.37
704.75	1796.07
704.94	1746.92
705.12	1820.64
705.30	1794.02
705.49	2181.09
705.67	4325.31
705.86	9121.65
706.04	12240.71
706.22	13786.93
706.41	14774.05
706.59	13455.15
706.77	9422.70
706.96	7268.24
707.14	6498.20
707.32	5803.94
707.51	5445.55
707.69	4806.58
707.87	4151.23
708.06	3522.51
708.24	2920.40
708.42	2441.18
708.61	2248.67
708.79	1869.80
708.97	1826.79
709.16	1804.26
709.34	1773.54
709.52	1730.53
709.71	1679.33
709.89	1667.05
710.07	1599.46
710.26	1685.48
710.44	1746.92
710.62	1742.82
710.80	1701.86
710.99	1697.77
711.17	1757.16
711.35	1634.28
711.54	1617.90
711.72	1757.16
711.90	1732.58
712.09	1722.34
712.27	1701.86
712.45	1753.06
712.63	1677.29
712.82	1679.33
713.00	1648.61
713.18	1697.77
713.37	1726.44
713.55	1669.09
713.73	1710.05
713.91	1757.16
714.10	1669.09
714.28	1656.81
714.46	1759.21
714.65	1800.16
714.83	1740.77
715.01	1677.29
715.19	1685.48
715.38	1630.18
715.56	1705.96
715.74	1576.94
715.92	1718.25
716.11	1755.11
716.29	1630.18
716.47	1726.44
716.65	1708.01
716.84	1656.81
717.02	1693.67
717.20	1599.46
717.38	1765.35
717.57	1767.40
717.75	1687.53
717.93	1621.99
718.11	1714.15
718.30	1675.24
718.48	1705.96
718.66	1761.25
718.84	1806.31
719.03	1767.40
719.21	1701.86
719.39	1722.34
719.57	1849.32
719.75	1771.49
719.94	1687.53
720.12	1687.53
720.30	1708.01
720.48	1677.29
720.67	1607.66
720.85	1644.52
721.03	1638.38
721.21	1603.56
721.39	1763.30
721.58	1695.72
721.76	1716.20
721.94	1785.83
722.12	1640.42
722.30	1767.40
722.49	1648.61
722.67	1734.63
722.85	1742.82
723.03	1621.99
723.21	1671.14
723.40	1681.38
723.58	1705.96
723.76	1683.43
723.94	1773.54
724.12	1730.53
724.30	1783.78
724.49	1722.34
724.67	1650.66
724.85	1761.25
725.03	1630.18
725.21	1658.85
725.40	1757.16
725.58	1636.33
725.76	1789.92
725.94	1748.97
726.12	1605.61
726.30	1691.62
726.49	1759.21
726.67	1665.00
726.85	1669.09
727.03	1771.49
727.21	2181.09
727.39	2854.87
727.57	3690.44
727.76	4136.90
727.94	4288.45
728.12	4280.25
728.30	3620.81
728.48	2951.12
728.66	2740.18
728.84	2607.06
729.03	2279.39
729.21	2205.66
729.39	2013.15
729.57	1800.16
729.75	1761.25
729.93	1775.59
730.11	1695.72
730.30	1718.25
730.48	1716.20
730.66	1861.60
730.84	1806.31
731.02	1701.86
731.20	1646.57
731.38	1681.38
731.56	1560.55
731.74	1660.90
731.93	1724.39
732.11	1642.47
732.29	1669.09
732.47	1753.06
732.65	1751.01
732.83	1714.15
733.01	1714.15
733.19	1662.95
733.37	1734.63
733.56	1806.31
733.74	1640.42
733.92	1718.25
734.10	1652.71
734.28	1730.53
734.46	1658.85
734.64	1724.39
734.82	1665.00
735.00	1691.62
735.18	1714.15
735.36	1726.44
735.54	1683.43
735.73	1703.91
735.91	1732.58
736.09	1753.06
736.27	1691.62
736.45	1748.97
736.63	1560.55
736.81	1687.53
736.99	1734.63
737.17	1796.07
737.35	1671.14
737.53	1732.58
737.71	1703.91
737.89	1710.05
738.07	1708.01
738.25	1617.90
738.43	1535.98
738.61	1677.29
738.80	1644.52
738.98	1603.56
739.16	1697.77
739.34	1667.05
739.52	1736.68
739.70	1699.81
739.88	1722.34
740.06	1742.82
740.24	1583.08
740.42	1808.36
740.60	1591.27
740.78	1632.23
740.96	1624.04
741.14	1738.73
741.32	1644.52
741.50	1617.90
741.68	1839.08
741.86	1757.16
742.04	1636.33
742.22	1609.70
742.40	1726.44
742.58	1757.16
742.76	1671.14
742.94	1738.73
743.12	1533.93
743.30	1687.53
743.48	1722.34
743.66	1730.53
743.84	1753.06
744.02	1724.39
744.20	1703.91
744.38	1671.14
744.56	1611.75
744.74	1798.12
744.92	1757.16
745.10	1808.36
745.28	1697.77
745.46	1796.07
745.64	1656.81
745.82	1810.40
746.00	1673.19
746.18	1738.73
746.36	1619.94
746.54	1691.62
746.72	1642.47
746.90	1634.28
747.08	1775.59
747.26	1718.25
747.44	1746.92
747.62	1677.29
747.80	1640.42
747.98	1736.68
748.15	1611.75
748.33	1796.07
748.51	1736.68
748.69	1712.10
748.87	1624.04
749.05	1667.05
749.23	1691.62
749.41	1732.58
749.59	1644.52
749.77	1763.30
749.95	1693.67
750.13	1730.53
750.31	1701.86
750.49	1681.38
750.67	1763.30
750.85	1808.36
751.03	1783.78
751.20	1794.02
751.38	1722.34
751.56	1679.33
751.74	1722.34
751.92	1718.25
752.10	1634.28
752.28	1755.11
752.46	1564.65
752.64	1695.72
752.82	1677.29
753.00	1753.06
753.18	1697.77
753.35	1648.61
753.53	1712.10
753.71	1646.57
753.89	1699.81
754.07	1712.10
754.25	1802.21
754.43	1650.66
754.61	1624.04
754.79	1738.73
754.97	1669.09
755.14	1808.36
755.32	1708.01
755.50	1767.40
755.68	1681.38
755.86	1617.90
756.04	1595.37
756.22	1634.28
756.40	1773.54
756.57	1689.57
756.75	1660.90
756.93	1753.06
757.11	1763.30
757.29	1705.96
757.47	1632.23
757.65	1626.09
757.82	1554.41
758.00	1726.44
758.18	1654.76
758.36	1697.77
758.54	1810.40
758.72	1695.72
758.90	1724.39
759.07	1724.39
759.25	1624.04
759.43	1693.67
759.61	1626.09
759.79	2111.46
759.97	1742.82
760.15	1744.87
760.32	1701.86
760.50	1751.01
760.68	1791.97
760.86	1667.05
761.04	1783.78
761.22	1646.57
761.39	1679.33
761.57	1714.15
761.75	1728.49
761.93	1699.81
762.11	1732.58
762.28	1718.25
762.46	1585.13
762.64	1753.06
762.82	1595.37
763.00	1699.81
763.18	1771.49
763.35	1660.90
763.53	1701.86
763.71	1710.05
763.89	1671.14
764.07	1751.01
764.24	1781.73
764.42	1718.25
764.60	1658.85
764.78	1736.68
764.96	1787.88
765.13	1728.49
765.31	1763.30
765.49	1742.82
765.67	1628.14
765.84	1638.38
766.02	1640.42
766.20	1669.09
766.38	1773.54
766.56	1708.01
766.73	1673.19
766.91	1791.97
767.09	1705.96
767.27	1722.34
767.44	1595.37
767.62	1695.72
767.80	1724.39
767.98	1699.81
768.15	1650.66
768.33	1658.85
768.51	1820.64
768.69	1681.38
768.87	1726.44
769.04	1722.34
769.22	1804.26
769.40	1759.21
769.58	1877.99
769.75	1619.94
769.93	1765.35
770.11	1705.96
770.28	1638.38
770.46	1722.34
770.64	1751.01
770.82	1691.62
770.99	1695.72
771.17	1703.91
771.35	1673.19
771.53	1748.97
771.70	1687.53
771.88	1685.48
772.06	1644.52
772.23	1771.49
772.41	1699.81
772.59	1691.62
772.77	1665.00
772.94	1673.19
773.12	1697.77
773.30	1761.25
773.47	1613.80
773.65	1630.18
773.83	1837.03
774.01	1597.42
774.18	1601.51
774.36	1687.53
774.54	1607.66
774.71	1677.29
774.89	1665.00
775.07	1570.79
775.24	1615.85
775.42	1646.57
775.60	1785.83
775.78	1720.29
775.95	1611.75
776.13	1624.04
776.31	1667.05
776.48	1736.68
776.66	1705.96
776.84	1714.15
777.01	1574.89
777.19	1615.85
777.37	1695.72
777.54	1685.48
777.72	1837.03
777.90	1757.16
778.07	1730.53
778.25	1875.94
778.43	1763.30
778.60	1656.81
778.78	1697.77
778.96	1708.01
779.13	1658.85
779.31	1775.59
779.49	1640.42
779.66	1705.96
779.84	1708.01
780.01	1710.05
780.19	1603.56
780.37	1765.35
780.54	1761.25
780.72	1640.42
780.90	1673.19
781.07	1687.53
781.25	1716.20
781.43	1701.86
781.60	1646.57
781.78	1794.02
781.95	1681.38
782.13	1687.53
782.31	1675.24
782.48	1591.27
782.66	1712.10
782.83	1746.92
783.01	1677.29
783.19	1726.44
783.36	1679.33
783.54	1632.23
783.72	1812.45
783.89	1693.67
784.07	1714.15
784.24	1703.91
784.42	1839.08
784.60	1705.96
784.77	1724.39
784.95	1644.52
785.12	1718.25
785.30	1701.86
785.47	1632.23
785.65	1693.67
785.83	1767.40
786.00	1656.81
786.18	1705.96
786.35	1619.94
786.53	1697.77
786.71	1724.39
786.88	1767.40
787.06	1648.61
787.23	1701.86
787.41	1617.90
787.58	1708.01
787.76	1632.23
787.94	1638.38
788.11	1714.15
788.29	1630.18
788.46	1626.09
788.64	1568.74
788.81	1705.96
788.99	1693.67
789.16	1705.96
789.34	1708.01
789.52	1642.47
789.69	1652.71
789.87	1646.57
790.04	1705.96
790.22	1718.25
790.39	1816.55
790.57	1636.33
790.74	1640.42
790.92	1691.62
791.09	1662.95
791.27	1675.24
791.44	1759.21
791.62	1730.53
791.79	1697.77
791.97	1740.77
792.15	1849.32
792.32	1687.53
792.50	1757.16
792.67	1751.01
792.85	1689.57
793.02	1724.39
793.20	1759.21
793.37	1628.14
793.55	1667.05
793.72	1583.08
793.90	1679.33
794.07	1654.76
794.25	1626.09
794.42	1705.96
794.60	1640.42
794.77	1732.58
794.95	1701.86
795.12	1744.87
795.30	1689.57
795.47	1533.93
795.65	1869.80
795.82	1740.77
796.00	1636.33
796.17	1667.05
796.34	1673.19
796.52	1726.44
796.69	1785.83
796.87	1644.52
797.04	1734.63
797.22	1679.33
797.39	1755.11
797.57	1708.01
797.74	1757.16
797.92	1759.21
798.09	1634.28
798.27	1783.78
798.44	1734.63
798.62	1589.22
798.79	1732.58
798.96	1693.67
799.14	1689.57
799.31	1849.32
799.49	1619.94
799.66	1650.66
799.84	1718.25
800.01	1640.42
800.19	1691.62
800.36	1558.50
800.53	1767.40
800.71	1689.57
800.88	1751.01
801.06	1697.77
801.23	1595.37
801.41	1630.18
801.58	1701.86
801.75	1675.24
801.93	1699.81
802.10	1732.58
802.28	1740.77
802.45	1726.44
802.63	1759.21
802.80	1755.11
802.97	1685.48
803.15	1632.23
803.32	1701.86
803.50	1693.67
803.67	1615.85
803.84	1693.67
804.02	1634.28
804.19	1632.23
804.37	1560.55
804.54	1609.70
804.71	1714.15
804.89	1716.20
805.06	1583.08
805.24	1660.90
805.41	1722.34
805.58	1638.38
805.76	1826.79
805.93	1773.54
806.10	1789.92
806.28	1677.29
806.45	1732.58
806.63	1716.20
806.80	1726.44
806.97	1730.53
807.15	1738.73
807.32	1640.42
807.49	1744.87
807.67	1656.81
807.84	1675.24
808.01	1585.13
808.19	1849.32
808.36	1861.60
808.54	1671.14
808.71	1609.70
808.88	1716.20
809.06	1742.82
809.23	1861.60
809.40	1611.75
809.58	1767.40
809.75	1601.51
809.92	1644.52
810.10	1796.07
810.27	1681.38
810.44	1693.67
810.62	1761.25
810.79	1710.05
810.96	1660.90
811.14	1660.90
811.31	1691.62
811.48	1767.40
811.66	1767.40
811.83	1726.44
812.00	1728.49
812.18	1712.10
812.35	1796.07
812.52	1697.77
812.69	1757.16
812.87	1654.76
813.04	1634.28
813.21	1642.47
813.39	1656.81
813.56	1660.90
813.73	1789.92
813.91	1660.90
814.08	1714.15
814.25	1695.72
814.42	1572.84
814.60	1759.21
814.77	1691.62
814.94	1699.81
815.12	1705.96
815.29	1746.92
815.46	1705.96
815.63	1734.63
815.81	1650.66
815.98	1718.25
816.15	1617.90
816.33	1755.11
816.50	1644.52
816.67	1689.57
816.84	1687.53
817.02	1550.31
817.19	1626.09
817.36	1650.66
817.53	1796.07
817.71	1683.43
817.88	1800.16
818.05	1628.14
818.22	1720.29
818.40	1753.06
818.57	1673.19
818.74	1816.55
818.91	1724.39
819.09	1738.73
819.26	1726.44
819.43	1728.49
819.60	1654.76
819.78	1753.06
819.95	1806.31
820.12	1656.81
820.29	1722.34
820.47	1728.49
820.64	1679.33
820.81	1646.57
820.98	1640.42
821.15	1669.09
821.33	1755.11
821.50	1599.46
821.67	1810.40
821.84	1675.24
822.02	1732.58
822.19	1695.72
822.36	1621.99
822.53	1746.92
822.70	1634.28
822.88	1583.08
823.05	1824.74
823.22	1683.43
823.39	1767.40
823.56	1705.96
823.74	1775.59
823.91	1673.19
824.08	1705.96
824.25	1607.66
824.42	1759.21
824.60	1732.58
824.77	1667.05
824.94	1613.80
825.11	1722.34
825.28	1621.99
825.45	1691.62
825.63	1712.10
825.80	1617.90
825.97	1744.87
826.14	1730.53
826.31	1656.81
826.48	1628.14
826.66	1642.47
826.83	1660.90
827.00	1789.92
827.17	1630.18
827.34	1697.77
827.51	1695.72
827.69	1685.48
827.86	1650.66
828.03	1689.57
828.20	1722.34
828.37	1605.61
828.54	1689.57
828.71	1665.00
828.89	1746.92
829.06	1689.57
829.23	1722.34
829.40	1691.62
829.57	1665.00
829.74	1687.53
829.91	1640.42
830.09	1654.76
830.26	1765.35
830.43	1738.73
830.60	1636.33
830.77	1789.92
830.94	1757.16
831.11	1683.43
831.28	1738.73
831.46	1689.57
831.63	1646.57
831.80	1806.31
831.97	1712.10
832.14	1601.51
832.31	1718.25
832.48	1619.94
832.65	1857.51
832.82	1695.72
832.99	1798.12
833.17	1636.33
833.34	1834.98
833.51	1779.68
833.68	1640.42
833.85	1726.44
834.02	1660.90
834.19	1689.57
834.36	1576.94
834.53	1685.48
834.70	1816.55
834.87	1736.68
835.04	1710.05
835.22	1607.66
835.39	1703.91
835.56	1652.71
835.73	1609.70
835.90	1726.44
836.07	1667.05
836.24	1757.16
836.41	1603.56
836.58	1683.43
836.75	1722.34
836.92	1697.77
837.09	1738.73
837.26	1701.86
837.43	1716.20
837.60	1669.09
837.77	1665.00
837.94	1755.11
838.12	1800.16
838.29	1644.52
838.46	1560.55
838.63	1628.14
838.80	1777.64
838.97	1753.06
839.14	1744.87
839.31	1685.48
839.48	1613.80
839.65	1701.86
839.82	1779.68
839.99	1628.14
840.16	1705.96
840.33	1667.05
840.50	1669.09
840.67	1677.29
840.84	1662.95
841.01	1671.14
841.18	1671.14
841.35	1710.05
841.52	1818.60
841.69	1871.84
841.86	1759.21
842.03	1683.43
842.20	1763.30
842.37	1705.96
842.54	1769.44
842.71	1667.05
842.88	1648.61
843.05	1654.76
843.22	1732.58
843.39	1730.53
843.56	1693.67
843.73	1644.52
843.90	1765.35
844.07	1714.15
844.24	1667.05
844.41	1751.01
844.58	1667.05
844.75	1687.53
844.92	1701.86
845.09	1718.25
845.26	1628.14
845.43	1681.38
845.60	1642.47
845.77	1744.87
845.94	1732.58
846.10	1730.53
846.27	1648.61
846.44	1621.99
846.61	1660.90
846.78	1781.73
846.95	1767.40
847.12	1656.81
847.29	1689.57
847.46	1693.67
847.63	1705.96
847.80	1646.57
847.97	1611.75
848.14	1853.41
848.31	1632.23
848.48	1644.52
848.65	1671.14
848.82	1671.14
848.98	1728.49
849.15	1726.44
849.32	1771.49
849.49	1767.40
849.66	1689.57
849.83	1751.01
850.00	1624.04
850.17	1738.73
850.34	1626.09
850.51	1718.25
850.68	1669.09
850.85	1796.07
851.01	1740.77
851.18	1769.44
851.35	1648.61
851.52	1763.30
851.69	1789.92
851.86	1611.75
852.03	1665.00
852.20	1732.58
852.37	1701.86
852.53	1617.90
852.70	1714.15
852.87	1697.77
853.04	1796.07
853.21	1708.01
853.38	1779.68
853.55	1800.16
853.72	1714.15
853.89	1697.77
854.05	1656.81
854.22	1689.57
854.39	1701.86
854.56	1677.29
854.73	1804.26
854.90	1705.96
855.07	1710.05
855.23	1681.38
855.40	1611.75
855.57	1705.96
855.74	1619.94
855.91	1804.26
856.08	1697.77
856.25	1656.81
856.41	1673.19
856.58	1730.53
856.75	1624.04
856.92	1703.91
857.09	1677.29
857.26	1705.96
857.42	1701.86
857.59	1748.97
857.76	1705.96
857.93	1724.39
858.10	1748.97
858.27	1611.75
858.43	1638.38
858.60	1669.09
858.77	1613.80
858.94	1693.67
859.11	1777.64
859.27	1685.48
859.44	1671.14
859.61	1757.16
859.78	1832.93
859.95	1691.62
860.12	1615.85
860.28	1873.89
860.45	1871.84
860.62	1722.34
860.79	1767.40
860.95	1677.29
861.12	1609.70
861.29	1689.57
861.46	1658.85
861.63	1697.77
861.79	1697.77
861.96	1658.85
862.13	1722.34
862.30	1804.26
862.47	1628.14
862.63	1683.43
862.80	1669.09
862.97	1673.19
863.14	1718.25
863.30	1734.63
863.47	1611.75
863.64	1785.83
863.81	1667.05
863.97	1669.09
864.14	1726.44
864.31	1650.66
864.48	1667.05
864.65	1656.81
864.81	1830.88
864.98	1665.00
865.15	1716.20
865.32	1714.15
865.48	1740.77
865.65	1804.26
865.82	1697.77
865.98	1791.97
866.15	1802.21
866.32	1685.48
866.49	1640.42
866.65	1771.49
866.82	1615.85
866.99	1673.19
867.16	1691.62
867.32	1710.05
867.49	1701.86
867.66	1681.38
867.83	1716.20
867.99	1591.27
868.16	1740.77
868.33	1689.57
868.49	1701.86
868.66	1689.57
868.83	1787.88
868.99	1644.52
869.16	1607.66
869.33	1742.82
869.50	1726.44
869.66	1640.42
869.83	1716.20
870.00	1644.52
870.16	1765.35
870.33	1728.49
870.50	1746.92
870.66	1679.33
870.83	1708.01
871.00	1683.43
871.17	1738.73
871.33	1701.86
871.50	1677.29
871.67	1648.61
871.83	1599.46
872.00	1804.26
872.17	1681.38
872.33	1748.97
872.50	1746.92
872.67	1626.09
872.83	1660.90
873.00	1630.18
873.17	1730.53
873.33	1742.82
873.50	1728.49
873.67	1634.28
873.83	1763.30
874.00	1738.73
874.16	1677.29
874.33	1679.33
874.50	1609.70
874.66	1761.25
874.83	1742.82
875.00	1746.92
875.16	1755.11
875.33	1746.92
875.50	1589.22
875.66	1689.57
875.83	1748.97
875.99	1757.16
876.16	1638.38
876.33	1626.09
876.49	1687.53
876.66	1679.33
876.83	1685.48
876.99	1589.22
877.16	1681.38
877.32	1759.21
877.49	1726.44
877.66	1742.82
877.82	1845.22
877.99	1705.96
878.15	1773.54
878.32	1697.77
878.49	1746.92
878.65	1599.46
878.82	1843.17
878.98	1650.66
879.15	1779.68
879.32	1689.57
879.48	1712.10
879.65	1714.15
879.81	1724.39
879.98	1636.33
880.15	1712.10
880.31	1761.25
880.48	1640.42
880.64	1839.08
880.81	1689.57
880.97	1781.73
881.14	1810.40
881.31	1636.33
881.47	1787.88
881.64	1689.57
881.80	1621.99
881.97	1695.72
882.13	1763.30
882.30	1636.33
882.47	1638.38
882.63	1662.95
882.80	1658.85
882.96	1609.70
883.13	1773.54
883.29	1630.18
883.46	1656.81
883.62	1746.92
883.79	1748.97
883.95	1785.83
884.12	1693.67
884.29	1755.11
884.45	1648.61
884.62	1726.44
884.78	1751.01
884.95	1787.88
885.11	1654.76
885.28	1695.72
885.44	1660.90
885.61	1724.39
885.77	1796.07
885.94	1730.53
886.10	1699.81
886.27	1679.33
886.43	1677.29
886.60	1744.87
886.76	1652.71
886.93	1611.75
887.09	1673.19
887.26	1593.32
887.42	1654.76
887.59	1732.58
887.75	1734.63
887.92	1708.01
888.08	1730.53
888.25	1742.82
888.41	1740.77
888.58	1689.57
888.74	1636.33
888.91	1599.46
>>>>>End Processed Spectral Data<<<<<
