SpectraSuite Data File
++++++++++++++++++++++++++++++++++++
Date: Mon Jun 06 17:29:57 CEST 2016
User: root
Dark Spectrum Present: No
Reference Spectrum Present: No
Number of Sampled Component Spectra: 1
Spectrometers: USB4C02835
Integration Time (usec): 100000 (USB4C02835)
Spectra Averaged: 1 (USB4C02835)
Boxcar Smoothing: 0 (USB4C02835)
Correct for Electrical Dark: No (USB4C02835)
Strobe/Lamp Enabled: No (USB4C02835)
Correct for Detector Non-linearity: No (USB4C02835)
Correct for Stray Light: No (USB4C02835)
Number of Pixels in Processed Spectrum: 3648
>>>>>Begin Processed Spectral Data<<<<<
177.47	1447.91
177.69	1447.91
177.91	1447.91
178.13	1454.06
178.36	1519.59
178.58	1722.34
178.80	1746.92
179.02	1642.47
179.24	1601.51
179.46	1724.39
179.68	1771.49
179.90	1714.15
180.13	1740.77
180.35	1615.85
180.57	1665.00
180.79	1755.11
181.01	1681.38
181.23	1837.03
181.45	1718.25
181.67	1779.68
181.90	1808.36
182.12	1697.77
182.34	1583.08
182.56	1796.07
182.78	1746.92
183.00	1695.72
183.22	1656.81
183.44	1689.57
183.66	1931.23
183.89	1796.07
184.11	1732.58
184.33	1814.50
184.55	1726.44
184.77	1722.34
184.99	1716.20
185.21	1742.82
185.43	1851.36
185.65	1738.73
185.87	1708.01
186.10	1802.21
186.32	1886.18
186.54	1660.90
186.76	1671.14
186.98	1751.01
187.20	1697.77
187.42	1705.96
187.64	1771.49
187.86	1718.25
188.08	1791.97
188.30	1636.33
188.52	1671.14
188.75	1814.50
188.97	1765.35
189.19	1703.91
189.41	1802.21
189.63	1710.05
189.85	1708.01
190.07	1646.57
190.29	1646.57
190.51	1771.49
190.73	1535.98
190.95	1759.21
191.17	1736.68
191.39	1609.70
191.61	1689.57
191.84	1759.21
192.06	1697.77
192.28	1656.81
192.50	1947.62
192.72	1777.64
192.94	1660.90
193.16	1757.16
193.38	1722.34
193.60	1703.91
193.82	1654.76
194.04	1783.78
194.26	1744.87
194.48	1746.92
194.70	1699.81
194.92	1673.19
195.14	1701.86
195.36	1759.21
195.58	1796.07
195.80	1771.49
196.02	1669.09
196.24	1744.87
196.46	1687.53
196.69	1697.77
196.91	1853.41
197.13	1656.81
197.35	1689.57
197.57	1785.83
197.79	1781.73
198.01	1785.83
198.23	1740.77
198.45	1732.58
198.67	1634.28
198.89	1685.48
199.11	1689.57
199.33	1722.34
199.55	1624.04
199.77	1669.09
199.99	1722.34
200.21	1726.44
200.43	1703.91
200.65	1628.14
200.87	1583.08
201.09	1703.91
201.31	1761.25
201.53	1771.49
201.75	1820.64
201.97	1765.35
202.19	1724.39
202.41	1796.07
202.63	1834.98
202.85	1810.40
203.07	1824.74
203.29	1636.33
203.51	1605.61
203.73	1619.94
203.95	1882.08
204.17	1738.73
204.39	1765.35
204.61	1726.44
204.83	1695.72
205.05	1779.68
205.27	1748.97
205.49	1859.56
205.71	1722.34
205.93	1619.94
206.15	1701.86
206.37	1724.39
206.59	1687.53
206.81	1642.47
207.03	1621.99
207.25	1644.52
207.47	1755.11
207.69	1677.29
207.91	1808.36
208.13	1832.93
208.34	1660.90
208.56	1755.11
208.78	1724.39
209.00	1703.91
209.22	1691.62
209.44	1673.19
209.66	1718.25
209.88	1753.06
210.10	1658.85
210.32	1689.57
210.54	1794.02
210.76	1626.09
210.98	1773.54
211.20	1632.23
211.42	1765.35
211.64	1665.00
211.86	1695.72
212.08	1738.73
212.30	1685.48
212.52	1665.00
212.74	1722.34
212.96	1730.53
213.17	1763.30
213.39	1736.68
213.61	1740.77
213.83	1705.96
214.05	1648.61
214.27	1699.81
214.49	1628.14
214.71	1718.25
214.93	1808.36
215.15	1660.90
215.37	1669.09
215.59	1658.85
215.81	1779.68
216.03	1828.84
216.24	1771.49
216.46	1689.57
216.68	1730.53
216.90	1726.44
217.12	1791.97
217.34	1701.86
217.56	1648.61
217.78	1865.70
218.00	1636.33
218.22	1669.09
218.44	1695.72
218.66	1757.16
218.87	1794.02
219.09	1652.71
219.31	1757.16
219.53	1677.29
219.75	1667.05
219.97	1693.67
220.19	1683.43
220.41	1673.19
220.63	1796.07
220.85	1695.72
221.06	1722.34
221.28	1810.40
221.50	1763.30
221.72	1665.00
221.94	1751.01
222.16	1710.05
222.38	1765.35
222.60	1748.97
222.82	1673.19
223.03	1757.16
223.25	1644.52
223.47	1742.82
223.69	1867.75
223.91	1724.39
224.13	1718.25
224.35	1728.49
224.57	1800.16
224.78	1718.25
225.00	1673.19
225.22	1685.48
225.44	1673.19
225.66	1783.78
225.88	1730.53
226.10	1738.73
226.32	1636.33
226.53	1740.77
226.75	1697.77
226.97	1697.77
227.19	1773.54
227.41	1691.62
227.63	1689.57
227.85	1632.23
228.06	1695.72
228.28	1710.05
228.50	1773.54
228.72	1693.67
228.94	1730.53
229.16	1601.51
229.37	1576.94
229.59	1744.87
229.81	1773.54
230.03	1693.67
230.25	1722.34
230.47	1705.96
230.69	1648.61
230.90	1705.96
231.12	1738.73
231.34	1708.01
231.56	1748.97
231.78	1603.56
232.00	1740.77
232.21	1656.81
232.43	1699.81
232.65	1554.41
232.87	1722.34
233.09	1646.57
233.30	1726.44
233.52	1822.69
233.74	1734.63
233.96	1697.77
234.18	1771.49
234.40	1765.35
234.61	1877.99
234.83	1652.71
235.05	1740.77
235.27	1837.03
235.49	1779.68
235.70	1683.43
235.92	1820.64
236.14	1722.34
236.36	1904.61
236.58	1650.66
236.79	1730.53
237.01	1705.96
237.23	1738.73
237.45	1839.08
237.67	1751.01
237.88	1665.00
238.10	1851.36
238.32	1644.52
238.54	1724.39
238.76	1712.10
238.97	1626.09
239.19	1714.15
239.41	1873.89
239.63	1761.25
239.85	1667.05
240.06	1773.54
240.28	1689.57
240.50	1822.69
240.72	1705.96
240.93	1654.76
241.15	1755.11
241.37	1804.26
241.59	1787.88
241.81	1675.24
242.02	1736.68
242.24	1716.20
242.46	1705.96
242.68	1636.33
242.89	1732.58
243.11	1751.01
243.33	1714.15
243.55	1746.92
243.76	1718.25
243.98	1646.57
244.20	1751.01
244.42	1703.91
244.64	1716.20
244.85	1642.47
245.07	1644.52
245.29	1759.21
245.51	1679.33
245.72	1761.25
245.94	1781.73
246.16	1748.97
246.38	1759.21
246.59	1732.58
246.81	1648.61
247.03	1712.10
247.24	1722.34
247.46	1636.33
247.68	1685.48
247.90	1742.82
248.11	1685.48
248.33	1767.40
248.55	1716.20
248.77	1722.34
248.98	1812.45
249.20	1787.88
249.42	1746.92
249.64	1658.85
249.85	1744.87
250.07	1722.34
250.29	1824.74
250.50	1759.21
250.72	1585.13
250.94	1705.96
251.16	1822.69
251.37	1746.92
251.59	1769.44
251.81	1716.20
252.02	1757.16
252.24	1710.05
252.46	1832.93
252.68	1712.10
252.89	1722.34
253.11	1595.37
253.33	1812.45
253.54	1796.07
253.76	1642.47
253.98	1656.81
254.20	1732.58
254.41	1665.00
254.63	1673.19
254.85	1656.81
255.06	1769.44
255.28	1716.20
255.50	1638.38
255.71	1644.52
255.93	1701.86
256.15	1705.96
256.36	1740.77
256.58	1679.33
256.80	1806.31
257.02	1736.68
257.23	1697.77
257.45	1730.53
257.67	1773.54
257.88	1662.95
258.10	1744.87
258.32	1718.25
258.53	1714.15
258.75	1781.73
258.97	1675.24
259.18	1685.48
259.40	1746.92
259.62	1882.08
259.83	1789.92
260.05	1777.64
260.27	2025.44
260.48	1834.98
260.70	1667.05
260.92	1697.77
261.13	1787.88
261.35	1726.44
261.57	1726.44
261.78	1675.24
262.00	1662.95
262.22	1753.06
262.43	1650.66
262.65	1689.57
262.86	1734.63
263.08	1830.88
263.30	1693.67
263.51	1658.85
263.73	1675.24
263.95	1810.40
264.16	1593.32
264.38	1689.57
264.60	1787.88
264.81	1726.44
265.03	1847.27
265.25	1779.68
265.46	1685.48
265.68	1744.87
265.89	1814.50
266.11	1669.09
266.33	1703.91
266.54	1732.58
266.76	1732.58
266.98	1722.34
267.19	1804.26
267.41	1767.40
267.62	1732.58
267.84	1662.95
268.06	1808.36
268.27	1689.57
268.49	1751.01
268.70	1804.26
268.92	1755.11
269.14	1697.77
269.35	1636.33
269.57	1558.50
269.79	1798.12
270.00	1693.67
270.22	1822.69
270.43	1693.67
270.65	1556.46
270.87	1732.58
271.08	1734.63
271.30	1744.87
271.51	1677.29
271.73	1691.62
271.95	1777.64
272.16	1724.39
272.38	1716.20
272.59	1699.81
272.81	1736.68
273.02	1679.33
273.24	1681.38
273.46	1783.78
273.67	1624.04
273.89	1632.23
274.10	1683.43
274.32	1755.11
274.54	1669.09
274.75	1675.24
274.97	1712.10
275.18	1724.39
275.40	1738.73
275.61	1705.96
275.83	1695.72
276.05	1669.09
276.26	1708.01
276.48	1802.21
276.69	1648.61
276.91	1658.85
277.12	1796.07
277.34	1773.54
277.55	1779.68
277.77	1683.43
277.99	1673.19
278.20	1638.38
278.42	1595.37
278.63	1679.33
278.85	1566.70
279.06	1662.95
279.28	1710.05
279.49	1710.05
279.71	1726.44
279.93	1779.68
280.14	1681.38
280.36	1630.18
280.57	1720.29
280.79	1849.32
281.00	1634.28
281.22	1652.71
281.43	1839.08
281.65	1562.60
281.86	1691.62
282.08	1757.16
282.29	1794.02
282.51	1658.85
282.73	1609.70
282.94	1615.85
283.16	1773.54
283.37	1834.98
283.59	1751.01
283.80	1714.15
284.02	1753.06
284.23	1695.72
284.45	1689.57
284.66	1628.14
284.88	1662.95
285.09	1632.23
285.31	1730.53
285.52	1677.29
285.74	1687.53
285.95	1812.45
286.17	1714.15
286.38	1849.32
286.60	1718.25
286.81	1714.15
287.03	1697.77
287.24	1695.72
287.46	1775.59
287.67	1730.53
287.89	1890.28
288.10	1730.53
288.32	1681.38
288.53	1746.92
288.75	1638.38
288.96	1728.49
289.18	1732.58
289.39	1658.85
289.61	1816.55
289.82	1804.26
290.04	1818.60
290.25	1683.43
290.47	1783.78
290.68	1656.81
290.90	1771.49
291.11	1660.90
291.33	1759.21
291.54	1689.57
291.76	1673.19
291.97	1693.67
292.18	1710.05
292.40	1656.81
292.61	1708.01
292.83	1937.38
293.04	1697.77
293.26	1791.97
293.47	1646.57
293.69	1634.28
293.90	1732.58
294.12	1777.64
294.33	1748.97
294.55	1701.86
294.76	1740.77
294.97	1789.92
295.19	1837.03
295.40	1738.73
295.62	1619.94
295.83	1775.59
296.05	1738.73
296.26	1785.83
296.48	1626.09
296.69	1730.53
296.90	1773.54
297.12	1730.53
297.33	1763.30
297.55	1726.44
297.76	1734.63
297.98	1783.78
298.19	1660.90
298.41	1740.77
298.62	1665.00
298.83	1777.64
299.05	1671.14
299.26	1714.15
299.48	1685.48
299.69	1751.01
299.90	1708.01
300.12	1665.00
300.33	1705.96
300.55	1736.68
300.76	1708.01
300.98	1630.18
301.19	1724.39
301.40	1710.05
301.62	1660.90
301.83	1751.01
302.05	1765.35
302.26	1720.29
302.47	1775.59
302.69	1638.38
302.90	1712.10
303.12	1605.61
303.33	1728.49
303.54	1818.60
303.76	1681.38
303.97	1734.63
304.19	1794.02
304.40	1650.66
304.61	1787.88
304.83	1769.44
305.04	1744.87
305.26	1763.30
305.47	1740.77
305.68	1683.43
305.90	1591.27
306.11	1796.07
306.33	1740.77
306.54	1701.86
306.75	1687.53
306.97	1550.31
307.18	1687.53
307.39	1687.53
307.61	1761.25
307.82	1662.95
308.04	1787.88
308.25	1675.24
308.46	1669.09
308.68	1634.28
308.89	1656.81
309.10	1710.05
309.32	1716.20
309.53	1720.29
309.74	1722.34
309.96	1718.25
310.17	1722.34
310.39	1693.67
310.60	1730.53
310.81	1619.94
311.03	1669.09
311.24	1734.63
311.45	1693.67
311.67	1853.41
311.88	1708.01
312.09	1689.57
312.31	1710.05
312.52	1671.14
312.73	1699.81
312.95	1587.18
313.16	1648.61
313.37	1775.59
313.59	1734.63
313.80	1703.91
314.01	1781.73
314.23	1742.82
314.44	1646.57
314.65	1595.37
314.87	1660.90
315.08	1697.77
315.29	1691.62
315.51	1669.09
315.72	1626.09
315.93	1722.34
316.15	1791.97
316.36	1683.43
316.57	1695.72
316.79	1789.92
317.00	1646.57
317.21	1689.57
317.43	1632.23
317.64	1699.81
317.85	1660.90
318.07	1640.42
318.28	1714.15
318.49	1867.75
318.70	1951.71
318.92	1865.70
319.13	1847.27
319.34	1828.84
319.56	1810.40
319.77	1783.78
319.98	1820.64
320.20	1753.06
320.41	1759.21
320.62	1705.96
320.83	1687.53
321.05	1853.41
321.26	1736.68
321.47	1669.09
321.69	1732.58
321.90	1591.27
322.11	1689.57
322.32	1665.00
322.54	1753.06
322.75	1658.85
322.96	1890.28
323.18	1669.09
323.39	1599.46
323.60	1728.49
323.81	1804.26
324.03	1660.90
324.24	1673.19
324.45	1757.16
324.66	1687.53
324.88	1822.69
325.09	1791.97
325.30	1775.59
325.52	1816.55
325.73	1759.21
325.94	1693.67
326.15	1648.61
326.37	1683.43
326.58	1755.11
326.79	1753.06
327.00	1738.73
327.22	1738.73
327.43	1718.25
327.64	1634.28
327.85	1734.63
328.07	1689.57
328.28	1804.26
328.49	1742.82
328.70	1646.57
328.92	1689.57
329.13	1716.20
329.34	1808.36
329.55	1820.64
329.76	1812.45
329.98	1626.09
330.19	1785.83
330.40	1763.30
330.61	1624.04
330.83	1710.05
331.04	1714.15
331.25	1697.77
331.46	1714.15
331.68	1673.19
331.89	1695.72
332.10	1619.94
332.31	1603.56
332.52	1687.53
332.74	1796.07
332.95	1619.94
333.16	1720.29
333.37	1808.36
333.58	1691.62
333.80	1781.73
334.01	1591.27
334.22	1705.96
334.43	1744.87
334.64	1703.91
334.86	1677.29
335.07	1624.04
335.28	1779.68
335.49	1662.95
335.70	1791.97
335.92	1828.84
336.13	1832.93
336.34	1744.87
336.55	1726.44
336.76	1734.63
336.98	1624.04
337.19	1751.01
337.40	1902.56
337.61	1980.39
337.82	1689.57
338.04	1781.73
338.25	1613.80
338.46	1724.39
338.67	1689.57
338.88	1632.23
339.09	1683.43
339.31	1679.33
339.52	1632.23
339.73	1632.23
339.94	1781.73
340.15	1693.67
340.36	1648.61
340.58	1728.49
340.79	1609.70
341.00	1720.29
341.21	1646.57
341.42	1892.32
341.63	1712.10
341.85	1779.68
342.06	1742.82
342.27	1658.85
342.48	1773.54
342.69	1656.81
342.90	1673.19
343.12	1759.21
343.33	1650.66
343.54	1800.16
343.75	1820.64
343.96	1773.54
344.17	1689.57
344.38	1665.00
344.60	1632.23
344.81	1671.14
345.02	1722.34
345.23	1783.78
345.44	1894.37
345.65	1726.44
345.86	1701.86
346.07	1753.06
346.29	1755.11
346.50	1722.34
346.71	1724.39
346.92	1742.82
347.13	1896.42
347.34	1722.34
347.55	1648.61
347.76	1759.21
347.98	1621.99
348.19	1730.53
348.40	1783.78
348.61	1650.66
348.82	1767.40
349.03	1751.01
349.24	1783.78
349.45	1882.08
349.66	1632.23
349.88	1744.87
350.09	1687.53
350.30	1871.84
350.51	1822.69
350.72	1744.87
350.93	1791.97
351.14	1712.10
351.35	1718.25
351.56	1679.33
351.77	1734.63
351.99	1746.92
352.20	1877.99
352.41	1791.97
352.62	1601.51
352.83	1685.48
353.04	1662.95
353.25	1615.85
353.46	1804.26
353.67	1740.77
353.88	1658.85
354.09	1650.66
354.30	1724.39
354.52	1804.26
354.73	1748.97
354.94	1701.86
355.15	1681.38
355.36	1800.16
355.57	1675.24
355.78	1759.21
355.99	1652.71
356.20	1693.67
356.41	1832.93
356.62	1767.40
356.83	1734.63
357.04	1710.05
357.25	1593.32
357.46	1769.44
357.68	1624.04
357.89	1740.77
358.10	1722.34
358.31	1644.52
358.52	1705.96
358.73	1636.33
358.94	1660.90
359.15	1798.12
359.36	1703.91
359.57	1736.68
359.78	1685.48
359.99	1761.25
360.20	1613.80
360.41	1728.49
360.62	1693.67
360.83	1757.16
361.04	1685.48
361.25	1822.69
361.46	1859.56
361.67	1755.11
361.88	1701.86
362.09	1746.92
362.30	1732.58
362.51	1697.77
362.72	1746.92
362.93	1802.21
363.14	1689.57
363.35	1740.77
363.56	1734.63
363.78	1769.44
363.99	1660.90
364.20	1677.29
364.41	1734.63
364.62	1808.36
364.83	1765.35
365.04	1660.90
365.25	1693.67
365.46	1904.61
365.67	1679.33
365.88	1636.33
366.09	1722.34
366.30	1708.01
366.51	1679.33
366.72	1685.48
366.93	1755.11
367.14	1697.77
367.35	1798.12
367.56	1730.53
367.77	1720.29
367.98	1701.86
368.18	1740.77
368.39	1730.53
368.60	1646.57
368.81	1794.02
369.02	1746.92
369.23	1697.77
369.44	1677.29
369.65	1699.81
369.86	1796.07
370.07	1775.59
370.28	1671.14
370.49	1738.73
370.70	1755.11
370.91	1660.90
371.12	1726.44
371.33	1753.06
371.54	1777.64
371.75	1746.92
371.96	1517.54
372.17	1652.71
372.38	1751.01
372.59	1720.29
372.80	1708.01
373.01	1763.30
373.22	1710.05
373.43	1712.10
373.64	1644.52
373.85	1740.77
374.06	1779.68
374.26	1765.35
374.47	1681.38
374.68	1886.18
374.89	1697.77
375.10	1679.33
375.31	1744.87
375.52	1734.63
375.73	1718.25
375.94	1693.67
376.15	1804.26
376.36	1632.23
376.57	1693.67
376.78	1734.63
376.99	1742.82
377.20	1755.11
377.40	1675.24
377.61	1742.82
377.82	1597.42
378.03	1746.92
378.24	1837.03
378.45	1687.53
378.66	1804.26
378.87	1617.90
379.08	1716.20
379.29	1662.95
379.50	1740.77
379.71	1642.47
379.91	1705.96
380.12	1640.42
380.33	1785.83
380.54	1691.62
380.75	1720.29
380.96	1738.73
381.17	1751.01
381.38	1710.05
381.59	1771.49
381.80	1722.34
382.00	1902.56
382.21	1757.16
382.42	1779.68
382.63	1964.00
382.84	1781.73
383.05	1804.26
383.26	1771.49
383.47	1708.01
383.68	1816.55
383.88	1796.07
384.09	1703.91
384.30	1820.64
384.51	1677.29
384.72	1763.30
384.93	1585.13
385.14	1769.44
385.35	1781.73
385.55	1652.71
385.76	1738.73
385.97	1652.71
386.18	1720.29
386.39	1753.06
386.60	1671.14
386.81	1671.14
387.02	1671.14
387.22	1607.66
387.43	1783.78
387.64	1853.41
387.85	2000.87
388.06	2193.37
388.27	4130.75
388.48	6817.69
388.68	8155.01
388.89	9434.99
389.10	9893.74
389.31	8542.08
389.52	7559.05
389.73	6590.36
389.93	6307.74
390.14	5859.24
390.35	5304.24
390.56	4626.36
390.77	3792.84
390.98	3080.14
391.18	2490.33
391.39	2168.80
391.60	1890.28
391.81	1804.26
392.02	1771.49
392.23	1847.27
392.43	1808.36
392.64	1845.22
392.85	1791.97
393.06	1837.03
393.27	1693.67
393.47	1685.48
393.68	1744.87
393.89	1763.30
394.10	1814.50
394.31	1646.57
394.52	1587.18
394.72	1759.21
394.93	1820.64
395.14	1607.66
395.35	1763.30
395.56	1708.01
395.76	1808.36
395.97	1826.79
396.18	1791.97
396.39	1806.31
396.60	2041.82
396.80	1896.42
397.01	1892.32
397.22	1818.60
397.43	1800.16
397.64	1755.11
397.84	1834.98
398.05	1857.51
398.26	1746.92
398.47	1863.65
398.67	1820.64
398.88	1681.38
399.09	1722.34
399.30	1642.47
399.51	1738.73
399.71	1595.37
399.92	1683.43
400.13	1771.49
400.34	1732.58
400.54	1751.01
400.75	1787.88
400.96	1697.77
401.17	1824.74
401.37	1781.73
401.58	1671.14
401.79	1783.78
402.00	1871.84
402.21	2050.02
402.41	1976.29
402.62	2054.11
402.83	2047.97
403.04	1890.28
403.24	2125.79
403.45	1765.35
403.66	1992.67
403.87	1843.17
404.07	1875.94
404.28	1834.98
404.49	1863.65
404.70	1849.32
404.90	1777.64
405.11	1726.44
405.32	1804.26
405.52	1669.09
405.73	1667.05
405.94	1703.91
406.15	1748.97
406.35	1759.21
406.56	1712.10
406.77	1802.21
406.98	1763.30
407.18	1728.49
407.39	1742.82
407.60	1734.63
407.80	1736.68
408.01	1708.01
408.22	1724.39
408.43	1667.05
408.63	1738.73
408.84	1718.25
409.05	1820.64
409.25	1695.72
409.46	1740.77
409.67	1751.01
409.88	1691.62
410.08	1761.25
410.29	1730.53
410.50	1710.05
410.70	1789.92
410.91	1658.85
411.12	1738.73
411.32	1767.40
411.53	1677.29
411.74	1785.83
411.95	1857.51
412.15	1736.68
412.36	1902.56
412.57	1759.21
412.77	1779.68
412.98	1751.01
413.19	1738.73
413.39	1697.77
413.60	1789.92
413.81	1765.35
414.01	1687.53
414.22	1767.40
414.43	1732.58
414.63	1730.53
414.84	1804.26
415.05	1691.62
415.25	1693.67
415.46	1802.21
415.67	1771.49
415.87	1779.68
416.08	1800.16
416.29	1738.73
416.49	1837.03
416.70	1697.77
416.91	1708.01
417.11	1773.54
417.32	1691.62
417.53	1693.67
417.73	1763.30
417.94	1712.10
418.15	1714.15
418.35	1640.42
418.56	1710.05
418.77	1855.46
418.97	1687.53
419.18	1734.63
419.38	1576.94
419.59	1767.40
419.80	1796.07
420.00	1677.29
420.21	1732.58
420.42	1812.45
420.62	1744.87
420.83	1718.25
421.04	1742.82
421.24	1697.77
421.45	1789.92
421.65	1775.59
421.86	1681.38
422.07	1716.20
422.27	1779.68
422.48	1785.83
422.69	1693.67
422.89	1740.77
423.10	1701.86
423.30	1683.43
423.51	1730.53
423.72	1791.97
423.92	1732.58
424.13	1630.18
424.33	1718.25
424.54	1765.35
424.75	1785.83
424.95	1781.73
425.16	1785.83
425.36	1681.38
425.57	1689.57
425.78	1757.16
425.98	1671.14
426.19	1742.82
426.39	1640.42
426.60	1701.86
426.81	1884.13
427.01	1679.33
427.22	1681.38
427.42	1607.66
427.63	1634.28
427.83	1742.82
428.04	1800.16
428.25	1841.12
428.45	1781.73
428.66	1826.79
428.86	1751.01
429.07	1720.29
429.28	1787.88
429.48	1671.14
429.69	1656.81
429.89	1771.49
430.10	1685.48
430.30	1765.35
430.51	1804.26
430.71	1691.62
430.92	1697.77
431.13	1654.76
431.33	1730.53
431.54	1755.11
431.74	1804.26
431.95	1830.88
432.15	1636.33
432.36	1771.49
432.56	1701.86
432.77	1824.74
432.98	1767.40
433.18	1701.86
433.39	1701.86
433.59	1728.49
433.80	1818.60
434.00	1890.28
434.21	1673.19
434.41	1710.05
434.62	1826.79
434.82	1576.94
435.03	1697.77
435.23	1763.30
435.44	1701.86
435.64	1693.67
435.85	1775.59
436.06	1736.68
436.26	1785.83
436.47	1738.73
436.67	1763.30
436.88	1658.85
437.08	1748.97
437.29	1804.26
437.49	1748.97
437.70	1726.44
437.90	1744.87
438.11	1847.27
438.31	1761.25
438.52	1890.28
438.72	1857.51
438.93	1941.47
439.13	1826.79
439.34	1808.36
439.54	1845.22
439.75	1742.82
439.95	1837.03
440.16	1748.97
440.36	1730.53
440.57	1777.64
440.77	1779.68
440.98	1759.21
441.18	1808.36
441.39	1693.67
441.59	1714.15
441.80	1853.41
442.00	1824.74
442.21	1804.26
442.41	1746.92
442.62	1751.01
442.82	1748.97
443.02	1732.58
443.23	1685.48
443.43	1759.21
443.64	1820.64
443.84	1677.29
444.05	1834.98
444.25	1830.88
444.46	1673.19
444.66	1785.83
444.87	1925.09
445.07	1689.57
445.28	1738.73
445.48	1783.78
445.69	1843.17
445.89	1898.47
446.09	1757.16
446.30	2041.82
446.50	2635.74
446.71	3696.58
446.91	4335.55
447.12	4845.49
447.32	4818.87
447.53	4433.85
447.73	3893.19
447.93	3657.67
448.14	3260.37
448.34	3098.58
448.55	2914.26
448.75	2953.17
448.96	2695.13
449.16	2414.56
449.36	2289.63
449.57	2111.46
449.77	1888.23
449.98	1789.92
450.18	1820.64
450.39	1873.89
450.59	1783.78
450.79	1740.77
451.00	1714.15
451.20	1730.53
451.41	1665.00
451.61	1886.18
451.81	1806.31
452.02	1759.21
452.22	1685.48
452.43	1755.11
452.63	1714.15
452.84	1708.01
453.04	1724.39
453.24	1757.16
453.45	1755.11
453.65	1726.44
453.86	1771.49
454.06	1763.30
454.26	1753.06
454.47	1771.49
454.67	1798.12
454.87	1693.67
455.08	1691.62
455.28	1828.84
455.49	1804.26
455.69	1751.01
455.89	1877.99
456.10	1800.16
456.30	1732.58
456.51	1828.84
456.71	1767.40
456.91	1726.44
457.12	1732.58
457.32	1816.55
457.52	1724.39
457.73	1783.78
457.93	1785.83
458.14	1673.19
458.34	1648.61
458.54	1718.25
458.75	1757.16
458.95	1755.11
459.15	1763.30
459.36	1828.84
459.56	1748.97
459.76	1859.56
459.97	1718.25
460.17	1775.59
460.37	1828.84
460.58	1734.63
460.78	1798.12
460.99	1689.57
461.19	1765.35
461.39	1773.54
461.60	1681.38
461.80	1714.15
462.00	1765.35
462.21	1714.15
462.41	1720.29
462.61	1636.33
462.82	1652.71
463.02	1683.43
463.22	1779.68
463.43	1857.51
463.63	1697.77
463.83	1832.93
464.04	1681.38
464.24	1859.56
464.44	1685.48
464.64	1761.25
464.85	1763.30
465.05	1779.68
465.25	1669.09
465.46	1720.29
465.66	1820.64
465.86	1734.63
466.07	1773.54
466.27	1720.29
466.47	1632.23
466.68	1710.05
466.88	1834.98
467.08	1730.53
467.29	1712.10
467.49	1740.77
467.69	1804.26
467.89	1720.29
468.10	1763.30
468.30	1734.63
468.50	1746.92
468.71	1765.35
468.91	1695.72
469.11	1789.92
469.31	1736.68
469.52	1697.77
469.72	1781.73
469.92	1800.16
470.13	1693.67
470.33	1816.55
470.53	1843.17
470.73	2021.35
470.94	2322.40
471.14	2416.60
471.34	2445.27
471.54	2439.13
471.75	2338.78
471.95	2099.17
472.15	2082.78
472.36	2131.94
472.56	2084.83
472.76	2105.31
472.96	2062.30
473.17	1914.85
473.37	1902.56
473.57	1779.68
473.77	1804.26
473.98	1751.01
474.18	1734.63
474.38	1941.47
474.58	1732.58
474.79	1740.77
474.99	1746.92
475.19	1773.54
475.39	1722.34
475.60	1730.53
475.80	1701.86
476.00	1775.59
476.20	1763.30
476.41	1703.91
476.61	1812.45
476.81	1804.26
477.01	1689.57
477.21	1847.27
477.42	1794.02
477.62	1667.05
477.82	1800.16
478.02	1591.27
478.23	1689.57
478.43	1708.01
478.63	1699.81
478.83	1816.55
479.03	1662.95
479.24	1798.12
479.44	1847.27
479.64	1722.34
479.84	1558.50
480.04	1693.67
480.25	1834.98
480.45	1710.05
480.65	1796.07
480.85	1806.31
481.06	1679.33
481.26	1728.49
481.46	1746.92
481.66	1787.88
481.86	1640.42
482.06	1832.93
482.27	1740.77
482.47	1660.90
482.67	1742.82
482.87	1679.33
483.07	1763.30
483.28	1767.40
483.48	1638.38
483.68	1742.82
483.88	1632.23
484.08	1607.66
484.29	1703.91
484.49	1665.00
484.69	1646.57
484.89	1818.60
485.09	1800.16
485.29	1722.34
485.50	1755.11
485.70	1689.57
485.90	1877.99
486.10	1785.83
486.30	1689.57
486.50	1791.97
486.71	1810.40
486.91	1689.57
487.11	1775.59
487.31	1724.39
487.51	1730.53
487.71	1703.91
487.91	1705.96
488.12	1695.72
488.32	1603.56
488.52	1740.77
488.72	1572.84
488.92	1769.44
489.12	1804.26
489.32	1791.97
489.53	1785.83
489.73	1648.61
489.93	1771.49
490.13	1732.58
490.33	1695.72
490.53	1775.59
490.73	1832.93
490.94	1697.77
491.14	1728.49
491.34	1894.37
491.54	2148.32
491.74	2498.52
491.94	2906.07
492.14	3008.47
492.34	3071.95
492.54	2637.78
492.75	2519.00
492.95	2519.00
493.15	2377.69
493.35	2377.69
493.55	2215.90
493.75	2201.57
493.95	2201.57
494.15	2080.74
494.35	1894.37
494.56	1914.85
494.76	1798.12
494.96	1867.75
495.16	1779.68
495.36	1783.78
495.56	1787.88
495.76	1685.48
495.96	1693.67
496.16	1732.58
496.36	1888.23
496.56	1748.97
496.77	1710.05
496.97	1796.07
497.17	1839.08
497.37	1613.80
497.57	1830.88
497.77	1650.66
497.97	1726.44
498.17	1755.11
498.37	1718.25
498.57	1712.10
498.77	1744.87
498.97	1783.78
499.17	1869.80
499.38	1681.38
499.58	1734.63
499.78	1863.65
499.98	1808.36
500.18	1730.53
500.38	1679.33
500.58	1935.33
500.78	2506.71
500.98	4554.68
501.18	5746.60
501.38	6676.38
501.58	7169.94
501.78	6664.09
501.98	5494.70
502.18	4970.42
502.38	4523.96
502.58	4097.99
502.78	3745.73
502.98	3479.50
503.18	3477.45
503.38	3131.34
503.59	2854.87
503.79	2641.88
503.99	2361.31
504.19	2271.20
504.39	2207.71
504.59	2238.43
504.79	2146.27
504.99	2002.91
505.19	1961.95
505.39	1925.09
505.59	1994.72
505.79	1925.09
505.99	1877.99
506.19	1794.02
506.39	1906.66
506.59	1710.05
506.79	1853.41
506.99	1886.18
507.19	1732.58
507.39	1789.92
507.59	1687.53
507.79	1693.67
507.99	1642.47
508.19	1818.60
508.39	1648.61
508.59	1744.87
508.79	1824.74
508.99	1861.60
509.19	1685.48
509.39	1746.92
509.59	1679.33
509.79	1695.72
509.99	1728.49
510.19	1791.97
510.39	1759.21
510.59	1720.29
510.79	1751.01
510.99	1691.62
511.19	1753.06
511.39	1892.32
511.59	1787.88
511.79	1802.21
511.99	1730.53
512.19	1828.84
512.38	1806.31
512.58	1701.86
512.78	1753.06
512.98	1742.82
513.18	1865.70
513.38	1751.01
513.58	1857.51
513.78	1685.48
513.98	1720.29
514.18	1621.99
514.38	1685.48
514.58	1699.81
514.78	1632.23
514.98	1693.67
515.18	1728.49
515.38	1681.38
515.58	1816.55
515.78	1718.25
515.98	1689.57
516.18	1669.09
516.38	1761.25
516.57	1718.25
516.77	1757.16
516.97	1869.80
517.17	1722.34
517.37	1556.46
517.57	1787.88
517.77	1697.77
517.97	1699.81
518.17	1773.54
518.37	1726.44
518.57	1640.42
518.77	1767.40
518.97	1738.73
519.16	1736.68
519.36	1826.79
519.56	1708.01
519.76	1738.73
519.96	1681.38
520.16	1824.74
520.36	1726.44
520.56	1828.84
520.76	1671.14
520.96	1771.49
521.16	1740.77
521.35	1832.93
521.55	1751.01
521.75	1773.54
521.95	1699.81
522.15	1738.73
522.35	1687.53
522.55	1746.92
522.75	1837.03
522.95	1779.68
523.14	1724.39
523.34	1771.49
523.54	1751.01
523.74	1816.55
523.94	1771.49
524.14	1581.03
524.34	1796.07
524.54	1865.70
524.73	1652.71
524.93	1791.97
525.13	1820.64
525.33	1636.33
525.53	1855.46
525.73	1798.12
525.93	1796.07
526.13	1722.34
526.32	1658.85
526.52	1857.51
526.72	1742.82
526.92	1701.86
527.12	1675.24
527.32	1601.51
527.52	1703.91
527.71	1763.30
527.91	1834.98
528.11	1685.48
528.31	1763.30
528.51	1591.27
528.71	1738.73
528.90	1804.26
529.10	1877.99
529.30	1816.55
529.50	1662.95
529.70	1804.26
529.90	1722.34
530.09	1779.68
530.29	1728.49
530.49	1679.33
530.69	1892.32
530.89	1769.44
531.09	1806.31
531.28	1611.75
531.48	1730.53
531.68	1736.68
531.88	1763.30
532.08	1834.98
532.28	1703.91
532.47	1771.49
532.67	1789.92
532.87	1742.82
533.07	1665.00
533.27	1855.46
533.46	1761.25
533.66	1738.73
533.86	1736.68
534.06	1800.16
534.26	1775.59
534.45	1751.01
534.65	1855.46
534.85	1746.92
535.05	1726.44
535.25	1787.88
535.44	1628.14
535.64	1843.17
535.84	1714.15
536.04	1673.19
536.24	1734.63
536.43	1742.82
536.63	1761.25
536.83	1769.44
537.03	1714.15
537.22	1626.09
537.42	1677.29
537.62	1779.68
537.82	1744.87
538.02	1820.64
538.21	1841.12
538.41	1892.32
538.61	1798.12
538.81	1724.39
539.00	1839.08
539.20	1714.15
539.40	1716.20
539.60	1783.78
539.79	1810.40
539.99	1712.10
540.19	1718.25
540.39	1732.58
540.58	1814.50
540.78	1814.50
540.98	1779.68
541.18	1812.45
541.37	1832.93
541.57	1671.14
541.77	1789.92
541.97	1722.34
542.16	1689.57
542.36	1724.39
542.56	1794.02
542.76	1880.04
542.95	1779.68
543.15	1806.31
543.35	1763.30
543.54	1699.81
543.74	1703.91
543.94	1837.03
544.14	1738.73
544.33	1789.92
544.53	1697.77
544.73	1761.25
544.93	1755.11
545.12	1734.63
545.32	1757.16
545.52	1683.43
545.71	1744.87
545.91	1753.06
546.11	1716.20
546.30	1701.86
546.50	1755.11
546.70	1736.68
546.90	1755.11
547.09	1593.32
547.29	1728.49
547.49	1830.88
547.68	1779.68
547.88	1685.48
548.08	1798.12
548.27	2228.19
548.47	1705.96
548.67	1730.53
548.87	1705.96
549.06	1734.63
549.26	1773.54
549.46	1818.60
549.65	1726.44
549.85	1818.60
550.05	1771.49
550.24	1673.19
550.44	1705.96
550.64	1787.88
550.83	1748.97
551.03	1794.02
551.23	1855.46
551.42	1796.07
551.62	1732.58
551.82	1710.05
552.01	1732.58
552.21	1775.59
552.41	1761.25
552.60	1929.19
552.80	1800.16
553.00	1644.52
553.19	1757.16
553.39	1814.50
553.59	1736.68
553.78	1832.93
553.98	1705.96
554.17	1660.90
554.37	1753.06
554.57	1740.77
554.76	1751.01
554.96	1687.53
555.16	1757.16
555.35	1814.50
555.55	1730.53
555.75	1744.87
555.94	1830.88
556.14	1720.29
556.33	1773.54
556.53	1718.25
556.73	1734.63
556.92	1759.21
557.12	1828.84
557.32	1804.26
557.51	1834.98
557.71	1863.65
557.90	1904.61
558.10	1855.46
558.30	1693.67
558.49	1757.16
558.69	1767.40
558.88	1767.40
559.08	1699.81
559.28	1662.95
559.47	1751.01
559.67	1746.92
559.86	1865.70
560.06	1742.82
560.26	1677.29
560.45	1763.30
560.65	1708.01
560.84	1832.93
561.04	1630.18
561.24	1781.73
561.43	1646.57
561.63	1859.56
561.82	1785.83
562.02	1748.97
562.22	1705.96
562.41	1646.57
562.61	1697.77
562.80	1673.19
563.00	1832.93
563.19	1785.83
563.39	1755.11
563.59	1818.60
563.78	1718.25
563.98	1675.24
564.17	1718.25
564.37	1634.28
564.56	1777.64
564.76	1765.35
564.96	1771.49
565.15	1736.68
565.35	1880.04
565.54	1703.91
565.74	1843.17
565.93	1777.64
566.13	1779.68
566.32	1806.31
566.52	1787.88
566.71	1724.39
566.91	1818.60
567.11	1708.01
567.30	1789.92
567.50	1779.68
567.69	1787.88
567.89	1738.73
568.08	1730.53
568.28	1755.11
568.47	1650.66
568.67	1849.32
568.86	1720.29
569.06	1845.22
569.25	1728.49
569.45	1703.91
569.64	1746.92
569.84	1650.66
570.04	1724.39
570.23	1693.67
570.43	1644.52
570.62	1763.30
570.82	1853.41
571.01	1660.90
571.21	1804.26
571.40	1763.30
571.60	1794.02
571.79	1701.86
571.99	1777.64
572.18	1730.53
572.38	1757.16
572.57	1718.25
572.77	1757.16
572.96	1900.52
573.16	1724.39
573.35	1708.01
573.55	1892.32
573.74	1791.97
573.94	1732.58
574.13	1660.90
574.33	1859.56
574.52	1794.02
574.71	1789.92
574.91	1767.40
575.10	1718.25
575.30	1720.29
575.49	1732.58
575.69	1710.05
575.88	1755.11
576.08	1732.58
576.27	1787.88
576.47	1712.10
576.66	1861.60
576.86	1800.16
577.05	1826.79
577.25	1775.59
577.44	1791.97
577.64	1753.06
577.83	1755.11
578.02	1732.58
578.22	1751.01
578.41	1939.43
578.61	1738.73
578.80	1755.11
579.00	1736.68
579.19	1722.34
579.39	1763.30
579.58	1861.60
579.77	1771.49
579.97	1855.46
580.16	1853.41
580.36	1863.65
580.55	1841.12
580.75	1781.73
580.94	1812.45
581.13	1826.79
581.33	1818.60
581.52	1812.45
581.72	1857.51
581.91	1914.85
582.11	1744.87
582.30	1832.93
582.49	1708.01
582.69	1853.41
582.88	1787.88
583.08	1824.74
583.27	1779.68
583.47	1769.44
583.66	1675.24
583.85	1757.16
584.05	1699.81
584.24	1759.21
584.44	1761.25
584.63	1748.97
584.82	1861.60
585.02	1851.36
585.21	1863.65
585.41	1802.21
585.60	1873.89
585.79	1853.41
585.99	1935.33
586.18	1923.04
586.37	2228.19
586.57	3383.24
586.76	9871.21
586.96	23989.91
587.15	33910.27
587.34	39681.44
587.54	41594.25
587.73	36380.12
587.93	25607.80
588.12	21100.22
588.31	18040.56
588.51	16209.67
588.70	14999.32
588.89	13969.19
589.09	12363.59
589.28	10917.72
589.47	9377.65
589.67	7935.88
589.86	6430.62
590.06	4859.83
590.25	3934.15
590.44	3135.44
590.64	2545.63
590.83	2291.68
591.02	2181.09
591.22	1988.58
591.41	1937.38
591.60	1890.28
591.80	1918.95
591.99	1701.86
592.18	1791.97
592.38	1904.61
592.57	1787.88
592.76	1783.78
592.96	1791.97
593.15	1892.32
593.34	1806.31
593.54	1775.59
593.73	1742.82
593.92	1853.41
594.12	1751.01
594.31	1748.97
594.50	1849.32
594.70	1843.17
594.89	1865.70
595.08	1685.48
595.28	1738.73
595.47	1943.52
595.66	1812.45
595.86	1724.39
596.05	1755.11
596.24	1751.01
596.43	1828.84
596.63	1837.03
596.82	1746.92
597.01	1761.25
597.21	1849.32
597.40	1751.01
597.59	1779.68
597.79	1759.21
597.98	1843.17
598.17	1755.11
598.36	1853.41
598.56	1810.40
598.75	1738.73
598.94	1798.12
599.14	1812.45
599.33	1759.21
599.52	1757.16
599.71	1791.97
599.91	1875.94
600.10	1806.31
600.29	1697.77
600.48	1781.73
600.68	1755.11
600.87	1808.36
601.06	1718.25
601.26	1761.25
601.45	1738.73
601.64	1714.15
601.83	1841.12
602.03	1744.87
602.22	1681.38
602.41	1812.45
602.60	1865.70
602.80	1789.92
602.99	1779.68
603.18	1755.11
603.37	1722.34
603.57	1736.68
603.76	1824.74
603.95	1830.88
604.14	1640.42
604.34	1777.64
604.53	1851.36
604.72	1753.06
604.91	1804.26
605.10	1767.40
605.30	1722.34
605.49	1824.74
605.68	1800.16
605.87	1796.07
606.07	1708.01
606.26	1783.78
606.45	1742.82
606.64	1771.49
606.84	1656.81
607.03	1740.77
607.22	1806.31
607.41	1751.01
607.60	1730.53
607.80	1812.45
607.99	1677.29
608.18	1730.53
608.37	1828.84
608.56	1710.05
608.76	1841.12
608.95	1822.69
609.14	1804.26
609.33	1744.87
609.52	1832.93
609.72	1705.96
609.91	1753.06
610.10	1806.31
610.29	1841.12
610.48	1818.60
610.68	1853.41
610.87	1753.06
611.06	1804.26
611.25	1734.63
611.44	1822.69
611.63	1667.05
611.83	1820.64
612.02	1691.62
612.21	1855.46
612.40	1720.29
612.59	1689.57
612.79	1638.38
612.98	1718.25
613.17	1789.92
613.36	1683.43
613.55	1847.27
613.74	1705.96
613.93	1697.77
614.13	1728.49
614.32	1798.12
614.51	1808.36
614.70	1726.44
614.89	1705.96
615.08	1810.40
615.28	2047.97
615.47	1673.19
615.66	1781.73
615.85	1656.81
616.04	1853.41
616.23	1701.86
616.42	1763.30
616.62	1837.03
616.81	1816.55
617.00	1769.44
617.19	1755.11
617.38	1675.24
617.57	1771.49
617.76	1830.88
617.95	1763.30
618.15	1734.63
618.34	1857.51
618.53	1662.95
618.72	1804.26
618.91	1802.21
619.10	1820.64
619.29	1681.38
619.48	1753.06
619.68	1724.39
619.87	1757.16
620.06	1648.61
620.25	1744.87
620.44	1710.05
620.63	1779.68
620.82	1761.25
621.01	1783.78
621.20	1673.19
621.39	1708.01
621.59	1732.58
621.78	1779.68
621.97	1746.92
622.16	1783.78
622.35	1650.66
622.54	1763.30
622.73	1765.35
622.92	1628.14
623.11	1783.78
623.30	1742.82
623.49	1755.11
623.68	1734.63
623.88	1753.06
624.07	1740.77
624.26	1789.92
624.45	1781.73
624.64	1665.00
624.83	1744.87
625.02	1736.68
625.21	1734.63
625.40	1759.21
625.59	1763.30
625.78	1818.60
625.97	1800.16
626.16	1724.39
626.35	1785.83
626.54	1738.73
626.74	1771.49
626.93	1701.86
627.12	1656.81
627.31	1853.41
627.50	1781.73
627.69	1783.78
627.88	1724.39
628.07	1673.19
628.26	1644.52
628.45	1689.57
628.64	1681.38
628.83	1718.25
629.02	1757.16
629.21	1755.11
629.40	1712.10
629.59	1652.71
629.78	1753.06
629.97	1728.49
630.16	1804.26
630.35	1730.53
630.54	1722.34
630.73	1679.33
630.92	1693.67
631.11	1695.72
631.30	1787.88
631.49	1714.15
631.68	1671.14
631.87	1742.82
632.06	1642.47
632.25	1888.23
632.44	1820.64
632.63	1710.05
632.82	1652.71
633.01	1669.09
633.20	1718.25
633.39	1775.59
633.58	1693.67
633.77	1794.02
633.96	1761.25
634.15	1783.78
634.34	1794.02
634.53	1748.97
634.72	1691.62
634.91	1642.47
635.10	1777.64
635.29	1783.78
635.48	1689.57
635.67	1714.15
635.86	1675.24
636.05	1800.16
636.24	1708.01
636.43	1773.54
636.62	1744.87
636.81	1576.94
637.00	1730.53
637.19	1810.40
637.38	1648.61
637.57	1708.01
637.76	1705.96
637.95	1746.92
638.14	1648.61
638.33	1677.29
638.52	1699.81
638.71	1730.53
638.89	1740.77
639.08	1898.47
639.27	1722.34
639.46	1802.21
639.65	1781.73
639.84	1740.77
640.03	1806.31
640.22	1734.63
640.41	1783.78
640.60	1697.77
640.79	1779.68
640.98	1732.58
641.17	1779.68
641.36	1771.49
641.55	1742.82
641.74	1650.66
641.92	1734.63
642.11	1691.62
642.30	1677.29
642.49	1667.05
642.68	1710.05
642.87	1724.39
643.06	1771.49
643.25	1697.77
643.44	1671.14
643.63	1716.20
643.82	1732.58
644.00	1744.87
644.19	1699.81
644.38	1644.52
644.57	1777.64
644.76	1724.39
644.95	1751.01
645.14	1683.43
645.33	1691.62
645.52	1683.43
645.71	1695.72
645.89	1648.61
646.08	1763.30
646.27	1701.86
646.46	1892.32
646.65	1714.15
646.84	1730.53
647.03	1708.01
647.22	1779.68
647.40	1785.83
647.59	1728.49
647.78	1597.42
647.97	1726.44
648.16	1642.47
648.35	1812.45
648.54	1730.53
648.73	1722.34
648.91	1800.16
649.10	1710.05
649.29	1675.24
649.48	1718.25
649.67	1771.49
649.86	1710.05
650.05	1683.43
650.23	1730.53
650.42	1679.33
650.61	1800.16
650.80	1812.45
650.99	1843.17
651.18	1806.31
651.36	1820.64
651.55	1720.29
651.74	1722.34
651.93	1738.73
652.12	1720.29
652.31	1761.25
652.49	1722.34
652.68	1722.34
652.87	1800.16
653.06	1757.16
653.25	1847.27
653.44	1701.86
653.62	1800.16
653.81	1683.43
654.00	1744.87
654.19	1785.83
654.38	1837.03
654.56	1757.16
654.75	1691.62
654.94	1605.61
655.13	1730.53
655.32	1703.91
655.51	1777.64
655.69	1689.57
655.88	1705.96
656.07	1675.24
656.26	1759.21
656.45	1693.67
656.63	1728.49
656.82	1722.34
657.01	1693.67
657.20	1656.81
657.38	1765.35
657.57	1734.63
657.76	1632.23
657.95	1812.45
658.14	1695.72
658.32	1693.67
658.51	1689.57
658.70	1753.06
658.89	1732.58
659.08	1722.34
659.26	1769.44
659.45	1632.23
659.64	1726.44
659.83	1720.29
660.01	1935.33
660.20	1748.97
660.39	1783.78
660.58	1611.75
660.76	1751.01
660.95	1638.38
661.14	1691.62
661.33	1703.91
661.51	1740.77
661.70	1671.14
661.89	1773.54
662.08	1695.72
662.26	1599.46
662.45	1685.48
662.64	1853.41
662.83	1763.30
663.01	1705.96
663.20	1736.68
663.39	1806.31
663.58	1673.19
663.76	1687.53
663.95	1695.72
664.14	1640.42
664.32	1677.29
664.51	1720.29
664.70	1619.94
664.89	1753.06
665.07	1675.24
665.26	1740.77
665.45	1687.53
665.64	1789.92
665.82	1695.72
666.01	1800.16
666.20	1708.01
666.38	1734.63
666.57	1804.26
666.76	2154.46
666.95	4528.06
667.13	10391.39
667.32	15169.30
667.51	17886.96
667.69	18996.96
667.88	17645.30
668.07	12232.52
668.25	9322.35
668.44	8116.10
668.63	7214.99
668.81	6678.43
669.00	6068.13
669.19	5736.36
669.38	4992.95
669.56	4505.53
669.75	3968.96
669.94	3459.02
670.12	2836.44
670.31	2500.57
670.50	2267.10
670.68	2074.59
670.87	1935.33
671.06	1761.25
671.24	1777.64
671.43	1787.88
671.62	1818.60
671.80	1710.05
671.99	1722.34
672.18	1761.25
672.36	1763.30
672.55	1728.49
672.74	1757.16
672.92	1748.97
673.11	1726.44
673.29	1689.57
673.48	1765.35
673.67	1800.16
673.85	1828.84
674.04	1736.68
674.23	1783.78
674.41	1875.94
674.60	1652.71
674.79	1646.57
674.97	1632.23
675.16	1736.68
675.34	1822.69
675.53	1642.47
675.72	1751.01
675.90	1861.60
676.09	1695.72
676.28	1716.20
676.46	1646.57
676.65	1738.73
676.83	1673.19
677.02	1726.44
677.21	1785.83
677.39	1826.79
677.58	1636.33
677.77	1699.81
677.95	1751.01
678.14	1748.97
678.32	1675.24
678.51	1675.24
678.70	1873.89
678.88	1732.58
679.07	1695.72
679.25	1716.20
679.44	1748.97
679.63	1677.29
679.81	1689.57
680.00	1853.41
680.18	1695.72
680.37	1800.16
680.55	1718.25
680.74	1671.14
680.93	1585.13
681.11	1701.86
681.30	1744.87
681.48	1787.88
681.67	1734.63
681.85	1746.92
682.04	1628.14
682.23	1753.06
682.41	1746.92
682.60	1654.76
682.78	1675.24
682.97	1701.86
683.15	1705.96
683.34	1728.49
683.53	1824.74
683.71	1628.14
683.90	1734.63
684.08	1816.55
684.27	1759.21
684.45	1826.79
684.64	1837.03
684.82	1681.38
685.01	1777.64
685.19	1691.62
685.38	1849.32
685.57	1732.58
685.75	1705.96
685.94	1716.20
686.12	1603.56
686.31	1650.66
686.49	1849.32
686.68	1650.66
686.86	1742.82
687.05	1791.97
687.23	1767.40
687.42	1636.33
687.60	1621.99
687.79	1714.15
687.97	1777.64
688.16	1837.03
688.34	1834.98
688.53	1691.62
688.71	1734.63
688.90	1812.45
689.08	1675.24
689.27	1685.48
689.45	1798.12
689.64	1714.15
689.82	1708.01
690.01	1822.69
690.19	1732.58
690.38	1759.21
690.56	1843.17
690.75	1744.87
690.93	1583.08
691.12	1662.95
691.30	1779.68
691.49	1652.71
691.67	1685.48
691.86	1785.83
692.04	1695.72
692.23	1716.20
692.41	1683.43
692.60	1787.88
692.78	1806.31
692.97	1671.14
693.15	1732.58
693.34	1781.73
693.52	1765.35
693.71	1669.09
693.89	1734.63
694.08	1671.14
694.26	1753.06
694.44	1826.79
694.63	1763.30
694.81	1599.46
695.00	1681.38
695.18	1689.57
695.37	1847.27
695.55	1748.97
695.74	1708.01
695.92	1630.18
696.10	1820.64
696.29	1685.48
696.47	1740.77
696.66	1638.38
696.84	1708.01
697.03	1708.01
697.21	1857.51
697.40	2312.16
697.58	1746.92
697.76	1665.00
697.95	1689.57
698.13	1646.57
698.32	1693.67
698.50	1736.68
698.68	1722.34
698.87	1742.82
699.05	1757.16
699.24	1689.57
699.42	1691.62
699.61	1730.53
699.79	1697.77
699.97	1757.16
700.16	1660.90
700.34	1646.57
700.53	1708.01
700.71	1798.12
700.89	1740.77
701.08	1796.07
701.26	1757.16
701.45	2148.32
701.63	1720.29
701.81	1673.19
702.00	1705.96
702.18	1701.86
702.37	1652.71
702.55	1839.08
702.73	1742.82
702.92	1662.95
703.10	1775.59
703.28	1705.96
703.47	1632.23
703.65	1783.78
703.84	1789.92
704.02	1701.86
704.20	1841.12
704.39	1671.14
704.57	1697.77
704.75	1732.58
704.94	1834.98
705.12	1794.02
705.30	1841.12
705.49	2209.76
705.67	4478.91
705.86	9721.71
706.04	12386.12
706.22	14294.82
706.41	15320.85
706.59	13467.44
706.77	9404.27
706.96	7161.75
707.14	6475.68
707.32	5912.49
707.51	5541.80
707.69	4863.93
707.87	4212.67
708.06	3444.68
708.24	2930.64
708.42	2414.56
708.61	2289.63
708.79	1920.99
708.97	1812.45
709.16	1765.35
709.34	1855.46
709.52	1773.54
709.71	1761.25
709.89	1796.07
710.07	1640.42
710.26	1689.57
710.44	1728.49
710.62	1712.10
710.80	1695.72
710.99	1789.92
711.17	1783.78
711.35	1703.91
711.54	1691.62
711.72	1845.22
711.90	1820.64
712.09	1740.77
712.27	1701.86
712.45	1740.77
712.63	1685.48
712.82	1755.11
713.00	1773.54
713.18	1726.44
713.37	1779.68
713.55	1736.68
713.73	1734.63
713.91	1726.44
714.10	1708.01
714.28	1718.25
714.46	1720.29
714.65	1767.40
714.83	1722.34
715.01	1777.64
715.19	1636.33
715.38	1538.02
715.56	1746.92
715.74	1724.39
715.92	1634.28
716.11	1742.82
716.29	1587.18
716.47	1714.15
716.65	1667.05
716.84	1619.94
717.02	1734.63
717.20	1621.99
717.38	1699.81
717.57	1734.63
717.75	1720.29
717.93	1689.57
718.11	1771.49
718.30	1632.23
718.48	1757.16
718.66	1757.16
718.84	1796.07
719.03	1699.81
719.21	1646.57
719.39	1785.83
719.57	1773.54
719.75	1791.97
719.94	1708.01
720.12	1714.15
720.30	1699.81
720.48	1828.84
720.67	1703.91
720.85	1742.82
721.03	1654.76
721.21	1646.57
721.39	1777.64
721.58	1722.34
721.76	1740.77
721.94	1824.74
722.12	1796.07
722.30	1824.74
722.49	1693.67
722.67	1728.49
722.85	1761.25
723.03	1632.23
723.21	1714.15
723.40	1665.00
723.58	1742.82
723.76	1728.49
723.94	1794.02
724.12	1675.24
724.30	1730.53
724.49	1712.10
724.67	1652.71
724.85	1779.68
725.03	1716.20
725.21	1726.44
725.40	1826.79
725.58	1705.96
725.76	1732.58
725.94	1708.01
726.12	1685.48
726.30	1691.62
726.49	1693.67
726.67	1679.33
726.85	1689.57
727.03	1802.21
727.21	2166.75
727.39	2973.65
727.57	3858.37
727.76	4169.66
727.94	4468.67
728.12	4372.41
728.30	3696.58
728.48	2914.26
728.66	2775.00
728.84	2537.43
729.03	2338.78
729.21	2127.84
729.39	1943.52
729.57	1804.26
729.75	1853.41
729.93	1861.60
730.11	1724.39
730.30	1628.14
730.48	1665.00
730.66	1828.84
730.84	1783.78
731.02	1759.21
731.20	1677.29
731.38	1787.88
731.56	1650.66
731.74	1638.38
731.93	1724.39
732.11	1677.29
732.29	1730.53
732.47	1832.93
732.65	1738.73
732.83	1794.02
733.01	1742.82
733.19	1722.34
733.37	1720.29
733.56	1638.38
733.74	1693.67
733.92	1781.73
734.10	1640.42
734.28	1705.96
734.46	1607.66
734.64	1753.06
734.82	1705.96
735.00	1705.96
735.18	1736.68
735.36	1746.92
735.54	1771.49
735.73	1710.05
735.91	1761.25
736.09	1748.97
736.27	1714.15
736.45	1726.44
736.63	1646.57
736.81	1644.52
736.99	1820.64
737.17	1832.93
737.35	1621.99
737.53	1718.25
737.71	1742.82
737.89	1714.15
738.07	1685.48
738.25	1710.05
738.43	1589.22
738.61	1759.21
738.80	1640.42
738.98	1656.81
739.16	1673.19
739.34	1624.04
739.52	1810.40
739.70	1714.15
739.88	1775.59
740.06	1834.98
740.24	1648.61
740.42	1886.18
740.60	1634.28
740.78	1673.19
740.96	1609.70
741.14	1681.38
741.32	1701.86
741.50	1701.86
741.68	1886.18
741.86	1712.10
742.04	1634.28
742.22	1699.81
742.40	1669.09
742.58	1759.21
742.76	1675.24
742.94	1775.59
743.12	1615.85
743.30	1757.16
743.48	1773.54
743.66	1615.85
743.84	1720.29
744.02	1683.43
744.20	1763.30
744.38	1683.43
744.56	1613.80
744.74	1779.68
744.92	1710.05
745.10	1736.68
745.28	1773.54
745.46	1834.98
745.64	1701.86
745.82	1687.53
746.00	1765.35
746.18	1656.81
746.36	1652.71
746.54	1751.01
746.72	1718.25
746.90	1671.14
747.08	1765.35
747.26	1665.00
747.44	1730.53
747.62	1800.16
747.80	1714.15
747.98	1814.50
748.15	1656.81
748.33	1787.88
748.51	1697.77
748.69	1767.40
748.87	1677.29
749.05	1763.30
749.23	1677.29
749.41	1677.29
749.59	1669.09
749.77	1746.92
749.95	1695.72
750.13	1695.72
750.31	1730.53
750.49	1705.96
750.67	1785.83
750.85	1820.64
751.03	1734.63
751.20	1837.03
751.38	1681.38
751.56	1683.43
751.74	1703.91
751.92	1726.44
752.10	1701.86
752.28	1882.08
752.46	1660.90
752.64	1595.37
752.82	1742.82
753.00	1769.44
753.18	1662.95
753.35	1652.71
753.53	1765.35
753.71	1671.14
753.89	1722.34
754.07	1730.53
754.25	1767.40
754.43	1763.30
754.61	1710.05
754.79	1755.11
754.97	1705.96
755.14	1798.12
755.32	1703.91
755.50	1693.67
755.68	1667.05
755.86	1660.90
756.04	1619.94
756.22	1640.42
756.40	1740.77
756.57	1806.31
756.75	1662.95
756.93	1777.64
757.11	1714.15
757.29	1603.56
757.47	1671.14
757.65	1617.90
757.82	1601.51
758.00	1708.01
758.18	1783.78
758.36	1597.42
758.54	1853.41
758.72	1671.14
758.90	1824.74
759.07	1738.73
759.25	1669.09
759.43	1781.73
759.61	1656.81
759.79	2136.03
759.97	1810.40
760.15	1640.42
760.32	1665.00
760.50	1714.15
760.68	1843.17
760.86	1654.76
761.04	1751.01
761.22	1798.12
761.39	1742.82
761.57	1740.77
761.75	1714.15
761.93	1738.73
762.11	1693.67
762.28	1679.33
762.46	1665.00
762.64	1816.55
762.82	1673.19
763.00	1693.67
763.18	1791.97
763.35	1652.71
763.53	1724.39
763.71	1687.53
763.89	1710.05
764.07	1687.53
764.24	1687.53
764.42	1783.78
764.60	1648.61
764.78	1712.10
764.96	1761.25
765.13	1751.01
765.31	1675.24
765.49	1746.92
765.67	1644.52
765.84	1675.24
766.02	1705.96
766.20	1673.19
766.38	1742.82
766.56	1757.16
766.73	1683.43
766.91	1718.25
767.09	1724.39
767.27	1773.54
767.44	1638.38
767.62	1738.73
767.80	1665.00
767.98	1755.11
768.15	1673.19
768.33	1724.39
768.51	1716.20
768.69	1818.60
768.87	1705.96
769.04	1730.53
769.22	1824.74
769.40	1775.59
769.58	1851.36
769.75	1708.01
769.93	1773.54
770.11	1681.38
770.28	1675.24
770.46	1753.06
770.64	1703.91
770.82	1701.86
770.99	1714.15
771.17	1695.72
771.35	1728.49
771.53	1734.63
771.70	1687.53
771.88	1675.24
772.06	1699.81
772.23	1705.96
772.41	1705.96
772.59	1695.72
772.77	1628.14
772.94	1697.77
773.12	1763.30
773.30	1652.71
773.47	1662.95
773.65	1667.05
773.83	1806.31
774.01	1691.62
774.18	1611.75
774.36	1712.10
774.54	1681.38
774.71	1687.53
774.89	1685.48
775.07	1683.43
775.24	1724.39
775.42	1695.72
775.60	1847.27
775.78	1652.71
775.95	1632.23
776.13	1644.52
776.31	1599.46
776.48	1761.25
776.66	1773.54
776.84	1667.05
777.01	1681.38
777.19	1613.80
777.37	1697.77
777.54	1771.49
777.72	1710.05
777.90	1742.82
778.07	1726.44
778.25	1912.80
778.43	1755.11
778.60	1726.44
778.78	1652.71
778.96	1806.31
779.13	1689.57
779.31	1808.36
779.49	1708.01
779.66	1708.01
779.84	1658.85
780.01	1724.39
780.19	1701.86
780.37	1791.97
780.54	1726.44
780.72	1685.48
780.90	1673.19
781.07	1634.28
781.25	1626.09
781.43	1712.10
781.60	1746.92
781.78	1796.07
781.95	1734.63
782.13	1601.51
782.31	1669.09
782.48	1624.04
782.66	1769.44
782.83	1832.93
783.01	1779.68
783.19	1714.15
783.36	1705.96
783.54	1658.85
783.72	1804.26
783.89	1673.19
784.07	1720.29
784.24	1773.54
784.42	1832.93
784.60	1757.16
784.77	1705.96
784.95	1619.94
785.12	1726.44
785.30	1708.01
785.47	1726.44
785.65	1701.86
785.83	1701.86
786.00	1716.20
786.18	1720.29
786.35	1574.89
786.53	1650.66
786.71	1734.63
786.88	1773.54
787.06	1783.78
787.23	1726.44
787.41	1673.19
787.58	1720.29
787.76	1699.81
787.94	1718.25
788.11	1777.64
788.29	1724.39
788.46	1609.70
788.64	1615.85
788.81	1722.34
788.99	1669.09
789.16	1675.24
789.34	1732.58
789.52	1724.39
789.69	1646.57
789.87	1605.61
790.04	1732.58
790.22	1665.00
790.39	1783.78
790.57	1632.23
790.74	1673.19
790.92	1814.50
791.09	1734.63
791.27	1648.61
791.44	1794.02
791.62	1703.91
791.79	1798.12
791.97	1648.61
792.15	1910.75
792.32	1781.73
792.50	1791.97
792.67	1746.92
792.85	1730.53
793.02	1730.53
793.20	1697.77
793.37	1601.51
793.55	1705.96
793.72	1617.90
793.90	1748.97
794.07	1685.48
794.25	1656.81
794.42	1691.62
794.60	1730.53
794.77	1693.67
794.95	1841.12
795.12	1728.49
795.30	1724.39
795.47	1628.14
795.65	1882.08
795.82	1675.24
796.00	1658.85
796.17	1714.15
796.34	1697.77
796.52	1722.34
796.69	1742.82
796.87	1759.21
797.04	1726.44
797.22	1763.30
797.39	1763.30
797.57	1712.10
797.74	1724.39
797.92	1773.54
798.09	1644.52
798.27	1830.88
798.44	1738.73
798.62	1662.95
798.79	1771.49
798.96	1658.85
799.14	1763.30
799.31	1908.71
799.49	1701.86
799.66	1685.48
799.84	1742.82
800.01	1640.42
800.19	1724.39
800.36	1621.99
800.53	1716.20
800.71	1748.97
800.88	1814.50
801.06	1714.15
801.23	1656.81
801.41	1697.77
801.58	1699.81
801.75	1677.29
801.93	1714.15
802.10	1701.86
802.28	1652.71
802.45	1705.96
802.63	1808.36
802.80	1808.36
802.97	1689.57
803.15	1708.01
803.32	1710.05
803.50	1665.00
803.67	1654.76
803.84	1638.38
804.02	1732.58
804.19	1701.86
804.37	1613.80
804.54	1681.38
804.71	1724.39
804.89	1691.62
805.06	1699.81
805.24	1615.85
805.41	1646.57
805.58	1732.58
805.76	1824.74
805.93	1757.16
806.10	1830.88
806.28	1744.87
806.45	1691.62
806.63	1732.58
806.80	1691.62
806.97	1695.72
807.15	1640.42
807.32	1736.68
807.49	1716.20
807.67	1665.00
807.84	1716.20
808.01	1619.94
808.19	1877.99
808.36	1841.12
808.54	1685.48
808.71	1640.42
808.88	1642.47
809.06	1763.30
809.23	1746.92
809.40	1718.25
809.58	1771.49
809.75	1626.09
809.92	1683.43
810.10	1808.36
810.27	1757.16
810.44	1736.68
810.62	1753.06
810.79	1722.34
810.96	1687.53
811.14	1628.14
811.31	1736.68
811.48	1810.40
811.66	1773.54
811.83	1769.44
812.00	1718.25
812.18	1701.86
812.35	1863.65
812.52	1673.19
812.69	1705.96
812.87	1662.95
813.04	1685.48
813.21	1660.90
813.39	1665.00
813.56	1683.43
813.73	1806.31
813.91	1601.51
814.08	1736.68
814.25	1648.61
814.42	1599.46
814.60	1652.71
814.77	1718.25
814.94	1669.09
815.12	1722.34
815.29	1783.78
815.46	1634.28
815.63	1667.05
815.81	1691.62
815.98	1695.72
816.15	1705.96
816.33	1722.34
816.50	1720.29
816.67	1753.06
816.84	1722.34
817.02	1665.00
817.19	1716.20
817.36	1759.21
817.53	1693.67
817.71	1638.38
817.88	1744.87
818.05	1642.47
818.22	1685.48
818.40	1802.21
818.57	1708.01
818.74	1708.01
818.91	1724.39
819.09	1759.21
819.26	1789.92
819.43	1566.70
819.60	1615.85
819.78	1755.11
819.95	1806.31
820.12	1681.38
820.29	1867.75
820.47	1724.39
820.64	1671.14
820.81	1636.33
820.98	1697.77
821.15	1720.29
821.33	1742.82
821.50	1638.38
821.67	1802.21
821.84	1689.57
822.02	1800.16
822.19	1677.29
822.36	1665.00
822.53	1687.53
822.70	1599.46
822.88	1691.62
823.05	1763.30
823.22	1654.76
823.39	1716.20
823.56	1789.92
823.74	1796.07
823.91	1656.81
824.08	1619.94
824.25	1644.52
824.42	1791.97
824.60	1642.47
824.77	1798.12
824.94	1673.19
825.11	1832.93
825.28	1615.85
825.45	1740.77
825.63	1726.44
825.80	1632.23
825.97	1691.62
826.14	1705.96
826.31	1638.38
826.48	1789.92
826.66	1767.40
826.83	1765.35
827.00	1695.72
827.17	1656.81
827.34	1718.25
827.51	1689.57
827.69	1681.38
827.86	1673.19
828.03	1695.72
828.20	1730.53
828.37	1757.16
828.54	1753.06
828.71	1681.38
828.89	1787.88
829.06	1611.75
829.23	1746.92
829.40	1736.68
829.57	1687.53
829.74	1705.96
829.91	1732.58
830.09	1646.57
830.26	1691.62
830.43	1767.40
830.60	1656.81
830.77	1841.12
830.94	1853.41
831.11	1716.20
831.28	1722.34
831.46	1779.68
831.63	1642.47
831.80	1789.92
831.97	1671.14
832.14	1710.05
832.31	1748.97
832.48	1716.20
832.65	1720.29
832.82	1734.63
832.99	1773.54
833.17	1593.32
833.34	1843.17
833.51	1806.31
833.68	1716.20
833.85	1757.16
834.02	1595.37
834.19	1630.18
834.36	1693.67
834.53	1712.10
834.70	1771.49
834.87	1763.30
835.04	1724.39
835.22	1613.80
835.39	1683.43
835.56	1611.75
835.73	1671.14
835.90	1665.00
836.07	1628.14
836.24	1753.06
836.41	1675.24
836.58	1617.90
836.75	1730.53
836.92	1734.63
837.09	1646.57
837.26	1767.40
837.43	1777.64
837.60	1708.01
837.77	1681.38
837.94	1759.21
838.12	1708.01
838.29	1689.57
838.46	1683.43
838.63	1677.29
838.80	1765.35
838.97	1697.77
839.14	1705.96
839.31	1705.96
839.48	1738.73
839.65	1689.57
839.82	1736.68
839.99	1714.15
840.16	1724.39
840.33	1652.71
840.50	1751.01
840.67	1640.42
840.84	1550.31
841.01	1779.68
841.18	1689.57
841.35	1648.61
841.52	1785.83
841.69	1820.64
841.86	1703.91
842.03	1744.87
842.20	1816.55
842.37	1755.11
842.54	1679.33
842.71	1710.05
842.88	1652.71
843.05	1734.63
843.22	1738.73
843.39	1800.16
843.56	1607.66
843.73	1755.11
843.90	1736.68
844.07	1636.33
844.24	1722.34
844.41	1791.97
844.58	1757.16
844.75	1710.05
844.92	1693.67
845.09	1716.20
845.26	1708.01
845.43	1769.44
845.60	1748.97
845.77	1767.40
845.94	1642.47
846.10	1771.49
846.27	1566.70
846.44	1632.23
846.61	1673.19
846.78	1675.24
846.95	1810.40
847.12	1679.33
847.29	1708.01
847.46	1722.34
847.63	1787.88
847.80	1714.15
847.97	1755.11
848.14	1828.84
848.31	1648.61
848.48	1689.57
848.65	1740.77
848.82	1662.95
848.98	1798.12
849.15	1738.73
849.32	1771.49
849.49	1824.74
849.66	1781.73
849.83	1714.15
850.00	1613.80
850.17	1759.21
850.34	1691.62
850.51	1642.47
850.68	1687.53
850.85	1871.84
851.01	1796.07
851.18	1759.21
851.35	1681.38
851.52	1703.91
851.69	1734.63
851.86	1576.94
852.03	1787.88
852.20	1775.59
852.37	1665.00
852.53	1630.18
852.70	1689.57
852.87	1738.73
853.04	1673.19
853.21	1759.21
853.38	1695.72
853.55	1767.40
853.72	1720.29
853.89	1617.90
854.05	1667.05
854.22	1673.19
854.39	1652.71
854.56	1775.59
854.73	1832.93
854.90	1697.77
855.07	1751.01
855.23	1566.70
855.40	1720.29
855.57	1589.22
855.74	1613.80
855.91	1892.32
856.08	1630.18
856.25	1640.42
856.41	1718.25
856.58	1660.90
856.75	1695.72
856.92	1685.48
857.09	1818.60
857.26	1677.29
857.42	1667.05
857.59	1656.81
857.76	1652.71
857.93	1732.58
858.10	1726.44
858.27	1679.33
858.43	1732.58
858.60	1681.38
858.77	1574.89
858.94	1650.66
859.11	1746.92
859.27	1669.09
859.44	1705.96
859.61	1785.83
859.78	1722.34
859.95	1722.34
860.12	1677.29
860.28	1822.69
860.45	1787.88
860.62	1685.48
860.79	1736.68
860.95	1722.34
861.12	1654.76
861.29	1685.48
861.46	1695.72
861.63	1691.62
861.79	1701.86
861.96	1597.42
862.13	1697.77
862.30	1759.21
862.47	1656.81
862.63	1703.91
862.80	1726.44
862.97	1789.92
863.14	1679.33
863.30	1685.48
863.47	1705.96
863.64	1761.25
863.81	1712.10
863.97	1691.62
864.14	1716.20
864.31	1738.73
864.48	1742.82
864.65	1646.57
864.81	1656.81
864.98	1759.21
865.15	1755.11
865.32	1738.73
865.48	1746.92
865.65	1802.21
865.82	1681.38
865.98	1787.88
866.15	1867.75
866.32	1728.49
866.49	1693.67
866.65	1693.67
866.82	1705.96
866.99	1705.96
867.16	1699.81
867.32	1662.95
867.49	1671.14
867.66	1656.81
867.83	1632.23
867.99	1679.33
868.16	1691.62
868.33	1626.09
868.49	1660.90
868.66	1646.57
868.83	1787.88
868.99	1689.57
869.16	1736.68
869.33	1771.49
869.50	1812.45
869.66	1714.15
869.83	1705.96
870.00	1636.33
870.16	1828.84
870.33	1662.95
870.50	1816.55
870.66	1636.33
870.83	1802.21
871.00	1667.05
871.17	1726.44
871.33	1785.83
871.50	1714.15
871.67	1687.53
871.83	1671.14
872.00	1804.26
872.17	1658.85
872.33	1832.93
872.50	1781.73
872.67	1712.10
872.83	1677.29
873.00	1789.92
873.17	1714.15
873.33	1751.01
873.50	1794.02
873.67	1712.10
873.83	1705.96
874.00	1675.24
874.16	1830.88
874.33	1771.49
874.50	1677.29
874.66	1726.44
874.83	1685.48
875.00	1767.40
875.16	1830.88
875.33	1789.92
875.50	1607.66
875.66	1689.57
875.83	1740.77
875.99	1812.45
876.16	1755.11
876.33	1679.33
876.49	1689.57
876.66	1746.92
876.83	1716.20
876.99	1613.80
877.16	1689.57
877.32	1761.25
877.49	1732.58
877.66	1701.86
877.82	1759.21
877.99	1685.48
878.15	1705.96
878.32	1751.01
878.49	1761.25
878.65	1679.33
878.82	1834.98
878.98	1701.86
879.15	1751.01
879.32	1767.40
879.48	1740.77
879.65	1675.24
879.81	1730.53
879.98	1654.76
880.15	1634.28
880.31	1812.45
880.48	1671.14
880.64	1787.88
880.81	1785.83
880.97	1839.08
881.14	1832.93
881.31	1681.38
881.47	1832.93
881.64	1636.33
881.80	1656.81
881.97	1679.33
882.13	1775.59
882.30	1705.96
882.47	1767.40
882.63	1652.71
882.80	1642.47
882.96	1699.81
883.13	1742.82
883.29	1660.90
883.46	1804.26
883.62	1769.44
883.79	1677.29
883.95	1814.50
884.12	1738.73
884.29	1703.91
884.45	1787.88
884.62	1685.48
884.78	1648.61
884.95	1802.21
885.11	1681.38
885.28	1683.43
885.44	1572.84
885.61	1787.88
885.77	1794.02
885.94	1724.39
886.10	1746.92
886.27	1751.01
886.43	1812.45
886.60	1771.49
886.76	1738.73
886.93	1677.29
887.09	1753.06
887.26	1640.42
887.42	1697.77
887.59	1796.07
887.75	1820.64
887.92	1757.16
888.08	1748.97
888.25	1769.44
888.41	1751.01
888.58	1728.49
888.74	1640.42
888.91	1669.09
>>>>>End Processed Spectral Data<<<<<
