SpectraSuite Data File
++++++++++++++++++++++++++++++++++++
Date: Mon Jun 06 13:53:37 CEST 2016
User: root
Dark Spectrum Present: No
Reference Spectrum Present: No
Number of Sampled Component Spectra: 1
Spectrometers: USB4C02835
Integration Time (usec): 100000 (USB4C02835)
Spectra Averaged: 1 (USB4C02835)
Boxcar Smoothing: 0 (USB4C02835)
Correct for Electrical Dark: No (USB4C02835)
Strobe/Lamp Enabled: No (USB4C02835)
Correct for Detector Non-linearity: No (USB4C02835)
Correct for Stray Light: No (USB4C02835)
Number of Pixels in Processed Spectrum: 3648
>>>>>Begin Processed Spectral Data<<<<<
177.47	1452.01
177.69	1452.01
177.91	1452.01
178.13	1449.96
178.36	1484.78
178.58	1648.61
178.80	1648.61
179.02	1621.99
179.24	1619.94
179.46	1693.67
179.68	1757.16
179.90	1773.54
180.13	1695.72
180.35	1662.95
180.57	1656.81
180.79	1677.29
181.01	1601.51
181.23	1740.77
181.45	1736.68
181.67	1665.00
181.90	1730.53
182.12	1755.11
182.34	1630.18
182.56	1716.20
182.78	1673.19
183.00	1732.58
183.22	1701.86
183.44	1595.37
183.66	1845.22
183.89	1738.73
184.11	1734.63
184.33	1689.57
184.55	1787.88
184.77	1732.58
184.99	1738.73
185.21	1671.14
185.43	1771.49
185.65	1675.24
185.87	1628.14
186.10	1830.88
186.32	1806.31
186.54	1806.31
186.76	1759.21
186.98	1697.77
187.20	1685.48
187.42	1644.52
187.64	1615.85
187.86	1673.19
188.08	1724.39
188.30	1650.66
188.52	1748.97
188.75	1736.68
188.97	1783.78
189.19	1689.57
189.41	1679.33
189.63	1730.53
189.85	1636.33
190.07	1665.00
190.29	1568.74
190.51	1767.40
190.73	1615.85
190.95	1785.83
191.17	1679.33
191.39	1650.66
191.61	1615.85
191.84	1640.42
192.06	1691.62
192.28	1675.24
192.50	1863.65
192.72	1710.05
192.94	1787.88
193.16	1769.44
193.38	1683.43
193.60	1667.05
193.82	1665.00
194.04	1765.35
194.26	1800.16
194.48	1677.29
194.70	1656.81
194.92	1615.85
195.14	1716.20
195.36	1652.71
195.58	1710.05
195.80	1593.32
196.02	1601.51
196.24	1673.19
196.46	1732.58
196.69	1642.47
196.91	1785.83
197.13	1718.25
197.35	1650.66
197.57	1771.49
197.79	1681.38
198.01	1679.33
198.23	1759.21
198.45	1763.30
198.67	1634.28
198.89	1654.76
199.11	1730.53
199.33	1710.05
199.55	1615.85
199.77	1669.09
199.99	1781.73
200.21	1693.67
200.43	1656.81
200.65	1656.81
200.87	1638.38
201.09	1769.44
201.31	1683.43
201.53	1753.06
201.75	1720.29
201.97	1708.01
202.19	1667.05
202.41	1705.96
202.63	1822.69
202.85	1720.29
203.07	1689.57
203.29	1669.09
203.51	1624.04
203.73	1652.71
203.95	1794.02
204.17	1619.94
204.39	1716.20
204.61	1718.25
204.83	1669.09
205.05	1796.07
205.27	1724.39
205.49	1832.93
205.71	1769.44
205.93	1613.80
206.15	1697.77
206.37	1736.68
206.59	1718.25
206.81	1607.66
207.03	1566.70
207.25	1697.77
207.47	1714.15
207.69	1710.05
207.91	1720.29
208.13	1757.16
208.34	1689.57
208.56	1677.29
208.78	1775.59
209.00	1730.53
209.22	1619.94
209.44	1730.53
209.66	1648.61
209.88	1626.09
210.10	1744.87
210.32	1638.38
210.54	1755.11
210.76	1710.05
210.98	1767.40
211.20	1615.85
211.42	1746.92
211.64	1771.49
211.86	1755.11
212.08	1673.19
212.30	1708.01
212.52	1675.24
212.74	1650.66
212.96	1691.62
213.17	1757.16
213.39	1757.16
213.61	1673.19
213.83	1708.01
214.05	1630.18
214.27	1804.26
214.49	1660.90
214.71	1708.01
214.93	1779.68
215.15	1681.38
215.37	1744.87
215.59	1617.90
215.81	1703.91
216.03	1710.05
216.24	1769.44
216.46	1673.19
216.68	1787.88
216.90	1759.21
217.12	1736.68
217.34	1699.81
217.56	1703.91
217.78	1783.78
218.00	1730.53
218.22	1597.42
218.44	1685.48
218.66	1701.86
218.87	1714.15
219.09	1687.53
219.31	1736.68
219.53	1736.68
219.75	1632.23
219.97	1683.43
220.19	1734.63
220.41	1708.01
220.63	1837.03
220.85	1742.82
221.06	1630.18
221.28	1773.54
221.50	1701.86
221.72	1656.81
221.94	1730.53
222.16	1652.71
222.38	1751.01
222.60	1851.36
222.82	1748.97
223.03	1732.58
223.25	1611.75
223.47	1759.21
223.69	1814.50
223.91	1791.97
224.13	1712.10
224.35	1687.53
224.57	1703.91
224.78	1828.84
225.00	1626.09
225.22	1703.91
225.44	1740.77
225.66	1685.48
225.88	1718.25
226.10	1789.92
226.32	1742.82
226.53	1628.14
226.75	1683.43
226.97	1677.29
227.19	1689.57
227.41	1687.53
227.63	1648.61
227.85	1673.19
228.06	1710.05
228.28	1673.19
228.50	1757.16
228.72	1681.38
228.94	1734.63
229.16	1667.05
229.37	1626.09
229.59	1656.81
229.81	1777.64
230.03	1669.09
230.25	1603.56
230.47	1662.95
230.69	1658.85
230.90	1771.49
231.12	1675.24
231.34	1681.38
231.56	1734.63
231.78	1607.66
232.00	1716.20
232.21	1763.30
232.43	1681.38
232.65	1574.89
232.87	1722.34
233.09	1601.51
233.30	1681.38
233.52	1732.58
233.74	1665.00
233.96	1644.52
234.18	1708.01
234.40	1683.43
234.61	1832.93
234.83	1566.70
235.05	1628.14
235.27	1779.68
235.49	1724.39
235.70	1722.34
235.92	1789.92
236.14	1761.25
236.36	1771.49
236.58	1617.90
236.79	1714.15
237.01	1705.96
237.23	1693.67
237.45	1812.45
237.67	1730.53
237.88	1705.96
238.10	1783.78
238.32	1634.28
238.54	1632.23
238.76	1720.29
238.97	1591.27
239.19	1650.66
239.41	1771.49
239.63	1679.33
239.85	1667.05
240.06	1701.86
240.28	1710.05
240.50	1746.92
240.72	1728.49
240.93	1642.47
241.15	1746.92
241.37	1734.63
241.59	1841.12
241.81	1642.47
242.02	1705.96
242.24	1738.73
242.46	1677.29
242.68	1689.57
242.89	1703.91
243.11	1718.25
243.33	1685.48
243.55	1712.10
243.76	1736.68
243.98	1726.44
244.20	1744.87
244.42	1695.72
244.64	1726.44
244.85	1728.49
245.07	1667.05
245.29	1681.38
245.51	1654.76
245.72	1675.24
245.94	1679.33
246.16	1681.38
246.38	1765.35
246.59	1669.09
246.81	1708.01
247.03	1603.56
247.24	1587.18
247.46	1708.01
247.68	1689.57
247.90	1665.00
248.11	1603.56
248.33	1787.88
248.55	1720.29
248.77	1689.57
248.98	1767.40
249.20	1775.59
249.42	1640.42
249.64	1738.73
249.85	1652.71
250.07	1679.33
250.29	1744.87
250.50	1789.92
250.72	1632.23
250.94	1697.77
251.16	1802.21
251.37	1722.34
251.59	1734.63
251.81	1732.58
252.02	1814.50
252.24	1558.50
252.46	1806.31
252.68	1673.19
252.89	1677.29
253.11	1638.38
253.33	1753.06
253.54	1744.87
253.76	1587.18
253.98	1724.39
254.20	1699.81
254.41	1617.90
254.63	1687.53
254.85	1644.52
255.06	1681.38
255.28	1701.86
255.50	1714.15
255.71	1601.51
255.93	1669.09
256.15	1626.09
256.36	1730.53
256.58	1726.44
256.80	1710.05
257.02	1628.14
257.23	1679.33
257.45	1675.24
257.67	1744.87
257.88	1660.90
258.10	1810.40
258.32	1671.14
258.53	1753.06
258.75	1775.59
258.97	1615.85
259.18	1632.23
259.40	1705.96
259.62	1779.68
259.83	1828.84
260.05	1714.15
260.27	2025.44
260.48	1794.02
260.70	1689.57
260.92	1640.42
261.13	1734.63
261.35	1734.63
261.57	1787.88
261.78	1628.14
262.00	1665.00
262.22	1724.39
262.43	1636.33
262.65	1660.90
262.86	1701.86
263.08	1843.17
263.30	1720.29
263.51	1615.85
263.73	1718.25
263.95	1759.21
264.16	1679.33
264.38	1652.71
264.60	1751.01
264.81	1708.01
265.03	1755.11
265.25	1828.84
265.46	1740.77
265.68	1728.49
265.89	1757.16
266.11	1636.33
266.33	1722.34
266.54	1759.21
266.76	1783.78
266.98	1740.77
267.19	1787.88
267.41	1863.65
267.62	1654.76
267.84	1615.85
268.06	1708.01
268.27	1736.68
268.49	1734.63
268.70	1683.43
268.92	1699.81
269.14	1705.96
269.35	1564.65
269.57	1660.90
269.79	1703.91
270.00	1574.89
270.22	1794.02
270.43	1648.61
270.65	1638.38
270.87	1718.25
271.08	1796.07
271.30	1726.44
271.51	1679.33
271.73	1775.59
271.95	1730.53
272.16	1765.35
272.38	1730.53
272.59	1542.12
272.81	1740.77
273.02	1779.68
273.24	1722.34
273.46	1800.16
273.67	1691.62
273.89	1687.53
274.10	1615.85
274.32	1759.21
274.54	1708.01
274.75	1705.96
274.97	1705.96
275.18	1748.97
275.40	1724.39
275.61	1683.43
275.83	1708.01
276.05	1667.05
276.26	1626.09
276.48	1857.51
276.69	1669.09
276.91	1675.24
277.12	1726.44
277.34	1845.22
277.55	1673.19
277.77	1699.81
277.99	1683.43
278.20	1652.71
278.42	1722.34
278.63	1656.81
278.85	1710.05
279.06	1720.29
279.28	1722.34
279.49	1726.44
279.71	1785.83
279.93	1695.72
280.14	1708.01
280.36	1617.90
280.57	1734.63
280.79	1716.20
281.00	1699.81
281.22	1638.38
281.43	1757.16
281.65	1540.07
281.86	1548.26
282.08	1644.52
282.29	1849.32
282.51	1628.14
282.73	1630.18
282.94	1595.37
283.16	1689.57
283.37	1771.49
283.59	1763.30
283.80	1710.05
284.02	1677.29
284.23	1787.88
284.45	1646.57
284.66	1687.53
284.88	1624.04
285.09	1720.29
285.31	1767.40
285.52	1705.96
285.74	1679.33
285.95	1804.26
286.17	1714.15
286.38	1843.17
286.60	1681.38
286.81	1632.23
287.03	1699.81
287.24	1628.14
287.46	1779.68
287.67	1767.40
287.89	1763.30
288.10	1675.24
288.32	1685.48
288.53	1822.69
288.75	1697.77
288.96	1839.08
289.18	1681.38
289.39	1728.49
289.61	1722.34
289.82	1791.97
290.04	1789.92
290.25	1581.03
290.47	1708.01
290.68	1689.57
290.90	1783.78
291.11	1550.31
291.33	1802.21
291.54	1624.04
291.76	1601.51
291.97	1716.20
292.18	1662.95
292.40	1714.15
292.61	1726.44
292.83	1849.32
293.04	1703.91
293.26	1726.44
293.47	1675.24
293.69	1716.20
293.90	1693.67
294.12	1810.40
294.33	1595.37
294.55	1705.96
294.76	1738.73
294.97	1779.68
295.19	1812.45
295.40	1658.85
295.62	1697.77
295.83	1789.92
296.05	1642.47
296.26	1738.73
296.48	1697.77
296.69	1716.20
296.90	1675.24
297.12	1789.92
297.33	1751.01
297.55	1722.34
297.76	1708.01
297.98	1746.92
298.19	1648.61
298.41	1712.10
298.62	1679.33
298.83	1751.01
299.05	1712.10
299.26	1624.04
299.48	1607.66
299.69	1730.53
299.90	1632.23
300.12	1667.05
300.33	1716.20
300.55	1718.25
300.76	1740.77
300.98	1626.09
301.19	1746.92
301.40	1660.90
301.62	1667.05
301.83	1683.43
302.05	1748.97
302.26	1644.52
302.47	1763.30
302.69	1648.61
302.90	1691.62
303.12	1636.33
303.33	1769.44
303.54	1804.26
303.76	1685.48
303.97	1726.44
304.19	1796.07
304.40	1681.38
304.61	1710.05
304.83	1894.37
305.04	1673.19
305.26	1685.48
305.47	1615.85
305.68	1656.81
305.90	1603.56
306.11	1759.21
306.33	1689.57
306.54	1660.90
306.75	1660.90
306.97	1662.95
307.18	1673.19
307.39	1701.86
307.61	1722.34
307.82	1720.29
308.04	1718.25
308.25	1726.44
308.46	1648.61
308.68	1628.14
308.89	1738.73
309.10	1765.35
309.32	1746.92
309.53	1720.29
309.74	1755.11
309.96	1796.07
310.17	1685.48
310.39	1634.28
310.60	1738.73
310.81	1757.16
311.03	1681.38
311.24	1751.01
311.45	1646.57
311.67	1783.78
311.88	1783.78
312.09	1658.85
312.31	1742.82
312.52	1605.61
312.73	1597.42
312.95	1583.08
313.16	1667.05
313.37	1734.63
313.59	1751.01
313.80	1718.25
314.01	1826.79
314.23	1712.10
314.44	1705.96
314.65	1662.95
314.87	1673.19
315.08	1746.92
315.29	1648.61
315.51	1642.47
315.72	1626.09
315.93	1826.79
316.15	1783.78
316.36	1687.53
316.57	1693.67
316.79	1703.91
317.00	1677.29
317.21	1751.01
317.43	1656.81
317.64	1683.43
317.85	1638.38
318.07	1644.52
318.28	1734.63
318.49	1781.73
318.70	1910.75
318.92	1755.11
319.13	1777.64
319.34	1841.12
319.56	1775.59
319.77	1806.31
319.98	1775.59
320.20	1794.02
320.41	1812.45
320.62	1798.12
320.83	1636.33
321.05	1808.36
321.26	1722.34
321.47	1755.11
321.69	1794.02
321.90	1652.71
322.11	1665.00
322.32	1794.02
322.54	1820.64
322.75	1705.96
322.96	1800.16
323.18	1566.70
323.39	1611.75
323.60	1660.90
323.81	1783.78
324.03	1697.77
324.24	1755.11
324.45	1689.57
324.66	1671.14
324.88	1781.73
325.09	1775.59
325.30	1609.70
325.52	1779.68
325.73	1677.29
325.94	1654.76
326.15	1632.23
326.37	1658.85
326.58	1748.97
326.79	1822.69
327.00	1630.18
327.22	1757.16
327.43	1740.77
327.64	1658.85
327.85	1789.92
328.07	1701.86
328.28	1871.84
328.49	1640.42
328.70	1726.44
328.92	1687.53
329.13	1699.81
329.34	1759.21
329.55	1748.97
329.76	1730.53
329.98	1773.54
330.19	1755.11
330.40	1738.73
330.61	1681.38
330.83	1697.77
331.04	1681.38
331.25	1697.77
331.46	1665.00
331.68	1634.28
331.89	1785.83
332.10	1662.95
332.31	1648.61
332.52	1679.33
332.74	1746.92
332.95	1603.56
333.16	1722.34
333.37	1742.82
333.58	1685.48
333.80	1742.82
334.01	1630.18
334.22	1677.29
334.43	1710.05
334.64	1736.68
334.86	1619.94
335.07	1648.61
335.28	1732.58
335.49	1583.08
335.70	1830.88
335.92	1705.96
336.13	1839.08
336.34	1728.49
336.55	1671.14
336.76	1736.68
336.98	1630.18
337.19	1669.09
337.40	1751.01
337.61	1892.32
337.82	1624.04
338.04	1746.92
338.25	1628.14
338.46	1638.38
338.67	1718.25
338.88	1613.80
339.09	1650.66
339.31	1695.72
339.52	1605.61
339.73	1603.56
339.94	1660.90
340.15	1767.40
340.36	1642.47
340.58	1701.86
340.79	1632.23
341.00	1785.83
341.21	1593.32
341.42	1740.77
341.63	1714.15
341.85	1777.64
342.06	1775.59
342.27	1738.73
342.48	1738.73
342.69	1624.04
342.90	1708.01
343.12	1708.01
343.33	1693.67
343.54	1763.30
343.75	1740.77
343.96	1621.99
344.17	1581.03
344.38	1691.62
344.60	1658.85
344.81	1632.23
345.02	1607.66
345.23	1757.16
345.44	1837.03
345.65	1734.63
345.86	1714.15
346.07	1703.91
346.29	1568.74
346.50	1675.24
346.71	1675.24
346.92	1806.31
347.13	1751.01
347.34	1693.67
347.55	1638.38
347.76	1740.77
347.98	1611.75
348.19	1665.00
348.40	1697.77
348.61	1724.39
348.82	1781.73
349.03	1746.92
349.24	1613.80
349.45	1730.53
349.66	1548.26
349.88	1748.97
350.09	1685.48
350.30	1816.55
350.51	1705.96
350.72	1708.01
350.93	1705.96
351.14	1726.44
351.35	1751.01
351.56	1771.49
351.77	1624.04
351.99	1736.68
352.20	1714.15
352.41	1785.83
352.62	1617.90
352.83	1736.68
353.04	1736.68
353.25	1710.05
353.46	1779.68
353.67	1810.40
353.88	1626.09
354.09	1710.05
354.30	1746.92
354.52	1679.33
354.73	1658.85
354.94	1654.76
355.15	1691.62
355.36	1845.22
355.57	1597.42
355.78	1734.63
355.99	1624.04
356.20	1748.97
356.41	1734.63
356.62	1640.42
356.83	1640.42
357.04	1808.36
357.25	1662.95
357.46	1599.46
357.68	1615.85
357.89	1660.90
358.10	1683.43
358.31	1673.19
358.52	1714.15
358.73	1566.70
358.94	1652.71
359.15	1724.39
359.36	1703.91
359.57	1691.62
359.78	1705.96
359.99	1761.25
360.20	1591.27
360.41	1646.57
360.62	1699.81
360.83	1779.68
361.04	1718.25
361.25	1728.49
361.46	1791.97
361.67	1734.63
361.88	1742.82
362.09	1708.01
362.30	1703.91
362.51	1640.42
362.72	1746.92
362.93	1683.43
363.14	1785.83
363.35	1644.52
363.56	1677.29
363.78	1710.05
363.99	1781.73
364.20	1654.76
364.41	1738.73
364.62	1748.97
364.83	1757.16
365.04	1708.01
365.25	1718.25
365.46	1763.30
365.67	1652.71
365.88	1560.55
366.09	1734.63
366.30	1607.66
366.51	1708.01
366.72	1763.30
366.93	1703.91
367.14	1755.11
367.35	1834.98
367.56	1736.68
367.77	1779.68
367.98	1722.34
368.18	1808.36
368.39	1753.06
368.60	1714.15
368.81	1708.01
369.02	1716.20
369.23	1624.04
369.44	1705.96
369.65	1705.96
369.86	1742.82
370.07	1785.83
370.28	1656.81
370.49	1736.68
370.70	1630.18
370.91	1673.19
371.12	1542.12
371.33	1777.64
371.54	1642.47
371.75	1769.44
371.96	1603.56
372.17	1681.38
372.38	1708.01
372.59	1744.87
372.80	1673.19
373.01	1632.23
373.22	1656.81
373.43	1685.48
373.64	1710.05
373.85	1822.69
374.06	1804.26
374.26	1722.34
374.47	1681.38
374.68	1761.25
374.89	1722.34
375.10	1669.09
375.31	1748.97
375.52	1695.72
375.73	1730.53
375.94	1683.43
376.15	1744.87
376.36	1695.72
376.57	1665.00
376.78	1603.56
376.99	1587.18
377.20	1744.87
377.40	1669.09
377.61	1767.40
377.82	1681.38
378.03	1773.54
378.24	1726.44
378.45	1703.91
378.66	1738.73
378.87	1669.09
379.08	1652.71
379.29	1632.23
379.50	1773.54
379.71	1656.81
379.91	1677.29
380.12	1697.77
380.33	1648.61
380.54	1730.53
380.75	1597.42
380.96	1677.29
381.17	1773.54
381.38	1683.43
381.59	1705.96
381.80	1716.20
382.00	1824.74
382.21	1800.16
382.42	1837.03
382.63	1863.65
382.84	1738.73
383.05	1796.07
383.26	1767.40
383.47	1746.92
383.68	1751.01
383.88	1736.68
384.09	1658.85
384.30	1834.98
384.51	1777.64
384.72	1689.57
384.93	1652.71
385.14	1701.86
385.35	1748.97
385.55	1607.66
385.76	1816.55
385.97	1738.73
386.18	1638.38
386.39	1703.91
386.60	1632.23
386.81	1626.09
387.02	1658.85
387.22	1748.97
387.43	1824.74
387.64	1761.25
387.85	1839.08
388.06	2250.72
388.27	4227.01
388.48	6860.70
388.68	8472.45
388.89	9486.19
389.10	9777.00
389.31	8542.08
389.52	7491.47
389.73	6860.70
389.93	6219.68
390.14	5910.44
390.35	5121.97
390.56	4593.59
390.77	3631.05
390.98	3059.67
391.18	2506.71
391.39	2099.17
391.60	1845.22
391.81	1787.88
392.02	1716.20
392.23	1865.70
392.43	1767.40
392.64	1791.97
392.85	1763.30
393.06	1796.07
393.27	1767.40
393.47	1632.23
393.68	1734.63
393.89	1669.09
394.10	1800.16
394.31	1658.85
394.52	1603.56
394.72	1644.52
394.93	1800.16
395.14	1673.19
395.35	1679.33
395.56	1607.66
395.76	1675.24
395.97	1771.49
396.18	1912.80
396.39	1759.21
396.60	2056.16
396.80	1851.36
397.01	1820.64
397.22	1816.55
397.43	1873.89
397.64	1789.92
397.84	1798.12
398.05	1849.32
398.26	1783.78
398.47	1828.84
398.67	1708.01
398.88	1748.97
399.09	1808.36
399.30	1705.96
399.51	1710.05
399.71	1662.95
399.92	1687.53
400.13	1755.11
400.34	1677.29
400.54	1619.94
400.75	1816.55
400.96	1773.54
401.17	1763.30
401.37	1740.77
401.58	1699.81
401.79	1697.77
402.00	1912.80
402.21	2011.11
402.41	1826.79
402.62	1939.43
402.83	2021.35
403.04	1988.58
403.24	2148.32
403.45	1845.22
403.66	1859.56
403.87	1818.60
404.07	1816.55
404.28	1851.36
404.49	1902.56
404.70	1736.68
404.90	1802.21
405.11	1751.01
405.32	1734.63
405.52	1753.06
405.73	1689.57
405.94	1722.34
406.15	1720.29
406.35	1742.82
406.56	1769.44
406.77	1730.53
406.98	1714.15
407.18	1677.29
407.39	1757.16
407.60	1646.57
407.80	1724.39
408.01	1644.52
408.22	1736.68
408.43	1640.42
408.63	1720.29
408.84	1796.07
409.05	1777.64
409.25	1669.09
409.46	1673.19
409.67	1599.46
409.88	1632.23
410.08	1738.73
410.29	1718.25
410.50	1734.63
410.70	1775.59
410.91	1681.38
411.12	1791.97
411.32	1798.12
411.53	1681.38
411.74	1771.49
411.95	1787.88
412.15	1701.86
412.36	1701.86
412.57	1767.40
412.77	1853.41
412.98	1722.34
413.19	1658.85
413.39	1728.49
413.60	1781.73
413.81	1744.87
414.01	1605.61
414.22	1708.01
414.43	1773.54
414.63	1791.97
414.84	1753.06
415.05	1697.77
415.25	1693.67
415.46	1783.78
415.67	1734.63
415.87	1665.00
416.08	1708.01
416.29	1763.30
416.49	1665.00
416.70	1654.76
416.91	1640.42
417.11	1718.25
417.32	1710.05
417.53	1755.11
417.73	1712.10
417.94	1671.14
418.15	1763.30
418.35	1626.09
418.56	1708.01
418.77	1781.73
418.97	1669.09
419.18	1720.29
419.38	1611.75
419.59	1673.19
419.80	1826.79
420.00	1626.09
420.21	1705.96
420.42	1738.73
420.62	1671.14
420.83	1687.53
421.04	1697.77
421.24	1673.19
421.45	1642.47
421.65	1689.57
421.86	1662.95
422.07	1732.58
422.27	1763.30
422.48	1724.39
422.69	1595.37
422.89	1746.92
423.10	1740.77
423.30	1607.66
423.51	1708.01
423.72	1720.29
423.92	1724.39
424.13	1560.55
424.33	1730.53
424.54	1751.01
424.75	1689.57
424.95	1703.91
425.16	1773.54
425.36	1695.72
425.57	1738.73
425.78	1724.39
425.98	1775.59
426.19	1679.33
426.39	1652.71
426.60	1650.66
426.81	1757.16
427.01	1726.44
427.22	1650.66
427.42	1574.89
427.63	1656.81
427.83	1705.96
428.04	1853.41
428.25	1761.25
428.45	1839.08
428.66	1804.26
428.86	1708.01
429.07	1679.33
429.28	1662.95
429.48	1630.18
429.69	1673.19
429.89	1675.24
430.10	1689.57
430.30	1787.88
430.51	1724.39
430.71	1652.71
430.92	1669.09
431.13	1638.38
431.33	1722.34
431.54	1710.05
431.74	1781.73
431.95	1785.83
432.15	1677.29
432.36	1755.11
432.56	1771.49
432.77	1814.50
432.98	1800.16
433.18	1724.39
433.39	1718.25
433.59	1644.52
433.80	1802.21
434.00	1751.01
434.21	1695.72
434.41	1673.19
434.62	1806.31
434.82	1693.67
435.03	1626.09
435.23	1693.67
435.44	1632.23
435.64	1769.44
435.85	1652.71
436.06	1730.53
436.26	1759.21
436.47	1681.38
436.67	1630.18
436.88	1738.73
437.08	1632.23
437.29	1812.45
437.49	1767.40
437.70	1736.68
437.90	1751.01
438.11	1859.56
438.31	1798.12
438.52	1882.08
438.72	1906.66
438.93	1896.42
439.13	1822.69
439.34	1796.07
439.54	1746.92
439.75	1818.60
439.95	1828.84
440.16	1753.06
440.36	1703.91
440.57	1748.97
440.77	1726.44
440.98	1708.01
441.18	1800.16
441.39	1681.38
441.59	1578.98
441.80	1886.18
442.00	1705.96
442.21	1779.68
442.41	1648.61
442.62	1785.83
442.82	1742.82
443.02	1652.71
443.23	1671.14
443.43	1646.57
443.64	1771.49
443.84	1673.19
444.05	1845.22
444.25	1705.96
444.46	1753.06
444.66	1763.30
444.87	1853.41
445.07	1665.00
445.28	1658.85
445.48	1800.16
445.69	1781.73
445.89	1957.86
446.09	1691.62
446.30	1996.77
446.50	2611.16
446.71	3700.68
446.91	4376.51
447.12	4782.01
447.32	4851.64
447.53	4276.16
447.73	3878.85
447.93	3549.13
448.14	3432.40
448.34	3246.03
448.55	2791.38
448.75	2861.01
448.96	2688.98
449.16	2478.04
449.36	2287.58
449.57	1982.43
449.77	1880.04
449.98	1828.84
450.18	1791.97
450.39	1861.60
450.59	1738.73
450.79	1751.01
451.00	1697.77
451.20	1791.97
451.41	1751.01
451.61	1767.40
451.81	1701.86
452.02	1685.48
452.22	1701.86
452.43	1679.33
452.63	1730.53
452.84	1712.10
453.04	1691.62
453.24	1753.06
453.45	1650.66
453.65	1697.77
453.86	1738.73
454.06	1777.64
454.26	1767.40
454.47	1624.04
454.67	1806.31
454.87	1693.67
455.08	1697.77
455.28	1808.36
455.49	1771.49
455.69	1716.20
455.89	1863.65
456.10	1826.79
456.30	1683.43
456.51	1765.35
456.71	1781.73
456.91	1791.97
457.12	1720.29
457.32	1830.88
457.52	1679.33
457.73	1767.40
457.93	1779.68
458.14	1794.02
458.34	1613.80
458.54	1705.96
458.75	1714.15
458.95	1646.57
459.15	1677.29
459.36	1814.50
459.56	1796.07
459.76	1834.98
459.97	1722.34
460.17	1757.16
460.37	1822.69
460.58	1718.25
460.78	1705.96
460.99	1718.25
461.19	1697.77
461.39	1697.77
461.60	1732.58
461.80	1755.11
462.00	1681.38
462.21	1767.40
462.41	1765.35
462.61	1708.01
462.82	1615.85
463.02	1755.11
463.22	1775.59
463.43	1804.26
463.63	1796.07
463.83	1824.74
464.04	1746.92
464.24	1675.24
464.44	1593.32
464.64	1710.05
464.85	1744.87
465.05	1871.84
465.25	1693.67
465.46	1714.15
465.66	1763.30
465.86	1810.40
466.07	1753.06
466.27	1685.48
466.47	1632.23
466.68	1652.71
466.88	1814.50
467.08	1718.25
467.29	1785.83
467.49	1802.21
467.69	1742.82
467.89	1734.63
468.10	1656.81
468.30	1751.01
468.50	1816.55
468.71	1828.84
468.91	1562.60
469.11	1837.03
469.31	1660.90
469.52	1724.39
469.72	1771.49
469.92	1920.99
470.13	1689.57
470.33	1722.34
470.53	1851.36
470.73	2047.97
470.94	2303.96
471.14	2271.20
471.34	2582.49
471.54	2402.27
471.75	2232.29
471.95	2125.79
472.15	2123.74
472.36	2105.31
472.56	2041.82
472.76	2088.93
472.96	1947.62
473.17	1886.18
473.37	1880.04
473.57	1886.18
473.77	1837.03
473.98	1814.50
474.18	1681.38
474.38	1859.56
474.58	1765.35
474.79	1677.29
474.99	1806.31
475.19	1730.53
475.39	1697.77
475.60	1759.21
475.80	1683.43
476.00	1767.40
476.20	1705.96
476.41	1751.01
476.61	1796.07
476.81	1800.16
477.01	1734.63
477.21	1855.46
477.42	1771.49
477.62	1636.33
477.82	1730.53
478.02	1701.86
478.23	1722.34
478.43	1679.33
478.63	1656.81
478.83	1767.40
479.03	1691.62
479.24	1771.49
479.44	1779.68
479.64	1654.76
479.84	1658.85
480.04	1705.96
480.25	1767.40
480.45	1679.33
480.65	1665.00
480.85	1718.25
481.06	1642.47
481.26	1662.95
481.46	1787.88
481.66	1779.68
481.86	1667.05
482.06	1759.21
482.27	1687.53
482.47	1755.11
482.67	1718.25
482.87	1658.85
483.07	1775.59
483.28	1671.14
483.48	1703.91
483.68	1720.29
483.88	1658.85
484.08	1599.46
484.29	1720.29
484.49	1673.19
484.69	1632.23
484.89	1757.16
485.09	1722.34
485.29	1796.07
485.50	1710.05
485.70	1705.96
485.90	1796.07
486.10	1687.53
486.30	1810.40
486.50	1847.27
486.71	1765.35
486.91	1775.59
487.11	1779.68
487.31	1662.95
487.51	1689.57
487.71	1730.53
487.91	1660.90
488.12	1677.29
488.32	1669.09
488.52	1654.76
488.72	1601.51
488.92	1703.91
489.12	1757.16
489.32	1800.16
489.53	1800.16
489.73	1611.75
489.93	1779.68
490.13	1685.48
490.33	1652.71
490.53	1728.49
490.73	1740.77
490.94	1652.71
491.14	1810.40
491.34	1855.46
491.54	2150.37
491.74	2502.62
491.94	2965.46
492.14	2967.51
492.34	2918.36
492.54	2756.57
492.75	2478.04
492.95	2387.93
493.15	2295.77
493.35	2283.49
493.55	2312.16
493.75	2156.51
493.95	2131.94
494.15	2054.11
494.35	1863.65
494.56	1861.60
494.76	1779.68
494.96	1824.74
495.16	1796.07
495.36	1755.11
495.56	1748.97
495.76	1697.77
495.96	1736.68
496.16	1701.86
496.36	1906.66
496.56	1677.29
496.77	1744.87
496.97	1726.44
497.17	1808.36
497.37	1665.00
497.57	1771.49
497.77	1679.33
497.97	1736.68
498.17	1736.68
498.37	1671.14
498.57	1757.16
498.77	1677.29
498.97	1705.96
499.17	1837.03
499.38	1798.12
499.58	1652.71
499.78	1769.44
499.98	1861.60
500.18	1724.39
500.38	1685.48
500.58	1904.61
500.78	2602.97
500.98	4550.59
501.18	5906.34
501.38	6530.97
501.58	7053.20
501.78	6639.51
501.98	5601.19
502.18	4939.70
502.38	4429.76
502.58	4122.56
502.78	3827.65
502.98	3655.62
503.18	3434.44
503.38	3188.69
503.59	2836.44
503.79	2654.17
503.99	2451.42
504.19	2273.25
504.39	2213.85
504.59	2189.28
504.79	2138.08
504.99	2037.73
505.19	1939.43
505.39	1951.71
505.59	1865.70
505.79	1892.32
505.99	1867.75
506.19	1814.50
506.39	1900.52
506.59	1708.01
506.79	1718.25
506.99	1863.65
507.19	1763.30
507.39	1779.68
507.59	1634.28
507.79	1673.19
507.99	1681.38
508.19	1751.01
508.39	1787.88
508.59	1630.18
508.79	1867.75
508.99	1834.98
509.19	1687.53
509.39	1763.30
509.59	1761.25
509.79	1720.29
509.99	1759.21
510.19	1761.25
510.39	1787.88
510.59	1791.97
510.79	1705.96
510.99	1667.05
511.19	1798.12
511.39	1796.07
511.59	1826.79
511.79	1847.27
511.99	1697.77
512.19	1798.12
512.38	1714.15
512.58	1646.57
512.78	1708.01
512.98	1773.54
513.18	1775.59
513.38	1570.79
513.58	1824.74
513.78	1751.01
513.98	1726.44
514.18	1603.56
514.38	1736.68
514.58	1691.62
514.78	1712.10
514.98	1646.57
515.18	1695.72
515.38	1640.42
515.58	1822.69
515.78	1628.14
515.98	1773.54
516.18	1781.73
516.38	1753.06
516.57	1689.57
516.77	1636.33
516.97	1830.88
517.17	1671.14
517.37	1683.43
517.57	1812.45
517.77	1687.53
517.97	1654.76
518.17	1761.25
518.37	1650.66
518.57	1726.44
518.77	1714.15
518.97	1695.72
519.16	1689.57
519.36	1755.11
519.56	1673.19
519.76	1695.72
519.96	1720.29
520.16	1775.59
520.36	1617.90
520.56	1796.07
520.76	1759.21
520.96	1607.66
521.16	1826.79
521.35	1830.88
521.55	1763.30
521.75	1748.97
521.95	1677.29
522.15	1693.67
522.35	1617.90
522.55	1730.53
522.75	1738.73
522.95	1773.54
523.14	1724.39
523.34	1755.11
523.54	1712.10
523.74	1765.35
523.94	1685.48
524.14	1619.94
524.34	1794.02
524.54	1761.25
524.73	1673.19
524.93	1753.06
525.13	1710.05
525.33	1609.70
525.53	1861.60
525.73	1775.59
525.93	1742.82
526.13	1720.29
526.32	1744.87
526.52	1763.30
526.72	1834.98
526.92	1736.68
527.12	1697.77
527.32	1667.05
527.52	1724.39
527.71	1705.96
527.91	1746.92
528.11	1691.62
528.31	1665.00
528.51	1646.57
528.71	1781.73
528.90	1722.34
529.10	1789.92
529.30	1832.93
529.50	1650.66
529.70	1761.25
529.90	1781.73
530.09	1689.57
530.29	1640.42
530.49	1685.48
530.69	1873.89
530.89	1742.82
531.09	1726.44
531.28	1789.92
531.48	1773.54
531.68	1746.92
531.88	1771.49
532.08	1665.00
532.28	1642.47
532.47	1734.63
532.67	1787.88
532.87	1693.67
533.07	1660.90
533.27	1781.73
533.46	1734.63
533.66	1757.16
533.86	1667.05
534.06	1708.01
534.26	1714.15
534.45	1781.73
534.65	1812.45
534.85	1753.06
535.05	1611.75
535.25	1744.87
535.44	1585.13
535.64	1716.20
535.84	1681.38
536.04	1693.67
536.24	1695.72
536.43	1720.29
536.63	1759.21
536.83	1677.29
537.03	1701.86
537.22	1652.71
537.42	1558.50
537.62	1769.44
537.82	1636.33
538.02	1787.88
538.21	1834.98
538.41	1837.03
538.61	1685.48
538.81	1724.39
539.00	1816.55
539.20	1689.57
539.40	1726.44
539.60	1722.34
539.79	1834.98
539.99	1681.38
540.19	1669.09
540.39	1789.92
540.58	1685.48
540.78	1834.98
540.98	1718.25
541.18	1779.68
541.37	1740.77
541.57	1728.49
541.77	1757.16
541.97	1710.05
542.16	1621.99
542.36	1724.39
542.56	1665.00
542.76	1851.36
542.95	1765.35
543.15	1781.73
543.35	1787.88
543.54	1730.53
543.74	1652.71
543.94	1775.59
544.14	1771.49
544.33	1748.97
544.53	1787.88
544.73	1665.00
544.93	1714.15
545.12	1726.44
545.32	1730.53
545.52	1677.29
545.71	1654.76
545.91	1775.59
546.11	1689.57
546.30	1656.81
546.50	1755.11
546.70	1744.87
546.90	1757.16
547.09	1632.23
547.29	1769.44
547.49	1740.77
547.68	1695.72
547.88	1648.61
548.08	1773.54
548.27	2191.33
548.47	1753.06
548.67	1724.39
548.87	1703.91
549.06	1751.01
549.26	1748.97
549.46	1736.68
549.65	1681.38
549.85	1746.92
550.05	1830.88
550.24	1599.46
550.44	1789.92
550.64	1705.96
550.83	1748.97
551.03	1771.49
551.23	1785.83
551.42	1744.87
551.62	1718.25
551.82	1740.77
552.01	1738.73
552.21	1744.87
552.41	1783.78
552.60	1828.84
552.80	1671.14
553.00	1775.59
553.19	1787.88
553.39	1810.40
553.59	1662.95
553.78	1763.30
553.98	1798.12
554.17	1703.91
554.37	1720.29
554.57	1785.83
554.76	1667.05
554.96	1710.05
555.16	1720.29
555.35	1775.59
555.55	1767.40
555.75	1740.77
555.94	1802.21
556.14	1671.14
556.33	1718.25
556.53	1722.34
556.73	1755.11
556.92	1728.49
557.12	1818.60
557.32	1802.21
557.51	1820.64
557.71	1765.35
557.90	1767.40
558.10	1845.22
558.30	1695.72
558.49	1665.00
558.69	1724.39
558.88	1738.73
559.08	1732.58
559.28	1671.14
559.47	1755.11
559.67	1738.73
559.86	1880.04
560.06	1705.96
560.26	1650.66
560.45	1732.58
560.65	1775.59
560.84	1802.21
561.04	1628.14
561.24	1767.40
561.43	1632.23
561.63	1697.77
561.82	1751.01
562.02	1757.16
562.22	1677.29
562.41	1656.81
562.61	1691.62
562.80	1687.53
563.00	1830.88
563.19	1808.36
563.39	1697.77
563.59	1777.64
563.78	1640.42
563.98	1660.90
564.17	1675.24
564.37	1624.04
564.56	1701.86
564.76	1660.90
564.96	1814.50
565.15	1673.19
565.35	1849.32
565.54	1712.10
565.74	1677.29
565.93	1705.96
566.13	1701.86
566.32	1755.11
566.52	1755.11
566.71	1746.92
566.91	1753.06
567.11	1687.53
567.30	1773.54
567.50	1722.34
567.69	1718.25
567.89	1746.92
568.08	1722.34
568.28	1802.21
568.47	1632.23
568.67	1837.03
568.86	1693.67
569.06	1785.83
569.25	1734.63
569.45	1681.38
569.64	1804.26
569.84	1736.68
570.04	1816.55
570.23	1724.39
570.43	1675.24
570.62	1775.59
570.82	1773.54
571.01	1732.58
571.21	1701.86
571.40	1656.81
571.60	1796.07
571.79	1783.78
571.99	1783.78
572.18	1654.76
572.38	1763.30
572.57	1800.16
572.77	1746.92
572.96	1791.97
573.16	1742.82
573.35	1662.95
573.55	1834.98
573.74	1800.16
573.94	1699.81
574.13	1630.18
574.33	1839.08
574.52	1677.29
574.71	1742.82
574.91	1753.06
575.10	1730.53
575.30	1791.97
575.49	1685.48
575.69	1708.01
575.88	1753.06
576.08	1665.00
576.27	1720.29
576.47	1671.14
576.66	1804.26
576.86	1777.64
577.05	1816.55
577.25	1699.81
577.44	1830.88
577.64	1695.72
577.83	1681.38
578.02	1759.21
578.22	1857.51
578.41	1904.61
578.61	1734.63
578.80	1746.92
579.00	1796.07
579.19	1796.07
579.39	1812.45
579.58	1773.54
579.77	1773.54
579.97	1847.27
580.16	1812.45
580.36	1824.74
580.55	1841.12
580.75	1798.12
580.94	1724.39
581.13	1816.55
581.33	1832.93
581.52	1714.15
581.72	1953.76
581.91	1906.66
582.11	1718.25
582.30	1787.88
582.49	1738.73
582.69	1814.50
582.88	1796.07
583.08	1763.30
583.27	1841.12
583.47	1798.12
583.66	1667.05
583.85	1687.53
584.05	1796.07
584.24	1744.87
584.44	1806.31
584.63	1847.27
584.82	1837.03
585.02	1777.64
585.21	1929.19
585.41	1771.49
585.60	1763.30
585.79	1939.43
585.99	1980.39
586.18	1865.70
586.37	2242.53
586.57	3364.81
586.76	9795.43
586.96	24481.42
587.15	34323.96
587.34	40717.71
587.54	42419.58
587.73	37021.13
587.93	26478.19
588.12	21368.51
588.31	18396.90
588.51	16135.95
588.70	15413.01
588.89	14090.02
589.09	12646.21
589.28	11024.22
589.47	9516.91
589.67	8273.79
589.86	6442.91
590.06	5025.72
590.25	3866.56
590.44	3176.40
590.64	2602.97
590.83	2281.44
591.02	2101.22
591.22	1945.57
591.41	1927.14
591.60	1787.88
591.80	1984.48
591.99	1751.01
592.18	1816.55
592.38	1738.73
592.57	1824.74
592.76	1751.01
592.96	1724.39
593.15	1789.92
593.34	1804.26
593.54	1746.92
593.73	1802.21
593.92	1712.10
594.12	1845.22
594.31	1808.36
594.50	1841.12
594.70	1751.01
594.89	1894.37
595.08	1761.25
595.28	1812.45
595.47	1861.60
595.66	1730.53
595.86	1738.73
596.05	1742.82
596.24	1738.73
596.43	1826.79
596.63	1955.81
596.82	1800.16
597.01	1740.77
597.21	1843.17
597.40	1759.21
597.59	1794.02
597.79	1679.33
597.98	1820.64
598.17	1753.06
598.36	1759.21
598.56	1779.68
598.75	1740.77
598.94	1701.86
599.14	1759.21
599.33	1705.96
599.52	1828.84
599.71	1779.68
599.91	1765.35
600.10	1857.51
600.29	1763.30
600.48	1751.01
600.68	1703.91
600.87	1751.01
601.06	1710.05
601.26	1763.30
601.45	1755.11
601.64	1716.20
601.83	1820.64
602.03	1722.34
602.22	1648.61
602.41	1751.01
602.60	1816.55
602.80	1841.12
602.99	1738.73
603.18	1705.96
603.37	1699.81
603.57	1800.16
603.76	1818.60
603.95	1759.21
604.14	1689.57
604.34	1685.48
604.53	1720.29
604.72	1767.40
604.91	1785.83
605.10	1751.01
605.30	1652.71
605.49	1832.93
605.68	1710.05
605.87	1794.02
606.07	1699.81
606.26	1697.77
606.45	1689.57
606.64	1804.26
606.84	1693.67
607.03	1779.68
607.22	1816.55
607.41	1621.99
607.60	1644.52
607.80	1777.64
607.99	1669.09
608.18	1720.29
608.37	1779.68
608.56	1669.09
608.76	1785.83
608.95	1806.31
609.14	1697.77
609.33	1796.07
609.52	1740.77
609.72	1789.92
609.91	1730.53
610.10	1742.82
610.29	1785.83
610.48	1734.63
610.68	1765.35
610.87	1718.25
611.06	1722.34
611.25	1748.97
611.44	1718.25
611.63	1685.48
611.83	1900.52
612.02	1630.18
612.21	1830.88
612.40	1667.05
612.59	1669.09
612.79	1632.23
612.98	1730.53
613.17	1851.36
613.36	1771.49
613.55	1822.69
613.74	1683.43
613.93	1671.14
614.13	1722.34
614.32	1746.92
614.51	1794.02
614.70	1701.86
614.89	1746.92
615.08	1734.63
615.28	2078.69
615.47	1689.57
615.66	1765.35
615.85	1726.44
616.04	1738.73
616.23	1740.77
616.42	1665.00
616.62	1689.57
616.81	1802.21
617.00	1685.48
617.19	1800.16
617.38	1683.43
617.57	1732.58
617.76	1662.95
617.95	1804.26
618.15	1759.21
618.34	1800.16
618.53	1669.09
618.72	1794.02
618.91	1796.07
619.10	1849.32
619.29	1734.63
619.48	1779.68
619.68	1708.01
619.87	1705.96
620.06	1665.00
620.25	1632.23
620.44	1728.49
620.63	1703.91
620.82	1767.40
621.01	1730.53
621.20	1654.76
621.39	1771.49
621.59	1810.40
621.78	1710.05
621.97	1710.05
622.16	1763.30
622.35	1689.57
622.54	1742.82
622.73	1775.59
622.92	1550.31
623.11	1804.26
623.30	1673.19
623.49	1705.96
623.68	1572.84
623.88	1867.75
624.07	1701.86
624.26	1724.39
624.45	1675.24
624.64	1662.95
624.83	1769.44
625.02	1660.90
625.21	1767.40
625.40	1697.77
625.59	1769.44
625.78	1740.77
625.97	1783.78
626.16	1722.34
626.35	1689.57
626.54	1742.82
626.74	1869.80
626.93	1718.25
627.12	1730.53
627.31	1816.55
627.50	1740.77
627.69	1779.68
627.88	1642.47
628.07	1640.42
628.26	1597.42
628.45	1697.77
628.64	1667.05
628.83	1705.96
629.02	1640.42
629.21	1652.71
629.40	1691.62
629.59	1654.76
629.78	1621.99
629.97	1646.57
630.16	1759.21
630.35	1650.66
630.54	1791.97
630.73	1669.09
630.92	1697.77
631.11	1679.33
631.30	1714.15
631.49	1746.92
631.68	1728.49
631.87	1773.54
632.06	1673.19
632.25	1867.75
632.44	1705.96
632.63	1757.16
632.82	1724.39
633.01	1611.75
633.20	1734.63
633.39	1662.95
633.58	1648.61
633.77	1683.43
633.96	1710.05
634.15	1714.15
634.34	1781.73
634.53	1679.33
634.72	1714.15
634.91	1560.55
635.10	1738.73
635.29	1722.34
635.48	1708.01
635.67	1673.19
635.86	1615.85
636.05	1753.06
636.24	1726.44
636.43	1697.77
636.62	1712.10
636.81	1642.47
637.00	1687.53
637.19	1685.48
637.38	1689.57
637.57	1685.48
637.76	1728.49
637.95	1736.68
638.14	1736.68
638.33	1632.23
638.52	1769.44
638.71	1656.81
638.89	1632.23
639.08	1746.92
639.27	1724.39
639.46	1703.91
639.65	1751.01
639.84	1726.44
640.03	1845.22
640.22	1708.01
640.41	1820.64
640.60	1673.19
640.79	1722.34
640.98	1736.68
641.17	1761.25
641.36	1650.66
641.55	1740.77
641.74	1624.04
641.92	1714.15
642.11	1671.14
642.30	1705.96
642.49	1710.05
642.68	1718.25
642.87	1738.73
643.06	1787.88
643.25	1636.33
643.44	1687.53
643.63	1671.14
643.82	1804.26
644.00	1673.19
644.19	1714.15
644.38	1662.95
644.57	1718.25
644.76	1708.01
644.95	1675.24
645.14	1693.67
645.33	1724.39
645.52	1693.67
645.71	1576.94
645.89	1665.00
646.08	1732.58
646.27	1697.77
646.46	1886.18
646.65	1638.38
646.84	1669.09
647.03	1654.76
647.22	1828.84
647.40	1679.33
647.59	1724.39
647.78	1617.90
647.97	1667.05
648.16	1695.72
648.35	1794.02
648.54	1837.03
648.73	1701.86
648.91	1759.21
649.10	1705.96
649.29	1748.97
649.48	1685.48
649.67	1673.19
649.86	1753.06
650.05	1662.95
650.23	1689.57
650.42	1640.42
650.61	1771.49
650.80	1789.92
650.99	1779.68
651.18	1771.49
651.36	1744.87
651.55	1677.29
651.74	1718.25
651.93	1705.96
652.12	1689.57
652.31	1695.72
652.49	1824.74
652.68	1681.38
652.87	1746.92
653.06	1724.39
653.25	1785.83
653.44	1689.57
653.62	1832.93
653.81	1685.48
654.00	1646.57
654.19	1841.12
654.38	1867.75
654.56	1695.72
654.75	1656.81
654.94	1773.54
655.13	1767.40
655.32	1781.73
655.51	1687.53
655.69	1683.43
655.88	1759.21
656.07	1652.71
656.26	1761.25
656.45	1650.66
656.63	1642.47
656.82	1687.53
657.01	1744.87
657.20	1712.10
657.38	1716.20
657.57	1701.86
657.76	1621.99
657.95	1722.34
658.14	1759.21
658.32	1697.77
658.51	1636.33
658.70	1671.14
658.89	1740.77
659.08	1705.96
659.26	1853.41
659.45	1671.14
659.64	1708.01
659.83	1658.85
660.01	1841.12
660.20	1746.92
660.39	1761.25
660.58	1671.14
660.76	1761.25
660.95	1542.12
661.14	1767.40
661.33	1648.61
661.51	1701.86
661.70	1720.29
661.89	1701.86
662.08	1736.68
662.26	1640.42
662.45	1679.33
662.64	1738.73
662.83	1753.06
663.01	1636.33
663.20	1648.61
663.39	1767.40
663.58	1685.48
663.76	1730.53
663.95	1656.81
664.14	1640.42
664.32	1685.48
664.51	1667.05
664.70	1642.47
664.89	1724.39
665.07	1669.09
665.26	1773.54
665.45	1632.23
665.64	1781.73
665.82	1703.91
666.01	1816.55
666.20	1632.23
666.38	1794.02
666.57	1841.12
666.76	2136.03
666.95	4605.88
667.13	10293.09
667.32	15329.05
667.51	17868.53
667.69	19070.68
667.88	17604.34
668.07	12320.58
668.25	9545.58
668.44	8128.39
668.63	7493.52
668.81	6909.85
669.00	6430.62
669.19	5648.30
669.38	5132.21
669.56	4659.13
669.75	3960.77
669.94	3409.87
670.12	3000.27
670.31	2529.24
670.50	2263.01
670.68	2099.17
670.87	2013.15
671.06	1765.35
671.24	1810.40
671.43	1742.82
671.62	1720.29
671.80	1730.53
671.99	1728.49
672.18	1697.77
672.36	1759.21
672.55	1826.79
672.74	1667.05
672.92	1761.25
673.11	1771.49
673.29	1626.09
673.48	1767.40
673.67	1738.73
673.85	1834.98
674.04	1738.73
674.23	1621.99
674.41	1794.02
674.60	1640.42
674.79	1716.20
674.97	1669.09
675.16	1796.07
675.34	1789.92
675.53	1687.53
675.72	1757.16
675.90	1773.54
676.09	1656.81
676.28	1726.44
676.46	1593.32
676.65	1769.44
676.83	1626.09
677.02	1677.29
677.21	1722.34
677.39	1742.82
677.58	1697.77
677.77	1716.20
677.95	1687.53
678.14	1734.63
678.32	1671.14
678.51	1687.53
678.70	1744.87
678.88	1685.48
679.07	1808.36
679.25	1705.96
679.44	1683.43
679.63	1640.42
679.81	1701.86
680.00	1794.02
680.18	1730.53
680.37	1843.17
680.55	1662.95
680.74	1589.22
680.93	1626.09
681.11	1677.29
681.30	1677.29
681.48	1730.53
681.67	1581.03
681.85	1677.29
682.04	1634.28
682.23	1783.78
682.41	1730.53
682.60	1679.33
682.78	1734.63
682.97	1607.66
683.15	1693.67
683.34	1740.77
683.53	1744.87
683.71	1644.52
683.90	1822.69
684.08	1796.07
684.27	1691.62
684.45	1628.14
684.64	1796.07
684.82	1742.82
685.01	1726.44
685.19	1724.39
685.38	1761.25
685.57	1675.24
685.75	1705.96
685.94	1771.49
686.12	1652.71
686.31	1638.38
686.49	1779.68
686.68	1587.18
686.86	1738.73
687.05	1665.00
687.23	1771.49
687.42	1687.53
687.60	1642.47
687.79	1783.78
687.97	1810.40
688.16	1783.78
688.34	1804.26
688.53	1638.38
688.71	1748.97
688.90	1693.67
689.08	1636.33
689.27	1619.94
689.45	1708.01
689.64	1728.49
689.82	1728.49
690.01	1738.73
690.19	1712.10
690.38	1730.53
690.56	1751.01
690.75	1665.00
690.93	1679.33
691.12	1685.48
691.30	1746.92
691.49	1710.05
691.67	1654.76
691.86	1841.12
692.04	1714.15
692.23	1746.92
692.41	1619.94
692.60	1845.22
692.78	1759.21
692.97	1699.81
693.15	1701.86
693.34	1843.17
693.52	1783.78
693.71	1642.47
693.89	1562.60
694.08	1636.33
694.26	1763.30
694.44	1658.85
694.63	1755.11
694.81	1726.44
695.00	1697.77
695.18	1810.40
695.37	1890.28
695.55	1748.97
695.74	1757.16
695.92	1611.75
696.10	1705.96
696.29	1599.46
696.47	1691.62
696.66	1642.47
696.84	1644.52
697.03	1667.05
697.21	1845.22
697.40	2308.06
697.58	1763.30
697.76	1617.90
697.95	1708.01
698.13	1710.05
698.32	1568.74
698.50	1650.66
698.68	1701.86
698.87	1726.44
699.05	1820.64
699.24	1789.92
699.42	1720.29
699.61	1714.15
699.79	1746.92
699.97	1738.73
700.16	1695.72
700.34	1675.24
700.53	1724.39
700.71	1787.88
700.89	1779.68
701.08	1701.86
701.26	1705.96
701.45	2070.50
701.63	1675.24
701.81	1740.77
702.00	1591.27
702.18	1628.14
702.37	1705.96
702.55	1751.01
702.73	1757.16
702.92	1665.00
703.10	1722.34
703.28	1660.90
703.47	1617.90
703.65	1708.01
703.84	1695.72
704.02	1673.19
704.20	1710.05
704.39	1665.00
704.57	1636.33
704.75	1753.06
704.94	1708.01
705.12	1660.90
705.30	1748.97
705.49	2238.43
705.67	4356.03
705.86	9248.63
706.04	12799.80
706.22	14473.00
706.41	15492.88
706.59	13885.23
706.77	9615.21
706.96	7384.98
707.14	6766.49
707.32	6072.23
707.51	5539.76
707.69	4888.50
707.87	4327.36
708.06	3553.23
708.24	3014.61
708.42	2412.51
708.61	2353.12
708.79	1855.46
708.97	1906.66
709.16	1783.78
709.34	1748.97
709.52	1712.10
709.71	1691.62
709.89	1763.30
710.07	1681.38
710.26	1656.81
710.44	1714.15
710.62	1761.25
710.80	1744.87
710.99	1806.31
711.17	1697.77
711.35	1689.57
711.54	1734.63
711.72	1783.78
711.90	1701.86
712.09	1648.61
712.27	1656.81
712.45	1771.49
712.63	1656.81
712.82	1695.72
713.00	1683.43
713.18	1712.10
713.37	1734.63
713.55	1720.29
713.73	1736.68
713.91	1705.96
714.10	1691.62
714.28	1660.90
714.46	1724.39
714.65	1691.62
714.83	1718.25
715.01	1699.81
715.19	1716.20
715.38	1611.75
715.56	1656.81
715.74	1665.00
715.92	1691.62
716.11	1812.45
716.29	1626.09
716.47	1656.81
716.65	1708.01
716.84	1593.32
717.02	1675.24
717.20	1638.38
717.38	1665.00
717.57	1744.87
717.75	1679.33
717.93	1691.62
718.11	1732.58
718.30	1701.86
718.48	1722.34
718.66	1767.40
718.84	1765.35
719.03	1656.81
719.21	1658.85
719.39	1798.12
719.57	1699.81
719.75	1759.21
719.94	1681.38
720.12	1640.42
720.30	1759.21
720.48	1755.11
720.67	1716.20
720.85	1703.91
721.03	1763.30
721.21	1662.95
721.39	1789.92
721.58	1705.96
721.76	1658.85
721.94	1742.82
722.12	1665.00
722.30	1908.71
722.49	1640.42
722.67	1667.05
722.85	1748.97
723.03	1646.57
723.21	1691.62
723.40	1683.43
723.58	1755.11
723.76	1748.97
723.94	1794.02
724.12	1685.48
724.30	1742.82
724.49	1730.53
724.67	1734.63
724.85	1853.41
725.03	1578.98
725.21	1681.38
725.40	1783.78
725.58	1624.04
725.76	1761.25
725.94	1720.29
726.12	1601.51
726.30	1609.70
726.49	1699.81
726.67	1615.85
726.85	1755.11
727.03	1834.98
727.21	2176.99
727.39	2815.96
727.57	3674.06
727.76	4194.24
727.94	4458.43
728.12	4411.32
728.30	3583.95
728.48	2969.55
728.66	2795.48
728.84	2451.42
729.03	2316.25
729.21	2187.23
729.39	2013.15
729.57	1796.07
729.75	1828.84
729.93	1794.02
730.11	1658.85
730.30	1679.33
730.48	1665.00
730.66	1810.40
730.84	1781.73
731.02	1708.01
731.20	1742.82
731.38	1689.57
731.56	1705.96
731.74	1642.47
731.93	1771.49
732.11	1724.39
732.29	1658.85
732.47	1703.91
732.65	1779.68
732.83	1773.54
733.01	1732.58
733.19	1716.20
733.37	1810.40
733.56	1740.77
733.74	1683.43
733.92	1816.55
734.10	1718.25
734.28	1740.77
734.46	1613.80
734.64	1695.72
734.82	1697.77
735.00	1658.85
735.18	1697.77
735.36	1658.85
735.54	1660.90
735.73	1742.82
735.91	1736.68
736.09	1787.88
736.27	1722.34
736.45	1787.88
736.63	1548.26
736.81	1638.38
736.99	1724.39
737.17	1771.49
737.35	1667.05
737.53	1765.35
737.71	1708.01
737.89	1753.06
738.07	1705.96
738.25	1601.51
738.43	1652.71
738.61	1658.85
738.80	1640.42
738.98	1638.38
739.16	1693.67
739.34	1703.91
739.52	1785.83
739.70	1658.85
739.88	1771.49
740.06	1796.07
740.24	1546.22
740.42	1759.21
740.60	1621.99
740.78	1691.62
740.96	1648.61
741.14	1656.81
741.32	1705.96
741.50	1621.99
741.68	1867.75
741.86	1832.93
742.04	1689.57
742.22	1724.39
742.40	1705.96
742.58	1767.40
742.76	1679.33
742.94	1742.82
743.12	1624.04
743.30	1705.96
743.48	1710.05
743.66	1693.67
743.84	1691.62
744.02	1628.14
744.20	1718.25
744.38	1689.57
744.56	1654.76
744.74	1785.83
744.92	1701.86
745.10	1843.17
745.28	1722.34
745.46	1724.39
745.64	1689.57
745.82	1701.86
746.00	1648.61
746.18	1736.68
746.36	1722.34
746.54	1751.01
746.72	1615.85
746.90	1675.24
747.08	1789.92
747.26	1638.38
747.44	1722.34
747.62	1751.01
747.80	1703.91
747.98	1763.30
748.15	1714.15
748.33	1767.40
748.51	1777.64
748.69	1726.44
748.87	1705.96
749.05	1724.39
749.23	1724.39
749.41	1755.11
749.59	1644.52
749.77	1763.30
749.95	1685.48
750.13	1650.66
750.31	1712.10
750.49	1742.82
750.67	1736.68
750.85	1814.50
751.03	1701.86
751.20	1871.84
751.38	1691.62
751.56	1740.77
751.74	1730.53
751.92	1656.81
752.10	1685.48
752.28	1695.72
752.46	1646.57
752.64	1689.57
752.82	1683.43
753.00	1783.78
753.18	1587.18
753.35	1660.90
753.53	1748.97
753.71	1632.23
753.89	1695.72
754.07	1751.01
754.25	1744.87
754.43	1722.34
754.61	1581.03
754.79	1708.01
754.97	1595.37
755.14	1783.78
755.32	1634.28
755.50	1705.96
755.68	1767.40
755.86	1607.66
756.04	1705.96
756.22	1626.09
756.40	1767.40
756.57	1806.31
756.75	1675.24
756.93	1789.92
757.11	1654.76
757.29	1628.14
757.47	1687.53
757.65	1646.57
757.82	1613.80
758.00	1679.33
758.18	1654.76
758.36	1701.86
758.54	1884.13
758.72	1636.33
758.90	1726.44
759.07	1691.62
759.25	1708.01
759.43	1761.25
759.61	1638.38
759.79	2189.28
759.97	1748.97
760.15	1621.99
760.32	1679.33
760.50	1742.82
760.68	1773.54
760.86	1628.14
761.04	1849.32
761.22	1785.83
761.39	1693.67
761.57	1798.12
761.75	1767.40
761.93	1728.49
762.11	1691.62
762.28	1714.15
762.46	1630.18
762.64	1755.11
762.82	1667.05
763.00	1712.10
763.18	1738.73
763.35	1617.90
763.53	1724.39
763.71	1722.34
763.89	1675.24
764.07	1796.07
764.24	1708.01
764.42	1708.01
764.60	1693.67
764.78	1718.25
764.96	1763.30
765.13	1802.21
765.31	1689.57
765.49	1697.77
765.67	1671.14
765.84	1675.24
766.02	1693.67
766.20	1624.04
766.38	1703.91
766.56	1718.25
766.73	1763.30
766.91	1703.91
767.09	1673.19
767.27	1791.97
767.44	1591.27
767.62	1728.49
767.80	1683.43
767.98	1693.67
768.15	1673.19
768.33	1748.97
768.51	1724.39
768.69	1728.49
768.87	1744.87
769.04	1669.09
769.22	1822.69
769.40	1814.50
769.58	1826.79
769.75	1736.68
769.93	1755.11
770.11	1746.92
770.28	1634.28
770.46	1787.88
770.64	1685.48
770.82	1591.27
770.99	1699.81
771.17	1718.25
771.35	1748.97
771.53	1679.33
771.70	1812.45
771.88	1691.62
772.06	1634.28
772.23	1681.38
772.41	1761.25
772.59	1705.96
772.77	1732.58
772.94	1765.35
773.12	1675.24
773.30	1722.34
773.47	1710.05
773.65	1656.81
773.83	1718.25
774.01	1701.86
774.18	1632.23
774.36	1724.39
774.54	1652.71
774.71	1779.68
774.89	1644.52
775.07	1630.18
775.24	1697.77
775.42	1687.53
775.60	1845.22
775.78	1671.14
775.95	1628.14
776.13	1621.99
776.31	1609.70
776.48	1724.39
776.66	1787.88
776.84	1593.32
777.01	1642.47
777.19	1634.28
777.37	1656.81
777.54	1714.15
777.72	1820.64
777.90	1740.77
778.07	1656.81
778.25	1763.30
778.43	1761.25
778.60	1630.18
778.78	1791.97
778.96	1822.69
779.13	1642.47
779.31	1849.32
779.49	1699.81
779.66	1601.51
779.84	1673.19
780.01	1734.63
780.19	1656.81
780.37	1814.50
780.54	1763.30
780.72	1656.81
780.90	1675.24
781.07	1658.85
781.25	1652.71
781.43	1656.81
781.60	1722.34
781.78	1798.12
781.95	1708.01
782.13	1628.14
782.31	1722.34
782.48	1640.42
782.66	1773.54
782.83	1757.16
783.01	1652.71
783.19	1675.24
783.36	1699.81
783.54	1624.04
783.72	1734.63
783.89	1732.58
784.07	1648.61
784.24	1742.82
784.42	1816.55
784.60	1757.16
784.77	1787.88
784.95	1597.42
785.12	1652.71
785.30	1693.67
785.47	1640.42
785.65	1662.95
785.83	1624.04
786.00	1634.28
786.18	1753.06
786.35	1636.33
786.53	1665.00
786.71	1738.73
786.88	1814.50
787.06	1701.86
787.23	1705.96
787.41	1628.14
787.58	1710.05
787.76	1667.05
787.94	1679.33
788.11	1714.15
788.29	1732.58
788.46	1619.94
788.64	1632.23
788.81	1695.72
788.99	1597.42
789.16	1662.95
789.34	1673.19
789.52	1701.86
789.69	1609.70
789.87	1566.70
790.04	1656.81
790.22	1677.29
790.39	1779.68
790.57	1652.71
790.74	1695.72
790.92	1789.92
791.09	1693.67
791.27	1783.78
791.44	1720.29
791.62	1673.19
791.79	1710.05
791.97	1701.86
792.15	1869.80
792.32	1759.21
792.50	1675.24
792.67	1775.59
792.85	1812.45
793.02	1689.57
793.20	1624.04
793.37	1558.50
793.55	1736.68
793.72	1640.42
793.90	1779.68
794.07	1658.85
794.25	1624.04
794.42	1753.06
794.60	1578.98
794.77	1712.10
794.95	1695.72
795.12	1705.96
795.30	1650.66
795.47	1665.00
795.65	1794.02
795.82	1667.05
796.00	1630.18
796.17	1722.34
796.34	1654.76
796.52	1658.85
796.69	1728.49
796.87	1705.96
797.04	1769.44
797.22	1789.92
797.39	1740.77
797.57	1789.92
797.74	1617.90
797.92	1685.48
798.09	1738.73
798.27	1765.35
798.44	1726.44
798.62	1667.05
798.79	1734.63
798.96	1761.25
799.14	1624.04
799.31	1820.64
799.49	1718.25
799.66	1658.85
799.84	1755.11
800.01	1634.28
800.19	1767.40
800.36	1621.99
800.53	1802.21
800.71	1720.29
800.88	1767.40
801.06	1589.22
801.23	1675.24
801.41	1677.29
801.58	1746.92
801.75	1648.61
801.93	1765.35
802.10	1742.82
802.28	1771.49
802.45	1665.00
802.63	1826.79
802.80	1847.27
802.97	1640.42
803.15	1638.38
803.32	1705.96
803.50	1673.19
803.67	1599.46
803.84	1689.57
804.02	1728.49
804.19	1652.71
804.37	1665.00
804.54	1583.08
804.71	1722.34
804.89	1628.14
805.06	1660.90
805.24	1656.81
805.41	1667.05
805.58	1714.15
805.76	1882.08
805.93	1699.81
806.10	1759.21
806.28	1677.29
806.45	1699.81
806.63	1730.53
806.80	1685.48
806.97	1718.25
807.15	1654.76
807.32	1718.25
807.49	1683.43
807.67	1667.05
807.84	1714.15
808.01	1662.95
808.19	1794.02
808.36	1789.92
808.54	1621.99
808.71	1638.38
808.88	1691.62
809.06	1753.06
809.23	1773.54
809.40	1679.33
809.58	1724.39
809.75	1656.81
809.92	1654.76
810.10	1818.60
810.27	1669.09
810.44	1728.49
810.62	1771.49
810.79	1720.29
810.96	1648.61
811.14	1636.33
811.31	1816.55
811.48	1675.24
811.66	1755.11
811.83	1724.39
812.00	1732.58
812.18	1746.92
812.35	1828.84
812.52	1646.57
812.69	1671.14
812.87	1662.95
813.04	1695.72
813.21	1648.61
813.39	1609.70
813.56	1656.81
813.73	1779.68
813.91	1677.29
814.08	1705.96
814.25	1736.68
814.42	1591.27
814.60	1738.73
814.77	1746.92
814.94	1671.14
815.12	1703.91
815.29	1738.73
815.46	1673.19
815.63	1730.53
815.81	1730.53
815.98	1669.09
816.15	1705.96
816.33	1736.68
816.50	1656.81
816.67	1697.77
816.84	1677.29
817.02	1671.14
817.19	1665.00
817.36	1697.77
817.53	1759.21
817.71	1689.57
817.88	1820.64
818.05	1671.14
818.22	1691.62
818.40	1769.44
818.57	1650.66
818.74	1781.73
818.91	1628.14
819.09	1748.97
819.26	1781.73
819.43	1673.19
819.60	1640.42
819.78	1724.39
819.95	1822.69
820.12	1615.85
820.29	1791.97
820.47	1757.16
820.64	1699.81
820.81	1685.48
820.98	1673.19
821.15	1665.00
821.33	1699.81
821.50	1636.33
821.67	1730.53
821.84	1705.96
822.02	1705.96
822.19	1722.34
822.36	1648.61
822.53	1646.57
822.70	1601.51
822.88	1693.67
823.05	1781.73
823.22	1658.85
823.39	1724.39
823.56	1568.74
823.74	1757.16
823.91	1695.72
824.08	1669.09
824.25	1626.09
824.42	1810.40
824.60	1581.03
824.77	1796.07
824.94	1689.57
825.11	1714.15
825.28	1609.70
825.45	1765.35
825.63	1665.00
825.80	1626.09
825.97	1759.21
826.14	1705.96
826.31	1599.46
826.48	1767.40
826.66	1632.23
826.83	1650.66
827.00	1736.68
827.17	1617.90
827.34	1689.57
827.51	1714.15
827.69	1710.05
827.86	1642.47
828.03	1712.10
828.20	1787.88
828.37	1701.86
828.54	1728.49
828.71	1621.99
828.89	1744.87
829.06	1695.72
829.23	1718.25
829.40	1607.66
829.57	1701.86
829.74	1783.78
829.91	1636.33
830.09	1712.10
830.26	1642.47
830.43	1783.78
830.60	1703.91
830.77	1714.15
830.94	1779.68
831.11	1708.01
831.28	1640.42
831.46	1722.34
831.63	1665.00
831.80	1787.88
831.97	1679.33
832.14	1738.73
832.31	1730.53
832.48	1740.77
832.65	1730.53
832.82	1759.21
832.99	1687.53
833.17	1673.19
833.34	1714.15
833.51	1691.62
833.68	1589.22
833.85	1783.78
834.02	1624.04
834.19	1566.70
834.36	1626.09
834.53	1640.42
834.70	1816.55
834.87	1720.29
835.04	1703.91
835.22	1652.71
835.39	1697.77
835.56	1638.38
835.73	1714.15
835.90	1730.53
836.07	1660.90
836.24	1732.58
836.41	1712.10
836.58	1669.09
836.75	1771.49
836.92	1669.09
837.09	1669.09
837.26	1675.24
837.43	1665.00
837.60	1746.92
837.77	1675.24
837.94	1685.48
838.12	1834.98
838.29	1703.91
838.46	1636.33
838.63	1632.23
838.80	1828.84
838.97	1742.82
839.14	1716.20
839.31	1748.97
839.48	1771.49
839.65	1716.20
839.82	1650.66
839.99	1712.10
840.16	1712.10
840.33	1648.61
840.50	1675.24
840.67	1630.18
840.84	1626.09
841.01	1652.71
841.18	1669.09
841.35	1658.85
841.52	1703.91
841.69	1853.41
841.86	1716.20
842.03	1693.67
842.20	1804.26
842.37	1667.05
842.54	1689.57
842.71	1718.25
842.88	1693.67
843.05	1738.73
843.22	1667.05
843.39	1775.59
843.56	1658.85
843.73	1673.19
843.90	1697.77
844.07	1656.81
844.24	1732.58
844.41	1748.97
844.58	1634.28
844.75	1652.71
844.92	1687.53
845.09	1691.62
845.26	1581.03
845.43	1732.58
845.60	1599.46
845.77	1810.40
845.94	1705.96
846.10	1763.30
846.27	1656.81
846.44	1636.33
846.61	1669.09
846.78	1742.82
846.95	1728.49
847.12	1640.42
847.29	1693.67
847.46	1691.62
847.63	1763.30
847.80	1675.24
847.97	1677.29
848.14	1812.45
848.31	1648.61
848.48	1691.62
848.65	1828.84
848.82	1587.18
848.98	1869.80
849.15	1675.24
849.32	1755.11
849.49	1726.44
849.66	1701.86
849.83	1675.24
850.00	1640.42
850.17	1660.90
850.34	1748.97
850.51	1642.47
850.68	1695.72
850.85	1800.16
851.01	1724.39
851.18	1712.10
851.35	1701.86
851.52	1730.53
851.69	1798.12
851.86	1638.38
852.03	1714.15
852.20	1730.53
852.37	1710.05
852.53	1652.71
852.70	1712.10
852.87	1673.19
853.04	1765.35
853.21	1665.00
853.38	1685.48
853.55	1783.78
853.72	1798.12
853.89	1630.18
854.05	1660.90
854.22	1695.72
854.39	1673.19
854.56	1660.90
854.73	1779.68
854.90	1626.09
855.07	1687.53
855.23	1689.57
855.40	1593.32
855.57	1640.42
855.74	1609.70
855.91	1767.40
856.08	1642.47
856.25	1646.57
856.41	1642.47
856.58	1728.49
856.75	1710.05
856.92	1605.61
857.09	1763.30
857.26	1626.09
857.42	1689.57
857.59	1757.16
857.76	1646.57
857.93	1730.53
858.10	1759.21
858.27	1640.42
858.43	1728.49
858.60	1636.33
858.77	1644.52
858.94	1644.52
859.11	1765.35
859.27	1759.21
859.44	1675.24
859.61	1755.11
859.78	1687.53
859.95	1687.53
860.12	1693.67
860.28	1875.94
860.45	1855.46
860.62	1642.47
860.79	1730.53
860.95	1660.90
861.12	1636.33
861.29	1685.48
861.46	1681.38
861.63	1683.43
861.79	1724.39
861.96	1642.47
862.13	1658.85
862.30	1791.97
862.47	1628.14
862.63	1640.42
862.80	1705.96
862.97	1736.68
863.14	1705.96
863.30	1705.96
863.47	1642.47
863.64	1777.64
863.81	1730.53
863.97	1671.14
864.14	1736.68
864.31	1665.00
864.48	1697.77
864.65	1714.15
864.81	1761.25
864.98	1695.72
865.15	1742.82
865.32	1738.73
865.48	1828.84
865.65	1738.73
865.82	1669.09
865.98	1679.33
866.15	1730.53
866.32	1765.35
866.49	1716.20
866.65	1748.97
866.82	1632.23
866.99	1669.09
867.16	1650.66
867.32	1648.61
867.49	1662.95
867.66	1644.52
867.83	1652.71
867.99	1662.95
868.16	1683.43
868.33	1656.81
868.49	1712.10
868.66	1650.66
868.83	1787.88
868.99	1619.94
869.16	1714.15
869.33	1695.72
869.50	1658.85
869.66	1685.48
869.83	1681.38
870.00	1628.14
870.16	1681.38
870.33	1736.68
870.50	1763.30
870.66	1708.01
870.83	1812.45
871.00	1742.82
871.17	1705.96
871.33	1779.68
871.50	1656.81
871.67	1693.67
871.83	1558.50
872.00	1851.36
872.17	1679.33
872.33	1765.35
872.50	1738.73
872.67	1646.57
872.83	1597.42
873.00	1724.39
873.17	1640.42
873.33	1834.98
873.50	1681.38
873.67	1652.71
873.83	1585.13
874.00	1681.38
874.16	1708.01
874.33	1677.29
874.50	1626.09
874.66	1769.44
874.83	1626.09
875.00	1769.44
875.16	1751.01
875.33	1820.64
875.50	1595.37
875.66	1640.42
875.83	1658.85
875.99	1679.33
876.16	1691.62
876.33	1656.81
876.49	1710.05
876.66	1759.21
876.83	1669.09
876.99	1615.85
877.16	1658.85
877.32	1677.29
877.49	1671.14
877.66	1697.77
877.82	1716.20
877.99	1734.63
878.15	1730.53
878.32	1685.48
878.49	1724.39
878.65	1566.70
878.82	1802.21
878.98	1679.33
879.15	1714.15
879.32	1675.24
879.48	1624.04
879.65	1660.90
879.81	1640.42
879.98	1714.15
880.15	1658.85
880.31	1714.15
880.48	1644.52
880.64	1773.54
880.81	1751.01
880.97	1796.07
881.14	1748.97
881.31	1640.42
881.47	1806.31
881.64	1738.73
881.80	1611.75
881.97	1675.24
882.13	1783.78
882.30	1558.50
882.47	1517.54
882.63	1697.77
882.80	1675.24
882.96	1646.57
883.13	1730.53
883.29	1712.10
883.46	1714.15
883.62	1820.64
883.79	1677.29
883.95	1726.44
884.12	1658.85
884.29	1789.92
884.45	1726.44
884.62	1730.53
884.78	1624.04
884.95	1826.79
885.11	1656.81
885.28	1669.09
885.44	1669.09
885.61	1734.63
885.77	1724.39
885.94	1679.33
886.10	1662.95
886.27	1701.86
886.43	1800.16
886.60	1767.40
886.76	1708.01
886.93	1660.90
887.09	1681.38
887.26	1611.75
887.42	1697.77
887.59	1742.82
887.75	1779.68
887.92	1726.44
888.08	1761.25
888.25	1777.64
888.41	1843.17
888.58	1740.77
888.74	1632.23
888.91	1681.38
>>>>>End Processed Spectral Data<<<<<
