SpectraSuite Data File
++++++++++++++++++++++++++++++++++++
Date: Mon Jun 06 12:45:37 CEST 2016
User: root
Dark Spectrum Present: No
Reference Spectrum Present: No
Number of Sampled Component Spectra: 1
Spectrometers: USB4C02835
Integration Time (usec): 100000 (USB4C02835)
Spectra Averaged: 1 (USB4C02835)
Boxcar Smoothing: 0 (USB4C02835)
Correct for Electrical Dark: No (USB4C02835)
Strobe/Lamp Enabled: No (USB4C02835)
Correct for Detector Non-linearity: No (USB4C02835)
Correct for Stray Light: No (USB4C02835)
Number of Pixels in Processed Spectrum: 3648
>>>>>Begin Processed Spectral Data<<<<<
177.47	1425.39
177.69	1425.39
177.91	1425.39
178.13	1472.49
178.36	1439.72
178.58	1654.76
178.80	1712.10
179.02	1611.75
179.24	1656.81
179.46	1646.57
179.68	1814.50
179.90	1656.81
180.13	1648.61
180.35	1701.86
180.57	1591.27
180.79	1710.05
181.01	1656.81
181.23	1755.11
181.45	1761.25
181.67	1691.62
181.90	1716.20
182.12	1660.90
182.34	1632.23
182.56	1781.73
182.78	1710.05
183.00	1685.48
183.22	1769.44
183.44	1587.18
183.66	1832.93
183.89	1804.26
184.11	1738.73
184.33	1710.05
184.55	1800.16
184.77	1656.81
184.99	1720.29
185.21	1710.05
185.43	1828.84
185.65	1601.51
185.87	1722.34
186.10	1794.02
186.32	1802.21
186.54	1662.95
186.76	1740.77
186.98	1691.62
187.20	1697.77
187.42	1595.37
187.64	1632.23
187.86	1834.98
188.08	1720.29
188.30	1626.09
188.52	1681.38
188.75	1699.81
188.97	1746.92
189.19	1650.66
189.41	1671.14
189.63	1732.58
189.85	1705.96
190.07	1621.99
190.29	1671.14
190.51	1636.33
190.73	1560.55
190.95	1820.64
191.17	1642.47
191.39	1650.66
191.61	1585.13
191.84	1689.57
192.06	1722.34
192.28	1605.61
192.50	1841.12
192.72	1675.24
192.94	1656.81
193.16	1798.12
193.38	1810.40
193.60	1669.09
193.82	1648.61
194.04	1771.49
194.26	1679.33
194.48	1771.49
194.70	1703.91
194.92	1640.42
195.14	1714.15
195.36	1683.43
195.58	1761.25
195.80	1724.39
196.02	1724.39
196.24	1632.23
196.46	1724.39
196.69	1660.90
196.91	1794.02
197.13	1738.73
197.35	1648.61
197.57	1724.39
197.79	1695.72
198.01	1748.97
198.23	1677.29
198.45	1697.77
198.67	1654.76
198.89	1632.23
199.11	1685.48
199.33	1683.43
199.55	1607.66
199.77	1738.73
199.99	1826.79
200.21	1781.73
200.43	1701.86
200.65	1636.33
200.87	1552.36
201.09	1751.01
201.31	1611.75
201.53	1796.07
201.75	1759.21
201.97	1718.25
202.19	1710.05
202.41	1800.16
202.63	1845.22
202.85	1730.53
203.07	1691.62
203.29	1654.76
203.51	1667.05
203.73	1681.38
203.95	1853.41
204.17	1685.48
204.39	1759.21
204.61	1679.33
204.83	1726.44
205.05	1826.79
205.27	1742.82
205.49	1820.64
205.71	1705.96
205.93	1636.33
206.15	1644.52
206.37	1718.25
206.59	1673.19
206.81	1591.27
207.03	1667.05
207.25	1656.81
207.47	1677.29
207.69	1660.90
207.91	1791.97
208.13	1769.44
208.34	1654.76
208.56	1667.05
208.78	1673.19
209.00	1703.91
209.22	1703.91
209.44	1650.66
209.66	1648.61
209.88	1671.14
210.10	1665.00
210.32	1673.19
210.54	1726.44
210.76	1742.82
210.98	1697.77
211.20	1593.32
211.42	1753.06
211.64	1851.36
211.86	1679.33
212.08	1720.29
212.30	1765.35
212.52	1675.24
212.74	1705.96
212.96	1693.67
213.17	1742.82
213.39	1708.01
213.61	1746.92
213.83	1662.95
214.05	1628.14
214.27	1759.21
214.49	1671.14
214.71	1734.63
214.93	1720.29
215.15	1755.11
215.37	1763.30
215.59	1554.41
215.81	1687.53
216.03	1740.77
216.24	1677.29
216.46	1773.54
216.68	1656.81
216.90	1716.20
217.12	1789.92
217.34	1773.54
217.56	1732.58
217.78	1732.58
218.00	1767.40
218.22	1687.53
218.44	1697.77
218.66	1753.06
218.87	1765.35
219.09	1654.76
219.31	1755.11
219.53	1751.01
219.75	1640.42
219.97	1691.62
220.19	1714.15
220.41	1689.57
220.63	1800.16
220.85	1757.16
221.06	1699.81
221.28	1744.87
221.50	1738.73
221.72	1736.68
221.94	1718.25
222.16	1705.96
222.38	1787.88
222.60	1683.43
222.82	1636.33
223.03	1742.82
223.25	1587.18
223.47	1720.29
223.69	1789.92
223.91	1724.39
224.13	1705.96
224.35	1662.95
224.57	1757.16
224.78	1697.77
225.00	1671.14
225.22	1751.01
225.44	1689.57
225.66	1683.43
225.88	1693.67
226.10	1740.77
226.32	1730.53
226.53	1738.73
226.75	1693.67
226.97	1697.77
227.19	1757.16
227.41	1728.49
227.63	1732.58
227.85	1615.85
228.06	1736.68
228.28	1693.67
228.50	1740.77
228.72	1605.61
228.94	1732.58
229.16	1574.89
229.37	1609.70
229.59	1662.95
229.81	1753.06
230.03	1677.29
230.25	1628.14
230.47	1693.67
230.69	1609.70
230.90	1767.40
231.12	1665.00
231.34	1632.23
231.56	1712.10
231.78	1562.60
232.00	1722.34
232.21	1724.39
232.43	1755.11
232.65	1581.03
232.87	1740.77
233.09	1640.42
233.30	1689.57
233.52	1748.97
233.74	1763.30
233.96	1654.76
234.18	1734.63
234.40	1662.95
234.61	1781.73
234.83	1587.18
235.05	1609.70
235.27	1841.12
235.49	1763.30
235.70	1703.91
235.92	1794.02
236.14	1773.54
236.36	1867.75
236.58	1658.85
236.79	1703.91
237.01	1683.43
237.23	1669.09
237.45	1814.50
237.67	1634.28
237.88	1697.77
238.10	1812.45
238.32	1689.57
238.54	1662.95
238.76	1703.91
238.97	1648.61
239.19	1693.67
239.41	1724.39
239.63	1738.73
239.85	1724.39
240.06	1687.53
240.28	1685.48
240.50	1763.30
240.72	1716.20
240.93	1677.29
241.15	1787.88
241.37	1716.20
241.59	1806.31
241.81	1681.38
242.02	1669.09
242.24	1669.09
242.46	1746.92
242.68	1660.90
242.89	1773.54
243.11	1705.96
243.33	1693.67
243.55	1787.88
243.76	1679.33
243.98	1685.48
244.20	1703.91
244.42	1648.61
244.64	1656.81
244.85	1671.14
245.07	1730.53
245.29	1695.72
245.51	1667.05
245.72	1693.67
245.94	1703.91
246.16	1679.33
246.38	1822.69
246.59	1660.90
246.81	1669.09
247.03	1724.39
247.24	1658.85
247.46	1720.29
247.68	1716.20
247.90	1669.09
248.11	1583.08
248.33	1738.73
248.55	1742.82
248.77	1701.86
248.98	1783.78
249.20	1740.77
249.42	1695.72
249.64	1703.91
249.85	1673.19
250.07	1712.10
250.29	1773.54
250.50	1742.82
250.72	1632.23
250.94	1775.59
251.16	1783.78
251.37	1767.40
251.59	1759.21
251.81	1728.49
252.02	1839.08
252.24	1656.81
252.46	1804.26
252.68	1691.62
252.89	1710.05
253.11	1560.55
253.33	1804.26
253.54	1781.73
253.76	1671.14
253.98	1646.57
254.20	1716.20
254.41	1665.00
254.63	1665.00
254.85	1648.61
255.06	1656.81
255.28	1681.38
255.50	1740.77
255.71	1583.08
255.93	1632.23
256.15	1693.67
256.36	1640.42
256.58	1640.42
256.80	1740.77
257.02	1691.62
257.23	1646.57
257.45	1724.39
257.67	1767.40
257.88	1667.05
258.10	1703.91
258.32	1748.97
258.53	1671.14
258.75	1777.64
258.97	1685.48
259.18	1632.23
259.40	1720.29
259.62	1740.77
259.83	1796.07
260.05	1656.81
260.27	1978.34
260.48	1742.82
260.70	1669.09
260.92	1675.24
261.13	1570.79
261.35	1734.63
261.57	1714.15
261.78	1521.64
262.00	1626.09
262.22	1691.62
262.43	1675.24
262.65	1636.33
262.86	1697.77
263.08	1791.97
263.30	1744.87
263.51	1640.42
263.73	1675.24
263.95	1685.48
264.16	1689.57
264.38	1734.63
264.60	1746.92
264.81	1679.33
265.03	1656.81
265.25	1804.26
265.46	1624.04
265.68	1675.24
265.89	1673.19
266.11	1599.46
266.33	1724.39
266.54	1732.58
266.76	1708.01
266.98	1812.45
267.19	1783.78
267.41	1701.86
267.62	1599.46
267.84	1628.14
268.06	1728.49
268.27	1617.90
268.49	1759.21
268.70	1730.53
268.92	1685.48
269.14	1693.67
269.35	1632.23
269.57	1644.52
269.79	1779.68
270.00	1677.29
270.22	1765.35
270.43	1705.96
270.65	1611.75
270.87	1724.39
271.08	1675.24
271.30	1763.30
271.51	1685.48
271.73	1716.20
271.95	1796.07
272.16	1732.58
272.38	1667.05
272.59	1722.34
272.81	1687.53
273.02	1710.05
273.24	1722.34
273.46	1755.11
273.67	1722.34
273.89	1640.42
274.10	1619.94
274.32	1751.01
274.54	1761.25
274.75	1744.87
274.97	1691.62
275.18	1732.58
275.40	1742.82
275.61	1673.19
275.83	1740.77
276.05	1640.42
276.26	1675.24
276.48	1777.64
276.69	1683.43
276.91	1560.55
277.12	1699.81
277.34	1834.98
277.55	1744.87
277.77	1648.61
277.99	1630.18
278.20	1576.94
278.42	1656.81
278.63	1675.24
278.85	1640.42
279.06	1617.90
279.28	1734.63
279.49	1718.25
279.71	1701.86
279.93	1746.92
280.14	1714.15
280.36	1650.66
280.57	1718.25
280.79	1738.73
281.00	1701.86
281.22	1710.05
281.43	1751.01
281.65	1617.90
281.86	1642.47
282.08	1671.14
282.29	1775.59
282.51	1546.22
282.73	1675.24
282.94	1615.85
283.16	1759.21
283.37	1703.91
283.59	1703.91
283.80	1697.77
284.02	1673.19
284.23	1687.53
284.45	1685.48
284.66	1628.14
284.88	1689.57
285.09	1724.39
285.31	1746.92
285.52	1710.05
285.74	1634.28
285.95	1718.25
286.17	1785.83
286.38	1751.01
286.60	1695.72
286.81	1624.04
287.03	1611.75
287.24	1691.62
287.46	1681.38
287.67	1728.49
287.89	1767.40
288.10	1718.25
288.32	1654.76
288.53	1808.36
288.75	1701.86
288.96	1730.53
289.18	1615.85
289.39	1708.01
289.61	1802.21
289.82	1742.82
290.04	1824.74
290.25	1607.66
290.47	1662.95
290.68	1740.77
290.90	1748.97
291.11	1644.52
291.33	1755.11
291.54	1583.08
291.76	1693.67
291.97	1716.20
292.18	1736.68
292.40	1665.00
292.61	1615.85
292.83	1839.08
293.04	1681.38
293.26	1759.21
293.47	1681.38
293.69	1650.66
293.90	1716.20
294.12	1748.97
294.33	1710.05
294.55	1648.61
294.76	1679.33
294.97	1730.53
295.19	1791.97
295.40	1685.48
295.62	1712.10
295.83	1746.92
296.05	1632.23
296.26	1765.35
296.48	1681.38
296.69	1738.73
296.90	1708.01
297.12	1789.92
297.33	1689.57
297.55	1669.09
297.76	1683.43
297.98	1765.35
298.19	1669.09
298.41	1660.90
298.62	1761.25
298.83	1769.44
299.05	1705.96
299.26	1703.91
299.48	1742.82
299.69	1703.91
299.90	1746.92
300.12	1587.18
300.33	1701.86
300.55	1650.66
300.76	1665.00
300.98	1652.71
301.19	1804.26
301.40	1652.71
301.62	1730.53
301.83	1679.33
302.05	1665.00
302.26	1617.90
302.47	1712.10
302.69	1650.66
302.90	1720.29
303.12	1581.03
303.33	1748.97
303.54	1902.56
303.76	1650.66
303.97	1724.39
304.19	1667.05
304.40	1738.73
304.61	1697.77
304.83	1808.36
305.04	1777.64
305.26	1781.73
305.47	1634.28
305.68	1710.05
305.90	1626.09
306.11	1726.44
306.33	1734.63
306.54	1636.33
306.75	1699.81
306.97	1601.51
307.18	1703.91
307.39	1601.51
307.61	1665.00
307.82	1667.05
308.04	1728.49
308.25	1714.15
308.46	1687.53
308.68	1673.19
308.89	1689.57
309.10	1699.81
309.32	1673.19
309.53	1689.57
309.74	1695.72
309.96	1570.79
310.17	1775.59
310.39	1658.85
310.60	1787.88
310.81	1726.44
311.03	1642.47
311.24	1718.25
311.45	1701.86
311.67	1869.80
311.88	1724.39
312.09	1619.94
312.31	1667.05
312.52	1681.38
312.73	1687.53
312.95	1611.75
313.16	1699.81
313.37	1818.60
313.59	1710.05
313.80	1796.07
314.01	1765.35
314.23	1650.66
314.44	1681.38
314.65	1581.03
314.87	1691.62
315.08	1763.30
315.29	1578.98
315.51	1714.15
315.72	1638.38
315.93	1890.28
316.15	1773.54
316.36	1703.91
316.57	1673.19
316.79	1650.66
317.00	1701.86
317.21	1773.54
317.43	1671.14
317.64	1726.44
317.85	1648.61
318.07	1646.57
318.28	1679.33
318.49	1775.59
318.70	1927.14
318.92	1796.07
319.13	1830.88
319.34	1837.03
319.56	1834.98
319.77	1839.08
319.98	1712.10
320.20	1738.73
320.41	1714.15
320.62	1812.45
320.83	1646.57
321.05	1865.70
321.26	1732.58
321.47	1693.67
321.69	1812.45
321.90	1628.14
322.11	1697.77
322.32	1705.96
322.54	1738.73
322.75	1679.33
322.96	1882.08
323.18	1595.37
323.39	1566.70
323.60	1619.94
323.81	1714.15
324.03	1638.38
324.24	1644.52
324.45	1681.38
324.66	1716.20
324.88	1789.92
325.09	1767.40
325.30	1683.43
325.52	1654.76
325.73	1699.81
325.94	1736.68
326.15	1591.27
326.37	1691.62
326.58	1800.16
326.79	1822.69
327.00	1632.23
327.22	1693.67
327.43	1654.76
327.64	1626.09
327.85	1755.11
328.07	1665.00
328.28	1837.03
328.49	1652.71
328.70	1636.33
328.92	1695.72
329.13	1744.87
329.34	1718.25
329.55	1837.03
329.76	1726.44
329.98	1695.72
330.19	1757.16
330.40	1730.53
330.61	1746.92
330.83	1705.96
331.04	1693.67
331.25	1638.38
331.46	1679.33
331.68	1636.33
331.89	1740.77
332.10	1662.95
332.31	1665.00
332.52	1624.04
332.74	1746.92
332.95	1566.70
333.16	1681.38
333.37	1683.43
333.58	1718.25
333.80	1730.53
334.01	1658.85
334.22	1687.53
334.43	1722.34
334.64	1751.01
334.86	1581.03
335.07	1675.24
335.28	1789.92
335.49	1544.17
335.70	1767.40
335.92	1761.25
336.13	1804.26
336.34	1785.83
336.55	1710.05
336.76	1714.15
336.98	1587.18
337.19	1742.82
337.40	1806.31
337.61	1834.98
337.82	1658.85
338.04	1789.92
338.25	1601.51
338.46	1705.96
338.67	1642.47
338.88	1613.80
339.09	1665.00
339.31	1609.70
339.52	1714.15
339.73	1710.05
339.94	1675.24
340.15	1748.97
340.36	1613.80
340.58	1656.81
340.79	1640.42
341.00	1701.86
341.21	1642.47
341.42	1796.07
341.63	1757.16
341.85	1742.82
342.06	1701.86
342.27	1665.00
342.48	1708.01
342.69	1595.37
342.90	1665.00
343.12	1826.79
343.33	1681.38
343.54	1742.82
343.75	1738.73
343.96	1701.86
344.17	1683.43
344.38	1601.51
344.60	1650.66
344.81	1589.22
345.02	1705.96
345.23	1828.84
345.44	1773.54
345.65	1693.67
345.86	1722.34
346.07	1681.38
346.29	1652.71
346.50	1669.09
346.71	1781.73
346.92	1806.31
347.13	1751.01
347.34	1720.29
347.55	1675.24
347.76	1701.86
347.98	1638.38
348.19	1636.33
348.40	1783.78
348.61	1556.46
348.82	1753.06
349.03	1732.58
349.24	1681.38
349.45	1769.44
349.66	1578.98
349.88	1744.87
350.09	1640.42
350.30	1804.26
350.51	1834.98
350.72	1677.29
350.93	1775.59
351.14	1722.34
351.35	1746.92
351.56	1804.26
351.77	1722.34
351.99	1763.30
352.20	1832.93
352.41	1726.44
352.62	1548.26
352.83	1660.90
353.04	1710.05
353.25	1636.33
353.46	1771.49
353.67	1755.11
353.88	1648.61
354.09	1787.88
354.30	1710.05
354.52	1695.72
354.73	1656.81
354.94	1648.61
355.15	1679.33
355.36	1814.50
355.57	1665.00
355.78	1726.44
355.99	1689.57
356.20	1726.44
356.41	1767.40
356.62	1759.21
356.83	1667.05
357.04	1822.69
357.25	1621.99
357.46	1683.43
357.68	1667.05
357.89	1656.81
358.10	1673.19
358.31	1617.90
358.52	1718.25
358.73	1628.14
358.94	1683.43
359.15	1726.44
359.36	1728.49
359.57	1734.63
359.78	1724.39
359.99	1734.63
360.20	1621.99
360.41	1718.25
360.62	1675.24
360.83	1708.01
361.04	1673.19
361.25	1726.44
361.46	1742.82
361.67	1826.79
361.88	1740.77
362.09	1798.12
362.30	1675.24
362.51	1654.76
362.72	1705.96
362.93	1730.53
363.14	1726.44
363.35	1726.44
363.56	1695.72
363.78	1744.87
363.99	1765.35
364.20	1652.71
364.41	1746.92
364.62	1812.45
364.83	1746.92
365.04	1718.25
365.25	1665.00
365.46	1849.32
365.67	1605.61
365.88	1687.53
366.09	1679.33
366.30	1677.29
366.51	1695.72
366.72	1615.85
366.93	1677.29
367.14	1767.40
367.35	1767.40
367.56	1605.61
367.77	1740.77
367.98	1662.95
368.18	1691.62
368.39	1712.10
368.60	1624.04
368.81	1763.30
369.02	1708.01
369.23	1714.15
369.44	1601.51
369.65	1667.05
369.86	1730.53
370.07	1789.92
370.28	1681.38
370.49	1724.39
370.70	1753.06
370.91	1679.33
371.12	1640.42
371.33	1728.49
371.54	1699.81
371.75	1816.55
371.96	1564.65
372.17	1722.34
372.38	1742.82
372.59	1718.25
372.80	1699.81
373.01	1705.96
373.22	1701.86
373.43	1683.43
373.64	1652.71
373.85	1771.49
374.06	1794.02
374.26	1662.95
374.47	1722.34
374.68	1824.74
374.89	1726.44
375.10	1634.28
375.31	1738.73
375.52	1759.21
375.73	1734.63
375.94	1703.91
376.15	1740.77
376.36	1679.33
376.57	1613.80
376.78	1628.14
376.99	1705.96
377.20	1816.55
377.40	1669.09
377.61	1791.97
377.82	1632.23
378.03	1755.11
378.24	1734.63
378.45	1708.01
378.66	1701.86
378.87	1662.95
379.08	1683.43
379.29	1746.92
379.50	1785.83
379.71	1681.38
379.91	1755.11
380.12	1681.38
380.33	1714.15
380.54	1728.49
380.75	1675.24
380.96	1720.29
381.17	1705.96
381.38	1679.33
381.59	1742.82
381.80	1697.77
382.00	1832.93
382.21	1789.92
382.42	1804.26
382.63	1966.05
382.84	1759.21
383.05	1757.16
383.26	1712.10
383.47	1779.68
383.68	1806.31
383.88	1789.92
384.09	1730.53
384.30	1814.50
384.51	1710.05
384.72	1667.05
384.93	1601.51
385.14	1718.25
385.35	1804.26
385.55	1656.81
385.76	1849.32
385.97	1716.20
386.18	1628.14
386.39	1695.72
386.60	1732.58
386.81	1751.01
387.02	1648.61
387.22	1640.42
387.43	1802.21
387.64	1744.87
387.85	1918.95
388.06	2197.47
388.27	4284.35
388.48	6729.63
388.68	8277.89
388.89	9676.65
389.10	9754.48
389.31	8638.33
389.52	7432.08
389.73	6766.49
389.93	6104.99
390.14	5943.21
390.35	5181.36
390.56	4626.36
390.77	3753.93
390.98	3096.53
391.18	2459.61
391.39	2117.60
391.60	2000.87
391.81	1890.28
392.02	1740.77
392.23	1830.88
392.43	1697.77
392.64	1701.86
392.85	1685.48
393.06	1861.60
393.27	1705.96
393.47	1683.43
393.68	1734.63
393.89	1638.38
394.10	1765.35
394.31	1619.94
394.52	1640.42
394.72	1648.61
394.93	1812.45
395.14	1679.33
395.35	1681.38
395.56	1585.13
395.76	1714.15
395.97	1703.91
396.18	1880.04
396.39	1824.74
396.60	2066.40
396.80	1898.47
397.01	1804.26
397.22	1867.75
397.43	1877.99
397.64	1654.76
397.84	1783.78
398.05	1923.04
398.26	1816.55
398.47	1796.07
398.67	1753.06
398.88	1726.44
399.09	1675.24
399.30	1562.60
399.51	1763.30
399.71	1609.70
399.92	1755.11
400.13	1708.01
400.34	1716.20
400.54	1767.40
400.75	1744.87
400.96	1658.85
401.17	1748.97
401.37	1675.24
401.58	1654.76
401.79	1687.53
402.00	1834.98
402.21	2021.35
402.41	1966.05
402.62	1959.91
402.83	2041.82
403.04	2050.02
403.24	2078.69
403.45	1724.39
403.66	1849.32
403.87	1845.22
404.07	1927.14
404.28	1857.51
404.49	1808.36
404.70	1769.44
404.90	1769.44
405.11	1748.97
405.32	1765.35
405.52	1619.94
405.73	1677.29
405.94	1654.76
406.15	1677.29
406.35	1796.07
406.56	1712.10
406.77	1755.11
406.98	1705.96
407.18	1603.56
407.39	1779.68
407.60	1652.71
407.80	1701.86
408.01	1675.24
408.22	1726.44
408.43	1662.95
408.63	1718.25
408.84	1787.88
409.05	1687.53
409.25	1669.09
409.46	1634.28
409.67	1708.01
409.88	1732.58
410.08	1751.01
410.29	1718.25
410.50	1798.12
410.70	1736.68
410.91	1705.96
411.12	1683.43
411.32	1681.38
411.53	1632.23
411.74	1697.77
411.95	1787.88
412.15	1791.97
412.36	1787.88
412.57	1748.97
412.77	1767.40
412.98	1746.92
413.19	1634.28
413.39	1757.16
413.60	1859.56
413.81	1773.54
414.01	1640.42
414.22	1763.30
414.43	1783.78
414.63	1677.29
414.84	1705.96
415.05	1656.81
415.25	1703.91
415.46	1660.90
415.67	1632.23
415.87	1738.73
416.08	1687.53
416.29	1673.19
416.49	1730.53
416.70	1642.47
416.91	1699.81
417.11	1800.16
417.32	1722.34
417.53	1718.25
417.73	1765.35
417.94	1689.57
418.15	1697.77
418.35	1681.38
418.56	1751.01
418.77	1832.93
418.97	1658.85
419.18	1619.94
419.38	1566.70
419.59	1740.77
419.80	1761.25
420.00	1642.47
420.21	1753.06
420.42	1777.64
420.62	1718.25
420.83	1716.20
421.04	1611.75
421.24	1679.33
421.45	1759.21
421.65	1736.68
421.86	1642.47
422.07	1820.64
422.27	1753.06
422.48	1810.40
422.69	1611.75
422.89	1791.97
423.10	1665.00
423.30	1648.61
423.51	1652.71
423.72	1726.44
423.92	1712.10
424.13	1644.52
424.33	1693.67
424.54	1832.93
424.75	1751.01
424.95	1779.68
425.16	1753.06
425.36	1648.61
425.57	1755.11
425.78	1755.11
425.98	1740.77
426.19	1603.56
426.39	1603.56
426.60	1642.47
426.81	1796.07
427.01	1724.39
427.22	1730.53
427.42	1658.85
427.63	1609.70
427.83	1734.63
428.04	1787.88
428.25	1796.07
428.45	1761.25
428.66	1742.82
428.86	1714.15
429.07	1689.57
429.28	1726.44
429.48	1710.05
429.69	1636.33
429.89	1744.87
430.10	1601.51
430.30	1783.78
430.51	1740.77
430.71	1662.95
430.92	1738.73
431.13	1621.99
431.33	1685.48
431.54	1742.82
431.74	1783.78
431.95	1751.01
432.15	1652.71
432.36	1669.09
432.56	1759.21
432.77	1818.60
432.98	1781.73
433.18	1638.38
433.39	1718.25
433.59	1693.67
433.80	1755.11
434.00	1867.75
434.21	1646.57
434.41	1710.05
434.62	1843.17
434.82	1646.57
435.03	1691.62
435.23	1718.25
435.44	1636.33
435.64	1728.49
435.85	1757.16
436.06	1736.68
436.26	1789.92
436.47	1753.06
436.67	1658.85
436.88	1712.10
437.08	1742.82
437.29	1865.70
437.49	1765.35
437.70	1742.82
437.90	1673.19
438.11	1802.21
438.31	1728.49
438.52	1806.31
438.72	1867.75
438.93	1974.24
439.13	1683.43
439.34	1773.54
439.54	1705.96
439.75	1837.03
439.95	1708.01
440.16	1703.91
440.36	1781.73
440.57	1712.10
440.77	1767.40
440.98	1712.10
441.18	1765.35
441.39	1632.23
441.59	1638.38
441.80	1816.55
442.00	1738.73
442.21	1748.97
442.41	1636.33
442.62	1720.29
442.82	1699.81
443.02	1761.25
443.23	1642.47
443.43	1683.43
443.64	1794.02
443.84	1687.53
444.05	1802.21
444.25	1714.15
444.46	1640.42
444.66	1773.54
444.87	1845.22
445.07	1648.61
445.28	1724.39
445.48	1824.74
445.69	1875.94
445.89	1789.92
446.09	1748.97
446.30	2064.35
446.50	2691.03
446.71	3631.05
446.91	4253.63
447.12	4794.29
447.32	4765.62
447.53	4196.29
447.73	3987.40
447.93	3551.18
448.14	3334.09
448.34	3100.62
448.55	2834.39
448.75	2901.97
448.96	2645.98
449.16	2420.70
449.36	2281.44
449.57	2115.55
449.77	1929.19
449.98	1769.44
450.18	1832.93
450.39	1859.56
450.59	1746.92
450.79	1730.53
451.00	1640.42
451.20	1693.67
451.41	1720.29
451.61	1673.19
451.81	1683.43
452.02	1783.78
452.22	1755.11
452.43	1697.77
452.63	1714.15
452.84	1695.72
453.04	1751.01
453.24	1689.57
453.45	1689.57
453.65	1703.91
453.86	1730.53
454.06	1718.25
454.26	1705.96
454.47	1746.92
454.67	1697.77
454.87	1689.57
455.08	1771.49
455.28	1806.31
455.49	1769.44
455.69	1656.81
455.89	1898.47
456.10	1794.02
456.30	1726.44
456.51	1775.59
456.71	1763.30
456.91	1785.83
457.12	1763.30
457.32	1738.73
457.52	1681.38
457.73	1746.92
457.93	1740.77
458.14	1712.10
458.34	1621.99
458.54	1677.29
458.75	1755.11
458.95	1830.88
459.15	1712.10
459.36	1775.59
459.56	1742.82
459.76	1837.03
459.97	1742.82
460.17	1787.88
460.37	1828.84
460.58	1691.62
460.78	1708.01
460.99	1724.39
461.19	1687.53
461.39	1681.38
461.60	1699.81
461.80	1783.78
462.00	1689.57
462.21	1703.91
462.41	1617.90
462.61	1697.77
462.82	1613.80
463.02	1636.33
463.22	1740.77
463.43	1853.41
463.63	1685.48
463.83	1771.49
464.04	1783.78
464.24	1699.81
464.44	1675.24
464.64	1783.78
464.85	1732.58
465.05	1746.92
465.25	1658.85
465.46	1703.91
465.66	1789.92
465.86	1734.63
466.07	1728.49
466.27	1720.29
466.47	1640.42
466.68	1611.75
466.88	1763.30
467.08	1726.44
467.29	1701.86
467.49	1728.49
467.69	1677.29
467.89	1718.25
468.10	1779.68
468.30	1675.24
468.50	1816.55
468.71	1732.58
468.91	1601.51
469.11	1863.65
469.31	1759.21
469.52	1683.43
469.72	1837.03
469.92	1859.56
470.13	1730.53
470.33	1689.57
470.53	1900.52
470.73	2166.75
470.94	2271.20
471.14	2328.54
471.34	2457.56
471.54	2332.64
471.75	2193.37
471.95	2088.93
472.15	2095.07
472.36	2050.02
472.56	2025.44
472.76	2050.02
472.96	2086.88
473.17	1951.71
473.37	1931.23
473.57	1861.60
473.77	1826.79
473.98	1789.92
474.18	1687.53
474.38	1914.85
474.58	1728.49
474.79	1699.81
474.99	1781.73
475.19	1761.25
475.39	1628.14
475.60	1703.91
475.80	1724.39
476.00	1665.00
476.20	1726.44
476.41	1718.25
476.61	1765.35
476.81	1832.93
477.01	1695.72
477.21	1804.26
477.42	1802.21
477.62	1681.38
477.82	1767.40
478.02	1759.21
478.23	1761.25
478.43	1703.91
478.63	1693.67
478.83	1736.68
479.03	1755.11
479.24	1779.68
479.44	1769.44
479.64	1714.15
479.84	1632.23
480.04	1683.43
480.25	1826.79
480.45	1701.86
480.65	1695.72
480.85	1832.93
481.06	1679.33
481.26	1742.82
481.46	1755.11
481.66	1714.15
481.86	1615.85
482.06	1820.64
482.27	1691.62
482.47	1693.67
482.67	1789.92
482.87	1712.10
483.07	1890.28
483.28	1703.91
483.48	1628.14
483.68	1728.49
483.88	1683.43
484.08	1673.19
484.29	1603.56
484.49	1751.01
484.69	1574.89
484.89	1742.82
485.09	1722.34
485.29	1755.11
485.50	1685.48
485.70	1652.71
485.90	1724.39
486.10	1718.25
486.30	1738.73
486.50	1699.81
486.71	1763.30
486.91	1746.92
487.11	1845.22
487.31	1716.20
487.51	1755.11
487.71	1611.75
487.91	1587.18
488.12	1650.66
488.32	1626.09
488.52	1660.90
488.72	1576.94
488.92	1759.21
489.12	1808.36
489.32	1806.31
489.53	1812.45
489.73	1660.90
489.93	1818.60
490.13	1726.44
490.33	1587.18
490.53	1665.00
490.73	1720.29
490.94	1710.05
491.14	1796.07
491.34	1775.59
491.54	2131.94
491.74	2545.63
491.94	2865.11
492.14	3020.75
492.34	3020.75
492.54	2830.29
492.75	2473.95
492.95	2414.56
493.15	2355.16
493.35	2260.96
493.55	2299.87
493.75	2176.99
493.95	2187.23
494.15	1916.90
494.35	1943.52
494.56	1888.23
494.76	1802.21
494.96	1796.07
495.16	1724.39
495.36	1765.35
495.56	1785.83
495.76	1834.98
495.96	1742.82
496.16	1634.28
496.36	1841.12
496.56	1638.38
496.77	1816.55
496.97	1718.25
497.17	1822.69
497.37	1751.01
497.57	1693.67
497.77	1697.77
497.97	1720.29
498.17	1763.30
498.37	1644.52
498.57	1759.21
498.77	1638.38
498.97	1746.92
499.17	1853.41
499.38	1730.53
499.58	1708.01
499.78	1837.03
499.98	1849.32
500.18	1751.01
500.38	1722.34
500.58	1884.13
500.78	2545.63
500.98	4468.67
501.18	5742.50
501.38	6756.25
501.58	7061.40
501.78	6559.64
501.98	5414.83
502.18	4896.69
502.38	4431.80
502.58	4028.35
502.78	3913.67
502.98	3641.29
503.18	3540.94
503.38	3114.96
503.59	2805.72
503.79	2641.88
503.99	2500.57
504.19	2242.53
504.39	2295.77
504.59	2238.43
504.79	2107.36
504.99	2033.63
505.19	1892.32
505.39	1935.33
505.59	1918.95
505.79	1933.28
505.99	1810.40
506.19	1771.49
506.39	1902.56
506.59	1748.97
506.79	1732.58
506.99	1865.70
507.19	1822.69
507.39	1777.64
507.59	1607.66
507.79	1703.91
507.99	1679.33
508.19	1763.30
508.39	1722.34
508.59	1746.92
508.79	1818.60
508.99	1734.63
509.19	1714.15
509.39	1781.73
509.59	1732.58
509.79	1677.29
509.99	1716.20
510.19	1769.44
510.39	1785.83
510.59	1791.97
510.79	1632.23
510.99	1662.95
511.19	1708.01
511.39	1845.22
511.59	1880.04
511.79	1857.51
511.99	1763.30
512.19	1759.21
512.38	1650.66
512.58	1662.95
512.78	1730.53
512.98	1767.40
513.18	1787.88
513.38	1658.85
513.58	1798.12
513.78	1742.82
513.98	1755.11
514.18	1689.57
514.38	1753.06
514.58	1724.39
514.78	1695.72
514.98	1665.00
515.18	1673.19
515.38	1679.33
515.58	1824.74
515.78	1769.44
515.98	1738.73
516.18	1773.54
516.38	1724.39
516.57	1673.19
516.77	1701.86
516.97	1773.54
517.17	1607.66
517.37	1636.33
517.57	1785.83
517.77	1722.34
517.97	1773.54
518.17	1687.53
518.37	1744.87
518.57	1671.14
518.77	1738.73
518.97	1714.15
519.16	1730.53
519.36	1802.21
519.56	1726.44
519.76	1763.30
519.96	1767.40
520.16	1816.55
520.36	1656.81
520.56	1800.16
520.76	1640.42
520.96	1689.57
521.16	1822.69
521.35	1787.88
521.55	1828.84
521.75	1701.86
521.95	1722.34
522.15	1718.25
522.35	1716.20
522.55	1728.49
522.75	1673.19
522.95	1708.01
523.14	1665.00
523.34	1699.81
523.54	1759.21
523.74	1738.73
523.94	1675.24
524.14	1677.29
524.34	1740.77
524.54	1882.08
524.73	1783.78
524.93	1671.14
525.13	1724.39
525.33	1652.71
525.53	1849.32
525.73	1812.45
525.93	1703.91
526.13	1687.53
526.32	1732.58
526.52	1785.83
526.72	1753.06
526.92	1718.25
527.12	1667.05
527.32	1675.24
527.52	1697.77
527.71	1763.30
527.91	1716.20
528.11	1667.05
528.31	1699.81
528.51	1732.58
528.71	1744.87
528.90	1791.97
529.10	1753.06
529.30	1869.80
529.50	1603.56
529.70	1791.97
529.90	1703.91
530.09	1740.77
530.29	1665.00
530.49	1638.38
530.69	1912.80
530.89	1746.92
531.09	1765.35
531.28	1626.09
531.48	1845.22
531.68	1742.82
531.88	1732.58
532.08	1791.97
532.28	1691.62
532.47	1781.73
532.67	1769.44
532.87	1712.10
533.07	1724.39
533.27	1783.78
533.46	1736.68
533.66	1751.01
533.86	1753.06
534.06	1828.84
534.26	1738.73
534.45	1705.96
534.65	1767.40
534.85	1748.97
535.05	1798.12
535.25	1763.30
535.44	1646.57
535.64	1777.64
535.84	1734.63
536.04	1638.38
536.24	1691.62
536.43	1738.73
536.63	1765.35
536.83	1779.68
537.03	1714.15
537.22	1583.08
537.42	1660.90
537.62	1767.40
537.82	1697.77
538.02	1773.54
538.21	1816.55
538.41	1974.24
538.61	1753.06
538.81	1736.68
539.00	1820.64
539.20	1652.71
539.40	1689.57
539.60	1845.22
539.79	1779.68
539.99	1656.81
540.19	1710.05
540.39	1806.31
540.58	1769.44
540.78	1779.68
540.98	1648.61
541.18	1855.46
541.37	1796.07
541.57	1769.44
541.77	1714.15
541.97	1740.77
542.16	1656.81
542.36	1646.57
542.56	1734.63
542.76	1826.79
542.95	1791.97
543.15	1808.36
543.35	1769.44
543.54	1703.91
543.74	1697.77
543.94	1830.88
544.14	1757.16
544.33	1859.56
544.53	1691.62
544.73	1708.01
544.93	1734.63
545.12	1683.43
545.32	1689.57
545.52	1746.92
545.71	1701.86
545.91	1810.40
546.11	1705.96
546.30	1683.43
546.50	1759.21
546.70	1812.45
546.90	1789.92
547.09	1699.81
547.29	1767.40
547.49	1859.56
547.68	1744.87
547.88	1697.77
548.08	1660.90
548.27	2142.18
548.47	1656.81
548.67	1683.43
548.87	1726.44
549.06	1718.25
549.26	1761.25
549.46	1720.29
549.65	1751.01
549.85	1695.72
550.05	1757.16
550.24	1662.95
550.44	1726.44
550.64	1734.63
550.83	1718.25
551.03	1771.49
551.23	1761.25
551.42	1806.31
551.62	1697.77
551.82	1722.34
552.01	1783.78
552.21	1781.73
552.41	1708.01
552.60	1812.45
552.80	1765.35
553.00	1693.67
553.19	1667.05
553.39	1810.40
553.59	1628.14
553.78	1773.54
553.98	1685.48
554.17	1656.81
554.37	1701.86
554.57	1789.92
554.76	1703.91
554.96	1697.77
555.16	1697.77
555.35	1740.77
555.55	1755.11
555.75	1775.59
555.94	1791.97
556.14	1609.70
556.33	1810.40
556.53	1710.05
556.73	1816.55
556.92	1767.40
557.12	1867.75
557.32	1826.79
557.51	1718.25
557.71	1877.99
557.90	1785.83
558.10	1861.60
558.30	1677.29
558.49	1699.81
558.69	1693.67
558.88	1699.81
559.08	1710.05
559.28	1708.01
559.47	1806.31
559.67	1746.92
559.86	1869.80
560.06	1724.39
560.26	1687.53
560.45	1816.55
560.65	1740.77
560.84	1824.74
561.04	1646.57
561.24	1753.06
561.43	1658.85
561.63	1812.45
561.82	1701.86
562.02	1714.15
562.22	1722.34
562.41	1660.90
562.61	1714.15
562.80	1687.53
563.00	1857.51
563.19	1710.05
563.39	1781.73
563.59	1716.20
563.78	1757.16
563.98	1650.66
564.17	1740.77
564.37	1662.95
564.56	1773.54
564.76	1667.05
564.96	1910.75
565.15	1714.15
565.35	1822.69
565.54	1812.45
565.74	1763.30
565.93	1755.11
566.13	1742.82
566.32	1722.34
566.52	1794.02
566.71	1736.68
566.91	1808.36
567.11	1751.01
567.30	1701.86
567.50	1714.15
567.69	1744.87
567.89	1722.34
568.08	1701.86
568.28	1701.86
568.47	1697.77
568.67	1820.64
568.86	1759.21
569.06	1728.49
569.25	1697.77
569.45	1681.38
569.64	1691.62
569.84	1771.49
570.04	1742.82
570.23	1695.72
570.43	1708.01
570.62	1734.63
570.82	1787.88
571.01	1759.21
571.21	1679.33
571.40	1681.38
571.60	1787.88
571.79	1726.44
571.99	1748.97
572.18	1679.33
572.38	1642.47
572.57	1722.34
572.77	1791.97
572.96	1873.89
573.16	1789.92
573.35	1650.66
573.55	1888.23
573.74	1763.30
573.94	1808.36
574.13	1722.34
574.33	1767.40
574.52	1761.25
574.71	1732.58
574.91	1830.88
575.10	1642.47
575.30	1738.73
575.49	1726.44
575.69	1744.87
575.88	1814.50
576.08	1732.58
576.27	1757.16
576.47	1744.87
576.66	1857.51
576.86	1906.66
577.05	1748.97
577.25	1746.92
577.44	1910.75
577.64	1781.73
577.83	1853.41
578.02	1734.63
578.22	1816.55
578.41	1849.32
578.61	1771.49
578.80	1697.77
579.00	1722.34
579.19	1722.34
579.39	1779.68
579.58	1800.16
579.77	1763.30
579.97	1796.07
580.16	1849.32
580.36	1791.97
580.55	1785.83
580.75	1689.57
580.94	1744.87
581.13	1845.22
581.33	1837.03
581.52	1753.06
581.72	1861.60
581.91	1853.41
582.11	1806.31
582.30	1714.15
582.49	1763.30
582.69	1789.92
582.88	1822.69
583.08	1763.30
583.27	1791.97
583.47	1812.45
583.66	1689.57
583.85	1734.63
584.05	1777.64
584.24	1787.88
584.44	1755.11
584.63	1744.87
584.82	1828.84
585.02	1820.64
585.21	1751.01
585.41	1882.08
585.60	1834.98
585.79	1890.28
585.99	1902.56
586.18	1843.17
586.37	2176.99
586.57	3362.76
586.76	9920.36
586.96	24442.51
587.15	34790.89
587.34	40156.57
587.54	41997.70
587.73	36482.52
587.93	26189.42
588.12	21632.69
588.31	18204.39
588.51	16084.75
588.70	15023.90
588.89	14092.07
589.09	12603.20
589.28	11030.36
589.47	9293.68
589.67	7989.13
589.86	6342.56
590.06	4949.94
590.25	3921.86
590.44	3135.44
590.64	2654.17
590.83	2258.91
591.02	2062.30
591.22	1896.42
591.41	1925.09
591.60	1767.40
591.80	1918.95
591.99	1820.64
592.18	1755.11
592.38	1783.78
592.57	1777.64
592.76	1722.34
592.96	1800.16
593.15	1812.45
593.34	1847.27
593.54	1734.63
593.73	1804.26
593.92	1744.87
594.12	1726.44
594.31	1738.73
594.50	1748.97
594.70	1744.87
594.89	1888.23
595.08	1673.19
595.28	1755.11
595.47	1925.09
595.66	1783.78
595.86	1601.51
596.05	1677.29
596.24	1779.68
596.43	1814.50
596.63	1755.11
596.82	1714.15
597.01	1730.53
597.21	1818.60
597.40	1724.39
597.59	1740.77
597.79	1662.95
597.98	1722.34
598.17	1736.68
598.36	1773.54
598.56	1761.25
598.75	1636.33
598.94	1767.40
599.14	1824.74
599.33	1736.68
599.52	1804.26
599.71	1726.44
599.91	1794.02
600.10	1789.92
600.29	1722.34
600.48	1867.75
600.68	1851.36
600.87	1710.05
601.06	1744.87
601.26	1689.57
601.45	1716.20
601.64	1736.68
601.83	1820.64
602.03	1701.86
602.22	1714.15
602.41	1755.11
602.60	1783.78
602.80	1824.74
602.99	1734.63
603.18	1732.58
603.37	1705.96
603.57	1720.29
603.76	1783.78
603.95	1789.92
604.14	1673.19
604.34	1710.05
604.53	1804.26
604.72	1732.58
604.91	1683.43
605.10	1789.92
605.30	1679.33
605.49	1820.64
605.68	1830.88
605.87	1697.77
606.07	1685.48
606.26	1644.52
606.45	1861.60
606.64	1665.00
606.84	1671.14
607.03	1697.77
607.22	1763.30
607.41	1669.09
607.60	1607.66
607.80	1804.26
607.99	1662.95
608.18	1636.33
608.37	1804.26
608.56	1638.38
608.76	1787.88
608.95	1826.79
609.14	1738.73
609.33	1730.53
609.52	1718.25
609.72	1683.43
609.91	1830.88
610.10	1683.43
610.29	1791.97
610.48	1822.69
610.68	1746.92
610.87	1660.90
611.06	1787.88
611.25	1722.34
611.44	1746.92
611.63	1722.34
611.83	1714.15
612.02	1667.05
612.21	1777.64
612.40	1658.85
612.59	1689.57
612.79	1722.34
612.98	1730.53
613.17	1812.45
613.36	1644.52
613.55	1804.26
613.74	1714.15
613.93	1665.00
614.13	1763.30
614.32	1732.58
614.51	1859.56
614.70	1751.01
614.89	1701.86
615.08	1781.73
615.28	2056.16
615.47	1665.00
615.66	1845.22
615.85	1734.63
616.04	1822.69
616.23	1724.39
616.42	1689.57
616.62	1703.91
616.81	1796.07
617.00	1710.05
617.19	1767.40
617.38	1669.09
617.57	1662.95
617.76	1634.28
617.95	1783.78
618.15	1791.97
618.34	1834.98
618.53	1648.61
618.72	1759.21
618.91	1789.92
619.10	1806.31
619.29	1726.44
619.48	1751.01
619.68	1660.90
619.87	1650.66
620.06	1660.90
620.25	1726.44
620.44	1728.49
620.63	1755.11
620.82	1714.15
621.01	1773.54
621.20	1722.34
621.39	1665.00
621.59	1736.68
621.78	1738.73
621.97	1720.29
622.16	1714.15
622.35	1777.64
622.54	1732.58
622.73	1796.07
622.92	1599.46
623.11	1724.39
623.30	1705.96
623.49	1689.57
623.68	1810.40
623.88	1787.88
624.07	1667.05
624.26	1632.23
624.45	1763.30
624.64	1646.57
624.83	1761.25
625.02	1734.63
625.21	1658.85
625.40	1753.06
625.59	1748.97
625.78	1736.68
625.97	1665.00
626.16	1812.45
626.35	1714.15
626.54	1720.29
626.74	1759.21
626.93	1648.61
627.12	1730.53
627.31	1779.68
627.50	1679.33
627.69	1777.64
627.88	1673.19
628.07	1652.71
628.26	1720.29
628.45	1669.09
628.64	1687.53
628.83	1814.50
629.02	1605.61
629.21	1753.06
629.40	1742.82
629.59	1683.43
629.78	1689.57
629.97	1697.77
630.16	1755.11
630.35	1687.53
630.54	1656.81
630.73	1685.48
630.92	1730.53
631.11	1695.72
631.30	1701.86
631.49	1755.11
631.68	1667.05
631.87	1789.92
632.06	1642.47
632.25	1853.41
632.44	1673.19
632.63	1769.44
632.82	1673.19
633.01	1730.53
633.20	1683.43
633.39	1593.32
633.58	1613.80
633.77	1660.90
633.96	1714.15
634.15	1726.44
634.34	1701.86
634.53	1714.15
634.72	1673.19
634.91	1595.37
635.10	1708.01
635.29	1791.97
635.48	1708.01
635.67	1712.10
635.86	1677.29
636.05	1767.40
636.24	1695.72
636.43	1796.07
636.62	1734.63
636.81	1597.42
637.00	1718.25
637.19	1787.88
637.38	1728.49
637.57	1632.23
637.76	1699.81
637.95	1753.06
638.14	1640.42
638.33	1642.47
638.52	1667.05
638.71	1742.82
638.89	1644.52
639.08	1892.32
639.27	1748.97
639.46	1701.86
639.65	1863.65
639.84	1742.82
640.03	1767.40
640.22	1677.29
640.41	1779.68
640.60	1667.05
640.79	1732.58
640.98	1714.15
641.17	1689.57
641.36	1720.29
641.55	1773.54
641.74	1632.23
641.92	1714.15
642.11	1628.14
642.30	1701.86
642.49	1658.85
642.68	1685.48
642.87	1662.95
643.06	1751.01
643.25	1673.19
643.44	1710.05
643.63	1759.21
643.82	1822.69
644.00	1624.04
644.19	1751.01
644.38	1619.94
644.57	1740.77
644.76	1658.85
644.95	1603.56
645.14	1748.97
645.33	1665.00
645.52	1636.33
645.71	1675.24
645.89	1603.56
646.08	1740.77
646.27	1703.91
646.46	1820.64
646.65	1601.51
646.84	1757.16
647.03	1693.67
647.22	1791.97
647.40	1753.06
647.59	1652.71
647.78	1558.50
647.97	1636.33
648.16	1626.09
648.35	1804.26
648.54	1808.36
648.73	1714.15
648.91	1826.79
649.10	1677.29
649.29	1636.33
649.48	1701.86
649.67	1720.29
649.86	1660.90
650.05	1642.47
650.23	1716.20
650.42	1642.47
650.61	1773.54
650.80	1742.82
650.99	1781.73
651.18	1777.64
651.36	1714.15
651.55	1621.99
651.74	1748.97
651.93	1753.06
652.12	1708.01
652.31	1814.50
652.49	1708.01
652.68	1785.83
652.87	1742.82
653.06	1615.85
653.25	1818.60
653.44	1632.23
653.62	1800.16
653.81	1669.09
654.00	1677.29
654.19	1779.68
654.38	1871.84
654.56	1742.82
654.75	1689.57
654.94	1738.73
655.13	1763.30
655.32	1730.53
655.51	1789.92
655.69	1662.95
655.88	1726.44
656.07	1693.67
656.26	1787.88
656.45	1699.81
656.63	1718.25
656.82	1806.31
657.01	1777.64
657.20	1779.68
657.38	1798.12
657.57	1669.09
657.76	1658.85
657.95	1744.87
658.14	1691.62
658.32	1710.05
658.51	1568.74
658.70	1687.53
658.89	1718.25
659.08	1744.87
659.26	1832.93
659.45	1710.05
659.64	1722.34
659.83	1705.96
660.01	1937.38
660.20	1710.05
660.39	1873.89
660.58	1548.26
660.76	1783.78
660.95	1636.33
661.14	1763.30
661.33	1642.47
661.51	1714.15
661.70	1673.19
661.89	1755.11
662.08	1755.11
662.26	1626.09
662.45	1624.04
662.64	1853.41
662.83	1740.77
663.01	1632.23
663.20	1703.91
663.39	1796.07
663.58	1646.57
663.76	1697.77
663.95	1753.06
664.14	1699.81
664.32	1734.63
664.51	1673.19
664.70	1644.52
664.89	1765.35
665.07	1658.85
665.26	1732.58
665.45	1687.53
665.64	1789.92
665.82	1689.57
666.01	1794.02
666.20	1624.04
666.38	1773.54
666.57	1849.32
666.76	2197.47
666.95	4532.15
667.13	10395.49
667.32	15204.12
667.51	17680.11
667.69	19134.17
667.88	17653.49
668.07	12382.02
668.25	9504.62
668.44	7964.55
668.63	7253.91
668.81	6862.74
669.00	6064.04
669.19	5756.84
669.38	5007.28
669.56	4505.53
669.75	4014.02
669.94	3516.36
670.12	2916.31
670.31	2539.48
670.50	2275.29
670.68	2127.84
670.87	1961.95
671.06	1802.21
671.24	1832.93
671.43	1890.28
671.62	1755.11
671.80	1714.15
671.99	1859.56
672.18	1648.61
672.36	1779.68
672.55	1742.82
672.74	1710.05
672.92	1736.68
673.11	1701.86
673.29	1720.29
673.48	1794.02
673.67	1624.04
673.85	1763.30
674.04	1667.05
674.23	1742.82
674.41	1822.69
674.60	1640.42
674.79	1638.38
674.97	1730.53
675.16	1789.92
675.34	1724.39
675.53	1650.66
675.72	1740.77
675.90	1845.22
676.09	1718.25
676.28	1734.63
676.46	1624.04
676.65	1718.25
676.83	1697.77
677.02	1832.93
677.21	1744.87
677.39	1753.06
677.58	1648.61
677.77	1656.81
677.95	1746.92
678.14	1679.33
678.32	1660.90
678.51	1648.61
678.70	1763.30
678.88	1685.48
679.07	1708.01
679.25	1712.10
679.44	1662.95
679.63	1601.51
679.81	1755.11
680.00	1798.12
680.18	1746.92
680.37	1742.82
680.55	1714.15
680.74	1615.85
680.93	1624.04
681.11	1746.92
681.30	1753.06
681.48	1710.05
681.67	1732.58
681.85	1726.44
682.04	1615.85
682.23	1775.59
682.41	1730.53
682.60	1744.87
682.78	1677.29
682.97	1689.57
683.15	1730.53
683.34	1724.39
683.53	1800.16
683.71	1654.76
683.90	1865.70
684.08	1806.31
684.27	1730.53
684.45	1683.43
684.64	1705.96
684.82	1703.91
685.01	1726.44
685.19	1740.77
685.38	1826.79
685.57	1673.19
685.75	1677.29
685.94	1720.29
686.12	1681.38
686.31	1683.43
686.49	1794.02
686.68	1660.90
686.86	1691.62
687.05	1695.72
687.23	1804.26
687.42	1632.23
687.60	1603.56
687.79	1648.61
687.97	1773.54
688.16	1787.88
688.34	1740.77
688.53	1671.14
688.71	1777.64
688.90	1671.14
689.08	1703.91
689.27	1624.04
689.45	1779.68
689.64	1753.06
689.82	1710.05
690.01	1742.82
690.19	1800.16
690.38	1701.86
690.56	1783.78
690.75	1644.52
690.93	1613.80
691.12	1611.75
691.30	1695.72
691.49	1689.57
691.67	1669.09
691.86	1822.69
692.04	1716.20
692.23	1669.09
692.41	1601.51
692.60	1822.69
692.78	1714.15
692.97	1644.52
693.15	1662.95
693.34	1863.65
693.52	1714.15
693.71	1675.24
693.89	1689.57
694.08	1656.81
694.26	1783.78
694.44	1730.53
694.63	1685.48
694.81	1697.77
695.00	1691.62
695.18	1722.34
695.37	1902.56
695.55	1740.77
695.74	1718.25
695.92	1677.29
696.10	1794.02
696.29	1615.85
696.47	1705.96
696.66	1621.99
696.84	1722.34
697.03	1761.25
697.21	1810.40
697.40	2197.47
697.58	1808.36
697.76	1673.19
697.95	1638.38
698.13	1654.76
698.32	1673.19
698.50	1730.53
698.68	1724.39
698.87	1779.68
699.05	1769.44
699.24	1714.15
699.42	1667.05
699.61	1738.73
699.79	1705.96
699.97	1748.97
700.16	1609.70
700.34	1677.29
700.53	1740.77
700.71	1775.59
700.89	1753.06
701.08	1683.43
701.26	1705.96
701.45	2099.17
701.63	1591.27
701.81	1708.01
702.00	1705.96
702.18	1685.48
702.37	1605.61
702.55	1654.76
702.73	1720.29
702.92	1665.00
703.10	1794.02
703.28	1765.35
703.47	1681.38
703.65	1787.88
703.84	1785.83
704.02	1607.66
704.20	1710.05
704.39	1761.25
704.57	1681.38
704.75	1757.16
704.94	1798.12
705.12	1642.47
705.30	1683.43
705.49	2297.82
705.67	4407.23
705.86	9297.78
706.04	12529.47
706.22	14538.53
706.41	15224.60
706.59	13950.76
706.77	9684.84
706.96	7368.59
707.14	6592.41
707.32	5851.05
707.51	5629.87
707.69	4978.61
707.87	4192.19
708.06	3651.53
708.24	3039.19
708.42	2490.33
708.61	2338.78
708.79	1955.81
708.97	1939.43
709.16	1822.69
709.34	1843.17
709.52	1687.53
709.71	1689.57
709.89	1742.82
710.07	1722.34
710.26	1705.96
710.44	1705.96
710.62	1789.92
710.80	1804.26
710.99	1716.20
711.17	1701.86
711.35	1708.01
711.54	1667.05
711.72	1728.49
711.90	1712.10
712.09	1701.86
712.27	1617.90
712.45	1701.86
712.63	1683.43
712.82	1615.85
713.00	1695.72
713.18	1699.81
713.37	1759.21
713.55	1679.33
713.73	1738.73
713.91	1751.01
714.10	1683.43
714.28	1669.09
714.46	1775.59
714.65	1722.34
714.83	1736.68
715.01	1708.01
715.19	1687.53
715.38	1626.09
715.56	1710.05
715.74	1681.38
715.92	1656.81
716.11	1746.92
716.29	1652.71
716.47	1687.53
716.65	1667.05
716.84	1566.70
717.02	1644.52
717.20	1628.14
717.38	1642.47
717.57	1699.81
717.75	1746.92
717.93	1677.29
718.11	1726.44
718.30	1718.25
718.48	1691.62
718.66	1722.34
718.84	1746.92
719.03	1671.14
719.21	1685.48
719.39	1789.92
719.57	1755.11
719.75	1810.40
719.94	1650.66
720.12	1679.33
720.30	1656.81
720.48	1800.16
720.67	1710.05
720.85	1671.14
721.03	1640.42
721.21	1601.51
721.39	1751.01
721.58	1714.15
721.76	1732.58
721.94	1757.16
722.12	1660.90
722.30	1802.21
722.49	1632.23
722.67	1675.24
722.85	1732.58
723.03	1703.91
723.21	1675.24
723.40	1726.44
723.58	1763.30
723.76	1660.90
723.94	1716.20
724.12	1728.49
724.30	1779.68
724.49	1730.53
724.67	1691.62
724.85	1771.49
725.03	1628.14
725.21	1667.05
725.40	1742.82
725.58	1675.24
725.76	1769.44
725.94	1734.63
726.12	1628.14
726.30	1648.61
726.49	1730.53
726.67	1681.38
726.85	1769.44
727.03	1826.79
727.21	2150.37
727.39	2797.53
727.57	3770.31
727.76	4317.12
727.94	4349.89
728.12	4376.51
728.30	3715.02
728.48	2947.03
728.66	2805.72
728.84	2486.23
729.03	2314.20
729.21	2140.13
729.39	1978.34
729.57	1857.51
729.75	1746.92
729.93	1847.27
730.11	1732.58
730.30	1687.53
730.48	1738.73
730.66	1791.97
730.84	1744.87
731.02	1667.05
731.20	1683.43
731.38	1669.09
731.56	1720.29
731.74	1722.34
731.93	1710.05
732.11	1699.81
732.29	1673.19
732.47	1744.87
732.65	1746.92
732.83	1785.83
733.01	1693.67
733.19	1785.83
733.37	1773.54
733.56	1722.34
733.74	1636.33
733.92	1763.30
734.10	1656.81
734.28	1718.25
734.46	1591.27
734.64	1693.67
734.82	1628.14
735.00	1703.91
735.18	1691.62
735.36	1640.42
735.54	1726.44
735.73	1728.49
735.91	1796.07
736.09	1699.81
736.27	1693.67
736.45	1681.38
736.63	1644.52
736.81	1646.57
736.99	1730.53
737.17	1828.84
737.35	1726.44
737.53	1630.18
737.71	1710.05
737.89	1736.68
738.07	1673.19
738.25	1687.53
738.43	1638.38
738.61	1665.00
738.80	1689.57
738.98	1699.81
739.16	1679.33
739.34	1630.18
739.52	1810.40
739.70	1624.04
739.88	1777.64
740.06	1716.20
740.24	1652.71
740.42	1693.67
740.60	1581.03
740.78	1701.86
740.96	1644.52
741.14	1718.25
741.32	1722.34
741.50	1581.03
741.68	1910.75
741.86	1748.97
742.04	1583.08
742.22	1603.56
742.40	1746.92
742.58	1699.81
742.76	1656.81
742.94	1726.44
743.12	1615.85
743.30	1691.62
743.48	1753.06
743.66	1687.53
743.84	1705.96
744.02	1679.33
744.20	1640.42
744.38	1701.86
744.56	1703.91
744.74	1724.39
744.92	1798.12
745.10	1787.88
745.28	1804.26
745.46	1800.16
745.64	1701.86
745.82	1742.82
746.00	1753.06
746.18	1720.29
746.36	1624.04
746.54	1804.26
746.72	1763.30
746.90	1689.57
747.08	1796.07
747.26	1662.95
747.44	1804.26
747.62	1687.53
747.80	1703.91
747.98	1794.02
748.15	1652.71
748.33	1818.60
748.51	1697.77
748.69	1701.86
748.87	1687.53
749.05	1665.00
749.23	1720.29
749.41	1751.01
749.59	1777.64
749.77	1667.05
749.95	1734.63
750.13	1636.33
750.31	1722.34
750.49	1726.44
750.67	1708.01
750.85	1726.44
751.03	1683.43
751.20	1890.28
751.38	1730.53
751.56	1662.95
751.74	1708.01
751.92	1746.92
752.10	1681.38
752.28	1753.06
752.46	1677.29
752.64	1652.71
752.82	1759.21
753.00	1794.02
753.18	1720.29
753.35	1726.44
753.53	1669.09
753.71	1599.46
753.89	1722.34
754.07	1662.95
754.25	1744.87
754.43	1658.85
754.61	1562.60
754.79	1665.00
754.97	1695.72
755.14	1751.01
755.32	1701.86
755.50	1654.76
755.68	1695.72
755.86	1677.29
756.04	1665.00
756.22	1583.08
756.40	1677.29
756.57	1763.30
756.75	1724.39
756.93	1746.92
757.11	1695.72
757.29	1609.70
757.47	1607.66
757.65	1605.61
757.82	1626.09
758.00	1613.80
758.18	1662.95
758.36	1673.19
758.54	1779.68
758.72	1632.23
758.90	1740.77
759.07	1650.66
759.25	1636.33
759.43	1765.35
759.61	1591.27
759.79	2205.66
759.97	1773.54
760.15	1656.81
760.32	1665.00
760.50	1669.09
760.68	1714.15
760.86	1646.57
761.04	1746.92
761.22	1695.72
761.39	1728.49
761.57	1789.92
761.75	1718.25
761.93	1771.49
762.11	1714.15
762.28	1720.29
762.46	1638.38
762.64	1763.30
762.82	1640.42
763.00	1699.81
763.18	1785.83
763.35	1626.09
763.53	1800.16
763.71	1681.38
763.89	1773.54
764.07	1689.57
764.24	1691.62
764.42	1740.77
764.60	1660.90
764.78	1675.24
764.96	1802.21
765.13	1681.38
765.31	1652.71
765.49	1722.34
765.67	1638.38
765.84	1619.94
766.02	1656.81
766.20	1665.00
766.38	1640.42
766.56	1787.88
766.73	1701.86
766.91	1662.95
767.09	1761.25
767.27	1718.25
767.44	1658.85
767.62	1701.86
767.80	1763.30
767.98	1689.57
768.15	1634.28
768.33	1746.92
768.51	1771.49
768.69	1734.63
768.87	1730.53
769.04	1677.29
769.22	1816.55
769.40	1779.68
769.58	1861.60
769.75	1798.12
769.93	1765.35
770.11	1689.57
770.28	1675.24
770.46	1732.58
770.64	1720.29
770.82	1665.00
770.99	1671.14
771.17	1710.05
771.35	1630.18
771.53	1656.81
771.70	1701.86
771.88	1660.90
772.06	1746.92
772.23	1669.09
772.41	1652.71
772.59	1656.81
772.77	1607.66
772.94	1701.86
773.12	1742.82
773.30	1656.81
773.47	1730.53
773.65	1611.75
773.83	1820.64
774.01	1740.77
774.18	1671.14
774.36	1691.62
774.54	1650.66
774.71	1689.57
774.89	1660.90
775.07	1648.61
775.24	1777.64
775.42	1730.53
775.60	1857.51
775.78	1638.38
775.95	1605.61
776.13	1581.03
776.31	1644.52
776.48	1660.90
776.66	1781.73
776.84	1652.71
777.01	1689.57
777.19	1679.33
777.37	1617.90
777.54	1746.92
777.72	1802.21
777.90	1781.73
778.07	1726.44
778.25	1902.56
778.43	1775.59
778.60	1671.14
778.78	1773.54
778.96	1759.21
779.13	1609.70
779.31	1714.15
779.49	1714.15
779.66	1644.52
779.84	1720.29
780.01	1708.01
780.19	1634.28
780.37	1759.21
780.54	1794.02
780.72	1695.72
780.90	1679.33
781.07	1742.82
781.25	1665.00
781.43	1794.02
781.60	1685.48
781.78	1769.44
781.95	1748.97
782.13	1656.81
782.31	1722.34
782.48	1638.38
782.66	1626.09
782.83	1798.12
783.01	1728.49
783.19	1771.49
783.36	1691.62
783.54	1708.01
783.72	1806.31
783.89	1724.39
784.07	1697.77
784.24	1742.82
784.42	1771.49
784.60	1646.57
784.77	1605.61
784.95	1578.98
785.12	1716.20
785.30	1777.64
785.47	1675.24
785.65	1638.38
785.83	1697.77
786.00	1691.62
786.18	1712.10
786.35	1648.61
786.53	1683.43
786.71	1759.21
786.88	1738.73
787.06	1628.14
787.23	1658.85
787.41	1613.80
787.58	1667.05
787.76	1675.24
787.94	1806.31
788.11	1771.49
788.29	1665.00
788.46	1716.20
788.64	1665.00
788.81	1648.61
788.99	1636.33
789.16	1703.91
789.34	1671.14
789.52	1642.47
789.69	1654.76
789.87	1578.98
790.04	1660.90
790.22	1646.57
790.39	1787.88
790.57	1630.18
790.74	1734.63
790.92	1775.59
791.09	1652.71
791.27	1757.16
791.44	1808.36
791.62	1712.10
791.79	1804.26
791.97	1646.57
792.15	1828.84
792.32	1638.38
792.50	1791.97
792.67	1791.97
792.85	1771.49
793.02	1728.49
793.20	1624.04
793.37	1607.66
793.55	1636.33
793.72	1617.90
793.90	1761.25
794.07	1667.05
794.25	1548.26
794.42	1630.18
794.60	1658.85
794.77	1724.39
794.95	1730.53
795.12	1716.20
795.30	1734.63
795.47	1667.05
795.65	1839.08
795.82	1781.73
796.00	1701.86
796.17	1759.21
796.34	1687.53
796.52	1769.44
796.69	1791.97
796.87	1826.79
797.04	1712.10
797.22	1765.35
797.39	1789.92
797.57	1753.06
797.74	1671.14
797.92	1665.00
798.09	1632.23
798.27	1701.86
798.44	1765.35
798.62	1644.52
798.79	1638.38
798.96	1720.29
799.14	1769.44
799.31	1841.12
799.49	1673.19
799.66	1695.72
799.84	1697.77
800.01	1714.15
800.19	1714.15
800.36	1591.27
800.53	1689.57
800.71	1728.49
800.88	1816.55
801.06	1708.01
801.23	1624.04
801.41	1646.57
801.58	1626.09
801.75	1613.80
801.93	1714.15
802.10	1665.00
802.28	1681.38
802.45	1708.01
802.63	1736.68
802.80	1828.84
802.97	1699.81
803.15	1636.33
803.32	1660.90
803.50	1634.28
803.67	1648.61
803.84	1652.71
804.02	1710.05
804.19	1685.48
804.37	1593.32
804.54	1591.27
804.71	1697.77
804.89	1746.92
805.06	1705.96
805.24	1679.33
805.41	1630.18
805.58	1662.95
805.76	1808.36
805.93	1716.20
806.10	1775.59
806.28	1734.63
806.45	1675.24
806.63	1759.21
806.80	1689.57
806.97	1722.34
807.15	1652.71
807.32	1689.57
807.49	1656.81
807.67	1601.51
807.84	1654.76
808.01	1671.14
808.19	1910.75
808.36	1773.54
808.54	1673.19
808.71	1681.38
808.88	1722.34
809.06	1705.96
809.23	1755.11
809.40	1632.23
809.58	1742.82
809.75	1646.57
809.92	1695.72
810.10	1769.44
810.27	1685.48
810.44	1703.91
810.62	1763.30
810.79	1767.40
810.96	1687.53
811.14	1687.53
811.31	1722.34
811.48	1730.53
811.66	1644.52
811.83	1751.01
812.00	1705.96
812.18	1669.09
812.35	1855.46
812.52	1644.52
812.69	1677.29
812.87	1710.05
813.04	1665.00
813.21	1656.81
813.39	1658.85
813.56	1693.67
813.73	1738.73
813.91	1599.46
814.08	1656.81
814.25	1705.96
814.42	1652.71
814.60	1630.18
814.77	1642.47
814.94	1685.48
815.12	1728.49
815.29	1738.73
815.46	1640.42
815.63	1691.62
815.81	1675.24
815.98	1693.67
816.15	1691.62
816.33	1679.33
816.50	1593.32
816.67	1642.47
816.84	1642.47
817.02	1595.37
817.19	1708.01
817.36	1689.57
817.53	1753.06
817.71	1624.04
817.88	1730.53
818.05	1695.72
818.22	1652.71
818.40	1830.88
818.57	1597.42
818.74	1650.66
818.91	1712.10
819.09	1691.62
819.26	1783.78
819.43	1650.66
819.60	1667.05
819.78	1650.66
819.95	1808.36
820.12	1656.81
820.29	1820.64
820.47	1763.30
820.64	1660.90
820.81	1656.81
820.98	1593.32
821.15	1658.85
821.33	1779.68
821.50	1656.81
821.67	1740.77
821.84	1644.52
822.02	1773.54
822.19	1697.77
822.36	1705.96
822.53	1685.48
822.70	1640.42
822.88	1660.90
823.05	1820.64
823.22	1755.11
823.39	1705.96
823.56	1628.14
823.74	1820.64
823.91	1644.52
824.08	1671.14
824.25	1681.38
824.42	1740.77
824.60	1667.05
824.77	1761.25
824.94	1681.38
825.11	1779.68
825.28	1611.75
825.45	1673.19
825.63	1742.82
825.80	1658.85
825.97	1730.53
826.14	1646.57
826.31	1605.61
826.48	1742.82
826.66	1599.46
826.83	1632.23
827.00	1722.34
827.17	1677.29
827.34	1675.24
827.51	1665.00
827.69	1638.38
827.86	1607.66
828.03	1669.09
828.20	1652.71
828.37	1619.94
828.54	1716.20
828.71	1628.14
828.89	1798.12
829.06	1761.25
829.23	1722.34
829.40	1644.52
829.57	1656.81
829.74	1765.35
829.91	1673.19
830.09	1626.09
830.26	1734.63
830.43	1751.01
830.60	1636.33
830.77	1716.20
830.94	1765.35
831.11	1765.35
831.28	1642.47
831.46	1765.35
831.63	1576.94
831.80	1738.73
831.97	1722.34
832.14	1660.90
832.31	1689.57
832.48	1710.05
832.65	1751.01
832.82	1718.25
832.99	1755.11
833.17	1667.05
833.34	1837.03
833.51	1732.58
833.68	1644.52
833.85	1742.82
834.02	1648.61
834.19	1679.33
834.36	1609.70
834.53	1703.91
834.70	1791.97
834.87	1771.49
835.04	1636.33
835.22	1609.70
835.39	1708.01
835.56	1560.55
835.73	1650.66
835.90	1753.06
836.07	1673.19
836.24	1714.15
836.41	1689.57
836.58	1697.77
836.75	1728.49
836.92	1705.96
837.09	1699.81
837.26	1724.39
837.43	1732.58
837.60	1724.39
837.77	1691.62
837.94	1693.67
838.12	1705.96
838.29	1732.58
838.46	1632.23
838.63	1630.18
838.80	1708.01
838.97	1798.12
839.14	1748.97
839.31	1683.43
839.48	1730.53
839.65	1675.24
839.82	1712.10
839.99	1740.77
840.16	1697.77
840.33	1619.94
840.50	1699.81
840.67	1652.71
840.84	1525.74
841.01	1679.33
841.18	1648.61
841.35	1742.82
841.52	1730.53
841.69	1834.98
841.86	1689.57
842.03	1708.01
842.20	1771.49
842.37	1642.47
842.54	1730.53
842.71	1726.44
842.88	1603.56
843.05	1718.25
843.22	1675.24
843.39	1697.77
843.56	1681.38
843.73	1665.00
843.90	1701.86
844.07	1734.63
844.24	1763.30
844.41	1701.86
844.58	1675.24
844.75	1697.77
844.92	1703.91
845.09	1701.86
845.26	1648.61
845.43	1730.53
845.60	1738.73
845.77	1722.34
845.94	1662.95
846.10	1761.25
846.27	1619.94
846.44	1578.98
846.61	1689.57
846.78	1742.82
846.95	1697.77
847.12	1734.63
847.29	1679.33
847.46	1628.14
847.63	1806.31
847.80	1695.72
847.97	1628.14
848.14	1816.55
848.31	1687.53
848.48	1556.46
848.65	1722.34
848.82	1730.53
848.98	1822.69
849.15	1693.67
849.32	1765.35
849.49	1703.91
849.66	1697.77
849.83	1669.09
850.00	1570.79
850.17	1685.48
850.34	1673.19
850.51	1550.31
850.68	1654.76
850.85	1834.98
851.01	1757.16
851.18	1716.20
851.35	1705.96
851.52	1699.81
851.69	1777.64
851.86	1621.99
852.03	1654.76
852.20	1759.21
852.37	1779.68
852.53	1648.61
852.70	1757.16
852.87	1703.91
853.04	1779.68
853.21	1748.97
853.38	1679.33
853.55	1779.68
853.72	1822.69
853.89	1660.90
854.05	1628.14
854.22	1611.75
854.39	1658.85
854.56	1677.29
854.73	1746.92
854.90	1583.08
855.07	1705.96
855.23	1599.46
855.40	1695.72
855.57	1681.38
855.74	1617.90
855.91	1812.45
856.08	1572.84
856.25	1640.42
856.41	1697.77
856.58	1665.00
856.75	1710.05
856.92	1656.81
857.09	1728.49
857.26	1689.57
857.42	1675.24
857.59	1763.30
857.76	1685.48
857.93	1734.63
858.10	1697.77
858.27	1581.03
858.43	1671.14
858.60	1640.42
858.77	1585.13
858.94	1726.44
859.11	1703.91
859.27	1632.23
859.44	1726.44
859.61	1787.88
859.78	1753.06
859.95	1712.10
860.12	1597.42
860.28	1787.88
860.45	1839.08
860.62	1609.70
860.79	1718.25
860.95	1667.05
861.12	1656.81
861.29	1675.24
861.46	1658.85
861.63	1714.15
861.79	1667.05
861.96	1665.00
862.13	1607.66
862.30	1796.07
862.47	1656.81
862.63	1615.85
862.80	1753.06
862.97	1669.09
863.14	1691.62
863.30	1746.92
863.47	1611.75
863.64	1728.49
863.81	1767.40
863.97	1683.43
864.14	1654.76
864.31	1685.48
864.48	1834.98
864.65	1665.00
864.81	1687.53
864.98	1665.00
865.15	1746.92
865.32	1779.68
865.48	1734.63
865.65	1820.64
865.82	1691.62
865.98	1697.77
866.15	1789.92
866.32	1648.61
866.49	1691.62
866.65	1824.74
866.82	1615.85
866.99	1703.91
867.16	1619.94
867.32	1724.39
867.49	1656.81
867.66	1683.43
867.83	1669.09
867.99	1574.89
868.16	1681.38
868.33	1630.18
868.49	1697.77
868.66	1742.82
868.83	1724.39
868.99	1816.55
869.16	1771.49
869.33	1695.72
869.50	1740.77
869.66	1771.49
869.83	1636.33
870.00	1583.08
870.16	1746.92
870.33	1679.33
870.50	1705.96
870.66	1732.58
870.83	1748.97
871.00	1660.90
871.17	1761.25
871.33	1726.44
871.50	1650.66
871.67	1658.85
871.83	1728.49
872.00	1834.98
872.17	1673.19
872.33	1769.44
872.50	1718.25
872.67	1630.18
872.83	1722.34
873.00	1724.39
873.17	1724.39
873.33	1658.85
873.50	1734.63
873.67	1638.38
873.83	1642.47
874.00	1685.48
874.16	1714.15
874.33	1705.96
874.50	1599.46
874.66	1667.05
874.83	1769.44
875.00	1738.73
875.16	1710.05
875.33	1802.21
875.50	1576.94
875.66	1703.91
875.83	1734.63
875.99	1759.21
876.16	1685.48
876.33	1669.09
876.49	1722.34
876.66	1783.78
876.83	1691.62
876.99	1648.61
877.16	1705.96
877.32	1634.28
877.49	1587.18
877.66	1632.23
877.82	1783.78
877.99	1761.25
878.15	1753.06
878.32	1677.29
878.49	1738.73
878.65	1632.23
878.82	1742.82
878.98	1769.44
879.15	1728.49
879.32	1746.92
879.48	1720.29
879.65	1714.15
879.81	1599.46
879.98	1626.09
880.15	1681.38
880.31	1732.58
880.48	1634.28
880.64	1738.73
880.81	1748.97
880.97	1804.26
881.14	1648.61
881.31	1693.67
881.47	1804.26
881.64	1675.24
881.80	1652.71
881.97	1669.09
882.13	1705.96
882.30	1593.32
882.47	1662.95
882.63	1626.09
882.80	1669.09
882.96	1673.19
883.13	1728.49
883.29	1712.10
883.46	1806.31
883.62	1853.41
883.79	1687.53
883.95	1761.25
884.12	1656.81
884.29	1777.64
884.45	1718.25
884.62	1687.53
884.78	1640.42
884.95	1800.16
885.11	1636.33
885.28	1689.57
885.44	1640.42
885.61	1679.33
885.77	1753.06
885.94	1732.58
886.10	1648.61
886.27	1734.63
886.43	1679.33
886.60	1732.58
886.76	1685.48
886.93	1714.15
887.09	1724.39
887.26	1642.47
887.42	1683.43
887.59	1798.12
887.75	1894.37
887.92	1755.11
888.08	1755.11
888.25	1781.73
888.41	1714.15
888.58	1726.44
888.74	1771.49
888.91	1642.47
>>>>>End Processed Spectral Data<<<<<
