SpectraSuite Data File
++++++++++++++++++++++++++++++++++++
Date: Mon Jun 06 14:16:57 CEST 2016
User: root
Dark Spectrum Present: No
Reference Spectrum Present: No
Number of Sampled Component Spectra: 1
Spectrometers: USB4C02835
Integration Time (usec): 100000 (USB4C02835)
Spectra Averaged: 1 (USB4C02835)
Boxcar Smoothing: 0 (USB4C02835)
Correct for Electrical Dark: No (USB4C02835)
Strobe/Lamp Enabled: No (USB4C02835)
Correct for Detector Non-linearity: No (USB4C02835)
Correct for Stray Light: No (USB4C02835)
Number of Pixels in Processed Spectrum: 3648
>>>>>Begin Processed Spectral Data<<<<<
177.47	1490.92
177.69	1490.92
177.91	1490.92
178.13	1468.39
178.36	1423.34
178.58	1685.48
178.80	1673.19
179.02	1667.05
179.24	1595.37
179.46	1800.16
179.68	1794.02
179.90	1726.44
180.13	1710.05
180.35	1667.05
180.57	1660.90
180.79	1759.21
181.01	1699.81
181.23	1785.83
181.45	1771.49
181.67	1779.68
181.90	1849.32
182.12	1634.28
182.34	1669.09
182.56	1732.58
182.78	1720.29
183.00	1728.49
183.22	1738.73
183.44	1605.61
183.66	1847.27
183.89	1769.44
184.11	1681.38
184.33	1714.15
184.55	1740.77
184.77	1730.53
184.99	1728.49
185.21	1656.81
185.43	1781.73
185.65	1624.04
185.87	1730.53
186.10	1843.17
186.32	1853.41
186.54	1720.29
186.76	1730.53
186.98	1765.35
187.20	1652.71
187.42	1705.96
187.64	1712.10
187.86	1720.29
188.08	1783.78
188.30	1656.81
188.52	1757.16
188.75	1769.44
188.97	1751.01
189.19	1638.38
189.41	1689.57
189.63	1632.23
189.85	1652.71
190.07	1640.42
190.29	1595.37
190.51	1736.68
190.73	1689.57
190.95	1824.74
191.17	1734.63
191.39	1691.62
191.61	1648.61
191.84	1673.19
192.06	1796.07
192.28	1595.37
192.50	1865.70
192.72	1701.86
192.94	1708.01
193.16	1798.12
193.38	1681.38
193.60	1613.80
193.82	1638.38
194.04	1781.73
194.26	1634.28
194.48	1693.67
194.70	1742.82
194.92	1742.82
195.14	1705.96
195.36	1697.77
195.58	1798.12
195.80	1701.86
196.02	1636.33
196.24	1720.29
196.46	1771.49
196.69	1595.37
196.91	1859.56
197.13	1705.96
197.35	1619.94
197.57	1757.16
197.79	1708.01
198.01	1689.57
198.23	1677.29
198.45	1699.81
198.67	1624.04
198.89	1730.53
199.11	1806.31
199.33	1656.81
199.55	1589.22
199.77	1673.19
199.99	1734.63
200.21	1638.38
200.43	1720.29
200.65	1650.66
200.87	1603.56
201.09	1726.44
201.31	1714.15
201.53	1658.85
201.75	1730.53
201.97	1720.29
202.19	1677.29
202.41	1740.77
202.63	1779.68
202.85	1746.92
203.07	1683.43
203.29	1673.19
203.51	1595.37
203.73	1624.04
203.95	1832.93
204.17	1681.38
204.39	1734.63
204.61	1626.09
204.83	1654.76
205.05	1761.25
205.27	1775.59
205.49	1753.06
205.71	1734.63
205.93	1667.05
206.15	1634.28
206.37	1736.68
206.59	1599.46
206.81	1603.56
207.03	1646.57
207.25	1650.66
207.47	1740.77
207.69	1697.77
207.91	1755.11
208.13	1759.21
208.34	1697.77
208.56	1665.00
208.78	1650.66
209.00	1708.01
209.22	1697.77
209.44	1757.16
209.66	1679.33
209.88	1677.29
210.10	1640.42
210.32	1685.48
210.54	1755.11
210.76	1667.05
210.98	1773.54
211.20	1613.80
211.42	1685.48
211.64	1832.93
211.86	1695.72
212.08	1759.21
212.30	1755.11
212.52	1644.52
212.74	1828.84
212.96	1744.87
213.17	1730.53
213.39	1710.05
213.61	1783.78
213.83	1724.39
214.05	1601.51
214.27	1767.40
214.49	1656.81
214.71	1619.94
214.93	1728.49
215.15	1685.48
215.37	1779.68
215.59	1665.00
215.81	1689.57
216.03	1757.16
216.24	1669.09
216.46	1740.77
216.68	1806.31
216.90	1783.78
217.12	1761.25
217.34	1726.44
217.56	1728.49
217.78	1830.88
218.00	1783.78
218.22	1691.62
218.44	1742.82
218.66	1763.30
218.87	1775.59
219.09	1669.09
219.31	1656.81
219.53	1673.19
219.75	1648.61
219.97	1722.34
220.19	1724.39
220.41	1757.16
220.63	1740.77
220.85	1619.94
221.06	1673.19
221.28	1798.12
221.50	1775.59
221.72	1679.33
221.94	1714.15
222.16	1648.61
222.38	1787.88
222.60	1775.59
222.82	1626.09
223.03	1765.35
223.25	1691.62
223.47	1794.02
223.69	1841.12
223.91	1708.01
224.13	1677.29
224.35	1626.09
224.57	1755.11
224.78	1718.25
225.00	1644.52
225.22	1681.38
225.44	1783.78
225.66	1705.96
225.88	1724.39
226.10	1748.97
226.32	1804.26
226.53	1763.30
226.75	1734.63
226.97	1685.48
227.19	1660.90
227.41	1652.71
227.63	1718.25
227.85	1570.79
228.06	1687.53
228.28	1693.67
228.50	1779.68
228.72	1714.15
228.94	1730.53
229.16	1638.38
229.37	1562.60
229.59	1632.23
229.81	1800.16
230.03	1628.14
230.25	1626.09
230.47	1667.05
230.69	1630.18
230.90	1759.21
231.12	1650.66
231.34	1718.25
231.56	1742.82
231.78	1597.42
232.00	1667.05
232.21	1665.00
232.43	1722.34
232.65	1542.12
232.87	1773.54
233.09	1652.71
233.30	1628.14
233.52	1693.67
233.74	1693.67
233.96	1673.19
234.18	1665.00
234.40	1634.28
234.61	1802.21
234.83	1527.78
235.05	1640.42
235.27	1832.93
235.49	1767.40
235.70	1742.82
235.92	1832.93
236.14	1681.38
236.36	1783.78
236.58	1660.90
236.79	1730.53
237.01	1728.49
237.23	1712.10
237.45	1751.01
237.67	1665.00
237.88	1734.63
238.10	1896.42
238.32	1636.33
238.54	1636.33
238.76	1697.77
238.97	1658.85
239.19	1689.57
239.41	1708.01
239.63	1773.54
239.85	1734.63
240.06	1722.34
240.28	1720.29
240.50	1730.53
240.72	1705.96
240.93	1732.58
241.15	1736.68
241.37	1656.81
241.59	1787.88
241.81	1730.53
242.02	1724.39
242.24	1724.39
242.46	1738.73
242.68	1636.33
242.89	1759.21
243.11	1665.00
243.33	1681.38
243.55	1708.01
243.76	1748.97
243.98	1691.62
244.20	1615.85
244.42	1648.61
244.64	1683.43
244.85	1646.57
245.07	1681.38
245.29	1796.07
245.51	1726.44
245.72	1734.63
245.94	1765.35
246.16	1665.00
246.38	1718.25
246.59	1691.62
246.81	1587.18
247.03	1710.05
247.24	1591.27
247.46	1677.29
247.68	1746.92
247.90	1724.39
248.11	1640.42
248.33	1794.02
248.55	1644.52
248.77	1705.96
248.98	1763.30
249.20	1796.07
249.42	1660.90
249.64	1732.58
249.85	1722.34
250.07	1656.81
250.29	1742.82
250.50	1712.10
250.72	1589.22
250.94	1724.39
251.16	1832.93
251.37	1781.73
251.59	1798.12
251.81	1742.82
252.02	1818.60
252.24	1624.04
252.46	1728.49
252.68	1679.33
252.89	1632.23
253.11	1603.56
253.33	1886.18
253.54	1871.84
253.76	1687.53
253.98	1703.91
254.20	1673.19
254.41	1640.42
254.63	1681.38
254.85	1640.42
255.06	1681.38
255.28	1755.11
255.50	1685.48
255.71	1642.47
255.93	1675.24
256.15	1722.34
256.36	1714.15
256.58	1679.33
256.80	1720.29
257.02	1722.34
257.23	1585.13
257.45	1708.01
257.67	1791.97
257.88	1683.43
258.10	1691.62
258.32	1708.01
258.53	1720.29
258.75	1763.30
258.97	1662.95
259.18	1642.47
259.40	1714.15
259.62	1820.64
259.83	1828.84
260.05	1732.58
260.27	2045.92
260.48	1755.11
260.70	1654.76
260.92	1681.38
261.13	1761.25
261.35	1650.66
261.57	1740.77
261.78	1554.41
262.00	1665.00
262.22	1732.58
262.43	1581.03
262.65	1724.39
262.86	1730.53
263.08	1902.56
263.30	1665.00
263.51	1693.67
263.73	1710.05
263.95	1789.92
264.16	1697.77
264.38	1673.19
264.60	1757.16
264.81	1734.63
265.03	1746.92
265.25	1744.87
265.46	1636.33
265.68	1816.55
265.89	1730.53
266.11	1652.71
266.33	1646.57
266.54	1740.77
266.76	1687.53
266.98	1736.68
267.19	1744.87
267.41	1783.78
267.62	1710.05
267.84	1673.19
268.06	1738.73
268.27	1681.38
268.49	1826.79
268.70	1794.02
268.92	1726.44
269.14	1640.42
269.35	1611.75
269.57	1640.42
269.79	1738.73
270.00	1650.66
270.22	1861.60
270.43	1611.75
270.65	1550.31
270.87	1689.57
271.08	1722.34
271.30	1681.38
271.51	1695.72
271.73	1763.30
271.95	1796.07
272.16	1734.63
272.38	1740.77
272.59	1689.57
272.81	1777.64
273.02	1773.54
273.24	1697.77
273.46	1769.44
273.67	1646.57
273.89	1636.33
274.10	1646.57
274.32	1773.54
274.54	1775.59
274.75	1738.73
274.97	1685.48
275.18	1742.82
275.40	1705.96
275.61	1662.95
275.83	1677.29
276.05	1654.76
276.26	1701.86
276.48	1703.91
276.69	1648.61
276.91	1671.14
277.12	1742.82
277.34	1748.97
277.55	1763.30
277.77	1767.40
277.99	1689.57
278.20	1634.28
278.42	1617.90
278.63	1650.66
278.85	1665.00
279.06	1599.46
279.28	1746.92
279.49	1734.63
279.71	1718.25
279.93	1687.53
280.14	1691.62
280.36	1710.05
280.57	1701.86
280.79	1759.21
281.00	1677.29
281.22	1699.81
281.43	1689.57
281.65	1574.89
281.86	1658.85
282.08	1765.35
282.29	1871.84
282.51	1671.14
282.73	1628.14
282.94	1617.90
283.16	1734.63
283.37	1781.73
283.59	1683.43
283.80	1775.59
284.02	1654.76
284.23	1685.48
284.45	1642.47
284.66	1732.58
284.88	1791.97
285.09	1697.77
285.31	1767.40
285.52	1728.49
285.74	1595.37
285.95	1744.87
286.17	1748.97
286.38	1726.44
286.60	1703.91
286.81	1662.95
287.03	1710.05
287.24	1675.24
287.46	1681.38
287.67	1781.73
287.89	1765.35
288.10	1665.00
288.32	1751.01
288.53	1773.54
288.75	1722.34
288.96	1742.82
289.18	1734.63
289.39	1640.42
289.61	1708.01
289.82	1849.32
290.04	1839.08
290.25	1665.00
290.47	1699.81
290.68	1677.29
290.90	1726.44
291.11	1646.57
291.33	1730.53
291.54	1658.85
291.76	1593.32
291.97	1638.38
292.18	1789.92
292.40	1724.39
292.61	1617.90
292.83	1875.94
293.04	1728.49
293.26	1665.00
293.47	1726.44
293.69	1624.04
293.90	1693.67
294.12	1759.21
294.33	1683.43
294.55	1665.00
294.76	1783.78
294.97	1800.16
295.19	1832.93
295.40	1658.85
295.62	1742.82
295.83	1794.02
296.05	1654.76
296.26	1826.79
296.48	1669.09
296.69	1689.57
296.90	1667.05
297.12	1732.58
297.33	1769.44
297.55	1701.86
297.76	1734.63
297.98	1738.73
298.19	1656.81
298.41	1652.71
298.62	1624.04
298.83	1705.96
299.05	1628.14
299.26	1648.61
299.48	1691.62
299.69	1769.44
299.90	1708.01
300.12	1628.14
300.33	1710.05
300.55	1699.81
300.76	1703.91
300.98	1581.03
301.19	1771.49
301.40	1728.49
301.62	1751.01
301.83	1710.05
302.05	1648.61
302.26	1742.82
302.47	1689.57
302.69	1619.94
302.90	1656.81
303.12	1619.94
303.33	1757.16
303.54	1830.88
303.76	1648.61
303.97	1765.35
304.19	1791.97
304.40	1673.19
304.61	1773.54
304.83	1839.08
305.04	1771.49
305.26	1775.59
305.47	1656.81
305.68	1685.48
305.90	1617.90
306.11	1771.49
306.33	1722.34
306.54	1742.82
306.75	1665.00
306.97	1660.90
307.18	1720.29
307.39	1685.48
307.61	1714.15
307.82	1751.01
308.04	1734.63
308.25	1771.49
308.46	1687.53
308.68	1669.09
308.89	1710.05
309.10	1767.40
309.32	1728.49
309.53	1646.57
309.74	1818.60
309.96	1648.61
310.17	1765.35
310.39	1626.09
310.60	1753.06
310.81	1757.16
311.03	1644.52
311.24	1751.01
311.45	1720.29
311.67	1841.12
311.88	1779.68
312.09	1738.73
312.31	1677.29
312.52	1716.20
312.73	1708.01
312.95	1652.71
313.16	1665.00
313.37	1832.93
313.59	1685.48
313.80	1757.16
314.01	1769.44
314.23	1665.00
314.44	1638.38
314.65	1605.61
314.87	1673.19
315.08	1716.20
315.29	1701.86
315.51	1621.99
315.72	1681.38
315.93	1775.59
316.15	1722.34
316.36	1746.92
316.57	1685.48
316.79	1751.01
317.00	1632.23
317.21	1701.86
317.43	1652.71
317.64	1695.72
317.85	1687.53
318.07	1609.70
318.28	1738.73
318.49	1849.32
318.70	1920.99
318.92	1886.18
319.13	1830.88
319.34	1738.73
319.56	1822.69
319.77	1804.26
319.98	1746.92
320.20	1783.78
320.41	1714.15
320.62	1677.29
320.83	1683.43
321.05	1796.07
321.26	1689.57
321.47	1671.14
321.69	1710.05
321.90	1681.38
322.11	1796.07
322.32	1724.39
322.54	1785.83
322.75	1716.20
322.96	1785.83
323.18	1720.29
323.39	1525.74
323.60	1673.19
323.81	1753.06
324.03	1673.19
324.24	1650.66
324.45	1685.48
324.66	1751.01
324.88	1708.01
325.09	1773.54
325.30	1738.73
325.52	1736.68
325.73	1673.19
325.94	1642.47
326.15	1613.80
326.37	1636.33
326.58	1808.36
326.79	1751.01
327.00	1667.05
327.22	1738.73
327.43	1654.76
327.64	1703.91
327.85	1722.34
328.07	1740.77
328.28	1853.41
328.49	1732.58
328.70	1697.77
328.92	1759.21
329.13	1734.63
329.34	1722.34
329.55	1818.60
329.76	1722.34
329.98	1755.11
330.19	1759.21
330.40	1755.11
330.61	1720.29
330.83	1791.97
331.04	1644.52
331.25	1689.57
331.46	1673.19
331.68	1652.71
331.89	1779.68
332.10	1681.38
332.31	1570.79
332.52	1654.76
332.74	1683.43
332.95	1621.99
333.16	1703.91
333.37	1742.82
333.58	1757.16
333.80	1695.72
334.01	1640.42
334.22	1656.81
334.43	1681.38
334.64	1671.14
334.86	1628.14
335.07	1613.80
335.28	1771.49
335.49	1632.23
335.70	1787.88
335.92	1757.16
336.13	1853.41
336.34	1675.24
336.55	1691.62
336.76	1718.25
336.98	1615.85
337.19	1689.57
337.40	1724.39
337.61	1808.36
337.82	1638.38
338.04	1798.12
338.25	1562.60
338.46	1714.15
338.67	1716.20
338.88	1697.77
339.09	1607.66
339.31	1621.99
339.52	1628.14
339.73	1662.95
339.94	1736.68
340.15	1773.54
340.36	1689.57
340.58	1695.72
340.79	1691.62
341.00	1697.77
341.21	1656.81
341.42	1771.49
341.63	1679.33
341.85	1755.11
342.06	1708.01
342.27	1671.14
342.48	1771.49
342.69	1564.65
342.90	1759.21
343.12	1693.67
343.33	1632.23
343.54	1728.49
343.75	1822.69
343.96	1650.66
344.17	1675.24
344.38	1689.57
344.60	1648.61
344.81	1648.61
345.02	1771.49
345.23	1808.36
345.44	1771.49
345.65	1783.78
345.86	1824.74
346.07	1648.61
346.29	1615.85
346.50	1697.77
346.71	1742.82
346.92	1755.11
347.13	1828.84
347.34	1683.43
347.55	1708.01
347.76	1744.87
347.98	1562.60
348.19	1693.67
348.40	1769.44
348.61	1630.18
348.82	1783.78
349.03	1714.15
349.24	1673.19
349.45	1765.35
349.66	1576.94
349.88	1701.86
350.09	1718.25
350.30	1736.68
350.51	1867.75
350.72	1681.38
350.93	1744.87
351.14	1621.99
351.35	1771.49
351.56	1652.71
351.77	1722.34
351.99	1779.68
352.20	1781.73
352.41	1802.21
352.62	1642.47
352.83	1650.66
353.04	1675.24
353.25	1689.57
353.46	1755.11
353.67	1712.10
353.88	1591.27
354.09	1685.48
354.30	1742.82
354.52	1738.73
354.73	1742.82
354.94	1681.38
355.15	1775.59
355.36	1705.96
355.57	1677.29
355.78	1798.12
355.99	1615.85
356.20	1718.25
356.41	1753.06
356.62	1732.58
356.83	1697.77
357.04	1785.83
357.25	1658.85
357.46	1683.43
357.68	1632.23
357.89	1632.23
358.10	1740.77
358.31	1705.96
358.52	1658.85
358.73	1642.47
358.94	1652.71
359.15	1761.25
359.36	1777.64
359.57	1714.15
359.78	1673.19
359.99	1697.77
360.20	1626.09
360.41	1701.86
360.62	1755.11
360.83	1755.11
361.04	1626.09
361.25	1660.90
361.46	1728.49
361.67	1718.25
361.88	1845.22
362.09	1685.48
362.30	1714.15
362.51	1665.00
362.72	1732.58
362.93	1859.56
363.14	1701.86
363.35	1744.87
363.56	1687.53
363.78	1751.01
363.99	1773.54
364.20	1755.11
364.41	1685.48
364.62	1816.55
364.83	1738.73
365.04	1665.00
365.25	1687.53
365.46	1828.84
365.67	1611.75
365.88	1644.52
366.09	1601.51
366.30	1695.72
366.51	1697.77
366.72	1701.86
366.93	1689.57
367.14	1673.19
367.35	1834.98
367.56	1689.57
367.77	1810.40
367.98	1656.81
368.18	1697.77
368.39	1679.33
368.60	1652.71
368.81	1734.63
369.02	1652.71
369.23	1708.01
369.44	1583.08
369.65	1703.91
369.86	1718.25
370.07	1689.57
370.28	1669.09
370.49	1710.05
370.70	1705.96
370.91	1656.81
371.12	1708.01
371.33	1796.07
371.54	1718.25
371.75	1800.16
371.96	1570.79
372.17	1679.33
372.38	1736.68
372.59	1697.77
372.80	1640.42
373.01	1718.25
373.22	1779.68
373.43	1753.06
373.64	1615.85
373.85	1720.29
374.06	1794.02
374.26	1791.97
374.47	1673.19
374.68	1763.30
374.89	1753.06
375.10	1710.05
375.31	1757.16
375.52	1708.01
375.73	1691.62
375.94	1675.24
376.15	1830.88
376.36	1714.15
376.57	1699.81
376.78	1705.96
376.99	1742.82
377.20	1783.78
377.40	1681.38
377.61	1886.18
377.82	1695.72
378.03	1777.64
378.24	1771.49
378.45	1773.54
378.66	1738.73
378.87	1634.28
379.08	1570.79
379.29	1705.96
379.50	1779.68
379.71	1724.39
379.91	1738.73
380.12	1695.72
380.33	1722.34
380.54	1693.67
380.75	1738.73
380.96	1712.10
381.17	1757.16
381.38	1728.49
381.59	1757.16
381.80	1689.57
382.00	1755.11
382.21	1667.05
382.42	1834.98
382.63	1837.03
382.84	1802.21
383.05	1714.15
383.26	1759.21
383.47	1722.34
383.68	1705.96
383.88	1826.79
384.09	1718.25
384.30	1857.51
384.51	1710.05
384.72	1648.61
384.93	1665.00
385.14	1689.57
385.35	1689.57
385.55	1656.81
385.76	1794.02
385.97	1660.90
386.18	1624.04
386.39	1673.19
386.60	1660.90
386.81	1669.09
387.02	1615.85
387.22	1687.53
387.43	1738.73
387.64	1804.26
387.85	1853.41
388.06	2211.81
388.27	4327.36
388.48	6956.95
388.68	8419.20
388.89	9799.53
389.10	9846.63
389.31	8707.96
389.52	7763.85
389.73	6786.97
389.93	6311.84
390.14	5994.40
390.35	5154.74
390.56	4642.75
390.77	3876.80
390.98	3119.06
391.18	2582.49
391.39	2066.40
391.60	1873.89
391.81	1824.74
392.02	1728.49
392.23	1884.13
392.43	1714.15
392.64	1828.84
392.85	1714.15
393.06	1775.59
393.27	1736.68
393.47	1628.14
393.68	1703.91
393.89	1738.73
394.10	1794.02
394.31	1669.09
394.52	1636.33
394.72	1630.18
394.93	1783.78
395.14	1656.81
395.35	1761.25
395.56	1617.90
395.76	1677.29
395.97	1777.64
396.18	1839.08
396.39	1890.28
396.60	1933.28
396.80	1908.71
397.01	1857.51
397.22	1716.20
397.43	1886.18
397.64	1796.07
397.84	1828.84
398.05	1849.32
398.26	1732.58
398.47	1697.77
398.67	1771.49
398.88	1703.91
399.09	1824.74
399.30	1691.62
399.51	1720.29
399.71	1642.47
399.92	1695.72
400.13	1763.30
400.34	1660.90
400.54	1759.21
400.75	1804.26
400.96	1708.01
401.17	1753.06
401.37	1777.64
401.58	1748.97
401.79	1740.77
402.00	1861.60
402.21	2035.68
402.41	1951.71
402.62	1972.19
402.83	2004.96
403.04	2015.20
403.24	2009.06
403.45	1826.79
403.66	1861.60
403.87	1912.80
404.07	1927.14
404.28	1914.85
404.49	1810.40
404.70	1761.25
404.90	1767.40
405.11	1738.73
405.32	1740.77
405.52	1656.81
405.73	1712.10
405.94	1677.29
406.15	1812.45
406.35	1806.31
406.56	1761.25
406.77	1701.86
406.98	1740.77
407.18	1628.14
407.39	1757.16
407.60	1656.81
407.80	1712.10
408.01	1751.01
408.22	1736.68
408.43	1667.05
408.63	1658.85
408.84	1734.63
409.05	1683.43
409.25	1619.94
409.46	1593.32
409.67	1720.29
409.88	1681.38
410.08	1724.39
410.29	1681.38
410.50	1695.72
410.70	1763.30
410.91	1601.51
411.12	1722.34
411.32	1712.10
411.53	1736.68
411.74	1714.15
411.95	1763.30
412.15	1738.73
412.36	1798.12
412.57	1736.68
412.77	1820.64
412.98	1685.48
413.19	1742.82
413.39	1722.34
413.60	1777.64
413.81	1800.16
414.01	1652.71
414.22	1755.11
414.43	1759.21
414.63	1673.19
414.84	1787.88
415.05	1746.92
415.25	1632.23
415.46	1720.29
415.67	1697.77
415.87	1708.01
416.08	1689.57
416.29	1714.15
416.49	1705.96
416.70	1671.14
416.91	1665.00
417.11	1724.39
417.32	1697.77
417.53	1683.43
417.73	1757.16
417.94	1730.53
418.15	1718.25
418.35	1746.92
418.56	1705.96
418.77	1822.69
418.97	1712.10
419.18	1697.77
419.38	1632.23
419.59	1652.71
419.80	1798.12
420.00	1669.09
420.21	1712.10
420.42	1744.87
420.62	1687.53
420.83	1656.81
421.04	1681.38
421.24	1699.81
421.45	1837.03
421.65	1740.77
421.86	1712.10
422.07	1746.92
422.27	1677.29
422.48	1669.09
422.69	1671.14
422.89	1699.81
423.10	1726.44
423.30	1665.00
423.51	1701.86
423.72	1791.97
423.92	1800.16
424.13	1621.99
424.33	1652.71
424.54	1818.60
424.75	1677.29
424.95	1816.55
425.16	1732.58
425.36	1722.34
425.57	1818.60
425.78	1755.11
425.98	1740.77
426.19	1677.29
426.39	1624.04
426.60	1781.73
426.81	1847.27
427.01	1675.24
427.22	1636.33
427.42	1656.81
427.63	1652.71
427.83	1703.91
428.04	1851.36
428.25	1791.97
428.45	1732.58
428.66	1787.88
428.86	1665.00
429.07	1726.44
429.28	1673.19
429.48	1728.49
429.69	1687.53
429.89	1783.78
430.10	1697.77
430.30	1703.91
430.51	1775.59
430.71	1632.23
430.92	1681.38
431.13	1701.86
431.33	1785.83
431.54	1732.58
431.74	1843.17
431.95	1779.68
432.15	1693.67
432.36	1697.77
432.56	1771.49
432.77	1857.51
432.98	1738.73
433.18	1757.16
433.39	1714.15
433.59	1685.48
433.80	1822.69
434.00	1839.08
434.21	1638.38
434.41	1669.09
434.62	1865.70
434.82	1679.33
435.03	1665.00
435.23	1789.92
435.44	1650.66
435.64	1730.53
435.85	1849.32
436.06	1681.38
436.26	1912.80
436.47	1718.25
436.67	1658.85
436.88	1765.35
437.08	1697.77
437.29	1808.36
437.49	1744.87
437.70	1734.63
437.90	1763.30
438.11	1898.47
438.31	1880.04
438.52	1841.12
438.72	1839.08
438.93	1972.19
439.13	1769.44
439.34	1877.99
439.54	1755.11
439.75	1761.25
439.95	1789.92
440.16	1724.39
440.36	1828.84
440.57	1730.53
440.77	1693.67
440.98	1734.63
441.18	1734.63
441.39	1689.57
441.59	1665.00
441.80	1806.31
442.00	1710.05
442.21	1779.68
442.41	1648.61
442.62	1789.92
442.82	1695.72
443.02	1710.05
443.23	1728.49
443.43	1640.42
443.64	1884.13
443.84	1697.77
444.05	1759.21
444.25	1695.72
444.46	1683.43
444.66	1744.87
444.87	1761.25
445.07	1638.38
445.28	1675.24
445.48	1810.40
445.69	1783.78
445.89	1796.07
446.09	1779.68
446.30	2076.64
446.50	2650.07
446.71	3753.93
446.91	4466.62
447.12	4806.58
447.32	4798.39
447.53	4284.35
447.73	3979.20
447.93	3528.65
448.14	3237.84
448.34	3286.99
448.55	2947.03
448.75	2887.64
448.96	2721.75
449.16	2344.92
449.36	2312.16
449.57	2009.06
449.77	1892.32
449.98	1814.50
450.18	1847.27
450.39	1814.50
450.59	1724.39
450.79	1705.96
451.00	1746.92
451.20	1740.77
451.41	1673.19
451.61	1716.20
451.81	1716.20
452.02	1779.68
452.22	1779.68
452.43	1761.25
452.63	1701.86
452.84	1769.44
453.04	1705.96
453.24	1771.49
453.45	1683.43
453.65	1748.97
453.86	1724.39
454.06	1755.11
454.26	1769.44
454.47	1769.44
454.67	1861.60
454.87	1722.34
455.08	1746.92
455.28	1769.44
455.49	1757.16
455.69	1689.57
455.89	1808.36
456.10	1806.31
456.30	1736.68
456.51	1708.01
456.71	1720.29
456.91	1736.68
457.12	1621.99
457.32	1810.40
457.52	1650.66
457.73	1824.74
457.93	1753.06
458.14	1761.25
458.34	1630.18
458.54	1724.39
458.75	1636.33
458.95	1802.21
459.15	1708.01
459.36	1789.92
459.56	1738.73
459.76	1855.46
459.97	1738.73
460.17	1699.81
460.37	1802.21
460.58	1785.83
460.78	1730.53
460.99	1628.14
461.19	1693.67
461.39	1734.63
461.60	1689.57
461.80	1695.72
462.00	1748.97
462.21	1683.43
462.41	1685.48
462.61	1648.61
462.82	1671.14
463.02	1828.84
463.22	1738.73
463.43	1681.38
463.63	1730.53
463.83	1746.92
464.04	1757.16
464.24	1808.36
464.44	1611.75
464.64	1787.88
464.85	1744.87
465.05	1765.35
465.25	1763.30
465.46	1646.57
465.66	1742.82
465.86	1851.36
466.07	1710.05
466.27	1769.44
466.47	1652.71
466.68	1640.42
466.88	1882.08
467.08	1693.67
467.29	1722.34
467.49	1728.49
467.69	1757.16
467.89	1798.12
468.10	1757.16
468.30	1685.48
468.50	1812.45
468.71	1779.68
468.91	1648.61
469.11	1871.84
469.31	1640.42
469.52	1683.43
469.72	1816.55
469.92	1810.40
470.13	1726.44
470.33	1732.58
470.53	1826.79
470.73	2050.02
470.94	2306.01
471.14	2301.92
471.34	2492.38
471.54	2398.17
471.75	2230.24
471.95	2185.18
472.15	2125.79
472.36	2039.78
472.56	2019.30
472.76	1984.48
472.96	2015.20
473.17	1951.71
473.37	1951.71
473.57	1714.15
473.77	1773.54
473.98	1785.83
474.18	1597.42
474.38	1896.42
474.58	1720.29
474.79	1685.48
474.99	1699.81
475.19	1748.97
475.39	1656.81
475.60	1685.48
475.80	1755.11
476.00	1677.29
476.20	1685.48
476.41	1675.24
476.61	1767.40
476.81	1755.11
477.01	1679.33
477.21	1931.23
477.42	1714.15
477.62	1732.58
477.82	1755.11
478.02	1730.53
478.23	1775.59
478.43	1673.19
478.63	1726.44
478.83	1818.60
479.03	1644.52
479.24	1767.40
479.44	1781.73
479.64	1695.72
479.84	1648.61
480.04	1638.38
480.25	1734.63
480.45	1736.68
480.65	1691.62
480.85	1761.25
481.06	1748.97
481.26	1783.78
481.46	1775.59
481.66	1732.58
481.86	1701.86
482.06	1839.08
482.27	1714.15
482.47	1742.82
482.67	1734.63
482.87	1701.86
483.07	1787.88
483.28	1677.29
483.48	1597.42
483.68	1705.96
483.88	1695.72
484.08	1656.81
484.29	1673.19
484.49	1775.59
484.69	1675.24
484.89	1841.12
485.09	1837.03
485.29	1718.25
485.50	1710.05
485.70	1699.81
485.90	1736.68
486.10	1685.48
486.30	1759.21
486.50	1806.31
486.71	1769.44
486.91	1757.16
487.11	1816.55
487.31	1607.66
487.51	1775.59
487.71	1673.19
487.91	1673.19
488.12	1683.43
488.32	1617.90
488.52	1763.30
488.72	1626.09
488.92	1769.44
489.12	1812.45
489.32	1763.30
489.53	1658.85
489.73	1689.57
489.93	1789.92
490.13	1771.49
490.33	1718.25
490.53	1800.16
490.73	1753.06
490.94	1675.24
491.14	1710.05
491.34	1787.88
491.54	2064.35
491.74	2611.16
491.94	2963.41
492.14	3039.19
492.34	3157.97
492.54	2824.15
492.75	2541.53
492.95	2437.08
493.15	2314.20
493.35	2230.24
493.55	2328.54
493.75	2193.37
493.95	2117.60
494.15	1998.82
494.35	1996.77
494.56	1828.84
494.76	1789.92
494.96	1814.50
495.16	1755.11
495.36	1751.01
495.56	1781.73
495.76	1796.07
495.96	1697.77
496.16	1673.19
496.36	1761.25
496.56	1732.58
496.77	1693.67
496.97	1759.21
497.17	1828.84
497.37	1644.52
497.57	1712.10
497.77	1798.12
497.97	1732.58
498.17	1726.44
498.37	1691.62
498.57	1796.07
498.77	1708.01
498.97	1759.21
499.17	1830.88
499.38	1689.57
499.58	1753.06
499.78	1791.97
499.98	1791.97
500.18	1675.24
500.38	1665.00
500.58	1880.04
500.78	2572.25
500.98	4534.20
501.18	5932.97
501.38	6789.02
501.58	7102.36
501.78	6731.67
501.98	5652.39
502.18	5031.86
502.38	4466.62
502.58	4173.76
502.78	3948.48
502.98	3659.72
503.18	3413.96
503.38	3180.50
503.59	2832.34
503.79	2707.41
503.99	2447.32
504.19	2265.05
504.39	2254.81
504.59	2170.85
504.79	2078.69
504.99	2050.02
505.19	1900.52
505.39	1818.60
505.59	1998.82
505.79	1880.04
505.99	1839.08
506.19	1785.83
506.39	1843.17
506.59	1720.29
506.79	1802.21
506.99	1736.68
507.19	1773.54
507.39	1779.68
507.59	1687.53
507.79	1779.68
507.99	1699.81
508.19	1597.42
508.39	1722.34
508.59	1695.72
508.79	1777.64
508.99	1863.65
509.19	1640.42
509.39	1738.73
509.59	1732.58
509.79	1671.14
509.99	1748.97
510.19	1738.73
510.39	1822.69
510.59	1728.49
510.79	1662.95
510.99	1667.05
511.19	1734.63
511.39	1769.44
511.59	1806.31
511.79	1734.63
511.99	1798.12
512.19	1802.21
512.38	1697.77
512.58	1677.29
512.78	1748.97
512.98	1779.68
513.18	1888.23
513.38	1648.61
513.58	1759.21
513.78	1681.38
513.98	1654.76
514.18	1802.21
514.38	1736.68
514.58	1675.24
514.78	1685.48
514.98	1656.81
515.18	1675.24
515.38	1652.71
515.58	1837.03
515.78	1769.44
515.98	1757.16
516.18	1687.53
516.38	1710.05
516.57	1691.62
516.77	1714.15
516.97	1771.49
517.17	1642.47
517.37	1609.70
517.57	1791.97
517.77	1730.53
517.97	1681.38
518.17	1822.69
518.37	1687.53
518.57	1650.66
518.77	1738.73
518.97	1658.85
519.16	1734.63
519.36	1787.88
519.56	1685.48
519.76	1746.92
519.96	1794.02
520.16	1837.03
520.36	1681.38
520.56	1802.21
520.76	1689.57
520.96	1730.53
521.16	1763.30
521.35	1802.21
521.55	1828.84
521.75	1738.73
521.95	1728.49
522.15	1695.72
522.35	1662.95
522.55	1667.05
522.75	1804.26
522.95	1701.86
523.14	1677.29
523.34	1671.14
523.54	1705.96
523.74	1755.11
523.94	1748.97
524.14	1665.00
524.34	1775.59
524.54	1779.68
524.73	1705.96
524.93	1761.25
525.13	1726.44
525.33	1646.57
525.53	1804.26
525.73	1779.68
525.93	1718.25
526.13	1718.25
526.32	1785.83
526.52	1824.74
526.72	1779.68
526.92	1697.77
527.12	1691.62
527.32	1603.56
527.52	1746.92
527.71	1798.12
527.91	1787.88
528.11	1722.34
528.31	1708.01
528.51	1652.71
528.71	1810.40
528.90	1777.64
529.10	1765.35
529.30	1787.88
529.50	1679.33
529.70	1716.20
529.90	1744.87
530.09	1728.49
530.29	1681.38
530.49	1681.38
530.69	1808.36
530.89	1705.96
531.09	1701.86
531.28	1800.16
531.48	1863.65
531.68	1777.64
531.88	1804.26
532.08	1742.82
532.28	1724.39
532.47	1695.72
532.67	1783.78
532.87	1746.92
533.07	1630.18
533.27	1724.39
533.46	1718.25
533.66	1765.35
533.86	1730.53
534.06	1724.39
534.26	1740.77
534.45	1716.20
534.65	1820.64
534.85	1798.12
535.05	1718.25
535.25	1732.58
535.44	1662.95
535.64	1714.15
535.84	1738.73
536.04	1730.53
536.24	1730.53
536.43	1714.15
536.63	1814.50
536.83	1675.24
537.03	1689.57
537.22	1710.05
537.42	1615.85
537.62	1787.88
537.82	1740.77
538.02	1824.74
538.21	1830.88
538.41	1900.52
538.61	1769.44
538.81	1710.05
539.00	1787.88
539.20	1687.53
539.40	1679.33
539.60	1742.82
539.79	1826.79
539.99	1730.53
540.19	1650.66
540.39	1720.29
540.58	1703.91
540.78	1742.82
540.98	1779.68
541.18	1740.77
541.37	1757.16
541.57	1837.03
541.77	1777.64
541.97	1677.29
542.16	1689.57
542.36	1808.36
542.56	1724.39
542.76	1857.51
542.95	1796.07
543.15	1794.02
543.35	1736.68
543.54	1658.85
543.74	1628.14
543.94	1779.68
544.14	1669.09
544.33	1812.45
544.53	1689.57
544.73	1689.57
544.93	1718.25
545.12	1624.04
545.32	1660.90
545.52	1744.87
545.71	1648.61
545.91	1757.16
546.11	1708.01
546.30	1644.52
546.50	1671.14
546.70	1783.78
546.90	1716.20
547.09	1689.57
547.29	1740.77
547.49	1800.16
547.68	1722.34
547.88	1712.10
548.08	1765.35
548.27	2144.22
548.47	1677.29
548.67	1714.15
548.87	1861.60
549.06	1691.62
549.26	1755.11
549.46	1755.11
549.65	1751.01
549.85	1828.84
550.05	1859.56
550.24	1609.70
550.44	1689.57
550.64	1751.01
550.83	1714.15
551.03	1843.17
551.23	1779.68
551.42	1732.58
551.62	1634.28
551.82	1742.82
552.01	1667.05
552.21	1796.07
552.41	1773.54
552.60	1763.30
552.80	1699.81
553.00	1638.38
553.19	1712.10
553.39	1845.22
553.59	1609.70
553.78	1722.34
553.98	1834.98
554.17	1687.53
554.37	1773.54
554.57	1730.53
554.76	1722.34
554.96	1681.38
555.16	1740.77
555.35	1759.21
555.55	1718.25
555.75	1736.68
555.94	1759.21
556.14	1683.43
556.33	1732.58
556.53	1738.73
556.73	1773.54
556.92	1751.01
557.12	1763.30
557.32	1771.49
557.51	1841.12
557.71	1822.69
557.90	1875.94
558.10	1687.53
558.30	1667.05
558.49	1746.92
558.69	1697.77
558.88	1742.82
559.08	1761.25
559.28	1748.97
559.47	1785.83
559.67	1755.11
559.86	1822.69
560.06	1730.53
560.26	1701.86
560.45	1722.34
560.65	1783.78
560.84	1763.30
561.04	1630.18
561.24	1734.63
561.43	1601.51
561.63	1722.34
561.82	1779.68
562.02	1746.92
562.22	1710.05
562.41	1675.24
562.61	1724.39
562.80	1722.34
563.00	1894.37
563.19	1779.68
563.39	1828.84
563.59	1738.73
563.78	1693.67
563.98	1710.05
564.17	1640.42
564.37	1656.81
564.56	1771.49
564.76	1677.29
564.96	1816.55
565.15	1761.25
565.35	1802.21
565.54	1789.92
565.74	1796.07
565.93	1759.21
566.13	1683.43
566.32	1810.40
566.52	1806.31
566.71	1767.40
566.91	1738.73
567.11	1736.68
567.30	1660.90
567.50	1769.44
567.69	1791.97
567.89	1779.68
568.08	1714.15
568.28	1738.73
568.47	1675.24
568.67	1771.49
568.86	1705.96
569.06	1755.11
569.25	1791.97
569.45	1662.95
569.64	1673.19
569.84	1783.78
570.04	1703.91
570.23	1701.86
570.43	1796.07
570.62	1701.86
570.82	1802.21
571.01	1712.10
571.21	1675.24
571.40	1753.06
571.60	1789.92
571.79	1708.01
571.99	1791.97
572.18	1613.80
572.38	1699.81
572.57	1708.01
572.77	1796.07
572.96	1869.80
573.16	1728.49
573.35	1746.92
573.55	1843.17
573.74	1685.48
573.94	1667.05
574.13	1751.01
574.33	1851.36
574.52	1767.40
574.71	1703.91
574.91	1732.58
575.10	1693.67
575.30	1720.29
575.49	1716.20
575.69	1720.29
575.88	1771.49
576.08	1656.81
576.27	1708.01
576.47	1744.87
576.66	1828.84
576.86	1843.17
577.05	1742.82
577.25	1781.73
577.44	1861.60
577.64	1708.01
577.83	1837.03
578.02	1796.07
578.22	1810.40
578.41	1865.70
578.61	1730.53
578.80	1693.67
579.00	1800.16
579.19	1798.12
579.39	1781.73
579.58	1839.08
579.77	1802.21
579.97	1871.84
580.16	1828.84
580.36	1789.92
580.55	1824.74
580.75	1771.49
580.94	1738.73
581.13	1937.38
581.33	1865.70
581.52	1773.54
581.72	1828.84
581.91	1853.41
582.11	1679.33
582.30	1800.16
582.49	1732.58
582.69	1732.58
582.88	1769.44
583.08	1783.78
583.27	1779.68
583.47	1779.68
583.66	1746.92
583.85	1691.62
584.05	1773.54
584.24	1800.16
584.44	1751.01
584.63	1781.73
584.82	1779.68
585.02	1824.74
585.21	1781.73
585.41	1843.17
585.60	1869.80
585.79	1925.09
585.99	1894.37
586.18	1816.55
586.37	2138.08
586.57	3413.96
586.76	9863.02
586.96	24823.43
587.15	34989.55
587.34	41393.54
587.54	42771.83
587.73	37561.79
587.93	26795.62
588.12	21909.17
588.31	18609.89
588.51	16561.92
588.70	15304.47
588.89	14260.01
589.09	12803.90
589.28	11368.27
589.47	9674.60
589.67	8075.14
589.86	6590.36
590.06	5007.28
590.25	3903.43
590.44	3143.63
590.64	2627.54
590.83	2174.94
591.02	2062.30
591.22	1968.10
591.41	1957.86
591.60	1826.79
591.80	1988.58
591.99	1796.07
592.18	1744.87
592.38	1837.03
592.57	1757.16
592.76	1867.75
592.96	1736.68
593.15	1746.92
593.34	1800.16
593.54	1714.15
593.73	1916.90
593.92	1787.88
594.12	1757.16
594.31	1660.90
594.50	1804.26
594.70	1914.85
594.89	1849.32
595.08	1646.57
595.28	1732.58
595.47	1832.93
595.66	1839.08
595.86	1685.48
596.05	1734.63
596.24	1685.48
596.43	1796.07
596.63	1800.16
596.82	1787.88
597.01	1732.58
597.21	1877.99
597.40	1759.21
597.59	1785.83
597.79	1695.72
597.98	1751.01
598.17	1791.97
598.36	1781.73
598.56	1775.59
598.75	1701.86
598.94	1728.49
599.14	1763.30
599.33	1746.92
599.52	1771.49
599.71	1802.21
599.91	1810.40
600.10	1761.25
600.29	1738.73
600.48	1785.83
600.68	1740.77
600.87	1763.30
601.06	1701.86
601.26	1771.49
601.45	1777.64
601.64	1697.77
601.83	1765.35
602.03	1691.62
602.22	1687.53
602.41	1804.26
602.60	1867.75
602.80	1791.97
602.99	1744.87
603.18	1689.57
603.37	1751.01
603.57	1777.64
603.76	1857.51
603.95	1859.56
604.14	1677.29
604.34	1656.81
604.53	1685.48
604.72	1769.44
604.91	1773.54
605.10	1765.35
605.30	1681.38
605.49	1804.26
605.68	1779.68
605.87	1751.01
606.07	1722.34
606.26	1654.76
606.45	1798.12
606.64	1689.57
606.84	1683.43
607.03	1726.44
607.22	1800.16
607.41	1677.29
607.60	1720.29
607.80	1814.50
607.99	1695.72
608.18	1759.21
608.37	1718.25
608.56	1636.33
608.76	1789.92
608.95	1804.26
609.14	1738.73
609.33	1843.17
609.52	1740.77
609.72	1742.82
609.91	1869.80
610.10	1783.78
610.29	1832.93
610.48	1779.68
610.68	1773.54
610.87	1759.21
611.06	1796.07
611.25	1697.77
611.44	1726.44
611.63	1728.49
611.83	1787.88
612.02	1771.49
612.21	1716.20
612.40	1599.46
612.59	1759.21
612.79	1738.73
612.98	1685.48
613.17	1869.80
613.36	1730.53
613.55	1767.40
613.74	1683.43
613.93	1685.48
614.13	1640.42
614.32	1708.01
614.51	1671.14
614.70	1669.09
614.89	1646.57
615.08	1775.59
615.28	2062.30
615.47	1673.19
615.66	1740.77
615.85	1697.77
616.04	1783.78
616.23	1710.05
616.42	1675.24
616.62	1775.59
616.81	1730.53
617.00	1771.49
617.19	1726.44
617.38	1748.97
617.57	1751.01
617.76	1755.11
617.95	1746.92
618.15	1705.96
618.34	1773.54
618.53	1601.51
618.72	1734.63
618.91	1800.16
619.10	1816.55
619.29	1714.15
619.48	1789.92
619.68	1683.43
619.87	1708.01
620.06	1708.01
620.25	1763.30
620.44	1736.68
620.63	1724.39
620.82	1763.30
621.01	1738.73
621.20	1806.31
621.39	1728.49
621.59	1742.82
621.78	1755.11
621.97	1652.71
622.16	1724.39
622.35	1673.19
622.54	1802.21
622.73	1808.36
622.92	1697.77
623.11	1791.97
623.30	1683.43
623.49	1800.16
623.68	1708.01
623.88	1898.47
624.07	1708.01
624.26	1736.68
624.45	1685.48
624.64	1650.66
624.83	1740.77
625.02	1685.48
625.21	1665.00
625.40	1687.53
625.59	1775.59
625.78	1671.14
625.97	1763.30
626.16	1746.92
626.35	1789.92
626.54	1736.68
626.74	1828.84
626.93	1710.05
627.12	1687.53
627.31	1724.39
627.50	1771.49
627.69	1734.63
627.88	1683.43
628.07	1695.72
628.26	1703.91
628.45	1697.77
628.64	1624.04
628.83	1726.44
629.02	1691.62
629.21	1738.73
629.40	1665.00
629.59	1632.23
629.78	1630.18
629.97	1624.04
630.16	1722.34
630.35	1662.95
630.54	1689.57
630.73	1767.40
630.92	1765.35
631.11	1695.72
631.30	1677.29
631.49	1789.92
631.68	1761.25
631.87	1681.38
632.06	1626.09
632.25	1755.11
632.44	1689.57
632.63	1650.66
632.82	1691.62
633.01	1691.62
633.20	1710.05
633.39	1650.66
633.58	1605.61
633.77	1685.48
633.96	1785.83
634.15	1751.01
634.34	1736.68
634.53	1734.63
634.72	1632.23
634.91	1658.85
635.10	1773.54
635.29	1871.84
635.48	1681.38
635.67	1783.78
635.86	1669.09
636.05	1751.01
636.24	1751.01
636.43	1681.38
636.62	1779.68
636.81	1591.27
637.00	1710.05
637.19	1751.01
637.38	1722.34
637.57	1710.05
637.76	1726.44
637.95	1722.34
638.14	1697.77
638.33	1677.29
638.52	1742.82
638.71	1673.19
638.89	1671.14
639.08	1806.31
639.27	1718.25
639.46	1753.06
639.65	1812.45
639.84	1757.16
640.03	1828.84
640.22	1705.96
640.41	1826.79
640.60	1654.76
640.79	1681.38
640.98	1683.43
641.17	1748.97
641.36	1697.77
641.55	1697.77
641.74	1667.05
641.92	1755.11
642.11	1675.24
642.30	1773.54
642.49	1751.01
642.68	1701.86
642.87	1746.92
643.06	1802.21
643.25	1744.87
643.44	1712.10
643.63	1730.53
643.82	1763.30
644.00	1632.23
644.19	1714.15
644.38	1609.70
644.57	1712.10
644.76	1753.06
644.95	1763.30
645.14	1662.95
645.33	1695.72
645.52	1677.29
645.71	1646.57
645.89	1656.81
646.08	1720.29
646.27	1748.97
646.46	1859.56
646.65	1710.05
646.84	1669.09
647.03	1667.05
647.22	1798.12
647.40	1726.44
647.59	1712.10
647.78	1673.19
647.97	1748.97
648.16	1646.57
648.35	1718.25
648.54	1734.63
648.73	1638.38
648.91	1757.16
649.10	1710.05
649.29	1679.33
649.48	1765.35
649.67	1693.67
649.86	1757.16
650.05	1648.61
650.23	1738.73
650.42	1652.71
650.61	1738.73
650.80	1730.53
650.99	1923.04
651.18	1652.71
651.36	1791.97
651.55	1765.35
651.74	1763.30
651.93	1652.71
652.12	1669.09
652.31	1693.67
652.49	1642.47
652.68	1699.81
652.87	1855.46
653.06	1789.92
653.25	1787.88
653.44	1710.05
653.62	1812.45
653.81	1705.96
654.00	1699.81
654.19	1708.01
654.38	1824.74
654.56	1742.82
654.75	1699.81
654.94	1761.25
655.13	1734.63
655.32	1679.33
655.51	1742.82
655.69	1740.77
655.88	1763.30
656.07	1632.23
656.26	1740.77
656.45	1640.42
656.63	1697.77
656.82	1785.83
657.01	1783.78
657.20	1652.71
657.38	1773.54
657.57	1701.86
657.76	1603.56
657.95	1734.63
658.14	1642.47
658.32	1728.49
658.51	1621.99
658.70	1681.38
658.89	1759.21
659.08	1714.15
659.26	1773.54
659.45	1617.90
659.64	1748.97
659.83	1669.09
660.01	1912.80
660.20	1738.73
660.39	1845.22
660.58	1632.23
660.76	1775.59
660.95	1607.66
661.14	1718.25
661.33	1728.49
661.51	1669.09
661.70	1658.85
661.89	1783.78
662.08	1665.00
662.26	1685.48
662.45	1665.00
662.64	1826.79
662.83	1716.20
663.01	1644.52
663.20	1765.35
663.39	1769.44
663.58	1744.87
663.76	1640.42
663.95	1753.06
664.14	1722.34
664.32	1624.04
664.51	1662.95
664.70	1656.81
664.89	1783.78
665.07	1665.00
665.26	1734.63
665.45	1734.63
665.64	1710.05
665.82	1751.01
666.01	1695.72
666.20	1691.62
666.38	1773.54
666.57	1785.83
666.76	2224.09
666.95	4472.76
667.13	10383.20
667.32	15738.64
667.51	17866.48
667.69	19349.21
667.88	17983.21
668.07	12410.69
668.25	9867.11
668.44	8261.51
668.63	7466.89
668.81	6950.81
669.00	6406.05
669.19	5623.72
669.38	5214.13
669.56	4509.63
669.75	4026.31
669.94	3512.27
670.12	2895.83
670.31	2539.48
670.50	2213.85
670.68	2111.46
670.87	1910.75
671.06	1810.40
671.24	1820.64
671.43	1841.12
671.62	1730.53
671.80	1720.29
671.99	1705.96
672.18	1714.15
672.36	1755.11
672.55	1759.21
672.74	1714.15
672.92	1660.90
673.11	1806.31
673.29	1689.57
673.48	1759.21
673.67	1675.24
673.85	1785.83
674.04	1640.42
674.23	1726.44
674.41	1820.64
674.60	1636.33
674.79	1624.04
674.97	1687.53
675.16	1767.40
675.34	1781.73
675.53	1699.81
675.72	1785.83
675.90	1857.51
676.09	1697.77
676.28	1761.25
676.46	1601.51
676.65	1720.29
676.83	1640.42
677.02	1662.95
677.21	1732.58
677.39	1822.69
677.58	1603.56
677.77	1669.09
677.95	1701.86
678.14	1660.90
678.32	1656.81
678.51	1736.68
678.70	1923.04
678.88	1689.57
679.07	1689.57
679.25	1681.38
679.44	1673.19
679.63	1617.90
679.81	1751.01
680.00	1689.57
680.18	1773.54
680.37	1691.62
680.55	1732.58
680.74	1640.42
680.93	1599.46
681.11	1673.19
681.30	1693.67
681.48	1591.27
681.67	1742.82
681.85	1710.05
682.04	1669.09
682.23	1769.44
682.41	1773.54
682.60	1699.81
682.78	1615.85
682.97	1703.91
683.15	1720.29
683.34	1716.20
683.53	1730.53
683.71	1572.84
683.90	1830.88
684.08	1763.30
684.27	1732.58
684.45	1832.93
684.64	1779.68
684.82	1667.05
685.01	1787.88
685.19	1753.06
685.38	1699.81
685.57	1746.92
685.75	1585.13
685.94	1634.28
686.12	1708.01
686.31	1693.67
686.49	1722.34
686.68	1611.75
686.86	1748.97
687.05	1667.05
687.23	1822.69
687.42	1652.71
687.60	1624.04
687.79	1724.39
687.97	1718.25
688.16	1802.21
688.34	1730.53
688.53	1642.47
688.71	1753.06
688.90	1763.30
689.08	1630.18
689.27	1607.66
689.45	1734.63
689.64	1658.85
689.82	1714.15
690.01	1720.29
690.19	1697.77
690.38	1722.34
690.56	1736.68
690.75	1656.81
690.93	1667.05
691.12	1677.29
691.30	1765.35
691.49	1624.04
691.67	1697.77
691.86	1753.06
692.04	1621.99
692.23	1648.61
692.41	1675.24
692.60	1804.26
692.78	1740.77
692.97	1609.70
693.15	1744.87
693.34	1732.58
693.52	1775.59
693.71	1654.76
693.89	1630.18
694.08	1642.47
694.26	1773.54
694.44	1673.19
694.63	1701.86
694.81	1667.05
695.00	1820.64
695.18	1736.68
695.37	1857.51
695.55	1740.77
695.74	1748.97
695.92	1636.33
696.10	1730.53
696.29	1585.13
696.47	1652.71
696.66	1578.98
696.84	1681.38
697.03	1763.30
697.21	1804.26
697.40	2258.91
697.58	1789.92
697.76	1669.09
697.95	1693.67
698.13	1691.62
698.32	1640.42
698.50	1734.63
698.68	1701.86
698.87	1693.67
699.05	1738.73
699.24	1669.09
699.42	1677.29
699.61	1740.77
699.79	1730.53
699.97	1736.68
700.16	1722.34
700.34	1710.05
700.53	1718.25
700.71	1800.16
700.89	1753.06
701.08	1728.49
701.26	1632.23
701.45	2162.66
701.63	1667.05
701.81	1753.06
702.00	1673.19
702.18	1685.48
702.37	1763.30
702.55	1712.10
702.73	1644.52
702.92	1669.09
703.10	1705.96
703.28	1697.77
703.47	1599.46
703.65	1800.16
703.84	1662.95
704.02	1703.91
704.20	1755.11
704.39	1683.43
704.57	1693.67
704.75	1775.59
704.94	1757.16
705.12	1746.92
705.30	1800.16
705.49	2299.87
705.67	4538.30
705.86	9533.29
706.04	12586.82
706.22	14571.30
706.41	15527.70
706.59	13862.70
706.77	9856.87
706.96	7530.38
707.14	6698.91
707.32	6000.55
707.51	5703.59
707.69	5035.96
707.87	4372.41
708.06	3635.14
708.24	2996.18
708.42	2437.08
708.61	2217.95
708.79	1873.89
708.97	1787.88
709.16	1804.26
709.34	1794.02
709.52	1701.86
709.71	1677.29
709.89	1724.39
710.07	1644.52
710.26	1669.09
710.44	1708.01
710.62	1822.69
710.80	1697.77
710.99	1746.92
711.17	1794.02
711.35	1648.61
711.54	1681.38
711.72	1818.60
711.90	1716.20
712.09	1742.82
712.27	1714.15
712.45	1705.96
712.63	1728.49
712.82	1759.21
713.00	1632.23
713.18	1791.97
713.37	1708.01
713.55	1689.57
713.73	1753.06
713.91	1744.87
714.10	1589.22
714.28	1779.68
714.46	1783.78
714.65	1732.58
714.83	1763.30
715.01	1613.80
715.19	1677.29
715.38	1621.99
715.56	1779.68
715.74	1656.81
715.92	1681.38
716.11	1775.59
716.29	1667.05
716.47	1677.29
716.65	1751.01
716.84	1650.66
717.02	1769.44
717.20	1644.52
717.38	1671.14
717.57	1710.05
717.75	1691.62
717.93	1689.57
718.11	1746.92
718.30	1654.76
718.48	1699.81
718.66	1816.55
718.84	1779.68
719.03	1681.38
719.21	1634.28
719.39	1851.36
719.57	1705.96
719.75	1763.30
719.94	1699.81
720.12	1689.57
720.30	1708.01
720.48	1732.58
720.67	1697.77
720.85	1671.14
721.03	1697.77
721.21	1703.91
721.39	1837.03
721.58	1665.00
721.76	1665.00
721.94	1748.97
722.12	1619.94
722.30	1775.59
722.49	1667.05
722.67	1736.68
722.85	1644.52
723.03	1648.61
723.21	1753.06
723.40	1726.44
723.58	1742.82
723.76	1683.43
723.94	1769.44
724.12	1755.11
724.30	1771.49
724.49	1724.39
724.67	1611.75
724.85	1761.25
725.03	1656.81
725.21	1714.15
725.40	1738.73
725.58	1701.86
725.76	1714.15
725.94	1740.77
726.12	1667.05
726.30	1710.05
726.49	1689.57
726.67	1640.42
726.85	1751.01
727.03	1812.45
727.21	2052.06
727.39	2869.20
727.57	3852.23
727.76	4208.58
727.94	4444.09
728.12	4419.52
728.30	3745.73
728.48	3090.38
728.66	2779.09
728.84	2586.58
729.03	2371.55
729.21	2240.48
729.39	1990.63
729.57	1832.93
729.75	1837.03
729.93	1767.40
730.11	1689.57
730.30	1726.44
730.48	1701.86
730.66	1796.07
730.84	1806.31
731.02	1691.62
731.20	1652.71
731.38	1730.53
731.56	1650.66
731.74	1679.33
731.93	1681.38
732.11	1591.27
732.29	1675.24
732.47	1689.57
732.65	1660.90
732.83	1775.59
733.01	1714.15
733.19	1640.42
733.37	1683.43
733.56	1730.53
733.74	1687.53
733.92	1822.69
734.10	1644.52
734.28	1648.61
734.46	1593.32
734.64	1652.71
734.82	1771.49
735.00	1673.19
735.18	1708.01
735.36	1660.90
735.54	1654.76
735.73	1724.39
735.91	1703.91
736.09	1726.44
736.27	1675.24
736.45	1753.06
736.63	1609.70
736.81	1658.85
736.99	1722.34
737.17	1748.97
737.35	1681.38
737.53	1611.75
737.71	1628.14
737.89	1755.11
738.07	1626.09
738.25	1638.38
738.43	1632.23
738.61	1753.06
738.80	1599.46
738.98	1665.00
739.16	1665.00
739.34	1660.90
739.52	1716.20
739.70	1679.33
739.88	1746.92
740.06	1726.44
740.24	1630.18
740.42	1710.05
740.60	1603.56
740.78	1751.01
740.96	1714.15
741.14	1712.10
741.32	1765.35
741.50	1689.57
741.68	1753.06
741.86	1742.82
742.04	1607.66
742.22	1705.96
742.40	1738.73
742.58	1748.97
742.76	1630.18
742.94	1777.64
743.12	1626.09
743.30	1675.24
743.48	1683.43
743.66	1562.60
743.84	1755.11
744.02	1710.05
744.20	1734.63
744.38	1591.27
744.56	1626.09
744.74	1810.40
744.92	1740.77
745.10	1677.29
745.28	1789.92
745.46	1804.26
745.64	1669.09
745.82	1771.49
746.00	1703.91
746.18	1724.39
746.36	1572.84
746.54	1705.96
746.72	1728.49
746.90	1644.52
747.08	1755.11
747.26	1683.43
747.44	1822.69
747.62	1714.15
747.80	1710.05
747.98	1738.73
748.15	1636.33
748.33	1761.25
748.51	1710.05
748.69	1705.96
748.87	1632.23
749.05	1595.37
749.23	1732.58
749.41	1787.88
749.59	1671.14
749.77	1712.10
749.95	1740.77
750.13	1691.62
750.31	1697.77
750.49	1660.90
750.67	1765.35
750.85	1746.92
751.03	1652.71
751.20	1769.44
751.38	1755.11
751.56	1699.81
751.74	1665.00
751.92	1611.75
752.10	1632.23
752.28	1779.68
752.46	1681.38
752.64	1710.05
752.82	1703.91
753.00	1822.69
753.18	1619.94
753.35	1765.35
753.53	1699.81
753.71	1679.33
753.89	1718.25
754.07	1734.63
754.25	1742.82
754.43	1665.00
754.61	1613.80
754.79	1755.11
754.97	1665.00
755.14	1763.30
755.32	1646.57
755.50	1619.94
755.68	1726.44
755.86	1697.77
756.04	1626.09
756.22	1609.70
756.40	1724.39
756.57	1843.17
756.75	1595.37
756.93	1734.63
757.11	1777.64
757.29	1660.90
757.47	1621.99
757.65	1523.69
757.82	1671.14
758.00	1720.29
758.18	1689.57
758.36	1726.44
758.54	1810.40
758.72	1611.75
758.90	1769.44
759.07	1710.05
759.25	1626.09
759.43	1783.78
759.61	1665.00
759.79	2263.01
759.97	1640.42
760.15	1677.29
760.32	1681.38
760.50	1650.66
760.68	1845.22
760.86	1597.42
761.04	1789.92
761.22	1691.62
761.39	1767.40
761.57	1722.34
761.75	1685.48
761.93	1744.87
762.11	1652.71
762.28	1673.19
762.46	1644.52
762.64	1681.38
762.82	1634.28
763.00	1765.35
763.18	1755.11
763.35	1667.05
763.53	1751.01
763.71	1789.92
763.89	1701.86
764.07	1691.62
764.24	1697.77
764.42	1681.38
764.60	1677.29
764.78	1738.73
764.96	1724.39
765.13	1746.92
765.31	1767.40
765.49	1720.29
765.67	1660.90
765.84	1546.22
766.02	1583.08
766.20	1642.47
766.38	1796.07
766.56	1710.05
766.73	1755.11
766.91	1675.24
767.09	1751.01
767.27	1769.44
767.44	1683.43
767.62	1730.53
767.80	1695.72
767.98	1759.21
768.15	1800.16
768.33	1806.31
768.51	1726.44
768.69	1701.86
768.87	1759.21
769.04	1689.57
769.22	1744.87
769.40	1734.63
769.58	1871.84
769.75	1744.87
769.93	1798.12
770.11	1726.44
770.28	1646.57
770.46	1740.77
770.64	1697.77
770.82	1699.81
770.99	1716.20
771.17	1712.10
771.35	1673.19
771.53	1724.39
771.70	1679.33
771.88	1685.48
772.06	1705.96
772.23	1685.48
772.41	1781.73
772.59	1738.73
772.77	1689.57
772.94	1654.76
773.12	1767.40
773.30	1726.44
773.47	1699.81
773.65	1728.49
773.83	1730.53
774.01	1779.68
774.18	1636.33
774.36	1705.96
774.54	1591.27
774.71	1740.77
774.89	1585.13
775.07	1576.94
775.24	1685.48
775.42	1683.43
775.60	1783.78
775.78	1656.81
775.95	1601.51
776.13	1648.61
776.31	1632.23
776.48	1734.63
776.66	1748.97
776.84	1695.72
777.01	1626.09
777.19	1701.86
777.37	1605.61
777.54	1705.96
777.72	1839.08
777.90	1718.25
778.07	1665.00
778.25	1865.70
778.43	1767.40
778.60	1683.43
778.78	1759.21
778.96	1738.73
779.13	1626.09
779.31	1658.85
779.49	1667.05
779.66	1744.87
779.84	1734.63
780.01	1677.29
780.19	1671.14
780.37	1736.68
780.54	1695.72
780.72	1671.14
780.90	1677.29
781.07	1720.29
781.25	1708.01
781.43	1693.67
781.60	1769.44
781.78	1828.84
781.95	1699.81
782.13	1652.71
782.31	1708.01
782.48	1611.75
782.66	1708.01
782.83	1785.83
783.01	1732.58
783.19	1783.78
783.36	1722.34
783.54	1652.71
783.72	1738.73
783.89	1724.39
784.07	1681.38
784.24	1759.21
784.42	1812.45
784.60	1746.92
784.77	1771.49
784.95	1578.98
785.12	1703.91
785.30	1671.14
785.47	1669.09
785.65	1636.33
785.83	1697.77
786.00	1714.15
786.18	1746.92
786.35	1634.28
786.53	1662.95
786.71	1748.97
786.88	1755.11
787.06	1658.85
787.23	1732.58
787.41	1671.14
787.58	1679.33
787.76	1671.14
787.94	1667.05
788.11	1660.90
788.29	1683.43
788.46	1628.14
788.64	1640.42
788.81	1697.77
788.99	1677.29
789.16	1669.09
789.34	1662.95
789.52	1683.43
789.69	1611.75
789.87	1650.66
790.04	1560.55
790.22	1671.14
790.39	1828.84
790.57	1585.13
790.74	1669.09
790.92	1857.51
791.09	1585.13
791.27	1693.67
791.44	1757.16
791.62	1730.53
791.79	1767.40
791.97	1730.53
792.15	1880.04
792.32	1771.49
792.50	1730.53
792.67	1859.56
792.85	1759.21
793.02	1660.90
793.20	1689.57
793.37	1599.46
793.55	1718.25
793.72	1636.33
793.90	1665.00
794.07	1656.81
794.25	1710.05
794.42	1693.67
794.60	1691.62
794.77	1732.58
794.95	1787.88
795.12	1679.33
795.30	1689.57
795.47	1591.27
795.65	1863.65
795.82	1716.20
796.00	1566.70
796.17	1656.81
796.34	1710.05
796.52	1746.92
796.69	1710.05
796.87	1630.18
797.04	1751.01
797.22	1687.53
797.39	1746.92
797.57	1714.15
797.74	1695.72
797.92	1710.05
798.09	1665.00
798.27	1708.01
798.44	1746.92
798.62	1632.23
798.79	1673.19
798.96	1658.85
799.14	1732.58
799.31	1814.50
799.49	1648.61
799.66	1689.57
799.84	1718.25
800.01	1619.94
800.19	1814.50
800.36	1658.85
800.53	1669.09
800.71	1720.29
800.88	1843.17
801.06	1667.05
801.23	1703.91
801.41	1714.15
801.58	1621.99
801.75	1681.38
801.93	1705.96
802.10	1748.97
802.28	1652.71
802.45	1681.38
802.63	1712.10
802.80	1738.73
802.97	1732.58
803.15	1671.14
803.32	1642.47
803.50	1632.23
803.67	1626.09
803.84	1636.33
804.02	1642.47
804.19	1677.29
804.37	1576.94
804.54	1658.85
804.71	1714.15
804.89	1730.53
805.06	1675.24
805.24	1673.19
805.41	1591.27
805.58	1716.20
805.76	1826.79
805.93	1673.19
806.10	1802.21
806.28	1748.97
806.45	1669.09
806.63	1714.15
806.80	1687.53
806.97	1712.10
807.15	1708.01
807.32	1798.12
807.49	1703.91
807.67	1660.90
807.84	1761.25
808.01	1630.18
808.19	1759.21
808.36	1834.98
808.54	1703.91
808.71	1581.03
808.88	1730.53
809.06	1695.72
809.23	1771.49
809.40	1701.86
809.58	1773.54
809.75	1634.28
809.92	1673.19
810.10	1847.27
810.27	1658.85
810.44	1763.30
810.62	1738.73
810.79	1714.15
810.96	1691.62
811.14	1701.86
811.31	1757.16
811.48	1708.01
811.66	1675.24
811.83	1826.79
812.00	1732.58
812.18	1736.68
812.35	1837.03
812.52	1703.91
812.69	1609.70
812.87	1636.33
813.04	1671.14
813.21	1691.62
813.39	1681.38
813.56	1646.57
813.73	1714.15
813.91	1691.62
814.08	1683.43
814.25	1693.67
814.42	1554.41
814.60	1695.72
814.77	1728.49
814.94	1689.57
815.12	1712.10
815.29	1808.36
815.46	1550.31
815.63	1648.61
815.81	1728.49
815.98	1687.53
816.15	1751.01
816.33	1716.20
816.50	1687.53
816.67	1734.63
816.84	1724.39
817.02	1566.70
817.19	1693.67
817.36	1728.49
817.53	1740.77
817.71	1691.62
817.88	1742.82
818.05	1740.77
818.22	1697.77
818.40	1837.03
818.57	1757.16
818.74	1681.38
818.91	1701.86
819.09	1748.97
819.26	1783.78
819.43	1648.61
819.60	1718.25
819.78	1677.29
819.95	1748.97
820.12	1687.53
820.29	1789.92
820.47	1744.87
820.64	1685.48
820.81	1660.90
820.98	1628.14
821.15	1710.05
821.33	1658.85
821.50	1660.90
821.67	1693.67
821.84	1671.14
822.02	1671.14
822.19	1751.01
822.36	1685.48
822.53	1689.57
822.70	1667.05
822.88	1714.15
823.05	1785.83
823.22	1642.47
823.39	1685.48
823.56	1646.57
823.74	1834.98
823.91	1652.71
824.08	1603.56
824.25	1658.85
824.42	1755.11
824.60	1687.53
824.77	1673.19
824.94	1576.94
825.11	1718.25
825.28	1693.67
825.45	1775.59
825.63	1632.23
825.80	1652.71
825.97	1787.88
826.14	1667.05
826.31	1671.14
826.48	1697.77
826.66	1650.66
826.83	1691.62
827.00	1665.00
827.17	1691.62
827.34	1724.39
827.51	1640.42
827.69	1669.09
827.86	1654.76
828.03	1693.67
828.20	1693.67
828.37	1624.04
828.54	1783.78
828.71	1660.90
828.89	1816.55
829.06	1761.25
829.23	1798.12
829.40	1595.37
829.57	1619.94
829.74	1785.83
829.91	1675.24
830.09	1710.05
830.26	1736.68
830.43	1791.97
830.60	1624.04
830.77	1712.10
830.94	1712.10
831.11	1806.31
831.28	1703.91
831.46	1736.68
831.63	1673.19
831.80	1755.11
831.97	1712.10
832.14	1644.52
832.31	1708.01
832.48	1728.49
832.65	1718.25
832.82	1671.14
832.99	1742.82
833.17	1615.85
833.34	1746.92
833.51	1724.39
833.68	1568.74
833.85	1820.64
834.02	1566.70
834.19	1611.75
834.36	1621.99
834.53	1710.05
834.70	1736.68
834.87	1705.96
835.04	1652.71
835.22	1599.46
835.39	1677.29
835.56	1685.48
835.73	1714.15
835.90	1744.87
836.07	1648.61
836.24	1716.20
836.41	1578.98
836.58	1640.42
836.75	1755.11
836.92	1753.06
837.09	1665.00
837.26	1802.21
837.43	1705.96
837.60	1763.30
837.77	1667.05
837.94	1689.57
838.12	1726.44
838.29	1697.77
838.46	1648.61
838.63	1615.85
838.80	1804.26
838.97	1683.43
839.14	1697.77
839.31	1605.61
839.48	1638.38
839.65	1712.10
839.82	1689.57
839.99	1703.91
840.16	1667.05
840.33	1671.14
840.50	1665.00
840.67	1669.09
840.84	1552.36
841.01	1779.68
841.18	1644.52
841.35	1777.64
841.52	1820.64
841.69	1818.60
841.86	1718.25
842.03	1695.72
842.20	1775.59
842.37	1759.21
842.54	1687.53
842.71	1714.15
842.88	1656.81
843.05	1732.58
843.22	1738.73
843.39	1712.10
843.56	1667.05
843.73	1624.04
843.90	1796.07
844.07	1689.57
844.24	1722.34
844.41	1779.68
844.58	1722.34
844.75	1697.77
844.92	1740.77
845.09	1714.15
845.26	1652.71
845.43	1675.24
845.60	1658.85
845.77	1697.77
845.94	1677.29
846.10	1710.05
846.27	1593.32
846.44	1619.94
846.61	1597.42
846.78	1660.90
846.95	1753.06
847.12	1648.61
847.29	1673.19
847.46	1712.10
847.63	1742.82
847.80	1611.75
847.97	1705.96
848.14	1769.44
848.31	1679.33
848.48	1671.14
848.65	1714.15
848.82	1607.66
848.98	1761.25
849.15	1724.39
849.32	1769.44
849.49	1828.84
849.66	1708.01
849.83	1726.44
850.00	1570.79
850.17	1767.40
850.34	1744.87
850.51	1605.61
850.68	1638.38
850.85	1789.92
851.01	1775.59
851.18	1759.21
851.35	1656.81
851.52	1683.43
851.69	1796.07
851.86	1611.75
852.03	1726.44
852.20	1675.24
852.37	1628.14
852.53	1654.76
852.70	1695.72
852.87	1681.38
853.04	1796.07
853.21	1689.57
853.38	1687.53
853.55	1740.77
853.72	1746.92
853.89	1650.66
854.05	1601.51
854.22	1716.20
854.39	1660.90
854.56	1716.20
854.73	1828.84
854.90	1552.36
855.07	1660.90
855.23	1597.42
855.40	1703.91
855.57	1695.72
855.74	1673.19
855.91	1849.32
856.08	1603.56
856.25	1673.19
856.41	1746.92
856.58	1691.62
856.75	1697.77
856.92	1689.57
857.09	1755.11
857.26	1660.90
857.42	1679.33
857.59	1712.10
857.76	1650.66
857.93	1734.63
858.10	1808.36
858.27	1583.08
858.43	1683.43
858.60	1699.81
858.77	1583.08
858.94	1671.14
859.11	1765.35
859.27	1701.86
859.44	1761.25
859.61	1890.28
859.78	1630.18
859.95	1697.77
860.12	1634.28
860.28	1785.83
860.45	1814.50
860.62	1628.14
860.79	1722.34
860.95	1720.29
861.12	1683.43
861.29	1599.46
861.46	1640.42
861.63	1644.52
861.79	1738.73
861.96	1712.10
862.13	1710.05
862.30	1755.11
862.47	1654.76
862.63	1685.48
862.80	1695.72
862.97	1789.92
863.14	1730.53
863.30	1701.86
863.47	1660.90
863.64	1679.33
863.81	1671.14
863.97	1652.71
864.14	1724.39
864.31	1679.33
864.48	1712.10
864.65	1660.90
864.81	1722.34
864.98	1708.01
865.15	1769.44
865.32	1685.48
865.48	1771.49
865.65	1837.03
865.82	1658.85
865.98	1652.71
866.15	1804.26
866.32	1722.34
866.49	1601.51
866.65	1746.92
866.82	1566.70
866.99	1669.09
867.16	1689.57
867.32	1665.00
867.49	1697.77
867.66	1681.38
867.83	1689.57
867.99	1619.94
868.16	1675.24
868.33	1621.99
868.49	1742.82
868.66	1724.39
868.83	1783.78
868.99	1712.10
869.16	1748.97
869.33	1665.00
869.50	1763.30
869.66	1691.62
869.83	1724.39
870.00	1613.80
870.16	1757.16
870.33	1626.09
870.50	1738.73
870.66	1667.05
870.83	1798.12
871.00	1660.90
871.17	1744.87
871.33	1695.72
871.50	1693.67
871.67	1685.48
871.83	1667.05
872.00	1757.16
872.17	1677.29
872.33	1834.98
872.50	1755.11
872.67	1652.71
872.83	1685.48
873.00	1757.16
873.17	1671.14
873.33	1759.21
873.50	1748.97
873.67	1652.71
873.83	1626.09
874.00	1675.24
874.16	1796.07
874.33	1689.57
874.50	1648.61
874.66	1695.72
874.83	1673.19
875.00	1761.25
875.16	1658.85
875.33	1779.68
875.50	1589.22
875.66	1679.33
875.83	1751.01
875.99	1669.09
876.16	1710.05
876.33	1628.14
876.49	1665.00
876.66	1693.67
876.83	1671.14
876.99	1583.08
877.16	1726.44
877.32	1710.05
877.49	1691.62
877.66	1630.18
877.82	1708.01
877.99	1761.25
878.15	1662.95
878.32	1781.73
878.49	1763.30
878.65	1675.24
878.82	1841.12
878.98	1722.34
879.15	1703.91
879.32	1679.33
879.48	1730.53
879.65	1773.54
879.81	1669.09
879.98	1615.85
880.15	1650.66
880.31	1687.53
880.48	1671.14
880.64	1701.86
880.81	1734.63
880.97	1730.53
881.14	1808.36
881.31	1626.09
881.47	1796.07
881.64	1671.14
881.80	1597.42
881.97	1673.19
882.13	1716.20
882.30	1628.14
882.47	1626.09
882.63	1603.56
882.80	1726.44
882.96	1734.63
883.13	1765.35
883.29	1642.47
883.46	1697.77
883.62	1789.92
883.79	1671.14
883.95	1722.34
884.12	1734.63
884.29	1794.02
884.45	1714.15
884.62	1767.40
884.78	1626.09
884.95	1757.16
885.11	1693.67
885.28	1740.77
885.44	1646.57
885.61	1650.66
885.77	1804.26
885.94	1720.29
886.10	1720.29
886.27	1660.90
886.43	1853.41
886.60	1771.49
886.76	1652.71
886.93	1589.22
887.09	1673.19
887.26	1615.85
887.42	1738.73
887.59	1755.11
887.75	1822.69
887.92	1720.29
888.08	1761.25
888.25	1804.26
888.41	1699.81
888.58	1636.33
888.74	1624.04
888.91	1695.72
>>>>>End Processed Spectral Data<<<<<
