SpectraSuite Data File
++++++++++++++++++++++++++++++++++++
Date: Mon Jun 06 13:01:17 CEST 2016
User: root
Dark Spectrum Present: No
Reference Spectrum Present: No
Number of Sampled Component Spectra: 1
Spectrometers: USB4C02835
Integration Time (usec): 100000 (USB4C02835)
Spectra Averaged: 1 (USB4C02835)
Boxcar Smoothing: 0 (USB4C02835)
Correct for Electrical Dark: No (USB4C02835)
Strobe/Lamp Enabled: No (USB4C02835)
Correct for Detector Non-linearity: No (USB4C02835)
Correct for Stray Light: No (USB4C02835)
Number of Pixels in Processed Spectrum: 3648
>>>>>Begin Processed Spectral Data<<<<<
177.47	1454.06
177.69	1454.06
177.91	1454.06
178.13	1505.26
178.36	1458.15
178.58	1687.53
178.80	1691.62
179.02	1574.89
179.24	1675.24
179.46	1681.38
179.68	1701.86
179.90	1703.91
180.13	1640.42
180.35	1667.05
180.57	1697.77
180.79	1814.50
181.01	1679.33
181.23	1812.45
181.45	1755.11
181.67	1732.58
181.90	1755.11
182.12	1685.48
182.34	1634.28
182.56	1669.09
182.78	1759.21
183.00	1638.38
183.22	1722.34
183.44	1566.70
183.66	1783.78
183.89	1767.40
184.11	1693.67
184.33	1738.73
184.55	1718.25
184.77	1708.01
184.99	1722.34
185.21	1691.62
185.43	1820.64
185.65	1574.89
185.87	1722.34
186.10	1763.30
186.32	1826.79
186.54	1718.25
186.76	1751.01
186.98	1722.34
187.20	1656.81
187.42	1689.57
187.64	1699.81
187.86	1726.44
188.08	1748.97
188.30	1675.24
188.52	1675.24
188.75	1767.40
188.97	1824.74
189.19	1673.19
189.41	1642.47
189.63	1691.62
189.85	1716.20
190.07	1660.90
190.29	1660.90
190.51	1716.20
190.73	1662.95
190.95	1890.28
191.17	1656.81
191.39	1636.33
191.61	1685.48
191.84	1599.46
192.06	1656.81
192.28	1646.57
192.50	1816.55
192.72	1761.25
192.94	1681.38
193.16	1730.53
193.38	1744.87
193.60	1675.24
193.82	1648.61
194.04	1734.63
194.26	1673.19
194.48	1761.25
194.70	1703.91
194.92	1667.05
195.14	1665.00
195.36	1644.52
195.58	1689.57
195.80	1652.71
196.02	1656.81
196.24	1675.24
196.46	1626.09
196.69	1642.47
196.91	1865.70
197.13	1681.38
197.35	1593.32
197.57	1841.12
197.79	1726.44
198.01	1638.38
198.23	1771.49
198.45	1660.90
198.67	1703.91
198.89	1617.90
199.11	1689.57
199.33	1665.00
199.55	1529.83
199.77	1677.29
199.99	1798.12
200.21	1679.33
200.43	1691.62
200.65	1687.53
200.87	1568.74
201.09	1691.62
201.31	1638.38
201.53	1701.86
201.75	1738.73
201.97	1742.82
202.19	1646.57
202.41	1687.53
202.63	1800.16
202.85	1787.88
203.07	1722.34
203.29	1669.09
203.51	1583.08
203.73	1712.10
203.95	1849.32
204.17	1740.77
204.39	1699.81
204.61	1656.81
204.83	1632.23
205.05	1626.09
205.27	1730.53
205.49	1839.08
205.71	1681.38
205.93	1603.56
206.15	1652.71
206.37	1705.96
206.59	1722.34
206.81	1667.05
207.03	1673.19
207.25	1675.24
207.47	1755.11
207.69	1681.38
207.91	1740.77
208.13	1822.69
208.34	1753.06
208.56	1681.38
208.78	1771.49
209.00	1648.61
209.22	1624.04
209.44	1677.29
209.66	1681.38
209.88	1673.19
210.10	1656.81
210.32	1605.61
210.54	1746.92
210.76	1683.43
210.98	1742.82
211.20	1642.47
211.42	1724.39
211.64	1761.25
211.86	1746.92
212.08	1767.40
212.30	1675.24
212.52	1742.82
212.74	1626.09
212.96	1740.77
213.17	1767.40
213.39	1742.82
213.61	1710.05
213.83	1771.49
214.05	1560.55
214.27	1775.59
214.49	1652.71
214.71	1665.00
214.93	1837.03
215.15	1701.86
215.37	1763.30
215.59	1626.09
215.81	1679.33
216.03	1755.11
216.24	1738.73
216.46	1740.77
216.68	1734.63
216.90	1708.01
217.12	1667.05
217.34	1736.68
217.56	1693.67
217.78	1800.16
218.00	1759.21
218.22	1714.15
218.44	1736.68
218.66	1742.82
218.87	1826.79
219.09	1679.33
219.31	1658.85
219.53	1703.91
219.75	1683.43
219.97	1710.05
220.19	1757.16
220.41	1753.06
220.63	1796.07
220.85	1800.16
221.06	1699.81
221.28	1816.55
221.50	1744.87
221.72	1673.19
221.94	1740.77
222.16	1673.19
222.38	1781.73
222.60	1654.76
222.82	1738.73
223.03	1757.16
223.25	1626.09
223.47	1765.35
223.69	1822.69
223.91	1689.57
224.13	1705.96
224.35	1644.52
224.57	1834.98
224.78	1726.44
225.00	1667.05
225.22	1648.61
225.44	1771.49
225.66	1703.91
225.88	1705.96
226.10	1675.24
226.32	1646.57
226.53	1748.97
226.75	1658.85
226.97	1685.48
227.19	1714.15
227.41	1689.57
227.63	1708.01
227.85	1636.33
228.06	1787.88
228.28	1675.24
228.50	1685.48
228.72	1697.77
228.94	1673.19
229.16	1570.79
229.37	1626.09
229.59	1710.05
229.81	1804.26
230.03	1658.85
230.25	1699.81
230.47	1701.86
230.69	1687.53
230.90	1847.27
231.12	1697.77
231.34	1683.43
231.56	1748.97
231.78	1632.23
232.00	1677.29
232.21	1660.90
232.43	1640.42
232.65	1603.56
232.87	1783.78
233.09	1611.75
233.30	1650.66
233.52	1828.84
233.74	1695.72
233.96	1685.48
234.18	1720.29
234.40	1677.29
234.61	1763.30
234.83	1634.28
235.05	1638.38
235.27	1884.13
235.49	1746.92
235.70	1636.33
235.92	1804.26
236.14	1691.62
236.36	1791.97
236.58	1613.80
236.79	1744.87
237.01	1671.14
237.23	1656.81
237.45	1791.97
237.67	1640.42
237.88	1673.19
238.10	1820.64
238.32	1640.42
238.54	1607.66
238.76	1710.05
238.97	1658.85
239.19	1644.52
239.41	1697.77
239.63	1783.78
239.85	1699.81
240.06	1753.06
240.28	1675.24
240.50	1736.68
240.72	1695.72
240.93	1734.63
241.15	1802.21
241.37	1724.39
241.59	1794.02
241.81	1671.14
242.02	1679.33
242.24	1689.57
242.46	1746.92
242.68	1636.33
242.89	1703.91
243.11	1789.92
243.33	1751.01
243.55	1728.49
243.76	1751.01
243.98	1591.27
244.20	1636.33
244.42	1708.01
244.64	1722.34
244.85	1689.57
245.07	1667.05
245.29	1716.20
245.51	1693.67
245.72	1689.57
245.94	1734.63
246.16	1716.20
246.38	1773.54
246.59	1685.48
246.81	1640.42
247.03	1652.71
247.24	1624.04
247.46	1701.86
247.68	1675.24
247.90	1650.66
248.11	1724.39
248.33	1730.53
248.55	1587.18
248.77	1718.25
248.98	1728.49
249.20	1834.98
249.42	1736.68
249.64	1710.05
249.85	1667.05
250.07	1687.53
250.29	1783.78
250.50	1767.40
250.72	1619.94
250.94	1689.57
251.16	1822.69
251.37	1771.49
251.59	1705.96
251.81	1708.01
252.02	1787.88
252.24	1634.28
252.46	1779.68
252.68	1656.81
252.89	1667.05
253.11	1599.46
253.33	1812.45
253.54	1800.16
253.76	1621.99
253.98	1615.85
254.20	1667.05
254.41	1615.85
254.63	1656.81
254.85	1609.70
255.06	1703.91
255.28	1724.39
255.50	1632.23
255.71	1644.52
255.93	1638.38
256.15	1671.14
256.36	1671.14
256.58	1675.24
256.80	1691.62
257.02	1699.81
257.23	1632.23
257.45	1705.96
257.67	1675.24
257.88	1662.95
258.10	1646.57
258.32	1732.58
258.53	1722.34
258.75	1794.02
258.97	1640.42
259.18	1693.67
259.40	1669.09
259.62	1880.04
259.83	1771.49
260.05	1697.77
260.27	1988.58
260.48	1775.59
260.70	1626.09
260.92	1656.81
261.13	1656.81
261.35	1681.38
261.57	1644.52
261.78	1611.75
262.00	1648.61
262.22	1771.49
262.43	1728.49
262.65	1683.43
262.86	1714.15
263.08	1832.93
263.30	1665.00
263.51	1599.46
263.73	1673.19
263.95	1755.11
264.16	1652.71
264.38	1673.19
264.60	1697.77
264.81	1673.19
265.03	1722.34
265.25	1728.49
265.46	1710.05
265.68	1748.97
265.89	1763.30
266.11	1613.80
266.33	1761.25
266.54	1699.81
266.76	1726.44
266.98	1646.57
267.19	1783.78
267.41	1773.54
267.62	1722.34
267.84	1599.46
268.06	1748.97
268.27	1675.24
268.49	1699.81
268.70	1626.09
268.92	1724.39
269.14	1648.61
269.35	1632.23
269.57	1730.53
269.79	1699.81
270.00	1652.71
270.22	1783.78
270.43	1701.86
270.65	1593.32
270.87	1755.11
271.08	1667.05
271.30	1693.67
271.51	1759.21
271.73	1761.25
271.95	1742.82
272.16	1681.38
272.38	1734.63
272.59	1742.82
272.81	1703.91
273.02	1654.76
273.24	1769.44
273.46	1767.40
273.67	1689.57
273.89	1681.38
274.10	1652.71
274.32	1796.07
274.54	1669.09
274.75	1714.15
274.97	1677.29
275.18	1708.01
275.40	1794.02
275.61	1712.10
275.83	1712.10
276.05	1628.14
276.26	1669.09
276.48	1744.87
276.69	1570.79
276.91	1683.43
277.12	1734.63
277.34	1724.39
277.55	1740.77
277.77	1681.38
277.99	1718.25
278.20	1665.00
278.42	1632.23
278.63	1646.57
278.85	1689.57
279.06	1628.14
279.28	1757.16
279.49	1771.49
279.71	1673.19
279.93	1658.85
280.14	1699.81
280.36	1701.86
280.57	1746.92
280.79	1794.02
281.00	1685.48
281.22	1644.52
281.43	1755.11
281.65	1615.85
281.86	1642.47
282.08	1654.76
282.29	1806.31
282.51	1607.66
282.73	1601.51
282.94	1585.13
283.16	1740.77
283.37	1828.84
283.59	1695.72
283.80	1685.48
284.02	1746.92
284.23	1703.91
284.45	1626.09
284.66	1652.71
284.88	1695.72
285.09	1671.14
285.31	1802.21
285.52	1748.97
285.74	1708.01
285.95	1701.86
286.17	1665.00
286.38	1699.81
286.60	1681.38
286.81	1613.80
287.03	1636.33
287.24	1726.44
287.46	1652.71
287.67	1701.86
287.89	1898.47
288.10	1652.71
288.32	1734.63
288.53	1789.92
288.75	1771.49
288.96	1660.90
289.18	1658.85
289.39	1791.97
289.61	1769.44
289.82	1826.79
290.04	1763.30
290.25	1611.75
290.47	1611.75
290.68	1710.05
290.90	1722.34
291.11	1615.85
291.33	1720.29
291.54	1634.28
291.76	1648.61
291.97	1693.67
292.18	1689.57
292.40	1705.96
292.61	1626.09
292.83	1783.78
293.04	1746.92
293.26	1744.87
293.47	1646.57
293.69	1656.81
293.90	1650.66
294.12	1794.02
294.33	1736.68
294.55	1671.14
294.76	1753.06
294.97	1751.01
295.19	1832.93
295.40	1662.95
295.62	1710.05
295.83	1679.33
296.05	1753.06
296.26	1773.54
296.48	1642.47
296.69	1691.62
296.90	1607.66
297.12	1679.33
297.33	1722.34
297.55	1642.47
297.76	1783.78
297.98	1810.40
298.19	1689.57
298.41	1648.61
298.62	1601.51
298.83	1681.38
299.05	1671.14
299.26	1748.97
299.48	1693.67
299.69	1742.82
299.90	1751.01
300.12	1677.29
300.33	1730.53
300.55	1701.86
300.76	1738.73
300.98	1603.56
301.19	1673.19
301.40	1730.53
301.62	1734.63
301.83	1740.77
302.05	1675.24
302.26	1691.62
302.47	1757.16
302.69	1656.81
302.90	1697.77
303.12	1648.61
303.33	1798.12
303.54	1830.88
303.76	1638.38
303.97	1726.44
304.19	1783.78
304.40	1589.22
304.61	1736.68
304.83	1773.54
305.04	1781.73
305.26	1656.81
305.47	1632.23
305.68	1703.91
305.90	1652.71
306.11	1734.63
306.33	1673.19
306.54	1650.66
306.75	1644.52
306.97	1669.09
307.18	1660.90
307.39	1703.91
307.61	1763.30
307.82	1669.09
308.04	1730.53
308.25	1665.00
308.46	1716.20
308.68	1718.25
308.89	1681.38
309.10	1781.73
309.32	1742.82
309.53	1740.77
309.74	1785.83
309.96	1662.95
310.17	1726.44
310.39	1757.16
310.60	1677.29
310.81	1736.68
311.03	1716.20
311.24	1814.50
311.45	1718.25
311.67	1769.44
311.88	1779.68
312.09	1687.53
312.31	1599.46
312.52	1683.43
312.73	1648.61
312.95	1656.81
313.16	1679.33
313.37	1722.34
313.59	1703.91
313.80	1755.11
314.01	1832.93
314.23	1679.33
314.44	1669.09
314.65	1634.28
314.87	1675.24
315.08	1697.77
315.29	1736.68
315.51	1591.27
315.72	1591.27
315.93	1855.46
316.15	1714.15
316.36	1683.43
316.57	1763.30
316.79	1730.53
317.00	1667.05
317.21	1779.68
317.43	1714.15
317.64	1781.73
317.85	1714.15
318.07	1599.46
318.28	1665.00
318.49	1740.77
318.70	1902.56
318.92	1841.12
319.13	1828.84
319.34	1877.99
319.56	1728.49
319.77	1785.83
319.98	1818.60
320.20	1802.21
320.41	1714.15
320.62	1634.28
320.83	1722.34
321.05	1771.49
321.26	1681.38
321.47	1669.09
321.69	1773.54
321.90	1689.57
322.11	1646.57
322.32	1730.53
322.54	1787.88
322.75	1759.21
322.96	1845.22
323.18	1585.13
323.39	1607.66
323.60	1634.28
323.81	1779.68
324.03	1687.53
324.24	1669.09
324.45	1746.92
324.66	1642.47
324.88	1738.73
325.09	1771.49
325.30	1708.01
325.52	1744.87
325.73	1751.01
325.94	1593.32
326.15	1660.90
326.37	1646.57
326.58	1716.20
326.79	1796.07
327.00	1697.77
327.22	1732.58
327.43	1691.62
327.64	1624.04
327.85	1712.10
328.07	1660.90
328.28	1853.41
328.49	1732.58
328.70	1718.25
328.92	1697.77
329.13	1611.75
329.34	1753.06
329.55	1794.02
329.76	1763.30
329.98	1673.19
330.19	1808.36
330.40	1742.82
330.61	1693.67
330.83	1705.96
331.04	1517.54
331.25	1736.68
331.46	1673.19
331.68	1611.75
331.89	1712.10
332.10	1730.53
332.31	1705.96
332.52	1677.29
332.74	1816.55
332.95	1624.04
333.16	1701.86
333.37	1695.72
333.58	1726.44
333.80	1748.97
334.01	1603.56
334.22	1685.48
334.43	1662.95
334.64	1693.67
334.86	1585.13
335.07	1628.14
335.28	1765.35
335.49	1617.90
335.70	1728.49
335.92	1693.67
336.13	1798.12
336.34	1718.25
336.55	1755.11
336.76	1746.92
336.98	1599.46
337.19	1648.61
337.40	1816.55
337.61	1802.21
337.82	1671.14
338.04	1621.99
338.25	1624.04
338.46	1695.72
338.67	1642.47
338.88	1628.14
339.09	1683.43
339.31	1769.44
339.52	1630.18
339.73	1640.42
339.94	1716.20
340.15	1781.73
340.36	1714.15
340.58	1730.53
340.79	1603.56
341.00	1724.39
341.21	1619.94
341.42	1839.08
341.63	1738.73
341.85	1730.53
342.06	1648.61
342.27	1632.23
342.48	1720.29
342.69	1628.14
342.90	1662.95
343.12	1755.11
343.33	1652.71
343.54	1771.49
343.75	1851.36
343.96	1671.14
344.17	1632.23
344.38	1687.53
344.60	1699.81
344.81	1642.47
345.02	1665.00
345.23	1759.21
345.44	1796.07
345.65	1712.10
345.86	1730.53
346.07	1681.38
346.29	1652.71
346.50	1712.10
346.71	1769.44
346.92	1794.02
347.13	1783.78
347.34	1611.75
347.55	1685.48
347.76	1775.59
347.98	1714.15
348.19	1646.57
348.40	1832.93
348.61	1640.42
348.82	1744.87
349.03	1796.07
349.24	1671.14
349.45	1802.21
349.66	1601.51
349.88	1667.05
350.09	1607.66
350.30	1806.31
350.51	1757.16
350.72	1746.92
350.93	1755.11
351.14	1644.52
351.35	1751.01
351.56	1658.85
351.77	1632.23
351.99	1771.49
352.20	1845.22
352.41	1755.11
352.62	1554.41
352.83	1736.68
353.04	1683.43
353.25	1585.13
353.46	1708.01
353.67	1830.88
353.88	1617.90
354.09	1736.68
354.30	1648.61
354.52	1685.48
354.73	1701.86
354.94	1720.29
355.15	1667.05
355.36	1804.26
355.57	1685.48
355.78	1738.73
355.99	1644.52
356.20	1656.81
356.41	1705.96
356.62	1738.73
356.83	1693.67
357.04	1742.82
357.25	1607.66
357.46	1646.57
357.68	1591.27
357.89	1691.62
358.10	1722.34
358.31	1648.61
358.52	1638.38
358.73	1705.96
358.94	1669.09
359.15	1607.66
359.36	1740.77
359.57	1632.23
359.78	1693.67
359.99	1740.77
360.20	1683.43
360.41	1673.19
360.62	1753.06
360.83	1767.40
361.04	1718.25
361.25	1748.97
361.46	1865.70
361.67	1771.49
361.88	1718.25
362.09	1656.81
362.30	1736.68
362.51	1650.66
362.72	1695.72
362.93	1751.01
363.14	1751.01
363.35	1720.29
363.56	1599.46
363.78	1677.29
363.99	1728.49
364.20	1624.04
364.41	1724.39
364.62	1810.40
364.83	1626.09
365.04	1636.33
365.25	1689.57
365.46	1849.32
365.67	1636.33
365.88	1634.28
366.09	1624.04
366.30	1615.85
366.51	1720.29
366.72	1685.48
366.93	1611.75
367.14	1691.62
367.35	1779.68
367.56	1716.20
367.77	1730.53
367.98	1689.57
368.18	1755.11
368.39	1738.73
368.60	1683.43
368.81	1708.01
369.02	1714.15
369.23	1716.20
369.44	1640.42
369.65	1689.57
369.86	1765.35
370.07	1767.40
370.28	1695.72
370.49	1722.34
370.70	1730.53
370.91	1591.27
371.12	1529.83
371.33	1710.05
371.54	1695.72
371.75	1728.49
371.96	1609.70
372.17	1708.01
372.38	1728.49
372.59	1746.92
372.80	1685.48
373.01	1648.61
373.22	1644.52
373.43	1683.43
373.64	1609.70
373.85	1726.44
374.06	1834.98
374.26	1826.79
374.47	1720.29
374.68	1779.68
374.89	1724.39
375.10	1695.72
375.31	1787.88
375.52	1779.68
375.73	1708.01
375.94	1617.90
376.15	1861.60
376.36	1617.90
376.57	1535.98
376.78	1665.00
376.99	1669.09
377.20	1722.34
377.40	1714.15
377.61	1787.88
377.82	1662.95
378.03	1767.40
378.24	1714.15
378.45	1650.66
378.66	1687.53
378.87	1595.37
379.08	1640.42
379.29	1701.86
379.50	1800.16
379.71	1726.44
379.91	1755.11
380.12	1761.25
380.33	1742.82
380.54	1644.52
380.75	1658.85
380.96	1675.24
381.17	1761.25
381.38	1732.58
381.59	1781.73
381.80	1718.25
382.00	1867.75
382.21	1734.63
382.42	1794.02
382.63	1904.61
382.84	1613.80
383.05	1826.79
383.26	1779.68
383.47	1744.87
383.68	1769.44
383.88	1777.64
384.09	1746.92
384.30	1818.60
384.51	1796.07
384.72	1611.75
384.93	1652.71
385.14	1691.62
385.35	1767.40
385.55	1630.18
385.76	1718.25
385.97	1812.45
386.18	1722.34
386.39	1681.38
386.60	1685.48
386.81	1697.77
387.02	1644.52
387.22	1671.14
387.43	1818.60
387.64	1820.64
387.85	1867.75
388.06	2242.53
388.27	4247.49
388.48	6901.65
388.68	8187.78
388.89	9647.98
389.10	9824.11
389.31	8599.42
389.52	7579.53
389.73	6748.06
389.93	6205.35
390.14	5896.10
390.35	5218.22
390.56	4655.03
390.77	3661.77
390.98	2953.17
391.18	2541.53
391.39	2152.42
391.60	1910.75
391.81	1855.46
392.02	1691.62
392.23	1828.84
392.43	1712.10
392.64	1826.79
392.85	1746.92
393.06	1736.68
393.27	1759.21
393.47	1705.96
393.68	1763.30
393.89	1630.18
394.10	1751.01
394.31	1683.43
394.52	1644.52
394.72	1726.44
394.93	1755.11
395.14	1630.18
395.35	1800.16
395.56	1593.32
395.76	1701.86
395.97	1808.36
396.18	1904.61
396.39	1927.14
396.60	2004.96
396.80	1912.80
397.01	1886.18
397.22	1826.79
397.43	1890.28
397.64	1771.49
397.84	1763.30
398.05	1851.36
398.26	1726.44
398.47	1736.68
398.67	1800.16
398.88	1794.02
399.09	1796.07
399.30	1714.15
399.51	1738.73
399.71	1636.33
399.92	1714.15
400.13	1718.25
400.34	1644.52
400.54	1746.92
400.75	1740.77
400.96	1660.90
401.17	1802.21
401.37	1710.05
401.58	1630.18
401.79	1669.09
402.00	1869.80
402.21	1990.63
402.41	1871.84
402.62	2017.25
402.83	1947.62
403.04	2041.82
403.24	2058.21
403.45	1861.60
403.66	1968.10
403.87	1890.28
404.07	1892.32
404.28	1925.09
404.49	1865.70
404.70	1810.40
404.90	1697.77
405.11	1742.82
405.32	1740.77
405.52	1673.19
405.73	1738.73
405.94	1685.48
406.15	1660.90
406.35	1751.01
406.56	1742.82
406.77	1665.00
406.98	1771.49
407.18	1716.20
407.39	1816.55
407.60	1714.15
407.80	1742.82
408.01	1581.03
408.22	1726.44
408.43	1619.94
408.63	1744.87
408.84	1755.11
409.05	1665.00
409.25	1689.57
409.46	1720.29
409.67	1728.49
409.88	1693.67
410.08	1746.92
410.29	1677.29
410.50	1771.49
410.70	1746.92
410.91	1572.84
411.12	1718.25
411.32	1824.74
411.53	1673.19
411.74	1779.68
411.95	1746.92
412.15	1703.91
412.36	1800.16
412.57	1771.49
412.77	1828.84
412.98	1730.53
413.19	1724.39
413.39	1720.29
413.60	1789.92
413.81	1818.60
414.01	1640.42
414.22	1691.62
414.43	1720.29
414.63	1701.86
414.84	1748.97
415.05	1624.04
415.25	1675.24
415.46	1699.81
415.67	1732.58
415.87	1730.53
416.08	1705.96
416.29	1681.38
416.49	1695.72
416.70	1714.15
416.91	1634.28
417.11	1748.97
417.32	1656.81
417.53	1748.97
417.73	1757.16
417.94	1720.29
418.15	1763.30
418.35	1740.77
418.56	1679.33
418.77	1794.02
418.97	1656.81
419.18	1714.15
419.38	1519.59
419.59	1609.70
419.80	1705.96
420.00	1714.15
420.21	1648.61
420.42	1851.36
420.62	1796.07
420.83	1665.00
421.04	1656.81
421.24	1693.67
421.45	1712.10
421.65	1812.45
421.86	1730.53
422.07	1802.21
422.27	1705.96
422.48	1732.58
422.69	1597.42
422.89	1673.19
423.10	1718.25
423.30	1589.22
423.51	1720.29
423.72	1720.29
423.92	1728.49
424.13	1601.51
424.33	1820.64
424.54	1701.86
424.75	1697.77
424.95	1806.31
425.16	1693.67
425.36	1646.57
425.57	1716.20
425.78	1812.45
425.98	1785.83
426.19	1658.85
426.39	1648.61
426.60	1781.73
426.81	1720.29
427.01	1746.92
427.22	1634.28
427.42	1654.76
427.63	1654.76
427.83	1693.67
428.04	1787.88
428.25	1789.92
428.45	1775.59
428.66	1753.06
428.86	1734.63
429.07	1701.86
429.28	1742.82
429.48	1699.81
429.69	1685.48
429.89	1710.05
430.10	1679.33
430.30	1699.81
430.51	1777.64
430.71	1607.66
430.92	1699.81
431.13	1722.34
431.33	1746.92
431.54	1720.29
431.74	1877.99
431.95	1845.22
432.15	1611.75
432.36	1681.38
432.56	1757.16
432.77	1785.83
432.98	1822.69
433.18	1759.21
433.39	1681.38
433.59	1710.05
433.80	1867.75
434.00	1822.69
434.21	1628.14
434.41	1621.99
434.62	1798.12
434.82	1662.95
435.03	1689.57
435.23	1791.97
435.44	1662.95
435.64	1734.63
435.85	1746.92
436.06	1718.25
436.26	1845.22
436.47	1644.52
436.67	1716.20
436.88	1748.97
437.08	1699.81
437.29	1736.68
437.49	1701.86
437.70	1732.58
437.90	1669.09
438.11	1914.85
438.31	1789.92
438.52	1830.88
438.72	1789.92
438.93	1935.33
439.13	1853.41
439.34	1789.92
439.54	1751.01
439.75	1779.68
439.95	1849.32
440.16	1744.87
440.36	1800.16
440.57	1839.08
440.77	1728.49
440.98	1757.16
441.18	1785.83
441.39	1746.92
441.59	1681.38
441.80	1773.54
442.00	1716.20
442.21	1746.92
442.41	1640.42
442.62	1681.38
442.82	1712.10
443.02	1669.09
443.23	1755.11
443.43	1722.34
443.64	1783.78
443.84	1708.01
444.05	1798.12
444.25	1648.61
444.46	1691.62
444.66	1742.82
444.87	1806.31
445.07	1640.42
445.28	1746.92
445.48	1796.07
445.69	1683.43
445.89	1888.23
446.09	1714.15
446.30	2080.74
446.50	2623.45
446.71	3649.48
446.91	4321.21
447.12	4693.94
447.32	4835.25
447.53	4274.11
447.73	3786.69
447.93	3520.46
448.14	3258.32
448.34	3219.41
448.55	2934.74
448.75	2807.77
448.96	2688.98
449.16	2459.61
449.36	2287.58
449.57	2093.02
449.77	1824.74
449.98	1822.69
450.18	1751.01
450.39	1832.93
450.59	1773.54
450.79	1810.40
451.00	1685.48
451.20	1726.44
451.41	1699.81
451.61	1777.64
451.81	1714.15
452.02	1695.72
452.22	1736.68
452.43	1640.42
452.63	1730.53
452.84	1730.53
453.04	1714.15
453.24	1763.30
453.45	1689.57
453.65	1730.53
453.86	1765.35
454.06	1699.81
454.26	1746.92
454.47	1665.00
454.67	1814.50
454.87	1744.87
455.08	1726.44
455.28	1929.19
455.49	1742.82
455.69	1744.87
455.89	1830.88
456.10	1871.84
456.30	1673.19
456.51	1781.73
456.71	1757.16
456.91	1740.77
457.12	1689.57
457.32	1736.68
457.52	1748.97
457.73	1777.64
457.93	1677.29
458.14	1736.68
458.34	1640.42
458.54	1691.62
458.75	1689.57
458.95	1804.26
459.15	1744.87
459.36	1759.21
459.56	1763.30
459.76	1767.40
459.97	1732.58
460.17	1644.52
460.37	1771.49
460.58	1759.21
460.78	1757.16
460.99	1689.57
461.19	1746.92
461.39	1693.67
461.60	1726.44
461.80	1660.90
462.00	1693.67
462.21	1714.15
462.41	1681.38
462.61	1669.09
462.82	1599.46
463.02	1787.88
463.22	1734.63
463.43	1861.60
463.63	1748.97
463.83	1804.26
464.04	1755.11
464.24	1722.34
464.44	1691.62
464.64	1744.87
464.85	1816.55
465.05	1748.97
465.25	1722.34
465.46	1615.85
465.66	1720.29
465.86	1853.41
466.07	1689.57
466.27	1634.28
466.47	1630.18
466.68	1572.84
466.88	1853.41
467.08	1708.01
467.29	1791.97
467.49	1728.49
467.69	1767.40
467.89	1740.77
468.10	1724.39
468.30	1832.93
468.50	1759.21
468.71	1726.44
468.91	1585.13
469.11	1857.51
469.31	1783.78
469.52	1632.23
469.72	1880.04
469.92	1763.30
470.13	1687.53
470.33	1669.09
470.53	1808.36
470.73	2099.17
470.94	2269.15
471.14	2359.26
471.34	2508.76
471.54	2410.46
471.75	2156.51
471.95	2156.51
472.15	2123.74
472.36	2150.37
472.56	2035.68
472.76	2072.54
472.96	2009.06
473.17	1970.15
473.37	1851.36
473.57	1859.56
473.77	1787.88
473.98	1730.53
474.18	1779.68
474.38	1808.36
474.58	1773.54
474.79	1685.48
474.99	1761.25
475.19	1769.44
475.39	1708.01
475.60	1730.53
475.80	1669.09
476.00	1753.06
476.20	1675.24
476.41	1732.58
476.61	1849.32
476.81	1779.68
477.01	1667.05
477.21	1849.32
477.42	1806.31
477.62	1646.57
477.82	1783.78
478.02	1714.15
478.23	1787.88
478.43	1644.52
478.63	1656.81
478.83	1689.57
479.03	1646.57
479.24	1822.69
479.44	1744.87
479.64	1714.15
479.84	1701.86
480.04	1699.81
480.25	1636.33
480.45	1656.81
480.65	1669.09
480.85	1841.12
481.06	1705.96
481.26	1751.01
481.46	1720.29
481.66	1667.05
481.86	1624.04
482.06	1742.82
482.27	1665.00
482.47	1744.87
482.67	1787.88
482.87	1595.37
483.07	1746.92
483.28	1710.05
483.48	1705.96
483.68	1697.77
483.88	1665.00
484.08	1523.69
484.29	1703.91
484.49	1677.29
484.69	1662.95
484.89	1781.73
485.09	1732.58
485.29	1751.01
485.50	1730.53
485.70	1701.86
485.90	1828.84
486.10	1742.82
486.30	1734.63
486.50	1814.50
486.71	1746.92
486.91	1644.52
487.11	1812.45
487.31	1677.29
487.51	1728.49
487.71	1656.81
487.91	1658.85
488.12	1603.56
488.32	1648.61
488.52	1667.05
488.72	1662.95
488.92	1732.58
489.12	1753.06
489.32	1818.60
489.53	1783.78
489.73	1593.32
489.93	1771.49
490.13	1708.01
490.33	1681.38
490.53	1703.91
490.73	1755.11
490.94	1624.04
491.14	1810.40
491.34	1849.32
491.54	2095.07
491.74	2582.49
491.94	2904.02
492.14	2998.23
492.34	2920.40
492.54	2803.67
492.75	2478.04
492.95	2340.83
493.15	2271.20
493.35	2287.58
493.55	2207.71
493.75	2162.66
493.95	2072.54
494.15	2011.11
494.35	1910.75
494.56	1869.80
494.76	1828.84
494.96	1730.53
495.16	1755.11
495.36	1720.29
495.56	1771.49
495.76	1677.29
495.96	1712.10
496.16	1673.19
496.36	1820.64
496.56	1665.00
496.77	1763.30
496.97	1710.05
497.17	1728.49
497.37	1681.38
497.57	1783.78
497.77	1716.20
497.97	1681.38
498.17	1796.07
498.37	1734.63
498.57	1748.97
498.77	1650.66
498.97	1714.15
499.17	1859.56
499.38	1742.82
499.58	1730.53
499.78	1779.68
499.98	1794.02
500.18	1726.44
500.38	1771.49
500.58	1890.28
500.78	2553.82
500.98	4569.02
501.18	5767.08
501.38	6854.55
501.58	7088.02
501.78	6670.23
501.98	5584.81
502.18	5052.34
502.38	4528.06
502.58	4118.47
502.78	3796.93
502.98	3727.30
503.18	3473.36
503.38	3137.49
503.59	2777.05
503.79	2723.80
503.99	2441.18
504.19	2295.77
504.39	2187.23
504.59	2074.59
504.79	2031.58
504.99	2045.92
505.19	1861.60
505.39	1880.04
505.59	1972.19
505.79	1832.93
505.99	1837.03
506.19	1830.88
506.39	1931.23
506.59	1763.30
506.79	1757.16
506.99	1824.74
507.19	1765.35
507.39	1822.69
507.59	1654.76
507.79	1732.58
507.99	1724.39
508.19	1619.94
508.39	1714.15
508.59	1775.59
508.79	1783.78
508.99	1808.36
509.19	1662.95
509.39	1693.67
509.59	1720.29
509.79	1677.29
509.99	1705.96
510.19	1806.31
510.39	1789.92
510.59	1714.15
510.79	1753.06
510.99	1654.76
511.19	1705.96
511.39	1843.17
511.59	1861.60
511.79	1871.84
511.99	1771.49
512.19	1820.64
512.38	1710.05
512.58	1742.82
512.78	1765.35
512.98	1832.93
513.18	1837.03
513.38	1570.79
513.58	1771.49
513.78	1730.53
513.98	1730.53
514.18	1703.91
514.38	1718.25
514.58	1687.53
514.78	1689.57
514.98	1677.29
515.18	1759.21
515.38	1716.20
515.58	1861.60
515.78	1726.44
515.98	1705.96
516.18	1730.53
516.38	1703.91
516.57	1658.85
516.77	1718.25
516.97	1759.21
517.17	1746.92
517.37	1578.98
517.57	1761.25
517.77	1779.68
517.97	1677.29
518.17	1804.26
518.37	1697.77
518.57	1726.44
518.77	1689.57
518.97	1748.97
519.16	1755.11
519.36	1785.83
519.56	1734.63
519.76	1677.29
519.96	1732.58
520.16	1777.64
520.36	1728.49
520.56	1708.01
520.76	1703.91
520.96	1728.49
521.16	1691.62
521.35	1699.81
521.55	1849.32
521.75	1759.21
521.95	1669.09
522.15	1693.67
522.35	1656.81
522.55	1730.53
522.75	1781.73
522.95	1656.81
523.14	1705.96
523.34	1732.58
523.54	1693.67
523.74	1771.49
523.94	1798.12
524.14	1687.53
524.34	1808.36
524.54	1761.25
524.73	1744.87
524.93	1769.44
525.13	1689.57
525.33	1701.86
525.53	1929.19
525.73	1744.87
525.93	1744.87
526.13	1689.57
526.32	1679.33
526.52	1789.92
526.72	1765.35
526.92	1740.77
527.12	1697.77
527.32	1673.19
527.52	1755.11
527.71	1779.68
527.91	1708.01
528.11	1734.63
528.31	1687.53
528.51	1665.00
528.71	1718.25
528.90	1767.40
529.10	1732.58
529.30	1834.98
529.50	1642.47
529.70	1751.01
529.90	1701.86
530.09	1730.53
530.29	1605.61
530.49	1675.24
530.69	1855.46
530.89	1736.68
531.09	1755.11
531.28	1708.01
531.48	1761.25
531.68	1728.49
531.88	1777.64
532.08	1832.93
532.28	1697.77
532.47	1779.68
532.67	1734.63
532.87	1759.21
533.07	1626.09
533.27	1740.77
533.46	1755.11
533.66	1757.16
533.86	1775.59
534.06	1611.75
534.26	1687.53
534.45	1759.21
534.65	1798.12
534.85	1787.88
535.05	1665.00
535.25	1746.92
535.44	1681.38
535.64	1822.69
535.84	1693.67
536.04	1724.39
536.24	1775.59
536.43	1695.72
536.63	1755.11
536.83	1701.86
537.03	1705.96
537.22	1654.76
537.42	1638.38
537.62	1689.57
537.82	1695.72
538.02	1761.25
538.21	1751.01
538.41	1920.99
538.61	1679.33
538.81	1732.58
539.00	1761.25
539.20	1673.19
539.40	1757.16
539.60	1771.49
539.79	1773.54
539.99	1724.39
540.19	1652.71
540.39	1718.25
540.58	1730.53
540.78	1810.40
540.98	1753.06
541.18	1804.26
541.37	1761.25
541.57	1744.87
541.77	1771.49
541.97	1628.14
542.16	1685.48
542.36	1648.61
542.56	1701.86
542.76	1931.23
542.95	1712.10
543.15	1800.16
543.35	1736.68
543.54	1716.20
543.74	1681.38
543.94	1839.08
544.14	1701.86
544.33	1794.02
544.53	1798.12
544.73	1671.14
544.93	1722.34
545.12	1673.19
545.32	1736.68
545.52	1728.49
545.71	1574.89
545.91	1695.72
546.11	1591.27
546.30	1691.62
546.50	1740.77
546.70	1759.21
546.90	1767.40
547.09	1650.66
547.29	1675.24
547.49	1779.68
547.68	1703.91
547.88	1632.23
548.08	1804.26
548.27	2240.48
548.47	1753.06
548.67	1591.27
548.87	1738.73
549.06	1615.85
549.26	1732.58
549.46	1736.68
549.65	1765.35
549.85	1665.00
550.05	1798.12
550.24	1599.46
550.44	1718.25
550.64	1714.15
550.83	1763.30
551.03	1775.59
551.23	1902.56
551.42	1779.68
551.62	1714.15
551.82	1767.40
552.01	1730.53
552.21	1798.12
552.41	1837.03
552.60	1820.64
552.80	1701.86
553.00	1710.05
553.19	1656.81
553.39	1859.56
553.59	1693.67
553.78	1789.92
553.98	1701.86
554.17	1593.32
554.37	1785.83
554.57	1824.74
554.76	1755.11
554.96	1712.10
555.16	1726.44
555.35	1658.85
555.55	1736.68
555.75	1746.92
555.94	1804.26
556.14	1671.14
556.33	1730.53
556.53	1691.62
556.73	1687.53
556.92	1802.21
557.12	1744.87
557.32	1777.64
557.51	1906.66
557.71	1783.78
557.90	1853.41
558.10	1808.36
558.30	1759.21
558.49	1728.49
558.69	1640.42
558.88	1861.60
559.08	1710.05
559.28	1714.15
559.47	1779.68
559.67	1779.68
559.86	1894.37
560.06	1744.87
560.26	1763.30
560.45	1755.11
560.65	1720.29
560.84	1855.46
561.04	1685.48
561.24	1789.92
561.43	1656.81
561.63	1804.26
561.82	1757.16
562.02	1775.59
562.22	1634.28
562.41	1734.63
562.61	1730.53
562.80	1652.71
563.00	1918.95
563.19	1699.81
563.39	1771.49
563.59	1800.16
563.78	1673.19
563.98	1609.70
564.17	1642.47
564.37	1648.61
564.56	1675.24
564.76	1683.43
564.96	1882.08
565.15	1705.96
565.35	1904.61
565.54	1765.35
565.74	1697.77
565.93	1732.58
566.13	1732.58
566.32	1736.68
566.52	1779.68
566.71	1746.92
566.91	1775.59
567.11	1753.06
567.30	1730.53
567.50	1806.31
567.69	1767.40
567.89	1720.29
568.08	1628.14
568.28	1761.25
568.47	1656.81
568.67	1769.44
568.86	1798.12
569.06	1701.86
569.25	1742.82
569.45	1634.28
569.64	1740.77
569.84	1714.15
570.04	1759.21
570.23	1691.62
570.43	1679.33
570.62	1714.15
570.82	1804.26
571.01	1728.49
571.21	1691.62
571.40	1617.90
571.60	1748.97
571.79	1767.40
571.99	1777.64
572.18	1798.12
572.38	1720.29
572.57	1748.97
572.77	1820.64
572.96	1781.73
573.16	1755.11
573.35	1759.21
573.55	1828.84
573.74	1701.86
573.94	1677.29
574.13	1705.96
574.33	1798.12
574.52	1806.31
574.71	1755.11
574.91	1732.58
575.10	1669.09
575.30	1705.96
575.49	1771.49
575.69	1685.48
575.88	1761.25
576.08	1722.34
576.27	1800.16
576.47	1755.11
576.66	1828.84
576.86	1832.93
577.05	1716.20
577.25	1812.45
577.44	1871.84
577.64	1716.20
577.83	1832.93
578.02	1785.83
578.22	1812.45
578.41	1843.17
578.61	1798.12
578.80	1710.05
579.00	1853.41
579.19	1767.40
579.39	1753.06
579.58	1757.16
579.77	1748.97
579.97	1769.44
580.16	1839.08
580.36	1832.93
580.55	1775.59
580.75	1710.05
580.94	1837.03
581.13	1834.98
581.33	1820.64
581.52	1781.73
581.72	1802.21
581.91	1843.17
582.11	1687.53
582.30	1720.29
582.49	1796.07
582.69	1828.84
582.88	1755.11
583.08	1804.26
583.27	1785.83
583.47	1726.44
583.66	1695.72
583.85	1724.39
584.05	1781.73
584.24	1736.68
584.44	1800.16
584.63	1810.40
584.82	1845.22
585.02	1877.99
585.21	1783.78
585.41	1746.92
585.60	1794.02
585.79	1828.84
585.99	1966.05
586.18	1849.32
586.37	2164.70
586.57	3344.33
586.76	9889.64
586.96	24364.68
587.15	34749.93
587.34	40375.70
587.54	42610.04
587.73	36732.37
587.93	26244.72
588.12	21786.29
588.31	18390.76
588.51	16297.74
588.70	15212.31
588.89	14223.14
589.09	12701.50
589.28	11163.48
589.47	9437.04
589.67	7862.15
589.86	6375.33
590.06	4921.27
590.25	4057.03
590.44	3192.78
590.64	2607.06
590.83	2248.67
591.02	2131.94
591.22	1945.57
591.41	1871.84
591.60	1857.51
591.80	1964.00
591.99	1695.72
592.18	1763.30
592.38	1871.84
592.57	1736.68
592.76	1726.44
592.96	1816.55
593.15	1779.68
593.34	1779.68
593.54	1695.72
593.73	1810.40
593.92	1779.68
594.12	1751.01
594.31	1863.65
594.50	1820.64
594.70	1769.44
594.89	1880.04
595.08	1658.85
595.28	1806.31
595.47	1857.51
595.66	1751.01
595.86	1687.53
596.05	1779.68
596.24	1730.53
596.43	1839.08
596.63	1810.40
596.82	1818.60
597.01	1701.86
597.21	1810.40
597.40	1712.10
597.59	1800.16
597.79	1753.06
597.98	1748.97
598.17	1748.97
598.36	1732.58
598.56	1818.60
598.75	1689.57
598.94	1845.22
599.14	1779.68
599.33	1734.63
599.52	1816.55
599.71	1697.77
599.91	1773.54
600.10	1740.77
600.29	1697.77
600.48	1732.58
600.68	1730.53
600.87	1761.25
601.06	1744.87
601.26	1734.63
601.45	1697.77
601.64	1755.11
601.83	1746.92
602.03	1728.49
602.22	1658.85
602.41	1755.11
602.60	1810.40
602.80	1802.21
602.99	1767.40
603.18	1685.48
603.37	1736.68
603.57	1779.68
603.76	1783.78
603.95	1779.68
604.14	1759.21
604.34	1685.48
604.53	1794.02
604.72	1734.63
604.91	1791.97
605.10	1787.88
605.30	1722.34
605.49	1877.99
605.68	1767.40
605.87	1771.49
606.07	1777.64
606.26	1667.05
606.45	1824.74
606.64	1753.06
606.84	1734.63
607.03	1755.11
607.22	1746.92
607.41	1667.05
607.60	1738.73
607.80	1730.53
607.99	1693.67
608.18	1730.53
608.37	1779.68
608.56	1626.09
608.76	1677.29
608.95	1828.84
609.14	1740.77
609.33	1755.11
609.52	1796.07
609.72	1699.81
609.91	1689.57
610.10	1796.07
610.29	1824.74
610.48	1841.12
610.68	1734.63
610.87	1765.35
611.06	1755.11
611.25	1724.39
611.44	1798.12
611.63	1605.61
611.83	1771.49
612.02	1621.99
612.21	1816.55
612.40	1644.52
612.59	1687.53
612.79	1652.71
612.98	1685.48
613.17	1728.49
613.36	1675.24
613.55	1847.27
613.74	1705.96
613.93	1701.86
614.13	1738.73
614.32	1738.73
614.51	1748.97
614.70	1699.81
614.89	1705.96
615.08	1671.14
615.28	2041.82
615.47	1681.38
615.66	1736.68
615.85	1687.53
616.04	1871.84
616.23	1718.25
616.42	1665.00
616.62	1726.44
616.81	1697.77
617.00	1697.77
617.19	1767.40
617.38	1683.43
617.57	1677.29
617.76	1716.20
617.95	1677.29
618.15	1679.33
618.34	1867.75
618.53	1697.77
618.72	1869.80
618.91	1761.25
619.10	1804.26
619.29	1714.15
619.48	1787.88
619.68	1681.38
619.87	1742.82
620.06	1613.80
620.25	1738.73
620.44	1677.29
620.63	1617.90
620.82	1718.25
621.01	1755.11
621.20	1681.38
621.39	1716.20
621.59	1685.48
621.78	1714.15
621.97	1724.39
622.16	1853.41
622.35	1708.01
622.54	1773.54
622.73	1755.11
622.92	1603.56
623.11	1841.12
623.30	1746.92
623.49	1759.21
623.68	1722.34
623.88	1781.73
624.07	1736.68
624.26	1683.43
624.45	1736.68
624.64	1708.01
624.83	1675.24
625.02	1722.34
625.21	1699.81
625.40	1689.57
625.59	1806.31
625.78	1796.07
625.97	1710.05
626.16	1769.44
626.35	1699.81
626.54	1712.10
626.74	1845.22
626.93	1697.77
627.12	1736.68
627.31	1783.78
627.50	1681.38
627.69	1800.16
627.88	1710.05
628.07	1687.53
628.26	1630.18
628.45	1689.57
628.64	1640.42
628.83	1705.96
629.02	1656.81
629.21	1771.49
629.40	1708.01
629.59	1642.47
629.78	1773.54
629.97	1746.92
630.16	1734.63
630.35	1701.86
630.54	1679.33
630.73	1673.19
630.92	1757.16
631.11	1642.47
631.30	1771.49
631.49	1667.05
631.68	1744.87
631.87	1742.82
632.06	1617.90
632.25	1822.69
632.44	1753.06
632.63	1740.77
632.82	1671.14
633.01	1632.23
633.20	1708.01
633.39	1650.66
633.58	1589.22
633.77	1656.81
633.96	1638.38
634.15	1763.30
634.34	1722.34
634.53	1703.91
634.72	1742.82
634.91	1574.89
635.10	1757.16
635.29	1783.78
635.48	1773.54
635.67	1609.70
635.86	1642.47
636.05	1798.12
636.24	1671.14
636.43	1703.91
636.62	1730.53
636.81	1632.23
637.00	1705.96
637.19	1716.20
637.38	1822.69
637.57	1728.49
637.76	1697.77
637.95	1722.34
638.14	1677.29
638.33	1683.43
638.52	1777.64
638.71	1587.18
638.89	1677.29
639.08	1861.60
639.27	1767.40
639.46	1746.92
639.65	1722.34
639.84	1832.93
640.03	1785.83
640.22	1665.00
640.41	1824.74
640.60	1667.05
640.79	1748.97
640.98	1632.23
641.17	1710.05
641.36	1705.96
641.55	1804.26
641.74	1615.85
641.92	1687.53
642.11	1714.15
642.30	1728.49
642.49	1767.40
642.68	1677.29
642.87	1683.43
643.06	1730.53
643.25	1712.10
643.44	1644.52
643.63	1636.33
643.82	1800.16
644.00	1656.81
644.19	1644.52
644.38	1617.90
644.57	1796.07
644.76	1740.77
644.95	1730.53
645.14	1703.91
645.33	1642.47
645.52	1718.25
645.71	1632.23
645.89	1662.95
646.08	1757.16
646.27	1675.24
646.46	1845.22
646.65	1613.80
646.84	1724.39
647.03	1691.62
647.22	1779.68
647.40	1767.40
647.59	1656.81
647.78	1652.71
647.97	1742.82
648.16	1621.99
648.35	1830.88
648.54	1748.97
648.73	1722.34
648.91	1687.53
649.10	1740.77
649.29	1648.61
649.48	1734.63
649.67	1665.00
649.86	1722.34
650.05	1697.77
650.23	1748.97
650.42	1601.51
650.61	1738.73
650.80	1708.01
650.99	1830.88
651.18	1716.20
651.36	1787.88
651.55	1708.01
651.74	1765.35
651.93	1708.01
652.12	1712.10
652.31	1740.77
652.49	1708.01
652.68	1640.42
652.87	1755.11
653.06	1708.01
653.25	1855.46
653.44	1724.39
653.62	1779.68
653.81	1693.67
654.00	1710.05
654.19	1712.10
654.38	1832.93
654.56	1730.53
654.75	1693.67
654.94	1771.49
655.13	1656.81
655.32	1693.67
655.51	1728.49
655.69	1755.11
655.88	1771.49
656.07	1642.47
656.26	1712.10
656.45	1671.14
656.63	1691.62
656.82	1716.20
657.01	1787.88
657.20	1736.68
657.38	1820.64
657.57	1691.62
657.76	1583.08
657.95	1830.88
658.14	1708.01
658.32	1697.77
658.51	1599.46
658.70	1705.96
658.89	1687.53
659.08	1742.82
659.26	1818.60
659.45	1693.67
659.64	1757.16
659.83	1687.53
660.01	1914.85
660.20	1718.25
660.39	1806.31
660.58	1523.69
660.76	1787.88
660.95	1617.90
661.14	1742.82
661.33	1687.53
661.51	1697.77
661.70	1650.66
661.89	1781.73
662.08	1701.86
662.26	1699.81
662.45	1650.66
662.64	1882.08
662.83	1718.25
663.01	1714.15
663.20	1648.61
663.39	1755.11
663.58	1744.87
663.76	1769.44
663.95	1773.54
664.14	1712.10
664.32	1697.77
664.51	1677.29
664.70	1640.42
664.89	1722.34
665.07	1646.57
665.26	1757.16
665.45	1675.24
665.64	1767.40
665.82	1669.09
666.01	1812.45
666.20	1685.48
666.38	1691.62
666.57	1787.88
666.76	2176.99
666.95	4605.88
667.13	10379.11
667.32	15511.32
667.51	17942.25
667.69	18943.71
667.88	17526.52
668.07	12506.95
668.25	9514.86
668.44	8138.63
668.63	7307.15
668.81	6981.53
669.00	6307.74
669.19	5652.39
669.38	5240.75
669.56	4589.50
669.75	3962.82
669.94	3313.61
670.12	2889.68
670.31	2512.86
670.50	2342.88
670.68	2181.09
670.87	1961.95
671.06	1787.88
671.24	1740.77
671.43	1824.74
671.62	1804.26
671.80	1669.09
671.99	1798.12
672.18	1701.86
672.36	1744.87
672.55	1726.44
672.74	1636.33
672.92	1636.33
673.11	1716.20
673.29	1673.19
673.48	1734.63
673.67	1662.95
673.85	1781.73
674.04	1755.11
674.23	1763.30
674.41	1822.69
674.60	1708.01
674.79	1599.46
674.97	1654.76
675.16	1685.48
675.34	1787.88
675.53	1695.72
675.72	1730.53
675.90	1779.68
676.09	1609.70
676.28	1834.98
676.46	1648.61
676.65	1746.92
676.83	1615.85
677.02	1722.34
677.21	1773.54
677.39	1679.33
677.58	1558.50
677.77	1609.70
677.95	1675.24
678.14	1738.73
678.32	1789.92
678.51	1583.08
678.70	1847.27
678.88	1720.29
679.07	1708.01
679.25	1716.20
679.44	1708.01
679.63	1669.09
679.81	1738.73
680.00	1763.30
680.18	1759.21
680.37	1804.26
680.55	1724.39
680.74	1595.37
680.93	1607.66
681.11	1691.62
681.30	1822.69
681.48	1783.78
681.67	1744.87
681.85	1785.83
682.04	1624.04
682.23	1734.63
682.41	1734.63
682.60	1587.18
682.78	1732.58
682.97	1587.18
683.15	1687.53
683.34	1687.53
683.53	1755.11
683.71	1679.33
683.90	1746.92
684.08	1753.06
684.27	1701.86
684.45	1796.07
684.64	1804.26
684.82	1636.33
685.01	1744.87
685.19	1734.63
685.38	1787.88
685.57	1683.43
685.75	1658.85
685.94	1730.53
686.12	1689.57
686.31	1679.33
686.49	1820.64
686.68	1642.47
686.86	1722.34
687.05	1662.95
687.23	1865.70
687.42	1720.29
687.60	1654.76
687.79	1755.11
687.97	1822.69
688.16	1740.77
688.34	1771.49
688.53	1628.14
688.71	1658.85
688.90	1808.36
689.08	1765.35
689.27	1660.90
689.45	1730.53
689.64	1798.12
689.82	1775.59
690.01	1759.21
690.19	1826.79
690.38	1748.97
690.56	1763.30
690.75	1652.71
690.93	1724.39
691.12	1576.94
691.30	1691.62
691.49	1644.52
691.67	1681.38
691.86	1769.44
692.04	1714.15
692.23	1705.96
692.41	1720.29
692.60	1841.12
692.78	1728.49
692.97	1757.16
693.15	1767.40
693.34	1806.31
693.52	1771.49
693.71	1748.97
693.89	1669.09
694.08	1697.77
694.26	1802.21
694.44	1824.74
694.63	1753.06
694.81	1626.09
695.00	1697.77
695.18	1794.02
695.37	1914.85
695.55	1677.29
695.74	1656.81
695.92	1673.19
696.10	1771.49
696.29	1658.85
696.47	1669.09
696.66	1634.28
696.84	1691.62
697.03	1753.06
697.21	1886.18
697.40	2287.58
697.58	1738.73
697.76	1681.38
697.95	1671.14
698.13	1658.85
698.32	1656.81
698.50	1640.42
698.68	1722.34
698.87	1665.00
699.05	1783.78
699.24	1789.92
699.42	1683.43
699.61	1673.19
699.79	1716.20
699.97	1734.63
700.16	1656.81
700.34	1685.48
700.53	1765.35
700.71	1726.44
700.89	1877.99
701.08	1673.19
701.26	1624.04
701.45	2107.36
701.63	1665.00
701.81	1695.72
702.00	1644.52
702.18	1722.34
702.37	1712.10
702.55	1705.96
702.73	1667.05
702.92	1554.41
703.10	1705.96
703.28	1826.79
703.47	1722.34
703.65	1730.53
703.84	1777.64
704.02	1681.38
704.20	1796.07
704.39	1599.46
704.57	1712.10
704.75	1783.78
704.94	1773.54
705.12	1701.86
705.30	1767.40
705.49	2334.68
705.67	4384.70
705.86	9504.62
706.04	12394.31
706.22	14591.78
706.41	15445.78
706.59	13915.95
706.77	9619.31
706.96	7440.27
707.14	6723.48
707.32	5963.68
707.51	5631.91
707.69	4902.84
707.87	4276.16
708.06	3549.13
708.24	3035.09
708.42	2455.51
708.61	2303.96
708.79	1955.81
708.97	1894.37
709.16	1767.40
709.34	1826.79
709.52	1746.92
709.71	1789.92
709.89	1783.78
710.07	1634.28
710.26	1667.05
710.44	1728.49
710.62	1777.64
710.80	1755.11
710.99	1773.54
711.17	1726.44
711.35	1736.68
711.54	1710.05
711.72	1755.11
711.90	1830.88
712.09	1703.91
712.27	1753.06
712.45	1783.78
712.63	1689.57
712.82	1726.44
713.00	1695.72
713.18	1828.84
713.37	1771.49
713.55	1773.54
713.73	1683.43
713.91	1740.77
714.10	1720.29
714.28	1773.54
714.46	1757.16
714.65	1646.57
714.83	1755.11
715.01	1677.29
715.19	1701.86
715.38	1619.94
715.56	1701.86
715.74	1642.47
715.92	1662.95
716.11	1798.12
716.29	1601.51
716.47	1726.44
716.65	1697.77
716.84	1583.08
717.02	1755.11
717.20	1574.89
717.38	1632.23
717.57	1718.25
717.75	1710.05
717.93	1673.19
718.11	1685.48
718.30	1646.57
718.48	1728.49
718.66	1849.32
718.84	1757.16
719.03	1675.24
719.21	1660.90
719.39	1699.81
719.57	1738.73
719.75	1779.68
719.94	1673.19
720.12	1677.29
720.30	1763.30
720.48	1705.96
720.67	1740.77
720.85	1613.80
721.03	1675.24
721.21	1665.00
721.39	1765.35
721.58	1796.07
721.76	1630.18
721.94	1785.83
722.12	1710.05
722.30	1851.36
722.49	1617.90
722.67	1681.38
722.85	1722.34
723.03	1630.18
723.21	1714.15
723.40	1720.29
723.58	1789.92
723.76	1685.48
723.94	1796.07
724.12	1671.14
724.30	1794.02
724.49	1734.63
724.67	1632.23
724.85	1722.34
725.03	1626.09
725.21	1683.43
725.40	1771.49
725.58	1703.91
725.76	1863.65
725.94	1681.38
726.12	1660.90
726.30	1617.90
726.49	1685.48
726.67	1748.97
726.85	1765.35
727.03	1796.07
727.21	2158.56
727.39	2854.87
727.57	3694.54
727.76	4163.52
727.94	4493.24
728.12	4360.13
728.30	3606.47
728.48	2912.21
728.66	2670.55
728.84	2568.15
729.03	2379.74
729.21	2072.54
729.39	1978.34
729.57	1877.99
729.75	1806.31
729.93	1734.63
730.11	1681.38
730.30	1757.16
730.48	1662.95
730.66	1712.10
730.84	1820.64
731.02	1665.00
731.20	1597.42
731.38	1730.53
731.56	1656.81
731.74	1630.18
731.93	1683.43
732.11	1691.62
732.29	1650.66
732.47	1746.92
732.65	1736.68
732.83	1798.12
733.01	1732.58
733.19	1638.38
733.37	1736.68
733.56	1654.76
733.74	1656.81
733.92	1769.44
734.10	1699.81
734.28	1783.78
734.46	1538.02
734.64	1603.56
734.82	1718.25
735.00	1658.85
735.18	1677.29
735.36	1681.38
735.54	1611.75
735.73	1720.29
735.91	1701.86
736.09	1722.34
736.27	1695.72
736.45	1675.24
736.63	1591.27
736.81	1607.66
736.99	1701.86
737.17	1736.68
737.35	1683.43
737.53	1701.86
737.71	1642.47
737.89	1748.97
738.07	1601.51
738.25	1662.95
738.43	1574.89
738.61	1646.57
738.80	1669.09
738.98	1605.61
739.16	1685.48
739.34	1681.38
739.52	1720.29
739.70	1669.09
739.88	1732.58
740.06	1773.54
740.24	1632.23
740.42	1724.39
740.60	1683.43
740.78	1652.71
740.96	1599.46
741.14	1650.66
741.32	1693.67
741.50	1558.50
741.68	1882.08
741.86	1714.15
742.04	1650.66
742.22	1636.33
742.40	1685.48
742.58	1734.63
742.76	1730.53
742.94	1748.97
743.12	1562.60
743.30	1703.91
743.48	1738.73
743.66	1632.23
743.84	1720.29
744.02	1613.80
744.20	1691.62
744.38	1652.71
744.56	1665.00
744.74	1783.78
744.92	1728.49
745.10	1789.92
745.28	1689.57
745.46	1796.07
745.64	1722.34
745.82	1767.40
746.00	1708.01
746.18	1695.72
746.36	1697.77
746.54	1677.29
746.72	1796.07
746.90	1720.29
747.08	1804.26
747.26	1677.29
747.44	1738.73
747.62	1703.91
747.80	1738.73
747.98	1683.43
748.15	1677.29
748.33	1812.45
748.51	1683.43
748.69	1751.01
748.87	1658.85
749.05	1662.95
749.23	1638.38
749.41	1822.69
749.59	1636.33
749.77	1693.67
749.95	1697.77
750.13	1728.49
750.31	1773.54
750.49	1611.75
750.67	1789.92
750.85	1808.36
751.03	1738.73
751.20	1777.64
751.38	1669.09
751.56	1710.05
751.74	1751.01
751.92	1705.96
752.10	1671.14
752.28	1736.68
752.46	1642.47
752.64	1656.81
752.82	1689.57
753.00	1730.53
753.18	1689.57
753.35	1699.81
753.53	1642.47
753.71	1685.48
753.89	1779.68
754.07	1701.86
754.25	1777.64
754.43	1671.14
754.61	1634.28
754.79	1730.53
754.97	1691.62
755.14	1806.31
755.32	1695.72
755.50	1656.81
755.68	1728.49
755.86	1621.99
756.04	1677.29
756.22	1632.23
756.40	1757.16
756.57	1771.49
756.75	1554.41
756.93	1699.81
757.11	1763.30
757.29	1644.52
757.47	1632.23
757.65	1566.70
757.82	1585.13
758.00	1660.90
758.18	1654.76
758.36	1642.47
758.54	1755.11
758.72	1640.42
758.90	1789.92
759.07	1757.16
759.25	1648.61
759.43	1667.05
759.61	1654.76
759.79	2131.94
759.97	1751.01
760.15	1626.09
760.32	1671.14
760.50	1701.86
760.68	1775.59
760.86	1611.75
761.04	1746.92
761.22	1861.60
761.39	1703.91
761.57	1787.88
761.75	1669.09
761.93	1712.10
762.11	1708.01
762.28	1689.57
762.46	1677.29
762.64	1746.92
762.82	1634.28
763.00	1697.77
763.18	1765.35
763.35	1693.67
763.53	1767.40
763.71	1730.53
763.89	1714.15
764.07	1701.86
764.24	1652.71
764.42	1648.61
764.60	1626.09
764.78	1824.74
764.96	1810.40
765.13	1767.40
765.31	1710.05
765.49	1667.05
765.67	1632.23
765.84	1697.77
766.02	1689.57
766.20	1636.33
766.38	1802.21
766.56	1740.77
766.73	1814.50
766.91	1603.56
767.09	1615.85
767.27	1732.58
767.44	1630.18
767.62	1701.86
767.80	1800.16
767.98	1708.01
768.15	1710.05
768.33	1710.05
768.51	1685.48
768.69	1714.15
768.87	1775.59
769.04	1685.48
769.22	1869.80
769.40	1769.44
769.58	1845.22
769.75	1787.88
769.93	1691.62
770.11	1703.91
770.28	1660.90
770.46	1744.87
770.64	1755.11
770.82	1722.34
770.99	1705.96
771.17	1691.62
771.35	1675.24
771.53	1667.05
771.70	1617.90
771.88	1687.53
772.06	1757.16
772.23	1640.42
772.41	1726.44
772.59	1660.90
772.77	1685.48
772.94	1705.96
773.12	1679.33
773.30	1636.33
773.47	1703.91
773.65	1658.85
773.83	1802.21
774.01	1748.97
774.18	1658.85
774.36	1640.42
774.54	1669.09
774.71	1763.30
774.89	1624.04
775.07	1648.61
775.24	1728.49
775.42	1683.43
775.60	1718.25
775.78	1667.05
775.95	1560.55
776.13	1699.81
776.31	1624.04
776.48	1746.92
776.66	1710.05
776.84	1632.23
777.01	1615.85
777.19	1687.53
777.37	1656.81
777.54	1781.73
777.72	1791.97
777.90	1634.28
778.07	1677.29
778.25	1814.50
778.43	1738.73
778.60	1658.85
778.78	1718.25
778.96	1847.27
779.13	1621.99
779.31	1677.29
779.49	1730.53
779.66	1697.77
779.84	1746.92
780.01	1740.77
780.19	1658.85
780.37	1796.07
780.54	1806.31
780.72	1685.48
780.90	1621.99
781.07	1626.09
781.25	1687.53
781.43	1781.73
781.60	1665.00
781.78	1732.58
781.95	1742.82
782.13	1687.53
782.31	1708.01
782.48	1621.99
782.66	1718.25
782.83	1855.46
783.01	1683.43
783.19	1798.12
783.36	1681.38
783.54	1705.96
783.72	1738.73
783.89	1671.14
784.07	1742.82
784.24	1755.11
784.42	1777.64
784.60	1681.38
784.77	1714.15
784.95	1581.03
785.12	1740.77
785.30	1638.38
785.47	1632.23
785.65	1656.81
785.83	1787.88
786.00	1640.42
786.18	1669.09
786.35	1632.23
786.53	1712.10
786.71	1742.82
786.88	1771.49
787.06	1724.39
787.23	1708.01
787.41	1626.09
787.58	1685.48
787.76	1656.81
787.94	1624.04
788.11	1681.38
788.29	1634.28
788.46	1650.66
788.64	1658.85
788.81	1726.44
788.99	1583.08
789.16	1656.81
789.34	1662.95
789.52	1687.53
789.69	1710.05
789.87	1554.41
790.04	1689.57
790.22	1816.55
790.39	1834.98
790.57	1677.29
790.74	1644.52
790.92	1667.05
791.09	1599.46
791.27	1718.25
791.44	1759.21
791.62	1714.15
791.79	1683.43
791.97	1621.99
792.15	1892.32
792.32	1691.62
792.50	1789.92
792.67	1804.26
792.85	1736.68
793.02	1779.68
793.20	1738.73
793.37	1736.68
793.55	1673.19
793.72	1648.61
793.90	1746.92
794.07	1687.53
794.25	1591.27
794.42	1705.96
794.60	1705.96
794.77	1810.40
794.95	1763.30
795.12	1841.12
795.30	1681.38
795.47	1589.22
795.65	1898.47
795.82	1648.61
796.00	1658.85
796.17	1730.53
796.34	1732.58
796.52	1677.29
796.69	1679.33
796.87	1728.49
797.04	1667.05
797.22	1751.01
797.39	1658.85
797.57	1738.73
797.74	1722.34
797.92	1669.09
798.09	1677.29
798.27	1708.01
798.44	1718.25
798.62	1624.04
798.79	1687.53
798.96	1681.38
799.14	1679.33
799.31	1861.60
799.49	1599.46
799.66	1634.28
799.84	1685.48
800.01	1630.18
800.19	1677.29
800.36	1628.14
800.53	1605.61
800.71	1617.90
800.88	1796.07
801.06	1728.49
801.23	1593.32
801.41	1621.99
801.58	1644.52
801.75	1703.91
801.93	1796.07
802.10	1777.64
802.28	1703.91
802.45	1679.33
802.63	1693.67
802.80	1759.21
802.97	1734.63
803.15	1595.37
803.32	1607.66
803.50	1640.42
803.67	1699.81
803.84	1660.90
804.02	1697.77
804.19	1662.95
804.37	1587.18
804.54	1673.19
804.71	1658.85
804.89	1753.06
805.06	1638.38
805.24	1671.14
805.41	1638.38
805.58	1654.76
805.76	1839.08
805.93	1720.29
806.10	1789.92
806.28	1810.40
806.45	1708.01
806.63	1671.14
806.80	1689.57
806.97	1648.61
807.15	1652.71
807.32	1722.34
807.49	1673.19
807.67	1601.51
807.84	1716.20
808.01	1603.56
808.19	1865.70
808.36	1828.84
808.54	1581.03
808.71	1667.05
808.88	1748.97
809.06	1734.63
809.23	1755.11
809.40	1609.70
809.58	1785.83
809.75	1767.40
809.92	1722.34
810.10	1847.27
810.27	1665.00
810.44	1767.40
810.62	1738.73
810.79	1755.11
810.96	1761.25
811.14	1665.00
811.31	1740.77
811.48	1720.29
811.66	1665.00
811.83	1787.88
812.00	1650.66
812.18	1730.53
812.35	1767.40
812.52	1632.23
812.69	1650.66
812.87	1699.81
813.04	1658.85
813.21	1675.24
813.39	1751.01
813.56	1640.42
813.73	1755.11
813.91	1619.94
814.08	1683.43
814.25	1689.57
814.42	1632.23
814.60	1705.96
814.77	1738.73
814.94	1683.43
815.12	1728.49
815.29	1730.53
815.46	1638.38
815.63	1779.68
815.81	1677.29
815.98	1638.38
816.15	1718.25
816.33	1710.05
816.50	1648.61
816.67	1667.05
816.84	1658.85
817.02	1677.29
817.19	1628.14
817.36	1720.29
817.53	1734.63
817.71	1662.95
817.88	1765.35
818.05	1578.98
818.22	1699.81
818.40	1816.55
818.57	1652.71
818.74	1738.73
818.91	1728.49
819.09	1703.91
819.26	1779.68
819.43	1607.66
819.60	1693.67
819.78	1656.81
819.95	1757.16
820.12	1595.37
820.29	1841.12
820.47	1769.44
820.64	1644.52
820.81	1662.95
820.98	1613.80
821.15	1705.96
821.33	1736.68
821.50	1699.81
821.67	1677.29
821.84	1710.05
822.02	1763.30
822.19	1763.30
822.36	1689.57
822.53	1660.90
822.70	1591.27
822.88	1636.33
823.05	1734.63
823.22	1757.16
823.39	1673.19
823.56	1693.67
823.74	1710.05
823.91	1669.09
824.08	1703.91
824.25	1654.76
824.42	1773.54
824.60	1662.95
824.77	1751.01
824.94	1658.85
825.11	1738.73
825.28	1603.56
825.45	1720.29
825.63	1728.49
825.80	1722.34
825.97	1769.44
826.14	1755.11
826.31	1611.75
826.48	1685.48
826.66	1644.52
826.83	1658.85
827.00	1730.53
827.17	1689.57
827.34	1677.29
827.51	1708.01
827.69	1677.29
827.86	1554.41
828.03	1734.63
828.20	1701.86
828.37	1685.48
828.54	1714.15
828.71	1714.15
828.89	1818.60
829.06	1767.40
829.23	1789.92
829.40	1638.38
829.57	1636.33
829.74	1751.01
829.91	1693.67
830.09	1624.04
830.26	1669.09
830.43	1763.30
830.60	1665.00
830.77	1734.63
830.94	1855.46
831.11	1759.21
831.28	1671.14
831.46	1734.63
831.63	1714.15
831.80	1724.39
831.97	1644.52
832.14	1687.53
832.31	1781.73
832.48	1710.05
832.65	1742.82
832.82	1734.63
832.99	1687.53
833.17	1642.47
833.34	1861.60
833.51	1726.44
833.68	1548.26
833.85	1755.11
834.02	1681.38
834.19	1662.95
834.36	1705.96
834.53	1681.38
834.70	1734.63
834.87	1705.96
835.04	1730.53
835.22	1609.70
835.39	1665.00
835.56	1572.84
835.73	1673.19
835.90	1732.58
836.07	1632.23
836.24	1794.02
836.41	1607.66
836.58	1658.85
836.75	1730.53
836.92	1751.01
837.09	1624.04
837.26	1773.54
837.43	1681.38
837.60	1746.92
837.77	1665.00
837.94	1679.33
838.12	1755.11
838.29	1753.06
838.46	1583.08
838.63	1703.91
838.80	1720.29
838.97	1748.97
839.14	1703.91
839.31	1652.71
839.48	1695.72
839.65	1701.86
839.82	1769.44
839.99	1695.72
840.16	1744.87
840.33	1669.09
840.50	1714.15
840.67	1665.00
840.84	1650.66
841.01	1642.47
841.18	1538.02
841.35	1642.47
841.52	1763.30
841.69	1730.53
841.86	1732.58
842.03	1675.24
842.20	1794.02
842.37	1691.62
842.54	1658.85
842.71	1732.58
842.88	1652.71
843.05	1761.25
843.22	1677.29
843.39	1691.62
843.56	1638.38
843.73	1665.00
843.90	1716.20
844.07	1736.68
844.24	1677.29
844.41	1734.63
844.58	1660.90
844.75	1732.58
844.92	1775.59
845.09	1671.14
845.26	1601.51
845.43	1640.42
845.60	1685.48
845.77	1740.77
845.94	1677.29
846.10	1773.54
846.27	1601.51
846.44	1544.17
846.61	1673.19
846.78	1746.92
846.95	1660.90
847.12	1615.85
847.29	1699.81
847.46	1722.34
847.63	1763.30
847.80	1730.53
847.97	1693.67
848.14	1812.45
848.31	1716.20
848.48	1611.75
848.65	1746.92
848.82	1675.24
848.98	1871.84
849.15	1716.20
849.32	1812.45
849.49	1775.59
849.66	1673.19
849.83	1728.49
850.00	1624.04
850.17	1695.72
850.34	1703.91
850.51	1679.33
850.68	1632.23
850.85	1806.31
851.01	1624.04
851.18	1693.67
851.35	1703.91
851.52	1738.73
851.69	1736.68
851.86	1654.76
852.03	1724.39
852.20	1708.01
852.37	1679.33
852.53	1667.05
852.70	1685.48
852.87	1679.33
853.04	1683.43
853.21	1636.33
853.38	1759.21
853.55	1785.83
853.72	1716.20
853.89	1626.09
854.05	1689.57
854.22	1712.10
854.39	1632.23
854.56	1738.73
854.73	1712.10
854.90	1677.29
855.07	1757.16
855.23	1693.67
855.40	1605.61
855.57	1740.77
855.74	1554.41
855.91	1757.16
856.08	1621.99
856.25	1611.75
856.41	1742.82
856.58	1695.72
856.75	1730.53
856.92	1669.09
857.09	1705.96
857.26	1572.84
857.42	1685.48
857.59	1791.97
857.76	1738.73
857.93	1732.58
858.10	1638.38
858.27	1656.81
858.43	1796.07
858.60	1658.85
858.77	1677.29
858.94	1665.00
859.11	1677.29
859.27	1738.73
859.44	1687.53
859.61	1796.07
859.78	1716.20
859.95	1658.85
860.12	1640.42
860.28	1767.40
860.45	1830.88
860.62	1691.62
860.79	1658.85
860.95	1703.91
861.12	1621.99
861.29	1689.57
861.46	1648.61
861.63	1595.37
861.79	1767.40
861.96	1615.85
862.13	1695.72
862.30	1665.00
862.47	1671.14
862.63	1628.14
862.80	1751.01
862.97	1748.97
863.14	1763.30
863.30	1697.77
863.47	1652.71
863.64	1746.92
863.81	1705.96
863.97	1568.74
864.14	1712.10
864.31	1671.14
864.48	1671.14
864.65	1771.49
864.81	1759.21
864.98	1785.83
865.15	1708.01
865.32	1824.74
865.48	1751.01
865.65	1705.96
865.82	1703.91
865.98	1681.38
866.15	1699.81
866.32	1681.38
866.49	1695.72
866.65	1796.07
866.82	1652.71
866.99	1708.01
867.16	1798.12
867.32	1665.00
867.49	1699.81
867.66	1763.30
867.83	1656.81
867.99	1611.75
868.16	1787.88
868.33	1648.61
868.49	1736.68
868.66	1705.96
868.83	1759.21
868.99	1791.97
869.16	1710.05
869.33	1738.73
869.50	1667.05
869.66	1669.09
869.83	1656.81
870.00	1665.00
870.16	1771.49
870.33	1687.53
870.50	1701.86
870.66	1695.72
870.83	1718.25
871.00	1744.87
871.17	1681.38
871.33	1730.53
871.50	1667.05
871.67	1679.33
871.83	1634.28
872.00	1812.45
872.17	1724.39
872.33	1722.34
872.50	1705.96
872.67	1630.18
872.83	1671.14
873.00	1751.01
873.17	1746.92
873.33	1736.68
873.50	1716.20
873.67	1695.72
873.83	1687.53
874.00	1701.86
874.16	1755.11
874.33	1726.44
874.50	1689.57
874.66	1722.34
874.83	1689.57
875.00	1740.77
875.16	1781.73
875.33	1789.92
875.50	1613.80
875.66	1673.19
875.83	1701.86
875.99	1771.49
876.16	1654.76
876.33	1652.71
876.49	1765.35
876.66	1732.58
876.83	1726.44
876.99	1658.85
877.16	1636.33
877.32	1751.01
877.49	1689.57
877.66	1761.25
877.82	1710.05
877.99	1669.09
878.15	1742.82
878.32	1607.66
878.49	1701.86
878.65	1755.11
878.82	1837.03
878.98	1650.66
879.15	1845.22
879.32	1703.91
879.48	1669.09
879.65	1726.44
879.81	1701.86
879.98	1619.94
880.15	1626.09
880.31	1699.81
880.48	1574.89
880.64	1787.88
880.81	1665.00
880.97	1783.78
881.14	1685.48
881.31	1732.58
881.47	1787.88
881.64	1687.53
881.80	1619.94
881.97	1705.96
882.13	1753.06
882.30	1576.94
882.47	1650.66
882.63	1632.23
882.80	1716.20
882.96	1673.19
883.13	1777.64
883.29	1648.61
883.46	1769.44
883.62	1755.11
883.79	1722.34
883.95	1732.58
884.12	1699.81
884.29	1705.96
884.45	1736.68
884.62	1722.34
884.78	1593.32
884.95	1767.40
885.11	1619.94
885.28	1720.29
885.44	1689.57
885.61	1724.39
885.77	1718.25
885.94	1714.15
886.10	1722.34
886.27	1746.92
886.43	1871.84
886.60	1720.29
886.76	1656.81
886.93	1669.09
887.09	1693.67
887.26	1624.04
887.42	1767.40
887.59	1773.54
887.75	1847.27
887.92	1779.68
888.08	1759.21
888.25	1816.55
888.41	1757.16
888.58	1736.68
888.74	1681.38
888.91	1724.39
>>>>>End Processed Spectral Data<<<<<
