SpectraSuite Data File
++++++++++++++++++++++++++++++++++++
Date: Mon Jun 06 13:32:57 CEST 2016
User: root
Dark Spectrum Present: No
Reference Spectrum Present: No
Number of Sampled Component Spectra: 1
Spectrometers: USB4C02835
Integration Time (usec): 100000 (USB4C02835)
Spectra Averaged: 1 (USB4C02835)
Boxcar Smoothing: 0 (USB4C02835)
Correct for Electrical Dark: No (USB4C02835)
Strobe/Lamp Enabled: No (USB4C02835)
Correct for Detector Non-linearity: No (USB4C02835)
Correct for Stray Light: No (USB4C02835)
Number of Pixels in Processed Spectrum: 3648
>>>>>Begin Processed Spectral Data<<<<<
177.47	1415.15
177.69	1415.15
177.91	1415.15
178.13	1449.96
178.36	1417.19
178.58	1626.09
178.80	1763.30
179.02	1632.23
179.24	1619.94
179.46	1677.29
179.68	1785.83
179.90	1761.25
180.13	1693.67
180.35	1585.13
180.57	1730.53
180.79	1775.59
181.01	1703.91
181.23	1734.63
181.45	1724.39
181.67	1703.91
181.90	1722.34
182.12	1697.77
182.34	1560.55
182.56	1665.00
182.78	1718.25
183.00	1615.85
183.22	1699.81
183.44	1601.51
183.66	1824.74
183.89	1687.53
184.11	1767.40
184.33	1748.97
184.55	1810.40
184.77	1748.97
184.99	1656.81
185.21	1626.09
185.43	1861.60
185.65	1619.94
185.87	1712.10
186.10	1910.75
186.32	1796.07
186.54	1693.67
186.76	1722.34
186.98	1710.05
187.20	1724.39
187.42	1722.34
187.64	1701.86
187.86	1734.63
188.08	1660.90
188.30	1693.67
188.52	1693.67
188.75	1755.11
188.97	1738.73
189.19	1712.10
189.41	1648.61
189.63	1624.04
189.85	1695.72
190.07	1591.27
190.29	1677.29
190.51	1759.21
190.73	1646.57
190.95	1708.01
191.17	1652.71
191.39	1609.70
191.61	1691.62
191.84	1673.19
192.06	1675.24
192.28	1634.28
192.50	1865.70
192.72	1687.53
192.94	1667.05
193.16	1775.59
193.38	1730.53
193.60	1615.85
193.82	1656.81
194.04	1785.83
194.26	1675.24
194.48	1697.77
194.70	1673.19
194.92	1685.48
195.14	1851.36
195.36	1734.63
195.58	1753.06
195.80	1738.73
196.02	1675.24
196.24	1677.29
196.46	1712.10
196.69	1677.29
196.91	1806.31
197.13	1677.29
197.35	1667.05
197.57	1775.59
197.79	1759.21
198.01	1705.96
198.23	1716.20
198.45	1701.86
198.67	1617.90
198.89	1685.48
199.11	1679.33
199.33	1685.48
199.55	1558.50
199.77	1693.67
199.99	1722.34
200.21	1693.67
200.43	1701.86
200.65	1656.81
200.87	1570.79
201.09	1683.43
201.31	1722.34
201.53	1714.15
201.75	1722.34
201.97	1742.82
202.19	1673.19
202.41	1806.31
202.63	1812.45
202.85	1683.43
203.07	1755.11
203.29	1693.67
203.51	1673.19
203.73	1701.86
203.95	1855.46
204.17	1714.15
204.39	1669.09
204.61	1742.82
204.83	1730.53
205.05	1746.92
205.27	1730.53
205.49	1771.49
205.71	1646.57
205.93	1636.33
206.15	1740.77
206.37	1636.33
206.59	1761.25
206.81	1650.66
207.03	1683.43
207.25	1589.22
207.47	1757.16
207.69	1656.81
207.91	1800.16
208.13	1718.25
208.34	1667.05
208.56	1615.85
208.78	1808.36
209.00	1693.67
209.22	1607.66
209.44	1742.82
209.66	1677.29
209.88	1683.43
210.10	1681.38
210.32	1718.25
210.54	1775.59
210.76	1669.09
210.98	1705.96
211.20	1615.85
211.42	1671.14
211.64	1740.77
211.86	1722.34
212.08	1675.24
212.30	1701.86
212.52	1591.27
212.74	1794.02
212.96	1779.68
213.17	1710.05
213.39	1744.87
213.61	1798.12
213.83	1652.71
214.05	1710.05
214.27	1759.21
214.49	1667.05
214.71	1630.18
214.93	1794.02
215.15	1712.10
215.37	1716.20
215.59	1640.42
215.81	1705.96
216.03	1740.77
216.24	1710.05
216.46	1710.05
216.68	1669.09
216.90	1740.77
217.12	1759.21
217.34	1685.48
217.56	1689.57
217.78	1779.68
218.00	1738.73
218.22	1673.19
218.44	1718.25
218.66	1693.67
218.87	1742.82
219.09	1669.09
219.31	1673.19
219.53	1777.64
219.75	1656.81
219.97	1742.82
220.19	1687.53
220.41	1738.73
220.63	1820.64
220.85	1763.30
221.06	1693.67
221.28	1759.21
221.50	1748.97
221.72	1660.90
221.94	1677.29
222.16	1683.43
222.38	1736.68
222.60	1726.44
222.82	1652.71
223.03	1685.48
223.25	1705.96
223.47	1687.53
223.69	1882.08
223.91	1697.77
224.13	1628.14
224.35	1642.47
224.57	1695.72
224.78	1757.16
225.00	1648.61
225.22	1720.29
225.44	1716.20
225.66	1722.34
225.88	1644.52
226.10	1812.45
226.32	1718.25
226.53	1746.92
226.75	1632.23
226.97	1742.82
227.19	1650.66
227.41	1693.67
227.63	1656.81
227.85	1624.04
228.06	1697.77
228.28	1765.35
228.50	1798.12
228.72	1658.85
228.94	1654.76
229.16	1673.19
229.37	1619.94
229.59	1681.38
229.81	1759.21
230.03	1740.77
230.25	1621.99
230.47	1650.66
230.69	1603.56
230.90	1779.68
231.12	1609.70
231.34	1691.62
231.56	1703.91
231.78	1624.04
232.00	1697.77
232.21	1681.38
232.43	1693.67
232.65	1644.52
232.87	1744.87
233.09	1681.38
233.30	1621.99
233.52	1785.83
233.74	1730.53
233.96	1685.48
234.18	1675.24
234.40	1675.24
234.61	1755.11
234.83	1595.37
235.05	1560.55
235.27	1802.21
235.49	1775.59
235.70	1660.90
235.92	1816.55
236.14	1689.57
236.36	1927.14
236.58	1578.98
236.79	1789.92
237.01	1693.67
237.23	1677.29
237.45	1781.73
237.67	1593.32
237.88	1689.57
238.10	1771.49
238.32	1701.86
238.54	1691.62
238.76	1748.97
238.97	1591.27
239.19	1665.00
239.41	1695.72
239.63	1732.58
239.85	1689.57
240.06	1705.96
240.28	1691.62
240.50	1744.87
240.72	1658.85
240.93	1714.15
241.15	1730.53
241.37	1677.29
241.59	1802.21
241.81	1775.59
242.02	1734.63
242.24	1689.57
242.46	1798.12
242.68	1669.09
242.89	1710.05
243.11	1740.77
243.33	1720.29
243.55	1708.01
243.76	1767.40
243.98	1708.01
244.20	1683.43
244.42	1683.43
244.64	1621.99
244.85	1685.48
245.07	1564.65
245.29	1738.73
245.51	1632.23
245.72	1673.19
245.94	1716.20
246.16	1636.33
246.38	1736.68
246.59	1691.62
246.81	1671.14
247.03	1705.96
247.24	1566.70
247.46	1648.61
247.68	1722.34
247.90	1585.13
248.11	1646.57
248.33	1816.55
248.55	1591.27
248.77	1746.92
248.98	1712.10
249.20	1765.35
249.42	1744.87
249.64	1701.86
249.85	1708.01
250.07	1751.01
250.29	1767.40
250.50	1726.44
250.72	1689.57
250.94	1695.72
251.16	1834.98
251.37	1781.73
251.59	1748.97
251.81	1753.06
252.02	1834.98
252.24	1693.67
252.46	1705.96
252.68	1665.00
252.89	1605.61
253.11	1560.55
253.33	1816.55
253.54	1701.86
253.76	1605.61
253.98	1632.23
254.20	1718.25
254.41	1626.09
254.63	1703.91
254.85	1605.61
255.06	1652.71
255.28	1738.73
255.50	1638.38
255.71	1695.72
255.93	1621.99
256.15	1624.04
256.36	1697.77
256.58	1644.52
256.80	1779.68
257.02	1708.01
257.23	1648.61
257.45	1746.92
257.67	1693.67
257.88	1693.67
258.10	1685.48
258.32	1724.39
258.53	1705.96
258.75	1751.01
258.97	1619.94
259.18	1767.40
259.40	1646.57
259.62	1777.64
259.83	1785.83
260.05	1665.00
260.27	1898.47
260.48	1753.06
260.70	1601.51
260.92	1689.57
261.13	1716.20
261.35	1638.38
261.57	1705.96
261.78	1630.18
262.00	1650.66
262.22	1708.01
262.43	1599.46
262.65	1712.10
262.86	1642.47
263.08	1820.64
263.30	1763.30
263.51	1615.85
263.73	1644.52
263.95	1843.17
264.16	1679.33
264.38	1687.53
264.60	1734.63
264.81	1683.43
265.03	1775.59
265.25	1683.43
265.46	1650.66
265.68	1744.87
265.89	1785.83
266.11	1556.46
266.33	1755.11
266.54	1773.54
266.76	1779.68
266.98	1662.95
267.19	1716.20
267.41	1728.49
267.62	1671.14
267.84	1609.70
268.06	1697.77
268.27	1705.96
268.49	1746.92
268.70	1753.06
268.92	1613.80
269.14	1675.24
269.35	1613.80
269.57	1669.09
269.79	1742.82
270.00	1712.10
270.22	1791.97
270.43	1693.67
270.65	1574.89
270.87	1638.38
271.08	1763.30
271.30	1804.26
271.51	1656.81
271.73	1693.67
271.95	1736.68
272.16	1675.24
272.38	1757.16
272.59	1644.52
272.81	1716.20
273.02	1650.66
273.24	1775.59
273.46	1775.59
273.67	1624.04
273.89	1621.99
274.10	1669.09
274.32	1748.97
274.54	1701.86
274.75	1712.10
274.97	1658.85
275.18	1738.73
275.40	1685.48
275.61	1607.66
275.83	1738.73
276.05	1589.22
276.26	1746.92
276.48	1787.88
276.69	1667.05
276.91	1710.05
277.12	1773.54
277.34	1720.29
277.55	1767.40
277.77	1681.38
277.99	1681.38
278.20	1642.47
278.42	1634.28
278.63	1642.47
278.85	1636.33
279.06	1595.37
279.28	1730.53
279.49	1730.53
279.71	1775.59
279.93	1699.81
280.14	1619.94
280.36	1673.19
280.57	1753.06
280.79	1767.40
281.00	1665.00
281.22	1714.15
281.43	1781.73
281.65	1632.23
281.86	1509.35
282.08	1716.20
282.29	1798.12
282.51	1650.66
282.73	1658.85
282.94	1619.94
283.16	1722.34
283.37	1779.68
283.59	1730.53
283.80	1775.59
284.02	1665.00
284.23	1755.11
284.45	1644.52
284.66	1632.23
284.88	1742.82
285.09	1738.73
285.31	1726.44
285.52	1728.49
285.74	1626.09
285.95	1720.29
286.17	1751.01
286.38	1703.91
286.60	1710.05
286.81	1628.14
287.03	1732.58
287.24	1689.57
287.46	1724.39
287.67	1691.62
287.89	1798.12
288.10	1699.81
288.32	1697.77
288.53	1804.26
288.75	1703.91
288.96	1705.96
289.18	1650.66
289.39	1673.19
289.61	1775.59
289.82	1732.58
290.04	1828.84
290.25	1648.61
290.47	1693.67
290.68	1652.71
290.90	1732.58
291.11	1581.03
291.33	1740.77
291.54	1691.62
291.76	1679.33
291.97	1708.01
292.18	1716.20
292.40	1718.25
292.61	1624.04
292.83	1837.03
293.04	1718.25
293.26	1722.34
293.47	1673.19
293.69	1681.38
293.90	1691.62
294.12	1814.50
294.33	1671.14
294.55	1677.29
294.76	1722.34
294.97	1804.26
295.19	1832.93
295.40	1697.77
295.62	1677.29
295.83	1794.02
296.05	1691.62
296.26	1789.92
296.48	1624.04
296.69	1619.94
296.90	1679.33
297.12	1781.73
297.33	1736.68
297.55	1669.09
297.76	1677.29
297.98	1728.49
298.19	1757.16
298.41	1648.61
298.62	1675.24
298.83	1742.82
299.05	1656.81
299.26	1650.66
299.48	1695.72
299.69	1705.96
299.90	1677.29
300.12	1683.43
300.33	1802.21
300.55	1628.14
300.76	1648.61
300.98	1693.67
301.19	1748.97
301.40	1656.81
301.62	1656.81
301.83	1740.77
302.05	1736.68
302.26	1740.77
302.47	1714.15
302.69	1603.56
302.90	1685.48
303.12	1638.38
303.33	1687.53
303.54	1861.60
303.76	1624.04
303.97	1673.19
304.19	1775.59
304.40	1697.77
304.61	1716.20
304.83	1757.16
305.04	1771.49
305.26	1703.91
305.47	1605.61
305.68	1681.38
305.90	1621.99
306.11	1740.77
306.33	1640.42
306.54	1628.14
306.75	1648.61
306.97	1589.22
307.18	1701.86
307.39	1724.39
307.61	1796.07
307.82	1697.77
308.04	1697.77
308.25	1648.61
308.46	1796.07
308.68	1697.77
308.89	1693.67
309.10	1820.64
309.32	1759.21
309.53	1734.63
309.74	1771.49
309.96	1677.29
310.17	1720.29
310.39	1665.00
310.60	1783.78
310.81	1771.49
311.03	1640.42
311.24	1667.05
311.45	1671.14
311.67	1779.68
311.88	1744.87
312.09	1705.96
312.31	1652.71
312.52	1671.14
312.73	1697.77
312.95	1581.03
313.16	1603.56
313.37	1751.01
313.59	1708.01
313.80	1753.06
314.01	1763.30
314.23	1607.66
314.44	1703.91
314.65	1587.18
314.87	1636.33
315.08	1648.61
315.29	1712.10
315.51	1646.57
315.72	1638.38
315.93	1851.36
316.15	1755.11
316.36	1658.85
316.57	1746.92
316.79	1761.25
317.00	1650.66
317.21	1718.25
317.43	1621.99
317.64	1652.71
317.85	1714.15
318.07	1636.33
318.28	1675.24
318.49	1806.31
318.70	1845.22
318.92	1820.64
319.13	1804.26
319.34	1767.40
319.56	1871.84
319.77	1773.54
319.98	1714.15
320.20	1796.07
320.41	1742.82
320.62	1755.11
320.83	1683.43
321.05	1843.17
321.26	1697.77
321.47	1640.42
321.69	1769.44
321.90	1587.18
322.11	1669.09
322.32	1695.72
322.54	1763.30
322.75	1708.01
322.96	1847.27
323.18	1687.53
323.39	1628.14
323.60	1660.90
323.81	1757.16
324.03	1634.28
324.24	1665.00
324.45	1665.00
324.66	1736.68
324.88	1771.49
325.09	1763.30
325.30	1734.63
325.52	1728.49
325.73	1693.67
325.94	1669.09
326.15	1628.14
326.37	1691.62
326.58	1669.09
326.79	1718.25
327.00	1660.90
327.22	1611.75
327.43	1644.52
327.64	1615.85
327.85	1767.40
328.07	1708.01
328.28	1820.64
328.49	1675.24
328.70	1652.71
328.92	1669.09
329.13	1638.38
329.34	1689.57
329.55	1748.97
329.76	1779.68
329.98	1724.39
330.19	1773.54
330.40	1697.77
330.61	1640.42
330.83	1757.16
331.04	1677.29
331.25	1685.48
331.46	1644.52
331.68	1593.32
331.89	1746.92
332.10	1648.61
332.31	1693.67
332.52	1634.28
332.74	1765.35
332.95	1624.04
333.16	1728.49
333.37	1697.77
333.58	1609.70
333.80	1689.57
334.01	1677.29
334.22	1742.82
334.43	1636.33
334.64	1681.38
334.86	1593.32
335.07	1634.28
335.28	1744.87
335.49	1609.70
335.70	1761.25
335.92	1648.61
336.13	1787.88
336.34	1783.78
336.55	1689.57
336.76	1660.90
336.98	1615.85
337.19	1619.94
337.40	1841.12
337.61	1822.69
337.82	1624.04
338.04	1718.25
338.25	1568.74
338.46	1751.01
338.67	1728.49
338.88	1642.47
339.09	1624.04
339.31	1683.43
339.52	1560.55
339.73	1632.23
339.94	1714.15
340.15	1767.40
340.36	1613.80
340.58	1714.15
340.79	1656.81
341.00	1757.16
341.21	1640.42
341.42	1820.64
341.63	1720.29
341.85	1771.49
342.06	1667.05
342.27	1665.00
342.48	1693.67
342.69	1642.47
342.90	1656.81
343.12	1755.11
343.33	1675.24
343.54	1761.25
343.75	1806.31
343.96	1703.91
344.17	1642.47
344.38	1724.39
344.60	1697.77
344.81	1646.57
345.02	1718.25
345.23	1806.31
345.44	1865.70
345.65	1746.92
345.86	1753.06
346.07	1656.81
346.29	1671.14
346.50	1646.57
346.71	1665.00
346.92	1705.96
347.13	1865.70
347.34	1751.01
347.55	1732.58
347.76	1703.91
347.98	1505.26
348.19	1654.76
348.40	1779.68
348.61	1689.57
348.82	1785.83
349.03	1705.96
349.24	1601.51
349.45	1798.12
349.66	1658.85
349.88	1767.40
350.09	1685.48
350.30	1744.87
350.51	1767.40
350.72	1667.05
350.93	1730.53
351.14	1677.29
351.35	1624.04
351.56	1724.39
351.77	1722.34
351.99	1734.63
352.20	1771.49
352.41	1806.31
352.62	1640.42
352.83	1675.24
353.04	1751.01
353.25	1632.23
353.46	1744.87
353.67	1728.49
353.88	1650.66
354.09	1712.10
354.30	1665.00
354.52	1716.20
354.73	1648.61
354.94	1691.62
355.15	1691.62
355.36	1832.93
355.57	1654.76
355.78	1697.77
355.99	1640.42
356.20	1703.91
356.41	1808.36
356.62	1748.97
356.83	1671.14
357.04	1779.68
357.25	1587.18
357.46	1689.57
357.68	1736.68
357.89	1626.09
358.10	1683.43
358.31	1626.09
358.52	1728.49
358.73	1613.80
358.94	1677.29
359.15	1740.77
359.36	1734.63
359.57	1681.38
359.78	1689.57
359.99	1775.59
360.20	1640.42
360.41	1626.09
360.62	1701.86
360.83	1701.86
361.04	1744.87
361.25	1683.43
361.46	1765.35
361.67	1732.58
361.88	1742.82
362.09	1757.16
362.30	1722.34
362.51	1722.34
362.72	1695.72
362.93	1718.25
363.14	1763.30
363.35	1712.10
363.56	1640.42
363.78	1798.12
363.99	1759.21
364.20	1724.39
364.41	1687.53
364.62	1736.68
364.83	1662.95
365.04	1730.53
365.25	1710.05
365.46	1853.41
365.67	1603.56
365.88	1630.18
366.09	1738.73
366.30	1656.81
366.51	1648.61
366.72	1599.46
366.93	1613.80
367.14	1728.49
367.35	1740.77
367.56	1748.97
367.77	1789.92
367.98	1693.67
368.18	1767.40
368.39	1730.53
368.60	1595.37
368.81	1804.26
369.02	1765.35
369.23	1720.29
369.44	1636.33
369.65	1638.38
369.86	1697.77
370.07	1732.58
370.28	1683.43
370.49	1708.01
370.70	1794.02
370.91	1595.37
371.12	1665.00
371.33	1771.49
371.54	1695.72
371.75	1802.21
371.96	1511.40
372.17	1755.11
372.38	1642.47
372.59	1736.68
372.80	1695.72
373.01	1695.72
373.22	1677.29
373.43	1712.10
373.64	1654.76
373.85	1746.92
374.06	1726.44
374.26	1693.67
374.47	1712.10
374.68	1837.03
374.89	1724.39
375.10	1656.81
375.31	1861.60
375.52	1712.10
375.73	1693.67
375.94	1636.33
376.15	1738.73
376.36	1705.96
376.57	1730.53
376.78	1646.57
376.99	1679.33
377.20	1761.25
377.40	1699.81
377.61	1683.43
377.82	1671.14
378.03	1748.97
378.24	1738.73
378.45	1714.15
378.66	1718.25
378.87	1587.18
379.08	1628.14
379.29	1681.38
379.50	1726.44
379.71	1716.20
379.91	1689.57
380.12	1714.15
380.33	1697.77
380.54	1695.72
380.75	1726.44
380.96	1724.39
381.17	1660.90
381.38	1662.95
381.59	1679.33
381.80	1736.68
382.00	1834.98
382.21	1785.83
382.42	1769.44
382.63	1804.26
382.84	1636.33
383.05	1769.44
383.26	1785.83
383.47	1759.21
383.68	1787.88
383.88	1748.97
384.09	1724.39
384.30	1771.49
384.51	1658.85
384.72	1685.48
384.93	1673.19
385.14	1716.20
385.35	1771.49
385.55	1658.85
385.76	1794.02
385.97	1640.42
386.18	1658.85
386.39	1667.05
386.60	1744.87
386.81	1699.81
387.02	1568.74
387.22	1689.57
387.43	1798.12
387.64	1824.74
387.85	1814.50
388.06	2250.72
388.27	4253.63
388.48	6834.07
388.68	8357.76
388.89	9807.72
389.10	9854.83
389.31	8630.14
389.52	7573.39
389.73	6737.82
389.93	6479.77
390.14	5910.44
390.35	5109.68
390.56	4663.22
390.77	3821.51
390.98	2981.84
391.18	2510.81
391.39	2090.98
391.60	1892.32
391.81	1806.31
392.02	1730.53
392.23	1851.36
392.43	1769.44
392.64	1763.30
392.85	1705.96
393.06	1812.45
393.27	1755.11
393.47	1646.57
393.68	1726.44
393.89	1722.34
394.10	1755.11
394.31	1587.18
394.52	1576.94
394.72	1763.30
394.93	1773.54
395.14	1673.19
395.35	1738.73
395.56	1601.51
395.76	1662.95
395.97	1771.49
396.18	1828.84
396.39	1800.16
396.60	1972.19
396.80	1873.89
397.01	1873.89
397.22	1798.12
397.43	1800.16
397.64	1724.39
397.84	1806.31
398.05	1865.70
398.26	1789.92
398.47	1847.27
398.67	1839.08
398.88	1728.49
399.09	1738.73
399.30	1701.86
399.51	1746.92
399.71	1689.57
399.92	1624.04
400.13	1746.92
400.34	1697.77
400.54	1806.31
400.75	1837.03
400.96	1730.53
401.17	1800.16
401.37	1638.38
401.58	1757.16
401.79	1669.09
402.00	1853.41
402.21	1994.72
402.41	1916.90
402.62	1978.34
402.83	2011.11
403.04	1945.57
403.24	2037.73
403.45	1785.83
403.66	1947.62
403.87	1861.60
404.07	1865.70
404.28	1947.62
404.49	1877.99
404.70	1769.44
404.90	1732.58
405.11	1751.01
405.32	1736.68
405.52	1646.57
405.73	1746.92
405.94	1593.32
406.15	1742.82
406.35	1679.33
406.56	1767.40
406.77	1644.52
406.98	1736.68
407.18	1560.55
407.39	1822.69
407.60	1673.19
407.80	1730.53
408.01	1695.72
408.22	1738.73
408.43	1687.53
408.63	1730.53
408.84	1740.77
409.05	1681.38
409.25	1632.23
409.46	1673.19
409.67	1662.95
409.88	1716.20
410.08	1697.77
410.29	1685.48
410.50	1781.73
410.70	1660.90
410.91	1693.67
411.12	1755.11
411.32	1689.57
411.53	1681.38
411.74	1730.53
411.95	1824.74
412.15	1751.01
412.36	1734.63
412.57	1806.31
412.77	1787.88
412.98	1701.86
413.19	1714.15
413.39	1800.16
413.60	1744.87
413.81	1802.21
414.01	1689.57
414.22	1779.68
414.43	1689.57
414.63	1681.38
414.84	1806.31
415.05	1718.25
415.25	1718.25
415.46	1789.92
415.67	1693.67
415.87	1703.91
416.08	1736.68
416.29	1652.71
416.49	1658.85
416.70	1734.63
416.91	1689.57
417.11	1714.15
417.32	1761.25
417.53	1742.82
417.73	1701.86
417.94	1662.95
418.15	1705.96
418.35	1742.82
418.56	1726.44
418.77	1841.12
418.97	1703.91
419.18	1714.15
419.38	1568.74
419.59	1746.92
419.80	1736.68
420.00	1728.49
420.21	1681.38
420.42	1728.49
420.62	1693.67
420.83	1685.48
421.04	1689.57
421.24	1699.81
421.45	1841.12
421.65	1738.73
421.86	1583.08
422.07	1673.19
422.27	1720.29
422.48	1736.68
422.69	1603.56
422.89	1648.61
423.10	1734.63
423.30	1662.95
423.51	1746.92
423.72	1683.43
423.92	1734.63
424.13	1656.81
424.33	1646.57
424.54	1710.05
424.75	1724.39
424.95	1777.64
425.16	1804.26
425.36	1675.24
425.57	1796.07
425.78	1736.68
425.98	1787.88
426.19	1712.10
426.39	1681.38
426.60	1730.53
426.81	1773.54
427.01	1720.29
427.22	1644.52
427.42	1574.89
427.63	1673.19
427.83	1732.58
428.04	1832.93
428.25	1701.86
428.45	1804.26
428.66	1744.87
428.86	1718.25
429.07	1816.55
429.28	1687.53
429.48	1650.66
429.69	1677.29
429.89	1703.91
430.10	1660.90
430.30	1769.44
430.51	1765.35
430.71	1642.47
430.92	1703.91
431.13	1701.86
431.33	1730.53
431.54	1769.44
431.74	1824.74
431.95	1755.11
432.15	1720.29
432.36	1742.82
432.56	1759.21
432.77	1830.88
432.98	1912.80
433.18	1720.29
433.39	1701.86
433.59	1640.42
433.80	1826.79
434.00	1822.69
434.21	1751.01
434.41	1632.23
434.62	1847.27
434.82	1658.85
435.03	1642.47
435.23	1726.44
435.44	1628.14
435.64	1628.14
435.85	1810.40
436.06	1724.39
436.26	1742.82
436.47	1710.05
436.67	1671.14
436.88	1732.58
437.08	1759.21
437.29	1802.21
437.49	1751.01
437.70	1738.73
437.90	1746.92
438.11	1796.07
438.31	1742.82
438.52	1851.36
438.72	1826.79
438.93	1927.14
439.13	1798.12
439.34	1798.12
439.54	1791.97
439.75	1796.07
439.95	1789.92
440.16	1660.90
440.36	1681.38
440.57	1726.44
440.77	1748.97
440.98	1740.77
441.18	1783.78
441.39	1734.63
441.59	1656.81
441.80	1794.02
442.00	1691.62
442.21	1814.50
442.41	1640.42
442.62	1812.45
442.82	1636.33
443.02	1746.92
443.23	1675.24
443.43	1693.67
443.64	1746.92
443.84	1685.48
444.05	1834.98
444.25	1822.69
444.46	1640.42
444.66	1763.30
444.87	1884.13
445.07	1656.81
445.28	1755.11
445.48	1826.79
445.69	1728.49
445.89	1898.47
446.09	1765.35
446.30	1994.72
446.50	2719.70
446.71	3798.98
446.91	4308.93
447.12	4923.32
447.32	4739.00
447.53	4456.38
447.73	3755.97
447.93	3532.75
448.14	3315.66
448.34	3139.54
448.55	2834.39
448.75	2885.59
448.96	2705.37
449.16	2539.48
449.36	2263.01
449.57	2064.35
449.77	1791.97
449.98	1830.88
450.18	1837.03
450.39	1855.46
450.59	1693.67
450.79	1652.71
451.00	1691.62
451.20	1798.12
451.41	1716.20
451.61	1775.59
451.81	1687.53
452.02	1726.44
452.22	1597.42
452.43	1648.61
452.63	1724.39
452.84	1751.01
453.04	1695.72
453.24	1818.60
453.45	1646.57
453.65	1691.62
453.86	1759.21
454.06	1716.20
454.26	1738.73
454.47	1662.95
454.67	1720.29
454.87	1716.20
455.08	1712.10
455.28	1843.17
455.49	1837.03
455.69	1665.00
455.89	1841.12
456.10	1781.73
456.30	1738.73
456.51	1794.02
456.71	1673.19
456.91	1718.25
457.12	1761.25
457.32	1794.02
457.52	1660.90
457.73	1761.25
457.93	1781.73
458.14	1697.77
458.34	1681.38
458.54	1718.25
458.75	1685.48
458.95	1757.16
459.15	1748.97
459.36	1712.10
459.56	1828.84
459.76	1869.80
459.97	1761.25
460.17	1677.29
460.37	1753.06
460.58	1736.68
460.78	1761.25
460.99	1703.91
461.19	1685.48
461.39	1691.62
461.60	1759.21
461.80	1742.82
462.00	1675.24
462.21	1677.29
462.41	1632.23
462.61	1658.85
462.82	1646.57
463.02	1781.73
463.22	1689.57
463.43	1824.74
463.63	1757.16
463.83	1849.32
464.04	1724.39
464.24	1691.62
464.44	1740.77
464.64	1685.48
464.85	1886.18
465.05	1728.49
465.25	1753.06
465.46	1701.86
465.66	1794.02
465.86	1777.64
466.07	1771.49
466.27	1667.05
466.47	1658.85
466.68	1718.25
466.88	1753.06
467.08	1804.26
467.29	1701.86
467.49	1722.34
467.69	1714.15
467.89	1751.01
468.10	1693.67
468.30	1712.10
468.50	1847.27
468.71	1687.53
468.91	1646.57
469.11	1820.64
469.31	1687.53
469.52	1679.33
469.72	1806.31
469.92	1849.32
470.13	1648.61
470.33	1759.21
470.53	1861.60
470.73	2080.74
470.94	2244.57
471.14	2346.97
471.34	2459.61
471.54	2400.22
471.75	2222.05
471.95	2185.18
472.15	2088.93
472.36	2054.11
472.56	2115.55
472.76	2062.30
472.96	1953.76
473.17	1943.52
473.37	1894.37
473.57	1757.16
473.77	1841.12
473.98	1773.54
474.18	1595.37
474.38	1886.18
474.58	1718.25
474.79	1638.38
474.99	1697.77
475.19	1763.30
475.39	1703.91
475.60	1748.97
475.80	1722.34
476.00	1695.72
476.20	1667.05
476.41	1683.43
476.61	1892.32
476.81	1826.79
477.01	1650.66
477.21	1804.26
477.42	1759.21
477.62	1662.95
477.82	1757.16
478.02	1662.95
478.23	1732.58
478.43	1609.70
478.63	1673.19
478.83	1697.77
479.03	1761.25
479.24	1771.49
479.44	1824.74
479.64	1662.95
479.84	1636.33
480.04	1693.67
480.25	1689.57
480.45	1710.05
480.65	1734.63
480.85	1800.16
481.06	1722.34
481.26	1673.19
481.46	1679.33
481.66	1765.35
481.86	1658.85
482.06	1714.15
482.27	1753.06
482.47	1675.24
482.67	1730.53
482.87	1677.29
483.07	1742.82
483.28	1728.49
483.48	1712.10
483.68	1734.63
483.88	1689.57
484.08	1626.09
484.29	1691.62
484.49	1650.66
484.69	1597.42
484.89	1769.44
485.09	1738.73
485.29	1691.62
485.50	1740.77
485.70	1693.67
485.90	1804.26
486.10	1724.39
486.30	1783.78
486.50	1720.29
486.71	1744.87
486.91	1759.21
487.11	1767.40
487.31	1634.28
487.51	1656.81
487.71	1669.09
487.91	1595.37
488.12	1652.71
488.32	1593.32
488.52	1710.05
488.72	1587.18
488.92	1722.34
489.12	1796.07
489.32	1794.02
489.53	1769.44
489.73	1628.14
489.93	1787.88
490.13	1621.99
490.33	1652.71
490.53	1712.10
490.73	1712.10
490.94	1621.99
491.14	1701.86
491.34	1896.42
491.54	2123.74
491.74	2609.11
491.94	2744.28
492.14	3043.28
492.34	2979.79
492.54	2740.18
492.75	2504.67
492.95	2449.37
493.15	2232.29
493.35	2287.58
493.55	2306.01
493.75	2199.52
493.95	2117.60
494.15	2011.11
494.35	1951.71
494.56	1884.13
494.76	1810.40
494.96	1736.68
495.16	1736.68
495.36	1728.49
495.56	1726.44
495.76	1767.40
495.96	1654.76
496.16	1658.85
496.36	1787.88
496.56	1701.86
496.77	1691.62
496.97	1720.29
497.17	1890.28
497.37	1642.47
497.57	1826.79
497.77	1660.90
497.97	1667.05
498.17	1742.82
498.37	1734.63
498.57	1757.16
498.77	1767.40
498.97	1724.39
499.17	1839.08
499.38	1753.06
499.58	1767.40
499.78	1730.53
499.98	1808.36
500.18	1746.92
500.38	1667.05
500.58	1937.38
500.78	2590.68
500.98	4415.42
501.18	5840.81
501.38	6791.06
501.58	7292.82
501.78	6793.11
501.98	5605.29
502.18	5048.24
502.38	4458.43
502.58	4124.61
502.78	3704.78
502.98	3731.40
503.18	3459.02
503.38	3092.43
503.59	2930.64
503.79	2623.45
503.99	2475.99
504.19	2349.02
504.39	2209.76
504.59	2172.89
504.79	2078.69
504.99	2023.39
505.19	1933.28
505.39	1925.09
505.59	1941.47
505.79	1964.00
505.99	1863.65
506.19	1806.31
506.39	1890.28
506.59	1673.19
506.79	1728.49
506.99	1828.84
507.19	1728.49
507.39	1779.68
507.59	1617.90
507.79	1671.14
507.99	1714.15
508.19	1777.64
508.39	1697.77
508.59	1708.01
508.79	1845.22
508.99	1822.69
509.19	1683.43
509.39	1718.25
509.59	1681.38
509.79	1701.86
509.99	1683.43
510.19	1767.40
510.39	1724.39
510.59	1740.77
510.79	1710.05
510.99	1662.95
511.19	1669.09
511.39	1816.55
511.59	1695.72
511.79	1787.88
511.99	1714.15
512.19	1877.99
512.38	1738.73
512.58	1656.81
512.78	1761.25
512.98	1800.16
513.18	1853.41
513.38	1656.81
513.58	1720.29
513.78	1673.19
513.98	1732.58
514.18	1703.91
514.38	1691.62
514.58	1734.63
514.78	1615.85
514.98	1714.15
515.18	1697.77
515.38	1628.14
515.58	1865.70
515.78	1638.38
515.98	1728.49
516.18	1742.82
516.38	1732.58
516.57	1720.29
516.77	1748.97
516.97	1677.29
517.17	1628.14
517.37	1595.37
517.57	1701.86
517.77	1746.92
517.97	1644.52
518.17	1746.92
518.37	1673.19
518.57	1697.77
518.77	1708.01
518.97	1753.06
519.16	1712.10
519.36	1837.03
519.56	1755.11
519.76	1683.43
519.96	1791.97
520.16	1820.64
520.36	1632.23
520.56	1765.35
520.76	1640.42
520.96	1722.34
521.16	1804.26
521.35	1877.99
521.55	1851.36
521.75	1794.02
521.95	1687.53
522.15	1732.58
522.35	1632.23
522.55	1763.30
522.75	1781.73
522.95	1753.06
523.14	1699.81
523.34	1791.97
523.54	1691.62
523.74	1734.63
523.94	1695.72
524.14	1665.00
524.34	1787.88
524.54	1818.60
524.73	1662.95
524.93	1773.54
525.13	1714.15
525.33	1658.85
525.53	1880.04
525.73	1779.68
525.93	1806.31
526.13	1757.16
526.32	1730.53
526.52	1806.31
526.72	1773.54
526.92	1714.15
527.12	1765.35
527.32	1681.38
527.52	1699.81
527.71	1771.49
527.91	1767.40
528.11	1646.57
528.31	1708.01
528.51	1720.29
528.71	1724.39
528.90	1773.54
529.10	1791.97
529.30	1802.21
529.50	1578.98
529.70	1751.01
529.90	1769.44
530.09	1681.38
530.29	1714.15
530.49	1671.14
530.69	1886.18
530.89	1791.97
531.09	1701.86
531.28	1720.29
531.48	1882.08
531.68	1681.38
531.88	1740.77
532.08	1771.49
532.28	1689.57
532.47	1789.92
532.67	1800.16
532.87	1744.87
533.07	1685.48
533.27	1771.49
533.46	1761.25
533.66	1769.44
533.86	1638.38
534.06	1669.09
534.26	1730.53
534.45	1691.62
534.65	1791.97
534.85	1699.81
535.05	1636.33
535.25	1777.64
535.44	1683.43
535.64	1800.16
535.84	1751.01
536.04	1755.11
536.24	1759.21
536.43	1730.53
536.63	1767.40
536.83	1761.25
537.03	1689.57
537.22	1705.96
537.42	1599.46
537.62	1755.11
537.82	1665.00
538.02	1830.88
538.21	1814.50
538.41	1841.12
538.61	1746.92
538.81	1726.44
539.00	1757.16
539.20	1697.77
539.40	1814.50
539.60	1748.97
539.79	1740.77
539.99	1738.73
540.19	1693.67
540.39	1705.96
540.58	1720.29
540.78	1708.01
540.98	1738.73
541.18	1798.12
541.37	1757.16
541.57	1732.58
541.77	1779.68
541.97	1701.86
542.16	1605.61
542.36	1757.16
542.56	1705.96
542.76	1843.17
542.95	1728.49
543.15	1794.02
543.35	1697.77
543.54	1619.94
543.74	1746.92
543.94	1800.16
544.14	1748.97
544.33	1718.25
544.53	1746.92
544.73	1724.39
544.93	1683.43
545.12	1728.49
545.32	1748.97
545.52	1708.01
545.71	1654.76
545.91	1656.81
546.11	1722.34
546.30	1712.10
546.50	1705.96
546.70	1705.96
546.90	1716.20
547.09	1628.14
547.29	1701.86
547.49	1765.35
547.68	1771.49
547.88	1626.09
548.08	1746.92
548.27	2140.13
548.47	1716.20
548.67	1638.38
548.87	1796.07
549.06	1773.54
549.26	1796.07
549.46	1785.83
549.65	1722.34
549.85	1847.27
550.05	1800.16
550.24	1724.39
550.44	1789.92
550.64	1755.11
550.83	1753.06
551.03	1767.40
551.23	1806.31
551.42	1748.97
551.62	1703.91
551.82	1695.72
552.01	1753.06
552.21	1781.73
552.41	1728.49
552.60	1832.93
552.80	1710.05
553.00	1699.81
553.19	1708.01
553.39	1810.40
553.59	1679.33
553.78	1714.15
553.98	1748.97
554.17	1730.53
554.37	1765.35
554.57	1730.53
554.76	1652.71
554.96	1726.44
555.16	1771.49
555.35	1712.10
555.55	1791.97
555.75	1761.25
555.94	1724.39
556.14	1646.57
556.33	1828.84
556.53	1710.05
556.73	1726.44
556.92	1751.01
557.12	1773.54
557.32	1855.46
557.51	1798.12
557.71	1781.73
557.90	1880.04
558.10	1863.65
558.30	1724.39
558.49	1716.20
558.69	1693.67
558.88	1701.86
559.08	1724.39
559.28	1730.53
559.47	1767.40
559.67	1789.92
559.86	1869.80
560.06	1785.83
560.26	1773.54
560.45	1697.77
560.65	1689.57
560.84	1839.08
561.04	1689.57
561.24	1742.82
561.43	1755.11
561.63	1787.88
561.82	1748.97
562.02	1767.40
562.22	1726.44
562.41	1667.05
562.61	1667.05
562.80	1665.00
563.00	1875.94
563.19	1726.44
563.39	1775.59
563.59	1755.11
563.78	1654.76
563.98	1601.51
564.17	1718.25
564.37	1699.81
564.56	1763.30
564.76	1611.75
564.96	1820.64
565.15	1685.48
565.35	1853.41
565.54	1685.48
565.74	1716.20
565.93	1697.77
566.13	1771.49
566.32	1761.25
566.52	1722.34
566.71	1724.39
566.91	1847.27
567.11	1777.64
567.30	1738.73
567.50	1775.59
567.69	1755.11
567.89	1771.49
568.08	1583.08
568.28	1763.30
568.47	1632.23
568.67	1843.17
568.86	1652.71
569.06	1769.44
569.25	1767.40
569.45	1634.28
569.64	1667.05
569.84	1683.43
570.04	1763.30
570.23	1681.38
570.43	1720.29
570.62	1705.96
570.82	1763.30
571.01	1677.29
571.21	1665.00
571.40	1640.42
571.60	1880.04
571.79	1740.77
571.99	1744.87
572.18	1701.86
572.38	1751.01
572.57	1763.30
572.77	1843.17
572.96	1861.60
573.16	1738.73
573.35	1716.20
573.55	1847.27
573.74	1834.98
573.94	1765.35
574.13	1753.06
574.33	1761.25
574.52	1791.97
574.71	1689.57
574.91	1757.16
575.10	1656.81
575.30	1734.63
575.49	1734.63
575.69	1693.67
575.88	1798.12
576.08	1734.63
576.27	1771.49
576.47	1732.58
576.66	1775.59
576.86	1820.64
577.05	1785.83
577.25	1777.64
577.44	1816.55
577.64	1677.29
577.83	1806.31
578.02	1734.63
578.22	1806.31
578.41	1816.55
578.61	1699.81
578.80	1669.09
579.00	1724.39
579.19	1746.92
579.39	1734.63
579.58	1763.30
579.77	1654.76
579.97	1771.49
580.16	1853.41
580.36	1798.12
580.55	1765.35
580.75	1744.87
580.94	1777.64
581.13	1824.74
581.33	1845.22
581.52	1738.73
581.72	1830.88
581.91	1908.71
582.11	1669.09
582.30	1771.49
582.49	1791.97
582.69	1837.03
582.88	1773.54
583.08	1738.73
583.27	1818.60
583.47	1763.30
583.66	1738.73
583.85	1791.97
584.05	1738.73
584.24	1806.31
584.44	1708.01
584.63	1767.40
584.82	1779.68
585.02	1847.27
585.21	1849.32
585.41	1853.41
585.60	1859.56
585.79	1955.81
585.99	1996.77
586.18	1818.60
586.37	2189.28
586.57	3338.19
586.76	9738.09
586.96	24540.81
587.15	35050.99
587.34	40988.05
587.54	42847.60
587.73	37526.98
587.93	26736.23
588.12	21993.14
588.31	18267.88
588.51	16445.19
588.70	15402.77
588.89	14331.69
589.09	12648.26
589.28	11186.01
589.47	9535.34
589.67	7849.86
589.86	6502.30
590.06	5068.72
590.25	3987.40
590.44	3149.78
590.64	2648.02
590.83	2301.92
591.02	2148.32
591.22	1935.33
591.41	1920.99
591.60	1867.75
591.80	1949.67
591.99	1765.35
592.18	1804.26
592.38	1865.70
592.57	1738.73
592.76	1773.54
592.96	1808.36
593.15	1794.02
593.34	1755.11
593.54	1726.44
593.73	1771.49
593.92	1808.36
594.12	1705.96
594.31	1761.25
594.50	1791.97
594.70	1736.68
594.89	1896.42
595.08	1640.42
595.28	1802.21
595.47	1884.13
595.66	1730.53
595.86	1708.01
596.05	1724.39
596.24	1693.67
596.43	1830.88
596.63	1810.40
596.82	1716.20
597.01	1710.05
597.21	1875.94
597.40	1746.92
597.59	1744.87
597.79	1730.53
597.98	1689.57
598.17	1800.16
598.36	1710.05
598.56	1796.07
598.75	1746.92
598.94	1769.44
599.14	1755.11
599.33	1673.19
599.52	1736.68
599.71	1746.92
599.91	1796.07
600.10	1771.49
600.29	1716.20
600.48	1740.77
600.68	1785.83
600.87	1675.24
601.06	1738.73
601.26	1796.07
601.45	1794.02
601.64	1714.15
601.83	1837.03
602.03	1705.96
602.22	1708.01
602.41	1822.69
602.60	1939.43
602.80	1738.73
602.99	1785.83
603.18	1646.57
603.37	1677.29
603.57	1796.07
603.76	1828.84
603.95	1791.97
604.14	1757.16
604.34	1677.29
604.53	1771.49
604.72	1742.82
604.91	1687.53
605.10	1714.15
605.30	1710.05
605.49	1806.31
605.68	1736.68
605.87	1742.82
606.07	1673.19
606.26	1748.97
606.45	1767.40
606.64	1746.92
606.84	1714.15
607.03	1693.67
607.22	1685.48
607.41	1656.81
607.60	1730.53
607.80	1783.78
607.99	1658.85
608.18	1697.77
608.37	1751.01
608.56	1662.95
608.76	1691.62
608.95	1849.32
609.14	1720.29
609.33	1787.88
609.52	1783.78
609.72	1703.91
609.91	1818.60
610.10	1777.64
610.29	1765.35
610.48	1714.15
610.68	1751.01
610.87	1748.97
611.06	1730.53
611.25	1736.68
611.44	1755.11
611.63	1697.77
611.83	1755.11
612.02	1660.90
612.21	1781.73
612.40	1601.51
612.59	1638.38
612.79	1675.24
612.98	1689.57
613.17	1806.31
613.36	1697.77
613.55	1787.88
613.74	1630.18
613.93	1728.49
614.13	1718.25
614.32	1710.05
614.51	1738.73
614.70	1640.42
614.89	1675.24
615.08	1742.82
615.28	2045.92
615.47	1648.61
615.66	1718.25
615.85	1617.90
616.04	1826.79
616.23	1740.77
616.42	1806.31
616.62	1812.45
616.81	1783.78
617.00	1787.88
617.19	1748.97
617.38	1761.25
617.57	1769.44
617.76	1812.45
617.95	1738.73
618.15	1742.82
618.34	1746.92
618.53	1624.04
618.72	1882.08
618.91	1763.30
619.10	1822.69
619.29	1740.77
619.48	1714.15
619.68	1660.90
619.87	1726.44
620.06	1722.34
620.25	1769.44
620.44	1697.77
620.63	1783.78
620.82	1662.95
621.01	1722.34
621.20	1773.54
621.39	1705.96
621.59	1775.59
621.78	1720.29
621.97	1691.62
622.16	1675.24
622.35	1671.14
622.54	1724.39
622.73	1855.46
622.92	1669.09
623.11	1798.12
623.30	1671.14
623.49	1701.86
623.68	1697.77
623.88	1787.88
624.07	1656.81
624.26	1769.44
624.45	1708.01
624.64	1705.96
624.83	1689.57
625.02	1701.86
625.21	1746.92
625.40	1689.57
625.59	1765.35
625.78	1671.14
625.97	1767.40
626.16	1748.97
626.35	1777.64
626.54	1683.43
626.74	1755.11
626.93	1665.00
627.12	1718.25
627.31	1789.92
627.50	1703.91
627.69	1841.12
627.88	1665.00
628.07	1746.92
628.26	1542.12
628.45	1677.29
628.64	1650.66
628.83	1787.88
629.02	1679.33
629.21	1705.96
629.40	1783.78
629.59	1712.10
629.78	1660.90
629.97	1738.73
630.16	1757.16
630.35	1662.95
630.54	1660.90
630.73	1656.81
630.92	1722.34
631.11	1665.00
631.30	1773.54
631.49	1716.20
631.68	1740.77
631.87	1699.81
632.06	1689.57
632.25	1800.16
632.44	1722.34
632.63	1771.49
632.82	1714.15
633.01	1695.72
633.20	1681.38
633.39	1605.61
633.58	1595.37
633.77	1689.57
633.96	1769.44
634.15	1742.82
634.34	1777.64
634.53	1705.96
634.72	1630.18
634.91	1671.14
635.10	1826.79
635.29	1804.26
635.48	1804.26
635.67	1656.81
635.86	1636.33
636.05	1804.26
636.24	1697.77
636.43	1712.10
636.62	1783.78
636.81	1560.55
637.00	1681.38
637.19	1751.01
637.38	1689.57
637.57	1648.61
637.76	1726.44
637.95	1652.71
638.14	1656.81
638.33	1701.86
638.52	1710.05
638.71	1630.18
638.89	1640.42
639.08	1771.49
639.27	1769.44
639.46	1654.76
639.65	1738.73
639.84	1644.52
640.03	1722.34
640.22	1677.29
640.41	1787.88
640.60	1687.53
640.79	1667.05
640.98	1656.81
641.17	1724.39
641.36	1765.35
641.55	1722.34
641.74	1630.18
641.92	1640.42
642.11	1628.14
642.30	1775.59
642.49	1626.09
642.68	1630.18
642.87	1736.68
643.06	1691.62
643.25	1730.53
643.44	1675.24
643.63	1677.29
643.82	1730.53
644.00	1640.42
644.19	1679.33
644.38	1710.05
644.57	1818.60
644.76	1726.44
644.95	1722.34
645.14	1689.57
645.33	1701.86
645.52	1734.63
645.71	1699.81
645.89	1632.23
646.08	1748.97
646.27	1646.57
646.46	1832.93
646.65	1736.68
646.84	1671.14
647.03	1734.63
647.22	1818.60
647.40	1662.95
647.59	1734.63
647.78	1591.27
647.97	1693.67
648.16	1648.61
648.35	1781.73
648.54	1769.44
648.73	1705.96
648.91	1828.84
649.10	1669.09
649.29	1724.39
649.48	1619.94
649.67	1759.21
649.86	1689.57
650.05	1740.77
650.23	1753.06
650.42	1644.52
650.61	1759.21
650.80	1779.68
650.99	1820.64
651.18	1822.69
651.36	1753.06
651.55	1724.39
651.74	1722.34
651.93	1634.28
652.12	1712.10
652.31	1722.34
652.49	1720.29
652.68	1705.96
652.87	1789.92
653.06	1658.85
653.25	1789.92
653.44	1720.29
653.62	1767.40
653.81	1693.67
654.00	1660.90
654.19	1708.01
654.38	1853.41
654.56	1724.39
654.75	1669.09
654.94	1744.87
655.13	1619.94
655.32	1718.25
655.51	1757.16
655.69	1755.11
655.88	1691.62
656.07	1613.80
656.26	1802.21
656.45	1624.04
656.63	1730.53
656.82	1738.73
657.01	1742.82
657.20	1628.14
657.38	1755.11
657.57	1619.94
657.76	1626.09
657.95	1683.43
658.14	1632.23
658.32	1728.49
658.51	1595.37
658.70	1720.29
658.89	1701.86
659.08	1755.11
659.26	1720.29
659.45	1669.09
659.64	1755.11
659.83	1703.91
660.01	1927.14
660.20	1689.57
660.39	1806.31
660.58	1617.90
660.76	1740.77
660.95	1626.09
661.14	1730.53
661.33	1636.33
661.51	1632.23
661.70	1695.72
661.89	1675.24
662.08	1679.33
662.26	1726.44
662.45	1681.38
662.64	1748.97
662.83	1724.39
663.01	1624.04
663.20	1724.39
663.39	1779.68
663.58	1669.09
663.76	1681.38
663.95	1722.34
664.14	1675.24
664.32	1675.24
664.51	1669.09
664.70	1673.19
664.89	1771.49
665.07	1691.62
665.26	1708.01
665.45	1667.05
665.64	1755.11
665.82	1705.96
666.01	1673.19
666.20	1640.42
666.38	1820.64
666.57	1804.26
666.76	2164.70
666.95	4468.67
667.13	10170.21
667.32	15206.17
667.51	17979.12
667.69	18937.57
667.88	17870.58
668.07	12513.09
668.25	9553.77
668.44	8402.82
668.63	7366.54
668.81	6870.94
669.00	6315.94
669.19	5769.13
669.38	5130.16
669.56	4577.21
669.75	3993.54
669.94	3471.31
670.12	2848.72
670.31	2527.19
670.50	2312.16
670.68	2107.36
670.87	1941.47
671.06	1837.03
671.24	1822.69
671.43	1880.04
671.62	1718.25
671.80	1734.63
671.99	1830.88
672.18	1726.44
672.36	1796.07
672.55	1794.02
672.74	1689.57
672.92	1732.58
673.11	1814.50
673.29	1697.77
673.48	1744.87
673.67	1722.34
673.85	1775.59
674.04	1646.57
674.23	1808.36
674.41	1769.44
674.60	1609.70
674.79	1550.31
674.97	1675.24
675.16	1822.69
675.34	1691.62
675.53	1667.05
675.72	1701.86
675.90	1857.51
676.09	1714.15
676.28	1705.96
676.46	1603.56
676.65	1742.82
676.83	1634.28
677.02	1701.86
677.21	1763.30
677.39	1705.96
677.58	1638.38
677.77	1736.68
677.95	1703.91
678.14	1644.52
678.32	1716.20
678.51	1687.53
678.70	1855.46
678.88	1665.00
679.07	1767.40
679.25	1759.21
679.44	1601.51
679.63	1595.37
679.81	1615.85
680.00	1783.78
680.18	1617.90
680.37	1712.10
680.55	1621.99
680.74	1591.27
680.93	1615.85
681.11	1712.10
681.30	1732.58
681.48	1726.44
681.67	1673.19
681.85	1695.72
682.04	1669.09
682.23	1775.59
682.41	1751.01
682.60	1705.96
682.78	1730.53
682.97	1615.85
683.15	1718.25
683.34	1734.63
683.53	1845.22
683.71	1652.71
683.90	1740.77
684.08	1810.40
684.27	1710.05
684.45	1660.90
684.64	1832.93
684.82	1728.49
685.01	1757.16
685.19	1746.92
685.38	1746.92
685.57	1697.77
685.75	1679.33
685.94	1646.57
686.12	1626.09
686.31	1673.19
686.49	1837.03
686.68	1628.14
686.86	1695.72
687.05	1681.38
687.23	1802.21
687.42	1671.14
687.60	1607.66
687.79	1673.19
687.97	1822.69
688.16	1808.36
688.34	1722.34
688.53	1591.27
688.71	1738.73
688.90	1820.64
689.08	1691.62
689.27	1701.86
689.45	1789.92
689.64	1732.58
689.82	1716.20
690.01	1708.01
690.19	1697.77
690.38	1660.90
690.56	1720.29
690.75	1662.95
690.93	1669.09
691.12	1673.19
691.30	1748.97
691.49	1667.05
691.67	1685.48
691.86	1771.49
692.04	1613.80
692.23	1611.75
692.41	1718.25
692.60	1753.06
692.78	1736.68
692.97	1716.20
693.15	1728.49
693.34	1746.92
693.52	1710.05
693.71	1673.19
693.89	1626.09
694.08	1628.14
694.26	1783.78
694.44	1775.59
694.63	1673.19
694.81	1675.24
695.00	1656.81
695.18	1765.35
695.37	1820.64
695.55	1732.58
695.74	1673.19
695.92	1564.65
696.10	1714.15
696.29	1568.74
696.47	1691.62
696.66	1675.24
696.84	1656.81
697.03	1759.21
697.21	1884.13
697.40	2320.35
697.58	1820.64
697.76	1677.29
697.95	1691.62
698.13	1738.73
698.32	1679.33
698.50	1718.25
698.68	1783.78
698.87	1751.01
699.05	1822.69
699.24	1671.14
699.42	1595.37
699.61	1693.67
699.79	1671.14
699.97	1761.25
700.16	1550.31
700.34	1673.19
700.53	1771.49
700.71	1744.87
700.89	1705.96
701.08	1726.44
701.26	1710.05
701.45	2066.40
701.63	1710.05
701.81	1761.25
702.00	1693.67
702.18	1681.38
702.37	1619.94
702.55	1742.82
702.73	1667.05
702.92	1636.33
703.10	1660.90
703.28	1626.09
703.47	1667.05
703.65	1847.27
703.84	1697.77
704.02	1658.85
704.20	1796.07
704.39	1632.23
704.57	1619.94
704.75	1710.05
704.94	1671.14
705.12	1689.57
705.30	1736.68
705.49	2295.77
705.67	4319.17
705.86	9373.55
706.04	12654.40
706.22	14444.32
706.41	15494.93
706.59	14260.01
706.77	9883.50
706.96	7600.01
707.14	6717.34
707.32	5988.26
707.51	5664.68
707.69	4816.82
707.87	4245.44
708.06	3645.38
708.24	3033.04
708.42	2441.18
708.61	2256.86
708.79	1902.56
708.97	1781.73
709.16	1775.59
709.34	1673.19
709.52	1751.01
709.71	1708.01
709.89	1802.21
710.07	1675.24
710.26	1728.49
710.44	1673.19
710.62	1722.34
710.80	1634.28
710.99	1796.07
711.17	1724.39
711.35	1716.20
711.54	1689.57
711.72	1794.02
711.90	1732.58
712.09	1710.05
712.27	1705.96
712.45	1710.05
712.63	1656.81
712.82	1697.77
713.00	1718.25
713.18	1697.77
713.37	1828.84
713.55	1775.59
713.73	1767.40
713.91	1705.96
714.10	1689.57
714.28	1578.98
714.46	1746.92
714.65	1736.68
714.83	1648.61
715.01	1660.90
715.19	1646.57
715.38	1603.56
715.56	1681.38
715.74	1613.80
715.92	1619.94
716.11	1777.64
716.29	1650.66
716.47	1771.49
716.65	1710.05
716.84	1609.70
717.02	1853.41
717.20	1628.14
717.38	1660.90
717.57	1689.57
717.75	1724.39
717.93	1669.09
718.11	1728.49
718.30	1540.07
718.48	1740.77
718.66	1800.16
718.84	1667.05
719.03	1658.85
719.21	1576.94
719.39	1828.84
719.57	1728.49
719.75	1794.02
719.94	1683.43
720.12	1746.92
720.30	1742.82
720.48	1769.44
720.67	1703.91
720.85	1646.57
721.03	1673.19
721.21	1667.05
721.39	1740.77
721.58	1632.23
721.76	1740.77
721.94	1710.05
722.12	1816.55
722.30	1800.16
722.49	1697.77
722.67	1644.52
722.85	1705.96
723.03	1679.33
723.21	1652.71
723.40	1689.57
723.58	1773.54
723.76	1708.01
723.94	1718.25
724.12	1753.06
724.30	1722.34
724.49	1716.20
724.67	1650.66
724.85	1812.45
725.03	1583.08
725.21	1787.88
725.40	1781.73
725.58	1675.24
725.76	1763.30
725.94	1714.15
726.12	1677.29
726.30	1718.25
726.49	1607.66
726.67	1708.01
726.85	1681.38
727.03	1851.36
727.21	2168.80
727.39	2947.03
727.57	3657.67
727.76	4204.48
727.94	4368.32
728.12	4440.00
728.30	3747.78
728.48	2918.36
728.66	2760.66
728.84	2570.20
729.03	2332.64
729.21	2133.98
729.39	1990.63
729.57	1787.88
729.75	1837.03
729.93	1863.65
730.11	1708.01
730.30	1640.42
730.48	1708.01
730.66	1708.01
730.84	1722.34
731.02	1751.01
731.20	1642.47
731.38	1736.68
731.56	1671.14
731.74	1710.05
731.93	1732.58
732.11	1697.77
732.29	1740.77
732.47	1748.97
732.65	1689.57
732.83	1763.30
733.01	1701.86
733.19	1603.56
733.37	1751.01
733.56	1705.96
733.74	1650.66
733.92	1804.26
734.10	1656.81
734.28	1710.05
734.46	1632.23
734.64	1654.76
734.82	1656.81
735.00	1724.39
735.18	1640.42
735.36	1652.71
735.54	1705.96
735.73	1683.43
735.91	1667.05
736.09	1798.12
736.27	1636.33
736.45	1724.39
736.63	1599.46
736.81	1658.85
736.99	1789.92
737.17	1722.34
737.35	1673.19
737.53	1716.20
737.71	1697.77
737.89	1794.02
738.07	1667.05
738.25	1708.01
738.43	1597.42
738.61	1634.28
738.80	1642.47
738.98	1607.66
739.16	1677.29
739.34	1660.90
739.52	1759.21
739.70	1724.39
739.88	1722.34
740.06	1814.50
740.24	1599.46
740.42	1767.40
740.60	1603.56
740.78	1697.77
740.96	1662.95
741.14	1626.09
741.32	1677.29
741.50	1607.66
741.68	1798.12
741.86	1804.26
742.04	1648.61
742.22	1642.47
742.40	1662.95
742.58	1757.16
742.76	1681.38
742.94	1720.29
743.12	1597.42
743.30	1642.47
743.48	1699.81
743.66	1644.52
743.84	1703.91
744.02	1636.33
744.20	1660.90
744.38	1667.05
744.56	1554.41
744.74	1748.97
744.92	1724.39
745.10	1771.49
745.28	1728.49
745.46	1773.54
745.64	1644.52
745.82	1722.34
746.00	1775.59
746.18	1744.87
746.36	1634.28
746.54	1775.59
746.72	1701.86
746.90	1671.14
747.08	1738.73
747.26	1660.90
747.44	1699.81
747.62	1808.36
747.80	1722.34
747.98	1720.29
748.15	1718.25
748.33	1789.92
748.51	1660.90
748.69	1732.58
748.87	1697.77
749.05	1665.00
749.23	1617.90
749.41	1746.92
749.59	1726.44
749.77	1816.55
749.95	1695.72
750.13	1673.19
750.31	1665.00
750.49	1576.94
750.67	1746.92
750.85	1765.35
751.03	1718.25
751.20	1812.45
751.38	1816.55
751.56	1720.29
751.74	1665.00
751.92	1724.39
752.10	1722.34
752.28	1730.53
752.46	1708.01
752.64	1642.47
752.82	1738.73
753.00	1738.73
753.18	1724.39
753.35	1695.72
753.53	1673.19
753.71	1636.33
753.89	1724.39
754.07	1699.81
754.25	1744.87
754.43	1693.67
754.61	1626.09
754.79	1703.91
754.97	1689.57
755.14	1775.59
755.32	1632.23
755.50	1736.68
755.68	1626.09
755.86	1681.38
756.04	1583.08
756.22	1654.76
756.40	1697.77
756.57	1814.50
756.75	1691.62
756.93	1734.63
757.11	1656.81
757.29	1583.08
757.47	1714.15
757.65	1605.61
757.82	1535.98
758.00	1601.51
758.18	1681.38
758.36	1718.25
758.54	1830.88
758.72	1578.98
758.90	1763.30
759.07	1720.29
759.25	1689.57
759.43	1755.11
759.61	1640.42
759.79	2160.61
759.97	1781.73
760.15	1617.90
760.32	1738.73
760.50	1781.73
760.68	1718.25
760.86	1609.70
761.04	1763.30
761.22	1701.86
761.39	1607.66
761.57	1773.54
761.75	1722.34
761.93	1724.39
762.11	1732.58
762.28	1669.09
762.46	1660.90
762.64	1714.15
762.82	1603.56
763.00	1671.14
763.18	1720.29
763.35	1669.09
763.53	1732.58
763.71	1712.10
763.89	1730.53
764.07	1718.25
764.24	1722.34
764.42	1769.44
764.60	1636.33
764.78	1718.25
764.96	1691.62
765.13	1716.20
765.31	1708.01
765.49	1708.01
765.67	1597.42
765.84	1650.66
766.02	1636.33
766.20	1640.42
766.38	1671.14
766.56	1796.07
766.73	1765.35
766.91	1685.48
767.09	1681.38
767.27	1714.15
767.44	1677.29
767.62	1714.15
767.80	1722.34
767.98	1648.61
768.15	1685.48
768.33	1701.86
768.51	1736.68
768.69	1665.00
768.87	1714.15
769.04	1677.29
769.22	1808.36
769.40	1779.68
769.58	1818.60
769.75	1759.21
769.93	1802.21
770.11	1673.19
770.28	1736.68
770.46	1763.30
770.64	1738.73
770.82	1697.77
770.99	1759.21
771.17	1693.67
771.35	1673.19
771.53	1669.09
771.70	1656.81
771.88	1738.73
772.06	1617.90
772.23	1634.28
772.41	1673.19
772.59	1628.14
772.77	1634.28
772.94	1632.23
773.12	1759.21
773.30	1621.99
773.47	1691.62
773.65	1544.17
773.83	1742.82
774.01	1665.00
774.18	1638.38
774.36	1681.38
774.54	1591.27
774.71	1685.48
774.89	1617.90
775.07	1665.00
775.24	1662.95
775.42	1685.48
775.60	1804.26
775.78	1652.71
775.95	1617.90
776.13	1626.09
776.31	1595.37
776.48	1720.29
776.66	1689.57
776.84	1697.77
777.01	1656.81
777.19	1667.05
777.37	1712.10
777.54	1718.25
777.72	1757.16
777.90	1732.58
778.07	1708.01
778.25	1853.41
778.43	1746.92
778.60	1615.85
778.78	1789.92
778.96	1800.16
779.13	1662.95
779.31	1718.25
779.49	1669.09
779.66	1615.85
779.84	1660.90
780.01	1693.67
780.19	1648.61
780.37	1732.58
780.54	1732.58
780.72	1658.85
780.90	1617.90
781.07	1738.73
781.25	1689.57
781.43	1695.72
781.60	1648.61
781.78	1746.92
781.95	1783.78
782.13	1677.29
782.31	1740.77
782.48	1546.22
782.66	1697.77
782.83	1820.64
783.01	1730.53
783.19	1748.97
783.36	1669.09
783.54	1708.01
783.72	1779.68
783.89	1591.27
784.07	1648.61
784.24	1779.68
784.42	1800.16
784.60	1638.38
784.77	1714.15
784.95	1595.37
785.12	1740.77
785.30	1722.34
785.47	1626.09
785.65	1681.38
785.83	1722.34
786.00	1685.48
786.18	1687.53
786.35	1560.55
786.53	1691.62
786.71	1701.86
786.88	1755.11
787.06	1683.43
787.23	1685.48
787.41	1705.96
787.58	1665.00
787.76	1658.85
787.94	1611.75
788.11	1740.77
788.29	1601.51
788.46	1673.19
788.64	1626.09
788.81	1652.71
788.99	1693.67
789.16	1673.19
789.34	1722.34
789.52	1755.11
789.69	1656.81
789.87	1574.89
790.04	1665.00
790.22	1662.95
790.39	1820.64
790.57	1691.62
790.74	1673.19
790.92	1796.07
791.09	1642.47
791.27	1640.42
791.44	1804.26
791.62	1710.05
791.79	1695.72
791.97	1642.47
792.15	1953.76
792.32	1724.39
792.50	1699.81
792.67	1818.60
792.85	1742.82
793.02	1757.16
793.20	1644.52
793.37	1644.52
793.55	1724.39
793.72	1667.05
793.90	1681.38
794.07	1712.10
794.25	1673.19
794.42	1687.53
794.60	1675.24
794.77	1724.39
794.95	1730.53
795.12	1779.68
795.30	1708.01
795.47	1556.46
795.65	1822.69
795.82	1691.62
796.00	1630.18
796.17	1671.14
796.34	1656.81
796.52	1665.00
796.69	1781.73
796.87	1718.25
797.04	1662.95
797.22	1650.66
797.39	1742.82
797.57	1763.30
797.74	1679.33
797.92	1748.97
798.09	1732.58
798.27	1757.16
798.44	1677.29
798.62	1710.05
798.79	1832.93
798.96	1769.44
799.14	1763.30
799.31	1822.69
799.49	1669.09
799.66	1701.86
799.84	1718.25
800.01	1589.22
800.19	1701.86
800.36	1603.56
800.53	1619.94
800.71	1728.49
800.88	1759.21
801.06	1611.75
801.23	1675.24
801.41	1683.43
801.58	1624.04
801.75	1675.24
801.93	1703.91
802.10	1757.16
802.28	1644.52
802.45	1638.38
802.63	1718.25
802.80	1798.12
802.97	1587.18
803.15	1650.66
803.32	1705.96
803.50	1673.19
803.67	1687.53
803.84	1642.47
804.02	1757.16
804.19	1681.38
804.37	1667.05
804.54	1552.36
804.71	1640.42
804.89	1720.29
805.06	1658.85
805.24	1675.24
805.41	1589.22
805.58	1650.66
805.76	1853.41
805.93	1681.38
806.10	1701.86
806.28	1794.02
806.45	1734.63
806.63	1703.91
806.80	1697.77
806.97	1677.29
807.15	1644.52
807.32	1710.05
807.49	1683.43
807.67	1681.38
807.84	1722.34
808.01	1609.70
808.19	1781.73
808.36	1839.08
808.54	1701.86
808.71	1665.00
808.88	1742.82
809.06	1681.38
809.23	1785.83
809.40	1648.61
809.58	1673.19
809.75	1603.56
809.92	1656.81
810.10	1900.52
810.27	1650.66
810.44	1722.34
810.62	1748.97
810.79	1675.24
810.96	1615.85
811.14	1615.85
811.31	1701.86
811.48	1759.21
811.66	1693.67
811.83	1705.96
812.00	1673.19
812.18	1669.09
812.35	1785.83
812.52	1687.53
812.69	1665.00
812.87	1673.19
813.04	1626.09
813.21	1640.42
813.39	1626.09
813.56	1658.85
813.73	1777.64
813.91	1675.24
814.08	1701.86
814.25	1642.47
814.42	1675.24
814.60	1603.56
814.77	1671.14
814.94	1685.48
815.12	1703.91
815.29	1773.54
815.46	1693.67
815.63	1695.72
815.81	1691.62
815.98	1746.92
816.15	1689.57
816.33	1728.49
816.50	1640.42
816.67	1724.39
816.84	1689.57
817.02	1640.42
817.19	1712.10
817.36	1712.10
817.53	1697.77
817.71	1689.57
817.88	1726.44
818.05	1607.66
818.22	1716.20
818.40	1779.68
818.57	1646.57
818.74	1767.40
818.91	1728.49
819.09	1689.57
819.26	1755.11
819.43	1648.61
819.60	1642.47
819.78	1691.62
819.95	1703.91
820.12	1671.14
820.29	1763.30
820.47	1708.01
820.64	1705.96
820.81	1656.81
820.98	1642.47
821.15	1714.15
821.33	1759.21
821.50	1701.86
821.67	1697.77
821.84	1742.82
822.02	1660.90
822.19	1712.10
822.36	1775.59
822.53	1677.29
822.70	1636.33
822.88	1646.57
823.05	1742.82
823.22	1705.96
823.39	1671.14
823.56	1710.05
823.74	1812.45
823.91	1621.99
824.08	1650.66
824.25	1624.04
824.42	1742.82
824.60	1624.04
824.77	1763.30
824.94	1675.24
825.11	1718.25
825.28	1587.18
825.45	1697.77
825.63	1669.09
825.80	1718.25
825.97	1652.71
826.14	1693.67
826.31	1624.04
826.48	1673.19
826.66	1591.27
826.83	1654.76
827.00	1759.21
827.17	1617.90
827.34	1748.97
827.51	1632.23
827.69	1642.47
827.86	1611.75
828.03	1652.71
828.20	1722.34
828.37	1669.09
828.54	1683.43
828.71	1681.38
828.89	1767.40
829.06	1679.33
829.23	1804.26
829.40	1703.91
829.57	1574.89
829.74	1724.39
829.91	1568.74
830.09	1708.01
830.26	1771.49
830.43	1818.60
830.60	1703.91
830.77	1751.01
830.94	1779.68
831.11	1744.87
831.28	1689.57
831.46	1773.54
831.63	1712.10
831.80	1716.20
831.97	1656.81
832.14	1636.33
832.31	1697.77
832.48	1783.78
832.65	1626.09
832.82	1744.87
832.99	1720.29
833.17	1683.43
833.34	1701.86
833.51	1683.43
833.68	1646.57
833.85	1710.05
834.02	1646.57
834.19	1648.61
834.36	1644.52
834.53	1685.48
834.70	1818.60
834.87	1744.87
835.04	1689.57
835.22	1679.33
835.39	1681.38
835.56	1587.18
835.73	1675.24
835.90	1687.53
836.07	1656.81
836.24	1783.78
836.41	1708.01
836.58	1589.22
836.75	1740.77
836.92	1646.57
837.09	1687.53
837.26	1736.68
837.43	1718.25
837.60	1722.34
837.77	1720.29
837.94	1744.87
838.12	1742.82
838.29	1665.00
838.46	1628.14
838.63	1601.51
838.80	1742.82
838.97	1732.58
839.14	1689.57
839.31	1591.27
839.48	1771.49
839.65	1681.38
839.82	1718.25
839.99	1679.33
840.16	1718.25
840.33	1675.24
840.50	1642.47
840.67	1681.38
840.84	1615.85
841.01	1687.53
841.18	1650.66
841.35	1599.46
841.52	1705.96
841.69	1751.01
841.86	1665.00
842.03	1714.15
842.20	1734.63
842.37	1744.87
842.54	1669.09
842.71	1640.42
842.88	1603.56
843.05	1710.05
843.22	1730.53
843.39	1695.72
843.56	1656.81
843.73	1753.06
843.90	1697.77
844.07	1712.10
844.24	1689.57
844.41	1738.73
844.58	1779.68
844.75	1701.86
844.92	1761.25
845.09	1787.88
845.26	1599.46
845.43	1705.96
845.60	1640.42
845.77	1714.15
845.94	1658.85
846.10	1724.39
846.27	1648.61
846.44	1601.51
846.61	1642.47
846.78	1683.43
846.95	1767.40
847.12	1662.95
847.29	1738.73
847.46	1714.15
847.63	1728.49
847.80	1685.48
847.97	1632.23
848.14	1820.64
848.31	1689.57
848.48	1697.77
848.65	1697.77
848.82	1693.67
848.98	1877.99
849.15	1658.85
849.32	1724.39
849.49	1724.39
849.66	1681.38
849.83	1808.36
850.00	1607.66
850.17	1660.90
850.34	1705.96
850.51	1599.46
850.68	1685.48
850.85	1808.36
851.01	1646.57
851.18	1736.68
851.35	1656.81
851.52	1712.10
851.69	1732.58
851.86	1677.29
852.03	1697.77
852.20	1687.53
852.37	1699.81
852.53	1599.46
852.70	1732.58
852.87	1757.16
853.04	1824.74
853.21	1673.19
853.38	1695.72
853.55	1824.74
853.72	1773.54
853.89	1597.42
854.05	1605.61
854.22	1611.75
854.39	1675.24
854.56	1722.34
854.73	1755.11
854.90	1636.33
855.07	1730.53
855.23	1665.00
855.40	1671.14
855.57	1660.90
855.74	1585.13
855.91	1859.56
856.08	1587.18
856.25	1609.70
856.41	1554.41
856.58	1642.47
856.75	1615.85
856.92	1634.28
857.09	1767.40
857.26	1585.13
857.42	1658.85
857.59	1732.58
857.76	1662.95
857.93	1730.53
858.10	1730.53
858.27	1615.85
858.43	1699.81
858.60	1724.39
858.77	1640.42
858.94	1687.53
859.11	1697.77
859.27	1675.24
859.44	1720.29
859.61	1812.45
859.78	1746.92
859.95	1720.29
860.12	1681.38
860.28	1775.59
860.45	1828.84
860.62	1654.76
860.79	1697.77
860.95	1669.09
861.12	1593.32
861.29	1636.33
861.46	1642.47
861.63	1718.25
861.79	1777.64
861.96	1585.13
862.13	1712.10
862.30	1773.54
862.47	1662.95
862.63	1685.48
862.80	1818.60
862.97	1705.96
863.14	1724.39
863.30	1767.40
863.47	1642.47
863.64	1734.63
863.81	1722.34
863.97	1714.15
864.14	1669.09
864.31	1710.05
864.48	1650.66
864.65	1687.53
864.81	1718.25
864.98	1722.34
865.15	1798.12
865.32	1734.63
865.48	1710.05
865.65	1781.73
865.82	1654.76
865.98	1687.53
866.15	1685.48
866.32	1724.39
866.49	1673.19
866.65	1791.97
866.82	1658.85
866.99	1656.81
867.16	1716.20
867.32	1681.38
867.49	1736.68
867.66	1681.38
867.83	1609.70
867.99	1607.66
868.16	1603.56
868.33	1691.62
868.49	1705.96
868.66	1712.10
868.83	1798.12
868.99	1722.34
869.16	1691.62
869.33	1732.58
869.50	1722.34
869.66	1621.99
869.83	1638.38
870.00	1634.28
870.16	1683.43
870.33	1693.67
870.50	1646.57
870.66	1767.40
870.83	1763.30
871.00	1640.42
871.17	1658.85
871.33	1669.09
871.50	1675.24
871.67	1652.71
871.83	1740.77
872.00	1787.88
872.17	1644.52
872.33	1787.88
872.50	1734.63
872.67	1720.29
872.83	1699.81
873.00	1660.90
873.17	1734.63
873.33	1708.01
873.50	1755.11
873.67	1693.67
873.83	1619.94
874.00	1738.73
874.16	1714.15
874.33	1697.77
874.50	1626.09
874.66	1738.73
874.83	1783.78
875.00	1703.91
875.16	1746.92
875.33	1701.86
875.50	1517.54
875.66	1683.43
875.83	1708.01
875.99	1679.33
876.16	1685.48
876.33	1581.03
876.49	1679.33
876.66	1708.01
876.83	1746.92
876.99	1562.60
877.16	1695.72
877.32	1636.33
877.49	1726.44
877.66	1681.38
877.82	1847.27
877.99	1703.91
878.15	1810.40
878.32	1728.49
878.49	1722.34
878.65	1636.33
878.82	1652.71
878.98	1628.14
879.15	1755.11
879.32	1736.68
879.48	1757.16
879.65	1636.33
879.81	1667.05
879.98	1736.68
880.15	1665.00
880.31	1730.53
880.48	1644.52
880.64	1759.21
880.81	1771.49
880.97	1746.92
881.14	1697.77
881.31	1628.14
881.47	1873.89
881.64	1738.73
881.80	1628.14
881.97	1730.53
882.13	1689.57
882.30	1607.66
882.47	1665.00
882.63	1665.00
882.80	1667.05
882.96	1626.09
883.13	1703.91
883.29	1742.82
883.46	1626.09
883.62	1796.07
883.79	1648.61
883.95	1718.25
884.12	1681.38
884.29	1748.97
884.45	1734.63
884.62	1716.20
884.78	1619.94
884.95	1732.58
885.11	1665.00
885.28	1730.53
885.44	1677.29
885.61	1705.96
885.77	1724.39
885.94	1765.35
886.10	1699.81
886.27	1650.66
886.43	1761.25
886.60	1753.06
886.76	1716.20
886.93	1665.00
887.09	1738.73
887.26	1646.57
887.42	1660.90
887.59	1720.29
887.75	1820.64
887.92	1775.59
888.08	1679.33
888.25	1748.97
888.41	1673.19
888.58	1718.25
888.74	1605.61
888.91	1650.66
>>>>>End Processed Spectral Data<<<<<
