SpectraSuite Data File
++++++++++++++++++++++++++++++++++++
Date: Mon Jun 06 17:25:37 CEST 2016
User: root
Dark Spectrum Present: No
Reference Spectrum Present: No
Number of Sampled Component Spectra: 1
Spectrometers: USB4C02835
Integration Time (usec): 100000 (USB4C02835)
Spectra Averaged: 1 (USB4C02835)
Boxcar Smoothing: 0 (USB4C02835)
Correct for Electrical Dark: No (USB4C02835)
Strobe/Lamp Enabled: No (USB4C02835)
Correct for Detector Non-linearity: No (USB4C02835)
Correct for Stray Light: No (USB4C02835)
Number of Pixels in Processed Spectrum: 3648
>>>>>Begin Processed Spectral Data<<<<<
177.47	1474.54
177.69	1474.54
177.91	1474.54
178.13	1474.54
178.36	1462.25
178.58	1662.95
178.80	1708.01
179.02	1619.94
179.24	1693.67
179.46	1712.10
179.68	1744.87
179.90	1724.39
180.13	1650.66
180.35	1660.90
180.57	1648.61
180.79	1701.86
181.01	1720.29
181.23	1736.68
181.45	1740.77
181.67	1744.87
181.90	1771.49
182.12	1662.95
182.34	1644.52
182.56	1746.92
182.78	1755.11
183.00	1697.77
183.22	1730.53
183.44	1603.56
183.66	1796.07
183.89	1748.97
184.11	1714.15
184.33	1716.20
184.55	1849.32
184.77	1740.77
184.99	1755.11
185.21	1675.24
185.43	1783.78
185.65	1609.70
185.87	1785.83
186.10	1757.16
186.32	1843.17
186.54	1748.97
186.76	1751.01
186.98	1771.49
187.20	1644.52
187.42	1695.72
187.64	1660.90
187.86	1705.96
188.08	1730.53
188.30	1859.56
188.52	1679.33
188.75	1863.65
188.97	1808.36
189.19	1675.24
189.41	1701.86
189.63	1714.15
189.85	1652.71
190.07	1636.33
190.29	1667.05
190.51	1814.50
190.73	1673.19
190.95	1757.16
191.17	1785.83
191.39	1621.99
191.61	1681.38
191.84	1699.81
192.06	1697.77
192.28	1583.08
192.50	1920.99
192.72	1695.72
192.94	1703.91
193.16	1802.21
193.38	1722.34
193.60	1642.47
193.82	1732.58
194.04	1839.08
194.26	1804.26
194.48	1703.91
194.70	1736.68
194.92	1708.01
195.14	1744.87
195.36	1691.62
195.58	1751.01
195.80	1648.61
196.02	1667.05
196.24	1691.62
196.46	1710.05
196.69	1726.44
196.91	1867.75
197.13	1738.73
197.35	1687.53
197.57	1849.32
197.79	1644.52
198.01	1759.21
198.23	1730.53
198.45	1722.34
198.67	1691.62
198.89	1740.77
199.11	1787.88
199.33	1615.85
199.55	1558.50
199.77	1687.53
199.99	1779.68
200.21	1726.44
200.43	1767.40
200.65	1722.34
200.87	1501.16
201.09	1769.44
201.31	1740.77
201.53	1728.49
201.75	1724.39
201.97	1703.91
202.19	1779.68
202.41	1681.38
202.63	1843.17
202.85	1777.64
203.07	1697.77
203.29	1605.61
203.51	1658.85
203.73	1693.67
203.95	1861.60
204.17	1789.92
204.39	1748.97
204.61	1716.20
204.83	1714.15
205.05	1761.25
205.27	1761.25
205.49	1771.49
205.71	1658.85
205.93	1640.42
206.15	1708.01
206.37	1738.73
206.59	1652.71
206.81	1642.47
207.03	1685.48
207.25	1617.90
207.47	1761.25
207.69	1757.16
207.91	1857.51
208.13	1755.11
208.34	1783.78
208.56	1638.38
208.78	1804.26
209.00	1679.33
209.22	1705.96
209.44	1736.68
209.66	1638.38
209.88	1759.21
210.10	1722.34
210.32	1689.57
210.54	1818.60
210.76	1697.77
210.98	1796.07
211.20	1568.74
211.42	1763.30
211.64	1781.73
211.86	1734.63
212.08	1759.21
212.30	1845.22
212.52	1740.77
212.74	1744.87
212.96	1806.31
213.17	1765.35
213.39	1785.83
213.61	1755.11
213.83	1697.77
214.05	1628.14
214.27	1718.25
214.49	1658.85
214.71	1693.67
214.93	1861.60
215.15	1673.19
215.37	1771.49
215.59	1585.13
215.81	1722.34
216.03	1824.74
216.24	1718.25
216.46	1671.14
216.68	1791.97
216.90	1814.50
217.12	1757.16
217.34	1648.61
217.56	1748.97
217.78	1730.53
218.00	1789.92
218.22	1824.74
218.44	1716.20
218.66	1687.53
218.87	1712.10
219.09	1665.00
219.31	1753.06
219.53	1710.05
219.75	1650.66
219.97	1638.38
220.19	1777.64
220.41	1685.48
220.63	1761.25
220.85	1730.53
221.06	1710.05
221.28	1824.74
221.50	1744.87
221.72	1746.92
221.94	1724.39
222.16	1720.29
222.38	1783.78
222.60	1769.44
222.82	1771.49
223.03	1716.20
223.25	1650.66
223.47	1703.91
223.69	1849.32
223.91	1773.54
224.13	1740.77
224.35	1691.62
224.57	1800.16
224.78	1646.57
225.00	1746.92
225.22	1691.62
225.44	1697.77
225.66	1722.34
225.88	1665.00
226.10	1785.83
226.32	1759.21
226.53	1781.73
226.75	1673.19
226.97	1703.91
227.19	1699.81
227.41	1646.57
227.63	1665.00
227.85	1673.19
228.06	1779.68
228.28	1667.05
228.50	1785.83
228.72	1691.62
228.94	1697.77
229.16	1562.60
229.37	1619.94
229.59	1671.14
229.81	1767.40
230.03	1740.77
230.25	1624.04
230.47	1628.14
230.69	1554.41
230.90	1728.49
231.12	1716.20
231.34	1759.21
231.56	1767.40
231.78	1685.48
232.00	1718.25
232.21	1687.53
232.43	1722.34
232.65	1574.89
232.87	1759.21
233.09	1708.01
233.30	1722.34
233.52	1691.62
233.74	1808.36
233.96	1726.44
234.18	1730.53
234.40	1689.57
234.61	1783.78
234.83	1634.28
235.05	1660.90
235.27	1875.94
235.49	1773.54
235.70	1701.86
235.92	1708.01
236.14	1753.06
236.36	1882.08
236.58	1656.81
236.79	1773.54
237.01	1787.88
237.23	1669.09
237.45	1802.21
237.67	1665.00
237.88	1705.96
238.10	1865.70
238.32	1615.85
238.54	1716.20
238.76	1646.57
238.97	1632.23
239.19	1626.09
239.41	1761.25
239.63	1740.77
239.85	1640.42
240.06	1693.67
240.28	1685.48
240.50	1773.54
240.72	1761.25
240.93	1691.62
241.15	1738.73
241.37	1716.20
241.59	1757.16
241.81	1732.58
242.02	1685.48
242.24	1732.58
242.46	1740.77
242.68	1689.57
242.89	1798.12
243.11	1757.16
243.33	1736.68
243.55	1714.15
243.76	1742.82
243.98	1665.00
244.20	1716.20
244.42	1738.73
244.64	1796.07
244.85	1654.76
245.07	1656.81
245.29	1763.30
245.51	1634.28
245.72	1677.29
245.94	1818.60
246.16	1660.90
246.38	1718.25
246.59	1738.73
246.81	1628.14
247.03	1685.48
247.24	1642.47
247.46	1693.67
247.68	1675.24
247.90	1654.76
248.11	1714.15
248.33	1810.40
248.55	1705.96
248.77	1693.67
248.98	1771.49
249.20	1863.65
249.42	1718.25
249.64	1708.01
249.85	1746.92
250.07	1681.38
250.29	1771.49
250.50	1748.97
250.72	1640.42
250.94	1701.86
251.16	1841.12
251.37	1804.26
251.59	1710.05
251.81	1742.82
252.02	1808.36
252.24	1703.91
252.46	1896.42
252.68	1710.05
252.89	1716.20
253.11	1636.33
253.33	1830.88
253.54	1714.15
253.76	1699.81
253.98	1720.29
254.20	1683.43
254.41	1638.38
254.63	1714.15
254.85	1603.56
255.06	1728.49
255.28	1755.11
255.50	1718.25
255.71	1621.99
255.93	1624.04
256.15	1693.67
256.36	1732.58
256.58	1654.76
256.80	1753.06
257.02	1705.96
257.23	1650.66
257.45	1619.94
257.67	1777.64
257.88	1648.61
258.10	1755.11
258.32	1718.25
258.53	1740.77
258.75	1804.26
258.97	1654.76
259.18	1701.86
259.40	1800.16
259.62	1871.84
259.83	1810.40
260.05	1703.91
260.27	1949.67
260.48	1695.72
260.70	1626.09
260.92	1701.86
261.13	1697.77
261.35	1728.49
261.57	1742.82
261.78	1593.32
262.00	1658.85
262.22	1720.29
262.43	1734.63
262.65	1675.24
262.86	1656.81
263.08	1779.68
263.30	1722.34
263.51	1712.10
263.73	1726.44
263.95	1853.41
264.16	1677.29
264.38	1587.18
264.60	1736.68
264.81	1703.91
265.03	1757.16
265.25	1820.64
265.46	1697.77
265.68	1818.60
265.89	1787.88
266.11	1621.99
266.33	1714.15
266.54	1722.34
266.76	1841.12
266.98	1705.96
267.19	1757.16
267.41	1748.97
267.62	1697.77
267.84	1669.09
268.06	1753.06
268.27	1767.40
268.49	1787.88
268.70	1800.16
268.92	1689.57
269.14	1714.15
269.35	1609.70
269.57	1703.91
269.79	1796.07
270.00	1658.85
270.22	1900.52
270.43	1665.00
270.65	1558.50
270.87	1738.73
271.08	1751.01
271.30	1701.86
271.51	1722.34
271.73	1798.12
271.95	1834.98
272.16	1650.66
272.38	1714.15
272.59	1744.87
272.81	1656.81
273.02	1675.24
273.24	1744.87
273.46	1722.34
273.67	1652.71
273.89	1548.26
274.10	1703.91
274.32	1738.73
274.54	1755.11
274.75	1687.53
274.97	1734.63
275.18	1683.43
275.40	1804.26
275.61	1777.64
275.83	1822.69
276.05	1597.42
276.26	1673.19
276.48	1767.40
276.69	1728.49
276.91	1617.90
277.12	1785.83
277.34	1787.88
277.55	1718.25
277.77	1777.64
277.99	1701.86
278.20	1685.48
278.42	1648.61
278.63	1552.36
278.85	1626.09
279.06	1638.38
279.28	1683.43
279.49	1767.40
279.71	1708.01
279.93	1724.39
280.14	1708.01
280.36	1677.29
280.57	1796.07
280.79	1775.59
281.00	1693.67
281.22	1607.66
281.43	1837.03
281.65	1609.70
281.86	1605.61
282.08	1734.63
282.29	1871.84
282.51	1603.56
282.73	1660.90
282.94	1662.95
283.16	1773.54
283.37	1843.17
283.59	1705.96
283.80	1771.49
284.02	1699.81
284.23	1732.58
284.45	1712.10
284.66	1636.33
284.88	1748.97
285.09	1691.62
285.31	1777.64
285.52	1726.44
285.74	1583.08
285.95	1796.07
286.17	1714.15
286.38	1828.84
286.60	1683.43
286.81	1703.91
287.03	1738.73
287.24	1636.33
287.46	1744.87
287.67	1718.25
287.89	1853.41
288.10	1759.21
288.32	1712.10
288.53	1822.69
288.75	1662.95
288.96	1783.78
289.18	1718.25
289.39	1679.33
289.61	1734.63
289.82	1810.40
290.04	1787.88
290.25	1609.70
290.47	1656.81
290.68	1638.38
290.90	1757.16
291.11	1667.05
291.33	1771.49
291.54	1675.24
291.76	1697.77
291.97	1763.30
292.18	1703.91
292.40	1722.34
292.61	1578.98
292.83	1841.12
293.04	1765.35
293.26	1736.68
293.47	1642.47
293.69	1697.77
293.90	1642.47
294.12	1789.92
294.33	1767.40
294.55	1730.53
294.76	1777.64
294.97	1757.16
295.19	1837.03
295.40	1607.66
295.62	1722.34
295.83	1757.16
296.05	1628.14
296.26	1763.30
296.48	1683.43
296.69	1742.82
296.90	1722.34
297.12	1779.68
297.33	1806.31
297.55	1634.28
297.76	1693.67
297.98	1724.39
298.19	1744.87
298.41	1740.77
298.62	1617.90
298.83	1787.88
299.05	1761.25
299.26	1710.05
299.48	1650.66
299.69	1761.25
299.90	1718.25
300.12	1722.34
300.33	1716.20
300.55	1763.30
300.76	1714.15
300.98	1742.82
301.19	1851.36
301.40	1718.25
301.62	1656.81
301.83	1753.06
302.05	1665.00
302.26	1730.53
302.47	1751.01
302.69	1669.09
302.90	1718.25
303.12	1609.70
303.33	1699.81
303.54	1761.25
303.76	1673.19
303.97	1732.58
304.19	1808.36
304.40	1544.17
304.61	1812.45
304.83	1843.17
305.04	1806.31
305.26	1703.91
305.47	1677.29
305.68	1695.72
305.90	1665.00
306.11	1714.15
306.33	1726.44
306.54	1669.09
306.75	1652.71
306.97	1597.42
307.18	1720.29
307.39	1744.87
307.61	1791.97
307.82	1599.46
308.04	1687.53
308.25	1652.71
308.46	1757.16
308.68	1732.58
308.89	1642.47
309.10	1806.31
309.32	1748.97
309.53	1650.66
309.74	1646.57
309.96	1751.01
310.17	1681.38
310.39	1712.10
310.60	1726.44
310.81	1751.01
311.03	1638.38
311.24	1765.35
311.45	1671.14
311.67	1806.31
311.88	1687.53
312.09	1734.63
312.31	1673.19
312.52	1703.91
312.73	1748.97
312.95	1677.29
313.16	1632.23
313.37	1736.68
313.59	1771.49
313.80	1722.34
314.01	1783.78
314.23	1712.10
314.44	1615.85
314.65	1673.19
314.87	1724.39
315.08	1640.42
315.29	1658.85
315.51	1697.77
315.72	1695.72
315.93	1857.51
316.15	1746.92
316.36	1742.82
316.57	1730.53
316.79	1773.54
317.00	1705.96
317.21	1689.57
317.43	1648.61
317.64	1755.11
317.85	1777.64
318.07	1732.58
318.28	1738.73
318.49	1763.30
318.70	1931.23
318.92	1818.60
319.13	1808.36
319.34	1869.80
319.56	1869.80
319.77	1808.36
319.98	1849.32
320.20	1759.21
320.41	1697.77
320.62	1787.88
320.83	1599.46
321.05	1851.36
321.26	1740.77
321.47	1615.85
321.69	1845.22
321.90	1705.96
322.11	1742.82
322.32	1767.40
322.54	1810.40
322.75	1662.95
322.96	1812.45
323.18	1626.09
323.39	1570.79
323.60	1708.01
323.81	1804.26
324.03	1632.23
324.24	1726.44
324.45	1710.05
324.66	1714.15
324.88	1687.53
325.09	1787.88
325.30	1701.86
325.52	1720.29
325.73	1834.98
325.94	1638.38
326.15	1673.19
326.37	1710.05
326.58	1757.16
326.79	1691.62
327.00	1718.25
327.22	1699.81
327.43	1669.09
327.64	1660.90
327.85	1759.21
328.07	1746.92
328.28	1816.55
328.49	1681.38
328.70	1710.05
328.92	1746.92
329.13	1679.33
329.34	1718.25
329.55	1771.49
329.76	1732.58
329.98	1693.67
330.19	1738.73
330.40	1781.73
330.61	1652.71
330.83	1753.06
331.04	1632.23
331.25	1724.39
331.46	1781.73
331.68	1636.33
331.89	1755.11
332.10	1710.05
332.31	1648.61
332.52	1665.00
332.74	1761.25
332.95	1677.29
333.16	1710.05
333.37	1710.05
333.58	1757.16
333.80	1685.48
334.01	1628.14
334.22	1744.87
334.43	1691.62
334.64	1791.97
334.86	1599.46
335.07	1599.46
335.28	1816.55
335.49	1685.48
335.70	1812.45
335.92	1779.68
336.13	1800.16
336.34	1742.82
336.55	1701.86
336.76	1714.15
336.98	1636.33
337.19	1687.53
337.40	1871.84
337.61	1906.66
337.82	1701.86
338.04	1755.11
338.25	1634.28
338.46	1687.53
338.67	1658.85
338.88	1720.29
339.09	1634.28
339.31	1742.82
339.52	1632.23
339.73	1615.85
339.94	1740.77
340.15	1740.77
340.36	1742.82
340.58	1703.91
340.79	1701.86
341.00	1718.25
341.21	1697.77
341.42	1820.64
341.63	1714.15
341.85	1720.29
342.06	1767.40
342.27	1712.10
342.48	1632.23
342.69	1650.66
342.90	1728.49
343.12	1753.06
343.33	1681.38
343.54	1773.54
343.75	1773.54
343.96	1634.28
344.17	1687.53
344.38	1720.29
344.60	1701.86
344.81	1658.85
345.02	1742.82
345.23	1746.92
345.44	1791.97
345.65	1736.68
345.86	1740.77
346.07	1708.01
346.29	1726.44
346.50	1757.16
346.71	1753.06
346.92	1714.15
347.13	1783.78
347.34	1708.01
347.55	1699.81
347.76	1718.25
347.98	1619.94
348.19	1669.09
348.40	1759.21
348.61	1658.85
348.82	1808.36
349.03	1810.40
349.24	1730.53
349.45	1826.79
349.66	1626.09
349.88	1779.68
350.09	1675.24
350.30	1740.77
350.51	1859.56
350.72	1775.59
350.93	1722.34
351.14	1740.77
351.35	1705.96
351.56	1712.10
351.77	1728.49
351.99	1755.11
352.20	1841.12
352.41	1679.33
352.62	1671.14
352.83	1689.57
353.04	1658.85
353.25	1605.61
353.46	1765.35
353.67	1785.83
353.88	1558.50
354.09	1740.77
354.30	1806.31
354.52	1710.05
354.73	1701.86
354.94	1759.21
355.15	1687.53
355.36	1824.74
355.57	1703.91
355.78	1748.97
355.99	1650.66
356.20	1654.76
356.41	1849.32
356.62	1779.68
356.83	1705.96
357.04	1810.40
357.25	1615.85
357.46	1773.54
357.68	1691.62
357.89	1611.75
358.10	1748.97
358.31	1726.44
358.52	1712.10
358.73	1712.10
358.94	1689.57
359.15	1681.38
359.36	1738.73
359.57	1687.53
359.78	1656.81
359.99	1773.54
360.20	1685.48
360.41	1701.86
360.62	1726.44
360.83	1734.63
361.04	1703.91
361.25	1753.06
361.46	1744.87
361.67	1675.24
361.88	1740.77
362.09	1824.74
362.30	1720.29
362.51	1673.19
362.72	1724.39
362.93	1742.82
363.14	1697.77
363.35	1689.57
363.56	1728.49
363.78	1746.92
363.99	1794.02
364.20	1652.71
364.41	1703.91
364.62	1773.54
364.83	1712.10
365.04	1701.86
365.25	1677.29
365.46	1804.26
365.67	1740.77
365.88	1677.29
366.09	1673.19
366.30	1697.77
366.51	1710.05
366.72	1593.32
366.93	1730.53
367.14	1736.68
367.35	1789.92
367.56	1710.05
367.77	1697.77
367.98	1732.58
368.18	1767.40
368.39	1693.67
368.60	1611.75
368.81	1726.44
369.02	1714.15
369.23	1613.80
369.44	1712.10
369.65	1665.00
369.86	1736.68
370.07	1787.88
370.28	1642.47
370.49	1808.36
370.70	1761.25
370.91	1710.05
371.12	1656.81
371.33	1734.63
371.54	1748.97
371.75	1832.93
371.96	1581.03
372.17	1759.21
372.38	1742.82
372.59	1773.54
372.80	1701.86
373.01	1701.86
373.22	1796.07
373.43	1746.92
373.64	1642.47
373.85	1765.35
374.06	1800.16
374.26	1763.30
374.47	1765.35
374.68	1730.53
374.89	1689.57
375.10	1757.16
375.31	1820.64
375.52	1746.92
375.73	1712.10
375.94	1646.57
376.15	1767.40
376.36	1693.67
376.57	1626.09
376.78	1746.92
376.99	1683.43
377.20	1810.40
377.40	1722.34
377.61	1759.21
377.82	1640.42
378.03	1781.73
378.24	1787.88
378.45	1738.73
378.66	1718.25
378.87	1597.42
379.08	1675.24
379.29	1632.23
379.50	1738.73
379.71	1644.52
379.91	1722.34
380.12	1728.49
380.33	1753.06
380.54	1791.97
380.75	1710.05
380.96	1699.81
381.17	1759.21
381.38	1746.92
381.59	1687.53
381.80	1779.68
382.00	1845.22
382.21	1775.59
382.42	1814.50
382.63	1830.88
382.84	1769.44
383.05	1849.32
383.26	1828.84
383.47	1783.78
383.68	1822.69
383.88	1732.58
384.09	1712.10
384.30	1804.26
384.51	1798.12
384.72	1679.33
384.93	1691.62
385.14	1697.77
385.35	1816.55
385.55	1619.94
385.76	1730.53
385.97	1660.90
386.18	1591.27
386.39	1609.70
386.60	1708.01
386.81	1683.43
387.02	1673.19
387.22	1634.28
387.43	1769.44
387.64	1857.51
387.85	1877.99
388.06	2162.66
388.27	4282.30
388.48	6623.13
388.68	8046.47
388.89	9549.68
389.10	9762.67
389.31	8574.85
389.52	7507.85
389.73	6711.19
389.93	6221.73
390.14	5920.68
390.35	5273.52
390.56	4620.22
390.77	3768.26
390.98	2942.93
391.18	2598.87
391.39	2168.80
391.60	1837.03
391.81	1810.40
392.02	1742.82
392.23	1910.75
392.43	1748.97
392.64	1777.64
392.85	1718.25
393.06	1875.94
393.27	1738.73
393.47	1681.38
393.68	1746.92
393.89	1712.10
394.10	1771.49
394.31	1734.63
394.52	1677.29
394.72	1697.77
394.93	1804.26
395.14	1654.76
395.35	1765.35
395.56	1609.70
395.76	1767.40
395.97	1781.73
396.18	1929.19
396.39	1890.28
396.60	2093.02
396.80	1916.90
397.01	1843.17
397.22	1755.11
397.43	1857.51
397.64	1689.57
397.84	1814.50
398.05	1929.19
398.26	1765.35
398.47	1863.65
398.67	1814.50
398.88	1757.16
399.09	1757.16
399.30	1685.48
399.51	1718.25
399.71	1658.85
399.92	1693.67
400.13	1798.12
400.34	1662.95
400.54	1669.09
400.75	1806.31
400.96	1710.05
401.17	1771.49
401.37	1820.64
401.58	1730.53
401.79	1734.63
402.00	1880.04
402.21	1996.77
402.41	1984.48
402.62	1949.67
402.83	2103.26
403.04	2000.87
403.24	2101.22
403.45	1837.03
403.66	1906.66
403.87	1898.47
404.07	1884.13
404.28	1900.52
404.49	1882.08
404.70	1820.64
404.90	1875.94
405.11	1787.88
405.32	1751.01
405.52	1759.21
405.73	1681.38
405.94	1691.62
406.15	1697.77
406.35	1804.26
406.56	1771.49
406.77	1730.53
406.98	1710.05
407.18	1693.67
407.39	1771.49
407.60	1665.00
407.80	1837.03
408.01	1648.61
408.22	1740.77
408.43	1724.39
408.63	1669.09
408.84	1798.12
409.05	1779.68
409.25	1658.85
409.46	1677.29
409.67	1740.77
409.88	1634.28
410.08	1789.92
410.29	1703.91
410.50	1769.44
410.70	1757.16
410.91	1703.91
411.12	1771.49
411.32	1728.49
411.53	1695.72
411.74	1826.79
411.95	1822.69
412.15	1740.77
412.36	1785.83
412.57	1773.54
412.77	1832.93
412.98	1697.77
413.19	1781.73
413.39	1787.88
413.60	1705.96
413.81	1746.92
414.01	1665.00
414.22	1765.35
414.43	1730.53
414.63	1683.43
414.84	1812.45
415.05	1777.64
415.25	1634.28
415.46	1751.01
415.67	1699.81
415.87	1777.64
416.08	1738.73
416.29	1677.29
416.49	1726.44
416.70	1656.81
416.91	1683.43
417.11	1714.15
417.32	1751.01
417.53	1800.16
417.73	1757.16
417.94	1712.10
418.15	1736.68
418.35	1767.40
418.56	1761.25
418.77	1900.52
418.97	1742.82
419.18	1710.05
419.38	1587.18
419.59	1724.39
419.80	1808.36
420.00	1722.34
420.21	1697.77
420.42	1701.86
420.62	1693.67
420.83	1665.00
421.04	1716.20
421.24	1705.96
421.45	1812.45
421.65	1748.97
421.86	1693.67
422.07	1806.31
422.27	1787.88
422.48	1708.01
422.69	1730.53
422.89	1724.39
423.10	1732.58
423.30	1675.24
423.51	1708.01
423.72	1705.96
423.92	1816.55
424.13	1628.14
424.33	1757.16
424.54	1781.73
424.75	1650.66
424.95	1785.83
425.16	1714.15
425.36	1742.82
425.57	1830.88
425.78	1781.73
425.98	1701.86
426.19	1656.81
426.39	1714.15
426.60	1755.11
426.81	1777.64
427.01	1796.07
427.22	1693.67
427.42	1665.00
427.63	1658.85
427.83	1740.77
428.04	1828.84
428.25	1765.35
428.45	1753.06
428.66	1730.53
428.86	1685.48
429.07	1677.29
429.28	1677.29
429.48	1751.01
429.69	1560.55
429.89	1677.29
430.10	1724.39
430.30	1771.49
430.51	1810.40
430.71	1695.72
430.92	1755.11
431.13	1628.14
431.33	1714.15
431.54	1726.44
431.74	1769.44
431.95	1988.58
432.15	1562.60
432.36	1751.01
432.56	1712.10
432.77	1828.84
432.98	1830.88
433.18	1705.96
433.39	1665.00
433.59	1699.81
433.80	1787.88
434.00	1791.97
434.21	1624.04
434.41	1667.05
434.62	1837.03
434.82	1638.38
435.03	1736.68
435.23	1759.21
435.44	1619.94
435.64	1673.19
435.85	1724.39
436.06	1734.63
436.26	1763.30
436.47	1675.24
436.67	1708.01
436.88	1771.49
437.08	1822.69
437.29	1828.84
437.49	1724.39
437.70	1720.29
437.90	1796.07
438.11	1888.23
438.31	1816.55
438.52	1898.47
438.72	1839.08
438.93	1939.43
439.13	1886.18
439.34	1847.27
439.54	1796.07
439.75	1828.84
439.95	1806.31
440.16	1703.91
440.36	1804.26
440.57	1771.49
440.77	1824.74
440.98	1744.87
441.18	1783.78
441.39	1771.49
441.59	1656.81
441.80	1873.89
442.00	1787.88
442.21	1855.46
442.41	1673.19
442.62	1726.44
442.82	1732.58
443.02	1744.87
443.23	1683.43
443.43	1738.73
443.64	1857.51
443.84	1646.57
444.05	1837.03
444.25	1724.39
444.46	1744.87
444.66	1738.73
444.87	1834.98
445.07	1654.76
445.28	1828.84
445.48	1761.25
445.69	1732.58
445.89	1918.95
446.09	1697.77
446.30	2011.11
446.50	2637.78
446.71	3635.14
446.91	4341.69
447.12	4794.29
447.32	4876.21
447.53	4431.80
447.73	3979.20
447.93	3524.55
448.14	3436.49
448.34	3137.49
448.55	2947.03
448.75	2899.92
448.96	2766.81
449.16	2439.13
449.36	2320.35
449.57	2021.35
449.77	1941.47
449.98	1796.07
450.18	1824.74
450.39	1748.97
450.59	1724.39
450.79	1720.29
451.00	1699.81
451.20	1785.83
451.41	1736.68
451.61	1804.26
451.81	1765.35
452.02	1710.05
452.22	1642.47
452.43	1695.72
452.63	1708.01
452.84	1812.45
453.04	1726.44
453.24	1787.88
453.45	1751.01
453.65	1718.25
453.86	1769.44
454.06	1794.02
454.26	1771.49
454.47	1740.77
454.67	1845.22
454.87	1753.06
455.08	1646.57
455.28	1865.70
455.49	1771.49
455.69	1708.01
455.89	1818.60
456.10	1890.28
456.30	1701.86
456.51	1785.83
456.71	1740.77
456.91	1751.01
457.12	1675.24
457.32	1783.78
457.52	1654.76
457.73	1738.73
457.93	1777.64
458.14	1814.50
458.34	1662.95
458.54	1781.73
458.75	1695.72
458.95	1800.16
459.15	1769.44
459.36	1740.77
459.56	1763.30
459.76	1853.41
459.97	1748.97
460.17	1636.33
460.37	1818.60
460.58	1753.06
460.78	1755.11
460.99	1662.95
461.19	1757.16
461.39	1712.10
461.60	1783.78
461.80	1759.21
462.00	1644.52
462.21	1738.73
462.41	1722.34
462.61	1691.62
462.82	1697.77
463.02	1761.25
463.22	1812.45
463.43	1765.35
463.63	1742.82
463.83	1845.22
464.04	1705.96
464.24	1695.72
464.44	1736.68
464.64	1783.78
464.85	1740.77
465.05	1677.29
465.25	1705.96
465.46	1705.96
465.66	1734.63
465.86	1855.46
466.07	1796.07
466.27	1763.30
466.47	1642.47
466.68	1646.57
466.88	1806.31
467.08	1779.68
467.29	1718.25
467.49	1699.81
467.69	1710.05
467.89	1804.26
468.10	1697.77
468.30	1699.81
468.50	1763.30
468.71	1679.33
468.91	1583.08
469.11	1818.60
469.31	1746.92
469.52	1650.66
469.72	1849.32
469.92	1871.84
470.13	1728.49
470.33	1777.64
470.53	1832.93
470.73	2107.36
470.94	2279.39
471.14	2346.97
471.34	2637.78
471.54	2437.08
471.75	2213.85
471.95	2146.27
472.15	2076.64
472.36	2076.64
472.56	2039.78
472.76	2052.06
472.96	2025.44
473.17	2009.06
473.37	1912.80
473.57	1837.03
473.77	1775.59
473.98	1701.86
474.18	1601.51
474.38	1923.04
474.58	1708.01
474.79	1783.78
474.99	1808.36
475.19	1748.97
475.39	1628.14
475.60	1763.30
475.80	1796.07
476.00	1759.21
476.20	1744.87
476.41	1691.62
476.61	1820.64
476.81	1867.75
477.01	1730.53
477.21	1855.46
477.42	1771.49
477.62	1691.62
477.82	1820.64
478.02	1695.72
478.23	1751.01
478.43	1687.53
478.63	1734.63
478.83	1708.01
479.03	1734.63
479.24	1726.44
479.44	1861.60
479.64	1658.85
479.84	1624.04
480.04	1705.96
480.25	1820.64
480.45	1677.29
480.65	1730.53
480.85	1861.60
481.06	1703.91
481.26	1759.21
481.46	1787.88
481.66	1796.07
481.86	1769.44
482.06	1888.23
482.27	1742.82
482.47	1699.81
482.67	1746.92
482.87	1710.05
483.07	1789.92
483.28	1679.33
483.48	1695.72
483.68	1744.87
483.88	1693.67
484.08	1591.27
484.29	1638.38
484.49	1765.35
484.69	1734.63
484.89	1834.98
485.09	1804.26
485.29	1787.88
485.50	1777.64
485.70	1708.01
485.90	1830.88
486.10	1718.25
486.30	1779.68
486.50	1781.73
486.71	1703.91
486.91	1787.88
487.11	1753.06
487.31	1669.09
487.51	1699.81
487.71	1730.53
487.91	1593.32
488.12	1640.42
488.32	1634.28
488.52	1665.00
488.72	1634.28
488.92	1691.62
489.12	1783.78
489.32	1845.22
489.53	1705.96
489.73	1693.67
489.93	1888.23
490.13	1671.14
490.33	1644.52
490.53	1765.35
490.73	1800.16
490.94	1722.34
491.14	1771.49
491.34	1806.31
491.54	2168.80
491.74	2482.14
491.94	2879.44
492.14	3024.85
492.34	3039.19
492.54	2779.09
492.75	2527.19
492.95	2453.47
493.15	2371.55
493.35	2287.58
493.55	2215.90
493.75	2103.26
493.95	2197.47
494.15	1976.29
494.35	1886.18
494.56	1834.98
494.76	1820.64
494.96	1785.83
495.16	1751.01
495.36	1763.30
495.56	1746.92
495.76	1759.21
495.96	1675.24
496.16	1667.05
496.36	1849.32
496.56	1615.85
496.77	1730.53
496.97	1720.29
497.17	1834.98
497.37	1650.66
497.57	1744.87
497.77	1722.34
497.97	1710.05
498.17	1722.34
498.37	1716.20
498.57	1722.34
498.77	1771.49
498.97	1775.59
499.17	1812.45
499.38	1710.05
499.58	1794.02
499.78	1841.12
499.98	1718.25
500.18	1779.68
500.38	1697.77
500.58	1943.52
500.78	2592.73
500.98	4675.51
501.18	5838.76
501.38	6948.76
501.58	7251.86
501.78	6563.74
501.98	5674.92
502.18	5146.55
502.38	4440.00
502.58	4065.22
502.78	3798.98
502.98	3721.16
503.18	3432.40
503.38	3309.52
503.59	2779.09
503.79	2637.78
503.99	2478.04
504.19	2306.01
504.39	2271.20
504.59	2117.60
504.79	2146.27
504.99	2050.02
505.19	1943.52
505.39	1902.56
505.59	1966.05
505.79	1918.95
505.99	1804.26
506.19	1822.69
506.39	1843.17
506.59	1744.87
506.79	1820.64
506.99	1906.66
507.19	1779.68
507.39	1748.97
507.59	1691.62
507.79	1681.38
507.99	1740.77
508.19	1726.44
508.39	1673.19
508.59	1771.49
508.79	1806.31
508.99	1834.98
509.19	1697.77
509.39	1728.49
509.59	1773.54
509.79	1621.99
509.99	1849.32
510.19	1789.92
510.39	1771.49
510.59	1732.58
510.79	1720.29
510.99	1701.86
511.19	1812.45
511.39	1802.21
511.59	1789.92
511.79	1802.21
511.99	1740.77
512.19	1820.64
512.38	1820.64
512.58	1652.71
512.78	1669.09
512.98	1781.73
513.18	1796.07
513.38	1665.00
513.58	1740.77
513.78	1753.06
513.98	1689.57
514.18	1710.05
514.38	1834.98
514.58	1734.63
514.78	1703.91
514.98	1705.96
515.18	1669.09
515.38	1697.77
515.58	1757.16
515.78	1712.10
515.98	1724.39
516.18	1740.77
516.38	1730.53
516.57	1701.86
516.77	1722.34
516.97	1871.84
517.17	1751.01
517.37	1624.04
517.57	1779.68
517.77	1773.54
517.97	1710.05
518.17	1757.16
518.37	1652.71
518.57	1722.34
518.77	1685.48
518.97	1742.82
519.16	1845.22
519.36	1857.51
519.56	1685.48
519.76	1708.01
519.96	1763.30
520.16	1822.69
520.36	1615.85
520.56	1796.07
520.76	1714.15
520.96	1716.20
521.16	1853.41
521.35	1757.16
521.55	1865.70
521.75	1783.78
521.95	1681.38
522.15	1705.96
522.35	1679.33
522.55	1638.38
522.75	1804.26
522.95	1730.53
523.14	1775.59
523.34	1732.58
523.54	1746.92
523.74	1800.16
523.94	1722.34
524.14	1687.53
524.34	1742.82
524.54	1802.21
524.73	1771.49
524.93	1742.82
525.13	1736.68
525.33	1720.29
525.53	1906.66
525.73	1767.40
525.93	1748.97
526.13	1724.39
526.32	1687.53
526.52	1873.89
526.72	1804.26
526.92	1738.73
527.12	1804.26
527.32	1738.73
527.52	1699.81
527.71	1708.01
527.91	1734.63
528.11	1779.68
528.31	1665.00
528.51	1771.49
528.71	1787.88
528.90	1738.73
529.10	1857.51
529.30	1812.45
529.50	1634.28
529.70	1755.11
529.90	1708.01
530.09	1804.26
530.29	1665.00
530.49	1726.44
530.69	1908.71
530.89	1794.02
531.09	1767.40
531.28	1734.63
531.48	1779.68
531.68	1726.44
531.88	1753.06
532.08	1806.31
532.28	1740.77
532.47	1861.60
532.67	1851.36
532.87	1763.30
533.07	1748.97
533.27	1732.58
533.46	1722.34
533.66	1765.35
533.86	1789.92
534.06	1753.06
534.26	1763.30
534.45	1716.20
534.65	1814.50
534.85	1763.30
535.05	1753.06
535.25	1818.60
535.44	1650.66
535.64	1830.88
535.84	1708.01
536.04	1628.14
536.24	1746.92
536.43	1638.38
536.63	1726.44
536.83	1677.29
537.03	1759.21
537.22	1701.86
537.42	1638.38
537.62	1791.97
537.82	1724.39
538.02	1814.50
538.21	1857.51
538.41	1892.32
538.61	1796.07
538.81	1740.77
539.00	1773.54
539.20	1636.33
539.40	1636.33
539.60	1841.12
539.79	1877.99
539.99	1767.40
540.19	1806.31
540.39	1710.05
540.58	1783.78
540.78	1880.04
540.98	1740.77
541.18	1773.54
541.37	1779.68
541.57	1718.25
541.77	1781.73
541.97	1650.66
542.16	1685.48
542.36	1722.34
542.56	1736.68
542.76	1837.03
542.95	1800.16
543.15	1781.73
543.35	1785.83
543.54	1687.53
543.74	1710.05
543.94	1802.21
544.14	1744.87
544.33	1832.93
544.53	1798.12
544.73	1693.67
544.93	1734.63
545.12	1736.68
545.32	1769.44
545.52	1751.01
545.71	1693.67
545.91	1767.40
546.11	1673.19
546.30	1695.72
546.50	1755.11
546.70	1675.24
546.90	1748.97
547.09	1730.53
547.29	1839.08
547.49	1800.16
547.68	1775.59
547.88	1722.34
548.08	1882.08
548.27	2228.19
548.47	1710.05
548.67	1755.11
548.87	1740.77
549.06	1693.67
549.26	1732.58
549.46	1802.21
549.65	1718.25
549.85	1722.34
550.05	1822.69
550.24	1710.05
550.44	1773.54
550.64	1765.35
550.83	1787.88
551.03	1820.64
551.23	1855.46
551.42	1757.16
551.62	1701.86
551.82	1677.29
552.01	1787.88
552.21	1789.92
552.41	1736.68
552.60	1820.64
552.80	1734.63
553.00	1736.68
553.19	1732.58
553.39	1877.99
553.59	1732.58
553.78	1843.17
553.98	1751.01
554.17	1632.23
554.37	1765.35
554.57	1763.30
554.76	1742.82
554.96	1675.24
555.16	1781.73
555.35	1779.68
555.55	1781.73
555.75	1812.45
555.94	1796.07
556.14	1687.53
556.33	1757.16
556.53	1654.76
556.73	1665.00
556.92	1775.59
557.12	1837.03
557.32	1902.56
557.51	1830.88
557.71	1730.53
557.90	1892.32
558.10	1945.57
558.30	1775.59
558.49	1708.01
558.69	1738.73
558.88	1744.87
559.08	1759.21
559.28	1746.92
559.47	1753.06
559.67	1816.55
559.86	1855.46
560.06	1787.88
560.26	1755.11
560.45	1755.11
560.65	1794.02
560.84	1820.64
561.04	1751.01
561.24	1791.97
561.43	1724.39
561.63	1798.12
561.82	1820.64
562.02	1753.06
562.22	1730.53
562.41	1605.61
562.61	1796.07
562.80	1693.67
563.00	1939.43
563.19	1755.11
563.39	1746.92
563.59	1826.79
563.78	1705.96
563.98	1677.29
564.17	1699.81
564.37	1583.08
564.56	1800.16
564.76	1761.25
564.96	1806.31
565.15	1755.11
565.35	1851.36
565.54	1761.25
565.74	1753.06
565.93	1769.44
566.13	1718.25
566.32	1755.11
566.52	1726.44
566.71	1779.68
566.91	1777.64
567.11	1722.34
567.30	1705.96
567.50	1773.54
567.69	1787.88
567.89	1783.78
568.08	1730.53
568.28	1787.88
568.47	1648.61
568.67	1814.50
568.86	1640.42
569.06	1834.98
569.25	1681.38
569.45	1671.14
569.64	1761.25
569.84	1708.01
570.04	1800.16
570.23	1662.95
570.43	1761.25
570.62	1765.35
570.82	1804.26
571.01	1726.44
571.21	1808.36
571.40	1650.66
571.60	1777.64
571.79	1769.44
571.99	1722.34
572.18	1751.01
572.38	1816.55
572.57	1781.73
572.77	1748.97
572.96	1820.64
573.16	1732.58
573.35	1759.21
573.55	1877.99
573.74	1753.06
573.94	1771.49
574.13	1730.53
574.33	1794.02
574.52	1865.70
574.71	1783.78
574.91	1759.21
575.10	1658.85
575.30	1746.92
575.49	1697.77
575.69	1722.34
575.88	1763.30
576.08	1734.63
576.27	1751.01
576.47	1777.64
576.66	1816.55
576.86	1767.40
577.05	1732.58
577.25	1683.43
577.44	1818.60
577.64	1794.02
577.83	1820.64
578.02	1720.29
578.22	1869.80
578.41	1888.23
578.61	1802.21
578.80	1734.63
579.00	1839.08
579.19	1816.55
579.39	1785.83
579.58	1732.58
579.77	1779.68
579.97	1902.56
580.16	1886.18
580.36	1796.07
580.55	1845.22
580.75	1742.82
580.94	1765.35
581.13	1902.56
581.33	1886.18
581.52	1794.02
581.72	1875.94
581.91	1898.47
582.11	1740.77
582.30	1865.70
582.49	1839.08
582.69	1910.75
582.88	1806.31
583.08	1800.16
583.27	1839.08
583.47	1808.36
583.66	1757.16
583.85	1816.55
584.05	1832.93
584.24	1847.27
584.44	1884.13
584.63	1808.36
584.82	1843.17
585.02	1800.16
585.21	1822.69
585.41	1861.60
585.60	1837.03
585.79	1843.17
585.99	2007.01
586.18	1918.95
586.37	2232.29
586.57	3389.39
586.76	9922.41
586.96	24536.71
587.15	34305.52
587.34	40000.93
587.54	41883.01
587.73	36752.85
587.93	25923.19
588.12	21450.42
588.31	17999.60
588.51	15906.57
588.70	14948.12
588.89	13907.76
589.09	12257.09
589.28	10887.00
589.47	9291.63
589.67	7901.06
589.86	6416.29
590.06	4949.94
590.25	3948.48
590.44	3071.95
590.64	2519.00
590.83	2279.39
591.02	2140.13
591.22	1920.99
591.41	1927.14
591.60	1890.28
591.80	1982.43
591.99	1755.11
592.18	1855.46
592.38	1855.46
592.57	1814.50
592.76	1794.02
592.96	1839.08
593.15	1775.59
593.34	1849.32
593.54	1746.92
593.73	1796.07
593.92	1794.02
594.12	1775.59
594.31	1740.77
594.50	1814.50
594.70	1822.69
594.89	1851.36
595.08	1669.09
595.28	1814.50
595.47	1900.52
595.66	1748.97
595.86	1695.72
596.05	1695.72
596.24	1685.48
596.43	1896.42
596.63	1845.22
596.82	1789.92
597.01	1740.77
597.21	1845.22
597.40	1705.96
597.59	1781.73
597.79	1808.36
597.98	1744.87
598.17	1781.73
598.36	1736.68
598.56	1787.88
598.75	1701.86
598.94	1818.60
599.14	1699.81
599.33	1759.21
599.52	1837.03
599.71	1718.25
599.91	1863.65
600.10	1822.69
600.29	1722.34
600.48	1742.82
600.68	1767.40
600.87	1716.20
601.06	1744.87
601.26	1730.53
601.45	1724.39
601.64	1746.92
601.83	1822.69
602.03	1693.67
602.22	1734.63
602.41	1742.82
602.60	1890.28
602.80	1832.93
602.99	1722.34
603.18	1714.15
603.37	1732.58
603.57	1759.21
603.76	1808.36
603.95	1839.08
604.14	1769.44
604.34	1687.53
604.53	1755.11
604.72	1759.21
604.91	1798.12
605.10	1773.54
605.30	1701.86
605.49	1914.85
605.68	1769.44
605.87	1806.31
606.07	1753.06
606.26	1728.49
606.45	1765.35
606.64	1837.03
606.84	1714.15
607.03	1755.11
607.22	1830.88
607.41	1613.80
607.60	1734.63
607.80	1746.92
607.99	1744.87
608.18	1726.44
608.37	1763.30
608.56	1796.07
608.76	1798.12
608.95	1810.40
609.14	1787.88
609.33	1847.27
609.52	1789.92
609.72	1724.39
609.91	1773.54
610.10	1712.10
610.29	1777.64
610.48	1834.98
610.68	1738.73
610.87	1740.77
611.06	1761.25
611.25	1701.86
611.44	1839.08
611.63	1730.53
611.83	1812.45
612.02	1607.66
612.21	1820.64
612.40	1646.57
612.59	1677.29
612.79	1683.43
612.98	1712.10
613.17	1783.78
613.36	1710.05
613.55	1796.07
613.74	1658.85
613.93	1748.97
614.13	1777.64
614.32	1755.11
614.51	1781.73
614.70	1726.44
614.89	1705.96
615.08	1689.57
615.28	2107.36
615.47	1660.90
615.66	1753.06
615.85	1644.52
616.04	1826.79
616.23	1722.34
616.42	1615.85
616.62	1751.01
616.81	1763.30
617.00	1693.67
617.19	1738.73
617.38	1742.82
617.57	1796.07
617.76	1849.32
617.95	1753.06
618.15	1794.02
618.34	1748.97
618.53	1701.86
618.72	1785.83
618.91	1808.36
619.10	1849.32
619.29	1751.01
619.48	1734.63
619.68	1726.44
619.87	1767.40
620.06	1646.57
620.25	1779.68
620.44	1740.77
620.63	1734.63
620.82	1712.10
621.01	1755.11
621.20	1687.53
621.39	1736.68
621.59	1787.88
621.78	1734.63
621.97	1642.47
622.16	1748.97
622.35	1740.77
622.54	1800.16
622.73	1855.46
622.92	1771.49
623.11	1767.40
623.30	1714.15
623.49	1746.92
623.68	1728.49
623.88	1791.97
624.07	1757.16
624.26	1773.54
624.45	1787.88
624.64	1736.68
624.83	1740.77
625.02	1636.33
625.21	1789.92
625.40	1705.96
625.59	1855.46
625.78	1759.21
625.97	1718.25
626.16	1783.78
626.35	1763.30
626.54	1759.21
626.74	1765.35
626.93	1718.25
627.12	1748.97
627.31	1837.03
627.50	1656.81
627.69	1824.74
627.88	1695.72
628.07	1740.77
628.26	1681.38
628.45	1662.95
628.64	1740.77
628.83	1675.24
629.02	1697.77
629.21	1800.16
629.40	1757.16
629.59	1716.20
629.78	1642.47
629.97	1710.05
630.16	1687.53
630.35	1667.05
630.54	1705.96
630.73	1685.48
630.92	1705.96
631.11	1720.29
631.30	1732.58
631.49	1775.59
631.68	1693.67
631.87	1753.06
632.06	1609.70
632.25	1845.22
632.44	1705.96
632.63	1722.34
632.82	1716.20
633.01	1652.71
633.20	1714.15
633.39	1722.34
633.58	1660.90
633.77	1710.05
633.96	1804.26
634.15	1738.73
634.34	1781.73
634.53	1740.77
634.72	1667.05
634.91	1617.90
635.10	1748.97
635.29	1724.39
635.48	1757.16
635.67	1710.05
635.86	1701.86
636.05	1802.21
636.24	1787.88
636.43	1763.30
636.62	1861.60
636.81	1644.52
637.00	1720.29
637.19	1751.01
637.38	1697.77
637.57	1734.63
637.76	1746.92
637.95	1726.44
638.14	1679.33
638.33	1708.01
638.52	1757.16
638.71	1722.34
638.89	1613.80
639.08	1759.21
639.27	1800.16
639.46	1724.39
639.65	1783.78
639.84	1722.34
640.03	1748.97
640.22	1703.91
640.41	1869.80
640.60	1697.77
640.79	1689.57
640.98	1730.53
641.17	1701.86
641.36	1767.40
641.55	1722.34
641.74	1650.66
641.92	1699.81
642.11	1677.29
642.30	1695.72
642.49	1681.38
642.68	1693.67
642.87	1615.85
643.06	1712.10
643.25	1667.05
643.44	1703.91
643.63	1730.53
643.82	1804.26
644.00	1705.96
644.19	1761.25
644.38	1640.42
644.57	1804.26
644.76	1738.73
644.95	1730.53
645.14	1738.73
645.33	1683.43
645.52	1708.01
645.71	1689.57
645.89	1615.85
646.08	1761.25
646.27	1718.25
646.46	1853.41
646.65	1652.71
646.84	1787.88
647.03	1728.49
647.22	1814.50
647.40	1701.86
647.59	1679.33
647.78	1648.61
647.97	1681.38
648.16	1648.61
648.35	1832.93
648.54	1875.94
648.73	1621.99
648.91	1753.06
649.10	1691.62
649.29	1738.73
649.48	1779.68
649.67	1800.16
649.86	1787.88
650.05	1730.53
650.23	1777.64
650.42	1693.67
650.61	1804.26
650.80	1777.64
650.99	1837.03
651.18	1687.53
651.36	1798.12
651.55	1771.49
651.74	1732.58
651.93	1667.05
652.12	1738.73
652.31	1685.48
652.49	1742.82
652.68	1728.49
652.87	1859.56
653.06	1722.34
653.25	1822.69
653.44	1701.86
653.62	1775.59
653.81	1703.91
654.00	1658.85
654.19	1736.68
654.38	1855.46
654.56	1779.68
654.75	1701.86
654.94	1798.12
655.13	1761.25
655.32	1695.72
655.51	1806.31
655.69	1662.95
655.88	1753.06
656.07	1628.14
656.26	1830.88
656.45	1648.61
656.63	1751.01
656.82	1660.90
657.01	1798.12
657.20	1712.10
657.38	1853.41
657.57	1705.96
657.76	1656.81
657.95	1687.53
658.14	1705.96
658.32	1718.25
658.51	1644.52
658.70	1712.10
658.89	1742.82
659.08	1681.38
659.26	1812.45
659.45	1757.16
659.64	1765.35
659.83	1699.81
660.01	1890.28
660.20	1656.81
660.39	1814.50
660.58	1617.90
660.76	1765.35
660.95	1574.89
661.14	1820.64
661.33	1656.81
661.51	1712.10
661.70	1714.15
661.89	1763.30
662.08	1781.73
662.26	1671.14
662.45	1714.15
662.64	1851.36
662.83	1736.68
663.01	1646.57
663.20	1724.39
663.39	1814.50
663.58	1654.76
663.76	1626.09
663.95	1783.78
664.14	1656.81
664.32	1638.38
664.51	1728.49
664.70	1624.04
664.89	1761.25
665.07	1654.76
665.26	1796.07
665.45	1669.09
665.64	1765.35
665.82	1636.33
666.01	1783.78
666.20	1738.73
666.38	1873.89
666.57	1769.44
666.76	2252.77
666.95	4491.20
667.13	10389.35
667.32	15130.39
667.51	17737.46
667.69	19103.45
667.88	17655.54
668.07	12080.97
668.25	9432.94
668.44	8089.48
668.63	7225.23
668.81	6690.71
669.00	6369.18
669.19	5672.87
669.38	5134.26
669.56	4566.97
669.75	3985.35
669.94	3403.72
670.12	3035.09
670.31	2504.67
670.50	2240.48
670.68	2045.92
670.87	1986.53
671.06	1796.07
671.24	1773.54
671.43	1802.21
671.62	1751.01
671.80	1726.44
671.99	1802.21
672.18	1677.29
672.36	1869.80
672.55	1730.53
672.74	1673.19
672.92	1767.40
673.11	1802.21
673.29	1746.92
673.48	1779.68
673.67	1699.81
673.85	1773.54
674.04	1720.29
674.23	1679.33
674.41	1794.02
674.60	1708.01
674.79	1619.94
674.97	1695.72
675.16	1779.68
675.34	1740.77
675.53	1724.39
675.72	1773.54
675.90	1834.98
676.09	1726.44
676.28	1724.39
676.46	1570.79
676.65	1732.58
676.83	1705.96
677.02	1732.58
677.21	1658.85
677.39	1734.63
677.58	1652.71
677.77	1689.57
677.95	1708.01
678.14	1697.77
678.32	1691.62
678.51	1691.62
678.70	1839.08
678.88	1683.43
679.07	1724.39
679.25	1779.68
679.44	1724.39
679.63	1652.71
679.81	1714.15
680.00	1789.92
680.18	1740.77
680.37	1765.35
680.55	1718.25
680.74	1658.85
680.93	1648.61
681.11	1736.68
681.30	1726.44
681.48	1755.11
681.67	1765.35
681.85	1685.48
682.04	1634.28
682.23	1800.16
682.41	1785.83
682.60	1705.96
682.78	1705.96
682.97	1701.86
683.15	1748.97
683.34	1687.53
683.53	1824.74
683.71	1703.91
683.90	1839.08
684.08	1814.50
684.27	1687.53
684.45	1695.72
684.64	1814.50
684.82	1714.15
685.01	1806.31
685.19	1728.49
685.38	1806.31
685.57	1771.49
685.75	1689.57
685.94	1648.61
686.12	1656.81
686.31	1720.29
686.49	1771.49
686.68	1601.51
686.86	1732.58
687.05	1712.10
687.23	1806.31
687.42	1720.29
687.60	1597.42
687.79	1775.59
687.97	1814.50
688.16	1812.45
688.34	1734.63
688.53	1628.14
688.71	1689.57
688.90	1763.30
689.08	1712.10
689.27	1609.70
689.45	1714.15
689.64	1773.54
689.82	1759.21
690.01	1767.40
690.19	1712.10
690.38	1769.44
690.56	1775.59
690.75	1609.70
690.93	1761.25
691.12	1705.96
691.30	1740.77
691.49	1583.08
691.67	1595.37
691.86	1849.32
692.04	1726.44
692.23	1658.85
692.41	1685.48
692.60	1814.50
692.78	1787.88
692.97	1783.78
693.15	1720.29
693.34	1804.26
693.52	1794.02
693.71	1644.52
693.89	1736.68
694.08	1593.32
694.26	1722.34
694.44	1736.68
694.63	1769.44
694.81	1646.57
695.00	1681.38
695.18	1777.64
695.37	1912.80
695.55	1701.86
695.74	1695.72
695.92	1671.14
696.10	1744.87
696.29	1632.23
696.47	1656.81
696.66	1626.09
696.84	1677.29
697.03	1634.28
697.21	1916.90
697.40	2240.48
697.58	1802.21
697.76	1703.91
697.95	1716.20
698.13	1665.00
698.32	1675.24
698.50	1781.73
698.68	1800.16
698.87	1814.50
699.05	1814.50
699.24	1679.33
699.42	1705.96
699.61	1689.57
699.79	1773.54
699.97	1734.63
700.16	1683.43
700.34	1701.86
700.53	1675.24
700.71	1884.13
700.89	1759.21
701.08	1796.07
701.26	1751.01
701.45	2127.84
701.63	1703.91
701.81	1652.71
702.00	1744.87
702.18	1728.49
702.37	1636.33
702.55	1656.81
702.73	1716.20
702.92	1701.86
703.10	1865.70
703.28	1675.24
703.47	1615.85
703.65	1789.92
703.84	1781.73
704.02	1693.67
704.20	1804.26
704.39	1689.57
704.57	1714.15
704.75	1767.40
704.94	1775.59
705.12	1685.48
705.30	1769.44
705.49	2250.72
705.67	4552.63
705.86	9498.48
706.04	12668.73
706.22	14155.56
706.41	15202.07
706.59	13543.22
706.77	9473.90
706.96	7194.51
707.14	6590.36
707.32	5961.64
707.51	5478.32
707.69	4794.29
707.87	4036.55
708.06	3440.59
708.24	2975.70
708.42	2439.13
708.61	2246.62
708.79	1916.90
708.97	1886.18
709.16	1855.46
709.34	1781.73
709.52	1761.25
709.71	1701.86
709.89	1732.58
710.07	1726.44
710.26	1701.86
710.44	1738.73
710.62	1773.54
710.80	1779.68
710.99	1759.21
711.17	1744.87
711.35	1703.91
711.54	1658.85
711.72	1736.68
711.90	1761.25
712.09	1800.16
712.27	1699.81
712.45	1753.06
712.63	1705.96
712.82	1716.20
713.00	1710.05
713.18	1763.30
713.37	1740.77
713.55	1748.97
713.73	1744.87
713.91	1787.88
714.10	1662.95
714.28	1658.85
714.46	1736.68
714.65	1753.06
714.83	1665.00
715.01	1753.06
715.19	1718.25
715.38	1619.94
715.56	1751.01
715.74	1712.10
715.92	1683.43
716.11	1816.55
716.29	1626.09
716.47	1667.05
716.65	1728.49
716.84	1675.24
717.02	1744.87
717.20	1624.04
717.38	1685.48
717.57	1755.11
717.75	1634.28
717.93	1710.05
718.11	1740.77
718.30	1677.29
718.48	1701.86
718.66	1830.88
718.84	1726.44
719.03	1742.82
719.21	1693.67
719.39	1810.40
719.57	1673.19
719.75	1781.73
719.94	1630.18
720.12	1662.95
720.30	1722.34
720.48	1808.36
720.67	1728.49
720.85	1636.33
721.03	1708.01
721.21	1689.57
721.39	1708.01
721.58	1695.72
721.76	1701.86
721.94	1714.15
722.12	1718.25
722.30	1744.87
722.49	1673.19
722.67	1757.16
722.85	1714.15
723.03	1679.33
723.21	1708.01
723.40	1740.77
723.58	1726.44
723.76	1720.29
723.94	1816.55
724.12	1708.01
724.30	1798.12
724.49	1720.29
724.67	1691.62
724.85	1818.60
725.03	1640.42
725.21	1746.92
725.40	1802.21
725.58	1701.86
725.76	1753.06
725.94	1775.59
726.12	1617.90
726.30	1732.58
726.49	1679.33
726.67	1689.57
726.85	1775.59
727.03	1808.36
727.21	2144.22
727.39	2957.27
727.57	3647.43
727.76	4231.10
727.94	4452.28
728.12	4384.70
728.30	3702.73
728.48	2973.65
728.66	2688.98
728.84	2549.72
729.03	2312.16
729.21	2201.57
729.39	1941.47
729.57	1880.04
729.75	1755.11
729.93	1882.08
730.11	1808.36
730.30	1691.62
730.48	1746.92
730.66	1806.31
730.84	1755.11
731.02	1759.21
731.20	1667.05
731.38	1759.21
731.56	1648.61
731.74	1697.77
731.93	1773.54
732.11	1738.73
732.29	1697.77
732.47	1783.78
732.65	1738.73
732.83	1740.77
733.01	1855.46
733.19	1619.94
733.37	1755.11
733.56	1718.25
733.74	1708.01
733.92	1726.44
734.10	1673.19
734.28	1757.16
734.46	1677.29
734.64	1679.33
734.82	1718.25
735.00	1718.25
735.18	1759.21
735.36	1636.33
735.54	1779.68
735.73	1781.73
735.91	1718.25
736.09	1742.82
736.27	1697.77
736.45	1748.97
736.63	1697.77
736.81	1738.73
736.99	1771.49
737.17	1789.92
737.35	1728.49
737.53	1693.67
737.71	1703.91
737.89	1765.35
738.07	1712.10
738.25	1701.86
738.43	1576.94
738.61	1718.25
738.80	1728.49
738.98	1755.11
739.16	1720.29
739.34	1634.28
739.52	1734.63
739.70	1634.28
739.88	1775.59
740.06	1751.01
740.24	1599.46
740.42	1724.39
740.60	1599.46
740.78	1714.15
740.96	1716.20
741.14	1671.14
741.32	1724.39
741.50	1615.85
741.68	1828.84
741.86	1822.69
742.04	1708.01
742.22	1673.19
742.40	1718.25
742.58	1806.31
742.76	1683.43
742.94	1783.78
743.12	1640.42
743.30	1685.48
743.48	1818.60
743.66	1646.57
743.84	1701.86
744.02	1665.00
744.20	1783.78
744.38	1665.00
744.56	1714.15
744.74	1839.08
744.92	1738.73
745.10	1777.64
745.28	1775.59
745.46	1755.11
745.64	1675.24
745.82	1822.69
746.00	1791.97
746.18	1761.25
746.36	1679.33
746.54	1705.96
746.72	1730.53
746.90	1665.00
747.08	1818.60
747.26	1689.57
747.44	1712.10
747.62	1742.82
747.80	1736.68
747.98	1771.49
748.15	1597.42
748.33	1828.84
748.51	1789.92
748.69	1771.49
748.87	1669.09
749.05	1656.81
749.23	1656.81
749.41	1683.43
749.59	1677.29
749.77	1630.18
749.95	1824.74
750.13	1677.29
750.31	1748.97
750.49	1691.62
750.67	1753.06
750.85	1812.45
751.03	1673.19
751.20	1861.60
751.38	1732.58
751.56	1634.28
751.74	1736.68
751.92	1697.77
752.10	1607.66
752.28	1748.97
752.46	1697.77
752.64	1695.72
752.82	1740.77
753.00	1732.58
753.18	1714.15
753.35	1722.34
753.53	1691.62
753.71	1644.52
753.89	1742.82
754.07	1675.24
754.25	1800.16
754.43	1742.82
754.61	1699.81
754.79	1757.16
754.97	1652.71
755.14	1816.55
755.32	1677.29
755.50	1718.25
755.68	1685.48
755.86	1691.62
756.04	1632.23
756.22	1660.90
756.40	1812.45
756.57	1814.50
756.75	1679.33
756.93	1736.68
757.11	1804.26
757.29	1652.71
757.47	1640.42
757.65	1658.85
757.82	1675.24
758.00	1599.46
758.18	1724.39
758.36	1669.09
758.54	1767.40
758.72	1615.85
758.90	1775.59
759.07	1767.40
759.25	1722.34
759.43	1755.11
759.61	1640.42
759.79	2230.24
759.97	1718.25
760.15	1679.33
760.32	1630.18
760.50	1714.15
760.68	1787.88
760.86	1619.94
761.04	1826.79
761.22	1742.82
761.39	1705.96
761.57	1742.82
761.75	1683.43
761.93	1740.77
762.11	1669.09
762.28	1742.82
762.46	1591.27
762.64	1718.25
762.82	1683.43
763.00	1734.63
763.18	1751.01
763.35	1617.90
763.53	1726.44
763.71	1667.05
763.89	1726.44
764.07	1732.58
764.24	1628.14
764.42	1781.73
764.60	1718.25
764.78	1779.68
764.96	1783.78
765.13	1783.78
765.31	1714.15
765.49	1753.06
765.67	1609.70
765.84	1703.91
766.02	1701.86
766.20	1574.89
766.38	1763.30
766.56	1718.25
766.73	1787.88
766.91	1712.10
767.09	1732.58
767.27	1710.05
767.44	1552.36
767.62	1632.23
767.80	1777.64
767.98	1685.48
768.15	1660.90
768.33	1832.93
768.51	1724.39
768.69	1775.59
768.87	1679.33
769.04	1763.30
769.22	1847.27
769.40	1818.60
769.58	1890.28
769.75	1683.43
769.93	1818.60
770.11	1693.67
770.28	1665.00
770.46	1771.49
770.64	1718.25
770.82	1685.48
770.99	1687.53
771.17	1740.77
771.35	1648.61
771.53	1673.19
771.70	1681.38
771.88	1757.16
772.06	1609.70
772.23	1738.73
772.41	1740.77
772.59	1667.05
772.77	1646.57
772.94	1677.29
773.12	1755.11
773.30	1746.92
773.47	1767.40
773.65	1718.25
773.83	1812.45
774.01	1697.77
774.18	1624.04
774.36	1714.15
774.54	1689.57
774.71	1736.68
774.89	1642.47
775.07	1611.75
775.24	1732.58
775.42	1759.21
775.60	1810.40
775.78	1742.82
775.95	1636.33
776.13	1675.24
776.31	1611.75
776.48	1742.82
776.66	1705.96
776.84	1689.57
777.01	1677.29
777.19	1640.42
777.37	1650.66
777.54	1771.49
777.72	1853.41
777.90	1740.77
778.07	1693.67
778.25	1925.09
778.43	1742.82
778.60	1724.39
778.78	1726.44
778.96	1830.88
779.13	1693.67
779.31	1808.36
779.49	1710.05
779.66	1683.43
779.84	1691.62
780.01	1652.71
780.19	1712.10
780.37	1775.59
780.54	1705.96
780.72	1669.09
780.90	1718.25
781.07	1785.83
781.25	1654.76
781.43	1710.05
781.60	1607.66
781.78	1804.26
781.95	1710.05
782.13	1703.91
782.31	1708.01
782.48	1648.61
782.66	1691.62
782.83	1773.54
783.01	1802.21
783.19	1779.68
783.36	1693.67
783.54	1712.10
783.72	1800.16
783.89	1658.85
784.07	1652.71
784.24	1777.64
784.42	1781.73
784.60	1763.30
784.77	1753.06
784.95	1650.66
785.12	1665.00
785.30	1722.34
785.47	1714.15
785.65	1644.52
785.83	1724.39
786.00	1644.52
786.18	1732.58
786.35	1617.90
786.53	1705.96
786.71	1667.05
786.88	1765.35
787.06	1683.43
787.23	1705.96
787.41	1675.24
787.58	1671.14
787.76	1671.14
787.94	1703.91
788.11	1650.66
788.29	1621.99
788.46	1730.53
788.64	1632.23
788.81	1634.28
788.99	1724.39
789.16	1648.61
789.34	1708.01
789.52	1681.38
789.69	1738.73
789.87	1585.13
790.04	1667.05
790.22	1716.20
790.39	1867.75
790.57	1607.66
790.74	1673.19
790.92	1769.44
791.09	1644.52
791.27	1744.87
791.44	1757.16
791.62	1681.38
791.79	1775.59
791.97	1662.95
792.15	1918.95
792.32	1660.90
792.50	1800.16
792.67	1787.88
792.85	1726.44
793.02	1771.49
793.20	1685.48
793.37	1636.33
793.55	1755.11
793.72	1656.81
793.90	1730.53
794.07	1699.81
794.25	1714.15
794.42	1681.38
794.60	1703.91
794.77	1691.62
794.95	1814.50
795.12	1781.73
795.30	1705.96
795.47	1636.33
795.65	1892.32
795.82	1701.86
796.00	1656.81
796.17	1689.57
796.34	1746.92
796.52	1703.91
796.69	1691.62
796.87	1783.78
797.04	1714.15
797.22	1724.39
797.39	1656.81
797.57	1773.54
797.74	1697.77
797.92	1726.44
798.09	1714.15
798.27	1771.49
798.44	1781.73
798.62	1695.72
798.79	1685.48
798.96	1771.49
799.14	1718.25
799.31	1863.65
799.49	1595.37
799.66	1619.94
799.84	1722.34
800.01	1685.48
800.19	1775.59
800.36	1562.60
800.53	1779.68
800.71	1689.57
800.88	1796.07
801.06	1671.14
801.23	1662.95
801.41	1669.09
801.58	1685.48
801.75	1644.52
801.93	1742.82
802.10	1755.11
802.28	1734.63
802.45	1673.19
802.63	1644.52
802.80	1841.12
802.97	1683.43
803.15	1742.82
803.32	1667.05
803.50	1634.28
803.67	1660.90
803.84	1658.85
804.02	1652.71
804.19	1675.24
804.37	1634.28
804.54	1615.85
804.71	1697.77
804.89	1740.77
805.06	1615.85
805.24	1689.57
805.41	1691.62
805.58	1652.71
805.76	1832.93
805.93	1773.54
806.10	1847.27
806.28	1685.48
806.45	1681.38
806.63	1755.11
806.80	1738.73
806.97	1773.54
807.15	1718.25
807.32	1736.68
807.49	1748.97
807.67	1701.86
807.84	1771.49
808.01	1652.71
808.19	1853.41
808.36	1796.07
808.54	1740.77
808.71	1679.33
808.88	1714.15
809.06	1746.92
809.23	1828.84
809.40	1662.95
809.58	1822.69
809.75	1716.20
809.92	1640.42
810.10	1775.59
810.27	1724.39
810.44	1718.25
810.62	1806.31
810.79	1800.16
810.96	1679.33
811.14	1751.01
811.31	1722.34
811.48	1771.49
811.66	1677.29
811.83	1716.20
812.00	1681.38
812.18	1800.16
812.35	1771.49
812.52	1634.28
812.69	1718.25
812.87	1740.77
813.04	1660.90
813.21	1757.16
813.39	1636.33
813.56	1660.90
813.73	1640.42
813.91	1589.22
814.08	1730.53
814.25	1748.97
814.42	1660.90
814.60	1740.77
814.77	1720.29
814.94	1630.18
815.12	1781.73
815.29	1736.68
815.46	1695.72
815.63	1775.59
815.81	1689.57
815.98	1697.77
816.15	1746.92
816.33	1753.06
816.50	1755.11
816.67	1718.25
816.84	1716.20
817.02	1662.95
817.19	1689.57
817.36	1730.53
817.53	1693.67
817.71	1701.86
817.88	1738.73
818.05	1724.39
818.22	1705.96
818.40	1808.36
818.57	1775.59
818.74	1757.16
818.91	1660.90
819.09	1755.11
819.26	1771.49
819.43	1665.00
819.60	1726.44
819.78	1730.53
819.95	1869.80
820.12	1685.48
820.29	1814.50
820.47	1769.44
820.64	1738.73
820.81	1652.71
820.98	1640.42
821.15	1695.72
821.33	1728.49
821.50	1634.28
821.67	1687.53
821.84	1656.81
822.02	1806.31
822.19	1697.77
822.36	1716.20
822.53	1693.67
822.70	1628.14
822.88	1755.11
823.05	1767.40
823.22	1660.90
823.39	1744.87
823.56	1689.57
823.74	1775.59
823.91	1595.37
824.08	1613.80
824.25	1662.95
824.42	1683.43
824.60	1677.29
824.77	1730.53
824.94	1644.52
825.11	1757.16
825.28	1581.03
825.45	1746.92
825.63	1732.58
825.80	1716.20
825.97	1759.21
826.14	1656.81
826.31	1677.29
826.48	1658.85
826.66	1636.33
826.83	1728.49
827.00	1726.44
827.17	1691.62
827.34	1718.25
827.51	1648.61
827.69	1679.33
827.86	1599.46
828.03	1708.01
828.20	1693.67
828.37	1677.29
828.54	1746.92
828.71	1708.01
828.89	1783.78
829.06	1734.63
829.23	1902.56
829.40	1628.14
829.57	1578.98
829.74	1791.97
829.91	1691.62
830.09	1724.39
830.26	1734.63
830.43	1796.07
830.60	1763.30
830.77	1732.58
830.94	1705.96
831.11	1726.44
831.28	1632.23
831.46	1763.30
831.63	1697.77
831.80	1720.29
831.97	1695.72
832.14	1646.57
832.31	1677.29
832.48	1710.05
832.65	1781.73
832.82	1679.33
832.99	1683.43
833.17	1662.95
833.34	1826.79
833.51	1773.54
833.68	1572.84
833.85	1726.44
834.02	1669.09
834.19	1740.77
834.36	1677.29
834.53	1779.68
834.70	1697.77
834.87	1775.59
835.04	1740.77
835.22	1740.77
835.39	1746.92
835.56	1671.14
835.73	1665.00
835.90	1748.97
836.07	1626.09
836.24	1748.97
836.41	1710.05
836.58	1597.42
836.75	1814.50
836.92	1814.50
837.09	1624.04
837.26	1734.63
837.43	1691.62
837.60	1660.90
837.77	1714.15
837.94	1759.21
838.12	1771.49
838.29	1726.44
838.46	1535.98
838.63	1609.70
838.80	1791.97
838.97	1683.43
839.14	1714.15
839.31	1783.78
839.48	1708.01
839.65	1658.85
839.82	1789.92
839.99	1730.53
840.16	1791.97
840.33	1654.76
840.50	1785.83
840.67	1634.28
840.84	1642.47
841.01	1759.21
841.18	1683.43
841.35	1701.86
841.52	1775.59
841.69	1843.17
841.86	1736.68
842.03	1669.09
842.20	1732.58
842.37	1746.92
842.54	1675.24
842.71	1773.54
842.88	1566.70
843.05	1808.36
843.22	1703.91
843.39	1779.68
843.56	1665.00
843.73	1671.14
843.90	1691.62
844.07	1712.10
844.24	1691.62
844.41	1765.35
844.58	1771.49
844.75	1697.77
844.92	1705.96
845.09	1708.01
845.26	1658.85
845.43	1675.24
845.60	1642.47
845.77	1714.15
845.94	1685.48
846.10	1705.96
846.27	1673.19
846.44	1621.99
846.61	1681.38
846.78	1789.92
846.95	1755.11
847.12	1660.90
847.29	1675.24
847.46	1675.24
847.63	1783.78
847.80	1652.71
847.97	1732.58
848.14	1896.42
848.31	1712.10
848.48	1650.66
848.65	1767.40
848.82	1665.00
848.98	1800.16
849.15	1705.96
849.32	1773.54
849.49	1781.73
849.66	1755.11
849.83	1691.62
850.00	1656.81
850.17	1738.73
850.34	1658.85
850.51	1628.14
850.68	1681.38
850.85	1777.64
851.01	1701.86
851.18	1757.16
851.35	1705.96
851.52	1703.91
851.69	1783.78
851.86	1673.19
852.03	1734.63
852.20	1816.55
852.37	1783.78
852.53	1646.57
852.70	1726.44
852.87	1724.39
853.04	1755.11
853.21	1607.66
853.38	1802.21
853.55	1744.87
853.72	1808.36
853.89	1710.05
854.05	1636.33
854.22	1640.42
854.39	1738.73
854.56	1775.59
854.73	1779.68
854.90	1652.71
855.07	1687.53
855.23	1621.99
855.40	1687.53
855.57	1642.47
855.74	1628.14
855.91	1896.42
856.08	1624.04
856.25	1632.23
856.41	1609.70
856.58	1699.81
856.75	1705.96
856.92	1619.94
857.09	1722.34
857.26	1650.66
857.42	1787.88
857.59	1701.86
857.76	1738.73
857.93	1667.05
858.10	1712.10
858.27	1628.14
858.43	1658.85
858.60	1726.44
858.77	1665.00
858.94	1708.01
859.11	1724.39
859.27	1683.43
859.44	1699.81
859.61	1767.40
859.78	1740.77
859.95	1718.25
860.12	1701.86
860.28	1785.83
860.45	1738.73
860.62	1656.81
860.79	1728.49
860.95	1669.09
861.12	1660.90
861.29	1652.71
861.46	1593.32
861.63	1654.76
861.79	1689.57
861.96	1689.57
862.13	1677.29
862.30	1851.36
862.47	1628.14
862.63	1656.81
862.80	1693.67
862.97	1695.72
863.14	1738.73
863.30	1763.30
863.47	1714.15
863.64	1771.49
863.81	1718.25
863.97	1712.10
864.14	1714.15
864.31	1658.85
864.48	1665.00
864.65	1654.76
864.81	1734.63
864.98	1718.25
865.15	1669.09
865.32	1734.63
865.48	1781.73
865.65	1744.87
865.82	1585.13
865.98	1769.44
866.15	1763.30
866.32	1716.20
866.49	1689.57
866.65	1832.93
866.82	1736.68
866.99	1681.38
867.16	1677.29
867.32	1613.80
867.49	1677.29
867.66	1732.58
867.83	1697.77
867.99	1636.33
868.16	1679.33
868.33	1650.66
868.49	1722.34
868.66	1726.44
868.83	1753.06
868.99	1718.25
869.16	1701.86
869.33	1775.59
869.50	1736.68
869.66	1689.57
869.83	1757.16
870.00	1636.33
870.16	1716.20
870.33	1716.20
870.50	1787.88
870.66	1636.33
870.83	1877.99
871.00	1751.01
871.17	1671.14
871.33	1771.49
871.50	1695.72
871.67	1658.85
871.83	1640.42
872.00	1777.64
872.17	1714.15
872.33	1882.08
872.50	1808.36
872.67	1773.54
872.83	1703.91
873.00	1763.30
873.17	1679.33
873.33	1746.92
873.50	1665.00
873.67	1656.81
873.83	1705.96
874.00	1677.29
874.16	1722.34
874.33	1724.39
874.50	1695.72
874.66	1763.30
874.83	1710.05
875.00	1818.60
875.16	1757.16
875.33	1759.21
875.50	1630.18
875.66	1681.38
875.83	1683.43
875.99	1804.26
876.16	1771.49
876.33	1628.14
876.49	1634.28
876.66	1679.33
876.83	1712.10
876.99	1578.98
877.16	1640.42
877.32	1724.39
877.49	1689.57
877.66	1757.16
877.82	1806.31
877.99	1757.16
878.15	1728.49
878.32	1654.76
878.49	1738.73
878.65	1679.33
878.82	1808.36
878.98	1683.43
879.15	1814.50
879.32	1689.57
879.48	1783.78
879.65	1630.18
879.81	1634.28
879.98	1660.90
880.15	1720.29
880.31	1810.40
880.48	1619.94
880.64	1753.06
880.81	1683.43
880.97	1812.45
881.14	1796.07
881.31	1697.77
881.47	1845.22
881.64	1589.22
881.80	1640.42
881.97	1675.24
882.13	1816.55
882.30	1669.09
882.47	1740.77
882.63	1705.96
882.80	1701.86
882.96	1624.04
883.13	1771.49
883.29	1726.44
883.46	1830.88
883.62	1839.08
883.79	1714.15
883.95	1763.30
884.12	1783.78
884.29	1720.29
884.45	1677.29
884.62	1771.49
884.78	1701.86
884.95	1861.60
885.11	1669.09
885.28	1742.82
885.44	1689.57
885.61	1722.34
885.77	1761.25
885.94	1740.77
886.10	1753.06
886.27	1812.45
886.43	1808.36
886.60	1796.07
886.76	1724.39
886.93	1628.14
887.09	1757.16
887.26	1572.84
887.42	1703.91
887.59	1918.95
887.75	1886.18
887.92	1736.68
888.08	1691.62
888.25	1837.03
888.41	1789.92
888.58	1701.86
888.74	1681.38
888.91	1685.48
>>>>>End Processed Spectral Data<<<<<
