SpectraSuite Data File
++++++++++++++++++++++++++++++++++++
Date: Mon Jun 06 12:53:57 CEST 2016
User: root
Dark Spectrum Present: No
Reference Spectrum Present: No
Number of Sampled Component Spectra: 1
Spectrometers: USB4C02835
Integration Time (usec): 100000 (USB4C02835)
Spectra Averaged: 1 (USB4C02835)
Boxcar Smoothing: 0 (USB4C02835)
Correct for Electrical Dark: No (USB4C02835)
Strobe/Lamp Enabled: No (USB4C02835)
Correct for Detector Non-linearity: No (USB4C02835)
Correct for Stray Light: No (USB4C02835)
Number of Pixels in Processed Spectrum: 3648
>>>>>Begin Processed Spectral Data<<<<<
177.47	1398.76
177.69	1398.76
177.91	1398.76
178.13	1474.54
178.36	1423.34
178.58	1665.00
178.80	1712.10
179.02	1583.08
179.24	1642.47
179.46	1699.81
179.68	1767.40
179.90	1687.53
180.13	1720.29
180.35	1660.90
180.57	1710.05
180.79	1701.86
181.01	1667.05
181.23	1779.68
181.45	1771.49
181.67	1724.39
181.90	1681.38
182.12	1710.05
182.34	1603.56
182.56	1705.96
182.78	1775.59
183.00	1660.90
183.22	1757.16
183.44	1601.51
183.66	1841.12
183.89	1832.93
184.11	1679.33
184.33	1705.96
184.55	1724.39
184.77	1763.30
184.99	1755.11
185.21	1632.23
185.43	1816.55
185.65	1679.33
185.87	1748.97
186.10	1769.44
186.32	1908.71
186.54	1785.83
186.76	1705.96
186.98	1751.01
187.20	1640.42
187.42	1685.48
187.64	1738.73
187.86	1665.00
188.08	1673.19
188.30	1673.19
188.52	1640.42
188.75	1742.82
188.97	1724.39
189.19	1730.53
189.41	1656.81
189.63	1646.57
189.85	1665.00
190.07	1611.75
190.29	1681.38
190.51	1660.90
190.73	1619.94
190.95	1820.64
191.17	1738.73
191.39	1564.65
191.61	1675.24
191.84	1617.90
192.06	1687.53
192.28	1611.75
192.50	1824.74
192.72	1765.35
192.94	1677.29
193.16	1746.92
193.38	1632.23
193.60	1599.46
193.82	1669.09
194.04	1726.44
194.26	1773.54
194.48	1705.96
194.70	1740.77
194.92	1673.19
195.14	1775.59
195.36	1638.38
195.58	1683.43
195.80	1654.76
196.02	1748.97
196.24	1734.63
196.46	1687.53
196.69	1673.19
196.91	1812.45
197.13	1716.20
197.35	1624.04
197.57	1816.55
197.79	1751.01
198.01	1703.91
198.23	1722.34
198.45	1806.31
198.67	1617.90
198.89	1630.18
199.11	1673.19
199.33	1650.66
199.55	1587.18
199.77	1701.86
199.99	1755.11
200.21	1722.34
200.43	1669.09
200.65	1693.67
200.87	1593.32
201.09	1722.34
201.31	1679.33
201.53	1753.06
201.75	1701.86
201.97	1767.40
202.19	1722.34
202.41	1693.67
202.63	1808.36
202.85	1716.20
203.07	1724.39
203.29	1619.94
203.51	1646.57
203.73	1581.03
203.95	1863.65
204.17	1718.25
204.39	1683.43
204.61	1802.21
204.83	1708.01
205.05	1781.73
205.27	1681.38
205.49	1818.60
205.71	1652.71
205.93	1621.99
206.15	1535.98
206.37	1726.44
206.59	1712.10
206.81	1693.67
207.03	1642.47
207.25	1605.61
207.47	1718.25
207.69	1675.24
207.91	1783.78
208.13	1751.01
208.34	1660.90
208.56	1683.43
208.78	1785.83
209.00	1644.52
209.22	1703.91
209.44	1654.76
209.66	1662.95
209.88	1679.33
210.10	1679.33
210.32	1740.77
210.54	1839.08
210.76	1638.38
210.98	1673.19
211.20	1505.26
211.42	1611.75
211.64	1712.10
211.86	1757.16
212.08	1708.01
212.30	1691.62
212.52	1714.15
212.74	1775.59
212.96	1710.05
213.17	1808.36
213.39	1791.97
213.61	1740.77
213.83	1691.62
214.05	1665.00
214.27	1710.05
214.49	1648.61
214.71	1665.00
214.93	1779.68
215.15	1632.23
215.37	1722.34
215.59	1597.42
215.81	1710.05
216.03	1832.93
216.24	1693.67
216.46	1638.38
216.68	1718.25
216.90	1808.36
217.12	1755.11
217.34	1697.77
217.56	1677.29
217.78	1769.44
218.00	1695.72
218.22	1665.00
218.44	1732.58
218.66	1679.33
218.87	1759.21
219.09	1669.09
219.31	1779.68
219.53	1755.11
219.75	1708.01
219.97	1642.47
220.19	1671.14
220.41	1703.91
220.63	1814.50
220.85	1736.68
221.06	1693.67
221.28	1718.25
221.50	1701.86
221.72	1683.43
221.94	1681.38
222.16	1671.14
222.38	1685.48
222.60	1781.73
222.82	1699.81
223.03	1804.26
223.25	1677.29
223.47	1751.01
223.69	1857.51
223.91	1757.16
224.13	1697.77
224.35	1665.00
224.57	1779.68
224.78	1703.91
225.00	1617.90
225.22	1630.18
225.44	1740.77
225.66	1728.49
225.88	1665.00
226.10	1732.58
226.32	1734.63
226.53	1753.06
226.75	1660.90
226.97	1669.09
227.19	1658.85
227.41	1669.09
227.63	1732.58
227.85	1611.75
228.06	1681.38
228.28	1679.33
228.50	1791.97
228.72	1652.71
228.94	1640.42
229.16	1556.46
229.37	1634.28
229.59	1640.42
229.81	1789.92
230.03	1615.85
230.25	1644.52
230.47	1660.90
230.69	1587.18
230.90	1755.11
231.12	1617.90
231.34	1701.86
231.56	1742.82
231.78	1695.72
232.00	1695.72
232.21	1650.66
232.43	1738.73
232.65	1658.85
232.87	1685.48
233.09	1630.18
233.30	1619.94
233.52	1738.73
233.74	1730.53
233.96	1646.57
234.18	1746.92
234.40	1732.58
234.61	1832.93
234.83	1628.14
235.05	1626.09
235.27	1808.36
235.49	1837.03
235.70	1701.86
235.92	1740.77
236.14	1767.40
236.36	1828.84
236.58	1609.70
236.79	1712.10
237.01	1720.29
237.23	1714.15
237.45	1839.08
237.67	1652.71
237.88	1720.29
238.10	1865.70
238.32	1697.77
238.54	1722.34
238.76	1705.96
238.97	1654.76
239.19	1613.80
239.41	1757.16
239.63	1720.29
239.85	1615.85
240.06	1640.42
240.28	1755.11
240.50	1726.44
240.72	1689.57
240.93	1722.34
241.15	1753.06
241.37	1722.34
241.59	1761.25
241.81	1697.77
242.02	1712.10
242.24	1738.73
242.46	1779.68
242.68	1669.09
242.89	1759.21
243.11	1763.30
243.33	1718.25
243.55	1710.05
243.76	1789.92
243.98	1603.56
244.20	1691.62
244.42	1712.10
244.64	1824.74
244.85	1652.71
245.07	1656.81
245.29	1742.82
245.51	1759.21
245.72	1652.71
245.94	1732.58
246.16	1699.81
246.38	1685.48
246.59	1658.85
246.81	1535.98
247.03	1705.96
247.24	1517.54
247.46	1734.63
247.68	1740.77
247.90	1656.81
248.11	1687.53
248.33	1710.05
248.55	1673.19
248.77	1634.28
248.98	1783.78
249.20	1755.11
249.42	1740.77
249.64	1730.53
249.85	1726.44
250.07	1726.44
250.29	1783.78
250.50	1691.62
250.72	1677.29
250.94	1699.81
251.16	1798.12
251.37	1697.77
251.59	1763.30
251.81	1718.25
252.02	1759.21
252.24	1697.77
252.46	1816.55
252.68	1689.57
252.89	1656.81
253.11	1581.03
253.33	1837.03
253.54	1785.83
253.76	1671.14
253.98	1681.38
254.20	1738.73
254.41	1673.19
254.63	1626.09
254.85	1665.00
255.06	1669.09
255.28	1738.73
255.50	1624.04
255.71	1648.61
255.93	1644.52
256.15	1716.20
256.36	1763.30
256.58	1656.81
256.80	1755.11
257.02	1683.43
257.23	1673.19
257.45	1755.11
257.67	1691.62
257.88	1589.22
258.10	1726.44
258.32	1640.42
258.53	1687.53
258.75	1791.97
258.97	1763.30
259.18	1753.06
259.40	1636.33
259.62	1771.49
259.83	1765.35
260.05	1728.49
260.27	1968.10
260.48	1769.44
260.70	1697.77
260.92	1699.81
261.13	1695.72
261.35	1755.11
261.57	1736.68
261.78	1691.62
262.00	1568.74
262.22	1716.20
262.43	1646.57
262.65	1726.44
262.86	1658.85
263.08	1779.68
263.30	1595.37
263.51	1554.41
263.73	1656.81
263.95	1810.40
264.16	1673.19
264.38	1765.35
264.60	1701.86
264.81	1624.04
265.03	1697.77
265.25	1705.96
265.46	1699.81
265.68	1720.29
265.89	1802.21
266.11	1546.22
266.33	1736.68
266.54	1726.44
266.76	1705.96
266.98	1763.30
267.19	1865.70
267.41	1710.05
267.62	1775.59
267.84	1632.23
268.06	1724.39
268.27	1683.43
268.49	1716.20
268.70	1771.49
268.92	1708.01
269.14	1734.63
269.35	1597.42
269.57	1724.39
269.79	1716.20
270.00	1683.43
270.22	1863.65
270.43	1689.57
270.65	1533.93
270.87	1624.04
271.08	1693.67
271.30	1771.49
271.51	1671.14
271.73	1783.78
271.95	1855.46
272.16	1730.53
272.38	1673.19
272.59	1656.81
272.81	1726.44
273.02	1722.34
273.24	1730.53
273.46	1796.07
273.67	1613.80
273.89	1712.10
274.10	1685.48
274.32	1781.73
274.54	1718.25
274.75	1701.86
274.97	1671.14
275.18	1740.77
275.40	1757.16
275.61	1681.38
275.83	1724.39
276.05	1712.10
276.26	1691.62
276.48	1734.63
276.69	1607.66
276.91	1710.05
277.12	1738.73
277.34	1679.33
277.55	1746.92
277.77	1724.39
277.99	1755.11
278.20	1611.75
278.42	1689.57
278.63	1703.91
278.85	1642.47
279.06	1632.23
279.28	1656.81
279.49	1738.73
279.71	1761.25
279.93	1652.71
280.14	1705.96
280.36	1701.86
280.57	1632.23
280.79	1777.64
281.00	1619.94
281.22	1705.96
281.43	1718.25
281.65	1587.18
281.86	1730.53
282.08	1689.57
282.29	1853.41
282.51	1640.42
282.73	1716.20
282.94	1599.46
283.16	1677.29
283.37	1804.26
283.59	1660.90
283.80	1734.63
284.02	1726.44
284.23	1724.39
284.45	1658.85
284.66	1648.61
284.88	1755.11
285.09	1660.90
285.31	1779.68
285.52	1800.16
285.74	1669.09
285.95	1726.44
286.17	1667.05
286.38	1769.44
286.60	1660.90
286.81	1626.09
287.03	1718.25
287.24	1603.56
287.46	1773.54
287.67	1744.87
287.89	1832.93
288.10	1705.96
288.32	1656.81
288.53	1769.44
288.75	1742.82
288.96	1701.86
289.18	1697.77
289.39	1718.25
289.61	1761.25
289.82	1767.40
290.04	1714.15
290.25	1601.51
290.47	1691.62
290.68	1658.85
290.90	1730.53
291.11	1585.13
291.33	1665.00
291.54	1660.90
291.76	1701.86
291.97	1742.82
292.18	1722.34
292.40	1667.05
292.61	1677.29
292.83	1869.80
293.04	1753.06
293.26	1667.05
293.47	1673.19
293.69	1679.33
293.90	1734.63
294.12	1767.40
294.33	1736.68
294.55	1593.32
294.76	1714.15
294.97	1765.35
295.19	1816.55
295.40	1732.58
295.62	1775.59
295.83	1763.30
296.05	1603.56
296.26	1845.22
296.48	1583.08
296.69	1630.18
296.90	1669.09
297.12	1785.83
297.33	1751.01
297.55	1685.48
297.76	1728.49
297.98	1748.97
298.19	1720.29
298.41	1691.62
298.62	1605.61
298.83	1687.53
299.05	1753.06
299.26	1687.53
299.48	1658.85
299.69	1658.85
299.90	1714.15
300.12	1665.00
300.33	1738.73
300.55	1656.81
300.76	1757.16
300.98	1642.47
301.19	1695.72
301.40	1746.92
301.62	1734.63
301.83	1632.23
302.05	1669.09
302.26	1638.38
302.47	1685.48
302.69	1738.73
302.90	1779.68
303.12	1527.78
303.33	1699.81
303.54	1753.06
303.76	1726.44
303.97	1617.90
304.19	1732.58
304.40	1644.52
304.61	1744.87
304.83	1804.26
305.04	1804.26
305.26	1691.62
305.47	1658.85
305.68	1619.94
305.90	1716.20
306.11	1675.24
306.33	1689.57
306.54	1710.05
306.75	1550.31
306.97	1644.52
307.18	1662.95
307.39	1693.67
307.61	1765.35
307.82	1726.44
308.04	1755.11
308.25	1572.84
308.46	1701.86
308.68	1642.47
308.89	1763.30
309.10	1736.68
309.32	1753.06
309.53	1638.38
309.74	1732.58
309.96	1712.10
310.17	1740.77
310.39	1667.05
310.60	1753.06
310.81	1656.81
311.03	1640.42
311.24	1726.44
311.45	1751.01
311.67	1857.51
311.88	1773.54
312.09	1703.91
312.31	1681.38
312.52	1648.61
312.73	1701.86
312.95	1628.14
313.16	1695.72
313.37	1708.01
313.59	1710.05
313.80	1771.49
314.01	1724.39
314.23	1665.00
314.44	1710.05
314.65	1638.38
314.87	1656.81
315.08	1658.85
315.29	1699.81
315.51	1597.42
315.72	1636.33
315.93	1785.83
316.15	1773.54
316.36	1681.38
316.57	1691.62
316.79	1724.39
317.00	1673.19
317.21	1740.77
317.43	1628.14
317.64	1642.47
317.85	1685.48
318.07	1660.90
318.28	1789.92
318.49	1751.01
318.70	1832.93
318.92	1828.84
319.13	1785.83
319.34	1839.08
319.56	1753.06
319.77	1775.59
319.98	1744.87
320.20	1767.40
320.41	1755.11
320.62	1722.34
320.83	1712.10
321.05	1859.56
321.26	1687.53
321.47	1695.72
321.69	1826.79
321.90	1656.81
322.11	1695.72
322.32	1726.44
322.54	1748.97
322.75	1679.33
322.96	1759.21
323.18	1660.90
323.39	1597.42
323.60	1648.61
323.81	1773.54
324.03	1632.23
324.24	1732.58
324.45	1646.57
324.66	1683.43
324.88	1755.11
325.09	1740.77
325.30	1675.24
325.52	1777.64
325.73	1640.42
325.94	1640.42
326.15	1652.71
326.37	1650.66
326.58	1734.63
326.79	1775.59
327.00	1654.76
327.22	1724.39
327.43	1662.95
327.64	1587.18
327.85	1759.21
328.07	1703.91
328.28	1736.68
328.49	1648.61
328.70	1626.09
328.92	1718.25
329.13	1734.63
329.34	1742.82
329.55	1705.96
329.76	1728.49
329.98	1617.90
330.19	1828.84
330.40	1740.77
330.61	1718.25
330.83	1751.01
331.04	1685.48
331.25	1703.91
331.46	1714.15
331.68	1644.52
331.89	1798.12
332.10	1742.82
332.31	1630.18
332.52	1701.86
332.74	1798.12
332.95	1689.57
333.16	1609.70
333.37	1724.39
333.58	1683.43
333.80	1658.85
334.01	1581.03
334.22	1736.68
334.43	1697.77
334.64	1742.82
334.86	1546.22
335.07	1640.42
335.28	1753.06
335.49	1667.05
335.70	1718.25
335.92	1783.78
336.13	1800.16
336.34	1800.16
336.55	1779.68
336.76	1710.05
336.98	1615.85
337.19	1683.43
337.40	1845.22
337.61	1820.64
337.82	1636.33
338.04	1720.29
338.25	1646.57
338.46	1734.63
338.67	1597.42
338.88	1648.61
339.09	1626.09
339.31	1726.44
339.52	1675.24
339.73	1617.90
339.94	1669.09
340.15	1718.25
340.36	1722.34
340.58	1681.38
340.79	1683.43
341.00	1757.16
341.21	1673.19
341.42	1685.48
341.63	1744.87
341.85	1703.91
342.06	1738.73
342.27	1626.09
342.48	1771.49
342.69	1578.98
342.90	1685.48
343.12	1734.63
343.33	1701.86
343.54	1740.77
343.75	1785.83
343.96	1716.20
344.17	1626.09
344.38	1671.14
344.60	1621.99
344.81	1685.48
345.02	1699.81
345.23	1773.54
345.44	1724.39
345.65	1697.77
345.86	1746.92
346.07	1779.68
346.29	1609.70
346.50	1802.21
346.71	1755.11
346.92	1701.86
347.13	1794.02
347.34	1634.28
347.55	1716.20
347.76	1697.77
347.98	1656.81
348.19	1652.71
348.40	1714.15
348.61	1773.54
348.82	1830.88
349.03	1730.53
349.24	1624.04
349.45	1826.79
349.66	1640.42
349.88	1632.23
350.09	1648.61
350.30	1681.38
350.51	1736.68
350.72	1703.91
350.93	1718.25
351.14	1679.33
351.35	1746.92
351.56	1732.58
351.77	1656.81
351.99	1718.25
352.20	1779.68
352.41	1705.96
352.62	1578.98
352.83	1677.29
353.04	1744.87
353.25	1730.53
353.46	1818.60
353.67	1718.25
353.88	1650.66
354.09	1669.09
354.30	1779.68
354.52	1669.09
354.73	1689.57
354.94	1619.94
355.15	1654.76
355.36	1791.97
355.57	1630.18
355.78	1738.73
355.99	1624.04
356.20	1619.94
356.41	1812.45
356.62	1705.96
356.83	1705.96
357.04	1746.92
357.25	1593.32
357.46	1703.91
357.68	1558.50
357.89	1677.29
358.10	1673.19
358.31	1654.76
358.52	1654.76
358.73	1660.90
358.94	1656.81
359.15	1673.19
359.36	1665.00
359.57	1705.96
359.78	1636.33
359.99	1724.39
360.20	1665.00
360.41	1710.05
360.62	1689.57
360.83	1718.25
361.04	1734.63
361.25	1736.68
361.46	1804.26
361.67	1712.10
361.88	1771.49
362.09	1775.59
362.30	1755.11
362.51	1648.61
362.72	1720.29
362.93	1767.40
363.14	1736.68
363.35	1722.34
363.56	1613.80
363.78	1808.36
363.99	1708.01
364.20	1697.77
364.41	1714.15
364.62	1755.11
364.83	1816.55
365.04	1703.91
365.25	1685.48
365.46	1808.36
365.67	1624.04
365.88	1634.28
366.09	1656.81
366.30	1679.33
366.51	1710.05
366.72	1675.24
366.93	1697.77
367.14	1705.96
367.35	1781.73
367.56	1687.53
367.77	1802.21
367.98	1738.73
368.18	1720.29
368.39	1765.35
368.60	1673.19
368.81	1751.01
369.02	1738.73
369.23	1730.53
369.44	1638.38
369.65	1687.53
369.86	1687.53
370.07	1755.11
370.28	1669.09
370.49	1718.25
370.70	1726.44
370.91	1640.42
371.12	1646.57
371.33	1681.38
371.54	1617.90
371.75	1818.60
371.96	1607.66
372.17	1697.77
372.38	1656.81
372.59	1787.88
372.80	1652.71
373.01	1689.57
373.22	1730.53
373.43	1728.49
373.64	1697.77
373.85	1679.33
374.06	1822.69
374.26	1708.01
374.47	1718.25
374.68	1777.64
374.89	1656.81
375.10	1693.67
375.31	1748.97
375.52	1710.05
375.73	1701.86
375.94	1605.61
376.15	1779.68
376.36	1703.91
376.57	1738.73
376.78	1697.77
376.99	1705.96
377.20	1742.82
377.40	1634.28
377.61	1877.99
377.82	1636.33
378.03	1769.44
378.24	1740.77
378.45	1673.19
378.66	1755.11
378.87	1572.84
379.08	1574.89
379.29	1693.67
379.50	1699.81
379.71	1746.92
379.91	1800.16
380.12	1697.77
380.33	1724.39
380.54	1677.29
380.75	1757.16
380.96	1744.87
381.17	1718.25
381.38	1701.86
381.59	1728.49
381.80	1714.15
382.00	1847.27
382.21	1710.05
382.42	1808.36
382.63	1941.47
382.84	1773.54
383.05	1746.92
383.26	1804.26
383.47	1662.95
383.68	1732.58
383.88	1699.81
384.09	1791.97
384.30	1798.12
384.51	1687.53
384.72	1697.77
384.93	1712.10
385.14	1701.86
385.35	1765.35
385.55	1654.76
385.76	1834.98
385.97	1681.38
386.18	1714.15
386.39	1705.96
386.60	1689.57
386.81	1718.25
387.02	1701.86
387.22	1652.71
387.43	1800.16
387.64	1814.50
387.85	1867.75
388.06	2277.34
388.27	4310.97
388.48	6938.52
388.68	8404.86
388.89	9867.11
389.10	10004.33
389.31	8884.09
389.52	7862.15
389.73	6903.70
389.93	6358.94
390.14	5947.30
390.35	5285.81
390.56	4784.06
390.77	3815.37
390.98	3151.82
391.18	2519.00
391.39	2086.88
391.60	1845.22
391.81	1802.21
392.02	1746.92
392.23	1800.16
392.43	1730.53
392.64	1847.27
392.85	1732.58
393.06	1791.97
393.27	1677.29
393.47	1636.33
393.68	1759.21
393.89	1710.05
394.10	1726.44
394.31	1693.67
394.52	1638.38
394.72	1615.85
394.93	1771.49
395.14	1685.48
395.35	1759.21
395.56	1691.62
395.76	1755.11
395.97	1775.59
396.18	1798.12
396.39	1826.79
396.60	2039.78
396.80	1834.98
397.01	1832.93
397.22	1898.47
397.43	1810.40
397.64	1718.25
397.84	1834.98
398.05	1751.01
398.26	1771.49
398.47	1746.92
398.67	1826.79
398.88	1687.53
399.09	1828.84
399.30	1605.61
399.51	1765.35
399.71	1726.44
399.92	1665.00
400.13	1751.01
400.34	1677.29
400.54	1714.15
400.75	1787.88
400.96	1732.58
401.17	1759.21
401.37	1726.44
401.58	1708.01
401.79	1734.63
402.00	1935.33
402.21	2013.15
402.41	1871.84
402.62	1957.86
402.83	1982.43
403.04	1986.53
403.24	2060.26
403.45	1865.70
403.66	1968.10
403.87	1912.80
404.07	1939.43
404.28	1912.80
404.49	1886.18
404.70	1802.21
404.90	1755.11
405.11	1761.25
405.32	1710.05
405.52	1691.62
405.73	1693.67
405.94	1689.57
406.15	1708.01
406.35	1763.30
406.56	1800.16
406.77	1720.29
406.98	1722.34
407.18	1671.14
407.39	1787.88
407.60	1722.34
407.80	1777.64
408.01	1722.34
408.22	1732.58
408.43	1689.57
408.63	1693.67
408.84	1806.31
409.05	1693.67
409.25	1636.33
409.46	1679.33
409.67	1677.29
409.88	1632.23
410.08	1748.97
410.29	1634.28
410.50	1718.25
410.70	1779.68
410.91	1626.09
411.12	1822.69
411.32	1691.62
411.53	1636.33
411.74	1826.79
411.95	1722.34
412.15	1785.83
412.36	1802.21
412.57	1740.77
412.77	1798.12
412.98	1644.52
413.19	1740.77
413.39	1814.50
413.60	1742.82
413.81	1875.94
414.01	1583.08
414.22	1724.39
414.43	1742.82
414.63	1718.25
414.84	1773.54
415.05	1703.91
415.25	1728.49
415.46	1763.30
415.67	1619.94
415.87	1738.73
416.08	1714.15
416.29	1673.19
416.49	1726.44
416.70	1710.05
416.91	1640.42
417.11	1734.63
417.32	1718.25
417.53	1738.73
417.73	1671.14
417.94	1744.87
418.15	1802.21
418.35	1695.72
418.56	1689.57
418.77	1798.12
418.97	1726.44
419.18	1689.57
419.38	1628.14
419.59	1671.14
419.80	1785.83
420.00	1705.96
420.21	1708.01
420.42	1746.92
420.62	1757.16
420.83	1689.57
421.04	1681.38
421.24	1710.05
421.45	1726.44
421.65	1757.16
421.86	1652.71
422.07	1701.86
422.27	1665.00
422.48	1701.86
422.69	1632.23
422.89	1736.68
423.10	1642.47
423.30	1662.95
423.51	1714.15
423.72	1718.25
423.92	1728.49
424.13	1630.18
424.33	1679.33
424.54	1730.53
424.75	1787.88
424.95	1830.88
425.16	1755.11
425.36	1630.18
425.57	1800.16
425.78	1763.30
425.98	1828.84
426.19	1708.01
426.39	1621.99
426.60	1703.91
426.81	1757.16
427.01	1697.77
427.22	1667.05
427.42	1574.89
427.63	1669.09
427.83	1775.59
428.04	1806.31
428.25	1701.86
428.45	1841.12
428.66	1812.45
428.86	1628.14
429.07	1683.43
429.28	1802.21
429.48	1640.42
429.69	1671.14
429.89	1689.57
430.10	1683.43
430.30	1681.38
430.51	1765.35
430.71	1658.85
430.92	1771.49
431.13	1695.72
431.33	1669.09
431.54	1705.96
431.74	1800.16
431.95	1828.84
432.15	1595.37
432.36	1652.71
432.56	1644.52
432.77	1880.04
432.98	1806.31
433.18	1667.05
433.39	1689.57
433.59	1748.97
433.80	1853.41
434.00	1890.28
434.21	1652.71
434.41	1652.71
434.62	1894.37
434.82	1626.09
435.03	1673.19
435.23	1673.19
435.44	1593.32
435.64	1708.01
435.85	1785.83
436.06	1775.59
436.26	1722.34
436.47	1693.67
436.67	1724.39
436.88	1757.16
437.08	1734.63
437.29	1863.65
437.49	1683.43
437.70	1810.40
437.90	1742.82
438.11	1925.09
438.31	1714.15
438.52	1849.32
438.72	1847.27
438.93	1935.33
439.13	1800.16
439.34	1755.11
439.54	1726.44
439.75	1890.28
439.95	1822.69
440.16	1724.39
440.36	1697.77
440.57	1769.44
440.77	1779.68
440.98	1744.87
441.18	1738.73
441.39	1689.57
441.59	1677.29
441.80	1816.55
442.00	1775.59
442.21	1894.37
442.41	1665.00
442.62	1753.06
442.82	1781.73
443.02	1779.68
443.23	1738.73
443.43	1710.05
443.64	1787.88
443.84	1667.05
444.05	1726.44
444.25	1732.58
444.46	1724.39
444.66	1746.92
444.87	1812.45
445.07	1695.72
445.28	1765.35
445.48	1802.21
445.69	1787.88
445.89	1851.36
446.09	1808.36
446.30	2004.96
446.50	2633.69
446.71	3672.01
446.91	4485.05
447.12	4859.83
447.32	4870.07
447.53	4353.98
447.73	3862.47
447.93	3659.72
448.14	3397.58
448.34	3237.84
448.55	2906.07
448.75	2869.20
448.96	2676.70
449.16	2463.71
449.36	2303.96
449.57	2056.16
449.77	1964.00
449.98	1775.59
450.18	1804.26
450.39	1812.45
450.59	1740.77
450.79	1710.05
451.00	1642.47
451.20	1748.97
451.41	1796.07
451.61	1804.26
451.81	1787.88
452.02	1679.33
452.22	1669.09
452.43	1738.73
452.63	1673.19
452.84	1662.95
453.04	1683.43
453.24	1832.93
453.45	1714.15
453.65	1753.06
453.86	1734.63
454.06	1744.87
454.26	1779.68
454.47	1660.90
454.67	1832.93
454.87	1734.63
455.08	1703.91
455.28	1849.32
455.49	1667.05
455.69	1677.29
455.89	1789.92
456.10	1869.80
456.30	1751.01
456.51	1753.06
456.71	1746.92
456.91	1810.40
457.12	1689.57
457.32	1804.26
457.52	1720.29
457.73	1789.92
457.93	1830.88
458.14	1671.14
458.34	1689.57
458.54	1703.91
458.75	1703.91
458.95	1722.34
459.15	1642.47
459.36	1656.81
459.56	1730.53
459.76	1890.28
459.97	1662.95
460.17	1730.53
460.37	1751.01
460.58	1724.39
460.78	1726.44
460.99	1722.34
461.19	1720.29
461.39	1607.66
461.60	1693.67
461.80	1824.74
462.00	1665.00
462.21	1705.96
462.41	1632.23
462.61	1732.58
462.82	1615.85
463.02	1779.68
463.22	1712.10
463.43	1857.51
463.63	1748.97
463.83	1804.26
464.04	1794.02
464.24	1701.86
464.44	1628.14
464.64	1832.93
464.85	1757.16
465.05	1746.92
465.25	1746.92
465.46	1697.77
465.66	1775.59
465.86	1779.68
466.07	1730.53
466.27	1732.58
466.47	1671.14
466.68	1644.52
466.88	1810.40
467.08	1736.68
467.29	1718.25
467.49	1789.92
467.69	1748.97
467.89	1728.49
468.10	1724.39
468.30	1761.25
468.50	1767.40
468.71	1757.16
468.91	1644.52
469.11	1804.26
469.31	1628.14
469.52	1714.15
469.72	1736.68
469.92	1898.47
470.13	1691.62
470.33	1662.95
470.53	1834.98
470.73	2097.12
470.94	2281.44
471.14	2369.50
471.34	2475.99
471.54	2467.80
471.75	2199.52
471.95	2129.89
472.15	2146.27
472.36	2105.31
472.56	2117.60
472.76	2097.12
472.96	1982.43
473.17	1931.23
473.37	1964.00
473.57	1824.74
473.77	1804.26
473.98	1755.11
474.18	1677.29
474.38	1910.75
474.58	1691.62
474.79	1705.96
474.99	1683.43
475.19	1800.16
475.39	1740.77
475.60	1751.01
475.80	1705.96
476.00	1710.05
476.20	1697.77
476.41	1740.77
476.61	1857.51
476.81	1726.44
477.01	1738.73
477.21	1892.32
477.42	1806.31
477.62	1671.14
477.82	1806.31
478.02	1767.40
478.23	1714.15
478.43	1665.00
478.63	1705.96
478.83	1781.73
479.03	1705.96
479.24	1781.73
479.44	1834.98
479.64	1652.71
479.84	1693.67
480.04	1650.66
480.25	1746.92
480.45	1683.43
480.65	1603.56
480.85	1880.04
481.06	1697.77
481.26	1705.96
481.46	1837.03
481.66	1740.77
481.86	1599.46
482.06	1755.11
482.27	1621.99
482.47	1640.42
482.67	1728.49
482.87	1652.71
483.07	1820.64
483.28	1757.16
483.48	1708.01
483.68	1724.39
483.88	1720.29
484.08	1529.83
484.29	1607.66
484.49	1777.64
484.69	1621.99
484.89	1849.32
485.09	1777.64
485.29	1738.73
485.50	1755.11
485.70	1705.96
485.90	1818.60
486.10	1767.40
486.30	1716.20
486.50	1708.01
486.71	1687.53
486.91	1697.77
487.11	1775.59
487.31	1697.77
487.51	1708.01
487.71	1677.29
487.91	1611.75
488.12	1597.42
488.32	1583.08
488.52	1732.58
488.72	1550.31
488.92	1677.29
489.12	1757.16
489.32	1820.64
489.53	1763.30
489.73	1683.43
489.93	1783.78
490.13	1732.58
490.33	1613.80
490.53	1744.87
490.73	1699.81
490.94	1638.38
491.14	1689.57
491.34	1841.12
491.54	2095.07
491.74	2572.25
491.94	2965.46
492.14	3092.43
492.34	3028.95
492.54	2826.20
492.75	2504.67
492.95	2447.32
493.15	2344.92
493.35	2351.07
493.55	2189.28
493.75	2154.46
493.95	2131.94
494.15	2047.97
494.35	1892.32
494.56	1918.95
494.76	1701.86
494.96	1812.45
495.16	1826.79
495.36	1667.05
495.56	1781.73
495.76	1716.20
495.96	1716.20
496.16	1648.61
496.36	1869.80
496.56	1675.24
496.77	1734.63
496.97	1720.29
497.17	1812.45
497.37	1679.33
497.57	1730.53
497.77	1693.67
497.97	1769.44
498.17	1753.06
498.37	1626.09
498.57	1738.73
498.77	1722.34
498.97	1785.83
499.17	1779.68
499.38	1708.01
499.58	1724.39
499.78	1816.55
499.98	1800.16
500.18	1779.68
500.38	1742.82
500.58	1871.84
500.78	2516.95
500.98	4689.85
501.18	6059.94
501.38	7006.10
501.58	7280.53
501.78	6940.57
501.98	5638.06
502.18	5019.57
502.38	4569.02
502.58	4177.86
502.78	3880.90
502.98	3741.64
503.18	3502.03
503.38	3127.25
503.59	2912.21
503.79	2648.02
503.99	2494.43
504.19	2269.15
504.39	2236.38
504.59	2136.03
504.79	2107.36
504.99	2090.98
505.19	1910.75
505.39	1935.33
505.59	1959.91
505.79	1898.47
505.99	1724.39
506.19	1777.64
506.39	1877.99
506.59	1720.29
506.79	1730.53
506.99	1755.11
507.19	1703.91
507.39	1751.01
507.59	1691.62
507.79	1689.57
507.99	1681.38
508.19	1681.38
508.39	1755.11
508.59	1789.92
508.79	1822.69
508.99	1759.21
509.19	1718.25
509.39	1820.64
509.59	1654.76
509.79	1728.49
509.99	1755.11
510.19	1818.60
510.39	1767.40
510.59	1779.68
510.79	1734.63
510.99	1689.57
511.19	1710.05
511.39	1771.49
511.59	1761.25
511.79	1845.22
511.99	1753.06
512.19	1812.45
512.38	1740.77
512.58	1638.38
512.78	1802.21
512.98	1828.84
513.18	1845.22
513.38	1621.99
513.58	1736.68
513.78	1687.53
513.98	1667.05
514.18	1683.43
514.38	1667.05
514.58	1757.16
514.78	1699.81
514.98	1705.96
515.18	1732.58
515.38	1621.99
515.58	1849.32
515.78	1628.14
515.98	1669.09
516.18	1630.18
516.38	1755.11
516.57	1722.34
516.77	1695.72
516.97	1791.97
517.17	1619.94
517.37	1628.14
517.57	1781.73
517.77	1671.14
517.97	1751.01
518.17	1744.87
518.37	1705.96
518.57	1660.90
518.77	1669.09
518.97	1673.19
519.16	1687.53
519.36	1812.45
519.56	1785.83
519.76	1722.34
519.96	1738.73
520.16	1757.16
520.36	1724.39
520.56	1783.78
520.76	1593.32
520.96	1687.53
521.16	1789.92
521.35	1779.68
521.55	1828.84
521.75	1736.68
521.95	1693.67
522.15	1683.43
522.35	1638.38
522.55	1710.05
522.75	1791.97
522.95	1675.24
523.14	1708.01
523.34	1755.11
523.54	1679.33
523.74	1722.34
523.94	1748.97
524.14	1669.09
524.34	1681.38
524.54	1888.23
524.73	1746.92
524.93	1779.68
525.13	1695.72
525.33	1681.38
525.53	1847.27
525.73	1761.25
525.93	1710.05
526.13	1751.01
526.32	1667.05
526.52	1841.12
526.72	1769.44
526.92	1701.86
527.12	1738.73
527.32	1652.71
527.52	1738.73
527.71	1742.82
527.91	1832.93
528.11	1699.81
528.31	1730.53
528.51	1611.75
528.71	1730.53
528.90	1808.36
529.10	1738.73
529.30	1841.12
529.50	1568.74
529.70	1767.40
529.90	1763.30
530.09	1665.00
530.29	1665.00
530.49	1660.90
530.69	1882.08
530.89	1736.68
531.09	1787.88
531.28	1677.29
531.48	1810.40
531.68	1673.19
531.88	1689.57
532.08	1734.63
532.28	1624.04
532.47	1775.59
532.67	1748.97
532.87	1834.98
533.07	1658.85
533.27	1771.49
533.46	1716.20
533.66	1751.01
533.86	1689.57
534.06	1722.34
534.26	1720.29
534.45	1748.97
534.65	1808.36
534.85	1685.48
535.05	1779.68
535.25	1732.58
535.44	1613.80
535.64	1757.16
535.84	1708.01
536.04	1759.21
536.24	1705.96
536.43	1742.82
536.63	1751.01
536.83	1697.77
537.03	1662.95
537.22	1626.09
537.42	1722.34
537.62	1787.88
537.82	1697.77
538.02	1845.22
538.21	1834.98
538.41	1853.41
538.61	1763.30
538.81	1757.16
539.00	1738.73
539.20	1628.14
539.40	1732.58
539.60	1783.78
539.79	1705.96
539.99	1791.97
540.19	1677.29
540.39	1787.88
540.58	1726.44
540.78	1699.81
540.98	1718.25
541.18	1730.53
541.37	1746.92
541.57	1681.38
541.77	1755.11
541.97	1648.61
542.16	1665.00
542.36	1734.63
542.56	1769.44
542.76	1800.16
542.95	1736.68
543.15	1738.73
543.35	1826.79
543.54	1716.20
543.74	1667.05
543.94	1769.44
544.14	1667.05
544.33	1812.45
544.53	1701.86
544.73	1685.48
544.93	1689.57
545.12	1693.67
545.32	1736.68
545.52	1796.07
545.71	1675.24
545.91	1726.44
546.11	1697.77
546.30	1728.49
546.50	1800.16
546.70	1765.35
546.90	1714.15
547.09	1603.56
547.29	1683.43
547.49	1789.92
547.68	1679.33
547.88	1742.82
548.08	1804.26
548.27	2226.14
548.47	1679.33
548.67	1593.32
548.87	1777.64
549.06	1738.73
549.26	1736.68
549.46	1722.34
549.65	1712.10
549.85	1736.68
550.05	1734.63
550.24	1595.37
550.44	1695.72
550.64	1710.05
550.83	1724.39
551.03	1828.84
551.23	1820.64
551.42	1787.88
551.62	1769.44
551.82	1748.97
552.01	1748.97
552.21	1712.10
552.41	1763.30
552.60	1806.31
552.80	1751.01
553.00	1624.04
553.19	1679.33
553.39	1783.78
553.59	1660.90
553.78	1740.77
553.98	1683.43
554.17	1693.67
554.37	1753.06
554.57	1759.21
554.76	1705.96
554.96	1712.10
555.16	1748.97
555.35	1771.49
555.55	1726.44
555.75	1767.40
555.94	1806.31
556.14	1648.61
556.33	1806.31
556.53	1734.63
556.73	1732.58
556.92	1703.91
557.12	1783.78
557.32	1853.41
557.51	1869.80
557.71	1751.01
557.90	1839.08
558.10	1820.64
558.30	1726.44
558.49	1746.92
558.69	1732.58
558.88	1708.01
559.08	1757.16
559.28	1763.30
559.47	1644.52
559.67	1791.97
559.86	1837.03
560.06	1748.97
560.26	1751.01
560.45	1765.35
560.65	1767.40
560.84	1800.16
561.04	1632.23
561.24	1806.31
561.43	1685.48
561.63	1853.41
561.82	1687.53
562.02	1751.01
562.22	1710.05
562.41	1693.67
562.61	1740.77
562.80	1671.14
563.00	1910.75
563.19	1708.01
563.39	1708.01
563.59	1683.43
563.78	1691.62
563.98	1683.43
564.17	1648.61
564.37	1607.66
564.56	1699.81
564.76	1703.91
564.96	1775.59
565.15	1726.44
565.35	1939.43
565.54	1718.25
565.74	1832.93
565.93	1787.88
566.13	1732.58
566.32	1742.82
566.52	1812.45
566.71	1720.29
566.91	1796.07
567.11	1679.33
567.30	1691.62
567.50	1775.59
567.69	1796.07
567.89	1726.44
568.08	1718.25
568.28	1742.82
568.47	1689.57
568.67	1812.45
568.86	1683.43
569.06	1777.64
569.25	1730.53
569.45	1615.85
569.64	1712.10
569.84	1708.01
570.04	1791.97
570.23	1693.67
570.43	1681.38
570.62	1777.64
570.82	1789.92
571.01	1718.25
571.21	1771.49
571.40	1665.00
571.60	1763.30
571.79	1791.97
571.99	1705.96
572.18	1714.15
572.38	1763.30
572.57	1683.43
572.77	1748.97
572.96	1882.08
573.16	1798.12
573.35	1712.10
573.55	1763.30
573.74	1759.21
573.94	1759.21
574.13	1720.29
574.33	1841.12
574.52	1781.73
574.71	1728.49
574.91	1839.08
575.10	1677.29
575.30	1701.86
575.49	1736.68
575.69	1660.90
575.88	1757.16
576.08	1677.29
576.27	1847.27
576.47	1697.77
576.66	1785.83
576.86	1837.03
577.05	1761.25
577.25	1771.49
577.44	1875.94
577.64	1736.68
577.83	1794.02
578.02	1785.83
578.22	1777.64
578.41	1812.45
578.61	1718.25
578.80	1683.43
579.00	1794.02
579.19	1757.16
579.39	1798.12
579.58	1802.21
579.77	1767.40
579.97	1841.12
580.16	1759.21
580.36	1796.07
580.55	1832.93
580.75	1771.49
580.94	1675.24
581.13	1773.54
581.33	1871.84
581.52	1726.44
581.72	1828.84
581.91	1820.64
582.11	1777.64
582.30	1765.35
582.49	1732.58
582.69	1759.21
582.88	1722.34
583.08	1685.48
583.27	1785.83
583.47	1785.83
583.66	1603.56
583.85	1755.11
584.05	1804.26
584.24	1834.98
584.44	1816.55
584.63	1832.93
584.82	1785.83
585.02	1908.71
585.21	1802.21
585.41	1798.12
585.60	1818.60
585.79	1882.08
585.99	1849.32
586.18	1841.12
586.37	2183.13
586.57	3438.54
586.76	10293.09
586.96	25536.12
587.15	35442.15
587.34	41792.90
587.54	43847.01
587.73	38075.84
587.93	27369.05
588.12	22435.50
588.31	19181.28
588.51	16967.42
588.70	15795.98
588.89	14516.00
589.09	13127.48
589.28	11376.47
589.47	9709.42
589.67	8091.52
589.86	6559.64
590.06	5138.35
590.25	3989.44
590.44	3246.03
590.64	2629.59
590.83	2230.24
591.02	2125.79
591.22	1912.80
591.41	1929.19
591.60	1777.64
591.80	1937.38
591.99	1744.87
592.18	1796.07
592.38	1828.84
592.57	1767.40
592.76	1718.25
592.96	1826.79
593.15	1818.60
593.34	1763.30
593.54	1806.31
593.73	1785.83
593.92	1761.25
594.12	1794.02
594.31	1732.58
594.50	1789.92
594.70	1798.12
594.89	1853.41
595.08	1708.01
595.28	1804.26
595.47	1968.10
595.66	1757.16
595.86	1714.15
596.05	1755.11
596.24	1712.10
596.43	1757.16
596.63	1761.25
596.82	1724.39
597.01	1759.21
597.21	1857.51
597.40	1732.58
597.59	1765.35
597.79	1781.73
597.98	1720.29
598.17	1759.21
598.36	1738.73
598.56	1828.84
598.75	1724.39
598.94	1730.53
599.14	1757.16
599.33	1716.20
599.52	1783.78
599.71	1734.63
599.91	1804.26
600.10	1736.68
600.29	1710.05
600.48	1738.73
600.68	1845.22
600.87	1785.83
601.06	1667.05
601.26	1742.82
601.45	1714.15
601.64	1771.49
601.83	1734.63
602.03	1671.14
602.22	1681.38
602.41	1767.40
602.60	1877.99
602.80	1777.64
602.99	1775.59
603.18	1744.87
603.37	1744.87
603.57	1761.25
603.76	1781.73
603.95	1771.49
604.14	1755.11
604.34	1667.05
604.53	1759.21
604.72	1712.10
604.91	1728.49
605.10	1865.70
605.30	1720.29
605.49	1837.03
605.68	1736.68
605.87	1767.40
606.07	1658.85
606.26	1816.55
606.45	1689.57
606.64	1683.43
606.84	1613.80
607.03	1732.58
607.22	1755.11
607.41	1642.47
607.60	1708.01
607.80	1761.25
607.99	1736.68
608.18	1732.58
608.37	1722.34
608.56	1714.15
608.76	1746.92
608.95	1812.45
609.14	1722.34
609.33	1724.39
609.52	1755.11
609.72	1679.33
609.91	1816.55
610.10	1771.49
610.29	1759.21
610.48	1757.16
610.68	1779.68
610.87	1783.78
611.06	1728.49
611.25	1675.24
611.44	1824.74
611.63	1646.57
611.83	1771.49
612.02	1654.76
612.21	1800.16
612.40	1660.90
612.59	1710.05
612.79	1662.95
612.98	1763.30
613.17	1787.88
613.36	1718.25
613.55	1796.07
613.74	1699.81
613.93	1683.43
614.13	1718.25
614.32	1789.92
614.51	1718.25
614.70	1746.92
614.89	1617.90
615.08	1732.58
615.28	2045.92
615.47	1701.86
615.66	1796.07
615.85	1722.34
616.04	1806.31
616.23	1708.01
616.42	1755.11
616.62	1671.14
616.81	1728.49
617.00	1689.57
617.19	1761.25
617.38	1701.86
617.57	1701.86
617.76	1798.12
617.95	1699.81
618.15	1714.15
618.34	1763.30
618.53	1628.14
618.72	1796.07
618.91	1769.44
619.10	1806.31
619.29	1705.96
619.48	1726.44
619.68	1667.05
619.87	1673.19
620.06	1669.09
620.25	1757.16
620.44	1718.25
620.63	1742.82
620.82	1767.40
621.01	1718.25
621.20	1734.63
621.39	1761.25
621.59	1703.91
621.78	1705.96
621.97	1804.26
622.16	1804.26
622.35	1693.67
622.54	1777.64
622.73	1767.40
622.92	1658.85
623.11	1785.83
623.30	1724.39
623.49	1794.02
623.68	1671.14
623.88	1718.25
624.07	1642.47
624.26	1650.66
624.45	1779.68
624.64	1712.10
624.83	1800.16
625.02	1732.58
625.21	1736.68
625.40	1728.49
625.59	1816.55
625.78	1718.25
625.97	1828.84
626.16	1718.25
626.35	1742.82
626.54	1734.63
626.74	1712.10
626.93	1703.91
627.12	1746.92
627.31	1810.40
627.50	1693.67
627.69	1679.33
627.88	1679.33
628.07	1624.04
628.26	1603.56
628.45	1740.77
628.64	1658.85
628.83	1705.96
629.02	1714.15
629.21	1779.68
629.40	1648.61
629.59	1546.22
629.78	1624.04
629.97	1693.67
630.16	1740.77
630.35	1644.52
630.54	1681.38
630.73	1689.57
630.92	1757.16
631.11	1730.53
631.30	1769.44
631.49	1718.25
631.68	1714.15
631.87	1714.15
632.06	1632.23
632.25	1796.07
632.44	1638.38
632.63	1734.63
632.82	1624.04
633.01	1665.00
633.20	1699.81
633.39	1656.81
633.58	1671.14
633.77	1693.67
633.96	1771.49
634.15	1689.57
634.34	1734.63
634.53	1689.57
634.72	1662.95
634.91	1656.81
635.10	1763.30
635.29	1736.68
635.48	1722.34
635.67	1748.97
635.86	1560.55
636.05	1775.59
636.24	1693.67
636.43	1800.16
636.62	1730.53
636.81	1646.57
637.00	1689.57
637.19	1785.83
637.38	1802.21
637.57	1652.71
637.76	1708.01
637.95	1757.16
638.14	1685.48
638.33	1695.72
638.52	1798.12
638.71	1660.90
638.89	1601.51
639.08	1855.46
639.27	1804.26
639.46	1718.25
639.65	1767.40
639.84	1738.73
640.03	1765.35
640.22	1669.09
640.41	1783.78
640.60	1630.18
640.79	1746.92
640.98	1738.73
641.17	1783.78
641.36	1703.91
641.55	1732.58
641.74	1642.47
641.92	1671.14
642.11	1689.57
642.30	1689.57
642.49	1681.38
642.68	1685.48
642.87	1681.38
643.06	1714.15
643.25	1671.14
643.44	1665.00
643.63	1685.48
643.82	1714.15
644.00	1624.04
644.19	1720.29
644.38	1701.86
644.57	1753.06
644.76	1773.54
644.95	1734.63
645.14	1767.40
645.33	1744.87
645.52	1638.38
645.71	1697.77
645.89	1669.09
646.08	1675.24
646.27	1708.01
646.46	1824.74
646.65	1634.28
646.84	1779.68
647.03	1650.66
647.22	1822.69
647.40	1705.96
647.59	1662.95
647.78	1605.61
647.97	1736.68
648.16	1644.52
648.35	1841.12
648.54	1816.55
648.73	1650.66
648.91	1722.34
649.10	1658.85
649.29	1601.51
649.48	1619.94
649.67	1783.78
649.86	1736.68
650.05	1681.38
650.23	1773.54
650.42	1677.29
650.61	1855.46
650.80	1726.44
650.99	1855.46
651.18	1748.97
651.36	1757.16
651.55	1703.91
651.74	1742.82
651.93	1794.02
652.12	1689.57
652.31	1667.05
652.49	1714.15
652.68	1628.14
652.87	1736.68
653.06	1714.15
653.25	1865.70
653.44	1753.06
653.62	1742.82
653.81	1732.58
654.00	1755.11
654.19	1742.82
654.38	1777.64
654.56	1701.86
654.75	1708.01
654.94	1708.01
655.13	1705.96
655.32	1779.68
655.51	1759.21
655.69	1751.01
655.88	1742.82
656.07	1658.85
656.26	1683.43
656.45	1656.81
656.63	1767.40
656.82	1738.73
657.01	1800.16
657.20	1710.05
657.38	1814.50
657.57	1617.90
657.76	1634.28
657.95	1742.82
658.14	1708.01
658.32	1605.61
658.51	1646.57
658.70	1650.66
658.89	1701.86
659.08	1660.90
659.26	1816.55
659.45	1671.14
659.64	1722.34
659.83	1669.09
660.01	1949.67
660.20	1681.38
660.39	1800.16
660.58	1523.69
660.76	1699.81
660.95	1671.14
661.14	1781.73
661.33	1642.47
661.51	1779.68
661.70	1642.47
661.89	1783.78
662.08	1708.01
662.26	1665.00
662.45	1667.05
662.64	1800.16
662.83	1783.78
663.01	1683.43
663.20	1728.49
663.39	1794.02
663.58	1744.87
663.76	1728.49
663.95	1798.12
664.14	1656.81
664.32	1789.92
664.51	1730.53
664.70	1589.22
664.89	1802.21
665.07	1691.62
665.26	1845.22
665.45	1595.37
665.64	1746.92
665.82	1621.99
666.01	1771.49
666.20	1681.38
666.38	1714.15
666.57	1806.31
666.76	2222.05
666.95	4550.59
667.13	10628.96
667.32	15818.51
667.51	18628.32
667.69	19627.73
667.88	18196.20
668.07	12646.21
668.25	9924.46
668.44	8390.53
668.63	7485.33
668.81	7042.96
669.00	6440.86
669.19	5973.92
669.38	5179.31
669.56	4655.03
669.75	3936.20
669.94	3475.40
670.12	2865.11
670.31	2605.02
670.50	2271.20
670.68	2072.54
670.87	1904.61
671.06	1839.08
671.24	1810.40
671.43	1837.03
671.62	1773.54
671.80	1662.95
671.99	1787.88
672.18	1687.53
672.36	1781.73
672.55	1755.11
672.74	1697.77
672.92	1630.18
673.11	1896.42
673.29	1626.09
673.48	1812.45
673.67	1794.02
673.85	1804.26
674.04	1712.10
674.23	1765.35
674.41	1824.74
674.60	1671.14
674.79	1611.75
674.97	1681.38
675.16	1738.73
675.34	1675.24
675.53	1640.42
675.72	1757.16
675.90	1763.30
676.09	1671.14
676.28	1693.67
676.46	1615.85
676.65	1734.63
676.83	1605.61
677.02	1818.60
677.21	1726.44
677.39	1669.09
677.58	1748.97
677.77	1611.75
677.95	1697.77
678.14	1701.86
678.32	1724.39
678.51	1669.09
678.70	1832.93
678.88	1687.53
679.07	1740.77
679.25	1714.15
679.44	1726.44
679.63	1617.90
679.81	1779.68
680.00	1751.01
680.18	1796.07
680.37	1783.78
680.55	1693.67
680.74	1652.71
680.93	1677.29
681.11	1638.38
681.30	1677.29
681.48	1652.71
681.67	1730.53
681.85	1691.62
682.04	1665.00
682.23	1734.63
682.41	1720.29
682.60	1710.05
682.78	1652.71
682.97	1615.85
683.15	1796.07
683.34	1642.47
683.53	1849.32
683.71	1652.71
683.90	1751.01
684.08	1761.25
684.27	1677.29
684.45	1716.20
684.64	1746.92
684.82	1693.67
685.01	1748.97
685.19	1652.71
685.38	1798.12
685.57	1671.14
685.75	1673.19
685.94	1681.38
686.12	1699.81
686.31	1626.09
686.49	1755.11
686.68	1609.70
686.86	1681.38
687.05	1656.81
687.23	1796.07
687.42	1640.42
687.60	1587.18
687.79	1757.16
687.97	1740.77
688.16	1728.49
688.34	1775.59
688.53	1689.57
688.71	1681.38
688.90	1767.40
689.08	1691.62
689.27	1675.24
689.45	1826.79
689.64	1796.07
689.82	1701.86
690.01	1769.44
690.19	1705.96
690.38	1697.77
690.56	1751.01
690.75	1587.18
690.93	1673.19
691.12	1667.05
691.30	1718.25
691.49	1630.18
691.67	1712.10
691.86	1783.78
692.04	1648.61
692.23	1558.50
692.41	1669.09
692.60	1783.78
692.78	1708.01
692.97	1644.52
693.15	1771.49
693.34	1746.92
693.52	1730.53
693.71	1759.21
693.89	1624.04
694.08	1640.42
694.26	1734.63
694.44	1705.96
694.63	1691.62
694.81	1677.29
695.00	1679.33
695.18	1796.07
695.37	1904.61
695.55	1669.09
695.74	1671.14
695.92	1626.09
696.10	1738.73
696.29	1683.43
696.47	1722.34
696.66	1693.67
696.84	1646.57
697.03	1671.14
697.21	1800.16
697.40	2342.88
697.58	1738.73
697.76	1746.92
697.95	1683.43
698.13	1673.19
698.32	1669.09
698.50	1658.85
698.68	1818.60
698.87	1693.67
699.05	1800.16
699.24	1732.58
699.42	1609.70
699.61	1703.91
699.79	1691.62
699.97	1738.73
700.16	1613.80
700.34	1595.37
700.53	1738.73
700.71	1791.97
700.89	1820.64
701.08	1703.91
701.26	1671.14
701.45	2090.98
701.63	1705.96
701.81	1771.49
702.00	1617.90
702.18	1724.39
702.37	1656.81
702.55	1708.01
702.73	1648.61
702.92	1675.24
703.10	1681.38
703.28	1771.49
703.47	1638.38
703.65	1730.53
703.84	1796.07
704.02	1722.34
704.20	1798.12
704.39	1662.95
704.57	1667.05
704.75	1767.40
704.94	1787.88
705.12	1757.16
705.30	1820.64
705.49	2275.29
705.67	4526.01
705.86	9713.52
706.04	13074.23
706.22	15097.63
706.41	16023.31
706.59	14460.71
706.77	9946.98
706.96	7573.39
707.14	6727.58
707.32	6055.84
707.51	5699.50
707.69	4960.18
707.87	4323.26
708.06	3524.55
708.24	3008.47
708.42	2494.43
708.61	2295.77
708.79	1880.04
708.97	1843.17
709.16	1890.28
709.34	1755.11
709.52	1820.64
709.71	1695.72
709.89	1728.49
710.07	1617.90
710.26	1646.57
710.44	1767.40
710.62	1763.30
710.80	1726.44
710.99	1837.03
711.17	1691.62
711.35	1611.75
711.54	1660.90
711.72	1781.73
711.90	1775.59
712.09	1724.39
712.27	1728.49
712.45	1732.58
712.63	1679.33
712.82	1656.81
713.00	1755.11
713.18	1705.96
713.37	1816.55
713.55	1769.44
713.73	1687.53
713.91	1720.29
714.10	1601.51
714.28	1636.33
714.46	1777.64
714.65	1691.62
714.83	1699.81
715.01	1671.14
715.19	1648.61
715.38	1687.53
715.56	1742.82
715.74	1611.75
715.92	1621.99
716.11	1779.68
716.29	1540.07
716.47	1722.34
716.65	1685.48
716.84	1665.00
717.02	1736.68
717.20	1636.33
717.38	1685.48
717.57	1736.68
717.75	1751.01
717.93	1646.57
718.11	1751.01
718.30	1681.38
718.48	1634.28
718.66	1787.88
718.84	1658.85
719.03	1695.72
719.21	1705.96
719.39	1855.46
719.57	1769.44
719.75	1800.16
719.94	1630.18
720.12	1695.72
720.30	1679.33
720.48	1763.30
720.67	1701.86
720.85	1658.85
721.03	1730.53
721.21	1677.29
721.39	1761.25
721.58	1740.77
721.76	1697.77
721.94	1742.82
722.12	1763.30
722.30	1730.53
722.49	1671.14
722.67	1718.25
722.85	1738.73
723.03	1589.22
723.21	1681.38
723.40	1728.49
723.58	1738.73
723.76	1708.01
723.94	1716.20
724.12	1773.54
724.30	1722.34
724.49	1683.43
724.67	1636.33
724.85	1755.11
725.03	1671.14
725.21	1730.53
725.40	1732.58
725.58	1724.39
725.76	1781.73
725.94	1650.66
726.12	1656.81
726.30	1716.20
726.49	1662.95
726.67	1667.05
726.85	1732.58
727.03	1834.98
727.21	2193.37
727.39	2973.65
727.57	3856.33
727.76	4224.96
727.94	4499.39
728.12	4562.87
728.30	3684.30
728.48	3026.90
728.66	2793.43
728.84	2432.99
729.03	2314.20
729.21	2082.78
729.39	2105.31
729.57	1796.07
729.75	1841.12
729.93	1804.26
730.11	1705.96
730.30	1636.33
730.48	1718.25
730.66	1730.53
730.84	1751.01
731.02	1708.01
731.20	1667.05
731.38	1624.04
731.56	1654.76
731.74	1677.29
731.93	1675.24
732.11	1693.67
732.29	1685.48
732.47	1716.20
732.65	1730.53
732.83	1773.54
733.01	1665.00
733.19	1679.33
733.37	1740.77
733.56	1794.02
733.74	1673.19
733.92	1732.58
734.10	1665.00
734.28	1742.82
734.46	1589.22
734.64	1734.63
734.82	1728.49
735.00	1726.44
735.18	1566.70
735.36	1769.44
735.54	1759.21
735.73	1759.21
735.91	1742.82
736.09	1730.53
736.27	1769.44
736.45	1722.34
736.63	1656.81
736.81	1601.51
736.99	1765.35
737.17	1722.34
737.35	1683.43
737.53	1689.57
737.71	1710.05
737.89	1730.53
738.07	1636.33
738.25	1648.61
738.43	1648.61
738.61	1697.77
738.80	1648.61
738.98	1593.32
739.16	1697.77
739.34	1685.48
739.52	1820.64
739.70	1660.90
739.88	1679.33
740.06	1787.88
740.24	1628.14
740.42	1800.16
740.60	1597.42
740.78	1617.90
740.96	1589.22
741.14	1718.25
741.32	1628.14
741.50	1628.14
741.68	1789.92
741.86	1810.40
742.04	1652.71
742.22	1669.09
742.40	1751.01
742.58	1697.77
742.76	1687.53
742.94	1755.11
743.12	1607.66
743.30	1703.91
743.48	1732.58
743.66	1675.24
743.84	1730.53
744.02	1665.00
744.20	1734.63
744.38	1667.05
744.56	1636.33
744.74	1824.74
744.92	1738.73
745.10	1751.01
745.28	1820.64
745.46	1841.12
745.64	1658.85
745.82	1779.68
746.00	1738.73
746.18	1705.96
746.36	1687.53
746.54	1724.39
746.72	1732.58
746.90	1605.61
747.08	1734.63
747.26	1697.77
747.44	1724.39
747.62	1726.44
747.80	1710.05
747.98	1734.63
748.15	1683.43
748.33	1722.34
748.51	1671.14
748.69	1675.24
748.87	1716.20
749.05	1603.56
749.23	1673.19
749.41	1681.38
749.59	1746.92
749.77	1785.83
749.95	1689.57
750.13	1675.24
750.31	1712.10
750.49	1677.29
750.67	1726.44
750.85	1673.19
751.03	1779.68
751.20	1816.55
751.38	1693.67
751.56	1730.53
751.74	1748.97
751.92	1714.15
752.10	1654.76
752.28	1734.63
752.46	1675.24
752.64	1681.38
752.82	1685.48
753.00	1755.11
753.18	1699.81
753.35	1726.44
753.53	1716.20
753.71	1617.90
753.89	1800.16
754.07	1658.85
754.25	1746.92
754.43	1761.25
754.61	1611.75
754.79	1705.96
754.97	1689.57
755.14	1769.44
755.32	1603.56
755.50	1660.90
755.68	1703.91
755.86	1652.71
756.04	1652.71
756.22	1562.60
756.40	1701.86
756.57	1849.32
756.75	1714.15
756.93	1757.16
757.11	1775.59
757.29	1650.66
757.47	1671.14
757.65	1619.94
757.82	1560.55
758.00	1685.48
758.18	1681.38
758.36	1660.90
758.54	1816.55
758.72	1650.66
758.90	1718.25
759.07	1687.53
759.25	1759.21
759.43	1714.15
759.61	1667.05
759.79	2181.09
759.97	1734.63
760.15	1673.19
760.32	1755.11
760.50	1740.77
760.68	1744.87
760.86	1669.09
761.04	1746.92
761.22	1779.68
761.39	1691.62
761.57	1671.14
761.75	1615.85
761.93	1740.77
762.11	1720.29
762.28	1800.16
762.46	1667.05
762.64	1724.39
762.82	1642.47
763.00	1699.81
763.18	1765.35
763.35	1613.80
763.53	1699.81
763.71	1646.57
763.89	1679.33
764.07	1744.87
764.24	1687.53
764.42	1693.67
764.60	1624.04
764.78	1679.33
764.96	1720.29
765.13	1724.39
765.31	1640.42
765.49	1722.34
765.67	1720.29
765.84	1650.66
766.02	1599.46
766.20	1583.08
766.38	1673.19
766.56	1695.72
766.73	1732.58
766.91	1697.77
767.09	1771.49
767.27	1714.15
767.44	1693.67
767.62	1705.96
767.80	1736.68
767.98	1777.64
768.15	1695.72
768.33	1718.25
768.51	1728.49
768.69	1757.16
768.87	1697.77
769.04	1722.34
769.22	1820.64
769.40	1798.12
769.58	1839.08
769.75	1679.33
769.93	1742.82
770.11	1669.09
770.28	1669.09
770.46	1748.97
770.64	1689.57
770.82	1689.57
770.99	1708.01
771.17	1751.01
771.35	1665.00
771.53	1687.53
771.70	1693.67
771.88	1701.86
772.06	1746.92
772.23	1724.39
772.41	1751.01
772.59	1767.40
772.77	1665.00
772.94	1748.97
773.12	1703.91
773.30	1662.95
773.47	1767.40
773.65	1656.81
773.83	1765.35
774.01	1683.43
774.18	1669.09
774.36	1607.66
774.54	1613.80
774.71	1718.25
774.89	1681.38
775.07	1662.95
775.24	1720.29
775.42	1681.38
775.60	1783.78
775.78	1675.24
775.95	1626.09
776.13	1603.56
776.31	1554.41
776.48	1699.81
776.66	1736.68
776.84	1681.38
777.01	1634.28
777.19	1642.47
777.37	1687.53
777.54	1777.64
777.72	1753.06
777.90	1642.47
778.07	1722.34
778.25	1904.61
778.43	1720.29
778.60	1773.54
778.78	1759.21
778.96	1771.49
779.13	1660.90
779.31	1763.30
779.49	1681.38
779.66	1744.87
779.84	1691.62
780.01	1697.77
780.19	1697.77
780.37	1744.87
780.54	1697.77
780.72	1662.95
780.90	1656.81
781.07	1544.17
781.25	1683.43
781.43	1798.12
781.60	1656.81
781.78	1757.16
781.95	1728.49
782.13	1632.23
782.31	1699.81
782.48	1572.84
782.66	1685.48
782.83	1775.59
783.01	1806.31
783.19	1800.16
783.36	1693.67
783.54	1638.38
783.72	1718.25
783.89	1714.15
784.07	1699.81
784.24	1763.30
784.42	1789.92
784.60	1667.05
784.77	1769.44
784.95	1595.37
785.12	1628.14
785.30	1683.43
785.47	1708.01
785.65	1587.18
785.83	1662.95
786.00	1693.67
786.18	1787.88
786.35	1640.42
786.53	1611.75
786.71	1718.25
786.88	1697.77
787.06	1769.44
787.23	1683.43
787.41	1628.14
787.58	1789.92
787.76	1720.29
787.94	1671.14
788.11	1675.24
788.29	1603.56
788.46	1742.82
788.64	1595.37
788.81	1685.48
788.99	1757.16
789.16	1710.05
789.34	1728.49
789.52	1607.66
789.69	1656.81
789.87	1628.14
790.04	1720.29
790.22	1652.71
790.39	1757.16
790.57	1619.94
790.74	1697.77
790.92	1740.77
791.09	1568.74
791.27	1767.40
791.44	1775.59
791.62	1685.48
791.79	1794.02
791.97	1726.44
792.15	1910.75
792.32	1748.97
792.50	1751.01
792.67	1828.84
792.85	1767.40
793.02	1665.00
793.20	1681.38
793.37	1574.89
793.55	1644.52
793.72	1615.85
793.90	1746.92
794.07	1687.53
794.25	1603.56
794.42	1644.52
794.60	1617.90
794.77	1785.83
794.95	1718.25
795.12	1720.29
795.30	1697.77
795.47	1648.61
795.65	1691.62
795.82	1730.53
796.00	1691.62
796.17	1724.39
796.34	1648.61
796.52	1787.88
796.69	1804.26
796.87	1824.74
797.04	1708.01
797.22	1808.36
797.39	1708.01
797.57	1695.72
797.74	1697.77
797.92	1720.29
798.09	1665.00
798.27	1773.54
798.44	1677.29
798.62	1705.96
798.79	1724.39
798.96	1732.58
799.14	1710.05
799.31	1744.87
799.49	1728.49
799.66	1744.87
799.84	1726.44
800.01	1593.32
800.19	1617.90
800.36	1603.56
800.53	1701.86
800.71	1722.34
800.88	1773.54
801.06	1636.33
801.23	1640.42
801.41	1667.05
801.58	1703.91
801.75	1689.57
801.93	1724.39
802.10	1812.45
802.28	1791.97
802.45	1636.33
802.63	1759.21
802.80	1744.87
802.97	1693.67
803.15	1644.52
803.32	1675.24
803.50	1697.77
803.67	1615.85
803.84	1640.42
804.02	1714.15
804.19	1673.19
804.37	1570.79
804.54	1695.72
804.71	1681.38
804.89	1687.53
805.06	1636.33
805.24	1652.71
805.41	1673.19
805.58	1646.57
805.76	1853.41
805.93	1730.53
806.10	1804.26
806.28	1755.11
806.45	1634.28
806.63	1755.11
806.80	1671.14
806.97	1742.82
807.15	1667.05
807.32	1722.34
807.49	1714.15
807.67	1632.23
807.84	1703.91
808.01	1626.09
808.19	1783.78
808.36	1830.88
808.54	1654.76
808.71	1658.85
808.88	1751.01
809.06	1613.80
809.23	1765.35
809.40	1681.38
809.58	1703.91
809.75	1679.33
809.92	1681.38
810.10	1755.11
810.27	1615.85
810.44	1732.58
810.62	1734.63
810.79	1748.97
810.96	1656.81
811.14	1628.14
811.31	1730.53
811.48	1746.92
811.66	1687.53
811.83	1732.58
812.00	1681.38
812.18	1769.44
812.35	1849.32
812.52	1701.86
812.69	1677.29
812.87	1705.96
813.04	1736.68
813.21	1732.58
813.39	1605.61
813.56	1624.04
813.73	1720.29
813.91	1599.46
814.08	1759.21
814.25	1705.96
814.42	1609.70
814.60	1701.86
814.77	1685.48
814.94	1710.05
815.12	1687.53
815.29	1884.13
815.46	1716.20
815.63	1748.97
815.81	1716.20
815.98	1660.90
816.15	1751.01
816.33	1701.86
816.50	1710.05
816.67	1677.29
816.84	1701.86
817.02	1646.57
817.19	1705.96
817.36	1716.20
817.53	1689.57
817.71	1621.99
817.88	1699.81
818.05	1779.68
818.22	1669.09
818.40	1748.97
818.57	1578.98
818.74	1703.91
818.91	1691.62
819.09	1800.16
819.26	1773.54
819.43	1638.38
819.60	1658.85
819.78	1738.73
819.95	1841.12
820.12	1613.80
820.29	1820.64
820.47	1806.31
820.64	1648.61
820.81	1638.38
820.98	1630.18
821.15	1669.09
821.33	1703.91
821.50	1662.95
821.67	1673.19
821.84	1634.28
822.02	1695.72
822.19	1789.92
822.36	1603.56
822.53	1671.14
822.70	1628.14
822.88	1742.82
823.05	1855.46
823.22	1685.48
823.39	1705.96
823.56	1740.77
823.74	1773.54
823.91	1597.42
824.08	1691.62
824.25	1556.46
824.42	1773.54
824.60	1652.71
824.77	1677.29
824.94	1742.82
825.11	1744.87
825.28	1685.48
825.45	1699.81
825.63	1675.24
825.80	1732.58
825.97	1771.49
826.14	1593.32
826.31	1583.08
826.48	1681.38
826.66	1632.23
826.83	1652.71
827.00	1726.44
827.17	1718.25
827.34	1755.11
827.51	1638.38
827.69	1634.28
827.86	1609.70
828.03	1691.62
828.20	1759.21
828.37	1613.80
828.54	1738.73
828.71	1710.05
828.89	1798.12
829.06	1724.39
829.23	1779.68
829.40	1722.34
829.57	1693.67
829.74	1699.81
829.91	1605.61
830.09	1669.09
830.26	1724.39
830.43	1714.15
830.60	1728.49
830.77	1701.86
830.94	1746.92
831.11	1779.68
831.28	1617.90
831.46	1726.44
831.63	1718.25
831.80	1687.53
831.97	1679.33
832.14	1677.29
832.31	1773.54
832.48	1695.72
832.65	1755.11
832.82	1683.43
832.99	1800.16
833.17	1660.90
833.34	1828.84
833.51	1675.24
833.68	1628.14
833.85	1761.25
834.02	1626.09
834.19	1587.18
834.36	1652.71
834.53	1763.30
834.70	1775.59
834.87	1748.97
835.04	1689.57
835.22	1681.38
835.39	1677.29
835.56	1644.52
835.73	1710.05
835.90	1789.92
836.07	1607.66
836.24	1769.44
836.41	1648.61
836.58	1687.53
836.75	1718.25
836.92	1767.40
837.09	1624.04
837.26	1740.77
837.43	1703.91
837.60	1691.62
837.77	1658.85
837.94	1777.64
838.12	1726.44
838.29	1699.81
838.46	1697.77
838.63	1605.61
838.80	1769.44
838.97	1728.49
839.14	1628.14
839.31	1773.54
839.48	1705.96
839.65	1660.90
839.82	1791.97
839.99	1710.05
840.16	1701.86
840.33	1628.14
840.50	1683.43
840.67	1656.81
840.84	1501.16
841.01	1765.35
841.18	1673.19
841.35	1759.21
841.52	1714.15
841.69	1863.65
841.86	1720.29
842.03	1687.53
842.20	1814.50
842.37	1703.91
842.54	1673.19
842.71	1679.33
842.88	1634.28
843.05	1781.73
843.22	1697.77
843.39	1660.90
843.56	1679.33
843.73	1765.35
843.90	1693.67
844.07	1656.81
844.24	1716.20
844.41	1763.30
844.58	1660.90
844.75	1714.15
844.92	1708.01
845.09	1691.62
845.26	1685.48
845.43	1738.73
845.60	1685.48
845.77	1726.44
845.94	1701.86
846.10	1667.05
846.27	1599.46
846.44	1656.81
846.61	1605.61
846.78	1736.68
846.95	1720.29
847.12	1677.29
847.29	1714.15
847.46	1587.18
847.63	1787.88
847.80	1691.62
847.97	1644.52
848.14	1808.36
848.31	1673.19
848.48	1658.85
848.65	1689.57
848.82	1615.85
848.98	1847.27
849.15	1703.91
849.32	1791.97
849.49	1644.52
849.66	1746.92
849.83	1716.20
850.00	1691.62
850.17	1730.53
850.34	1712.10
850.51	1654.76
850.68	1634.28
850.85	1804.26
851.01	1701.86
851.18	1691.62
851.35	1681.38
851.52	1734.63
851.69	1796.07
851.86	1595.37
852.03	1648.61
852.20	1689.57
852.37	1748.97
852.53	1660.90
852.70	1689.57
852.87	1701.86
853.04	1701.86
853.21	1640.42
853.38	1714.15
853.55	1777.64
853.72	1777.64
853.89	1669.09
854.05	1617.90
854.22	1632.23
854.39	1640.42
854.56	1609.70
854.73	1746.92
854.90	1705.96
855.07	1689.57
855.23	1619.94
855.40	1613.80
855.57	1716.20
855.74	1583.08
855.91	1875.94
856.08	1722.34
856.25	1693.67
856.41	1624.04
856.58	1683.43
856.75	1701.86
856.92	1611.75
857.09	1783.78
857.26	1665.00
857.42	1712.10
857.59	1779.68
857.76	1761.25
857.93	1705.96
858.10	1671.14
858.27	1613.80
858.43	1681.38
858.60	1681.38
858.77	1716.20
858.94	1609.70
859.11	1734.63
859.27	1585.13
859.44	1667.05
859.61	1871.84
859.78	1699.81
859.95	1730.53
860.12	1675.24
860.28	1816.55
860.45	1796.07
860.62	1648.61
860.79	1724.39
860.95	1703.91
861.12	1638.38
861.29	1624.04
861.46	1646.57
861.63	1607.66
861.79	1730.53
861.96	1628.14
862.13	1626.09
862.30	1746.92
862.47	1695.72
862.63	1517.54
862.80	1755.11
862.97	1722.34
863.14	1753.06
863.30	1701.86
863.47	1619.94
863.64	1787.88
863.81	1718.25
863.97	1734.63
864.14	1714.15
864.31	1617.90
864.48	1697.77
864.65	1703.91
864.81	1771.49
864.98	1767.40
865.15	1738.73
865.32	1685.48
865.48	1724.39
865.65	1791.97
865.82	1697.77
865.98	1697.77
866.15	1722.34
866.32	1738.73
866.49	1656.81
866.65	1775.59
866.82	1673.19
866.99	1656.81
867.16	1699.81
867.32	1701.86
867.49	1656.81
867.66	1701.86
867.83	1585.13
867.99	1578.98
868.16	1677.29
868.33	1574.89
868.49	1667.05
868.66	1603.56
868.83	1761.25
868.99	1660.90
869.16	1689.57
869.33	1748.97
869.50	1783.78
869.66	1703.91
869.83	1734.63
870.00	1650.66
870.16	1689.57
870.33	1675.24
870.50	1763.30
870.66	1689.57
870.83	1845.22
871.00	1716.20
871.17	1761.25
871.33	1765.35
871.50	1703.91
871.67	1669.09
871.83	1671.14
872.00	1818.60
872.17	1677.29
872.33	1767.40
872.50	1748.97
872.67	1699.81
872.83	1722.34
873.00	1671.14
873.17	1716.20
873.33	1767.40
873.50	1685.48
873.67	1636.33
873.83	1751.01
874.00	1720.29
874.16	1693.67
874.33	1728.49
874.50	1665.00
874.66	1677.29
874.83	1687.53
875.00	1757.16
875.16	1830.88
875.33	1734.63
875.50	1673.19
875.66	1695.72
875.83	1673.19
875.99	1689.57
876.16	1669.09
876.33	1599.46
876.49	1667.05
876.66	1693.67
876.83	1708.01
876.99	1648.61
877.16	1630.18
877.32	1599.46
877.49	1652.71
877.66	1757.16
877.82	1777.64
877.99	1742.82
878.15	1824.74
878.32	1755.11
878.49	1667.05
878.65	1667.05
878.82	1763.30
878.98	1693.67
879.15	1718.25
879.32	1724.39
879.48	1695.72
879.65	1693.67
879.81	1693.67
879.98	1689.57
880.15	1722.34
880.31	1720.29
880.48	1677.29
880.64	1800.16
880.81	1775.59
880.97	1763.30
881.14	1732.58
881.31	1617.90
881.47	1837.03
881.64	1675.24
881.80	1689.57
881.97	1728.49
882.13	1726.44
882.30	1732.58
882.47	1693.67
882.63	1693.67
882.80	1675.24
882.96	1724.39
883.13	1701.86
883.29	1714.15
883.46	1738.73
883.62	1837.03
883.79	1751.01
883.95	1703.91
884.12	1794.02
884.29	1753.06
884.45	1726.44
884.62	1734.63
884.78	1599.46
884.95	1794.02
885.11	1593.32
885.28	1705.96
885.44	1705.96
885.61	1705.96
885.77	1798.12
885.94	1718.25
886.10	1724.39
886.27	1636.33
886.43	1765.35
886.60	1757.16
886.76	1673.19
886.93	1730.53
887.09	1642.47
887.26	1644.52
887.42	1683.43
887.59	1779.68
887.75	1867.75
887.92	1730.53
888.08	1710.05
888.25	1837.03
888.41	1683.43
888.58	1675.24
888.74	1673.19
888.91	1722.34
>>>>>End Processed Spectral Data<<<<<
