SpectraSuite Data File
++++++++++++++++++++++++++++++++++++
Date: Mon Jun 06 13:14:17 CEST 2016
User: root
Dark Spectrum Present: No
Reference Spectrum Present: No
Number of Sampled Component Spectra: 1
Spectrometers: USB4C02835
Integration Time (usec): 100000 (USB4C02835)
Spectra Averaged: 1 (USB4C02835)
Boxcar Smoothing: 0 (USB4C02835)
Correct for Electrical Dark: No (USB4C02835)
Strobe/Lamp Enabled: No (USB4C02835)
Correct for Detector Non-linearity: No (USB4C02835)
Correct for Stray Light: No (USB4C02835)
Number of Pixels in Processed Spectrum: 3648
>>>>>Begin Processed Spectral Data<<<<<
177.47	1441.77
177.69	1441.77
177.91	1441.77
178.13	1488.87
178.36	1429.48
178.58	1636.33
178.80	1705.96
179.02	1673.19
179.24	1595.37
179.46	1732.58
179.68	1736.68
179.90	1697.77
180.13	1703.91
180.35	1609.70
180.57	1726.44
180.79	1740.77
181.01	1650.66
181.23	1771.49
181.45	1746.92
181.67	1771.49
181.90	1714.15
182.12	1642.47
182.34	1671.14
182.56	1781.73
182.78	1683.43
183.00	1708.01
183.22	1736.68
183.44	1564.65
183.66	1839.08
183.89	1720.29
184.11	1730.53
184.33	1718.25
184.55	1720.29
184.77	1710.05
184.99	1675.24
185.21	1685.48
185.43	1830.88
185.65	1685.48
185.87	1736.68
186.10	1832.93
186.32	1830.88
186.54	1757.16
186.76	1705.96
186.98	1718.25
187.20	1773.54
187.42	1726.44
187.64	1728.49
187.86	1734.63
188.08	1767.40
188.30	1628.14
188.52	1677.29
188.75	1722.34
188.97	1757.16
189.19	1667.05
189.41	1677.29
189.63	1744.87
189.85	1640.42
190.07	1624.04
190.29	1626.09
190.51	1740.77
190.73	1621.99
190.95	1855.46
191.17	1773.54
191.39	1605.61
191.61	1708.01
191.84	1710.05
192.06	1691.62
192.28	1566.70
192.50	1873.89
192.72	1703.91
192.94	1763.30
193.16	1781.73
193.38	1720.29
193.60	1679.33
193.82	1751.01
194.04	1810.40
194.26	1687.53
194.48	1660.90
194.70	1648.61
194.92	1632.23
195.14	1767.40
195.36	1652.71
195.58	1724.39
195.80	1683.43
196.02	1685.48
196.24	1710.05
196.46	1738.73
196.69	1624.04
196.91	1861.60
197.13	1705.96
197.35	1712.10
197.57	1798.12
197.79	1673.19
198.01	1656.81
198.23	1755.11
198.45	1738.73
198.67	1574.89
198.89	1671.14
199.11	1708.01
199.33	1658.85
199.55	1503.21
199.77	1722.34
199.99	1773.54
200.21	1644.52
200.43	1701.86
200.65	1650.66
200.87	1554.41
201.09	1675.24
201.31	1632.23
201.53	1738.73
201.75	1695.72
201.97	1656.81
202.19	1677.29
202.41	1695.72
202.63	1806.31
202.85	1722.34
203.07	1757.16
203.29	1689.57
203.51	1648.61
203.73	1650.66
203.95	1808.36
204.17	1648.61
204.39	1671.14
204.61	1665.00
204.83	1746.92
205.05	1822.69
205.27	1789.92
205.49	1759.21
205.71	1648.61
205.93	1595.37
206.15	1656.81
206.37	1660.90
206.59	1667.05
206.81	1675.24
207.03	1681.38
207.25	1642.47
207.47	1783.78
207.69	1652.71
207.91	1755.11
208.13	1730.53
208.34	1681.38
208.56	1607.66
208.78	1648.61
209.00	1652.71
209.22	1650.66
209.44	1759.21
209.66	1632.23
209.88	1718.25
210.10	1771.49
210.32	1640.42
210.54	1785.83
210.76	1712.10
210.98	1767.40
211.20	1564.65
211.42	1744.87
211.64	1777.64
211.86	1699.81
212.08	1683.43
212.30	1691.62
212.52	1626.09
212.74	1693.67
212.96	1624.04
213.17	1730.53
213.39	1710.05
213.61	1804.26
213.83	1808.36
214.05	1628.14
214.27	1722.34
214.49	1630.18
214.71	1701.86
214.93	1748.97
215.15	1775.59
215.37	1699.81
215.59	1644.52
215.81	1724.39
216.03	1753.06
216.24	1722.34
216.46	1673.19
216.68	1722.34
216.90	1765.35
217.12	1736.68
217.34	1695.72
217.56	1722.34
217.78	1738.73
218.00	1677.29
218.22	1708.01
218.44	1789.92
218.66	1738.73
218.87	1787.88
219.09	1695.72
219.31	1789.92
219.53	1669.09
219.75	1697.77
219.97	1621.99
220.19	1740.77
220.41	1652.71
220.63	1742.82
220.85	1742.82
221.06	1656.81
221.28	1769.44
221.50	1748.97
221.72	1683.43
221.94	1687.53
222.16	1650.66
222.38	1708.01
222.60	1691.62
222.82	1730.53
223.03	1732.58
223.25	1578.98
223.47	1687.53
223.69	1853.41
223.91	1720.29
224.13	1671.14
224.35	1646.57
224.57	1806.31
224.78	1701.86
225.00	1621.99
225.22	1658.85
225.44	1732.58
225.66	1791.97
225.88	1701.86
226.10	1732.58
226.32	1683.43
226.53	1767.40
226.75	1689.57
226.97	1677.29
227.19	1708.01
227.41	1703.91
227.63	1673.19
227.85	1601.51
228.06	1695.72
228.28	1660.90
228.50	1693.67
228.72	1611.75
228.94	1593.32
229.16	1642.47
229.37	1681.38
229.59	1621.99
229.81	1781.73
230.03	1693.67
230.25	1671.14
230.47	1619.94
230.69	1646.57
230.90	1675.24
231.12	1646.57
231.34	1703.91
231.56	1728.49
231.78	1687.53
232.00	1730.53
232.21	1757.16
232.43	1644.52
232.65	1595.37
232.87	1824.74
233.09	1640.42
233.30	1693.67
233.52	1781.73
233.74	1685.48
233.96	1632.23
234.18	1767.40
234.40	1697.77
234.61	1918.95
234.83	1626.09
235.05	1591.27
235.27	1810.40
235.49	1781.73
235.70	1701.86
235.92	1730.53
236.14	1689.57
236.36	1849.32
236.58	1621.99
236.79	1685.48
237.01	1675.24
237.23	1591.27
237.45	1800.16
237.67	1601.51
237.88	1703.91
238.10	1777.64
238.32	1650.66
238.54	1718.25
238.76	1693.67
238.97	1699.81
239.19	1634.28
239.41	1738.73
239.63	1769.44
239.85	1630.18
240.06	1652.71
240.28	1695.72
240.50	1708.01
240.72	1658.85
240.93	1689.57
241.15	1730.53
241.37	1665.00
241.59	1755.11
241.81	1787.88
242.02	1691.62
242.24	1689.57
242.46	1740.77
242.68	1626.09
242.89	1656.81
243.11	1779.68
243.33	1689.57
243.55	1675.24
243.76	1708.01
243.98	1646.57
244.20	1609.70
244.42	1740.77
244.64	1701.86
244.85	1705.96
245.07	1636.33
245.29	1656.81
245.51	1669.09
245.72	1777.64
245.94	1767.40
246.16	1697.77
246.38	1695.72
246.59	1675.24
246.81	1718.25
247.03	1728.49
247.24	1572.84
247.46	1644.52
247.68	1703.91
247.90	1654.76
248.11	1689.57
248.33	1722.34
248.55	1714.15
248.77	1705.96
248.98	1775.59
249.20	1810.40
249.42	1710.05
249.64	1669.09
249.85	1679.33
250.07	1673.19
250.29	1681.38
250.50	1724.39
250.72	1654.76
250.94	1732.58
251.16	1841.12
251.37	1726.44
251.59	1699.81
251.81	1677.29
252.02	1769.44
252.24	1665.00
252.46	1818.60
252.68	1675.24
252.89	1671.14
253.11	1601.51
253.33	1882.08
253.54	1740.77
253.76	1595.37
253.98	1669.09
254.20	1648.61
254.41	1671.14
254.63	1685.48
254.85	1609.70
255.06	1671.14
255.28	1718.25
255.50	1689.57
255.71	1660.90
255.93	1624.04
256.15	1716.20
256.36	1755.11
256.58	1732.58
256.80	1724.39
257.02	1730.53
257.23	1587.18
257.45	1730.53
257.67	1703.91
257.88	1701.86
258.10	1763.30
258.32	1665.00
258.53	1626.09
258.75	1800.16
258.97	1695.72
259.18	1699.81
259.40	1691.62
259.62	1738.73
259.83	1732.58
260.05	1808.36
260.27	1980.39
260.48	1693.67
260.70	1638.38
260.92	1681.38
261.13	1693.67
261.35	1681.38
261.57	1685.48
261.78	1630.18
262.00	1673.19
262.22	1665.00
262.43	1646.57
262.65	1705.96
262.86	1669.09
263.08	1851.36
263.30	1658.85
263.51	1589.22
263.73	1632.23
263.95	1755.11
264.16	1648.61
264.38	1603.56
264.60	1697.77
264.81	1736.68
265.03	1722.34
265.25	1753.06
265.46	1695.72
265.68	1775.59
265.89	1691.62
266.11	1650.66
266.33	1794.02
266.54	1712.10
266.76	1632.23
266.98	1765.35
267.19	1701.86
267.41	1712.10
267.62	1699.81
267.84	1630.18
268.06	1771.49
268.27	1732.58
268.49	1734.63
268.70	1734.63
268.92	1630.18
269.14	1708.01
269.35	1624.04
269.57	1667.05
269.79	1710.05
270.00	1652.71
270.22	1886.18
270.43	1638.38
270.65	1591.27
270.87	1714.15
271.08	1724.39
271.30	1720.29
271.51	1710.05
271.73	1708.01
271.95	1705.96
272.16	1705.96
272.38	1771.49
272.59	1667.05
272.81	1689.57
273.02	1699.81
273.24	1759.21
273.46	1728.49
273.67	1662.95
273.89	1658.85
274.10	1656.81
274.32	1789.92
274.54	1677.29
274.75	1746.92
274.97	1589.22
275.18	1718.25
275.40	1746.92
275.61	1728.49
275.83	1683.43
276.05	1613.80
276.26	1615.85
276.48	1828.84
276.69	1665.00
276.91	1667.05
277.12	1828.84
277.34	1701.86
277.55	1722.34
277.77	1701.86
277.99	1699.81
278.20	1701.86
278.42	1605.61
278.63	1697.77
278.85	1630.18
279.06	1644.52
279.28	1718.25
279.49	1804.26
279.71	1714.15
279.93	1675.24
280.14	1755.11
280.36	1654.76
280.57	1720.29
280.79	1789.92
281.00	1701.86
281.22	1644.52
281.43	1802.21
281.65	1591.27
281.86	1617.90
282.08	1671.14
282.29	1767.40
282.51	1568.74
282.73	1644.52
282.94	1656.81
283.16	1724.39
283.37	1789.92
283.59	1662.95
283.80	1716.20
284.02	1689.57
284.23	1705.96
284.45	1771.49
284.66	1609.70
284.88	1675.24
285.09	1718.25
285.31	1818.60
285.52	1753.06
285.74	1648.61
285.95	1693.67
286.17	1626.09
286.38	1789.92
286.60	1660.90
286.81	1648.61
287.03	1619.94
287.24	1730.53
287.46	1769.44
287.67	1732.58
287.89	1765.35
288.10	1675.24
288.32	1794.02
288.53	1839.08
288.75	1710.05
288.96	1796.07
289.18	1630.18
289.39	1693.67
289.61	1710.05
289.82	1816.55
290.04	1759.21
290.25	1626.09
290.47	1679.33
290.68	1732.58
290.90	1730.53
291.11	1595.37
291.33	1718.25
291.54	1609.70
291.76	1636.33
291.97	1753.06
292.18	1591.27
292.40	1744.87
292.61	1617.90
292.83	1832.93
293.04	1775.59
293.26	1724.39
293.47	1667.05
293.69	1675.24
293.90	1701.86
294.12	1740.77
294.33	1636.33
294.55	1734.63
294.76	1794.02
294.97	1773.54
295.19	1808.36
295.40	1644.52
295.62	1728.49
295.83	1730.53
296.05	1677.29
296.26	1808.36
296.48	1751.01
296.69	1673.19
296.90	1697.77
297.12	1761.25
297.33	1742.82
297.55	1744.87
297.76	1714.15
297.98	1779.68
298.19	1763.30
298.41	1673.19
298.62	1691.62
298.83	1812.45
299.05	1697.77
299.26	1626.09
299.48	1673.19
299.69	1679.33
299.90	1683.43
300.12	1652.71
300.33	1798.12
300.55	1705.96
300.76	1701.86
300.98	1570.79
301.19	1716.20
301.40	1593.32
301.62	1689.57
301.83	1785.83
302.05	1687.53
302.26	1708.01
302.47	1673.19
302.69	1615.85
302.90	1767.40
303.12	1538.02
303.33	1699.81
303.54	1841.12
303.76	1644.52
303.97	1691.62
304.19	1814.50
304.40	1681.38
304.61	1703.91
304.83	1806.31
305.04	1701.86
305.26	1802.21
305.47	1718.25
305.68	1679.33
305.90	1626.09
306.11	1781.73
306.33	1755.11
306.54	1669.09
306.75	1648.61
306.97	1632.23
307.18	1665.00
307.39	1697.77
307.61	1812.45
307.82	1646.57
308.04	1771.49
308.25	1642.47
308.46	1732.58
308.68	1679.33
308.89	1751.01
309.10	1640.42
309.32	1734.63
309.53	1816.55
309.74	1755.11
309.96	1691.62
310.17	1738.73
310.39	1691.62
310.60	1701.86
310.81	1654.76
311.03	1687.53
311.24	1740.77
311.45	1662.95
311.67	1855.46
311.88	1681.38
312.09	1615.85
312.31	1642.47
312.52	1769.44
312.73	1751.01
312.95	1695.72
313.16	1652.71
313.37	1736.68
313.59	1648.61
313.80	1757.16
314.01	1744.87
314.23	1617.90
314.44	1662.95
314.65	1691.62
314.87	1669.09
315.08	1658.85
315.29	1654.76
315.51	1632.23
315.72	1705.96
315.93	1722.34
316.15	1701.86
316.36	1619.94
316.57	1705.96
316.79	1720.29
317.00	1695.72
317.21	1748.97
317.43	1642.47
317.64	1650.66
317.85	1652.71
318.07	1640.42
318.28	1742.82
318.49	1796.07
318.70	1894.37
318.92	1849.32
319.13	1800.16
319.34	1794.02
319.56	1724.39
319.77	1718.25
319.98	1726.44
320.20	1796.07
320.41	1779.68
320.62	1728.49
320.83	1767.40
321.05	1837.03
321.26	1765.35
321.47	1751.01
321.69	1789.92
321.90	1648.61
322.11	1619.94
322.32	1710.05
322.54	1726.44
322.75	1732.58
322.96	1785.83
323.18	1638.38
323.39	1611.75
323.60	1638.38
323.81	1781.73
324.03	1632.23
324.24	1648.61
324.45	1685.48
324.66	1722.34
324.88	1738.73
325.09	1800.16
325.30	1662.95
325.52	1736.68
325.73	1660.90
325.94	1607.66
326.15	1640.42
326.37	1675.24
326.58	1718.25
326.79	1765.35
327.00	1638.38
327.22	1720.29
327.43	1628.14
327.64	1636.33
327.85	1806.31
328.07	1728.49
328.28	1834.98
328.49	1718.25
328.70	1683.43
328.92	1683.43
329.13	1685.48
329.34	1736.68
329.55	1839.08
329.76	1783.78
329.98	1716.20
330.19	1726.44
330.40	1716.20
330.61	1708.01
330.83	1773.54
331.04	1652.71
331.25	1722.34
331.46	1744.87
331.68	1601.51
331.89	1757.16
332.10	1712.10
332.31	1660.90
332.52	1656.81
332.74	1708.01
332.95	1587.18
333.16	1693.67
333.37	1742.82
333.58	1626.09
333.80	1785.83
334.01	1617.90
334.22	1615.85
334.43	1673.19
334.64	1734.63
334.86	1630.18
335.07	1634.28
335.28	1804.26
335.49	1601.51
335.70	1746.92
335.92	1730.53
336.13	1849.32
336.34	1683.43
336.55	1763.30
336.76	1732.58
336.98	1585.13
337.19	1642.47
337.40	1722.34
337.61	1861.60
337.82	1662.95
338.04	1738.73
338.25	1607.66
338.46	1689.57
338.67	1724.39
338.88	1687.53
339.09	1636.33
339.31	1640.42
339.52	1662.95
339.73	1689.57
339.94	1665.00
340.15	1705.96
340.36	1634.28
340.58	1689.57
340.79	1697.77
341.00	1716.20
341.21	1572.84
341.42	1761.25
341.63	1642.47
341.85	1705.96
342.06	1724.39
342.27	1615.85
342.48	1724.39
342.69	1562.60
342.90	1738.73
343.12	1683.43
343.33	1654.76
343.54	1789.92
343.75	1837.03
343.96	1740.77
344.17	1640.42
344.38	1712.10
344.60	1611.75
344.81	1632.23
345.02	1718.25
345.23	1699.81
345.44	1779.68
345.65	1703.91
345.86	1730.53
346.07	1720.29
346.29	1662.95
346.50	1779.68
346.71	1718.25
346.92	1779.68
347.13	1847.27
347.34	1753.06
347.55	1699.81
347.76	1767.40
347.98	1595.37
348.19	1642.47
348.40	1746.92
348.61	1675.24
348.82	1773.54
349.03	1767.40
349.24	1689.57
349.45	1824.74
349.66	1605.61
349.88	1644.52
350.09	1656.81
350.30	1783.78
350.51	1837.03
350.72	1697.77
350.93	1740.77
351.14	1660.90
351.35	1691.62
351.56	1728.49
351.77	1658.85
351.99	1693.67
352.20	1818.60
352.41	1763.30
352.62	1583.08
352.83	1671.14
353.04	1691.62
353.25	1728.49
353.46	1789.92
353.67	1687.53
353.88	1570.79
354.09	1646.57
354.30	1718.25
354.52	1703.91
354.73	1644.52
354.94	1644.52
355.15	1656.81
355.36	1757.16
355.57	1658.85
355.78	1779.68
355.99	1615.85
356.20	1712.10
356.41	1769.44
356.62	1675.24
356.83	1697.77
357.04	1847.27
357.25	1595.37
357.46	1595.37
357.68	1710.05
357.89	1734.63
358.10	1699.81
358.31	1652.71
358.52	1652.71
358.73	1605.61
358.94	1646.57
359.15	1658.85
359.36	1722.34
359.57	1746.92
359.78	1654.76
359.99	1746.92
360.20	1703.91
360.41	1640.42
360.62	1757.16
360.83	1734.63
361.04	1671.14
361.25	1677.29
361.46	1847.27
361.67	1810.40
361.88	1687.53
362.09	1742.82
362.30	1689.57
362.51	1615.85
362.72	1730.53
362.93	1720.29
363.14	1777.64
363.35	1734.63
363.56	1658.85
363.78	1765.35
363.99	1757.16
364.20	1685.48
364.41	1732.58
364.62	1785.83
364.83	1701.86
365.04	1689.57
365.25	1685.48
365.46	1832.93
365.67	1656.81
365.88	1671.14
366.09	1677.29
366.30	1644.52
366.51	1685.48
366.72	1636.33
366.93	1748.97
367.14	1675.24
367.35	1837.03
367.56	1724.39
367.77	1824.74
367.98	1669.09
368.18	1714.15
368.39	1779.68
368.60	1554.41
368.81	1703.91
369.02	1724.39
369.23	1734.63
369.44	1492.97
369.65	1646.57
369.86	1710.05
370.07	1773.54
370.28	1724.39
370.49	1693.67
370.70	1757.16
370.91	1685.48
371.12	1587.18
371.33	1722.34
371.54	1724.39
371.75	1775.59
371.96	1595.37
372.17	1732.58
372.38	1787.88
372.59	1728.49
372.80	1703.91
373.01	1660.90
373.22	1687.53
373.43	1691.62
373.64	1669.09
373.85	1816.55
374.06	1751.01
374.26	1716.20
374.47	1689.57
374.68	1767.40
374.89	1734.63
375.10	1714.15
375.31	1757.16
375.52	1628.14
375.73	1714.15
375.94	1640.42
376.15	1685.48
376.36	1710.05
376.57	1648.61
376.78	1640.42
376.99	1650.66
377.20	1736.68
377.40	1687.53
377.61	1834.98
377.82	1646.57
378.03	1855.46
378.24	1800.16
378.45	1726.44
378.66	1720.29
378.87	1644.52
379.08	1581.03
379.29	1710.05
379.50	1714.15
379.71	1714.15
379.91	1796.07
380.12	1673.19
380.33	1722.34
380.54	1701.86
380.75	1732.58
380.96	1628.14
381.17	1757.16
381.38	1697.77
381.59	1734.63
381.80	1673.19
382.00	1884.13
382.21	1701.86
382.42	1783.78
382.63	1898.47
382.84	1703.91
383.05	1812.45
383.26	1861.60
383.47	1806.31
383.68	1802.21
383.88	1714.15
384.09	1730.53
384.30	1783.78
384.51	1689.57
384.72	1648.61
384.93	1611.75
385.14	1662.95
385.35	1738.73
385.55	1673.19
385.76	1789.92
385.97	1708.01
386.18	1656.81
386.39	1624.04
386.60	1722.34
386.81	1617.90
387.02	1658.85
387.22	1601.51
387.43	1777.64
387.64	1839.08
387.85	1839.08
388.06	2242.53
388.27	4145.09
388.48	6610.84
388.68	8144.77
388.89	9467.76
389.10	9566.06
389.31	8482.69
389.52	7446.41
389.73	6649.75
389.93	6211.49
390.14	5769.13
390.35	5191.60
390.56	4589.50
390.77	3753.93
390.98	3041.23
391.18	2459.61
391.39	2060.26
391.60	1837.03
391.81	1847.27
392.02	1681.38
392.23	1816.55
392.43	1730.53
392.64	1751.01
392.85	1742.82
393.06	1789.92
393.27	1689.57
393.47	1644.52
393.68	1644.52
393.89	1693.67
394.10	1763.30
394.31	1736.68
394.52	1609.70
394.72	1605.61
394.93	1820.64
395.14	1634.28
395.35	1785.83
395.56	1626.09
395.76	1755.11
395.97	1791.97
396.18	1871.84
396.39	1822.69
396.60	2025.44
396.80	1886.18
397.01	1869.80
397.22	1882.08
397.43	1791.97
397.64	1800.16
397.84	1779.68
398.05	1865.70
398.26	1775.59
398.47	1763.30
398.67	1742.82
398.88	1652.71
399.09	1699.81
399.30	1646.57
399.51	1658.85
399.71	1675.24
399.92	1751.01
400.13	1720.29
400.34	1796.07
400.54	1646.57
400.75	1689.57
400.96	1761.25
401.17	1818.60
401.37	1796.07
401.58	1697.77
401.79	1738.73
402.00	1845.22
402.21	2015.20
402.41	1968.10
402.62	1961.95
402.83	2027.49
403.04	1937.38
403.24	2013.15
403.45	1910.75
403.66	1867.75
403.87	1853.41
404.07	1886.18
404.28	2021.35
404.49	1832.93
404.70	1773.54
404.90	1730.53
405.11	1759.21
405.32	1730.53
405.52	1705.96
405.73	1660.90
405.94	1683.43
406.15	1667.05
406.35	1740.77
406.56	1798.12
406.77	1736.68
406.98	1677.29
407.18	1624.04
407.39	1830.88
407.60	1736.68
407.80	1697.77
408.01	1689.57
408.22	1736.68
408.43	1722.34
408.63	1759.21
408.84	1685.48
409.05	1644.52
409.25	1701.86
409.46	1677.29
409.67	1705.96
409.88	1681.38
410.08	1732.58
410.29	1679.33
410.50	1732.58
410.70	1730.53
410.91	1611.75
411.12	1781.73
411.32	1642.47
411.53	1708.01
411.74	1882.08
411.95	1738.73
412.15	1736.68
412.36	1837.03
412.57	1757.16
412.77	1767.40
412.98	1746.92
413.19	1722.34
413.39	1761.25
413.60	1724.39
413.81	1755.11
414.01	1665.00
414.22	1730.53
414.43	1761.25
414.63	1675.24
414.84	1818.60
415.05	1705.96
415.25	1566.70
415.46	1738.73
415.67	1656.81
415.87	1775.59
416.08	1683.43
416.29	1656.81
416.49	1755.11
416.70	1689.57
416.91	1669.09
417.11	1716.20
417.32	1697.77
417.53	1712.10
417.73	1685.48
417.94	1738.73
418.15	1746.92
418.35	1742.82
418.56	1697.77
418.77	1763.30
418.97	1642.47
419.18	1726.44
419.38	1591.27
419.59	1665.00
419.80	1744.87
420.00	1714.15
420.21	1687.53
420.42	1757.16
420.62	1787.88
420.83	1591.27
421.04	1734.63
421.24	1708.01
421.45	1753.06
421.65	1689.57
421.86	1681.38
422.07	1718.25
422.27	1736.68
422.48	1722.34
422.69	1689.57
422.89	1669.09
423.10	1689.57
423.30	1652.71
423.51	1705.96
423.72	1785.83
423.92	1738.73
424.13	1703.91
424.33	1652.71
424.54	1691.62
424.75	1761.25
424.95	1775.59
425.16	1736.68
425.36	1679.33
425.57	1765.35
425.78	1775.59
425.98	1751.01
426.19	1652.71
426.39	1601.51
426.60	1767.40
426.81	1751.01
427.01	1728.49
427.22	1691.62
427.42	1578.98
427.63	1634.28
427.83	1689.57
428.04	1781.73
428.25	1853.41
428.45	1798.12
428.66	1685.48
428.86	1705.96
429.07	1705.96
429.28	1748.97
429.48	1652.71
429.69	1748.97
429.89	1763.30
430.10	1599.46
430.30	1818.60
430.51	1787.88
430.71	1636.33
430.92	1652.71
431.13	1683.43
431.33	1751.01
431.54	1677.29
431.74	1810.40
431.95	1804.26
432.15	1681.38
432.36	1728.49
432.56	1722.34
432.77	1794.02
432.98	1808.36
433.18	1738.73
433.39	1751.01
433.59	1699.81
433.80	1746.92
434.00	1847.27
434.21	1703.91
434.41	1679.33
434.62	1939.43
434.82	1671.14
435.03	1652.71
435.23	1730.53
435.44	1646.57
435.64	1718.25
435.85	1765.35
436.06	1789.92
436.26	1771.49
436.47	1744.87
436.67	1621.99
436.88	1701.86
437.08	1730.53
437.29	1765.35
437.49	1718.25
437.70	1800.16
437.90	1708.01
438.11	1806.31
438.31	1800.16
438.52	1824.74
438.72	1798.12
438.93	1890.28
439.13	1759.21
439.34	1779.68
439.54	1781.73
439.75	1771.49
439.95	1761.25
440.16	1726.44
440.36	1640.42
440.57	1767.40
440.77	1763.30
440.98	1673.19
441.18	1769.44
441.39	1654.76
441.59	1687.53
441.80	1877.99
442.00	1681.38
442.21	1769.44
442.41	1650.66
442.62	1839.08
442.82	1673.19
443.02	1681.38
443.23	1728.49
443.43	1761.25
443.64	1781.73
443.84	1595.37
444.05	1871.84
444.25	1761.25
444.46	1730.53
444.66	1699.81
444.87	1796.07
445.07	1644.52
445.28	1667.05
445.48	1800.16
445.69	1886.18
445.89	1804.26
446.09	1736.68
446.30	2062.30
446.50	2572.25
446.71	3719.11
446.91	4435.90
447.12	4843.45
447.32	4804.53
447.53	4261.82
447.73	3764.17
447.93	3549.13
448.14	3315.66
448.34	3145.68
448.55	2879.44
448.75	2889.68
448.96	2664.41
449.16	2371.55
449.36	2254.81
449.57	2052.06
449.77	1886.18
449.98	1763.30
450.18	1761.25
450.39	1888.23
450.59	1765.35
450.79	1716.20
451.00	1787.88
451.20	1740.77
451.41	1724.39
451.61	1834.98
451.81	1785.83
452.02	1665.00
452.22	1742.82
452.43	1562.60
452.63	1708.01
452.84	1712.10
453.04	1669.09
453.24	1732.58
453.45	1777.64
453.65	1724.39
453.86	1673.19
454.06	1773.54
454.26	1734.63
454.47	1736.68
454.67	1877.99
454.87	1746.92
455.08	1691.62
455.28	1851.36
455.49	1734.63
455.69	1609.70
455.89	1834.98
456.10	1820.64
456.30	1726.44
456.51	1720.29
456.71	1667.05
456.91	1810.40
457.12	1769.44
457.32	1740.77
457.52	1640.42
457.73	1789.92
457.93	1763.30
458.14	1677.29
458.34	1617.90
458.54	1757.16
458.75	1779.68
458.95	1695.72
459.15	1796.07
459.36	1734.63
459.56	1757.16
459.76	1845.22
459.97	1738.73
460.17	1732.58
460.37	1716.20
460.58	1740.77
460.78	1744.87
460.99	1699.81
461.19	1718.25
461.39	1660.90
461.60	1730.53
461.80	1757.16
462.00	1644.52
462.21	1736.68
462.41	1701.86
462.61	1683.43
462.82	1617.90
463.02	1781.73
463.22	1744.87
463.43	1720.29
463.63	1755.11
463.83	1759.21
464.04	1710.05
464.24	1701.86
464.44	1746.92
464.64	1736.68
464.85	1796.07
465.05	1820.64
465.25	1710.05
465.46	1609.70
465.66	1720.29
465.86	1695.72
466.07	1769.44
466.27	1681.38
466.47	1648.61
466.68	1642.47
466.88	1847.27
467.08	1861.60
467.29	1732.58
467.49	1769.44
467.69	1648.61
467.89	1783.78
468.10	1640.42
468.30	1697.77
468.50	1771.49
468.71	1716.20
468.91	1615.85
469.11	1882.08
469.31	1742.82
469.52	1691.62
469.72	1769.44
469.92	1851.36
470.13	1728.49
470.33	1703.91
470.53	1814.50
470.73	2064.35
470.94	2222.05
471.14	2363.36
471.34	2486.23
471.54	2334.68
471.75	2246.62
471.95	2148.32
472.15	2099.17
472.36	2074.59
472.56	2011.11
472.76	2027.49
472.96	1984.48
473.17	1955.81
473.37	1886.18
473.57	1783.78
473.77	1767.40
473.98	1777.64
474.18	1740.77
474.38	1849.32
474.58	1744.87
474.79	1662.95
474.99	1705.96
475.19	1726.44
475.39	1634.28
475.60	1710.05
475.80	1716.20
476.00	1777.64
476.20	1626.09
476.41	1783.78
476.61	1779.68
476.81	1822.69
477.01	1730.53
477.21	1804.26
477.42	1724.39
477.62	1681.38
477.82	1794.02
478.02	1716.20
478.23	1642.47
478.43	1724.39
478.63	1738.73
478.83	1652.71
479.03	1695.72
479.24	1773.54
479.44	1800.16
479.64	1609.70
479.84	1636.33
480.04	1691.62
480.25	1748.97
480.45	1777.64
480.65	1716.20
480.85	1787.88
481.06	1679.33
481.26	1773.54
481.46	1763.30
481.66	1681.38
481.86	1656.81
482.06	1779.68
482.27	1642.47
482.47	1660.90
482.67	1726.44
482.87	1697.77
483.07	1771.49
483.28	1720.29
483.48	1667.05
483.68	1710.05
483.88	1703.91
484.08	1570.79
484.29	1714.15
484.49	1724.39
484.69	1662.95
484.89	1798.12
485.09	1755.11
485.29	1730.53
485.50	1785.83
485.70	1736.68
485.90	1775.59
486.10	1777.64
486.30	1736.68
486.50	1773.54
486.71	1730.53
486.91	1814.50
487.11	1769.44
487.31	1630.18
487.51	1705.96
487.71	1665.00
487.91	1603.56
488.12	1665.00
488.32	1581.03
488.52	1720.29
488.72	1558.50
488.92	1705.96
489.12	1800.16
489.32	1771.49
489.53	1757.16
489.73	1654.76
489.93	1718.25
490.13	1621.99
490.33	1650.66
490.53	1724.39
490.73	1787.88
490.94	1601.51
491.14	1763.30
491.34	1824.74
491.54	2131.94
491.74	2545.63
491.94	2850.77
492.14	3084.24
492.34	2959.31
492.54	2699.22
492.75	2453.47
492.95	2377.69
493.15	2222.05
493.35	2230.24
493.55	2269.15
493.75	2088.93
493.95	2131.94
494.15	2060.26
494.35	1951.71
494.56	1957.86
494.76	1765.35
494.96	1761.25
495.16	1740.77
495.36	1765.35
495.56	1738.73
495.76	1820.64
495.96	1730.53
496.16	1716.20
496.36	1849.32
496.56	1695.72
496.77	1763.30
496.97	1701.86
497.17	1851.36
497.37	1564.65
497.57	1751.01
497.77	1695.72
497.97	1701.86
498.17	1734.63
498.37	1726.44
498.57	1789.92
498.77	1615.85
498.97	1802.21
499.17	1753.06
499.38	1800.16
499.58	1701.86
499.78	1830.88
499.98	1787.88
500.18	1677.29
500.38	1658.85
500.58	1886.18
500.78	2459.61
500.98	4360.13
501.18	5765.03
501.38	6649.75
501.58	7110.55
501.78	6442.91
501.98	5488.56
502.18	4978.61
502.38	4347.84
502.58	4157.38
502.78	3704.78
502.98	3524.55
503.18	3467.21
503.38	3151.82
503.59	2822.10
503.79	2635.74
503.99	2490.33
504.19	2248.67
504.39	2144.22
504.59	2103.26
504.79	2090.98
504.99	2045.92
505.19	1896.42
505.39	1857.51
505.59	2000.87
505.79	1824.74
505.99	1826.79
506.19	1791.97
506.39	1832.93
506.59	1748.97
506.79	1740.77
506.99	1787.88
507.19	1726.44
507.39	1781.73
507.59	1753.06
507.79	1734.63
507.99	1722.34
508.19	1695.72
508.39	1660.90
508.59	1703.91
508.79	1828.84
508.99	1812.45
509.19	1742.82
509.39	1816.55
509.59	1810.40
509.79	1726.44
509.99	1722.34
510.19	1771.49
510.39	1759.21
510.59	1730.53
510.79	1716.20
510.99	1591.27
511.19	1771.49
511.39	1849.32
511.59	1804.26
511.79	1779.68
511.99	1728.49
512.19	1841.12
512.38	1757.16
512.58	1687.53
512.78	1771.49
512.98	1777.64
513.18	1804.26
513.38	1673.19
513.58	1843.17
513.78	1677.29
513.98	1665.00
514.18	1710.05
514.38	1708.01
514.58	1720.29
514.78	1693.67
514.98	1714.15
515.18	1734.63
515.38	1681.38
515.58	1820.64
515.78	1703.91
515.98	1769.44
516.18	1738.73
516.38	1728.49
516.57	1685.48
516.77	1769.44
516.97	1693.67
517.17	1693.67
517.37	1632.23
517.57	1738.73
517.77	1748.97
517.97	1691.62
518.17	1765.35
518.37	1753.06
518.57	1732.58
518.77	1722.34
518.97	1703.91
519.16	1763.30
519.36	1783.78
519.56	1648.61
519.76	1683.43
519.96	1857.51
520.16	1775.59
520.36	1734.63
520.56	1861.60
520.76	1767.40
520.96	1767.40
521.16	1765.35
521.35	1773.54
521.55	1812.45
521.75	1716.20
521.95	1683.43
522.15	1773.54
522.35	1626.09
522.55	1648.61
522.75	1818.60
522.95	1699.81
523.14	1648.61
523.34	1806.31
523.54	1710.05
523.74	1777.64
523.94	1685.48
524.14	1628.14
524.34	1720.29
524.54	1845.22
524.73	1738.73
524.93	1746.92
525.13	1779.68
525.33	1662.95
525.53	1791.97
525.73	1779.68
525.93	1734.63
526.13	1685.48
526.32	1783.78
526.52	1712.10
526.72	1757.16
526.92	1734.63
527.12	1671.14
527.32	1552.36
527.52	1742.82
527.71	1718.25
527.91	1683.43
528.11	1724.39
528.31	1689.57
528.51	1673.19
528.71	1685.48
528.90	1738.73
529.10	1789.92
529.30	1712.10
529.50	1648.61
529.70	1738.73
529.90	1714.15
530.09	1724.39
530.29	1728.49
530.49	1679.33
530.69	1855.46
530.89	1658.85
531.09	1767.40
531.28	1679.33
531.48	1839.08
531.68	1742.82
531.88	1740.77
532.08	1742.82
532.28	1652.71
532.47	1796.07
532.67	1720.29
532.87	1771.49
533.07	1714.15
533.27	1710.05
533.46	1779.68
533.66	1740.77
533.86	1621.99
534.06	1738.73
534.26	1703.91
534.45	1724.39
534.65	1802.21
534.85	1738.73
535.05	1626.09
535.25	1822.69
535.44	1593.32
535.64	1781.73
535.84	1710.05
536.04	1685.48
536.24	1775.59
536.43	1658.85
536.63	1763.30
536.83	1800.16
537.03	1710.05
537.22	1619.94
537.42	1656.81
537.62	1740.77
537.82	1656.81
538.02	1761.25
538.21	1779.68
538.41	1820.64
538.61	1742.82
538.81	1746.92
539.00	1773.54
539.20	1570.79
539.40	1703.91
539.60	1773.54
539.79	1800.16
539.99	1763.30
540.19	1710.05
540.39	1624.04
540.58	1724.39
540.78	1783.78
540.98	1789.92
541.18	1789.92
541.37	1738.73
541.57	1652.71
541.77	1734.63
541.97	1728.49
542.16	1683.43
542.36	1691.62
542.56	1673.19
542.76	1845.22
542.95	1814.50
543.15	1708.01
543.35	1740.77
543.54	1689.57
543.74	1689.57
543.94	1810.40
544.14	1691.62
544.33	1763.30
544.53	1728.49
544.73	1685.48
544.93	1693.67
545.12	1714.15
545.32	1740.77
545.52	1677.29
545.71	1656.81
545.91	1755.11
546.11	1681.38
546.30	1665.00
546.50	1763.30
546.70	1861.60
546.90	1685.48
547.09	1732.58
547.29	1734.63
547.49	1736.68
547.68	1634.28
547.88	1687.53
548.08	1757.16
548.27	2152.42
548.47	1751.01
548.67	1708.01
548.87	1728.49
549.06	1712.10
549.26	1677.29
549.46	1689.57
549.65	1796.07
549.85	1761.25
550.05	1771.49
550.24	1650.66
550.44	1787.88
550.64	1703.91
550.83	1683.43
551.03	1816.55
551.23	1791.97
551.42	1748.97
551.62	1742.82
551.82	1736.68
552.01	1761.25
552.21	1841.12
552.41	1800.16
552.60	1773.54
552.80	1673.19
553.00	1652.71
553.19	1705.96
553.39	1900.52
553.59	1697.77
553.78	1767.40
553.98	1714.15
554.17	1722.34
554.37	1710.05
554.57	1716.20
554.76	1677.29
554.96	1693.67
555.16	1716.20
555.35	1720.29
555.55	1720.29
555.75	1681.38
555.94	1753.06
556.14	1595.37
556.33	1703.91
556.53	1712.10
556.73	1662.95
556.92	1791.97
557.12	1810.40
557.32	1810.40
557.51	1837.03
557.71	1767.40
557.90	1880.04
558.10	1796.07
558.30	1718.25
558.49	1742.82
558.69	1695.72
558.88	1763.30
559.08	1789.92
559.28	1746.92
559.47	1759.21
559.67	1796.07
559.86	1882.08
560.06	1818.60
560.26	1783.78
560.45	1771.49
560.65	1718.25
560.84	1812.45
561.04	1689.57
561.24	1779.68
561.43	1648.61
561.63	1818.60
561.82	1748.97
562.02	1818.60
562.22	1718.25
562.41	1714.15
562.61	1732.58
562.80	1679.33
563.00	1988.58
563.19	1785.83
563.39	1689.57
563.59	1720.29
563.78	1683.43
563.98	1646.57
564.17	1699.81
564.37	1574.89
564.56	1654.76
564.76	1650.66
564.96	1787.88
565.15	1720.29
565.35	1796.07
565.54	1775.59
565.74	1675.24
565.93	1787.88
566.13	1701.86
566.32	1732.58
566.52	1812.45
566.71	1771.49
566.91	1796.07
567.11	1767.40
567.30	1716.20
567.50	1740.77
567.69	1798.12
567.89	1658.85
568.08	1660.90
568.28	1775.59
568.47	1695.72
568.67	1759.21
568.86	1757.16
569.06	1755.11
569.25	1759.21
569.45	1599.46
569.64	1714.15
569.84	1644.52
570.04	1779.68
570.23	1722.34
570.43	1683.43
570.62	1767.40
570.82	1777.64
571.01	1726.44
571.21	1695.72
571.40	1685.48
571.60	1726.44
571.79	1781.73
571.99	1705.96
572.18	1658.85
572.38	1800.16
572.57	1683.43
572.77	1814.50
572.96	1904.61
573.16	1638.38
573.35	1765.35
573.55	1816.55
573.74	1751.01
573.94	1669.09
574.13	1697.77
574.33	1789.92
574.52	1810.40
574.71	1763.30
574.91	1767.40
575.10	1710.05
575.30	1638.38
575.49	1730.53
575.69	1652.71
575.88	1806.31
576.08	1734.63
576.27	1712.10
576.47	1720.29
576.66	1785.83
576.86	1859.56
577.05	1818.60
577.25	1763.30
577.44	1863.65
577.64	1691.62
577.83	1746.92
578.02	1767.40
578.22	1837.03
578.41	1853.41
578.61	1789.92
578.80	1677.29
579.00	1716.20
579.19	1775.59
579.39	1742.82
579.58	1783.78
579.77	1765.35
579.97	1769.44
580.16	1845.22
580.36	1783.78
580.55	1804.26
580.75	1736.68
580.94	1705.96
581.13	1843.17
581.33	1849.32
581.52	1718.25
581.72	1802.21
581.91	1810.40
582.11	1748.97
582.30	1806.31
582.49	1751.01
582.69	1886.18
582.88	1783.78
583.08	1783.78
583.27	1867.75
583.47	1789.92
583.66	1656.81
583.85	1691.62
584.05	1654.76
584.24	1806.31
584.44	1787.88
584.63	1826.79
584.82	1859.56
585.02	1804.26
585.21	1861.60
585.41	1828.84
585.60	1794.02
585.79	1914.85
585.99	1853.41
586.18	1822.69
586.37	2258.91
586.57	3262.41
586.76	9654.12
586.96	24145.55
587.15	34211.32
587.34	40088.99
587.54	42132.86
587.73	35960.28
587.93	26070.64
588.12	21282.49
588.31	18079.47
588.51	16199.43
588.70	15068.95
588.89	14069.55
589.09	12384.07
589.28	10913.63
589.47	9389.94
589.67	7933.83
589.86	6469.53
590.06	4847.54
590.25	3917.76
590.44	3102.67
590.64	2623.45
590.83	2289.63
591.02	2090.98
591.22	1890.28
591.41	1920.99
591.60	1904.61
591.80	1918.95
591.99	1685.48
592.18	1800.16
592.38	1851.36
592.57	1705.96
592.76	1812.45
592.96	1796.07
593.15	1800.16
593.34	1767.40
593.54	1703.91
593.73	1771.49
593.92	1810.40
594.12	1746.92
594.31	1699.81
594.50	1871.84
594.70	1742.82
594.89	1886.18
595.08	1650.66
595.28	1765.35
595.47	1923.04
595.66	1796.07
595.86	1701.86
596.05	1804.26
596.24	1722.34
596.43	1787.88
596.63	1781.73
596.82	1796.07
597.01	1779.68
597.21	1869.80
597.40	1779.68
597.59	1734.63
597.79	1677.29
597.98	1652.71
598.17	1744.87
598.36	1724.39
598.56	1804.26
598.75	1732.58
598.94	1691.62
599.14	1689.57
599.33	1816.55
599.52	1812.45
599.71	1798.12
599.91	1730.53
600.10	1751.01
600.29	1689.57
600.48	1693.67
600.68	1746.92
600.87	1744.87
601.06	1667.05
601.26	1757.16
601.45	1785.83
601.64	1765.35
601.83	1841.12
602.03	1705.96
602.22	1628.14
602.41	1832.93
602.60	1873.89
602.80	1808.36
602.99	1761.25
603.18	1654.76
603.37	1744.87
603.57	1732.58
603.76	1841.12
603.95	1816.55
604.14	1732.58
604.34	1597.42
604.53	1691.62
604.72	1716.20
604.91	1814.50
605.10	1724.39
605.30	1705.96
605.49	1841.12
605.68	1720.29
605.87	1746.92
606.07	1697.77
606.26	1804.26
606.45	1783.78
606.64	1755.11
606.84	1667.05
607.03	1759.21
607.22	1804.26
607.41	1738.73
607.60	1722.34
607.80	1798.12
607.99	1732.58
608.18	1689.57
608.37	1863.65
608.56	1662.95
608.76	1800.16
608.95	1826.79
609.14	1720.29
609.33	1785.83
609.52	1826.79
609.72	1638.38
609.91	1769.44
610.10	1767.40
610.29	1814.50
610.48	1736.68
610.68	1761.25
610.87	1794.02
611.06	1775.59
611.25	1728.49
611.44	1800.16
611.63	1761.25
611.83	1734.63
612.02	1626.09
612.21	1824.74
612.40	1597.42
612.59	1712.10
612.79	1652.71
612.98	1695.72
613.17	1775.59
613.36	1687.53
613.55	1820.64
613.74	1624.04
613.93	1738.73
614.13	1665.00
614.32	1681.38
614.51	1746.92
614.70	1705.96
614.89	1656.81
615.08	1708.01
615.28	2070.50
615.47	1609.70
615.66	1761.25
615.85	1775.59
616.04	1843.17
616.23	1714.15
616.42	1773.54
616.62	1730.53
616.81	1777.64
617.00	1722.34
617.19	1765.35
617.38	1697.77
617.57	1695.72
617.76	1843.17
617.95	1734.63
618.15	1683.43
618.34	1726.44
618.53	1636.33
618.72	1812.45
618.91	1806.31
619.10	1785.83
619.29	1640.42
619.48	1775.59
619.68	1712.10
619.87	1763.30
620.06	1675.24
620.25	1671.14
620.44	1722.34
620.63	1724.39
620.82	1732.58
621.01	1740.77
621.20	1740.77
621.39	1781.73
621.59	1808.36
621.78	1718.25
621.97	1695.72
622.16	1763.30
622.35	1648.61
622.54	1748.97
622.73	1722.34
622.92	1652.71
623.11	1730.53
623.30	1730.53
623.49	1832.93
623.68	1734.63
623.88	1775.59
624.07	1665.00
624.26	1703.91
624.45	1722.34
624.64	1669.09
624.83	1740.77
625.02	1677.29
625.21	1728.49
625.40	1748.97
625.59	1785.83
625.78	1701.86
625.97	1689.57
626.16	1775.59
626.35	1785.83
626.54	1648.61
626.74	1826.79
626.93	1726.44
627.12	1689.57
627.31	1701.86
627.50	1751.01
627.69	1808.36
627.88	1640.42
628.07	1720.29
628.26	1632.23
628.45	1705.96
628.64	1667.05
628.83	1726.44
629.02	1591.27
629.21	1791.97
629.40	1683.43
629.59	1667.05
629.78	1677.29
629.97	1652.71
630.16	1828.84
630.35	1732.58
630.54	1718.25
630.73	1751.01
630.92	1705.96
631.11	1632.23
631.30	1759.21
631.49	1761.25
631.68	1695.72
631.87	1816.55
632.06	1636.33
632.25	1791.97
632.44	1632.23
632.63	1787.88
632.82	1638.38
633.01	1634.28
633.20	1683.43
633.39	1673.19
633.58	1593.32
633.77	1773.54
633.96	1814.50
634.15	1683.43
634.34	1740.77
634.53	1718.25
634.72	1771.49
634.91	1652.71
635.10	1812.45
635.29	1716.20
635.48	1740.77
635.67	1665.00
635.86	1665.00
636.05	1818.60
636.24	1705.96
636.43	1769.44
636.62	1812.45
636.81	1554.41
637.00	1699.81
637.19	1744.87
637.38	1722.34
637.57	1683.43
637.76	1648.61
637.95	1728.49
638.14	1617.90
638.33	1740.77
638.52	1681.38
638.71	1705.96
638.89	1675.24
639.08	1804.26
639.27	1732.58
639.46	1685.48
639.65	1736.68
639.84	1695.72
640.03	1730.53
640.22	1722.34
640.41	1822.69
640.60	1693.67
640.79	1759.21
640.98	1724.39
641.17	1771.49
641.36	1720.29
641.55	1810.40
641.74	1601.51
641.92	1679.33
642.11	1712.10
642.30	1660.90
642.49	1646.57
642.68	1671.14
642.87	1746.92
643.06	1781.73
643.25	1699.81
643.44	1671.14
643.63	1753.06
643.82	1755.11
644.00	1683.43
644.19	1724.39
644.38	1675.24
644.57	1794.02
644.76	1755.11
644.95	1716.20
645.14	1710.05
645.33	1724.39
645.52	1726.44
645.71	1607.66
645.89	1673.19
646.08	1669.09
646.27	1683.43
646.46	1828.84
646.65	1636.33
646.84	1728.49
647.03	1630.18
647.22	1759.21
647.40	1804.26
647.59	1705.96
647.78	1617.90
647.97	1685.48
648.16	1746.92
648.35	1794.02
648.54	1705.96
648.73	1646.57
648.91	1771.49
649.10	1730.53
649.29	1708.01
649.48	1654.76
649.67	1726.44
649.86	1779.68
650.05	1695.72
650.23	1738.73
650.42	1683.43
650.61	1730.53
650.80	1763.30
650.99	1808.36
651.18	1781.73
651.36	1804.26
651.55	1732.58
651.74	1767.40
651.93	1624.04
652.12	1763.30
652.31	1662.95
652.49	1624.04
652.68	1738.73
652.87	1751.01
653.06	1679.33
653.25	1832.93
653.44	1689.57
653.62	1738.73
653.81	1654.76
654.00	1665.00
654.19	1757.16
654.38	1812.45
654.56	1718.25
654.75	1705.96
654.94	1738.73
655.13	1755.11
655.32	1732.58
655.51	1687.53
655.69	1615.85
655.88	1837.03
656.07	1644.52
656.26	1757.16
656.45	1642.47
656.63	1714.15
656.82	1724.39
657.01	1783.78
657.20	1640.42
657.38	1779.68
657.57	1665.00
657.76	1679.33
657.95	1720.29
658.14	1609.70
658.32	1683.43
658.51	1636.33
658.70	1734.63
658.89	1683.43
659.08	1744.87
659.26	1751.01
659.45	1646.57
659.64	1746.92
659.83	1736.68
660.01	1861.60
660.20	1730.53
660.39	1753.06
660.58	1587.18
660.76	1785.83
660.95	1591.27
661.14	1675.24
661.33	1621.99
661.51	1595.37
661.70	1695.72
661.89	1775.59
662.08	1697.77
662.26	1673.19
662.45	1660.90
662.64	1738.73
662.83	1685.48
663.01	1544.17
663.20	1689.57
663.39	1816.55
663.58	1642.47
663.76	1751.01
663.95	1730.53
664.14	1640.42
664.32	1634.28
664.51	1642.47
664.70	1626.09
664.89	1777.64
665.07	1562.60
665.26	1701.86
665.45	1673.19
665.64	1843.17
665.82	1677.29
666.01	1714.15
666.20	1662.95
666.38	1791.97
666.57	1812.45
666.76	2193.37
666.95	4495.29
667.13	10231.65
667.32	15077.15
667.51	17526.52
667.69	18716.39
667.88	17325.82
668.07	12140.36
668.25	9383.79
668.44	8087.43
668.63	7214.99
668.81	6797.21
669.00	6311.84
669.19	5613.48
669.38	5097.39
669.56	4528.06
669.75	3934.15
669.94	3340.24
670.12	2979.79
670.31	2488.28
670.50	2248.67
670.68	2136.03
670.87	1880.04
671.06	1802.21
671.24	1843.17
671.43	1808.36
671.62	1746.92
671.80	1650.66
671.99	1755.11
672.18	1673.19
672.36	1808.36
672.55	1779.68
672.74	1789.92
672.92	1699.81
673.11	1722.34
673.29	1658.85
673.48	1755.11
673.67	1712.10
673.85	1806.31
674.04	1716.20
674.23	1708.01
674.41	1877.99
674.60	1570.79
674.79	1679.33
674.97	1626.09
675.16	1695.72
675.34	1753.06
675.53	1675.24
675.72	1728.49
675.90	1812.45
676.09	1634.28
676.28	1675.24
676.46	1689.57
676.65	1726.44
676.83	1689.57
677.02	1798.12
677.21	1812.45
677.39	1705.96
677.58	1685.48
677.77	1726.44
677.95	1624.04
678.14	1722.34
678.32	1736.68
678.51	1685.48
678.70	1785.83
678.88	1630.18
679.07	1722.34
679.25	1740.77
679.44	1669.09
679.63	1640.42
679.81	1679.33
680.00	1843.17
680.18	1714.15
680.37	1818.60
680.55	1656.81
680.74	1630.18
680.93	1581.03
681.11	1826.79
681.30	1742.82
681.48	1787.88
681.67	1669.09
681.85	1744.87
682.04	1638.38
682.23	1755.11
682.41	1648.61
682.60	1712.10
682.78	1714.15
682.97	1695.72
683.15	1757.16
683.34	1677.29
683.53	1783.78
683.71	1634.28
683.90	1796.07
684.08	1865.70
684.27	1703.91
684.45	1738.73
684.64	1755.11
684.82	1794.02
685.01	1710.05
685.19	1708.01
685.38	1716.20
685.57	1656.81
685.75	1638.38
685.94	1712.10
686.12	1705.96
686.31	1705.96
686.49	1794.02
686.68	1601.51
686.86	1771.49
687.05	1671.14
687.23	1839.08
687.42	1613.80
687.60	1552.36
687.79	1755.11
687.97	1777.64
688.16	1773.54
688.34	1798.12
688.53	1509.35
688.71	1705.96
688.90	1724.39
689.08	1679.33
689.27	1574.89
689.45	1734.63
689.64	1808.36
689.82	1677.29
690.01	1791.97
690.19	1746.92
690.38	1712.10
690.56	1753.06
690.75	1638.38
690.93	1685.48
691.12	1650.66
691.30	1701.86
691.49	1585.13
691.67	1722.34
691.86	1812.45
692.04	1685.48
692.23	1683.43
692.41	1732.58
692.60	1800.16
692.78	1724.39
692.97	1718.25
693.15	1744.87
693.34	1837.03
693.52	1761.25
693.71	1718.25
693.89	1705.96
694.08	1613.80
694.26	1708.01
694.44	1695.72
694.63	1767.40
694.81	1619.94
695.00	1677.29
695.18	1806.31
695.37	1837.03
695.55	1656.81
695.74	1669.09
695.92	1576.94
696.10	1771.49
696.29	1626.09
696.47	1624.04
696.66	1658.85
696.84	1673.19
697.03	1687.53
697.21	1861.60
697.40	2299.87
697.58	1753.06
697.76	1673.19
697.95	1675.24
698.13	1669.09
698.32	1587.18
698.50	1781.73
698.68	1712.10
698.87	1701.86
699.05	1808.36
699.24	1689.57
699.42	1656.81
699.61	1656.81
699.79	1695.72
699.97	1660.90
700.16	1718.25
700.34	1710.05
700.53	1705.96
700.71	1740.77
700.89	1753.06
701.08	1685.48
701.26	1705.96
701.45	2099.17
701.63	1695.72
701.81	1726.44
702.00	1675.24
702.18	1683.43
702.37	1611.75
702.55	1712.10
702.73	1769.44
702.92	1748.97
703.10	1695.72
703.28	1644.52
703.47	1615.85
703.65	1746.92
703.84	1796.07
704.02	1632.23
704.20	1861.60
704.39	1658.85
704.57	1675.24
704.75	1810.40
704.94	1738.73
705.12	1718.25
705.30	1822.69
705.49	2176.99
705.67	4368.32
705.86	9285.49
706.04	12388.16
706.22	14296.87
706.41	15183.64
706.59	13537.07
706.77	9576.30
706.96	7180.18
707.14	6479.77
707.32	6033.32
707.51	5599.15
707.69	4933.56
707.87	4155.33
708.06	3585.99
708.24	2990.03
708.42	2392.03
708.61	2215.90
708.79	1820.64
708.97	1882.08
709.16	1843.17
709.34	1828.84
709.52	1736.68
709.71	1769.44
709.89	1851.36
710.07	1619.94
710.26	1656.81
710.44	1669.09
710.62	1722.34
710.80	1689.57
710.99	1763.30
711.17	1716.20
711.35	1632.23
711.54	1667.05
711.72	1732.58
711.90	1746.92
712.09	1769.44
712.27	1685.48
712.45	1763.30
712.63	1685.48
712.82	1705.96
713.00	1677.29
713.18	1720.29
713.37	1712.10
713.55	1738.73
713.73	1732.58
713.91	1789.92
714.10	1691.62
714.28	1712.10
714.46	1691.62
714.65	1710.05
714.83	1751.01
715.01	1734.63
715.19	1726.44
715.38	1595.37
715.56	1730.53
715.74	1732.58
715.92	1597.42
716.11	1781.73
716.29	1535.98
716.47	1607.66
716.65	1708.01
716.84	1605.61
717.02	1691.62
717.20	1624.04
717.38	1626.09
717.57	1783.78
717.75	1708.01
717.93	1648.61
718.11	1724.39
718.30	1646.57
718.48	1724.39
718.66	1742.82
718.84	1781.73
719.03	1695.72
719.21	1683.43
719.39	1765.35
719.57	1677.29
719.75	1757.16
719.94	1605.61
720.12	1699.81
720.30	1742.82
720.48	1763.30
720.67	1634.28
720.85	1675.24
721.03	1720.29
721.21	1570.79
721.39	1800.16
721.58	1673.19
721.76	1699.81
721.94	1746.92
722.12	1687.53
722.30	1849.32
722.49	1628.14
722.67	1699.81
722.85	1681.38
723.03	1673.19
723.21	1619.94
723.40	1767.40
723.58	1718.25
723.76	1701.86
723.94	1732.58
724.12	1734.63
724.30	1798.12
724.49	1746.92
724.67	1660.90
724.85	1755.11
725.03	1665.00
725.21	1748.97
725.40	1783.78
725.58	1601.51
725.76	1775.59
725.94	1787.88
726.12	1636.33
726.30	1718.25
726.49	1708.01
726.67	1665.00
726.85	1718.25
727.03	1851.36
727.21	2090.98
727.39	2805.72
727.57	3739.59
727.76	4253.63
727.94	4489.15
728.12	4376.51
728.30	3571.66
728.48	2924.50
728.66	2717.65
728.84	2504.67
729.03	2277.34
729.21	2062.30
729.39	1972.19
729.57	1810.40
729.75	1800.16
729.93	1843.17
730.11	1757.16
730.30	1712.10
730.48	1738.73
730.66	1742.82
730.84	1730.53
731.02	1722.34
731.20	1613.80
731.38	1740.77
731.56	1640.42
731.74	1652.71
731.93	1699.81
732.11	1783.78
732.29	1748.97
732.47	1738.73
732.65	1673.19
732.83	1742.82
733.01	1675.24
733.19	1703.91
733.37	1763.30
733.56	1755.11
733.74	1599.46
733.92	1785.83
734.10	1613.80
734.28	1716.20
734.46	1591.27
734.64	1660.90
734.82	1765.35
735.00	1628.14
735.18	1699.81
735.36	1730.53
735.54	1751.01
735.73	1681.38
735.91	1658.85
736.09	1746.92
736.27	1718.25
736.45	1757.16
736.63	1615.85
736.81	1718.25
736.99	1738.73
737.17	1755.11
737.35	1695.72
737.53	1753.06
737.71	1685.48
737.89	1779.68
738.07	1681.38
738.25	1583.08
738.43	1617.90
738.61	1697.77
738.80	1685.48
738.98	1634.28
739.16	1648.61
739.34	1585.13
739.52	1865.70
739.70	1624.04
739.88	1757.16
740.06	1718.25
740.24	1591.27
740.42	1769.44
740.60	1591.27
740.78	1667.05
740.96	1570.79
741.14	1681.38
741.32	1718.25
741.50	1685.48
741.68	1818.60
741.86	1816.55
742.04	1697.77
742.22	1605.61
742.40	1812.45
742.58	1726.44
742.76	1621.99
742.94	1718.25
743.12	1603.56
743.30	1642.47
743.48	1656.81
743.66	1740.77
743.84	1783.78
744.02	1683.43
744.20	1689.57
744.38	1611.75
744.56	1738.73
744.74	1787.88
744.92	1687.53
745.10	1820.64
745.28	1769.44
745.46	1712.10
745.64	1705.96
745.82	1787.88
746.00	1660.90
746.18	1714.15
746.36	1632.23
746.54	1716.20
746.72	1695.72
746.90	1619.94
747.08	1751.01
747.26	1650.66
747.44	1716.20
747.62	1734.63
747.80	1794.02
747.98	1744.87
748.15	1691.62
748.33	1812.45
748.51	1650.66
748.69	1681.38
748.87	1642.47
749.05	1693.67
749.23	1712.10
749.41	1742.82
749.59	1697.77
749.77	1736.68
749.95	1705.96
750.13	1617.90
750.31	1785.83
750.49	1701.86
750.67	1755.11
750.85	1804.26
751.03	1773.54
751.20	1744.87
751.38	1710.05
751.56	1695.72
751.74	1695.72
751.92	1714.15
752.10	1621.99
752.28	1757.16
752.46	1656.81
752.64	1671.14
752.82	1769.44
753.00	1798.12
753.18	1667.05
753.35	1654.76
753.53	1693.67
753.71	1689.57
753.89	1742.82
754.07	1708.01
754.25	1748.97
754.43	1699.81
754.61	1695.72
754.79	1687.53
754.97	1638.38
755.14	1753.06
755.32	1595.37
755.50	1609.70
755.68	1693.67
755.86	1607.66
756.04	1677.29
756.22	1650.66
756.40	1732.58
756.57	1755.11
756.75	1705.96
756.93	1812.45
757.11	1658.85
757.29	1673.19
757.47	1732.58
757.65	1560.55
757.82	1574.89
758.00	1693.67
758.18	1685.48
758.36	1703.91
758.54	1832.93
758.72	1726.44
758.90	1791.97
759.07	1769.44
759.25	1685.48
759.43	1744.87
759.61	1611.75
759.79	2279.39
759.97	1734.63
760.15	1730.53
760.32	1687.53
760.50	1665.00
760.68	1767.40
760.86	1673.19
761.04	1773.54
761.22	1761.25
761.39	1705.96
761.57	1742.82
761.75	1691.62
761.93	1816.55
762.11	1726.44
762.28	1632.23
762.46	1656.81
762.64	1816.55
762.82	1619.94
763.00	1665.00
763.18	1757.16
763.35	1591.27
763.53	1718.25
763.71	1714.15
763.89	1699.81
764.07	1753.06
764.24	1718.25
764.42	1751.01
764.60	1693.67
764.78	1785.83
764.96	1665.00
765.13	1728.49
765.31	1646.57
765.49	1753.06
765.67	1554.41
765.84	1718.25
766.02	1634.28
766.20	1630.18
766.38	1714.15
766.56	1761.25
766.73	1748.97
766.91	1654.76
767.09	1697.77
767.27	1738.73
767.44	1542.12
767.62	1716.20
767.80	1660.90
767.98	1648.61
768.15	1593.32
768.33	1718.25
768.51	1685.48
768.69	1744.87
768.87	1683.43
769.04	1775.59
769.22	1769.44
769.40	1705.96
769.58	1822.69
769.75	1669.09
769.93	1701.86
770.11	1673.19
770.28	1638.38
770.46	1722.34
770.64	1628.14
770.82	1722.34
770.99	1656.81
771.17	1779.68
771.35	1607.66
771.53	1609.70
771.70	1628.14
771.88	1689.57
772.06	1712.10
772.23	1669.09
772.41	1773.54
772.59	1689.57
772.77	1685.48
772.94	1701.86
773.12	1699.81
773.30	1693.67
773.47	1697.77
773.65	1730.53
773.83	1783.78
774.01	1628.14
774.18	1658.85
774.36	1621.99
774.54	1648.61
774.71	1677.29
774.89	1619.94
775.07	1632.23
775.24	1689.57
775.42	1687.53
775.60	1834.98
775.78	1669.09
775.95	1708.01
776.13	1613.80
776.31	1583.08
776.48	1689.57
776.66	1761.25
776.84	1783.78
777.01	1660.90
777.19	1691.62
777.37	1662.95
777.54	1740.77
777.72	1804.26
777.90	1769.44
778.07	1689.57
778.25	1865.70
778.43	1685.48
778.60	1677.29
778.78	1718.25
778.96	1779.68
779.13	1605.61
779.31	1742.82
779.49	1689.57
779.66	1755.11
779.84	1632.23
780.01	1646.57
780.19	1662.95
780.37	1769.44
780.54	1783.78
780.72	1583.08
780.90	1673.19
781.07	1640.42
781.25	1705.96
781.43	1773.54
781.60	1697.77
781.78	1759.21
781.95	1767.40
782.13	1613.80
782.31	1818.60
782.48	1626.09
782.66	1705.96
782.83	1771.49
783.01	1720.29
783.19	1771.49
783.36	1787.88
783.54	1675.24
783.72	1730.53
783.89	1640.42
784.07	1718.25
784.24	1783.78
784.42	1777.64
784.60	1757.16
784.77	1693.67
784.95	1576.94
785.12	1720.29
785.30	1701.86
785.47	1726.44
785.65	1695.72
785.83	1726.44
786.00	1705.96
786.18	1714.15
786.35	1648.61
786.53	1638.38
786.71	1765.35
786.88	1736.68
787.06	1726.44
787.23	1738.73
787.41	1626.09
787.58	1630.18
787.76	1658.85
787.94	1734.63
788.11	1724.39
788.29	1634.28
788.46	1654.76
788.64	1701.86
788.81	1691.62
788.99	1730.53
789.16	1685.48
789.34	1755.11
789.52	1572.84
789.69	1705.96
789.87	1638.38
790.04	1671.14
790.22	1683.43
790.39	1826.79
790.57	1634.28
790.74	1683.43
790.92	1720.29
791.09	1599.46
791.27	1785.83
791.44	1755.11
791.62	1562.60
791.79	1751.01
791.97	1691.62
792.15	1828.84
792.32	1685.48
792.50	1789.92
792.67	1740.77
792.85	1787.88
793.02	1683.43
793.20	1685.48
793.37	1609.70
793.55	1642.47
793.72	1619.94
793.90	1738.73
794.07	1679.33
794.25	1619.94
794.42	1669.09
794.60	1681.38
794.77	1705.96
794.95	1744.87
795.12	1695.72
795.30	1679.33
795.47	1634.28
795.65	1882.08
795.82	1687.53
796.00	1660.90
796.17	1712.10
796.34	1626.09
796.52	1714.15
796.69	1755.11
796.87	1734.63
797.04	1710.05
797.22	1755.11
797.39	1679.33
797.57	1722.34
797.74	1724.39
797.92	1732.58
798.09	1632.23
798.27	1763.30
798.44	1693.67
798.62	1697.77
798.79	1671.14
798.96	1705.96
799.14	1613.80
799.31	1884.13
799.49	1691.62
799.66	1634.28
799.84	1667.05
800.01	1605.61
800.19	1718.25
800.36	1615.85
800.53	1660.90
800.71	1671.14
800.88	1769.44
801.06	1677.29
801.23	1685.48
801.41	1681.38
801.58	1619.94
801.75	1628.14
801.93	1746.92
802.10	1845.22
802.28	1640.42
802.45	1673.19
802.63	1753.06
802.80	1857.51
802.97	1708.01
803.15	1683.43
803.32	1658.85
803.50	1587.18
803.67	1677.29
803.84	1628.14
804.02	1665.00
804.19	1652.71
804.37	1611.75
804.54	1714.15
804.71	1703.91
804.89	1726.44
805.06	1632.23
805.24	1597.42
805.41	1656.81
805.58	1636.33
805.76	1787.88
805.93	1744.87
806.10	1796.07
806.28	1794.02
806.45	1675.24
806.63	1751.01
806.80	1716.20
806.97	1742.82
807.15	1671.14
807.32	1701.86
807.49	1630.18
807.67	1648.61
807.84	1660.90
808.01	1529.83
808.19	1712.10
808.36	1843.17
808.54	1687.53
808.71	1599.46
808.88	1730.53
809.06	1794.02
809.23	1796.07
809.40	1593.32
809.58	1828.84
809.75	1693.67
809.92	1656.81
810.10	1771.49
810.27	1720.29
810.44	1748.97
810.62	1701.86
810.79	1755.11
810.96	1644.52
811.14	1701.86
811.31	1677.29
811.48	1720.29
811.66	1619.94
811.83	1728.49
812.00	1642.47
812.18	1705.96
812.35	1861.60
812.52	1703.91
812.69	1644.52
812.87	1724.39
813.04	1732.58
813.21	1665.00
813.39	1699.81
813.56	1714.15
813.73	1738.73
813.91	1710.05
814.08	1718.25
814.25	1732.58
814.42	1693.67
814.60	1656.81
814.77	1722.34
814.94	1689.57
815.12	1697.77
815.29	1820.64
815.46	1691.62
815.63	1683.43
815.81	1734.63
815.98	1724.39
816.15	1726.44
816.33	1703.91
816.50	1701.86
816.67	1642.47
816.84	1685.48
817.02	1677.29
817.19	1714.15
817.36	1726.44
817.53	1687.53
817.71	1621.99
817.88	1732.58
818.05	1697.77
818.22	1689.57
818.40	1757.16
818.57	1705.96
818.74	1849.32
818.91	1724.39
819.09	1734.63
819.26	1796.07
819.43	1730.53
819.60	1642.47
819.78	1644.52
819.95	1724.39
820.12	1621.99
820.29	1685.48
820.47	1771.49
820.64	1675.24
820.81	1640.42
820.98	1683.43
821.15	1634.28
821.33	1710.05
821.50	1677.29
821.67	1730.53
821.84	1691.62
822.02	1621.99
822.19	1763.30
822.36	1687.53
822.53	1691.62
822.70	1658.85
822.88	1615.85
823.05	1779.68
823.22	1726.44
823.39	1742.82
823.56	1699.81
823.74	1849.32
823.91	1556.46
824.08	1640.42
824.25	1652.71
824.42	1779.68
824.60	1685.48
824.77	1716.20
824.94	1669.09
825.11	1646.57
825.28	1562.60
825.45	1789.92
825.63	1599.46
825.80	1656.81
825.97	1728.49
826.14	1652.71
826.31	1687.53
826.48	1718.25
826.66	1673.19
826.83	1703.91
827.00	1662.95
827.17	1677.29
827.34	1753.06
827.51	1626.09
827.69	1718.25
827.86	1665.00
828.03	1660.90
828.20	1675.24
828.37	1617.90
828.54	1673.19
828.71	1636.33
828.89	1791.97
829.06	1736.68
829.23	1779.68
829.40	1699.81
829.57	1611.75
829.74	1673.19
829.91	1654.76
830.09	1605.61
830.26	1728.49
830.43	1791.97
830.60	1624.04
830.77	1705.96
830.94	1759.21
831.11	1732.58
831.28	1681.38
831.46	1722.34
831.63	1624.04
831.80	1718.25
831.97	1609.70
832.14	1628.14
832.31	1703.91
832.48	1667.05
832.65	1755.11
832.82	1701.86
832.99	1691.62
833.17	1652.71
833.34	1744.87
833.51	1791.97
833.68	1673.19
833.85	1683.43
834.02	1636.33
834.19	1662.95
834.36	1593.32
834.53	1679.33
834.70	1748.97
834.87	1781.73
835.04	1714.15
835.22	1710.05
835.39	1677.29
835.56	1662.95
835.73	1642.47
835.90	1734.63
836.07	1624.04
836.24	1763.30
836.41	1619.94
836.58	1734.63
836.75	1734.63
836.92	1761.25
837.09	1593.32
837.26	1705.96
837.43	1732.58
837.60	1691.62
837.77	1708.01
837.94	1687.53
838.12	1804.26
838.29	1677.29
838.46	1605.61
838.63	1652.71
838.80	1773.54
838.97	1652.71
839.14	1660.90
839.31	1681.38
839.48	1746.92
839.65	1658.85
839.82	1673.19
839.99	1669.09
840.16	1722.34
840.33	1615.85
840.50	1652.71
840.67	1681.38
840.84	1619.94
841.01	1732.58
841.18	1652.71
841.35	1665.00
841.52	1632.23
841.69	1822.69
841.86	1755.11
842.03	1673.19
842.20	1816.55
842.37	1732.58
842.54	1724.39
842.71	1701.86
842.88	1658.85
843.05	1802.21
843.22	1617.90
843.39	1714.15
843.56	1689.57
843.73	1705.96
843.90	1683.43
844.07	1693.67
844.24	1724.39
844.41	1785.83
844.58	1742.82
844.75	1695.72
844.92	1830.88
845.09	1665.00
845.26	1599.46
845.43	1669.09
845.60	1697.77
845.77	1740.77
845.94	1669.09
846.10	1732.58
846.27	1642.47
846.44	1621.99
846.61	1632.23
846.78	1652.71
846.95	1824.74
847.12	1755.11
847.29	1685.48
847.46	1708.01
847.63	1755.11
847.80	1710.05
847.97	1671.14
848.14	1775.59
848.31	1693.67
848.48	1656.81
848.65	1669.09
848.82	1726.44
848.98	1763.30
849.15	1744.87
849.32	1787.88
849.49	1822.69
849.66	1724.39
849.83	1697.77
850.00	1630.18
850.17	1660.90
850.34	1675.24
850.51	1679.33
850.68	1660.90
850.85	1841.12
851.01	1708.01
851.18	1708.01
851.35	1714.15
851.52	1671.14
851.69	1755.11
851.86	1599.46
852.03	1679.33
852.20	1755.11
852.37	1705.96
852.53	1605.61
852.70	1708.01
852.87	1660.90
853.04	1669.09
853.21	1705.96
853.38	1591.27
853.55	1716.20
853.72	1763.30
853.89	1665.00
854.05	1615.85
854.22	1665.00
854.39	1636.33
854.56	1726.44
854.73	1773.54
854.90	1634.28
855.07	1640.42
855.23	1746.92
855.40	1693.67
855.57	1691.62
855.74	1603.56
855.91	1939.43
856.08	1566.70
856.25	1621.99
856.41	1665.00
856.58	1581.03
856.75	1755.11
856.92	1662.95
857.09	1724.39
857.26	1656.81
857.42	1658.85
857.59	1628.14
857.76	1687.53
857.93	1669.09
858.10	1619.94
858.27	1607.66
858.43	1722.34
858.60	1593.32
858.77	1554.41
858.94	1669.09
859.11	1775.59
859.27	1660.90
859.44	1671.14
859.61	1769.44
859.78	1714.15
859.95	1685.48
860.12	1732.58
860.28	1802.21
860.45	1812.45
860.62	1640.42
860.79	1673.19
860.95	1693.67
861.12	1669.09
861.29	1677.29
861.46	1609.70
861.63	1665.00
861.79	1665.00
861.96	1613.80
862.13	1640.42
862.30	1744.87
862.47	1615.85
862.63	1665.00
862.80	1724.39
862.97	1714.15
863.14	1718.25
863.30	1744.87
863.47	1693.67
863.64	1753.06
863.81	1693.67
863.97	1648.61
864.14	1701.86
864.31	1619.94
864.48	1701.86
864.65	1734.63
864.81	1701.86
864.98	1761.25
865.15	1765.35
865.32	1712.10
865.48	1691.62
865.65	1720.29
865.82	1693.67
865.98	1738.73
866.15	1751.01
866.32	1658.85
866.49	1652.71
866.65	1734.63
866.82	1705.96
866.99	1738.73
867.16	1660.90
867.32	1628.14
867.49	1710.05
867.66	1624.04
867.83	1640.42
867.99	1667.05
868.16	1677.29
868.33	1591.27
868.49	1705.96
868.66	1656.81
868.83	1691.62
868.99	1699.81
869.16	1726.44
869.33	1806.31
869.50	1781.73
869.66	1677.29
869.83	1677.29
870.00	1634.28
870.16	1804.26
870.33	1619.94
870.50	1708.01
870.66	1677.29
870.83	1857.51
871.00	1724.39
871.17	1656.81
871.33	1748.97
871.50	1667.05
871.67	1679.33
871.83	1566.70
872.00	1857.51
872.17	1677.29
872.33	1794.02
872.50	1730.53
872.67	1652.71
872.83	1621.99
873.00	1814.50
873.17	1710.05
873.33	1710.05
873.50	1677.29
873.67	1669.09
873.83	1599.46
874.00	1658.85
874.16	1785.83
874.33	1705.96
874.50	1669.09
874.66	1701.86
874.83	1679.33
875.00	1761.25
875.16	1701.86
875.33	1753.06
875.50	1574.89
875.66	1703.91
875.83	1701.86
875.99	1796.07
876.16	1710.05
876.33	1658.85
876.49	1728.49
876.66	1722.34
876.83	1710.05
876.99	1650.66
877.16	1757.16
877.32	1738.73
877.49	1648.61
877.66	1705.96
877.82	1834.98
877.99	1689.57
878.15	1751.01
878.32	1722.34
878.49	1732.58
878.65	1652.71
878.82	1796.07
878.98	1703.91
879.15	1847.27
879.32	1685.48
879.48	1779.68
879.65	1736.68
879.81	1667.05
879.98	1611.75
880.15	1660.90
880.31	1718.25
880.48	1650.66
880.64	1712.10
880.81	1748.97
880.97	1818.60
881.14	1802.21
881.31	1650.66
881.47	1812.45
881.64	1681.38
881.80	1665.00
881.97	1689.57
882.13	1783.78
882.30	1644.52
882.47	1642.47
882.63	1578.98
882.80	1648.61
882.96	1648.61
883.13	1699.81
883.29	1658.85
883.46	1693.67
883.62	1683.43
883.79	1728.49
883.95	1681.38
884.12	1701.86
884.29	1785.83
884.45	1705.96
884.62	1636.33
884.78	1630.18
884.95	1783.78
885.11	1609.70
885.28	1734.63
885.44	1611.75
885.61	1720.29
885.77	1705.96
885.94	1697.77
886.10	1683.43
886.27	1701.86
886.43	1744.87
886.60	1748.97
886.76	1697.77
886.93	1681.38
887.09	1671.14
887.26	1710.05
887.42	1697.77
887.59	1726.44
887.75	1765.35
887.92	1738.73
888.08	1767.40
888.25	1775.59
888.41	1691.62
888.58	1755.11
888.74	1611.75
888.91	1636.33
>>>>>End Processed Spectral Data<<<<<
