SpectraSuite Data File
++++++++++++++++++++++++++++++++++++
Date: Mon Jun 06 14:50:57 CEST 2016
User: root
Dark Spectrum Present: No
Reference Spectrum Present: No
Number of Sampled Component Spectra: 1
Spectrometers: USB4C02835
Integration Time (usec): 100000 (USB4C02835)
Spectra Averaged: 1 (USB4C02835)
Boxcar Smoothing: 0 (USB4C02835)
Correct for Electrical Dark: No (USB4C02835)
Strobe/Lamp Enabled: No (USB4C02835)
Correct for Detector Non-linearity: No (USB4C02835)
Correct for Stray Light: No (USB4C02835)
Number of Pixels in Processed Spectrum: 3648
>>>>>Begin Processed Spectral Data<<<<<
177.47	1423.34
177.69	1423.34
177.91	1423.34
178.13	1376.24
178.36	1435.63
178.58	1650.66
178.80	1736.68
179.02	1603.56
179.24	1607.66
179.46	1662.95
179.68	1665.00
179.90	1667.05
180.13	1714.15
180.35	1662.95
180.57	1621.99
180.79	1755.11
181.01	1734.63
181.23	1751.01
181.45	1810.40
181.67	1677.29
181.90	1716.20
182.12	1648.61
182.34	1636.33
182.56	1660.90
182.78	1705.96
183.00	1677.29
183.22	1703.91
183.44	1652.71
183.66	1830.88
183.89	1685.48
184.11	1689.57
184.33	1695.72
184.55	1693.67
184.77	1695.72
184.99	1687.53
185.21	1675.24
185.43	1804.26
185.65	1638.38
185.87	1714.15
186.10	1839.08
186.32	1740.77
186.54	1771.49
186.76	1779.68
186.98	1738.73
187.20	1703.91
187.42	1695.72
187.64	1726.44
187.86	1718.25
188.08	1742.82
188.30	1611.75
188.52	1705.96
188.75	1722.34
188.97	1765.35
189.19	1658.85
189.41	1683.43
189.63	1773.54
189.85	1697.77
190.07	1599.46
190.29	1607.66
190.51	1710.05
190.73	1587.18
190.95	1751.01
191.17	1689.57
191.39	1597.42
191.61	1671.14
191.84	1656.81
192.06	1677.29
192.28	1654.76
192.50	1857.51
192.72	1730.53
192.94	1646.57
193.16	1779.68
193.38	1665.00
193.60	1665.00
193.82	1675.24
194.04	1712.10
194.26	1705.96
194.48	1728.49
194.70	1681.38
194.92	1720.29
195.14	1742.82
195.36	1730.53
195.58	1763.30
195.80	1746.92
196.02	1636.33
196.24	1679.33
196.46	1804.26
196.69	1693.67
196.91	1804.26
197.13	1628.14
197.35	1681.38
197.57	1773.54
197.79	1714.15
198.01	1617.90
198.23	1673.19
198.45	1779.68
198.67	1591.27
198.89	1683.43
199.11	1726.44
199.33	1699.81
199.55	1603.56
199.77	1679.33
199.99	1806.31
200.21	1746.92
200.43	1697.77
200.65	1652.71
200.87	1615.85
201.09	1695.72
201.31	1615.85
201.53	1734.63
201.75	1746.92
201.97	1740.77
202.19	1652.71
202.41	1695.72
202.63	1845.22
202.85	1724.39
203.07	1718.25
203.29	1669.09
203.51	1605.61
203.73	1720.29
203.95	1904.61
204.17	1638.38
204.39	1654.76
204.61	1679.33
204.83	1732.58
205.05	1681.38
205.27	1710.05
205.49	1777.64
205.71	1740.77
205.93	1599.46
206.15	1683.43
206.37	1638.38
206.59	1669.09
206.81	1669.09
207.03	1648.61
207.25	1660.90
207.47	1810.40
207.69	1638.38
207.91	1777.64
208.13	1771.49
208.34	1648.61
208.56	1646.57
208.78	1689.57
209.00	1734.63
209.22	1710.05
209.44	1660.90
209.66	1630.18
209.88	1732.58
210.10	1705.96
210.32	1673.19
210.54	1755.11
210.76	1683.43
210.98	1730.53
211.20	1636.33
211.42	1705.96
211.64	1716.20
211.86	1806.31
212.08	1693.67
212.30	1699.81
212.52	1712.10
212.74	1738.73
212.96	1658.85
213.17	1765.35
213.39	1740.77
213.61	1781.73
213.83	1646.57
214.05	1628.14
214.27	1800.16
214.49	1685.48
214.71	1658.85
214.93	1791.97
215.15	1630.18
215.37	1787.88
215.59	1638.38
215.81	1746.92
216.03	1812.45
216.24	1738.73
216.46	1677.29
216.68	1656.81
216.90	1687.53
217.12	1814.50
217.34	1621.99
217.56	1724.39
217.78	1734.63
218.00	1726.44
218.22	1728.49
218.44	1714.15
218.66	1714.15
218.87	1837.03
219.09	1689.57
219.31	1708.01
219.53	1679.33
219.75	1689.57
219.97	1652.71
220.19	1691.62
220.41	1689.57
220.63	1720.29
220.85	1671.14
221.06	1599.46
221.28	1779.68
221.50	1751.01
221.72	1761.25
221.94	1740.77
222.16	1742.82
222.38	1712.10
222.60	1751.01
222.82	1660.90
223.03	1755.11
223.25	1652.71
223.47	1701.86
223.69	1796.07
223.91	1677.29
224.13	1675.24
224.35	1642.47
224.57	1808.36
224.78	1779.68
225.00	1658.85
225.22	1757.16
225.44	1712.10
225.66	1753.06
225.88	1665.00
226.10	1761.25
226.32	1714.15
226.53	1791.97
226.75	1685.48
226.97	1652.71
227.19	1677.29
227.41	1619.94
227.63	1718.25
227.85	1599.46
228.06	1726.44
228.28	1691.62
228.50	1730.53
228.72	1615.85
228.94	1724.39
229.16	1662.95
229.37	1624.04
229.59	1587.18
229.81	1787.88
230.03	1636.33
230.25	1693.67
230.47	1581.03
230.69	1589.22
230.90	1744.87
231.12	1603.56
231.34	1679.33
231.56	1791.97
231.78	1632.23
232.00	1724.39
232.21	1798.12
232.43	1693.67
232.65	1599.46
232.87	1705.96
233.09	1656.81
233.30	1658.85
233.52	1703.91
233.74	1712.10
233.96	1742.82
234.18	1740.77
234.40	1714.15
234.61	1908.71
234.83	1656.81
235.05	1556.46
235.27	1865.70
235.49	1742.82
235.70	1773.54
235.92	1814.50
236.14	1802.21
236.36	1765.35
236.58	1609.70
236.79	1763.30
237.01	1718.25
237.23	1615.85
237.45	1812.45
237.67	1740.77
237.88	1720.29
238.10	1804.26
238.32	1617.90
238.54	1681.38
238.76	1632.23
238.97	1658.85
239.19	1660.90
239.41	1714.15
239.63	1802.21
239.85	1787.88
240.06	1677.29
240.28	1685.48
240.50	1734.63
240.72	1669.09
240.93	1660.90
241.15	1699.81
241.37	1738.73
241.59	1806.31
241.81	1570.79
242.02	1699.81
242.24	1771.49
242.46	1771.49
242.68	1681.38
242.89	1738.73
243.11	1673.19
243.33	1794.02
243.55	1656.81
243.76	1771.49
243.98	1669.09
244.20	1701.86
244.42	1648.61
244.64	1701.86
244.85	1632.23
245.07	1593.32
245.29	1810.40
245.51	1658.85
245.72	1777.64
245.94	1722.34
246.16	1677.29
246.38	1742.82
246.59	1650.66
246.81	1611.75
247.03	1595.37
247.24	1650.66
247.46	1724.39
247.68	1746.92
247.90	1634.28
248.11	1746.92
248.33	1730.53
248.55	1681.38
248.77	1644.52
248.98	1771.49
249.20	1775.59
249.42	1726.44
249.64	1718.25
249.85	1628.14
250.07	1720.29
250.29	1703.91
250.50	1718.25
250.72	1619.94
250.94	1687.53
251.16	1851.36
251.37	1703.91
251.59	1724.39
251.81	1648.61
252.02	1791.97
252.24	1644.52
252.46	1802.21
252.68	1722.34
252.89	1675.24
253.11	1681.38
253.33	1845.22
253.54	1732.58
253.76	1632.23
253.98	1605.61
254.20	1642.47
254.41	1675.24
254.63	1701.86
254.85	1632.23
255.06	1757.16
255.28	1701.86
255.50	1656.81
255.71	1611.75
255.93	1642.47
256.15	1716.20
256.36	1710.05
256.58	1650.66
256.80	1761.25
257.02	1695.72
257.23	1691.62
257.45	1703.91
257.67	1757.16
257.88	1714.15
258.10	1771.49
258.32	1699.81
258.53	1751.01
258.75	1777.64
258.97	1628.14
259.18	1751.01
259.40	1691.62
259.62	1738.73
259.83	1714.15
260.05	1787.88
260.27	2000.87
260.48	1728.49
260.70	1615.85
260.92	1671.14
261.13	1761.25
261.35	1665.00
261.57	1755.11
261.78	1619.94
262.00	1652.71
262.22	1746.92
262.43	1621.99
262.65	1703.91
262.86	1699.81
263.08	1800.16
263.30	1689.57
263.51	1662.95
263.73	1687.53
263.95	1769.44
264.16	1654.76
264.38	1693.67
264.60	1783.78
264.81	1658.85
265.03	1787.88
265.25	1710.05
265.46	1720.29
265.68	1724.39
265.89	1734.63
266.11	1691.62
266.33	1791.97
266.54	1720.29
266.76	1716.20
266.98	1732.58
267.19	1765.35
267.41	1718.25
267.62	1738.73
267.84	1591.27
268.06	1728.49
268.27	1703.91
268.49	1779.68
268.70	1708.01
268.92	1753.06
269.14	1654.76
269.35	1611.75
269.57	1693.67
269.79	1779.68
270.00	1740.77
270.22	1763.30
270.43	1673.19
270.65	1570.79
270.87	1714.15
271.08	1820.64
271.30	1804.26
271.51	1714.15
271.73	1767.40
271.95	1773.54
272.16	1701.86
272.38	1744.87
272.59	1638.38
272.81	1697.77
273.02	1740.77
273.24	1718.25
273.46	1775.59
273.67	1738.73
273.89	1675.24
274.10	1697.77
274.32	1800.16
274.54	1718.25
274.75	1710.05
274.97	1634.28
275.18	1730.53
275.40	1730.53
275.61	1710.05
275.83	1705.96
276.05	1689.57
276.26	1712.10
276.48	1736.68
276.69	1605.61
276.91	1632.23
277.12	1740.77
277.34	1712.10
277.55	1791.97
277.77	1658.85
277.99	1685.48
278.20	1648.61
278.42	1648.61
278.63	1660.90
278.85	1695.72
279.06	1589.22
279.28	1710.05
279.49	1619.94
279.71	1712.10
279.93	1689.57
280.14	1667.05
280.36	1656.81
280.57	1781.73
280.79	1718.25
281.00	1665.00
281.22	1650.66
281.43	1800.16
281.65	1558.50
281.86	1626.09
282.08	1716.20
282.29	1804.26
282.51	1595.37
282.73	1648.61
282.94	1613.80
283.16	1734.63
283.37	1834.98
283.59	1744.87
283.80	1699.81
284.02	1769.44
284.23	1720.29
284.45	1624.04
284.66	1679.33
284.88	1660.90
285.09	1662.95
285.31	1755.11
285.52	1712.10
285.74	1574.89
285.95	1673.19
286.17	1718.25
286.38	1783.78
286.60	1669.09
286.81	1626.09
287.03	1697.77
287.24	1628.14
287.46	1710.05
287.67	1689.57
287.89	1814.50
288.10	1708.01
288.32	1673.19
288.53	1699.81
288.75	1732.58
288.96	1779.68
289.18	1757.16
289.39	1714.15
289.61	1806.31
289.82	1884.13
290.04	1763.30
290.25	1732.58
290.47	1763.30
290.68	1660.90
290.90	1779.68
291.11	1583.08
291.33	1720.29
291.54	1652.71
291.76	1685.48
291.97	1705.96
292.18	1714.15
292.40	1697.77
292.61	1705.96
292.83	1820.64
293.04	1689.57
293.26	1648.61
293.47	1701.86
293.69	1673.19
293.90	1691.62
294.12	1751.01
294.33	1718.25
294.55	1695.72
294.76	1748.97
294.97	1830.88
295.19	1763.30
295.40	1693.67
295.62	1720.29
295.83	1697.77
296.05	1660.90
296.26	1769.44
296.48	1654.76
296.69	1730.53
296.90	1703.91
297.12	1779.68
297.33	1748.97
297.55	1699.81
297.76	1730.53
297.98	1753.06
298.19	1716.20
298.41	1685.48
298.62	1685.48
298.83	1789.92
299.05	1718.25
299.26	1744.87
299.48	1630.18
299.69	1744.87
299.90	1736.68
300.12	1669.09
300.33	1730.53
300.55	1669.09
300.76	1787.88
300.98	1648.61
301.19	1732.58
301.40	1732.58
301.62	1722.34
301.83	1656.81
302.05	1701.86
302.26	1677.29
302.47	1732.58
302.69	1646.57
302.90	1759.21
303.12	1630.18
303.33	1726.44
303.54	1812.45
303.76	1697.77
303.97	1775.59
304.19	1794.02
304.40	1632.23
304.61	1681.38
304.83	1783.78
305.04	1740.77
305.26	1699.81
305.47	1699.81
305.68	1728.49
305.90	1581.03
306.11	1710.05
306.33	1701.86
306.54	1726.44
306.75	1642.47
306.97	1527.78
307.18	1638.38
307.39	1662.95
307.61	1722.34
307.82	1708.01
308.04	1626.09
308.25	1621.99
308.46	1691.62
308.68	1773.54
308.89	1658.85
309.10	1757.16
309.32	1703.91
309.53	1701.86
309.74	1738.73
309.96	1695.72
310.17	1818.60
310.39	1609.70
310.60	1656.81
310.81	1693.67
311.03	1673.19
311.24	1769.44
311.45	1671.14
311.67	1814.50
311.88	1730.53
312.09	1677.29
312.31	1705.96
312.52	1736.68
312.73	1665.00
312.95	1697.77
313.16	1640.42
313.37	1820.64
313.59	1773.54
313.80	1697.77
314.01	1841.12
314.23	1640.42
314.44	1630.18
314.65	1574.89
314.87	1691.62
315.08	1695.72
315.29	1683.43
315.51	1656.81
315.72	1630.18
315.93	1773.54
316.15	1773.54
316.36	1621.99
316.57	1718.25
316.79	1720.29
317.00	1677.29
317.21	1685.48
317.43	1710.05
317.64	1640.42
317.85	1656.81
318.07	1667.05
318.28	1718.25
318.49	1781.73
318.70	1955.81
318.92	1824.74
319.13	1877.99
319.34	1857.51
319.56	1767.40
319.77	1769.44
319.98	1787.88
320.20	1796.07
320.41	1689.57
320.62	1660.90
320.83	1652.71
321.05	1789.92
321.26	1757.16
321.47	1660.90
321.69	1708.01
321.90	1533.93
322.11	1665.00
322.32	1716.20
322.54	1794.02
322.75	1658.85
322.96	1800.16
323.18	1699.81
323.39	1556.46
323.60	1683.43
323.81	1654.76
324.03	1683.43
324.24	1677.29
324.45	1681.38
324.66	1642.47
324.88	1773.54
325.09	1816.55
325.30	1701.86
325.52	1673.19
325.73	1708.01
325.94	1626.09
326.15	1628.14
326.37	1695.72
326.58	1728.49
326.79	1753.06
327.00	1634.28
327.22	1777.64
327.43	1722.34
327.64	1595.37
327.85	1712.10
328.07	1697.77
328.28	1841.12
328.49	1624.04
328.70	1730.53
328.92	1632.23
329.13	1738.73
329.34	1732.58
329.55	1814.50
329.76	1755.11
329.98	1695.72
330.19	1738.73
330.40	1677.29
330.61	1724.39
330.83	1720.29
331.04	1591.27
331.25	1654.76
331.46	1718.25
331.68	1570.79
331.89	1806.31
332.10	1771.49
332.31	1628.14
332.52	1712.10
332.74	1724.39
332.95	1697.77
333.16	1699.81
333.37	1796.07
333.58	1722.34
333.80	1722.34
334.01	1587.18
334.22	1665.00
334.43	1681.38
334.64	1695.72
334.86	1583.08
335.07	1667.05
335.28	1767.40
335.49	1677.29
335.70	1736.68
335.92	1753.06
336.13	1839.08
336.34	1771.49
336.55	1712.10
336.76	1720.29
336.98	1630.18
337.19	1681.38
337.40	1861.60
337.61	1757.16
337.82	1763.30
338.04	1775.59
338.25	1665.00
338.46	1794.02
338.67	1656.81
338.88	1656.81
339.09	1677.29
339.31	1673.19
339.52	1587.18
339.73	1660.90
339.94	1748.97
340.15	1751.01
340.36	1685.48
340.58	1687.53
340.79	1662.95
341.00	1785.83
341.21	1671.14
341.42	1796.07
341.63	1748.97
341.85	1734.63
342.06	1787.88
342.27	1585.13
342.48	1679.33
342.69	1683.43
342.90	1789.92
343.12	1736.68
343.33	1642.47
343.54	1806.31
343.75	1722.34
343.96	1740.77
344.17	1679.33
344.38	1693.67
344.60	1701.86
344.81	1583.08
345.02	1791.97
345.23	1730.53
345.44	1777.64
345.65	1726.44
345.86	1753.06
346.07	1736.68
346.29	1697.77
346.50	1759.21
346.71	1683.43
346.92	1738.73
347.13	1785.83
347.34	1644.52
347.55	1712.10
347.76	1667.05
347.98	1611.75
348.19	1644.52
348.40	1738.73
348.61	1708.01
348.82	1806.31
349.03	1775.59
349.24	1683.43
349.45	1800.16
349.66	1636.33
349.88	1755.11
350.09	1695.72
350.30	1759.21
350.51	1742.82
350.72	1771.49
350.93	1677.29
351.14	1615.85
351.35	1656.81
351.56	1710.05
351.77	1673.19
351.99	1726.44
352.20	1773.54
352.41	1814.50
352.62	1683.43
352.83	1705.96
353.04	1714.15
353.25	1615.85
353.46	1718.25
353.67	1753.06
353.88	1589.22
354.09	1722.34
354.30	1734.63
354.52	1779.68
354.73	1675.24
354.94	1720.29
355.15	1671.14
355.36	1882.08
355.57	1718.25
355.78	1708.01
355.99	1683.43
356.20	1665.00
356.41	1738.73
356.62	1695.72
356.83	1736.68
357.04	1824.74
357.25	1583.08
357.46	1726.44
357.68	1636.33
357.89	1650.66
358.10	1763.30
358.31	1689.57
358.52	1781.73
358.73	1648.61
358.94	1640.42
359.15	1640.42
359.36	1671.14
359.57	1738.73
359.78	1615.85
359.99	1757.16
360.20	1654.76
360.41	1718.25
360.62	1593.32
360.83	1753.06
361.04	1701.86
361.25	1652.71
361.46	1738.73
361.67	1726.44
361.88	1810.40
362.09	1665.00
362.30	1730.53
362.51	1708.01
362.72	1716.20
362.93	1724.39
363.14	1755.11
363.35	1710.05
363.56	1611.75
363.78	1738.73
363.99	1732.58
364.20	1718.25
364.41	1740.77
364.62	1796.07
364.83	1708.01
365.04	1748.97
365.25	1640.42
365.46	1882.08
365.67	1601.51
365.88	1632.23
366.09	1701.86
366.30	1675.24
366.51	1685.48
366.72	1630.18
366.93	1705.96
367.14	1613.80
367.35	1787.88
367.56	1742.82
367.77	1812.45
367.98	1718.25
368.18	1763.30
368.39	1763.30
368.60	1615.85
368.81	1705.96
369.02	1730.53
369.23	1744.87
369.44	1624.04
369.65	1693.67
369.86	1775.59
370.07	1794.02
370.28	1619.94
370.49	1734.63
370.70	1820.64
370.91	1705.96
371.12	1609.70
371.33	1873.89
371.54	1730.53
371.75	1865.70
371.96	1554.41
372.17	1677.29
372.38	1646.57
372.59	1712.10
372.80	1642.47
373.01	1677.29
373.22	1728.49
373.43	1718.25
373.64	1662.95
373.85	1812.45
374.06	1824.74
374.26	1730.53
374.47	1710.05
374.68	1834.98
374.89	1665.00
375.10	1667.05
375.31	1798.12
375.52	1697.77
375.73	1744.87
375.94	1632.23
376.15	1802.21
376.36	1601.51
376.57	1683.43
376.78	1654.76
376.99	1722.34
377.20	1767.40
377.40	1757.16
377.61	1773.54
377.82	1650.66
378.03	1708.01
378.24	1685.48
378.45	1677.29
378.66	1681.38
378.87	1617.90
379.08	1554.41
379.29	1740.77
379.50	1834.98
379.71	1644.52
379.91	1681.38
380.12	1673.19
380.33	1755.11
380.54	1636.33
380.75	1720.29
380.96	1701.86
381.17	1683.43
381.38	1642.47
381.59	1773.54
381.80	1720.29
382.00	1951.71
382.21	1693.67
382.42	1810.40
382.63	1826.79
382.84	1751.01
383.05	1734.63
383.26	1796.07
383.47	1724.39
383.68	1765.35
383.88	1757.16
384.09	1697.77
384.30	1804.26
384.51	1716.20
384.72	1703.91
384.93	1599.46
385.14	1695.72
385.35	1781.73
385.55	1693.67
385.76	1820.64
385.97	1615.85
386.18	1677.29
386.39	1718.25
386.60	1685.48
386.81	1656.81
387.02	1603.56
387.22	1634.28
387.43	1759.21
387.64	1767.40
387.85	1894.37
388.06	2170.85
388.27	4390.84
388.48	6942.61
388.68	8318.85
388.89	9848.68
389.10	10022.76
389.31	8673.15
389.52	7823.24
389.73	6827.93
389.93	6262.69
390.14	5969.83
390.35	5150.64
390.56	4673.46
390.77	3743.69
390.98	3106.77
391.18	2527.19
391.39	2054.11
391.60	1785.83
391.81	1847.27
392.02	1703.91
392.23	1902.56
392.43	1724.39
392.64	1724.39
392.85	1742.82
393.06	1710.05
393.27	1716.20
393.47	1634.28
393.68	1667.05
393.89	1658.85
394.10	1773.54
394.31	1685.48
394.52	1632.23
394.72	1718.25
394.93	1773.54
395.14	1636.33
395.35	1679.33
395.56	1621.99
395.76	1693.67
395.97	1802.21
396.18	1828.84
396.39	1783.78
396.60	1976.29
396.80	1865.70
397.01	1763.30
397.22	1837.03
397.43	1892.32
397.64	1736.68
397.84	1787.88
398.05	1869.80
398.26	1689.57
398.47	1785.83
398.67	1787.88
398.88	1730.53
399.09	1744.87
399.30	1667.05
399.51	1714.15
399.71	1603.56
399.92	1746.92
400.13	1718.25
400.34	1689.57
400.54	1757.16
400.75	1789.92
400.96	1716.20
401.17	1851.36
401.37	1705.96
401.58	1724.39
401.79	1685.48
402.00	1847.27
402.21	2058.21
402.41	1947.62
402.62	1945.57
402.83	1998.82
403.04	2017.25
403.24	2060.26
403.45	1914.85
403.66	1855.46
403.87	1861.60
404.07	1906.66
404.28	1912.80
404.49	1923.04
404.70	1775.59
404.90	1798.12
405.11	1771.49
405.32	1779.68
405.52	1703.91
405.73	1701.86
405.94	1656.81
406.15	1691.62
406.35	1794.02
406.56	1693.67
406.77	1738.73
406.98	1679.33
407.18	1703.91
407.39	1808.36
407.60	1656.81
407.80	1773.54
408.01	1646.57
408.22	1773.54
408.43	1597.42
408.63	1710.05
408.84	1689.57
409.05	1804.26
409.25	1613.80
409.46	1671.14
409.67	1710.05
409.88	1681.38
410.08	1675.24
410.29	1779.68
410.50	1771.49
410.70	1763.30
410.91	1662.95
411.12	1755.11
411.32	1724.39
411.53	1691.62
411.74	1757.16
411.95	1771.49
412.15	1746.92
412.36	1673.19
412.57	1820.64
412.77	1796.07
412.98	1642.47
413.19	1732.58
413.39	1699.81
413.60	1763.30
413.81	1781.73
414.01	1595.37
414.22	1726.44
414.43	1728.49
414.63	1619.94
414.84	1806.31
415.05	1724.39
415.25	1650.66
415.46	1748.97
415.67	1714.15
415.87	1738.73
416.08	1722.34
416.29	1705.96
416.49	1732.58
416.70	1693.67
416.91	1718.25
417.11	1687.53
417.32	1761.25
417.53	1712.10
417.73	1728.49
417.94	1708.01
418.15	1728.49
418.35	1710.05
418.56	1624.04
418.77	1843.17
418.97	1753.06
419.18	1705.96
419.38	1599.46
419.59	1654.76
419.80	1798.12
420.00	1626.09
420.21	1746.92
420.42	1773.54
420.62	1744.87
420.83	1712.10
421.04	1710.05
421.24	1693.67
421.45	1757.16
421.65	1746.92
421.86	1613.80
422.07	1757.16
422.27	1724.39
422.48	1755.11
422.69	1644.52
422.89	1646.57
423.10	1683.43
423.30	1726.44
423.51	1714.15
423.72	1738.73
423.92	1722.34
424.13	1607.66
424.33	1665.00
424.54	1677.29
424.75	1759.21
424.95	1832.93
425.16	1703.91
425.36	1708.01
425.57	1779.68
425.78	1703.91
425.98	1769.44
426.19	1695.72
426.39	1601.51
426.60	1667.05
426.81	1781.73
427.01	1652.71
427.22	1636.33
427.42	1587.18
427.63	1658.85
427.83	1755.11
428.04	1734.63
428.25	1814.50
428.45	1810.40
428.66	1783.78
428.86	1726.44
429.07	1724.39
429.28	1693.67
429.48	1761.25
429.69	1619.94
429.89	1722.34
430.10	1603.56
430.30	1734.63
430.51	1751.01
430.71	1669.09
430.92	1724.39
431.13	1720.29
431.33	1738.73
431.54	1730.53
431.74	1781.73
431.95	1822.69
432.15	1632.23
432.36	1701.86
432.56	1724.39
432.77	1834.98
432.98	1826.79
433.18	1691.62
433.39	1685.48
433.59	1669.09
433.80	1859.56
434.00	1783.78
434.21	1636.33
434.41	1683.43
434.62	1820.64
434.82	1660.90
435.03	1673.19
435.23	1728.49
435.44	1626.09
435.64	1720.29
435.85	1722.34
436.06	1787.88
436.26	1724.39
436.47	1730.53
436.67	1630.18
436.88	1679.33
437.08	1740.77
437.29	1857.51
437.49	1769.44
437.70	1796.07
437.90	1746.92
438.11	1755.11
438.31	1769.44
438.52	1902.56
438.72	1857.51
438.93	1896.42
439.13	1771.49
439.34	1789.92
439.54	1697.77
439.75	1865.70
439.95	1839.08
440.16	1687.53
440.36	1777.64
440.57	1746.92
440.77	1751.01
440.98	1738.73
441.18	1738.73
441.39	1716.20
441.59	1638.38
441.80	1720.29
442.00	1705.96
442.21	1869.80
442.41	1648.61
442.62	1730.53
442.82	1722.34
443.02	1701.86
443.23	1716.20
443.43	1775.59
443.64	1800.16
443.84	1708.01
444.05	1789.92
444.25	1748.97
444.46	1658.85
444.66	1746.92
444.87	1877.99
445.07	1665.00
445.28	1775.59
445.48	1734.63
445.69	1746.92
445.89	1886.18
446.09	1708.01
446.30	1972.19
446.50	2658.26
446.71	3835.85
446.91	4310.97
447.12	4704.18
447.32	4941.75
447.53	4427.71
447.73	3868.61
447.93	3647.43
448.14	3426.25
448.34	3186.64
448.55	2947.03
448.75	2856.92
448.96	2738.13
449.16	2406.36
449.36	2273.25
449.57	1998.82
449.77	1900.52
449.98	1880.04
450.18	1789.92
450.39	1800.16
450.59	1796.07
450.79	1759.21
451.00	1726.44
451.20	1767.40
451.41	1755.11
451.61	1751.01
451.81	1779.68
452.02	1701.86
452.22	1730.53
452.43	1796.07
452.63	1681.38
452.84	1736.68
453.04	1724.39
453.24	1740.77
453.45	1566.70
453.65	1734.63
453.86	1691.62
454.06	1777.64
454.26	1798.12
454.47	1683.43
454.67	1816.55
454.87	1757.16
455.08	1705.96
455.28	1779.68
455.49	1734.63
455.69	1685.48
455.89	1964.00
456.10	1808.36
456.30	1740.77
456.51	1710.05
456.71	1804.26
456.91	1748.97
457.12	1763.30
457.32	1687.53
457.52	1675.24
457.73	1830.88
457.93	1738.73
458.14	1679.33
458.34	1628.14
458.54	1708.01
458.75	1736.68
458.95	1722.34
459.15	1732.58
459.36	1744.87
459.56	1773.54
459.76	1845.22
459.97	1812.45
460.17	1748.97
460.37	1828.84
460.58	1769.44
460.78	1732.58
460.99	1757.16
461.19	1755.11
461.39	1791.97
461.60	1722.34
461.80	1732.58
462.00	1730.53
462.21	1697.77
462.41	1667.05
462.61	1669.09
462.82	1591.27
463.02	1748.97
463.22	1757.16
463.43	1808.36
463.63	1732.58
463.83	1845.22
464.04	1767.40
464.24	1665.00
464.44	1734.63
464.64	1724.39
464.85	1771.49
465.05	1789.92
465.25	1652.71
465.46	1677.29
465.66	1775.59
465.86	1716.20
466.07	1738.73
466.27	1748.97
466.47	1599.46
466.68	1710.05
466.88	1843.17
467.08	1771.49
467.29	1748.97
467.49	1685.48
467.69	1708.01
467.89	1783.78
468.10	1732.58
468.30	1771.49
468.50	1767.40
468.71	1796.07
468.91	1648.61
469.11	1914.85
469.31	1736.68
469.52	1654.76
469.72	1820.64
469.92	1804.26
470.13	1728.49
470.33	1753.06
470.53	1861.60
470.73	2150.37
470.94	2222.05
471.14	2381.79
471.34	2555.86
471.54	2379.74
471.75	2285.53
471.95	2099.17
472.15	2082.78
472.36	2129.89
472.56	2084.83
472.76	1992.67
472.96	2027.49
473.17	1964.00
473.37	1873.89
473.57	1804.26
473.77	1783.78
473.98	1777.64
474.18	1730.53
474.38	1869.80
474.58	1632.23
474.79	1642.47
474.99	1773.54
475.19	1695.72
475.39	1730.53
475.60	1779.68
475.80	1757.16
476.00	1730.53
476.20	1705.96
476.41	1703.91
476.61	1834.98
476.81	1783.78
477.01	1724.39
477.21	1861.60
477.42	1773.54
477.62	1683.43
477.82	1777.64
478.02	1630.18
478.23	1748.97
478.43	1673.19
478.63	1685.48
478.83	1695.72
479.03	1714.15
479.24	1736.68
479.44	1820.64
479.64	1697.77
479.84	1605.61
480.04	1615.85
480.25	1689.57
480.45	1695.72
480.65	1693.67
480.85	1740.77
481.06	1705.96
481.26	1703.91
481.46	1779.68
481.66	1695.72
481.86	1767.40
482.06	1781.73
482.27	1656.81
482.47	1628.14
482.67	1724.39
482.87	1636.33
483.07	1781.73
483.28	1722.34
483.48	1615.85
483.68	1746.92
483.88	1732.58
484.08	1658.85
484.29	1609.70
484.49	1781.73
484.69	1730.53
484.89	1761.25
485.09	1775.59
485.29	1744.87
485.50	1822.69
485.70	1722.34
485.90	1810.40
486.10	1716.20
486.30	1695.72
486.50	1779.68
486.71	1722.34
486.91	1802.21
487.11	1765.35
487.31	1562.60
487.51	1755.11
487.71	1687.53
487.91	1705.96
488.12	1693.67
488.32	1621.99
488.52	1669.09
488.72	1624.04
488.92	1660.90
489.12	1843.17
489.32	1812.45
489.53	1708.01
489.73	1591.27
489.93	1732.58
490.13	1660.90
490.33	1667.05
490.53	1652.71
490.73	1837.03
490.94	1687.53
491.14	1773.54
491.34	1810.40
491.54	2230.24
491.74	2545.63
491.94	2877.40
492.14	3112.91
492.34	3133.39
492.54	2785.24
492.75	2418.65
492.95	2459.61
493.15	2328.54
493.35	2308.06
493.55	2265.05
493.75	2101.22
493.95	2152.42
494.15	1988.58
494.35	1933.28
494.56	1828.84
494.76	1806.31
494.96	1841.12
495.16	1767.40
495.36	1716.20
495.56	1736.68
495.76	1675.24
495.96	1724.39
496.16	1685.48
496.36	1804.26
496.56	1773.54
496.77	1710.05
496.97	1708.01
497.17	1855.46
497.37	1650.66
497.57	1714.15
497.77	1718.25
497.97	1636.33
498.17	1775.59
498.37	1689.57
498.57	1724.39
498.77	1771.49
498.97	1816.55
499.17	1886.18
499.38	1738.73
499.58	1761.25
499.78	1791.97
499.98	1732.58
500.18	1775.59
500.38	1730.53
500.58	1959.91
500.78	2586.58
500.98	4558.78
501.18	5785.51
501.38	6922.13
501.58	7274.38
501.78	6877.08
501.98	5679.02
502.18	5179.31
502.38	4544.44
502.58	4349.89
502.78	3755.97
502.98	3643.34
503.18	3516.36
503.38	3346.38
503.59	2781.14
503.79	2666.46
503.99	2535.39
504.19	2279.39
504.39	2240.48
504.59	2166.75
504.79	2099.17
504.99	2066.40
505.19	1951.71
505.39	1841.12
505.59	1912.80
505.79	1923.04
505.99	1853.41
506.19	1820.64
506.39	1834.98
506.59	1791.97
506.79	1765.35
506.99	1783.78
507.19	1847.27
507.39	1814.50
507.59	1695.72
507.79	1646.57
507.99	1689.57
508.19	1755.11
508.39	1710.05
508.59	1789.92
508.79	1724.39
508.99	1767.40
509.19	1712.10
509.39	1679.33
509.59	1767.40
509.79	1642.47
509.99	1687.53
510.19	1845.22
510.39	1800.16
510.59	1738.73
510.79	1734.63
510.99	1701.86
511.19	1802.21
511.39	1828.84
511.59	1767.40
511.79	1767.40
511.99	1712.10
512.19	1867.75
512.38	1718.25
512.58	1732.58
512.78	1656.81
512.98	1806.31
513.18	1890.28
513.38	1599.46
513.58	1853.41
513.78	1781.73
513.98	1685.48
514.18	1726.44
514.38	1685.48
514.58	1771.49
514.78	1697.77
514.98	1619.94
515.18	1755.11
515.38	1636.33
515.58	1818.60
515.78	1816.55
515.98	1724.39
516.18	1765.35
516.38	1771.49
516.57	1740.77
516.77	1708.01
516.97	1687.53
517.17	1724.39
517.37	1609.70
517.57	1824.74
517.77	1722.34
517.97	1701.86
518.17	1705.96
518.37	1744.87
518.57	1740.77
518.77	1738.73
518.97	1738.73
519.16	1748.97
519.36	1751.01
519.56	1642.47
519.76	1679.33
519.96	1705.96
520.16	1816.55
520.36	1595.37
520.56	1779.68
520.76	1732.58
520.96	1720.29
521.16	1789.92
521.35	1812.45
521.55	1857.51
521.75	1734.63
521.95	1693.67
522.15	1751.01
522.35	1650.66
522.55	1665.00
522.75	1742.82
522.95	1740.77
523.14	1626.09
523.34	1761.25
523.54	1603.56
523.74	1775.59
523.94	1740.77
524.14	1675.24
524.34	1779.68
524.54	1794.02
524.73	1671.14
524.93	1693.67
525.13	1705.96
525.33	1669.09
525.53	1832.93
525.73	1796.07
525.93	1763.30
526.13	1642.47
526.32	1757.16
526.52	1777.64
526.72	1824.74
526.92	1714.15
527.12	1714.15
527.32	1703.91
527.52	1769.44
527.71	1755.11
527.91	1761.25
528.11	1665.00
528.31	1662.95
528.51	1697.77
528.71	1732.58
528.90	1734.63
529.10	1789.92
529.30	1877.99
529.50	1615.85
529.70	1724.39
529.90	1755.11
530.09	1720.29
530.29	1654.76
530.49	1759.21
530.69	1898.47
530.89	1759.21
531.09	1779.68
531.28	1742.82
531.48	1740.77
531.68	1763.30
531.88	1703.91
532.08	1812.45
532.28	1634.28
532.47	1798.12
532.67	1730.53
532.87	1744.87
533.07	1662.95
533.27	1761.25
533.46	1779.68
533.66	1734.63
533.86	1671.14
534.06	1673.19
534.26	1767.40
534.45	1683.43
534.65	1853.41
534.85	1724.39
535.05	1738.73
535.25	1824.74
535.44	1673.19
535.64	1759.21
535.84	1689.57
536.04	1785.83
536.24	1712.10
536.43	1685.48
536.63	1785.83
536.83	1740.77
537.03	1740.77
537.22	1644.52
537.42	1626.09
537.62	1751.01
537.82	1687.53
538.02	1820.64
538.21	1708.01
538.41	1984.48
538.61	1724.39
538.81	1722.34
539.00	1775.59
539.20	1697.77
539.40	1732.58
539.60	1798.12
539.79	1675.24
539.99	1726.44
540.19	1718.25
540.39	1785.83
540.58	1712.10
540.78	1773.54
540.98	1769.44
541.18	1740.77
541.37	1753.06
541.57	1734.63
541.77	1716.20
541.97	1701.86
542.16	1710.05
542.36	1671.14
542.56	1724.39
542.76	1847.27
542.95	1798.12
543.15	1748.97
543.35	1714.15
543.54	1691.62
543.74	1628.14
543.94	1785.83
544.14	1695.72
544.33	1730.53
544.53	1697.77
544.73	1689.57
544.93	1746.92
545.12	1728.49
545.32	1648.61
545.52	1761.25
545.71	1722.34
545.91	1695.72
546.11	1738.73
546.30	1624.04
546.50	1636.33
546.70	1685.48
546.90	1683.43
547.09	1628.14
547.29	1705.96
547.49	1763.30
547.68	1751.01
547.88	1634.28
548.08	1843.17
548.27	2166.75
548.47	1701.86
548.67	1751.01
548.87	1738.73
549.06	1746.92
549.26	1658.85
549.46	1736.68
549.65	1675.24
549.85	1730.53
550.05	1757.16
550.24	1646.57
550.44	1660.90
550.64	1720.29
550.83	1796.07
551.03	1828.84
551.23	1818.60
551.42	1763.30
551.62	1720.29
551.82	1722.34
552.01	1714.15
552.21	1837.03
552.41	1705.96
552.60	1796.07
552.80	1789.92
553.00	1724.39
553.19	1683.43
553.39	1755.11
553.59	1677.29
553.78	1781.73
553.98	1771.49
554.17	1687.53
554.37	1685.48
554.57	1761.25
554.76	1591.27
554.96	1683.43
555.16	1722.34
555.35	1751.01
555.55	1740.77
555.75	1746.92
555.94	1718.25
556.14	1695.72
556.33	1742.82
556.53	1703.91
556.73	1718.25
556.92	1746.92
557.12	1796.07
557.32	1841.12
557.51	1775.59
557.71	1775.59
557.90	1853.41
558.10	1810.40
558.30	1697.77
558.49	1681.38
558.69	1761.25
558.88	1728.49
559.08	1697.77
559.28	1701.86
559.47	1748.97
559.67	1728.49
559.86	1861.60
560.06	1699.81
560.26	1757.16
560.45	1740.77
560.65	1699.81
560.84	1781.73
561.04	1701.86
561.24	1787.88
561.43	1705.96
561.63	1722.34
561.82	1763.30
562.02	1755.11
562.22	1767.40
562.41	1708.01
562.61	1744.87
562.80	1652.71
563.00	1900.52
563.19	1722.34
563.39	1800.16
563.59	1710.05
563.78	1685.48
563.98	1632.23
564.17	1705.96
564.37	1695.72
564.56	1742.82
564.76	1718.25
564.96	1834.98
565.15	1751.01
565.35	1900.52
565.54	1703.91
565.74	1820.64
565.93	1814.50
566.13	1759.21
566.32	1783.78
566.52	1857.51
566.71	1822.69
566.91	1740.77
567.11	1748.97
567.30	1634.28
567.50	1785.83
567.69	1779.68
567.89	1746.92
568.08	1708.01
568.28	1775.59
568.47	1722.34
568.67	1789.92
568.86	1744.87
569.06	1851.36
569.25	1826.79
569.45	1677.29
569.64	1660.90
569.84	1748.97
570.04	1691.62
570.23	1722.34
570.43	1748.97
570.62	1748.97
570.82	1853.41
571.01	1660.90
571.21	1740.77
571.40	1720.29
571.60	1814.50
571.79	1761.25
571.99	1665.00
572.18	1654.76
572.38	1689.57
572.57	1777.64
572.77	1816.55
572.96	1869.80
573.16	1765.35
573.35	1740.77
573.55	1785.83
573.74	1705.96
573.94	1763.30
574.13	1734.63
574.33	1847.27
574.52	1830.88
574.71	1689.57
574.91	1806.31
575.10	1675.24
575.30	1708.01
575.49	1667.05
575.69	1673.19
575.88	1740.77
576.08	1691.62
576.27	1763.30
576.47	1787.88
576.66	1808.36
576.86	1837.03
577.05	1839.08
577.25	1718.25
577.44	1888.23
577.64	1755.11
577.83	1738.73
578.02	1677.29
578.22	1845.22
578.41	1853.41
578.61	1775.59
578.80	1728.49
579.00	1730.53
579.19	1812.45
579.39	1789.92
579.58	1759.21
579.77	1789.92
579.97	1832.93
580.16	1783.78
580.36	1798.12
580.55	1853.41
580.75	1763.30
580.94	1818.60
581.13	1914.85
581.33	1845.22
581.52	1708.01
581.72	1834.98
581.91	1828.84
582.11	1654.76
582.30	1841.12
582.49	1837.03
582.69	1800.16
582.88	1828.84
583.08	1740.77
583.27	1800.16
583.47	1789.92
583.66	1740.77
583.85	1691.62
584.05	1730.53
584.24	1808.36
584.44	1802.21
584.63	1781.73
584.82	1832.93
585.02	1810.40
585.21	1892.32
585.41	1871.84
585.60	1775.59
585.79	1894.37
585.99	1929.19
586.18	1890.28
586.37	2181.09
586.57	3432.40
586.76	9865.07
586.96	24891.01
587.15	34934.25
587.34	41115.02
587.54	42896.75
587.73	37551.56
587.93	26879.59
588.12	21993.14
588.31	18648.80
588.51	16658.18
588.70	15587.09
588.89	14282.53
589.09	12691.26
589.28	11325.27
589.47	9744.24
589.67	8161.16
589.86	6766.49
590.06	5040.05
590.25	3846.09
590.44	3102.67
590.64	2617.30
590.83	2236.38
591.02	2140.13
591.22	1939.43
591.41	1927.14
591.60	1791.97
591.80	1880.04
591.99	1791.97
592.18	1814.50
592.38	1832.93
592.57	1708.01
592.76	1767.40
592.96	1853.41
593.15	1839.08
593.34	1703.91
593.54	1765.35
593.73	1736.68
593.92	1757.16
594.12	1759.21
594.31	1687.53
594.50	1794.02
594.70	1812.45
594.89	1894.37
595.08	1697.77
595.28	1775.59
595.47	2060.26
595.66	1712.10
595.86	1652.71
596.05	1765.35
596.24	1722.34
596.43	1820.64
596.63	1873.89
596.82	1738.73
597.01	1757.16
597.21	1855.46
597.40	1775.59
597.59	1730.53
597.79	1683.43
597.98	1804.26
598.17	1779.68
598.36	1818.60
598.56	1751.01
598.75	1701.86
598.94	1755.11
599.14	1718.25
599.33	1730.53
599.52	1773.54
599.71	1775.59
599.91	1773.54
600.10	1814.50
600.29	1757.16
600.48	1759.21
600.68	1650.66
600.87	1759.21
601.06	1716.20
601.26	1734.63
601.45	1714.15
601.64	1689.57
601.83	1806.31
602.03	1765.35
602.22	1642.47
602.41	1804.26
602.60	1812.45
602.80	1832.93
602.99	1744.87
603.18	1636.33
603.37	1775.59
603.57	1775.59
603.76	1738.73
603.95	1724.39
604.14	1671.14
604.34	1759.21
604.53	1751.01
604.72	1751.01
604.91	1791.97
605.10	1806.31
605.30	1712.10
605.49	1865.70
605.68	1757.16
605.87	1701.86
606.07	1718.25
606.26	1779.68
606.45	1693.67
606.64	1642.47
606.84	1656.81
607.03	1742.82
607.22	1828.84
607.41	1681.38
607.60	1677.29
607.80	1742.82
607.99	1658.85
608.18	1718.25
608.37	1791.97
608.56	1734.63
608.76	1738.73
608.95	1791.97
609.14	1701.86
609.33	1767.40
609.52	1789.92
609.72	1722.34
609.91	1761.25
610.10	1775.59
610.29	1830.88
610.48	1806.31
610.68	1744.87
610.87	1726.44
611.06	1740.77
611.25	1716.20
611.44	1775.59
611.63	1681.38
611.83	1769.44
612.02	1689.57
612.21	1867.75
612.40	1662.95
612.59	1705.96
612.79	1656.81
612.98	1699.81
613.17	1845.22
613.36	1734.63
613.55	1800.16
613.74	1734.63
613.93	1751.01
614.13	1724.39
614.32	1751.01
614.51	1724.39
614.70	1675.24
614.89	1658.85
615.08	1753.06
615.28	2084.83
615.47	1611.75
615.66	1632.23
615.85	1732.58
616.04	1863.65
616.23	1720.29
616.42	1730.53
616.62	1742.82
616.81	1732.58
617.00	1759.21
617.19	1708.01
617.38	1685.48
617.57	1689.57
617.76	1736.68
617.95	1757.16
618.15	1720.29
618.34	1808.36
618.53	1720.29
618.72	1771.49
618.91	1773.54
619.10	1798.12
619.29	1726.44
619.48	1744.87
619.68	1718.25
619.87	1677.29
620.06	1667.05
620.25	1767.40
620.44	1681.38
620.63	1701.86
620.82	1783.78
621.01	1718.25
621.20	1746.92
621.39	1726.44
621.59	1695.72
621.78	1783.78
621.97	1734.63
622.16	1705.96
622.35	1734.63
622.54	1740.77
622.73	1748.97
622.92	1687.53
623.11	1722.34
623.30	1714.15
623.49	1681.38
623.68	1759.21
623.88	1722.34
624.07	1759.21
624.26	1742.82
624.45	1783.78
624.64	1662.95
624.83	1724.39
625.02	1765.35
625.21	1798.12
625.40	1667.05
625.59	1859.56
625.78	1701.86
625.97	1755.11
626.16	1789.92
626.35	1683.43
626.54	1669.09
626.74	1787.88
626.93	1634.28
627.12	1753.06
627.31	1740.77
627.50	1708.01
627.69	1746.92
627.88	1673.19
628.07	1722.34
628.26	1624.04
628.45	1697.77
628.64	1685.48
628.83	1761.25
629.02	1634.28
629.21	1720.29
629.40	1642.47
629.59	1695.72
629.78	1701.86
629.97	1753.06
630.16	1667.05
630.35	1714.15
630.54	1705.96
630.73	1654.76
630.92	1671.14
631.11	1703.91
631.30	1789.92
631.49	1734.63
631.68	1665.00
631.87	1767.40
632.06	1609.70
632.25	1830.88
632.44	1685.48
632.63	1746.92
632.82	1656.81
633.01	1624.04
633.20	1673.19
633.39	1683.43
633.58	1675.24
633.77	1699.81
633.96	1773.54
634.15	1791.97
634.34	1718.25
634.53	1798.12
634.72	1665.00
634.91	1640.42
635.10	1712.10
635.29	1796.07
635.48	1705.96
635.67	1675.24
635.86	1718.25
636.05	1808.36
636.24	1605.61
636.43	1744.87
636.62	1718.25
636.81	1583.08
637.00	1697.77
637.19	1689.57
637.38	1654.76
637.57	1630.18
637.76	1640.42
637.95	1748.97
638.14	1675.24
638.33	1691.62
638.52	1640.42
638.71	1724.39
638.89	1619.94
639.08	1867.75
639.27	1744.87
639.46	1648.61
639.65	1785.83
639.84	1746.92
640.03	1777.64
640.22	1728.49
640.41	1806.31
640.60	1681.38
640.79	1740.77
640.98	1705.96
641.17	1800.16
641.36	1746.92
641.55	1714.15
641.74	1718.25
641.92	1673.19
642.11	1732.58
642.30	1695.72
642.49	1628.14
642.68	1648.61
642.87	1755.11
643.06	1753.06
643.25	1671.14
643.44	1658.85
643.63	1679.33
643.82	1665.00
644.00	1675.24
644.19	1675.24
644.38	1644.52
644.57	1751.01
644.76	1675.24
644.95	1769.44
645.14	1712.10
645.33	1667.05
645.52	1632.23
645.71	1583.08
645.89	1642.47
646.08	1660.90
646.27	1714.15
646.46	1730.53
646.65	1654.76
646.84	1740.77
647.03	1730.53
647.22	1753.06
647.40	1667.05
647.59	1697.77
647.78	1632.23
647.97	1662.95
648.16	1687.53
648.35	1789.92
648.54	1781.73
648.73	1642.47
648.91	1748.97
649.10	1757.16
649.29	1624.04
649.48	1755.11
649.67	1710.05
649.86	1748.97
650.05	1685.48
650.23	1783.78
650.42	1667.05
650.61	1794.02
650.80	1738.73
650.99	1820.64
651.18	1705.96
651.36	1740.77
651.55	1699.81
651.74	1837.03
651.93	1669.09
652.12	1689.57
652.31	1730.53
652.49	1738.73
652.68	1714.15
652.87	1697.77
653.06	1794.02
653.25	1853.41
653.44	1695.72
653.62	1822.69
653.81	1722.34
654.00	1689.57
654.19	1812.45
654.38	1863.65
654.56	1712.10
654.75	1728.49
654.94	1730.53
655.13	1771.49
655.32	1718.25
655.51	1738.73
655.69	1724.39
655.88	1748.97
656.07	1681.38
656.26	1824.74
656.45	1669.09
656.63	1783.78
656.82	1773.54
657.01	1708.01
657.20	1599.46
657.38	1808.36
657.57	1744.87
657.76	1619.94
657.95	1742.82
658.14	1669.09
658.32	1734.63
658.51	1585.13
658.70	1693.67
658.89	1781.73
659.08	1665.00
659.26	1796.07
659.45	1693.67
659.64	1726.44
659.83	1660.90
660.01	1816.55
660.20	1705.96
660.39	1787.88
660.58	1538.02
660.76	1751.01
660.95	1636.33
661.14	1724.39
661.33	1572.84
661.51	1722.34
661.70	1683.43
661.89	1763.30
662.08	1689.57
662.26	1644.52
662.45	1615.85
662.64	1824.74
662.83	1736.68
663.01	1644.52
663.20	1634.28
663.39	1812.45
663.58	1685.48
663.76	1751.01
663.95	1710.05
664.14	1642.47
664.32	1671.14
664.51	1689.57
664.70	1673.19
664.89	1763.30
665.07	1613.80
665.26	1746.92
665.45	1605.61
665.64	1716.20
665.82	1689.57
666.01	1791.97
666.20	1630.18
666.38	1806.31
666.57	1753.06
666.76	2201.57
666.95	4390.84
667.13	10469.22
667.32	15615.76
667.51	18118.38
667.69	19246.81
667.88	18065.13
668.07	12490.56
668.25	9654.12
668.44	8161.16
668.63	7341.97
668.81	7045.01
669.00	6320.03
669.19	5765.03
669.38	5152.69
669.56	4620.22
669.75	3987.40
669.94	3559.37
670.12	2848.72
670.31	2592.73
670.50	2242.53
670.68	2103.26
670.87	1925.09
671.06	1816.55
671.24	1832.93
671.43	1820.64
671.62	1710.05
671.80	1714.15
671.99	1714.15
672.18	1701.86
672.36	1705.96
672.55	1804.26
672.74	1699.81
672.92	1697.77
673.11	1697.77
673.29	1632.23
673.48	1738.73
673.67	1701.86
673.85	1773.54
674.04	1740.77
674.23	1771.49
674.41	1839.08
674.60	1652.71
674.79	1636.33
674.97	1607.66
675.16	1722.34
675.34	1736.68
675.53	1638.38
675.72	1800.16
675.90	1810.40
676.09	1712.10
676.28	1757.16
676.46	1583.08
676.65	1734.63
676.83	1642.47
677.02	1730.53
677.21	1775.59
677.39	1681.38
677.58	1595.37
677.77	1712.10
677.95	1740.77
678.14	1658.85
678.32	1671.14
678.51	1624.04
678.70	1871.84
678.88	1669.09
679.07	1720.29
679.25	1800.16
679.44	1644.52
679.63	1683.43
679.81	1746.92
680.00	1796.07
680.18	1751.01
680.37	1714.15
680.55	1665.00
680.74	1685.48
680.93	1675.24
681.11	1730.53
681.30	1691.62
681.48	1734.63
681.67	1716.20
681.85	1714.15
682.04	1685.48
682.23	1703.91
682.41	1726.44
682.60	1689.57
682.78	1732.58
682.97	1718.25
683.15	1775.59
683.34	1738.73
683.53	1765.35
683.71	1648.61
683.90	1861.60
684.08	1869.80
684.27	1744.87
684.45	1755.11
684.64	1759.21
684.82	1665.00
685.01	1746.92
685.19	1771.49
685.38	1755.11
685.57	1798.12
685.75	1662.95
685.94	1634.28
686.12	1599.46
686.31	1703.91
686.49	1742.82
686.68	1603.56
686.86	1740.77
687.05	1765.35
687.23	1699.81
687.42	1687.53
687.60	1652.71
687.79	1787.88
687.97	1775.59
688.16	1804.26
688.34	1830.88
688.53	1632.23
688.71	1669.09
688.90	1869.80
689.08	1767.40
689.27	1648.61
689.45	1771.49
689.64	1777.64
689.82	1777.64
690.01	1763.30
690.19	1714.15
690.38	1693.67
690.56	1753.06
690.75	1652.71
690.93	1703.91
691.12	1638.38
691.30	1738.73
691.49	1683.43
691.67	1753.06
691.86	1783.78
692.04	1658.85
692.23	1601.51
692.41	1640.42
692.60	1810.40
692.78	1828.84
692.97	1687.53
693.15	1804.26
693.34	1857.51
693.52	1859.56
693.71	1695.72
693.89	1767.40
694.08	1656.81
694.26	1763.30
694.44	1738.73
694.63	1740.77
694.81	1654.76
695.00	1648.61
695.18	1734.63
695.37	1779.68
695.55	1748.97
695.74	1660.90
695.92	1681.38
696.10	1708.01
696.29	1648.61
696.47	1656.81
696.66	1658.85
696.84	1640.42
697.03	1736.68
697.21	1826.79
697.40	2330.59
697.58	1841.12
697.76	1685.48
697.95	1634.28
698.13	1640.42
698.32	1677.29
698.50	1765.35
698.68	1714.15
698.87	1728.49
699.05	1691.62
699.24	1714.15
699.42	1662.95
699.61	1671.14
699.79	1767.40
699.97	1697.77
700.16	1701.86
700.34	1640.42
700.53	1693.67
700.71	1804.26
700.89	1783.78
701.08	1697.77
701.26	1730.53
701.45	2099.17
701.63	1677.29
701.81	1730.53
702.00	1662.95
702.18	1669.09
702.37	1644.52
702.55	1771.49
702.73	1681.38
702.92	1685.48
703.10	1763.30
703.28	1714.15
703.47	1742.82
703.65	1818.60
703.84	1736.68
704.02	1693.67
704.20	1732.58
704.39	1640.42
704.57	1697.77
704.75	1777.64
704.94	1814.50
705.12	1646.57
705.30	1800.16
705.49	2267.10
705.67	4319.17
705.86	9557.87
706.04	12756.80
706.22	14726.94
706.41	15679.25
706.59	14145.32
706.77	10092.39
706.96	7595.92
707.14	6682.52
707.32	6088.61
707.51	5664.68
707.69	4925.36
707.87	4257.73
708.06	3504.07
708.24	2992.08
708.42	2412.51
708.61	2306.01
708.79	1923.04
708.97	1888.23
709.16	1789.92
709.34	1845.22
709.52	1728.49
709.71	1732.58
709.89	1781.73
710.07	1679.33
710.26	1689.57
710.44	1710.05
710.62	1685.48
710.80	1689.57
710.99	1841.12
711.17	1763.30
711.35	1708.01
711.54	1732.58
711.72	1769.44
711.90	1779.68
712.09	1683.43
712.27	1630.18
712.45	1740.77
712.63	1665.00
712.82	1730.53
713.00	1652.71
713.18	1806.31
713.37	1783.78
713.55	1763.30
713.73	1687.53
713.91	1677.29
714.10	1656.81
714.28	1730.53
714.46	1738.73
714.65	1771.49
714.83	1724.39
715.01	1675.24
715.19	1701.86
715.38	1669.09
715.56	1726.44
715.74	1642.47
715.92	1718.25
716.11	1789.92
716.29	1636.33
716.47	1667.05
716.65	1652.71
716.84	1650.66
717.02	1748.97
717.20	1578.98
717.38	1728.49
717.57	1736.68
717.75	1734.63
717.93	1615.85
718.11	1722.34
718.30	1673.19
718.48	1701.86
718.66	1728.49
718.84	1734.63
719.03	1591.27
719.21	1615.85
719.39	1798.12
719.57	1785.83
719.75	1777.64
719.94	1644.52
720.12	1683.43
720.30	1726.44
720.48	1771.49
720.67	1628.14
720.85	1628.14
721.03	1658.85
721.21	1665.00
721.39	1806.31
721.58	1642.47
721.76	1607.66
721.94	1658.85
722.12	1773.54
722.30	1824.74
722.49	1630.18
722.67	1785.83
722.85	1744.87
723.03	1605.61
723.21	1658.85
723.40	1763.30
723.58	1785.83
723.76	1714.15
723.94	1783.78
724.12	1669.09
724.30	1765.35
724.49	1812.45
724.67	1714.15
724.85	1800.16
725.03	1673.19
725.21	1710.05
725.40	1777.64
725.58	1636.33
725.76	1775.59
725.94	1718.25
726.12	1712.10
726.30	1652.71
726.49	1648.61
726.67	1722.34
726.85	1740.77
727.03	1726.44
727.21	2140.13
727.39	2924.50
727.57	3903.43
727.76	4239.30
727.94	4544.44
728.12	4532.15
728.30	3721.16
728.48	2990.03
728.66	2770.90
728.84	2652.12
729.03	2297.82
729.21	2174.94
729.39	2017.25
729.57	1857.51
729.75	1826.79
729.93	1820.64
730.11	1654.76
730.30	1673.19
730.48	1628.14
730.66	1884.13
730.84	1810.40
731.02	1742.82
731.20	1677.29
731.38	1789.92
731.56	1624.04
731.74	1654.76
731.93	1724.39
732.11	1742.82
732.29	1683.43
732.47	1744.87
732.65	1656.81
732.83	1703.91
733.01	1710.05
733.19	1652.71
733.37	1705.96
733.56	1765.35
733.74	1656.81
733.92	1779.68
734.10	1718.25
734.28	1712.10
734.46	1607.66
734.64	1646.57
734.82	1665.00
735.00	1660.90
735.18	1669.09
735.36	1708.01
735.54	1687.53
735.73	1748.97
735.91	1726.44
736.09	1740.77
736.27	1728.49
736.45	1769.44
736.63	1533.93
736.81	1648.61
736.99	1742.82
737.17	1828.84
737.35	1640.42
737.53	1753.06
737.71	1671.14
737.89	1748.97
738.07	1705.96
738.25	1714.15
738.43	1652.71
738.61	1697.77
738.80	1642.47
738.98	1632.23
739.16	1568.74
739.34	1710.05
739.52	1808.36
739.70	1615.85
739.88	1761.25
740.06	1775.59
740.24	1609.70
740.42	1716.20
740.60	1613.80
740.78	1634.28
740.96	1613.80
741.14	1640.42
741.32	1726.44
741.50	1587.18
741.68	1896.42
741.86	1726.44
742.04	1650.66
742.22	1617.90
742.40	1767.40
742.58	1697.77
742.76	1687.53
742.94	1671.14
743.12	1578.98
743.30	1740.77
743.48	1712.10
743.66	1589.22
743.84	1740.77
744.02	1658.85
744.20	1708.01
744.38	1638.38
744.56	1581.03
744.74	1800.16
744.92	1710.05
745.10	1755.11
745.28	1796.07
745.46	1753.06
745.64	1585.13
745.82	1716.20
746.00	1650.66
746.18	1767.40
746.36	1603.56
746.54	1710.05
746.72	1714.15
746.90	1671.14
747.08	1820.64
747.26	1710.05
747.44	1765.35
747.62	1742.82
747.80	1796.07
747.98	1722.34
748.15	1683.43
748.33	1755.11
748.51	1681.38
748.69	1744.87
748.87	1628.14
749.05	1746.92
749.23	1691.62
749.41	1710.05
749.59	1722.34
749.77	1671.14
749.95	1675.24
750.13	1591.27
750.31	1710.05
750.49	1646.57
750.67	1730.53
750.85	1882.08
751.03	1781.73
751.20	1810.40
751.38	1656.81
751.56	1714.15
751.74	1705.96
751.92	1642.47
752.10	1716.20
752.28	1720.29
752.46	1671.14
752.64	1712.10
752.82	1730.53
753.00	1746.92
753.18	1677.29
753.35	1640.42
753.53	1660.90
753.71	1660.90
753.89	1695.72
754.07	1679.33
754.25	1767.40
754.43	1685.48
754.61	1681.38
754.79	1796.07
754.97	1697.77
755.14	1755.11
755.32	1679.33
755.50	1740.77
755.68	1699.81
755.86	1576.94
756.04	1644.52
756.22	1636.33
756.40	1654.76
756.57	1767.40
756.75	1640.42
756.93	1802.21
757.11	1822.69
757.29	1656.81
757.47	1699.81
757.65	1626.09
757.82	1656.81
758.00	1576.94
758.18	1638.38
758.36	1634.28
758.54	1886.18
758.72	1617.90
758.90	1730.53
759.07	1796.07
759.25	1654.76
759.43	1763.30
759.61	1628.14
759.79	2240.48
759.97	1708.01
760.15	1699.81
760.32	1615.85
760.50	1718.25
760.68	1816.55
760.86	1669.09
761.04	1765.35
761.22	1714.15
761.39	1656.81
761.57	1728.49
761.75	1656.81
761.93	1695.72
762.11	1697.77
762.28	1734.63
762.46	1652.71
762.64	1771.49
762.82	1611.75
763.00	1744.87
763.18	1726.44
763.35	1626.09
763.53	1746.92
763.71	1626.09
763.89	1648.61
764.07	1652.71
764.24	1763.30
764.42	1716.20
764.60	1705.96
764.78	1697.77
764.96	1798.12
765.13	1710.05
765.31	1638.38
765.49	1746.92
765.67	1710.05
765.84	1648.61
766.02	1642.47
766.20	1671.14
766.38	1699.81
766.56	1734.63
766.73	1714.15
766.91	1687.53
767.09	1658.85
767.27	1675.24
767.44	1691.62
767.62	1718.25
767.80	1646.57
767.98	1722.34
768.15	1787.88
768.33	1701.86
768.51	1738.73
768.69	1687.53
768.87	1828.84
769.04	1703.91
769.22	1804.26
769.40	1746.92
769.58	1861.60
769.75	1701.86
769.93	1794.02
770.11	1675.24
770.28	1675.24
770.46	1771.49
770.64	1699.81
770.82	1720.29
770.99	1675.24
771.17	1769.44
771.35	1705.96
771.53	1671.14
771.70	1667.05
771.88	1683.43
772.06	1699.81
772.23	1718.25
772.41	1771.49
772.59	1683.43
772.77	1679.33
772.94	1648.61
773.12	1722.34
773.30	1779.68
773.47	1689.57
773.65	1726.44
773.83	1806.31
774.01	1726.44
774.18	1636.33
774.36	1687.53
774.54	1642.47
774.71	1708.01
774.89	1615.85
775.07	1650.66
775.24	1648.61
775.42	1628.14
775.60	1816.55
775.78	1603.56
775.95	1642.47
776.13	1640.42
776.31	1581.03
776.48	1738.73
776.66	1789.92
776.84	1660.90
777.01	1585.13
777.19	1626.09
777.37	1638.38
777.54	1712.10
777.72	1857.51
777.90	1654.76
778.07	1761.25
778.25	1789.92
778.43	1730.53
778.60	1757.16
778.78	1708.01
778.96	1759.21
779.13	1648.61
779.31	1691.62
779.49	1683.43
779.66	1726.44
779.84	1693.67
780.01	1724.39
780.19	1599.46
780.37	1812.45
780.54	1685.48
780.72	1617.90
780.90	1699.81
781.07	1656.81
781.25	1767.40
781.43	1751.01
781.60	1718.25
781.78	1767.40
781.95	1667.05
782.13	1691.62
782.31	1755.11
782.48	1597.42
782.66	1574.89
782.83	1810.40
783.01	1650.66
783.19	1769.44
783.36	1697.77
783.54	1609.70
783.72	1685.48
783.89	1660.90
784.07	1722.34
784.24	1740.77
784.42	1783.78
784.60	1683.43
784.77	1703.91
784.95	1656.81
785.12	1656.81
785.30	1671.14
785.47	1677.29
785.65	1656.81
785.83	1607.66
786.00	1705.96
786.18	1673.19
786.35	1624.04
786.53	1634.28
786.71	1734.63
786.88	1687.53
787.06	1748.97
787.23	1656.81
787.41	1581.03
787.58	1640.42
787.76	1658.85
787.94	1701.86
788.11	1628.14
788.29	1617.90
788.46	1615.85
788.64	1630.18
788.81	1687.53
788.99	1560.55
789.16	1669.09
789.34	1587.18
789.52	1632.23
789.69	1697.77
789.87	1644.52
790.04	1665.00
790.22	1699.81
790.39	1798.12
790.57	1646.57
790.74	1646.57
790.92	1720.29
791.09	1593.32
791.27	1724.39
791.44	1837.03
791.62	1677.29
791.79	1751.01
791.97	1671.14
792.15	1869.80
792.32	1763.30
792.50	1720.29
792.67	1773.54
792.85	1759.21
793.02	1677.29
793.20	1679.33
793.37	1544.17
793.55	1677.29
793.72	1712.10
793.90	1779.68
794.07	1644.52
794.25	1648.61
794.42	1812.45
794.60	1578.98
794.77	1671.14
794.95	1751.01
795.12	1734.63
795.30	1675.24
795.47	1673.19
795.65	1880.04
795.82	1724.39
796.00	1669.09
796.17	1611.75
796.34	1609.70
796.52	1703.91
796.69	1763.30
796.87	1701.86
797.04	1699.81
797.22	1832.93
797.39	1755.11
797.57	1697.77
797.74	1675.24
797.92	1781.73
798.09	1667.05
798.27	1724.39
798.44	1796.07
798.62	1683.43
798.79	1697.77
798.96	1794.02
799.14	1624.04
799.31	1775.59
799.49	1667.05
799.66	1665.00
799.84	1730.53
800.01	1621.99
800.19	1654.76
800.36	1597.42
800.53	1642.47
800.71	1669.09
800.88	1814.50
801.06	1624.04
801.23	1617.90
801.41	1744.87
801.58	1640.42
801.75	1679.33
801.93	1703.91
802.10	1751.01
802.28	1691.62
802.45	1638.38
802.63	1736.68
802.80	1837.03
802.97	1615.85
803.15	1728.49
803.32	1640.42
803.50	1740.77
803.67	1675.24
803.84	1738.73
804.02	1681.38
804.19	1708.01
804.37	1599.46
804.54	1697.77
804.71	1660.90
804.89	1708.01
805.06	1736.68
805.24	1640.42
805.41	1665.00
805.58	1601.51
805.76	1804.26
805.93	1703.91
806.10	1728.49
806.28	1691.62
806.45	1714.15
806.63	1800.16
806.80	1691.62
806.97	1728.49
807.15	1728.49
807.32	1703.91
807.49	1669.09
807.67	1613.80
807.84	1656.81
808.01	1638.38
808.19	1763.30
808.36	1810.40
808.54	1673.19
808.71	1671.14
808.88	1716.20
809.06	1710.05
809.23	1787.88
809.40	1693.67
809.58	1720.29
809.75	1673.19
809.92	1677.29
810.10	1779.68
810.27	1701.86
810.44	1716.20
810.62	1763.30
810.79	1720.29
810.96	1669.09
811.14	1619.94
811.31	1714.15
811.48	1720.29
811.66	1660.90
811.83	1728.49
812.00	1755.11
812.18	1748.97
812.35	1798.12
812.52	1679.33
812.69	1701.86
812.87	1751.01
813.04	1656.81
813.21	1621.99
813.39	1683.43
813.56	1646.57
813.73	1751.01
813.91	1589.22
814.08	1640.42
814.25	1693.67
814.42	1642.47
814.60	1665.00
814.77	1691.62
814.94	1656.81
815.12	1724.39
815.29	1685.48
815.46	1667.05
815.63	1763.30
815.81	1681.38
815.98	1775.59
816.15	1683.43
816.33	1783.78
816.50	1718.25
816.67	1732.58
816.84	1636.33
817.02	1665.00
817.19	1638.38
817.36	1763.30
817.53	1794.02
817.71	1679.33
817.88	1789.92
818.05	1695.72
818.22	1648.61
818.40	1875.94
818.57	1632.23
818.74	1716.20
818.91	1718.25
819.09	1742.82
819.26	1716.20
819.43	1628.14
819.60	1701.86
819.78	1742.82
819.95	1626.09
820.12	1642.47
820.29	1751.01
820.47	1724.39
820.64	1636.33
820.81	1642.47
820.98	1693.67
821.15	1703.91
821.33	1697.77
821.50	1669.09
821.67	1683.43
821.84	1683.43
822.02	1697.77
822.19	1759.21
822.36	1624.04
822.53	1710.05
822.70	1685.48
822.88	1701.86
823.05	1808.36
823.22	1724.39
823.39	1830.88
823.56	1722.34
823.74	1806.31
823.91	1697.77
824.08	1621.99
824.25	1556.46
824.42	1775.59
824.60	1654.76
824.77	1742.82
824.94	1705.96
825.11	1689.57
825.28	1615.85
825.45	1734.63
825.63	1699.81
825.80	1667.05
825.97	1761.25
826.14	1726.44
826.31	1615.85
826.48	1728.49
826.66	1718.25
826.83	1611.75
827.00	1738.73
827.17	1591.27
827.34	1660.90
827.51	1681.38
827.69	1734.63
827.86	1615.85
828.03	1755.11
828.20	1646.57
828.37	1648.61
828.54	1634.28
828.71	1650.66
828.89	1837.03
829.06	1646.57
829.23	1781.73
829.40	1736.68
829.57	1718.25
829.74	1738.73
829.91	1699.81
830.09	1621.99
830.26	1662.95
830.43	1755.11
830.60	1671.14
830.77	1722.34
830.94	1699.81
831.11	1755.11
831.28	1693.67
831.46	1816.55
831.63	1646.57
831.80	1853.41
831.97	1701.86
832.14	1671.14
832.31	1689.57
832.48	1789.92
832.65	1771.49
832.82	1726.44
832.99	1779.68
833.17	1626.09
833.34	1783.78
833.51	1746.92
833.68	1599.46
833.85	1710.05
834.02	1597.42
834.19	1605.61
834.36	1644.52
834.53	1783.78
834.70	1769.44
834.87	1724.39
835.04	1679.33
835.22	1662.95
835.39	1681.38
835.56	1673.19
835.73	1742.82
835.90	1775.59
836.07	1685.48
836.24	1699.81
836.41	1621.99
836.58	1730.53
836.75	1755.11
836.92	1679.33
837.09	1617.90
837.26	1675.24
837.43	1648.61
837.60	1746.92
837.77	1640.42
837.94	1738.73
838.12	1705.96
838.29	1734.63
838.46	1624.04
838.63	1628.14
838.80	1738.73
838.97	1748.97
839.14	1714.15
839.31	1650.66
839.48	1789.92
839.65	1683.43
839.82	1787.88
839.99	1705.96
840.16	1656.81
840.33	1648.61
840.50	1626.09
840.67	1685.48
840.84	1525.74
841.01	1742.82
841.18	1615.85
841.35	1699.81
841.52	1773.54
841.69	1779.68
841.86	1703.91
842.03	1714.15
842.20	1716.20
842.37	1677.29
842.54	1669.09
842.71	1609.70
842.88	1656.81
843.05	1722.34
843.22	1761.25
843.39	1767.40
843.56	1665.00
843.73	1722.34
843.90	1699.81
844.07	1681.38
844.24	1695.72
844.41	1701.86
844.58	1705.96
844.75	1726.44
844.92	1714.15
845.09	1671.14
845.26	1724.39
845.43	1679.33
845.60	1759.21
845.77	1748.97
845.94	1718.25
846.10	1828.84
846.27	1617.90
846.44	1638.38
846.61	1677.29
846.78	1740.77
846.95	1761.25
847.12	1738.73
847.29	1699.81
847.46	1708.01
847.63	1740.77
847.80	1654.76
847.97	1636.33
848.14	1789.92
848.31	1695.72
848.48	1624.04
848.65	1679.33
848.82	1605.61
848.98	1736.68
849.15	1771.49
849.32	1806.31
849.49	1693.67
849.66	1699.81
849.83	1701.86
850.00	1630.18
850.17	1669.09
850.34	1656.81
850.51	1603.56
850.68	1644.52
850.85	1859.56
851.01	1699.81
851.18	1710.05
851.35	1671.14
851.52	1677.29
851.69	1693.67
851.86	1556.46
852.03	1685.48
852.20	1775.59
852.37	1619.94
852.53	1585.13
852.70	1695.72
852.87	1697.77
853.04	1767.40
853.21	1701.86
853.38	1703.91
853.55	1820.64
853.72	1791.97
853.89	1636.33
854.05	1607.66
854.22	1605.61
854.39	1632.23
854.56	1697.77
854.73	1755.11
854.90	1632.23
855.07	1748.97
855.23	1605.61
855.40	1699.81
855.57	1681.38
855.74	1607.66
855.91	1855.46
856.08	1673.19
856.25	1624.04
856.41	1667.05
856.58	1662.95
856.75	1687.53
856.92	1646.57
857.09	1765.35
857.26	1564.65
857.42	1675.24
857.59	1777.64
857.76	1652.71
857.93	1703.91
858.10	1667.05
858.27	1708.01
858.43	1738.73
858.60	1738.73
858.77	1642.47
858.94	1681.38
859.11	1679.33
859.27	1712.10
859.44	1685.48
859.61	1738.73
859.78	1683.43
859.95	1628.14
860.12	1644.52
860.28	1775.59
860.45	1751.01
860.62	1748.97
860.79	1673.19
860.95	1626.09
861.12	1660.90
861.29	1671.14
861.46	1697.77
861.63	1708.01
861.79	1679.33
861.96	1683.43
862.13	1621.99
862.30	1757.16
862.47	1673.19
862.63	1624.04
862.80	1720.29
862.97	1738.73
863.14	1755.11
863.30	1679.33
863.47	1671.14
863.64	1861.60
863.81	1824.74
863.97	1669.09
864.14	1683.43
864.31	1726.44
864.48	1759.21
864.65	1689.57
864.81	1722.34
864.98	1679.33
865.15	1740.77
865.32	1751.01
865.48	1712.10
865.65	1794.02
865.82	1636.33
865.98	1693.67
866.15	1714.15
866.32	1679.33
866.49	1685.48
866.65	1828.84
866.82	1587.18
866.99	1626.09
867.16	1640.42
867.32	1705.96
867.49	1714.15
867.66	1640.42
867.83	1626.09
867.99	1603.56
868.16	1660.90
868.33	1697.77
868.49	1656.81
868.66	1734.63
868.83	1687.53
868.99	1726.44
869.16	1718.25
869.33	1771.49
869.50	1769.44
869.66	1730.53
869.83	1722.34
870.00	1609.70
870.16	1705.96
870.33	1675.24
870.50	1753.06
870.66	1710.05
870.83	1765.35
871.00	1679.33
871.17	1736.68
871.33	1746.92
871.50	1697.77
871.67	1673.19
871.83	1687.53
872.00	1828.84
872.17	1675.24
872.33	1832.93
872.50	1705.96
872.67	1648.61
872.83	1718.25
873.00	1763.30
873.17	1773.54
873.33	1769.44
873.50	1683.43
873.67	1642.47
873.83	1609.70
874.00	1660.90
874.16	1722.34
874.33	1695.72
874.50	1691.62
874.66	1761.25
874.83	1693.67
875.00	1748.97
875.16	1701.86
875.33	1722.34
875.50	1677.29
875.66	1636.33
875.83	1697.77
875.99	1703.91
876.16	1644.52
876.33	1681.38
876.49	1669.09
876.66	1734.63
876.83	1759.21
876.99	1648.61
877.16	1662.95
877.32	1716.20
877.49	1722.34
877.66	1695.72
877.82	1710.05
877.99	1757.16
878.15	1689.57
878.32	1693.67
878.49	1665.00
878.65	1677.29
878.82	1708.01
878.98	1652.71
879.15	1748.97
879.32	1701.86
879.48	1738.73
879.65	1724.39
879.81	1568.74
879.98	1722.34
880.15	1628.14
880.31	1699.81
880.48	1624.04
880.64	1673.19
880.81	1679.33
880.97	1804.26
881.14	1714.15
881.31	1681.38
881.47	1869.80
881.64	1697.77
881.80	1615.85
881.97	1753.06
882.13	1720.29
882.30	1624.04
882.47	1683.43
882.63	1697.77
882.80	1736.68
882.96	1615.85
883.13	1730.53
883.29	1746.92
883.46	1804.26
883.62	1734.63
883.79	1665.00
883.95	1667.05
884.12	1689.57
884.29	1726.44
884.45	1689.57
884.62	1740.77
884.78	1673.19
884.95	1738.73
885.11	1613.80
885.28	1687.53
885.44	1632.23
885.61	1759.21
885.77	1732.58
885.94	1763.30
886.10	1748.97
886.27	1708.01
886.43	1877.99
886.60	1787.88
886.76	1673.19
886.93	1660.90
887.09	1773.54
887.26	1671.14
887.42	1722.34
887.59	1759.21
887.75	1812.45
887.92	1763.30
888.08	1765.35
888.25	1773.54
888.41	1732.58
888.58	1691.62
888.74	1619.94
888.91	1617.90
>>>>>End Processed Spectral Data<<<<<
