SpectraSuite Data File
++++++++++++++++++++++++++++++++++++
Date: Mon Jun 06 13:08:17 CEST 2016
User: root
Dark Spectrum Present: No
Reference Spectrum Present: No
Number of Sampled Component Spectra: 1
Spectrometers: USB4C02835
Integration Time (usec): 100000 (USB4C02835)
Spectra Averaged: 1 (USB4C02835)
Boxcar Smoothing: 0 (USB4C02835)
Correct for Electrical Dark: No (USB4C02835)
Strobe/Lamp Enabled: No (USB4C02835)
Correct for Detector Non-linearity: No (USB4C02835)
Correct for Stray Light: No (USB4C02835)
Number of Pixels in Processed Spectrum: 3648
>>>>>Begin Processed Spectral Data<<<<<
177.47	1472.49
177.69	1472.49
177.91	1472.49
178.13	1507.30
178.36	1468.39
178.58	1679.33
178.80	1724.39
179.02	1630.18
179.24	1705.96
179.46	1638.38
179.68	1761.25
179.90	1650.66
180.13	1691.62
180.35	1646.57
180.57	1744.87
180.79	1708.01
181.01	1681.38
181.23	1730.53
181.45	1767.40
181.67	1712.10
181.90	1728.49
182.12	1767.40
182.34	1603.56
182.56	1767.40
182.78	1687.53
183.00	1726.44
183.22	1671.14
183.44	1624.04
183.66	1828.84
183.89	1802.21
184.11	1722.34
184.33	1730.53
184.55	1802.21
184.77	1689.57
184.99	1703.91
185.21	1665.00
185.43	1761.25
185.65	1636.33
185.87	1738.73
186.10	1761.25
186.32	1765.35
186.54	1693.67
186.76	1630.18
186.98	1705.96
187.20	1673.19
187.42	1714.15
187.64	1642.47
187.86	1685.48
188.08	1632.23
188.30	1681.38
188.52	1617.90
188.75	1736.68
188.97	1761.25
189.19	1603.56
189.41	1660.90
189.63	1755.11
189.85	1708.01
190.07	1650.66
190.29	1566.70
190.51	1712.10
190.73	1609.70
190.95	1755.11
191.17	1650.66
191.39	1599.46
191.61	1730.53
191.84	1675.24
192.06	1759.21
192.28	1644.52
192.50	1906.66
192.72	1703.91
192.94	1714.15
193.16	1685.48
193.38	1665.00
193.60	1638.38
193.82	1648.61
194.04	1777.64
194.26	1746.92
194.48	1669.09
194.70	1638.38
194.92	1638.38
195.14	1763.30
195.36	1665.00
195.58	1728.49
195.80	1654.76
196.02	1638.38
196.24	1660.90
196.46	1722.34
196.69	1703.91
196.91	1845.22
197.13	1755.11
197.35	1636.33
197.57	1724.39
197.79	1753.06
198.01	1738.73
198.23	1691.62
198.45	1740.77
198.67	1619.94
198.89	1712.10
199.11	1662.95
199.33	1736.68
199.55	1634.28
199.77	1665.00
199.99	1753.06
200.21	1718.25
200.43	1744.87
200.65	1589.22
200.87	1646.57
201.09	1681.38
201.31	1593.32
201.53	1746.92
201.75	1746.92
201.97	1658.85
202.19	1740.77
202.41	1675.24
202.63	1763.30
202.85	1716.20
203.07	1722.34
203.29	1636.33
203.51	1626.09
203.73	1619.94
203.95	1841.12
204.17	1738.73
204.39	1755.11
204.61	1751.01
204.83	1718.25
205.05	1716.20
205.27	1855.46
205.49	1732.58
205.71	1679.33
205.93	1632.23
206.15	1581.03
206.37	1751.01
206.59	1738.73
206.81	1593.32
207.03	1660.90
207.25	1644.52
207.47	1740.77
207.69	1748.97
207.91	1810.40
208.13	1783.78
208.34	1705.96
208.56	1632.23
208.78	1730.53
209.00	1689.57
209.22	1683.43
209.44	1677.29
209.66	1601.51
209.88	1613.80
210.10	1718.25
210.32	1687.53
210.54	1771.49
210.76	1677.29
210.98	1691.62
211.20	1652.71
211.42	1720.29
211.64	1722.34
211.86	1705.96
212.08	1753.06
212.30	1687.53
212.52	1677.29
212.74	1804.26
212.96	1697.77
213.17	1722.34
213.39	1779.68
213.61	1816.55
213.83	1724.39
214.05	1640.42
214.27	1769.44
214.49	1607.66
214.71	1628.14
214.93	1658.85
215.15	1685.48
215.37	1736.68
215.59	1574.89
215.81	1738.73
216.03	1748.97
216.24	1708.01
216.46	1777.64
216.68	1640.42
216.90	1771.49
217.12	1740.77
217.34	1638.38
217.56	1703.91
217.78	1798.12
218.00	1740.77
218.22	1626.09
218.44	1753.06
218.66	1728.49
218.87	1785.83
219.09	1705.96
219.31	1683.43
219.53	1722.34
219.75	1716.20
219.97	1685.48
220.19	1640.42
220.41	1644.52
220.63	1755.11
220.85	1705.96
221.06	1587.18
221.28	1791.97
221.50	1644.52
221.72	1716.20
221.94	1718.25
222.16	1722.34
222.38	1812.45
222.60	1705.96
222.82	1660.90
223.03	1714.15
223.25	1656.81
223.47	1681.38
223.69	1742.82
223.91	1736.68
224.13	1738.73
224.35	1665.00
224.57	1746.92
224.78	1716.20
225.00	1779.68
225.22	1628.14
225.44	1685.48
225.66	1767.40
225.88	1701.86
226.10	1843.17
226.32	1699.81
226.53	1722.34
226.75	1628.14
226.97	1662.95
227.19	1683.43
227.41	1640.42
227.63	1742.82
227.85	1609.70
228.06	1689.57
228.28	1675.24
228.50	1728.49
228.72	1720.29
228.94	1644.52
229.16	1640.42
229.37	1632.23
229.59	1716.20
229.81	1798.12
230.03	1611.75
230.25	1665.00
230.47	1634.28
230.69	1665.00
230.90	1751.01
231.12	1675.24
231.34	1697.77
231.56	1748.97
231.78	1669.09
232.00	1656.81
232.21	1642.47
232.43	1615.85
232.65	1644.52
232.87	1732.58
233.09	1613.80
233.30	1652.71
233.52	1722.34
233.74	1615.85
233.96	1697.77
234.18	1732.58
234.40	1742.82
234.61	1751.01
234.83	1665.00
235.05	1650.66
235.27	1826.79
235.49	1789.92
235.70	1687.53
235.92	1763.30
236.14	1755.11
236.36	1841.12
236.58	1617.90
236.79	1730.53
237.01	1732.58
237.23	1703.91
237.45	1839.08
237.67	1673.19
237.88	1771.49
238.10	1728.49
238.32	1572.84
238.54	1701.86
238.76	1617.90
238.97	1667.05
239.19	1611.75
239.41	1851.36
239.63	1746.92
239.85	1662.95
240.06	1732.58
240.28	1714.15
240.50	1763.30
240.72	1701.86
240.93	1695.72
241.15	1773.54
241.37	1705.96
241.59	1738.73
241.81	1687.53
242.02	1744.87
242.24	1730.53
242.46	1810.40
242.68	1689.57
242.89	1714.15
243.11	1736.68
243.33	1736.68
243.55	1665.00
243.76	1732.58
243.98	1699.81
244.20	1710.05
244.42	1646.57
244.64	1679.33
244.85	1675.24
245.07	1718.25
245.29	1699.81
245.51	1656.81
245.72	1744.87
245.94	1697.77
246.16	1675.24
246.38	1751.01
246.59	1728.49
246.81	1638.38
247.03	1708.01
247.24	1595.37
247.46	1720.29
247.68	1796.07
247.90	1716.20
248.11	1675.24
248.33	1683.43
248.55	1710.05
248.77	1687.53
248.98	1744.87
249.20	1742.82
249.42	1701.86
249.64	1740.77
249.85	1656.81
250.07	1685.48
250.29	1687.53
250.50	1712.10
250.72	1654.76
250.94	1714.15
251.16	1894.37
251.37	1748.97
251.59	1679.33
251.81	1804.26
252.02	1765.35
252.24	1716.20
252.46	1863.65
252.68	1640.42
252.89	1636.33
253.11	1581.03
253.33	1779.68
253.54	1763.30
253.76	1624.04
253.98	1699.81
254.20	1642.47
254.41	1636.33
254.63	1738.73
254.85	1624.04
255.06	1681.38
255.28	1669.09
255.50	1615.85
255.71	1642.47
255.93	1599.46
256.15	1755.11
256.36	1722.34
256.58	1658.85
256.80	1667.05
257.02	1671.14
257.23	1685.48
257.45	1712.10
257.67	1740.77
257.88	1650.66
258.10	1759.21
258.32	1738.73
258.53	1732.58
258.75	1724.39
258.97	1634.28
259.18	1644.52
259.40	1722.34
259.62	1767.40
259.83	1816.55
260.05	1697.77
260.27	1939.43
260.48	1740.77
260.70	1632.23
260.92	1685.48
261.13	1691.62
261.35	1673.19
261.57	1720.29
261.78	1681.38
262.00	1693.67
262.22	1765.35
262.43	1644.52
262.65	1716.20
262.86	1699.81
263.08	1771.49
263.30	1679.33
263.51	1699.81
263.73	1624.04
263.95	1794.02
264.16	1593.32
264.38	1701.86
264.60	1767.40
264.81	1767.40
265.03	1755.11
265.25	1785.83
265.46	1701.86
265.68	1712.10
265.89	1800.16
266.11	1576.94
266.33	1771.49
266.54	1744.87
266.76	1769.44
266.98	1695.72
267.19	1796.07
267.41	1626.09
267.62	1720.29
267.84	1599.46
268.06	1767.40
268.27	1687.53
268.49	1722.34
268.70	1796.07
268.92	1699.81
269.14	1605.61
269.35	1599.46
269.57	1765.35
269.79	1714.15
270.00	1712.10
270.22	1816.55
270.43	1638.38
270.65	1583.08
270.87	1675.24
271.08	1736.68
271.30	1771.49
271.51	1738.73
271.73	1669.09
271.95	1820.64
272.16	1705.96
272.38	1798.12
272.59	1691.62
272.81	1744.87
273.02	1695.72
273.24	1738.73
273.46	1718.25
273.67	1656.81
273.89	1691.62
274.10	1642.47
274.32	1730.53
274.54	1742.82
274.75	1697.77
274.97	1656.81
275.18	1718.25
275.40	1728.49
275.61	1763.30
275.83	1654.76
276.05	1685.48
276.26	1673.19
276.48	1783.78
276.69	1697.77
276.91	1605.61
277.12	1783.78
277.34	1751.01
277.55	1781.73
277.77	1742.82
277.99	1716.20
278.20	1632.23
278.42	1685.48
278.63	1724.39
278.85	1628.14
279.06	1685.48
279.28	1740.77
279.49	1689.57
279.71	1763.30
279.93	1775.59
280.14	1716.20
280.36	1660.90
280.57	1763.30
280.79	1773.54
281.00	1685.48
281.22	1628.14
281.43	1824.74
281.65	1597.42
281.86	1683.43
282.08	1734.63
282.29	1834.98
282.51	1611.75
282.73	1654.76
282.94	1640.42
283.16	1845.22
283.37	1873.89
283.59	1744.87
283.80	1738.73
284.02	1734.63
284.23	1753.06
284.45	1681.38
284.66	1605.61
284.88	1708.01
285.09	1779.68
285.31	1738.73
285.52	1779.68
285.74	1628.14
285.95	1734.63
286.17	1708.01
286.38	1759.21
286.60	1677.29
286.81	1658.85
287.03	1701.86
287.24	1665.00
287.46	1828.84
287.67	1732.58
287.89	1826.79
288.10	1695.72
288.32	1742.82
288.53	1822.69
288.75	1677.29
288.96	1722.34
289.18	1656.81
289.39	1699.81
289.61	1771.49
289.82	1837.03
290.04	1783.78
290.25	1652.71
290.47	1724.39
290.68	1675.24
290.90	1753.06
291.11	1601.51
291.33	1712.10
291.54	1665.00
291.76	1701.86
291.97	1720.29
292.18	1708.01
292.40	1722.34
292.61	1583.08
292.83	1832.93
293.04	1738.73
293.26	1728.49
293.47	1648.61
293.69	1718.25
293.90	1691.62
294.12	1669.09
294.33	1675.24
294.55	1646.57
294.76	1632.23
294.97	1742.82
295.19	1849.32
295.40	1660.90
295.62	1718.25
295.83	1746.92
296.05	1613.80
296.26	1789.92
296.48	1675.24
296.69	1746.92
296.90	1640.42
297.12	1746.92
297.33	1732.58
297.55	1628.14
297.76	1665.00
297.98	1669.09
298.19	1724.39
298.41	1675.24
298.62	1642.47
298.83	1726.44
299.05	1683.43
299.26	1632.23
299.48	1675.24
299.69	1759.21
299.90	1705.96
300.12	1730.53
300.33	1763.30
300.55	1628.14
300.76	1775.59
300.98	1685.48
301.19	1681.38
301.40	1705.96
301.62	1652.71
301.83	1679.33
302.05	1701.86
302.26	1730.53
302.47	1710.05
302.69	1619.94
302.90	1718.25
303.12	1542.12
303.33	1724.39
303.54	1765.35
303.76	1648.61
303.97	1703.91
304.19	1751.01
304.40	1705.96
304.61	1658.85
304.83	1863.65
305.04	1816.55
305.26	1722.34
305.47	1613.80
305.68	1689.57
305.90	1656.81
306.11	1720.29
306.33	1728.49
306.54	1683.43
306.75	1669.09
306.97	1607.66
307.18	1626.09
307.39	1714.15
307.61	1783.78
307.82	1683.43
308.04	1748.97
308.25	1726.44
308.46	1675.24
308.68	1699.81
308.89	1728.49
309.10	1781.73
309.32	1773.54
309.53	1681.38
309.74	1716.20
309.96	1658.85
310.17	1769.44
310.39	1726.44
310.60	1771.49
310.81	1654.76
311.03	1527.78
311.24	1705.96
311.45	1708.01
311.67	1787.88
311.88	1714.15
312.09	1658.85
312.31	1601.51
312.52	1656.81
312.73	1650.66
312.95	1658.85
313.16	1621.99
313.37	1710.05
313.59	1730.53
313.80	1763.30
314.01	1798.12
314.23	1650.66
314.44	1710.05
314.65	1599.46
314.87	1603.56
315.08	1701.86
315.29	1660.90
315.51	1708.01
315.72	1626.09
315.93	1732.58
316.15	1763.30
316.36	1648.61
316.57	1695.72
316.79	1697.77
317.00	1660.90
317.21	1753.06
317.43	1619.94
317.64	1734.63
317.85	1605.61
318.07	1671.14
318.28	1718.25
318.49	1781.73
318.70	1902.56
318.92	1806.31
319.13	1828.84
319.34	1869.80
319.56	1761.25
319.77	1738.73
319.98	1794.02
320.20	1802.21
320.41	1720.29
320.62	1744.87
320.83	1624.04
321.05	1814.50
321.26	1746.92
321.47	1714.15
321.69	1710.05
321.90	1632.23
322.11	1665.00
322.32	1748.97
322.54	1673.19
322.75	1687.53
322.96	1869.80
323.18	1650.66
323.39	1658.85
323.60	1718.25
323.81	1751.01
324.03	1642.47
324.24	1697.77
324.45	1699.81
324.66	1630.18
324.88	1685.48
325.09	1824.74
325.30	1744.87
325.52	1787.88
325.73	1775.59
325.94	1648.61
326.15	1535.98
326.37	1656.81
326.58	1705.96
326.79	1763.30
327.00	1720.29
327.22	1669.09
327.43	1621.99
327.64	1572.84
327.85	1746.92
328.07	1746.92
328.28	1802.21
328.49	1636.33
328.70	1714.15
328.92	1703.91
329.13	1652.71
329.34	1658.85
329.55	1777.64
329.76	1759.21
329.98	1646.57
330.19	1748.97
330.40	1710.05
330.61	1742.82
330.83	1751.01
331.04	1644.52
331.25	1669.09
331.46	1681.38
331.68	1662.95
331.89	1742.82
332.10	1744.87
332.31	1540.07
332.52	1667.05
332.74	1767.40
332.95	1634.28
333.16	1681.38
333.37	1818.60
333.58	1621.99
333.80	1687.53
334.01	1615.85
334.22	1654.76
334.43	1712.10
334.64	1697.77
334.86	1556.46
335.07	1699.81
335.28	1810.40
335.49	1607.66
335.70	1693.67
335.92	1726.44
336.13	1845.22
336.34	1777.64
336.55	1660.90
336.76	1726.44
336.98	1546.22
337.19	1689.57
337.40	1708.01
337.61	1857.51
337.82	1722.34
338.04	1724.39
338.25	1605.61
338.46	1613.80
338.67	1687.53
338.88	1667.05
339.09	1691.62
339.31	1640.42
339.52	1619.94
339.73	1652.71
339.94	1685.48
340.15	1849.32
340.36	1730.53
340.58	1710.05
340.79	1607.66
341.00	1738.73
341.21	1642.47
341.42	1834.98
341.63	1665.00
341.85	1722.34
342.06	1765.35
342.27	1607.66
342.48	1740.77
342.69	1720.29
342.90	1728.49
343.12	1757.16
343.33	1607.66
343.54	1724.39
343.75	1826.79
343.96	1679.33
344.17	1626.09
344.38	1648.61
344.60	1660.90
344.81	1701.86
345.02	1730.53
345.23	1794.02
345.44	1851.36
345.65	1730.53
345.86	1730.53
346.07	1669.09
346.29	1779.68
346.50	1720.29
346.71	1712.10
346.92	1818.60
347.13	1757.16
347.34	1703.91
347.55	1681.38
347.76	1800.16
347.98	1624.04
348.19	1759.21
348.40	1789.92
348.61	1697.77
348.82	1708.01
349.03	1789.92
349.24	1677.29
349.45	1839.08
349.66	1593.32
349.88	1708.01
350.09	1720.29
350.30	1742.82
350.51	1804.26
350.72	1689.57
350.93	1677.29
351.14	1646.57
351.35	1703.91
351.56	1683.43
351.77	1671.14
351.99	1746.92
352.20	1789.92
352.41	1726.44
352.62	1583.08
352.83	1763.30
353.04	1726.44
353.25	1683.43
353.46	1748.97
353.67	1757.16
353.88	1585.13
354.09	1673.19
354.30	1673.19
354.52	1773.54
354.73	1759.21
354.94	1603.56
355.15	1738.73
355.36	1791.97
355.57	1685.48
355.78	1736.68
355.99	1691.62
356.20	1703.91
356.41	1734.63
356.62	1746.92
356.83	1671.14
357.04	1751.01
357.25	1554.41
357.46	1619.94
357.68	1570.79
357.89	1693.67
358.10	1730.53
358.31	1667.05
358.52	1628.14
358.73	1648.61
358.94	1669.09
359.15	1726.44
359.36	1761.25
359.57	1652.71
359.78	1736.68
359.99	1753.06
360.20	1660.90
360.41	1710.05
360.62	1775.59
360.83	1712.10
361.04	1734.63
361.25	1665.00
361.46	1705.96
361.67	1753.06
361.88	1679.33
362.09	1781.73
362.30	1652.71
362.51	1683.43
362.72	1697.77
362.93	1808.36
363.14	1732.58
363.35	1716.20
363.56	1646.57
363.78	1773.54
363.99	1695.72
364.20	1746.92
364.41	1613.80
364.62	1746.92
364.83	1716.20
365.04	1710.05
365.25	1673.19
365.46	1734.63
365.67	1632.23
365.88	1642.47
366.09	1714.15
366.30	1621.99
366.51	1746.92
366.72	1632.23
366.93	1710.05
367.14	1701.86
367.35	1818.60
367.56	1742.82
367.77	1814.50
367.98	1591.27
368.18	1669.09
368.39	1734.63
368.60	1632.23
368.81	1732.58
369.02	1724.39
369.23	1691.62
369.44	1652.71
369.65	1652.71
369.86	1681.38
370.07	1677.29
370.28	1732.58
370.49	1662.95
370.70	1712.10
370.91	1665.00
371.12	1615.85
371.33	1714.15
371.54	1753.06
371.75	1699.81
371.96	1632.23
372.17	1685.48
372.38	1662.95
372.59	1755.11
372.80	1734.63
373.01	1642.47
373.22	1751.01
373.43	1734.63
373.64	1634.28
373.85	1701.86
374.06	1748.97
374.26	1812.45
374.47	1687.53
374.68	1824.74
374.89	1712.10
375.10	1667.05
375.31	1714.15
375.52	1591.27
375.73	1679.33
375.94	1646.57
376.15	1787.88
376.36	1658.85
376.57	1658.85
376.78	1697.77
376.99	1757.16
377.20	1714.15
377.40	1679.33
377.61	1832.93
377.82	1619.94
378.03	1775.59
378.24	1720.29
378.45	1714.15
378.66	1671.14
378.87	1652.71
379.08	1490.92
379.29	1667.05
379.50	1814.50
379.71	1685.48
379.91	1767.40
380.12	1736.68
380.33	1701.86
380.54	1662.95
380.75	1624.04
380.96	1638.38
381.17	1755.11
381.38	1685.48
381.59	1660.90
381.80	1710.05
382.00	1849.32
382.21	1738.73
382.42	1855.46
382.63	1880.04
382.84	1800.16
383.05	1689.57
383.26	1771.49
383.47	1718.25
383.68	1722.34
383.88	1687.53
384.09	1632.23
384.30	1839.08
384.51	1677.29
384.72	1693.67
384.93	1601.51
385.14	1765.35
385.35	1748.97
385.55	1632.23
385.76	1804.26
385.97	1746.92
386.18	1636.33
386.39	1640.42
386.60	1632.23
386.81	1720.29
387.02	1628.14
387.22	1636.33
387.43	1767.40
387.64	1744.87
387.85	1853.41
388.06	2246.62
388.27	4149.18
388.48	6739.87
388.68	8095.62
388.89	9637.74
389.10	9871.21
389.31	8585.08
389.52	7565.20
389.73	6807.45
389.93	6158.24
390.14	5904.29
390.35	5148.59
390.56	4566.97
390.77	3762.12
390.98	3129.30
391.18	2396.12
391.39	2099.17
391.60	1859.56
391.81	1791.97
392.02	1710.05
392.23	1824.74
392.43	1677.29
392.64	1812.45
392.85	1722.34
393.06	1873.89
393.27	1615.85
393.47	1667.05
393.68	1693.67
393.89	1673.19
394.10	1730.53
394.31	1679.33
394.52	1681.38
394.72	1650.66
394.93	1714.15
395.14	1658.85
395.35	1755.11
395.56	1683.43
395.76	1763.30
395.97	1675.24
396.18	1767.40
396.39	1822.69
396.60	1996.77
396.80	1918.95
397.01	1853.41
397.22	1834.98
397.43	1818.60
397.64	1773.54
397.84	1734.63
398.05	1818.60
398.26	1781.73
398.47	1687.53
398.67	1730.53
398.88	1789.92
399.09	1781.73
399.30	1705.96
399.51	1691.62
399.71	1722.34
399.92	1683.43
400.13	1726.44
400.34	1689.57
400.54	1724.39
400.75	1763.30
400.96	1767.40
401.17	1796.07
401.37	1703.91
401.58	1703.91
401.79	1665.00
402.00	1779.68
402.21	1966.05
402.41	1873.89
402.62	2066.40
402.83	1988.58
403.04	1923.04
403.24	2072.54
403.45	1855.46
403.66	1880.04
403.87	1822.69
404.07	1914.85
404.28	1933.28
404.49	1851.36
404.70	1787.88
404.90	1849.32
405.11	1660.90
405.32	1730.53
405.52	1660.90
405.73	1675.24
405.94	1667.05
406.15	1708.01
406.35	1669.09
406.56	1755.11
406.77	1724.39
406.98	1699.81
407.18	1621.99
407.39	1699.81
407.60	1673.19
407.80	1757.16
408.01	1642.47
408.22	1765.35
408.43	1599.46
408.63	1679.33
408.84	1665.00
409.05	1761.25
409.25	1652.71
409.46	1593.32
409.67	1738.73
409.88	1691.62
410.08	1669.09
410.29	1744.87
410.50	1804.26
410.70	1783.78
410.91	1624.04
411.12	1681.38
411.32	1740.77
411.53	1671.14
411.74	1861.60
411.95	1781.73
412.15	1773.54
412.36	1789.92
412.57	1773.54
412.77	1814.50
412.98	1742.82
413.19	1720.29
413.39	1783.78
413.60	1785.83
413.81	1828.84
414.01	1607.66
414.22	1759.21
414.43	1689.57
414.63	1701.86
414.84	1675.24
415.05	1710.05
415.25	1636.33
415.46	1767.40
415.67	1767.40
415.87	1712.10
416.08	1738.73
416.29	1765.35
416.49	1691.62
416.70	1685.48
416.91	1722.34
417.11	1628.14
417.32	1708.01
417.53	1671.14
417.73	1757.16
417.94	1734.63
418.15	1683.43
418.35	1703.91
418.56	1759.21
418.77	1808.36
418.97	1771.49
419.18	1691.62
419.38	1576.94
419.59	1658.85
419.80	1798.12
420.00	1636.33
420.21	1740.77
420.42	1804.26
420.62	1695.72
420.83	1624.04
421.04	1638.38
421.24	1724.39
421.45	1851.36
421.65	1636.33
421.86	1603.56
422.07	1697.77
422.27	1720.29
422.48	1718.25
422.69	1671.14
422.89	1726.44
423.10	1624.04
423.30	1605.61
423.51	1722.34
423.72	1763.30
423.92	1802.21
424.13	1669.09
424.33	1724.39
424.54	1800.16
424.75	1777.64
424.95	1796.07
425.16	1765.35
425.36	1677.29
425.57	1693.67
425.78	1671.14
425.98	1683.43
426.19	1685.48
426.39	1576.94
426.60	1718.25
426.81	1687.53
427.01	1665.00
427.22	1658.85
427.42	1587.18
427.63	1669.09
427.83	1730.53
428.04	1812.45
428.25	1769.44
428.45	1748.97
428.66	1822.69
428.86	1681.38
429.07	1662.95
429.28	1746.92
429.48	1693.67
429.69	1697.77
429.89	1703.91
430.10	1589.22
430.30	1746.92
430.51	1687.53
430.71	1587.18
430.92	1671.14
431.13	1724.39
431.33	1732.58
431.54	1708.01
431.74	1820.64
431.95	1818.60
432.15	1650.66
432.36	1673.19
432.56	1738.73
432.77	1724.39
432.98	1781.73
433.18	1687.53
433.39	1689.57
433.59	1695.72
433.80	1794.02
434.00	1789.92
434.21	1667.05
434.41	1675.24
434.62	1857.51
434.82	1736.68
435.03	1693.67
435.23	1636.33
435.44	1642.47
435.64	1720.29
435.85	1736.68
436.06	1746.92
436.26	1759.21
436.47	1699.81
436.67	1632.23
436.88	1669.09
437.08	1779.68
437.29	1753.06
437.49	1804.26
437.70	1767.40
437.90	1765.35
438.11	1816.55
438.31	1783.78
438.52	1822.69
438.72	1826.79
438.93	1865.70
439.13	1806.31
439.34	1853.41
439.54	1710.05
439.75	1742.82
439.95	1769.44
440.16	1683.43
440.36	1757.16
440.57	1773.54
440.77	1748.97
440.98	1710.05
441.18	1693.67
441.39	1699.81
441.59	1687.53
441.80	1869.80
442.00	1697.77
442.21	1791.97
442.41	1636.33
442.62	1710.05
442.82	1697.77
443.02	1687.53
443.23	1675.24
443.43	1708.01
443.64	1757.16
443.84	1650.66
444.05	1806.31
444.25	1705.96
444.46	1736.68
444.66	1785.83
444.87	1826.79
445.07	1656.81
445.28	1714.15
445.48	1855.46
445.69	1667.05
445.89	1785.83
446.09	1687.53
446.30	1996.77
446.50	2643.93
446.71	3686.34
446.91	4280.25
447.12	4782.01
447.32	4734.90
447.53	4204.48
447.73	3876.80
447.93	3532.75
448.14	3205.07
448.34	3323.85
448.55	2918.36
448.75	2818.00
448.96	2625.50
449.16	2379.74
449.36	2342.88
449.57	2086.88
449.77	1738.73
449.98	1789.92
450.18	1873.89
450.39	1826.79
450.59	1751.01
450.79	1787.88
451.00	1738.73
451.20	1824.74
451.41	1763.30
451.61	1794.02
451.81	1765.35
452.02	1705.96
452.22	1740.77
452.43	1685.48
452.63	1681.38
452.84	1705.96
453.04	1775.59
453.24	1724.39
453.45	1738.73
453.65	1705.96
453.86	1732.58
454.06	1765.35
454.26	1755.11
454.47	1634.28
454.67	1820.64
454.87	1796.07
455.08	1742.82
455.28	1828.84
455.49	1736.68
455.69	1714.15
455.89	1873.89
456.10	1777.64
456.30	1693.67
456.51	1705.96
456.71	1757.16
456.91	1773.54
457.12	1697.77
457.32	1728.49
457.52	1730.53
457.73	1744.87
457.93	1791.97
458.14	1611.75
458.34	1667.05
458.54	1757.16
458.75	1675.24
458.95	1802.21
459.15	1710.05
459.36	1734.63
459.56	1798.12
459.76	1871.84
459.97	1757.16
460.17	1705.96
460.37	1859.56
460.58	1746.92
460.78	1757.16
460.99	1693.67
461.19	1757.16
461.39	1671.14
461.60	1787.88
461.80	1865.70
462.00	1685.48
462.21	1714.15
462.41	1693.67
462.61	1701.86
462.82	1662.95
463.02	1738.73
463.22	1726.44
463.43	1832.93
463.63	1824.74
463.83	1804.26
464.04	1810.40
464.24	1800.16
464.44	1718.25
464.64	1710.05
464.85	1779.68
465.05	1822.69
465.25	1755.11
465.46	1632.23
465.66	1822.69
465.86	1689.57
466.07	1720.29
466.27	1744.87
466.47	1660.90
466.68	1667.05
466.88	1798.12
467.08	1656.81
467.29	1769.44
467.49	1744.87
467.69	1806.31
467.89	1742.82
468.10	1695.72
468.30	1695.72
468.50	1832.93
468.71	1779.68
468.91	1671.14
469.11	1851.36
469.31	1716.20
469.52	1681.38
469.72	1722.34
469.92	1822.69
470.13	1669.09
470.33	1691.62
470.53	1837.03
470.73	2058.21
470.94	2291.68
471.14	2340.83
471.34	2527.19
471.54	2375.64
471.75	2230.24
471.95	2113.50
472.15	2090.98
472.36	2070.50
472.56	2047.97
472.76	2074.59
472.96	1984.48
473.17	1931.23
473.37	1914.85
473.57	1744.87
473.77	1824.74
473.98	1742.82
474.18	1685.48
474.38	1927.14
474.58	1675.24
474.79	1681.38
474.99	1697.77
475.19	1800.16
475.39	1638.38
475.60	1712.10
475.80	1691.62
476.00	1675.24
476.20	1650.66
476.41	1744.87
476.61	1857.51
476.81	1771.49
477.01	1748.97
477.21	1771.49
477.42	1728.49
477.62	1636.33
477.82	1802.21
478.02	1652.71
478.23	1781.73
478.43	1636.33
478.63	1705.96
478.83	1691.62
479.03	1675.24
479.24	1753.06
479.44	1855.46
479.64	1677.29
479.84	1640.42
480.04	1703.91
480.25	1771.49
480.45	1708.01
480.65	1789.92
480.85	1726.44
481.06	1671.14
481.26	1693.67
481.46	1685.48
481.66	1705.96
481.86	1603.56
482.06	1777.64
482.27	1685.48
482.47	1730.53
482.67	1732.58
482.87	1677.29
483.07	1746.92
483.28	1687.53
483.48	1669.09
483.68	1736.68
483.88	1636.33
484.08	1605.61
484.29	1632.23
484.49	1722.34
484.69	1648.61
484.89	1810.40
485.09	1759.21
485.29	1785.83
485.50	1710.05
485.70	1673.19
485.90	1802.21
486.10	1732.58
486.30	1751.01
486.50	1804.26
486.71	1734.63
486.91	1736.68
487.11	1820.64
487.31	1617.90
487.51	1783.78
487.71	1681.38
487.91	1640.42
488.12	1652.71
488.32	1658.85
488.52	1722.34
488.72	1615.85
488.92	1820.64
489.12	1826.79
489.32	1728.49
489.53	1693.67
489.73	1576.94
489.93	1804.26
490.13	1726.44
490.33	1589.22
490.53	1777.64
490.73	1683.43
490.94	1634.28
491.14	1656.81
491.34	1830.88
491.54	2146.27
491.74	2596.82
491.94	2893.78
492.14	3049.43
492.34	3014.61
492.54	2734.04
492.75	2533.34
492.95	2459.61
493.15	2340.83
493.35	2181.09
493.55	2265.05
493.75	2133.98
493.95	2181.09
494.15	1994.72
494.35	1943.52
494.56	1837.03
494.76	1732.58
494.96	1777.64
495.16	1763.30
495.36	1722.34
495.56	1773.54
495.76	1740.77
495.96	1660.90
496.16	1685.48
496.36	1824.74
496.56	1705.96
496.77	1701.86
496.97	1699.81
497.17	1757.16
497.37	1646.57
497.57	1751.01
497.77	1732.58
497.97	1681.38
498.17	1736.68
498.37	1681.38
498.57	1748.97
498.77	1726.44
498.97	1701.86
499.17	1787.88
499.38	1710.05
499.58	1720.29
499.78	1853.41
499.98	1769.44
500.18	1660.90
500.38	1734.63
500.58	1837.03
500.78	2568.15
500.98	4454.33
501.18	5818.28
501.38	6707.10
501.58	7061.40
501.78	6592.41
501.98	5558.19
502.18	4968.37
502.38	4427.71
502.58	4034.50
502.78	3893.19
502.98	3612.62
503.18	3395.53
503.38	3254.22
503.59	2832.34
503.79	2652.12
503.99	2435.03
504.19	2281.44
504.39	2232.29
504.59	2224.09
504.79	2093.02
504.99	2068.45
505.19	1890.28
505.39	1875.94
505.59	1939.43
505.79	1880.04
505.99	1830.88
506.19	1828.84
506.39	1951.71
506.59	1810.40
506.79	1775.59
506.99	1763.30
507.19	1724.39
507.39	1830.88
507.59	1683.43
507.79	1667.05
507.99	1718.25
508.19	1667.05
508.39	1677.29
508.59	1794.02
508.79	1771.49
508.99	1820.64
509.19	1642.47
509.39	1726.44
509.59	1697.77
509.79	1671.14
509.99	1759.21
510.19	1740.77
510.39	1744.87
510.59	1642.47
510.79	1757.16
510.99	1665.00
511.19	1730.53
511.39	1798.12
511.59	1746.92
511.79	1843.17
511.99	1718.25
512.19	1742.82
512.38	1726.44
512.58	1689.57
512.78	1767.40
512.98	1816.55
513.18	1845.22
513.38	1632.23
513.58	1722.34
513.78	1701.86
513.98	1693.67
514.18	1699.81
514.38	1572.84
514.58	1742.82
514.78	1714.15
514.98	1665.00
515.18	1736.68
515.38	1619.94
515.58	1880.04
515.78	1746.92
515.98	1751.01
516.18	1812.45
516.38	1763.30
516.57	1724.39
516.77	1791.97
516.97	1755.11
517.17	1736.68
517.37	1624.04
517.57	1677.29
517.77	1720.29
517.97	1722.34
518.17	1775.59
518.37	1718.25
518.57	1693.67
518.77	1720.29
518.97	1777.64
519.16	1826.79
519.36	1744.87
519.56	1583.08
519.76	1669.09
519.96	1667.05
520.16	1843.17
520.36	1699.81
520.56	1722.34
520.76	1683.43
520.96	1769.44
521.16	1787.88
521.35	1703.91
521.55	1863.65
521.75	1728.49
521.95	1738.73
522.15	1767.40
522.35	1621.99
522.55	1708.01
522.75	1783.78
522.95	1785.83
523.14	1755.11
523.34	1710.05
523.54	1669.09
523.74	1724.39
523.94	1816.55
524.14	1691.62
524.34	1722.34
524.54	1763.30
524.73	1687.53
524.93	1761.25
525.13	1705.96
525.33	1597.42
525.53	1865.70
525.73	1736.68
525.93	1732.58
526.13	1759.21
526.32	1740.77
526.52	1751.01
526.72	1753.06
526.92	1710.05
527.12	1662.95
527.32	1660.90
527.52	1724.39
527.71	1746.92
527.91	1656.81
528.11	1671.14
528.31	1695.72
528.51	1705.96
528.71	1746.92
528.90	1708.01
529.10	1722.34
529.30	1783.78
529.50	1675.24
529.70	1755.11
529.90	1693.67
530.09	1673.19
530.29	1662.95
530.49	1726.44
530.69	1861.60
530.89	1732.58
531.09	1802.21
531.28	1652.71
531.48	1851.36
531.68	1744.87
531.88	1708.01
532.08	1742.82
532.28	1665.00
532.47	1796.07
532.67	1779.68
532.87	1761.25
533.07	1720.29
533.27	1714.15
533.46	1761.25
533.66	1683.43
533.86	1738.73
534.06	1714.15
534.26	1804.26
534.45	1699.81
534.65	1785.83
534.85	1724.39
535.05	1646.57
535.25	1820.64
535.44	1603.56
535.64	1787.88
535.84	1740.77
536.04	1693.67
536.24	1738.73
536.43	1650.66
536.63	1757.16
536.83	1689.57
537.03	1632.23
537.22	1626.09
537.42	1624.04
537.62	1802.21
537.82	1728.49
538.02	1738.73
538.21	1775.59
538.41	1898.47
538.61	1738.73
538.81	1708.01
539.00	1789.92
539.20	1650.66
539.40	1714.15
539.60	1775.59
539.79	1759.21
539.99	1710.05
540.19	1701.86
540.39	1685.48
540.58	1796.07
540.78	1820.64
540.98	1734.63
541.18	1794.02
541.37	1753.06
541.57	1681.38
541.77	1763.30
541.97	1679.33
542.16	1609.70
542.36	1714.15
542.56	1791.97
542.76	1769.44
542.95	1775.59
543.15	1791.97
543.35	1759.21
543.54	1679.33
543.74	1701.86
543.94	1808.36
544.14	1673.19
544.33	1701.86
544.53	1738.73
544.73	1794.02
544.93	1738.73
545.12	1679.33
545.32	1755.11
545.52	1748.97
545.71	1693.67
545.91	1720.29
546.11	1724.39
546.30	1699.81
546.50	1689.57
546.70	1718.25
546.90	1726.44
547.09	1665.00
547.29	1705.96
547.49	1812.45
547.68	1681.38
547.88	1734.63
548.08	1777.64
548.27	2170.85
548.47	1726.44
548.67	1705.96
548.87	1728.49
549.06	1669.09
549.26	1787.88
549.46	1785.83
549.65	1681.38
549.85	1816.55
550.05	1759.21
550.24	1652.71
550.44	1751.01
550.64	1740.77
550.83	1759.21
551.03	1783.78
551.23	1804.26
551.42	1787.88
551.62	1714.15
551.82	1781.73
552.01	1785.83
552.21	1845.22
552.41	1697.77
552.60	1787.88
552.80	1804.26
553.00	1687.53
553.19	1722.34
553.39	1820.64
553.59	1720.29
553.78	1697.77
553.98	1781.73
554.17	1693.67
554.37	1740.77
554.57	1824.74
554.76	1759.21
554.96	1757.16
555.16	1730.53
555.35	1650.66
555.55	1748.97
555.75	1693.67
555.94	1785.83
556.14	1660.90
556.33	1765.35
556.53	1796.07
556.73	1740.77
556.92	1738.73
557.12	1802.21
557.32	1773.54
557.51	1773.54
557.71	1785.83
557.90	1859.56
558.10	1869.80
558.30	1736.68
558.49	1716.20
558.69	1804.26
558.88	1724.39
559.08	1705.96
559.28	1703.91
559.47	1753.06
559.67	1775.59
559.86	1853.41
560.06	1644.52
560.26	1705.96
560.45	1726.44
560.65	1689.57
560.84	1826.79
561.04	1665.00
561.24	1800.16
561.43	1662.95
561.63	1871.84
561.82	1736.68
562.02	1742.82
562.22	1689.57
562.41	1677.29
562.61	1699.81
562.80	1732.58
563.00	1867.75
563.19	1710.05
563.39	1775.59
563.59	1804.26
563.78	1761.25
563.98	1644.52
564.17	1775.59
564.37	1681.38
564.56	1757.16
564.76	1665.00
564.96	1894.37
565.15	1759.21
565.35	1837.03
565.54	1787.88
565.74	1771.49
565.93	1775.59
566.13	1751.01
566.32	1728.49
566.52	1775.59
566.71	1746.92
566.91	1736.68
567.11	1697.77
567.30	1720.29
567.50	1753.06
567.69	1744.87
567.89	1701.86
568.08	1675.24
568.28	1796.07
568.47	1656.81
568.67	1767.40
568.86	1638.38
569.06	1673.19
569.25	1697.77
569.45	1640.42
569.64	1726.44
569.84	1716.20
570.04	1705.96
570.23	1726.44
570.43	1728.49
570.62	1781.73
570.82	1855.46
571.01	1734.63
571.21	1720.29
571.40	1695.72
571.60	1845.22
571.79	1748.97
571.99	1730.53
572.18	1691.62
572.38	1781.73
572.57	1720.29
572.77	1703.91
572.96	1904.61
573.16	1722.34
573.35	1691.62
573.55	1824.74
573.74	1740.77
573.94	1732.58
574.13	1703.91
574.33	1820.64
574.52	1814.50
574.71	1724.39
574.91	1726.44
575.10	1716.20
575.30	1677.29
575.49	1728.49
575.69	1712.10
575.88	1730.53
576.08	1656.81
576.27	1751.01
576.47	1718.25
576.66	1796.07
576.86	1757.16
577.05	1728.49
577.25	1812.45
577.44	1886.18
577.64	1781.73
577.83	1902.56
578.02	1783.78
578.22	1794.02
578.41	1882.08
578.61	1808.36
578.80	1755.11
579.00	1822.69
579.19	1689.57
579.39	1753.06
579.58	1871.84
579.77	1802.21
579.97	1837.03
580.16	1804.26
580.36	1800.16
580.55	1820.64
580.75	1812.45
580.94	1796.07
581.13	1869.80
581.33	1880.04
581.52	1746.92
581.72	1822.69
581.91	1761.25
582.11	1708.01
582.30	1781.73
582.49	1712.10
582.69	1880.04
582.88	1779.68
583.08	1804.26
583.27	1804.26
583.47	1812.45
583.66	1705.96
583.85	1693.67
584.05	1779.68
584.24	1804.26
584.44	1763.30
584.63	1818.60
584.82	1841.12
585.02	1751.01
585.21	1851.36
585.41	1820.64
585.60	1806.31
585.79	1935.33
585.99	1902.56
586.18	1898.47
586.37	2244.57
586.57	3452.88
586.76	9688.94
586.96	24467.08
587.15	34424.31
587.34	40445.33
587.54	42077.57
587.73	36529.62
587.93	26410.60
588.12	21741.24
588.31	18212.59
588.51	16283.40
588.70	15148.82
588.89	14235.43
589.09	12441.41
589.28	11044.70
589.47	9527.15
589.67	8085.38
589.86	6481.82
590.06	5050.29
590.25	3909.57
590.44	3143.63
590.64	2656.22
590.83	2226.14
591.02	2041.82
591.22	1974.24
591.41	1908.71
591.60	1996.77
591.80	1904.61
591.99	1775.59
592.18	1781.73
592.38	1828.84
592.57	1773.54
592.76	1734.63
592.96	1751.01
593.15	1722.34
593.34	1755.11
593.54	1746.92
593.73	1775.59
593.92	1789.92
594.12	1832.93
594.31	1806.31
594.50	1847.27
594.70	1753.06
594.89	1974.24
595.08	1669.09
595.28	1820.64
595.47	1943.52
595.66	1828.84
595.86	1669.09
596.05	1705.96
596.24	1746.92
596.43	1828.84
596.63	1789.92
596.82	1777.64
597.01	1882.08
597.21	1777.64
597.40	1820.64
597.59	1804.26
597.79	1658.85
597.98	1798.12
598.17	1775.59
598.36	1626.09
598.56	1841.12
598.75	1705.96
598.94	1777.64
599.14	1748.97
599.33	1658.85
599.52	1783.78
599.71	1796.07
599.91	1771.49
600.10	1791.97
600.29	1662.95
600.48	1751.01
600.68	1775.59
600.87	1753.06
601.06	1683.43
601.26	1755.11
601.45	1787.88
601.64	1638.38
601.83	1810.40
602.03	1695.72
602.22	1671.14
602.41	1779.68
602.60	1867.75
602.80	1746.92
602.99	1810.40
603.18	1701.86
603.37	1783.78
603.57	1730.53
603.76	1800.16
603.95	1775.59
604.14	1746.92
604.34	1724.39
604.53	1722.34
604.72	1728.49
604.91	1808.36
605.10	1714.15
605.30	1617.90
605.49	1933.28
605.68	1777.64
605.87	1748.97
606.07	1648.61
606.26	1740.77
606.45	1718.25
606.64	1816.55
606.84	1779.68
607.03	1689.57
607.22	1867.75
607.41	1628.14
607.60	1697.77
607.80	1744.87
607.99	1746.92
608.18	1710.05
608.37	1722.34
608.56	1640.42
608.76	1765.35
608.95	1771.49
609.14	1798.12
609.33	1779.68
609.52	1783.78
609.72	1730.53
609.91	1822.69
610.10	1763.30
610.29	1789.92
610.48	1714.15
610.68	1738.73
610.87	1718.25
611.06	1748.97
611.25	1693.67
611.44	1837.03
611.63	1697.77
611.83	1871.84
612.02	1662.95
612.21	1789.92
612.40	1634.28
612.59	1722.34
612.79	1685.48
612.98	1720.29
613.17	1918.95
613.36	1855.46
613.55	1810.40
613.74	1718.25
613.93	1730.53
614.13	1652.71
614.32	1679.33
614.51	1699.81
614.70	1697.77
614.89	1783.78
615.08	1728.49
615.28	2058.21
615.47	1644.52
615.66	1740.77
615.85	1660.90
616.04	1716.20
616.23	1773.54
616.42	1681.38
616.62	1712.10
616.81	1787.88
617.00	1746.92
617.19	1755.11
617.38	1738.73
617.57	1705.96
617.76	1822.69
617.95	1841.12
618.15	1720.29
618.34	1734.63
618.53	1654.76
618.72	1746.92
618.91	1818.60
619.10	1794.02
619.29	1689.57
619.48	1621.99
619.68	1642.47
619.87	1673.19
620.06	1638.38
620.25	1703.91
620.44	1660.90
620.63	1716.20
620.82	1705.96
621.01	1751.01
621.20	1738.73
621.39	1763.30
621.59	1814.50
621.78	1714.15
621.97	1734.63
622.16	1794.02
622.35	1728.49
622.54	1769.44
622.73	1837.03
622.92	1589.22
623.11	1703.91
623.30	1687.53
623.49	1769.44
623.68	1693.67
623.88	1720.29
624.07	1734.63
624.26	1730.53
624.45	1751.01
624.64	1738.73
624.83	1730.53
625.02	1669.09
625.21	1744.87
625.40	1728.49
625.59	1781.73
625.78	1699.81
625.97	1822.69
626.16	1791.97
626.35	1746.92
626.54	1728.49
626.74	1812.45
626.93	1689.57
627.12	1701.86
627.31	1748.97
627.50	1787.88
627.69	1673.19
627.88	1724.39
628.07	1705.96
628.26	1656.81
628.45	1638.38
628.64	1712.10
628.83	1671.14
629.02	1685.48
629.21	1773.54
629.40	1701.86
629.59	1691.62
629.78	1697.77
629.97	1652.71
630.16	1824.74
630.35	1654.76
630.54	1658.85
630.73	1697.77
630.92	1699.81
631.11	1691.62
631.30	1736.68
631.49	1742.82
631.68	1671.14
631.87	1748.97
632.06	1671.14
632.25	1910.75
632.44	1775.59
632.63	1701.86
632.82	1595.37
633.01	1646.57
633.20	1730.53
633.39	1681.38
633.58	1560.55
633.77	1703.91
633.96	1763.30
634.15	1710.05
634.34	1697.77
634.53	1683.43
634.72	1718.25
634.91	1675.24
635.10	1734.63
635.29	1767.40
635.48	1779.68
635.67	1683.43
635.86	1632.23
636.05	1730.53
636.24	1697.77
636.43	1683.43
636.62	1689.57
636.81	1646.57
637.00	1716.20
637.19	1781.73
637.38	1763.30
637.57	1699.81
637.76	1681.38
637.95	1652.71
638.14	1640.42
638.33	1640.42
638.52	1634.28
638.71	1599.46
638.89	1642.47
639.08	1820.64
639.27	1771.49
639.46	1761.25
639.65	1796.07
639.84	1740.77
640.03	1791.97
640.22	1734.63
640.41	1742.82
640.60	1699.81
640.79	1748.97
640.98	1732.58
641.17	1773.54
641.36	1732.58
641.55	1779.68
641.74	1712.10
641.92	1667.05
642.11	1691.62
642.30	1697.77
642.49	1679.33
642.68	1671.14
642.87	1738.73
643.06	1740.77
643.25	1734.63
643.44	1652.71
643.63	1685.48
643.82	1834.98
644.00	1683.43
644.19	1724.39
644.38	1701.86
644.57	1791.97
644.76	1724.39
644.95	1748.97
645.14	1746.92
645.33	1714.15
645.52	1734.63
645.71	1613.80
645.89	1599.46
646.08	1695.72
646.27	1697.77
646.46	1886.18
646.65	1619.94
646.84	1746.92
647.03	1656.81
647.22	1697.77
647.40	1755.11
647.59	1708.01
647.78	1665.00
647.97	1705.96
648.16	1671.14
648.35	1751.01
648.54	1789.92
648.73	1787.88
648.91	1806.31
649.10	1626.09
649.29	1683.43
649.48	1681.38
649.67	1794.02
649.86	1665.00
650.05	1720.29
650.23	1828.84
650.42	1703.91
650.61	1712.10
650.80	1730.53
650.99	1812.45
651.18	1693.67
651.36	1765.35
651.55	1730.53
651.74	1689.57
651.93	1730.53
652.12	1648.61
652.31	1775.59
652.49	1791.97
652.68	1712.10
652.87	1787.88
653.06	1710.05
653.25	1753.06
653.44	1681.38
653.62	1746.92
653.81	1718.25
654.00	1730.53
654.19	1738.73
654.38	1828.84
654.56	1642.47
654.75	1699.81
654.94	1787.88
655.13	1736.68
655.32	1677.29
655.51	1742.82
655.69	1634.28
655.88	1740.77
656.07	1722.34
656.26	1705.96
656.45	1671.14
656.63	1789.92
656.82	1718.25
657.01	1771.49
657.20	1656.81
657.38	1841.12
657.57	1695.72
657.76	1658.85
657.95	1744.87
658.14	1642.47
658.32	1810.40
658.51	1656.81
658.70	1722.34
658.89	1761.25
659.08	1693.67
659.26	1767.40
659.45	1656.81
659.64	1714.15
659.83	1656.81
660.01	2021.35
660.20	1794.02
660.39	1810.40
660.58	1621.99
660.76	1714.15
660.95	1638.38
661.14	1804.26
661.33	1615.85
661.51	1722.34
661.70	1751.01
661.89	1746.92
662.08	1738.73
662.26	1576.94
662.45	1685.48
662.64	1781.73
662.83	1779.68
663.01	1656.81
663.20	1703.91
663.39	1740.77
663.58	1755.11
663.76	1726.44
663.95	1630.18
664.14	1718.25
664.32	1685.48
664.51	1642.47
664.70	1650.66
664.89	1665.00
665.07	1648.61
665.26	1755.11
665.45	1687.53
665.64	1771.49
665.82	1697.77
666.01	1757.16
666.20	1687.53
666.38	1751.01
666.57	1810.40
666.76	2150.37
666.95	4472.76
667.13	10506.08
667.32	15318.81
667.51	17583.86
667.69	18880.22
667.88	17716.98
668.07	12336.96
668.25	9625.45
668.44	8128.39
668.63	7319.44
668.81	6889.37
669.00	6399.90
669.19	5707.69
669.38	5205.94
669.56	4564.92
669.75	3995.59
669.94	3477.45
670.12	2904.02
670.31	2539.48
670.50	2267.10
670.68	2064.35
670.87	1978.34
671.06	1804.26
671.24	1712.10
671.43	1855.46
671.62	1800.16
671.80	1677.29
671.99	1710.05
672.18	1751.01
672.36	1755.11
672.55	1763.30
672.74	1763.30
672.92	1673.19
673.11	1691.62
673.29	1665.00
673.48	1781.73
673.67	1712.10
673.85	1794.02
674.04	1736.68
674.23	1738.73
674.41	1894.37
674.60	1583.08
674.79	1658.85
674.97	1753.06
675.16	1710.05
675.34	1751.01
675.53	1656.81
675.72	1751.01
675.90	1740.77
676.09	1669.09
676.28	1724.39
676.46	1607.66
676.65	1742.82
676.83	1691.62
677.02	1726.44
677.21	1718.25
677.39	1683.43
677.58	1665.00
677.77	1728.49
677.95	1611.75
678.14	1667.05
678.32	1654.76
678.51	1654.76
678.70	1765.35
678.88	1722.34
679.07	1775.59
679.25	1714.15
679.44	1705.96
679.63	1609.70
679.81	1720.29
680.00	1708.01
680.18	1736.68
680.37	1689.57
680.55	1757.16
680.74	1556.46
680.93	1607.66
681.11	1724.39
681.30	1748.97
681.48	1695.72
681.67	1683.43
681.85	1693.67
682.04	1652.71
682.23	1744.87
682.41	1724.39
682.60	1687.53
682.78	1697.77
682.97	1689.57
683.15	1669.09
683.34	1728.49
683.53	1806.31
683.71	1554.41
683.90	1734.63
684.08	1814.50
684.27	1671.14
684.45	1708.01
684.64	1787.88
684.82	1722.34
685.01	1699.81
685.19	1665.00
685.38	1763.30
685.57	1671.14
685.75	1617.90
685.94	1742.82
686.12	1677.29
686.31	1660.90
686.49	1808.36
686.68	1591.27
686.86	1716.20
687.05	1689.57
687.23	1730.53
687.42	1714.15
687.60	1638.38
687.79	1763.30
687.97	1806.31
688.16	1771.49
688.34	1810.40
688.53	1642.47
688.71	1767.40
688.90	1816.55
689.08	1656.81
689.27	1660.90
689.45	1775.59
689.64	1744.87
689.82	1806.31
690.01	1720.29
690.19	1804.26
690.38	1726.44
690.56	1804.26
690.75	1730.53
690.93	1685.48
691.12	1671.14
691.30	1677.29
691.49	1687.53
691.67	1691.62
691.86	1798.12
692.04	1611.75
692.23	1677.29
692.41	1697.77
692.60	1839.08
692.78	1730.53
692.97	1624.04
693.15	1693.67
693.34	1794.02
693.52	1697.77
693.71	1681.38
693.89	1689.57
694.08	1632.23
694.26	1753.06
694.44	1742.82
694.63	1787.88
694.81	1595.37
695.00	1730.53
695.18	1806.31
695.37	1845.22
695.55	1708.01
695.74	1714.15
695.92	1716.20
696.10	1787.88
696.29	1691.62
696.47	1624.04
696.66	1673.19
696.84	1615.85
697.03	1744.87
697.21	1847.27
697.40	2373.60
697.58	1781.73
697.76	1646.57
697.95	1630.18
698.13	1652.71
698.32	1683.43
698.50	1718.25
698.68	1751.01
698.87	1759.21
699.05	1767.40
699.24	1787.88
699.42	1636.33
699.61	1693.67
699.79	1703.91
699.97	1796.07
700.16	1560.55
700.34	1638.38
700.53	1652.71
700.71	1794.02
700.89	1759.21
701.08	1687.53
701.26	1646.57
701.45	2035.68
701.63	1646.57
701.81	1759.21
702.00	1621.99
702.18	1710.05
702.37	1693.67
702.55	1759.21
702.73	1626.09
702.92	1646.57
703.10	1794.02
703.28	1753.06
703.47	1656.81
703.65	1738.73
703.84	1800.16
704.02	1673.19
704.20	1708.01
704.39	1617.90
704.57	1734.63
704.75	1816.55
704.94	1738.73
705.12	1773.54
705.30	1783.78
705.49	2252.77
705.67	4276.16
705.86	9379.70
706.04	12556.10
706.22	14499.62
706.41	15443.73
706.59	13496.11
706.77	9623.41
706.96	7364.50
707.14	6711.19
707.32	5967.78
707.51	5576.62
707.69	4798.39
707.87	4122.56
708.06	3624.90
708.24	2977.75
708.42	2435.03
708.61	2279.39
708.79	1902.56
708.97	1853.41
709.16	1847.27
709.34	1685.48
709.52	1718.25
709.71	1687.53
709.89	1730.53
710.07	1703.91
710.26	1673.19
710.44	1656.81
710.62	1802.21
710.80	1726.44
710.99	1669.09
711.17	1777.64
711.35	1769.44
711.54	1685.48
711.72	1761.25
711.90	1734.63
712.09	1726.44
712.27	1685.48
712.45	1738.73
712.63	1695.72
712.82	1699.81
713.00	1734.63
713.18	1783.78
713.37	1814.50
713.55	1789.92
713.73	1761.25
713.91	1806.31
714.10	1665.00
714.28	1712.10
714.46	1705.96
714.65	1703.91
714.83	1677.29
715.01	1775.59
715.19	1634.28
715.38	1697.77
715.56	1710.05
715.74	1689.57
715.92	1636.33
716.11	1755.11
716.29	1685.48
716.47	1638.38
716.65	1779.68
716.84	1611.75
717.02	1728.49
717.20	1619.94
717.38	1660.90
717.57	1689.57
717.75	1660.90
717.93	1624.04
718.11	1703.91
718.30	1638.38
718.48	1736.68
718.66	1714.15
718.84	1728.49
719.03	1611.75
719.21	1636.33
719.39	1806.31
719.57	1701.86
719.75	1734.63
719.94	1626.09
720.12	1751.01
720.30	1751.01
720.48	1759.21
720.67	1748.97
720.85	1613.80
721.03	1748.97
721.21	1673.19
721.39	1767.40
721.58	1718.25
721.76	1755.11
721.94	1699.81
722.12	1802.21
722.30	1775.59
722.49	1679.33
722.67	1679.33
722.85	1804.26
723.03	1591.27
723.21	1687.53
723.40	1648.61
723.58	1763.30
723.76	1832.93
723.94	1779.68
724.12	1730.53
724.30	1830.88
724.49	1753.06
724.67	1722.34
724.85	1787.88
725.03	1630.18
725.21	1738.73
725.40	1820.64
725.58	1607.66
725.76	1789.92
725.94	1646.57
726.12	1667.05
726.30	1630.18
726.49	1712.10
726.67	1718.25
726.85	1728.49
727.03	1744.87
727.21	2125.79
727.39	2858.96
727.57	3755.97
727.76	4202.43
727.94	4417.47
728.12	4304.83
728.30	3674.06
728.48	2953.17
728.66	2775.00
728.84	2602.97
729.03	2312.16
729.21	2209.76
729.39	2000.87
729.57	1816.55
729.75	1810.40
729.93	1888.23
730.11	1689.57
730.30	1718.25
730.48	1746.92
730.66	1720.29
730.84	1705.96
731.02	1691.62
731.20	1699.81
731.38	1708.01
731.56	1642.47
731.74	1613.80
731.93	1753.06
732.11	1685.48
732.29	1695.72
732.47	1763.30
732.65	1705.96
732.83	1763.30
733.01	1644.52
733.19	1736.68
733.37	1779.68
733.56	1771.49
733.74	1654.76
733.92	1800.16
734.10	1730.53
734.28	1693.67
734.46	1615.85
734.64	1751.01
734.82	1632.23
735.00	1619.94
735.18	1738.73
735.36	1689.57
735.54	1634.28
735.73	1710.05
735.91	1660.90
736.09	1814.50
736.27	1650.66
736.45	1705.96
736.63	1665.00
736.81	1697.77
736.99	1705.96
737.17	1765.35
737.35	1708.01
737.53	1656.81
737.71	1681.38
737.89	1824.74
738.07	1656.81
738.25	1617.90
738.43	1626.09
738.61	1697.77
738.80	1673.19
738.98	1638.38
739.16	1677.29
739.34	1660.90
739.52	1720.29
739.70	1667.05
739.88	1732.58
740.06	1761.25
740.24	1552.36
740.42	1810.40
740.60	1595.37
740.78	1624.04
740.96	1654.76
741.14	1712.10
741.32	1693.67
741.50	1658.85
741.68	1912.80
741.86	1724.39
742.04	1693.67
742.22	1607.66
742.40	1691.62
742.58	1757.16
742.76	1677.29
742.94	1722.34
743.12	1689.57
743.30	1705.96
743.48	1769.44
743.66	1621.99
743.84	1675.24
744.02	1665.00
744.20	1667.05
744.38	1634.28
744.56	1644.52
744.74	1767.40
744.92	1738.73
745.10	1781.73
745.28	1744.87
745.46	1757.16
745.64	1710.05
745.82	1712.10
746.00	1744.87
746.18	1740.77
746.36	1665.00
746.54	1746.92
746.72	1681.38
746.90	1720.29
747.08	1830.88
747.26	1685.48
747.44	1732.58
747.62	1716.20
747.80	1705.96
747.98	1681.38
748.15	1660.90
748.33	1816.55
748.51	1701.86
748.69	1759.21
748.87	1634.28
749.05	1738.73
749.23	1566.70
749.41	1693.67
749.59	1640.42
749.77	1730.53
749.95	1640.42
750.13	1634.28
750.31	1681.38
750.49	1736.68
750.67	1746.92
750.85	1794.02
751.03	1697.77
751.20	1804.26
751.38	1652.71
751.56	1689.57
751.74	1703.91
751.92	1656.81
752.10	1652.71
752.28	1785.83
752.46	1632.23
752.64	1708.01
752.82	1724.39
753.00	1808.36
753.18	1697.77
753.35	1642.47
753.53	1693.67
753.71	1640.42
753.89	1757.16
754.07	1632.23
754.25	1746.92
754.43	1738.73
754.61	1595.37
754.79	1689.57
754.97	1669.09
755.14	1644.52
755.32	1615.85
755.50	1796.07
755.68	1724.39
755.86	1619.94
756.04	1685.48
756.22	1589.22
756.40	1738.73
756.57	1781.73
756.75	1687.53
756.93	1779.68
757.11	1789.92
757.29	1644.52
757.47	1695.72
757.65	1609.70
757.82	1572.84
758.00	1626.09
758.18	1710.05
758.36	1628.14
758.54	1843.17
758.72	1593.32
758.90	1789.92
759.07	1705.96
759.25	1642.47
759.43	1738.73
759.61	1693.67
759.79	2242.53
759.97	1800.16
760.15	1689.57
760.32	1687.53
760.50	1763.30
760.68	1738.73
760.86	1595.37
761.04	1802.21
761.22	1779.68
761.39	1685.48
761.57	1732.58
761.75	1660.90
761.93	1703.91
762.11	1685.48
762.28	1736.68
762.46	1624.04
762.64	1695.72
762.82	1648.61
763.00	1755.11
763.18	1808.36
763.35	1624.04
763.53	1683.43
763.71	1665.00
763.89	1730.53
764.07	1728.49
764.24	1691.62
764.42	1783.78
764.60	1718.25
764.78	1701.86
764.96	1748.97
765.13	1724.39
765.31	1720.29
765.49	1671.14
765.67	1617.90
765.84	1673.19
766.02	1679.33
766.20	1624.04
766.38	1722.34
766.56	1667.05
766.73	1718.25
766.91	1746.92
767.09	1697.77
767.27	1734.63
767.44	1691.62
767.62	1767.40
767.80	1763.30
767.98	1689.57
768.15	1595.37
768.33	1724.39
768.51	1724.39
768.69	1734.63
768.87	1757.16
769.04	1705.96
769.22	1845.22
769.40	1816.55
769.58	1800.16
769.75	1695.72
769.93	1689.57
770.11	1656.81
770.28	1677.29
770.46	1730.53
770.64	1728.49
770.82	1732.58
770.99	1673.19
771.17	1734.63
771.35	1681.38
771.53	1716.20
771.70	1841.12
771.88	1613.80
772.06	1693.67
772.23	1650.66
772.41	1722.34
772.59	1736.68
772.77	1660.90
772.94	1730.53
773.12	1726.44
773.30	1658.85
773.47	1691.62
773.65	1667.05
773.83	1828.84
774.01	1718.25
774.18	1570.79
774.36	1683.43
774.54	1644.52
774.71	1673.19
774.89	1638.38
775.07	1611.75
775.24	1710.05
775.42	1748.97
775.60	1880.04
775.78	1611.75
775.95	1632.23
776.13	1689.57
776.31	1689.57
776.48	1673.19
776.66	1779.68
776.84	1751.01
777.01	1636.33
777.19	1615.85
777.37	1726.44
777.54	1736.68
777.72	1800.16
777.90	1712.10
778.07	1671.14
778.25	1794.02
778.43	1718.25
778.60	1701.86
778.78	1744.87
778.96	1755.11
779.13	1644.52
779.31	1708.01
779.49	1619.94
779.66	1683.43
779.84	1732.58
780.01	1785.83
780.19	1640.42
780.37	1705.96
780.54	1724.39
780.72	1648.61
780.90	1683.43
781.07	1671.14
781.25	1638.38
781.43	1736.68
781.60	1638.38
781.78	1759.21
781.95	1726.44
782.13	1708.01
782.31	1640.42
782.48	1574.89
782.66	1755.11
782.83	1830.88
783.01	1787.88
783.19	1796.07
783.36	1667.05
783.54	1615.85
783.72	1712.10
783.89	1726.44
784.07	1667.05
784.24	1685.48
784.42	1746.92
784.60	1757.16
784.77	1644.52
784.95	1566.70
785.12	1730.53
785.30	1710.05
785.47	1667.05
785.65	1675.24
785.83	1665.00
786.00	1683.43
786.18	1726.44
786.35	1662.95
786.53	1665.00
786.71	1679.33
786.88	1722.34
787.06	1677.29
787.23	1652.71
787.41	1632.23
787.58	1650.66
787.76	1644.52
787.94	1724.39
788.11	1742.82
788.29	1712.10
788.46	1644.52
788.64	1658.85
788.81	1654.76
788.99	1671.14
789.16	1640.42
789.34	1720.29
789.52	1611.75
789.69	1673.19
789.87	1652.71
790.04	1640.42
790.22	1693.67
790.39	1789.92
790.57	1636.33
790.74	1591.27
790.92	1812.45
791.09	1578.98
791.27	1667.05
791.44	1744.87
791.62	1748.97
791.79	1724.39
791.97	1632.23
792.15	1906.66
792.32	1701.86
792.50	1748.97
792.67	1781.73
792.85	1853.41
793.02	1644.52
793.20	1683.43
793.37	1595.37
793.55	1693.67
793.72	1636.33
793.90	1718.25
794.07	1708.01
794.25	1671.14
794.42	1708.01
794.60	1642.47
794.77	1728.49
794.95	1683.43
795.12	1714.15
795.30	1628.14
795.47	1673.19
795.65	1877.99
795.82	1751.01
796.00	1624.04
796.17	1626.09
796.34	1644.52
796.52	1699.81
796.69	1746.92
796.87	1798.12
797.04	1808.36
797.22	1638.38
797.39	1681.38
797.57	1753.06
797.74	1648.61
797.92	1724.39
798.09	1613.80
798.27	1748.97
798.44	1679.33
798.62	1638.38
798.79	1677.29
798.96	1712.10
799.14	1669.09
799.31	1779.68
799.49	1613.80
799.66	1640.42
799.84	1689.57
800.01	1581.03
800.19	1646.57
800.36	1638.38
800.53	1746.92
800.71	1648.61
800.88	1783.78
801.06	1656.81
801.23	1697.77
801.41	1689.57
801.58	1642.47
801.75	1656.81
801.93	1767.40
802.10	1742.82
802.28	1759.21
802.45	1689.57
802.63	1812.45
802.80	1785.83
802.97	1710.05
803.15	1753.06
803.32	1642.47
803.50	1732.58
803.67	1675.24
803.84	1662.95
804.02	1656.81
804.19	1621.99
804.37	1611.75
804.54	1667.05
804.71	1652.71
804.89	1777.64
805.06	1681.38
805.24	1638.38
805.41	1636.33
805.58	1636.33
805.76	1863.65
805.93	1683.43
806.10	1767.40
806.28	1787.88
806.45	1714.15
806.63	1675.24
806.80	1656.81
806.97	1728.49
807.15	1726.44
807.32	1773.54
807.49	1691.62
807.67	1624.04
807.84	1740.77
808.01	1636.33
808.19	1787.88
808.36	1828.84
808.54	1624.04
808.71	1728.49
808.88	1677.29
809.06	1705.96
809.23	1808.36
809.40	1628.14
809.58	1726.44
809.75	1685.48
809.92	1603.56
810.10	1859.56
810.27	1632.23
810.44	1710.05
810.62	1755.11
810.79	1730.53
810.96	1656.81
811.14	1642.47
811.31	1722.34
811.48	1736.68
811.66	1667.05
811.83	1740.77
812.00	1734.63
812.18	1734.63
812.35	1812.45
812.52	1734.63
812.69	1671.14
812.87	1695.72
813.04	1761.25
813.21	1689.57
813.39	1705.96
813.56	1632.23
813.73	1708.01
813.91	1566.70
814.08	1681.38
814.25	1669.09
814.42	1665.00
814.60	1671.14
814.77	1755.11
814.94	1732.58
815.12	1697.77
815.29	1751.01
815.46	1689.57
815.63	1744.87
815.81	1644.52
815.98	1732.58
816.15	1679.33
816.33	1701.86
816.50	1636.33
816.67	1673.19
816.84	1642.47
817.02	1619.94
817.19	1669.09
817.36	1667.05
817.53	1724.39
817.71	1712.10
817.88	1660.90
818.05	1595.37
818.22	1705.96
818.40	1824.74
818.57	1714.15
818.74	1773.54
818.91	1703.91
819.09	1751.01
819.26	1683.43
819.43	1693.67
819.60	1607.66
819.78	1681.38
819.95	1755.11
820.12	1595.37
820.29	1759.21
820.47	1789.92
820.64	1658.85
820.81	1583.08
820.98	1665.00
821.15	1669.09
821.33	1779.68
821.50	1615.85
821.67	1697.77
821.84	1632.23
822.02	1650.66
822.19	1716.20
822.36	1656.81
822.53	1714.15
822.70	1591.27
822.88	1683.43
823.05	1734.63
823.22	1712.10
823.39	1800.16
823.56	1667.05
823.74	1806.31
823.91	1642.47
824.08	1574.89
824.25	1693.67
824.42	1744.87
824.60	1632.23
824.77	1775.59
824.94	1718.25
825.11	1667.05
825.28	1570.79
825.45	1714.15
825.63	1738.73
825.80	1609.70
825.97	1736.68
826.14	1722.34
826.31	1615.85
826.48	1746.92
826.66	1660.90
826.83	1642.47
827.00	1660.90
827.17	1636.33
827.34	1632.23
827.51	1660.90
827.69	1654.76
827.86	1619.94
828.03	1662.95
828.20	1632.23
828.37	1597.42
828.54	1677.29
828.71	1701.86
828.89	1708.01
829.06	1681.38
829.23	1787.88
829.40	1599.46
829.57	1722.34
829.74	1734.63
829.91	1658.85
830.09	1662.95
830.26	1724.39
830.43	1718.25
830.60	1695.72
830.77	1767.40
830.94	1796.07
831.11	1798.12
831.28	1677.29
831.46	1791.97
831.63	1652.71
831.80	1673.19
831.97	1683.43
832.14	1751.01
832.31	1708.01
832.48	1660.90
832.65	1691.62
832.82	1662.95
832.99	1796.07
833.17	1621.99
833.34	1718.25
833.51	1742.82
833.68	1636.33
833.85	1755.11
834.02	1576.94
834.19	1679.33
834.36	1665.00
834.53	1697.77
834.70	1658.85
834.87	1746.92
835.04	1652.71
835.22	1550.31
835.39	1628.14
835.56	1656.81
835.73	1656.81
835.90	1703.91
836.07	1634.28
836.24	1834.98
836.41	1642.47
836.58	1613.80
836.75	1718.25
836.92	1751.01
837.09	1689.57
837.26	1783.78
837.43	1730.53
837.60	1687.53
837.77	1597.42
837.94	1705.96
838.12	1798.12
838.29	1759.21
838.46	1693.67
838.63	1615.85
838.80	1765.35
838.97	1617.90
839.14	1718.25
839.31	1708.01
839.48	1777.64
839.65	1656.81
839.82	1726.44
839.99	1791.97
840.16	1714.15
840.33	1755.11
840.50	1681.38
840.67	1660.90
840.84	1509.35
841.01	1701.86
841.18	1693.67
841.35	1714.15
841.52	1738.73
841.69	1746.92
841.86	1638.38
842.03	1632.23
842.20	1769.44
842.37	1697.77
842.54	1703.91
842.71	1693.67
842.88	1601.51
843.05	1753.06
843.22	1675.24
843.39	1671.14
843.56	1634.28
843.73	1693.67
843.90	1695.72
844.07	1718.25
844.24	1781.73
844.41	1722.34
844.58	1685.48
844.75	1650.66
844.92	1699.81
845.09	1679.33
845.26	1755.11
845.43	1736.68
845.60	1701.86
845.77	1742.82
845.94	1671.14
846.10	1710.05
846.27	1601.51
846.44	1648.61
846.61	1615.85
846.78	1734.63
846.95	1697.77
847.12	1677.29
847.29	1757.16
847.46	1669.09
847.63	1751.01
847.80	1656.81
847.97	1609.70
848.14	1738.73
848.31	1656.81
848.48	1548.26
848.65	1710.05
848.82	1681.38
848.98	1818.60
849.15	1685.48
849.32	1738.73
849.49	1736.68
849.66	1705.96
849.83	1652.71
850.00	1673.19
850.17	1648.61
850.34	1691.62
850.51	1691.62
850.68	1689.57
850.85	1880.04
851.01	1767.40
851.18	1689.57
851.35	1640.42
851.52	1740.77
851.69	1796.07
851.86	1605.61
852.03	1722.34
852.20	1808.36
852.37	1652.71
852.53	1585.13
852.70	1675.24
852.87	1665.00
853.04	1726.44
853.21	1736.68
853.38	1757.16
853.55	1726.44
853.72	1800.16
853.89	1755.11
854.05	1603.56
854.22	1705.96
854.39	1701.86
854.56	1738.73
854.73	1744.87
854.90	1660.90
855.07	1675.24
855.23	1734.63
855.40	1656.81
855.57	1572.84
855.74	1591.27
855.91	1873.89
856.08	1595.37
856.25	1681.38
856.41	1628.14
856.58	1816.55
856.75	1724.39
856.92	1581.03
857.09	1779.68
857.26	1685.48
857.42	1683.43
857.59	1765.35
857.76	1722.34
857.93	1714.15
858.10	1685.48
858.27	1654.76
858.43	1728.49
858.60	1716.20
858.77	1585.13
858.94	1746.92
859.11	1679.33
859.27	1634.28
859.44	1656.81
859.61	1757.16
859.78	1714.15
859.95	1638.38
860.12	1662.95
860.28	1761.25
860.45	1839.08
860.62	1611.75
860.79	1683.43
860.95	1703.91
861.12	1658.85
861.29	1656.81
861.46	1626.09
861.63	1689.57
861.79	1710.05
861.96	1554.41
862.13	1724.39
862.30	1810.40
862.47	1726.44
862.63	1705.96
862.80	1753.06
862.97	1812.45
863.14	1705.96
863.30	1724.39
863.47	1679.33
863.64	1751.01
863.81	1710.05
863.97	1701.86
864.14	1708.01
864.31	1689.57
864.48	1712.10
864.65	1669.09
864.81	1716.20
864.98	1755.11
865.15	1685.48
865.32	1703.91
865.48	1736.68
865.65	1804.26
865.82	1650.66
865.98	1691.62
866.15	1779.68
866.32	1744.87
866.49	1656.81
866.65	1730.53
866.82	1603.56
866.99	1667.05
867.16	1636.33
867.32	1636.33
867.49	1730.53
867.66	1634.28
867.83	1699.81
867.99	1611.75
868.16	1658.85
868.33	1695.72
868.49	1746.92
868.66	1570.79
868.83	1767.40
868.99	1748.97
869.16	1748.97
869.33	1759.21
869.50	1763.30
869.66	1654.76
869.83	1720.29
870.00	1685.48
870.16	1691.62
870.33	1665.00
870.50	1714.15
870.66	1710.05
870.83	1783.78
871.00	1697.77
871.17	1716.20
871.33	1724.39
871.50	1621.99
871.67	1609.70
871.83	1585.13
872.00	1851.36
872.17	1699.81
872.33	1744.87
872.50	1744.87
872.67	1665.00
872.83	1667.05
873.00	1708.01
873.17	1689.57
873.33	1775.59
873.50	1710.05
873.67	1689.57
873.83	1642.47
874.00	1703.91
874.16	1708.01
874.33	1652.71
874.50	1667.05
874.66	1759.21
874.83	1697.77
875.00	1746.92
875.16	1828.84
875.33	1755.11
875.50	1675.24
875.66	1697.77
875.83	1667.05
875.99	1695.72
876.16	1746.92
876.33	1667.05
876.49	1611.75
876.66	1708.01
876.83	1712.10
876.99	1644.52
877.16	1724.39
877.32	1642.47
877.49	1656.81
877.66	1734.63
877.82	1863.65
877.99	1742.82
878.15	1755.11
878.32	1732.58
878.49	1740.77
878.65	1599.46
878.82	1710.05
878.98	1746.92
879.15	1748.97
879.32	1724.39
879.48	1730.53
879.65	1691.62
879.81	1658.85
879.98	1679.33
880.15	1632.23
880.31	1654.76
880.48	1642.47
880.64	1779.68
880.81	1726.44
880.97	1851.36
881.14	1779.68
881.31	1701.86
881.47	1726.44
881.64	1703.91
881.80	1658.85
881.97	1765.35
882.13	1689.57
882.30	1660.90
882.47	1714.15
882.63	1738.73
882.80	1669.09
882.96	1642.47
883.13	1781.73
883.29	1595.37
883.46	1607.66
883.62	1789.92
883.79	1632.23
883.95	1734.63
884.12	1658.85
884.29	1744.87
884.45	1812.45
884.62	1662.95
884.78	1607.66
884.95	1789.92
885.11	1650.66
885.28	1734.63
885.44	1677.29
885.61	1779.68
885.77	1751.01
885.94	1703.91
886.10	1624.04
886.27	1722.34
886.43	1740.77
886.60	1771.49
886.76	1675.24
886.93	1660.90
887.09	1673.19
887.26	1562.60
887.42	1685.48
887.59	1701.86
887.75	1912.80
887.92	1773.54
888.08	1828.84
888.25	1744.87
888.41	1798.12
888.58	1759.21
888.74	1626.09
888.91	1591.27
>>>>>End Processed Spectral Data<<<<<
