SpectraSuite Data File
++++++++++++++++++++++++++++++++++++
Date: Mon Jun 06 16:27:17 CEST 2016
User: root
Dark Spectrum Present: No
Reference Spectrum Present: No
Number of Sampled Component Spectra: 1
Spectrometers: USB4C02835
Integration Time (usec): 100000 (USB4C02835)
Spectra Averaged: 1 (USB4C02835)
Boxcar Smoothing: 0 (USB4C02835)
Correct for Electrical Dark: No (USB4C02835)
Strobe/Lamp Enabled: No (USB4C02835)
Correct for Detector Non-linearity: No (USB4C02835)
Correct for Stray Light: No (USB4C02835)
Number of Pixels in Processed Spectrum: 3648
>>>>>Begin Processed Spectral Data<<<<<
177.47	1515.50
177.69	1515.50
177.91	1515.50
178.13	1499.11
178.36	1497.07
178.58	1628.14
178.80	1710.05
179.02	1609.70
179.24	1714.15
179.46	1734.63
179.68	1777.64
179.90	1726.44
180.13	1716.20
180.35	1685.48
180.57	1677.29
180.79	1798.12
181.01	1771.49
181.23	1765.35
181.45	1822.69
181.67	1724.39
181.90	1714.15
182.12	1646.57
182.34	1662.95
182.56	1798.12
182.78	1746.92
183.00	1665.00
183.22	1679.33
183.44	1576.94
183.66	1886.18
183.89	1714.15
184.11	1732.58
184.33	1679.33
184.55	1730.53
184.77	1736.68
184.99	1779.68
185.21	1681.38
185.43	1871.84
185.65	1665.00
185.87	1695.72
186.10	1832.93
186.32	1779.68
186.54	1734.63
186.76	1714.15
186.98	1759.21
187.20	1662.95
187.42	1720.29
187.64	1675.24
187.86	1740.77
188.08	1718.25
188.30	1640.42
188.52	1675.24
188.75	1757.16
188.97	1781.73
189.19	1757.16
189.41	1714.15
189.63	1753.06
189.85	1716.20
190.07	1626.09
190.29	1607.66
190.51	1816.55
190.73	1648.61
190.95	1720.29
191.17	1726.44
191.39	1677.29
191.61	1691.62
191.84	1708.01
192.06	1742.82
192.28	1617.90
192.50	1888.23
192.72	1697.77
192.94	1705.96
193.16	1761.25
193.38	1769.44
193.60	1544.17
193.82	1757.16
194.04	1732.58
194.26	1701.86
194.48	1773.54
194.70	1673.19
194.92	1691.62
195.14	1738.73
195.36	1673.19
195.58	1650.66
195.80	1728.49
196.02	1699.81
196.24	1667.05
196.46	1689.57
196.69	1646.57
196.91	1869.80
197.13	1660.90
197.35	1656.81
197.57	1791.97
197.79	1722.34
198.01	1669.09
198.23	1746.92
198.45	1748.97
198.67	1581.03
198.89	1665.00
199.11	1789.92
199.33	1705.96
199.55	1558.50
199.77	1652.71
199.99	1865.70
200.21	1714.15
200.43	1767.40
200.65	1679.33
200.87	1636.33
201.09	1656.81
201.31	1726.44
201.53	1751.01
201.75	1693.67
201.97	1722.34
202.19	1742.82
202.41	1728.49
202.63	1771.49
202.85	1714.15
203.07	1779.68
203.29	1742.82
203.51	1615.85
203.73	1648.61
203.95	1824.74
204.17	1804.26
204.39	1748.97
204.61	1718.25
204.83	1679.33
205.05	1726.44
205.27	1796.07
205.49	1877.99
205.71	1665.00
205.93	1632.23
206.15	1673.19
206.37	1613.80
206.59	1675.24
206.81	1673.19
207.03	1632.23
207.25	1646.57
207.47	1818.60
207.69	1759.21
207.91	1740.77
208.13	1718.25
208.34	1722.34
208.56	1615.85
208.78	1759.21
209.00	1710.05
209.22	1714.15
209.44	1683.43
209.66	1712.10
209.88	1724.39
210.10	1761.25
210.32	1757.16
210.54	1689.57
210.76	1708.01
210.98	1802.21
211.20	1626.09
211.42	1804.26
211.64	1685.48
211.86	1718.25
212.08	1746.92
212.30	1728.49
212.52	1621.99
212.74	1802.21
212.96	1783.78
213.17	1755.11
213.39	1763.30
213.61	1746.92
213.83	1660.90
214.05	1595.37
214.27	1742.82
214.49	1615.85
214.71	1720.29
214.93	1724.39
215.15	1714.15
215.37	1759.21
215.59	1648.61
215.81	1712.10
216.03	1779.68
216.24	1732.58
216.46	1748.97
216.68	1724.39
216.90	1845.22
217.12	1755.11
217.34	1716.20
217.56	1757.16
217.78	1808.36
218.00	1669.09
218.22	1789.92
218.44	1763.30
218.66	1742.82
218.87	1847.27
219.09	1669.09
219.31	1714.15
219.53	1730.53
219.75	1718.25
219.97	1796.07
220.19	1658.85
220.41	1765.35
220.63	1757.16
220.85	1691.62
221.06	1783.78
221.28	1697.77
221.50	1742.82
221.72	1681.38
221.94	1800.16
222.16	1718.25
222.38	1796.07
222.60	1734.63
222.82	1685.48
223.03	1720.29
223.25	1679.33
223.47	1791.97
223.69	1851.36
223.91	1794.02
224.13	1738.73
224.35	1701.86
224.57	1761.25
224.78	1722.34
225.00	1648.61
225.22	1718.25
225.44	1689.57
225.66	1771.49
225.88	1660.90
226.10	1779.68
226.32	1724.39
226.53	1863.65
226.75	1775.59
226.97	1751.01
227.19	1683.43
227.41	1724.39
227.63	1599.46
227.85	1679.33
228.06	1673.19
228.28	1650.66
228.50	1783.78
228.72	1728.49
228.94	1691.62
229.16	1611.75
229.37	1675.24
229.59	1689.57
229.81	1818.60
230.03	1648.61
230.25	1601.51
230.47	1605.61
230.69	1656.81
230.90	1767.40
231.12	1654.76
231.34	1712.10
231.56	1757.16
231.78	1705.96
232.00	1742.82
232.21	1728.49
232.43	1734.63
232.65	1587.18
232.87	1785.83
233.09	1628.14
233.30	1703.91
233.52	1783.78
233.74	1763.30
233.96	1695.72
234.18	1738.73
234.40	1628.14
234.61	1820.64
234.83	1591.27
235.05	1658.85
235.27	1839.08
235.49	1802.21
235.70	1728.49
235.92	1779.68
236.14	1761.25
236.36	1847.27
236.58	1626.09
236.79	1744.87
237.01	1763.30
237.23	1693.67
237.45	1839.08
237.67	1662.95
237.88	1761.25
238.10	1794.02
238.32	1576.94
238.54	1714.15
238.76	1701.86
238.97	1685.48
239.19	1710.05
239.41	1847.27
239.63	1769.44
239.85	1662.95
240.06	1669.09
240.28	1656.81
240.50	1691.62
240.72	1699.81
240.93	1673.19
241.15	1785.83
241.37	1738.73
241.59	1855.46
241.81	1656.81
242.02	1701.86
242.24	1755.11
242.46	1671.14
242.68	1693.67
242.89	1724.39
243.11	1824.74
243.33	1720.29
243.55	1701.86
243.76	1740.77
243.98	1640.42
244.20	1728.49
244.42	1689.57
244.64	1744.87
244.85	1677.29
245.07	1665.00
245.29	1734.63
245.51	1718.25
245.72	1708.01
245.94	1798.12
246.16	1730.53
246.38	1763.30
246.59	1708.01
246.81	1654.76
247.03	1669.09
247.24	1617.90
247.46	1726.44
247.68	1746.92
247.90	1722.34
248.11	1748.97
248.33	1802.21
248.55	1708.01
248.77	1734.63
248.98	1720.29
249.20	1718.25
249.42	1675.24
249.64	1775.59
249.85	1689.57
250.07	1701.86
250.29	1789.92
250.50	1791.97
250.72	1550.31
250.94	1689.57
251.16	1789.92
251.37	1777.64
251.59	1703.91
251.81	1763.30
252.02	1804.26
252.24	1662.95
252.46	1796.07
252.68	1701.86
252.89	1697.77
253.11	1669.09
253.33	1826.79
253.54	1882.08
253.76	1593.32
253.98	1654.76
254.20	1601.51
254.41	1617.90
254.63	1697.77
254.85	1648.61
255.06	1751.01
255.28	1763.30
255.50	1775.59
255.71	1687.53
255.93	1626.09
256.15	1769.44
256.36	1677.29
256.58	1714.15
256.80	1775.59
257.02	1628.14
257.23	1658.85
257.45	1710.05
257.67	1742.82
257.88	1619.94
258.10	1736.68
258.32	1785.83
258.53	1708.01
258.75	1800.16
258.97	1650.66
259.18	1755.11
259.40	1763.30
259.62	1822.69
259.83	1779.68
260.05	1777.64
260.27	1929.19
260.48	1730.53
260.70	1677.29
260.92	1691.62
261.13	1718.25
261.35	1718.25
261.57	1732.58
261.78	1658.85
262.00	1658.85
262.22	1744.87
262.43	1675.24
262.65	1730.53
262.86	1705.96
263.08	1832.93
263.30	1726.44
263.51	1576.94
263.73	1673.19
263.95	1800.16
264.16	1691.62
264.38	1638.38
264.60	1703.91
264.81	1693.67
265.03	1738.73
265.25	1755.11
265.46	1728.49
265.68	1753.06
265.89	1765.35
266.11	1595.37
266.33	1712.10
266.54	1771.49
266.76	1732.58
266.98	1687.53
267.19	1763.30
267.41	1720.29
267.62	1673.19
267.84	1611.75
268.06	1767.40
268.27	1779.68
268.49	1771.49
268.70	1726.44
268.92	1708.01
269.14	1673.19
269.35	1667.05
269.57	1693.67
269.79	1746.92
270.00	1714.15
270.22	1779.68
270.43	1714.15
270.65	1538.02
270.87	1724.39
271.08	1796.07
271.30	1771.49
271.51	1732.58
271.73	1669.09
271.95	1738.73
272.16	1699.81
272.38	1714.15
272.59	1673.19
272.81	1794.02
273.02	1703.91
273.24	1689.57
273.46	1742.82
273.67	1673.19
273.89	1656.81
274.10	1624.04
274.32	1802.21
274.54	1703.91
274.75	1740.77
274.97	1669.09
275.18	1738.73
275.40	1742.82
275.61	1726.44
275.83	1701.86
276.05	1722.34
276.26	1681.38
276.48	1773.54
276.69	1697.77
276.91	1722.34
277.12	1712.10
277.34	1738.73
277.55	1748.97
277.77	1728.49
277.99	1812.45
278.20	1638.38
278.42	1636.33
278.63	1658.85
278.85	1640.42
279.06	1665.00
279.28	1730.53
279.49	1714.15
279.71	1724.39
279.93	1716.20
280.14	1738.73
280.36	1679.33
280.57	1755.11
280.79	1810.40
281.00	1652.71
281.22	1652.71
281.43	1824.74
281.65	1535.98
281.86	1615.85
282.08	1689.57
282.29	1738.73
282.51	1595.37
282.73	1619.94
282.94	1744.87
283.16	1740.77
283.37	1837.03
283.59	1740.77
283.80	1748.97
284.02	1761.25
284.23	1753.06
284.45	1669.09
284.66	1665.00
284.88	1759.21
285.09	1705.96
285.31	1726.44
285.52	1716.20
285.74	1630.18
285.95	1794.02
286.17	1730.53
286.38	1810.40
286.60	1759.21
286.81	1685.48
287.03	1736.68
287.24	1757.16
287.46	1724.39
287.67	1736.68
287.89	1816.55
288.10	1724.39
288.32	1765.35
288.53	1859.56
288.75	1689.57
288.96	1730.53
289.18	1660.90
289.39	1683.43
289.61	1816.55
289.82	1820.64
290.04	1810.40
290.25	1642.47
290.47	1775.59
290.68	1697.77
290.90	1808.36
291.11	1675.24
291.33	1730.53
291.54	1621.99
291.76	1714.15
291.97	1771.49
292.18	1808.36
292.40	1722.34
292.61	1710.05
292.83	1791.97
293.04	1722.34
293.26	1732.58
293.47	1677.29
293.69	1665.00
293.90	1673.19
294.12	1722.34
294.33	1691.62
294.55	1738.73
294.76	1734.63
294.97	1783.78
295.19	1869.80
295.40	1675.24
295.62	1714.15
295.83	1796.07
296.05	1697.77
296.26	1759.21
296.48	1703.91
296.69	1736.68
296.90	1708.01
297.12	1710.05
297.33	1761.25
297.55	1695.72
297.76	1712.10
297.98	1812.45
298.19	1646.57
298.41	1691.62
298.62	1615.85
298.83	1775.59
299.05	1722.34
299.26	1667.05
299.48	1673.19
299.69	1714.15
299.90	1683.43
300.12	1714.15
300.33	1779.68
300.55	1708.01
300.76	1761.25
300.98	1621.99
301.19	1796.07
301.40	1681.38
301.62	1683.43
301.83	1767.40
302.05	1691.62
302.26	1777.64
302.47	1708.01
302.69	1689.57
302.90	1755.11
303.12	1630.18
303.33	1757.16
303.54	1832.93
303.76	1730.53
303.97	1648.61
304.19	1822.69
304.40	1705.96
304.61	1816.55
304.83	1746.92
305.04	1781.73
305.26	1742.82
305.47	1689.57
305.68	1742.82
305.90	1724.39
306.11	1761.25
306.33	1714.15
306.54	1675.24
306.75	1640.42
306.97	1669.09
307.18	1613.80
307.39	1716.20
307.61	1767.40
307.82	1687.53
308.04	1724.39
308.25	1708.01
308.46	1693.67
308.68	1636.33
308.89	1765.35
309.10	1777.64
309.32	1677.29
309.53	1681.38
309.74	1701.86
309.96	1726.44
310.17	1673.19
310.39	1615.85
310.60	1746.92
310.81	1693.67
311.03	1615.85
311.24	1722.34
311.45	1755.11
311.67	1753.06
311.88	1738.73
312.09	1669.09
312.31	1683.43
312.52	1730.53
312.73	1650.66
312.95	1624.04
313.16	1716.20
313.37	1853.41
313.59	1730.53
313.80	1781.73
314.01	1812.45
314.23	1669.09
314.44	1689.57
314.65	1695.72
314.87	1740.77
315.08	1658.85
315.29	1728.49
315.51	1673.19
315.72	1640.42
315.93	1912.80
316.15	1767.40
316.36	1724.39
316.57	1740.77
316.79	1759.21
317.00	1712.10
317.21	1765.35
317.43	1691.62
317.64	1722.34
317.85	1673.19
318.07	1744.87
318.28	1734.63
318.49	1855.46
318.70	1884.13
318.92	1837.03
319.13	1806.31
319.34	1890.28
319.56	1820.64
319.77	1773.54
319.98	1822.69
320.20	1746.92
320.41	1785.83
320.62	1773.54
320.83	1585.13
321.05	1869.80
321.26	1714.15
321.47	1705.96
321.69	1837.03
321.90	1673.19
322.11	1673.19
322.32	1656.81
322.54	1744.87
322.75	1703.91
322.96	1800.16
323.18	1652.71
323.39	1665.00
323.60	1642.47
323.81	1728.49
324.03	1703.91
324.24	1734.63
324.45	1687.53
324.66	1689.57
324.88	1734.63
325.09	1845.22
325.30	1736.68
325.52	1695.72
325.73	1771.49
325.94	1619.94
326.15	1648.61
326.37	1685.48
326.58	1816.55
326.79	1783.78
327.00	1621.99
327.22	1685.48
327.43	1695.72
327.64	1595.37
327.85	1738.73
328.07	1757.16
328.28	1802.21
328.49	1640.42
328.70	1705.96
328.92	1640.42
329.13	1710.05
329.34	1708.01
329.55	1746.92
329.76	1773.54
329.98	1716.20
330.19	1781.73
330.40	1796.07
330.61	1650.66
330.83	1781.73
331.04	1574.89
331.25	1724.39
331.46	1679.33
331.68	1638.38
331.89	1755.11
332.10	1693.67
332.31	1693.67
332.52	1658.85
332.74	1775.59
332.95	1593.32
333.16	1683.43
333.37	1751.01
333.58	1667.05
333.80	1740.77
334.01	1566.70
334.22	1654.76
334.43	1685.48
334.64	1628.14
334.86	1626.09
335.07	1683.43
335.28	1830.88
335.49	1691.62
335.70	1779.68
335.92	1791.97
336.13	1794.02
336.34	1718.25
336.55	1710.05
336.76	1708.01
336.98	1656.81
337.19	1751.01
337.40	1753.06
337.61	1814.50
337.82	1734.63
338.04	1761.25
338.25	1648.61
338.46	1716.20
338.67	1724.39
338.88	1628.14
339.09	1585.13
339.31	1669.09
339.52	1677.29
339.73	1634.28
339.94	1724.39
340.15	1806.31
340.36	1689.57
340.58	1775.59
340.79	1710.05
341.00	1710.05
341.21	1697.77
341.42	1763.30
341.63	1673.19
341.85	1710.05
342.06	1789.92
342.27	1685.48
342.48	1789.92
342.69	1697.77
342.90	1753.06
343.12	1730.53
343.33	1634.28
343.54	1798.12
343.75	1806.31
343.96	1689.57
344.17	1691.62
344.38	1632.23
344.60	1718.25
344.81	1585.13
345.02	1734.63
345.23	1669.09
345.44	1798.12
345.65	1755.11
345.86	1765.35
346.07	1722.34
346.29	1685.48
346.50	1798.12
346.71	1763.30
346.92	1687.53
347.13	1798.12
347.34	1714.15
347.55	1683.43
347.76	1722.34
347.98	1615.85
348.19	1667.05
348.40	1802.21
348.61	1648.61
348.82	1718.25
349.03	1669.09
349.24	1720.29
349.45	1808.36
349.66	1638.38
349.88	1716.20
350.09	1644.52
350.30	1761.25
350.51	1736.68
350.72	1724.39
350.93	1726.44
351.14	1689.57
351.35	1705.96
351.56	1634.28
351.77	1730.53
351.99	1732.58
352.20	1816.55
352.41	1765.35
352.62	1665.00
352.83	1681.38
353.04	1699.81
353.25	1648.61
353.46	1824.74
353.67	1769.44
353.88	1662.95
354.09	1822.69
354.30	1722.34
354.52	1761.25
354.73	1671.14
354.94	1648.61
355.15	1679.33
355.36	1849.32
355.57	1683.43
355.78	1695.72
355.99	1765.35
356.20	1695.72
356.41	1695.72
356.62	1744.87
356.83	1675.24
357.04	1785.83
357.25	1689.57
357.46	1720.29
357.68	1634.28
357.89	1603.56
358.10	1724.39
358.31	1746.92
358.52	1689.57
358.73	1644.52
358.94	1665.00
359.15	1656.81
359.36	1804.26
359.57	1746.92
359.78	1689.57
359.99	1787.88
360.20	1728.49
360.41	1689.57
360.62	1759.21
360.83	1755.11
361.04	1757.16
361.25	1673.19
361.46	1857.51
361.67	1736.68
361.88	1757.16
362.09	1779.68
362.30	1675.24
362.51	1708.01
362.72	1691.62
362.93	1744.87
363.14	1746.92
363.35	1744.87
363.56	1656.81
363.78	1734.63
363.99	1742.82
364.20	1767.40
364.41	1652.71
364.62	1820.64
364.83	1736.68
365.04	1667.05
365.25	1740.77
365.46	1763.30
365.67	1728.49
365.88	1652.71
366.09	1701.86
366.30	1669.09
366.51	1679.33
366.72	1683.43
366.93	1695.72
367.14	1734.63
367.35	1828.84
367.56	1736.68
367.77	1783.78
367.98	1710.05
368.18	1710.05
368.39	1800.16
368.60	1701.86
368.81	1734.63
369.02	1728.49
369.23	1730.53
369.44	1611.75
369.65	1669.09
369.86	1718.25
370.07	1701.86
370.28	1705.96
370.49	1775.59
370.70	1765.35
370.91	1669.09
371.12	1636.33
371.33	1767.40
371.54	1710.05
371.75	1820.64
371.96	1613.80
372.17	1705.96
372.38	1687.53
372.59	1748.97
372.80	1675.24
373.01	1736.68
373.22	1691.62
373.43	1689.57
373.64	1660.90
373.85	1824.74
374.06	1845.22
374.26	1734.63
374.47	1722.34
374.68	1806.31
374.89	1656.81
375.10	1716.20
375.31	1791.97
375.52	1716.20
375.73	1697.77
375.94	1669.09
376.15	1861.60
376.36	1730.53
376.57	1640.42
376.78	1693.67
376.99	1660.90
377.20	1812.45
377.40	1675.24
377.61	1841.12
377.82	1677.29
378.03	1826.79
378.24	1746.92
378.45	1675.24
378.66	1740.77
378.87	1650.66
379.08	1665.00
379.29	1634.28
379.50	1761.25
379.71	1710.05
379.91	1732.58
380.12	1652.71
380.33	1761.25
380.54	1730.53
380.75	1705.96
380.96	1712.10
381.17	1783.78
381.38	1679.33
381.59	1773.54
381.80	1740.77
382.00	1851.36
382.21	1718.25
382.42	1867.75
382.63	1886.18
382.84	1736.68
383.05	1777.64
383.26	1796.07
383.47	1693.67
383.68	1744.87
383.88	1785.83
384.09	1697.77
384.30	1794.02
384.51	1771.49
384.72	1665.00
384.93	1617.90
385.14	1753.06
385.35	1757.16
385.55	1615.85
385.76	1800.16
385.97	1656.81
386.18	1669.09
386.39	1669.09
386.60	1753.06
386.81	1705.96
387.02	1636.33
387.22	1708.01
387.43	1783.78
387.64	1777.64
387.85	1816.55
388.06	2174.94
388.27	4181.95
388.48	6715.29
388.68	8226.69
388.89	9631.60
389.10	9908.07
389.31	8515.45
389.52	7464.85
389.73	6764.44
389.93	6182.82
390.14	5744.55
390.35	5117.87
390.56	4554.68
390.77	3815.37
390.98	3035.09
391.18	2519.00
391.39	2160.61
391.60	1884.13
391.81	1861.60
392.02	1742.82
392.23	1892.32
392.43	1767.40
392.64	1800.16
392.85	1701.86
393.06	1816.55
393.27	1646.57
393.47	1722.34
393.68	1800.16
393.89	1732.58
394.10	1773.54
394.31	1671.14
394.52	1634.28
394.72	1753.06
394.93	1791.97
395.14	1619.94
395.35	1720.29
395.56	1662.95
395.76	1705.96
395.97	1736.68
396.18	1898.47
396.39	1847.27
396.60	2084.83
396.80	1861.60
397.01	1877.99
397.22	1759.21
397.43	1918.95
397.64	1761.25
397.84	1837.03
398.05	1912.80
398.26	1757.16
398.47	1785.83
398.67	1742.82
398.88	1744.87
399.09	1746.92
399.30	1716.20
399.51	1746.92
399.71	1681.38
399.92	1742.82
400.13	1791.97
400.34	1681.38
400.54	1746.92
400.75	1724.39
400.96	1826.79
401.17	1847.27
401.37	1751.01
401.58	1746.92
401.79	1738.73
402.00	1896.42
402.21	2054.11
402.41	1959.91
402.62	2023.39
402.83	2033.63
403.04	1949.67
403.24	2105.31
403.45	1837.03
403.66	1871.84
403.87	1855.46
404.07	1894.37
404.28	1873.89
404.49	1863.65
404.70	1787.88
404.90	1814.50
405.11	1746.92
405.32	1726.44
405.52	1675.24
405.73	1759.21
405.94	1767.40
406.15	1722.34
406.35	1742.82
406.56	1710.05
406.77	1753.06
406.98	1755.11
407.18	1646.57
407.39	1806.31
407.60	1718.25
407.80	1751.01
408.01	1730.53
408.22	1697.77
408.43	1671.14
408.63	1787.88
408.84	1851.36
409.05	1726.44
409.25	1697.77
409.46	1681.38
409.67	1671.14
409.88	1658.85
410.08	1722.34
410.29	1740.77
410.50	1771.49
410.70	1753.06
410.91	1703.91
411.12	1710.05
411.32	1800.16
411.53	1683.43
411.74	1880.04
411.95	1761.25
412.15	1775.59
412.36	1763.30
412.57	1716.20
412.77	1806.31
412.98	1787.88
413.19	1730.53
413.39	1742.82
413.60	1703.91
413.81	1816.55
414.01	1648.61
414.22	1775.59
414.43	1804.26
414.63	1701.86
414.84	1730.53
415.05	1689.57
415.25	1662.95
415.46	1744.87
415.67	1742.82
415.87	1738.73
416.08	1714.15
416.29	1744.87
416.49	1783.78
416.70	1677.29
416.91	1714.15
417.11	1718.25
417.32	1789.92
417.53	1787.88
417.73	1742.82
417.94	1675.24
418.15	1718.25
418.35	1671.14
418.56	1722.34
418.77	1791.97
418.97	1705.96
419.18	1648.61
419.38	1581.03
419.59	1775.59
419.80	1810.40
420.00	1632.23
420.21	1710.05
420.42	1789.92
420.62	1720.29
420.83	1568.74
421.04	1734.63
421.24	1624.04
421.45	1771.49
421.65	1757.16
421.86	1648.61
422.07	1726.44
422.27	1796.07
422.48	1685.48
422.69	1757.16
422.89	1712.10
423.10	1708.01
423.30	1634.28
423.51	1673.19
423.72	1669.09
423.92	1767.40
424.13	1642.47
424.33	1712.10
424.54	1744.87
424.75	1742.82
424.95	1816.55
425.16	1730.53
425.36	1669.09
425.57	1810.40
425.78	1730.53
425.98	1755.11
426.19	1671.14
426.39	1576.94
426.60	1751.01
426.81	1814.50
427.01	1789.92
427.22	1630.18
427.42	1652.71
427.63	1703.91
427.83	1746.92
428.04	1802.21
428.25	1730.53
428.45	1734.63
428.66	1736.68
428.86	1748.97
429.07	1693.67
429.28	1648.61
429.48	1681.38
429.69	1654.76
429.89	1751.01
430.10	1615.85
430.30	1714.15
430.51	1791.97
430.71	1746.92
430.92	1771.49
431.13	1630.18
431.33	1722.34
431.54	1724.39
431.74	1830.88
431.95	1824.74
432.15	1636.33
432.36	1724.39
432.56	1771.49
432.77	1863.65
432.98	1888.23
433.18	1748.97
433.39	1730.53
433.59	1689.57
433.80	1822.69
434.00	1820.64
434.21	1687.53
434.41	1679.33
434.62	1845.22
434.82	1689.57
435.03	1681.38
435.23	1683.43
435.44	1695.72
435.64	1716.20
435.85	1789.92
436.06	1773.54
436.26	1740.77
436.47	1660.90
436.67	1667.05
436.88	1689.57
437.08	1796.07
437.29	1847.27
437.49	1667.05
437.70	1726.44
437.90	1716.20
438.11	1855.46
438.31	1771.49
438.52	1820.64
438.72	1816.55
438.93	1929.19
439.13	1777.64
439.34	1728.49
439.54	1824.74
439.75	1837.03
439.95	1789.92
440.16	1673.19
440.36	1751.01
440.57	1767.40
440.77	1746.92
440.98	1746.92
441.18	1705.96
441.39	1748.97
441.59	1759.21
441.80	1824.74
442.00	1759.21
442.21	1837.03
442.41	1705.96
442.62	1689.57
442.82	1718.25
443.02	1804.26
443.23	1710.05
443.43	1656.81
443.64	1822.69
443.84	1689.57
444.05	1730.53
444.25	1728.49
444.46	1783.78
444.66	1695.72
444.87	1828.84
445.07	1701.86
445.28	1732.58
445.48	1812.45
445.69	1736.68
445.89	1865.70
446.09	1781.73
446.30	2027.49
446.50	2645.98
446.71	3743.69
446.91	4276.16
447.12	4753.34
447.32	4884.41
447.53	4378.56
447.73	3966.92
447.93	3559.37
448.14	3336.14
448.34	3211.22
448.55	2938.84
448.75	2785.24
448.96	2715.61
449.16	2469.85
449.36	2381.79
449.57	2107.36
449.77	1875.94
449.98	1863.65
450.18	1902.56
450.39	1783.78
450.59	1736.68
450.79	1796.07
451.00	1718.25
451.20	1832.93
451.41	1724.39
451.61	1806.31
451.81	1755.11
452.02	1730.53
452.22	1703.91
452.43	1761.25
452.63	1748.97
452.84	1769.44
453.04	1738.73
453.24	1787.88
453.45	1689.57
453.65	1726.44
453.86	1728.49
454.06	1730.53
454.26	1759.21
454.47	1689.57
454.67	1808.36
454.87	1744.87
455.08	1804.26
455.28	1791.97
455.49	1785.83
455.69	1714.15
455.89	1869.80
456.10	1796.07
456.30	1779.68
456.51	1853.41
456.71	1771.49
456.91	1742.82
457.12	1796.07
457.32	1796.07
457.52	1744.87
457.73	1720.29
457.93	1830.88
458.14	1738.73
458.34	1621.99
458.54	1669.09
458.75	1740.77
458.95	1796.07
459.15	1789.92
459.36	1761.25
459.56	1791.97
459.76	1851.36
459.97	1701.86
460.17	1742.82
460.37	1859.56
460.58	1710.05
460.78	1822.69
460.99	1701.86
461.19	1755.11
461.39	1656.81
461.60	1710.05
461.80	1773.54
462.00	1665.00
462.21	1771.49
462.41	1591.27
462.61	1671.14
462.82	1726.44
463.02	1777.64
463.22	1705.96
463.43	1796.07
463.63	1787.88
463.83	1740.77
464.04	1869.80
464.24	1734.63
464.44	1665.00
464.64	1763.30
464.85	1744.87
465.05	1783.78
465.25	1763.30
465.46	1765.35
465.66	1812.45
465.86	1806.31
466.07	1777.64
466.27	1742.82
466.47	1656.81
466.68	1648.61
466.88	1816.55
467.08	1738.73
467.29	1800.16
467.49	1783.78
467.69	1716.20
467.89	1759.21
468.10	1712.10
468.30	1697.77
468.50	1800.16
468.71	1761.25
468.91	1601.51
469.11	1771.49
469.31	1791.97
469.52	1687.53
469.72	1802.21
469.92	1869.80
470.13	1755.11
470.33	1714.15
470.53	1781.73
470.73	2058.21
470.94	2355.16
471.14	2299.87
471.34	2568.15
471.54	2496.47
471.75	2224.09
471.95	2154.46
472.15	2050.02
472.36	2107.36
472.56	2080.74
472.76	2093.02
472.96	2039.78
473.17	1916.90
473.37	1859.56
473.57	1794.02
473.77	1828.84
473.98	1806.31
474.18	1710.05
474.38	1933.28
474.58	1695.72
474.79	1687.53
474.99	1791.97
475.19	1785.83
475.39	1683.43
475.60	1759.21
475.80	1693.67
476.00	1753.06
476.20	1671.14
476.41	1796.07
476.61	1828.84
476.81	1769.44
477.01	1671.14
477.21	1855.46
477.42	1834.98
477.62	1665.00
477.82	1781.73
478.02	1732.58
478.23	1679.33
478.43	1656.81
478.63	1693.67
478.83	1712.10
479.03	1648.61
479.24	1816.55
479.44	1806.31
479.64	1728.49
479.84	1712.10
480.04	1640.42
480.25	1773.54
480.45	1681.38
480.65	1638.38
480.85	1761.25
481.06	1767.40
481.26	1685.48
481.46	1716.20
481.66	1683.43
481.86	1693.67
482.06	1843.17
482.27	1695.72
482.47	1710.05
482.67	1705.96
482.87	1775.59
483.07	1736.68
483.28	1662.95
483.48	1648.61
483.68	1732.58
483.88	1685.48
484.08	1613.80
484.29	1689.57
484.49	1751.01
484.69	1730.53
484.89	1767.40
485.09	1798.12
485.29	1726.44
485.50	1800.16
485.70	1628.14
485.90	1818.60
486.10	1791.97
486.30	1744.87
486.50	1828.84
486.71	1708.01
486.91	1779.68
487.11	1816.55
487.31	1628.14
487.51	1746.92
487.71	1734.63
487.91	1628.14
488.12	1675.24
488.32	1703.91
488.52	1718.25
488.72	1648.61
488.92	1748.97
489.12	1779.68
489.32	1822.69
489.53	1777.64
489.73	1646.57
489.93	1781.73
490.13	1693.67
490.33	1662.95
490.53	1781.73
490.73	1740.77
490.94	1617.90
491.14	1806.31
491.34	1855.46
491.54	2121.70
491.74	2582.49
491.94	2932.69
492.14	2949.08
492.34	3014.61
492.54	2797.53
492.75	2453.47
492.95	2342.88
493.15	2314.20
493.35	2246.62
493.55	2181.09
493.75	2125.79
493.95	2131.94
494.15	2023.39
494.35	1945.57
494.56	1839.08
494.76	1812.45
494.96	1798.12
495.16	1738.73
495.36	1798.12
495.56	1759.21
495.76	1796.07
495.96	1802.21
496.16	1703.91
496.36	1853.41
496.56	1703.91
496.77	1783.78
496.97	1736.68
497.17	1767.40
497.37	1617.90
497.57	1732.58
497.77	1861.60
497.97	1615.85
498.17	1730.53
498.37	1785.83
498.57	1722.34
498.77	1732.58
498.97	1781.73
499.17	1855.46
499.38	1703.91
499.58	1783.78
499.78	1837.03
499.98	1822.69
500.18	1701.86
500.38	1681.38
500.58	1910.75
500.78	2582.49
500.98	4562.87
501.18	5771.18
501.38	6809.50
501.58	7131.03
501.78	6731.67
501.98	5580.71
502.18	5009.33
502.38	4470.72
502.58	4198.34
502.78	3694.54
502.98	3618.76
503.18	3499.98
503.38	3143.63
503.59	2906.07
503.79	2611.16
503.99	2461.66
504.19	2295.77
504.39	2113.50
504.59	2203.61
504.79	2086.88
504.99	2090.98
505.19	1974.24
505.39	1855.46
505.59	1935.33
505.79	1896.42
505.99	1849.32
506.19	1882.08
506.39	1945.57
506.59	1718.25
506.79	1714.15
506.99	1820.64
507.19	1748.97
507.39	1755.11
507.59	1667.05
507.79	1732.58
507.99	1617.90
508.19	1652.71
508.39	1728.49
508.59	1726.44
508.79	1834.98
508.99	1810.40
509.19	1724.39
509.39	1679.33
509.59	1660.90
509.79	1685.48
509.99	1732.58
510.19	1789.92
510.39	1751.01
510.59	1800.16
510.79	1732.58
510.99	1697.77
511.19	1714.15
511.39	1804.26
511.59	1812.45
511.79	1767.40
511.99	1738.73
512.19	1787.88
512.38	1732.58
512.58	1751.01
512.78	1722.34
512.98	1810.40
513.18	1785.83
513.38	1642.47
513.58	1740.77
513.78	1669.09
513.98	1718.25
514.18	1742.82
514.38	1769.44
514.58	1687.53
514.78	1681.38
514.98	1660.90
515.18	1736.68
515.38	1630.18
515.58	1902.56
515.78	1669.09
515.98	1714.15
516.18	1779.68
516.38	1677.29
516.57	1693.67
516.77	1761.25
516.97	1679.33
517.17	1693.67
517.37	1755.11
517.57	1767.40
517.77	1779.68
517.97	1740.77
518.17	1810.40
518.37	1683.43
518.57	1695.72
518.77	1730.53
518.97	1744.87
519.16	1779.68
519.36	1814.50
519.56	1708.01
519.76	1720.29
519.96	1689.57
520.16	1800.16
520.36	1683.43
520.56	1718.25
520.76	1689.57
520.96	1726.44
521.16	1785.83
521.35	1900.52
521.55	1875.94
521.75	1785.83
521.95	1703.91
522.15	1703.91
522.35	1697.77
522.55	1789.92
522.75	1714.15
522.95	1660.90
523.14	1681.38
523.34	1730.53
523.54	1722.34
523.74	1773.54
523.94	1675.24
524.14	1654.76
524.34	1732.58
524.54	1767.40
524.73	1779.68
524.93	1787.88
525.13	1748.97
525.33	1671.14
525.53	1845.22
525.73	1757.16
525.93	1761.25
526.13	1724.39
526.32	1738.73
526.52	1841.12
526.72	1767.40
526.92	1708.01
527.12	1695.72
527.32	1794.02
527.52	1775.59
527.71	1759.21
527.91	1726.44
528.11	1712.10
528.31	1722.34
528.51	1644.52
528.71	1718.25
528.90	1726.44
529.10	1773.54
529.30	1783.78
529.50	1681.38
529.70	1691.62
529.90	1726.44
530.09	1685.48
530.29	1730.53
530.49	1673.19
530.69	1992.67
530.89	1712.10
531.09	1746.92
531.28	1681.38
531.48	1822.69
531.68	1697.77
531.88	1804.26
532.08	1742.82
532.28	1691.62
532.47	1773.54
532.67	1763.30
532.87	1755.11
533.07	1646.57
533.27	1849.32
533.46	1775.59
533.66	1757.16
533.86	1720.29
534.06	1691.62
534.26	1726.44
534.45	1710.05
534.65	1781.73
534.85	1759.21
535.05	1636.33
535.25	1783.78
535.44	1621.99
535.64	1853.41
535.84	1705.96
536.04	1736.68
536.24	1767.40
536.43	1701.86
536.63	1767.40
536.83	1746.92
537.03	1693.67
537.22	1708.01
537.42	1726.44
537.62	1796.07
537.82	1732.58
538.02	1787.88
538.21	1781.73
538.41	1882.08
538.61	1775.59
538.81	1738.73
539.00	1816.55
539.20	1615.85
539.40	1708.01
539.60	1748.97
539.79	1802.21
539.99	1699.81
540.19	1671.14
540.39	1783.78
540.58	1789.92
540.78	1908.71
540.98	1710.05
541.18	1849.32
541.37	1843.17
541.57	1730.53
541.77	1767.40
541.97	1669.09
542.16	1699.81
542.36	1720.29
542.56	1804.26
542.76	1832.93
542.95	1800.16
543.15	1753.06
543.35	1794.02
543.54	1740.77
543.74	1644.52
543.94	1841.12
544.14	1753.06
544.33	1820.64
544.53	1726.44
544.73	1800.16
544.93	1771.49
545.12	1763.30
545.32	1753.06
545.52	1701.86
545.71	1644.52
545.91	1683.43
546.11	1755.11
546.30	1691.62
546.50	1712.10
546.70	1775.59
546.90	1839.08
547.09	1716.20
547.29	1820.64
547.49	1769.44
547.68	1730.53
547.88	1718.25
548.08	1710.05
548.27	2101.22
548.47	1675.24
548.67	1755.11
548.87	1751.01
549.06	1693.67
549.26	1818.60
549.46	1869.80
549.65	1720.29
549.85	1730.53
550.05	1757.16
550.24	1638.38
550.44	1726.44
550.64	1757.16
550.83	1773.54
551.03	1849.32
551.23	1828.84
551.42	1808.36
551.62	1697.77
551.82	1757.16
552.01	1738.73
552.21	1877.99
552.41	1638.38
552.60	1845.22
552.80	1765.35
553.00	1791.97
553.19	1736.68
553.39	1802.21
553.59	1697.77
553.78	1744.87
553.98	1832.93
554.17	1685.48
554.37	1783.78
554.57	1785.83
554.76	1675.24
554.96	1734.63
555.16	1718.25
555.35	1724.39
555.55	1708.01
555.75	1751.01
555.94	1710.05
556.14	1720.29
556.33	1716.20
556.53	1722.34
556.73	1753.06
556.92	1798.12
557.12	1828.84
557.32	1880.04
557.51	1849.32
557.71	1755.11
557.90	1783.78
558.10	1867.75
558.30	1742.82
558.49	1683.43
558.69	1769.44
558.88	1712.10
559.08	1720.29
559.28	1665.00
559.47	1875.94
559.67	1757.16
559.86	1886.18
560.06	1808.36
560.26	1699.81
560.45	1814.50
560.65	1763.30
560.84	1769.44
561.04	1755.11
561.24	1748.97
561.43	1665.00
561.63	1808.36
561.82	1791.97
562.02	1798.12
562.22	1693.67
562.41	1730.53
562.61	1736.68
562.80	1716.20
563.00	1839.08
563.19	1789.92
563.39	1837.03
563.59	1808.36
563.78	1642.47
563.98	1617.90
564.17	1724.39
564.37	1673.19
564.56	1748.97
564.76	1685.48
564.96	1820.64
565.15	1722.34
565.35	1894.37
565.54	1763.30
565.74	1783.78
565.93	1665.00
566.13	1751.01
566.32	1701.86
566.52	1736.68
566.71	1781.73
566.91	1789.92
567.11	1759.21
567.30	1673.19
567.50	1761.25
567.69	1748.97
567.89	1767.40
568.08	1619.94
568.28	1830.88
568.47	1648.61
568.67	1699.81
568.86	1705.96
569.06	1726.44
569.25	1738.73
569.45	1716.20
569.64	1703.91
569.84	1726.44
570.04	1732.58
570.23	1703.91
570.43	1685.48
570.62	1720.29
570.82	1841.12
571.01	1705.96
571.21	1759.21
571.40	1705.96
571.60	1806.31
571.79	1712.10
571.99	1851.36
572.18	1656.81
572.38	1783.78
572.57	1746.92
572.77	1769.44
572.96	1869.80
573.16	1730.53
573.35	1748.97
573.55	1816.55
573.74	1802.21
573.94	1683.43
574.13	1748.97
574.33	1816.55
574.52	1853.41
574.71	1763.30
574.91	1787.88
575.10	1656.81
575.30	1740.77
575.49	1677.29
575.69	1712.10
575.88	1783.78
576.08	1650.66
576.27	1837.03
576.47	1767.40
576.66	1857.51
576.86	1898.47
577.05	1779.68
577.25	1802.21
577.44	1886.18
577.64	1720.29
577.83	1796.07
578.02	1759.21
578.22	1869.80
578.41	1865.70
578.61	1701.86
578.80	1675.24
579.00	1820.64
579.19	1730.53
579.39	1753.06
579.58	1832.93
579.77	1781.73
579.97	1820.64
580.16	1851.36
580.36	1890.28
580.55	1931.23
580.75	1810.40
580.94	1802.21
581.13	1890.28
581.33	1884.13
581.52	1781.73
581.72	1871.84
581.91	1812.45
582.11	1724.39
582.30	1767.40
582.49	1765.35
582.69	1810.40
582.88	1734.63
583.08	1834.98
583.27	1867.75
583.47	1853.41
583.66	1744.87
583.85	1765.35
584.05	1691.62
584.24	1716.20
584.44	1826.79
584.63	1804.26
584.82	1853.41
585.02	1816.55
585.21	1880.04
585.41	1853.41
585.60	1906.66
585.79	1914.85
585.99	1931.23
586.18	1873.89
586.37	2222.05
586.57	3379.15
586.76	9774.95
586.96	24401.55
587.15	34170.36
587.34	40338.84
587.54	42282.36
587.73	36429.27
587.93	26316.40
588.12	21673.65
588.31	18218.73
588.51	16217.86
588.70	14876.44
588.89	14171.94
589.09	12439.36
589.28	10786.65
589.47	9342.83
589.67	8025.99
589.86	6305.70
590.06	4845.49
590.25	3928.00
590.44	3264.46
590.64	2598.87
590.83	2215.90
591.02	2027.49
591.22	1910.75
591.41	1859.56
591.60	1871.84
591.80	1908.71
591.99	1753.06
592.18	1781.73
592.38	1794.02
592.57	1775.59
592.76	1765.35
592.96	1769.44
593.15	1738.73
593.34	1794.02
593.54	1679.33
593.73	1839.08
593.92	1789.92
594.12	1820.64
594.31	1701.86
594.50	1851.36
594.70	1816.55
594.89	1837.03
595.08	1710.05
595.28	1830.88
595.47	1935.33
595.66	1765.35
595.86	1681.38
596.05	1632.23
596.24	1763.30
596.43	1851.36
596.63	1877.99
596.82	1759.21
597.01	1728.49
597.21	1822.69
597.40	1773.54
597.59	1798.12
597.79	1734.63
597.98	1787.88
598.17	1789.92
598.36	1728.49
598.56	1703.91
598.75	1691.62
598.94	1794.02
599.14	1746.92
599.33	1681.38
599.52	1787.88
599.71	1785.83
599.91	1787.88
600.10	1744.87
600.29	1753.06
600.48	1759.21
600.68	1820.64
600.87	1800.16
601.06	1765.35
601.26	1744.87
601.45	1820.64
601.64	1769.44
601.83	1820.64
602.03	1683.43
602.22	1705.96
602.41	1841.12
602.60	1869.80
602.80	1791.97
602.99	1742.82
603.18	1787.88
603.37	1669.09
603.57	1753.06
603.76	1826.79
603.95	1834.98
604.14	1738.73
604.34	1820.64
604.53	1732.58
604.72	1716.20
604.91	1789.92
605.10	1789.92
605.30	1656.81
605.49	1906.66
605.68	1785.83
605.87	1824.74
606.07	1697.77
606.26	1800.16
606.45	1687.53
606.64	1777.64
606.84	1673.19
607.03	1728.49
607.22	1808.36
607.41	1654.76
607.60	1703.91
607.80	1830.88
607.99	1722.34
608.18	1689.57
608.37	1832.93
608.56	1718.25
608.76	1773.54
608.95	1886.18
609.14	1720.29
609.33	1763.30
609.52	1804.26
609.72	1724.39
609.91	1804.26
610.10	1777.64
610.29	1857.51
610.48	1744.87
610.68	1738.73
610.87	1669.09
611.06	1751.01
611.25	1789.92
611.44	1873.89
611.63	1734.63
611.83	1859.56
612.02	1669.09
612.21	1726.44
612.40	1585.13
612.59	1689.57
612.79	1701.86
612.98	1699.81
613.17	1869.80
613.36	1726.44
613.55	1822.69
613.74	1726.44
613.93	1718.25
614.13	1820.64
614.32	1751.01
614.51	1771.49
614.70	1669.09
614.89	1712.10
615.08	1757.16
615.28	2011.11
615.47	1626.09
615.66	1761.25
615.85	1744.87
616.04	1853.41
616.23	1638.38
616.42	1718.25
616.62	1734.63
616.81	1814.50
617.00	1746.92
617.19	1730.53
617.38	1734.63
617.57	1791.97
617.76	1718.25
617.95	1742.82
618.15	1740.77
618.34	1861.60
618.53	1673.19
618.72	1796.07
618.91	1763.30
619.10	1861.60
619.29	1755.11
619.48	1773.54
619.68	1665.00
619.87	1701.86
620.06	1617.90
620.25	1734.63
620.44	1720.29
620.63	1734.63
620.82	1732.58
621.01	1736.68
621.20	1722.34
621.39	1781.73
621.59	1705.96
621.78	1638.38
621.97	1748.97
622.16	1791.97
622.35	1759.21
622.54	1740.77
622.73	1763.30
622.92	1699.81
623.11	1822.69
623.30	1738.73
623.49	1685.48
623.68	1654.76
623.88	1708.01
624.07	1699.81
624.26	1718.25
624.45	1779.68
624.64	1712.10
624.83	1802.21
625.02	1681.38
625.21	1765.35
625.40	1808.36
625.59	1794.02
625.78	1734.63
625.97	1726.44
626.16	1820.64
626.35	1806.31
626.54	1757.16
626.74	1794.02
626.93	1658.85
627.12	1708.01
627.31	1832.93
627.50	1730.53
627.69	1787.88
627.88	1677.29
628.07	1730.53
628.26	1693.67
628.45	1724.39
628.64	1689.57
628.83	1724.39
629.02	1667.05
629.21	1701.86
629.40	1720.29
629.59	1570.79
629.78	1691.62
629.97	1683.43
630.16	1736.68
630.35	1765.35
630.54	1671.14
630.73	1660.90
630.92	1763.30
631.11	1613.80
631.30	1691.62
631.49	1734.63
631.68	1730.53
631.87	1714.15
632.06	1660.90
632.25	1851.36
632.44	1796.07
632.63	1673.19
632.82	1724.39
633.01	1587.18
633.20	1787.88
633.39	1701.86
633.58	1621.99
633.77	1728.49
633.96	1742.82
634.15	1779.68
634.34	1722.34
634.53	1687.53
634.72	1703.91
634.91	1699.81
635.10	1746.92
635.29	1875.94
635.48	1763.30
635.67	1701.86
635.86	1601.51
636.05	1761.25
636.24	1703.91
636.43	1738.73
636.62	1769.44
636.81	1673.19
637.00	1757.16
637.19	1736.68
637.38	1738.73
637.57	1738.73
637.76	1724.39
637.95	1687.53
638.14	1636.33
638.33	1660.90
638.52	1726.44
638.71	1689.57
638.89	1669.09
639.08	1908.71
639.27	1751.01
639.46	1687.53
639.65	1886.18
639.84	1746.92
640.03	1828.84
640.22	1751.01
640.41	1851.36
640.60	1759.21
640.79	1751.01
640.98	1714.15
641.17	1853.41
641.36	1720.29
641.55	1652.71
641.74	1656.81
641.92	1728.49
642.11	1720.29
642.30	1728.49
642.49	1636.33
642.68	1732.58
642.87	1697.77
643.06	1806.31
643.25	1775.59
643.44	1705.96
643.63	1658.85
643.82	1783.78
644.00	1683.43
644.19	1781.73
644.38	1644.52
644.57	1789.92
644.76	1787.88
644.95	1742.82
645.14	1851.36
645.33	1763.30
645.52	1794.02
645.71	1751.01
645.89	1689.57
646.08	1787.88
646.27	1724.39
646.46	1824.74
646.65	1609.70
646.84	1771.49
647.03	1714.15
647.22	1748.97
647.40	1699.81
647.59	1708.01
647.78	1650.66
647.97	1601.51
648.16	1658.85
648.35	1822.69
648.54	1755.11
648.73	1648.61
648.91	1751.01
649.10	1773.54
649.29	1697.77
649.48	1705.96
649.67	1759.21
649.86	1699.81
650.05	1703.91
650.23	1724.39
650.42	1677.29
650.61	1832.93
650.80	1716.20
650.99	1900.52
651.18	1761.25
651.36	1796.07
651.55	1630.18
651.74	1777.64
651.93	1701.86
652.12	1742.82
652.31	1755.11
652.49	1669.09
652.68	1642.47
652.87	1761.25
653.06	1771.49
653.25	1732.58
653.44	1675.24
653.62	1837.03
653.81	1771.49
654.00	1796.07
654.19	1808.36
654.38	1851.36
654.56	1732.58
654.75	1708.01
654.94	1738.73
655.13	1783.78
655.32	1726.44
655.51	1800.16
655.69	1695.72
655.88	1759.21
656.07	1687.53
656.26	1744.87
656.45	1705.96
656.63	1667.05
656.82	1716.20
657.01	1810.40
657.20	1660.90
657.38	1837.03
657.57	1656.81
657.76	1703.91
657.95	1724.39
658.14	1667.05
658.32	1720.29
658.51	1685.48
658.70	1751.01
658.89	1738.73
659.08	1732.58
659.26	1832.93
659.45	1718.25
659.64	1794.02
659.83	1646.57
660.01	1933.28
660.20	1724.39
660.39	1837.03
660.58	1556.46
660.76	1785.83
660.95	1712.10
661.14	1693.67
661.33	1621.99
661.51	1691.62
661.70	1693.67
661.89	1755.11
662.08	1722.34
662.26	1667.05
662.45	1681.38
662.64	1826.79
662.83	1718.25
663.01	1730.53
663.20	1771.49
663.39	1896.42
663.58	1642.47
663.76	1742.82
663.95	1761.25
664.14	1716.20
664.32	1679.33
664.51	1656.81
664.70	1693.67
664.89	1689.57
665.07	1628.14
665.26	1804.26
665.45	1646.57
665.64	1804.26
665.82	1775.59
666.01	1820.64
666.20	1708.01
666.38	1777.64
666.57	1857.51
666.76	2217.95
666.95	4566.97
667.13	10241.89
667.32	15177.50
667.51	17911.53
667.69	19134.17
667.88	17817.33
668.07	12494.66
668.25	9672.56
668.44	8159.11
668.63	7384.98
668.81	6700.95
669.00	6203.30
669.19	5685.16
669.38	5164.98
669.56	4562.87
669.75	3907.52
669.94	3364.81
670.12	2861.01
670.31	2480.09
670.50	2232.29
670.68	2142.18
670.87	1933.28
671.06	1791.97
671.24	1816.55
671.43	1925.09
671.62	1808.36
671.80	1744.87
671.99	1769.44
672.18	1705.96
672.36	1755.11
672.55	1736.68
672.74	1701.86
672.92	1695.72
673.11	1746.92
673.29	1662.95
673.48	1832.93
673.67	1667.05
673.85	1824.74
674.04	1677.29
674.23	1736.68
674.41	1853.41
674.60	1703.91
674.79	1615.85
674.97	1689.57
675.16	1703.91
675.34	1763.30
675.53	1677.29
675.72	1771.49
675.90	1824.74
676.09	1667.05
676.28	1794.02
676.46	1595.37
676.65	1765.35
676.83	1662.95
677.02	1710.05
677.21	1675.24
677.39	1734.63
677.58	1683.43
677.77	1683.43
677.95	1660.90
678.14	1712.10
678.32	1693.67
678.51	1740.77
678.70	1810.40
678.88	1722.34
679.07	1685.48
679.25	1720.29
679.44	1689.57
679.63	1685.48
679.81	1716.20
680.00	1800.16
680.18	1761.25
680.37	1861.60
680.55	1701.86
680.74	1583.08
680.93	1683.43
681.11	1763.30
681.30	1794.02
681.48	1777.64
681.67	1705.96
681.85	1753.06
682.04	1654.76
682.23	1800.16
682.41	1783.78
682.60	1726.44
682.78	1695.72
682.97	1597.42
683.15	1738.73
683.34	1724.39
683.53	1855.46
683.71	1658.85
683.90	1730.53
684.08	1767.40
684.27	1691.62
684.45	1746.92
684.64	1808.36
684.82	1753.06
685.01	1755.11
685.19	1738.73
685.38	1771.49
685.57	1685.48
685.75	1697.77
685.94	1701.86
686.12	1705.96
686.31	1679.33
686.49	1787.88
686.68	1652.71
686.86	1763.30
687.05	1736.68
687.23	1828.84
687.42	1677.29
687.60	1683.43
687.79	1746.92
687.97	1748.97
688.16	1773.54
688.34	1767.40
688.53	1652.71
688.71	1730.53
688.90	1796.07
689.08	1722.34
689.27	1646.57
689.45	1769.44
689.64	1718.25
689.82	1771.49
690.01	1697.77
690.19	1656.81
690.38	1689.57
690.56	1814.50
690.75	1611.75
690.93	1634.28
691.12	1689.57
691.30	1746.92
691.49	1660.90
691.67	1804.26
691.86	1824.74
692.04	1685.48
692.23	1656.81
692.41	1656.81
692.60	1830.88
692.78	1705.96
692.97	1773.54
693.15	1771.49
693.34	1816.55
693.52	1783.78
693.71	1662.95
693.89	1675.24
694.08	1599.46
694.26	1804.26
694.44	1775.59
694.63	1794.02
694.81	1640.42
695.00	1716.20
695.18	1800.16
695.37	1828.84
695.55	1810.40
695.74	1677.29
695.92	1652.71
696.10	1783.78
696.29	1632.23
696.47	1636.33
696.66	1681.38
696.84	1656.81
697.03	1681.38
697.21	1822.69
697.40	2308.06
697.58	1818.60
697.76	1642.47
697.95	1609.70
698.13	1652.71
698.32	1714.15
698.50	1722.34
698.68	1757.16
698.87	1687.53
699.05	1806.31
699.24	1738.73
699.42	1658.85
699.61	1779.68
699.79	1714.15
699.97	1806.31
700.16	1685.48
700.34	1669.09
700.53	1757.16
700.71	1857.51
700.89	1740.77
701.08	1652.71
701.26	1763.30
701.45	2195.42
701.63	1738.73
701.81	1755.11
702.00	1718.25
702.18	1755.11
702.37	1724.39
702.55	1695.72
702.73	1763.30
702.92	1656.81
703.10	1695.72
703.28	1779.68
703.47	1673.19
703.65	1755.11
703.84	1839.08
704.02	1681.38
704.20	1869.80
704.39	1654.76
704.57	1683.43
704.75	1785.83
704.94	1714.15
705.12	1761.25
705.30	1751.01
705.49	2260.96
705.67	4351.93
705.86	9299.83
706.04	12627.78
706.22	14581.54
706.41	15415.06
706.59	13752.11
706.77	9586.54
706.96	7280.53
707.14	6682.52
707.32	5984.16
707.51	5443.50
707.69	4882.36
707.87	4261.82
708.06	3557.32
708.24	3041.23
708.42	2457.56
708.61	2222.05
708.79	1914.85
708.97	1812.45
709.16	1857.51
709.34	1724.39
709.52	1742.82
709.71	1714.15
709.89	1834.98
710.07	1646.57
710.26	1763.30
710.44	1789.92
710.62	1759.21
710.80	1785.83
710.99	1722.34
711.17	1826.79
711.35	1722.34
711.54	1689.57
711.72	1779.68
711.90	1787.88
712.09	1785.83
712.27	1693.67
712.45	1763.30
712.63	1724.39
712.82	1685.48
713.00	1738.73
713.18	1755.11
713.37	1708.01
713.55	1671.14
713.73	1691.62
713.91	1726.44
714.10	1734.63
714.28	1716.20
714.46	1806.31
714.65	1701.86
714.83	1738.73
715.01	1726.44
715.19	1736.68
715.38	1595.37
715.56	1753.06
715.74	1642.47
715.92	1634.28
716.11	1820.64
716.29	1628.14
716.47	1732.58
716.65	1665.00
716.84	1630.18
717.02	1759.21
717.20	1658.85
717.38	1632.23
717.57	1712.10
717.75	1720.29
717.93	1732.58
718.11	1789.92
718.30	1703.91
718.48	1687.53
718.66	1832.93
718.84	1744.87
719.03	1781.73
719.21	1621.99
719.39	1808.36
719.57	1804.26
719.75	1748.97
719.94	1689.57
720.12	1685.48
720.30	1720.29
720.48	1816.55
720.67	1683.43
720.85	1677.29
721.03	1640.42
721.21	1636.33
721.39	1816.55
721.58	1751.01
721.76	1689.57
721.94	1791.97
722.12	1697.77
722.30	1744.87
722.49	1746.92
722.67	1806.31
722.85	1724.39
723.03	1624.04
723.21	1665.00
723.40	1695.72
723.58	1728.49
723.76	1779.68
723.94	1779.68
724.12	1775.59
724.30	1783.78
724.49	1865.70
724.67	1667.05
724.85	1808.36
725.03	1675.24
725.21	1765.35
725.40	1830.88
725.58	1732.58
725.76	1724.39
725.94	1751.01
726.12	1695.72
726.30	1761.25
726.49	1714.15
726.67	1644.52
726.85	1753.06
727.03	1824.74
727.21	2148.32
727.39	2908.12
727.57	3774.41
727.76	4194.24
727.94	4503.48
728.12	4288.45
728.30	3667.91
728.48	2979.79
728.66	2754.52
728.84	2570.20
729.03	2277.34
729.21	2146.27
729.39	2062.30
729.57	1875.94
729.75	1814.50
729.93	1849.32
730.11	1691.62
730.30	1683.43
730.48	1728.49
730.66	1742.82
730.84	1726.44
731.02	1681.38
731.20	1689.57
731.38	1679.33
731.56	1652.71
731.74	1689.57
731.93	1730.53
732.11	1712.10
732.29	1699.81
732.47	1746.92
732.65	1738.73
732.83	1816.55
733.01	1763.30
733.19	1658.85
733.37	1757.16
733.56	1697.77
733.74	1755.11
733.92	1841.12
734.10	1624.04
734.28	1710.05
734.46	1701.86
734.64	1697.77
734.82	1677.29
735.00	1722.34
735.18	1699.81
735.36	1658.85
735.54	1759.21
735.73	1726.44
735.91	1773.54
736.09	1787.88
736.27	1646.57
736.45	1746.92
736.63	1574.89
736.81	1759.21
736.99	1773.54
737.17	1855.46
737.35	1710.05
737.53	1726.44
737.71	1691.62
737.89	1769.44
738.07	1624.04
738.25	1656.81
738.43	1644.52
738.61	1662.95
738.80	1638.38
738.98	1636.33
739.16	1714.15
739.34	1685.48
739.52	1734.63
739.70	1701.86
739.88	1765.35
740.06	1744.87
740.24	1603.56
740.42	1769.44
740.60	1640.42
740.78	1697.77
740.96	1634.28
741.14	1642.47
741.32	1728.49
741.50	1634.28
741.68	1865.70
741.86	1845.22
742.04	1607.66
742.22	1640.42
742.40	1687.53
742.58	1718.25
742.76	1667.05
742.94	1744.87
743.12	1691.62
743.30	1615.85
743.48	1658.85
743.66	1650.66
743.84	1718.25
744.02	1621.99
744.20	1716.20
744.38	1685.48
744.56	1720.29
744.74	1853.41
744.92	1748.97
745.10	1781.73
745.28	1748.97
745.46	1847.27
745.64	1609.70
745.82	1804.26
746.00	1757.16
746.18	1695.72
746.36	1576.94
746.54	1755.11
746.72	1728.49
746.90	1697.77
747.08	1785.83
747.26	1656.81
747.44	1769.44
747.62	1751.01
747.80	1673.19
747.98	1783.78
748.15	1587.18
748.33	1851.36
748.51	1667.05
748.69	1742.82
748.87	1667.05
749.05	1636.33
749.23	1714.15
749.41	1753.06
749.59	1679.33
749.77	1783.78
749.95	1619.94
750.13	1607.66
750.31	1728.49
750.49	1669.09
750.67	1800.16
750.85	1808.36
751.03	1742.82
751.20	1806.31
751.38	1685.48
751.56	1677.29
751.74	1742.82
751.92	1689.57
752.10	1683.43
752.28	1798.12
752.46	1624.04
752.64	1718.25
752.82	1720.29
753.00	1812.45
753.18	1597.42
753.35	1722.34
753.53	1718.25
753.71	1751.01
753.89	1714.15
754.07	1695.72
754.25	1789.92
754.43	1740.77
754.61	1632.23
754.79	1667.05
754.97	1646.57
755.14	1810.40
755.32	1718.25
755.50	1708.01
755.68	1753.06
755.86	1679.33
756.04	1658.85
756.22	1574.89
756.40	1720.29
756.57	1806.31
756.75	1667.05
756.93	1820.64
757.11	1804.26
757.29	1615.85
757.47	1701.86
757.65	1632.23
757.82	1617.90
758.00	1691.62
758.18	1673.19
758.36	1601.51
758.54	1851.36
758.72	1636.33
758.90	1738.73
759.07	1755.11
759.25	1650.66
759.43	1755.11
759.61	1642.47
759.79	2248.67
759.97	1751.01
760.15	1689.57
760.32	1683.43
760.50	1689.57
760.68	1787.88
760.86	1636.33
761.04	1824.74
761.22	1712.10
761.39	1701.86
761.57	1755.11
761.75	1716.20
761.93	1767.40
762.11	1742.82
762.28	1640.42
762.46	1761.25
762.64	1798.12
762.82	1720.29
763.00	1718.25
763.18	1808.36
763.35	1630.18
763.53	1773.54
763.71	1656.81
763.89	1726.44
764.07	1794.02
764.24	1773.54
764.42	1761.25
764.60	1581.03
764.78	1693.67
764.96	1794.02
765.13	1736.68
765.31	1691.62
765.49	1757.16
765.67	1665.00
765.84	1695.72
766.02	1681.38
766.20	1556.46
766.38	1705.96
766.56	1765.35
766.73	1804.26
766.91	1685.48
767.09	1701.86
767.27	1714.15
767.44	1667.05
767.62	1771.49
767.80	1718.25
767.98	1665.00
768.15	1720.29
768.33	1718.25
768.51	1789.92
768.69	1669.09
768.87	1722.34
769.04	1763.30
769.22	1767.40
769.40	1802.21
769.58	1839.08
769.75	1763.30
769.93	1796.07
770.11	1738.73
770.28	1648.61
770.46	1765.35
770.64	1748.97
770.82	1726.44
770.99	1677.29
771.17	1722.34
771.35	1746.92
771.53	1628.14
771.70	1673.19
771.88	1722.34
772.06	1693.67
772.23	1705.96
772.41	1728.49
772.59	1636.33
772.77	1601.51
772.94	1681.38
773.12	1804.26
773.30	1646.57
773.47	1677.29
773.65	1636.33
773.83	1820.64
774.01	1736.68
774.18	1644.52
774.36	1755.11
774.54	1609.70
774.71	1730.53
774.89	1619.94
775.07	1644.52
775.24	1722.34
775.42	1746.92
775.60	1796.07
775.78	1744.87
775.95	1568.74
776.13	1574.89
776.31	1572.84
776.48	1703.91
776.66	1824.74
776.84	1638.38
777.01	1746.92
777.19	1669.09
777.37	1677.29
777.54	1785.83
777.72	1906.66
777.90	1689.57
778.07	1736.68
778.25	1886.18
778.43	1845.22
778.60	1714.15
778.78	1703.91
778.96	1757.16
779.13	1628.14
779.31	1773.54
779.49	1652.71
779.66	1771.49
779.84	1665.00
780.01	1726.44
780.19	1619.94
780.37	1775.59
780.54	1734.63
780.72	1675.24
780.90	1619.94
781.07	1660.90
781.25	1685.48
781.43	1800.16
781.60	1730.53
781.78	1802.21
781.95	1722.34
782.13	1644.52
782.31	1667.05
782.48	1603.56
782.66	1703.91
782.83	1880.04
783.01	1789.92
783.19	1753.06
783.36	1720.29
783.54	1669.09
783.72	1808.36
783.89	1748.97
784.07	1691.62
784.24	1730.53
784.42	1701.86
784.60	1779.68
784.77	1730.53
784.95	1576.94
785.12	1630.18
785.30	1687.53
785.47	1673.19
785.65	1642.47
785.83	1693.67
786.00	1619.94
786.18	1781.73
786.35	1636.33
786.53	1744.87
786.71	1722.34
786.88	1673.19
787.06	1679.33
787.23	1724.39
787.41	1718.25
787.58	1701.86
787.76	1691.62
787.94	1695.72
788.11	1703.91
788.29	1615.85
788.46	1703.91
788.64	1591.27
788.81	1642.47
788.99	1705.96
789.16	1636.33
789.34	1691.62
789.52	1603.56
789.69	1681.38
789.87	1572.84
790.04	1662.95
790.22	1638.38
790.39	1798.12
790.57	1714.15
790.74	1626.09
790.92	1826.79
791.09	1724.39
791.27	1683.43
791.44	1746.92
791.62	1738.73
791.79	1777.64
791.97	1689.57
792.15	1888.23
792.32	1716.20
792.50	1757.16
792.67	1812.45
792.85	1718.25
793.02	1726.44
793.20	1738.73
793.37	1650.66
793.55	1722.34
793.72	1640.42
793.90	1658.85
794.07	1667.05
794.25	1613.80
794.42	1748.97
794.60	1746.92
794.77	1736.68
794.95	1773.54
795.12	1787.88
795.30	1685.48
795.47	1648.61
795.65	1861.60
795.82	1767.40
796.00	1654.76
796.17	1761.25
796.34	1675.24
796.52	1744.87
796.69	1724.39
796.87	1744.87
797.04	1708.01
797.22	1746.92
797.39	1722.34
797.57	1761.25
797.74	1710.05
797.92	1660.90
798.09	1718.25
798.27	1677.29
798.44	1757.16
798.62	1705.96
798.79	1783.78
798.96	1710.05
799.14	1716.20
799.31	1900.52
799.49	1701.86
799.66	1705.96
799.84	1763.30
800.01	1636.33
800.19	1644.52
800.36	1648.61
800.53	1685.48
800.71	1734.63
800.88	1757.16
801.06	1699.81
801.23	1691.62
801.41	1667.05
801.58	1619.94
801.75	1718.25
801.93	1701.86
802.10	1718.25
802.28	1669.09
802.45	1724.39
802.63	1738.73
802.80	1775.59
802.97	1703.91
803.15	1701.86
803.32	1662.95
803.50	1656.81
803.67	1673.19
803.84	1681.38
804.02	1697.77
804.19	1667.05
804.37	1585.13
804.54	1630.18
804.71	1667.05
804.89	1669.09
805.06	1640.42
805.24	1621.99
805.41	1642.47
805.58	1675.24
805.76	1806.31
805.93	1748.97
806.10	1775.59
806.28	1816.55
806.45	1726.44
806.63	1642.47
806.80	1681.38
806.97	1724.39
807.15	1712.10
807.32	1669.09
807.49	1783.78
807.67	1574.89
807.84	1701.86
808.01	1638.38
808.19	1783.78
808.36	1753.06
808.54	1665.00
808.71	1632.23
808.88	1734.63
809.06	1744.87
809.23	1796.07
809.40	1605.61
809.58	1771.49
809.75	1671.14
809.92	1634.28
810.10	1818.60
810.27	1683.43
810.44	1720.29
810.62	1708.01
810.79	1789.92
810.96	1662.95
811.14	1662.95
811.31	1728.49
811.48	1689.57
811.66	1689.57
811.83	1722.34
812.00	1718.25
812.18	1753.06
812.35	1816.55
812.52	1624.04
812.69	1685.48
812.87	1708.01
813.04	1634.28
813.21	1679.33
813.39	1542.12
813.56	1685.48
813.73	1826.79
813.91	1628.14
814.08	1757.16
814.25	1779.68
814.42	1652.71
814.60	1716.20
814.77	1710.05
814.94	1714.15
815.12	1755.11
815.29	1773.54
815.46	1621.99
815.63	1648.61
815.81	1714.15
815.98	1652.71
816.15	1689.57
816.33	1746.92
816.50	1685.48
816.67	1763.30
816.84	1607.66
817.02	1665.00
817.19	1701.86
817.36	1734.63
817.53	1769.44
817.71	1703.91
817.88	1724.39
818.05	1730.53
818.22	1652.71
818.40	1783.78
818.57	1716.20
818.74	1724.39
818.91	1673.19
819.09	1802.21
819.26	1804.26
819.43	1619.94
819.60	1646.57
819.78	1734.63
819.95	1771.49
820.12	1705.96
820.29	1712.10
820.47	1787.88
820.64	1705.96
820.81	1662.95
820.98	1650.66
821.15	1652.71
821.33	1806.31
821.50	1589.22
821.67	1734.63
821.84	1718.25
822.02	1699.81
822.19	1765.35
822.36	1660.90
822.53	1660.90
822.70	1630.18
822.88	1673.19
823.05	1796.07
823.22	1677.29
823.39	1765.35
823.56	1712.10
823.74	1773.54
823.91	1675.24
824.08	1628.14
824.25	1669.09
824.42	1828.84
824.60	1638.38
824.77	1746.92
824.94	1718.25
825.11	1748.97
825.28	1642.47
825.45	1728.49
825.63	1781.73
825.80	1728.49
825.97	1746.92
826.14	1705.96
826.31	1703.91
826.48	1755.11
826.66	1675.24
826.83	1701.86
827.00	1744.87
827.17	1634.28
827.34	1644.52
827.51	1712.10
827.69	1685.48
827.86	1667.05
828.03	1691.62
828.20	1697.77
828.37	1656.81
828.54	1708.01
828.71	1630.18
828.89	1824.74
829.06	1703.91
829.23	1804.26
829.40	1656.81
829.57	1722.34
829.74	1701.86
829.91	1675.24
830.09	1730.53
830.26	1687.53
830.43	1814.50
830.60	1667.05
830.77	1824.74
830.94	1773.54
831.11	1765.35
831.28	1693.67
831.46	1779.68
831.63	1732.58
831.80	1675.24
831.97	1720.29
832.14	1607.66
832.31	1771.49
832.48	1705.96
832.65	1746.92
832.82	1751.01
832.99	1742.82
833.17	1636.33
833.34	1761.25
833.51	1726.44
833.68	1669.09
833.85	1767.40
834.02	1732.58
834.19	1648.61
834.36	1601.51
834.53	1769.44
834.70	1789.92
834.87	1783.78
835.04	1667.05
835.22	1685.48
835.39	1691.62
835.56	1677.29
835.73	1609.70
835.90	1759.21
836.07	1675.24
836.24	1736.68
836.41	1716.20
836.58	1656.81
836.75	1777.64
836.92	1761.25
837.09	1681.38
837.26	1781.73
837.43	1761.25
837.60	1724.39
837.77	1650.66
837.94	1730.53
838.12	1718.25
838.29	1675.24
838.46	1595.37
838.63	1607.66
838.80	1802.21
838.97	1791.97
839.14	1687.53
839.31	1693.67
839.48	1746.92
839.65	1632.23
839.82	1671.14
839.99	1679.33
840.16	1722.34
840.33	1683.43
840.50	1718.25
840.67	1658.85
840.84	1556.46
841.01	1689.57
841.18	1673.19
841.35	1662.95
841.52	1732.58
841.69	1845.22
841.86	1652.71
842.03	1632.23
842.20	1769.44
842.37	1669.09
842.54	1650.66
842.71	1681.38
842.88	1660.90
843.05	1802.21
843.22	1734.63
843.39	1685.48
843.56	1662.95
843.73	1607.66
843.90	1798.12
844.07	1724.39
844.24	1796.07
844.41	1763.30
844.58	1673.19
844.75	1714.15
844.92	1771.49
845.09	1734.63
845.26	1728.49
845.43	1777.64
845.60	1632.23
845.77	1820.64
845.94	1701.86
846.10	1757.16
846.27	1650.66
846.44	1662.95
846.61	1689.57
846.78	1751.01
846.95	1785.83
847.12	1705.96
847.29	1675.24
847.46	1662.95
847.63	1751.01
847.80	1650.66
847.97	1695.72
848.14	1800.16
848.31	1730.53
848.48	1660.90
848.65	1705.96
848.82	1703.91
848.98	1839.08
849.15	1755.11
849.32	1791.97
849.49	1814.50
849.66	1650.66
849.83	1720.29
850.00	1650.66
850.17	1808.36
850.34	1716.20
850.51	1751.01
850.68	1744.87
850.85	1898.47
851.01	1656.81
851.18	1708.01
851.35	1660.90
851.52	1761.25
851.69	1767.40
851.86	1673.19
852.03	1730.53
852.20	1759.21
852.37	1667.05
852.53	1632.23
852.70	1718.25
852.87	1701.86
853.04	1712.10
853.21	1724.39
853.38	1748.97
853.55	1685.48
853.72	1773.54
853.89	1697.77
854.05	1640.42
854.22	1687.53
854.39	1722.34
854.56	1740.77
854.73	1783.78
854.90	1642.47
855.07	1738.73
855.23	1681.38
855.40	1656.81
855.57	1671.14
855.74	1599.46
855.91	1853.41
856.08	1648.61
856.25	1626.09
856.41	1718.25
856.58	1769.44
856.75	1718.25
856.92	1710.05
857.09	1773.54
857.26	1650.66
857.42	1669.09
857.59	1669.09
857.76	1679.33
857.93	1730.53
858.10	1705.96
858.27	1632.23
858.43	1669.09
858.60	1693.67
858.77	1648.61
858.94	1679.33
859.11	1816.55
859.27	1683.43
859.44	1648.61
859.61	1843.17
859.78	1724.39
859.95	1714.15
860.12	1679.33
860.28	1804.26
860.45	1773.54
860.62	1710.05
860.79	1705.96
860.95	1658.85
861.12	1669.09
861.29	1644.52
861.46	1628.14
861.63	1693.67
861.79	1689.57
861.96	1720.29
862.13	1673.19
862.30	1810.40
862.47	1574.89
862.63	1685.48
862.80	1734.63
862.97	1771.49
863.14	1798.12
863.30	1619.94
863.47	1658.85
863.64	1832.93
863.81	1724.39
863.97	1703.91
864.14	1755.11
864.31	1708.01
864.48	1765.35
864.65	1648.61
864.81	1730.53
864.98	1703.91
865.15	1728.49
865.32	1751.01
865.48	1773.54
865.65	1808.36
865.82	1712.10
865.98	1740.77
866.15	1726.44
866.32	1720.29
866.49	1710.05
866.65	1740.77
866.82	1634.28
866.99	1742.82
867.16	1644.52
867.32	1650.66
867.49	1710.05
867.66	1734.63
867.83	1693.67
867.99	1533.93
868.16	1667.05
868.33	1652.71
868.49	1673.19
868.66	1693.67
868.83	1824.74
868.99	1693.67
869.16	1800.16
869.33	1761.25
869.50	1728.49
869.66	1724.39
869.83	1724.39
870.00	1652.71
870.16	1724.39
870.33	1755.11
870.50	1791.97
870.66	1699.81
870.83	1822.69
871.00	1703.91
871.17	1755.11
871.33	1748.97
871.50	1630.18
871.67	1693.67
871.83	1632.23
872.00	1800.16
872.17	1712.10
872.33	1857.51
872.50	1746.92
872.67	1689.57
872.83	1685.48
873.00	1714.15
873.17	1738.73
873.33	1740.77
873.50	1728.49
873.67	1675.24
873.83	1654.76
874.00	1712.10
874.16	1783.78
874.33	1755.11
874.50	1677.29
874.66	1781.73
874.83	1607.66
875.00	1773.54
875.16	1701.86
875.33	1822.69
875.50	1558.50
875.66	1624.04
875.83	1705.96
875.99	1716.20
876.16	1693.67
876.33	1566.70
876.49	1730.53
876.66	1695.72
876.83	1724.39
876.99	1701.86
877.16	1785.83
877.32	1679.33
877.49	1734.63
877.66	1658.85
877.82	1783.78
877.99	1710.05
878.15	1757.16
878.32	1691.62
878.49	1712.10
878.65	1615.85
878.82	1771.49
878.98	1603.56
879.15	1769.44
879.32	1681.38
879.48	1722.34
879.65	1607.66
879.81	1669.09
879.98	1683.43
880.15	1763.30
880.31	1701.86
880.48	1640.42
880.64	1785.83
880.81	1710.05
880.97	1816.55
881.14	1748.97
881.31	1644.52
881.47	1837.03
881.64	1667.05
881.80	1630.18
881.97	1691.62
882.13	1755.11
882.30	1656.81
882.47	1697.77
882.63	1660.90
882.80	1619.94
882.96	1757.16
883.13	1810.40
883.29	1712.10
883.46	1724.39
883.62	1779.68
883.79	1660.90
883.95	1726.44
884.12	1781.73
884.29	1720.29
884.45	1775.59
884.62	1757.16
884.78	1652.71
884.95	1761.25
885.11	1714.15
885.28	1806.31
885.44	1691.62
885.61	1703.91
885.77	1789.92
885.94	1759.21
886.10	1765.35
886.27	1589.22
886.43	1851.36
886.60	1740.77
886.76	1681.38
886.93	1683.43
887.09	1767.40
887.26	1634.28
887.42	1712.10
887.59	1812.45
887.75	1845.22
887.92	1734.63
888.08	1789.92
888.25	1777.64
888.41	1740.77
888.58	1722.34
888.74	1667.05
888.91	1689.57
>>>>>End Processed Spectral Data<<<<<
