SpectraSuite Data File
++++++++++++++++++++++++++++++++++++
Date: Mon Jun 06 15:10:57 CEST 2016
User: root
Dark Spectrum Present: No
Reference Spectrum Present: No
Number of Sampled Component Spectra: 1
Spectrometers: USB4C02835
Integration Time (usec): 100000 (USB4C02835)
Spectra Averaged: 1 (USB4C02835)
Boxcar Smoothing: 0 (USB4C02835)
Correct for Electrical Dark: No (USB4C02835)
Strobe/Lamp Enabled: No (USB4C02835)
Correct for Detector Non-linearity: No (USB4C02835)
Correct for Stray Light: No (USB4C02835)
Number of Pixels in Processed Spectrum: 3648
>>>>>Begin Processed Spectral Data<<<<<
177.47	1452.01
177.69	1452.01
177.91	1452.01
178.13	1513.45
178.36	1460.20
178.58	1660.90
178.80	1648.61
179.02	1595.37
179.24	1724.39
179.46	1726.44
179.68	1796.07
179.90	1654.76
180.13	1708.01
180.35	1726.44
180.57	1662.95
180.79	1775.59
181.01	1683.43
181.23	1787.88
181.45	1738.73
181.67	1714.15
181.90	1748.97
182.12	1697.77
182.34	1640.42
182.56	1796.07
182.78	1718.25
183.00	1710.05
183.22	1769.44
183.44	1624.04
183.66	1863.65
183.89	1863.65
184.11	1722.34
184.33	1681.38
184.55	1783.78
184.77	1699.81
184.99	1681.38
185.21	1673.19
185.43	1722.34
185.65	1744.87
185.87	1712.10
186.10	1830.88
186.32	1843.17
186.54	1689.57
186.76	1751.01
186.98	1832.93
187.20	1710.05
187.42	1652.71
187.64	1685.48
187.86	1708.01
188.08	1785.83
188.30	1660.90
188.52	1665.00
188.75	1810.40
188.97	1703.91
189.19	1673.19
189.41	1689.57
189.63	1722.34
189.85	1714.15
190.07	1626.09
190.29	1632.23
190.51	1771.49
190.73	1509.35
190.95	1708.01
191.17	1681.38
191.39	1665.00
191.61	1642.47
191.84	1726.44
192.06	1734.63
192.28	1626.09
192.50	1849.32
192.72	1658.85
192.94	1681.38
193.16	1671.14
193.38	1632.23
193.60	1632.23
193.82	1691.62
194.04	1769.44
194.26	1751.01
194.48	1757.16
194.70	1605.61
194.92	1681.38
195.14	1763.30
195.36	1769.44
195.58	1689.57
195.80	1658.85
196.02	1683.43
196.24	1716.20
196.46	1693.67
196.69	1630.18
196.91	1802.21
197.13	1751.01
197.35	1689.57
197.57	1796.07
197.79	1771.49
198.01	1822.69
198.23	1812.45
198.45	1755.11
198.67	1615.85
198.89	1632.23
199.11	1845.22
199.33	1732.58
199.55	1570.79
199.77	1703.91
199.99	1781.73
200.21	1712.10
200.43	1710.05
200.65	1656.81
200.87	1640.42
201.09	1740.77
201.31	1640.42
201.53	1755.11
201.75	1695.72
201.97	1648.61
202.19	1669.09
202.41	1757.16
202.63	1816.55
202.85	1679.33
203.07	1802.21
203.29	1675.24
203.51	1695.72
203.73	1652.71
203.95	1824.74
204.17	1789.92
204.39	1753.06
204.61	1654.76
204.83	1681.38
205.05	1708.01
205.27	1769.44
205.49	1849.32
205.71	1673.19
205.93	1626.09
206.15	1681.38
206.37	1685.48
206.59	1673.19
206.81	1716.20
207.03	1642.47
207.25	1689.57
207.47	1742.82
207.69	1693.67
207.91	1806.31
208.13	1804.26
208.34	1689.57
208.56	1628.14
208.78	1794.02
209.00	1669.09
209.22	1640.42
209.44	1710.05
209.66	1669.09
209.88	1738.73
210.10	1669.09
210.32	1701.86
210.54	1773.54
210.76	1656.81
210.98	1759.21
211.20	1597.42
211.42	1759.21
211.64	1791.97
211.86	1621.99
212.08	1703.91
212.30	1732.58
212.52	1693.67
212.74	1636.33
212.96	1658.85
213.17	1740.77
213.39	1763.30
213.61	1794.02
213.83	1648.61
214.05	1636.33
214.27	1765.35
214.49	1687.53
214.71	1689.57
214.93	1834.98
215.15	1710.05
215.37	1716.20
215.59	1673.19
215.81	1765.35
216.03	1734.63
216.24	1710.05
216.46	1736.68
216.68	1716.20
216.90	1720.29
217.12	1714.15
217.34	1767.40
217.56	1705.96
217.78	1824.74
218.00	1753.06
218.22	1722.34
218.44	1697.77
218.66	1726.44
218.87	1849.32
219.09	1746.92
219.31	1648.61
219.53	1730.53
219.75	1724.39
219.97	1683.43
220.19	1722.34
220.41	1722.34
220.63	1755.11
220.85	1742.82
221.06	1665.00
221.28	1769.44
221.50	1695.72
221.72	1742.82
221.94	1669.09
222.16	1681.38
222.38	1773.54
222.60	1730.53
222.82	1718.25
223.03	1718.25
223.25	1560.55
223.47	1732.58
223.69	1806.31
223.91	1751.01
224.13	1634.28
224.35	1671.14
224.57	1771.49
224.78	1736.68
225.00	1617.90
225.22	1740.77
225.44	1755.11
225.66	1724.39
225.88	1740.77
226.10	1765.35
226.32	1710.05
226.53	1779.68
226.75	1683.43
226.97	1644.52
227.19	1759.21
227.41	1669.09
227.63	1695.72
227.85	1673.19
228.06	1673.19
228.28	1722.34
228.50	1816.55
228.72	1679.33
228.94	1699.81
229.16	1628.14
229.37	1652.71
229.59	1673.19
229.81	1824.74
230.03	1691.62
230.25	1708.01
230.47	1679.33
230.69	1714.15
230.90	1689.57
231.12	1691.62
231.34	1742.82
231.56	1781.73
231.78	1660.90
232.00	1675.24
232.21	1687.53
232.43	1640.42
232.65	1599.46
232.87	1734.63
233.09	1697.77
233.30	1697.77
233.52	1716.20
233.74	1751.01
233.96	1675.24
234.18	1683.43
234.40	1665.00
234.61	1781.73
234.83	1632.23
235.05	1699.81
235.27	1863.65
235.49	1812.45
235.70	1716.20
235.92	1771.49
236.14	1714.15
236.36	1834.98
236.58	1634.28
236.79	1812.45
237.01	1689.57
237.23	1636.33
237.45	1757.16
237.67	1648.61
237.88	1751.01
238.10	1857.51
238.32	1656.81
238.54	1654.76
238.76	1646.57
238.97	1703.91
239.19	1681.38
239.41	1767.40
239.63	1746.92
239.85	1607.66
240.06	1679.33
240.28	1673.19
240.50	1722.34
240.72	1726.44
240.93	1701.86
241.15	1693.67
241.37	1714.15
241.59	1761.25
241.81	1695.72
242.02	1710.05
242.24	1720.29
242.46	1744.87
242.68	1650.66
242.89	1691.62
243.11	1775.59
243.33	1714.15
243.55	1798.12
243.76	1720.29
243.98	1642.47
244.20	1693.67
244.42	1761.25
244.64	1812.45
244.85	1683.43
245.07	1640.42
245.29	1773.54
245.51	1652.71
245.72	1681.38
245.94	1789.92
246.16	1708.01
246.38	1806.31
246.59	1683.43
246.81	1626.09
247.03	1644.52
247.24	1621.99
247.46	1667.05
247.68	1718.25
247.90	1687.53
248.11	1714.15
248.33	1714.15
248.55	1726.44
248.77	1720.29
248.98	1671.14
249.20	1806.31
249.42	1720.29
249.64	1777.64
249.85	1757.16
250.07	1681.38
250.29	1810.40
250.50	1796.07
250.72	1599.46
250.94	1736.68
251.16	1705.96
251.37	1722.34
251.59	1716.20
251.81	1712.10
252.02	1761.25
252.24	1628.14
252.46	1761.25
252.68	1697.77
252.89	1656.81
253.11	1564.65
253.33	1732.58
253.54	1728.49
253.76	1677.29
253.98	1685.48
254.20	1691.62
254.41	1650.66
254.63	1730.53
254.85	1685.48
255.06	1716.20
255.28	1712.10
255.50	1675.24
255.71	1673.19
255.93	1669.09
256.15	1658.85
256.36	1773.54
256.58	1671.14
256.80	1767.40
257.02	1781.73
257.23	1689.57
257.45	1665.00
257.67	1753.06
257.88	1701.86
258.10	1695.72
258.32	1755.11
258.53	1738.73
258.75	1765.35
258.97	1656.81
259.18	1755.11
259.40	1761.25
259.62	1830.88
259.83	1740.77
260.05	1785.83
260.27	2015.20
260.48	1710.05
260.70	1619.94
260.92	1718.25
261.13	1705.96
261.35	1656.81
261.57	1755.11
261.78	1638.38
262.00	1646.57
262.22	1751.01
262.43	1710.05
262.65	1693.67
262.86	1736.68
263.08	1744.87
263.30	1708.01
263.51	1681.38
263.73	1673.19
263.95	1763.30
264.16	1720.29
264.38	1626.09
264.60	1787.88
264.81	1667.05
265.03	1716.20
265.25	1777.64
265.46	1701.86
265.68	1722.34
265.89	1730.53
266.11	1585.13
266.33	1742.82
266.54	1767.40
266.76	1798.12
266.98	1761.25
267.19	1830.88
267.41	1800.16
267.62	1779.68
267.84	1687.53
268.06	1810.40
268.27	1673.19
268.49	1789.92
268.70	1671.14
268.92	1675.24
269.14	1693.67
269.35	1703.91
269.57	1716.20
269.79	1718.25
270.00	1603.56
270.22	1818.60
270.43	1691.62
270.65	1538.02
270.87	1742.82
271.08	1710.05
271.30	1767.40
271.51	1726.44
271.73	1808.36
271.95	1771.49
272.16	1699.81
272.38	1712.10
272.59	1677.29
272.81	1716.20
273.02	1646.57
273.24	1732.58
273.46	1699.81
273.67	1650.66
273.89	1658.85
274.10	1693.67
274.32	1763.30
274.54	1744.87
274.75	1662.95
274.97	1712.10
275.18	1712.10
275.40	1722.34
275.61	1708.01
275.83	1677.29
276.05	1642.47
276.26	1722.34
276.48	1783.78
276.69	1646.57
276.91	1722.34
277.12	1794.02
277.34	1720.29
277.55	1783.78
277.77	1742.82
277.99	1705.96
278.20	1703.91
278.42	1624.04
278.63	1732.58
278.85	1626.09
279.06	1687.53
279.28	1773.54
279.49	1726.44
279.71	1789.92
279.93	1753.06
280.14	1759.21
280.36	1634.28
280.57	1736.68
280.79	1759.21
281.00	1607.66
281.22	1626.09
281.43	1771.49
281.65	1656.81
281.86	1683.43
282.08	1732.58
282.29	1777.64
282.51	1611.75
282.73	1751.01
282.94	1746.92
283.16	1804.26
283.37	1732.58
283.59	1599.46
283.80	1732.58
284.02	1683.43
284.23	1714.15
284.45	1642.47
284.66	1656.81
284.88	1693.67
285.09	1728.49
285.31	1767.40
285.52	1761.25
285.74	1613.80
285.95	1667.05
286.17	1730.53
286.38	1843.17
286.60	1714.15
286.81	1697.77
287.03	1734.63
287.24	1722.34
287.46	1757.16
287.67	1845.22
287.89	1837.03
288.10	1685.48
288.32	1656.81
288.53	1759.21
288.75	1738.73
288.96	1798.12
289.18	1681.38
289.39	1660.90
289.61	1800.16
289.82	1810.40
290.04	1843.17
290.25	1615.85
290.47	1644.52
290.68	1646.57
290.90	1730.53
291.11	1628.14
291.33	1759.21
291.54	1605.61
291.76	1628.14
291.97	1646.57
292.18	1673.19
292.40	1716.20
292.61	1675.24
292.83	1877.99
293.04	1728.49
293.26	1734.63
293.47	1677.29
293.69	1601.51
293.90	1722.34
294.12	1822.69
294.33	1687.53
294.55	1705.96
294.76	1751.01
294.97	1773.54
295.19	1759.21
295.40	1624.04
295.62	1708.01
295.83	1724.39
296.05	1656.81
296.26	1794.02
296.48	1699.81
296.69	1712.10
296.90	1695.72
297.12	1810.40
297.33	1783.78
297.55	1697.77
297.76	1791.97
297.98	1785.83
298.19	1783.78
298.41	1705.96
298.62	1681.38
298.83	1794.02
299.05	1753.06
299.26	1644.52
299.48	1697.77
299.69	1703.91
299.90	1603.56
300.12	1697.77
300.33	1677.29
300.55	1630.18
300.76	1697.77
300.98	1609.70
301.19	1742.82
301.40	1675.24
301.62	1705.96
301.83	1712.10
302.05	1720.29
302.26	1779.68
302.47	1720.29
302.69	1675.24
302.90	1734.63
303.12	1570.79
303.33	1794.02
303.54	1822.69
303.76	1673.19
303.97	1685.48
304.19	1832.93
304.40	1634.28
304.61	1755.11
304.83	1759.21
305.04	1769.44
305.26	1736.68
305.47	1591.27
305.68	1669.09
305.90	1665.00
306.11	1791.97
306.33	1722.34
306.54	1634.28
306.75	1634.28
306.97	1630.18
307.18	1634.28
307.39	1701.86
307.61	1748.97
307.82	1687.53
308.04	1673.19
308.25	1695.72
308.46	1705.96
308.68	1710.05
308.89	1695.72
309.10	1794.02
309.32	1767.40
309.53	1665.00
309.74	1732.58
309.96	1679.33
310.17	1738.73
310.39	1644.52
310.60	1646.57
310.81	1791.97
311.03	1667.05
311.24	1759.21
311.45	1595.37
311.67	1814.50
311.88	1722.34
312.09	1683.43
312.31	1591.27
312.52	1775.59
312.73	1642.47
312.95	1603.56
313.16	1574.89
313.37	1740.77
313.59	1746.92
313.80	1681.38
314.01	1796.07
314.23	1708.01
314.44	1624.04
314.65	1675.24
314.87	1562.60
315.08	1644.52
315.29	1779.68
315.51	1665.00
315.72	1597.42
315.93	1841.12
316.15	1779.68
316.36	1662.95
316.57	1681.38
316.79	1742.82
317.00	1716.20
317.21	1767.40
317.43	1662.95
317.64	1740.77
317.85	1632.23
318.07	1675.24
318.28	1716.20
318.49	1773.54
318.70	1964.00
318.92	1851.36
319.13	1796.07
319.34	1785.83
319.56	1746.92
319.77	1824.74
319.98	1898.47
320.20	1718.25
320.41	1767.40
320.62	1742.82
320.83	1656.81
321.05	1884.13
321.26	1742.82
321.47	1728.49
321.69	1820.64
321.90	1640.42
322.11	1701.86
322.32	1683.43
322.54	1804.26
322.75	1712.10
322.96	1796.07
323.18	1572.84
323.39	1615.85
323.60	1669.09
323.81	1757.16
324.03	1630.18
324.24	1634.28
324.45	1728.49
324.66	1671.14
324.88	1753.06
325.09	1722.34
325.30	1710.05
325.52	1738.73
325.73	1712.10
325.94	1673.19
326.15	1591.27
326.37	1783.78
326.58	1755.11
326.79	1812.45
327.00	1626.09
327.22	1691.62
327.43	1720.29
327.64	1652.71
327.85	1736.68
328.07	1736.68
328.28	1791.97
328.49	1632.23
328.70	1685.48
328.92	1722.34
329.13	1703.91
329.34	1751.01
329.55	1751.01
329.76	1693.67
329.98	1689.57
330.19	1822.69
330.40	1781.73
330.61	1689.57
330.83	1710.05
331.04	1648.61
331.25	1677.29
331.46	1697.77
331.68	1597.42
331.89	1771.49
332.10	1621.99
332.31	1640.42
332.52	1714.15
332.74	1736.68
332.95	1656.81
333.16	1765.35
333.37	1730.53
333.58	1665.00
333.80	1800.16
334.01	1646.57
334.22	1703.91
334.43	1669.09
334.64	1708.01
334.86	1611.75
335.07	1636.33
335.28	1810.40
335.49	1683.43
335.70	1722.34
335.92	1806.31
336.13	1890.28
336.34	1767.40
336.55	1658.85
336.76	1761.25
336.98	1617.90
337.19	1660.90
337.40	1787.88
337.61	1863.65
337.82	1712.10
338.04	1730.53
338.25	1550.31
338.46	1677.29
338.67	1722.34
338.88	1693.67
339.09	1667.05
339.31	1619.94
339.52	1566.70
339.73	1687.53
339.94	1630.18
340.15	1753.06
340.36	1781.73
340.58	1748.97
340.79	1681.38
341.00	1738.73
341.21	1632.23
341.42	1781.73
341.63	1654.76
341.85	1755.11
342.06	1673.19
342.27	1714.15
342.48	1761.25
342.69	1673.19
342.90	1722.34
343.12	1740.77
343.33	1712.10
343.54	1800.16
343.75	1746.92
343.96	1716.20
344.17	1585.13
344.38	1693.67
344.60	1656.81
344.81	1648.61
345.02	1697.77
345.23	1761.25
345.44	1820.64
345.65	1740.77
345.86	1681.38
346.07	1755.11
346.29	1697.77
346.50	1726.44
346.71	1748.97
346.92	1812.45
347.13	1828.84
347.34	1726.44
347.55	1695.72
347.76	1785.83
347.98	1689.57
348.19	1699.81
348.40	1751.01
348.61	1658.85
348.82	1722.34
349.03	1748.97
349.24	1673.19
349.45	1814.50
349.66	1632.23
349.88	1695.72
350.09	1681.38
350.30	1820.64
350.51	1812.45
350.72	1736.68
350.93	1693.67
351.14	1665.00
351.35	1652.71
351.56	1687.53
351.77	1681.38
351.99	1730.53
352.20	1875.94
352.41	1791.97
352.62	1687.53
352.83	1716.20
353.04	1705.96
353.25	1677.29
353.46	1730.53
353.67	1771.49
353.88	1640.42
354.09	1726.44
354.30	1648.61
354.52	1759.21
354.73	1736.68
354.94	1677.29
355.15	1681.38
355.36	1794.02
355.57	1742.82
355.78	1759.21
355.99	1652.71
356.20	1632.23
356.41	1669.09
356.62	1755.11
356.83	1697.77
357.04	1800.16
357.25	1591.27
357.46	1763.30
357.68	1658.85
357.89	1712.10
358.10	1724.39
358.31	1705.96
358.52	1669.09
358.73	1619.94
358.94	1736.68
359.15	1708.01
359.36	1763.30
359.57	1681.38
359.78	1732.58
359.99	1716.20
360.20	1732.58
360.41	1632.23
360.62	1837.03
360.83	1691.62
361.04	1708.01
361.25	1738.73
361.46	1804.26
361.67	1736.68
361.88	1708.01
362.09	1726.44
362.30	1787.88
362.51	1671.14
362.72	1710.05
362.93	1796.07
363.14	1695.72
363.35	1662.95
363.56	1675.24
363.78	1779.68
363.99	1769.44
364.20	1654.76
364.41	1718.25
364.62	1931.23
364.83	1697.77
365.04	1718.25
365.25	1796.07
365.46	1824.74
365.67	1697.77
365.88	1683.43
366.09	1667.05
366.30	1703.91
366.51	1683.43
366.72	1673.19
366.93	1679.33
367.14	1658.85
367.35	1800.16
367.56	1695.72
367.77	1714.15
367.98	1628.14
368.18	1699.81
368.39	1738.73
368.60	1691.62
368.81	1794.02
369.02	1667.05
369.23	1689.57
369.44	1689.57
369.65	1636.33
369.86	1751.01
370.07	1640.42
370.28	1619.94
370.49	1716.20
370.70	1728.49
370.91	1642.47
371.12	1656.81
371.33	1740.77
371.54	1675.24
371.75	1742.82
371.96	1603.56
372.17	1734.63
372.38	1736.68
372.59	1773.54
372.80	1634.28
373.01	1665.00
373.22	1714.15
373.43	1787.88
373.64	1603.56
373.85	1732.58
374.06	1812.45
374.26	1759.21
374.47	1685.48
374.68	1775.59
374.89	1687.53
375.10	1724.39
375.31	1742.82
375.52	1740.77
375.73	1730.53
375.94	1689.57
376.15	1775.59
376.36	1669.09
376.57	1615.85
376.78	1771.49
376.99	1708.01
377.20	1814.50
377.40	1714.15
377.61	1744.87
377.82	1662.95
378.03	1785.83
378.24	1796.07
378.45	1685.48
378.66	1779.68
378.87	1624.04
379.08	1613.80
379.29	1701.86
379.50	1880.04
379.71	1662.95
379.91	1755.11
380.12	1705.96
380.33	1683.43
380.54	1679.33
380.75	1699.81
380.96	1736.68
381.17	1769.44
381.38	1736.68
381.59	1732.58
381.80	1695.72
382.00	1777.64
382.21	1849.32
382.42	1785.83
382.63	1869.80
382.84	1746.92
383.05	1785.83
383.26	1818.60
383.47	1681.38
383.68	1787.88
383.88	1681.38
384.09	1673.19
384.30	1806.31
384.51	1785.83
384.72	1732.58
384.93	1595.37
385.14	1689.57
385.35	1751.01
385.55	1640.42
385.76	1787.88
385.97	1660.90
386.18	1568.74
386.39	1646.57
386.60	1669.09
386.81	1695.72
387.02	1738.73
387.22	1660.90
387.43	1794.02
387.64	1755.11
387.85	1832.93
388.06	2176.99
388.27	4192.19
388.48	6627.23
388.68	7829.38
388.89	9303.92
389.10	9238.39
389.31	8210.31
389.52	7075.73
389.73	6483.87
389.93	5973.92
390.14	5584.81
390.35	4951.99
390.56	4431.80
390.77	3585.99
390.98	3016.66
391.18	2484.19
391.39	2074.59
391.60	1863.65
391.81	1853.41
392.02	1695.72
392.23	1798.12
392.43	1724.39
392.64	1718.25
392.85	1740.77
393.06	1818.60
393.27	1720.29
393.47	1730.53
393.68	1755.11
393.89	1679.33
394.10	1789.92
394.31	1634.28
394.52	1687.53
394.72	1642.47
394.93	1771.49
395.14	1675.24
395.35	1722.34
395.56	1699.81
395.76	1800.16
395.97	1816.55
396.18	1789.92
396.39	1789.92
396.60	1937.38
396.80	1890.28
397.01	1877.99
397.22	1802.21
397.43	1808.36
397.64	1740.77
397.84	1763.30
398.05	1923.04
398.26	1757.16
398.47	1724.39
398.67	1794.02
398.88	1757.16
399.09	1779.68
399.30	1697.77
399.51	1773.54
399.71	1673.19
399.92	1669.09
400.13	1658.85
400.34	1705.96
400.54	1720.29
400.75	1759.21
400.96	1757.16
401.17	1771.49
401.37	1675.24
401.58	1716.20
401.79	1794.02
402.00	1865.70
402.21	2011.11
402.41	1980.39
402.62	1966.05
402.83	2050.02
403.04	2017.25
403.24	2107.36
403.45	1771.49
403.66	1959.91
403.87	1892.32
404.07	1843.17
404.28	1943.52
404.49	1896.42
404.70	1748.97
404.90	1800.16
405.11	1759.21
405.32	1730.53
405.52	1703.91
405.73	1755.11
405.94	1665.00
406.15	1699.81
406.35	1738.73
406.56	1681.38
406.77	1710.05
406.98	1705.96
407.18	1591.27
407.39	1892.32
407.60	1697.77
407.80	1671.14
408.01	1665.00
408.22	1789.92
408.43	1732.58
408.63	1724.39
408.84	1724.39
409.05	1751.01
409.25	1677.29
409.46	1740.77
409.67	1701.86
409.88	1669.09
410.08	1695.72
410.29	1726.44
410.50	1775.59
410.70	1701.86
410.91	1689.57
411.12	1781.73
411.32	1673.19
411.53	1673.19
411.74	1777.64
411.95	1812.45
412.15	1730.53
412.36	1775.59
412.57	1753.06
412.77	1787.88
412.98	1640.42
413.19	1714.15
413.39	1701.86
413.60	1761.25
413.81	1841.12
414.01	1689.57
414.22	1785.83
414.43	1785.83
414.63	1677.29
414.84	1722.34
415.05	1746.92
415.25	1798.12
415.46	1763.30
415.67	1640.42
415.87	1718.25
416.08	1744.87
416.29	1708.01
416.49	1720.29
416.70	1675.24
416.91	1683.43
417.11	1730.53
417.32	1787.88
417.53	1828.84
417.73	1681.38
417.94	1734.63
418.15	1685.48
418.35	1693.67
418.56	1751.01
418.77	1841.12
418.97	1615.85
419.18	1681.38
419.38	1609.70
419.59	1734.63
419.80	1783.78
420.00	1738.73
420.21	1734.63
420.42	1787.88
420.62	1722.34
420.83	1689.57
421.04	1699.81
421.24	1724.39
421.45	1720.29
421.65	1710.05
421.86	1634.28
422.07	1734.63
422.27	1722.34
422.48	1787.88
422.69	1691.62
422.89	1718.25
423.10	1728.49
423.30	1691.62
423.51	1738.73
423.72	1701.86
423.92	1742.82
424.13	1634.28
424.33	1634.28
424.54	1779.68
424.75	1662.95
424.95	1794.02
425.16	1718.25
425.36	1685.48
425.57	1705.96
425.78	1740.77
425.98	1849.32
426.19	1656.81
426.39	1646.57
426.60	1675.24
426.81	1771.49
427.01	1689.57
427.22	1685.48
427.42	1628.14
427.63	1724.39
427.83	1800.16
428.04	1851.36
428.25	1761.25
428.45	1779.68
428.66	1804.26
428.86	1697.77
429.07	1718.25
429.28	1701.86
429.48	1671.14
429.69	1624.04
429.89	1744.87
430.10	1640.42
430.30	1658.85
430.51	1808.36
430.71	1642.47
430.92	1677.29
431.13	1744.87
431.33	1761.25
431.54	1730.53
431.74	1818.60
431.95	1816.55
432.15	1644.52
432.36	1669.09
432.56	1791.97
432.77	1751.01
432.98	1857.51
433.18	1703.91
433.39	1753.06
433.59	1660.90
433.80	1880.04
434.00	1873.89
434.21	1740.77
434.41	1748.97
434.62	1808.36
434.82	1640.42
435.03	1697.77
435.23	1787.88
435.44	1669.09
435.64	1722.34
435.85	1767.40
436.06	1701.86
436.26	1837.03
436.47	1693.67
436.67	1656.81
436.88	1777.64
437.08	1767.40
437.29	1834.98
437.49	1761.25
437.70	1791.97
437.90	1638.38
438.11	1855.46
438.31	1812.45
438.52	1832.93
438.72	1826.79
438.93	1904.61
439.13	1755.11
439.34	1845.22
439.54	1724.39
439.75	1757.16
439.95	1818.60
440.16	1753.06
440.36	1757.16
440.57	1738.73
440.77	1816.55
440.98	1783.78
441.18	1742.82
441.39	1689.57
441.59	1654.76
441.80	1796.07
442.00	1769.44
442.21	1804.26
442.41	1574.89
442.62	1806.31
442.82	1683.43
443.02	1808.36
443.23	1730.53
443.43	1726.44
443.64	1841.12
443.84	1652.71
444.05	1798.12
444.25	1685.48
444.46	1720.29
444.66	1710.05
444.87	1738.73
445.07	1605.61
445.28	1736.68
445.48	1810.40
445.69	1761.25
445.89	1906.66
446.09	1779.68
446.30	2074.59
446.50	2693.08
446.71	3604.42
446.91	4229.06
447.12	4634.55
447.32	4638.65
447.53	4102.08
447.73	3866.56
447.93	3405.77
448.14	3268.56
448.34	3184.59
448.55	2828.24
448.75	2787.29
448.96	2658.26
449.16	2344.92
449.36	2277.34
449.57	2050.02
449.77	1886.18
449.98	1800.16
450.18	1927.14
450.39	1773.54
450.59	1693.67
450.79	1658.85
451.00	1732.58
451.20	1802.21
451.41	1697.77
451.61	1755.11
451.81	1724.39
452.02	1648.61
452.22	1728.49
452.43	1683.43
452.63	1769.44
452.84	1718.25
453.04	1687.53
453.24	1730.53
453.45	1722.34
453.65	1800.16
453.86	1814.50
454.06	1673.19
454.26	1753.06
454.47	1761.25
454.67	1765.35
454.87	1757.16
455.08	1710.05
455.28	1806.31
455.49	1771.49
455.69	1697.77
455.89	1789.92
456.10	1824.74
456.30	1695.72
456.51	1763.30
456.71	1755.11
456.91	1751.01
457.12	1738.73
457.32	1724.39
457.52	1708.01
457.73	1759.21
457.93	1787.88
458.14	1746.92
458.34	1619.94
458.54	1716.20
458.75	1726.44
458.95	1810.40
459.15	1757.16
459.36	1699.81
459.56	1832.93
459.76	1923.04
459.97	1730.53
460.17	1794.02
460.37	1775.59
460.58	1765.35
460.78	1773.54
460.99	1701.86
461.19	1681.38
461.39	1730.53
461.60	1652.71
461.80	1738.73
462.00	1630.18
462.21	1875.94
462.41	1654.76
462.61	1675.24
462.82	1679.33
463.02	1761.25
463.22	1716.20
463.43	1773.54
463.63	1794.02
463.83	1861.60
464.04	1732.58
464.24	1769.44
464.44	1726.44
464.64	1738.73
464.85	1718.25
465.05	1751.01
465.25	1787.88
465.46	1671.14
465.66	1767.40
465.86	1771.49
466.07	1777.64
466.27	1732.58
466.47	1662.95
466.68	1628.14
466.88	1832.93
467.08	1771.49
467.29	1791.97
467.49	1773.54
467.69	1755.11
467.89	1824.74
468.10	1757.16
468.30	1802.21
468.50	1757.16
468.71	1800.16
468.91	1701.86
469.11	1900.52
469.31	1738.73
469.52	1746.92
469.72	1751.01
469.92	1818.60
470.13	1673.19
470.33	1683.43
470.53	1783.78
470.73	2123.74
470.94	2240.48
471.14	2263.01
471.34	2559.96
471.54	2406.36
471.75	2267.10
471.95	2166.75
472.15	2097.12
472.36	2039.78
472.56	2074.59
472.76	2084.83
472.96	1998.82
473.17	1943.52
473.37	1902.56
473.57	1800.16
473.77	1738.73
473.98	1689.57
474.18	1746.92
474.38	1914.85
474.58	1716.20
474.79	1738.73
474.99	1722.34
475.19	1820.64
475.39	1734.63
475.60	1658.85
475.80	1736.68
476.00	1771.49
476.20	1710.05
476.41	1679.33
476.61	1789.92
476.81	1834.98
477.01	1724.39
477.21	1822.69
477.42	1794.02
477.62	1671.14
477.82	1746.92
478.02	1718.25
478.23	1785.83
478.43	1665.00
478.63	1746.92
478.83	1730.53
479.03	1726.44
479.24	1820.64
479.44	1880.04
479.64	1683.43
479.84	1636.33
480.04	1638.38
480.25	1828.84
480.45	1673.19
480.65	1730.53
480.85	1734.63
481.06	1617.90
481.26	1769.44
481.46	1751.01
481.66	1736.68
481.86	1699.81
482.06	1834.98
482.27	1728.49
482.47	1658.85
482.67	1757.16
482.87	1652.71
483.07	1798.12
483.28	1699.81
483.48	1699.81
483.68	1820.64
483.88	1699.81
484.08	1730.53
484.29	1691.62
484.49	1699.81
484.69	1662.95
484.89	1751.01
485.09	1789.92
485.29	1742.82
485.50	1746.92
485.70	1712.10
485.90	1898.47
486.10	1751.01
486.30	1744.87
486.50	1798.12
486.71	1802.21
486.91	1746.92
487.11	1820.64
487.31	1708.01
487.51	1710.05
487.71	1765.35
487.91	1617.90
488.12	1566.70
488.32	1548.26
488.52	1697.77
488.72	1615.85
488.92	1662.95
489.12	1777.64
489.32	1796.07
489.53	1759.21
489.73	1673.19
489.93	1837.03
490.13	1642.47
490.33	1601.51
490.53	1697.77
490.73	1722.34
490.94	1636.33
491.14	1789.92
491.34	1810.40
491.54	2176.99
491.74	2502.62
491.94	2832.34
492.14	2934.74
492.34	2922.45
492.54	2727.89
492.75	2420.70
492.95	2445.27
493.15	2263.01
493.35	2318.30
493.55	2277.34
493.75	2107.36
493.95	2084.83
494.15	2025.44
494.35	1888.23
494.56	1804.26
494.76	1800.16
494.96	1802.21
495.16	1781.73
495.36	1679.33
495.56	1751.01
495.76	1744.87
495.96	1771.49
496.16	1748.97
496.36	1816.55
496.56	1724.39
496.77	1832.93
496.97	1759.21
497.17	1816.55
497.37	1619.94
497.57	1759.21
497.77	1732.58
497.97	1726.44
498.17	1724.39
498.37	1705.96
498.57	1775.59
498.77	1691.62
498.97	1759.21
499.17	1806.31
499.38	1730.53
499.58	1869.80
499.78	1820.64
499.98	1751.01
500.18	1789.92
500.38	1673.19
500.58	2011.11
500.78	2521.05
500.98	4380.61
501.18	5582.76
501.38	6530.97
501.58	6809.50
501.78	6383.52
501.98	5343.15
502.18	4775.86
502.38	4263.87
502.58	3950.53
502.78	3672.01
502.98	3606.47
503.18	3209.17
503.38	3024.85
503.59	2727.89
503.79	2637.78
503.99	2459.61
504.19	2279.39
504.39	2176.99
504.59	2176.99
504.79	2209.76
504.99	2068.45
505.19	1898.47
505.39	1906.66
505.59	2033.63
505.79	1894.37
505.99	1857.51
506.19	1826.79
506.39	1910.75
506.59	1681.38
506.79	1703.91
506.99	1869.80
507.19	1746.92
507.39	1781.73
507.59	1718.25
507.79	1708.01
507.99	1746.92
508.19	1816.55
508.39	1751.01
508.59	1736.68
508.79	1748.97
508.99	1775.59
509.19	1746.92
509.39	1783.78
509.59	1708.01
509.79	1648.61
509.99	1886.18
510.19	1742.82
510.39	1781.73
510.59	1808.36
510.79	1677.29
510.99	1660.90
511.19	1724.39
511.39	1808.36
511.59	1841.12
511.79	1894.37
511.99	1736.68
512.19	1728.49
512.38	1757.16
512.58	1673.19
512.78	1810.40
512.98	1769.44
513.18	1830.88
513.38	1734.63
513.58	1822.69
513.78	1724.39
513.98	1699.81
514.18	1734.63
514.38	1712.10
514.58	1748.97
514.78	1705.96
514.98	1732.58
515.18	1728.49
515.38	1642.47
515.58	1771.49
515.78	1708.01
515.98	1798.12
516.18	1705.96
516.38	1781.73
516.57	1759.21
516.77	1720.29
516.97	1783.78
517.17	1703.91
517.37	1636.33
517.57	1802.21
517.77	1759.21
517.97	1726.44
518.17	1810.40
518.37	1693.67
518.57	1742.82
518.77	1667.05
518.97	1773.54
519.16	1695.72
519.36	1800.16
519.56	1687.53
519.76	1705.96
519.96	1693.67
520.16	1826.79
520.36	1660.90
520.56	1794.02
520.76	1714.15
520.96	1761.25
521.16	1796.07
521.35	1757.16
521.55	1861.60
521.75	1693.67
521.95	1748.97
522.15	1779.68
522.35	1658.85
522.55	1669.09
522.75	1681.38
522.95	1714.15
523.14	1742.82
523.34	1796.07
523.54	1699.81
523.74	1755.11
523.94	1791.97
524.14	1691.62
524.34	1812.45
524.54	1834.98
524.73	1718.25
524.93	1742.82
525.13	1716.20
525.33	1644.52
525.53	1906.66
525.73	1818.60
525.93	1832.93
526.13	1658.85
526.32	1742.82
526.52	1806.31
526.72	1781.73
526.92	1730.53
527.12	1718.25
527.32	1724.39
527.52	1814.50
527.71	1714.15
527.91	1718.25
528.11	1720.29
528.31	1781.73
528.51	1681.38
528.71	1771.49
528.90	1789.92
529.10	1734.63
529.30	1785.83
529.50	1593.32
529.70	1724.39
529.90	1757.16
530.09	1783.78
530.29	1648.61
530.49	1714.15
530.69	1837.03
530.89	1734.63
531.09	1765.35
531.28	1734.63
531.48	1787.88
531.68	1759.21
531.88	1742.82
532.08	1771.49
532.28	1665.00
532.47	1849.32
532.67	1841.12
532.87	1802.21
533.07	1691.62
533.27	1810.40
533.46	1742.82
533.66	1816.55
533.86	1689.57
534.06	1654.76
534.26	1746.92
534.45	1757.16
534.65	1732.58
534.85	1667.05
535.05	1691.62
535.25	1720.29
535.44	1644.52
535.64	1796.07
535.84	1730.53
536.04	1708.01
536.24	1671.14
536.43	1712.10
536.63	1736.68
536.83	1701.86
537.03	1714.15
537.22	1638.38
537.42	1640.42
537.62	1761.25
537.82	1695.72
538.02	1873.89
538.21	1828.84
538.41	1853.41
538.61	1736.68
538.81	1744.87
539.00	1828.84
539.20	1648.61
539.40	1722.34
539.60	1734.63
539.79	1820.64
539.99	1728.49
540.19	1738.73
540.39	1648.61
540.58	1751.01
540.78	1783.78
540.98	1734.63
541.18	1724.39
541.37	1814.50
541.57	1753.06
541.77	1773.54
541.97	1714.15
542.16	1677.29
542.36	1773.54
542.56	1771.49
542.76	1820.64
542.95	1740.77
543.15	1656.81
543.35	1787.88
543.54	1634.28
543.74	1710.05
543.94	1808.36
544.14	1714.15
544.33	1738.73
544.53	1763.30
544.73	1736.68
544.93	1636.33
545.12	1763.30
545.32	1681.38
545.52	1773.54
545.71	1718.25
545.91	1722.34
546.11	1687.53
546.30	1697.77
546.50	1638.38
546.70	1691.62
546.90	1800.16
547.09	1669.09
547.29	1728.49
547.49	1781.73
547.68	1779.68
547.88	1652.71
548.08	1703.91
548.27	2158.56
548.47	1695.72
548.67	1679.33
548.87	1701.86
549.06	1705.96
549.26	1687.53
549.46	1751.01
549.65	1683.43
549.85	1693.67
550.05	1781.73
550.24	1722.34
550.44	1705.96
550.64	1746.92
550.83	1779.68
551.03	1773.54
551.23	1751.01
551.42	1765.35
551.62	1685.48
551.82	1806.31
552.01	1763.30
552.21	1814.50
552.41	1796.07
552.60	1789.92
552.80	1701.86
553.00	1673.19
553.19	1834.98
553.39	1882.08
553.59	1673.19
553.78	1722.34
553.98	1841.12
554.17	1687.53
554.37	1730.53
554.57	1755.11
554.76	1638.38
554.96	1730.53
555.16	1728.49
555.35	1722.34
555.55	1693.67
555.75	1728.49
555.94	1814.50
556.14	1691.62
556.33	1767.40
556.53	1701.86
556.73	1705.96
556.92	1818.60
557.12	1796.07
557.32	1810.40
557.51	1806.31
557.71	1736.68
557.90	1820.64
558.10	1841.12
558.30	1748.97
558.49	1703.91
558.69	1830.88
558.88	1781.73
559.08	1789.92
559.28	1701.86
559.47	1703.91
559.67	1779.68
559.86	1880.04
560.06	1755.11
560.26	1738.73
560.45	1748.97
560.65	1728.49
560.84	1705.96
561.04	1732.58
561.24	1806.31
561.43	1689.57
561.63	1820.64
561.82	1724.39
562.02	1787.88
562.22	1697.77
562.41	1769.44
562.61	1732.58
562.80	1728.49
563.00	1794.02
563.19	1779.68
563.39	1720.29
563.59	1761.25
563.78	1665.00
563.98	1611.75
564.17	1693.67
564.37	1615.85
564.56	1648.61
564.76	1658.85
564.96	1851.36
565.15	1740.77
565.35	1851.36
565.54	1767.40
565.74	1771.49
565.93	1708.01
566.13	1734.63
566.32	1761.25
566.52	1687.53
566.71	1708.01
566.91	1783.78
567.11	1751.01
567.30	1773.54
567.50	1800.16
567.69	1738.73
567.89	1783.78
568.08	1689.57
568.28	1712.10
568.47	1726.44
568.67	1781.73
568.86	1691.62
569.06	1818.60
569.25	1695.72
569.45	1640.42
569.64	1703.91
569.84	1720.29
570.04	1710.05
570.23	1722.34
570.43	1730.53
570.62	1726.44
570.82	1847.27
571.01	1658.85
571.21	1656.81
571.40	1621.99
571.60	1810.40
571.79	1822.69
571.99	1794.02
572.18	1724.39
572.38	1734.63
572.57	1761.25
572.77	1669.09
572.96	1892.32
573.16	1748.97
573.35	1732.58
573.55	1826.79
573.74	1794.02
573.94	1726.44
574.13	1726.44
574.33	1730.53
574.52	1773.54
574.71	1736.68
574.91	1818.60
575.10	1695.72
575.30	1714.15
575.49	1646.57
575.69	1697.77
575.88	1751.01
576.08	1669.09
576.27	1771.49
576.47	1673.19
576.66	1869.80
576.86	1804.26
577.05	1705.96
577.25	1693.67
577.44	1830.88
577.64	1757.16
577.83	1775.59
578.02	1767.40
578.22	1851.36
578.41	1794.02
578.61	1736.68
578.80	1679.33
579.00	1710.05
579.19	1734.63
579.39	1763.30
579.58	1816.55
579.77	1751.01
579.97	1843.17
580.16	1791.97
580.36	1826.79
580.55	1828.84
580.75	1753.06
580.94	1763.30
581.13	1804.26
581.33	1898.47
581.52	1755.11
581.72	1867.75
581.91	1877.99
582.11	1685.48
582.30	1742.82
582.49	1800.16
582.69	1824.74
582.88	1810.40
583.08	1685.48
583.27	1798.12
583.47	1775.59
583.66	1740.77
583.85	1761.25
584.05	1744.87
584.24	1769.44
584.44	1853.41
584.63	1851.36
584.82	1828.84
585.02	1757.16
585.21	1804.26
585.41	1810.40
585.60	1822.69
585.79	1947.62
585.99	1898.47
586.18	1863.65
586.37	2205.66
586.57	3418.06
586.76	9490.29
586.96	23553.69
587.15	33201.67
587.34	38442.42
587.54	40142.24
587.73	34872.81
587.93	24874.63
588.12	20549.32
588.31	17497.84
588.51	15466.26
588.70	14425.89
588.89	13334.32
589.09	12078.92
589.28	10346.34
589.47	9142.13
589.67	7538.57
589.86	6332.32
590.06	4822.97
590.25	3854.28
590.44	3000.27
590.64	2475.99
590.83	2269.15
591.02	2072.54
591.22	2002.91
591.41	1791.97
591.60	1843.17
591.80	1933.28
591.99	1757.16
592.18	1800.16
592.38	1839.08
592.57	1753.06
592.76	1785.83
592.96	1798.12
593.15	1789.92
593.34	1808.36
593.54	1775.59
593.73	1787.88
593.92	1783.78
594.12	1761.25
594.31	1728.49
594.50	1787.88
594.70	1802.21
594.89	1931.23
595.08	1636.33
595.28	1734.63
595.47	1972.19
595.66	1734.63
595.86	1628.14
596.05	1710.05
596.24	1656.81
596.43	1861.60
596.63	1767.40
596.82	1771.49
597.01	1748.97
597.21	1843.17
597.40	1724.39
597.59	1730.53
597.79	1755.11
597.98	1841.12
598.17	1771.49
598.36	1734.63
598.56	1779.68
598.75	1738.73
598.94	1761.25
599.14	1738.73
599.33	1660.90
599.52	1761.25
599.71	1802.21
599.91	1814.50
600.10	1740.77
600.29	1708.01
600.48	1773.54
600.68	1796.07
600.87	1748.97
601.06	1607.66
601.26	1791.97
601.45	1789.92
601.64	1714.15
601.83	1830.88
602.03	1701.86
602.22	1642.47
602.41	1800.16
602.60	1886.18
602.80	1798.12
602.99	1677.29
603.18	1753.06
603.37	1796.07
603.57	1724.39
603.76	1751.01
603.95	1789.92
604.14	1648.61
604.34	1626.09
604.53	1740.77
604.72	1716.20
604.91	1785.83
605.10	1812.45
605.30	1687.53
605.49	1851.36
605.68	1798.12
605.87	1761.25
606.07	1761.25
606.26	1781.73
606.45	1824.74
606.64	1751.01
606.84	1740.77
607.03	1683.43
607.22	1779.68
607.41	1714.15
607.60	1662.95
607.80	1767.40
607.99	1669.09
608.18	1726.44
608.37	1740.77
608.56	1652.71
608.76	1861.60
608.95	1851.36
609.14	1716.20
609.33	1771.49
609.52	1861.60
609.72	1820.64
609.91	1714.15
610.10	1794.02
610.29	1773.54
610.48	1824.74
610.68	1751.01
610.87	1726.44
611.06	1767.40
611.25	1695.72
611.44	1820.64
611.63	1740.77
611.83	1867.75
612.02	1667.05
612.21	1828.84
612.40	1710.05
612.59	1720.29
612.79	1765.35
612.98	1669.09
613.17	1753.06
613.36	1734.63
613.55	1791.97
613.74	1683.43
613.93	1728.49
614.13	1742.82
614.32	1789.92
614.51	1785.83
614.70	1687.53
614.89	1681.38
615.08	1677.29
615.28	2082.78
615.47	1617.90
615.66	1755.11
615.85	1703.91
616.04	1787.88
616.23	1738.73
616.42	1769.44
616.62	1720.29
616.81	1779.68
617.00	1728.49
617.19	1720.29
617.38	1699.81
617.57	1748.97
617.76	1773.54
617.95	1742.82
618.15	1722.34
618.34	1849.32
618.53	1634.28
618.72	1740.77
618.91	1763.30
619.10	1888.23
619.29	1771.49
619.48	1761.25
619.68	1683.43
619.87	1716.20
620.06	1597.42
620.25	1808.36
620.44	1708.01
620.63	1726.44
620.82	1785.83
621.01	1697.77
621.20	1804.26
621.39	1796.07
621.59	1718.25
621.78	1777.64
621.97	1771.49
622.16	1755.11
622.35	1712.10
622.54	1802.21
622.73	1794.02
622.92	1665.00
623.11	1771.49
623.30	1646.57
623.49	1765.35
623.68	1667.05
623.88	1820.64
624.07	1667.05
624.26	1689.57
624.45	1755.11
624.64	1660.90
624.83	1748.97
625.02	1755.11
625.21	1765.35
625.40	1773.54
625.59	1734.63
625.78	1779.68
625.97	1845.22
626.16	1779.68
626.35	1705.96
626.54	1730.53
626.74	1859.56
626.93	1720.29
627.12	1671.14
627.31	1773.54
627.50	1736.68
627.69	1857.51
627.88	1720.29
628.07	1720.29
628.26	1621.99
628.45	1654.76
628.64	1644.52
628.83	1742.82
629.02	1726.44
629.21	1785.83
629.40	1753.06
629.59	1679.33
629.78	1730.53
629.97	1765.35
630.16	1740.77
630.35	1636.33
630.54	1714.15
630.73	1759.21
630.92	1665.00
631.11	1632.23
631.30	1710.05
631.49	1710.05
631.68	1718.25
631.87	1748.97
632.06	1697.77
632.25	1877.99
632.44	1693.67
632.63	1763.30
632.82	1687.53
633.01	1679.33
633.20	1847.27
633.39	1648.61
633.58	1681.38
633.77	1732.58
633.96	1652.71
634.15	1748.97
634.34	1722.34
634.53	1697.77
634.72	1699.81
634.91	1718.25
635.10	1767.40
635.29	1734.63
635.48	1718.25
635.67	1669.09
635.86	1648.61
636.05	1820.64
636.24	1714.15
636.43	1656.81
636.62	1767.40
636.81	1535.98
637.00	1720.29
637.19	1746.92
637.38	1720.29
637.57	1636.33
637.76	1665.00
637.95	1771.49
638.14	1691.62
638.33	1654.76
638.52	1648.61
638.71	1642.47
638.89	1689.57
639.08	1853.41
639.27	1722.34
639.46	1648.61
639.65	1859.56
639.84	1816.55
640.03	1785.83
640.22	1667.05
640.41	1822.69
640.60	1677.29
640.79	1718.25
640.98	1683.43
641.17	1791.97
641.36	1673.19
641.55	1697.77
641.74	1648.61
641.92	1621.99
642.11	1656.81
642.30	1677.29
642.49	1617.90
642.68	1710.05
642.87	1773.54
643.06	1722.34
643.25	1656.81
643.44	1689.57
643.63	1810.40
643.82	1812.45
644.00	1667.05
644.19	1724.39
644.38	1789.92
644.57	1759.21
644.76	1685.48
644.95	1761.25
645.14	1740.77
645.33	1714.15
645.52	1679.33
645.71	1658.85
645.89	1656.81
646.08	1728.49
646.27	1710.05
646.46	1857.51
646.65	1654.76
646.84	1726.44
647.03	1687.53
647.22	1708.01
647.40	1738.73
647.59	1755.11
647.78	1630.18
647.97	1685.48
648.16	1595.37
648.35	1732.58
648.54	1736.68
648.73	1665.00
648.91	1841.12
649.10	1660.90
649.29	1691.62
649.48	1701.86
649.67	1714.15
649.86	1677.29
650.05	1669.09
650.23	1763.30
650.42	1675.24
650.61	1736.68
650.80	1724.39
650.99	1880.04
651.18	1832.93
651.36	1822.69
651.55	1642.47
651.74	1687.53
651.93	1708.01
652.12	1705.96
652.31	1746.92
652.49	1730.53
652.68	1695.72
652.87	1755.11
653.06	1716.20
653.25	1748.97
653.44	1728.49
653.62	1771.49
653.81	1689.57
654.00	1736.68
654.19	1816.55
654.38	1834.98
654.56	1759.21
654.75	1650.66
654.94	1738.73
655.13	1695.72
655.32	1746.92
655.51	1742.82
655.69	1683.43
655.88	1701.86
656.07	1628.14
656.26	1712.10
656.45	1691.62
656.63	1705.96
656.82	1738.73
657.01	1740.77
657.20	1619.94
657.38	1748.97
657.57	1699.81
657.76	1662.95
657.95	1703.91
658.14	1695.72
658.32	1740.77
658.51	1654.76
658.70	1763.30
658.89	1685.48
659.08	1785.83
659.26	1701.86
659.45	1681.38
659.64	1765.35
659.83	1662.95
660.01	1906.66
660.20	1841.12
660.39	1785.83
660.58	1624.04
660.76	1757.16
660.95	1728.49
661.14	1724.39
661.33	1685.48
661.51	1732.58
661.70	1771.49
661.89	1724.39
662.08	1759.21
662.26	1660.90
662.45	1640.42
662.64	1849.32
662.83	1755.11
663.01	1720.29
663.20	1693.67
663.39	1800.16
663.58	1673.19
663.76	1800.16
663.95	1761.25
664.14	1693.67
664.32	1705.96
664.51	1621.99
664.70	1603.56
664.89	1789.92
665.07	1685.48
665.26	1812.45
665.45	1679.33
665.64	1710.05
665.82	1720.29
666.01	1740.77
666.20	1677.29
666.38	1767.40
666.57	1785.83
666.76	2144.22
666.95	4437.95
667.13	9934.70
667.32	14753.57
667.51	17270.52
667.69	18323.18
667.88	16971.52
668.07	11769.68
668.25	9021.30
668.44	7886.73
668.63	7045.01
668.81	6490.01
669.00	6025.12
669.19	5453.74
669.38	4851.64
669.56	4534.20
669.75	3835.85
669.94	3334.09
670.12	2820.05
670.31	2439.13
670.50	2256.86
670.68	2095.07
670.87	1914.85
671.06	1841.12
671.24	1849.32
671.43	1849.32
671.62	1738.73
671.80	1751.01
671.99	1720.29
672.18	1726.44
672.36	1802.21
672.55	1744.87
672.74	1763.30
672.92	1642.47
673.11	1767.40
673.29	1687.53
673.48	1796.07
673.67	1658.85
673.85	1740.77
674.04	1669.09
674.23	1730.53
674.41	1828.84
674.60	1697.77
674.79	1636.33
674.97	1685.48
675.16	1667.05
675.34	1753.06
675.53	1669.09
675.72	1710.05
675.90	1800.16
676.09	1669.09
676.28	1714.15
676.46	1583.08
676.65	1693.67
676.83	1662.95
677.02	1712.10
677.21	1781.73
677.39	1724.39
677.58	1734.63
677.77	1691.62
677.95	1679.33
678.14	1720.29
678.32	1656.81
678.51	1742.82
678.70	1880.04
678.88	1693.67
679.07	1689.57
679.25	1681.38
679.44	1609.70
679.63	1712.10
679.81	1677.29
680.00	1701.86
680.18	1708.01
680.37	1837.03
680.55	1755.11
680.74	1665.00
680.93	1628.14
681.11	1679.33
681.30	1701.86
681.48	1746.92
681.67	1763.30
681.85	1722.34
682.04	1683.43
682.23	1751.01
682.41	1712.10
682.60	1626.09
682.78	1724.39
682.97	1689.57
683.15	1681.38
683.34	1695.72
683.53	1755.11
683.71	1671.14
683.90	1804.26
684.08	1818.60
684.27	1660.90
684.45	1738.73
684.64	1787.88
684.82	1683.43
685.01	1722.34
685.19	1740.77
685.38	1730.53
685.57	1773.54
685.75	1716.20
685.94	1746.92
686.12	1677.29
686.31	1654.76
686.49	1816.55
686.68	1630.18
686.86	1777.64
687.05	1767.40
687.23	1798.12
687.42	1640.42
687.60	1699.81
687.79	1759.21
687.97	1808.36
688.16	1734.63
688.34	1845.22
688.53	1607.66
688.71	1699.81
688.90	1816.55
689.08	1677.29
689.27	1660.90
689.45	1767.40
689.64	1755.11
689.82	1732.58
690.01	1716.20
690.19	1740.77
690.38	1697.77
690.56	1794.02
690.75	1628.14
690.93	1595.37
691.12	1703.91
691.30	1669.09
691.49	1703.91
691.67	1708.01
691.86	1787.88
692.04	1712.10
692.23	1720.29
692.41	1675.24
692.60	1779.68
692.78	1796.07
692.97	1724.39
693.15	1712.10
693.34	1751.01
693.52	1796.07
693.71	1642.47
693.89	1628.14
694.08	1665.00
694.26	1791.97
694.44	1812.45
694.63	1732.58
694.81	1617.90
695.00	1697.77
695.18	1746.92
695.37	1802.21
695.55	1818.60
695.74	1714.15
695.92	1636.33
696.10	1730.53
696.29	1677.29
696.47	1734.63
696.66	1662.95
696.84	1669.09
697.03	1722.34
697.21	1859.56
697.40	2295.77
697.58	1865.70
697.76	1722.34
697.95	1665.00
698.13	1665.00
698.32	1708.01
698.50	1650.66
698.68	1697.77
698.87	1781.73
699.05	1673.19
699.24	1773.54
699.42	1634.28
699.61	1703.91
699.79	1632.23
699.97	1742.82
700.16	1603.56
700.34	1656.81
700.53	1740.77
700.71	1779.68
700.89	1812.45
701.08	1658.85
701.26	1705.96
701.45	2090.98
701.63	1734.63
701.81	1675.24
702.00	1683.43
702.18	1671.14
702.37	1621.99
702.55	1728.49
702.73	1783.78
702.92	1613.80
703.10	1775.59
703.28	1683.43
703.47	1566.70
703.65	1779.68
703.84	1787.88
704.02	1652.71
704.20	1832.93
704.39	1624.04
704.57	1728.49
704.75	1783.78
704.94	1712.10
705.12	1712.10
705.30	1834.98
705.49	2297.82
705.67	4308.93
705.86	9160.56
706.04	12195.65
706.22	14006.06
706.41	14815.01
706.59	13143.86
706.77	9256.82
706.96	7227.28
707.14	6375.33
707.32	5701.54
707.51	5400.49
707.69	4759.48
707.87	4067.27
708.06	3418.06
708.24	2871.25
708.42	2324.44
708.61	2277.34
708.79	1953.76
708.97	1910.75
709.16	1798.12
709.34	1755.11
709.52	1714.15
709.71	1740.77
709.89	1732.58
710.07	1697.77
710.26	1558.50
710.44	1765.35
710.62	1779.68
710.80	1665.00
710.99	1748.97
711.17	1830.88
711.35	1669.09
711.54	1650.66
711.72	1740.77
711.90	1810.40
712.09	1705.96
712.27	1671.14
712.45	1767.40
712.63	1675.24
712.82	1742.82
713.00	1779.68
713.18	1699.81
713.37	1789.92
713.55	1732.58
713.73	1794.02
713.91	1767.40
714.10	1757.16
714.28	1718.25
714.46	1744.87
714.65	1781.73
714.83	1777.64
715.01	1685.48
715.19	1630.18
715.38	1652.71
715.56	1744.87
715.74	1648.61
715.92	1650.66
716.11	1765.35
716.29	1560.55
716.47	1650.66
716.65	1701.86
716.84	1621.99
717.02	1761.25
717.20	1681.38
717.38	1687.53
717.57	1771.49
717.75	1681.38
717.93	1654.76
718.11	1779.68
718.30	1607.66
718.48	1738.73
718.66	1767.40
718.84	1769.44
719.03	1699.81
719.21	1650.66
719.39	1781.73
719.57	1773.54
719.75	1783.78
719.94	1665.00
720.12	1708.01
720.30	1628.14
720.48	1767.40
720.67	1691.62
720.85	1699.81
721.03	1665.00
721.21	1697.77
721.39	1742.82
721.58	1710.05
721.76	1777.64
721.94	1720.29
722.12	1699.81
722.30	1761.25
722.49	1806.31
722.67	1730.53
722.85	1685.48
723.03	1708.01
723.21	1644.52
723.40	1658.85
723.58	1779.68
723.76	1769.44
723.94	1728.49
724.12	1761.25
724.30	1708.01
724.49	1728.49
724.67	1660.90
724.85	1806.31
725.03	1521.64
725.21	1652.71
725.40	1783.78
725.58	1705.96
725.76	1828.84
725.94	1669.09
726.12	1705.96
726.30	1675.24
726.49	1736.68
726.67	1669.09
726.85	1687.53
727.03	1730.53
727.21	2107.36
727.39	2852.82
727.57	3725.26
727.76	4110.27
727.94	4124.61
728.12	4175.81
728.30	3573.71
728.48	2869.20
728.66	2705.37
728.84	2463.71
729.03	2248.67
729.21	2140.13
729.39	2002.91
729.57	1861.60
729.75	1847.27
729.93	1808.36
730.11	1730.53
730.30	1667.05
730.48	1730.53
730.66	1779.68
730.84	1791.97
731.02	1695.72
731.20	1689.57
731.38	1728.49
731.56	1632.23
731.74	1656.81
731.93	1703.91
732.11	1705.96
732.29	1763.30
732.47	1738.73
732.65	1820.64
732.83	1769.44
733.01	1677.29
733.19	1630.18
733.37	1722.34
733.56	1763.30
733.74	1734.63
733.92	1771.49
734.10	1636.33
734.28	1679.33
734.46	1677.29
734.64	1691.62
734.82	1681.38
735.00	1660.90
735.18	1644.52
735.36	1703.91
735.54	1722.34
735.73	1775.59
735.91	1734.63
736.09	1755.11
736.27	1671.14
736.45	1771.49
736.63	1662.95
736.81	1714.15
736.99	1757.16
737.17	1697.77
737.35	1636.33
737.53	1691.62
737.71	1652.71
737.89	1751.01
738.07	1642.47
738.25	1697.77
738.43	1624.04
738.61	1759.21
738.80	1574.89
738.98	1615.85
739.16	1662.95
739.34	1681.38
739.52	1746.92
739.70	1642.47
739.88	1769.44
740.06	1771.49
740.24	1632.23
740.42	1796.07
740.60	1648.61
740.78	1591.27
740.96	1578.98
741.14	1718.25
741.32	1708.01
741.50	1624.04
741.68	1892.32
741.86	1802.21
742.04	1607.66
742.22	1705.96
742.40	1650.66
742.58	1671.14
742.76	1691.62
742.94	1695.72
743.12	1624.04
743.30	1728.49
743.48	1699.81
743.66	1636.33
743.84	1746.92
744.02	1726.44
744.20	1734.63
744.38	1619.94
744.56	1687.53
744.74	1734.63
744.92	1755.11
745.10	1806.31
745.28	1732.58
745.46	1751.01
745.64	1693.67
745.82	1722.34
746.00	1736.68
746.18	1708.01
746.36	1624.04
746.54	1767.40
746.72	1746.92
746.90	1710.05
747.08	1697.77
747.26	1656.81
747.44	1695.72
747.62	1794.02
747.80	1796.07
747.98	1740.77
748.15	1703.91
748.33	1822.69
748.51	1722.34
748.69	1757.16
748.87	1601.51
749.05	1722.34
749.23	1724.39
749.41	1751.01
749.59	1671.14
749.77	1787.88
749.95	1757.16
750.13	1628.14
750.31	1697.77
750.49	1724.39
750.67	1798.12
750.85	1730.53
751.03	1671.14
751.20	1855.46
751.38	1757.16
751.56	1746.92
751.74	1697.77
751.92	1710.05
752.10	1658.85
752.28	1777.64
752.46	1581.03
752.64	1671.14
752.82	1685.48
753.00	1832.93
753.18	1636.33
753.35	1708.01
753.53	1699.81
753.71	1648.61
753.89	1714.15
754.07	1679.33
754.25	1777.64
754.43	1763.30
754.61	1642.47
754.79	1675.24
754.97	1617.90
755.14	1832.93
755.32	1595.37
755.50	1712.10
755.68	1746.92
755.86	1624.04
756.04	1679.33
756.22	1603.56
756.40	1759.21
756.57	1789.92
756.75	1710.05
756.93	1853.41
757.11	1765.35
757.29	1683.43
757.47	1638.38
757.65	1624.04
757.82	1558.50
758.00	1656.81
758.18	1689.57
758.36	1689.57
758.54	1783.78
758.72	1599.46
758.90	1761.25
759.07	1744.87
759.25	1671.14
759.43	1667.05
759.61	1701.86
759.79	2187.23
759.97	1662.95
760.15	1660.90
760.32	1681.38
760.50	1720.29
760.68	1832.93
760.86	1630.18
761.04	1787.88
761.22	1716.20
761.39	1683.43
761.57	1693.67
761.75	1695.72
761.93	1753.06
762.11	1740.77
762.28	1806.31
762.46	1667.05
762.64	1789.92
762.82	1630.18
763.00	1708.01
763.18	1701.86
763.35	1683.43
763.53	1746.92
763.71	1689.57
763.89	1787.88
764.07	1667.05
764.24	1767.40
764.42	1773.54
764.60	1685.48
764.78	1746.92
764.96	1724.39
765.13	1716.20
765.31	1728.49
765.49	1775.59
765.67	1636.33
765.84	1703.91
766.02	1654.76
766.20	1693.67
766.38	1691.62
766.56	1708.01
766.73	1705.96
766.91	1712.10
767.09	1642.47
767.27	1740.77
767.44	1593.32
767.62	1730.53
767.80	1724.39
767.98	1638.38
768.15	1667.05
768.33	1732.58
768.51	1763.30
768.69	1683.43
768.87	1734.63
769.04	1718.25
769.22	1791.97
769.40	1837.03
769.58	1875.94
769.75	1671.14
769.93	1802.21
770.11	1621.99
770.28	1619.94
770.46	1744.87
770.64	1732.58
770.82	1714.15
770.99	1775.59
771.17	1738.73
771.35	1748.97
771.53	1785.83
771.70	1689.57
771.88	1744.87
772.06	1701.86
772.23	1763.30
772.41	1708.01
772.59	1683.43
772.77	1683.43
772.94	1724.39
773.12	1691.62
773.30	1669.09
773.47	1746.92
773.65	1667.05
773.83	1781.73
774.01	1689.57
774.18	1574.89
774.36	1701.86
774.54	1726.44
774.71	1728.49
774.89	1656.81
775.07	1619.94
775.24	1687.53
775.42	1681.38
775.60	1753.06
775.78	1665.00
775.95	1632.23
776.13	1599.46
776.31	1640.42
776.48	1761.25
776.66	1771.49
776.84	1677.29
777.01	1603.56
777.19	1640.42
777.37	1642.47
777.54	1744.87
777.72	1746.92
777.90	1751.01
778.07	1667.05
778.25	1873.89
778.43	1769.44
778.60	1679.33
778.78	1810.40
778.96	1824.74
779.13	1667.05
779.31	1798.12
779.49	1669.09
779.66	1740.77
779.84	1669.09
780.01	1699.81
780.19	1669.09
780.37	1777.64
780.54	1683.43
780.72	1710.05
780.90	1705.96
781.07	1689.57
781.25	1744.87
781.43	1779.68
781.60	1738.73
781.78	1718.25
781.95	1755.11
782.13	1691.62
782.31	1667.05
782.48	1669.09
782.66	1652.71
782.83	1800.16
783.01	1732.58
783.19	1703.91
783.36	1646.57
783.54	1599.46
783.72	1730.53
783.89	1671.14
784.07	1732.58
784.24	1765.35
784.42	1820.64
784.60	1671.14
784.77	1697.77
784.95	1566.70
785.12	1685.48
785.30	1695.72
785.47	1685.48
785.65	1681.38
785.83	1732.58
786.00	1685.48
786.18	1642.47
786.35	1667.05
786.53	1726.44
786.71	1710.05
786.88	1755.11
787.06	1677.29
787.23	1695.72
787.41	1626.09
787.58	1652.71
787.76	1652.71
787.94	1699.81
788.11	1796.07
788.29	1662.95
788.46	1636.33
788.64	1636.33
788.81	1648.61
788.99	1630.18
789.16	1658.85
789.34	1708.01
789.52	1691.62
789.69	1650.66
789.87	1652.71
790.04	1671.14
790.22	1677.29
790.39	1947.62
790.57	1646.57
790.74	1703.91
790.92	1826.79
791.09	1624.04
791.27	1683.43
791.44	1812.45
791.62	1632.23
791.79	1732.58
791.97	1783.78
792.15	1886.18
792.32	1714.15
792.50	1755.11
792.67	1746.92
792.85	1787.88
793.02	1734.63
793.20	1665.00
793.37	1542.12
793.55	1675.24
793.72	1595.37
793.90	1734.63
794.07	1624.04
794.25	1630.18
794.42	1779.68
794.60	1759.21
794.77	1734.63
794.95	1773.54
795.12	1744.87
795.30	1673.19
795.47	1630.18
795.65	1828.84
795.82	1765.35
796.00	1669.09
796.17	1671.14
796.34	1685.48
796.52	1703.91
796.69	1726.44
796.87	1759.21
797.04	1724.39
797.22	1726.44
797.39	1736.68
797.57	1806.31
797.74	1740.77
797.92	1767.40
798.09	1712.10
798.27	1763.30
798.44	1720.29
798.62	1693.67
798.79	1783.78
798.96	1767.40
799.14	1728.49
799.31	1800.16
799.49	1675.24
799.66	1724.39
799.84	1660.90
800.01	1728.49
800.19	1699.81
800.36	1597.42
800.53	1714.15
800.71	1714.15
800.88	1785.83
801.06	1665.00
801.23	1746.92
801.41	1665.00
801.58	1736.68
801.75	1767.40
801.93	1718.25
802.10	1738.73
802.28	1724.39
802.45	1650.66
802.63	1783.78
802.80	1728.49
802.97	1718.25
803.15	1654.76
803.32	1722.34
803.50	1593.32
803.67	1583.08
803.84	1705.96
804.02	1632.23
804.19	1697.77
804.37	1593.32
804.54	1601.51
804.71	1671.14
804.89	1787.88
805.06	1617.90
805.24	1646.57
805.41	1675.24
805.58	1658.85
805.76	1892.32
805.93	1693.67
806.10	1775.59
806.28	1722.34
806.45	1703.91
806.63	1806.31
806.80	1705.96
806.97	1677.29
807.15	1726.44
807.32	1712.10
807.49	1777.64
807.67	1648.61
807.84	1728.49
808.01	1642.47
808.19	1890.28
808.36	1759.21
808.54	1621.99
808.71	1634.28
808.88	1734.63
809.06	1722.34
809.23	1828.84
809.40	1685.48
809.58	1853.41
809.75	1681.38
809.92	1738.73
810.10	1851.36
810.27	1634.28
810.44	1660.90
810.62	1705.96
810.79	1722.34
810.96	1701.86
811.14	1632.23
811.31	1673.19
811.48	1730.53
811.66	1710.05
811.83	1796.07
812.00	1712.10
812.18	1769.44
812.35	1767.40
812.52	1679.33
812.69	1660.90
812.87	1755.11
813.04	1695.72
813.21	1634.28
813.39	1636.33
813.56	1675.24
813.73	1693.67
813.91	1632.23
814.08	1703.91
814.25	1669.09
814.42	1587.18
814.60	1636.33
814.77	1736.68
814.94	1681.38
815.12	1695.72
815.29	1691.62
815.46	1675.24
815.63	1714.15
815.81	1732.58
815.98	1681.38
816.15	1720.29
816.33	1716.20
816.50	1697.77
816.67	1687.53
816.84	1775.59
817.02	1640.42
817.19	1763.30
817.36	1609.70
817.53	1753.06
817.71	1615.85
817.88	1771.49
818.05	1683.43
818.22	1621.99
818.40	1804.26
818.57	1677.29
818.74	1675.24
818.91	1689.57
819.09	1724.39
819.26	1781.73
819.43	1611.75
819.60	1679.33
819.78	1738.73
819.95	1783.78
820.12	1654.76
820.29	1740.77
820.47	1757.16
820.64	1619.94
820.81	1583.08
820.98	1652.71
821.15	1695.72
821.33	1746.92
821.50	1675.24
821.67	1767.40
821.84	1683.43
822.02	1718.25
822.19	1732.58
822.36	1609.70
822.53	1742.82
822.70	1687.53
822.88	1726.44
823.05	1800.16
823.22	1652.71
823.39	1796.07
823.56	1652.71
823.74	1853.41
823.91	1685.48
824.08	1615.85
824.25	1685.48
824.42	1789.92
824.60	1656.81
824.77	1689.57
824.94	1628.14
825.11	1679.33
825.28	1591.27
825.45	1748.97
825.63	1691.62
825.80	1712.10
825.97	1638.38
826.14	1636.33
826.31	1654.76
826.48	1716.20
826.66	1712.10
826.83	1718.25
827.00	1693.67
827.17	1734.63
827.34	1732.58
827.51	1681.38
827.69	1796.07
827.86	1630.18
828.03	1685.48
828.20	1726.44
828.37	1683.43
828.54	1726.44
828.71	1697.77
828.89	1777.64
829.06	1746.92
829.23	1755.11
829.40	1652.71
829.57	1671.14
829.74	1730.53
829.91	1691.62
830.09	1671.14
830.26	1677.29
830.43	1716.20
830.60	1689.57
830.77	1785.83
830.94	1773.54
831.11	1794.02
831.28	1632.23
831.46	1732.58
831.63	1720.29
831.80	1771.49
831.97	1705.96
832.14	1636.33
832.31	1708.01
832.48	1703.91
832.65	1691.62
832.82	1710.05
832.99	1732.58
833.17	1703.91
833.34	1759.21
833.51	1736.68
833.68	1693.67
833.85	1730.53
834.02	1658.85
834.19	1691.62
834.36	1665.00
834.53	1716.20
834.70	1683.43
834.87	1730.53
835.04	1714.15
835.22	1626.09
835.39	1712.10
835.56	1665.00
835.73	1574.89
835.90	1818.60
836.07	1597.42
836.24	1740.77
836.41	1665.00
836.58	1757.16
836.75	1748.97
836.92	1685.48
837.09	1656.81
837.26	1736.68
837.43	1691.62
837.60	1806.31
837.77	1605.61
837.94	1714.15
838.12	1826.79
838.29	1757.16
838.46	1640.42
838.63	1648.61
838.80	1837.03
838.97	1785.83
839.14	1708.01
839.31	1689.57
839.48	1695.72
839.65	1691.62
839.82	1703.91
839.99	1699.81
840.16	1722.34
840.33	1683.43
840.50	1789.92
840.67	1597.42
840.84	1605.61
841.01	1650.66
841.18	1658.85
841.35	1751.01
841.52	1806.31
841.69	1785.83
841.86	1699.81
842.03	1720.29
842.20	1744.87
842.37	1783.78
842.54	1701.86
842.71	1734.63
842.88	1638.38
843.05	1773.54
843.22	1636.33
843.39	1734.63
843.56	1742.82
843.73	1716.20
843.90	1665.00
844.07	1703.91
844.24	1834.98
844.41	1701.86
844.58	1658.85
844.75	1748.97
844.92	1685.48
845.09	1691.62
845.26	1626.09
845.43	1746.92
845.60	1693.67
845.77	1783.78
845.94	1699.81
846.10	1804.26
846.27	1607.66
846.44	1619.94
846.61	1572.84
846.78	1746.92
846.95	1722.34
847.12	1648.61
847.29	1716.20
847.46	1720.29
847.63	1804.26
847.80	1636.33
847.97	1710.05
848.14	1814.50
848.31	1748.97
848.48	1617.90
848.65	1804.26
848.82	1734.63
848.98	1839.08
849.15	1742.82
849.32	1669.09
849.49	1728.49
849.66	1675.24
849.83	1685.48
850.00	1603.56
850.17	1753.06
850.34	1722.34
850.51	1703.91
850.68	1656.81
850.85	1859.56
851.01	1683.43
851.18	1757.16
851.35	1724.39
851.52	1691.62
851.69	1759.21
851.86	1574.89
852.03	1693.67
852.20	1687.53
852.37	1683.43
852.53	1642.47
852.70	1699.81
852.87	1746.92
853.04	1722.34
853.21	1673.19
853.38	1710.05
853.55	1720.29
853.72	1759.21
853.89	1624.04
854.05	1658.85
854.22	1708.01
854.39	1644.52
854.56	1701.86
854.73	1853.41
854.90	1683.43
855.07	1787.88
855.23	1714.15
855.40	1781.73
855.57	1611.75
855.74	1628.14
855.91	1834.98
856.08	1619.94
856.25	1677.29
856.41	1658.85
856.58	1701.86
856.75	1730.53
856.92	1675.24
857.09	1748.97
857.26	1718.25
857.42	1675.24
857.59	1718.25
857.76	1722.34
857.93	1738.73
858.10	1697.77
858.27	1648.61
858.43	1773.54
858.60	1662.95
858.77	1585.13
858.94	1667.05
859.11	1812.45
859.27	1599.46
859.44	1734.63
859.61	1740.77
859.78	1673.19
859.95	1660.90
860.12	1771.49
860.28	1781.73
860.45	1757.16
860.62	1619.94
860.79	1714.15
860.95	1687.53
861.12	1787.88
861.29	1708.01
861.46	1642.47
861.63	1691.62
861.79	1699.81
861.96	1685.48
862.13	1646.57
862.30	1755.11
862.47	1636.33
862.63	1665.00
862.80	1759.21
862.97	1726.44
863.14	1736.68
863.30	1665.00
863.47	1687.53
863.64	1783.78
863.81	1734.63
863.97	1693.67
864.14	1761.25
864.31	1701.86
864.48	1753.06
864.65	1583.08
864.81	1824.74
864.98	1703.91
865.15	1740.77
865.32	1708.01
865.48	1773.54
865.65	1818.60
865.82	1617.90
865.98	1714.15
866.15	1740.77
866.32	1669.09
866.49	1650.66
866.65	1693.67
866.82	1722.34
866.99	1755.11
867.16	1667.05
867.32	1669.09
867.49	1658.85
867.66	1671.14
867.83	1652.71
867.99	1601.51
868.16	1669.09
868.33	1628.14
868.49	1681.38
868.66	1660.90
868.83	1701.86
868.99	1773.54
869.16	1716.20
869.33	1810.40
869.50	1720.29
869.66	1708.01
869.83	1777.64
870.00	1613.80
870.16	1714.15
870.33	1722.34
870.50	1785.83
870.66	1701.86
870.83	1841.12
871.00	1730.53
871.17	1699.81
871.33	1687.53
871.50	1648.61
871.67	1658.85
871.83	1617.90
872.00	1820.64
872.17	1646.57
872.33	1748.97
872.50	1738.73
872.67	1681.38
872.83	1677.29
873.00	1794.02
873.17	1677.29
873.33	1740.77
873.50	1693.67
873.67	1599.46
873.83	1621.99
874.00	1675.24
874.16	1722.34
874.33	1751.01
874.50	1673.19
874.66	1703.91
874.83	1632.23
875.00	1757.16
875.16	1718.25
875.33	1804.26
875.50	1546.22
875.66	1593.32
875.83	1671.14
875.99	1746.92
876.16	1665.00
876.33	1677.29
876.49	1705.96
876.66	1624.04
876.83	1701.86
876.99	1675.24
877.16	1800.16
877.32	1687.53
877.49	1681.38
877.66	1736.68
877.82	1814.50
877.99	1642.47
878.15	1718.25
878.32	1679.33
878.49	1699.81
878.65	1681.38
878.82	1781.73
878.98	1703.91
879.15	1681.38
879.32	1783.78
879.48	1703.91
879.65	1693.67
879.81	1652.71
879.98	1656.81
880.15	1640.42
880.31	1751.01
880.48	1654.76
880.64	1763.30
880.81	1773.54
880.97	1779.68
881.14	1767.40
881.31	1714.15
881.47	1808.36
881.64	1669.09
881.80	1611.75
881.97	1681.38
882.13	1726.44
882.30	1576.94
882.47	1769.44
882.63	1685.48
882.80	1695.72
882.96	1638.38
883.13	1734.63
883.29	1671.14
883.46	1703.91
883.62	1818.60
883.79	1660.90
883.95	1720.29
884.12	1734.63
884.29	1822.69
884.45	1689.57
884.62	1703.91
884.78	1621.99
884.95	1740.77
885.11	1591.27
885.28	1763.30
885.44	1685.48
885.61	1665.00
885.77	1814.50
885.94	1734.63
886.10	1740.77
886.27	1740.77
886.43	1816.55
886.60	1728.49
886.76	1581.03
886.93	1683.43
887.09	1779.68
887.26	1576.94
887.42	1736.68
887.59	1814.50
887.75	1791.97
887.92	1787.88
888.08	1804.26
888.25	1779.68
888.41	1730.53
888.58	1767.40
888.74	1615.85
888.91	1671.14
>>>>>End Processed Spectral Data<<<<<
