SpectraSuite Data File
++++++++++++++++++++++++++++++++++++
Date: Mon Jun 06 17:35:37 CEST 2016
User: root
Dark Spectrum Present: No
Reference Spectrum Present: No
Number of Sampled Component Spectra: 1
Spectrometers: USB4C02835
Integration Time (usec): 100000 (USB4C02835)
Spectra Averaged: 1 (USB4C02835)
Boxcar Smoothing: 0 (USB4C02835)
Correct for Electrical Dark: No (USB4C02835)
Strobe/Lamp Enabled: No (USB4C02835)
Correct for Detector Non-linearity: No (USB4C02835)
Correct for Stray Light: No (USB4C02835)
Number of Pixels in Processed Spectrum: 3648
>>>>>Begin Processed Spectral Data<<<<<
177.47	1495.02
177.69	1495.02
177.91	1495.02
178.13	1431.53
178.36	1519.59
178.58	1730.53
178.80	1644.52
179.02	1611.75
179.24	1669.09
179.46	1728.49
179.68	1701.86
179.90	1753.06
180.13	1695.72
180.35	1685.48
180.57	1724.39
180.79	1701.86
181.01	1689.57
181.23	1820.64
181.45	1771.49
181.67	1798.12
181.90	1751.01
182.12	1699.81
182.34	1589.22
182.56	1679.33
182.78	1734.63
183.00	1732.58
183.22	1726.44
183.44	1564.65
183.66	1841.12
183.89	1824.74
184.11	1701.86
184.33	1740.77
184.55	1789.92
184.77	1753.06
184.99	1783.78
185.21	1591.27
185.43	1925.09
185.65	1701.86
185.87	1755.11
186.10	1791.97
186.32	1834.98
186.54	1742.82
186.76	1689.57
186.98	1796.07
187.20	1691.62
187.42	1689.57
187.64	1724.39
187.86	1636.33
188.08	1769.44
188.30	1701.86
188.52	1695.72
188.75	1746.92
188.97	1820.64
189.19	1656.81
189.41	1693.67
189.63	1742.82
189.85	1689.57
190.07	1689.57
190.29	1673.19
190.51	1742.82
190.73	1642.47
190.95	1740.77
191.17	1697.77
191.39	1587.18
191.61	1683.43
191.84	1683.43
192.06	1751.01
192.28	1603.56
192.50	1900.52
192.72	1744.87
192.94	1732.58
193.16	1712.10
193.38	1662.95
193.60	1656.81
193.82	1693.67
194.04	1824.74
194.26	1681.38
194.48	1710.05
194.70	1697.77
194.92	1685.48
195.14	1761.25
195.36	1662.95
195.58	1656.81
195.80	1746.92
196.02	1710.05
196.24	1728.49
196.46	1812.45
196.69	1683.43
196.91	1927.14
197.13	1656.81
197.35	1665.00
197.57	1798.12
197.79	1779.68
198.01	1716.20
198.23	1785.83
198.45	1763.30
198.67	1650.66
198.89	1720.29
199.11	1734.63
199.33	1714.15
199.55	1632.23
199.77	1708.01
199.99	1798.12
200.21	1765.35
200.43	1832.93
200.65	1673.19
200.87	1644.52
201.09	1757.16
201.31	1693.67
201.53	1779.68
201.75	1736.68
201.97	1740.77
202.19	1687.53
202.41	1832.93
202.63	1884.13
202.85	1814.50
203.07	1740.77
203.29	1689.57
203.51	1748.97
203.73	1675.24
203.95	1800.16
204.17	1722.34
204.39	1789.92
204.61	1777.64
204.83	1740.77
205.05	1726.44
205.27	1808.36
205.49	1863.65
205.71	1697.77
205.93	1652.71
206.15	1685.48
206.37	1734.63
206.59	1656.81
206.81	1695.72
207.03	1724.39
207.25	1701.86
207.47	1783.78
207.69	1685.48
207.91	1863.65
208.13	1816.55
208.34	1701.86
208.56	1677.29
208.78	1703.91
209.00	1759.21
209.22	1636.33
209.44	1716.20
209.66	1720.29
209.88	1755.11
210.10	1705.96
210.32	1699.81
210.54	1787.88
210.76	1759.21
210.98	1697.77
211.20	1636.33
211.42	1681.38
211.64	1738.73
211.86	1742.82
212.08	1660.90
212.30	1785.83
212.52	1738.73
212.74	1701.86
212.96	1726.44
213.17	1716.20
213.39	1779.68
213.61	1746.92
213.83	1714.15
214.05	1710.05
214.27	1765.35
214.49	1714.15
214.71	1660.90
214.93	1705.96
215.15	1632.23
215.37	1798.12
215.59	1660.90
215.81	1728.49
216.03	1796.07
216.24	1746.92
216.46	1761.25
216.68	1673.19
216.90	1740.77
217.12	1765.35
217.34	1724.39
217.56	1789.92
217.78	1822.69
218.00	1722.34
218.22	1726.44
218.44	1738.73
218.66	1726.44
218.87	1837.03
219.09	1736.68
219.31	1701.86
219.53	1693.67
219.75	1732.58
219.97	1773.54
220.19	1697.77
220.41	1687.53
220.63	1845.22
220.85	1712.10
221.06	1697.77
221.28	1787.88
221.50	1812.45
221.72	1726.44
221.94	1771.49
222.16	1716.20
222.38	1714.15
222.60	1765.35
222.82	1751.01
223.03	1769.44
223.25	1652.71
223.47	1834.98
223.69	1855.46
223.91	1748.97
224.13	1683.43
224.35	1642.47
224.57	1769.44
224.78	1724.39
225.00	1624.04
225.22	1638.38
225.44	1726.44
225.66	1818.60
225.88	1685.48
226.10	1746.92
226.32	1789.92
226.53	1855.46
226.75	1779.68
226.97	1695.72
227.19	1693.67
227.41	1710.05
227.63	1720.29
227.85	1605.61
228.06	1718.25
228.28	1714.15
228.50	1773.54
228.72	1626.09
228.94	1701.86
229.16	1607.66
229.37	1665.00
229.59	1681.38
229.81	1855.46
230.03	1734.63
230.25	1605.61
230.47	1603.56
230.69	1693.67
230.90	1718.25
231.12	1658.85
231.34	1771.49
231.56	1757.16
231.78	1671.14
232.00	1732.58
232.21	1740.77
232.43	1693.67
232.65	1673.19
232.87	1767.40
233.09	1732.58
233.30	1695.72
233.52	1828.84
233.74	1730.53
233.96	1697.77
234.18	1712.10
234.40	1611.75
234.61	1783.78
234.83	1691.62
235.05	1689.57
235.27	1877.99
235.49	1759.21
235.70	1722.34
235.92	1847.27
236.14	1773.54
236.36	1837.03
236.58	1615.85
236.79	1761.25
237.01	1722.34
237.23	1644.52
237.45	1853.41
237.67	1695.72
237.88	1771.49
238.10	1837.03
238.32	1656.81
238.54	1730.53
238.76	1722.34
238.97	1699.81
239.19	1673.19
239.41	1822.69
239.63	1771.49
239.85	1710.05
240.06	1685.48
240.28	1681.38
240.50	1767.40
240.72	1681.38
240.93	1628.14
241.15	1767.40
241.37	1742.82
241.59	1771.49
241.81	1714.15
242.02	1673.19
242.24	1705.96
242.46	1738.73
242.68	1675.24
242.89	1755.11
243.11	1662.95
243.33	1691.62
243.55	1794.02
243.76	1755.11
243.98	1705.96
244.20	1720.29
244.42	1728.49
244.64	1693.67
244.85	1683.43
245.07	1683.43
245.29	1742.82
245.51	1789.92
245.72	1720.29
245.94	1832.93
246.16	1710.05
246.38	1722.34
246.59	1742.82
246.81	1644.52
247.03	1724.39
247.24	1591.27
247.46	1671.14
247.68	1789.92
247.90	1726.44
248.11	1697.77
248.33	1740.77
248.55	1691.62
248.77	1701.86
248.98	1732.58
249.20	1820.64
249.42	1597.42
249.64	1722.34
249.85	1759.21
250.07	1581.03
250.29	1755.11
250.50	1748.97
250.72	1626.09
250.94	1755.11
251.16	1742.82
251.37	1832.93
251.59	1736.68
251.81	1746.92
252.02	1748.97
252.24	1765.35
252.46	1724.39
252.68	1746.92
252.89	1705.96
253.11	1634.28
253.33	1802.21
253.54	1761.25
253.76	1634.28
253.98	1736.68
254.20	1708.01
254.41	1611.75
254.63	1714.15
254.85	1650.66
255.06	1691.62
255.28	1783.78
255.50	1679.33
255.71	1642.47
255.93	1677.29
256.15	1777.64
256.36	1853.41
256.58	1658.85
256.80	1734.63
257.02	1689.57
257.23	1697.77
257.45	1714.15
257.67	1654.76
257.88	1685.48
258.10	1730.53
258.32	1718.25
258.53	1779.68
258.75	1871.84
258.97	1662.95
259.18	1724.39
259.40	1701.86
259.62	1769.44
259.83	1812.45
260.05	1728.49
260.27	2017.25
260.48	1751.01
260.70	1675.24
260.92	1748.97
261.13	1665.00
261.35	1740.77
261.57	1669.09
261.78	1646.57
262.00	1681.38
262.22	1798.12
262.43	1689.57
262.65	1675.24
262.86	1691.62
263.08	1816.55
263.30	1730.53
263.51	1658.85
263.73	1732.58
263.95	1730.53
264.16	1710.05
264.38	1691.62
264.60	1714.15
264.81	1734.63
265.03	1771.49
265.25	1789.92
265.46	1728.49
265.68	1757.16
265.89	1781.73
266.11	1576.94
266.33	1744.87
266.54	1783.78
266.76	1683.43
266.98	1687.53
267.19	1828.84
267.41	1839.08
267.62	1669.09
267.84	1681.38
268.06	1744.87
268.27	1734.63
268.49	1767.40
268.70	1777.64
268.92	1734.63
269.14	1718.25
269.35	1665.00
269.57	1708.01
269.79	1775.59
270.00	1714.15
270.22	1800.16
270.43	1746.92
270.65	1566.70
270.87	1744.87
271.08	1669.09
271.30	1800.16
271.51	1679.33
271.73	1732.58
271.95	1800.16
272.16	1755.11
272.38	1716.20
272.59	1705.96
272.81	1720.29
273.02	1767.40
273.24	1652.71
273.46	1769.44
273.67	1703.91
273.89	1624.04
274.10	1714.15
274.32	1767.40
274.54	1708.01
274.75	1773.54
274.97	1722.34
275.18	1800.16
275.40	1728.49
275.61	1652.71
275.83	1759.21
276.05	1658.85
276.26	1718.25
276.48	1728.49
276.69	1720.29
276.91	1626.09
277.12	1800.16
277.34	1773.54
277.55	1699.81
277.77	1769.44
277.99	1708.01
278.20	1585.13
278.42	1671.14
278.63	1701.86
278.85	1701.86
279.06	1697.77
279.28	1746.92
279.49	1734.63
279.71	1742.82
279.93	1728.49
280.14	1697.77
280.36	1650.66
280.57	1834.98
280.79	1791.97
281.00	1658.85
281.22	1656.81
281.43	1816.55
281.65	1654.76
281.86	1605.61
282.08	1755.11
282.29	1791.97
282.51	1609.70
282.73	1658.85
282.94	1654.76
283.16	1763.30
283.37	1781.73
283.59	1791.97
283.80	1716.20
284.02	1646.57
284.23	1759.21
284.45	1738.73
284.66	1609.70
284.88	1615.85
285.09	1624.04
285.31	1771.49
285.52	1708.01
285.74	1705.96
285.95	1812.45
286.17	1787.88
286.38	1765.35
286.60	1693.67
286.81	1695.72
287.03	1658.85
287.24	1695.72
287.46	1722.34
287.67	1742.82
287.89	1800.16
288.10	1689.57
288.32	1695.72
288.53	1714.15
288.75	1730.53
288.96	1718.25
289.18	1681.38
289.39	1726.44
289.61	1712.10
289.82	1884.13
290.04	1816.55
290.25	1714.15
290.47	1683.43
290.68	1708.01
290.90	1843.17
291.11	1593.32
291.33	1751.01
291.54	1656.81
291.76	1667.05
291.97	1710.05
292.18	1693.67
292.40	1734.63
292.61	1662.95
292.83	1828.84
293.04	1748.97
293.26	1820.64
293.47	1734.63
293.69	1681.38
293.90	1744.87
294.12	1726.44
294.33	1695.72
294.55	1751.01
294.76	1783.78
294.97	1714.15
295.19	1845.22
295.40	1607.66
295.62	1697.77
295.83	1837.03
296.05	1669.09
296.26	1746.92
296.48	1755.11
296.69	1744.87
296.90	1714.15
297.12	1685.48
297.33	1802.21
297.55	1746.92
297.76	1724.39
297.98	1765.35
298.19	1775.59
298.41	1679.33
298.62	1642.47
298.83	1814.50
299.05	1767.40
299.26	1683.43
299.48	1650.66
299.69	1736.68
299.90	1761.25
300.12	1605.61
300.33	1738.73
300.55	1669.09
300.76	1771.49
300.98	1675.24
301.19	1736.68
301.40	1687.53
301.62	1771.49
301.83	1814.50
302.05	1681.38
302.26	1755.11
302.47	1763.30
302.69	1660.90
302.90	1714.15
303.12	1607.66
303.33	1759.21
303.54	1783.78
303.76	1677.29
303.97	1691.62
304.19	1783.78
304.40	1667.05
304.61	1755.11
304.83	1820.64
305.04	1753.06
305.26	1796.07
305.47	1669.09
305.68	1626.09
305.90	1687.53
306.11	1824.74
306.33	1689.57
306.54	1644.52
306.75	1648.61
306.97	1660.90
307.18	1667.05
307.39	1740.77
307.61	1738.73
307.82	1687.53
308.04	1714.15
308.25	1599.46
308.46	1800.16
308.68	1687.53
308.89	1742.82
309.10	1830.88
309.32	1771.49
309.53	1763.30
309.74	1761.25
309.96	1699.81
310.17	1775.59
310.39	1632.23
310.60	1691.62
310.81	1665.00
311.03	1667.05
311.24	1748.97
311.45	1751.01
311.67	1802.21
311.88	1740.77
312.09	1658.85
312.31	1681.38
312.52	1798.12
312.73	1710.05
312.95	1644.52
313.16	1701.86
313.37	1804.26
313.59	1701.86
313.80	1763.30
314.01	1863.65
314.23	1697.77
314.44	1751.01
314.65	1660.90
314.87	1675.24
315.08	1761.25
315.29	1632.23
315.51	1673.19
315.72	1738.73
315.93	1865.70
316.15	1710.05
316.36	1751.01
316.57	1746.92
316.79	1712.10
317.00	1650.66
317.21	1779.68
317.43	1652.71
317.64	1683.43
317.85	1697.77
318.07	1693.67
318.28	1681.38
318.49	1847.27
318.70	1918.95
318.92	1851.36
319.13	1839.08
319.34	1832.93
319.56	1849.32
319.77	1845.22
319.98	1742.82
320.20	1798.12
320.41	1726.44
320.62	1748.97
320.83	1669.09
321.05	1804.26
321.26	1738.73
321.47	1742.82
321.69	1728.49
321.90	1665.00
322.11	1734.63
322.32	1738.73
322.54	1755.11
322.75	1759.21
322.96	1931.23
323.18	1609.70
323.39	1689.57
323.60	1705.96
323.81	1755.11
324.03	1665.00
324.24	1820.64
324.45	1669.09
324.66	1675.24
324.88	1755.11
325.09	1783.78
325.30	1656.81
325.52	1730.53
325.73	1779.68
325.94	1632.23
326.15	1607.66
326.37	1667.05
326.58	1802.21
326.79	1789.92
327.00	1732.58
327.22	1703.91
327.43	1648.61
327.64	1675.24
327.85	1755.11
328.07	1789.92
328.28	1777.64
328.49	1730.53
328.70	1648.61
328.92	1734.63
329.13	1722.34
329.34	1746.92
329.55	1832.93
329.76	1781.73
329.98	1710.05
330.19	1755.11
330.40	1769.44
330.61	1759.21
330.83	1669.09
331.04	1630.18
331.25	1738.73
331.46	1724.39
331.68	1644.52
331.89	1744.87
332.10	1771.49
332.31	1669.09
332.52	1683.43
332.74	1761.25
332.95	1638.38
333.16	1681.38
333.37	1763.30
333.58	1654.76
333.80	1789.92
334.01	1638.38
334.22	1665.00
334.43	1671.14
334.64	1751.01
334.86	1751.01
335.07	1693.67
335.28	1845.22
335.49	1677.29
335.70	1800.16
335.92	1794.02
336.13	1951.71
336.34	1765.35
336.55	1759.21
336.76	1728.49
336.98	1667.05
337.19	1658.85
337.40	1804.26
337.61	1873.89
337.82	1644.52
338.04	1789.92
338.25	1601.51
338.46	1693.67
338.67	1705.96
338.88	1701.86
339.09	1628.14
339.31	1671.14
339.52	1644.52
339.73	1640.42
339.94	1726.44
340.15	1738.73
340.36	1775.59
340.58	1759.21
340.79	1712.10
341.00	1679.33
341.21	1667.05
341.42	1751.01
341.63	1697.77
341.85	1753.06
342.06	1662.95
342.27	1679.33
342.48	1751.01
342.69	1650.66
342.90	1697.77
343.12	1804.26
343.33	1705.96
343.54	1755.11
343.75	1851.36
343.96	1693.67
344.17	1656.81
344.38	1697.77
344.60	1626.09
344.81	1726.44
345.02	1648.61
345.23	1820.64
345.44	1791.97
345.65	1787.88
345.86	1736.68
346.07	1771.49
346.29	1699.81
346.50	1816.55
346.71	1763.30
346.92	1824.74
347.13	1869.80
347.34	1724.39
347.55	1673.19
347.76	1779.68
347.98	1617.90
348.19	1687.53
348.40	1849.32
348.61	1671.14
348.82	1802.21
349.03	1779.68
349.24	1722.34
349.45	1806.31
349.66	1566.70
349.88	1714.15
350.09	1634.28
350.30	1804.26
350.51	1812.45
350.72	1730.53
350.93	1701.86
351.14	1591.27
351.35	1730.53
351.56	1740.77
351.77	1751.01
351.99	1746.92
352.20	1751.01
352.41	1775.59
352.62	1642.47
352.83	1744.87
353.04	1726.44
353.25	1703.91
353.46	1812.45
353.67	1802.21
353.88	1583.08
354.09	1738.73
354.30	1818.60
354.52	1734.63
354.73	1738.73
354.94	1669.09
355.15	1720.29
355.36	1898.47
355.57	1642.47
355.78	1751.01
355.99	1640.42
356.20	1683.43
356.41	1751.01
356.62	1783.78
356.83	1697.77
357.04	1796.07
357.25	1628.14
357.46	1671.14
357.68	1673.19
357.89	1640.42
358.10	1630.18
358.31	1718.25
358.52	1730.53
358.73	1669.09
358.94	1646.57
359.15	1720.29
359.36	1722.34
359.57	1751.01
359.78	1746.92
359.99	1705.96
360.20	1710.05
360.41	1673.19
360.62	1798.12
360.83	1802.21
361.04	1718.25
361.25	1775.59
361.46	1769.44
361.67	1697.77
361.88	1767.40
362.09	1773.54
362.30	1722.34
362.51	1687.53
362.72	1746.92
362.93	1798.12
363.14	1730.53
363.35	1851.36
363.56	1632.23
363.78	1757.16
363.99	1746.92
364.20	1705.96
364.41	1748.97
364.62	1886.18
364.83	1667.05
365.04	1710.05
365.25	1685.48
365.46	1861.60
365.67	1714.15
365.88	1652.71
366.09	1732.58
366.30	1667.05
366.51	1769.44
366.72	1714.15
366.93	1724.39
367.14	1689.57
367.35	1810.40
367.56	1662.95
367.77	1843.17
367.98	1724.39
368.18	1708.01
368.39	1767.40
368.60	1665.00
368.81	1753.06
369.02	1681.38
369.23	1755.11
369.44	1693.67
369.65	1791.97
369.86	1718.25
370.07	1740.77
370.28	1644.52
370.49	1781.73
370.70	1820.64
370.91	1712.10
371.12	1705.96
371.33	1789.92
371.54	1658.85
371.75	1789.92
371.96	1642.47
372.17	1675.24
372.38	1697.77
372.59	1740.77
372.80	1673.19
373.01	1767.40
373.22	1736.68
373.43	1740.77
373.64	1665.00
373.85	1822.69
374.06	1771.49
374.26	1761.25
374.47	1705.96
374.68	1746.92
374.89	1681.38
375.10	1714.15
375.31	1771.49
375.52	1701.86
375.73	1699.81
375.94	1591.27
376.15	1771.49
376.36	1673.19
376.57	1724.39
376.78	1701.86
376.99	1681.38
377.20	1769.44
377.40	1660.90
377.61	1800.16
377.82	1667.05
378.03	1826.79
378.24	1730.53
378.45	1665.00
378.66	1703.91
378.87	1611.75
379.08	1681.38
379.29	1781.73
379.50	1863.65
379.71	1712.10
379.91	1716.20
380.12	1742.82
380.33	1781.73
380.54	1654.76
380.75	1665.00
380.96	1722.34
381.17	1789.92
381.38	1787.88
381.59	1755.11
381.80	1824.74
382.00	1822.69
382.21	1834.98
382.42	1826.79
382.63	1861.60
382.84	1738.73
383.05	1779.68
383.26	1824.74
383.47	1753.06
383.68	1845.22
383.88	1757.16
384.09	1730.53
384.30	1855.46
384.51	1843.17
384.72	1617.90
384.93	1636.33
385.14	1626.09
385.35	1824.74
385.55	1669.09
385.76	1845.22
385.97	1769.44
386.18	1607.66
386.39	1708.01
386.60	1738.73
386.81	1796.07
387.02	1703.91
387.22	1697.77
387.43	1779.68
387.64	1773.54
387.85	1812.45
388.06	2142.18
388.27	4181.95
388.48	6803.35
388.68	8245.12
388.89	9574.25
389.10	9930.60
389.31	8474.49
389.52	7698.31
389.73	6692.76
389.93	6266.78
390.14	5785.51
390.35	5269.42
390.56	4634.55
390.77	3772.36
390.98	2957.27
391.18	2516.95
391.39	2136.03
391.60	1884.13
391.81	1931.23
392.02	1732.58
392.23	1853.41
392.43	1812.45
392.64	1818.60
392.85	1726.44
393.06	1789.92
393.27	1777.64
393.47	1644.52
393.68	1746.92
393.89	1681.38
394.10	1841.12
394.31	1724.39
394.52	1656.81
394.72	1714.15
394.93	1826.79
395.14	1638.38
395.35	1763.30
395.56	1658.85
395.76	1753.06
395.97	1798.12
396.18	1808.36
396.39	1783.78
396.60	1988.58
396.80	1906.66
397.01	1832.93
397.22	1886.18
397.43	1834.98
397.64	1742.82
397.84	1787.88
398.05	1853.41
398.26	1804.26
398.47	1781.73
398.67	1841.12
398.88	1757.16
399.09	1826.79
399.30	1658.85
399.51	1730.53
399.71	1669.09
399.92	1687.53
400.13	1771.49
400.34	1847.27
400.54	1722.34
400.75	1779.68
400.96	1660.90
401.17	1865.70
401.37	1710.05
401.58	1742.82
401.79	1718.25
402.00	1914.85
402.21	2058.21
402.41	1925.09
402.62	2000.87
402.83	2037.73
403.04	2009.06
403.24	2090.98
403.45	1826.79
403.66	1882.08
403.87	1923.04
404.07	1978.34
404.28	1886.18
404.49	1757.16
404.70	1796.07
404.90	1794.02
405.11	1746.92
405.32	1685.48
405.52	1658.85
405.73	1675.24
405.94	1708.01
406.15	1728.49
406.35	1775.59
406.56	1796.07
406.77	1708.01
406.98	1701.86
407.18	1777.64
407.39	1753.06
407.60	1751.01
407.80	1855.46
408.01	1710.05
408.22	1759.21
408.43	1658.85
408.63	1718.25
408.84	1767.40
409.05	1779.68
409.25	1767.40
409.46	1677.29
409.67	1691.62
409.88	1802.21
410.08	1730.53
410.29	1718.25
410.50	1767.40
410.70	1751.01
410.91	1650.66
411.12	1730.53
411.32	1669.09
411.53	1710.05
411.74	1744.87
411.95	1828.84
412.15	1814.50
412.36	1859.56
412.57	1775.59
412.77	1808.36
412.98	1787.88
413.19	1726.44
413.39	1824.74
413.60	1730.53
413.81	1800.16
414.01	1685.48
414.22	1718.25
414.43	1730.53
414.63	1716.20
414.84	1751.01
415.05	1677.29
415.25	1671.14
415.46	1722.34
415.67	1705.96
415.87	1744.87
416.08	1746.92
416.29	1679.33
416.49	1746.92
416.70	1726.44
416.91	1699.81
417.11	1765.35
417.32	1773.54
417.53	1759.21
417.73	1755.11
417.94	1701.86
418.15	1740.77
418.35	1763.30
418.56	1734.63
418.77	1896.42
418.97	1652.71
419.18	1691.62
419.38	1576.94
419.59	1712.10
419.80	1826.79
420.00	1654.76
420.21	1757.16
420.42	1744.87
420.62	1681.38
420.83	1656.81
421.04	1665.00
421.24	1708.01
421.45	1800.16
421.65	1773.54
421.86	1658.85
422.07	1732.58
422.27	1724.39
422.48	1722.34
422.69	1681.38
422.89	1718.25
423.10	1732.58
423.30	1722.34
423.51	1710.05
423.72	1708.01
423.92	1724.39
424.13	1578.98
424.33	1785.83
424.54	1759.21
424.75	1748.97
424.95	1818.60
425.16	1740.77
425.36	1699.81
425.57	1814.50
425.78	1802.21
425.98	1740.77
426.19	1730.53
426.39	1669.09
426.60	1677.29
426.81	1794.02
427.01	1699.81
427.22	1753.06
427.42	1673.19
427.63	1644.52
427.83	1759.21
428.04	1757.16
428.25	1804.26
428.45	1755.11
428.66	1724.39
428.86	1734.63
429.07	1748.97
429.28	1783.78
429.48	1714.15
429.69	1701.86
429.89	1652.71
430.10	1691.62
430.30	1794.02
430.51	1855.46
430.71	1732.58
430.92	1701.86
431.13	1802.21
431.33	1787.88
431.54	1726.44
431.74	1775.59
431.95	1892.32
432.15	1621.99
432.36	1744.87
432.56	1773.54
432.77	1865.70
432.98	1837.03
433.18	1759.21
433.39	1742.82
433.59	1656.81
433.80	1863.65
434.00	1882.08
434.21	1656.81
434.41	1705.96
434.62	1877.99
434.82	1652.71
435.03	1660.90
435.23	1742.82
435.44	1683.43
435.64	1830.88
435.85	1708.01
436.06	1748.97
436.26	1761.25
436.47	1716.20
436.67	1611.75
436.88	1771.49
437.08	1771.49
437.29	1771.49
437.49	1726.44
437.70	1751.01
437.90	1765.35
438.11	1861.60
438.31	1806.31
438.52	1837.03
438.72	1820.64
438.93	1904.61
439.13	1759.21
439.34	1845.22
439.54	1773.54
439.75	1828.84
439.95	1839.08
440.16	1689.57
440.36	1740.77
440.57	1757.16
440.77	1708.01
440.98	1722.34
441.18	1738.73
441.39	1775.59
441.59	1697.77
441.80	1918.95
442.00	1685.48
442.21	1900.52
442.41	1718.25
442.62	1712.10
442.82	1742.82
443.02	1714.15
443.23	1779.68
443.43	1687.53
443.64	1896.42
443.84	1660.90
444.05	1796.07
444.25	1796.07
444.46	1710.05
444.66	1787.88
444.87	1873.89
445.07	1662.95
445.28	1730.53
445.48	1796.07
445.69	1851.36
445.89	1900.52
446.09	1787.88
446.30	2088.93
446.50	2611.16
446.71	3663.82
446.91	4411.32
447.12	4861.88
447.32	4890.55
447.53	4370.37
447.73	3792.84
447.93	3559.37
448.14	3317.71
448.34	3291.09
448.55	2951.12
448.75	2899.92
448.96	2707.41
449.16	2424.80
449.36	2336.73
449.57	2150.37
449.77	1902.56
449.98	1785.83
450.18	1783.78
450.39	1791.97
450.59	1834.98
450.79	1781.73
451.00	1701.86
451.20	1832.93
451.41	1734.63
451.61	1808.36
451.81	1751.01
452.02	1718.25
452.22	1779.68
452.43	1714.15
452.63	1718.25
452.84	1800.16
453.04	1742.82
453.24	1785.83
453.45	1753.06
453.65	1699.81
453.86	1757.16
454.06	1738.73
454.26	1734.63
454.47	1705.96
454.67	1861.60
454.87	1708.01
455.08	1783.78
455.28	1824.74
455.49	1863.65
455.69	1675.24
455.89	1837.03
456.10	1837.03
456.30	1734.63
456.51	1787.88
456.71	1740.77
456.91	1787.88
457.12	1708.01
457.32	1834.98
457.52	1683.43
457.73	1814.50
457.93	1775.59
458.14	1708.01
458.34	1697.77
458.54	1671.14
458.75	1734.63
458.95	1796.07
459.15	1853.41
459.36	1787.88
459.56	1802.21
459.76	1925.09
459.97	1787.88
460.17	1771.49
460.37	1759.21
460.58	1781.73
460.78	1839.08
460.99	1720.29
461.19	1771.49
461.39	1812.45
461.60	1716.20
461.80	1834.98
462.00	1708.01
462.21	1755.11
462.41	1619.94
462.61	1738.73
462.82	1662.95
463.02	1767.40
463.22	1757.16
463.43	1791.97
463.63	1796.07
463.83	1783.78
464.04	1722.34
464.24	1757.16
464.44	1773.54
464.64	1722.34
464.85	1828.84
465.05	1855.46
465.25	1640.42
465.46	1710.05
465.66	1787.88
465.86	1802.21
466.07	1880.04
466.27	1714.15
466.47	1667.05
466.68	1628.14
466.88	1804.26
467.08	1798.12
467.29	1783.78
467.49	1781.73
467.69	1734.63
467.89	1796.07
468.10	1699.81
468.30	1769.44
468.50	1828.84
468.71	1769.44
468.91	1648.61
469.11	1824.74
469.31	1738.73
469.52	1691.62
469.72	1834.98
469.92	1824.74
470.13	1751.01
470.33	1748.97
470.53	1865.70
470.73	2097.12
470.94	2250.72
471.14	2316.25
471.34	2572.25
471.54	2361.31
471.75	2301.92
471.95	2162.66
472.15	2058.21
472.36	2142.18
472.56	2097.12
472.76	1990.63
472.96	2037.73
473.17	1994.72
473.37	1914.85
473.57	1828.84
473.77	1826.79
473.98	1712.10
474.18	1687.53
474.38	1959.91
474.58	1687.53
474.79	1699.81
474.99	1812.45
475.19	1769.44
475.39	1697.77
475.60	1783.78
475.80	1779.68
476.00	1728.49
476.20	1751.01
476.41	1757.16
476.61	1800.16
476.81	1845.22
477.01	1779.68
477.21	1900.52
477.42	1863.65
477.62	1685.48
477.82	1761.25
478.02	1716.20
478.23	1695.72
478.43	1687.53
478.63	1685.48
478.83	1708.01
479.03	1722.34
479.24	1814.50
479.44	1820.64
479.64	1673.19
479.84	1615.85
480.04	1642.47
480.25	1849.32
480.45	1691.62
480.65	1740.77
480.85	1787.88
481.06	1710.05
481.26	1789.92
481.46	1785.83
481.66	1708.01
481.86	1748.97
482.06	1888.23
482.27	1681.38
482.47	1789.92
482.67	1728.49
482.87	1783.78
483.07	1804.26
483.28	1665.00
483.48	1722.34
483.68	1732.58
483.88	1724.39
484.08	1613.80
484.29	1683.43
484.49	1787.88
484.69	1712.10
484.89	1800.16
485.09	1884.13
485.29	1781.73
485.50	1794.02
485.70	1636.33
485.90	1779.68
486.10	1687.53
486.30	1753.06
486.50	1800.16
486.71	1685.48
486.91	1810.40
487.11	1824.74
487.31	1757.16
487.51	1724.39
487.71	1722.34
487.91	1728.49
488.12	1595.37
488.32	1609.70
488.52	1714.15
488.72	1628.14
488.92	1724.39
489.12	1869.80
489.32	1839.08
489.53	1755.11
489.73	1628.14
489.93	1742.82
490.13	1714.15
490.33	1732.58
490.53	1773.54
490.73	1775.59
490.94	1734.63
491.14	1765.35
491.34	1830.88
491.54	2131.94
491.74	2570.20
491.94	2936.79
492.14	3010.51
492.34	3002.32
492.54	2772.95
492.75	2557.91
492.95	2387.93
493.15	2287.58
493.35	2353.12
493.55	2248.67
493.75	2086.88
493.95	2156.51
494.15	1982.43
494.35	1947.62
494.56	1775.59
494.76	1779.68
494.96	1746.92
495.16	1734.63
495.36	1712.10
495.56	1710.05
495.76	1677.29
495.96	1726.44
496.16	1761.25
496.36	1902.56
496.56	1779.68
496.77	1839.08
496.97	1710.05
497.17	1763.30
497.37	1703.91
497.57	1744.87
497.77	1742.82
497.97	1626.09
498.17	1828.84
498.37	1775.59
498.57	1757.16
498.77	1685.48
498.97	1822.69
499.17	1851.36
499.38	1730.53
499.58	1744.87
499.78	1857.51
499.98	1845.22
500.18	1751.01
500.38	1761.25
500.58	1937.38
500.78	2645.98
500.98	4599.74
501.18	5875.62
501.38	6743.96
501.58	7268.24
501.78	6627.23
501.98	5582.76
502.18	5007.28
502.38	4538.30
502.58	4184.00
502.78	3876.80
502.98	3592.14
503.18	3456.97
503.38	3213.26
503.59	2854.87
503.79	2795.48
503.99	2467.80
504.19	2234.33
504.39	2209.76
504.59	2101.22
504.79	2117.60
504.99	2070.50
505.19	1976.29
505.39	1920.99
505.59	2000.87
505.79	1886.18
505.99	1884.13
506.19	1855.46
506.39	1898.47
506.59	1755.11
506.79	1757.16
506.99	1765.35
507.19	1773.54
507.39	1841.12
507.59	1742.82
507.79	1691.62
507.99	1693.67
508.19	1755.11
508.39	1730.53
508.59	1708.01
508.79	1861.60
508.99	1869.80
509.19	1773.54
509.39	1767.40
509.59	1708.01
509.79	1726.44
509.99	1839.08
510.19	1789.92
510.39	1828.84
510.59	1744.87
510.79	1798.12
510.99	1634.28
511.19	1787.88
511.39	1779.68
511.59	1804.26
511.79	1826.79
511.99	1779.68
512.19	1730.53
512.38	1785.83
512.58	1722.34
512.78	1726.44
512.98	1794.02
513.18	1877.99
513.38	1665.00
513.58	1812.45
513.78	1640.42
513.98	1759.21
514.18	1765.35
514.38	1691.62
514.58	1796.07
514.78	1716.20
514.98	1708.01
515.18	1708.01
515.38	1673.19
515.58	1927.14
515.78	1685.48
515.98	1687.53
516.18	1800.16
516.38	1738.73
516.57	1693.67
516.77	1775.59
516.97	1816.55
517.17	1650.66
517.37	1671.14
517.57	1722.34
517.77	1761.25
517.97	1732.58
518.17	1767.40
518.37	1675.24
518.57	1734.63
518.77	1748.97
518.97	1742.82
519.16	1845.22
519.36	1822.69
519.56	1736.68
519.76	1763.30
519.96	1710.05
520.16	1853.41
520.36	1685.48
520.56	1796.07
520.76	1755.11
520.96	1759.21
521.16	1796.07
521.35	1826.79
521.55	1845.22
521.75	1748.97
521.95	1751.01
522.15	1730.53
522.35	1640.42
522.55	1742.82
522.75	1746.92
522.95	1626.09
523.14	1695.72
523.34	1818.60
523.54	1712.10
523.74	1777.64
523.94	1673.19
524.14	1675.24
524.34	1789.92
524.54	1802.21
524.73	1781.73
524.93	1751.01
525.13	1724.39
525.33	1644.52
525.53	1918.95
525.73	1806.31
525.93	1828.84
526.13	1695.72
526.32	1763.30
526.52	1839.08
526.72	1802.21
526.92	1791.97
527.12	1781.73
527.32	1689.57
527.52	1820.64
527.71	1824.74
527.91	1808.36
528.11	1753.06
528.31	1771.49
528.51	1628.14
528.71	1773.54
528.90	1763.30
529.10	1826.79
529.30	1810.40
529.50	1660.90
529.70	1759.21
529.90	1689.57
530.09	1775.59
530.29	1638.38
530.49	1724.39
530.69	1871.84
530.89	1779.68
531.09	1779.68
531.28	1703.91
531.48	1828.84
531.68	1683.43
531.88	1779.68
532.08	1783.78
532.28	1734.63
532.47	1763.30
532.67	1802.21
532.87	1783.78
533.07	1689.57
533.27	1808.36
533.46	1816.55
533.66	1781.73
533.86	1740.77
534.06	1781.73
534.26	1771.49
534.45	1705.96
534.65	1767.40
534.85	1710.05
535.05	1755.11
535.25	1796.07
535.44	1673.19
535.64	1775.59
535.84	1714.15
536.04	1714.15
536.24	1751.01
536.43	1665.00
536.63	1755.11
536.83	1703.91
537.03	1703.91
537.22	1673.19
537.42	1605.61
537.62	1744.87
537.82	1761.25
538.02	1861.60
538.21	1814.50
538.41	1912.80
538.61	1763.30
538.81	1761.25
539.00	1812.45
539.20	1585.13
539.40	1742.82
539.60	1742.82
539.79	1779.68
539.99	1804.26
540.19	1722.34
540.39	1781.73
540.58	1791.97
540.78	1732.58
540.98	1794.02
541.18	1834.98
541.37	1832.93
541.57	1722.34
541.77	1787.88
541.97	1730.53
542.16	1714.15
542.36	1736.68
542.56	1751.01
542.76	1914.85
542.95	1794.02
543.15	1742.82
543.35	1871.84
543.54	1644.52
543.74	1695.72
543.94	1820.64
544.14	1753.06
544.33	1761.25
544.53	1705.96
544.73	1744.87
544.93	1734.63
545.12	1816.55
545.32	1771.49
545.52	1800.16
545.71	1587.18
545.91	1689.57
546.11	1697.77
546.30	1732.58
546.50	1791.97
546.70	1763.30
546.90	1763.30
547.09	1589.22
547.29	1771.49
547.49	1789.92
547.68	1783.78
547.88	1763.30
548.08	1828.84
548.27	2201.57
548.47	1755.11
548.67	1626.09
548.87	1796.07
549.06	1652.71
549.26	1716.20
549.46	1787.88
549.65	1669.09
549.85	1781.73
550.05	1814.50
550.24	1728.49
550.44	1662.95
550.64	1753.06
550.83	1744.87
551.03	1789.92
551.23	1863.65
551.42	1812.45
551.62	1761.25
551.82	1716.20
552.01	1701.86
552.21	1849.32
552.41	1765.35
552.60	1851.36
552.80	1789.92
553.00	1775.59
553.19	1832.93
553.39	1818.60
553.59	1763.30
553.78	1802.21
553.98	1736.68
554.17	1681.38
554.37	1771.49
554.57	1834.98
554.76	1648.61
554.96	1742.82
555.16	1785.83
555.35	1777.64
555.55	1818.60
555.75	1722.34
555.94	1794.02
556.14	1722.34
556.33	1820.64
556.53	1757.16
556.73	1759.21
556.92	1808.36
557.12	1857.51
557.32	1869.80
557.51	1826.79
557.71	1796.07
557.90	1892.32
558.10	1841.12
558.30	1730.53
558.49	1761.25
558.69	1644.52
558.88	1810.40
559.08	1785.83
559.28	1738.73
559.47	1769.44
559.67	1734.63
559.86	1894.37
560.06	1759.21
560.26	1712.10
560.45	1767.40
560.65	1730.53
560.84	1896.42
561.04	1779.68
561.24	1718.25
561.43	1708.01
561.63	1877.99
561.82	1673.19
562.02	1728.49
562.22	1675.24
562.41	1675.24
562.61	1679.33
562.80	1742.82
563.00	1798.12
563.19	1837.03
563.39	1740.77
563.59	1800.16
563.78	1638.38
563.98	1638.38
564.17	1708.01
564.37	1644.52
564.56	1767.40
564.76	1660.90
564.96	1771.49
565.15	1814.50
565.35	1947.62
565.54	1814.50
565.74	1837.03
565.93	1740.77
566.13	1796.07
566.32	1802.21
566.52	1777.64
566.71	1755.11
566.91	1773.54
567.11	1652.71
567.30	1722.34
567.50	1847.27
567.69	1779.68
567.89	1777.64
568.08	1730.53
568.28	1814.50
568.47	1648.61
568.67	1771.49
568.86	1748.97
569.06	1802.21
569.25	1794.02
569.45	1628.14
569.64	1730.53
569.84	1722.34
570.04	1699.81
570.23	1775.59
570.43	1705.96
570.62	1773.54
570.82	1882.08
571.01	1755.11
571.21	1771.49
571.40	1677.29
571.60	1839.08
571.79	1755.11
571.99	1703.91
572.18	1689.57
572.38	1730.53
572.57	1710.05
572.77	1843.17
572.96	1908.71
573.16	1765.35
573.35	1808.36
573.55	1861.60
573.74	1769.44
573.94	1806.31
574.13	1675.24
574.33	1796.07
574.52	1859.56
574.71	1798.12
574.91	1773.54
575.10	1683.43
575.30	1728.49
575.49	1710.05
575.69	1587.18
575.88	1763.30
576.08	1746.92
576.27	1804.26
576.47	1753.06
576.66	1880.04
576.86	1843.17
577.05	1796.07
577.25	1755.11
577.44	1728.49
577.64	1722.34
577.83	1777.64
578.02	1720.29
578.22	1865.70
578.41	1882.08
578.61	1785.83
578.80	1712.10
579.00	1855.46
579.19	1796.07
579.39	1804.26
579.58	1843.17
579.77	1753.06
579.97	1830.88
580.16	1839.08
580.36	1861.60
580.55	1800.16
580.75	1777.64
580.94	1718.25
581.13	1853.41
581.33	1877.99
581.52	1722.34
581.72	1945.57
581.91	1867.75
582.11	1716.20
582.30	1812.45
582.49	1880.04
582.69	1834.98
582.88	1822.69
583.08	1820.64
583.27	1845.22
583.47	1703.91
583.66	1660.90
583.85	1642.47
584.05	1722.34
584.24	1886.18
584.44	1765.35
584.63	1726.44
584.82	1806.31
585.02	1859.56
585.21	1910.75
585.41	1812.45
585.60	1826.79
585.79	1955.81
585.99	1980.39
586.18	1826.79
586.37	2197.47
586.57	3383.24
586.76	9928.55
586.96	24350.35
587.15	34278.90
587.34	40596.88
587.54	42065.28
587.73	36314.58
587.93	26394.22
588.12	21399.23
588.31	18366.18
588.51	16267.02
588.70	15019.80
588.89	14034.73
589.09	12484.42
589.28	10934.11
589.47	9418.61
589.67	8013.70
589.86	6348.70
590.06	4888.50
590.25	3971.01
590.44	3119.06
590.64	2516.95
590.83	2265.05
591.02	2090.98
591.22	1900.52
591.41	1869.80
591.60	1806.31
591.80	1945.57
591.99	1791.97
592.18	1826.79
592.38	1920.99
592.57	1824.74
592.76	1816.55
592.96	1851.36
593.15	1748.97
593.34	1824.74
593.54	1667.05
593.73	1814.50
593.92	1787.88
594.12	1755.11
594.31	1779.68
594.50	1839.08
594.70	1783.78
594.89	1959.91
595.08	1738.73
595.28	1779.68
595.47	1972.19
595.66	1837.03
595.86	1689.57
596.05	1783.78
596.24	1673.19
596.43	1845.22
596.63	1820.64
596.82	1816.55
597.01	1804.26
597.21	1886.18
597.40	1810.40
597.59	1736.68
597.79	1755.11
597.98	1853.41
598.17	1712.10
598.36	1812.45
598.56	1712.10
598.75	1699.81
598.94	1716.20
599.14	1783.78
599.33	1720.29
599.52	1845.22
599.71	1853.41
599.91	1834.98
600.10	1732.58
600.29	1720.29
600.48	1773.54
600.68	1810.40
600.87	1759.21
601.06	1740.77
601.26	1742.82
601.45	1779.68
601.64	1726.44
601.83	1834.98
602.03	1736.68
602.22	1685.48
602.41	1820.64
602.60	1882.08
602.80	1812.45
602.99	1757.16
603.18	1769.44
603.37	1652.71
603.57	1734.63
603.76	1787.88
603.95	1769.44
604.14	1740.77
604.34	1710.05
604.53	1761.25
604.72	1705.96
604.91	1832.93
605.10	1765.35
605.30	1689.57
605.49	1923.04
605.68	1820.64
605.87	1738.73
606.07	1796.07
606.26	1808.36
606.45	1857.51
606.64	1794.02
606.84	1753.06
607.03	1724.39
607.22	1871.84
607.41	1728.49
607.60	1837.03
607.80	1802.21
607.99	1691.62
608.18	1763.30
608.37	1796.07
608.56	1681.38
608.76	1871.84
608.95	1845.22
609.14	1794.02
609.33	1789.92
609.52	1808.36
609.72	1761.25
609.91	1806.31
610.10	1726.44
610.29	1851.36
610.48	1785.83
610.68	1746.92
610.87	1826.79
611.06	1781.73
611.25	1761.25
611.44	1802.21
611.63	1755.11
611.83	1841.12
612.02	1726.44
612.21	1789.92
612.40	1628.14
612.59	1677.29
612.79	1665.00
612.98	1806.31
613.17	1824.74
613.36	1777.64
613.55	1875.94
613.74	1730.53
613.93	1673.19
614.13	1740.77
614.32	1759.21
614.51	1865.70
614.70	1685.48
614.89	1652.71
615.08	1771.49
615.28	2045.92
615.47	1667.05
615.66	1730.53
615.85	1751.01
616.04	1892.32
616.23	1728.49
616.42	1767.40
616.62	1757.16
616.81	1761.25
617.00	1787.88
617.19	1779.68
617.38	1753.06
617.57	1787.88
617.76	1699.81
617.95	1804.26
618.15	1779.68
618.34	1820.64
618.53	1617.90
618.72	1771.49
618.91	1839.08
619.10	1787.88
619.29	1716.20
619.48	1753.06
619.68	1720.29
619.87	1751.01
620.06	1679.33
620.25	1728.49
620.44	1757.16
620.63	1699.81
620.82	1714.15
621.01	1718.25
621.20	1720.29
621.39	1800.16
621.59	1859.56
621.78	1720.29
621.97	1710.05
622.16	1865.70
622.35	1796.07
622.54	1732.58
622.73	1865.70
622.92	1667.05
623.11	1847.27
623.30	1740.77
623.49	1755.11
623.68	1701.86
623.88	1781.73
624.07	1787.88
624.26	1736.68
624.45	1740.77
624.64	1714.15
624.83	1804.26
625.02	1773.54
625.21	1771.49
625.40	1773.54
625.59	1773.54
625.78	1855.46
625.97	1767.40
626.16	1783.78
626.35	1703.91
626.54	1720.29
626.74	1812.45
626.93	1763.30
627.12	1685.48
627.31	1820.64
627.50	1724.39
627.69	1800.16
627.88	1763.30
628.07	1777.64
628.26	1630.18
628.45	1712.10
628.64	1667.05
628.83	1708.01
629.02	1681.38
629.21	1857.51
629.40	1705.96
629.59	1681.38
629.78	1759.21
629.97	1734.63
630.16	1724.39
630.35	1722.34
630.54	1714.15
630.73	1630.18
630.92	1744.87
631.11	1617.90
631.30	1712.10
631.49	1767.40
631.68	1699.81
631.87	1740.77
632.06	1638.38
632.25	1847.27
632.44	1724.39
632.63	1744.87
632.82	1671.14
633.01	1681.38
633.20	1738.73
633.39	1679.33
633.58	1699.81
633.77	1740.77
633.96	1791.97
634.15	1742.82
634.34	1787.88
634.53	1755.11
634.72	1714.15
634.91	1621.99
635.10	1822.69
635.29	1824.74
635.48	1683.43
635.67	1777.64
635.86	1665.00
636.05	1748.97
636.24	1748.97
636.43	1794.02
636.62	1740.77
636.81	1646.57
637.00	1697.77
637.19	1820.64
637.38	1728.49
637.57	1701.86
637.76	1744.87
637.95	1695.72
638.14	1652.71
638.33	1724.39
638.52	1785.83
638.71	1746.92
638.89	1689.57
639.08	1839.08
639.27	1716.20
639.46	1650.66
639.65	1796.07
639.84	1720.29
640.03	1834.98
640.22	1705.96
640.41	1820.64
640.60	1693.67
640.79	1779.68
640.98	1746.92
641.17	1748.97
641.36	1708.01
641.55	1771.49
641.74	1673.19
641.92	1658.85
642.11	1714.15
642.30	1751.01
642.49	1763.30
642.68	1722.34
642.87	1763.30
643.06	1751.01
643.25	1593.32
643.44	1781.73
643.63	1689.57
643.82	1736.68
644.00	1701.86
644.19	1761.25
644.38	1693.67
644.57	1726.44
644.76	1722.34
644.95	1785.83
645.14	1765.35
645.33	1671.14
645.52	1734.63
645.71	1738.73
645.89	1669.09
646.08	1751.01
646.27	1734.63
646.46	1830.88
646.65	1662.95
646.84	1740.77
647.03	1671.14
647.22	1789.92
647.40	1746.92
647.59	1730.53
647.78	1677.29
647.97	1697.77
648.16	1728.49
648.35	1753.06
648.54	1834.98
648.73	1628.14
648.91	1767.40
649.10	1720.29
649.29	1685.48
649.48	1771.49
649.67	1777.64
649.86	1759.21
650.05	1665.00
650.23	1791.97
650.42	1669.09
650.61	1791.97
650.80	1771.49
650.99	1871.84
651.18	1783.78
651.36	1783.78
651.55	1753.06
651.74	1779.68
651.93	1714.15
652.12	1667.05
652.31	1781.73
652.49	1708.01
652.68	1738.73
652.87	1845.22
653.06	1722.34
653.25	1845.22
653.44	1767.40
653.62	1808.36
653.81	1742.82
654.00	1759.21
654.19	1738.73
654.38	1849.32
654.56	1769.44
654.75	1705.96
654.94	1851.36
655.13	1839.08
655.32	1691.62
655.51	1730.53
655.69	1677.29
655.88	1812.45
656.07	1607.66
656.26	1834.98
656.45	1650.66
656.63	1748.97
656.82	1710.05
657.01	1757.16
657.20	1712.10
657.38	1808.36
657.57	1685.48
657.76	1648.61
657.95	1769.44
658.14	1718.25
658.32	1710.05
658.51	1652.71
658.70	1791.97
658.89	1767.40
659.08	1732.58
659.26	1814.50
659.45	1648.61
659.64	1714.15
659.83	1671.14
660.01	1880.04
660.20	1773.54
660.39	1746.92
660.58	1628.14
660.76	1820.64
660.95	1603.56
661.14	1720.29
661.33	1669.09
661.51	1710.05
661.70	1755.11
661.89	1763.30
662.08	1761.25
662.26	1658.85
662.45	1638.38
662.64	1927.14
662.83	1763.30
663.01	1681.38
663.20	1730.53
663.39	1863.65
663.58	1701.86
663.76	1738.73
663.95	1787.88
664.14	1734.63
664.32	1738.73
664.51	1630.18
664.70	1593.32
664.89	1804.26
665.07	1656.81
665.26	1812.45
665.45	1603.56
665.64	1783.78
665.82	1716.20
666.01	1732.58
666.20	1630.18
666.38	1837.03
666.57	1775.59
666.76	2238.43
666.95	4571.07
667.13	10694.49
667.32	15435.54
667.51	17958.64
667.69	19164.89
667.88	17764.08
668.07	12177.22
668.25	9629.55
668.44	8132.48
668.63	7323.54
668.81	6969.24
669.00	6197.15
669.19	5676.97
669.38	5091.25
669.56	4595.64
669.75	3999.68
669.94	3487.69
670.12	2951.12
670.31	2543.58
670.50	2328.54
670.68	2062.30
670.87	1867.75
671.06	1820.64
671.24	1810.40
671.43	1923.04
671.62	1708.01
671.80	1701.86
671.99	1787.88
672.18	1789.92
672.36	1734.63
672.55	1763.30
672.74	1691.62
672.92	1681.38
673.11	1759.21
673.29	1718.25
673.48	1732.58
673.67	1675.24
673.85	1800.16
674.04	1722.34
674.23	1773.54
674.41	1755.11
674.60	1675.24
674.79	1607.66
674.97	1697.77
675.16	1787.88
675.34	1722.34
675.53	1798.12
675.72	1849.32
675.90	1755.11
676.09	1691.62
676.28	1687.53
676.46	1656.81
676.65	1798.12
676.83	1701.86
677.02	1708.01
677.21	1660.90
677.39	1732.58
677.58	1714.15
677.77	1681.38
677.95	1724.39
678.14	1757.16
678.32	1703.91
678.51	1687.53
678.70	1806.31
678.88	1718.25
679.07	1718.25
679.25	1689.57
679.44	1763.30
679.63	1665.00
679.81	1683.43
680.00	1787.88
680.18	1767.40
680.37	1777.64
680.55	1761.25
680.74	1640.42
680.93	1570.79
681.11	1753.06
681.30	1697.77
681.48	1687.53
681.67	1757.16
681.85	1609.70
682.04	1689.57
682.23	1726.44
682.41	1796.07
682.60	1691.62
682.78	1748.97
682.97	1675.24
683.15	1734.63
683.34	1779.68
683.53	1820.64
683.71	1751.01
683.90	1843.17
684.08	1800.16
684.27	1765.35
684.45	1802.21
684.64	1763.30
684.82	1662.95
685.01	1779.68
685.19	1738.73
685.38	1810.40
685.57	1767.40
685.75	1609.70
685.94	1734.63
686.12	1716.20
686.31	1757.16
686.49	1787.88
686.68	1726.44
686.86	1748.97
687.05	1716.20
687.23	1832.93
687.42	1652.71
687.60	1662.95
687.79	1775.59
687.97	1837.03
688.16	1744.87
688.34	1751.01
688.53	1642.47
688.71	1740.77
688.90	1789.92
689.08	1689.57
689.27	1681.38
689.45	1724.39
689.64	1732.58
689.82	1691.62
690.01	1765.35
690.19	1697.77
690.38	1691.62
690.56	1800.16
690.75	1710.05
690.93	1716.20
691.12	1646.57
691.30	1685.48
691.49	1734.63
691.67	1683.43
691.86	1931.23
692.04	1669.09
692.23	1681.38
692.41	1716.20
692.60	1804.26
692.78	1806.31
692.97	1738.73
693.15	1742.82
693.34	1783.78
693.52	1779.68
693.71	1681.38
693.89	1656.81
694.08	1656.81
694.26	1742.82
694.44	1834.98
694.63	1730.53
694.81	1675.24
695.00	1685.48
695.18	1738.73
695.37	1890.28
695.55	1703.91
695.74	1718.25
695.92	1603.56
696.10	1820.64
696.29	1738.73
696.47	1708.01
696.66	1607.66
696.84	1689.57
697.03	1738.73
697.21	1871.84
697.40	2316.25
697.58	1859.56
697.76	1734.63
697.95	1638.38
698.13	1710.05
698.32	1656.81
698.50	1712.10
698.68	1730.53
698.87	1791.97
699.05	1845.22
699.24	1722.34
699.42	1718.25
699.61	1724.39
699.79	1728.49
699.97	1757.16
700.16	1605.61
700.34	1724.39
700.53	1705.96
700.71	1775.59
700.89	1738.73
701.08	1716.20
701.26	1712.10
701.45	2138.08
701.63	1677.29
701.81	1712.10
702.00	1779.68
702.18	1714.15
702.37	1773.54
702.55	1808.36
702.73	1730.53
702.92	1683.43
703.10	1691.62
703.28	1662.95
703.47	1640.42
703.65	1810.40
703.84	1767.40
704.02	1710.05
704.20	1882.08
704.39	1685.48
704.57	1716.20
704.75	1785.83
704.94	1816.55
705.12	1751.01
705.30	1816.55
705.49	2295.77
705.67	4722.62
705.86	9586.54
706.04	12687.17
706.22	14524.19
706.41	15429.40
706.59	13565.74
706.77	9420.66
706.96	7452.56
707.14	6498.20
707.32	5916.58
707.51	5488.56
707.69	4954.04
707.87	4270.01
708.06	3567.56
708.24	2914.26
708.42	2412.51
708.61	2248.67
708.79	1882.08
708.97	1914.85
709.16	1851.36
709.34	1722.34
709.52	1693.67
709.71	1728.49
709.89	1730.53
710.07	1716.20
710.26	1642.47
710.44	1744.87
710.62	1769.44
710.80	1791.97
710.99	1800.16
711.17	1771.49
711.35	1773.54
711.54	1691.62
711.72	1791.97
711.90	1765.35
712.09	1734.63
712.27	1714.15
712.45	1824.74
712.63	1673.19
712.82	1753.06
713.00	1728.49
713.18	1710.05
713.37	1705.96
713.55	1722.34
713.73	1732.58
713.91	1746.92
714.10	1761.25
714.28	1712.10
714.46	1751.01
714.65	1820.64
714.83	1736.68
715.01	1710.05
715.19	1708.01
715.38	1699.81
715.56	1798.12
715.74	1714.15
715.92	1619.94
716.11	1755.11
716.29	1699.81
716.47	1726.44
716.65	1615.85
716.84	1581.03
717.02	1849.32
717.20	1658.85
717.38	1673.19
717.57	1718.25
717.75	1767.40
717.93	1658.85
718.11	1728.49
718.30	1642.47
718.48	1742.82
718.66	1804.26
718.84	1779.68
719.03	1718.25
719.21	1732.58
719.39	1755.11
719.57	1779.68
719.75	1843.17
719.94	1683.43
720.12	1697.77
720.30	1718.25
720.48	1740.77
720.67	1675.24
720.85	1652.71
721.03	1712.10
721.21	1701.86
721.39	1830.88
721.58	1759.21
721.76	1796.07
721.94	1726.44
722.12	1685.48
722.30	1814.50
722.49	1642.47
722.67	1773.54
722.85	1712.10
723.03	1605.61
723.21	1708.01
723.40	1738.73
723.58	1798.12
723.76	1716.20
723.94	1748.97
724.12	1705.96
724.30	1736.68
724.49	1742.82
724.67	1636.33
724.85	1824.74
725.03	1693.67
725.21	1757.16
725.40	1710.05
725.58	1746.92
725.76	1810.40
725.94	1773.54
726.12	1685.48
726.30	1755.11
726.49	1744.87
726.67	1712.10
726.85	1726.44
727.03	1861.60
727.21	2254.81
727.39	3030.99
727.57	3848.13
727.76	4218.82
727.94	4423.61
728.12	4396.99
728.30	3667.91
728.48	3059.67
728.66	2723.80
728.84	2631.64
729.03	2359.26
729.21	2199.52
729.39	1961.95
729.57	1837.03
729.75	1890.28
729.93	1857.51
730.11	1783.78
730.30	1765.35
730.48	1753.06
730.66	1804.26
730.84	1830.88
731.02	1773.54
731.20	1710.05
731.38	1751.01
731.56	1691.62
731.74	1679.33
731.93	1693.67
732.11	1687.53
732.29	1701.86
732.47	1773.54
732.65	1785.83
732.83	1761.25
733.01	1755.11
733.19	1693.67
733.37	1800.16
733.56	1867.75
733.74	1720.29
733.92	1769.44
734.10	1665.00
734.28	1779.68
734.46	1648.61
734.64	1644.52
734.82	1650.66
735.00	1685.48
735.18	1724.39
735.36	1712.10
735.54	1699.81
735.73	1759.21
735.91	1689.57
736.09	1779.68
736.27	1691.62
736.45	1730.53
736.63	1673.19
736.81	1703.91
736.99	1839.08
737.17	1761.25
737.35	1695.72
737.53	1662.95
737.71	1634.28
737.89	1789.92
738.07	1677.29
738.25	1628.14
738.43	1683.43
738.61	1671.14
738.80	1599.46
738.98	1673.19
739.16	1689.57
739.34	1714.15
739.52	1832.93
739.70	1654.76
739.88	1693.67
740.06	1818.60
740.24	1601.51
740.42	1751.01
740.60	1652.71
740.78	1730.53
740.96	1564.65
741.14	1730.53
741.32	1712.10
741.50	1619.94
741.68	1822.69
741.86	1773.54
742.04	1572.84
742.22	1689.57
742.40	1722.34
742.58	1689.57
742.76	1708.01
742.94	1798.12
743.12	1632.23
743.30	1710.05
743.48	1771.49
743.66	1654.76
743.84	1697.77
744.02	1720.29
744.20	1689.57
744.38	1667.05
744.56	1628.14
744.74	1810.40
744.92	1837.03
745.10	1814.50
745.28	1804.26
745.46	1781.73
745.64	1705.96
745.82	1802.21
746.00	1755.11
746.18	1693.67
746.36	1689.57
746.54	1695.72
746.72	1751.01
746.90	1675.24
747.08	1765.35
747.26	1716.20
747.44	1814.50
747.62	1804.26
747.80	1779.68
747.98	1781.73
748.15	1685.48
748.33	1853.41
748.51	1726.44
748.69	1798.12
748.87	1681.38
749.05	1728.49
749.23	1751.01
749.41	1726.44
749.59	1714.15
749.77	1820.64
749.95	1642.47
750.13	1691.62
750.31	1722.34
750.49	1765.35
750.67	1785.83
750.85	1744.87
751.03	1779.68
751.20	1851.36
751.38	1755.11
751.56	1654.76
751.74	1699.81
751.92	1660.90
752.10	1679.33
752.28	1779.68
752.46	1693.67
752.64	1648.61
752.82	1642.47
753.00	1808.36
753.18	1634.28
753.35	1710.05
753.53	1658.85
753.71	1673.19
753.89	1798.12
754.07	1808.36
754.25	1736.68
754.43	1683.43
754.61	1701.86
754.79	1779.68
754.97	1740.77
755.14	1775.59
755.32	1640.42
755.50	1716.20
755.68	1689.57
755.86	1624.04
756.04	1724.39
756.22	1636.33
756.40	1816.55
756.57	1751.01
756.75	1665.00
756.93	1855.46
757.11	1781.73
757.29	1697.77
757.47	1734.63
757.65	1626.09
757.82	1607.66
758.00	1619.94
758.18	1722.34
758.36	1685.48
758.54	1822.69
758.72	1605.61
758.90	1834.98
759.07	1710.05
759.25	1660.90
759.43	1736.68
759.61	1714.15
759.79	2193.37
759.97	1785.83
760.15	1658.85
760.32	1720.29
760.50	1632.23
760.68	1742.82
760.86	1658.85
761.04	1806.31
761.22	1716.20
761.39	1714.15
761.57	1685.48
761.75	1771.49
761.93	1773.54
762.11	1718.25
762.28	1693.67
762.46	1669.09
762.64	1814.50
762.82	1681.38
763.00	1726.44
763.18	1779.68
763.35	1708.01
763.53	1843.17
763.71	1716.20
763.89	1675.24
764.07	1732.58
764.24	1751.01
764.42	1761.25
764.60	1738.73
764.78	1740.77
764.96	1769.44
765.13	1769.44
765.31	1734.63
765.49	1703.91
765.67	1705.96
765.84	1740.77
766.02	1679.33
766.20	1632.23
766.38	1796.07
766.56	1701.86
766.73	1773.54
766.91	1665.00
767.09	1746.92
767.27	1714.15
767.44	1693.67
767.62	1738.73
767.80	1740.77
767.98	1720.29
768.15	1740.77
768.33	1783.78
768.51	1773.54
768.69	1804.26
768.87	1773.54
769.04	1738.73
769.22	1851.36
769.40	1748.97
769.58	1849.32
769.75	1720.29
769.93	1873.89
770.11	1720.29
770.28	1689.57
770.46	1736.68
770.64	1662.95
770.82	1716.20
770.99	1683.43
771.17	1744.87
771.35	1730.53
771.53	1722.34
771.70	1718.25
771.88	1775.59
772.06	1708.01
772.23	1718.25
772.41	1708.01
772.59	1732.58
772.77	1662.95
772.94	1787.88
773.12	1765.35
773.30	1605.61
773.47	1748.97
773.65	1677.29
773.83	1785.83
774.01	1755.11
774.18	1605.61
774.36	1769.44
774.54	1644.52
774.71	1830.88
774.89	1603.56
775.07	1722.34
775.24	1662.95
775.42	1716.20
775.60	1804.26
775.78	1652.71
775.95	1699.81
776.13	1570.79
776.31	1611.75
776.48	1773.54
776.66	1787.88
776.84	1660.90
777.01	1574.89
777.19	1710.05
777.37	1708.01
777.54	1789.92
777.72	1845.22
777.90	1722.34
778.07	1601.51
778.25	1843.17
778.43	1783.78
778.60	1708.01
778.78	1734.63
778.96	1714.15
779.13	1624.04
779.31	1787.88
779.49	1773.54
779.66	1705.96
779.84	1677.29
780.01	1695.72
780.19	1697.77
780.37	1863.65
780.54	1806.31
780.72	1703.91
780.90	1675.24
781.07	1665.00
781.25	1681.38
781.43	1734.63
781.60	1742.82
781.78	1773.54
781.95	1775.59
782.13	1683.43
782.31	1724.39
782.48	1587.18
782.66	1703.91
782.83	1757.16
783.01	1759.21
783.19	1751.01
783.36	1699.81
783.54	1662.95
783.72	1746.92
783.89	1544.17
784.07	1738.73
784.24	1626.09
784.42	1787.88
784.60	1773.54
784.77	1744.87
784.95	1630.18
785.12	1669.09
785.30	1691.62
785.47	1679.33
785.65	1720.29
785.83	1816.55
786.00	1708.01
786.18	1718.25
786.35	1628.14
786.53	1640.42
786.71	1771.49
786.88	1783.78
787.06	1699.81
787.23	1732.58
787.41	1685.48
787.58	1742.82
787.76	1671.14
787.94	1693.67
788.11	1701.86
788.29	1667.05
788.46	1732.58
788.64	1632.23
788.81	1681.38
788.99	1691.62
789.16	1650.66
789.34	1740.77
789.52	1683.43
789.69	1665.00
789.87	1609.70
790.04	1685.48
790.22	1701.86
790.39	1853.41
790.57	1652.71
790.74	1769.44
790.92	1736.68
791.09	1660.90
791.27	1755.11
791.44	1834.98
791.62	1695.72
791.79	1744.87
791.97	1755.11
792.15	1849.32
792.32	1734.63
792.50	1777.64
792.67	1849.32
792.85	1822.69
793.02	1740.77
793.20	1667.05
793.37	1675.24
793.55	1675.24
793.72	1628.14
793.90	1740.77
794.07	1679.33
794.25	1732.58
794.42	1734.63
794.60	1677.29
794.77	1751.01
794.95	1785.83
795.12	1779.68
795.30	1736.68
795.47	1599.46
795.65	1798.12
795.82	1701.86
796.00	1665.00
796.17	1767.40
796.34	1691.62
796.52	1765.35
796.69	1748.97
796.87	1810.40
797.04	1746.92
797.22	1732.58
797.39	1665.00
797.57	1783.78
797.74	1710.05
797.92	1761.25
798.09	1746.92
798.27	1789.92
798.44	1751.01
798.62	1693.67
798.79	1732.58
798.96	1697.77
799.14	1679.33
799.31	1759.21
799.49	1716.20
799.66	1679.33
799.84	1712.10
800.01	1640.42
800.19	1714.15
800.36	1665.00
800.53	1828.84
800.71	1759.21
800.88	1830.88
801.06	1703.91
801.23	1660.90
801.41	1644.52
801.58	1642.47
801.75	1726.44
801.93	1710.05
802.10	1767.40
802.28	1693.67
802.45	1626.09
802.63	1697.77
802.80	1855.46
802.97	1662.95
803.15	1730.53
803.32	1740.77
803.50	1660.90
803.67	1738.73
803.84	1720.29
804.02	1757.16
804.19	1693.67
804.37	1587.18
804.54	1585.13
804.71	1687.53
804.89	1703.91
805.06	1722.34
805.24	1718.25
805.41	1740.77
805.58	1646.57
805.76	1837.03
805.93	1755.11
806.10	1810.40
806.28	1740.77
806.45	1746.92
806.63	1810.40
806.80	1714.15
806.97	1710.05
807.15	1693.67
807.32	1771.49
807.49	1687.53
807.67	1634.28
807.84	1638.38
808.01	1615.85
808.19	1843.17
808.36	1804.26
808.54	1642.47
808.71	1685.48
808.88	1791.97
809.06	1759.21
809.23	1751.01
809.40	1718.25
809.58	1771.49
809.75	1693.67
809.92	1701.86
810.10	1814.50
810.27	1673.19
810.44	1767.40
810.62	1824.74
810.79	1748.97
810.96	1703.91
811.14	1714.15
811.31	1714.15
811.48	1738.73
811.66	1759.21
811.83	1781.73
812.00	1697.77
812.18	1724.39
812.35	1769.44
812.52	1693.67
812.69	1673.19
812.87	1767.40
813.04	1615.85
813.21	1705.96
813.39	1665.00
813.56	1628.14
813.73	1781.73
813.91	1669.09
814.08	1718.25
814.25	1720.29
814.42	1681.38
814.60	1621.99
814.77	1751.01
814.94	1710.05
815.12	1763.30
815.29	1775.59
815.46	1644.52
815.63	1656.81
815.81	1742.82
815.98	1607.66
816.15	1763.30
816.33	1769.44
816.50	1681.38
816.67	1761.25
816.84	1677.29
817.02	1630.18
817.19	1607.66
817.36	1714.15
817.53	1691.62
817.71	1689.57
817.88	1734.63
818.05	1691.62
818.22	1693.67
818.40	1834.98
818.57	1656.81
818.74	1669.09
818.91	1771.49
819.09	1718.25
819.26	1681.38
819.43	1650.66
819.60	1714.15
819.78	1738.73
819.95	1779.68
820.12	1638.38
820.29	1751.01
820.47	1728.49
820.64	1675.24
820.81	1648.61
820.98	1662.95
821.15	1689.57
821.33	1783.78
821.50	1595.37
821.67	1656.81
821.84	1724.39
822.02	1705.96
822.19	1763.30
822.36	1699.81
822.53	1689.57
822.70	1665.00
822.88	1683.43
823.05	1728.49
823.22	1740.77
823.39	1806.31
823.56	1677.29
823.74	1791.97
823.91	1710.05
824.08	1570.79
824.25	1683.43
824.42	1818.60
824.60	1673.19
824.77	1734.63
824.94	1695.72
825.11	1781.73
825.28	1732.58
825.45	1701.86
825.63	1814.50
825.80	1628.14
825.97	1708.01
826.14	1722.34
826.31	1624.04
826.48	1765.35
826.66	1689.57
826.83	1701.86
827.00	1791.97
827.17	1705.96
827.34	1648.61
827.51	1738.73
827.69	1734.63
827.86	1626.09
828.03	1708.01
828.20	1681.38
828.37	1646.57
828.54	1869.80
828.71	1675.24
828.89	1744.87
829.06	1751.01
829.23	1769.44
829.40	1669.09
829.57	1667.05
829.74	1759.21
829.91	1642.47
830.09	1712.10
830.26	1810.40
830.43	1740.77
830.60	1724.39
830.77	1798.12
830.94	1834.98
831.11	1771.49
831.28	1724.39
831.46	1769.44
831.63	1679.33
831.80	1822.69
831.97	1667.05
832.14	1667.05
832.31	1779.68
832.48	1683.43
832.65	1796.07
832.82	1708.01
832.99	1667.05
833.17	1753.06
833.34	1775.59
833.51	1791.97
833.68	1650.66
833.85	1734.63
834.02	1603.56
834.19	1607.66
834.36	1722.34
834.53	1724.39
834.70	1806.31
834.87	1714.15
835.04	1646.57
835.22	1574.89
835.39	1671.14
835.56	1576.94
835.73	1662.95
835.90	1806.31
836.07	1628.14
836.24	1714.15
836.41	1734.63
836.58	1636.33
836.75	1738.73
836.92	1687.53
837.09	1693.67
837.26	1724.39
837.43	1722.34
837.60	1738.73
837.77	1691.62
837.94	1681.38
838.12	1789.92
838.29	1740.77
838.46	1583.08
838.63	1583.08
838.80	1849.32
838.97	1789.92
839.14	1738.73
839.31	1693.67
839.48	1710.05
839.65	1691.62
839.82	1830.88
839.99	1781.73
840.16	1689.57
840.33	1595.37
840.50	1656.81
840.67	1740.77
840.84	1568.74
841.01	1769.44
841.18	1683.43
841.35	1812.45
841.52	1722.34
841.69	1828.84
841.86	1794.02
842.03	1720.29
842.20	1757.16
842.37	1646.57
842.54	1800.16
842.71	1656.81
842.88	1619.94
843.05	1734.63
843.22	1699.81
843.39	1779.68
843.56	1705.96
843.73	1744.87
843.90	1710.05
844.07	1699.81
844.24	1718.25
844.41	1742.82
844.58	1677.29
844.75	1681.38
844.92	1728.49
845.09	1652.71
845.26	1677.29
845.43	1738.73
845.60	1675.24
845.77	1785.83
845.94	1703.91
846.10	1820.64
846.27	1660.90
846.44	1675.24
846.61	1697.77
846.78	1740.77
846.95	1712.10
847.12	1669.09
847.29	1669.09
847.46	1689.57
847.63	1757.16
847.80	1734.63
847.97	1742.82
848.14	1900.52
848.31	1689.57
848.48	1697.77
848.65	1687.53
848.82	1708.01
848.98	1796.07
849.15	1734.63
849.32	1796.07
849.49	1734.63
849.66	1710.05
849.83	1658.85
850.00	1619.94
850.17	1673.19
850.34	1789.92
850.51	1689.57
850.68	1689.57
850.85	1798.12
851.01	1730.53
851.18	1667.05
851.35	1675.24
851.52	1701.86
851.69	1824.74
851.86	1658.85
852.03	1763.30
852.20	1701.86
852.37	1691.62
852.53	1716.20
852.70	1720.29
852.87	1732.58
853.04	1701.86
853.21	1660.90
853.38	1765.35
853.55	1781.73
853.72	1794.02
853.89	1744.87
854.05	1662.95
854.22	1718.25
854.39	1701.86
854.56	1763.30
854.73	1781.73
854.90	1665.00
855.07	1640.42
855.23	1628.14
855.40	1714.15
855.57	1724.39
855.74	1613.80
855.91	1906.66
856.08	1667.05
856.25	1669.09
856.41	1693.67
856.58	1617.90
856.75	1662.95
856.92	1648.61
857.09	1851.36
857.26	1607.66
857.42	1697.77
857.59	1767.40
857.76	1667.05
857.93	1824.74
858.10	1777.64
858.27	1660.90
858.43	1742.82
858.60	1695.72
858.77	1648.61
858.94	1626.09
859.11	1722.34
859.27	1724.39
859.44	1740.77
859.61	1839.08
859.78	1697.77
859.95	1671.14
860.12	1640.42
860.28	1789.92
860.45	1779.68
860.62	1644.52
860.79	1738.73
860.95	1779.68
861.12	1644.52
861.29	1654.76
861.46	1673.19
861.63	1701.86
861.79	1773.54
861.96	1708.01
862.13	1642.47
862.30	1742.82
862.47	1718.25
862.63	1667.05
862.80	1806.31
862.97	1796.07
863.14	1783.78
863.30	1726.44
863.47	1687.53
863.64	1828.84
863.81	1724.39
863.97	1718.25
864.14	1658.85
864.31	1726.44
864.48	1755.11
864.65	1660.90
864.81	1744.87
864.98	1685.48
865.15	1777.64
865.32	1796.07
865.48	1761.25
865.65	1828.84
865.82	1724.39
865.98	1755.11
866.15	1804.26
866.32	1691.62
866.49	1773.54
866.65	1787.88
866.82	1726.44
866.99	1734.63
867.16	1708.01
867.32	1765.35
867.49	1732.58
867.66	1665.00
867.83	1677.29
867.99	1640.42
868.16	1703.91
868.33	1615.85
868.49	1740.77
868.66	1642.47
868.83	1751.01
868.99	1746.92
869.16	1685.48
869.33	1732.58
869.50	1773.54
869.66	1724.39
869.83	1722.34
870.00	1646.57
870.16	1755.11
870.33	1683.43
870.50	1740.77
870.66	1742.82
870.83	1822.69
871.00	1720.29
871.17	1693.67
871.33	1730.53
871.50	1667.05
871.67	1777.64
871.83	1652.71
872.00	1796.07
872.17	1675.24
872.33	1753.06
872.50	1691.62
872.67	1712.10
872.83	1724.39
873.00	1757.16
873.17	1691.62
873.33	1697.77
873.50	1697.77
873.67	1691.62
873.83	1662.95
874.00	1681.38
874.16	1757.16
874.33	1703.91
874.50	1667.05
874.66	1746.92
874.83	1716.20
875.00	1710.05
875.16	1787.88
875.33	1726.44
875.50	1609.70
875.66	1720.29
875.83	1699.81
875.99	1761.25
876.16	1740.77
876.33	1632.23
876.49	1671.14
876.66	1740.77
876.83	1716.20
876.99	1708.01
877.16	1744.87
877.32	1712.10
877.49	1648.61
877.66	1755.11
877.82	1845.22
877.99	1738.73
878.15	1730.53
878.32	1716.20
878.49	1804.26
878.65	1728.49
878.82	1726.44
878.98	1740.77
879.15	1779.68
879.32	1763.30
879.48	1669.09
879.65	1665.00
879.81	1685.48
879.98	1742.82
880.15	1693.67
880.31	1763.30
880.48	1667.05
880.64	1773.54
880.81	1703.91
880.97	1830.88
881.14	1740.77
881.31	1671.14
881.47	1890.28
881.64	1693.67
881.80	1689.57
881.97	1714.15
882.13	1785.83
882.30	1695.72
882.47	1699.81
882.63	1617.90
882.80	1689.57
882.96	1693.67
883.13	1763.30
883.29	1681.38
883.46	1763.30
883.62	1775.59
883.79	1679.33
883.95	1695.72
884.12	1724.39
884.29	1812.45
884.45	1728.49
884.62	1755.11
884.78	1730.53
884.95	1757.16
885.11	1679.33
885.28	1863.65
885.44	1619.94
885.61	1708.01
885.77	1703.91
885.94	1806.31
886.10	1671.14
886.27	1716.20
886.43	1806.31
886.60	1781.73
886.76	1708.01
886.93	1679.33
887.09	1720.29
887.26	1632.23
887.42	1751.01
887.59	1806.31
887.75	1802.21
887.92	1855.46
888.08	1791.97
888.25	1744.87
888.41	1779.68
888.58	1691.62
888.74	1665.00
888.91	1703.91
>>>>>End Processed Spectral Data<<<<<
