SpectraSuite Data File
++++++++++++++++++++++++++++++++++++
Date: Mon Jun 06 15:15:17 CEST 2016
User: root
Dark Spectrum Present: No
Reference Spectrum Present: No
Number of Sampled Component Spectra: 1
Spectrometers: USB4C02835
Integration Time (usec): 100000 (USB4C02835)
Spectra Averaged: 1 (USB4C02835)
Boxcar Smoothing: 0 (USB4C02835)
Correct for Electrical Dark: No (USB4C02835)
Strobe/Lamp Enabled: No (USB4C02835)
Correct for Detector Non-linearity: No (USB4C02835)
Correct for Stray Light: No (USB4C02835)
Number of Pixels in Processed Spectrum: 3648
>>>>>Begin Processed Spectral Data<<<<<
177.47	1484.78
177.69	1484.78
177.91	1484.78
178.13	1497.07
178.36	1486.83
178.58	1617.90
178.80	1820.64
179.02	1540.07
179.24	1685.48
179.46	1691.62
179.68	1687.53
179.90	1687.53
180.13	1755.11
180.35	1736.68
180.57	1652.71
180.79	1783.78
181.01	1691.62
181.23	1728.49
181.45	1763.30
181.67	1757.16
181.90	1783.78
182.12	1671.14
182.34	1660.90
182.56	1746.92
182.78	1724.39
183.00	1744.87
183.22	1697.77
183.44	1673.19
183.66	1873.89
183.89	1810.40
184.11	1728.49
184.33	1742.82
184.55	1748.97
184.77	1728.49
184.99	1626.09
185.21	1689.57
185.43	1800.16
185.65	1656.81
185.87	1728.49
186.10	1820.64
186.32	1791.97
186.54	1740.77
186.76	1757.16
186.98	1812.45
187.20	1628.14
187.42	1656.81
187.64	1662.95
187.86	1714.15
188.08	1789.92
188.30	1671.14
188.52	1724.39
188.75	1830.88
188.97	1765.35
189.19	1654.76
189.41	1703.91
189.63	1722.34
189.85	1783.78
190.07	1574.89
190.29	1660.90
190.51	1714.15
190.73	1613.80
190.95	1751.01
191.17	1685.48
191.39	1609.70
191.61	1691.62
191.84	1720.29
192.06	1857.51
192.28	1599.46
192.50	1822.69
192.72	1667.05
192.94	1660.90
193.16	1761.25
193.38	1726.44
193.60	1638.38
193.82	1722.34
194.04	1798.12
194.26	1761.25
194.48	1724.39
194.70	1601.51
194.92	1732.58
195.14	1738.73
195.36	1658.85
195.58	1746.92
195.80	1748.97
196.02	1757.16
196.24	1671.14
196.46	1757.16
196.69	1605.61
196.91	1900.52
197.13	1769.44
197.35	1685.48
197.57	1794.02
197.79	1748.97
198.01	1736.68
198.23	1708.01
198.45	1746.92
198.67	1712.10
198.89	1695.72
199.11	1763.30
199.33	1726.44
199.55	1593.32
199.77	1705.96
199.99	1783.78
200.21	1667.05
200.43	1681.38
200.65	1722.34
200.87	1644.52
201.09	1755.11
201.31	1689.57
201.53	1726.44
201.75	1734.63
201.97	1642.47
202.19	1761.25
202.41	1765.35
202.63	1740.77
202.85	1718.25
203.07	1736.68
203.29	1751.01
203.51	1693.67
203.73	1705.96
203.95	1869.80
204.17	1800.16
204.39	1748.97
204.61	1746.92
204.83	1691.62
205.05	1740.77
205.27	1814.50
205.49	1869.80
205.71	1710.05
205.93	1685.48
206.15	1681.38
206.37	1791.97
206.59	1673.19
206.81	1671.14
207.03	1697.77
207.25	1578.98
207.47	1716.20
207.69	1751.01
207.91	1824.74
208.13	1755.11
208.34	1708.01
208.56	1636.33
208.78	1775.59
209.00	1640.42
209.22	1675.24
209.44	1718.25
209.66	1701.86
209.88	1728.49
210.10	1681.38
210.32	1626.09
210.54	1857.51
210.76	1755.11
210.98	1673.19
211.20	1619.94
211.42	1695.72
211.64	1785.83
211.86	1746.92
212.08	1781.73
212.30	1718.25
212.52	1687.53
212.74	1736.68
212.96	1712.10
213.17	1791.97
213.39	1726.44
213.61	1763.30
213.83	1728.49
214.05	1683.43
214.27	1773.54
214.49	1632.23
214.71	1656.81
214.93	1777.64
215.15	1712.10
215.37	1791.97
215.59	1658.85
215.81	1744.87
216.03	1828.84
216.24	1724.39
216.46	1669.09
216.68	1781.73
216.90	1759.21
217.12	1781.73
217.34	1671.14
217.56	1820.64
217.78	1736.68
218.00	1726.44
218.22	1652.71
218.44	1652.71
218.66	1701.86
218.87	1691.62
219.09	1621.99
219.31	1734.63
219.53	1718.25
219.75	1681.38
219.97	1679.33
220.19	1746.92
220.41	1697.77
220.63	1726.44
220.85	1710.05
221.06	1656.81
221.28	1791.97
221.50	1722.34
221.72	1714.15
221.94	1679.33
222.16	1705.96
222.38	1802.21
222.60	1759.21
222.82	1689.57
223.03	1808.36
223.25	1685.48
223.47	1818.60
223.69	1798.12
223.91	1794.02
224.13	1671.14
224.35	1665.00
224.57	1771.49
224.78	1710.05
225.00	1634.28
225.22	1716.20
225.44	1720.29
225.66	1703.91
225.88	1683.43
226.10	1787.88
226.32	1755.11
226.53	1812.45
226.75	1677.29
226.97	1681.38
227.19	1742.82
227.41	1671.14
227.63	1691.62
227.85	1640.42
228.06	1701.86
228.28	1822.69
228.50	1740.77
228.72	1640.42
228.94	1689.57
229.16	1558.50
229.37	1656.81
229.59	1589.22
229.81	1755.11
230.03	1648.61
230.25	1568.74
230.47	1638.38
230.69	1689.57
230.90	1798.12
231.12	1716.20
231.34	1720.29
231.56	1736.68
231.78	1669.09
232.00	1738.73
232.21	1697.77
232.43	1656.81
232.65	1613.80
232.87	1695.72
233.09	1646.57
233.30	1677.29
233.52	1775.59
233.74	1701.86
233.96	1718.25
234.18	1740.77
234.40	1716.20
234.61	1763.30
234.83	1689.57
235.05	1673.19
235.27	1787.88
235.49	1830.88
235.70	1669.09
235.92	1736.68
236.14	1695.72
236.36	1822.69
236.58	1617.90
236.79	1796.07
237.01	1615.85
237.23	1695.72
237.45	1781.73
237.67	1738.73
237.88	1685.48
238.10	1783.78
238.32	1667.05
238.54	1703.91
238.76	1703.91
238.97	1720.29
239.19	1638.38
239.41	1712.10
239.63	1771.49
239.85	1660.90
240.06	1701.86
240.28	1705.96
240.50	1775.59
240.72	1658.85
240.93	1691.62
241.15	1789.92
241.37	1681.38
241.59	1794.02
241.81	1765.35
242.02	1732.58
242.24	1716.20
242.46	1820.64
242.68	1673.19
242.89	1726.44
243.11	1798.12
243.33	1683.43
243.55	1691.62
243.76	1701.86
243.98	1660.90
244.20	1726.44
244.42	1734.63
244.64	1632.23
244.85	1677.29
245.07	1632.23
245.29	1779.68
245.51	1767.40
245.72	1691.62
245.94	1763.30
246.16	1720.29
246.38	1675.24
246.59	1703.91
246.81	1603.56
247.03	1705.96
247.24	1581.03
247.46	1648.61
247.68	1751.01
247.90	1652.71
248.11	1660.90
248.33	1826.79
248.55	1636.33
248.77	1742.82
248.98	1804.26
249.20	1814.50
249.42	1722.34
249.64	1728.49
249.85	1675.24
250.07	1667.05
250.29	1779.68
250.50	1744.87
250.72	1640.42
250.94	1730.53
251.16	1794.02
251.37	1787.88
251.59	1732.58
251.81	1708.01
252.02	1789.92
252.24	1667.05
252.46	1822.69
252.68	1630.18
252.89	1763.30
253.11	1611.75
253.33	1820.64
253.54	1775.59
253.76	1662.95
253.98	1777.64
254.20	1708.01
254.41	1613.80
254.63	1697.77
254.85	1636.33
255.06	1761.25
255.28	1705.96
255.50	1705.96
255.71	1675.24
255.93	1656.81
256.15	1699.81
256.36	1697.77
256.58	1701.86
256.80	1705.96
257.02	1705.96
257.23	1654.76
257.45	1665.00
257.67	1720.29
257.88	1644.52
258.10	1777.64
258.32	1722.34
258.53	1722.34
258.75	1783.78
258.97	1697.77
259.18	1703.91
259.40	1738.73
259.62	1814.50
259.83	1779.68
260.05	1759.21
260.27	1931.23
260.48	1761.25
260.70	1669.09
260.92	1644.52
261.13	1765.35
261.35	1705.96
261.57	1673.19
261.78	1648.61
262.00	1697.77
262.22	1757.16
262.43	1669.09
262.65	1693.67
262.86	1693.67
263.08	1857.51
263.30	1726.44
263.51	1607.66
263.73	1624.04
263.95	1736.68
264.16	1705.96
264.38	1648.61
264.60	1746.92
264.81	1714.15
265.03	1781.73
265.25	1712.10
265.46	1726.44
265.68	1724.39
265.89	1705.96
266.11	1619.94
266.33	1728.49
266.54	1841.12
266.76	1822.69
266.98	1697.77
267.19	1787.88
267.41	1771.49
267.62	1718.25
267.84	1638.38
268.06	1779.68
268.27	1716.20
268.49	1791.97
268.70	1744.87
268.92	1716.20
269.14	1644.52
269.35	1658.85
269.57	1710.05
269.79	1873.89
270.00	1658.85
270.22	1789.92
270.43	1589.22
270.65	1585.13
270.87	1777.64
271.08	1775.59
271.30	1734.63
271.51	1767.40
271.73	1771.49
271.95	1716.20
272.16	1705.96
272.38	1726.44
272.59	1640.42
272.81	1751.01
273.02	1712.10
273.24	1718.25
273.46	1748.97
273.67	1535.98
273.89	1683.43
274.10	1660.90
274.32	1775.59
274.54	1787.88
274.75	1730.53
274.97	1701.86
275.18	1714.15
275.40	1761.25
275.61	1714.15
275.83	1730.53
276.05	1654.76
276.26	1632.23
276.48	1791.97
276.69	1732.58
276.91	1632.23
277.12	1787.88
277.34	1746.92
277.55	1722.34
277.77	1687.53
277.99	1624.04
278.20	1703.91
278.42	1621.99
278.63	1755.11
278.85	1685.48
279.06	1595.37
279.28	1703.91
279.49	1751.01
279.71	1820.64
279.93	1697.77
280.14	1677.29
280.36	1675.24
280.57	1806.31
280.79	1761.25
281.00	1726.44
281.22	1695.72
281.43	1798.12
281.65	1697.77
281.86	1550.31
282.08	1699.81
282.29	1826.79
282.51	1632.23
282.73	1679.33
282.94	1619.94
283.16	1771.49
283.37	1798.12
283.59	1710.05
283.80	1689.57
284.02	1677.29
284.23	1736.68
284.45	1681.38
284.66	1624.04
284.88	1632.23
285.09	1724.39
285.31	1714.15
285.52	1800.16
285.74	1650.66
285.95	1722.34
286.17	1685.48
286.38	1755.11
286.60	1740.77
286.81	1656.81
287.03	1689.57
287.24	1763.30
287.46	1789.92
287.67	1726.44
287.89	1845.22
288.10	1730.53
288.32	1736.68
288.53	1841.12
288.75	1710.05
288.96	1742.82
289.18	1681.38
289.39	1722.34
289.61	1791.97
289.82	1828.84
290.04	1855.46
290.25	1683.43
290.47	1730.53
290.68	1763.30
290.90	1771.49
291.11	1683.43
291.33	1779.68
291.54	1665.00
291.76	1744.87
291.97	1716.20
292.18	1781.73
292.40	1675.24
292.61	1699.81
292.83	1865.70
293.04	1716.20
293.26	1640.42
293.47	1656.81
293.69	1662.95
293.90	1662.95
294.12	1705.96
294.33	1660.90
294.55	1615.85
294.76	1742.82
294.97	1798.12
295.19	1787.88
295.40	1642.47
295.62	1740.77
295.83	1705.96
296.05	1761.25
296.26	1777.64
296.48	1697.77
296.69	1726.44
296.90	1724.39
297.12	1806.31
297.33	1777.64
297.55	1699.81
297.76	1761.25
297.98	1716.20
298.19	1759.21
298.41	1699.81
298.62	1714.15
298.83	1810.40
299.05	1712.10
299.26	1722.34
299.48	1669.09
299.69	1675.24
299.90	1728.49
300.12	1705.96
300.33	1705.96
300.55	1705.96
300.76	1755.11
300.98	1662.95
301.19	1722.34
301.40	1652.71
301.62	1689.57
301.83	1689.57
302.05	1732.58
302.26	1665.00
302.47	1765.35
302.69	1632.23
302.90	1757.16
303.12	1615.85
303.33	1675.24
303.54	1824.74
303.76	1753.06
303.97	1771.49
304.19	1773.54
304.40	1734.63
304.61	1726.44
304.83	1816.55
305.04	1796.07
305.26	1794.02
305.47	1581.03
305.68	1695.72
305.90	1695.72
306.11	1710.05
306.33	1726.44
306.54	1697.77
306.75	1699.81
306.97	1705.96
307.18	1654.76
307.39	1697.77
307.61	1800.16
307.82	1683.43
308.04	1751.01
308.25	1656.81
308.46	1720.29
308.68	1734.63
308.89	1722.34
309.10	1746.92
309.32	1732.58
309.53	1665.00
309.74	1773.54
309.96	1699.81
310.17	1802.21
310.39	1665.00
310.60	1744.87
310.81	1742.82
311.03	1636.33
311.24	1748.97
311.45	1675.24
311.67	1755.11
311.88	1751.01
312.09	1632.23
312.31	1693.67
312.52	1769.44
312.73	1744.87
312.95	1591.27
313.16	1660.90
313.37	1730.53
313.59	1699.81
313.80	1740.77
314.01	1851.36
314.23	1720.29
314.44	1656.81
314.65	1636.33
314.87	1640.42
315.08	1708.01
315.29	1710.05
315.51	1687.53
315.72	1601.51
315.93	1855.46
316.15	1755.11
316.36	1624.04
316.57	1777.64
316.79	1712.10
317.00	1611.75
317.21	1705.96
317.43	1646.57
317.64	1693.67
317.85	1673.19
318.07	1632.23
318.28	1777.64
318.49	1771.49
318.70	1961.95
318.92	1798.12
319.13	1830.88
319.34	1877.99
319.56	1845.22
319.77	1802.21
319.98	1865.70
320.20	1767.40
320.41	1730.53
320.62	1740.77
320.83	1658.85
321.05	1789.92
321.26	1732.58
321.47	1730.53
321.69	1832.93
321.90	1710.05
322.11	1636.33
322.32	1736.68
322.54	1837.03
322.75	1777.64
322.96	1755.11
323.18	1656.81
323.39	1630.18
323.60	1621.99
323.81	1712.10
324.03	1669.09
324.24	1722.34
324.45	1746.92
324.66	1656.81
324.88	1761.25
325.09	1705.96
325.30	1769.44
325.52	1671.14
325.73	1771.49
325.94	1599.46
326.15	1624.04
326.37	1720.29
326.58	1753.06
326.79	1853.41
327.00	1574.89
327.22	1724.39
327.43	1648.61
327.64	1697.77
327.85	1714.15
328.07	1677.29
328.28	1746.92
328.49	1642.47
328.70	1671.14
328.92	1669.09
329.13	1667.05
329.34	1800.16
329.55	1812.45
329.76	1718.25
329.98	1769.44
330.19	1708.01
330.40	1734.63
330.61	1718.25
330.83	1699.81
331.04	1687.53
331.25	1757.16
331.46	1689.57
331.68	1617.90
331.89	1771.49
332.10	1644.52
332.31	1691.62
332.52	1796.07
332.74	1730.53
332.95	1714.15
333.16	1751.01
333.37	1728.49
333.58	1628.14
333.80	1800.16
334.01	1576.94
334.22	1732.58
334.43	1671.14
334.64	1705.96
334.86	1636.33
335.07	1736.68
335.28	1789.92
335.49	1646.57
335.70	1724.39
335.92	1787.88
336.13	1738.73
336.34	1720.29
336.55	1687.53
336.76	1742.82
336.98	1646.57
337.19	1720.29
337.40	1849.32
337.61	1880.04
337.82	1628.14
338.04	1726.44
338.25	1683.43
338.46	1679.33
338.67	1716.20
338.88	1615.85
339.09	1697.77
339.31	1599.46
339.52	1624.04
339.73	1634.28
339.94	1705.96
340.15	1791.97
340.36	1724.39
340.58	1718.25
340.79	1671.14
341.00	1712.10
341.21	1734.63
341.42	1873.89
341.63	1718.25
341.85	1849.32
342.06	1769.44
342.27	1695.72
342.48	1761.25
342.69	1701.86
342.90	1718.25
343.12	1755.11
343.33	1665.00
343.54	1826.79
343.75	1785.83
343.96	1714.15
344.17	1656.81
344.38	1767.40
344.60	1691.62
344.81	1630.18
345.02	1738.73
345.23	1767.40
345.44	1839.08
345.65	1791.97
345.86	1779.68
346.07	1671.14
346.29	1771.49
346.50	1740.77
346.71	1673.19
346.92	1798.12
347.13	1937.38
347.34	1710.05
347.55	1687.53
347.76	1722.34
347.98	1644.52
348.19	1677.29
348.40	1775.59
348.61	1716.20
348.82	1837.03
349.03	1775.59
349.24	1673.19
349.45	1761.25
349.66	1619.94
349.88	1720.29
350.09	1652.71
350.30	1779.68
350.51	1746.92
350.72	1667.05
350.93	1697.77
351.14	1611.75
351.35	1665.00
351.56	1681.38
351.77	1675.24
351.99	1763.30
352.20	1798.12
352.41	1724.39
352.62	1646.57
352.83	1773.54
353.04	1695.72
353.25	1587.18
353.46	1912.80
353.67	1652.71
353.88	1619.94
354.09	1738.73
354.30	1744.87
354.52	1714.15
354.73	1673.19
354.94	1658.85
355.15	1695.72
355.36	1787.88
355.57	1720.29
355.78	1726.44
355.99	1691.62
356.20	1617.90
356.41	1808.36
356.62	1781.73
356.83	1779.68
357.04	1751.01
357.25	1615.85
357.46	1650.66
357.68	1656.81
357.89	1720.29
358.10	1744.87
358.31	1742.82
358.52	1740.77
358.73	1628.14
358.94	1724.39
359.15	1699.81
359.36	1726.44
359.57	1771.49
359.78	1681.38
359.99	1767.40
360.20	1708.01
360.41	1677.29
360.62	1767.40
360.83	1753.06
361.04	1767.40
361.25	1716.20
361.46	1812.45
361.67	1671.14
361.88	1777.64
362.09	1720.29
362.30	1746.92
362.51	1722.34
362.72	1660.90
362.93	1736.68
363.14	1767.40
363.35	1683.43
363.56	1697.77
363.78	1740.77
363.99	1785.83
364.20	1736.68
364.41	1705.96
364.62	1920.99
364.83	1701.86
365.04	1693.67
365.25	1644.52
365.46	1757.16
365.67	1677.29
365.88	1626.09
366.09	1660.90
366.30	1710.05
366.51	1777.64
366.72	1665.00
366.93	1744.87
367.14	1669.09
367.35	1781.73
367.56	1628.14
367.77	1773.54
367.98	1658.85
368.18	1757.16
368.39	1720.29
368.60	1683.43
368.81	1832.93
369.02	1693.67
369.23	1716.20
369.44	1617.90
369.65	1732.58
369.86	1691.62
370.07	1771.49
370.28	1648.61
370.49	1714.15
370.70	1683.43
370.91	1687.53
371.12	1730.53
371.33	1755.11
371.54	1710.05
371.75	1800.16
371.96	1673.19
372.17	1656.81
372.38	1755.11
372.59	1742.82
372.80	1650.66
373.01	1755.11
373.22	1724.39
373.43	1773.54
373.64	1632.23
373.85	1820.64
374.06	1789.92
374.26	1724.39
374.47	1697.77
374.68	1779.68
374.89	1722.34
375.10	1667.05
375.31	1794.02
375.52	1738.73
375.73	1753.06
375.94	1654.76
376.15	1816.55
376.36	1609.70
376.57	1724.39
376.78	1669.09
376.99	1769.44
377.20	1742.82
377.40	1714.15
377.61	1802.21
377.82	1642.47
378.03	1755.11
378.24	1798.12
378.45	1708.01
378.66	1681.38
378.87	1562.60
379.08	1603.56
379.29	1628.14
379.50	1791.97
379.71	1748.97
379.91	1822.69
380.12	1708.01
380.33	1746.92
380.54	1697.77
380.75	1767.40
380.96	1638.38
381.17	1802.21
381.38	1724.39
381.59	1703.91
381.80	1695.72
382.00	1818.60
382.21	1755.11
382.42	1841.12
382.63	1923.04
382.84	1728.49
383.05	1789.92
383.26	1828.84
383.47	1699.81
383.68	1791.97
383.88	1716.20
384.09	1751.01
384.30	1771.49
384.51	1763.30
384.72	1705.96
384.93	1675.24
385.14	1736.68
385.35	1689.57
385.55	1585.13
385.76	1812.45
385.97	1679.33
386.18	1722.34
386.39	1705.96
386.60	1718.25
386.81	1718.25
387.02	1701.86
387.22	1662.95
387.43	1806.31
387.64	1779.68
387.85	1884.13
388.06	2113.50
388.27	4181.95
388.48	6586.27
388.68	7786.38
388.89	9363.31
389.10	9490.29
389.31	8300.42
389.52	7266.19
389.73	6528.92
389.93	6027.17
390.14	5791.66
390.35	5091.25
390.56	4374.46
390.77	3708.87
390.98	3088.34
391.18	2414.56
391.39	2164.70
391.60	1941.47
391.81	1869.80
392.02	1722.34
392.23	1841.12
392.43	1742.82
392.64	1734.63
392.85	1779.68
393.06	1890.28
393.27	1701.86
393.47	1705.96
393.68	1728.49
393.89	1681.38
394.10	1771.49
394.31	1685.48
394.52	1685.48
394.72	1746.92
394.93	1785.83
395.14	1665.00
395.35	1781.73
395.56	1695.72
395.76	1728.49
395.97	1820.64
396.18	1796.07
396.39	1771.49
396.60	1941.47
396.80	1964.00
397.01	1888.23
397.22	1869.80
397.43	1902.56
397.64	1828.84
397.84	1800.16
398.05	1875.94
398.26	1751.01
398.47	1810.40
398.67	1732.58
398.88	1742.82
399.09	1765.35
399.30	1705.96
399.51	1738.73
399.71	1679.33
399.92	1759.21
400.13	1796.07
400.34	1716.20
400.54	1728.49
400.75	1794.02
400.96	1794.02
401.17	1808.36
401.37	1665.00
401.58	1665.00
401.79	1746.92
402.00	1777.64
402.21	2043.87
402.41	1931.23
402.62	1961.95
402.83	2033.63
403.04	1947.62
403.24	2125.79
403.45	1853.41
403.66	1900.52
403.87	1910.75
404.07	1873.89
404.28	1898.47
404.49	1849.32
404.70	1818.60
404.90	1820.64
405.11	1765.35
405.32	1812.45
405.52	1708.01
405.73	1611.75
405.94	1730.53
406.15	1673.19
406.35	1681.38
406.56	1820.64
406.77	1714.15
406.98	1728.49
407.18	1724.39
407.39	1861.60
407.60	1677.29
407.80	1769.44
408.01	1712.10
408.22	1773.54
408.43	1626.09
408.63	1728.49
408.84	1738.73
409.05	1755.11
409.25	1656.81
409.46	1644.52
409.67	1708.01
409.88	1701.86
410.08	1642.47
410.29	1703.91
410.50	1722.34
410.70	1644.52
410.91	1671.14
411.12	1732.58
411.32	1662.95
411.53	1703.91
411.74	1785.83
411.95	1791.97
412.15	1777.64
412.36	1855.46
412.57	1712.10
412.77	1812.45
412.98	1738.73
413.19	1718.25
413.39	1808.36
413.60	1736.68
413.81	1773.54
414.01	1681.38
414.22	1730.53
414.43	1761.25
414.63	1654.76
414.84	1753.06
415.05	1673.19
415.25	1609.70
415.46	1722.34
415.67	1667.05
415.87	1714.15
416.08	1681.38
416.29	1765.35
416.49	1728.49
416.70	1695.72
416.91	1677.29
417.11	1662.95
417.32	1724.39
417.53	1791.97
417.73	1746.92
417.94	1673.19
418.15	1705.96
418.35	1734.63
418.56	1783.78
418.77	1882.08
418.97	1720.29
419.18	1689.57
419.38	1595.37
419.59	1615.85
419.80	1845.22
420.00	1726.44
420.21	1734.63
420.42	1802.21
420.62	1789.92
420.83	1589.22
421.04	1701.86
421.24	1714.15
421.45	1775.59
421.65	1720.29
421.86	1732.58
422.07	1744.87
422.27	1761.25
422.48	1808.36
422.69	1736.68
422.89	1675.24
423.10	1734.63
423.30	1601.51
423.51	1665.00
423.72	1679.33
423.92	1701.86
424.13	1667.05
424.33	1677.29
424.54	1753.06
424.75	1611.75
424.95	1767.40
425.16	1759.21
425.36	1796.07
425.57	1759.21
425.78	1763.30
425.98	1773.54
426.19	1673.19
426.39	1699.81
426.60	1761.25
426.81	1814.50
427.01	1675.24
427.22	1681.38
427.42	1669.09
427.63	1662.95
427.83	1761.25
428.04	1787.88
428.25	1730.53
428.45	1820.64
428.66	1875.94
428.86	1667.05
429.07	1673.19
429.28	1720.29
429.48	1759.21
429.69	1667.05
429.89	1710.05
430.10	1617.90
430.30	1796.07
430.51	1763.30
430.71	1708.01
430.92	1806.31
431.13	1722.34
431.33	1701.86
431.54	1787.88
431.74	1775.59
431.95	1853.41
432.15	1724.39
432.36	1640.42
432.56	1742.82
432.77	1812.45
432.98	1726.44
433.18	1761.25
433.39	1693.67
433.59	1665.00
433.80	1888.23
434.00	1785.83
434.21	1714.15
434.41	1675.24
434.62	1837.03
434.82	1658.85
435.03	1640.42
435.23	1718.25
435.44	1613.80
435.64	1650.66
435.85	1730.53
436.06	1869.80
436.26	1796.07
436.47	1779.68
436.67	1693.67
436.88	1689.57
437.08	1767.40
437.29	1777.64
437.49	1660.90
437.70	1820.64
437.90	1785.83
438.11	1880.04
438.31	1830.88
438.52	1841.12
438.72	1902.56
438.93	2017.25
439.13	1781.73
439.34	1845.22
439.54	1658.85
439.75	1826.79
439.95	1839.08
440.16	1740.77
440.36	1810.40
440.57	1726.44
440.77	1736.68
440.98	1773.54
441.18	1787.88
441.39	1685.48
441.59	1656.81
441.80	1810.40
442.00	1710.05
442.21	1824.74
442.41	1650.66
442.62	1720.29
442.82	1671.14
443.02	1724.39
443.23	1804.26
443.43	1710.05
443.64	1798.12
443.84	1697.77
444.05	1865.70
444.25	1748.97
444.46	1677.29
444.66	1726.44
444.87	1837.03
445.07	1652.71
445.28	1705.96
445.48	1810.40
445.69	1744.87
445.89	1929.19
446.09	1804.26
446.30	2033.63
446.50	2582.49
446.71	3534.79
446.91	4136.90
447.12	4548.54
447.32	4671.42
447.53	4171.71
447.73	3729.35
447.93	3514.31
448.14	3186.64
448.34	3209.17
448.55	2842.58
448.75	2801.62
448.96	2656.22
449.16	2512.86
449.36	2279.39
449.57	1982.43
449.77	1880.04
449.98	1763.30
450.18	1804.26
450.39	1777.64
450.59	1718.25
450.79	1791.97
451.00	1705.96
451.20	1804.26
451.41	1800.16
451.61	1742.82
451.81	1773.54
452.02	1699.81
452.22	1738.73
452.43	1716.20
452.63	1681.38
452.84	1744.87
453.04	1705.96
453.24	1724.39
453.45	1708.01
453.65	1710.05
453.86	1783.78
454.06	1877.99
454.26	1781.73
454.47	1677.29
454.67	1751.01
454.87	1789.92
455.08	1701.86
455.28	1794.02
455.49	1748.97
455.69	1695.72
455.89	1920.99
456.10	1742.82
456.30	1726.44
456.51	1841.12
456.71	1761.25
456.91	1800.16
457.12	1763.30
457.32	1800.16
457.52	1656.81
457.73	1800.16
457.93	1822.69
458.14	1746.92
458.34	1693.67
458.54	1744.87
458.75	1720.29
458.95	1773.54
459.15	1710.05
459.36	1796.07
459.56	1796.07
459.76	1824.74
459.97	1787.88
460.17	1705.96
460.37	1843.17
460.58	1820.64
460.78	1787.88
460.99	1681.38
461.19	1757.16
461.39	1685.48
461.60	1693.67
461.80	1722.34
462.00	1658.85
462.21	1734.63
462.41	1730.53
462.61	1624.04
462.82	1601.51
463.02	1773.54
463.22	1771.49
463.43	1781.73
463.63	1740.77
463.83	1841.12
464.04	1800.16
464.24	1775.59
464.44	1626.09
464.64	1779.68
464.85	1789.92
465.05	1875.94
465.25	1685.48
465.46	1667.05
465.66	1736.68
465.86	1859.56
466.07	1738.73
466.27	1669.09
466.47	1697.77
466.68	1624.04
466.88	1839.08
467.08	1804.26
467.29	1751.01
467.49	1705.96
467.69	1679.33
467.89	1787.88
468.10	1642.47
468.30	1771.49
468.50	1783.78
468.71	1763.30
468.91	1765.35
469.11	1771.49
469.31	1714.15
469.52	1683.43
469.72	1794.02
469.92	1873.89
470.13	1742.82
470.33	1810.40
470.53	1820.64
470.73	2078.69
470.94	2242.53
471.14	2301.92
471.34	2467.80
471.54	2365.40
471.75	2248.67
471.95	2127.84
472.15	2076.64
472.36	2045.92
472.56	2086.88
472.76	2060.26
472.96	1939.43
473.17	1998.82
473.37	1863.65
473.57	1746.92
473.77	1748.97
473.98	1804.26
474.18	1689.57
474.38	1886.18
474.58	1697.77
474.79	1710.05
474.99	1767.40
475.19	1818.60
475.39	1718.25
475.60	1689.57
475.80	1716.20
476.00	1761.25
476.20	1767.40
476.41	1736.68
476.61	1806.31
476.81	1804.26
477.01	1615.85
477.21	1873.89
477.42	1769.44
477.62	1611.75
477.82	1800.16
478.02	1705.96
478.23	1753.06
478.43	1691.62
478.63	1761.25
478.83	1679.33
479.03	1738.73
479.24	1814.50
479.44	1861.60
479.64	1671.14
479.84	1621.99
480.04	1787.88
480.25	1722.34
480.45	1728.49
480.65	1769.44
480.85	1826.79
481.06	1718.25
481.26	1808.36
481.46	1798.12
481.66	1712.10
481.86	1667.05
482.06	1779.68
482.27	1703.91
482.47	1742.82
482.67	1716.20
482.87	1675.24
483.07	1851.36
483.28	1734.63
483.48	1591.27
483.68	1658.85
483.88	1636.33
484.08	1607.66
484.29	1654.76
484.49	1716.20
484.69	1722.34
484.89	1763.30
485.09	1851.36
485.29	1728.49
485.50	1740.77
485.70	1650.66
485.90	1724.39
486.10	1759.21
486.30	1730.53
486.50	1806.31
486.71	1724.39
486.91	1787.88
487.11	1820.64
487.31	1681.38
487.51	1740.77
487.71	1722.34
487.91	1591.27
488.12	1642.47
488.32	1656.81
488.52	1714.15
488.72	1589.22
488.92	1712.10
489.12	1822.69
489.32	1857.51
489.53	1755.11
489.73	1624.04
489.93	1918.95
490.13	1669.09
490.33	1626.09
490.53	1755.11
490.73	1781.73
490.94	1644.52
491.14	1871.84
491.34	1832.93
491.54	2090.98
491.74	2537.43
491.94	2865.11
492.14	2951.12
492.34	2992.08
492.54	2674.65
492.75	2455.51
492.95	2371.55
493.15	2193.37
493.35	2271.20
493.55	2254.81
493.75	2179.04
493.95	2109.41
494.15	2009.06
494.35	1912.80
494.56	1880.04
494.76	1738.73
494.96	1808.36
495.16	1820.64
495.36	1779.68
495.56	1652.71
495.76	1718.25
495.96	1734.63
496.16	1658.85
496.36	1802.21
496.56	1691.62
496.77	1738.73
496.97	1738.73
497.17	1796.07
497.37	1572.84
497.57	1814.50
497.77	1708.01
497.97	1751.01
498.17	1763.30
498.37	1724.39
498.57	1851.36
498.77	1732.58
498.97	1765.35
499.17	1875.94
499.38	1759.21
499.58	1658.85
499.78	1748.97
499.98	1841.12
500.18	1724.39
500.38	1783.78
500.58	1898.47
500.78	2551.77
500.98	4313.02
501.18	5590.95
501.38	6580.12
501.58	6963.09
501.78	6399.90
501.98	5406.64
502.18	4810.68
502.38	4296.64
502.58	4052.93
502.78	3618.76
502.98	3516.36
503.18	3346.38
503.38	3092.43
503.59	2824.15
503.79	2635.74
503.99	2424.80
504.19	2222.05
504.39	2179.04
504.59	2119.65
504.79	2095.07
504.99	2023.39
505.19	1849.32
505.39	1877.99
505.59	1959.91
505.79	1998.82
505.99	1898.47
506.19	1853.41
506.39	1890.28
506.59	1759.21
506.79	1779.68
506.99	1746.92
507.19	1718.25
507.39	1671.14
507.59	1634.28
507.79	1738.73
507.99	1652.71
508.19	1791.97
508.39	1724.39
508.59	1705.96
508.79	1826.79
508.99	1820.64
509.19	1679.33
509.39	1808.36
509.59	1710.05
509.79	1685.48
509.99	1775.59
510.19	1791.97
510.39	1828.84
510.59	1767.40
510.79	1730.53
510.99	1642.47
511.19	1697.77
511.39	1888.23
511.59	1818.60
511.79	1824.74
511.99	1781.73
512.19	1849.32
512.38	1708.01
512.58	1691.62
512.78	1785.83
512.98	1816.55
513.18	1839.08
513.38	1681.38
513.58	1763.30
513.78	1726.44
513.98	1744.87
514.18	1720.29
514.38	1742.82
514.58	1720.29
514.78	1738.73
514.98	1701.86
515.18	1748.97
515.38	1656.81
515.58	1839.08
515.78	1720.29
515.98	1744.87
516.18	1800.16
516.38	1759.21
516.57	1691.62
516.77	1724.39
516.97	1724.39
517.17	1736.68
517.37	1583.08
517.57	1759.21
517.77	1769.44
517.97	1748.97
518.17	1839.08
518.37	1746.92
518.57	1728.49
518.77	1740.77
518.97	1767.40
519.16	1736.68
519.36	1763.30
519.56	1720.29
519.76	1779.68
519.96	1708.01
520.16	1839.08
520.36	1656.81
520.56	1867.75
520.76	1820.64
520.96	1720.29
521.16	1783.78
521.35	1830.88
521.55	1746.92
521.75	1699.81
521.95	1630.18
522.15	1708.01
522.35	1576.94
522.55	1804.26
522.75	1724.39
522.95	1761.25
523.14	1685.48
523.34	1656.81
523.54	1761.25
523.74	1841.12
523.94	1779.68
524.14	1673.19
524.34	1755.11
524.54	1871.84
524.73	1718.25
524.93	1849.32
525.13	1791.97
525.33	1632.23
525.53	1877.99
525.73	1804.26
525.93	1787.88
526.13	1693.67
526.32	1703.91
526.52	1789.92
526.72	1775.59
526.92	1736.68
527.12	1675.24
527.32	1689.57
527.52	1759.21
527.71	1804.26
527.91	1701.86
528.11	1705.96
528.31	1708.01
528.51	1640.42
528.71	1787.88
528.90	1824.74
529.10	1746.92
529.30	1834.98
529.50	1570.79
529.70	1753.06
529.90	1751.01
530.09	1726.44
530.29	1656.81
530.49	1718.25
530.69	1837.03
530.89	1716.20
531.09	1736.68
531.28	1708.01
531.48	1777.64
531.68	1785.83
531.88	1744.87
532.08	1787.88
532.28	1767.40
532.47	1820.64
532.67	1806.31
532.87	1755.11
533.07	1671.14
533.27	1791.97
533.46	1791.97
533.66	1714.15
533.86	1724.39
534.06	1748.97
534.26	1773.54
534.45	1734.63
534.65	1777.64
534.85	1746.92
535.05	1781.73
535.25	1834.98
535.44	1708.01
535.64	1771.49
535.84	1767.40
536.04	1679.33
536.24	1759.21
536.43	1710.05
536.63	1656.81
536.83	1716.20
537.03	1734.63
537.22	1546.22
537.42	1665.00
537.62	1789.92
537.82	1796.07
538.02	1808.36
538.21	1791.97
538.41	1923.04
538.61	1828.84
538.81	1742.82
539.00	1742.82
539.20	1716.20
539.40	1789.92
539.60	1769.44
539.79	1818.60
539.99	1701.86
540.19	1722.34
540.39	1660.90
540.58	1763.30
540.78	1740.77
540.98	1771.49
541.18	1746.92
541.37	1767.40
541.57	1777.64
541.77	1740.77
541.97	1753.06
542.16	1601.51
542.36	1681.38
542.56	1816.55
542.76	1845.22
542.95	1732.58
543.15	1828.84
543.35	1820.64
543.54	1693.67
543.74	1746.92
543.94	1779.68
544.14	1642.47
544.33	1808.36
544.53	1722.34
544.73	1746.92
544.93	1695.72
545.12	1722.34
545.32	1708.01
545.52	1699.81
545.71	1708.01
545.91	1697.77
546.11	1751.01
546.30	1699.81
546.50	1710.05
546.70	1755.11
546.90	1810.40
547.09	1611.75
547.29	1718.25
547.49	1708.01
547.68	1763.30
547.88	1710.05
548.08	1748.97
548.27	2215.90
548.47	1642.47
548.67	1726.44
548.87	1814.50
549.06	1800.16
549.26	1806.31
549.46	1763.30
549.65	1738.73
549.85	1691.62
550.05	1810.40
550.24	1687.53
550.44	1781.73
550.64	1763.30
550.83	1732.58
551.03	1820.64
551.23	1767.40
551.42	1736.68
551.62	1681.38
551.82	1720.29
552.01	1726.44
552.21	1822.69
552.41	1763.30
552.60	1789.92
552.80	1794.02
553.00	1722.34
553.19	1761.25
553.39	1880.04
553.59	1669.09
553.78	1738.73
553.98	1763.30
554.17	1669.09
554.37	1791.97
554.57	1738.73
554.76	1652.71
554.96	1675.24
555.16	1789.92
555.35	1812.45
555.55	1828.84
555.75	1802.21
555.94	1767.40
556.14	1722.34
556.33	1812.45
556.53	1728.49
556.73	1718.25
556.92	1769.44
557.12	1798.12
557.32	1871.84
557.51	1812.45
557.71	1855.46
557.90	1888.23
558.10	1787.88
558.30	1800.16
558.49	1708.01
558.69	1822.69
558.88	1730.53
559.08	1736.68
559.28	1736.68
559.47	1742.82
559.67	1804.26
559.86	1890.28
560.06	1757.16
560.26	1724.39
560.45	1818.60
560.65	1728.49
560.84	1816.55
561.04	1695.72
561.24	1761.25
561.43	1716.20
561.63	1847.27
561.82	1796.07
562.02	1773.54
562.22	1685.48
562.41	1755.11
562.61	1775.59
562.80	1742.82
563.00	1894.37
563.19	1726.44
563.39	1763.30
563.59	1802.21
563.78	1708.01
563.98	1611.75
564.17	1708.01
564.37	1675.24
564.56	1669.09
564.76	1722.34
564.96	1812.45
565.15	1757.16
565.35	1843.17
565.54	1798.12
565.74	1767.40
565.93	1794.02
566.13	1708.01
566.32	1771.49
566.52	1804.26
566.71	1738.73
566.91	1826.79
567.11	1728.49
567.30	1646.57
567.50	1763.30
567.69	1714.15
567.89	1757.16
568.08	1669.09
568.28	1753.06
568.47	1675.24
568.67	1789.92
568.86	1701.86
569.06	1832.93
569.25	1720.29
569.45	1718.25
569.64	1753.06
569.84	1781.73
570.04	1798.12
570.23	1701.86
570.43	1710.05
570.62	1738.73
570.82	1861.60
571.01	1701.86
571.21	1763.30
571.40	1695.72
571.60	1771.49
571.79	1796.07
571.99	1671.14
572.18	1726.44
572.38	1734.63
572.57	1785.83
572.77	1722.34
572.96	1972.19
573.16	1701.86
573.35	1722.34
573.55	1834.98
573.74	1720.29
573.94	1693.67
574.13	1679.33
574.33	1816.55
574.52	1841.12
574.71	1781.73
574.91	1685.48
575.10	1693.67
575.30	1724.39
575.49	1742.82
575.69	1712.10
575.88	1695.72
576.08	1701.86
576.27	1771.49
576.47	1722.34
576.66	1806.31
576.86	1820.64
577.05	1746.92
577.25	1757.16
577.44	1839.08
577.64	1757.16
577.83	1861.60
578.02	1671.14
578.22	1810.40
578.41	1845.22
578.61	1683.43
578.80	1687.53
579.00	1837.03
579.19	1779.68
579.39	1699.81
579.58	1839.08
579.77	1755.11
579.97	1834.98
580.16	1769.44
580.36	1822.69
580.55	1800.16
580.75	1853.41
580.94	1761.25
581.13	1765.35
581.33	1859.56
581.52	1804.26
581.72	1851.36
581.91	1888.23
582.11	1798.12
582.30	1787.88
582.49	1804.26
582.69	1896.42
582.88	1834.98
583.08	1771.49
583.27	1796.07
583.47	1832.93
583.66	1712.10
583.85	1732.58
584.05	1736.68
584.24	1742.82
584.44	1781.73
584.63	1787.88
584.82	1845.22
585.02	1810.40
585.21	1773.54
585.41	1869.80
585.60	1849.32
585.79	1900.52
585.99	1910.75
586.18	1886.18
586.37	2195.42
586.57	3420.11
586.76	9486.19
586.96	23819.92
587.15	33101.32
587.34	38835.63
587.54	40781.20
587.73	34958.83
587.93	25210.50
588.12	20776.64
588.31	17422.07
588.51	15703.82
588.70	14581.54
588.89	13424.44
589.09	12068.68
589.28	10516.32
589.47	9041.78
589.67	7845.77
589.86	6092.71
590.06	4829.11
590.25	3712.97
590.44	2934.74
590.64	2566.10
590.83	2226.14
591.02	2148.32
591.22	1933.28
591.41	1869.80
591.60	1806.31
591.80	1939.43
591.99	1726.44
592.18	1812.45
592.38	1898.47
592.57	1806.31
592.76	1794.02
592.96	1787.88
593.15	1798.12
593.34	1837.03
593.54	1744.87
593.73	1812.45
593.92	1794.02
594.12	1757.16
594.31	1753.06
594.50	1822.69
594.70	1875.94
594.89	1914.85
595.08	1624.04
595.28	1759.21
595.47	1886.18
595.66	1808.36
595.86	1761.25
596.05	1740.77
596.24	1714.15
596.43	1918.95
596.63	1720.29
596.82	1757.16
597.01	1677.29
597.21	1894.37
597.40	1794.02
597.59	1796.07
597.79	1736.68
597.98	1755.11
598.17	1779.68
598.36	1738.73
598.56	1789.92
598.75	1689.57
598.94	1810.40
599.14	1789.92
599.33	1689.57
599.52	1796.07
599.71	1726.44
599.91	1822.69
600.10	1763.30
600.29	1673.19
600.48	1765.35
600.68	1740.77
600.87	1755.11
601.06	1753.06
601.26	1834.98
601.45	1765.35
601.64	1738.73
601.83	1814.50
602.03	1650.66
602.22	1695.72
602.41	1787.88
602.60	1808.36
602.80	1738.73
602.99	1785.83
603.18	1775.59
603.37	1796.07
603.57	1734.63
603.76	1742.82
603.95	1757.16
604.14	1705.96
604.34	1730.53
604.53	1738.73
604.72	1730.53
604.91	1785.83
605.10	1712.10
605.30	1738.73
605.49	1806.31
605.68	1771.49
605.87	1742.82
606.07	1708.01
606.26	1730.53
606.45	1759.21
606.64	1697.77
606.84	1675.24
607.03	1636.33
607.22	1779.68
607.41	1613.80
607.60	1767.40
607.80	1755.11
607.99	1757.16
608.18	1767.40
608.37	1765.35
608.56	1679.33
608.76	1796.07
608.95	1886.18
609.14	1718.25
609.33	1796.07
609.52	1830.88
609.72	1722.34
609.91	1787.88
610.10	1757.16
610.29	1880.04
610.48	1808.36
610.68	1773.54
610.87	1714.15
611.06	1822.69
611.25	1691.62
611.44	1841.12
611.63	1689.57
611.83	1806.31
612.02	1648.61
612.21	1796.07
612.40	1687.53
612.59	1701.86
612.79	1638.38
612.98	1726.44
613.17	1775.59
613.36	1763.30
613.55	1841.12
613.74	1710.05
613.93	1667.05
614.13	1667.05
614.32	1757.16
614.51	1763.30
614.70	1742.82
614.89	1654.76
615.08	1785.83
615.28	2207.71
615.47	1646.57
615.66	1685.48
615.85	1769.44
616.04	1822.69
616.23	1773.54
616.42	1789.92
616.62	1751.01
616.81	1808.36
617.00	1730.53
617.19	1775.59
617.38	1671.14
617.57	1710.05
617.76	1787.88
617.95	1667.05
618.15	1726.44
618.34	1777.64
618.53	1619.94
618.72	1654.76
618.91	1728.49
619.10	1734.63
619.29	1697.77
619.48	1732.58
619.68	1685.48
619.87	1685.48
620.06	1697.77
620.25	1701.86
620.44	1800.16
620.63	1718.25
620.82	1761.25
621.01	1724.39
621.20	1783.78
621.39	1740.77
621.59	1798.12
621.78	1757.16
621.97	1740.77
622.16	1804.26
622.35	1746.92
622.54	1767.40
622.73	1783.78
622.92	1615.85
623.11	1710.05
623.30	1732.58
623.49	1759.21
623.68	1685.48
623.88	1771.49
624.07	1732.58
624.26	1681.38
624.45	1746.92
624.64	1710.05
624.83	1714.15
625.02	1757.16
625.21	1751.01
625.40	1767.40
625.59	1705.96
625.78	1695.72
625.97	1710.05
626.16	1837.03
626.35	1834.98
626.54	1646.57
626.74	1884.13
626.93	1658.85
627.12	1665.00
627.31	1742.82
627.50	1730.53
627.69	1789.92
627.88	1634.28
628.07	1701.86
628.26	1656.81
628.45	1615.85
628.64	1671.14
628.83	1787.88
629.02	1656.81
629.21	1722.34
629.40	1742.82
629.59	1671.14
629.78	1732.58
629.97	1751.01
630.16	1628.14
630.35	1679.33
630.54	1708.01
630.73	1693.67
630.92	1734.63
631.11	1691.62
631.30	1724.39
631.49	1757.16
631.68	1798.12
631.87	1669.09
632.06	1660.90
632.25	1861.60
632.44	1744.87
632.63	1724.39
632.82	1724.39
633.01	1687.53
633.20	1736.68
633.39	1677.29
633.58	1638.38
633.77	1693.67
633.96	1732.58
634.15	1744.87
634.34	1724.39
634.53	1781.73
634.72	1644.52
634.91	1640.42
635.10	1751.01
635.29	1765.35
635.48	1761.25
635.67	1630.18
635.86	1648.61
636.05	1734.63
636.24	1705.96
636.43	1726.44
636.62	1759.21
636.81	1564.65
637.00	1789.92
637.19	1730.53
637.38	1746.92
637.57	1660.90
637.76	1703.91
637.95	1728.49
638.14	1701.86
638.33	1697.77
638.52	1777.64
638.71	1677.29
638.89	1667.05
639.08	1837.03
639.27	1744.87
639.46	1642.47
639.65	1808.36
639.84	1734.63
640.03	1796.07
640.22	1734.63
640.41	1814.50
640.60	1691.62
640.79	1705.96
640.98	1669.09
641.17	1751.01
641.36	1695.72
641.55	1753.06
641.74	1708.01
641.92	1660.90
642.11	1644.52
642.30	1712.10
642.49	1681.38
642.68	1769.44
642.87	1716.20
643.06	1722.34
643.25	1734.63
643.44	1626.09
643.63	1720.29
643.82	1742.82
644.00	1757.16
644.19	1767.40
644.38	1765.35
644.57	1783.78
644.76	1730.53
644.95	1746.92
645.14	1740.77
645.33	1677.29
645.52	1775.59
645.71	1665.00
645.89	1691.62
646.08	1726.44
646.27	1705.96
646.46	1912.80
646.65	1566.70
646.84	1748.97
647.03	1636.33
647.22	1798.12
647.40	1691.62
647.59	1624.04
647.78	1646.57
647.97	1736.68
648.16	1640.42
648.35	1757.16
648.54	1814.50
648.73	1783.78
648.91	1787.88
649.10	1724.39
649.29	1687.53
649.48	1705.96
649.67	1738.73
649.86	1710.05
650.05	1701.86
650.23	1783.78
650.42	1648.61
650.61	1751.01
650.80	1726.44
650.99	1843.17
651.18	1757.16
651.36	1796.07
651.55	1679.33
651.74	1808.36
651.93	1624.04
652.12	1722.34
652.31	1644.52
652.49	1695.72
652.68	1667.05
652.87	1736.68
653.06	1716.20
653.25	1804.26
653.44	1662.95
653.62	1767.40
653.81	1703.91
654.00	1804.26
654.19	1724.39
654.38	1834.98
654.56	1777.64
654.75	1722.34
654.94	1810.40
655.13	1726.44
655.32	1660.90
655.51	1714.15
655.69	1689.57
655.88	1789.92
656.07	1691.62
656.26	1775.59
656.45	1617.90
656.63	1730.53
656.82	1767.40
657.01	1777.64
657.20	1681.38
657.38	1865.70
657.57	1671.14
657.76	1722.34
657.95	1755.11
658.14	1710.05
658.32	1761.25
658.51	1658.85
658.70	1769.44
658.89	1687.53
659.08	1662.95
659.26	1798.12
659.45	1685.48
659.64	1734.63
659.83	1746.92
660.01	1955.81
660.20	1703.91
660.39	1763.30
660.58	1587.18
660.76	1800.16
660.95	1714.15
661.14	1710.05
661.33	1595.37
661.51	1740.77
661.70	1654.76
661.89	1759.21
662.08	1759.21
662.26	1728.49
662.45	1673.19
662.64	1771.49
662.83	1732.58
663.01	1667.05
663.20	1669.09
663.39	1787.88
663.58	1759.21
663.76	1624.04
663.95	1644.52
664.14	1720.29
664.32	1703.91
664.51	1800.16
664.70	1695.72
664.89	1796.07
665.07	1644.52
665.26	1718.25
665.45	1671.14
665.64	1787.88
665.82	1665.00
666.01	1763.30
666.20	1677.29
666.38	1927.14
666.57	1800.16
666.76	2189.28
666.95	4515.77
667.13	10159.97
667.32	14874.40
667.51	17196.79
667.69	18446.05
667.88	16910.08
668.07	11847.50
668.25	9398.13
668.44	7769.99
668.63	6997.91
668.81	6602.65
669.00	5939.11
669.19	5482.41
669.38	5005.24
669.56	4392.89
669.75	3872.71
669.94	3370.96
670.12	2828.24
670.31	2523.10
670.50	2303.96
670.68	2017.25
670.87	1886.18
671.06	1839.08
671.24	1783.78
671.43	1787.88
671.62	1771.49
671.80	1710.05
671.99	1796.07
672.18	1759.21
672.36	1818.60
672.55	1728.49
672.74	1828.84
672.92	1638.38
673.11	1763.30
673.29	1667.05
673.48	1800.16
673.67	1712.10
673.85	1728.49
674.04	1705.96
674.23	1773.54
674.41	1755.11
674.60	1675.24
674.79	1607.66
674.97	1710.05
675.16	1839.08
675.34	1767.40
675.53	1722.34
675.72	1753.06
675.90	1820.64
676.09	1751.01
676.28	1699.81
676.46	1759.21
676.65	1828.84
676.83	1724.39
677.02	1734.63
677.21	1660.90
677.39	1695.72
677.58	1685.48
677.77	1710.05
677.95	1753.06
678.14	1708.01
678.32	1730.53
678.51	1718.25
678.70	1912.80
678.88	1712.10
679.07	1703.91
679.25	1716.20
679.44	1667.05
679.63	1607.66
679.81	1726.44
680.00	1665.00
680.18	1691.62
680.37	1796.07
680.55	1761.25
680.74	1617.90
680.93	1597.42
681.11	1730.53
681.30	1699.81
681.48	1734.63
681.67	1671.14
681.85	1751.01
682.04	1734.63
682.23	1771.49
682.41	1771.49
682.60	1734.63
682.78	1656.81
682.97	1687.53
683.15	1701.86
683.34	1761.25
683.53	1818.60
683.71	1574.89
683.90	1771.49
684.08	1834.98
684.27	1734.63
684.45	1718.25
684.64	1763.30
684.82	1726.44
685.01	1726.44
685.19	1681.38
685.38	1828.84
685.57	1775.59
685.75	1677.29
685.94	1650.66
686.12	1718.25
686.31	1640.42
686.49	1794.02
686.68	1646.57
686.86	1763.30
687.05	1667.05
687.23	1804.26
687.42	1642.47
687.60	1662.95
687.79	1714.15
687.97	1771.49
688.16	1748.97
688.34	1808.36
688.53	1632.23
688.71	1724.39
688.90	1791.97
689.08	1722.34
689.27	1640.42
689.45	1730.53
689.64	1841.12
689.82	1755.11
690.01	1730.53
690.19	1732.58
690.38	1703.91
690.56	1830.88
690.75	1712.10
690.93	1640.42
691.12	1728.49
691.30	1728.49
691.49	1660.90
691.67	1738.73
691.86	1798.12
692.04	1652.71
692.23	1675.24
692.41	1744.87
692.60	1742.82
692.78	1722.34
692.97	1701.86
693.15	1716.20
693.34	1822.69
693.52	1822.69
693.71	1673.19
693.89	1605.61
694.08	1646.57
694.26	1730.53
694.44	1755.11
694.63	1794.02
694.81	1703.91
695.00	1632.23
695.18	1769.44
695.37	1884.13
695.55	1757.16
695.74	1728.49
695.92	1648.61
696.10	1665.00
696.29	1652.71
696.47	1730.53
696.66	1689.57
696.84	1699.81
697.03	1658.85
697.21	1859.56
697.40	2381.79
697.58	1804.26
697.76	1636.33
697.95	1634.28
698.13	1685.48
698.32	1685.48
698.50	1576.94
698.68	1800.16
698.87	1722.34
699.05	1789.92
699.24	1675.24
699.42	1591.27
699.61	1675.24
699.79	1716.20
699.97	1730.53
700.16	1669.09
700.34	1648.61
700.53	1740.77
700.71	1748.97
700.89	1765.35
701.08	1705.96
701.26	1759.21
701.45	2099.17
701.63	1665.00
701.81	1773.54
702.00	1705.96
702.18	1763.30
702.37	1757.16
702.55	1734.63
702.73	1695.72
702.92	1644.52
703.10	1744.87
703.28	1767.40
703.47	1656.81
703.65	1781.73
703.84	1828.84
704.02	1705.96
704.20	1800.16
704.39	1628.14
704.57	1669.09
704.75	1832.93
704.94	1724.39
705.12	1697.77
705.30	1832.93
705.49	2205.66
705.67	4450.24
705.86	9219.96
706.04	12201.80
706.22	13999.91
706.41	14733.09
706.59	13152.06
706.77	9166.71
706.96	7165.84
707.14	6301.60
707.32	5812.14
707.51	5392.30
707.69	4659.13
707.87	4140.99
708.06	3463.12
708.24	2908.12
708.42	2416.60
708.61	2256.86
708.79	1847.27
708.97	1904.61
709.16	1843.17
709.34	1738.73
709.52	1789.92
709.71	1722.34
709.89	1773.54
710.07	1708.01
710.26	1679.33
710.44	1738.73
710.62	1787.88
710.80	1699.81
710.99	1794.02
711.17	1771.49
711.35	1726.44
711.54	1705.96
711.72	1740.77
711.90	1730.53
712.09	1789.92
712.27	1679.33
712.45	1701.86
712.63	1751.01
712.82	1751.01
713.00	1724.39
713.18	1783.78
713.37	1691.62
713.55	1755.11
713.73	1779.68
713.91	1820.64
714.10	1697.77
714.28	1650.66
714.46	1673.19
714.65	1732.58
714.83	1689.57
715.01	1667.05
715.19	1738.73
715.38	1679.33
715.56	1767.40
715.74	1722.34
715.92	1656.81
716.11	1748.97
716.29	1656.81
716.47	1685.48
716.65	1685.48
716.84	1628.14
717.02	1767.40
717.20	1646.57
717.38	1665.00
717.57	1718.25
717.75	1718.25
717.93	1744.87
718.11	1771.49
718.30	1615.85
718.48	1714.15
718.66	1726.44
718.84	1779.68
719.03	1677.29
719.21	1650.66
719.39	1779.68
719.57	1718.25
719.75	1775.59
719.94	1613.80
720.12	1677.29
720.30	1640.42
720.48	1810.40
720.67	1705.96
720.85	1619.94
721.03	1732.58
721.21	1624.04
721.39	1714.15
721.58	1681.38
721.76	1783.78
721.94	1697.77
722.12	1716.20
722.30	1761.25
722.49	1740.77
722.67	1669.09
722.85	1726.44
723.03	1691.62
723.21	1689.57
723.40	1695.72
723.58	1710.05
723.76	1697.77
723.94	1775.59
724.12	1689.57
724.30	1753.06
724.49	1730.53
724.67	1687.53
724.85	1708.01
725.03	1548.26
725.21	1779.68
725.40	1755.11
725.58	1701.86
725.76	1730.53
725.94	1767.40
726.12	1619.94
726.30	1722.34
726.49	1652.71
726.67	1632.23
726.85	1718.25
727.03	1763.30
727.21	2131.94
727.39	2858.96
727.57	3813.32
727.76	4104.13
727.94	4335.55
728.12	4321.21
728.30	3565.51
728.48	2854.87
728.66	2699.22
728.84	2619.35
729.03	2267.10
729.21	2185.18
729.39	2027.49
729.57	1863.65
729.75	1843.17
729.93	1796.07
730.11	1722.34
730.30	1728.49
730.48	1665.00
730.66	1787.88
730.84	1828.84
731.02	1765.35
731.20	1648.61
731.38	1675.24
731.56	1574.89
731.74	1673.19
731.93	1738.73
732.11	1744.87
732.29	1595.37
732.47	1699.81
732.65	1687.53
732.83	1683.43
733.01	1783.78
733.19	1726.44
733.37	1708.01
733.56	1689.57
733.74	1701.86
733.92	1738.73
734.10	1697.77
734.28	1710.05
734.46	1671.14
734.64	1724.39
734.82	1640.42
735.00	1677.29
735.18	1701.86
735.36	1650.66
735.54	1722.34
735.73	1751.01
735.91	1718.25
736.09	1847.27
736.27	1699.81
736.45	1697.77
736.63	1591.27
736.81	1724.39
736.99	1796.07
737.17	1789.92
737.35	1642.47
737.53	1697.77
737.71	1742.82
737.89	1820.64
738.07	1726.44
738.25	1681.38
738.43	1636.33
738.61	1669.09
738.80	1675.24
738.98	1687.53
739.16	1646.57
739.34	1658.85
739.52	1773.54
739.70	1763.30
739.88	1755.11
740.06	1753.06
740.24	1615.85
740.42	1734.63
740.60	1683.43
740.78	1570.79
740.96	1615.85
741.14	1703.91
741.32	1716.20
741.50	1587.18
741.68	1853.41
741.86	1806.31
742.04	1634.28
742.22	1636.33
742.40	1679.33
742.58	1681.38
742.76	1601.51
742.94	1761.25
743.12	1638.38
743.30	1744.87
743.48	1714.15
743.66	1632.23
743.84	1761.25
744.02	1677.29
744.20	1632.23
744.38	1656.81
744.56	1632.23
744.74	1787.88
744.92	1730.53
745.10	1800.16
745.28	1703.91
745.46	1812.45
745.64	1662.95
745.82	1771.49
746.00	1685.48
746.18	1726.44
746.36	1701.86
746.54	1716.20
746.72	1779.68
746.90	1691.62
747.08	1820.64
747.26	1699.81
747.44	1759.21
747.62	1757.16
747.80	1761.25
747.98	1767.40
748.15	1665.00
748.33	1751.01
748.51	1681.38
748.69	1718.25
748.87	1716.20
749.05	1654.76
749.23	1718.25
749.41	1765.35
749.59	1705.96
749.77	1800.16
749.95	1718.25
750.13	1650.66
750.31	1748.97
750.49	1716.20
750.67	1728.49
750.85	1834.98
751.03	1777.64
751.20	1787.88
751.38	1697.77
751.56	1681.38
751.74	1728.49
751.92	1734.63
752.10	1611.75
752.28	1763.30
752.46	1652.71
752.64	1712.10
752.82	1714.15
753.00	1652.71
753.18	1687.53
753.35	1632.23
753.53	1738.73
753.71	1628.14
753.89	1791.97
754.07	1720.29
754.25	1742.82
754.43	1693.67
754.61	1693.67
754.79	1683.43
754.97	1705.96
755.14	1751.01
755.32	1673.19
755.50	1714.15
755.68	1746.92
755.86	1681.38
756.04	1646.57
756.22	1662.95
756.40	1791.97
756.57	1773.54
756.75	1656.81
756.93	1808.36
757.11	1808.36
757.29	1685.48
757.47	1587.18
757.65	1644.52
757.82	1595.37
758.00	1667.05
758.18	1691.62
758.36	1708.01
758.54	1861.60
758.72	1673.19
758.90	1726.44
759.07	1734.63
759.25	1662.95
759.43	1751.01
759.61	1714.15
759.79	2230.24
759.97	1736.68
760.15	1697.77
760.32	1730.53
760.50	1708.01
760.68	1859.56
760.86	1603.56
761.04	1671.14
761.22	1775.59
761.39	1669.09
761.57	1765.35
761.75	1675.24
761.93	1785.83
762.11	1728.49
762.28	1703.91
762.46	1753.06
762.64	1783.78
762.82	1656.81
763.00	1753.06
763.18	1751.01
763.35	1708.01
763.53	1812.45
763.71	1812.45
763.89	1738.73
764.07	1744.87
764.24	1689.57
764.42	1740.77
764.60	1718.25
764.78	1673.19
764.96	1804.26
765.13	1738.73
765.31	1769.44
765.49	1751.01
765.67	1669.09
765.84	1705.96
766.02	1689.57
766.20	1650.66
766.38	1718.25
766.56	1800.16
766.73	1791.97
766.91	1703.91
767.09	1734.63
767.27	1771.49
767.44	1669.09
767.62	1720.29
767.80	1761.25
767.98	1642.47
768.15	1726.44
768.33	1740.77
768.51	1783.78
768.69	1832.93
768.87	1689.57
769.04	1718.25
769.22	1869.80
769.40	1798.12
769.58	1871.84
769.75	1771.49
769.93	1767.40
770.11	1730.53
770.28	1699.81
770.46	1736.68
770.64	1724.39
770.82	1718.25
770.99	1718.25
771.17	1753.06
771.35	1679.33
771.53	1650.66
771.70	1697.77
771.88	1683.43
772.06	1710.05
772.23	1689.57
772.41	1720.29
772.59	1712.10
772.77	1705.96
772.94	1701.86
773.12	1677.29
773.30	1669.09
773.47	1742.82
773.65	1624.04
773.83	1796.07
774.01	1673.19
774.18	1640.42
774.36	1691.62
774.54	1634.28
774.71	1710.05
774.89	1685.48
775.07	1662.95
775.24	1671.14
775.42	1683.43
775.60	1775.59
775.78	1667.05
775.95	1673.19
776.13	1640.42
776.31	1556.46
776.48	1683.43
776.66	1886.18
776.84	1691.62
777.01	1693.67
777.19	1718.25
777.37	1705.96
777.54	1673.19
777.72	1873.89
777.90	1710.05
778.07	1671.14
778.25	1865.70
778.43	1744.87
778.60	1742.82
778.78	1742.82
778.96	1763.30
779.13	1644.52
779.31	1775.59
779.49	1699.81
779.66	1714.15
779.84	1640.42
780.01	1673.19
780.19	1636.33
780.37	1753.06
780.54	1734.63
780.72	1642.47
780.90	1714.15
781.07	1705.96
781.25	1712.10
781.43	1716.20
781.60	1765.35
781.78	1798.12
781.95	1697.77
782.13	1667.05
782.31	1665.00
782.48	1644.52
782.66	1730.53
782.83	1867.75
783.01	1677.29
783.19	1675.24
783.36	1681.38
783.54	1705.96
783.72	1740.77
783.89	1708.01
784.07	1720.29
784.24	1765.35
784.42	1738.73
784.60	1681.38
784.77	1734.63
784.95	1603.56
785.12	1617.90
785.30	1724.39
785.47	1634.28
785.65	1669.09
785.83	1669.09
786.00	1595.37
786.18	1697.77
786.35	1660.90
786.53	1640.42
786.71	1796.07
786.88	1656.81
787.06	1775.59
787.23	1714.15
787.41	1665.00
787.58	1724.39
787.76	1740.77
787.94	1748.97
788.11	1748.97
788.29	1640.42
788.46	1646.57
788.64	1710.05
788.81	1685.48
788.99	1658.85
789.16	1599.46
789.34	1675.24
789.52	1665.00
789.69	1626.09
789.87	1583.08
790.04	1703.91
790.22	1693.67
790.39	1859.56
790.57	1662.95
790.74	1724.39
790.92	1800.16
791.09	1673.19
791.27	1720.29
791.44	1761.25
791.62	1691.62
791.79	1755.11
791.97	1621.99
792.15	1863.65
792.32	1730.53
792.50	1746.92
792.67	1720.29
792.85	1667.05
793.02	1794.02
793.20	1675.24
793.37	1648.61
793.55	1685.48
793.72	1681.38
793.90	1759.21
794.07	1648.61
794.25	1640.42
794.42	1685.48
794.60	1742.82
794.77	1683.43
794.95	1714.15
795.12	1681.38
795.30	1722.34
795.47	1640.42
795.65	1845.22
795.82	1736.68
796.00	1615.85
796.17	1708.01
796.34	1626.09
796.52	1759.21
796.69	1716.20
796.87	1755.11
797.04	1714.15
797.22	1738.73
797.39	1712.10
797.57	1689.57
797.74	1697.77
797.92	1755.11
798.09	1658.85
798.27	1769.44
798.44	1652.71
798.62	1673.19
798.79	1751.01
798.96	1697.77
799.14	1753.06
799.31	1791.97
799.49	1642.47
799.66	1712.10
799.84	1787.88
800.01	1665.00
800.19	1740.77
800.36	1656.81
800.53	1740.77
800.71	1697.77
800.88	1779.68
801.06	1701.86
801.23	1720.29
801.41	1699.81
801.58	1759.21
801.75	1701.86
801.93	1705.96
802.10	1726.44
802.28	1705.96
802.45	1660.90
802.63	1740.77
802.80	1775.59
802.97	1632.23
803.15	1734.63
803.32	1689.57
803.50	1626.09
803.67	1630.18
803.84	1677.29
804.02	1751.01
804.19	1679.33
804.37	1619.94
804.54	1665.00
804.71	1691.62
804.89	1734.63
805.06	1638.38
805.24	1621.99
805.41	1720.29
805.58	1603.56
805.76	1843.17
805.93	1771.49
806.10	1755.11
806.28	1814.50
806.45	1779.68
806.63	1740.77
806.80	1787.88
806.97	1665.00
807.15	1714.15
807.32	1732.58
807.49	1787.88
807.67	1607.66
807.84	1738.73
808.01	1591.27
808.19	1783.78
808.36	1763.30
808.54	1685.48
808.71	1699.81
808.88	1730.53
809.06	1697.77
809.23	1867.75
809.40	1693.67
809.58	1755.11
809.75	1665.00
809.92	1636.33
810.10	1855.46
810.27	1738.73
810.44	1665.00
810.62	1781.73
810.79	1691.62
810.96	1697.77
811.14	1662.95
811.31	1742.82
811.48	1744.87
811.66	1730.53
811.83	1748.97
812.00	1777.64
812.18	1771.49
812.35	1837.03
812.52	1726.44
812.69	1691.62
812.87	1755.11
813.04	1595.37
813.21	1703.91
813.39	1640.42
813.56	1650.66
813.73	1732.58
813.91	1576.94
814.08	1781.73
814.25	1732.58
814.42	1662.95
814.60	1654.76
814.77	1806.31
814.94	1671.14
815.12	1656.81
815.29	1781.73
815.46	1642.47
815.63	1705.96
815.81	1658.85
815.98	1677.29
816.15	1712.10
816.33	1677.29
816.50	1679.33
816.67	1720.29
816.84	1634.28
817.02	1652.71
817.19	1699.81
817.36	1701.86
817.53	1757.16
817.71	1673.19
817.88	1738.73
818.05	1705.96
818.22	1697.77
818.40	1787.88
818.57	1656.81
818.74	1730.53
818.91	1726.44
819.09	1697.77
819.26	1802.21
819.43	1726.44
819.60	1691.62
819.78	1757.16
819.95	1808.36
820.12	1613.80
820.29	1800.16
820.47	1779.68
820.64	1667.05
820.81	1644.52
820.98	1773.54
821.15	1662.95
821.33	1712.10
821.50	1609.70
821.67	1705.96
821.84	1673.19
822.02	1652.71
822.19	1783.78
822.36	1656.81
822.53	1660.90
822.70	1605.61
822.88	1693.67
823.05	1798.12
823.22	1720.29
823.39	1718.25
823.56	1746.92
823.74	1705.96
823.91	1673.19
824.08	1669.09
824.25	1560.55
824.42	1794.02
824.60	1652.71
824.77	1681.38
824.94	1677.29
825.11	1697.77
825.28	1650.66
825.45	1734.63
825.63	1699.81
825.80	1701.86
825.97	1746.92
826.14	1771.49
826.31	1673.19
826.48	1755.11
826.66	1654.76
826.83	1652.71
827.00	1726.44
827.17	1718.25
827.34	1710.05
827.51	1673.19
827.69	1695.72
827.86	1708.01
828.03	1716.20
828.20	1769.44
828.37	1757.16
828.54	1808.36
828.71	1642.47
828.89	1769.44
829.06	1757.16
829.23	1748.97
829.40	1611.75
829.57	1703.91
829.74	1791.97
829.91	1644.52
830.09	1617.90
830.26	1738.73
830.43	1791.97
830.60	1732.58
830.77	1685.48
830.94	1822.69
831.11	1771.49
831.28	1714.15
831.46	1695.72
831.63	1656.81
831.80	1732.58
831.97	1619.94
832.14	1716.20
832.31	1767.40
832.48	1710.05
832.65	1763.30
832.82	1730.53
832.99	1718.25
833.17	1638.38
833.34	1783.78
833.51	1767.40
833.68	1689.57
833.85	1708.01
834.02	1728.49
834.19	1665.00
834.36	1679.33
834.53	1685.48
834.70	1626.09
834.87	1761.25
835.04	1697.77
835.22	1556.46
835.39	1724.39
835.56	1671.14
835.73	1689.57
835.90	1726.44
836.07	1628.14
836.24	1755.11
836.41	1644.52
836.58	1716.20
836.75	1783.78
836.92	1736.68
837.09	1609.70
837.26	1703.91
837.43	1726.44
837.60	1656.81
837.77	1615.85
837.94	1800.16
838.12	1671.14
838.29	1656.81
838.46	1583.08
838.63	1609.70
838.80	1814.50
838.97	1701.86
839.14	1705.96
839.31	1656.81
839.48	1695.72
839.65	1773.54
839.82	1755.11
839.99	1695.72
840.16	1796.07
840.33	1701.86
840.50	1697.77
840.67	1656.81
840.84	1560.55
841.01	1738.73
841.18	1648.61
841.35	1753.06
841.52	1746.92
841.69	1804.26
841.86	1738.73
842.03	1662.95
842.20	1748.97
842.37	1669.09
842.54	1753.06
842.71	1765.35
842.88	1595.37
843.05	1705.96
843.22	1628.14
843.39	1677.29
843.56	1703.91
843.73	1710.05
843.90	1720.29
844.07	1724.39
844.24	1730.53
844.41	1781.73
844.58	1796.07
844.75	1673.19
844.92	1718.25
845.09	1728.49
845.26	1638.38
845.43	1746.92
845.60	1652.71
845.77	1712.10
845.94	1740.77
846.10	1687.53
846.27	1701.86
846.44	1650.66
846.61	1646.57
846.78	1761.25
846.95	1751.01
847.12	1697.77
847.29	1673.19
847.46	1703.91
847.63	1722.34
847.80	1673.19
847.97	1685.48
848.14	1787.88
848.31	1685.48
848.48	1636.33
848.65	1665.00
848.82	1677.29
848.98	1918.95
849.15	1697.77
849.32	1787.88
849.49	1705.96
849.66	1689.57
849.83	1693.67
850.00	1626.09
850.17	1722.34
850.34	1701.86
850.51	1640.42
850.68	1656.81
850.85	1843.17
851.01	1734.63
851.18	1771.49
851.35	1626.09
851.52	1705.96
851.69	1798.12
851.86	1611.75
852.03	1710.05
852.20	1722.34
852.37	1673.19
852.53	1632.23
852.70	1775.59
852.87	1791.97
853.04	1806.31
853.21	1675.24
853.38	1773.54
853.55	1757.16
853.72	1849.32
853.89	1718.25
854.05	1646.57
854.22	1644.52
854.39	1714.15
854.56	1763.30
854.73	1779.68
854.90	1626.09
855.07	1740.77
855.23	1697.77
855.40	1724.39
855.57	1744.87
855.74	1632.23
855.91	1871.84
856.08	1687.53
856.25	1654.76
856.41	1564.65
856.58	1730.53
856.75	1705.96
856.92	1644.52
857.09	1798.12
857.26	1642.47
857.42	1720.29
857.59	1712.10
857.76	1662.95
857.93	1744.87
858.10	1738.73
858.27	1609.70
858.43	1740.77
858.60	1658.85
858.77	1617.90
858.94	1636.33
859.11	1730.53
859.27	1703.91
859.44	1714.15
859.61	1806.31
859.78	1751.01
859.95	1681.38
860.12	1648.61
860.28	1787.88
860.45	1816.55
860.62	1574.89
860.79	1697.77
860.95	1626.09
861.12	1632.23
861.29	1656.81
861.46	1708.01
861.63	1691.62
861.79	1693.67
861.96	1648.61
862.13	1691.62
862.30	1849.32
862.47	1615.85
862.63	1675.24
862.80	1761.25
862.97	1720.29
863.14	1691.62
863.30	1734.63
863.47	1605.61
863.64	1736.68
863.81	1710.05
863.97	1667.05
864.14	1677.29
864.31	1646.57
864.48	1746.92
864.65	1681.38
864.81	1763.30
864.98	1804.26
865.15	1708.01
865.32	1665.00
865.48	1732.58
865.65	1800.16
865.82	1712.10
865.98	1730.53
866.15	1779.68
866.32	1665.00
866.49	1689.57
866.65	1730.53
866.82	1636.33
866.99	1738.73
867.16	1685.48
867.32	1632.23
867.49	1693.67
867.66	1632.23
867.83	1646.57
867.99	1648.61
868.16	1648.61
868.33	1617.90
868.49	1705.96
868.66	1683.43
868.83	1789.92
868.99	1685.48
869.16	1736.68
869.33	1740.77
869.50	1689.57
869.66	1736.68
869.83	1634.28
870.00	1712.10
870.16	1800.16
870.33	1667.05
870.50	1691.62
870.66	1695.72
870.83	1867.75
871.00	1712.10
871.17	1615.85
871.33	1693.67
871.50	1665.00
871.67	1667.05
871.83	1656.81
872.00	1765.35
872.17	1748.97
872.33	1751.01
872.50	1683.43
872.67	1677.29
872.83	1701.86
873.00	1748.97
873.17	1705.96
873.33	1742.82
873.50	1796.07
873.67	1671.14
873.83	1705.96
874.00	1767.40
874.16	1716.20
874.33	1599.46
874.50	1636.33
874.66	1761.25
874.83	1722.34
875.00	1779.68
875.16	1691.62
875.33	1779.68
875.50	1632.23
875.66	1667.05
875.83	1708.01
875.99	1708.01
876.16	1681.38
876.33	1638.38
876.49	1761.25
876.66	1662.95
876.83	1681.38
876.99	1656.81
877.16	1712.10
877.32	1646.57
877.49	1710.05
877.66	1722.34
877.82	1773.54
877.99	1683.43
878.15	1755.11
878.32	1665.00
878.49	1681.38
878.65	1683.43
878.82	1761.25
878.98	1712.10
879.15	1738.73
879.32	1669.09
879.48	1699.81
879.65	1734.63
879.81	1667.05
879.98	1687.53
880.15	1644.52
880.31	1761.25
880.48	1656.81
880.64	1849.32
880.81	1765.35
880.97	1757.16
881.14	1724.39
881.31	1691.62
881.47	1773.54
881.64	1695.72
881.80	1572.84
881.97	1724.39
882.13	1738.73
882.30	1658.85
882.47	1701.86
882.63	1689.57
882.80	1642.47
882.96	1628.14
883.13	1757.16
883.29	1759.21
883.46	1724.39
883.62	1849.32
883.79	1640.42
883.95	1665.00
884.12	1642.47
884.29	1794.02
884.45	1734.63
884.62	1728.49
884.78	1681.38
884.95	1734.63
885.11	1755.11
885.28	1687.53
885.44	1697.77
885.61	1654.76
885.77	1751.01
885.94	1734.63
886.10	1685.48
886.27	1683.43
886.43	1830.88
886.60	1785.83
886.76	1728.49
886.93	1712.10
887.09	1689.57
887.26	1634.28
887.42	1683.43
887.59	1697.77
887.75	1771.49
887.92	1771.49
888.08	1787.88
888.25	1837.03
888.41	1720.29
888.58	1734.63
888.74	1660.90
888.91	1640.42
>>>>>End Processed Spectral Data<<<<<
