SpectraSuite Data File
++++++++++++++++++++++++++++++++++++
Date: Mon Jun 06 16:53:57 CEST 2016
User: root
Dark Spectrum Present: No
Reference Spectrum Present: No
Number of Sampled Component Spectra: 1
Spectrometers: USB4C02835
Integration Time (usec): 100000 (USB4C02835)
Spectra Averaged: 1 (USB4C02835)
Boxcar Smoothing: 0 (USB4C02835)
Correct for Electrical Dark: No (USB4C02835)
Strobe/Lamp Enabled: No (USB4C02835)
Correct for Detector Non-linearity: No (USB4C02835)
Correct for Stray Light: No (USB4C02835)
Number of Pixels in Processed Spectrum: 3648
>>>>>Begin Processed Spectral Data<<<<<
177.47	1513.45
177.69	1513.45
177.91	1513.45
178.13	1423.34
178.36	1437.67
178.58	1660.90
178.80	1699.81
179.02	1638.38
179.24	1611.75
179.46	1675.24
179.68	1740.77
179.90	1701.86
180.13	1705.96
180.35	1636.33
180.57	1650.66
180.79	1673.19
181.01	1681.38
181.23	1753.06
181.45	1701.86
181.67	1804.26
181.90	1724.39
182.12	1697.77
182.34	1564.65
182.56	1769.44
182.78	1701.86
183.00	1691.62
183.22	1699.81
183.44	1665.00
183.66	1900.52
183.89	1869.80
184.11	1765.35
184.33	1791.97
184.55	1742.82
184.77	1755.11
184.99	1710.05
185.21	1703.91
185.43	1773.54
185.65	1701.86
185.87	1718.25
186.10	1845.22
186.32	1839.08
186.54	1826.79
186.76	1716.20
186.98	1691.62
187.20	1693.67
187.42	1650.66
187.64	1679.33
187.86	1748.97
188.08	1738.73
188.30	1673.19
188.52	1703.91
188.75	1847.27
188.97	1828.84
189.19	1705.96
189.41	1728.49
189.63	1732.58
189.85	1617.90
190.07	1695.72
190.29	1624.04
190.51	1652.71
190.73	1658.85
190.95	1812.45
191.17	1691.62
191.39	1609.70
191.61	1650.66
191.84	1710.05
192.06	1691.62
192.28	1650.66
192.50	1859.56
192.72	1753.06
192.94	1759.21
193.16	1724.39
193.38	1746.92
193.60	1597.42
193.82	1673.19
194.04	1748.97
194.26	1701.86
194.48	1677.29
194.70	1636.33
194.92	1697.77
195.14	1683.43
195.36	1615.85
195.58	1703.91
195.80	1701.86
196.02	1646.57
196.24	1638.38
196.46	1800.16
196.69	1693.67
196.91	1843.17
197.13	1630.18
197.35	1697.77
197.57	1794.02
197.79	1759.21
198.01	1705.96
198.23	1740.77
198.45	1718.25
198.67	1708.01
198.89	1728.49
199.11	1695.72
199.33	1656.81
199.55	1609.70
199.77	1736.68
199.99	1791.97
200.21	1730.53
200.43	1777.64
200.65	1634.28
200.87	1574.89
201.09	1742.82
201.31	1677.29
201.53	1757.16
201.75	1705.96
201.97	1806.31
202.19	1705.96
202.41	1787.88
202.63	1853.41
202.85	1720.29
203.07	1732.58
203.29	1693.67
203.51	1642.47
203.73	1705.96
203.95	1853.41
204.17	1691.62
204.39	1796.07
204.61	1722.34
204.83	1718.25
205.05	1802.21
205.27	1738.73
205.49	1794.02
205.71	1679.33
205.93	1652.71
206.15	1669.09
206.37	1710.05
206.59	1751.01
206.81	1662.95
207.03	1714.15
207.25	1689.57
207.47	1783.78
207.69	1660.90
207.91	1771.49
208.13	1812.45
208.34	1720.29
208.56	1699.81
208.78	1699.81
209.00	1748.97
209.22	1746.92
209.44	1751.01
209.66	1697.77
209.88	1736.68
210.10	1669.09
210.32	1703.91
210.54	1785.83
210.76	1673.19
210.98	1730.53
211.20	1570.79
211.42	1693.67
211.64	1775.59
211.86	1730.53
212.08	1697.77
212.30	1753.06
212.52	1699.81
212.74	1773.54
212.96	1656.81
213.17	1712.10
213.39	1693.67
213.61	1708.01
213.83	1761.25
214.05	1695.72
214.27	1767.40
214.49	1640.42
214.71	1640.42
214.93	1798.12
215.15	1724.39
215.37	1794.02
215.59	1634.28
215.81	1802.21
216.03	1802.21
216.24	1722.34
216.46	1646.57
216.68	1787.88
216.90	1714.15
217.12	1775.59
217.34	1708.01
217.56	1730.53
217.78	1808.36
218.00	1781.73
218.22	1726.44
218.44	1787.88
218.66	1677.29
218.87	1771.49
219.09	1662.95
219.31	1736.68
219.53	1687.53
219.75	1744.87
219.97	1681.38
220.19	1640.42
220.41	1746.92
220.63	1812.45
220.85	1740.77
221.06	1652.71
221.28	1783.78
221.50	1720.29
221.72	1681.38
221.94	1689.57
222.16	1658.85
222.38	1693.67
222.60	1773.54
222.82	1724.39
223.03	1671.14
223.25	1564.65
223.47	1814.50
223.69	1822.69
223.91	1701.86
224.13	1734.63
224.35	1761.25
224.57	1744.87
224.78	1738.73
225.00	1609.70
225.22	1695.72
225.44	1656.81
225.66	1726.44
225.88	1689.57
226.10	1765.35
226.32	1662.95
226.53	1796.07
226.75	1716.20
226.97	1708.01
227.19	1755.11
227.41	1640.42
227.63	1660.90
227.85	1679.33
228.06	1712.10
228.28	1716.20
228.50	1734.63
228.72	1665.00
228.94	1642.47
229.16	1562.60
229.37	1656.81
229.59	1699.81
229.81	1705.96
230.03	1673.19
230.25	1597.42
230.47	1660.90
230.69	1654.76
230.90	1736.68
231.12	1671.14
231.34	1712.10
231.56	1722.34
231.78	1689.57
232.00	1722.34
232.21	1701.86
232.43	1689.57
232.65	1642.47
232.87	1789.92
233.09	1671.14
233.30	1632.23
233.52	1773.54
233.74	1748.97
233.96	1658.85
234.18	1689.57
234.40	1730.53
234.61	1769.44
234.83	1718.25
235.05	1566.70
235.27	1816.55
235.49	1765.35
235.70	1734.63
235.92	1746.92
236.14	1818.60
236.36	1812.45
236.58	1736.68
236.79	1724.39
237.01	1621.99
237.23	1763.30
237.45	1855.46
237.67	1722.34
237.88	1685.48
238.10	1832.93
238.32	1751.01
238.54	1632.23
238.76	1724.39
238.97	1628.14
239.19	1697.77
239.41	1718.25
239.63	1767.40
239.85	1681.38
240.06	1720.29
240.28	1724.39
240.50	1746.92
240.72	1691.62
240.93	1675.24
241.15	1746.92
241.37	1736.68
241.59	1744.87
241.81	1701.86
242.02	1652.71
242.24	1791.97
242.46	1771.49
242.68	1656.81
242.89	1755.11
243.11	1796.07
243.33	1638.38
243.55	1742.82
243.76	1806.31
243.98	1640.42
244.20	1724.39
244.42	1683.43
244.64	1705.96
244.85	1656.81
245.07	1705.96
245.29	1615.85
245.51	1746.92
245.72	1746.92
245.94	1714.15
246.16	1714.15
246.38	1679.33
246.59	1675.24
246.81	1566.70
247.03	1714.15
247.24	1611.75
247.46	1554.41
247.68	1640.42
247.90	1660.90
248.11	1730.53
248.33	1759.21
248.55	1769.44
248.77	1804.26
248.98	1660.90
249.20	1822.69
249.42	1728.49
249.64	1689.57
249.85	1687.53
250.07	1746.92
250.29	1734.63
250.50	1742.82
250.72	1730.53
250.94	1740.77
251.16	1888.23
251.37	1763.30
251.59	1679.33
251.81	1769.44
252.02	1775.59
252.24	1630.18
252.46	1730.53
252.68	1722.34
252.89	1634.28
253.11	1564.65
253.33	1781.73
253.54	1748.97
253.76	1693.67
253.98	1693.67
254.20	1679.33
254.41	1617.90
254.63	1726.44
254.85	1660.90
255.06	1667.05
255.28	1716.20
255.50	1722.34
255.71	1677.29
255.93	1593.32
256.15	1736.68
256.36	1740.77
256.58	1679.33
256.80	1718.25
257.02	1613.80
257.23	1609.70
257.45	1744.87
257.67	1779.68
257.88	1656.81
258.10	1740.77
258.32	1681.38
258.53	1603.56
258.75	1714.15
258.97	1667.05
259.18	1804.26
259.40	1701.86
259.62	1820.64
259.83	1757.16
260.05	1769.44
260.27	2086.88
260.48	1783.78
260.70	1665.00
260.92	1757.16
261.13	1685.48
261.35	1683.43
261.57	1738.73
261.78	1607.66
262.00	1628.14
262.22	1722.34
262.43	1669.09
262.65	1683.43
262.86	1746.92
263.08	1783.78
263.30	1761.25
263.51	1619.94
263.73	1642.47
263.95	1816.55
264.16	1595.37
264.38	1632.23
264.60	1761.25
264.81	1669.09
265.03	1705.96
265.25	1791.97
265.46	1798.12
265.68	1769.44
265.89	1677.29
266.11	1650.66
266.33	1654.76
266.54	1720.29
266.76	1701.86
266.98	1730.53
267.19	1765.35
267.41	1822.69
267.62	1755.11
267.84	1603.56
268.06	1732.58
268.27	1681.38
268.49	1828.84
268.70	1802.21
268.92	1728.49
269.14	1714.15
269.35	1644.52
269.57	1673.19
269.79	1730.53
270.00	1685.48
270.22	1763.30
270.43	1699.81
270.65	1607.66
270.87	1763.30
271.08	1794.02
271.30	1738.73
271.51	1697.77
271.73	1714.15
271.95	1828.84
272.16	1607.66
272.38	1763.30
272.59	1632.23
272.81	1673.19
273.02	1726.44
273.24	1660.90
273.46	1851.36
273.67	1667.05
273.89	1660.90
274.10	1671.14
274.32	1832.93
274.54	1656.81
274.75	1734.63
274.97	1667.05
275.18	1671.14
275.40	1816.55
275.61	1753.06
275.83	1734.63
276.05	1656.81
276.26	1699.81
276.48	1828.84
276.69	1726.44
276.91	1587.18
277.12	1820.64
277.34	1771.49
277.55	1728.49
277.77	1763.30
277.99	1669.09
278.20	1617.90
278.42	1634.28
278.63	1677.29
278.85	1685.48
279.06	1710.05
279.28	1804.26
279.49	1681.38
279.71	1767.40
279.93	1761.25
280.14	1710.05
280.36	1658.85
280.57	1751.01
280.79	1751.01
281.00	1656.81
281.22	1673.19
281.43	1783.78
281.65	1554.41
281.86	1650.66
282.08	1783.78
282.29	1834.98
282.51	1644.52
282.73	1697.77
282.94	1546.22
283.16	1736.68
283.37	1828.84
283.59	1693.67
283.80	1730.53
284.02	1640.42
284.23	1722.34
284.45	1667.05
284.66	1705.96
284.88	1611.75
285.09	1703.91
285.31	1744.87
285.52	1757.16
285.74	1603.56
285.95	1751.01
286.17	1767.40
286.38	1746.92
286.60	1712.10
286.81	1677.29
287.03	1658.85
287.24	1671.14
287.46	1724.39
287.67	1763.30
287.89	1822.69
288.10	1753.06
288.32	1673.19
288.53	1771.49
288.75	1669.09
288.96	1798.12
289.18	1777.64
289.39	1640.42
289.61	1796.07
289.82	1789.92
290.04	1857.51
290.25	1755.11
290.47	1716.20
290.68	1695.72
290.90	1767.40
291.11	1603.56
291.33	1748.97
291.54	1708.01
291.76	1648.61
291.97	1679.33
292.18	1708.01
292.40	1697.77
292.61	1738.73
292.83	1841.12
293.04	1724.39
293.26	1724.39
293.47	1658.85
293.69	1617.90
293.90	1746.92
294.12	1828.84
294.33	1724.39
294.55	1716.20
294.76	1708.01
294.97	1800.16
295.19	1859.56
295.40	1710.05
295.62	1722.34
295.83	1757.16
296.05	1646.57
296.26	1753.06
296.48	1662.95
296.69	1660.90
296.90	1744.87
297.12	1808.36
297.33	1785.83
297.55	1718.25
297.76	1794.02
297.98	1718.25
298.19	1671.14
298.41	1728.49
298.62	1632.23
298.83	1869.80
299.05	1677.29
299.26	1652.71
299.48	1654.76
299.69	1757.16
299.90	1722.34
300.12	1746.92
300.33	1736.68
300.55	1685.48
300.76	1726.44
300.98	1732.58
301.19	1830.88
301.40	1748.97
301.62	1763.30
301.83	1693.67
302.05	1710.05
302.26	1689.57
302.47	1669.09
302.69	1705.96
302.90	1695.72
303.12	1593.32
303.33	1781.73
303.54	1839.08
303.76	1775.59
303.97	1742.82
304.19	1734.63
304.40	1662.95
304.61	1771.49
304.83	1826.79
305.04	1732.58
305.26	1722.34
305.47	1685.48
305.68	1748.97
305.90	1624.04
306.11	1783.78
306.33	1669.09
306.54	1642.47
306.75	1630.18
306.97	1638.38
307.18	1607.66
307.39	1677.29
307.61	1845.22
307.82	1771.49
308.04	1691.62
308.25	1648.61
308.46	1677.29
308.68	1724.39
308.89	1730.53
309.10	1767.40
309.32	1722.34
309.53	1724.39
309.74	1697.77
309.96	1742.82
310.17	1753.06
310.39	1611.75
310.60	1769.44
310.81	1730.53
311.03	1691.62
311.24	1681.38
311.45	1681.38
311.67	1742.82
311.88	1695.72
312.09	1660.90
312.31	1652.71
312.52	1791.97
312.73	1789.92
312.95	1626.09
313.16	1578.98
313.37	1810.40
313.59	1751.01
313.80	1744.87
314.01	1763.30
314.23	1691.62
314.44	1646.57
314.65	1619.94
314.87	1689.57
315.08	1660.90
315.29	1710.05
315.51	1619.94
315.72	1658.85
315.93	1806.31
316.15	1783.78
316.36	1753.06
316.57	1738.73
316.79	1759.21
317.00	1607.66
317.21	1751.01
317.43	1636.33
317.64	1751.01
317.85	1607.66
318.07	1667.05
318.28	1759.21
318.49	1800.16
318.70	1877.99
318.92	1822.69
319.13	1849.32
319.34	1890.28
319.56	1794.02
319.77	1736.68
319.98	1763.30
320.20	1796.07
320.41	1832.93
320.62	1759.21
320.83	1695.72
321.05	1865.70
321.26	1746.92
321.47	1615.85
321.69	1826.79
321.90	1673.19
322.11	1675.24
322.32	1712.10
322.54	1757.16
322.75	1660.90
322.96	1789.92
323.18	1626.09
323.39	1599.46
323.60	1744.87
323.81	1767.40
324.03	1687.53
324.24	1687.53
324.45	1738.73
324.66	1746.92
324.88	1726.44
325.09	1861.60
325.30	1722.34
325.52	1789.92
325.73	1679.33
325.94	1640.42
326.15	1634.28
326.37	1658.85
326.58	1755.11
326.79	1751.01
327.00	1669.09
327.22	1697.77
327.43	1703.91
327.64	1656.81
327.85	1689.57
328.07	1685.48
328.28	1808.36
328.49	1736.68
328.70	1751.01
328.92	1660.90
329.13	1669.09
329.34	1744.87
329.55	1736.68
329.76	1744.87
329.98	1767.40
330.19	1804.26
330.40	1736.68
330.61	1734.63
330.83	1718.25
331.04	1714.15
331.25	1730.53
331.46	1730.53
331.68	1597.42
331.89	1732.58
332.10	1728.49
332.31	1685.48
332.52	1738.73
332.74	1777.64
332.95	1568.74
333.16	1701.86
333.37	1695.72
333.58	1648.61
333.80	1710.05
334.01	1675.24
334.22	1703.91
334.43	1738.73
334.64	1626.09
334.86	1650.66
335.07	1736.68
335.28	1789.92
335.49	1615.85
335.70	1771.49
335.92	1757.16
336.13	1755.11
336.34	1695.72
336.55	1783.78
336.76	1714.15
336.98	1599.46
337.19	1708.01
337.40	1804.26
337.61	1781.73
337.82	1675.24
338.04	1787.88
338.25	1605.61
338.46	1734.63
338.67	1738.73
338.88	1671.14
339.09	1648.61
339.31	1685.48
339.52	1712.10
339.73	1669.09
339.94	1716.20
340.15	1765.35
340.36	1654.76
340.58	1722.34
340.79	1732.58
341.00	1796.07
341.21	1767.40
341.42	1806.31
341.63	1726.44
341.85	1771.49
342.06	1738.73
342.27	1654.76
342.48	1751.01
342.69	1603.56
342.90	1734.63
343.12	1716.20
343.33	1656.81
343.54	1742.82
343.75	1802.21
343.96	1748.97
344.17	1628.14
344.38	1689.57
344.60	1697.77
344.81	1632.23
345.02	1730.53
345.23	1802.21
345.44	1853.41
345.65	1800.16
345.86	1699.81
346.07	1685.48
346.29	1675.24
346.50	1746.92
346.71	1820.64
346.92	1748.97
347.13	1779.68
347.34	1708.01
347.55	1658.85
347.76	1675.24
347.98	1667.05
348.19	1607.66
348.40	1771.49
348.61	1683.43
348.82	1753.06
349.03	1689.57
349.24	1630.18
349.45	1785.83
349.66	1662.95
349.88	1712.10
350.09	1732.58
350.30	1832.93
350.51	1746.92
350.72	1755.11
350.93	1705.96
351.14	1654.76
351.35	1748.97
351.56	1591.27
351.77	1699.81
351.99	1722.34
352.20	1738.73
352.41	1769.44
352.62	1642.47
352.83	1720.29
353.04	1730.53
353.25	1695.72
353.46	1742.82
353.67	1765.35
353.88	1607.66
354.09	1763.30
354.30	1683.43
354.52	1736.68
354.73	1734.63
354.94	1665.00
355.15	1669.09
355.36	1830.88
355.57	1611.75
355.78	1734.63
355.99	1695.72
356.20	1728.49
356.41	1732.58
356.62	1769.44
356.83	1726.44
357.04	1847.27
357.25	1538.02
357.46	1736.68
357.68	1703.91
357.89	1642.47
358.10	1710.05
358.31	1720.29
358.52	1724.39
358.73	1667.05
358.94	1699.81
359.15	1630.18
359.36	1746.92
359.57	1703.91
359.78	1701.86
359.99	1746.92
360.20	1619.94
360.41	1722.34
360.62	1767.40
360.83	1781.73
361.04	1673.19
361.25	1685.48
361.46	1789.92
361.67	1722.34
361.88	1726.44
362.09	1712.10
362.30	1767.40
362.51	1681.38
362.72	1699.81
362.93	1732.58
363.14	1779.68
363.35	1765.35
363.56	1761.25
363.78	1736.68
363.99	1759.21
364.20	1703.91
364.41	1660.90
364.62	1748.97
364.83	1710.05
365.04	1732.58
365.25	1763.30
365.46	1820.64
365.67	1689.57
365.88	1646.57
366.09	1742.82
366.30	1689.57
366.51	1783.78
366.72	1646.57
366.93	1771.49
367.14	1714.15
367.35	1738.73
367.56	1662.95
367.77	1753.06
367.98	1718.25
368.18	1767.40
368.39	1765.35
368.60	1609.70
368.81	1802.21
369.02	1636.33
369.23	1722.34
369.44	1714.15
369.65	1681.38
369.86	1714.15
370.07	1734.63
370.28	1621.99
370.49	1755.11
370.70	1751.01
370.91	1583.08
371.12	1673.19
371.33	1767.40
371.54	1734.63
371.75	1720.29
371.96	1562.60
372.17	1691.62
372.38	1656.81
372.59	1748.97
372.80	1669.09
373.01	1679.33
373.22	1687.53
373.43	1693.67
373.64	1630.18
373.85	1789.92
374.06	1816.55
374.26	1734.63
374.47	1705.96
374.68	1810.40
374.89	1718.25
375.10	1677.29
375.31	1771.49
375.52	1748.97
375.73	1677.29
375.94	1673.19
376.15	1705.96
376.36	1632.23
376.57	1632.23
376.78	1748.97
376.99	1665.00
377.20	1755.11
377.40	1736.68
377.61	1794.02
377.82	1671.14
378.03	1705.96
378.24	1785.83
378.45	1732.58
378.66	1761.25
378.87	1626.09
379.08	1640.42
379.29	1695.72
379.50	1751.01
379.71	1630.18
379.91	1705.96
380.12	1708.01
380.33	1734.63
380.54	1589.22
380.75	1667.05
380.96	1708.01
381.17	1814.50
381.38	1773.54
381.59	1728.49
381.80	1755.11
382.00	1832.93
382.21	1757.16
382.42	1843.17
382.63	1853.41
382.84	1712.10
383.05	1744.87
383.26	1859.56
383.47	1773.54
383.68	1734.63
383.88	1748.97
384.09	1777.64
384.30	1761.25
384.51	1671.14
384.72	1689.57
384.93	1710.05
385.14	1669.09
385.35	1710.05
385.55	1660.90
385.76	1820.64
385.97	1685.48
386.18	1691.62
386.39	1619.94
386.60	1710.05
386.81	1669.09
387.02	1687.53
387.22	1638.38
387.43	1804.26
387.64	1822.69
387.85	1882.08
388.06	2183.13
388.27	4368.32
388.48	6928.28
388.68	8298.37
388.89	9705.32
389.10	9934.70
389.31	8636.28
389.52	7772.04
389.73	6889.37
389.93	6246.30
390.14	5953.45
390.35	5304.24
390.56	4575.16
390.77	3903.43
390.98	3065.81
391.18	2506.71
391.39	2195.42
391.60	1781.73
391.81	1828.84
392.02	1777.64
392.23	1841.12
392.43	1738.73
392.64	1816.55
392.85	1712.10
393.06	1824.74
393.27	1738.73
393.47	1669.09
393.68	1730.53
393.89	1689.57
394.10	1730.53
394.31	1726.44
394.52	1681.38
394.72	1656.81
394.93	1783.78
395.14	1599.46
395.35	1744.87
395.56	1687.53
395.76	1720.29
395.97	1738.73
396.18	1787.88
396.39	1853.41
396.60	2013.15
396.80	1900.52
397.01	1834.98
397.22	1800.16
397.43	1853.41
397.64	1681.38
397.84	1796.07
398.05	1820.64
398.26	1734.63
398.47	1814.50
398.67	1712.10
398.88	1714.15
399.09	1773.54
399.30	1640.42
399.51	1705.96
399.71	1730.53
399.92	1722.34
400.13	1728.49
400.34	1699.81
400.54	1763.30
400.75	1726.44
400.96	1714.15
401.17	1796.07
401.37	1771.49
401.58	1710.05
401.79	1755.11
402.00	1855.46
402.21	2015.20
402.41	1935.33
402.62	1943.52
402.83	2039.78
403.04	2027.49
403.24	2084.83
403.45	1904.61
403.66	1900.52
403.87	1914.85
404.07	1877.99
404.28	1834.98
404.49	1771.49
404.70	1789.92
404.90	1818.60
405.11	1675.24
405.32	1738.73
405.52	1630.18
405.73	1656.81
405.94	1656.81
406.15	1658.85
406.35	1734.63
406.56	1693.67
406.77	1808.36
406.98	1730.53
407.18	1677.29
407.39	1781.73
407.60	1722.34
407.80	1806.31
408.01	1671.14
408.22	1824.74
408.43	1646.57
408.63	1765.35
408.84	1787.88
409.05	1763.30
409.25	1656.81
409.46	1708.01
409.67	1646.57
409.88	1689.57
410.08	1757.16
410.29	1718.25
410.50	1763.30
410.70	1779.68
410.91	1603.56
411.12	1761.25
411.32	1712.10
411.53	1701.86
411.74	1847.27
411.95	1787.88
412.15	1703.91
412.36	1802.21
412.57	1755.11
412.77	1777.64
412.98	1660.90
413.19	1630.18
413.39	1730.53
413.60	1755.11
413.81	1755.11
414.01	1654.76
414.22	1746.92
414.43	1779.68
414.63	1728.49
414.84	1761.25
415.05	1708.01
415.25	1613.80
415.46	1677.29
415.67	1701.86
415.87	1742.82
416.08	1742.82
416.29	1671.14
416.49	1730.53
416.70	1714.15
416.91	1691.62
417.11	1681.38
417.32	1740.77
417.53	1734.63
417.73	1728.49
417.94	1669.09
418.15	1724.39
418.35	1773.54
418.56	1640.42
418.77	1849.32
418.97	1734.63
419.18	1646.57
419.38	1613.80
419.59	1683.43
419.80	1814.50
420.00	1683.43
420.21	1730.53
420.42	1761.25
420.62	1789.92
420.83	1613.80
421.04	1638.38
421.24	1658.85
421.45	1777.64
421.65	1773.54
421.86	1755.11
422.07	1794.02
422.27	1662.95
422.48	1779.68
422.69	1681.38
422.89	1679.33
423.10	1679.33
423.30	1656.81
423.51	1708.01
423.72	1718.25
423.92	1791.97
424.13	1675.24
424.33	1771.49
424.54	1832.93
424.75	1685.48
424.95	1736.68
425.16	1751.01
425.36	1689.57
425.57	1796.07
425.78	1759.21
425.98	1796.07
426.19	1578.98
426.39	1583.08
426.60	1746.92
426.81	1863.65
427.01	1804.26
427.22	1624.04
427.42	1638.38
427.63	1673.19
427.83	1767.40
428.04	1779.68
428.25	1853.41
428.45	1736.68
428.66	1757.16
428.86	1763.30
429.07	1712.10
429.28	1695.72
429.48	1642.47
429.69	1708.01
429.89	1701.86
430.10	1648.61
430.30	1722.34
430.51	1748.97
430.71	1689.57
430.92	1810.40
431.13	1675.24
431.33	1714.15
431.54	1681.38
431.74	1845.22
431.95	1851.36
432.15	1673.19
432.36	1746.92
432.56	1720.29
432.77	1865.70
432.98	1787.88
433.18	1748.97
433.39	1708.01
433.59	1722.34
433.80	1796.07
434.00	1828.84
434.21	1681.38
434.41	1675.24
434.62	1751.01
434.82	1701.86
435.03	1693.67
435.23	1740.77
435.44	1619.94
435.64	1730.53
435.85	1675.24
436.06	1744.87
436.26	1800.16
436.47	1660.90
436.67	1699.81
436.88	1673.19
437.08	1695.72
437.29	1841.12
437.49	1755.11
437.70	1746.92
437.90	1812.45
438.11	1812.45
438.31	1806.31
438.52	1855.46
438.72	1859.56
438.93	1925.09
439.13	1773.54
439.34	1902.56
439.54	1751.01
439.75	1808.36
439.95	1808.36
440.16	1730.53
440.36	1755.11
440.57	1763.30
440.77	1751.01
440.98	1783.78
441.18	1712.10
441.39	1685.48
441.59	1691.62
441.80	1898.47
442.00	1781.73
442.21	1869.80
442.41	1708.01
442.62	1751.01
442.82	1673.19
443.02	1714.15
443.23	1814.50
443.43	1660.90
443.64	1787.88
443.84	1705.96
444.05	1732.58
444.25	1800.16
444.46	1722.34
444.66	1771.49
444.87	1691.62
445.07	1619.94
445.28	1699.81
445.48	1822.69
445.69	1716.20
445.89	1859.56
446.09	1763.30
446.30	2031.58
446.50	2609.11
446.71	3719.11
446.91	4419.52
447.12	4853.69
447.32	4773.82
447.53	4384.70
447.73	3921.86
447.93	3557.32
448.14	3338.19
448.34	3231.69
448.55	2967.51
448.75	2850.77
448.96	2752.47
449.16	2480.09
449.36	2308.06
449.57	2093.02
449.77	1914.85
449.98	1787.88
450.18	1734.63
450.39	1800.16
450.59	1726.44
450.79	1806.31
451.00	1716.20
451.20	1810.40
451.41	1695.72
451.61	1755.11
451.81	1785.83
452.02	1703.91
452.22	1744.87
452.43	1753.06
452.63	1609.70
452.84	1767.40
453.04	1738.73
453.24	1837.03
453.45	1746.92
453.65	1781.73
453.86	1812.45
454.06	1830.88
454.26	1865.70
454.47	1619.94
454.67	1771.49
454.87	1714.15
455.08	1777.64
455.28	1820.64
455.49	1742.82
455.69	1765.35
455.89	1910.75
456.10	1826.79
456.30	1755.11
456.51	1759.21
456.71	1734.63
456.91	1740.77
457.12	1779.68
457.32	1718.25
457.52	1679.33
457.73	1798.12
457.93	1732.58
458.14	1726.44
458.34	1691.62
458.54	1716.20
458.75	1712.10
458.95	1837.03
459.15	1714.15
459.36	1718.25
459.56	1804.26
459.76	1843.17
459.97	1677.29
460.17	1791.97
460.37	1806.31
460.58	1714.15
460.78	1783.78
460.99	1759.21
461.19	1757.16
461.39	1693.67
461.60	1724.39
461.80	1753.06
462.00	1689.57
462.21	1685.48
462.41	1761.25
462.61	1689.57
462.82	1734.63
463.02	1732.58
463.22	1812.45
463.43	1767.40
463.63	1787.88
463.83	1812.45
464.04	1798.12
464.24	1757.16
464.44	1677.29
464.64	1740.77
464.85	1718.25
465.05	1755.11
465.25	1746.92
465.46	1724.39
465.66	1744.87
465.86	1771.49
466.07	1753.06
466.27	1761.25
466.47	1640.42
466.68	1669.09
466.88	1783.78
467.08	1785.83
467.29	1738.73
467.49	1714.15
467.69	1660.90
467.89	1767.40
468.10	1722.34
468.30	1789.92
468.50	1800.16
468.71	1814.50
468.91	1615.85
469.11	1867.75
469.31	1724.39
469.52	1701.86
469.72	1796.07
469.92	1871.84
470.13	1730.53
470.33	1767.40
470.53	1808.36
470.73	2058.21
470.94	2258.91
471.14	2379.74
471.34	2602.97
471.54	2363.36
471.75	2230.24
471.95	2115.55
472.15	2090.98
472.36	2099.17
472.56	2029.54
472.76	2084.83
472.96	1957.86
473.17	1931.23
473.37	1978.34
473.57	1839.08
473.77	1875.94
473.98	1779.68
474.18	1720.29
474.38	1902.56
474.58	1787.88
474.79	1683.43
474.99	1736.68
475.19	1849.32
475.39	1681.38
475.60	1714.15
475.80	1705.96
476.00	1716.20
476.20	1710.05
476.41	1779.68
476.61	1791.97
476.81	1746.92
477.01	1671.14
477.21	1916.90
477.42	1779.68
477.62	1669.09
477.82	1777.64
478.02	1730.53
478.23	1800.16
478.43	1665.00
478.63	1806.31
478.83	1683.43
479.03	1738.73
479.24	1722.34
479.44	1845.22
479.64	1669.09
479.84	1615.85
480.04	1716.20
480.25	1736.68
480.45	1697.77
480.65	1808.36
480.85	1800.16
481.06	1748.97
481.26	1734.63
481.46	1765.35
481.66	1683.43
481.86	1654.76
482.06	1773.54
482.27	1732.58
482.47	1714.15
482.67	1744.87
482.87	1607.66
483.07	1804.26
483.28	1683.43
483.48	1648.61
483.68	1722.34
483.88	1718.25
484.08	1599.46
484.29	1669.09
484.49	1701.86
484.69	1634.28
484.89	1767.40
485.09	1738.73
485.29	1789.92
485.50	1662.95
485.70	1683.43
485.90	1832.93
486.10	1804.26
486.30	1789.92
486.50	1834.98
486.71	1732.58
486.91	1765.35
487.11	1824.74
487.31	1654.76
487.51	1705.96
487.71	1679.33
487.91	1667.05
488.12	1660.90
488.32	1585.13
488.52	1718.25
488.72	1513.45
488.92	1681.38
489.12	1710.05
489.32	1763.30
489.53	1773.54
489.73	1662.95
489.93	1859.56
490.13	1691.62
490.33	1681.38
490.53	1775.59
490.73	1810.40
490.94	1660.90
491.14	1740.77
491.34	1867.75
491.54	2217.95
491.74	2635.74
491.94	2863.06
492.14	3043.28
492.34	3055.57
492.54	2723.80
492.75	2529.24
492.95	2408.41
493.15	2351.07
493.35	2326.49
493.55	2193.37
493.75	2140.13
493.95	2101.22
494.15	2039.78
494.35	1894.37
494.56	1898.47
494.76	1746.92
494.96	1824.74
495.16	1712.10
495.36	1697.77
495.56	1789.92
495.76	1665.00
495.96	1779.68
496.16	1734.63
496.36	1832.93
496.56	1800.16
496.77	1753.06
496.97	1703.91
497.17	1791.97
497.37	1654.76
497.57	1781.73
497.77	1720.29
497.97	1730.53
498.17	1728.49
498.37	1644.52
498.57	1730.53
498.77	1673.19
498.97	1712.10
499.17	1867.75
499.38	1742.82
499.58	1873.89
499.78	1759.21
499.98	1810.40
500.18	1765.35
500.38	1689.57
500.58	1902.56
500.78	2508.76
500.98	4540.35
501.18	5916.58
501.38	6842.26
501.58	7167.89
501.78	6883.22
501.98	5525.42
502.18	4951.99
502.38	4521.92
502.58	4224.96
502.78	3831.75
502.98	3614.66
503.18	3542.99
503.38	3182.54
503.59	2861.01
503.79	2705.37
503.99	2498.52
504.19	2377.69
504.39	2209.76
504.59	2230.24
504.79	2111.46
504.99	2127.84
505.19	1880.04
505.39	1988.58
505.59	2033.63
505.79	1970.15
505.99	1830.88
506.19	1845.22
506.39	1882.08
506.59	1783.78
506.79	1738.73
506.99	1757.16
507.19	1722.34
507.39	1818.60
507.59	1624.04
507.79	1697.77
507.99	1705.96
508.19	1693.67
508.39	1681.38
508.59	1740.77
508.79	1841.12
508.99	1933.28
509.19	1640.42
509.39	1736.68
509.59	1748.97
509.79	1724.39
509.99	1669.09
510.19	1785.83
510.39	1757.16
510.59	1748.97
510.79	1748.97
510.99	1642.47
511.19	1724.39
511.39	1853.41
511.59	1755.11
511.79	1816.55
511.99	1787.88
512.19	1832.93
512.38	1730.53
512.58	1714.15
512.78	1773.54
512.98	1712.10
513.18	1845.22
513.38	1597.42
513.58	1822.69
513.78	1767.40
513.98	1738.73
514.18	1769.44
514.38	1781.73
514.58	1781.73
514.78	1630.18
514.98	1748.97
515.18	1759.21
515.38	1648.61
515.58	1902.56
515.78	1665.00
515.98	1796.07
516.18	1808.36
516.38	1714.15
516.57	1765.35
516.77	1703.91
516.97	1748.97
517.17	1703.91
517.37	1644.52
517.57	1800.16
517.77	1644.52
517.97	1730.53
518.17	1796.07
518.37	1748.97
518.57	1718.25
518.77	1767.40
518.97	1765.35
519.16	1794.02
519.36	1810.40
519.56	1677.29
519.76	1767.40
519.96	1757.16
520.16	1875.94
520.36	1677.29
520.56	1779.68
520.76	1763.30
520.96	1679.33
521.16	1787.88
521.35	1697.77
521.55	1902.56
521.75	1834.98
521.95	1714.15
522.15	1771.49
522.35	1624.04
522.55	1652.71
522.75	1744.87
522.95	1744.87
523.14	1644.52
523.34	1742.82
523.54	1722.34
523.74	1720.29
523.94	1738.73
524.14	1658.85
524.34	1761.25
524.54	1783.78
524.73	1701.86
524.93	1740.77
525.13	1705.96
525.33	1669.09
525.53	1910.75
525.73	1697.77
525.93	1740.77
526.13	1736.68
526.32	1728.49
526.52	1804.26
526.72	1732.58
526.92	1748.97
527.12	1751.01
527.32	1705.96
527.52	1767.40
527.71	1730.53
527.91	1796.07
528.11	1726.44
528.31	1714.15
528.51	1699.81
528.71	1822.69
528.90	1708.01
529.10	1798.12
529.30	1947.62
529.50	1603.56
529.70	1732.58
529.90	1708.01
530.09	1761.25
530.29	1699.81
530.49	1718.25
530.69	1968.10
530.89	1771.49
531.09	1718.25
531.28	1714.15
531.48	1761.25
531.68	1738.73
531.88	1746.92
532.08	1775.59
532.28	1738.73
532.47	1742.82
532.67	1863.65
532.87	1679.33
533.07	1720.29
533.27	1722.34
533.46	1705.96
533.66	1701.86
533.86	1728.49
534.06	1822.69
534.26	1746.92
534.45	1722.34
534.65	1843.17
534.85	1783.78
535.05	1632.23
535.25	1783.78
535.44	1644.52
535.64	1804.26
535.84	1673.19
536.04	1613.80
536.24	1722.34
536.43	1738.73
536.63	1718.25
536.83	1730.53
537.03	1810.40
537.22	1630.18
537.42	1726.44
537.62	1810.40
537.82	1656.81
538.02	1814.50
538.21	1802.21
538.41	1914.85
538.61	1677.29
538.81	1677.29
539.00	1853.41
539.20	1669.09
539.40	1789.92
539.60	1787.88
539.79	1789.92
539.99	1757.16
540.19	1714.15
540.39	1736.68
540.58	1714.15
540.78	1753.06
540.98	1755.11
541.18	1808.36
541.37	1781.73
541.57	1820.64
541.77	1759.21
541.97	1634.28
542.16	1624.04
542.36	1650.66
542.56	1773.54
542.76	1832.93
542.95	1822.69
543.15	1734.63
543.35	1748.97
543.54	1722.34
543.74	1648.61
543.94	1753.06
544.14	1708.01
544.33	1820.64
544.53	1748.97
544.73	1771.49
544.93	1753.06
545.12	1769.44
545.32	1748.97
545.52	1673.19
545.71	1617.90
545.91	1699.81
546.11	1697.77
546.30	1669.09
546.50	1787.88
546.70	1771.49
546.90	1718.25
547.09	1681.38
547.29	1779.68
547.49	1787.88
547.68	1738.73
547.88	1705.96
548.08	1806.31
548.27	2240.48
548.47	1708.01
548.67	1714.15
548.87	1712.10
549.06	1710.05
549.26	1746.92
549.46	1712.10
549.65	1812.45
549.85	1742.82
550.05	1777.64
550.24	1691.62
550.44	1695.72
550.64	1767.40
550.83	1755.11
551.03	1761.25
551.23	1759.21
551.42	1794.02
551.62	1748.97
551.82	1767.40
552.01	1728.49
552.21	1869.80
552.41	1697.77
552.60	1759.21
552.80	1773.54
553.00	1769.44
553.19	1787.88
553.39	1746.92
553.59	1753.06
553.78	1685.48
553.98	1744.87
554.17	1736.68
554.37	1755.11
554.57	1843.17
554.76	1642.47
554.96	1728.49
555.16	1734.63
555.35	1742.82
555.55	1818.60
555.75	1769.44
555.94	1779.68
556.14	1658.85
556.33	1777.64
556.53	1734.63
556.73	1738.73
556.92	1781.73
557.12	1832.93
557.32	1863.65
557.51	1775.59
557.71	1769.44
557.90	1783.78
558.10	1824.74
558.30	1787.88
558.49	1755.11
558.69	1746.92
558.88	1783.78
559.08	1660.90
559.28	1742.82
559.47	1699.81
559.67	1755.11
559.86	1861.60
560.06	1744.87
560.26	1814.50
560.45	1800.16
560.65	1796.07
560.84	1753.06
561.04	1769.44
561.24	1816.55
561.43	1746.92
561.63	1851.36
561.82	1855.46
562.02	1775.59
562.22	1732.58
562.41	1630.18
562.61	1626.09
562.80	1777.64
563.00	1851.36
563.19	1759.21
563.39	1804.26
563.59	1755.11
563.78	1660.90
563.98	1685.48
564.17	1677.29
564.37	1656.81
564.56	1783.78
564.76	1665.00
564.96	1828.84
565.15	1654.76
565.35	1863.65
565.54	1693.67
565.74	1800.16
565.93	1800.16
566.13	1746.92
566.32	1765.35
566.52	1742.82
566.71	1755.11
566.91	1814.50
567.11	1789.92
567.30	1693.67
567.50	1822.69
567.69	1789.92
567.89	1748.97
568.08	1751.01
568.28	1689.57
568.47	1726.44
568.67	1677.29
568.86	1669.09
569.06	1775.59
569.25	1753.06
569.45	1687.53
569.64	1775.59
569.84	1710.05
570.04	1789.92
570.23	1712.10
570.43	1777.64
570.62	1802.21
570.82	1890.28
571.01	1689.57
571.21	1744.87
571.40	1732.58
571.60	1875.94
571.79	1802.21
571.99	1849.32
572.18	1677.29
572.38	1767.40
572.57	1734.63
572.77	1712.10
572.96	1908.71
573.16	1738.73
573.35	1751.01
573.55	1763.30
573.74	1796.07
573.94	1738.73
574.13	1705.96
574.33	1822.69
574.52	1851.36
574.71	1791.97
574.91	1796.07
575.10	1697.77
575.30	1730.53
575.49	1697.77
575.69	1781.73
575.88	1804.26
576.08	1710.05
576.27	1814.50
576.47	1728.49
576.66	1849.32
576.86	1785.83
577.05	1820.64
577.25	1769.44
577.44	1839.08
577.64	1660.90
577.83	1839.08
578.02	1697.77
578.22	1791.97
578.41	1830.88
578.61	1800.16
578.80	1644.52
579.00	1738.73
579.19	1834.98
579.39	1822.69
579.58	1767.40
579.77	1714.15
579.97	1884.13
580.16	1814.50
580.36	1796.07
580.55	1810.40
580.75	1796.07
580.94	1771.49
581.13	1781.73
581.33	1857.51
581.52	1703.91
581.72	1894.37
581.91	1824.74
582.11	1701.86
582.30	1802.21
582.49	1773.54
582.69	1902.56
582.88	1763.30
583.08	1708.01
583.27	1832.93
583.47	1834.98
583.66	1751.01
583.85	1732.58
584.05	1712.10
584.24	1818.60
584.44	1789.92
584.63	1869.80
584.82	1837.03
585.02	1841.12
585.21	1902.56
585.41	1826.79
585.60	1845.22
585.79	2009.06
585.99	1957.86
586.18	1873.89
586.37	2205.66
586.57	3465.16
586.76	10020.71
586.96	24667.78
587.15	34807.28
587.34	40947.09
587.54	42579.32
587.73	37443.01
587.93	26828.39
588.12	21556.92
588.31	18704.10
588.51	16668.42
588.70	15370.01
588.89	14542.63
589.09	12646.21
589.28	11339.60
589.47	9602.93
589.67	7974.79
589.86	6680.47
590.06	5111.73
590.25	3891.14
590.44	3078.10
590.64	2549.72
590.83	2185.18
591.02	2158.56
591.22	1949.67
591.41	1882.08
591.60	1800.16
591.80	1888.23
591.99	1732.58
592.18	1820.64
592.38	1888.23
592.57	1763.30
592.76	1777.64
592.96	1804.26
593.15	1736.68
593.34	1804.26
593.54	1767.40
593.73	1763.30
593.92	1730.53
594.12	1691.62
594.31	1775.59
594.50	1814.50
594.70	1814.50
594.89	1914.85
595.08	1658.85
595.28	1785.83
595.47	1918.95
595.66	1789.92
595.86	1724.39
596.05	1712.10
596.24	1769.44
596.43	1918.95
596.63	1783.78
596.82	1779.68
597.01	1791.97
597.21	1781.73
597.40	1712.10
597.59	1783.78
597.79	1693.67
597.98	1826.79
598.17	1748.97
598.36	1718.25
598.56	1763.30
598.75	1597.42
598.94	1728.49
599.14	1761.25
599.33	1693.67
599.52	1808.36
599.71	1830.88
599.91	1738.73
600.10	1753.06
600.29	1789.92
600.48	1732.58
600.68	1789.92
600.87	1667.05
601.06	1726.44
601.26	1796.07
601.45	1777.64
601.64	1744.87
601.83	1740.77
602.03	1681.38
602.22	1660.90
602.41	1779.68
602.60	1834.98
602.80	1845.22
602.99	1765.35
603.18	1740.77
603.37	1708.01
603.57	1759.21
603.76	1755.11
603.95	1759.21
604.14	1732.58
604.34	1718.25
604.53	1724.39
604.72	1722.34
604.91	1751.01
605.10	1841.12
605.30	1689.57
605.49	1857.51
605.68	1789.92
605.87	1810.40
606.07	1675.24
606.26	1759.21
606.45	1775.59
606.64	1800.16
606.84	1796.07
607.03	1785.83
607.22	1779.68
607.41	1740.77
607.60	1689.57
607.80	1851.36
607.99	1738.73
608.18	1773.54
608.37	1703.91
608.56	1654.76
608.76	1802.21
608.95	1837.03
609.14	1798.12
609.33	1841.12
609.52	1789.92
609.72	1775.59
609.91	1767.40
610.10	1665.00
610.29	1828.84
610.48	1859.56
610.68	1773.54
610.87	1787.88
611.06	1738.73
611.25	1767.40
611.44	1798.12
611.63	1730.53
611.83	1863.65
612.02	1718.25
612.21	1769.44
612.40	1695.72
612.59	1671.14
612.79	1656.81
612.98	1746.92
613.17	1820.64
613.36	1740.77
613.55	1904.61
613.74	1724.39
613.93	1644.52
614.13	1710.05
614.32	1757.16
614.51	1742.82
614.70	1757.16
614.89	1691.62
615.08	1791.97
615.28	2107.36
615.47	1591.27
615.66	1685.48
615.85	1796.07
616.04	1767.40
616.23	1740.77
616.42	1689.57
616.62	1773.54
616.81	1685.48
617.00	1710.05
617.19	1751.01
617.38	1742.82
617.57	1751.01
617.76	1771.49
617.95	1804.26
618.15	1714.15
618.34	1763.30
618.53	1671.14
618.72	1783.78
618.91	1759.21
619.10	1830.88
619.29	1738.73
619.48	1777.64
619.68	1671.14
619.87	1789.92
620.06	1671.14
620.25	1853.41
620.44	1787.88
620.63	1708.01
620.82	1769.44
621.01	1705.96
621.20	1798.12
621.39	1751.01
621.59	1746.92
621.78	1658.85
621.97	1683.43
622.16	1804.26
622.35	1697.77
622.54	1746.92
622.73	1791.97
622.92	1693.67
623.11	1724.39
623.30	1712.10
623.49	1757.16
623.68	1726.44
623.88	1826.79
624.07	1691.62
624.26	1837.03
624.45	1748.97
624.64	1710.05
624.83	1753.06
625.02	1665.00
625.21	1662.95
625.40	1753.06
625.59	1777.64
625.78	1742.82
625.97	1689.57
626.16	1761.25
626.35	1716.20
626.54	1746.92
626.74	1798.12
626.93	1642.47
627.12	1734.63
627.31	1812.45
627.50	1771.49
627.69	1740.77
627.88	1691.62
628.07	1703.91
628.26	1654.76
628.45	1669.09
628.64	1624.04
628.83	1767.40
629.02	1652.71
629.21	1718.25
629.40	1634.28
629.59	1691.62
629.78	1689.57
629.97	1718.25
630.16	1662.95
630.35	1740.77
630.54	1710.05
630.73	1642.47
630.92	1687.53
631.11	1720.29
631.30	1722.34
631.49	1746.92
631.68	1732.58
631.87	1730.53
632.06	1695.72
632.25	1867.75
632.44	1751.01
632.63	1755.11
632.82	1673.19
633.01	1716.20
633.20	1720.29
633.39	1716.20
633.58	1660.90
633.77	1695.72
633.96	1753.06
634.15	1810.40
634.34	1810.40
634.53	1701.86
634.72	1689.57
634.91	1720.29
635.10	1736.68
635.29	1800.16
635.48	1722.34
635.67	1705.96
635.86	1605.61
636.05	1812.45
636.24	1751.01
636.43	1603.56
636.62	1738.73
636.81	1591.27
637.00	1722.34
637.19	1734.63
637.38	1753.06
637.57	1748.97
637.76	1746.92
637.95	1708.01
638.14	1654.76
638.33	1744.87
638.52	1771.49
638.71	1693.67
638.89	1632.23
639.08	1791.97
639.27	1744.87
639.46	1708.01
639.65	1761.25
639.84	1779.68
640.03	1773.54
640.22	1683.43
640.41	1798.12
640.60	1652.71
640.79	1718.25
640.98	1652.71
641.17	1767.40
641.36	1716.20
641.55	1695.72
641.74	1716.20
641.92	1685.48
642.11	1652.71
642.30	1648.61
642.49	1699.81
642.68	1685.48
642.87	1710.05
643.06	1726.44
643.25	1736.68
643.44	1634.28
643.63	1746.92
643.82	1695.72
644.00	1722.34
644.19	1816.55
644.38	1687.53
644.57	1738.73
644.76	1730.53
644.95	1705.96
645.14	1648.61
645.33	1695.72
645.52	1730.53
645.71	1599.46
645.89	1742.82
646.08	1761.25
646.27	1738.73
646.46	1775.59
646.65	1578.98
646.84	1720.29
647.03	1667.05
647.22	1828.84
647.40	1738.73
647.59	1675.24
647.78	1691.62
647.97	1720.29
648.16	1669.09
648.35	1806.31
648.54	1796.07
648.73	1675.24
648.91	1832.93
649.10	1708.01
649.29	1669.09
649.48	1740.77
649.67	1681.38
649.86	1748.97
650.05	1740.77
650.23	1738.73
650.42	1705.96
650.61	1789.92
650.80	1748.97
650.99	1783.78
651.18	1789.92
651.36	1763.30
651.55	1634.28
651.74	1724.39
651.93	1718.25
652.12	1734.63
652.31	1650.66
652.49	1679.33
652.68	1701.86
652.87	1761.25
653.06	1730.53
653.25	1839.08
653.44	1681.38
653.62	1789.92
653.81	1697.77
654.00	1724.39
654.19	1740.77
654.38	1898.47
654.56	1800.16
654.75	1738.73
654.94	1734.63
655.13	1726.44
655.32	1734.63
655.51	1679.33
655.69	1796.07
655.88	1738.73
656.07	1681.38
656.26	1783.78
656.45	1658.85
656.63	1722.34
656.82	1767.40
657.01	1748.97
657.20	1720.29
657.38	1828.84
657.57	1730.53
657.76	1640.42
657.95	1830.88
658.14	1726.44
658.32	1683.43
658.51	1708.01
658.70	1705.96
658.89	1771.49
659.08	1699.81
659.26	1796.07
659.45	1669.09
659.64	1742.82
659.83	1728.49
660.01	1857.51
660.20	1773.54
660.39	1789.92
660.58	1669.09
660.76	1726.44
660.95	1624.04
661.14	1681.38
661.33	1542.12
661.51	1656.81
661.70	1773.54
661.89	1794.02
662.08	1826.79
662.26	1660.90
662.45	1728.49
662.64	1761.25
662.83	1773.54
663.01	1652.71
663.20	1785.83
663.39	1853.41
663.58	1728.49
663.76	1744.87
663.95	1740.77
664.14	1652.71
664.32	1656.81
664.51	1607.66
664.70	1648.61
664.89	1751.01
665.07	1634.28
665.26	1763.30
665.45	1718.25
665.64	1726.44
665.82	1730.53
666.01	1773.54
666.20	1697.77
666.38	1816.55
666.57	1861.60
666.76	2220.00
666.95	4368.32
667.13	10665.82
667.32	15410.96
667.51	18130.67
667.69	19484.37
667.88	18241.26
668.07	12668.73
668.25	9688.94
668.44	8273.79
668.63	7397.26
668.81	7032.72
669.00	6500.25
669.19	5846.95
669.38	5281.71
669.56	4640.70
669.75	3971.01
669.94	3409.87
670.12	2983.89
670.31	2529.24
670.50	2306.01
670.68	2037.73
670.87	1927.14
671.06	1863.65
671.24	1849.32
671.43	1865.70
671.62	1675.24
671.80	1724.39
671.99	1703.91
672.18	1791.97
672.36	1763.30
672.55	1781.73
672.74	1779.68
672.92	1675.24
673.11	1662.95
673.29	1703.91
673.48	1789.92
673.67	1695.72
673.85	1804.26
674.04	1660.90
674.23	1812.45
674.41	1839.08
674.60	1632.23
674.79	1585.13
674.97	1642.47
675.16	1773.54
675.34	1789.92
675.53	1724.39
675.72	1671.14
675.90	1820.64
676.09	1667.05
676.28	1716.20
676.46	1724.39
676.65	1722.34
676.83	1634.28
677.02	1826.79
677.21	1796.07
677.39	1691.62
677.58	1677.29
677.77	1658.85
677.95	1701.86
678.14	1695.72
678.32	1654.76
678.51	1712.10
678.70	1871.84
678.88	1624.04
679.07	1787.88
679.25	1689.57
679.44	1730.53
679.63	1603.56
679.81	1812.45
680.00	1765.35
680.18	1839.08
680.37	1849.32
680.55	1701.86
680.74	1673.19
680.93	1603.56
681.11	1761.25
681.30	1740.77
681.48	1722.34
681.67	1699.81
681.85	1714.15
682.04	1695.72
682.23	1785.83
682.41	1705.96
682.60	1697.77
682.78	1646.57
682.97	1685.48
683.15	1746.92
683.34	1738.73
683.53	1902.56
683.71	1599.46
683.90	1791.97
684.08	1810.40
684.27	1718.25
684.45	1794.02
684.64	1798.12
684.82	1708.01
685.01	1732.58
685.19	1658.85
685.38	1861.60
685.57	1701.86
685.75	1642.47
685.94	1734.63
686.12	1699.81
686.31	1693.67
686.49	1732.58
686.68	1605.61
686.86	1812.45
687.05	1740.77
687.23	1757.16
687.42	1685.48
687.60	1611.75
687.79	1806.31
687.97	1736.68
688.16	1763.30
688.34	1742.82
688.53	1603.56
688.71	1693.67
688.90	1757.16
689.08	1679.33
689.27	1656.81
689.45	1730.53
689.64	1708.01
689.82	1732.58
690.01	1779.68
690.19	1746.92
690.38	1765.35
690.56	1798.12
690.75	1665.00
690.93	1708.01
691.12	1607.66
691.30	1701.86
691.49	1638.38
691.67	1705.96
691.86	1783.78
692.04	1660.90
692.23	1681.38
692.41	1734.63
692.60	1845.22
692.78	1757.16
692.97	1621.99
693.15	1769.44
693.34	1804.26
693.52	1779.68
693.71	1705.96
693.89	1679.33
694.08	1595.37
694.26	1810.40
694.44	1730.53
694.63	1753.06
694.81	1667.05
695.00	1665.00
695.18	1751.01
695.37	1808.36
695.55	1773.54
695.74	1734.63
695.92	1695.72
696.10	1779.68
696.29	1665.00
696.47	1589.22
696.66	1638.38
696.84	1638.38
697.03	1728.49
697.21	1871.84
697.40	2283.49
697.58	1773.54
697.76	1718.25
697.95	1646.57
698.13	1660.90
698.32	1687.53
698.50	1708.01
698.68	1734.63
698.87	1753.06
699.05	1832.93
699.24	1781.73
699.42	1683.43
699.61	1710.05
699.79	1732.58
699.97	1673.19
700.16	1652.71
700.34	1667.05
700.53	1771.49
700.71	1771.49
700.89	1775.59
701.08	1705.96
701.26	1736.68
701.45	2099.17
701.63	1665.00
701.81	1687.53
702.00	1703.91
702.18	1671.14
702.37	1703.91
702.55	1748.97
702.73	1710.05
702.92	1630.18
703.10	1730.53
703.28	1689.57
703.47	1710.05
703.65	1724.39
703.84	1771.49
704.02	1689.57
704.20	1765.35
704.39	1724.39
704.57	1660.90
704.75	1810.40
704.94	1734.63
705.12	1693.67
705.30	1724.39
705.49	2228.19
705.67	4511.68
705.86	9568.11
706.04	12705.60
706.22	14599.97
706.41	15720.21
706.59	13942.57
706.77	9807.72
706.96	7468.94
707.14	6530.97
707.32	6092.71
707.51	5615.53
707.69	4956.08
707.87	4327.36
708.06	3622.86
708.24	3037.14
708.42	2512.86
708.61	2267.10
708.79	1847.27
708.97	1914.85
709.16	1828.84
709.34	1779.68
709.52	1738.73
709.71	1703.91
709.89	1789.92
710.07	1634.28
710.26	1648.61
710.44	1658.85
710.62	1781.73
710.80	1755.11
710.99	1730.53
711.17	1796.07
711.35	1679.33
711.54	1685.48
711.72	1767.40
711.90	1775.59
712.09	1718.25
712.27	1710.05
712.45	1693.67
712.63	1710.05
712.82	1726.44
713.00	1693.67
713.18	1734.63
713.37	1755.11
713.55	1789.92
713.73	1673.19
713.91	1820.64
714.10	1734.63
714.28	1695.72
714.46	1738.73
714.65	1701.86
714.83	1710.05
715.01	1712.10
715.19	1611.75
715.38	1685.48
715.56	1781.73
715.74	1703.91
715.92	1669.09
716.11	1808.36
716.29	1591.27
716.47	1617.90
716.65	1667.05
716.84	1658.85
717.02	1708.01
717.20	1585.13
717.38	1689.57
717.57	1724.39
717.75	1646.57
717.93	1734.63
718.11	1734.63
718.30	1597.42
718.48	1710.05
718.66	1806.31
718.84	1753.06
719.03	1679.33
719.21	1693.67
719.39	1863.65
719.57	1808.36
719.75	1685.48
719.94	1699.81
720.12	1697.77
720.30	1615.85
720.48	1775.59
720.67	1611.75
720.85	1732.58
721.03	1673.19
721.21	1720.29
721.39	1730.53
721.58	1777.64
721.76	1742.82
721.94	1751.01
722.12	1658.85
722.30	1894.37
722.49	1681.38
722.67	1761.25
722.85	1687.53
723.03	1589.22
723.21	1667.05
723.40	1701.86
723.58	1746.92
723.76	1730.53
723.94	1681.38
724.12	1703.91
724.30	1718.25
724.49	1730.53
724.67	1644.52
724.85	1695.72
725.03	1705.96
725.21	1771.49
725.40	1730.53
725.58	1685.48
725.76	1724.39
725.94	1740.77
726.12	1675.24
726.30	1759.21
726.49	1699.81
726.67	1685.48
726.85	1726.44
727.03	1787.88
727.21	2136.03
727.39	3008.47
727.57	3889.09
727.76	4286.40
727.94	4648.89
728.12	4564.92
728.30	3723.21
728.48	2981.84
728.66	2742.23
728.84	2516.95
729.03	2330.59
729.21	2238.43
729.39	2041.82
729.57	1873.89
729.75	1806.31
729.93	1845.22
730.11	1769.44
730.30	1708.01
730.48	1720.29
730.66	1820.64
730.84	1828.84
731.02	1689.57
731.20	1675.24
731.38	1728.49
731.56	1632.23
731.74	1632.23
731.93	1712.10
732.11	1757.16
732.29	1728.49
732.47	1796.07
732.65	1783.78
732.83	1871.84
733.01	1742.82
733.19	1697.77
733.37	1746.92
733.56	1746.92
733.74	1689.57
733.92	1781.73
734.10	1642.47
734.28	1763.30
734.46	1667.05
734.64	1675.24
734.82	1693.67
735.00	1716.20
735.18	1718.25
735.36	1675.24
735.54	1748.97
735.73	1697.77
735.91	1755.11
736.09	1714.15
736.27	1691.62
736.45	1755.11
736.63	1564.65
736.81	1626.09
736.99	1816.55
737.17	1775.59
737.35	1648.61
737.53	1740.77
737.71	1720.29
737.89	1789.92
738.07	1648.61
738.25	1691.62
738.43	1595.37
738.61	1785.83
738.80	1609.70
738.98	1671.14
739.16	1656.81
739.34	1722.34
739.52	1724.39
739.70	1669.09
739.88	1701.86
740.06	1726.44
740.24	1634.28
740.42	1847.27
740.60	1652.71
740.78	1656.81
740.96	1660.90
741.14	1714.15
741.32	1742.82
741.50	1617.90
741.68	1884.13
741.86	1812.45
742.04	1673.19
742.22	1583.08
742.40	1679.33
742.58	1705.96
742.76	1673.19
742.94	1789.92
743.12	1558.50
743.30	1624.04
743.48	1656.81
743.66	1621.99
743.84	1789.92
744.02	1757.16
744.20	1730.53
744.38	1677.29
744.56	1763.30
744.74	1740.77
744.92	1744.87
745.10	1763.30
745.28	1718.25
745.46	1748.97
745.64	1699.81
745.82	1769.44
746.00	1662.95
746.18	1773.54
746.36	1708.01
746.54	1693.67
746.72	1685.48
746.90	1734.63
747.08	1775.59
747.26	1683.43
747.44	1755.11
747.62	1763.30
747.80	1777.64
747.98	1689.57
748.15	1767.40
748.33	1822.69
748.51	1656.81
748.69	1775.59
748.87	1724.39
749.05	1634.28
749.23	1691.62
749.41	1730.53
749.59	1765.35
749.77	1728.49
749.95	1669.09
750.13	1642.47
750.31	1759.21
750.49	1751.01
750.67	1710.05
750.85	1853.41
751.03	1714.15
751.20	1777.64
751.38	1734.63
751.56	1759.21
751.74	1732.58
751.92	1675.24
752.10	1667.05
752.28	1845.22
752.46	1615.85
752.64	1683.43
752.82	1667.05
753.00	1746.92
753.18	1691.62
753.35	1708.01
753.53	1687.53
753.71	1703.91
753.89	1695.72
754.07	1671.14
754.25	1697.77
754.43	1689.57
754.61	1683.43
754.79	1748.97
754.97	1705.96
755.14	1736.68
755.32	1648.61
755.50	1724.39
755.68	1740.77
755.86	1646.57
756.04	1615.85
756.22	1646.57
756.40	1763.30
756.57	1837.03
756.75	1607.66
756.93	1796.07
757.11	1730.53
757.29	1681.38
757.47	1673.19
757.65	1630.18
757.82	1644.52
758.00	1689.57
758.18	1730.53
758.36	1638.38
758.54	1808.36
758.72	1644.52
758.90	1712.10
759.07	1783.78
759.25	1660.90
759.43	1744.87
759.61	1660.90
759.79	2183.13
759.97	1794.02
760.15	1673.19
760.32	1685.48
760.50	1748.97
760.68	1761.25
760.86	1640.42
761.04	1798.12
761.22	1769.44
761.39	1665.00
761.57	1732.58
761.75	1722.34
761.93	1699.81
762.11	1638.38
762.28	1693.67
762.46	1621.99
762.64	1726.44
762.82	1691.62
763.00	1763.30
763.18	1783.78
763.35	1669.09
763.53	1814.50
763.71	1662.95
763.89	1671.14
764.07	1740.77
764.24	1773.54
764.42	1771.49
764.60	1716.20
764.78	1703.91
764.96	1740.77
765.13	1740.77
765.31	1748.97
765.49	1744.87
765.67	1601.51
765.84	1730.53
766.02	1667.05
766.20	1669.09
766.38	1722.34
766.56	1699.81
766.73	1824.74
766.91	1757.16
767.09	1683.43
767.27	1732.58
767.44	1687.53
767.62	1705.96
767.80	1720.29
767.98	1683.43
768.15	1699.81
768.33	1765.35
768.51	1722.34
768.69	1759.21
768.87	1697.77
769.04	1671.14
769.22	1869.80
769.40	1746.92
769.58	1890.28
769.75	1783.78
769.93	1820.64
770.11	1632.23
770.28	1681.38
770.46	1744.87
770.64	1732.58
770.82	1751.01
770.99	1759.21
771.17	1738.73
771.35	1689.57
771.53	1630.18
771.70	1654.76
771.88	1691.62
772.06	1740.77
772.23	1683.43
772.41	1726.44
772.59	1628.14
772.77	1701.86
772.94	1656.81
773.12	1708.01
773.30	1685.48
773.47	1730.53
773.65	1656.81
773.83	1748.97
774.01	1695.72
774.18	1656.81
774.36	1630.18
774.54	1675.24
774.71	1679.33
774.89	1642.47
775.07	1693.67
775.24	1634.28
775.42	1626.09
775.60	1791.97
775.78	1687.53
775.95	1679.33
776.13	1679.33
776.31	1603.56
776.48	1728.49
776.66	1757.16
776.84	1673.19
777.01	1662.95
777.19	1636.33
777.37	1644.52
777.54	1693.67
777.72	1841.12
777.90	1716.20
778.07	1642.47
778.25	1845.22
778.43	1806.31
778.60	1720.29
778.78	1761.25
778.96	1724.39
779.13	1593.32
779.31	1691.62
779.49	1656.81
779.66	1761.25
779.84	1650.66
780.01	1681.38
780.19	1712.10
780.37	1724.39
780.54	1740.77
780.72	1699.81
780.90	1646.57
781.07	1785.83
781.25	1697.77
781.43	1746.92
781.60	1685.48
781.78	1818.60
781.95	1722.34
782.13	1615.85
782.31	1699.81
782.48	1570.79
782.66	1695.72
782.83	1894.37
783.01	1732.58
783.19	1718.25
783.36	1697.77
783.54	1626.09
783.72	1701.86
783.89	1640.42
784.07	1736.68
784.24	1794.02
784.42	1861.60
784.60	1777.64
784.77	1751.01
784.95	1626.09
785.12	1615.85
785.30	1755.11
785.47	1675.24
785.65	1628.14
785.83	1697.77
786.00	1673.19
786.18	1669.09
786.35	1662.95
786.53	1574.89
786.71	1708.01
786.88	1722.34
787.06	1734.63
787.23	1728.49
787.41	1693.67
787.58	1669.09
787.76	1697.77
787.94	1691.62
788.11	1748.97
788.29	1685.48
788.46	1654.76
788.64	1691.62
788.81	1638.38
788.99	1732.58
789.16	1599.46
789.34	1730.53
789.52	1695.72
789.69	1624.04
789.87	1613.80
790.04	1753.06
790.22	1660.90
790.39	1779.68
790.57	1667.05
790.74	1640.42
790.92	1787.88
791.09	1660.90
791.27	1667.05
791.44	1812.45
791.62	1730.53
791.79	1697.77
791.97	1705.96
792.15	1880.04
792.32	1675.24
792.50	1730.53
792.67	1763.30
792.85	1781.73
793.02	1665.00
793.20	1687.53
793.37	1705.96
793.55	1712.10
793.72	1667.05
793.90	1687.53
794.07	1683.43
794.25	1681.38
794.42	1671.14
794.60	1697.77
794.77	1675.24
794.95	1710.05
795.12	1779.68
795.30	1683.43
795.47	1665.00
795.65	1834.98
795.82	1763.30
796.00	1636.33
796.17	1718.25
796.34	1726.44
796.52	1808.36
796.69	1779.68
796.87	1718.25
797.04	1716.20
797.22	1798.12
797.39	1712.10
797.57	1693.67
797.74	1734.63
797.92	1642.47
798.09	1738.73
798.27	1751.01
798.44	1751.01
798.62	1703.91
798.79	1732.58
798.96	1718.25
799.14	1751.01
799.31	1839.08
799.49	1691.62
799.66	1665.00
799.84	1705.96
800.01	1621.99
800.19	1730.53
800.36	1665.00
800.53	1765.35
800.71	1724.39
800.88	1812.45
801.06	1591.27
801.23	1738.73
801.41	1587.18
801.58	1640.42
801.75	1708.01
801.93	1714.15
802.10	1728.49
802.28	1644.52
802.45	1681.38
802.63	1726.44
802.80	1814.50
802.97	1652.71
803.15	1720.29
803.32	1722.34
803.50	1681.38
803.67	1654.76
803.84	1621.99
804.02	1759.21
804.19	1685.48
804.37	1665.00
804.54	1652.71
804.71	1701.86
804.89	1748.97
805.06	1677.29
805.24	1675.24
805.41	1648.61
805.58	1650.66
805.76	1912.80
805.93	1703.91
806.10	1796.07
806.28	1755.11
806.45	1738.73
806.63	1681.38
806.80	1816.55
806.97	1701.86
807.15	1742.82
807.32	1769.44
807.49	1708.01
807.67	1609.70
807.84	1738.73
808.01	1615.85
808.19	1785.83
808.36	1896.42
808.54	1650.66
808.71	1654.76
808.88	1736.68
809.06	1691.62
809.23	1808.36
809.40	1673.19
809.58	1757.16
809.75	1726.44
809.92	1642.47
810.10	1828.84
810.27	1734.63
810.44	1769.44
810.62	1787.88
810.79	1755.11
810.96	1720.29
811.14	1728.49
811.31	1734.63
811.48	1787.88
811.66	1705.96
811.83	1751.01
812.00	1716.20
812.18	1763.30
812.35	1826.79
812.52	1697.77
812.69	1673.19
812.87	1681.38
813.04	1669.09
813.21	1705.96
813.39	1658.85
813.56	1652.71
813.73	1787.88
813.91	1570.79
814.08	1761.25
814.25	1724.39
814.42	1720.29
814.60	1693.67
814.77	1658.85
814.94	1703.91
815.12	1599.46
815.29	1746.92
815.46	1636.33
815.63	1708.01
815.81	1648.61
815.98	1748.97
816.15	1671.14
816.33	1724.39
816.50	1677.29
816.67	1699.81
816.84	1701.86
817.02	1607.66
817.19	1726.44
817.36	1656.81
817.53	1710.05
817.71	1669.09
817.88	1712.10
818.05	1724.39
818.22	1660.90
818.40	1845.22
818.57	1624.04
818.74	1724.39
818.91	1740.77
819.09	1730.53
819.26	1789.92
819.43	1660.90
819.60	1734.63
819.78	1751.01
819.95	1785.83
820.12	1667.05
820.29	1771.49
820.47	1718.25
820.64	1665.00
820.81	1628.14
820.98	1626.09
821.15	1615.85
821.33	1746.92
821.50	1544.17
821.67	1724.39
821.84	1695.72
822.02	1740.77
822.19	1804.26
822.36	1720.29
822.53	1730.53
822.70	1591.27
822.88	1718.25
823.05	1777.64
823.22	1791.97
823.39	1712.10
823.56	1746.92
823.74	1708.01
823.91	1673.19
824.08	1691.62
824.25	1603.56
824.42	1808.36
824.60	1677.29
824.77	1730.53
824.94	1695.72
825.11	1697.77
825.28	1568.74
825.45	1716.20
825.63	1767.40
825.80	1685.48
825.97	1748.97
826.14	1740.77
826.31	1556.46
826.48	1734.63
826.66	1671.14
826.83	1712.10
827.00	1751.01
827.17	1685.48
827.34	1681.38
827.51	1744.87
827.69	1744.87
827.86	1673.19
828.03	1730.53
828.20	1734.63
828.37	1693.67
828.54	1769.44
828.71	1722.34
828.89	1730.53
829.06	1740.77
829.23	1751.01
829.40	1693.67
829.57	1609.70
829.74	1656.81
829.91	1718.25
830.09	1587.18
830.26	1724.39
830.43	1738.73
830.60	1708.01
830.77	1697.77
830.94	1796.07
831.11	1777.64
831.28	1681.38
831.46	1761.25
831.63	1693.67
831.80	1757.16
831.97	1640.42
832.14	1632.23
832.31	1751.01
832.48	1669.09
832.65	1810.40
832.82	1708.01
832.99	1718.25
833.17	1667.05
833.34	1802.21
833.51	1763.30
833.68	1599.46
833.85	1877.99
834.02	1683.43
834.19	1628.14
834.36	1667.05
834.53	1648.61
834.70	1785.83
834.87	1703.91
835.04	1640.42
835.22	1660.90
835.39	1771.49
835.56	1673.19
835.73	1654.76
835.90	1689.57
836.07	1697.77
836.24	1681.38
836.41	1652.71
836.58	1665.00
836.75	1765.35
836.92	1773.54
837.09	1654.76
837.26	1763.30
837.43	1681.38
837.60	1734.63
837.77	1669.09
837.94	1732.58
838.12	1765.35
838.29	1783.78
838.46	1626.09
838.63	1650.66
838.80	1898.47
838.97	1808.36
839.14	1763.30
839.31	1671.14
839.48	1726.44
839.65	1648.61
839.82	1779.68
839.99	1683.43
840.16	1652.71
840.33	1630.18
840.50	1714.15
840.67	1587.18
840.84	1576.94
841.01	1730.53
841.18	1673.19
841.35	1638.38
841.52	1798.12
841.69	1736.68
841.86	1732.58
842.03	1722.34
842.20	1759.21
842.37	1734.63
842.54	1701.86
842.71	1740.77
842.88	1626.09
843.05	1767.40
843.22	1710.05
843.39	1730.53
843.56	1654.76
843.73	1681.38
843.90	1691.62
844.07	1673.19
844.24	1767.40
844.41	1824.74
844.58	1701.86
844.75	1677.29
844.92	1714.15
845.09	1703.91
845.26	1648.61
845.43	1744.87
845.60	1675.24
845.77	1748.97
845.94	1714.15
846.10	1740.77
846.27	1656.81
846.44	1714.15
846.61	1615.85
846.78	1687.53
846.95	1710.05
847.12	1685.48
847.29	1667.05
847.46	1689.57
847.63	1726.44
847.80	1671.14
847.97	1673.19
848.14	1834.98
848.31	1667.05
848.48	1638.38
848.65	1708.01
848.82	1671.14
848.98	1804.26
849.15	1722.34
849.32	1759.21
849.49	1771.49
849.66	1638.38
849.83	1701.86
850.00	1679.33
850.17	1757.16
850.34	1648.61
850.51	1689.57
850.68	1740.77
850.85	1806.31
851.01	1746.92
851.18	1673.19
851.35	1712.10
851.52	1638.38
851.69	1826.79
851.86	1581.03
852.03	1726.44
852.20	1689.57
852.37	1742.82
852.53	1628.14
852.70	1671.14
852.87	1732.58
853.04	1722.34
853.21	1771.49
853.38	1744.87
853.55	1748.97
853.72	1816.55
853.89	1714.15
854.05	1685.48
854.22	1740.77
854.39	1675.24
854.56	1751.01
854.73	1732.58
854.90	1562.60
855.07	1673.19
855.23	1697.77
855.40	1748.97
855.57	1685.48
855.74	1654.76
855.91	1884.13
856.08	1730.53
856.25	1648.61
856.41	1658.85
856.58	1687.53
856.75	1779.68
856.92	1683.43
857.09	1812.45
857.26	1570.79
857.42	1683.43
857.59	1730.53
857.76	1697.77
857.93	1689.57
858.10	1714.15
858.27	1624.04
858.43	1765.35
858.60	1677.29
858.77	1665.00
858.94	1669.09
859.11	1787.88
859.27	1673.19
859.44	1652.71
859.61	1849.32
859.78	1685.48
859.95	1681.38
860.12	1626.09
860.28	1830.88
860.45	1761.25
860.62	1673.19
860.79	1656.81
860.95	1722.34
861.12	1685.48
861.29	1685.48
861.46	1665.00
861.63	1701.86
861.79	1699.81
861.96	1644.52
862.13	1660.90
862.30	1824.74
862.47	1681.38
862.63	1632.23
862.80	1720.29
862.97	1789.92
863.14	1769.44
863.30	1746.92
863.47	1705.96
863.64	1845.22
863.81	1796.07
863.97	1621.99
864.14	1667.05
864.31	1695.72
864.48	1705.96
864.65	1665.00
864.81	1697.77
864.98	1665.00
865.15	1771.49
865.32	1759.21
865.48	1773.54
865.65	1791.97
865.82	1611.75
865.98	1753.06
866.15	1787.88
866.32	1693.67
866.49	1722.34
866.65	1755.11
866.82	1677.29
866.99	1734.63
867.16	1644.52
867.32	1716.20
867.49	1671.14
867.66	1732.58
867.83	1730.53
867.99	1638.38
868.16	1642.47
868.33	1621.99
868.49	1726.44
868.66	1656.81
868.83	1779.68
868.99	1634.28
869.16	1665.00
869.33	1816.55
869.50	1802.21
869.66	1673.19
869.83	1742.82
870.00	1624.04
870.16	1783.78
870.33	1736.68
870.50	1753.06
870.66	1701.86
870.83	1820.64
871.00	1724.39
871.17	1734.63
871.33	1720.29
871.50	1660.90
871.67	1718.25
871.83	1519.59
872.00	1796.07
872.17	1710.05
872.33	1746.92
872.50	1773.54
872.67	1677.29
872.83	1740.77
873.00	1736.68
873.17	1710.05
873.33	1775.59
873.50	1748.97
873.67	1724.39
873.83	1708.01
874.00	1673.19
874.16	1722.34
874.33	1687.53
874.50	1665.00
874.66	1730.53
874.83	1748.97
875.00	1748.97
875.16	1789.92
875.33	1761.25
875.50	1630.18
875.66	1660.90
875.83	1607.66
875.99	1716.20
876.16	1705.96
876.33	1691.62
876.49	1636.33
876.66	1681.38
876.83	1701.86
876.99	1619.94
877.16	1685.48
877.32	1603.56
877.49	1634.28
877.66	1757.16
877.82	1742.82
877.99	1683.43
878.15	1746.92
878.32	1624.04
878.49	1607.66
878.65	1701.86
878.82	1785.83
878.98	1681.38
879.15	1753.06
879.32	1703.91
879.48	1751.01
879.65	1710.05
879.81	1677.29
879.98	1636.33
880.15	1697.77
880.31	1708.01
880.48	1642.47
880.64	1812.45
880.81	1685.48
880.97	1781.73
881.14	1779.68
881.31	1605.61
881.47	1810.40
881.64	1705.96
881.80	1671.14
881.97	1730.53
882.13	1753.06
882.30	1638.38
882.47	1697.77
882.63	1701.86
882.80	1642.47
882.96	1693.67
883.13	1787.88
883.29	1624.04
883.46	1800.16
883.62	1820.64
883.79	1728.49
883.95	1755.11
884.12	1773.54
884.29	1742.82
884.45	1685.48
884.62	1796.07
884.78	1656.81
884.95	1767.40
885.11	1585.13
885.28	1701.86
885.44	1660.90
885.61	1687.53
885.77	1783.78
885.94	1677.29
886.10	1771.49
886.27	1751.01
886.43	1834.98
886.60	1771.49
886.76	1722.34
886.93	1699.81
887.09	1656.81
887.26	1681.38
887.42	1718.25
887.59	1781.73
887.75	1875.94
887.92	1843.17
888.08	1771.49
888.25	1802.21
888.41	1724.39
888.58	1703.91
888.74	1669.09
888.91	1671.14
>>>>>End Processed Spectral Data<<<<<
