SpectraSuite Data File
++++++++++++++++++++++++++++++++++++
Date: Mon Jun 06 15:16:17 CEST 2016
User: root
Dark Spectrum Present: No
Reference Spectrum Present: No
Number of Sampled Component Spectra: 1
Spectrometers: USB4C02835
Integration Time (usec): 100000 (USB4C02835)
Spectra Averaged: 1 (USB4C02835)
Boxcar Smoothing: 0 (USB4C02835)
Correct for Electrical Dark: No (USB4C02835)
Strobe/Lamp Enabled: No (USB4C02835)
Correct for Detector Non-linearity: No (USB4C02835)
Correct for Stray Light: No (USB4C02835)
Number of Pixels in Processed Spectrum: 3648
>>>>>Begin Processed Spectral Data<<<<<
177.47	1492.97
177.69	1492.97
177.91	1492.97
178.13	1509.35
178.36	1445.87
178.58	1630.18
178.80	1718.25
179.02	1646.57
179.24	1679.33
179.46	1626.09
179.68	1734.63
179.90	1710.05
180.13	1689.57
180.35	1656.81
180.57	1734.63
180.79	1773.54
181.01	1683.43
181.23	1734.63
181.45	1812.45
181.67	1769.44
181.90	1808.36
182.12	1673.19
182.34	1652.71
182.56	1728.49
182.78	1791.97
183.00	1669.09
183.22	1714.15
183.44	1611.75
183.66	1818.60
183.89	1783.78
184.11	1679.33
184.33	1679.33
184.55	1753.06
184.77	1660.90
184.99	1708.01
185.21	1679.33
185.43	1820.64
185.65	1673.19
185.87	1720.29
186.10	1791.97
186.32	1779.68
186.54	1697.77
186.76	1765.35
186.98	1769.44
187.20	1718.25
187.42	1648.61
187.64	1708.01
187.86	1748.97
188.08	1767.40
188.30	1714.15
188.52	1728.49
188.75	1771.49
188.97	1779.68
189.19	1630.18
189.41	1648.61
189.63	1753.06
189.85	1685.48
190.07	1632.23
190.29	1652.71
190.51	1677.29
190.73	1640.42
190.95	1810.40
191.17	1693.67
191.39	1611.75
191.61	1697.77
191.84	1746.92
192.06	1742.82
192.28	1683.43
192.50	1890.28
192.72	1718.25
192.94	1673.19
193.16	1746.92
193.38	1714.15
193.60	1710.05
193.82	1689.57
194.04	1755.11
194.26	1734.63
194.48	1679.33
194.70	1714.15
194.92	1644.52
195.14	1718.25
195.36	1638.38
195.58	1732.58
195.80	1621.99
196.02	1710.05
196.24	1759.21
196.46	1705.96
196.69	1656.81
196.91	1902.56
197.13	1656.81
197.35	1650.66
197.57	1798.12
197.79	1740.77
198.01	1724.39
198.23	1710.05
198.45	1771.49
198.67	1632.23
198.89	1624.04
199.11	1708.01
199.33	1724.39
199.55	1581.03
199.77	1720.29
199.99	1689.57
200.21	1730.53
200.43	1646.57
200.65	1691.62
200.87	1660.90
201.09	1650.66
201.31	1691.62
201.53	1748.97
201.75	1744.87
201.97	1665.00
202.19	1693.67
202.41	1716.20
202.63	1839.08
202.85	1787.88
203.07	1722.34
203.29	1730.53
203.51	1697.77
203.73	1650.66
203.95	1906.66
204.17	1693.67
204.39	1751.01
204.61	1630.18
204.83	1619.94
205.05	1777.64
205.27	1689.57
205.49	1898.47
205.71	1656.81
205.93	1578.98
206.15	1681.38
206.37	1689.57
206.59	1665.00
206.81	1714.15
207.03	1613.80
207.25	1714.15
207.47	1716.20
207.69	1644.52
207.91	1843.17
208.13	1697.77
208.34	1671.14
208.56	1685.48
208.78	1724.39
209.00	1679.33
209.22	1699.81
209.44	1699.81
209.66	1681.38
209.88	1777.64
210.10	1699.81
210.32	1656.81
210.54	1783.78
210.76	1765.35
210.98	1759.21
211.20	1540.07
211.42	1710.05
211.64	1814.50
211.86	1738.73
212.08	1771.49
212.30	1693.67
212.52	1708.01
212.74	1699.81
212.96	1699.81
213.17	1783.78
213.39	1751.01
213.61	1763.30
213.83	1726.44
214.05	1630.18
214.27	1765.35
214.49	1660.90
214.71	1705.96
214.93	1777.64
215.15	1703.91
215.37	1812.45
215.59	1652.71
215.81	1652.71
216.03	1755.11
216.24	1656.81
216.46	1720.29
216.68	1675.24
216.90	1796.07
217.12	1726.44
217.34	1736.68
217.56	1716.20
217.78	1759.21
218.00	1769.44
218.22	1654.76
218.44	1753.06
218.66	1695.72
218.87	1779.68
219.09	1658.85
219.31	1689.57
219.53	1755.11
219.75	1708.01
219.97	1671.14
220.19	1683.43
220.41	1685.48
220.63	1806.31
220.85	1736.68
221.06	1722.34
221.28	1783.78
221.50	1755.11
221.72	1638.38
221.94	1757.16
222.16	1679.33
222.38	1771.49
222.60	1736.68
222.82	1669.09
223.03	1757.16
223.25	1689.57
223.47	1728.49
223.69	1810.40
223.91	1662.95
224.13	1652.71
224.35	1626.09
224.57	1665.00
224.78	1705.96
225.00	1761.25
225.22	1708.01
225.44	1751.01
225.66	1759.21
225.88	1732.58
226.10	1796.07
226.32	1714.15
226.53	1724.39
226.75	1693.67
226.97	1679.33
227.19	1705.96
227.41	1681.38
227.63	1593.32
227.85	1597.42
228.06	1726.44
228.28	1738.73
228.50	1806.31
228.72	1753.06
228.94	1697.77
229.16	1693.67
229.37	1744.87
229.59	1626.09
229.81	1759.21
230.03	1722.34
230.25	1667.05
230.47	1705.96
230.69	1658.85
230.90	1759.21
231.12	1669.09
231.34	1751.01
231.56	1751.01
231.78	1656.81
232.00	1658.85
232.21	1722.34
232.43	1730.53
232.65	1593.32
232.87	1701.86
233.09	1638.38
233.30	1667.05
233.52	1726.44
233.74	1730.53
233.96	1648.61
234.18	1730.53
234.40	1708.01
234.61	1863.65
234.83	1654.76
235.05	1662.95
235.27	1894.37
235.49	1824.74
235.70	1761.25
235.92	1808.36
236.14	1736.68
236.36	1935.33
236.58	1634.28
236.79	1744.87
237.01	1681.38
237.23	1728.49
237.45	1787.88
237.67	1681.38
237.88	1718.25
238.10	1771.49
238.32	1710.05
238.54	1746.92
238.76	1701.86
238.97	1708.01
239.19	1615.85
239.41	1798.12
239.63	1738.73
239.85	1718.25
240.06	1656.81
240.28	1650.66
240.50	1783.78
240.72	1763.30
240.93	1683.43
241.15	1740.77
241.37	1716.20
241.59	1759.21
241.81	1744.87
242.02	1624.04
242.24	1787.88
242.46	1824.74
242.68	1757.16
242.89	1705.96
243.11	1808.36
243.33	1675.24
243.55	1734.63
243.76	1703.91
243.98	1648.61
244.20	1722.34
244.42	1714.15
244.64	1638.38
244.85	1609.70
245.07	1669.09
245.29	1736.68
245.51	1705.96
245.72	1732.58
245.94	1773.54
246.16	1718.25
246.38	1787.88
246.59	1636.33
246.81	1656.81
247.03	1646.57
247.24	1654.76
247.46	1728.49
247.68	1701.86
247.90	1691.62
248.11	1705.96
248.33	1818.60
248.55	1654.76
248.77	1624.04
248.98	1714.15
249.20	1816.55
249.42	1703.91
249.64	1669.09
249.85	1660.90
250.07	1671.14
250.29	1740.77
250.50	1767.40
250.72	1687.53
250.94	1810.40
251.16	1816.55
251.37	1716.20
251.59	1757.16
251.81	1693.67
252.02	1730.53
252.24	1677.29
252.46	1775.59
252.68	1621.99
252.89	1697.77
253.11	1671.14
253.33	1744.87
253.54	1751.01
253.76	1689.57
253.98	1705.96
254.20	1681.38
254.41	1724.39
254.63	1728.49
254.85	1605.61
255.06	1763.30
255.28	1730.53
255.50	1695.72
255.71	1648.61
255.93	1538.02
256.15	1775.59
256.36	1746.92
256.58	1683.43
256.80	1660.90
257.02	1726.44
257.23	1675.24
257.45	1689.57
257.67	1798.12
257.88	1591.27
258.10	1710.05
258.32	1734.63
258.53	1761.25
258.75	1781.73
258.97	1679.33
259.18	1685.48
259.40	1689.57
259.62	1814.50
259.83	1824.74
260.05	1746.92
260.27	1884.13
260.48	1808.36
260.70	1638.38
260.92	1681.38
261.13	1744.87
261.35	1716.20
261.57	1740.77
261.78	1605.61
262.00	1621.99
262.22	1675.24
262.43	1691.62
262.65	1732.58
262.86	1648.61
263.08	1777.64
263.30	1748.97
263.51	1648.61
263.73	1697.77
263.95	1710.05
264.16	1662.95
264.38	1708.01
264.60	1685.48
264.81	1730.53
265.03	1763.30
265.25	1773.54
265.46	1681.38
265.68	1812.45
265.89	1753.06
266.11	1607.66
266.33	1779.68
266.54	1716.20
266.76	1710.05
266.98	1740.77
267.19	1716.20
267.41	1714.15
267.62	1748.97
267.84	1654.76
268.06	1746.92
268.27	1697.77
268.49	1705.96
268.70	1781.73
268.92	1740.77
269.14	1617.90
269.35	1742.82
269.57	1718.25
269.79	1726.44
270.00	1634.28
270.22	1888.23
270.43	1552.36
270.65	1605.61
270.87	1646.57
271.08	1777.64
271.30	1767.40
271.51	1712.10
271.73	1738.73
271.95	1738.73
272.16	1781.73
272.38	1753.06
272.59	1697.77
272.81	1789.92
273.02	1736.68
273.24	1765.35
273.46	1722.34
273.67	1591.27
273.89	1638.38
274.10	1599.46
274.32	1767.40
274.54	1734.63
274.75	1796.07
274.97	1630.18
275.18	1787.88
275.40	1699.81
275.61	1673.19
275.83	1771.49
276.05	1705.96
276.26	1714.15
276.48	1755.11
276.69	1665.00
276.91	1665.00
277.12	1771.49
277.34	1748.97
277.55	1763.30
277.77	1712.10
277.99	1712.10
278.20	1642.47
278.42	1540.07
278.63	1685.48
278.85	1638.38
279.06	1701.86
279.28	1744.87
279.49	1787.88
279.71	1796.07
279.93	1810.40
280.14	1689.57
280.36	1681.38
280.57	1751.01
280.79	1699.81
281.00	1669.09
281.22	1665.00
281.43	1808.36
281.65	1589.22
281.86	1595.37
282.08	1636.33
282.29	1796.07
282.51	1619.94
282.73	1638.38
282.94	1675.24
283.16	1748.97
283.37	1806.31
283.59	1685.48
283.80	1761.25
284.02	1714.15
284.23	1728.49
284.45	1628.14
284.66	1564.65
284.88	1677.29
285.09	1769.44
285.31	1726.44
285.52	1708.01
285.74	1615.85
285.95	1771.49
286.17	1777.64
286.38	1753.06
286.60	1691.62
286.81	1705.96
287.03	1671.14
287.24	1796.07
287.46	1675.24
287.67	1705.96
287.89	1841.12
288.10	1703.91
288.32	1636.33
288.53	1822.69
288.75	1710.05
288.96	1771.49
289.18	1683.43
289.39	1689.57
289.61	1681.38
289.82	1875.94
290.04	1853.41
290.25	1673.19
290.47	1708.01
290.68	1675.24
290.90	1785.83
291.11	1546.22
291.33	1853.41
291.54	1726.44
291.76	1628.14
291.97	1693.67
292.18	1734.63
292.40	1667.05
292.61	1683.43
292.83	1871.84
293.04	1685.48
293.26	1761.25
293.47	1699.81
293.69	1628.14
293.90	1681.38
294.12	1757.16
294.33	1656.81
294.55	1683.43
294.76	1724.39
294.97	1726.44
295.19	1851.36
295.40	1755.11
295.62	1695.72
295.83	1757.16
296.05	1662.95
296.26	1757.16
296.48	1648.61
296.69	1624.04
296.90	1726.44
297.12	1755.11
297.33	1820.64
297.55	1728.49
297.76	1730.53
297.98	1837.03
298.19	1712.10
298.41	1705.96
298.62	1656.81
298.83	1822.69
299.05	1718.25
299.26	1601.51
299.48	1687.53
299.69	1671.14
299.90	1697.77
300.12	1677.29
300.33	1765.35
300.55	1677.29
300.76	1718.25
300.98	1671.14
301.19	1744.87
301.40	1656.81
301.62	1656.81
301.83	1730.53
302.05	1726.44
302.26	1677.29
302.47	1660.90
302.69	1685.48
302.90	1667.05
303.12	1626.09
303.33	1744.87
303.54	1753.06
303.76	1640.42
303.97	1800.16
304.19	1796.07
304.40	1683.43
304.61	1794.02
304.83	1871.84
305.04	1806.31
305.26	1814.50
305.47	1611.75
305.68	1681.38
305.90	1697.77
306.11	1732.58
306.33	1734.63
306.54	1673.19
306.75	1619.94
306.97	1634.28
307.18	1746.92
307.39	1671.14
307.61	1701.86
307.82	1705.96
308.04	1765.35
308.25	1710.05
308.46	1722.34
308.68	1701.86
308.89	1730.53
309.10	1767.40
309.32	1716.20
309.53	1681.38
309.74	1646.57
309.96	1667.05
310.17	1718.25
310.39	1699.81
310.60	1697.77
310.81	1730.53
311.03	1568.74
311.24	1785.83
311.45	1638.38
311.67	1867.75
311.88	1681.38
312.09	1613.80
312.31	1693.67
312.52	1673.19
312.73	1761.25
312.95	1640.42
313.16	1662.95
313.37	1855.46
313.59	1800.16
313.80	1738.73
314.01	1869.80
314.23	1736.68
314.44	1714.15
314.65	1615.85
314.87	1632.23
315.08	1714.15
315.29	1646.57
315.51	1665.00
315.72	1665.00
315.93	1900.52
316.15	1804.26
316.36	1685.48
316.57	1777.64
316.79	1789.92
317.00	1781.73
317.21	1816.55
317.43	1624.04
317.64	1671.14
317.85	1714.15
318.07	1714.15
318.28	1730.53
318.49	1765.35
318.70	1972.19
318.92	1832.93
319.13	1861.60
319.34	1910.75
319.56	1828.84
319.77	1751.01
319.98	1837.03
320.20	1757.16
320.41	1789.92
320.62	1695.72
320.83	1619.94
321.05	1843.17
321.26	1740.77
321.47	1689.57
321.69	1849.32
321.90	1687.53
322.11	1732.58
322.32	1697.77
322.54	1832.93
322.75	1673.19
322.96	1843.17
323.18	1589.22
323.39	1564.65
323.60	1636.33
323.81	1794.02
324.03	1656.81
324.24	1689.57
324.45	1722.34
324.66	1705.96
324.88	1716.20
325.09	1798.12
325.30	1697.77
325.52	1738.73
325.73	1810.40
325.94	1714.15
326.15	1697.77
326.37	1685.48
326.58	1804.26
326.79	1761.25
327.00	1669.09
327.22	1693.67
327.43	1675.24
327.64	1656.81
327.85	1673.19
328.07	1771.49
328.28	1759.21
328.49	1632.23
328.70	1746.92
328.92	1703.91
329.13	1734.63
329.34	1714.15
329.55	1771.49
329.76	1767.40
329.98	1652.71
330.19	1791.97
330.40	1761.25
330.61	1732.58
330.83	1787.88
331.04	1665.00
331.25	1714.15
331.46	1689.57
331.68	1644.52
331.89	1755.11
332.10	1746.92
332.31	1652.71
332.52	1710.05
332.74	1740.77
332.95	1646.57
333.16	1697.77
333.37	1662.95
333.58	1724.39
333.80	1761.25
334.01	1591.27
334.22	1632.23
334.43	1681.38
334.64	1699.81
334.86	1712.10
335.07	1656.81
335.28	1740.77
335.49	1591.27
335.70	1687.53
335.92	1732.58
336.13	1873.89
336.34	1697.77
336.55	1697.77
336.76	1726.44
336.98	1591.27
337.19	1730.53
337.40	1867.75
337.61	1855.46
337.82	1687.53
338.04	1822.69
338.25	1607.66
338.46	1683.43
338.67	1638.38
338.88	1603.56
339.09	1624.04
339.31	1730.53
339.52	1607.66
339.73	1683.43
339.94	1632.23
340.15	1744.87
340.36	1697.77
340.58	1677.29
340.79	1689.57
341.00	1728.49
341.21	1650.66
341.42	1791.97
341.63	1736.68
341.85	1755.11
342.06	1697.77
342.27	1640.42
342.48	1738.73
342.69	1617.90
342.90	1726.44
343.12	1777.64
343.33	1708.01
343.54	1693.67
343.75	1753.06
343.96	1687.53
344.17	1662.95
344.38	1697.77
344.60	1648.61
344.81	1728.49
345.02	1658.85
345.23	1746.92
345.44	1787.88
345.65	1818.60
345.86	1695.72
346.07	1660.90
346.29	1667.05
346.50	1726.44
346.71	1746.92
346.92	1812.45
347.13	1847.27
347.34	1710.05
347.55	1714.15
347.76	1677.29
347.98	1632.23
348.19	1691.62
348.40	1832.93
348.61	1644.52
348.82	1769.44
349.03	1796.07
349.24	1632.23
349.45	1769.44
349.66	1630.18
349.88	1718.25
350.09	1642.47
350.30	1771.49
350.51	1800.16
350.72	1732.58
350.93	1744.87
351.14	1624.04
351.35	1722.34
351.56	1667.05
351.77	1757.16
351.99	1767.40
352.20	1763.30
352.41	1773.54
352.62	1603.56
352.83	1722.34
353.04	1675.24
353.25	1722.34
353.46	1779.68
353.67	1755.11
353.88	1572.84
354.09	1751.01
354.30	1724.39
354.52	1744.87
354.73	1689.57
354.94	1607.66
355.15	1722.34
355.36	1726.44
355.57	1841.12
355.78	1748.97
355.99	1632.23
356.20	1652.71
356.41	1787.88
356.62	1732.58
356.83	1656.81
357.04	1783.78
357.25	1601.51
357.46	1675.24
357.68	1652.71
357.89	1685.48
358.10	1722.34
358.31	1765.35
358.52	1638.38
358.73	1619.94
358.94	1710.05
359.15	1650.66
359.36	1691.62
359.57	1675.24
359.78	1695.72
359.99	1761.25
360.20	1605.61
360.41	1697.77
360.62	1763.30
360.83	1718.25
361.04	1703.91
361.25	1759.21
361.46	1767.40
361.67	1730.53
361.88	1755.11
362.09	1734.63
362.30	1687.53
362.51	1617.90
362.72	1697.77
362.93	1771.49
363.14	1703.91
363.35	1683.43
363.56	1587.18
363.78	1757.16
363.99	1761.25
364.20	1708.01
364.41	1697.77
364.62	1873.89
364.83	1785.83
365.04	1646.57
365.25	1746.92
365.46	1822.69
365.67	1671.14
365.88	1689.57
366.09	1681.38
366.30	1656.81
366.51	1748.97
366.72	1689.57
366.93	1730.53
367.14	1722.34
367.35	1728.49
367.56	1769.44
367.77	1828.84
367.98	1677.29
368.18	1732.58
368.39	1710.05
368.60	1671.14
368.81	1796.07
369.02	1736.68
369.23	1693.67
369.44	1650.66
369.65	1681.38
369.86	1722.34
370.07	1804.26
370.28	1654.76
370.49	1744.87
370.70	1771.49
370.91	1689.57
371.12	1738.73
371.33	1867.75
371.54	1691.62
371.75	1779.68
371.96	1603.56
372.17	1769.44
372.38	1724.39
372.59	1697.77
372.80	1648.61
373.01	1642.47
373.22	1744.87
373.43	1673.19
373.64	1746.92
373.85	1785.83
374.06	1822.69
374.26	1740.77
374.47	1658.85
374.68	1806.31
374.89	1683.43
375.10	1660.90
375.31	1732.58
375.52	1757.16
375.73	1708.01
375.94	1644.52
376.15	1791.97
376.36	1640.42
376.57	1626.09
376.78	1687.53
376.99	1693.67
377.20	1824.74
377.40	1732.58
377.61	1742.82
377.82	1695.72
378.03	1763.30
378.24	1757.16
378.45	1656.81
378.66	1746.92
378.87	1619.94
379.08	1552.36
379.29	1730.53
379.50	1787.88
379.71	1673.19
379.91	1765.35
380.12	1634.28
380.33	1701.86
380.54	1697.77
380.75	1701.86
380.96	1798.12
381.17	1746.92
381.38	1669.09
381.59	1695.72
381.80	1789.92
382.00	1791.97
382.21	1718.25
382.42	1796.07
382.63	1918.95
382.84	1712.10
383.05	1779.68
383.26	1787.88
383.47	1742.82
383.68	1773.54
383.88	1757.16
384.09	1705.96
384.30	1779.68
384.51	1789.92
384.72	1673.19
384.93	1667.05
385.14	1763.30
385.35	1769.44
385.55	1611.75
385.76	1763.30
385.97	1703.91
386.18	1738.73
386.39	1748.97
386.60	1710.05
386.81	1679.33
387.02	1665.00
387.22	1695.72
387.43	1703.91
387.64	1832.93
387.85	1863.65
388.06	2189.28
388.27	4175.81
388.48	6655.90
388.68	8021.89
388.89	9404.27
389.10	9432.94
389.31	8208.26
389.52	7491.47
389.73	6549.40
389.93	6059.94
390.14	5746.60
390.35	5224.37
390.56	4419.52
390.77	3723.21
390.98	2987.99
391.18	2478.04
391.39	2115.55
391.60	1769.44
391.81	1845.22
392.02	1648.61
392.23	1875.94
392.43	1775.59
392.64	1810.40
392.85	1732.58
393.06	1814.50
393.27	1705.96
393.47	1634.28
393.68	1628.14
393.89	1665.00
394.10	1791.97
394.31	1656.81
394.52	1634.28
394.72	1712.10
394.93	1742.82
395.14	1605.61
395.35	1798.12
395.56	1679.33
395.76	1810.40
395.97	1742.82
396.18	1806.31
396.39	1726.44
396.60	1990.63
396.80	1832.93
397.01	1853.41
397.22	1822.69
397.43	1818.60
397.64	1781.73
397.84	1779.68
398.05	1847.27
398.26	1787.88
398.47	1755.11
398.67	1789.92
398.88	1718.25
399.09	1689.57
399.30	1642.47
399.51	1775.59
399.71	1738.73
399.92	1685.48
400.13	1720.29
400.34	1691.62
400.54	1751.01
400.75	1734.63
400.96	1697.77
401.17	1757.16
401.37	1722.34
401.58	1720.29
401.79	1755.11
402.00	1908.71
402.21	2004.96
402.41	1959.91
402.62	1953.76
402.83	2007.01
403.04	1931.23
403.24	2093.02
403.45	1783.78
403.66	1886.18
403.87	1845.22
404.07	1886.18
404.28	1880.04
404.49	1841.12
404.70	1808.36
404.90	1781.73
405.11	1708.01
405.32	1699.81
405.52	1728.49
405.73	1665.00
405.94	1720.29
406.15	1798.12
406.35	1837.03
406.56	1759.21
406.77	1759.21
406.98	1740.77
407.18	1685.48
407.39	1773.54
407.60	1730.53
407.80	1699.81
408.01	1658.85
408.22	1689.57
408.43	1658.85
408.63	1765.35
408.84	1701.86
409.05	1787.88
409.25	1591.27
409.46	1728.49
409.67	1742.82
409.88	1683.43
410.08	1804.26
410.29	1667.05
410.50	1826.79
410.70	1726.44
410.91	1652.71
411.12	1685.48
411.32	1695.72
411.53	1642.47
411.74	1857.51
411.95	1753.06
412.15	1671.14
412.36	1699.81
412.57	1718.25
412.77	1839.08
412.98	1605.61
413.19	1632.23
413.39	1791.97
413.60	1765.35
413.81	1853.41
414.01	1636.33
414.22	1720.29
414.43	1748.97
414.63	1695.72
414.84	1763.30
415.05	1798.12
415.25	1658.85
415.46	1787.88
415.67	1660.90
415.87	1679.33
416.08	1769.44
416.29	1632.23
416.49	1757.16
416.70	1744.87
416.91	1673.19
417.11	1705.96
417.32	1730.53
417.53	1726.44
417.73	1796.07
417.94	1656.81
418.15	1701.86
418.35	1728.49
418.56	1740.77
418.77	1812.45
418.97	1660.90
419.18	1773.54
419.38	1609.70
419.59	1783.78
419.80	1822.69
420.00	1708.01
420.21	1691.62
420.42	1798.12
420.62	1791.97
420.83	1673.19
421.04	1732.58
421.24	1681.38
421.45	1685.48
421.65	1751.01
421.86	1705.96
422.07	1779.68
422.27	1697.77
422.48	1726.44
422.69	1652.71
422.89	1724.39
423.10	1658.85
423.30	1685.48
423.51	1703.91
423.72	1779.68
423.92	1806.31
424.13	1638.38
424.33	1681.38
424.54	1781.73
424.75	1738.73
424.95	1841.12
425.16	1787.88
425.36	1681.38
425.57	1771.49
425.78	1738.73
425.98	1783.78
426.19	1746.92
426.39	1693.67
426.60	1742.82
426.81	1791.97
427.01	1722.34
427.22	1716.20
427.42	1656.81
427.63	1665.00
427.83	1746.92
428.04	1775.59
428.25	1718.25
428.45	1730.53
428.66	1697.77
428.86	1759.21
429.07	1722.34
429.28	1740.77
429.48	1724.39
429.69	1683.43
429.89	1650.66
430.10	1619.94
430.30	1689.57
430.51	1787.88
430.71	1730.53
430.92	1671.14
431.13	1656.81
431.33	1748.97
431.54	1759.21
431.74	1880.04
431.95	1767.40
432.15	1705.96
432.36	1742.82
432.56	1847.27
432.77	1814.50
432.98	1822.69
433.18	1718.25
433.39	1710.05
433.59	1773.54
433.80	1796.07
434.00	1945.57
434.21	1667.05
434.41	1679.33
434.62	1869.80
434.82	1705.96
435.03	1632.23
435.23	1693.67
435.44	1658.85
435.64	1714.15
435.85	1757.16
436.06	1828.84
436.26	1716.20
436.47	1751.01
436.67	1705.96
436.88	1718.25
437.08	1740.77
437.29	1753.06
437.49	1736.68
437.70	1804.26
437.90	1718.25
438.11	1880.04
438.31	1714.15
438.52	1904.61
438.72	1853.41
438.93	1857.51
439.13	1773.54
439.34	1880.04
439.54	1675.24
439.75	1826.79
439.95	1759.21
440.16	1669.09
440.36	1787.88
440.57	1759.21
440.77	1820.64
440.98	1742.82
441.18	1677.29
441.39	1744.87
441.59	1724.39
441.80	1839.08
442.00	1724.39
442.21	1777.64
442.41	1755.11
442.62	1783.78
442.82	1703.91
443.02	1701.86
443.23	1783.78
443.43	1677.29
443.64	1796.07
443.84	1693.67
444.05	1724.39
444.25	1777.64
444.46	1787.88
444.66	1718.25
444.87	1839.08
445.07	1687.53
445.28	1730.53
445.48	1812.45
445.69	1726.44
445.89	1873.89
446.09	1730.53
446.30	2060.26
446.50	2615.26
446.71	3669.96
446.91	4167.62
447.12	4566.97
447.32	4630.46
447.53	4374.46
447.73	3792.84
447.93	3409.87
448.14	3254.22
448.34	3123.15
448.55	2947.03
448.75	2787.29
448.96	2695.13
449.16	2377.69
449.36	2314.20
449.57	2060.26
449.77	1882.08
449.98	1847.27
450.18	1779.68
450.39	1818.60
450.59	1714.15
450.79	1734.63
451.00	1656.81
451.20	1826.79
451.41	1759.21
451.61	1767.40
451.81	1714.15
452.02	1687.53
452.22	1759.21
452.43	1677.29
452.63	1716.20
452.84	1757.16
453.04	1773.54
453.24	1761.25
453.45	1705.96
453.65	1751.01
453.86	1779.68
454.06	1779.68
454.26	1748.97
454.47	1687.53
454.67	1824.74
454.87	1724.39
455.08	1718.25
455.28	1834.98
455.49	1779.68
455.69	1787.88
455.89	1863.65
456.10	1773.54
456.30	1703.91
456.51	1728.49
456.71	1759.21
456.91	1712.10
457.12	1699.81
457.32	1787.88
457.52	1701.86
457.73	1794.02
457.93	1820.64
458.14	1695.72
458.34	1564.65
458.54	1742.82
458.75	1705.96
458.95	1757.16
459.15	1757.16
459.36	1710.05
459.56	1724.39
459.76	1861.60
459.97	1708.01
460.17	1789.92
460.37	1849.32
460.58	1689.57
460.78	1736.68
460.99	1716.20
461.19	1781.73
461.39	1673.19
461.60	1767.40
461.80	1679.33
462.00	1701.86
462.21	1738.73
462.41	1714.15
462.61	1638.38
462.82	1736.68
463.02	1742.82
463.22	1701.86
463.43	1804.26
463.63	1720.29
463.83	1769.44
464.04	1746.92
464.24	1720.29
464.44	1697.77
464.64	1685.48
464.85	1806.31
465.05	1763.30
465.25	1744.87
465.46	1703.91
465.66	1822.69
465.86	1751.01
466.07	1757.16
466.27	1726.44
466.47	1648.61
466.68	1681.38
466.88	1769.44
467.08	1728.49
467.29	1812.45
467.49	1800.16
467.69	1730.53
467.89	1751.01
468.10	1673.19
468.30	1783.78
468.50	1771.49
468.71	1832.93
468.91	1599.46
469.11	1826.79
469.31	1701.86
469.52	1693.67
469.72	1796.07
469.92	1800.16
470.13	1789.92
470.33	1697.77
470.53	1769.44
470.73	2109.41
470.94	2222.05
471.14	2289.63
471.34	2510.81
471.54	2387.93
471.75	2211.81
471.95	2113.50
472.15	2152.42
472.36	2045.92
472.56	1964.00
472.76	2041.82
472.96	2002.91
473.17	1908.71
473.37	1945.57
473.57	1812.45
473.77	1800.16
473.98	1798.12
474.18	1701.86
474.38	1933.28
474.58	1740.77
474.79	1652.71
474.99	1751.01
475.19	1718.25
475.39	1734.63
475.60	1687.53
475.80	1730.53
476.00	1738.73
476.20	1828.84
476.41	1703.91
476.61	1787.88
476.81	1912.80
477.01	1689.57
477.21	1857.51
477.42	1800.16
477.62	1652.71
477.82	1812.45
478.02	1736.68
478.23	1787.88
478.43	1650.66
478.63	1708.01
478.83	1755.11
479.03	1669.09
479.24	1757.16
479.44	1814.50
479.64	1808.36
479.84	1671.14
480.04	1654.76
480.25	1769.44
480.45	1697.77
480.65	1759.21
480.85	1841.12
481.06	1658.85
481.26	1751.01
481.46	1812.45
481.66	1775.59
481.86	1675.24
482.06	1771.49
482.27	1667.05
482.47	1685.48
482.67	1728.49
482.87	1691.62
483.07	1775.59
483.28	1699.81
483.48	1671.14
483.68	1683.43
483.88	1597.42
484.08	1624.04
484.29	1665.00
484.49	1716.20
484.69	1705.96
484.89	1812.45
485.09	1771.49
485.29	1726.44
485.50	1769.44
485.70	1734.63
485.90	1789.92
486.10	1812.45
486.30	1746.92
486.50	1775.59
486.71	1767.40
486.91	1736.68
487.11	1783.78
487.31	1630.18
487.51	1712.10
487.71	1646.57
487.91	1605.61
488.12	1697.77
488.32	1669.09
488.52	1722.34
488.72	1632.23
488.92	1701.86
489.12	1757.16
489.32	1722.34
489.53	1710.05
489.73	1634.28
489.93	1820.64
490.13	1632.23
490.33	1669.09
490.53	1755.11
490.73	1755.11
490.94	1601.51
491.14	1773.54
491.34	1843.17
491.54	2123.74
491.74	2602.97
491.94	2901.97
492.14	3043.28
492.34	3082.19
492.54	2707.41
492.75	2527.19
492.95	2508.76
493.15	2250.72
493.35	2320.35
493.55	2254.81
493.75	2095.07
493.95	2181.09
494.15	1982.43
494.35	1818.60
494.56	1853.41
494.76	1748.97
494.96	1789.92
495.16	1808.36
495.36	1740.77
495.56	1738.73
495.76	1775.59
495.96	1724.39
496.16	1744.87
496.36	1769.44
496.56	1730.53
496.77	1775.59
496.97	1722.34
497.17	1798.12
497.37	1685.48
497.57	1759.21
497.77	1759.21
497.97	1687.53
498.17	1777.64
498.37	1667.05
498.57	1839.08
498.77	1679.33
498.97	1699.81
499.17	1759.21
499.38	1748.97
499.58	1712.10
499.78	1806.31
499.98	1828.84
500.18	1742.82
500.38	1722.34
500.58	1841.12
500.78	2543.58
500.98	4456.38
501.18	5826.47
501.38	6547.36
501.58	6944.66
501.78	6526.88
501.98	5377.97
502.18	4933.56
502.38	4429.76
502.58	4046.79
502.78	3643.34
502.98	3610.57
503.18	3459.02
503.38	3061.71
503.59	2731.99
503.79	2627.54
503.99	2414.56
504.19	2285.53
504.39	2152.42
504.59	2142.18
504.79	2119.65
504.99	2064.35
505.19	1916.90
505.39	1875.94
505.59	1867.75
505.79	1882.08
505.99	1898.47
506.19	1785.83
506.39	1857.51
506.59	1757.16
506.79	1816.55
506.99	1767.40
507.19	1787.88
507.39	1755.11
507.59	1695.72
507.79	1726.44
507.99	1603.56
508.19	1728.49
508.39	1726.44
508.59	1722.34
508.79	1802.21
508.99	1818.60
509.19	1730.53
509.39	1746.92
509.59	1777.64
509.79	1708.01
509.99	1679.33
510.19	1726.44
510.39	1705.96
510.59	1761.25
510.79	1673.19
510.99	1703.91
511.19	1722.34
511.39	1900.52
511.59	1818.60
511.79	1808.36
511.99	1789.92
512.19	1804.26
512.38	1738.73
512.58	1683.43
512.78	1722.34
512.98	1687.53
513.18	1810.40
513.38	1640.42
513.58	1748.97
513.78	1736.68
513.98	1773.54
514.18	1769.44
514.38	1701.86
514.58	1705.96
514.78	1695.72
514.98	1669.09
515.18	1740.77
515.38	1632.23
515.58	1818.60
515.78	1722.34
515.98	1773.54
516.18	1701.86
516.38	1839.08
516.57	1757.16
516.77	1705.96
516.97	1800.16
517.17	1667.05
517.37	1658.85
517.57	1812.45
517.77	1763.30
517.97	1677.29
518.17	1804.26
518.37	1646.57
518.57	1732.58
518.77	1746.92
518.97	1742.82
519.16	1781.73
519.36	1804.26
519.56	1791.97
519.76	1763.30
519.96	1738.73
520.16	1802.21
520.36	1726.44
520.56	1767.40
520.76	1751.01
520.96	1730.53
521.16	1777.64
521.35	1800.16
521.55	1845.22
521.75	1718.25
521.95	1638.38
522.15	1673.19
522.35	1675.24
522.55	1636.33
522.75	1798.12
522.95	1685.48
523.14	1656.81
523.34	1714.15
523.54	1738.73
523.74	1847.27
523.94	1710.05
524.14	1705.96
524.34	1722.34
524.54	1804.26
524.73	1689.57
524.93	1712.10
525.13	1701.86
525.33	1701.86
525.53	1914.85
525.73	1732.58
525.93	1783.78
526.13	1634.28
526.32	1728.49
526.52	1800.16
526.72	1791.97
526.92	1779.68
527.12	1734.63
527.32	1613.80
527.52	1751.01
527.71	1783.78
527.91	1703.91
528.11	1685.48
528.31	1796.07
528.51	1724.39
528.71	1761.25
528.90	1765.35
529.10	1834.98
529.30	1832.93
529.50	1601.51
529.70	1761.25
529.90	1679.33
530.09	1767.40
530.29	1636.33
530.49	1685.48
530.69	1851.36
530.89	1742.82
531.09	1828.84
531.28	1724.39
531.48	1863.65
531.68	1697.77
531.88	1701.86
532.08	1832.93
532.28	1699.81
532.47	1824.74
532.67	1771.49
532.87	1710.05
533.07	1736.68
533.27	1759.21
533.46	1755.11
533.66	1748.97
533.86	1699.81
534.06	1693.67
534.26	1708.01
534.45	1798.12
534.65	1804.26
534.85	1712.10
535.05	1732.58
535.25	1736.68
535.44	1681.38
535.64	1781.73
535.84	1718.25
536.04	1777.64
536.24	1773.54
536.43	1705.96
536.63	1744.87
536.83	1734.63
537.03	1773.54
537.22	1732.58
537.42	1748.97
537.62	1730.53
537.82	1640.42
538.02	1837.03
538.21	1802.21
538.41	1828.84
538.61	1847.27
538.81	1714.15
539.00	1820.64
539.20	1634.28
539.40	1679.33
539.60	1800.16
539.79	1851.36
539.99	1720.29
540.19	1751.01
540.39	1695.72
540.58	1748.97
540.78	1767.40
540.98	1755.11
541.18	1720.29
541.37	1791.97
541.57	1802.21
541.77	1732.58
541.97	1646.57
542.16	1640.42
542.36	1671.14
542.56	1732.58
542.76	1857.51
542.95	1820.64
543.15	1757.16
543.35	1822.69
543.54	1613.80
543.74	1701.86
543.94	1837.03
544.14	1681.38
544.33	1738.73
544.53	1771.49
544.73	1779.68
544.93	1730.53
545.12	1648.61
545.32	1669.09
545.52	1691.62
545.71	1654.76
545.91	1781.73
546.11	1728.49
546.30	1796.07
546.50	1785.83
546.70	1765.35
546.90	1761.25
547.09	1628.14
547.29	1740.77
547.49	1718.25
547.68	1738.73
547.88	1648.61
548.08	1789.92
548.27	2191.33
548.47	1705.96
548.67	1712.10
548.87	1683.43
549.06	1714.15
549.26	1734.63
549.46	1779.68
549.65	1718.25
549.85	1767.40
550.05	1800.16
550.24	1710.05
550.44	1744.87
550.64	1691.62
550.83	1773.54
551.03	1859.56
551.23	1783.78
551.42	1720.29
551.62	1730.53
551.82	1824.74
552.01	1738.73
552.21	1845.22
552.41	1660.90
552.60	1775.59
552.80	1806.31
553.00	1691.62
553.19	1716.20
553.39	1791.97
553.59	1730.53
553.78	1728.49
553.98	1806.31
554.17	1671.14
554.37	1740.77
554.57	1757.16
554.76	1648.61
554.96	1734.63
555.16	1830.88
555.35	1753.06
555.55	1787.88
555.75	1755.11
555.94	1828.84
556.14	1658.85
556.33	1765.35
556.53	1755.11
556.73	1779.68
556.92	1798.12
557.12	1775.59
557.32	1857.51
557.51	1789.92
557.71	1787.88
557.90	1818.60
558.10	1832.93
558.30	1767.40
558.49	1738.73
558.69	1783.78
558.88	1771.49
559.08	1783.78
559.28	1787.88
559.47	1722.34
559.67	1689.57
559.86	1841.12
560.06	1783.78
560.26	1648.61
560.45	1849.32
560.65	1753.06
560.84	1804.26
561.04	1685.48
561.24	1794.02
561.43	1685.48
561.63	1804.26
561.82	1734.63
562.02	1828.84
562.22	1722.34
562.41	1689.57
562.61	1675.24
562.80	1681.38
563.00	1863.65
563.19	1759.21
563.39	1791.97
563.59	1769.44
563.78	1685.48
563.98	1677.29
564.17	1744.87
564.37	1660.90
564.56	1724.39
564.76	1738.73
564.96	1890.28
565.15	1740.77
565.35	1804.26
565.54	1785.83
565.74	1771.49
565.93	1697.77
566.13	1730.53
566.32	1757.16
566.52	1714.15
566.71	1734.63
566.91	1763.30
567.11	1800.16
567.30	1728.49
567.50	1708.01
567.69	1763.30
567.89	1665.00
568.08	1689.57
568.28	1714.15
568.47	1640.42
568.67	1742.82
568.86	1777.64
569.06	1779.68
569.25	1773.54
569.45	1626.09
569.64	1697.77
569.84	1722.34
570.04	1759.21
570.23	1726.44
570.43	1771.49
570.62	1837.03
570.82	1877.99
571.01	1701.86
571.21	1691.62
571.40	1751.01
571.60	1828.84
571.79	1785.83
571.99	1769.44
572.18	1689.57
572.38	1714.15
572.57	1693.67
572.77	1787.88
572.96	1886.18
573.16	1796.07
573.35	1708.01
573.55	1773.54
573.74	1771.49
573.94	1705.96
574.13	1751.01
574.33	1781.73
574.52	1853.41
574.71	1716.20
574.91	1697.77
575.10	1648.61
575.30	1603.56
575.49	1777.64
575.69	1632.23
575.88	1798.12
576.08	1736.68
576.27	1798.12
576.47	1681.38
576.66	1861.60
576.86	1812.45
577.05	1789.92
577.25	1861.60
577.44	1896.42
577.64	1783.78
577.83	1804.26
578.02	1720.29
578.22	1918.95
578.41	1828.84
578.61	1773.54
578.80	1724.39
579.00	1787.88
579.19	1779.68
579.39	1703.91
579.58	1845.22
579.77	1814.50
579.97	1785.83
580.16	1816.55
580.36	1834.98
580.55	1861.60
580.75	1718.25
580.94	1730.53
581.13	1806.31
581.33	1853.41
581.52	1722.34
581.72	1855.46
581.91	1826.79
582.11	1718.25
582.30	1701.86
582.49	1689.57
582.69	1785.83
582.88	1746.92
583.08	1705.96
583.27	1773.54
583.47	1714.15
583.66	1660.90
583.85	1656.81
584.05	1812.45
584.24	1808.36
584.44	1718.25
584.63	1796.07
584.82	1861.60
585.02	1849.32
585.21	1861.60
585.41	1820.64
585.60	1849.32
585.79	1947.62
585.99	1943.52
586.18	1880.04
586.37	2150.37
586.57	3250.13
586.76	9738.09
586.96	23903.89
587.15	33445.38
587.34	39425.45
587.54	40836.50
587.73	35149.29
587.93	25388.67
588.12	20858.56
588.31	17714.93
588.51	15931.15
588.70	14679.84
588.89	13657.90
589.09	12259.14
589.28	10960.73
589.47	9070.45
589.67	7794.57
589.86	6338.46
590.06	4808.63
590.25	3786.69
590.44	2985.94
590.64	2564.06
590.83	2283.49
591.02	2160.61
591.22	1964.00
591.41	1910.75
591.60	1888.23
591.80	1886.18
591.99	1839.08
592.18	1822.69
592.38	1916.90
592.57	1740.77
592.76	1765.35
592.96	1755.11
593.15	1742.82
593.34	1781.73
593.54	1771.49
593.73	1812.45
593.92	1748.97
594.12	1789.92
594.31	1744.87
594.50	1908.71
594.70	1791.97
594.89	1984.48
595.08	1679.33
595.28	1828.84
595.47	1945.57
595.66	1765.35
595.86	1720.29
596.05	1689.57
596.24	1691.62
596.43	1802.21
596.63	1880.04
596.82	1804.26
597.01	1761.25
597.21	1822.69
597.40	1787.88
597.59	1732.58
597.79	1753.06
597.98	1687.53
598.17	1794.02
598.36	1751.01
598.56	1816.55
598.75	1716.20
598.94	1767.40
599.14	1779.68
599.33	1714.15
599.52	1800.16
599.71	1759.21
599.91	1787.88
600.10	1794.02
600.29	1730.53
600.48	1726.44
600.68	1779.68
600.87	1804.26
601.06	1626.09
601.26	1818.60
601.45	1697.77
601.64	1697.77
601.83	1701.86
602.03	1777.64
602.22	1652.71
602.41	1794.02
602.60	1734.63
602.80	1796.07
602.99	1773.54
603.18	1783.78
603.37	1828.84
603.57	1683.43
603.76	1734.63
603.95	1767.40
604.14	1701.86
604.34	1697.77
604.53	1736.68
604.72	1738.73
604.91	1720.29
605.10	1771.49
605.30	1644.52
605.49	1826.79
605.68	1724.39
605.87	1791.97
606.07	1699.81
606.26	1753.06
606.45	1779.68
606.64	1689.57
606.84	1816.55
607.03	1718.25
607.22	1798.12
607.41	1662.95
607.60	1734.63
607.80	1763.30
607.99	1689.57
608.18	1777.64
608.37	1779.68
608.56	1681.38
608.76	1771.49
608.95	1800.16
609.14	1791.97
609.33	1748.97
609.52	1808.36
609.72	1753.06
609.91	1710.05
610.10	1710.05
610.29	1796.07
610.48	1738.73
610.68	1804.26
610.87	1703.91
611.06	1800.16
611.25	1675.24
611.44	1832.93
611.63	1697.77
611.83	1832.93
612.02	1648.61
612.21	1882.08
612.40	1677.29
612.59	1710.05
612.79	1615.85
612.98	1787.88
613.17	1773.54
613.36	1724.39
613.55	1826.79
613.74	1673.19
613.93	1718.25
614.13	1812.45
614.32	1802.21
614.51	1730.53
614.70	1648.61
614.89	1691.62
615.08	1775.59
615.28	2086.88
615.47	1714.15
615.66	1724.39
615.85	1703.91
616.04	1851.36
616.23	1734.63
616.42	1662.95
616.62	1665.00
616.81	1751.01
617.00	1765.35
617.19	1734.63
617.38	1662.95
617.57	1757.16
617.76	1732.58
617.95	1859.56
618.15	1716.20
618.34	1888.23
618.53	1646.57
618.72	1800.16
618.91	1787.88
619.10	1763.30
619.29	1669.09
619.48	1728.49
619.68	1587.18
619.87	1730.53
620.06	1644.52
620.25	1791.97
620.44	1705.96
620.63	1656.81
620.82	1794.02
621.01	1699.81
621.20	1669.09
621.39	1738.73
621.59	1748.97
621.78	1675.24
621.97	1697.77
622.16	1718.25
622.35	1697.77
622.54	1759.21
622.73	1769.44
622.92	1697.77
623.11	1763.30
623.30	1687.53
623.49	1763.30
623.68	1665.00
623.88	1847.27
624.07	1734.63
624.26	1716.20
624.45	1802.21
624.64	1724.39
624.83	1675.24
625.02	1699.81
625.21	1699.81
625.40	1753.06
625.59	1806.31
625.78	1734.63
625.97	1771.49
626.16	1769.44
626.35	1703.91
626.54	1683.43
626.74	1810.40
626.93	1738.73
627.12	1699.81
627.31	1695.72
627.50	1832.93
627.69	1769.44
627.88	1771.49
628.07	1679.33
628.26	1681.38
628.45	1705.96
628.64	1658.85
628.83	1718.25
629.02	1728.49
629.21	1712.10
629.40	1742.82
629.59	1593.32
629.78	1671.14
629.97	1708.01
630.16	1708.01
630.35	1660.90
630.54	1730.53
630.73	1771.49
630.92	1746.92
631.11	1683.43
631.30	1761.25
631.49	1738.73
631.68	1705.96
631.87	1759.21
632.06	1673.19
632.25	1902.56
632.44	1724.39
632.63	1726.44
632.82	1691.62
633.01	1714.15
633.20	1716.20
633.39	1746.92
633.58	1652.71
633.77	1718.25
633.96	1779.68
634.15	1742.82
634.34	1753.06
634.53	1755.11
634.72	1699.81
634.91	1679.33
635.10	1804.26
635.29	1695.72
635.48	1730.53
635.67	1634.28
635.86	1632.23
636.05	1751.01
636.24	1787.88
636.43	1738.73
636.62	1714.15
636.81	1589.22
637.00	1738.73
637.19	1767.40
637.38	1705.96
637.57	1656.81
637.76	1734.63
637.95	1761.25
638.14	1730.53
638.33	1662.95
638.52	1685.48
638.71	1720.29
638.89	1609.70
639.08	1861.60
639.27	1744.87
639.46	1796.07
639.65	1781.73
639.84	1656.81
640.03	1804.26
640.22	1626.09
640.41	1837.03
640.60	1740.77
640.79	1767.40
640.98	1732.58
641.17	1751.01
641.36	1736.68
641.55	1746.92
641.74	1714.15
641.92	1665.00
642.11	1581.03
642.30	1693.67
642.49	1695.72
642.68	1722.34
642.87	1765.35
643.06	1738.73
643.25	1681.38
643.44	1644.52
643.63	1712.10
643.82	1861.60
644.00	1775.59
644.19	1712.10
644.38	1738.73
644.57	1763.30
644.76	1751.01
644.95	1730.53
645.14	1757.16
645.33	1679.33
645.52	1689.57
645.71	1708.01
645.89	1662.95
646.08	1738.73
646.27	1673.19
646.46	1826.79
646.65	1685.48
646.84	1753.06
647.03	1683.43
647.22	1814.50
647.40	1689.57
647.59	1675.24
647.78	1701.86
647.97	1712.10
648.16	1642.47
648.35	1771.49
648.54	1753.06
648.73	1683.43
648.91	1785.83
649.10	1697.77
649.29	1697.77
649.48	1757.16
649.67	1726.44
649.86	1699.81
650.05	1689.57
650.23	1824.74
650.42	1636.33
650.61	1767.40
650.80	1734.63
650.99	1806.31
651.18	1767.40
651.36	1738.73
651.55	1660.90
651.74	1708.01
651.93	1716.20
652.12	1785.83
652.31	1712.10
652.49	1742.82
652.68	1644.52
652.87	1763.30
653.06	1738.73
653.25	1763.30
653.44	1693.67
653.62	1779.68
653.81	1769.44
654.00	1757.16
654.19	1783.78
654.38	1787.88
654.56	1779.68
654.75	1669.09
654.94	1689.57
655.13	1648.61
655.32	1718.25
655.51	1796.07
655.69	1624.04
655.88	1740.77
656.07	1685.48
656.26	1722.34
656.45	1667.05
656.63	1669.09
656.82	1726.44
657.01	1738.73
657.20	1687.53
657.38	1886.18
657.57	1740.77
657.76	1652.71
657.95	1730.53
658.14	1648.61
658.32	1644.52
658.51	1650.66
658.70	1814.50
658.89	1718.25
659.08	1683.43
659.26	1830.88
659.45	1669.09
659.64	1701.86
659.83	1685.48
660.01	1859.56
660.20	1744.87
660.39	1814.50
660.58	1667.05
660.76	1763.30
660.95	1675.24
661.14	1785.83
661.33	1640.42
661.51	1656.81
661.70	1677.29
661.89	1693.67
662.08	1665.00
662.26	1640.42
662.45	1660.90
662.64	1785.83
662.83	1779.68
663.01	1642.47
663.20	1708.01
663.39	1757.16
663.58	1763.30
663.76	1716.20
663.95	1767.40
664.14	1710.05
664.32	1722.34
664.51	1701.86
664.70	1675.24
664.89	1765.35
665.07	1630.18
665.26	1705.96
665.45	1628.14
665.64	1787.88
665.82	1779.68
666.01	1787.88
666.20	1591.27
666.38	1820.64
666.57	1732.58
666.76	2256.86
666.95	4581.31
667.13	10147.69
667.32	14706.46
667.51	17317.62
667.69	18331.37
667.88	17331.96
668.07	11937.61
668.25	9478.00
668.44	7903.11
668.63	7141.27
668.81	6469.53
669.00	6115.23
669.19	5545.90
669.38	4923.32
669.56	4415.42
669.75	3856.33
669.94	3289.04
670.12	2858.96
670.31	2455.51
670.50	2213.85
670.68	2027.49
670.87	1857.51
671.06	1841.12
671.24	1787.88
671.43	1853.41
671.62	1759.21
671.80	1644.52
671.99	1646.57
672.18	1687.53
672.36	1742.82
672.55	1671.14
672.74	1624.04
672.92	1683.43
673.11	1726.44
673.29	1695.72
673.48	1771.49
673.67	1716.20
673.85	1757.16
674.04	1789.92
674.23	1636.33
674.41	1914.85
674.60	1640.42
674.79	1671.14
674.97	1695.72
675.16	1703.91
675.34	1767.40
675.53	1609.70
675.72	1775.59
675.90	1830.88
676.09	1753.06
676.28	1732.58
676.46	1689.57
676.65	1728.49
676.83	1660.90
677.02	1718.25
677.21	1710.05
677.39	1695.72
677.58	1636.33
677.77	1759.21
677.95	1689.57
678.14	1728.49
678.32	1714.15
678.51	1677.29
678.70	1892.32
678.88	1691.62
679.07	1689.57
679.25	1791.97
679.44	1662.95
679.63	1597.42
679.81	1689.57
680.00	1804.26
680.18	1738.73
680.37	1787.88
680.55	1730.53
680.74	1677.29
680.93	1599.46
681.11	1755.11
681.30	1656.81
681.48	1753.06
681.67	1714.15
681.85	1732.58
682.04	1683.43
682.23	1744.87
682.41	1740.77
682.60	1779.68
682.78	1667.05
682.97	1671.14
683.15	1667.05
683.34	1712.10
683.53	1814.50
683.71	1585.13
683.90	1787.88
684.08	1812.45
684.27	1751.01
684.45	1789.92
684.64	1787.88
684.82	1757.16
685.01	1753.06
685.19	1617.90
685.38	1787.88
685.57	1763.30
685.75	1603.56
685.94	1652.71
686.12	1693.67
686.31	1626.09
686.49	1791.97
686.68	1619.94
686.86	1730.53
687.05	1753.06
687.23	1804.26
687.42	1761.25
687.60	1597.42
687.79	1751.01
687.97	1794.02
688.16	1751.01
688.34	1787.88
688.53	1578.98
688.71	1740.77
688.90	1738.73
689.08	1728.49
689.27	1597.42
689.45	1673.19
689.64	1785.83
689.82	1730.53
690.01	1744.87
690.19	1724.39
690.38	1726.44
690.56	1794.02
690.75	1656.81
690.93	1714.15
691.12	1724.39
691.30	1654.76
691.49	1691.62
691.67	1705.96
691.86	1808.36
692.04	1728.49
692.23	1773.54
692.41	1701.86
692.60	1822.69
692.78	1771.49
692.97	1726.44
693.15	1748.97
693.34	1775.59
693.52	1746.92
693.71	1714.15
693.89	1644.52
694.08	1638.38
694.26	1877.99
694.44	1716.20
694.63	1796.07
694.81	1687.53
695.00	1605.61
695.18	1771.49
695.37	1816.55
695.55	1669.09
695.74	1701.86
695.92	1683.43
696.10	1826.79
696.29	1671.14
696.47	1691.62
696.66	1662.95
696.84	1732.58
697.03	1656.81
697.21	1800.16
697.40	2283.49
697.58	1773.54
697.76	1730.53
697.95	1701.86
698.13	1617.90
698.32	1634.28
698.50	1677.29
698.68	1705.96
698.87	1667.05
699.05	1902.56
699.24	1660.90
699.42	1687.53
699.61	1781.73
699.79	1769.44
699.97	1712.10
700.16	1667.05
700.34	1624.04
700.53	1656.81
700.71	1820.64
700.89	1761.25
701.08	1736.68
701.26	1767.40
701.45	2117.60
701.63	1757.16
701.81	1681.38
702.00	1710.05
702.18	1671.14
702.37	1660.90
702.55	1689.57
702.73	1742.82
702.92	1644.52
703.10	1691.62
703.28	1708.01
703.47	1681.38
703.65	1767.40
703.84	1718.25
704.02	1654.76
704.20	1832.93
704.39	1601.51
704.57	1689.57
704.75	1804.26
704.94	1828.84
705.12	1753.06
705.30	1742.82
705.49	2271.20
705.67	4353.98
705.86	9162.61
706.04	12175.17
706.22	13985.58
706.41	14872.35
706.59	13131.58
706.77	9295.73
706.96	7085.97
707.14	6412.19
707.32	5756.84
707.51	5312.43
707.69	4761.53
707.87	4063.17
708.06	3483.59
708.24	2959.31
708.42	2414.56
708.61	2203.61
708.79	1939.43
708.97	1853.41
709.16	1812.45
709.34	1802.21
709.52	1761.25
709.71	1722.34
709.89	1751.01
710.07	1703.91
710.26	1677.29
710.44	1777.64
710.62	1773.54
710.80	1712.10
710.99	1732.58
711.17	1744.87
711.35	1697.77
711.54	1658.85
711.72	1814.50
711.90	1746.92
712.09	1800.16
712.27	1675.24
712.45	1736.68
712.63	1701.86
712.82	1742.82
713.00	1785.83
713.18	1759.21
713.37	1787.88
713.55	1783.78
713.73	1804.26
713.91	1771.49
714.10	1738.73
714.28	1746.92
714.46	1734.63
714.65	1728.49
714.83	1748.97
715.01	1703.91
715.19	1687.53
715.38	1656.81
715.56	1755.11
715.74	1634.28
715.92	1740.77
716.11	1744.87
716.29	1611.75
716.47	1720.29
716.65	1677.29
716.84	1599.46
717.02	1791.97
717.20	1589.22
717.38	1708.01
717.57	1716.20
717.75	1730.53
717.93	1697.77
718.11	1716.20
718.30	1693.67
718.48	1730.53
718.66	1714.15
718.84	1732.58
719.03	1726.44
719.21	1621.99
719.39	1806.31
719.57	1767.40
719.75	1710.05
719.94	1689.57
720.12	1685.48
720.30	1701.86
720.48	1679.33
720.67	1673.19
720.85	1681.38
721.03	1644.52
721.21	1619.94
721.39	1783.78
721.58	1763.30
721.76	1671.14
721.94	1701.86
722.12	1751.01
722.30	1785.83
722.49	1624.04
722.67	1724.39
722.85	1757.16
723.03	1611.75
723.21	1640.42
723.40	1705.96
723.58	1683.43
723.76	1732.58
723.94	1769.44
724.12	1755.11
724.30	1800.16
724.49	1740.77
724.67	1701.86
724.85	1775.59
725.03	1601.51
725.21	1763.30
725.40	1832.93
725.58	1646.57
725.76	1820.64
725.94	1705.96
726.12	1732.58
726.30	1722.34
726.49	1669.09
726.67	1689.57
726.85	1763.30
727.03	1716.20
727.21	2183.13
727.39	2965.46
727.57	3731.40
727.76	4081.60
727.94	4456.38
728.12	4237.25
728.30	3637.19
728.48	2910.16
728.66	2701.27
728.84	2514.91
729.03	2324.44
729.21	2154.46
729.39	1982.43
729.57	1869.80
729.75	1839.08
729.93	1822.69
730.11	1710.05
730.30	1751.01
730.48	1695.72
730.66	1714.15
730.84	1742.82
731.02	1736.68
731.20	1681.38
731.38	1697.77
731.56	1640.42
731.74	1726.44
731.93	1714.15
732.11	1744.87
732.29	1656.81
732.47	1796.07
732.65	1621.99
732.83	1802.21
733.01	1759.21
733.19	1630.18
733.37	1794.02
733.56	1683.43
733.74	1695.72
733.92	1822.69
734.10	1656.81
734.28	1728.49
734.46	1697.77
734.64	1673.19
734.82	1660.90
735.00	1671.14
735.18	1669.09
735.36	1714.15
735.54	1796.07
735.73	1705.96
735.91	1820.64
736.09	1681.38
736.27	1712.10
736.45	1705.96
736.63	1578.98
736.81	1681.38
736.99	1753.06
737.17	1718.25
737.35	1677.29
737.53	1687.53
737.71	1771.49
737.89	1744.87
738.07	1740.77
738.25	1691.62
738.43	1650.66
738.61	1677.29
738.80	1636.33
738.98	1701.86
739.16	1634.28
739.34	1675.24
739.52	1796.07
739.70	1662.95
739.88	1837.03
740.06	1802.21
740.24	1558.50
740.42	1785.83
740.60	1681.38
740.78	1705.96
740.96	1544.17
741.14	1673.19
741.32	1796.07
741.50	1650.66
741.68	1853.41
741.86	1759.21
742.04	1665.00
742.22	1630.18
742.40	1701.86
742.58	1712.10
742.76	1665.00
742.94	1783.78
743.12	1640.42
743.30	1624.04
743.48	1753.06
743.66	1624.04
743.84	1806.31
744.02	1736.68
744.20	1718.25
744.38	1677.29
744.56	1708.01
744.74	1791.97
744.92	1742.82
745.10	1816.55
745.28	1767.40
745.46	1810.40
745.64	1681.38
745.82	1738.73
746.00	1669.09
746.18	1699.81
746.36	1658.85
746.54	1763.30
746.72	1687.53
746.90	1677.29
747.08	1751.01
747.26	1718.25
747.44	1736.68
747.62	1716.20
747.80	1779.68
747.98	1742.82
748.15	1695.72
748.33	1865.70
748.51	1724.39
748.69	1824.74
748.87	1669.09
749.05	1716.20
749.23	1669.09
749.41	1720.29
749.59	1724.39
749.77	1691.62
749.95	1675.24
750.13	1615.85
750.31	1697.77
750.49	1681.38
750.67	1798.12
750.85	1761.25
751.03	1771.49
751.20	1794.02
751.38	1609.70
751.56	1701.86
751.74	1679.33
751.92	1677.29
752.10	1603.56
752.28	1726.44
752.46	1722.34
752.64	1701.86
752.82	1710.05
753.00	1822.69
753.18	1665.00
753.35	1714.15
753.53	1734.63
753.71	1681.38
753.89	1759.21
754.07	1701.86
754.25	1671.14
754.43	1767.40
754.61	1607.66
754.79	1724.39
754.97	1679.33
755.14	1855.46
755.32	1656.81
755.50	1734.63
755.68	1738.73
755.86	1671.14
756.04	1712.10
756.22	1570.79
756.40	1757.16
756.57	1779.68
756.75	1685.48
756.93	1800.16
757.11	1714.15
757.29	1673.19
757.47	1650.66
757.65	1638.38
757.82	1636.33
758.00	1638.38
758.18	1683.43
758.36	1683.43
758.54	1841.12
758.72	1697.77
758.90	1767.40
759.07	1779.68
759.25	1693.67
759.43	1671.14
759.61	1654.76
759.79	2131.94
759.97	1796.07
760.15	1658.85
760.32	1697.77
760.50	1695.72
760.68	1804.26
760.86	1605.61
761.04	1751.01
761.22	1724.39
761.39	1652.71
761.57	1714.15
761.75	1746.92
761.93	1720.29
762.11	1640.42
762.28	1701.86
762.46	1673.19
762.64	1763.30
762.82	1632.23
763.00	1699.81
763.18	1791.97
763.35	1679.33
763.53	1675.24
763.71	1724.39
763.89	1712.10
764.07	1732.58
764.24	1656.81
764.42	1683.43
764.60	1667.05
764.78	1687.53
764.96	1757.16
765.13	1783.78
765.31	1648.61
765.49	1828.84
765.67	1667.05
765.84	1652.71
766.02	1675.24
766.20	1603.56
766.38	1796.07
766.56	1769.44
766.73	1705.96
766.91	1640.42
767.09	1751.01
767.27	1708.01
767.44	1599.46
767.62	1716.20
767.80	1740.77
767.98	1748.97
768.15	1642.47
768.33	1785.83
768.51	1775.59
768.69	1679.33
768.87	1765.35
769.04	1685.48
769.22	1806.31
769.40	1783.78
769.58	1859.56
769.75	1748.97
769.93	1783.78
770.11	1660.90
770.28	1699.81
770.46	1787.88
770.64	1722.34
770.82	1642.47
770.99	1660.90
771.17	1708.01
771.35	1677.29
771.53	1675.24
771.70	1718.25
771.88	1708.01
772.06	1695.72
772.23	1689.57
772.41	1726.44
772.59	1667.05
772.77	1619.94
772.94	1662.95
773.12	1816.55
773.30	1671.14
773.47	1736.68
773.65	1624.04
773.83	1794.02
774.01	1763.30
774.18	1628.14
774.36	1695.72
774.54	1621.99
774.71	1751.01
774.89	1677.29
775.07	1787.88
775.24	1644.52
775.42	1660.90
775.60	1769.44
775.78	1732.58
775.95	1636.33
776.13	1632.23
776.31	1531.88
776.48	1658.85
776.66	1740.77
776.84	1703.91
777.01	1617.90
777.19	1734.63
777.37	1753.06
777.54	1837.03
777.72	1839.08
777.90	1699.81
778.07	1693.67
778.25	1851.36
778.43	1796.07
778.60	1621.99
778.78	1810.40
778.96	1767.40
779.13	1671.14
779.31	1767.40
779.49	1783.78
779.66	1748.97
779.84	1773.54
780.01	1718.25
780.19	1724.39
780.37	1824.74
780.54	1779.68
780.72	1673.19
780.90	1642.47
781.07	1693.67
781.25	1634.28
781.43	1796.07
781.60	1601.51
781.78	1779.68
781.95	1681.38
782.13	1619.94
782.31	1697.77
782.48	1599.46
782.66	1691.62
782.83	1826.79
783.01	1828.84
783.19	1744.87
783.36	1712.10
783.54	1660.90
783.72	1812.45
783.89	1720.29
784.07	1722.34
784.24	1783.78
784.42	1822.69
784.60	1701.86
784.77	1742.82
784.95	1578.98
785.12	1697.77
785.30	1710.05
785.47	1740.77
785.65	1705.96
785.83	1691.62
786.00	1636.33
786.18	1671.14
786.35	1679.33
786.53	1710.05
786.71	1765.35
786.88	1751.01
787.06	1728.49
787.23	1714.15
787.41	1615.85
787.58	1716.20
787.76	1611.75
787.94	1685.48
788.11	1718.25
788.29	1675.24
788.46	1681.38
788.64	1650.66
788.81	1675.24
788.99	1673.19
789.16	1603.56
789.34	1687.53
789.52	1675.24
789.69	1654.76
789.87	1587.18
790.04	1568.74
790.22	1710.05
790.39	1800.16
790.57	1720.29
790.74	1681.38
790.92	1675.24
791.09	1634.28
791.27	1732.58
791.44	1736.68
791.62	1738.73
791.79	1724.39
791.97	1677.29
792.15	1916.90
792.32	1771.49
792.50	1753.06
792.67	1748.97
792.85	1810.40
793.02	1779.68
793.20	1708.01
793.37	1593.32
793.55	1722.34
793.72	1675.24
793.90	1699.81
794.07	1671.14
794.25	1699.81
794.42	1755.11
794.60	1746.92
794.77	1724.39
794.95	1658.85
795.12	1642.47
795.30	1658.85
795.47	1597.42
795.65	1820.64
795.82	1757.16
796.00	1607.66
796.17	1650.66
796.34	1687.53
796.52	1689.57
796.69	1789.92
796.87	1730.53
797.04	1701.86
797.22	1693.67
797.39	1742.82
797.57	1751.01
797.74	1746.92
797.92	1773.54
798.09	1654.76
798.27	1757.16
798.44	1718.25
798.62	1660.90
798.79	1732.58
798.96	1628.14
799.14	1673.19
799.31	1826.79
799.49	1677.29
799.66	1695.72
799.84	1734.63
800.01	1679.33
800.19	1775.59
800.36	1607.66
800.53	1738.73
800.71	1685.48
800.88	1806.31
801.06	1722.34
801.23	1724.39
801.41	1697.77
801.58	1685.48
801.75	1687.53
801.93	1656.81
802.10	1742.82
802.28	1740.77
802.45	1640.42
802.63	1730.53
802.80	1808.36
802.97	1591.27
803.15	1671.14
803.32	1683.43
803.50	1683.43
803.67	1716.20
803.84	1654.76
804.02	1667.05
804.19	1732.58
804.37	1609.70
804.54	1628.14
804.71	1691.62
804.89	1693.67
805.06	1644.52
805.24	1687.53
805.41	1630.18
805.58	1648.61
805.76	1820.64
805.93	1695.72
806.10	1839.08
806.28	1777.64
806.45	1746.92
806.63	1658.85
806.80	1710.05
806.97	1705.96
807.15	1730.53
807.32	1728.49
807.49	1730.53
807.67	1656.81
807.84	1826.79
808.01	1656.81
808.19	1818.60
808.36	1853.41
808.54	1658.85
808.71	1683.43
808.88	1673.19
809.06	1712.10
809.23	1806.31
809.40	1658.85
809.58	1777.64
809.75	1673.19
809.92	1640.42
810.10	1783.78
810.27	1673.19
810.44	1789.92
810.62	1765.35
810.79	1800.16
810.96	1648.61
811.14	1673.19
811.31	1712.10
811.48	1804.26
811.66	1705.96
811.83	1779.68
812.00	1769.44
812.18	1748.97
812.35	1798.12
812.52	1701.86
812.69	1703.91
812.87	1628.14
813.04	1652.71
813.21	1669.09
813.39	1685.48
813.56	1671.14
813.73	1748.97
813.91	1609.70
814.08	1658.85
814.25	1726.44
814.42	1515.50
814.60	1658.85
814.77	1738.73
814.94	1710.05
815.12	1718.25
815.29	1832.93
815.46	1656.81
815.63	1748.97
815.81	1656.81
815.98	1669.09
816.15	1714.15
816.33	1726.44
816.50	1665.00
816.67	1789.92
816.84	1665.00
817.02	1667.05
817.19	1722.34
817.36	1730.53
817.53	1763.30
817.71	1578.98
817.88	1796.07
818.05	1751.01
818.22	1697.77
818.40	1828.84
818.57	1673.19
818.74	1693.67
818.91	1671.14
819.09	1728.49
819.26	1697.77
819.43	1673.19
819.60	1652.71
819.78	1710.05
819.95	1769.44
820.12	1708.01
820.29	1732.58
820.47	1779.68
820.64	1667.05
820.81	1621.99
820.98	1718.25
821.15	1720.29
821.33	1789.92
821.50	1626.09
821.67	1681.38
821.84	1611.75
822.02	1712.10
822.19	1714.15
822.36	1730.53
822.53	1679.33
822.70	1644.52
822.88	1689.57
823.05	1855.46
823.22	1671.14
823.39	1748.97
823.56	1712.10
823.74	1757.16
823.91	1683.43
824.08	1687.53
824.25	1665.00
824.42	1802.21
824.60	1669.09
824.77	1742.82
824.94	1683.43
825.11	1712.10
825.28	1705.96
825.45	1710.05
825.63	1710.05
825.80	1605.61
825.97	1720.29
826.14	1679.33
826.31	1595.37
826.48	1714.15
826.66	1619.94
826.83	1689.57
827.00	1677.29
827.17	1628.14
827.34	1667.05
827.51	1630.18
827.69	1699.81
827.86	1687.53
828.03	1742.82
828.20	1746.92
828.37	1677.29
828.54	1683.43
828.71	1603.56
828.89	1730.53
829.06	1691.62
829.23	1804.26
829.40	1726.44
829.57	1683.43
829.74	1757.16
829.91	1624.04
830.09	1685.48
830.26	1683.43
830.43	1820.64
830.60	1724.39
830.77	1716.20
830.94	1808.36
831.11	1626.09
831.28	1705.96
831.46	1751.01
831.63	1697.77
831.80	1814.50
831.97	1595.37
832.14	1689.57
832.31	1642.47
832.48	1605.61
832.65	1685.48
832.82	1744.87
832.99	1689.57
833.17	1732.58
833.34	1837.03
833.51	1705.96
833.68	1601.51
833.85	1804.26
834.02	1615.85
834.19	1578.98
834.36	1658.85
834.53	1640.42
834.70	1746.92
834.87	1794.02
835.04	1634.28
835.22	1640.42
835.39	1746.92
835.56	1695.72
835.73	1640.42
835.90	1724.39
836.07	1634.28
836.24	1726.44
836.41	1720.29
836.58	1632.23
836.75	1763.30
836.92	1699.81
837.09	1763.30
837.26	1687.53
837.43	1777.64
837.60	1781.73
837.77	1636.33
837.94	1742.82
838.12	1718.25
838.29	1753.06
838.46	1568.74
838.63	1609.70
838.80	1849.32
838.97	1746.92
839.14	1687.53
839.31	1673.19
839.48	1738.73
839.65	1714.15
839.82	1673.19
839.99	1736.68
840.16	1701.86
840.33	1642.47
840.50	1679.33
840.67	1599.46
840.84	1603.56
841.01	1658.85
841.18	1636.33
841.35	1662.95
841.52	1695.72
841.69	1853.41
841.86	1646.57
842.03	1720.29
842.20	1693.67
842.37	1689.57
842.54	1669.09
842.71	1712.10
842.88	1656.81
843.05	1738.73
843.22	1662.95
843.39	1740.77
843.56	1777.64
843.73	1757.16
843.90	1763.30
844.07	1669.09
844.24	1675.24
844.41	1665.00
844.58	1691.62
844.75	1767.40
844.92	1748.97
845.09	1673.19
845.26	1724.39
845.43	1722.34
845.60	1656.81
845.77	1728.49
845.94	1693.67
846.10	1771.49
846.27	1621.99
846.44	1615.85
846.61	1665.00
846.78	1767.40
846.95	1810.40
847.12	1746.92
847.29	1761.25
847.46	1648.61
847.63	1738.73
847.80	1566.70
847.97	1685.48
848.14	1832.93
848.31	1681.38
848.48	1636.33
848.65	1746.92
848.82	1673.19
848.98	1818.60
849.15	1697.77
849.32	1744.87
849.49	1755.11
849.66	1720.29
849.83	1644.52
850.00	1656.81
850.17	1710.05
850.34	1744.87
850.51	1705.96
850.68	1724.39
850.85	1734.63
851.01	1740.77
851.18	1675.24
851.35	1726.44
851.52	1708.01
851.69	1828.84
851.86	1648.61
852.03	1726.44
852.20	1751.01
852.37	1705.96
852.53	1636.33
852.70	1775.59
852.87	1697.77
853.04	1689.57
853.21	1701.86
853.38	1685.48
853.55	1728.49
853.72	1751.01
853.89	1640.42
854.05	1646.57
854.22	1673.19
854.39	1660.90
854.56	1736.68
854.73	1746.92
854.90	1665.00
855.07	1662.95
855.23	1677.29
855.40	1703.91
855.57	1636.33
855.74	1607.66
855.91	1898.47
856.08	1624.04
856.25	1636.33
856.41	1708.01
856.58	1714.15
856.75	1654.76
856.92	1724.39
857.09	1738.73
857.26	1654.76
857.42	1662.95
857.59	1708.01
857.76	1677.29
857.93	1710.05
858.10	1783.78
858.27	1665.00
858.43	1736.68
858.60	1669.09
858.77	1626.09
858.94	1640.42
859.11	1726.44
859.27	1710.05
859.44	1697.77
859.61	1771.49
859.78	1689.57
859.95	1648.61
860.12	1652.71
860.28	1791.97
860.45	1777.64
860.62	1744.87
860.79	1773.54
860.95	1701.86
861.12	1677.29
861.29	1662.95
861.46	1617.90
861.63	1679.33
861.79	1744.87
861.96	1681.38
862.13	1722.34
862.30	1771.49
862.47	1652.71
862.63	1667.05
862.80	1701.86
862.97	1730.53
863.14	1730.53
863.30	1708.01
863.47	1607.66
863.64	1742.82
863.81	1773.54
863.97	1667.05
864.14	1679.33
864.31	1753.06
864.48	1724.39
864.65	1681.38
864.81	1708.01
864.98	1804.26
865.15	1779.68
865.32	1728.49
865.48	1830.88
865.65	1783.78
865.82	1646.57
865.98	1728.49
866.15	1798.12
866.32	1665.00
866.49	1652.71
866.65	1734.63
866.82	1656.81
866.99	1796.07
867.16	1648.61
867.32	1603.56
867.49	1656.81
867.66	1689.57
867.83	1687.53
867.99	1699.81
868.16	1648.61
868.33	1677.29
868.49	1757.16
868.66	1673.19
868.83	1726.44
868.99	1779.68
869.16	1695.72
869.33	1779.68
869.50	1742.82
869.66	1726.44
869.83	1759.21
870.00	1640.42
870.16	1740.77
870.33	1644.52
870.50	1769.44
870.66	1730.53
870.83	1804.26
871.00	1714.15
871.17	1746.92
871.33	1718.25
871.50	1658.85
871.67	1675.24
871.83	1781.73
872.00	1802.21
872.17	1660.90
872.33	1753.06
872.50	1761.25
872.67	1736.68
872.83	1628.14
873.00	1701.86
873.17	1742.82
873.33	1734.63
873.50	1687.53
873.67	1685.48
873.83	1691.62
874.00	1695.72
874.16	1851.36
874.33	1773.54
874.50	1697.77
874.66	1777.64
874.83	1703.91
875.00	1802.21
875.16	1720.29
875.33	1806.31
875.50	1660.90
875.66	1691.62
875.83	1689.57
875.99	1746.92
876.16	1669.09
876.33	1630.18
876.49	1693.67
876.66	1697.77
876.83	1708.01
876.99	1601.51
877.16	1665.00
877.32	1753.06
877.49	1681.38
877.66	1753.06
877.82	1732.58
877.99	1667.05
878.15	1810.40
878.32	1728.49
878.49	1714.15
878.65	1632.23
878.82	1730.53
878.98	1697.77
879.15	1742.82
879.32	1767.40
879.48	1642.47
879.65	1712.10
879.81	1685.48
879.98	1615.85
880.15	1677.29
880.31	1728.49
880.48	1626.09
880.64	1812.45
880.81	1675.24
880.97	1820.64
881.14	1767.40
881.31	1660.90
881.47	1830.88
881.64	1683.43
881.80	1656.81
881.97	1652.71
882.13	1791.97
882.30	1658.85
882.47	1624.04
882.63	1671.14
882.80	1607.66
882.96	1671.14
883.13	1783.78
883.29	1701.86
883.46	1681.38
883.62	1744.87
883.79	1703.91
883.95	1740.77
884.12	1560.55
884.29	1751.01
884.45	1687.53
884.62	1744.87
884.78	1634.28
884.95	1820.64
885.11	1665.00
885.28	1832.93
885.44	1720.29
885.61	1699.81
885.77	1781.73
885.94	1738.73
886.10	1652.71
886.27	1726.44
886.43	1714.15
886.60	1705.96
886.76	1712.10
886.93	1685.48
887.09	1701.86
887.26	1652.71
887.42	1667.05
887.59	1798.12
887.75	1841.12
887.92	1789.92
888.08	1761.25
888.25	1769.44
888.41	1755.11
888.58	1681.38
888.74	1646.57
888.91	1691.62
>>>>>End Processed Spectral Data<<<<<
