SpectraSuite Data File
++++++++++++++++++++++++++++++++++++
Date: Mon Jun 06 13:56:17 CEST 2016
User: root
Dark Spectrum Present: No
Reference Spectrum Present: No
Number of Sampled Component Spectra: 1
Spectrometers: USB4C02835
Integration Time (usec): 100000 (USB4C02835)
Spectra Averaged: 1 (USB4C02835)
Boxcar Smoothing: 0 (USB4C02835)
Correct for Electrical Dark: No (USB4C02835)
Strobe/Lamp Enabled: No (USB4C02835)
Correct for Detector Non-linearity: No (USB4C02835)
Correct for Stray Light: No (USB4C02835)
Number of Pixels in Processed Spectrum: 3648
>>>>>Begin Processed Spectral Data<<<<<
177.47	1452.01
177.69	1452.01
177.91	1452.01
178.13	1435.63
178.36	1495.02
178.58	1634.28
178.80	1736.68
179.02	1589.22
179.24	1601.51
179.46	1771.49
179.68	1691.62
179.90	1665.00
180.13	1712.10
180.35	1656.81
180.57	1728.49
180.79	1708.01
181.01	1705.96
181.23	1669.09
181.45	1785.83
181.67	1714.15
181.90	1673.19
182.12	1669.09
182.34	1683.43
182.56	1705.96
182.78	1665.00
183.00	1742.82
183.22	1701.86
183.44	1630.18
183.66	1826.79
183.89	1781.73
184.11	1740.77
184.33	1736.68
184.55	1820.64
184.77	1642.47
184.99	1769.44
185.21	1689.57
185.43	1871.84
185.65	1673.19
185.87	1714.15
186.10	1804.26
186.32	1800.16
186.54	1763.30
186.76	1746.92
186.98	1791.97
187.20	1714.15
187.42	1638.38
187.64	1730.53
187.86	1722.34
188.08	1789.92
188.30	1605.61
188.52	1720.29
188.75	1769.44
188.97	1740.77
189.19	1658.85
189.41	1658.85
189.63	1759.21
189.85	1697.77
190.07	1552.36
190.29	1660.90
190.51	1693.67
190.73	1607.66
190.95	1781.73
191.17	1687.53
191.39	1583.08
191.61	1603.56
191.84	1626.09
192.06	1832.93
192.28	1546.22
192.50	1830.88
192.72	1767.40
192.94	1689.57
193.16	1808.36
193.38	1710.05
193.60	1652.71
193.82	1695.72
194.04	1832.93
194.26	1671.14
194.48	1701.86
194.70	1689.57
194.92	1603.56
195.14	1705.96
195.36	1617.90
195.58	1667.05
195.80	1675.24
196.02	1673.19
196.24	1697.77
196.46	1748.97
196.69	1630.18
196.91	1779.68
197.13	1718.25
197.35	1585.13
197.57	1828.84
197.79	1738.73
198.01	1736.68
198.23	1697.77
198.45	1722.34
198.67	1640.42
198.89	1667.05
199.11	1712.10
199.33	1701.86
199.55	1609.70
199.77	1669.09
199.99	1710.05
200.21	1634.28
200.43	1697.77
200.65	1607.66
200.87	1525.74
201.09	1611.75
201.31	1783.78
201.53	1789.92
201.75	1710.05
201.97	1728.49
202.19	1685.48
202.41	1673.19
202.63	1798.12
202.85	1718.25
203.07	1695.72
203.29	1681.38
203.51	1669.09
203.73	1654.76
203.95	1861.60
204.17	1738.73
204.39	1798.12
204.61	1593.32
204.83	1716.20
205.05	1765.35
205.27	1742.82
205.49	1779.68
205.71	1640.42
205.93	1654.76
206.15	1605.61
206.37	1812.45
206.59	1714.15
206.81	1617.90
207.03	1626.09
207.25	1611.75
207.47	1773.54
207.69	1751.01
207.91	1753.06
208.13	1755.11
208.34	1650.66
208.56	1693.67
208.78	1693.67
209.00	1701.86
209.22	1689.57
209.44	1681.38
209.66	1669.09
209.88	1769.44
210.10	1691.62
210.32	1712.10
210.54	1785.83
210.76	1656.81
210.98	1726.44
211.20	1617.90
211.42	1662.95
211.64	1806.31
211.86	1697.77
212.08	1665.00
212.30	1681.38
212.52	1640.42
212.74	1718.25
212.96	1710.05
213.17	1718.25
213.39	1710.05
213.61	1761.25
213.83	1691.62
214.05	1656.81
214.27	1802.21
214.49	1681.38
214.71	1658.85
214.93	1794.02
215.15	1685.48
215.37	1705.96
215.59	1632.23
215.81	1730.53
216.03	1718.25
216.24	1697.77
216.46	1652.71
216.68	1634.28
216.90	1746.92
217.12	1781.73
217.34	1630.18
217.56	1740.77
217.78	1822.69
218.00	1746.92
218.22	1765.35
218.44	1665.00
218.66	1660.90
218.87	1767.40
219.09	1636.33
219.31	1748.97
219.53	1712.10
219.75	1658.85
219.97	1636.33
220.19	1726.44
220.41	1675.24
220.63	1718.25
220.85	1728.49
221.06	1673.19
221.28	1669.09
221.50	1767.40
221.72	1767.40
221.94	1654.76
222.16	1736.68
222.38	1755.11
222.60	1634.28
222.82	1728.49
223.03	1777.64
223.25	1675.24
223.47	1759.21
223.69	1796.07
223.91	1683.43
224.13	1732.58
224.35	1673.19
224.57	1732.58
224.78	1685.48
225.00	1630.18
225.22	1652.71
225.44	1699.81
225.66	1767.40
225.88	1703.91
226.10	1783.78
226.32	1746.92
226.53	1746.92
226.75	1685.48
226.97	1703.91
227.19	1683.43
227.41	1665.00
227.63	1578.98
227.85	1587.18
228.06	1738.73
228.28	1755.11
228.50	1681.38
228.72	1697.77
228.94	1615.85
229.16	1636.33
229.37	1703.91
229.59	1646.57
229.81	1724.39
230.03	1701.86
230.25	1648.61
230.47	1689.57
230.69	1683.43
230.90	1775.59
231.12	1599.46
231.34	1710.05
231.56	1767.40
231.78	1615.85
232.00	1695.72
232.21	1699.81
232.43	1671.14
232.65	1615.85
232.87	1755.11
233.09	1644.52
233.30	1665.00
233.52	1742.82
233.74	1687.53
233.96	1703.91
234.18	1650.66
234.40	1640.42
234.61	1748.97
234.83	1652.71
235.05	1572.84
235.27	1906.66
235.49	1732.58
235.70	1691.62
235.92	1800.16
236.14	1796.07
236.36	1824.74
236.58	1624.04
236.79	1740.77
237.01	1658.85
237.23	1658.85
237.45	1746.92
237.67	1658.85
237.88	1705.96
238.10	1791.97
238.32	1677.29
238.54	1677.29
238.76	1656.81
238.97	1667.05
239.19	1654.76
239.41	1679.33
239.63	1769.44
239.85	1632.23
240.06	1701.86
240.28	1656.81
240.50	1718.25
240.72	1728.49
240.93	1638.38
241.15	1775.59
241.37	1669.09
241.59	1796.07
241.81	1640.42
242.02	1648.61
242.24	1640.42
242.46	1775.59
242.68	1638.38
242.89	1701.86
243.11	1720.29
243.33	1683.43
243.55	1748.97
243.76	1701.86
243.98	1744.87
244.20	1757.16
244.42	1728.49
244.64	1632.23
244.85	1671.14
245.07	1673.19
245.29	1771.49
245.51	1744.87
245.72	1714.15
245.94	1765.35
246.16	1730.53
246.38	1710.05
246.59	1652.71
246.81	1685.48
247.03	1685.48
247.24	1531.88
247.46	1570.79
247.68	1677.29
247.90	1701.86
248.11	1708.01
248.33	1712.10
248.55	1718.25
248.77	1703.91
248.98	1779.68
249.20	1787.88
249.42	1681.38
249.64	1755.11
249.85	1683.43
250.07	1624.04
250.29	1738.73
250.50	1703.91
250.72	1634.28
250.94	1748.97
251.16	1863.65
251.37	1748.97
251.59	1779.68
251.81	1798.12
252.02	1796.07
252.24	1595.37
252.46	1771.49
252.68	1636.33
252.89	1656.81
253.11	1603.56
253.33	1812.45
253.54	1757.16
253.76	1636.33
253.98	1716.20
254.20	1728.49
254.41	1560.55
254.63	1794.02
254.85	1667.05
255.06	1695.72
255.28	1755.11
255.50	1656.81
255.71	1665.00
255.93	1626.09
256.15	1712.10
256.36	1744.87
256.58	1611.75
256.80	1763.30
257.02	1677.29
257.23	1732.58
257.45	1693.67
257.67	1738.73
257.88	1695.72
258.10	1703.91
258.32	1781.73
258.53	1660.90
258.75	1738.73
258.97	1646.57
259.18	1669.09
259.40	1755.11
259.62	1789.92
259.83	1841.12
260.05	1753.06
260.27	1947.62
260.48	1720.29
260.70	1626.09
260.92	1662.95
261.13	1761.25
261.35	1705.96
261.57	1761.25
261.78	1650.66
262.00	1656.81
262.22	1751.01
262.43	1638.38
262.65	1630.18
262.86	1726.44
263.08	1837.03
263.30	1671.14
263.51	1669.09
263.73	1687.53
263.95	1763.30
264.16	1675.24
264.38	1677.29
264.60	1675.24
264.81	1581.03
265.03	1738.73
265.25	1683.43
265.46	1673.19
265.68	1771.49
265.89	1677.29
266.11	1615.85
266.33	1718.25
266.54	1812.45
266.76	1802.21
266.98	1705.96
267.19	1816.55
267.41	1703.91
267.62	1728.49
267.84	1638.38
268.06	1751.01
268.27	1748.97
268.49	1746.92
268.70	1705.96
268.92	1730.53
269.14	1636.33
269.35	1636.33
269.57	1615.85
269.79	1734.63
270.00	1669.09
270.22	1773.54
270.43	1687.53
270.65	1591.27
270.87	1695.72
271.08	1669.09
271.30	1736.68
271.51	1689.57
271.73	1708.01
271.95	1814.50
272.16	1691.62
272.38	1708.01
272.59	1630.18
272.81	1689.57
273.02	1693.67
273.24	1744.87
273.46	1716.20
273.67	1630.18
273.89	1683.43
274.10	1761.25
274.32	1740.77
274.54	1751.01
274.75	1781.73
274.97	1671.14
275.18	1837.03
275.40	1687.53
275.61	1701.86
275.83	1740.77
276.05	1632.23
276.26	1755.11
276.48	1779.68
276.69	1656.81
276.91	1697.77
277.12	1812.45
277.34	1785.83
277.55	1753.06
277.77	1624.04
277.99	1701.86
278.20	1652.71
278.42	1665.00
278.63	1621.99
278.85	1621.99
279.06	1673.19
279.28	1665.00
279.49	1712.10
279.71	1726.44
279.93	1689.57
280.14	1689.57
280.36	1648.61
280.57	1748.97
280.79	1689.57
281.00	1679.33
281.22	1640.42
281.43	1740.77
281.65	1619.94
281.86	1740.77
282.08	1685.48
282.29	1822.69
282.51	1591.27
282.73	1626.09
282.94	1599.46
283.16	1708.01
283.37	1773.54
283.59	1771.49
283.80	1746.92
284.02	1669.09
284.23	1714.15
284.45	1701.86
284.66	1615.85
284.88	1648.61
285.09	1716.20
285.31	1689.57
285.52	1705.96
285.74	1660.90
285.95	1724.39
286.17	1740.77
286.38	1734.63
286.60	1634.28
286.81	1654.76
287.03	1681.38
287.24	1648.61
287.46	1740.77
287.67	1714.15
287.89	1853.41
288.10	1671.14
288.32	1738.73
288.53	1779.68
288.75	1646.57
288.96	1734.63
289.18	1720.29
289.39	1726.44
289.61	1716.20
289.82	1837.03
290.04	1740.77
290.25	1609.70
290.47	1685.48
290.68	1730.53
290.90	1775.59
291.11	1671.14
291.33	1767.40
291.54	1652.71
291.76	1669.09
291.97	1681.38
292.18	1763.30
292.40	1662.95
292.61	1656.81
292.83	1748.97
293.04	1796.07
293.26	1708.01
293.47	1705.96
293.69	1699.81
293.90	1771.49
294.12	1789.92
294.33	1693.67
294.55	1583.08
294.76	1685.48
294.97	1724.39
295.19	1814.50
295.40	1671.14
295.62	1728.49
295.83	1800.16
296.05	1726.44
296.26	1800.16
296.48	1687.53
296.69	1697.77
296.90	1740.77
297.12	1769.44
297.33	1712.10
297.55	1677.29
297.76	1777.64
297.98	1718.25
298.19	1724.39
298.41	1677.29
298.62	1626.09
298.83	1767.40
299.05	1697.77
299.26	1724.39
299.48	1734.63
299.69	1714.15
299.90	1644.52
300.12	1681.38
300.33	1716.20
300.55	1712.10
300.76	1730.53
300.98	1628.14
301.19	1667.05
301.40	1693.67
301.62	1722.34
301.83	1744.87
302.05	1771.49
302.26	1685.48
302.47	1705.96
302.69	1607.66
302.90	1675.24
303.12	1632.23
303.33	1746.92
303.54	1773.54
303.76	1615.85
303.97	1630.18
304.19	1853.41
304.40	1638.38
304.61	1699.81
304.83	1757.16
305.04	1679.33
305.26	1669.09
305.47	1628.14
305.68	1681.38
305.90	1630.18
306.11	1771.49
306.33	1734.63
306.54	1689.57
306.75	1744.87
306.97	1642.47
307.18	1660.90
307.39	1589.22
307.61	1744.87
307.82	1695.72
308.04	1724.39
308.25	1646.57
308.46	1687.53
308.68	1656.81
308.89	1699.81
309.10	1736.68
309.32	1689.57
309.53	1685.48
309.74	1677.29
309.96	1724.39
310.17	1751.01
310.39	1761.25
310.60	1820.64
310.81	1619.94
311.03	1605.61
311.24	1718.25
311.45	1755.11
311.67	1742.82
311.88	1740.77
312.09	1697.77
312.31	1587.18
312.52	1683.43
312.73	1703.91
312.95	1619.94
313.16	1695.72
313.37	1808.36
313.59	1765.35
313.80	1746.92
314.01	1781.73
314.23	1646.57
314.44	1656.81
314.65	1630.18
314.87	1630.18
315.08	1685.48
315.29	1669.09
315.51	1611.75
315.72	1695.72
315.93	1832.93
316.15	1796.07
316.36	1675.24
316.57	1718.25
316.79	1789.92
317.00	1658.85
317.21	1771.49
317.43	1628.14
317.64	1691.62
317.85	1654.76
318.07	1632.23
318.28	1765.35
318.49	1746.92
318.70	1845.22
318.92	1822.69
319.13	1839.08
319.34	1898.47
319.56	1785.83
319.77	1845.22
319.98	1742.82
320.20	1742.82
320.41	1769.44
320.62	1771.49
320.83	1581.03
321.05	1906.66
321.26	1693.67
321.47	1710.05
321.69	1820.64
321.90	1691.62
322.11	1652.71
322.32	1652.71
322.54	1775.59
322.75	1636.33
322.96	1847.27
323.18	1615.85
323.39	1615.85
323.60	1677.29
323.81	1791.97
324.03	1646.57
324.24	1626.09
324.45	1652.71
324.66	1609.70
324.88	1867.75
325.09	1748.97
325.30	1669.09
325.52	1691.62
325.73	1722.34
325.94	1728.49
326.15	1556.46
326.37	1689.57
326.58	1689.57
326.79	1777.64
327.00	1638.38
327.22	1667.05
327.43	1660.90
327.64	1671.14
327.85	1755.11
328.07	1751.01
328.28	1785.83
328.49	1636.33
328.70	1695.72
328.92	1712.10
329.13	1679.33
329.34	1640.42
329.55	1839.08
329.76	1820.64
329.98	1685.48
330.19	1763.30
330.40	1744.87
330.61	1738.73
330.83	1773.54
331.04	1626.09
331.25	1597.42
331.46	1742.82
331.68	1708.01
331.89	1765.35
332.10	1603.56
332.31	1654.76
332.52	1703.91
332.74	1775.59
332.95	1695.72
333.16	1744.87
333.37	1728.49
333.58	1681.38
333.80	1712.10
334.01	1699.81
334.22	1624.04
334.43	1679.33
334.64	1662.95
334.86	1609.70
335.07	1656.81
335.28	1789.92
335.49	1630.18
335.70	1722.34
335.92	1755.11
336.13	1781.73
336.34	1757.16
336.55	1710.05
336.76	1648.61
336.98	1656.81
337.19	1701.86
337.40	1718.25
337.61	1886.18
337.82	1708.01
338.04	1757.16
338.25	1630.18
338.46	1646.57
338.67	1677.29
338.88	1685.48
339.09	1626.09
339.31	1609.70
339.52	1687.53
339.73	1591.27
339.94	1705.96
340.15	1742.82
340.36	1767.40
340.58	1753.06
340.79	1675.24
341.00	1665.00
341.21	1632.23
341.42	1755.11
341.63	1669.09
341.85	1777.64
342.06	1714.15
342.27	1667.05
342.48	1800.16
342.69	1648.61
342.90	1763.30
343.12	1720.29
343.33	1652.71
343.54	1730.53
343.75	1802.21
343.96	1705.96
344.17	1734.63
344.38	1683.43
344.60	1607.66
344.81	1673.19
345.02	1646.57
345.23	1816.55
345.44	1777.64
345.65	1757.16
345.86	1720.29
346.07	1665.00
346.29	1687.53
346.50	1736.68
346.71	1660.90
346.92	1722.34
347.13	1798.12
347.34	1669.09
347.55	1710.05
347.76	1724.39
347.98	1578.98
348.19	1630.18
348.40	1748.97
348.61	1722.34
348.82	1820.64
349.03	1699.81
349.24	1665.00
349.45	1751.01
349.66	1611.75
349.88	1804.26
350.09	1681.38
350.30	1789.92
350.51	1775.59
350.72	1751.01
350.93	1695.72
351.14	1687.53
351.35	1697.77
351.56	1691.62
351.77	1603.56
351.99	1765.35
352.20	1742.82
352.41	1730.53
352.62	1675.24
352.83	1789.92
353.04	1691.62
353.25	1765.35
353.46	1769.44
353.67	1742.82
353.88	1714.15
354.09	1789.92
354.30	1687.53
354.52	1736.68
354.73	1662.95
354.94	1644.52
355.15	1699.81
355.36	1746.92
355.57	1679.33
355.78	1681.38
355.99	1628.14
356.20	1755.11
356.41	1732.58
356.62	1710.05
356.83	1695.72
357.04	1826.79
357.25	1642.47
357.46	1656.81
357.68	1681.38
357.89	1662.95
358.10	1677.29
358.31	1687.53
358.52	1730.53
358.73	1658.85
358.94	1708.01
359.15	1685.48
359.36	1738.73
359.57	1701.86
359.78	1732.58
359.99	1730.53
360.20	1593.32
360.41	1656.81
360.62	1728.49
360.83	1650.66
361.04	1701.86
361.25	1671.14
361.46	1900.52
361.67	1695.72
361.88	1734.63
362.09	1746.92
362.30	1701.86
362.51	1683.43
362.72	1746.92
362.93	1716.20
363.14	1837.03
363.35	1595.37
363.56	1621.99
363.78	1738.73
363.99	1746.92
364.20	1689.57
364.41	1710.05
364.62	1791.97
364.83	1781.73
365.04	1724.39
365.25	1740.77
365.46	1722.34
365.67	1675.24
365.88	1724.39
366.09	1671.14
366.30	1632.23
366.51	1714.15
366.72	1638.38
366.93	1677.29
367.14	1738.73
367.35	1785.83
367.56	1697.77
367.77	1759.21
367.98	1671.14
368.18	1710.05
368.39	1789.92
368.60	1740.77
368.81	1751.01
369.02	1699.81
369.23	1636.33
369.44	1591.27
369.65	1656.81
369.86	1656.81
370.07	1763.30
370.28	1673.19
370.49	1722.34
370.70	1722.34
370.91	1546.22
371.12	1650.66
371.33	1697.77
371.54	1626.09
371.75	1808.36
371.96	1626.09
372.17	1679.33
372.38	1662.95
372.59	1779.68
372.80	1726.44
373.01	1677.29
373.22	1748.97
373.43	1755.11
373.64	1671.14
373.85	1779.68
374.06	1796.07
374.26	1755.11
374.47	1658.85
374.68	1773.54
374.89	1705.96
375.10	1630.18
375.31	1742.82
375.52	1775.59
375.73	1714.15
375.94	1628.14
376.15	1759.21
376.36	1665.00
376.57	1587.18
376.78	1673.19
376.99	1701.86
377.20	1761.25
377.40	1669.09
377.61	1875.94
377.82	1607.66
378.03	1837.03
378.24	1806.31
378.45	1624.04
378.66	1730.53
378.87	1597.42
379.08	1669.09
379.29	1667.05
379.50	1738.73
379.71	1751.01
379.91	1800.16
380.12	1658.85
380.33	1699.81
380.54	1781.73
380.75	1634.28
380.96	1652.71
381.17	1769.44
381.38	1718.25
381.59	1785.83
381.80	1771.49
382.00	1769.44
382.21	1724.39
382.42	1777.64
382.63	1880.04
382.84	1734.63
383.05	1767.40
383.26	1748.97
383.47	1736.68
383.68	1787.88
383.88	1734.63
384.09	1640.42
384.30	1804.26
384.51	1693.67
384.72	1712.10
384.93	1640.42
385.14	1736.68
385.35	1751.01
385.55	1665.00
385.76	1746.92
385.97	1681.38
386.18	1648.61
386.39	1681.38
386.60	1665.00
386.81	1730.53
387.02	1695.72
387.22	1728.49
387.43	1767.40
387.64	1767.40
387.85	1851.36
388.06	2203.61
388.27	4345.79
388.48	6911.89
388.68	8464.25
388.89	9815.91
389.10	9965.42
389.31	8671.10
389.52	7698.31
389.73	6711.19
389.93	6289.31
390.14	5887.91
390.35	5199.79
390.56	4493.24
390.77	3735.50
390.98	3123.15
391.18	2523.10
391.39	2174.94
391.60	1816.55
391.81	1796.07
392.02	1708.01
392.23	1855.46
392.43	1705.96
392.64	1763.30
392.85	1656.81
393.06	1757.16
393.27	1742.82
393.47	1636.33
393.68	1681.38
393.89	1716.20
394.10	1804.26
394.31	1656.81
394.52	1753.06
394.72	1681.38
394.93	1806.31
395.14	1617.90
395.35	1742.82
395.56	1626.09
395.76	1732.58
395.97	1800.16
396.18	1841.12
396.39	1853.41
396.60	2023.39
396.80	1927.14
397.01	1765.35
397.22	1890.28
397.43	1871.84
397.64	1703.91
397.84	1851.36
398.05	1843.17
398.26	1800.16
398.47	1785.83
398.67	1742.82
398.88	1798.12
399.09	1722.34
399.30	1671.14
399.51	1783.78
399.71	1665.00
399.92	1716.20
400.13	1691.62
400.34	1660.90
400.54	1669.09
400.75	1857.51
400.96	1681.38
401.17	1746.92
401.37	1708.01
401.58	1691.62
401.79	1712.10
402.00	1857.51
402.21	2013.15
402.41	1923.04
402.62	1880.04
402.83	1988.58
403.04	1978.34
403.24	2019.30
403.45	1810.40
403.66	1933.28
403.87	1892.32
404.07	1886.18
404.28	1943.52
404.49	1888.23
404.70	1824.74
404.90	1751.01
405.11	1751.01
405.32	1746.92
405.52	1726.44
405.73	1656.81
405.94	1693.67
406.15	1728.49
406.35	1646.57
406.56	1771.49
406.77	1652.71
406.98	1740.77
407.18	1701.86
407.39	1812.45
407.60	1701.86
407.80	1716.20
408.01	1677.29
408.22	1675.24
408.43	1697.77
408.63	1763.30
408.84	1714.15
409.05	1787.88
409.25	1669.09
409.46	1636.33
409.67	1787.88
409.88	1687.53
410.08	1705.96
410.29	1665.00
410.50	1722.34
410.70	1703.91
410.91	1710.05
411.12	1650.66
411.32	1681.38
411.53	1691.62
411.74	1714.15
411.95	1746.92
412.15	1714.15
412.36	1775.59
412.57	1726.44
412.77	1822.69
412.98	1740.77
413.19	1638.38
413.39	1763.30
413.60	1710.05
413.81	1748.97
414.01	1613.80
414.22	1787.88
414.43	1794.02
414.63	1703.91
414.84	1710.05
415.05	1757.16
415.25	1617.90
415.46	1714.15
415.67	1767.40
415.87	1695.72
416.08	1744.87
416.29	1669.09
416.49	1703.91
416.70	1642.47
416.91	1697.77
417.11	1687.53
417.32	1697.77
417.53	1763.30
417.73	1695.72
417.94	1669.09
418.15	1677.29
418.35	1714.15
418.56	1720.29
418.77	1839.08
418.97	1701.86
419.18	1667.05
419.38	1544.17
419.59	1665.00
419.80	1845.22
420.00	1619.94
420.21	1716.20
420.42	1650.66
420.62	1746.92
420.83	1636.33
421.04	1675.24
421.24	1701.86
421.45	1687.53
421.65	1724.39
421.86	1662.95
422.07	1763.30
422.27	1783.78
422.48	1705.96
422.69	1634.28
422.89	1669.09
423.10	1642.47
423.30	1628.14
423.51	1742.82
423.72	1703.91
423.92	1798.12
424.13	1636.33
424.33	1746.92
424.54	1748.97
424.75	1751.01
424.95	1820.64
425.16	1701.86
425.36	1593.32
425.57	1701.86
425.78	1798.12
425.98	1718.25
426.19	1697.77
426.39	1636.33
426.60	1746.92
426.81	1734.63
427.01	1693.67
427.22	1671.14
427.42	1564.65
427.63	1718.25
427.83	1742.82
428.04	1796.07
428.25	1751.01
428.45	1775.59
428.66	1828.84
428.86	1570.79
429.07	1716.20
429.28	1746.92
429.48	1691.62
429.69	1662.95
429.89	1687.53
430.10	1650.66
430.30	1751.01
430.51	1771.49
430.71	1679.33
430.92	1646.57
431.13	1724.39
431.33	1710.05
431.54	1683.43
431.74	1849.32
431.95	1800.16
432.15	1624.04
432.36	1724.39
432.56	1779.68
432.77	1808.36
432.98	1839.08
433.18	1705.96
433.39	1730.53
433.59	1677.29
433.80	1794.02
434.00	1886.18
434.21	1681.38
434.41	1681.38
434.62	1806.31
434.82	1693.67
435.03	1615.85
435.23	1710.05
435.44	1632.23
435.64	1691.62
435.85	1748.97
436.06	1730.53
436.26	1734.63
436.47	1716.20
436.67	1732.58
436.88	1640.42
437.08	1712.10
437.29	1832.93
437.49	1751.01
437.70	1818.60
437.90	1687.53
438.11	1855.46
438.31	1830.88
438.52	1832.93
438.72	1824.74
438.93	1937.38
439.13	1865.70
439.34	1759.21
439.54	1716.20
439.75	1775.59
439.95	1828.84
440.16	1744.87
440.36	1738.73
440.57	1732.58
440.77	1728.49
440.98	1738.73
441.18	1763.30
441.39	1720.29
441.59	1732.58
441.80	1886.18
442.00	1712.10
442.21	1724.39
442.41	1589.22
442.62	1708.01
442.82	1677.29
443.02	1671.14
443.23	1738.73
443.43	1716.20
443.64	1796.07
443.84	1669.09
444.05	1781.73
444.25	1728.49
444.46	1720.29
444.66	1693.67
444.87	1818.60
445.07	1630.18
445.28	1783.78
445.48	1802.21
445.69	1773.54
445.89	1791.97
446.09	1779.68
446.30	2004.96
446.50	2660.31
446.71	3747.78
446.91	4333.50
447.12	4673.46
447.32	4847.54
447.53	4327.36
447.73	3942.34
447.93	3506.12
448.14	3198.93
448.34	3186.64
448.55	2940.88
448.75	2699.22
448.96	2766.81
449.16	2289.63
449.36	2328.54
449.57	2025.44
449.77	1923.04
449.98	1785.83
450.18	1804.26
450.39	1865.70
450.59	1685.48
450.79	1703.91
451.00	1757.16
451.20	1775.59
451.41	1728.49
451.61	1791.97
451.81	1773.54
452.02	1757.16
452.22	1761.25
452.43	1783.78
452.63	1765.35
452.84	1708.01
453.04	1751.01
453.24	1746.92
453.45	1708.01
453.65	1751.01
453.86	1800.16
454.06	1748.97
454.26	1736.68
454.47	1665.00
454.67	1830.88
454.87	1771.49
455.08	1695.72
455.28	1789.92
455.49	1699.81
455.69	1777.64
455.89	1791.97
456.10	1753.06
456.30	1716.20
456.51	1769.44
456.71	1722.34
456.91	1730.53
457.12	1724.39
457.32	1796.07
457.52	1716.20
457.73	1808.36
457.93	1822.69
458.14	1654.76
458.34	1673.19
458.54	1722.34
458.75	1738.73
458.95	1783.78
459.15	1705.96
459.36	1761.25
459.56	1773.54
459.76	1841.12
459.97	1765.35
460.17	1751.01
460.37	1841.12
460.58	1665.00
460.78	1730.53
460.99	1687.53
461.19	1728.49
461.39	1740.77
461.60	1677.29
461.80	1773.54
462.00	1671.14
462.21	1781.73
462.41	1642.47
462.61	1671.14
462.82	1693.67
463.02	1798.12
463.22	1710.05
463.43	1794.02
463.63	1738.73
463.83	1896.42
464.04	1748.97
464.24	1730.53
464.44	1671.14
464.64	1726.44
464.85	1794.02
465.05	1783.78
465.25	1714.15
465.46	1644.52
465.66	1787.88
465.86	1771.49
466.07	1748.97
466.27	1755.11
466.47	1656.81
466.68	1691.62
466.88	1841.12
467.08	1789.92
467.29	1783.78
467.49	1730.53
467.69	1759.21
467.89	1832.93
468.10	1724.39
468.30	1751.01
468.50	1826.79
468.71	1830.88
468.91	1744.87
469.11	1863.65
469.31	1710.05
469.52	1636.33
469.72	1763.30
469.92	1869.80
470.13	1726.44
470.33	1738.73
470.53	1808.36
470.73	2129.89
470.94	2238.43
471.14	2324.44
471.34	2508.76
471.54	2330.59
471.75	2172.89
471.95	2086.88
472.15	2017.25
472.36	2156.51
472.56	2064.35
472.76	1984.48
472.96	2058.21
473.17	1935.33
473.37	1927.14
473.57	1789.92
473.77	1839.08
473.98	1746.92
474.18	1628.14
474.38	1859.56
474.58	1734.63
474.79	1638.38
474.99	1775.59
475.19	1732.58
475.39	1738.73
475.60	1753.06
475.80	1785.83
476.00	1761.25
476.20	1759.21
476.41	1755.11
476.61	1861.60
476.81	1757.16
477.01	1675.24
477.21	1789.92
477.42	1843.17
477.62	1699.81
477.82	1699.81
478.02	1679.33
478.23	1748.97
478.43	1624.04
478.63	1662.95
478.83	1791.97
479.03	1832.93
479.24	1781.73
479.44	1767.40
479.64	1642.47
479.84	1583.08
480.04	1660.90
480.25	1810.40
480.45	1701.86
480.65	1712.10
480.85	1861.60
481.06	1769.44
481.26	1689.57
481.46	1796.07
481.66	1775.59
481.86	1763.30
482.06	1775.59
482.27	1691.62
482.47	1732.58
482.67	1757.16
482.87	1736.68
483.07	1804.26
483.28	1710.05
483.48	1642.47
483.68	1714.15
483.88	1599.46
484.08	1595.37
484.29	1656.81
484.49	1730.53
484.69	1654.76
484.89	1763.30
485.09	1810.40
485.29	1787.88
485.50	1714.15
485.70	1728.49
485.90	1746.92
486.10	1638.38
486.30	1712.10
486.50	1787.88
486.71	1728.49
486.91	1796.07
487.11	1777.64
487.31	1552.36
487.51	1742.82
487.71	1640.42
487.91	1603.56
488.12	1615.85
488.32	1576.94
488.52	1671.14
488.72	1591.27
488.92	1765.35
489.12	1802.21
489.32	1705.96
489.53	1697.77
489.73	1564.65
489.93	1834.98
490.13	1687.53
490.33	1671.14
490.53	1714.15
490.73	1757.16
490.94	1662.95
491.14	1726.44
491.34	1775.59
491.54	2101.22
491.74	2578.39
491.94	2893.78
492.14	2951.12
492.34	3065.81
492.54	2799.57
492.75	2453.47
492.95	2461.66
493.15	2220.00
493.35	2308.06
493.55	2105.31
493.75	2148.32
493.95	2131.94
494.15	1949.67
494.35	1837.03
494.56	1841.12
494.76	1701.86
494.96	1818.60
495.16	1769.44
495.36	1726.44
495.56	1732.58
495.76	1736.68
495.96	1736.68
496.16	1705.96
496.36	1789.92
496.56	1658.85
496.77	1779.68
496.97	1736.68
497.17	1779.68
497.37	1667.05
497.57	1787.88
497.77	1779.68
497.97	1669.09
498.17	1689.57
498.37	1691.62
498.57	1714.15
498.77	1636.33
498.97	1767.40
499.17	1837.03
499.38	1632.23
499.58	1746.92
499.78	1740.77
499.98	1806.31
500.18	1789.92
500.38	1697.77
500.58	2000.87
500.78	2480.09
500.98	4634.55
501.18	5965.73
501.38	6789.02
501.58	7325.58
501.78	6721.43
501.98	5658.54
502.18	5066.67
502.38	4571.07
502.58	4061.12
502.78	3870.66
502.98	3704.78
503.18	3469.26
503.38	3235.79
503.59	2854.87
503.79	2713.56
503.99	2521.05
504.19	2222.05
504.39	2220.00
504.59	2181.09
504.79	2136.03
504.99	2056.16
505.19	1853.41
505.39	1861.60
505.59	1916.90
505.79	1957.86
505.99	1814.50
506.19	1787.88
506.39	1824.74
506.59	1781.73
506.79	1736.68
506.99	1791.97
507.19	1802.21
507.39	1814.50
507.59	1697.77
507.79	1705.96
507.99	1660.90
508.19	1656.81
508.39	1742.82
508.59	1697.77
508.79	1763.30
508.99	1779.68
509.19	1675.24
509.39	1699.81
509.59	1744.87
509.79	1699.81
509.99	1761.25
510.19	1794.02
510.39	1751.01
510.59	1714.15
510.79	1691.62
510.99	1656.81
511.19	1796.07
511.39	1767.40
511.59	1839.08
511.79	1724.39
511.99	1781.73
512.19	1822.69
512.38	1789.92
512.58	1724.39
512.78	1677.29
512.98	1718.25
513.18	1796.07
513.38	1665.00
513.58	1804.26
513.78	1734.63
513.98	1767.40
514.18	1724.39
514.38	1660.90
514.58	1740.77
514.78	1667.05
514.98	1685.48
515.18	1716.20
515.38	1689.57
515.58	1800.16
515.78	1779.68
515.98	1730.53
516.18	1718.25
516.38	1656.81
516.57	1673.19
516.77	1701.86
516.97	1794.02
517.17	1665.00
517.37	1656.81
517.57	1800.16
517.77	1804.26
517.97	1726.44
518.17	1742.82
518.37	1734.63
518.57	1689.57
518.77	1724.39
518.97	1728.49
519.16	1787.88
519.36	1777.64
519.56	1693.67
519.76	1740.77
519.96	1734.63
520.16	1871.84
520.36	1722.34
520.56	1837.03
520.76	1640.42
520.96	1751.01
521.16	1761.25
521.35	1732.58
521.55	1837.03
521.75	1822.69
521.95	1642.47
522.15	1677.29
522.35	1638.38
522.55	1738.73
522.75	1794.02
522.95	1736.68
523.14	1748.97
523.34	1705.96
523.54	1746.92
523.74	1759.21
523.94	1759.21
524.14	1632.23
524.34	1744.87
524.54	1814.50
524.73	1667.05
524.93	1714.15
525.13	1783.78
525.33	1587.18
525.53	1785.83
525.73	1789.92
525.93	1798.12
526.13	1593.32
526.32	1734.63
526.52	1738.73
526.72	1724.39
526.92	1755.11
527.12	1781.73
527.32	1660.90
527.52	1738.73
527.71	1785.83
527.91	1736.68
528.11	1703.91
528.31	1751.01
528.51	1675.24
528.71	1748.97
528.90	1718.25
529.10	1730.53
529.30	1824.74
529.50	1665.00
529.70	1697.77
529.90	1751.01
530.09	1777.64
530.29	1644.52
530.49	1640.42
530.69	1820.64
530.89	1669.09
531.09	1796.07
531.28	1665.00
531.48	1781.73
531.68	1751.01
531.88	1779.68
532.08	1789.92
532.28	1675.24
532.47	1642.47
532.67	1843.17
532.87	1746.92
533.07	1660.90
533.27	1779.68
533.46	1796.07
533.66	1734.63
533.86	1679.33
534.06	1767.40
534.26	1695.72
534.45	1699.81
534.65	1746.92
534.85	1697.77
535.05	1755.11
535.25	1740.77
535.44	1654.76
535.64	1751.01
535.84	1789.92
536.04	1658.85
536.24	1705.96
536.43	1685.48
536.63	1748.97
536.83	1753.06
537.03	1771.49
537.22	1523.69
537.42	1568.74
537.62	1761.25
537.82	1687.53
538.02	1740.77
538.21	1853.41
538.41	1927.14
538.61	1740.77
538.81	1669.09
539.00	1814.50
539.20	1730.53
539.40	1697.77
539.60	1800.16
539.79	1791.97
539.99	1724.39
540.19	1669.09
540.39	1798.12
540.58	1710.05
540.78	1796.07
540.98	1726.44
541.18	1648.61
541.37	1779.68
541.57	1673.19
541.77	1761.25
541.97	1665.00
542.16	1703.91
542.36	1785.83
542.56	1669.09
542.76	1783.78
542.95	1767.40
543.15	1773.54
543.35	1710.05
543.54	1648.61
543.74	1634.28
543.94	1763.30
544.14	1695.72
544.33	1759.21
544.53	1638.38
544.73	1736.68
544.93	1759.21
545.12	1746.92
545.32	1667.05
545.52	1716.20
545.71	1673.19
545.91	1742.82
546.11	1728.49
546.30	1720.29
546.50	1757.16
546.70	1779.68
546.90	1845.22
547.09	1658.85
547.29	1751.01
547.49	1779.68
547.68	1748.97
547.88	1695.72
548.08	1816.55
548.27	2230.24
548.47	1703.91
548.67	1775.59
548.87	1693.67
549.06	1697.77
549.26	1767.40
549.46	1693.67
549.65	1705.96
549.85	1726.44
550.05	1796.07
550.24	1720.29
550.44	1767.40
550.64	1691.62
550.83	1724.39
551.03	1783.78
551.23	1781.73
551.42	1757.16
551.62	1701.86
551.82	1730.53
552.01	1677.29
552.21	1828.84
552.41	1736.68
552.60	1814.50
552.80	1724.39
553.00	1746.92
553.19	1800.16
553.39	1804.26
553.59	1636.33
553.78	1757.16
553.98	1796.07
554.17	1681.38
554.37	1775.59
554.57	1771.49
554.76	1691.62
554.96	1732.58
555.16	1738.73
555.35	1734.63
555.55	1781.73
555.75	1716.20
555.94	1802.21
556.14	1662.95
556.33	1751.01
556.53	1710.05
556.73	1730.53
556.92	1783.78
557.12	1869.80
557.32	1957.86
557.51	1781.73
557.71	1779.68
557.90	1789.92
558.10	1816.55
558.30	1732.58
558.49	1765.35
558.69	1693.67
558.88	1779.68
559.08	1660.90
559.28	1681.38
559.47	1791.97
559.67	1738.73
559.86	1882.08
560.06	1748.97
560.26	1736.68
560.45	1751.01
560.65	1691.62
560.84	1794.02
561.04	1691.62
561.24	1806.31
561.43	1677.29
561.63	1871.84
561.82	1771.49
562.02	1800.16
562.22	1728.49
562.41	1665.00
562.61	1656.81
562.80	1665.00
563.00	1871.84
563.19	1837.03
563.39	1794.02
563.59	1710.05
563.78	1650.66
563.98	1613.80
564.17	1730.53
564.37	1662.95
564.56	1742.82
564.76	1697.77
564.96	1812.45
565.15	1722.34
565.35	1888.23
565.54	1701.86
565.74	1841.12
565.93	1636.33
566.13	1767.40
566.32	1810.40
566.52	1753.06
566.71	1755.11
566.91	1800.16
567.11	1681.38
567.30	1720.29
567.50	1730.53
567.69	1669.09
567.89	1761.25
568.08	1738.73
568.28	1843.17
568.47	1626.09
568.67	1714.15
568.86	1718.25
569.06	1705.96
569.25	1769.44
569.45	1624.04
569.64	1679.33
569.84	1781.73
570.04	1748.97
570.23	1650.66
570.43	1724.39
570.62	1765.35
570.82	1773.54
571.01	1691.62
571.21	1701.86
571.40	1626.09
571.60	1757.16
571.79	1738.73
571.99	1785.83
572.18	1697.77
572.38	1775.59
572.57	1693.67
572.77	1773.54
572.96	1935.33
573.16	1728.49
573.35	1777.64
573.55	1873.89
573.74	1748.97
573.94	1699.81
574.13	1732.58
574.33	1759.21
574.52	1779.68
574.71	1757.16
574.91	1777.64
575.10	1640.42
575.30	1683.43
575.49	1728.49
575.69	1732.58
575.88	1710.05
576.08	1722.34
576.27	1814.50
576.47	1759.21
576.66	1796.07
576.86	1914.85
577.05	1773.54
577.25	1800.16
577.44	1824.74
577.64	1656.81
577.83	1830.88
578.02	1705.96
578.22	1773.54
578.41	1851.36
578.61	1685.48
578.80	1630.18
579.00	1765.35
579.19	1714.15
579.39	1834.98
579.58	1755.11
579.77	1718.25
579.97	1865.70
580.16	1783.78
580.36	1828.84
580.55	1882.08
580.75	1751.01
580.94	1755.11
581.13	1789.92
581.33	1882.08
581.52	1773.54
581.72	1912.80
581.91	1775.59
582.11	1699.81
582.30	1777.64
582.49	1771.49
582.69	1882.08
582.88	1720.29
583.08	1812.45
583.27	1730.53
583.47	1767.40
583.66	1714.15
583.85	1712.10
584.05	1775.59
584.24	1734.63
584.44	1681.38
584.63	1818.60
584.82	1841.12
585.02	1816.55
585.21	1806.31
585.41	1775.59
585.60	1777.64
585.79	1935.33
585.99	1961.95
586.18	1822.69
586.37	2166.75
586.57	3373.00
586.76	10067.81
586.96	25005.70
587.15	35071.46
587.34	41538.95
587.54	43089.26
587.73	36984.27
587.93	26623.59
588.12	21921.46
588.31	18816.74
588.51	16512.77
588.70	15449.88
588.89	14591.78
589.09	12822.33
589.28	11269.97
589.47	9549.68
589.67	8105.86
589.86	6633.37
590.06	5050.29
590.25	3985.35
590.44	3106.77
590.64	2656.22
590.83	2226.14
591.02	2047.97
591.22	1900.52
591.41	1888.23
591.60	1826.79
591.80	1935.33
591.99	1806.31
592.18	1695.72
592.38	1808.36
592.57	1730.53
592.76	1779.68
592.96	1789.92
593.15	1755.11
593.34	1843.17
593.54	1843.17
593.73	1890.28
593.92	1783.78
594.12	1755.11
594.31	1728.49
594.50	1800.16
594.70	1824.74
594.89	1826.79
595.08	1689.57
595.28	1740.77
595.47	1964.00
595.66	1761.25
595.86	1621.99
596.05	1771.49
596.24	1669.09
596.43	1951.71
596.63	1773.54
596.82	1794.02
597.01	1763.30
597.21	1816.55
597.40	1757.16
597.59	1712.10
597.79	1710.05
597.98	1771.49
598.17	1751.01
598.36	1734.63
598.56	1691.62
598.75	1730.53
598.94	1751.01
599.14	1718.25
599.33	1744.87
599.52	1773.54
599.71	1767.40
599.91	1787.88
600.10	1738.73
600.29	1714.15
600.48	1712.10
600.68	1796.07
600.87	1751.01
601.06	1738.73
601.26	1738.73
601.45	1812.45
601.64	1679.33
601.83	1765.35
602.03	1691.62
602.22	1746.92
602.41	1697.77
602.60	1830.88
602.80	1822.69
602.99	1714.15
603.18	1683.43
603.37	1746.92
603.57	1800.16
603.76	1712.10
603.95	1798.12
604.14	1693.67
604.34	1705.96
604.53	1726.44
604.72	1699.81
604.91	1781.73
605.10	1777.64
605.30	1681.38
605.49	1849.32
605.68	1828.84
605.87	1785.83
606.07	1671.14
606.26	1660.90
606.45	1812.45
606.64	1785.83
606.84	1720.29
607.03	1746.92
607.22	1732.58
607.41	1689.57
607.60	1675.24
607.80	1759.21
607.99	1761.25
608.18	1730.53
608.37	1779.68
608.56	1781.73
608.76	1783.78
608.95	1810.40
609.14	1812.45
609.33	1796.07
609.52	1751.01
609.72	1720.29
609.91	1728.49
610.10	1724.39
610.29	1814.50
610.48	1755.11
610.68	1699.81
610.87	1675.24
611.06	1765.35
611.25	1730.53
611.44	1820.64
611.63	1673.19
611.83	1779.68
612.02	1685.48
612.21	1800.16
612.40	1638.38
612.59	1603.56
612.79	1671.14
612.98	1691.62
613.17	1726.44
613.36	1744.87
613.55	1875.94
613.74	1613.80
613.93	1734.63
614.13	1732.58
614.32	1681.38
614.51	1746.92
614.70	1794.02
614.89	1660.90
615.08	1759.21
615.28	2082.78
615.47	1671.14
615.66	1722.34
615.85	1740.77
616.04	1859.56
616.23	1718.25
616.42	1746.92
616.62	1806.31
616.81	1779.68
617.00	1705.96
617.19	1822.69
617.38	1738.73
617.57	1777.64
617.76	1728.49
617.95	1818.60
618.15	1744.87
618.34	1804.26
618.53	1646.57
618.72	1781.73
618.91	1822.69
619.10	1791.97
619.29	1689.57
619.48	1673.19
619.68	1699.81
619.87	1720.29
620.06	1611.75
620.25	1740.77
620.44	1726.44
620.63	1718.25
620.82	1738.73
621.01	1777.64
621.20	1689.57
621.39	1722.34
621.59	1677.29
621.78	1660.90
621.97	1746.92
622.16	1730.53
622.35	1732.58
622.54	1759.21
622.73	1759.21
622.92	1652.71
623.11	1673.19
623.30	1703.91
623.49	1832.93
623.68	1615.85
623.88	1808.36
624.07	1775.59
624.26	1732.58
624.45	1779.68
624.64	1683.43
624.83	1728.49
625.02	1705.96
625.21	1814.50
625.40	1701.86
625.59	1767.40
625.78	1724.39
625.97	1732.58
626.16	1730.53
626.35	1796.07
626.54	1748.97
626.74	1783.78
626.93	1720.29
627.12	1757.16
627.31	1800.16
627.50	1781.73
627.69	1720.29
627.88	1742.82
628.07	1699.81
628.26	1691.62
628.45	1650.66
628.64	1613.80
628.83	1761.25
629.02	1632.23
629.21	1798.12
629.40	1712.10
629.59	1671.14
629.78	1669.09
629.97	1724.39
630.16	1728.49
630.35	1705.96
630.54	1761.25
630.73	1761.25
630.92	1730.53
631.11	1626.09
631.30	1755.11
631.49	1742.82
631.68	1640.42
631.87	1814.50
632.06	1703.91
632.25	1826.79
632.44	1687.53
632.63	1738.73
632.82	1654.76
633.01	1736.68
633.20	1710.05
633.39	1654.76
633.58	1593.32
633.77	1746.92
633.96	1730.53
634.15	1685.48
634.34	1718.25
634.53	1624.04
634.72	1732.58
634.91	1640.42
635.10	1767.40
635.29	1681.38
635.48	1738.73
635.67	1689.57
635.86	1714.15
636.05	1814.50
636.24	1722.34
636.43	1708.01
636.62	1810.40
636.81	1556.46
637.00	1677.29
637.19	1726.44
637.38	1771.49
637.57	1660.90
637.76	1708.01
637.95	1708.01
638.14	1665.00
638.33	1665.00
638.52	1736.68
638.71	1654.76
638.89	1607.66
639.08	1845.22
639.27	1720.29
639.46	1673.19
639.65	1771.49
639.84	1785.83
640.03	1757.16
640.22	1673.19
640.41	1826.79
640.60	1683.43
640.79	1685.48
640.98	1677.29
641.17	1650.66
641.36	1714.15
641.55	1751.01
641.74	1595.37
641.92	1619.94
642.11	1689.57
642.30	1705.96
642.49	1648.61
642.68	1640.42
642.87	1732.58
643.06	1710.05
643.25	1701.86
643.44	1669.09
643.63	1669.09
643.82	1732.58
644.00	1748.97
644.19	1708.01
644.38	1648.61
644.57	1728.49
644.76	1736.68
644.95	1740.77
645.14	1701.86
645.33	1695.72
645.52	1673.19
645.71	1687.53
645.89	1658.85
646.08	1669.09
646.27	1685.48
646.46	1830.88
646.65	1619.94
646.84	1716.20
647.03	1736.68
647.22	1800.16
647.40	1730.53
647.59	1619.94
647.78	1654.76
647.97	1726.44
648.16	1660.90
648.35	1773.54
648.54	1771.49
648.73	1691.62
648.91	1742.82
649.10	1783.78
649.29	1654.76
649.48	1783.78
649.67	1771.49
649.86	1710.05
650.05	1728.49
650.23	1765.35
650.42	1624.04
650.61	1660.90
650.80	1681.38
650.99	1812.45
651.18	1738.73
651.36	1779.68
651.55	1712.10
651.74	1718.25
651.93	1667.05
652.12	1691.62
652.31	1685.48
652.49	1710.05
652.68	1736.68
652.87	1789.92
653.06	1656.81
653.25	1828.84
653.44	1681.38
653.62	1824.74
653.81	1744.87
654.00	1728.49
654.19	1732.58
654.38	1849.32
654.56	1673.19
654.75	1660.90
654.94	1787.88
655.13	1708.01
655.32	1710.05
655.51	1742.82
655.69	1695.72
655.88	1794.02
656.07	1669.09
656.26	1775.59
656.45	1695.72
656.63	1675.24
656.82	1814.50
657.01	1767.40
657.20	1771.49
657.38	1826.79
657.57	1712.10
657.76	1730.53
657.95	1693.67
658.14	1714.15
658.32	1730.53
658.51	1736.68
658.70	1753.06
658.89	1699.81
659.08	1611.75
659.26	1785.83
659.45	1695.72
659.64	1734.63
659.83	1685.48
660.01	1959.91
660.20	1720.29
660.39	1828.84
660.58	1708.01
660.76	1714.15
660.95	1697.77
661.14	1746.92
661.33	1697.77
661.51	1677.29
661.70	1662.95
661.89	1718.25
662.08	1761.25
662.26	1642.47
662.45	1667.05
662.64	1841.12
662.83	1751.01
663.01	1613.80
663.20	1634.28
663.39	1820.64
663.58	1697.77
663.76	1802.21
663.95	1806.31
664.14	1669.09
664.32	1656.81
664.51	1705.96
664.70	1665.00
664.89	1648.61
665.07	1636.33
665.26	1738.73
665.45	1615.85
665.64	1753.06
665.82	1697.77
666.01	1726.44
666.20	1718.25
666.38	1779.68
666.57	1845.22
666.76	2232.29
666.95	4730.81
667.13	10641.25
667.32	15699.73
667.51	18155.24
667.69	19330.78
667.88	17966.83
668.07	12404.55
668.25	9668.46
668.44	8361.86
668.63	7628.68
668.81	6963.09
669.00	6494.11
669.19	5662.63
669.38	5158.83
669.56	4605.88
669.75	4026.31
669.94	3454.92
670.12	2959.31
670.31	2615.26
670.50	2197.47
670.68	2066.40
670.87	1918.95
671.06	1808.36
671.24	1796.07
671.43	1826.79
671.62	1769.44
671.80	1667.05
671.99	1746.92
672.18	1726.44
672.36	1738.73
672.55	1765.35
672.74	1744.87
672.92	1665.00
673.11	1796.07
673.29	1697.77
673.48	1695.72
673.67	1675.24
673.85	1783.78
674.04	1632.23
674.23	1689.57
674.41	1818.60
674.60	1619.94
674.79	1605.61
674.97	1730.53
675.16	1785.83
675.34	1763.30
675.53	1677.29
675.72	1736.68
675.90	1746.92
676.09	1691.62
676.28	1705.96
676.46	1632.23
676.65	1757.16
676.83	1761.25
677.02	1744.87
677.21	1691.62
677.39	1714.15
677.58	1630.18
677.77	1732.58
677.95	1703.91
678.14	1740.77
678.32	1638.38
678.51	1697.77
678.70	1816.55
678.88	1611.75
679.07	1757.16
679.25	1636.33
679.44	1693.67
679.63	1677.29
679.81	1714.15
680.00	1794.02
680.18	1718.25
680.37	1759.21
680.55	1701.86
680.74	1626.09
680.93	1652.71
681.11	1697.77
681.30	1720.29
681.48	1738.73
681.67	1650.66
681.85	1716.20
682.04	1767.40
682.23	1636.33
682.41	1712.10
682.60	1652.71
682.78	1646.57
682.97	1601.51
683.15	1767.40
683.34	1701.86
683.53	1724.39
683.71	1636.33
683.90	1798.12
684.08	1798.12
684.27	1601.51
684.45	1710.05
684.64	1800.16
684.82	1714.15
685.01	1673.19
685.19	1681.38
685.38	1759.21
685.57	1720.29
685.75	1652.71
685.94	1646.57
686.12	1724.39
686.31	1701.86
686.49	1777.64
686.68	1605.61
686.86	1751.01
687.05	1677.29
687.23	1812.45
687.42	1730.53
687.60	1632.23
687.79	1765.35
687.97	1812.45
688.16	1808.36
688.34	1757.16
688.53	1570.79
688.71	1769.44
688.90	1843.17
689.08	1748.97
689.27	1650.66
689.45	1671.14
689.64	1765.35
689.82	1626.09
690.01	1738.73
690.19	1779.68
690.38	1701.86
690.56	1769.44
690.75	1665.00
690.93	1656.81
691.12	1730.53
691.30	1681.38
691.49	1660.90
691.67	1697.77
691.86	1816.55
692.04	1665.00
692.23	1726.44
692.41	1703.91
692.60	1882.08
692.78	1820.64
692.97	1767.40
693.15	1773.54
693.34	1781.73
693.52	1734.63
693.71	1742.82
693.89	1656.81
694.08	1624.04
694.26	1708.01
694.44	1642.47
694.63	1755.11
694.81	1660.90
695.00	1718.25
695.18	1755.11
695.37	1861.60
695.55	1763.30
695.74	1730.53
695.92	1677.29
696.10	1773.54
696.29	1656.81
696.47	1744.87
696.66	1640.42
696.84	1669.09
697.03	1730.53
697.21	1832.93
697.40	2287.58
697.58	1724.39
697.76	1648.61
697.95	1675.24
698.13	1615.85
698.32	1607.66
698.50	1703.91
698.68	1798.12
698.87	1660.90
699.05	1718.25
699.24	1691.62
699.42	1636.33
699.61	1675.24
699.79	1724.39
699.97	1710.05
700.16	1667.05
700.34	1601.51
700.53	1740.77
700.71	1781.73
700.89	1771.49
701.08	1718.25
701.26	1697.77
701.45	2068.45
701.63	1710.05
701.81	1710.05
702.00	1648.61
702.18	1734.63
702.37	1675.24
702.55	1681.38
702.73	1652.71
702.92	1570.79
703.10	1736.68
703.28	1722.34
703.47	1710.05
703.65	1789.92
703.84	1699.81
704.02	1587.18
704.20	1865.70
704.39	1632.23
704.57	1681.38
704.75	1785.83
704.94	1837.03
705.12	1740.77
705.30	1755.11
705.49	2297.82
705.67	4468.67
705.86	9496.43
706.04	13066.04
706.22	14864.16
706.41	15781.65
706.59	13883.18
706.77	9822.06
706.96	7571.34
707.14	6764.44
707.32	6035.36
707.51	5529.52
707.69	4921.27
707.87	4382.65
708.06	3635.14
708.24	3047.38
708.42	2488.28
708.61	2191.33
708.79	1853.41
708.97	1841.12
709.16	1875.94
709.34	1722.34
709.52	1748.97
709.71	1751.01
709.89	1748.97
710.07	1685.48
710.26	1665.00
710.44	1589.22
710.62	1794.02
710.80	1728.49
710.99	1736.68
711.17	1718.25
711.35	1665.00
711.54	1611.75
711.72	1882.08
711.90	1777.64
712.09	1683.43
712.27	1656.81
712.45	1732.58
712.63	1708.01
712.82	1716.20
713.00	1685.48
713.18	1800.16
713.37	1722.34
713.55	1730.53
713.73	1691.62
713.91	1710.05
714.10	1691.62
714.28	1710.05
714.46	1738.73
714.65	1710.05
714.83	1728.49
715.01	1703.91
715.19	1755.11
715.38	1619.94
715.56	1714.15
715.74	1673.19
715.92	1583.08
716.11	1767.40
716.29	1570.79
716.47	1626.09
716.65	1665.00
716.84	1662.95
717.02	1738.73
717.20	1581.03
717.38	1669.09
717.57	1720.29
717.75	1683.43
717.93	1677.29
718.11	1697.77
718.30	1718.25
718.48	1660.90
718.66	1781.73
718.84	1726.44
719.03	1689.57
719.21	1564.65
719.39	1781.73
719.57	1763.30
719.75	1658.85
719.94	1656.81
720.12	1660.90
720.30	1640.42
720.48	1759.21
720.67	1710.05
720.85	1656.81
721.03	1638.38
721.21	1593.32
721.39	1812.45
721.58	1746.92
721.76	1710.05
721.94	1763.30
722.12	1744.87
722.30	1845.22
722.49	1705.96
722.67	1673.19
722.85	1679.33
723.03	1648.61
723.21	1652.71
723.40	1722.34
723.58	1769.44
723.76	1689.57
723.94	1759.21
724.12	1720.29
724.30	1740.77
724.49	1779.68
724.67	1593.32
724.85	1738.73
725.03	1675.24
725.21	1746.92
725.40	1755.11
725.58	1699.81
725.76	1791.97
725.94	1669.09
726.12	1626.09
726.30	1724.39
726.49	1681.38
726.67	1748.97
726.85	1738.73
727.03	1845.22
727.21	2205.66
727.39	2957.27
727.57	3876.80
727.76	4157.38
727.94	4472.76
728.12	4345.79
728.30	3645.38
728.48	2996.18
728.66	2717.65
728.84	2529.24
729.03	2295.77
729.21	2232.29
729.39	2058.21
729.57	1800.16
729.75	1716.20
729.93	1759.21
730.11	1714.15
730.30	1609.70
730.48	1665.00
730.66	1763.30
730.84	1798.12
731.02	1673.19
731.20	1683.43
731.38	1701.86
731.56	1656.81
731.74	1679.33
731.93	1716.20
732.11	1736.68
732.29	1705.96
732.47	1738.73
732.65	1681.38
732.83	1773.54
733.01	1724.39
733.19	1673.19
733.37	1742.82
733.56	1765.35
733.74	1730.53
733.92	1736.68
734.10	1671.14
734.28	1673.19
734.46	1665.00
734.64	1619.94
734.82	1665.00
735.00	1634.28
735.18	1675.24
735.36	1685.48
735.54	1671.14
735.73	1761.25
735.91	1669.09
736.09	1771.49
736.27	1708.01
736.45	1720.29
736.63	1624.04
736.81	1703.91
736.99	1736.68
737.17	1751.01
737.35	1662.95
737.53	1730.53
737.71	1652.71
737.89	1765.35
738.07	1693.67
738.25	1619.94
738.43	1642.47
738.61	1771.49
738.80	1578.98
738.98	1683.43
739.16	1658.85
739.34	1628.14
739.52	1724.39
739.70	1701.86
739.88	1732.58
740.06	1771.49
740.24	1505.26
740.42	1767.40
740.60	1630.18
740.78	1636.33
740.96	1568.74
741.14	1642.47
741.32	1693.67
741.50	1732.58
741.68	1814.50
741.86	1832.93
742.04	1640.42
742.22	1634.28
742.40	1718.25
742.58	1755.11
742.76	1652.71
742.94	1912.80
743.12	1574.89
743.30	1710.05
743.48	1722.34
743.66	1638.38
743.84	1765.35
744.02	1714.15
744.20	1691.62
744.38	1742.82
744.56	1656.81
744.74	1748.97
744.92	1726.44
745.10	1773.54
745.28	1808.36
745.46	1818.60
745.64	1669.09
745.82	1830.88
746.00	1789.92
746.18	1720.29
746.36	1619.94
746.54	1718.25
746.72	1697.77
746.90	1634.28
747.08	1767.40
747.26	1611.75
747.44	1804.26
747.62	1763.30
747.80	1683.43
747.98	1736.68
748.15	1722.34
748.33	1806.31
748.51	1652.71
748.69	1722.34
748.87	1603.56
749.05	1701.86
749.23	1673.19
749.41	1742.82
749.59	1701.86
749.77	1796.07
749.95	1599.46
750.13	1652.71
750.31	1771.49
750.49	1652.71
750.67	1677.29
750.85	1761.25
751.03	1673.19
751.20	1832.93
751.38	1730.53
751.56	1673.19
751.74	1617.90
751.92	1724.39
752.10	1697.77
752.28	1746.92
752.46	1638.38
752.64	1701.86
752.82	1683.43
753.00	1808.36
753.18	1712.10
753.35	1671.14
753.53	1742.82
753.71	1722.34
753.89	1695.72
754.07	1714.15
754.25	1781.73
754.43	1722.34
754.61	1720.29
754.79	1720.29
754.97	1683.43
755.14	1841.12
755.32	1560.55
755.50	1640.42
755.68	1669.09
755.86	1646.57
756.04	1642.47
756.22	1648.61
756.40	1763.30
756.57	1800.16
756.75	1679.33
756.93	1787.88
757.11	1757.16
757.29	1665.00
757.47	1716.20
757.65	1642.47
757.82	1636.33
758.00	1681.38
758.18	1646.57
758.36	1619.94
758.54	1714.15
758.72	1693.67
758.90	1712.10
759.07	1734.63
759.25	1660.90
759.43	1712.10
759.61	1644.52
759.79	2105.31
759.97	1734.63
760.15	1722.34
760.32	1701.86
760.50	1671.14
760.68	1650.66
760.86	1642.47
761.04	1724.39
761.22	1761.25
761.39	1742.82
761.57	1755.11
761.75	1724.39
761.93	1763.30
762.11	1662.95
762.28	1683.43
762.46	1640.42
762.64	1732.58
762.82	1652.71
763.00	1648.61
763.18	1787.88
763.35	1601.51
763.53	1767.40
763.71	1681.38
763.89	1751.01
764.07	1669.09
764.24	1728.49
764.42	1734.63
764.60	1701.86
764.78	1712.10
764.96	1798.12
765.13	1701.86
765.31	1662.95
765.49	1722.34
765.67	1724.39
765.84	1630.18
766.02	1716.20
766.20	1621.99
766.38	1783.78
766.56	1734.63
766.73	1718.25
766.91	1691.62
767.09	1681.38
767.27	1712.10
767.44	1675.24
767.62	1761.25
767.80	1665.00
767.98	1722.34
768.15	1673.19
768.33	1716.20
768.51	1687.53
768.69	1722.34
768.87	1669.09
769.04	1624.04
769.22	1845.22
769.40	1787.88
769.58	1873.89
769.75	1714.15
769.93	1818.60
770.11	1669.09
770.28	1648.61
770.46	1714.15
770.64	1654.76
770.82	1708.01
770.99	1642.47
771.17	1767.40
771.35	1640.42
771.53	1718.25
771.70	1640.42
771.88	1681.38
772.06	1710.05
772.23	1656.81
772.41	1744.87
772.59	1599.46
772.77	1720.29
772.94	1662.95
773.12	1791.97
773.30	1701.86
773.47	1796.07
773.65	1601.51
773.83	1787.88
774.01	1734.63
774.18	1634.28
774.36	1669.09
774.54	1619.94
774.71	1734.63
774.89	1560.55
775.07	1671.14
775.24	1615.85
775.42	1753.06
775.60	1765.35
775.78	1665.00
775.95	1566.70
776.13	1677.29
776.31	1607.66
776.48	1652.71
776.66	1785.83
776.84	1644.52
777.01	1624.04
777.19	1705.96
777.37	1671.14
777.54	1800.16
777.72	1806.31
777.90	1695.72
778.07	1720.29
778.25	1830.88
778.43	1714.15
778.60	1755.11
778.78	1736.68
778.96	1703.91
779.13	1658.85
779.31	1767.40
779.49	1689.57
779.66	1652.71
779.84	1683.43
780.01	1699.81
780.19	1656.81
780.37	1763.30
780.54	1724.39
780.72	1607.66
780.90	1673.19
781.07	1697.77
781.25	1605.61
781.43	1726.44
781.60	1697.77
781.78	1703.91
781.95	1730.53
782.13	1656.81
782.31	1685.48
782.48	1574.89
782.66	1722.34
782.83	1746.92
783.01	1738.73
783.19	1751.01
783.36	1589.22
783.54	1669.09
783.72	1753.06
783.89	1697.77
784.07	1777.64
784.24	1689.57
784.42	1808.36
784.60	1708.01
784.77	1785.83
784.95	1544.17
785.12	1667.05
785.30	1726.44
785.47	1595.37
785.65	1624.04
785.83	1742.82
786.00	1710.05
786.18	1710.05
786.35	1591.27
786.53	1591.27
786.71	1736.68
786.88	1718.25
787.06	1665.00
787.23	1673.19
787.41	1650.66
787.58	1687.53
787.76	1699.81
787.94	1634.28
788.11	1712.10
788.29	1697.77
788.46	1587.18
788.64	1583.08
788.81	1681.38
788.99	1660.90
789.16	1665.00
789.34	1595.37
789.52	1654.76
789.69	1675.24
789.87	1624.04
790.04	1654.76
790.22	1660.90
790.39	1834.98
790.57	1671.14
790.74	1615.85
790.92	1769.44
791.09	1593.32
791.27	1695.72
791.44	1906.66
791.62	1722.34
791.79	1746.92
791.97	1652.71
792.15	1898.47
792.32	1667.05
792.50	1769.44
792.67	1720.29
792.85	1763.30
793.02	1712.10
793.20	1718.25
793.37	1650.66
793.55	1681.38
793.72	1673.19
793.90	1714.15
794.07	1669.09
794.25	1689.57
794.42	1658.85
794.60	1669.09
794.77	1669.09
794.95	1816.55
795.12	1796.07
795.30	1732.58
795.47	1597.42
795.65	1886.18
795.82	1681.38
796.00	1646.57
796.17	1660.90
796.34	1675.24
796.52	1628.14
796.69	1787.88
796.87	1710.05
797.04	1705.96
797.22	1705.96
797.39	1712.10
797.57	1767.40
797.74	1685.48
797.92	1705.96
798.09	1701.86
798.27	1716.20
798.44	1724.39
798.62	1681.38
798.79	1671.14
798.96	1644.52
799.14	1699.81
799.31	1882.08
799.49	1740.77
799.66	1650.66
799.84	1724.39
800.01	1558.50
800.19	1677.29
800.36	1632.23
800.53	1722.34
800.71	1681.38
800.88	1781.73
801.06	1665.00
801.23	1626.09
801.41	1621.99
801.58	1630.18
801.75	1724.39
801.93	1697.77
802.10	1720.29
802.28	1732.58
802.45	1695.72
802.63	1705.96
802.80	1730.53
802.97	1660.90
803.15	1652.71
803.32	1650.66
803.50	1589.22
803.67	1726.44
803.84	1658.85
804.02	1630.18
804.19	1734.63
804.37	1628.14
804.54	1691.62
804.71	1669.09
804.89	1751.01
805.06	1630.18
805.24	1736.68
805.41	1667.05
805.58	1726.44
805.76	1746.92
805.93	1708.01
806.10	1748.97
806.28	1742.82
806.45	1734.63
806.63	1755.11
806.80	1693.67
806.97	1712.10
807.15	1718.25
807.32	1693.67
807.49	1603.56
807.67	1566.70
807.84	1769.44
808.01	1562.60
808.19	1822.69
808.36	1814.50
808.54	1669.09
808.71	1640.42
808.88	1722.34
809.06	1746.92
809.23	1779.68
809.40	1720.29
809.58	1800.16
809.75	1742.82
809.92	1687.53
810.10	1886.18
810.27	1708.01
810.44	1697.77
810.62	1697.77
810.79	1726.44
810.96	1671.14
811.14	1619.94
811.31	1755.11
811.48	1685.48
811.66	1658.85
811.83	1802.21
812.00	1724.39
812.18	1675.24
812.35	1845.22
812.52	1716.20
812.69	1777.64
812.87	1673.19
813.04	1718.25
813.21	1703.91
813.39	1701.86
813.56	1615.85
813.73	1779.68
813.91	1621.99
814.08	1716.20
814.25	1681.38
814.42	1591.27
814.60	1718.25
814.77	1712.10
814.94	1761.25
815.12	1757.16
815.29	1808.36
815.46	1667.05
815.63	1681.38
815.81	1691.62
815.98	1687.53
816.15	1724.39
816.33	1703.91
816.50	1658.85
816.67	1714.15
816.84	1615.85
817.02	1708.01
817.19	1673.19
817.36	1701.86
817.53	1763.30
817.71	1570.79
817.88	1708.01
818.05	1759.21
818.22	1734.63
818.40	1800.16
818.57	1736.68
818.74	1705.96
818.91	1710.05
819.09	1695.72
819.26	1681.38
819.43	1630.18
819.60	1714.15
819.78	1736.68
819.95	1845.22
820.12	1619.94
820.29	1742.82
820.47	1712.10
820.64	1621.99
820.81	1591.27
820.98	1589.22
821.15	1646.57
821.33	1726.44
821.50	1687.53
821.67	1736.68
821.84	1648.61
822.02	1691.62
822.19	1787.88
822.36	1626.09
822.53	1781.73
822.70	1675.24
822.88	1697.77
823.05	1775.59
823.22	1648.61
823.39	1751.01
823.56	1603.56
823.74	1847.27
823.91	1673.19
824.08	1613.80
824.25	1642.47
824.42	1812.45
824.60	1687.53
824.77	1699.81
824.94	1679.33
825.11	1787.88
825.28	1658.85
825.45	1753.06
825.63	1722.34
825.80	1640.42
825.97	1710.05
826.14	1734.63
826.31	1632.23
826.48	1822.69
826.66	1617.90
826.83	1705.96
827.00	1662.95
827.17	1681.38
827.34	1724.39
827.51	1740.77
827.69	1712.10
827.86	1613.80
828.03	1724.39
828.20	1656.81
828.37	1714.15
828.54	1734.63
828.71	1644.52
828.89	1732.58
829.06	1720.29
829.23	1732.58
829.40	1679.33
829.57	1693.67
829.74	1796.07
829.91	1611.75
830.09	1621.99
830.26	1771.49
830.43	1863.65
830.60	1691.62
830.77	1656.81
830.94	1703.91
831.11	1726.44
831.28	1675.24
831.46	1759.21
831.63	1656.81
831.80	1767.40
831.97	1660.90
832.14	1687.53
832.31	1781.73
832.48	1730.53
832.65	1718.25
832.82	1724.39
832.99	1740.77
833.17	1673.19
833.34	1738.73
833.51	1699.81
833.68	1611.75
833.85	1824.74
834.02	1691.62
834.19	1685.48
834.36	1654.76
834.53	1677.29
834.70	1845.22
834.87	1763.30
835.04	1648.61
835.22	1669.09
835.39	1693.67
835.56	1611.75
835.73	1634.28
835.90	1777.64
836.07	1613.80
836.24	1708.01
836.41	1648.61
836.58	1632.23
836.75	1697.77
836.92	1705.96
837.09	1648.61
837.26	1695.72
837.43	1755.11
837.60	1652.71
837.77	1679.33
837.94	1677.29
838.12	1757.16
838.29	1695.72
838.46	1656.81
838.63	1658.85
838.80	1751.01
838.97	1765.35
839.14	1689.57
839.31	1710.05
839.48	1728.49
839.65	1689.57
839.82	1744.87
839.99	1726.44
840.16	1630.18
840.33	1636.33
840.50	1667.05
840.67	1656.81
840.84	1648.61
841.01	1679.33
841.18	1652.71
841.35	1636.33
841.52	1720.29
841.69	1820.64
841.86	1705.96
842.03	1601.51
842.20	1714.15
842.37	1671.14
842.54	1738.73
842.71	1726.44
842.88	1648.61
843.05	1732.58
843.22	1662.95
843.39	1734.63
843.56	1689.57
843.73	1630.18
843.90	1685.48
844.07	1675.24
844.24	1771.49
844.41	1759.21
844.58	1708.01
844.75	1798.12
844.92	1755.11
845.09	1705.96
845.26	1619.94
845.43	1667.05
845.60	1705.96
845.77	1736.68
845.94	1681.38
846.10	1767.40
846.27	1648.61
846.44	1630.18
846.61	1697.77
846.78	1685.48
846.95	1796.07
847.12	1566.70
847.29	1734.63
847.46	1599.46
847.63	1761.25
847.80	1675.24
847.97	1675.24
848.14	1738.73
848.31	1611.75
848.48	1617.90
848.65	1759.21
848.82	1683.43
848.98	1828.84
849.15	1761.25
849.32	1757.16
849.49	1763.30
849.66	1669.09
849.83	1748.97
850.00	1611.75
850.17	1677.29
850.34	1685.48
850.51	1701.86
850.68	1611.75
850.85	1841.12
851.01	1742.82
851.18	1722.34
851.35	1679.33
851.52	1621.99
851.69	1738.73
851.86	1570.79
852.03	1722.34
852.20	1742.82
852.37	1677.29
852.53	1533.93
852.70	1697.77
852.87	1683.43
853.04	1779.68
853.21	1699.81
853.38	1718.25
853.55	1759.21
853.72	1796.07
853.89	1628.14
854.05	1703.91
854.22	1656.81
854.39	1652.71
854.56	1755.11
854.73	1763.30
854.90	1603.56
855.07	1746.92
855.23	1730.53
855.40	1656.81
855.57	1718.25
855.74	1644.52
855.91	1882.08
856.08	1632.23
856.25	1648.61
856.41	1685.48
856.58	1708.01
856.75	1665.00
856.92	1587.18
857.09	1816.55
857.26	1665.00
857.42	1683.43
857.59	1705.96
857.76	1669.09
857.93	1810.40
858.10	1708.01
858.27	1619.94
858.43	1701.86
858.60	1607.66
858.77	1708.01
858.94	1695.72
859.11	1685.48
859.27	1662.95
859.44	1779.68
859.61	1830.88
859.78	1703.91
859.95	1685.48
860.12	1703.91
860.28	1771.49
860.45	1820.64
860.62	1701.86
860.79	1708.01
860.95	1689.57
861.12	1611.75
861.29	1714.15
861.46	1689.57
861.63	1757.16
861.79	1648.61
861.96	1665.00
862.13	1660.90
862.30	1804.26
862.47	1640.42
862.63	1656.81
862.80	1765.35
862.97	1656.81
863.14	1693.67
863.30	1681.38
863.47	1601.51
863.64	1640.42
863.81	1734.63
863.97	1708.01
864.14	1665.00
864.31	1683.43
864.48	1789.92
864.65	1716.20
864.81	1683.43
864.98	1732.58
865.15	1753.06
865.32	1730.53
865.48	1730.53
865.65	1703.91
865.82	1679.33
865.98	1726.44
866.15	1812.45
866.32	1681.38
866.49	1660.90
866.65	1775.59
866.82	1566.70
866.99	1703.91
867.16	1720.29
867.32	1652.71
867.49	1673.19
867.66	1683.43
867.83	1669.09
867.99	1681.38
868.16	1716.20
868.33	1560.55
868.49	1677.29
868.66	1665.00
868.83	1714.15
868.99	1646.57
869.16	1718.25
869.33	1689.57
869.50	1753.06
869.66	1730.53
869.83	1693.67
870.00	1652.71
870.16	1757.16
870.33	1689.57
870.50	1697.77
870.66	1685.48
870.83	1796.07
871.00	1691.62
871.17	1812.45
871.33	1748.97
871.50	1689.57
871.67	1652.71
871.83	1644.52
872.00	1828.84
872.17	1708.01
872.33	1820.64
872.50	1816.55
872.67	1681.38
872.83	1708.01
873.00	1763.30
873.17	1730.53
873.33	1691.62
873.50	1757.16
873.67	1605.61
873.83	1634.28
874.00	1671.14
874.16	1787.88
874.33	1691.62
874.50	1628.14
874.66	1673.19
874.83	1779.68
875.00	1794.02
875.16	1738.73
875.33	1638.38
875.50	1636.33
875.66	1720.29
875.83	1708.01
875.99	1779.68
876.16	1650.66
876.33	1607.66
876.49	1648.61
876.66	1751.01
876.83	1689.57
876.99	1679.33
877.16	1738.73
877.32	1619.94
877.49	1703.91
877.66	1720.29
877.82	1830.88
877.99	1710.05
878.15	1742.82
878.32	1675.24
878.49	1738.73
878.65	1636.33
878.82	1751.01
878.98	1710.05
879.15	1685.48
879.32	1755.11
879.48	1781.73
879.65	1746.92
879.81	1624.04
879.98	1671.14
880.15	1712.10
880.31	1705.96
880.48	1701.86
880.64	1779.68
880.81	1781.73
880.97	1832.93
881.14	1671.14
881.31	1624.04
881.47	1789.92
881.64	1716.20
881.80	1624.04
881.97	1654.76
882.13	1722.34
882.30	1691.62
882.47	1628.14
882.63	1634.28
882.80	1558.50
882.96	1689.57
883.13	1738.73
883.29	1746.92
883.46	1837.03
883.62	1814.50
883.79	1654.76
883.95	1796.07
884.12	1683.43
884.29	1843.17
884.45	1621.99
884.62	1757.16
884.78	1677.29
884.95	1753.06
885.11	1632.23
885.28	1789.92
885.44	1648.61
885.61	1722.34
885.77	1853.41
885.94	1818.60
886.10	1697.77
886.27	1716.20
886.43	1824.74
886.60	1810.40
886.76	1728.49
886.93	1681.38
887.09	1677.29
887.26	1595.37
887.42	1693.67
887.59	1708.01
887.75	1789.92
887.92	1794.02
888.08	1769.44
888.25	1804.26
888.41	1705.96
888.58	1671.14
888.74	1607.66
888.91	1652.71
>>>>>End Processed Spectral Data<<<<<
