SpectraSuite Data File
++++++++++++++++++++++++++++++++++++
Date: Mon Jun 06 15:03:57 CEST 2016
User: root
Dark Spectrum Present: No
Reference Spectrum Present: No
Number of Sampled Component Spectra: 1
Spectrometers: USB4C02835
Integration Time (usec): 100000 (USB4C02835)
Spectra Averaged: 1 (USB4C02835)
Boxcar Smoothing: 0 (USB4C02835)
Correct for Electrical Dark: No (USB4C02835)
Strobe/Lamp Enabled: No (USB4C02835)
Correct for Detector Non-linearity: No (USB4C02835)
Correct for Stray Light: No (USB4C02835)
Number of Pixels in Processed Spectrum: 3648
>>>>>Begin Processed Spectral Data<<<<<
177.47	1427.43
177.69	1427.43
177.91	1427.43
178.13	1486.83
178.36	1499.11
178.58	1654.76
178.80	1665.00
179.02	1617.90
179.24	1615.85
179.46	1683.43
179.68	1679.33
179.90	1701.86
180.13	1730.53
180.35	1677.29
180.57	1675.24
180.79	1757.16
181.01	1695.72
181.23	1699.81
181.45	1769.44
181.67	1761.25
181.90	1738.73
182.12	1638.38
182.34	1576.94
182.56	1720.29
182.78	1714.15
183.00	1722.34
183.22	1751.01
183.44	1619.94
183.66	1867.75
183.89	1720.29
184.11	1689.57
184.33	1650.66
184.55	1734.63
184.77	1660.90
184.99	1708.01
185.21	1652.71
185.43	1832.93
185.65	1652.71
185.87	1753.06
186.10	1779.68
186.32	1832.93
186.54	1656.81
186.76	1761.25
186.98	1712.10
187.20	1673.19
187.42	1708.01
187.64	1677.29
187.86	1746.92
188.08	1730.53
188.30	1710.05
188.52	1675.24
188.75	1740.77
188.97	1767.40
189.19	1669.09
189.41	1669.09
189.63	1712.10
189.85	1576.94
190.07	1644.52
190.29	1578.98
190.51	1703.91
190.73	1654.76
190.95	1791.97
191.17	1687.53
191.39	1581.03
191.61	1675.24
191.84	1712.10
192.06	1718.25
192.28	1619.94
192.50	1849.32
192.72	1730.53
192.94	1767.40
193.16	1712.10
193.38	1789.92
193.60	1642.47
193.82	1748.97
194.04	1730.53
194.26	1744.87
194.48	1724.39
194.70	1605.61
194.92	1716.20
195.14	1763.30
195.36	1617.90
195.58	1683.43
195.80	1708.01
196.02	1662.95
196.24	1660.90
196.46	1728.49
196.69	1667.05
196.91	1943.52
197.13	1636.33
197.35	1607.66
197.57	1738.73
197.79	1759.21
198.01	1712.10
198.23	1695.72
198.45	1683.43
198.67	1662.95
198.89	1748.97
199.11	1708.01
199.33	1638.38
199.55	1570.79
199.77	1734.63
199.99	1714.15
200.21	1685.48
200.43	1654.76
200.65	1615.85
200.87	1593.32
201.09	1730.53
201.31	1751.01
201.53	1818.60
201.75	1703.91
201.97	1708.01
202.19	1728.49
202.41	1710.05
202.63	1783.78
202.85	1687.53
203.07	1626.09
203.29	1675.24
203.51	1656.81
203.73	1662.95
203.95	1884.13
204.17	1665.00
204.39	1724.39
204.61	1683.43
204.83	1595.37
205.05	1785.83
205.27	1726.44
205.49	1855.46
205.71	1734.63
205.93	1671.14
206.15	1636.33
206.37	1740.77
206.59	1673.19
206.81	1705.96
207.03	1679.33
207.25	1632.23
207.47	1783.78
207.69	1650.66
207.91	1796.07
208.13	1740.77
208.34	1560.55
208.56	1654.76
208.78	1697.77
209.00	1658.85
209.22	1638.38
209.44	1730.53
209.66	1611.75
209.88	1705.96
210.10	1683.43
210.32	1748.97
210.54	1693.67
210.76	1636.33
210.98	1789.92
211.20	1617.90
211.42	1695.72
211.64	1816.55
211.86	1724.39
212.08	1763.30
212.30	1671.14
212.52	1660.90
212.74	1677.29
212.96	1720.29
213.17	1755.11
213.39	1724.39
213.61	1785.83
213.83	1632.23
214.05	1640.42
214.27	1710.05
214.49	1611.75
214.71	1673.19
214.93	1771.49
215.15	1714.15
215.37	1736.68
215.59	1566.70
215.81	1718.25
216.03	1767.40
216.24	1708.01
216.46	1693.67
216.68	1607.66
216.90	1718.25
217.12	1767.40
217.34	1726.44
217.56	1783.78
217.78	1718.25
218.00	1839.08
218.22	1662.95
218.44	1710.05
218.66	1794.02
218.87	1845.22
219.09	1642.47
219.31	1757.16
219.53	1710.05
219.75	1619.94
219.97	1697.77
220.19	1677.29
220.41	1767.40
220.63	1767.40
220.85	1726.44
221.06	1699.81
221.28	1812.45
221.50	1689.57
221.72	1722.34
221.94	1724.39
222.16	1720.29
222.38	1761.25
222.60	1791.97
222.82	1732.58
223.03	1697.77
223.25	1611.75
223.47	1636.33
223.69	1787.88
223.91	1710.05
224.13	1701.86
224.35	1660.90
224.57	1785.83
224.78	1697.77
225.00	1529.83
225.22	1724.39
225.44	1718.25
225.66	1787.88
225.88	1656.81
226.10	1757.16
226.32	1767.40
226.53	1791.97
226.75	1679.33
226.97	1705.96
227.19	1701.86
227.41	1642.47
227.63	1689.57
227.85	1654.76
228.06	1718.25
228.28	1755.11
228.50	1800.16
228.72	1697.77
228.94	1652.71
229.16	1552.36
229.37	1648.61
229.59	1636.33
229.81	1785.83
230.03	1716.20
230.25	1632.23
230.47	1660.90
230.69	1673.19
230.90	1703.91
231.12	1683.43
231.34	1665.00
231.56	1755.11
231.78	1603.56
232.00	1759.21
232.21	1656.81
232.43	1728.49
232.65	1605.61
232.87	1769.44
233.09	1648.61
233.30	1648.61
233.52	1722.34
233.74	1712.10
233.96	1650.66
234.18	1763.30
234.40	1687.53
234.61	1796.07
234.83	1576.94
235.05	1636.33
235.27	1865.70
235.49	1763.30
235.70	1665.00
235.92	1728.49
236.14	1742.82
236.36	1916.90
236.58	1589.22
236.79	1763.30
237.01	1646.57
237.23	1558.50
237.45	1841.12
237.67	1730.53
237.88	1703.91
238.10	1826.79
238.32	1605.61
238.54	1628.14
238.76	1722.34
238.97	1679.33
239.19	1650.66
239.41	1775.59
239.63	1775.59
239.85	1638.38
240.06	1800.16
240.28	1751.01
240.50	1759.21
240.72	1681.38
240.93	1611.75
241.15	1689.57
241.37	1683.43
241.59	1828.84
241.81	1714.15
242.02	1671.14
242.24	1759.21
242.46	1705.96
242.68	1748.97
242.89	1665.00
243.11	1718.25
243.33	1732.58
243.55	1748.97
243.76	1734.63
243.98	1652.71
244.20	1681.38
244.42	1660.90
244.64	1744.87
244.85	1646.57
245.07	1679.33
245.29	1656.81
245.51	1748.97
245.72	1798.12
245.94	1812.45
246.16	1712.10
246.38	1703.91
246.59	1601.51
246.81	1679.33
247.03	1724.39
247.24	1535.98
247.46	1679.33
247.68	1652.71
247.90	1689.57
248.11	1667.05
248.33	1675.24
248.55	1656.81
248.77	1665.00
248.98	1740.77
249.20	1769.44
249.42	1732.58
249.64	1732.58
249.85	1646.57
250.07	1677.29
250.29	1751.01
250.50	1746.92
250.72	1648.61
250.94	1699.81
251.16	1759.21
251.37	1726.44
251.59	1736.68
251.81	1736.68
252.02	1785.83
252.24	1720.29
252.46	1746.92
252.68	1671.14
252.89	1675.24
253.11	1603.56
253.33	1781.73
253.54	1837.03
253.76	1626.09
253.98	1675.24
254.20	1689.57
254.41	1671.14
254.63	1736.68
254.85	1636.33
255.06	1781.73
255.28	1712.10
255.50	1687.53
255.71	1609.70
255.93	1640.42
256.15	1716.20
256.36	1724.39
256.58	1658.85
256.80	1773.54
257.02	1718.25
257.23	1669.09
257.45	1755.11
257.67	1673.19
257.88	1712.10
258.10	1677.29
258.32	1736.68
258.53	1759.21
258.75	1726.44
258.97	1605.61
259.18	1669.09
259.40	1722.34
259.62	1781.73
259.83	1775.59
260.05	1718.25
260.27	2002.91
260.48	1775.59
260.70	1705.96
260.92	1689.57
261.13	1677.29
261.35	1697.77
261.57	1695.72
261.78	1681.38
262.00	1593.32
262.22	1765.35
262.43	1673.19
262.65	1640.42
262.86	1714.15
263.08	1816.55
263.30	1665.00
263.51	1617.90
263.73	1671.14
263.95	1853.41
264.16	1675.24
264.38	1599.46
264.60	1787.88
264.81	1673.19
265.03	1736.68
265.25	1730.53
265.46	1726.44
265.68	1814.50
265.89	1687.53
266.11	1589.22
266.33	1734.63
266.54	1798.12
266.76	1730.53
266.98	1722.34
267.19	1769.44
267.41	1714.15
267.62	1783.78
267.84	1593.32
268.06	1740.77
268.27	1595.37
268.49	1716.20
268.70	1767.40
268.92	1658.85
269.14	1701.86
269.35	1656.81
269.57	1695.72
269.79	1669.09
270.00	1617.90
270.22	1791.97
270.43	1673.19
270.65	1548.26
270.87	1726.44
271.08	1718.25
271.30	1714.15
271.51	1689.57
271.73	1695.72
271.95	1755.11
272.16	1779.68
272.38	1701.86
272.59	1695.72
272.81	1734.63
273.02	1779.68
273.24	1744.87
273.46	1736.68
273.67	1681.38
273.89	1611.75
274.10	1681.38
274.32	1783.78
274.54	1701.86
274.75	1716.20
274.97	1677.29
275.18	1769.44
275.40	1677.29
275.61	1644.52
275.83	1771.49
276.05	1685.48
276.26	1746.92
276.48	1736.68
276.69	1703.91
276.91	1613.80
277.12	1785.83
277.34	1763.30
277.55	1718.25
277.77	1681.38
277.99	1628.14
278.20	1652.71
278.42	1605.61
278.63	1665.00
278.85	1646.57
279.06	1640.42
279.28	1697.77
279.49	1832.93
279.71	1753.06
279.93	1738.73
280.14	1703.91
280.36	1607.66
280.57	1798.12
280.79	1718.25
281.00	1701.86
281.22	1628.14
281.43	1800.16
281.65	1599.46
281.86	1624.04
282.08	1705.96
282.29	1742.82
282.51	1665.00
282.73	1656.81
282.94	1607.66
283.16	1755.11
283.37	1787.88
283.59	1681.38
283.80	1740.77
284.02	1654.76
284.23	1640.42
284.45	1687.53
284.66	1677.29
284.88	1595.37
285.09	1689.57
285.31	1757.16
285.52	1791.97
285.74	1615.85
285.95	1738.73
286.17	1703.91
286.38	1748.97
286.60	1632.23
286.81	1675.24
287.03	1744.87
287.24	1691.62
287.46	1751.01
287.67	1716.20
287.89	1781.73
288.10	1636.33
288.32	1621.99
288.53	1828.84
288.75	1675.24
288.96	1763.30
289.18	1646.57
289.39	1650.66
289.61	1722.34
289.82	1771.49
290.04	1738.73
290.25	1689.57
290.47	1697.77
290.68	1724.39
290.90	1767.40
291.11	1615.85
291.33	1724.39
291.54	1636.33
291.76	1681.38
291.97	1665.00
292.18	1765.35
292.40	1714.15
292.61	1619.94
292.83	1804.26
293.04	1771.49
293.26	1669.09
293.47	1730.53
293.69	1626.09
293.90	1656.81
294.12	1820.64
294.33	1783.78
294.55	1757.16
294.76	1660.90
294.97	1755.11
295.19	1814.50
295.40	1642.47
295.62	1816.55
295.83	1732.58
296.05	1685.48
296.26	1794.02
296.48	1708.01
296.69	1626.09
296.90	1685.48
297.12	1677.29
297.33	1820.64
297.55	1679.33
297.76	1751.01
297.98	1800.16
298.19	1738.73
298.41	1658.85
298.62	1656.81
298.83	1808.36
299.05	1722.34
299.26	1736.68
299.48	1720.29
299.69	1755.11
299.90	1722.34
300.12	1691.62
300.33	1722.34
300.55	1675.24
300.76	1683.43
300.98	1597.42
301.19	1716.20
301.40	1621.99
301.62	1679.33
301.83	1705.96
302.05	1677.29
302.26	1681.38
302.47	1720.29
302.69	1654.76
302.90	1720.29
303.12	1527.78
303.33	1763.30
303.54	1861.60
303.76	1708.01
303.97	1787.88
304.19	1796.07
304.40	1697.77
304.61	1777.64
304.83	1779.68
305.04	1751.01
305.26	1751.01
305.47	1642.47
305.68	1730.53
305.90	1603.56
306.11	1755.11
306.33	1765.35
306.54	1648.61
306.75	1656.81
306.97	1634.28
307.18	1658.85
307.39	1634.28
307.61	1724.39
307.82	1669.09
308.04	1679.33
308.25	1665.00
308.46	1769.44
308.68	1728.49
308.89	1644.52
309.10	1742.82
309.32	1701.86
309.53	1673.19
309.74	1714.15
309.96	1665.00
310.17	1783.78
310.39	1615.85
310.60	1662.95
310.81	1665.00
311.03	1699.81
311.24	1800.16
311.45	1673.19
311.67	1880.04
311.88	1677.29
312.09	1658.85
312.31	1630.18
312.52	1712.10
312.73	1705.96
312.95	1654.76
313.16	1730.53
313.37	1757.16
313.59	1789.92
313.80	1744.87
314.01	1763.30
314.23	1703.91
314.44	1626.09
314.65	1656.81
314.87	1673.19
315.08	1738.73
315.29	1640.42
315.51	1640.42
315.72	1609.70
315.93	1791.97
316.15	1689.57
316.36	1671.14
316.57	1714.15
316.79	1738.73
317.00	1628.14
317.21	1724.39
317.43	1703.91
317.64	1724.39
317.85	1617.90
318.07	1626.09
318.28	1699.81
318.49	1826.79
318.70	1947.62
318.92	1812.45
319.13	1796.07
319.34	1855.46
319.56	1771.49
319.77	1734.63
319.98	1832.93
320.20	1816.55
320.41	1685.48
320.62	1681.38
320.83	1646.57
321.05	1824.74
321.26	1699.81
321.47	1689.57
321.69	1744.87
321.90	1656.81
322.11	1660.90
322.32	1728.49
322.54	1734.63
322.75	1689.57
322.96	1875.94
323.18	1652.71
323.39	1607.66
323.60	1671.14
323.81	1732.58
324.03	1665.00
324.24	1650.66
324.45	1697.77
324.66	1744.87
324.88	1837.03
325.09	1816.55
325.30	1730.53
325.52	1794.02
325.73	1710.05
325.94	1755.11
326.15	1662.95
326.37	1744.87
326.58	1716.20
326.79	1748.97
327.00	1662.95
327.22	1736.68
327.43	1675.24
327.64	1624.04
327.85	1636.33
328.07	1656.81
328.28	1781.73
328.49	1642.47
328.70	1646.57
328.92	1693.67
329.13	1665.00
329.34	1703.91
329.55	1781.73
329.76	1703.91
329.98	1712.10
330.19	1775.59
330.40	1679.33
330.61	1718.25
330.83	1710.05
331.04	1662.95
331.25	1738.73
331.46	1695.72
331.68	1648.61
331.89	1740.77
332.10	1681.38
332.31	1652.71
332.52	1718.25
332.74	1732.58
332.95	1638.38
333.16	1691.62
333.37	1761.25
333.58	1685.48
333.80	1660.90
334.01	1626.09
334.22	1695.72
334.43	1646.57
334.64	1683.43
334.86	1654.76
335.07	1701.86
335.28	1853.41
335.49	1646.57
335.70	1722.34
335.92	1714.15
336.13	1869.80
336.34	1761.25
336.55	1740.77
336.76	1652.71
336.98	1517.54
337.19	1781.73
337.40	1890.28
337.61	1822.69
337.82	1654.76
338.04	1789.92
338.25	1611.75
338.46	1697.77
338.67	1720.29
338.88	1701.86
339.09	1640.42
339.31	1665.00
339.52	1648.61
339.73	1654.76
339.94	1658.85
340.15	1714.15
340.36	1656.81
340.58	1710.05
340.79	1724.39
341.00	1708.01
341.21	1734.63
341.42	1841.12
341.63	1671.14
341.85	1734.63
342.06	1728.49
342.27	1701.86
342.48	1687.53
342.69	1607.66
342.90	1665.00
343.12	1710.05
343.33	1640.42
343.54	1703.91
343.75	1769.44
343.96	1660.90
344.17	1691.62
344.38	1642.47
344.60	1632.23
344.81	1642.47
345.02	1718.25
345.23	1773.54
345.44	1738.73
345.65	1791.97
345.86	1796.07
346.07	1726.44
346.29	1728.49
346.50	1798.12
346.71	1783.78
346.92	1728.49
347.13	1806.31
347.34	1683.43
347.55	1693.67
347.76	1685.48
347.98	1673.19
348.19	1621.99
348.40	1726.44
348.61	1665.00
348.82	1812.45
349.03	1732.58
349.24	1654.76
349.45	1814.50
349.66	1607.66
349.88	1693.67
350.09	1624.04
350.30	1808.36
350.51	1818.60
350.72	1736.68
350.93	1714.15
351.14	1619.94
351.35	1728.49
351.56	1712.10
351.77	1675.24
351.99	1699.81
352.20	1812.45
352.41	1798.12
352.62	1591.27
352.83	1718.25
353.04	1708.01
353.25	1722.34
353.46	1771.49
353.67	1726.44
353.88	1603.56
354.09	1710.05
354.30	1644.52
354.52	1769.44
354.73	1675.24
354.94	1630.18
355.15	1722.34
355.36	1802.21
355.57	1613.80
355.78	1724.39
355.99	1701.86
356.20	1710.05
356.41	1722.34
356.62	1734.63
356.83	1708.01
357.04	1742.82
357.25	1607.66
357.46	1685.48
357.68	1654.76
357.89	1583.08
358.10	1691.62
358.31	1714.15
358.52	1689.57
358.73	1624.04
358.94	1591.27
359.15	1617.90
359.36	1683.43
359.57	1650.66
359.78	1699.81
359.99	1705.96
360.20	1617.90
360.41	1705.96
360.62	1744.87
360.83	1718.25
361.04	1660.90
361.25	1677.29
361.46	1841.12
361.67	1671.14
361.88	1677.29
362.09	1751.01
362.30	1714.15
362.51	1697.77
362.72	1703.91
362.93	1736.68
363.14	1794.02
363.35	1710.05
363.56	1636.33
363.78	1810.40
363.99	1767.40
364.20	1644.52
364.41	1703.91
364.62	1830.88
364.83	1683.43
365.04	1738.73
365.25	1703.91
365.46	1781.73
365.67	1691.62
365.88	1658.85
366.09	1705.96
366.30	1724.39
366.51	1726.44
366.72	1611.75
366.93	1683.43
367.14	1681.38
367.35	1769.44
367.56	1740.77
367.77	1826.79
367.98	1763.30
368.18	1689.57
368.39	1734.63
368.60	1689.57
368.81	1757.16
369.02	1771.49
369.23	1705.96
369.44	1746.92
369.65	1642.47
369.86	1773.54
370.07	1785.83
370.28	1697.77
370.49	1732.58
370.70	1742.82
370.91	1642.47
371.12	1636.33
371.33	1710.05
371.54	1689.57
371.75	1775.59
371.96	1558.50
372.17	1755.11
372.38	1673.19
372.59	1705.96
372.80	1624.04
373.01	1742.82
373.22	1685.48
373.43	1728.49
373.64	1591.27
373.85	1699.81
374.06	1888.23
374.26	1759.21
374.47	1701.86
374.68	1740.77
374.89	1691.62
375.10	1708.01
375.31	1748.97
375.52	1701.86
375.73	1679.33
375.94	1662.95
376.15	1769.44
376.36	1595.37
376.57	1658.85
376.78	1626.09
376.99	1724.39
377.20	1800.16
377.40	1667.05
377.61	1816.55
377.82	1675.24
378.03	1722.34
378.24	1732.58
378.45	1673.19
378.66	1783.78
378.87	1583.08
379.08	1595.37
379.29	1675.24
379.50	1779.68
379.71	1665.00
379.91	1771.49
380.12	1638.38
380.33	1736.68
380.54	1644.52
380.75	1650.66
380.96	1712.10
381.17	1724.39
381.38	1753.06
381.59	1755.11
381.80	1677.29
382.00	1857.51
382.21	1787.88
382.42	1783.78
382.63	1884.13
382.84	1800.16
383.05	1761.25
383.26	1755.11
383.47	1714.15
383.68	1771.49
383.88	1761.25
384.09	1691.62
384.30	1777.64
384.51	1708.01
384.72	1734.63
384.93	1699.81
385.14	1701.86
385.35	1787.88
385.55	1669.09
385.76	1837.03
385.97	1789.92
386.18	1638.38
386.39	1640.42
386.60	1648.61
386.81	1660.90
387.02	1636.33
387.22	1636.33
387.43	1730.53
387.64	1722.34
387.85	1867.75
388.06	2193.37
388.27	4220.86
388.48	6504.35
388.68	8015.75
388.89	9095.03
389.10	9645.93
389.31	8324.99
389.52	7280.53
389.73	6535.07
389.93	6148.00
390.14	5568.43
390.35	4964.28
390.56	4370.37
390.77	3737.54
390.98	3080.14
391.18	2435.03
391.39	2095.07
391.60	1812.45
391.81	1837.03
392.02	1712.10
392.23	1806.31
392.43	1705.96
392.64	1767.40
392.85	1751.01
393.06	1791.97
393.27	1746.92
393.47	1667.05
393.68	1738.73
393.89	1722.34
394.10	1816.55
394.31	1732.58
394.52	1718.25
394.72	1581.03
394.93	1769.44
395.14	1679.33
395.35	1699.81
395.56	1689.57
395.76	1689.57
395.97	1847.27
396.18	1789.92
396.39	1855.46
396.60	1961.95
396.80	1894.37
397.01	1837.03
397.22	1779.68
397.43	1900.52
397.64	1691.62
397.84	1816.55
398.05	1853.41
398.26	1671.14
398.47	1812.45
398.67	1830.88
398.88	1744.87
399.09	1783.78
399.30	1658.85
399.51	1787.88
399.71	1669.09
399.92	1701.86
400.13	1726.44
400.34	1691.62
400.54	1712.10
400.75	1867.75
400.96	1740.77
401.17	1806.31
401.37	1720.29
401.58	1767.40
401.79	1691.62
402.00	1875.94
402.21	1937.38
402.41	1943.52
402.62	1916.90
402.83	2068.45
403.04	2041.82
403.24	2131.94
403.45	1816.55
403.66	1892.32
403.87	1857.51
404.07	1927.14
404.28	1912.80
404.49	1839.08
404.70	1763.30
404.90	1767.40
405.11	1773.54
405.32	1681.38
405.52	1748.97
405.73	1599.46
405.94	1673.19
406.15	1699.81
406.35	1781.73
406.56	1705.96
406.77	1695.72
406.98	1804.26
407.18	1710.05
407.39	1839.08
407.60	1671.14
407.80	1757.16
408.01	1667.05
408.22	1681.38
408.43	1636.33
408.63	1722.34
408.84	1736.68
409.05	1849.32
409.25	1708.01
409.46	1656.81
409.67	1599.46
409.88	1681.38
410.08	1714.15
410.29	1718.25
410.50	1744.87
410.70	1701.86
410.91	1673.19
411.12	1757.16
411.32	1621.99
411.53	1738.73
411.74	1789.92
411.95	1802.21
412.15	1769.44
412.36	1800.16
412.57	1734.63
412.77	1839.08
412.98	1632.23
413.19	1683.43
413.39	1757.16
413.60	1808.36
413.81	1826.79
414.01	1665.00
414.22	1740.77
414.43	1808.36
414.63	1679.33
414.84	1751.01
415.05	1685.48
415.25	1628.14
415.46	1697.77
415.67	1662.95
415.87	1767.40
416.08	1736.68
416.29	1703.91
416.49	1755.11
416.70	1640.42
416.91	1634.28
417.11	1658.85
417.32	1767.40
417.53	1779.68
417.73	1724.39
417.94	1675.24
418.15	1710.05
418.35	1615.85
418.56	1687.53
418.77	1810.40
418.97	1714.15
419.18	1677.29
419.38	1638.38
419.59	1677.29
419.80	1787.88
420.00	1607.66
420.21	1705.96
420.42	1775.59
420.62	1740.77
420.83	1642.47
421.04	1669.09
421.24	1632.23
421.45	1714.15
421.65	1728.49
421.86	1675.24
422.07	1736.68
422.27	1724.39
422.48	1730.53
422.69	1570.79
422.89	1724.39
423.10	1724.39
423.30	1591.27
423.51	1708.01
423.72	1732.58
423.92	1685.48
424.13	1689.57
424.33	1732.58
424.54	1767.40
424.75	1652.71
424.95	1800.16
425.16	1720.29
425.36	1673.19
425.57	1757.16
425.78	1753.06
425.98	1751.01
426.19	1646.57
426.39	1640.42
426.60	1773.54
426.81	1812.45
427.01	1791.97
427.22	1607.66
427.42	1642.47
427.63	1646.57
427.83	1791.97
428.04	1837.03
428.25	1800.16
428.45	1794.02
428.66	1783.78
428.86	1718.25
429.07	1724.39
429.28	1796.07
429.48	1683.43
429.69	1658.85
429.89	1746.92
430.10	1607.66
430.30	1769.44
430.51	1724.39
430.71	1624.04
430.92	1734.63
431.13	1726.44
431.33	1726.44
431.54	1724.39
431.74	1820.64
431.95	1818.60
432.15	1626.09
432.36	1753.06
432.56	1738.73
432.77	1841.12
432.98	1796.07
433.18	1712.10
433.39	1722.34
433.59	1705.96
433.80	1779.68
434.00	1810.40
434.21	1693.67
434.41	1726.44
434.62	1843.17
434.82	1624.04
435.03	1583.08
435.23	1710.05
435.44	1685.48
435.64	1710.05
435.85	1732.58
436.06	1800.16
436.26	1742.82
436.47	1667.05
436.67	1722.34
436.88	1751.01
437.08	1832.93
437.29	1742.82
437.49	1708.01
437.70	1826.79
437.90	1757.16
438.11	1873.89
438.31	1757.16
438.52	1894.37
438.72	1830.88
438.93	1834.98
439.13	1785.83
439.34	1751.01
439.54	1734.63
439.75	1863.65
439.95	1816.55
440.16	1703.91
440.36	1697.77
440.57	1763.30
440.77	1746.92
440.98	1757.16
441.18	1740.77
441.39	1722.34
441.59	1714.15
441.80	1861.60
442.00	1748.97
442.21	1755.11
442.41	1671.14
442.62	1763.30
442.82	1746.92
443.02	1730.53
443.23	1740.77
443.43	1724.39
443.64	1796.07
443.84	1654.76
444.05	1820.64
444.25	1703.91
444.46	1740.77
444.66	1755.11
444.87	1847.27
445.07	1611.75
445.28	1716.20
445.48	1777.64
445.69	1767.40
445.89	1873.89
446.09	1724.39
446.30	1964.00
446.50	2584.54
446.71	3737.54
446.91	4159.42
447.12	4622.27
447.32	4720.57
447.53	4192.19
447.73	3844.04
447.93	3422.16
448.14	3235.79
448.34	3209.17
448.55	2904.02
448.75	2830.29
448.96	2602.97
449.16	2451.42
449.36	2338.78
449.57	2025.44
449.77	1861.60
449.98	1761.25
450.18	1828.84
450.39	1796.07
450.59	1751.01
450.79	1751.01
451.00	1726.44
451.20	1841.12
451.41	1728.49
451.61	1726.44
451.81	1742.82
452.02	1726.44
452.22	1726.44
452.43	1724.39
452.63	1685.48
452.84	1722.34
453.04	1740.77
453.24	1777.64
453.45	1656.81
453.65	1658.85
453.86	1722.34
454.06	1660.90
454.26	1621.99
454.47	1753.06
454.67	1820.64
454.87	1722.34
455.08	1800.16
455.28	1740.77
455.49	1728.49
455.69	1650.66
455.89	1873.89
456.10	1832.93
456.30	1697.77
456.51	1742.82
456.71	1761.25
456.91	1794.02
457.12	1681.38
457.32	1751.01
457.52	1673.19
457.73	1806.31
457.93	1771.49
458.14	1710.05
458.34	1628.14
458.54	1730.53
458.75	1771.49
458.95	1775.59
459.15	1738.73
459.36	1691.62
459.56	1812.45
459.76	1861.60
459.97	1740.77
460.17	1642.47
460.37	1800.16
460.58	1746.92
460.78	1767.40
460.99	1660.90
461.19	1658.85
461.39	1660.90
461.60	1716.20
461.80	1751.01
462.00	1699.81
462.21	1681.38
462.41	1701.86
462.61	1658.85
462.82	1603.56
463.02	1708.01
463.22	1730.53
463.43	1775.59
463.63	1720.29
463.83	1822.69
464.04	1728.49
464.24	1710.05
464.44	1710.05
464.64	1794.02
464.85	1812.45
465.05	1789.92
465.25	1712.10
465.46	1667.05
465.66	1804.26
465.86	1761.25
466.07	1654.76
466.27	1730.53
466.47	1728.49
466.68	1605.61
466.88	1796.07
467.08	1753.06
467.29	1767.40
467.49	1787.88
467.69	1705.96
467.89	1697.77
468.10	1673.19
468.30	1730.53
468.50	1828.84
468.71	1705.96
468.91	1640.42
469.11	1822.69
469.31	1783.78
469.52	1673.19
469.72	1775.59
469.92	1861.60
470.13	1605.61
470.33	1777.64
470.53	1812.45
470.73	2015.20
470.94	2189.28
471.14	2342.88
471.34	2525.15
471.54	2422.75
471.75	2248.67
471.95	2129.89
472.15	2050.02
472.36	2070.50
472.56	2047.97
472.76	2017.25
472.96	2033.63
473.17	1902.56
473.37	1904.61
473.57	1845.22
473.77	1730.53
473.98	1720.29
474.18	1632.23
474.38	1869.80
474.58	1759.21
474.79	1744.87
474.99	1777.64
475.19	1755.11
475.39	1636.33
475.60	1712.10
475.80	1720.29
476.00	1679.33
476.20	1619.94
476.41	1669.09
476.61	1791.97
476.81	1699.81
477.01	1755.11
477.21	1841.12
477.42	1695.72
477.62	1648.61
477.82	1812.45
478.02	1744.87
478.23	1722.34
478.43	1685.48
478.63	1648.61
478.83	1714.15
479.03	1669.09
479.24	1791.97
479.44	1769.44
479.64	1611.75
479.84	1675.24
480.04	1708.01
480.25	1728.49
480.45	1685.48
480.65	1681.38
480.85	1822.69
481.06	1675.24
481.26	1722.34
481.46	1746.92
481.66	1771.49
481.86	1644.52
482.06	1798.12
482.27	1708.01
482.47	1728.49
482.67	1742.82
482.87	1683.43
483.07	1789.92
483.28	1710.05
483.48	1601.51
483.68	1679.33
483.88	1632.23
484.08	1621.99
484.29	1667.05
484.49	1693.67
484.69	1699.81
484.89	1769.44
485.09	1814.50
485.29	1812.45
485.50	1757.16
485.70	1693.67
485.90	1824.74
486.10	1722.34
486.30	1675.24
486.50	1806.31
486.71	1779.68
486.91	1714.15
487.11	1724.39
487.31	1638.38
487.51	1693.67
487.71	1675.24
487.91	1628.14
488.12	1665.00
488.32	1581.03
488.52	1685.48
488.72	1589.22
488.92	1691.62
489.12	1753.06
489.32	1736.68
489.53	1744.87
489.73	1581.03
489.93	1828.84
490.13	1701.86
490.33	1687.53
490.53	1751.01
490.73	1716.20
490.94	1640.42
491.14	1771.49
491.34	1746.92
491.54	2131.94
491.74	2500.57
491.94	2795.48
492.14	2996.18
492.34	2936.79
492.54	2719.70
492.75	2443.23
492.95	2400.22
493.15	2277.34
493.35	2256.86
493.55	2170.85
493.75	2150.37
493.95	2164.70
494.15	1900.52
494.35	1976.29
494.56	1824.74
494.76	1722.34
494.96	1779.68
495.16	1783.78
495.36	1767.40
495.56	1708.01
495.76	1681.38
495.96	1693.67
496.16	1687.53
496.36	1816.55
496.56	1724.39
496.77	1732.58
496.97	1746.92
497.17	1675.24
497.37	1615.85
497.57	1710.05
497.77	1730.53
497.97	1712.10
498.17	1777.64
498.37	1746.92
498.57	1841.12
498.77	1675.24
498.97	1804.26
499.17	1832.93
499.38	1755.11
499.58	1769.44
499.78	1716.20
499.98	1814.50
500.18	1665.00
500.38	1710.05
500.58	1867.75
500.78	2480.09
500.98	4509.63
501.18	5629.87
501.38	6541.21
501.58	6909.85
501.78	6397.85
501.98	5371.82
502.18	4898.74
502.38	4356.03
502.58	4097.99
502.78	3616.71
502.98	3518.41
503.18	3399.63
503.38	3043.28
503.59	2822.10
503.79	2725.85
503.99	2488.28
504.19	2287.58
504.39	2140.13
504.59	2187.23
504.79	2019.30
504.99	2002.91
505.19	1877.99
505.39	1796.07
505.59	1910.75
505.79	1914.85
505.99	1886.18
506.19	1781.73
506.39	1849.32
506.59	1882.08
506.79	1697.77
506.99	1814.50
507.19	1787.88
507.39	1771.49
507.59	1681.38
507.79	1695.72
507.99	1689.57
508.19	1820.64
508.39	1693.67
508.59	1773.54
508.79	1755.11
508.99	1753.06
509.19	1718.25
509.39	1800.16
509.59	1675.24
509.79	1708.01
509.99	1837.03
510.19	1814.50
510.39	1773.54
510.59	1742.82
510.79	1789.92
510.99	1652.71
511.19	1734.63
511.39	1861.60
511.59	1798.12
511.79	1765.35
511.99	1716.20
512.19	1773.54
512.38	1730.53
512.58	1722.34
512.78	1802.21
512.98	1800.16
513.18	1902.56
513.38	1701.86
513.58	1767.40
513.78	1710.05
513.98	1800.16
514.18	1724.39
514.38	1699.81
514.58	1724.39
514.78	1681.38
514.98	1746.92
515.18	1681.38
515.38	1662.95
515.58	1812.45
515.78	1703.91
515.98	1671.14
516.18	1804.26
516.38	1787.88
516.57	1708.01
516.77	1714.15
516.97	1839.08
517.17	1699.81
517.37	1624.04
517.57	1843.17
517.77	1695.72
517.97	1671.14
518.17	1714.15
518.37	1734.63
518.57	1644.52
518.77	1734.63
518.97	1648.61
519.16	1771.49
519.36	1785.83
519.56	1767.40
519.76	1722.34
519.96	1757.16
520.16	1820.64
520.36	1681.38
520.56	1783.78
520.76	1720.29
520.96	1718.25
521.16	1763.30
521.35	1742.82
521.55	1783.78
521.75	1800.16
521.95	1695.72
522.15	1785.83
522.35	1687.53
522.55	1619.94
522.75	1947.62
522.95	1712.10
523.14	1658.85
523.34	1771.49
523.54	1650.66
523.74	1695.72
523.94	1728.49
524.14	1642.47
524.34	1751.01
524.54	1826.79
524.73	1738.73
524.93	1742.82
525.13	1771.49
525.33	1665.00
525.53	1880.04
525.73	1837.03
525.93	1771.49
526.13	1738.73
526.32	1697.77
526.52	1851.36
526.72	1765.35
526.92	1669.09
527.12	1691.62
527.32	1609.70
527.52	1794.02
527.71	1783.78
527.91	1740.77
528.11	1662.95
528.31	1828.84
528.51	1681.38
528.71	1849.32
528.90	1753.06
529.10	1744.87
529.30	1769.44
529.50	1607.66
529.70	1671.14
529.90	1695.72
530.09	1787.88
530.29	1675.24
530.49	1724.39
530.69	1886.18
530.89	1843.17
531.09	1732.58
531.28	1767.40
531.48	1841.12
531.68	1787.88
531.88	1751.01
532.08	1771.49
532.28	1787.88
532.47	1791.97
532.67	1802.21
532.87	1781.73
533.07	1652.71
533.27	1783.78
533.46	1806.31
533.66	1748.97
533.86	1722.34
534.06	1714.15
534.26	1798.12
534.45	1681.38
534.65	1791.97
534.85	1748.97
535.05	1736.68
535.25	1830.88
535.44	1544.17
535.64	1796.07
535.84	1703.91
536.04	1730.53
536.24	1683.43
536.43	1697.77
536.63	1783.78
536.83	1734.63
537.03	1804.26
537.22	1603.56
537.42	1656.81
537.62	1718.25
537.82	1662.95
538.02	1714.15
538.21	1804.26
538.41	1941.47
538.61	1806.31
538.81	1728.49
539.00	1748.97
539.20	1644.52
539.40	1640.42
539.60	1755.11
539.79	1734.63
539.99	1800.16
540.19	1693.67
540.39	1742.82
540.58	1806.31
540.78	1808.36
540.98	1798.12
541.18	1763.30
541.37	1748.97
541.57	1773.54
541.77	1814.50
541.97	1716.20
542.16	1615.85
542.36	1677.29
542.56	1753.06
542.76	1798.12
542.95	1755.11
543.15	1796.07
543.35	1822.69
543.54	1740.77
543.74	1658.85
543.94	1859.56
544.14	1746.92
544.33	1824.74
544.53	1789.92
544.73	1781.73
544.93	1716.20
545.12	1771.49
545.32	1802.21
545.52	1718.25
545.71	1732.58
545.91	1695.72
546.11	1728.49
546.30	1687.53
546.50	1734.63
546.70	1660.90
546.90	1673.19
547.09	1632.23
547.29	1751.01
547.49	1738.73
547.68	1759.21
547.88	1718.25
548.08	1787.88
548.27	2234.33
548.47	1691.62
548.67	1640.42
548.87	1783.78
549.06	1720.29
549.26	1740.77
549.46	1832.93
549.65	1714.15
549.85	1732.58
550.05	1771.49
550.24	1665.00
550.44	1763.30
550.64	1697.77
550.83	1748.97
551.03	1773.54
551.23	1787.88
551.42	1818.60
551.62	1744.87
551.82	1738.73
552.01	1708.01
552.21	1834.98
552.41	1714.15
552.60	1800.16
552.80	1732.58
553.00	1712.10
553.19	1701.86
553.39	1884.13
553.59	1626.09
553.78	1753.06
553.98	1732.58
554.17	1687.53
554.37	1796.07
554.57	1751.01
554.76	1705.96
554.96	1705.96
555.16	1714.15
555.35	1742.82
555.55	1783.78
555.75	1740.77
555.94	1814.50
556.14	1646.57
556.33	1779.68
556.53	1769.44
556.73	1734.63
556.92	1734.63
557.12	1900.52
557.32	1837.03
557.51	1812.45
557.71	1693.67
557.90	1884.13
558.10	1771.49
558.30	1761.25
558.49	1697.77
558.69	1775.59
558.88	1753.06
559.08	1789.92
559.28	1718.25
559.47	1757.16
559.67	1699.81
559.86	1861.60
560.06	1730.53
560.26	1714.15
560.45	1816.55
560.65	1714.15
560.84	1804.26
561.04	1689.57
561.24	1763.30
561.43	1708.01
561.63	1746.92
561.82	1718.25
562.02	1796.07
562.22	1644.52
562.41	1705.96
562.61	1681.38
562.80	1640.42
563.00	1855.46
563.19	1742.82
563.39	1765.35
563.59	1732.58
563.78	1708.01
563.98	1660.90
564.17	1724.39
564.37	1687.53
564.56	1755.11
564.76	1667.05
564.96	1759.21
565.15	1689.57
565.35	1902.56
565.54	1669.09
565.74	1804.26
565.93	1720.29
566.13	1798.12
566.32	1779.68
566.52	1720.29
566.71	1734.63
566.91	1779.68
567.11	1730.53
567.30	1691.62
567.50	1775.59
567.69	1718.25
567.89	1687.53
568.08	1691.62
568.28	1751.01
568.47	1673.19
568.67	1730.53
568.86	1703.91
569.06	1841.12
569.25	1726.44
569.45	1705.96
569.64	1724.39
569.84	1855.46
570.04	1794.02
570.23	1751.01
570.43	1714.15
570.62	1730.53
570.82	1777.64
571.01	1648.61
571.21	1703.91
571.40	1755.11
571.60	1769.44
571.79	1783.78
571.99	1763.30
572.18	1693.67
572.38	1703.91
572.57	1759.21
572.77	1761.25
572.96	1875.94
573.16	1669.09
573.35	1740.77
573.55	1796.07
573.74	1763.30
573.94	1730.53
574.13	1687.53
574.33	1853.41
574.52	1888.23
574.71	1771.49
574.91	1751.01
575.10	1705.96
575.30	1812.45
575.49	1705.96
575.69	1695.72
575.88	1775.59
576.08	1775.59
576.27	1728.49
576.47	1732.58
576.66	1816.55
576.86	1763.30
577.05	1687.53
577.25	1808.36
577.44	1882.08
577.64	1724.39
577.83	1810.40
578.02	1791.97
578.22	1853.41
578.41	1800.16
578.61	1773.54
578.80	1677.29
579.00	1720.29
579.19	1746.92
579.39	1773.54
579.58	1808.36
579.77	1765.35
579.97	1849.32
580.16	1794.02
580.36	1816.55
580.55	1785.83
580.75	1828.84
580.94	1734.63
581.13	1894.37
581.33	1783.78
581.52	1695.72
581.72	1859.56
581.91	1830.88
582.11	1779.68
582.30	1732.58
582.49	1763.30
582.69	1798.12
582.88	1873.89
583.08	1769.44
583.27	1857.51
583.47	1794.02
583.66	1669.09
583.85	1720.29
584.05	1759.21
584.24	1767.40
584.44	1828.84
584.63	1849.32
584.82	1812.45
585.02	1820.64
585.21	1802.21
585.41	1773.54
585.60	1920.99
585.79	1949.67
585.99	1871.84
586.18	1841.12
586.37	2179.04
586.57	3356.62
586.76	9637.74
586.96	23676.57
587.15	33543.68
587.34	39480.74
587.54	40899.98
587.73	35513.83
587.93	25663.10
588.12	21077.69
588.31	18020.08
588.51	16088.84
588.70	14685.98
588.89	13561.65
589.09	12093.26
589.28	10811.23
589.47	9082.74
589.67	7925.64
589.86	6240.16
590.06	4784.06
590.25	3811.27
590.44	3067.86
590.64	2496.47
590.83	2189.28
591.02	2066.40
591.22	1902.56
591.41	1920.99
591.60	1910.75
591.80	1949.67
591.99	1767.40
592.18	1796.07
592.38	1843.17
592.57	1718.25
592.76	1794.02
592.96	1808.36
593.15	1742.82
593.34	1851.36
593.54	1781.73
593.73	1761.25
593.92	1685.48
594.12	1771.49
594.31	1791.97
594.50	1828.84
594.70	1791.97
594.89	1888.23
595.08	1714.15
595.28	1810.40
595.47	1929.19
595.66	1820.64
595.86	1718.25
596.05	1716.20
596.24	1697.77
596.43	1830.88
596.63	1810.40
596.82	1818.60
597.01	1693.67
597.21	1791.97
597.40	1759.21
597.59	1724.39
597.79	1781.73
597.98	1845.22
598.17	1763.30
598.36	1755.11
598.56	1701.86
598.75	1728.49
598.94	1775.59
599.14	1779.68
599.33	1738.73
599.52	1812.45
599.71	1705.96
599.91	1779.68
600.10	1718.25
600.29	1718.25
600.48	1742.82
600.68	1783.78
600.87	1785.83
601.06	1699.81
601.26	1720.29
601.45	1794.02
601.64	1787.88
601.83	1791.97
602.03	1710.05
602.22	1691.62
602.41	1798.12
602.60	1828.84
602.80	1814.50
602.99	1648.61
603.18	1665.00
603.37	1781.73
603.57	1775.59
603.76	1724.39
603.95	1802.21
604.14	1691.62
604.34	1699.81
604.53	1730.53
604.72	1669.09
604.91	1787.88
605.10	1800.16
605.30	1626.09
605.49	1820.64
605.68	1808.36
605.87	1748.97
606.07	1724.39
606.26	1697.77
606.45	1744.87
606.64	1800.16
606.84	1642.47
607.03	1710.05
607.22	1732.58
607.41	1726.44
607.60	1755.11
607.80	1730.53
607.99	1765.35
608.18	1697.77
608.37	1683.43
608.56	1632.23
608.76	1783.78
608.95	1808.36
609.14	1740.77
609.33	1794.02
609.52	1783.78
609.72	1761.25
609.91	1796.07
610.10	1734.63
610.29	1892.32
610.48	1767.40
610.68	1773.54
610.87	1785.83
611.06	1781.73
611.25	1683.43
611.44	1800.16
611.63	1738.73
611.83	1767.40
612.02	1701.86
612.21	1796.07
612.40	1638.38
612.59	1624.04
612.79	1673.19
612.98	1732.58
613.17	1820.64
613.36	1714.15
613.55	1826.79
613.74	1646.57
613.93	1708.01
614.13	1714.15
614.32	1716.20
614.51	1773.54
614.70	1708.01
614.89	1708.01
615.08	1728.49
615.28	1982.43
615.47	1638.38
615.66	1681.38
615.85	1769.44
616.04	1837.03
616.23	1708.01
616.42	1728.49
616.62	1777.64
616.81	1746.92
617.00	1638.38
617.19	1775.59
617.38	1685.48
617.57	1720.29
617.76	1796.07
617.95	1804.26
618.15	1652.71
618.34	1851.36
618.53	1595.37
618.72	1726.44
618.91	1773.54
619.10	1845.22
619.29	1683.43
619.48	1720.29
619.68	1705.96
619.87	1728.49
620.06	1687.53
620.25	1837.03
620.44	1744.87
620.63	1718.25
620.82	1740.77
621.01	1765.35
621.20	1710.05
621.39	1710.05
621.59	1740.77
621.78	1660.90
621.97	1695.72
622.16	1796.07
622.35	1697.77
622.54	1742.82
622.73	1802.21
622.92	1650.66
623.11	1726.44
623.30	1763.30
623.49	1773.54
623.68	1714.15
623.88	1828.84
624.07	1730.53
624.26	1646.57
624.45	1695.72
624.64	1720.29
624.83	1708.01
625.02	1671.14
625.21	1726.44
625.40	1724.39
625.59	1722.34
625.78	1773.54
625.97	1746.92
626.16	1773.54
626.35	1751.01
626.54	1673.19
626.74	1849.32
626.93	1685.48
627.12	1708.01
627.31	1724.39
627.50	1730.53
627.69	1753.06
627.88	1681.38
628.07	1660.90
628.26	1671.14
628.45	1669.09
628.64	1679.33
628.83	1673.19
629.02	1630.18
629.21	1699.81
629.40	1679.33
629.59	1679.33
629.78	1722.34
629.97	1697.77
630.16	1796.07
630.35	1730.53
630.54	1693.67
630.73	1656.81
630.92	1621.99
631.11	1773.54
631.30	1689.57
631.49	1759.21
631.68	1738.73
631.87	1736.68
632.06	1646.57
632.25	1918.95
632.44	1683.43
632.63	1771.49
632.82	1693.67
633.01	1619.94
633.20	1740.77
633.39	1695.72
633.58	1626.09
633.77	1726.44
633.96	1791.97
634.15	1740.77
634.34	1757.16
634.53	1810.40
634.72	1677.29
634.91	1624.04
635.10	1691.62
635.29	1761.25
635.48	1732.58
635.67	1677.29
635.86	1648.61
636.05	1748.97
636.24	1748.97
636.43	1669.09
636.62	1820.64
636.81	1628.14
637.00	1699.81
637.19	1777.64
637.38	1673.19
637.57	1677.29
637.76	1710.05
637.95	1789.92
638.14	1671.14
638.33	1748.97
638.52	1681.38
638.71	1699.81
638.89	1642.47
639.08	1904.61
639.27	1716.20
639.46	1744.87
639.65	1726.44
639.84	1703.91
640.03	1769.44
640.22	1722.34
640.41	1798.12
640.60	1658.85
640.79	1765.35
640.98	1650.66
641.17	1746.92
641.36	1769.44
641.55	1724.39
641.74	1675.24
641.92	1677.29
642.11	1683.43
642.30	1675.24
642.49	1646.57
642.68	1812.45
642.87	1691.62
643.06	1787.88
643.25	1722.34
643.44	1738.73
643.63	1775.59
643.82	1740.77
644.00	1683.43
644.19	1701.86
644.38	1697.77
644.57	1732.58
644.76	1669.09
644.95	1771.49
645.14	1738.73
645.33	1681.38
645.52	1720.29
645.71	1640.42
645.89	1642.47
646.08	1640.42
646.27	1671.14
646.46	1880.04
646.65	1669.09
646.84	1708.01
647.03	1626.09
647.22	1712.10
647.40	1884.13
647.59	1667.05
647.78	1628.14
647.97	1734.63
648.16	1685.48
648.35	1783.78
648.54	1798.12
648.73	1736.68
648.91	1689.57
649.10	1691.62
649.29	1742.82
649.48	1701.86
649.67	1742.82
649.86	1689.57
650.05	1648.61
650.23	1763.30
650.42	1595.37
650.61	1724.39
650.80	1802.21
650.99	1933.28
651.18	1708.01
651.36	1779.68
651.55	1753.06
651.74	1722.34
651.93	1648.61
652.12	1771.49
652.31	1708.01
652.49	1718.25
652.68	1742.82
652.87	1808.36
653.06	1740.77
653.25	1705.96
653.44	1687.53
653.62	1767.40
653.81	1662.95
654.00	1646.57
654.19	1789.92
654.38	1865.70
654.56	1767.40
654.75	1640.42
654.94	1757.16
655.13	1726.44
655.32	1691.62
655.51	1765.35
655.69	1679.33
655.88	1794.02
656.07	1646.57
656.26	1708.01
656.45	1671.14
656.63	1765.35
656.82	1775.59
657.01	1753.06
657.20	1669.09
657.38	1775.59
657.57	1724.39
657.76	1642.47
657.95	1722.34
658.14	1687.53
658.32	1728.49
658.51	1626.09
658.70	1648.61
658.89	1783.78
659.08	1748.97
659.26	1763.30
659.45	1679.33
659.64	1748.97
659.83	1708.01
660.01	1910.75
660.20	1701.86
660.39	1804.26
660.58	1611.75
660.76	1777.64
660.95	1660.90
661.14	1744.87
661.33	1677.29
661.51	1683.43
661.70	1685.48
661.89	1757.16
662.08	1708.01
662.26	1718.25
662.45	1691.62
662.64	1740.77
662.83	1718.25
663.01	1726.44
663.20	1744.87
663.39	1828.84
663.58	1720.29
663.76	1675.24
663.95	1708.01
664.14	1681.38
664.32	1765.35
664.51	1665.00
664.70	1558.50
664.89	1734.63
665.07	1648.61
665.26	1783.78
665.45	1642.47
665.64	1806.31
665.82	1669.09
666.01	1841.12
666.20	1615.85
666.38	1767.40
666.57	1769.44
666.76	2168.80
666.95	4358.08
667.13	10080.10
667.32	14862.11
667.51	17456.89
667.69	18460.39
667.88	17129.21
668.07	12166.98
668.25	9199.48
668.44	7849.86
668.63	7075.73
668.81	6582.17
669.00	6250.40
669.19	5687.21
669.38	5025.72
669.56	4497.34
669.75	3856.33
669.94	3426.25
670.12	2867.16
670.31	2451.42
670.50	2203.61
670.68	2037.73
670.87	1923.04
671.06	1892.32
671.24	1773.54
671.43	1853.41
671.62	1724.39
671.80	1753.06
671.99	1789.92
672.18	1720.29
672.36	1787.88
672.55	1777.64
672.74	1673.19
672.92	1763.30
673.11	1779.68
673.29	1615.85
673.48	1824.74
673.67	1722.34
673.85	1828.84
674.04	1611.75
674.23	1746.92
674.41	1820.64
674.60	1699.81
674.79	1617.90
674.97	1675.24
675.16	1751.01
675.34	1861.60
675.53	1761.25
675.72	1755.11
675.90	1841.12
676.09	1695.72
676.28	1738.73
676.46	1658.85
676.65	1718.25
676.83	1658.85
677.02	1738.73
677.21	1806.31
677.39	1677.29
677.58	1652.71
677.77	1693.67
677.95	1632.23
678.14	1671.14
678.32	1794.02
678.51	1722.34
678.70	1818.60
678.88	1712.10
679.07	1730.53
679.25	1681.38
679.44	1779.68
679.63	1689.57
679.81	1771.49
680.00	1796.07
680.18	1722.34
680.37	1828.84
680.55	1626.09
680.74	1636.33
680.93	1644.52
681.11	1701.86
681.30	1677.29
681.48	1746.92
681.67	1665.00
681.85	1718.25
682.04	1677.29
682.23	1777.64
682.41	1662.95
682.60	1662.95
682.78	1648.61
682.97	1687.53
683.15	1665.00
683.34	1673.19
683.53	1812.45
683.71	1718.25
683.90	1773.54
684.08	1804.26
684.27	1615.85
684.45	1689.57
684.64	1812.45
684.82	1763.30
685.01	1746.92
685.19	1736.68
685.38	1751.01
685.57	1738.73
685.75	1621.99
685.94	1660.90
686.12	1667.05
686.31	1611.75
686.49	1812.45
686.68	1619.94
686.86	1824.74
687.05	1681.38
687.23	1779.68
687.42	1638.38
687.60	1665.00
687.79	1712.10
687.97	1773.54
688.16	1775.59
688.34	1736.68
688.53	1597.42
688.71	1722.34
688.90	1765.35
689.08	1720.29
689.27	1615.85
689.45	1730.53
689.64	1689.57
689.82	1728.49
690.01	1708.01
690.19	1683.43
690.38	1718.25
690.56	1796.07
690.75	1619.94
690.93	1720.29
691.12	1644.52
691.30	1660.90
691.49	1687.53
691.67	1677.29
691.86	1736.68
692.04	1646.57
692.23	1665.00
692.41	1779.68
692.60	1812.45
692.78	1708.01
692.97	1710.05
693.15	1705.96
693.34	1834.98
693.52	1714.15
693.71	1728.49
693.89	1656.81
694.08	1626.09
694.26	1732.58
694.44	1689.57
694.63	1710.05
694.81	1650.66
695.00	1624.04
695.18	1736.68
695.37	1882.08
695.55	1710.05
695.74	1691.62
695.92	1648.61
696.10	1753.06
696.29	1654.76
696.47	1701.86
696.66	1642.47
696.84	1644.52
697.03	1767.40
697.21	1773.54
697.40	2213.85
697.58	1775.59
697.76	1705.96
697.95	1673.19
698.13	1605.61
698.32	1611.75
698.50	1681.38
698.68	1775.59
698.87	1722.34
699.05	1710.05
699.24	1714.15
699.42	1677.29
699.61	1736.68
699.79	1718.25
699.97	1662.95
700.16	1611.75
700.34	1576.94
700.53	1734.63
700.71	1837.03
700.89	1861.60
701.08	1695.72
701.26	1730.53
701.45	2101.22
701.63	1660.90
701.81	1685.48
702.00	1662.95
702.18	1712.10
702.37	1740.77
702.55	1726.44
702.73	1714.15
702.92	1642.47
703.10	1662.95
703.28	1677.29
703.47	1679.33
703.65	1796.07
703.84	1656.81
704.02	1607.66
704.20	1742.82
704.39	1644.52
704.57	1624.04
704.75	1818.60
704.94	1771.49
705.12	1703.91
705.30	1757.16
705.49	2187.23
705.67	4270.01
705.86	9267.06
706.04	12132.17
706.22	13989.67
706.41	14788.38
706.59	13686.58
706.77	9420.66
706.96	7311.25
707.14	6342.56
707.32	5801.90
707.51	5455.79
707.69	4761.53
707.87	4255.68
708.06	3512.27
708.24	2885.59
708.42	2445.27
708.61	2303.96
708.79	1955.81
708.97	1798.12
709.16	1841.12
709.34	1660.90
709.52	1714.15
709.71	1650.66
709.89	1712.10
710.07	1636.33
710.26	1746.92
710.44	1671.14
710.62	1775.59
710.80	1679.33
710.99	1796.07
711.17	1667.05
711.35	1656.81
711.54	1685.48
711.72	1761.25
711.90	1714.15
712.09	1753.06
712.27	1685.48
712.45	1699.81
712.63	1658.85
712.82	1728.49
713.00	1708.01
713.18	1763.30
713.37	1781.73
713.55	1742.82
713.73	1693.67
713.91	1773.54
714.10	1714.15
714.28	1681.38
714.46	1697.77
714.65	1683.43
714.83	1763.30
715.01	1693.67
715.19	1691.62
715.38	1599.46
715.56	1746.92
715.74	1665.00
715.92	1751.01
716.11	1800.16
716.29	1562.60
716.47	1681.38
716.65	1718.25
716.84	1689.57
717.02	1791.97
717.20	1662.95
717.38	1624.04
717.57	1734.63
717.75	1705.96
717.93	1716.20
718.11	1728.49
718.30	1644.52
718.48	1763.30
718.66	1794.02
718.84	1742.82
719.03	1599.46
719.21	1624.04
719.39	1902.56
719.57	1697.77
719.75	1800.16
719.94	1691.62
720.12	1697.77
720.30	1689.57
720.48	1720.29
720.67	1689.57
720.85	1671.14
721.03	1755.11
721.21	1642.47
721.39	1736.68
721.58	1775.59
721.76	1783.78
721.94	1695.72
722.12	1703.91
722.30	1794.02
722.49	1730.53
722.67	1761.25
722.85	1724.39
723.03	1640.42
723.21	1691.62
723.40	1685.48
723.58	1783.78
723.76	1708.01
723.94	1753.06
724.12	1800.16
724.30	1781.73
724.49	1748.97
724.67	1611.75
724.85	1705.96
725.03	1638.38
725.21	1744.87
725.40	1853.41
725.58	1691.62
725.76	1732.58
725.94	1697.77
726.12	1683.43
726.30	1724.39
726.49	1685.48
726.67	1726.44
726.85	1675.24
727.03	1652.71
727.21	2123.74
727.39	2922.45
727.57	3672.01
727.76	4245.44
727.94	4298.69
728.12	4259.78
728.30	3655.62
728.48	2871.25
728.66	2678.74
728.84	2508.76
729.03	2318.30
729.21	2133.98
729.39	2050.02
729.57	1794.02
729.75	1773.54
729.93	1849.32
730.11	1703.91
730.30	1734.63
730.48	1665.00
730.66	1767.40
730.84	1771.49
731.02	1734.63
731.20	1673.19
731.38	1654.76
731.56	1679.33
731.74	1675.24
731.93	1685.48
732.11	1726.44
732.29	1654.76
732.47	1662.95
732.65	1718.25
732.83	1845.22
733.01	1626.09
733.19	1705.96
733.37	1720.29
733.56	1677.29
733.74	1650.66
733.92	1748.97
734.10	1626.09
734.28	1712.10
734.46	1652.71
734.64	1726.44
734.82	1687.53
735.00	1677.29
735.18	1699.81
735.36	1705.96
735.54	1722.34
735.73	1728.49
735.91	1632.23
736.09	1710.05
736.27	1730.53
736.45	1712.10
736.63	1562.60
736.81	1648.61
736.99	1806.31
737.17	1822.69
737.35	1599.46
737.53	1746.92
737.71	1728.49
737.89	1802.21
738.07	1634.28
738.25	1658.85
738.43	1617.90
738.61	1660.90
738.80	1546.22
738.98	1650.66
739.16	1753.06
739.34	1634.28
739.52	1820.64
739.70	1624.04
739.88	1687.53
740.06	1785.83
740.24	1607.66
740.42	1771.49
740.60	1619.94
740.78	1611.75
740.96	1689.57
741.14	1648.61
741.32	1656.81
741.50	1638.38
741.68	1859.56
741.86	1728.49
742.04	1603.56
742.22	1677.29
742.40	1724.39
742.58	1775.59
742.76	1568.74
742.94	1746.92
743.12	1642.47
743.30	1724.39
743.48	1763.30
743.66	1650.66
743.84	1751.01
744.02	1708.01
744.20	1703.91
744.38	1644.52
744.56	1740.77
744.74	1701.86
744.92	1783.78
745.10	1785.83
745.28	1667.05
745.46	1765.35
745.64	1632.23
745.82	1714.15
746.00	1665.00
746.18	1734.63
746.36	1654.76
746.54	1646.57
746.72	1708.01
746.90	1677.29
747.08	1808.36
747.26	1638.38
747.44	1783.78
747.62	1730.53
747.80	1619.94
747.98	1736.68
748.15	1677.29
748.33	1757.16
748.51	1677.29
748.69	1738.73
748.87	1609.70
749.05	1730.53
749.23	1714.15
749.41	1791.97
749.59	1691.62
749.77	1728.49
749.95	1773.54
750.13	1640.42
750.31	1697.77
750.49	1701.86
750.67	1763.30
750.85	1845.22
751.03	1730.53
751.20	1830.88
751.38	1677.29
751.56	1722.34
751.74	1753.06
751.92	1718.25
752.10	1591.27
752.28	1763.30
752.46	1677.29
752.64	1638.38
752.82	1636.33
753.00	1798.12
753.18	1740.77
753.35	1703.91
753.53	1689.57
753.71	1714.15
753.89	1660.90
754.07	1712.10
754.25	1759.21
754.43	1689.57
754.61	1722.34
754.79	1660.90
754.97	1669.09
755.14	1781.73
755.32	1599.46
755.50	1648.61
755.68	1681.38
755.86	1626.09
756.04	1730.53
756.22	1621.99
756.40	1730.53
756.57	1830.88
756.75	1681.38
756.93	1742.82
757.11	1673.19
757.29	1611.75
757.47	1646.57
757.65	1628.14
757.82	1546.22
758.00	1648.61
758.18	1568.74
758.36	1591.27
758.54	1777.64
758.72	1603.56
758.90	1734.63
759.07	1697.77
759.25	1634.28
759.43	1748.97
759.61	1628.14
759.79	2172.89
759.97	1728.49
760.15	1656.81
760.32	1624.04
760.50	1738.73
760.68	1828.84
760.86	1656.81
761.04	1755.11
761.22	1738.73
761.39	1685.48
761.57	1734.63
761.75	1710.05
761.93	1658.85
762.11	1611.75
762.28	1681.38
762.46	1693.67
762.64	1802.21
762.82	1554.41
763.00	1611.75
763.18	1820.64
763.35	1689.57
763.53	1720.29
763.71	1671.14
763.89	1734.63
764.07	1665.00
764.24	1693.67
764.42	1746.92
764.60	1621.99
764.78	1759.21
764.96	1732.58
765.13	1812.45
765.31	1667.05
765.49	1746.92
765.67	1632.23
765.84	1685.48
766.02	1691.62
766.20	1636.33
766.38	1654.76
766.56	1710.05
766.73	1722.34
766.91	1630.18
767.09	1701.86
767.27	1718.25
767.44	1693.67
767.62	1730.53
767.80	1773.54
767.98	1699.81
768.15	1679.33
768.33	1748.97
768.51	1695.72
768.69	1751.01
768.87	1796.07
769.04	1658.85
769.22	1818.60
769.40	1853.41
769.58	1816.55
769.75	1724.39
769.93	1722.34
770.11	1667.05
770.28	1691.62
770.46	1689.57
770.64	1632.23
770.82	1687.53
770.99	1748.97
771.17	1791.97
771.35	1632.23
771.53	1695.72
771.70	1652.71
771.88	1665.00
772.06	1652.71
772.23	1728.49
772.41	1712.10
772.59	1650.66
772.77	1613.80
772.94	1650.66
773.12	1685.48
773.30	1658.85
773.47	1675.24
773.65	1542.12
773.83	1771.49
774.01	1675.24
774.18	1607.66
774.36	1689.57
774.54	1597.42
774.71	1658.85
774.89	1619.94
775.07	1652.71
775.24	1650.66
775.42	1662.95
775.60	1812.45
775.78	1687.53
775.95	1617.90
776.13	1599.46
776.31	1585.13
776.48	1734.63
776.66	1787.88
776.84	1710.05
777.01	1615.85
777.19	1693.67
777.37	1720.29
777.54	1818.60
777.72	1826.79
777.90	1693.67
778.07	1609.70
778.25	1863.65
778.43	1705.96
778.60	1720.29
778.78	1699.81
778.96	1718.25
779.13	1603.56
779.31	1701.86
779.49	1652.71
779.66	1744.87
779.84	1677.29
780.01	1658.85
780.19	1658.85
780.37	1724.39
780.54	1779.68
780.72	1667.05
780.90	1705.96
781.07	1667.05
781.25	1611.75
781.43	1765.35
781.60	1595.37
781.78	1724.39
781.95	1710.05
782.13	1644.52
782.31	1654.76
782.48	1535.98
782.66	1693.67
782.83	1822.69
783.01	1724.39
783.19	1777.64
783.36	1691.62
783.54	1681.38
783.72	1742.82
783.89	1689.57
784.07	1738.73
784.24	1773.54
784.42	1728.49
784.60	1767.40
784.77	1669.09
784.95	1642.47
785.12	1634.28
785.30	1673.19
785.47	1679.33
785.65	1646.57
785.83	1724.39
786.00	1773.54
786.18	1714.15
786.35	1644.52
786.53	1679.33
786.71	1755.11
786.88	1716.20
787.06	1705.96
787.23	1732.58
787.41	1677.29
787.58	1652.71
787.76	1724.39
787.94	1665.00
788.11	1673.19
788.29	1697.77
788.46	1677.29
788.64	1638.38
788.81	1636.33
788.99	1658.85
789.16	1691.62
789.34	1644.52
789.52	1654.76
789.69	1705.96
789.87	1583.08
790.04	1615.85
790.22	1710.05
790.39	1812.45
790.57	1669.09
790.74	1628.14
790.92	1755.11
791.09	1656.81
791.27	1687.53
791.44	1800.16
791.62	1742.82
791.79	1724.39
791.97	1679.33
792.15	1857.51
792.32	1738.73
792.50	1781.73
792.67	1849.32
792.85	1781.73
793.02	1667.05
793.20	1611.75
793.37	1587.18
793.55	1734.63
793.72	1628.14
793.90	1773.54
794.07	1640.42
794.25	1613.80
794.42	1689.57
794.60	1644.52
794.77	1718.25
794.95	1726.44
795.12	1675.24
795.30	1701.86
795.47	1587.18
795.65	1851.36
795.82	1656.81
796.00	1640.42
796.17	1621.99
796.34	1642.47
796.52	1767.40
796.69	1726.44
796.87	1714.15
797.04	1775.59
797.22	1767.40
797.39	1675.24
797.57	1759.21
797.74	1771.49
797.92	1724.39
798.09	1634.28
798.27	1746.92
798.44	1714.15
798.62	1685.48
798.79	1722.34
798.96	1732.58
799.14	1775.59
799.31	1843.17
799.49	1650.66
799.66	1630.18
799.84	1757.16
800.01	1712.10
800.19	1691.62
800.36	1720.29
800.53	1689.57
800.71	1744.87
800.88	1748.97
801.06	1660.90
801.23	1658.85
801.41	1726.44
801.58	1720.29
801.75	1681.38
801.93	1773.54
802.10	1757.16
802.28	1652.71
802.45	1652.71
802.63	1751.01
802.80	1800.16
802.97	1703.91
803.15	1714.15
803.32	1699.81
803.50	1607.66
803.67	1665.00
803.84	1662.95
804.02	1718.25
804.19	1695.72
804.37	1521.64
804.54	1621.99
804.71	1673.19
804.89	1714.15
805.06	1673.19
805.24	1572.84
805.41	1628.14
805.58	1683.43
805.76	1837.03
805.93	1662.95
806.10	1753.06
806.28	1689.57
806.45	1728.49
806.63	1738.73
806.80	1638.38
806.97	1710.05
807.15	1765.35
807.32	1703.91
807.49	1759.21
807.67	1699.81
807.84	1744.87
808.01	1648.61
808.19	1818.60
808.36	1837.03
808.54	1669.09
808.71	1683.43
808.88	1714.15
809.06	1679.33
809.23	1791.97
809.40	1675.24
809.58	1808.36
809.75	1650.66
809.92	1716.20
810.10	1849.32
810.27	1656.81
810.44	1771.49
810.62	1714.15
810.79	1869.80
810.96	1679.33
811.14	1656.81
811.31	1667.05
811.48	1734.63
811.66	1656.81
811.83	1757.16
812.00	1687.53
812.18	1697.77
812.35	1869.80
812.52	1662.95
812.69	1626.09
812.87	1656.81
813.04	1642.47
813.21	1703.91
813.39	1697.77
813.56	1671.14
813.73	1740.77
813.91	1605.61
814.08	1730.53
814.25	1740.77
814.42	1601.51
814.60	1677.29
814.77	1675.24
814.94	1734.63
815.12	1699.81
815.29	1734.63
815.46	1642.47
815.63	1791.97
815.81	1714.15
815.98	1587.18
816.15	1697.77
816.33	1695.72
816.50	1646.57
816.67	1726.44
816.84	1662.95
817.02	1693.67
817.19	1683.43
817.36	1673.19
817.53	1759.21
817.71	1636.33
817.88	1834.98
818.05	1632.23
818.22	1724.39
818.40	1783.78
818.57	1685.48
818.74	1742.82
818.91	1726.44
819.09	1755.11
819.26	1740.77
819.43	1619.94
819.60	1726.44
819.78	1771.49
819.95	1716.20
820.12	1720.29
820.29	1761.25
820.47	1808.36
820.64	1609.70
820.81	1540.07
820.98	1728.49
821.15	1615.85
821.33	1701.86
821.50	1658.85
821.67	1796.07
821.84	1665.00
822.02	1671.14
822.19	1763.30
822.36	1634.28
822.53	1736.68
822.70	1603.56
822.88	1738.73
823.05	1804.26
823.22	1718.25
823.39	1722.34
823.56	1644.52
823.74	1769.44
823.91	1665.00
824.08	1652.71
824.25	1630.18
824.42	1796.07
824.60	1554.41
824.77	1699.81
824.94	1667.05
825.11	1697.77
825.28	1650.66
825.45	1673.19
825.63	1683.43
825.80	1607.66
825.97	1738.73
826.14	1728.49
826.31	1601.51
826.48	1720.29
826.66	1642.47
826.83	1634.28
827.00	1685.48
827.17	1646.57
827.34	1652.71
827.51	1642.47
827.69	1658.85
827.86	1648.61
828.03	1683.43
828.20	1755.11
828.37	1667.05
828.54	1689.57
828.71	1634.28
828.89	1714.15
829.06	1624.04
829.23	1808.36
829.40	1665.00
829.57	1724.39
829.74	1746.92
829.91	1689.57
830.09	1628.14
830.26	1732.58
830.43	1791.97
830.60	1710.05
830.77	1638.38
830.94	1775.59
831.11	1806.31
831.28	1675.24
831.46	1755.11
831.63	1699.81
831.80	1691.62
831.97	1640.42
832.14	1652.71
832.31	1779.68
832.48	1722.34
832.65	1781.73
832.82	1628.14
832.99	1652.71
833.17	1630.18
833.34	1781.73
833.51	1722.34
833.68	1656.81
833.85	1673.19
834.02	1685.48
834.19	1654.76
834.36	1658.85
834.53	1660.90
834.70	1767.40
834.87	1656.81
835.04	1658.85
835.22	1642.47
835.39	1738.73
835.56	1574.89
835.73	1701.86
835.90	1712.10
836.07	1695.72
836.24	1753.06
836.41	1658.85
836.58	1681.38
836.75	1755.11
836.92	1697.77
837.09	1722.34
837.26	1732.58
837.43	1708.01
837.60	1697.77
837.77	1720.29
837.94	1763.30
838.12	1744.87
838.29	1787.88
838.46	1652.71
838.63	1705.96
838.80	1798.12
838.97	1748.97
839.14	1708.01
839.31	1726.44
839.48	1619.94
839.65	1685.48
839.82	1683.43
839.99	1736.68
840.16	1763.30
840.33	1726.44
840.50	1736.68
840.67	1642.47
840.84	1583.08
841.01	1710.05
841.18	1640.42
841.35	1640.42
841.52	1708.01
841.69	1855.46
841.86	1724.39
842.03	1660.90
842.20	1693.67
842.37	1689.57
842.54	1712.10
842.71	1703.91
842.88	1660.90
843.05	1697.77
843.22	1599.46
843.39	1730.53
843.56	1753.06
843.73	1759.21
843.90	1677.29
844.07	1650.66
844.24	1808.36
844.41	1736.68
844.58	1667.05
844.75	1665.00
844.92	1767.40
845.09	1665.00
845.26	1652.71
845.43	1730.53
845.60	1673.19
845.77	1810.40
845.94	1654.76
846.10	1755.11
846.27	1554.41
846.44	1624.04
846.61	1658.85
846.78	1703.91
846.95	1736.68
847.12	1677.29
847.29	1689.57
847.46	1646.57
847.63	1744.87
847.80	1611.75
847.97	1671.14
848.14	1843.17
848.31	1671.14
848.48	1650.66
848.65	1744.87
848.82	1757.16
848.98	1773.54
849.15	1738.73
849.32	1839.08
849.49	1716.20
849.66	1693.67
849.83	1746.92
850.00	1746.92
850.17	1751.01
850.34	1636.33
850.51	1714.15
850.68	1675.24
850.85	1787.88
851.01	1730.53
851.18	1658.85
851.35	1638.38
851.52	1669.09
851.69	1787.88
851.86	1687.53
852.03	1636.33
852.20	1753.06
852.37	1697.77
852.53	1658.85
852.70	1730.53
852.87	1759.21
853.04	1697.77
853.21	1738.73
853.38	1746.92
853.55	1787.88
853.72	1753.06
853.89	1634.28
854.05	1687.53
854.22	1632.23
854.39	1732.58
854.56	1671.14
854.73	1716.20
854.90	1585.13
855.07	1632.23
855.23	1740.77
855.40	1634.28
855.57	1708.01
855.74	1599.46
855.91	1843.17
856.08	1644.52
856.25	1611.75
856.41	1677.29
856.58	1693.67
856.75	1689.57
856.92	1667.05
857.09	1779.68
857.26	1603.56
857.42	1624.04
857.59	1761.25
857.76	1609.70
857.93	1753.06
858.10	1658.85
858.27	1697.77
858.43	1619.94
858.60	1685.48
858.77	1673.19
858.94	1624.04
859.11	1730.53
859.27	1626.09
859.44	1683.43
859.61	1796.07
859.78	1697.77
859.95	1644.52
860.12	1675.24
860.28	1742.82
860.45	1816.55
860.62	1669.09
860.79	1720.29
860.95	1697.77
861.12	1710.05
861.29	1685.48
861.46	1634.28
861.63	1630.18
861.79	1722.34
861.96	1695.72
862.13	1675.24
862.30	1689.57
862.47	1632.23
862.63	1611.75
862.80	1806.31
862.97	1742.82
863.14	1697.77
863.30	1736.68
863.47	1650.66
863.64	1736.68
863.81	1669.09
863.97	1609.70
864.14	1699.81
864.31	1652.71
864.48	1816.55
864.65	1640.42
864.81	1740.77
864.98	1740.77
865.15	1726.44
865.32	1761.25
865.48	1789.92
865.65	1693.67
865.82	1667.05
865.98	1753.06
866.15	1800.16
866.32	1646.57
866.49	1740.77
866.65	1810.40
866.82	1591.27
866.99	1683.43
867.16	1634.28
867.32	1630.18
867.49	1658.85
867.66	1652.71
867.83	1681.38
867.99	1665.00
868.16	1669.09
868.33	1669.09
868.49	1697.77
868.66	1753.06
868.83	1802.21
868.99	1697.77
869.16	1773.54
869.33	1791.97
869.50	1757.16
869.66	1716.20
869.83	1636.33
870.00	1617.90
870.16	1728.49
870.33	1636.33
870.50	1728.49
870.66	1757.16
870.83	1738.73
871.00	1828.84
871.17	1716.20
871.33	1669.09
871.50	1722.34
871.67	1669.09
871.83	1669.09
872.00	1843.17
872.17	1697.77
872.33	1845.22
872.50	1755.11
872.67	1744.87
872.83	1730.53
873.00	1699.81
873.17	1667.05
873.33	1779.68
873.50	1804.26
873.67	1675.24
873.83	1685.48
874.00	1738.73
874.16	1765.35
874.33	1748.97
874.50	1673.19
874.66	1675.24
874.83	1648.61
875.00	1808.36
875.16	1718.25
875.33	1810.40
875.50	1591.27
875.66	1656.81
875.83	1714.15
875.99	1683.43
876.16	1630.18
876.33	1634.28
876.49	1716.20
876.66	1683.43
876.83	1701.86
876.99	1656.81
877.16	1660.90
877.32	1681.38
877.49	1572.84
877.66	1648.61
877.82	1744.87
877.99	1697.77
878.15	1787.88
878.32	1665.00
878.49	1691.62
878.65	1669.09
878.82	1773.54
878.98	1609.70
879.15	1730.53
879.32	1757.16
879.48	1757.16
879.65	1763.30
879.81	1650.66
879.98	1667.05
880.15	1660.90
880.31	1769.44
880.48	1687.53
880.64	1763.30
880.81	1687.53
880.97	1746.92
881.14	1748.97
881.31	1691.62
881.47	1824.74
881.64	1626.09
881.80	1609.70
881.97	1681.38
882.13	1746.92
882.30	1644.52
882.47	1660.90
882.63	1734.63
882.80	1646.57
882.96	1630.18
883.13	1769.44
883.29	1708.01
883.46	1669.09
883.62	1802.21
883.79	1744.87
883.95	1703.91
884.12	1710.05
884.29	1857.51
884.45	1621.99
884.62	1701.86
884.78	1624.04
884.95	1767.40
885.11	1642.47
885.28	1689.57
885.44	1757.16
885.61	1679.33
885.77	1740.77
885.94	1716.20
886.10	1699.81
886.27	1751.01
886.43	1779.68
886.60	1718.25
886.76	1673.19
886.93	1728.49
887.09	1687.53
887.26	1724.39
887.42	1691.62
887.59	1748.97
887.75	1832.93
887.92	1757.16
888.08	1777.64
888.25	1716.20
888.41	1781.73
888.58	1703.91
888.74	1621.99
888.91	1697.77
>>>>>End Processed Spectral Data<<<<<
