SpectraSuite Data File
++++++++++++++++++++++++++++++++++++
Date: Mon Jun 06 15:22:17 CEST 2016
User: root
Dark Spectrum Present: No
Reference Spectrum Present: No
Number of Sampled Component Spectra: 1
Spectrometers: USB4C02835
Integration Time (usec): 100000 (USB4C02835)
Spectra Averaged: 1 (USB4C02835)
Boxcar Smoothing: 0 (USB4C02835)
Correct for Electrical Dark: No (USB4C02835)
Strobe/Lamp Enabled: No (USB4C02835)
Correct for Detector Non-linearity: No (USB4C02835)
Correct for Stray Light: No (USB4C02835)
Number of Pixels in Processed Spectrum: 3648
>>>>>Begin Processed Spectral Data<<<<<
177.47	1501.16
177.69	1501.16
177.91	1501.16
178.13	1533.93
178.36	1505.26
178.58	1619.94
178.80	1757.16
179.02	1564.65
179.24	1689.57
179.46	1681.38
179.68	1755.11
179.90	1681.38
180.13	1722.34
180.35	1546.22
180.57	1660.90
180.79	1787.88
181.01	1734.63
181.23	1726.44
181.45	1763.30
181.67	1808.36
181.90	1695.72
182.12	1687.53
182.34	1652.71
182.56	1757.16
182.78	1777.64
183.00	1697.77
183.22	1755.11
183.44	1617.90
183.66	1830.88
183.89	1781.73
184.11	1736.68
184.33	1742.82
184.55	1720.29
184.77	1765.35
184.99	1724.39
185.21	1744.87
185.43	1884.13
185.65	1705.96
185.87	1763.30
186.10	1826.79
186.32	1824.74
186.54	1687.53
186.76	1771.49
186.98	1798.12
187.20	1652.71
187.42	1720.29
187.64	1710.05
187.86	1693.67
188.08	1777.64
188.30	1734.63
188.52	1794.02
188.75	1769.44
188.97	1875.94
189.19	1665.00
189.41	1675.24
189.63	1710.05
189.85	1689.57
190.07	1607.66
190.29	1595.37
190.51	1748.97
190.73	1626.09
190.95	1771.49
191.17	1755.11
191.39	1599.46
191.61	1695.72
191.84	1656.81
192.06	1710.05
192.28	1714.15
192.50	1861.60
192.72	1683.43
192.94	1703.91
193.16	1783.78
193.38	1685.48
193.60	1624.04
193.82	1718.25
194.04	1775.59
194.26	1710.05
194.48	1712.10
194.70	1626.09
194.92	1710.05
195.14	1822.69
195.36	1669.09
195.58	1689.57
195.80	1726.44
196.02	1724.39
196.24	1667.05
196.46	1765.35
196.69	1632.23
196.91	1861.60
197.13	1683.43
197.35	1648.61
197.57	1781.73
197.79	1628.14
198.01	1796.07
198.23	1691.62
198.45	1755.11
198.67	1628.14
198.89	1728.49
199.11	1746.92
199.33	1705.96
199.55	1601.51
199.77	1701.86
199.99	1755.11
200.21	1683.43
200.43	1669.09
200.65	1683.43
200.87	1558.50
201.09	1775.59
201.31	1648.61
201.53	1671.14
201.75	1738.73
201.97	1714.15
202.19	1667.05
202.41	1728.49
202.63	1888.23
202.85	1697.77
203.07	1755.11
203.29	1710.05
203.51	1648.61
203.73	1652.71
203.95	1896.42
204.17	1710.05
204.39	1738.73
204.61	1693.67
204.83	1763.30
205.05	1748.97
205.27	1720.29
205.49	1877.99
205.71	1744.87
205.93	1605.61
206.15	1636.33
206.37	1710.05
206.59	1685.48
206.81	1581.03
207.03	1683.43
207.25	1648.61
207.47	1804.26
207.69	1736.68
207.91	1791.97
208.13	1794.02
208.34	1683.43
208.56	1630.18
208.78	1832.93
209.00	1710.05
209.22	1681.38
209.44	1765.35
209.66	1642.47
209.88	1699.81
210.10	1722.34
210.32	1640.42
210.54	1804.26
210.76	1695.72
210.98	1804.26
211.20	1644.52
211.42	1689.57
211.64	1816.55
211.86	1738.73
212.08	1687.53
212.30	1794.02
212.52	1763.30
212.74	1673.19
212.96	1665.00
213.17	1718.25
213.39	1791.97
213.61	1775.59
213.83	1720.29
214.05	1675.24
214.27	1748.97
214.49	1640.42
214.71	1701.86
214.93	1761.25
215.15	1791.97
215.37	1697.77
215.59	1648.61
215.81	1765.35
216.03	1826.79
216.24	1701.86
216.46	1724.39
216.68	1763.30
216.90	1740.77
217.12	1730.53
217.34	1740.77
217.56	1730.53
217.78	1773.54
218.00	1712.10
218.22	1746.92
218.44	1621.99
218.66	1658.85
218.87	1884.13
219.09	1728.49
219.31	1740.77
219.53	1757.16
219.75	1730.53
219.97	1751.01
220.19	1681.38
220.41	1634.28
220.63	1759.21
220.85	1724.39
221.06	1726.44
221.28	1759.21
221.50	1705.96
221.72	1738.73
221.94	1687.53
222.16	1685.48
222.38	1718.25
222.60	1769.44
222.82	1695.72
223.03	1775.59
223.25	1585.13
223.47	1730.53
223.69	1818.60
223.91	1845.22
224.13	1718.25
224.35	1679.33
224.57	1771.49
224.78	1710.05
225.00	1697.77
225.22	1714.15
225.44	1685.48
225.66	1675.24
225.88	1748.97
226.10	1783.78
226.32	1703.91
226.53	1771.49
226.75	1822.69
226.97	1689.57
227.19	1728.49
227.41	1638.38
227.63	1732.58
227.85	1679.33
228.06	1726.44
228.28	1818.60
228.50	1810.40
228.72	1605.61
228.94	1691.62
229.16	1617.90
229.37	1603.56
229.59	1660.90
229.81	1744.87
230.03	1736.68
230.25	1650.66
230.47	1658.85
230.69	1644.52
230.90	1697.77
231.12	1701.86
231.34	1726.44
231.56	1673.19
231.78	1667.05
232.00	1726.44
232.21	1687.53
232.43	1697.77
232.65	1585.13
232.87	1759.21
233.09	1626.09
233.30	1658.85
233.52	1710.05
233.74	1662.95
233.96	1648.61
234.18	1701.86
234.40	1714.15
234.61	1839.08
234.83	1630.18
235.05	1632.23
235.27	1847.27
235.49	1804.26
235.70	1656.81
235.92	1740.77
236.14	1722.34
236.36	1861.60
236.58	1671.14
236.79	1675.24
237.01	1716.20
237.23	1736.68
237.45	1787.88
237.67	1679.33
237.88	1712.10
238.10	1865.70
238.32	1701.86
238.54	1656.81
238.76	1755.11
238.97	1640.42
239.19	1677.29
239.41	1794.02
239.63	1736.68
239.85	1691.62
240.06	1654.76
240.28	1789.92
240.50	1714.15
240.72	1710.05
240.93	1746.92
241.15	1824.74
241.37	1701.86
241.59	1839.08
241.81	1728.49
242.02	1689.57
242.24	1765.35
242.46	1781.73
242.68	1654.76
242.89	1673.19
243.11	1828.84
243.33	1667.05
243.55	1732.58
243.76	1757.16
243.98	1710.05
244.20	1669.09
244.42	1677.29
244.64	1755.11
244.85	1640.42
245.07	1718.25
245.29	1794.02
245.51	1675.24
245.72	1742.82
245.94	1824.74
246.16	1716.20
246.38	1665.00
246.59	1624.04
246.81	1685.48
247.03	1759.21
247.24	1667.05
247.46	1636.33
247.68	1769.44
247.90	1695.72
248.11	1689.57
248.33	1740.77
248.55	1726.44
248.77	1677.29
248.98	1748.97
249.20	1728.49
249.42	1736.68
249.64	1759.21
249.85	1724.39
250.07	1773.54
250.29	1804.26
250.50	1736.68
250.72	1613.80
250.94	1699.81
251.16	1837.03
251.37	1808.36
251.59	1718.25
251.81	1748.97
252.02	1783.78
252.24	1628.14
252.46	1802.21
252.68	1617.90
252.89	1683.43
253.11	1591.27
253.33	1751.01
253.54	1697.77
253.76	1695.72
253.98	1703.91
254.20	1648.61
254.41	1656.81
254.63	1628.14
254.85	1648.61
255.06	1712.10
255.28	1730.53
255.50	1683.43
255.71	1626.09
255.93	1646.57
256.15	1646.57
256.36	1759.21
256.58	1765.35
256.80	1697.77
257.02	1724.39
257.23	1677.29
257.45	1753.06
257.67	1757.16
257.88	1671.14
258.10	1734.63
258.32	1738.73
258.53	1724.39
258.75	1789.92
258.97	1687.53
259.18	1665.00
259.40	1724.39
259.62	1791.97
259.83	1789.92
260.05	1779.68
260.27	1961.95
260.48	1736.68
260.70	1630.18
260.92	1724.39
261.13	1734.63
261.35	1705.96
261.57	1730.53
261.78	1677.29
262.00	1662.95
262.22	1716.20
262.43	1673.19
262.65	1724.39
262.86	1638.38
263.08	1898.47
263.30	1728.49
263.51	1570.79
263.73	1689.57
263.95	1714.15
264.16	1628.14
264.38	1677.29
264.60	1734.63
264.81	1648.61
265.03	1736.68
265.25	1785.83
265.46	1742.82
265.68	1757.16
265.89	1767.40
266.11	1581.03
266.33	1722.34
266.54	1755.11
266.76	1796.07
266.98	1830.88
267.19	1783.78
267.41	1755.11
267.62	1722.34
267.84	1642.47
268.06	1730.53
268.27	1755.11
268.49	1777.64
268.70	1695.72
268.92	1683.43
269.14	1716.20
269.35	1665.00
269.57	1724.39
269.79	1705.96
270.00	1699.81
270.22	1855.46
270.43	1613.80
270.65	1595.37
270.87	1726.44
271.08	1787.88
271.30	1810.40
271.51	1607.66
271.73	1744.87
271.95	1757.16
272.16	1732.58
272.38	1720.29
272.59	1652.71
272.81	1695.72
273.02	1755.11
273.24	1740.77
273.46	1753.06
273.67	1617.90
273.89	1753.06
274.10	1757.16
274.32	1828.84
274.54	1736.68
274.75	1755.11
274.97	1742.82
275.18	1806.31
275.40	1759.21
275.61	1755.11
275.83	1746.92
276.05	1546.22
276.26	1728.49
276.48	1787.88
276.69	1675.24
276.91	1615.85
277.12	1761.25
277.34	1783.78
277.55	1818.60
277.77	1695.72
277.99	1681.38
278.20	1685.48
278.42	1697.77
278.63	1630.18
278.85	1652.71
279.06	1673.19
279.28	1701.86
279.49	1796.07
279.71	1714.15
279.93	1722.34
280.14	1742.82
280.36	1753.06
280.57	1699.81
280.79	1708.01
281.00	1681.38
281.22	1650.66
281.43	1818.60
281.65	1624.04
281.86	1708.01
282.08	1701.86
282.29	1775.59
282.51	1667.05
282.73	1701.86
282.94	1568.74
283.16	1705.96
283.37	1744.87
283.59	1703.91
283.80	1646.57
284.02	1761.25
284.23	1755.11
284.45	1679.33
284.66	1701.86
284.88	1591.27
285.09	1742.82
285.31	1671.14
285.52	1751.01
285.74	1615.85
285.95	1804.26
286.17	1685.48
286.38	1693.67
286.60	1626.09
286.81	1705.96
287.03	1718.25
287.24	1722.34
287.46	1730.53
287.67	1693.67
287.89	1890.28
288.10	1712.10
288.32	1773.54
288.53	1849.32
288.75	1679.33
288.96	1804.26
289.18	1689.57
289.39	1619.94
289.61	1802.21
289.82	1802.21
290.04	1796.07
290.25	1703.91
290.47	1685.48
290.68	1697.77
290.90	1789.92
291.11	1628.14
291.33	1734.63
291.54	1712.10
291.76	1697.77
291.97	1714.15
292.18	1759.21
292.40	1679.33
292.61	1755.11
292.83	1789.92
293.04	1716.20
293.26	1656.81
293.47	1705.96
293.69	1646.57
293.90	1755.11
294.12	1845.22
294.33	1669.09
294.55	1667.05
294.76	1746.92
294.97	1736.68
295.19	1904.61
295.40	1724.39
295.62	1732.58
295.83	1755.11
296.05	1691.62
296.26	1703.91
296.48	1705.96
296.69	1718.25
296.90	1654.76
297.12	1671.14
297.33	1767.40
297.55	1693.67
297.76	1783.78
297.98	1736.68
298.19	1773.54
298.41	1677.29
298.62	1662.95
298.83	1777.64
299.05	1834.98
299.26	1712.10
299.48	1689.57
299.69	1753.06
299.90	1705.96
300.12	1720.29
300.33	1779.68
300.55	1728.49
300.76	1751.01
300.98	1669.09
301.19	1753.06
301.40	1654.76
301.62	1757.16
301.83	1771.49
302.05	1748.97
302.26	1685.48
302.47	1660.90
302.69	1617.90
302.90	1738.73
303.12	1626.09
303.33	1773.54
303.54	1841.12
303.76	1650.66
303.97	1722.34
304.19	1785.83
304.40	1685.48
304.61	1787.88
304.83	1769.44
305.04	1751.01
305.26	1722.34
305.47	1679.33
305.68	1736.68
305.90	1718.25
306.11	1728.49
306.33	1722.34
306.54	1695.72
306.75	1626.09
306.97	1652.71
307.18	1597.42
307.39	1732.58
307.61	1759.21
307.82	1671.14
308.04	1708.01
308.25	1665.00
308.46	1724.39
308.68	1691.62
308.89	1734.63
309.10	1839.08
309.32	1796.07
309.53	1716.20
309.74	1710.05
309.96	1640.42
310.17	1787.88
310.39	1716.20
310.60	1691.62
310.81	1753.06
311.03	1626.09
311.24	1730.53
311.45	1740.77
311.67	1865.70
311.88	1703.91
312.09	1683.43
312.31	1634.28
312.52	1705.96
312.73	1660.90
312.95	1626.09
313.16	1656.81
313.37	1871.84
313.59	1763.30
313.80	1808.36
314.01	1775.59
314.23	1775.59
314.44	1724.39
314.65	1624.04
314.87	1658.85
315.08	1742.82
315.29	1705.96
315.51	1734.63
315.72	1683.43
315.93	1863.65
316.15	1751.01
316.36	1615.85
316.57	1724.39
316.79	1660.90
317.00	1658.85
317.21	1740.77
317.43	1646.57
317.64	1695.72
317.85	1724.39
318.07	1691.62
318.28	1830.88
318.49	1832.93
318.70	1910.75
318.92	1773.54
319.13	1753.06
319.34	1906.66
319.56	1759.21
319.77	1781.73
319.98	1722.34
320.20	1794.02
320.41	1738.73
320.62	1783.78
320.83	1699.81
321.05	1869.80
321.26	1738.73
321.47	1701.86
321.69	1734.63
321.90	1603.56
322.11	1628.14
322.32	1757.16
322.54	1748.97
322.75	1695.72
322.96	1791.97
323.18	1685.48
323.39	1644.52
323.60	1648.61
323.81	1787.88
324.03	1624.04
324.24	1658.85
324.45	1732.58
324.66	1667.05
324.88	1726.44
325.09	1816.55
325.30	1744.87
325.52	1720.29
325.73	1753.06
325.94	1665.00
326.15	1683.43
326.37	1656.81
326.58	1775.59
326.79	1796.07
327.00	1742.82
327.22	1732.58
327.43	1640.42
327.64	1597.42
327.85	1748.97
328.07	1769.44
328.28	1736.68
328.49	1613.80
328.70	1744.87
328.92	1740.77
329.13	1687.53
329.34	1738.73
329.55	1802.21
329.76	1755.11
329.98	1693.67
330.19	1740.77
330.40	1695.72
330.61	1763.30
330.83	1755.11
331.04	1683.43
331.25	1757.16
331.46	1689.57
331.68	1607.66
331.89	1791.97
332.10	1683.43
332.31	1665.00
332.52	1773.54
332.74	1775.59
332.95	1652.71
333.16	1708.01
333.37	1781.73
333.58	1703.91
333.80	1730.53
334.01	1658.85
334.22	1609.70
334.43	1681.38
334.64	1714.15
334.86	1583.08
335.07	1642.47
335.28	1759.21
335.49	1695.72
335.70	1816.55
335.92	1669.09
336.13	1849.32
336.34	1630.18
336.55	1619.94
336.76	1683.43
336.98	1558.50
337.19	1599.46
337.40	1755.11
337.61	1896.42
337.82	1759.21
338.04	1755.11
338.25	1634.28
338.46	1775.59
338.67	1718.25
338.88	1656.81
339.09	1607.66
339.31	1681.38
339.52	1597.42
339.73	1683.43
339.94	1738.73
340.15	1759.21
340.36	1648.61
340.58	1644.52
340.79	1689.57
341.00	1726.44
341.21	1595.37
341.42	1865.70
341.63	1757.16
341.85	1785.83
342.06	1697.77
342.27	1634.28
342.48	1718.25
342.69	1669.09
342.90	1716.20
343.12	1746.92
343.33	1753.06
343.54	1730.53
343.75	1892.32
343.96	1714.15
344.17	1697.77
344.38	1701.86
344.60	1613.80
344.81	1675.24
345.02	1718.25
345.23	1777.64
345.44	1777.64
345.65	1712.10
345.86	1755.11
346.07	1697.77
346.29	1738.73
346.50	1677.29
346.71	1763.30
346.92	1789.92
347.13	1812.45
347.34	1730.53
347.55	1763.30
347.76	1744.87
347.98	1705.96
348.19	1699.81
348.40	1800.16
348.61	1779.68
348.82	1777.64
349.03	1740.77
349.24	1710.05
349.45	1898.47
349.66	1581.03
349.88	1734.63
350.09	1630.18
350.30	1789.92
350.51	1798.12
350.72	1761.25
350.93	1638.38
351.14	1744.87
351.35	1720.29
351.56	1751.01
351.77	1660.90
351.99	1740.77
352.20	1814.50
352.41	1787.88
352.62	1593.32
352.83	1720.29
353.04	1699.81
353.25	1708.01
353.46	1767.40
353.67	1806.31
353.88	1693.67
354.09	1765.35
354.30	1726.44
354.52	1785.83
354.73	1687.53
354.94	1716.20
355.15	1691.62
355.36	1931.23
355.57	1673.19
355.78	1816.55
355.99	1732.58
356.20	1730.53
356.41	1738.73
356.62	1708.01
356.83	1683.43
357.04	1787.88
357.25	1589.22
357.46	1695.72
357.68	1591.27
357.89	1662.95
358.10	1652.71
358.31	1746.92
358.52	1748.97
358.73	1615.85
358.94	1705.96
359.15	1712.10
359.36	1748.97
359.57	1726.44
359.78	1697.77
359.99	1683.43
360.20	1660.90
360.41	1736.68
360.62	1720.29
360.83	1757.16
361.04	1759.21
361.25	1771.49
361.46	1789.92
361.67	1710.05
361.88	1734.63
362.09	1767.40
362.30	1687.53
362.51	1693.67
362.72	1701.86
362.93	1744.87
363.14	1767.40
363.35	1732.58
363.56	1681.38
363.78	1726.44
363.99	1746.92
364.20	1632.23
364.41	1699.81
364.62	1771.49
364.83	1726.44
365.04	1716.20
365.25	1740.77
365.46	1789.92
365.67	1652.71
365.88	1603.56
366.09	1701.86
366.30	1662.95
366.51	1755.11
366.72	1609.70
366.93	1726.44
367.14	1722.34
367.35	1882.08
367.56	1708.01
367.77	1773.54
367.98	1693.67
368.18	1722.34
368.39	1779.68
368.60	1703.91
368.81	1767.40
369.02	1779.68
369.23	1685.48
369.44	1658.85
369.65	1640.42
369.86	1648.61
370.07	1722.34
370.28	1636.33
370.49	1808.36
370.70	1722.34
370.91	1650.66
371.12	1656.81
371.33	1753.06
371.54	1712.10
371.75	1802.21
371.96	1632.23
372.17	1722.34
372.38	1679.33
372.59	1683.43
372.80	1667.05
373.01	1683.43
373.22	1777.64
373.43	1734.63
373.64	1648.61
373.85	1804.26
374.06	1832.93
374.26	1701.86
374.47	1767.40
374.68	1802.21
374.89	1718.25
375.10	1740.77
375.31	1724.39
375.52	1767.40
375.73	1763.30
375.94	1669.09
376.15	1796.07
376.36	1691.62
376.57	1701.86
376.78	1677.29
376.99	1720.29
377.20	1755.11
377.40	1667.05
377.61	1828.84
377.82	1617.90
378.03	1759.21
378.24	1757.16
378.45	1732.58
378.66	1722.34
378.87	1632.23
379.08	1683.43
379.29	1703.91
379.50	1777.64
379.71	1785.83
379.91	1746.92
380.12	1701.86
380.33	1703.91
380.54	1753.06
380.75	1724.39
380.96	1765.35
381.17	1732.58
381.38	1689.57
381.59	1761.25
381.80	1728.49
382.00	1810.40
382.21	1859.56
382.42	1775.59
382.63	1875.94
382.84	1757.16
383.05	1736.68
383.26	1822.69
383.47	1732.58
383.68	1806.31
383.88	1716.20
384.09	1726.44
384.30	1849.32
384.51	1755.11
384.72	1648.61
384.93	1576.94
385.14	1804.26
385.35	1810.40
385.55	1609.70
385.76	1744.87
385.97	1771.49
386.18	1634.28
386.39	1640.42
386.60	1691.62
386.81	1693.67
387.02	1650.66
387.22	1654.76
387.43	1765.35
387.64	1810.40
387.85	1959.91
388.06	2136.03
388.27	4089.79
388.48	6563.74
388.68	8064.90
388.89	9478.00
389.10	9437.04
389.31	8370.05
389.52	7536.52
389.73	6756.25
389.93	6125.47
390.14	5822.38
390.35	5132.21
390.56	4603.83
390.77	3715.02
390.98	2942.93
391.18	2508.76
391.39	2015.20
391.60	1849.32
391.81	1947.62
392.02	1714.15
392.23	1800.16
392.43	1710.05
392.64	1800.16
392.85	1757.16
393.06	1906.66
393.27	1710.05
393.47	1695.72
393.68	1742.82
393.89	1687.53
394.10	1802.21
394.31	1683.43
394.52	1687.53
394.72	1710.05
394.93	1794.02
395.14	1613.80
395.35	1761.25
395.56	1671.14
395.76	1865.70
395.97	1755.11
396.18	1820.64
396.39	1818.60
396.60	1959.91
396.80	1875.94
397.01	1839.08
397.22	1802.21
397.43	1808.36
397.64	1800.16
397.84	1783.78
398.05	1863.65
398.26	1783.78
398.47	1775.59
398.67	1869.80
398.88	1701.86
399.09	1816.55
399.30	1751.01
399.51	1757.16
399.71	1667.05
399.92	1683.43
400.13	1705.96
400.34	1703.91
400.54	1761.25
400.75	1787.88
400.96	1771.49
401.17	1769.44
401.37	1726.44
401.58	1697.77
401.79	1767.40
402.00	1945.57
402.21	2000.87
402.41	1943.52
402.62	2033.63
402.83	2025.44
403.04	2054.11
403.24	2103.26
403.45	1873.89
403.66	1841.12
403.87	1894.37
404.07	1896.42
404.28	1892.32
404.49	1863.65
404.70	1771.49
404.90	1779.68
405.11	1744.87
405.32	1730.53
405.52	1697.77
405.73	1650.66
405.94	1652.71
406.15	1740.77
406.35	1800.16
406.56	1845.22
406.77	1746.92
406.98	1773.54
407.18	1691.62
407.39	1783.78
407.60	1652.71
407.80	1730.53
408.01	1673.19
408.22	1787.88
408.43	1769.44
408.63	1839.08
408.84	1734.63
409.05	1705.96
409.25	1609.70
409.46	1769.44
409.67	1699.81
409.88	1624.04
410.08	1726.44
410.29	1724.39
410.50	1791.97
410.70	1689.57
410.91	1701.86
411.12	1716.20
411.32	1656.81
411.53	1753.06
411.74	1810.40
411.95	1771.49
412.15	1763.30
412.36	1787.88
412.57	1728.49
412.77	1804.26
412.98	1765.35
413.19	1693.67
413.39	1742.82
413.60	1798.12
413.81	1755.11
414.01	1687.53
414.22	1673.19
414.43	1761.25
414.63	1689.57
414.84	1740.77
415.05	1667.05
415.25	1701.86
415.46	1710.05
415.67	1642.47
415.87	1693.67
416.08	1669.09
416.29	1697.77
416.49	1691.62
416.70	1658.85
416.91	1660.90
417.11	1714.15
417.32	1732.58
417.53	1834.98
417.73	1773.54
417.94	1681.38
418.15	1730.53
418.35	1714.15
418.56	1748.97
418.77	1888.23
418.97	1722.34
419.18	1681.38
419.38	1634.28
419.59	1732.58
419.80	1763.30
420.00	1705.96
420.21	1697.77
420.42	1748.97
420.62	1683.43
420.83	1677.29
421.04	1701.86
421.24	1716.20
421.45	1753.06
421.65	1716.20
421.86	1693.67
422.07	1763.30
422.27	1767.40
422.48	1769.44
422.69	1654.76
422.89	1718.25
423.10	1720.29
423.30	1654.76
423.51	1693.67
423.72	1718.25
423.92	1726.44
424.13	1662.95
424.33	1769.44
424.54	1710.05
424.75	1683.43
424.95	1824.74
425.16	1693.67
425.36	1673.19
425.57	1816.55
425.78	1748.97
425.98	1753.06
426.19	1705.96
426.39	1656.81
426.60	1824.74
426.81	1744.87
427.01	1677.29
427.22	1710.05
427.42	1683.43
427.63	1652.71
427.83	1800.16
428.04	1808.36
428.25	1757.16
428.45	1849.32
428.66	1734.63
428.86	1787.88
429.07	1730.53
429.28	1722.34
429.48	1681.38
429.69	1755.11
429.89	1736.68
430.10	1695.72
430.30	1689.57
430.51	1759.21
430.71	1699.81
430.92	1638.38
431.13	1746.92
431.33	1816.55
431.54	1689.57
431.74	1830.88
431.95	1849.32
432.15	1675.24
432.36	1720.29
432.56	1726.44
432.77	1867.75
432.98	1843.17
433.18	1712.10
433.39	1738.73
433.59	1705.96
433.80	1867.75
434.00	1832.93
434.21	1748.97
434.41	1691.62
434.62	1791.97
434.82	1660.90
435.03	1710.05
435.23	1724.39
435.44	1667.05
435.64	1667.05
435.85	1748.97
436.06	1800.16
436.26	1712.10
436.47	1656.81
436.67	1597.42
436.88	1798.12
437.08	1748.97
437.29	1787.88
437.49	1781.73
437.70	1740.77
437.90	1767.40
438.11	1851.36
438.31	1822.69
438.52	1892.32
438.72	1834.98
438.93	1925.09
439.13	1783.78
439.34	1810.40
439.54	1757.16
439.75	1804.26
439.95	1855.46
440.16	1736.68
440.36	1751.01
440.57	1761.25
440.77	1751.01
440.98	1775.59
441.18	1798.12
441.39	1769.44
441.59	1679.33
441.80	1880.04
442.00	1802.21
442.21	1808.36
442.41	1656.81
442.62	1761.25
442.82	1753.06
443.02	1705.96
443.23	1734.63
443.43	1708.01
443.64	1843.17
443.84	1710.05
444.05	1828.84
444.25	1787.88
444.46	1691.62
444.66	1746.92
444.87	1832.93
445.07	1656.81
445.28	1746.92
445.48	1828.84
445.69	1757.16
445.89	1861.60
446.09	1783.78
446.30	1964.00
446.50	2684.89
446.71	3594.19
446.91	4272.06
447.12	4745.14
447.32	4853.69
447.53	4251.58
447.73	3815.37
447.93	3545.03
448.14	3262.41
448.34	3176.40
448.55	2846.68
448.75	2787.29
448.96	2731.99
449.16	2535.39
449.36	2250.72
449.57	2047.97
449.77	1898.47
449.98	1773.54
450.18	1851.36
450.39	1824.74
450.59	1755.11
450.79	1820.64
451.00	1748.97
451.20	1777.64
451.41	1654.76
451.61	1718.25
451.81	1728.49
452.02	1734.63
452.22	1689.57
452.43	1794.02
452.63	1654.76
452.84	1761.25
453.04	1783.78
453.24	1726.44
453.45	1697.77
453.65	1763.30
453.86	1689.57
454.06	1697.77
454.26	1708.01
454.47	1722.34
454.67	1822.69
454.87	1748.97
455.08	1714.15
455.28	1806.31
455.49	1769.44
455.69	1677.29
455.89	1910.75
456.10	1812.45
456.30	1738.73
456.51	1763.30
456.71	1763.30
456.91	1736.68
457.12	1753.06
457.32	1791.97
457.52	1632.23
457.73	1734.63
457.93	1771.49
458.14	1718.25
458.34	1597.42
458.54	1675.24
458.75	1742.82
458.95	1814.50
459.15	1830.88
459.36	1787.88
459.56	1781.73
459.76	1918.95
459.97	1796.07
460.17	1699.81
460.37	1884.13
460.58	1724.39
460.78	1822.69
460.99	1718.25
461.19	1726.44
461.39	1800.16
461.60	1708.01
461.80	1730.53
462.00	1693.67
462.21	1779.68
462.41	1673.19
462.61	1638.38
462.82	1624.04
463.02	1800.16
463.22	1785.83
463.43	1800.16
463.63	1724.39
463.83	1736.68
464.04	1837.03
464.24	1693.67
464.44	1671.14
464.64	1730.53
464.85	1812.45
465.05	1777.64
465.25	1755.11
465.46	1683.43
465.66	1800.16
465.86	1755.11
466.07	1796.07
466.27	1751.01
466.47	1665.00
466.68	1693.67
466.88	1820.64
467.08	1804.26
467.29	1820.64
467.49	1769.44
467.69	1738.73
467.89	1693.67
468.10	1712.10
468.30	1718.25
468.50	1732.58
468.71	1746.92
468.91	1617.90
469.11	1845.22
469.31	1703.91
469.52	1632.23
469.72	1837.03
469.92	1818.60
470.13	1714.15
470.33	1705.96
470.53	1837.03
470.73	2119.65
470.94	2271.20
471.14	2340.83
471.34	2568.15
471.54	2453.47
471.75	2258.91
471.95	2166.75
472.15	2166.75
472.36	2103.26
472.56	2101.22
472.76	2127.84
472.96	2039.78
473.17	1918.95
473.37	1914.85
473.57	1724.39
473.77	1855.46
473.98	1736.68
474.18	1658.85
474.38	1880.04
474.58	1628.14
474.79	1714.15
474.99	1765.35
475.19	1822.69
475.39	1693.67
475.60	1722.34
475.80	1763.30
476.00	1703.91
476.20	1640.42
476.41	1699.81
476.61	1812.45
476.81	1789.92
477.01	1708.01
477.21	1820.64
477.42	1800.16
477.62	1693.67
477.82	1679.33
478.02	1771.49
478.23	1736.68
478.43	1738.73
478.63	1748.97
478.83	1695.72
479.03	1697.77
479.24	1742.82
479.44	1853.41
479.64	1689.57
479.84	1665.00
480.04	1681.38
480.25	1730.53
480.45	1712.10
480.65	1703.91
480.85	1806.31
481.06	1716.20
481.26	1742.82
481.46	1740.77
481.66	1714.15
481.86	1658.85
482.06	1812.45
482.27	1697.77
482.47	1691.62
482.67	1675.24
482.87	1714.15
483.07	1882.08
483.28	1714.15
483.48	1658.85
483.68	1767.40
483.88	1714.15
484.08	1658.85
484.29	1708.01
484.49	1763.30
484.69	1658.85
484.89	1785.83
485.09	1765.35
485.29	1834.98
485.50	1636.33
485.70	1699.81
485.90	1779.68
486.10	1740.77
486.30	1787.88
486.50	1769.44
486.71	1714.15
486.91	1808.36
487.11	1767.40
487.31	1677.29
487.51	1798.12
487.71	1609.70
487.91	1613.80
488.12	1726.44
488.32	1564.65
488.52	1679.33
488.72	1568.74
488.92	1816.55
489.12	1765.35
489.32	1740.77
489.53	1820.64
489.73	1660.90
489.93	1853.41
490.13	1681.38
490.33	1634.28
490.53	1734.63
490.73	1826.79
490.94	1654.76
491.14	1802.21
491.34	1837.03
491.54	2201.57
491.74	2512.86
491.94	2869.20
492.14	2904.02
492.34	2951.12
492.54	2676.70
492.75	2594.78
492.95	2396.12
493.15	2289.63
493.35	2326.49
493.55	2252.77
493.75	2080.74
493.95	2152.42
494.15	1925.09
494.35	1933.28
494.56	1882.08
494.76	1742.82
494.96	1789.92
495.16	1804.26
495.36	1742.82
495.56	1789.92
495.76	1716.20
495.96	1658.85
496.16	1705.96
496.36	1949.67
496.56	1765.35
496.77	1687.53
496.97	1775.59
497.17	1824.74
497.37	1675.24
497.57	1771.49
497.77	1785.83
497.97	1697.77
498.17	1802.21
498.37	1728.49
498.57	1753.06
498.77	1691.62
498.97	1658.85
499.17	1744.87
499.38	1675.24
499.58	1771.49
499.78	1812.45
499.98	1888.23
500.18	1675.24
500.38	1736.68
500.58	1910.75
500.78	2594.78
500.98	4501.44
501.18	5736.36
501.38	6774.68
501.58	6995.86
501.78	6406.05
501.98	5494.70
502.18	4902.84
502.38	4423.61
502.58	4114.37
502.78	3764.17
502.98	3622.86
503.18	3385.29
503.38	3178.45
503.59	2852.82
503.79	2555.86
503.99	2502.62
504.19	2238.43
504.39	2230.24
504.59	2160.61
504.79	2064.35
504.99	2095.07
505.19	1892.32
505.39	1976.29
505.59	1910.75
505.79	1877.99
505.99	1845.22
506.19	1783.78
506.39	1796.07
506.59	1753.06
506.79	1812.45
506.99	1892.32
507.19	1828.84
507.39	1808.36
507.59	1708.01
507.79	1712.10
507.99	1656.81
508.19	1753.06
508.39	1710.05
508.59	1726.44
508.79	1849.32
508.99	1834.98
509.19	1658.85
509.39	1779.68
509.59	1708.01
509.79	1722.34
509.99	1757.16
510.19	1849.32
510.39	1818.60
510.59	1796.07
510.79	1671.14
510.99	1673.19
511.19	1834.98
511.39	1812.45
511.59	1802.21
511.79	1787.88
511.99	1734.63
512.19	1845.22
512.38	1742.82
512.58	1691.62
512.78	1636.33
512.98	1742.82
513.18	1828.84
513.38	1685.48
513.58	1748.97
513.78	1728.49
513.98	1691.62
514.18	1646.57
514.38	1644.52
514.58	1814.50
514.78	1689.57
514.98	1689.57
515.18	1791.97
515.38	1722.34
515.58	1857.51
515.78	1746.92
515.98	1779.68
516.18	1755.11
516.38	1691.62
516.57	1699.81
516.77	1665.00
516.97	1718.25
517.17	1681.38
517.37	1665.00
517.57	1755.11
517.77	1785.83
517.97	1679.33
518.17	1734.63
518.37	1665.00
518.57	1708.01
518.77	1728.49
518.97	1748.97
519.16	1736.68
519.36	1773.54
519.56	1695.72
519.76	1800.16
519.96	1757.16
520.16	1851.36
520.36	1693.67
520.56	1857.51
520.76	1638.38
520.96	1697.77
521.16	1822.69
521.35	1787.88
521.55	1888.23
521.75	1730.53
521.95	1705.96
522.15	1761.25
522.35	1695.72
522.55	1660.90
522.75	1755.11
522.95	1714.15
523.14	1701.86
523.34	1791.97
523.54	1738.73
523.74	1765.35
523.94	1718.25
524.14	1708.01
524.34	1730.53
524.54	1837.03
524.73	1748.97
524.93	1798.12
525.13	1714.15
525.33	1613.80
525.53	1937.38
525.73	1845.22
525.93	1781.73
526.13	1718.25
526.32	1644.52
526.52	1751.01
526.72	1820.64
526.92	1703.91
527.12	1699.81
527.32	1701.86
527.52	1751.01
527.71	1785.83
527.91	1798.12
528.11	1783.78
528.31	1714.15
528.51	1669.09
528.71	1777.64
528.90	1791.97
529.10	1849.32
529.30	1781.73
529.50	1615.85
529.70	1722.34
529.90	1705.96
530.09	1744.87
530.29	1732.58
530.49	1759.21
530.69	1920.99
530.89	1710.05
531.09	1771.49
531.28	1738.73
531.48	1841.12
531.68	1800.16
531.88	1763.30
532.08	1765.35
532.28	1665.00
532.47	1761.25
532.67	1769.44
532.87	1742.82
533.07	1660.90
533.27	1804.26
533.46	1699.81
533.66	1771.49
533.86	1787.88
534.06	1675.24
534.26	1777.64
534.45	1708.01
534.65	1812.45
534.85	1675.24
535.05	1718.25
535.25	1775.59
535.44	1599.46
535.64	1769.44
535.84	1683.43
536.04	1820.64
536.24	1722.34
536.43	1730.53
536.63	1716.20
536.83	1685.48
537.03	1718.25
537.22	1619.94
537.42	1703.91
537.62	1751.01
537.82	1701.86
538.02	1804.26
538.21	1785.83
538.41	1890.28
538.61	1763.30
538.81	1720.29
539.00	1812.45
539.20	1685.48
539.40	1724.39
539.60	1767.40
539.79	1806.31
539.99	1789.92
540.19	1681.38
540.39	1650.66
540.58	1767.40
540.78	1808.36
540.98	1722.34
541.18	1839.08
541.37	1757.16
541.57	1732.58
541.77	1830.88
541.97	1724.39
542.16	1742.82
542.36	1763.30
542.56	1677.29
542.76	1837.03
542.95	1742.82
543.15	1757.16
543.35	1751.01
543.54	1730.53
543.74	1695.72
543.94	1775.59
544.14	1708.01
544.33	1820.64
544.53	1708.01
544.73	1728.49
544.93	1705.96
545.12	1693.67
545.32	1738.73
545.52	1746.92
545.71	1685.48
545.91	1695.72
546.11	1722.34
546.30	1722.34
546.50	1728.49
546.70	1748.97
546.90	1841.12
547.09	1687.53
547.29	1757.16
547.49	1877.99
547.68	1794.02
547.88	1699.81
548.08	1761.25
548.27	2150.37
548.47	1705.96
548.67	1652.71
548.87	1724.39
549.06	1759.21
549.26	1777.64
549.46	1798.12
549.65	1654.76
549.85	1755.11
550.05	1753.06
550.24	1767.40
550.44	1767.40
550.64	1697.77
550.83	1757.16
551.03	1798.12
551.23	1794.02
551.42	1814.50
551.62	1781.73
551.82	1710.05
552.01	1689.57
552.21	1802.21
552.41	1765.35
552.60	1759.21
552.80	1689.57
553.00	1722.34
553.19	1826.79
553.39	1800.16
553.59	1675.24
553.78	1738.73
553.98	1769.44
554.17	1699.81
554.37	1712.10
554.57	1665.00
554.76	1708.01
554.96	1753.06
555.16	1726.44
555.35	1757.16
555.55	1753.06
555.75	1818.60
555.94	1861.60
556.14	1624.04
556.33	1822.69
556.53	1720.29
556.73	1791.97
556.92	1828.84
557.12	1820.64
557.32	1834.98
557.51	1771.49
557.71	1812.45
557.90	1847.27
558.10	1783.78
558.30	1730.53
558.49	1734.63
558.69	1708.01
558.88	1744.87
559.08	1740.77
559.28	1740.77
559.47	1771.49
559.67	1787.88
559.86	1894.37
560.06	1834.98
560.26	1673.19
560.45	1748.97
560.65	1693.67
560.84	1781.73
561.04	1593.32
561.24	1802.21
561.43	1671.14
561.63	1746.92
561.82	1779.68
562.02	1705.96
562.22	1746.92
562.41	1708.01
562.61	1720.29
562.80	1701.86
563.00	1884.13
563.19	1781.73
563.39	1841.12
563.59	1689.57
563.78	1669.09
563.98	1683.43
564.17	1718.25
564.37	1683.43
564.56	1689.57
564.76	1671.14
564.96	1775.59
565.15	1783.78
565.35	1861.60
565.54	1740.77
565.74	1773.54
565.93	1779.68
566.13	1732.58
566.32	1767.40
566.52	1677.29
566.71	1720.29
566.91	1841.12
567.11	1693.67
567.30	1699.81
567.50	1779.68
567.69	1732.58
567.89	1691.62
568.08	1636.33
568.28	1810.40
568.47	1705.96
568.67	1683.43
568.86	1714.15
569.06	1710.05
569.25	1800.16
569.45	1730.53
569.64	1689.57
569.84	1822.69
570.04	1751.01
570.23	1740.77
570.43	1748.97
570.62	1697.77
570.82	1855.46
571.01	1681.38
571.21	1712.10
571.40	1710.05
571.60	1798.12
571.79	1736.68
571.99	1710.05
572.18	1697.77
572.38	1851.36
572.57	1689.57
572.77	1757.16
572.96	1871.84
573.16	1773.54
573.35	1740.77
573.55	1789.92
573.74	1800.16
573.94	1685.48
574.13	1695.72
574.33	1804.26
574.52	1830.88
574.71	1738.73
574.91	1779.68
575.10	1705.96
575.30	1761.25
575.49	1648.61
575.69	1722.34
575.88	1806.31
576.08	1656.81
576.27	1783.78
576.47	1738.73
576.66	1763.30
576.86	1892.32
577.05	1763.30
577.25	1802.21
577.44	1861.60
577.64	1767.40
577.83	1804.26
578.02	1761.25
578.22	1822.69
578.41	1837.03
578.61	1744.87
578.80	1665.00
579.00	1804.26
579.19	1738.73
579.39	1791.97
579.58	1781.73
579.77	1802.21
579.97	1802.21
580.16	1751.01
580.36	1785.83
580.55	1877.99
580.75	1826.79
580.94	1755.11
581.13	1771.49
581.33	1812.45
581.52	1708.01
581.72	1810.40
581.91	1800.16
582.11	1720.29
582.30	1841.12
582.49	1763.30
582.69	1877.99
582.88	1796.07
583.08	1806.31
583.27	1738.73
583.47	1748.97
583.66	1697.77
583.85	1675.24
584.05	1724.39
584.24	1857.51
584.44	1804.26
584.63	1767.40
584.82	1730.53
585.02	1816.55
585.21	1843.17
585.41	1779.68
585.60	1877.99
585.79	1918.95
585.99	1900.52
586.18	1890.28
586.37	2215.90
586.57	3381.20
586.76	10067.81
586.96	23983.76
587.15	34164.21
587.34	39990.69
587.54	41123.21
587.73	35810.78
587.93	25783.93
588.12	21026.50
588.31	18175.72
588.51	16129.80
588.70	14966.56
588.89	13760.30
589.09	12293.96
589.28	10862.43
589.47	9234.29
589.67	7939.97
589.86	6213.54
590.06	4868.02
590.25	3698.63
590.44	3030.99
590.64	2426.84
590.83	2209.76
591.02	2099.17
591.22	1927.14
591.41	1941.47
591.60	1847.27
591.80	2002.91
591.99	1746.92
592.18	1755.11
592.38	1847.27
592.57	1722.34
592.76	1779.68
592.96	1812.45
593.15	1773.54
593.34	1812.45
593.54	1832.93
593.73	1781.73
593.92	1837.03
594.12	1757.16
594.31	1685.48
594.50	1798.12
594.70	1726.44
594.89	1869.80
595.08	1722.34
595.28	1763.30
595.47	1986.53
595.66	1814.50
595.86	1736.68
596.05	1730.53
596.24	1746.92
596.43	1853.41
596.63	1865.70
596.82	1757.16
597.01	1753.06
597.21	1880.04
597.40	1785.83
597.59	1730.53
597.79	1677.29
597.98	1728.49
598.17	1783.78
598.36	1736.68
598.56	1712.10
598.75	1648.61
598.94	1718.25
599.14	1726.44
599.33	1781.73
599.52	1744.87
599.71	1705.96
599.91	1730.53
600.10	1769.44
600.29	1738.73
600.48	1779.68
600.68	1781.73
600.87	1781.73
601.06	1671.14
601.26	1771.49
601.45	1818.60
601.64	1746.92
601.83	1828.84
602.03	1746.92
602.22	1771.49
602.41	1834.98
602.60	1806.31
602.80	1742.82
602.99	1751.01
603.18	1697.77
603.37	1708.01
603.57	1738.73
603.76	1746.92
603.95	1804.26
604.14	1718.25
604.34	1695.72
604.53	1730.53
604.72	1798.12
604.91	1796.07
605.10	1761.25
605.30	1744.87
605.49	1918.95
605.68	1763.30
605.87	1810.40
606.07	1712.10
606.26	1765.35
606.45	1785.83
606.64	1779.68
606.84	1755.11
607.03	1789.92
607.22	1771.49
607.41	1710.05
607.60	1804.26
607.80	1751.01
607.99	1751.01
608.18	1718.25
608.37	1773.54
608.56	1720.29
608.76	1812.45
608.95	1804.26
609.14	1740.77
609.33	1753.06
609.52	1781.73
609.72	1716.20
609.91	1783.78
610.10	1757.16
610.29	1894.37
610.48	1748.97
610.68	1761.25
610.87	1767.40
611.06	1804.26
611.25	1763.30
611.44	1777.64
611.63	1718.25
611.83	1818.60
612.02	1714.15
612.21	1800.16
612.40	1710.05
612.59	1640.42
612.79	1683.43
612.98	1787.88
613.17	1845.22
613.36	1748.97
613.55	1736.68
613.74	1648.61
613.93	1748.97
614.13	1701.86
614.32	1808.36
614.51	1738.73
614.70	1771.49
614.89	1734.63
615.08	1726.44
615.28	2105.31
615.47	1705.96
615.66	1767.40
615.85	1742.82
616.04	1830.88
616.23	1748.97
616.42	1765.35
616.62	1751.01
616.81	1763.30
617.00	1665.00
617.19	1830.88
617.38	1679.33
617.57	1837.03
617.76	1794.02
617.95	1855.46
618.15	1710.05
618.34	1843.17
618.53	1748.97
618.72	1777.64
618.91	1843.17
619.10	1791.97
619.29	1748.97
619.48	1740.77
619.68	1642.47
619.87	1746.92
620.06	1630.18
620.25	1748.97
620.44	1779.68
620.63	1761.25
620.82	1675.24
621.01	1677.29
621.20	1718.25
621.39	1738.73
621.59	1705.96
621.78	1744.87
621.97	1724.39
622.16	1775.59
622.35	1759.21
622.54	1757.16
622.73	1832.93
622.92	1712.10
623.11	1738.73
623.30	1730.53
623.49	1705.96
623.68	1816.55
623.88	1781.73
624.07	1667.05
624.26	1724.39
624.45	1783.78
624.64	1771.49
624.83	1777.64
625.02	1736.68
625.21	1789.92
625.40	1714.15
625.59	1697.77
625.78	1826.79
625.97	1705.96
626.16	1822.69
626.35	1820.64
626.54	1695.72
626.74	1806.31
626.93	1689.57
627.12	1748.97
627.31	1818.60
627.50	1679.33
627.69	1779.68
627.88	1656.81
628.07	1673.19
628.26	1730.53
628.45	1724.39
628.64	1648.61
628.83	1712.10
629.02	1703.91
629.21	1740.77
629.40	1789.92
629.59	1660.90
629.78	1765.35
629.97	1753.06
630.16	1701.86
630.35	1724.39
630.54	1736.68
630.73	1716.20
630.92	1722.34
631.11	1652.71
631.30	1816.55
631.49	1791.97
631.68	1722.34
631.87	1722.34
632.06	1636.33
632.25	1916.90
632.44	1699.81
632.63	1699.81
632.82	1644.52
633.01	1783.78
633.20	1755.11
633.39	1716.20
633.58	1607.66
633.77	1724.39
633.96	1789.92
634.15	1769.44
634.34	1730.53
634.53	1728.49
634.72	1673.19
634.91	1671.14
635.10	1730.53
635.29	1777.64
635.48	1681.38
635.67	1714.15
635.86	1642.47
636.05	1771.49
636.24	1687.53
636.43	1744.87
636.62	1746.92
636.81	1615.85
637.00	1728.49
637.19	1740.77
637.38	1712.10
637.57	1665.00
637.76	1800.16
637.95	1746.92
638.14	1683.43
638.33	1701.86
638.52	1693.67
638.71	1759.21
638.89	1609.70
639.08	1837.03
639.27	1796.07
639.46	1722.34
639.65	1826.79
639.84	1734.63
640.03	1806.31
640.22	1730.53
640.41	1798.12
640.60	1656.81
640.79	1796.07
640.98	1658.85
641.17	1779.68
641.36	1697.77
641.55	1722.34
641.74	1632.23
641.92	1746.92
642.11	1615.85
642.30	1699.81
642.49	1705.96
642.68	1714.15
642.87	1779.68
643.06	1761.25
643.25	1708.01
643.44	1693.67
643.63	1667.05
643.82	1755.11
644.00	1628.14
644.19	1695.72
644.38	1693.67
644.57	1718.25
644.76	1728.49
644.95	1705.96
645.14	1746.92
645.33	1714.15
645.52	1720.29
645.71	1640.42
645.89	1658.85
646.08	1755.11
646.27	1683.43
646.46	1830.88
646.65	1632.23
646.84	1671.14
647.03	1603.56
647.22	1773.54
647.40	1685.48
647.59	1724.39
647.78	1595.37
647.97	1644.52
648.16	1660.90
648.35	1804.26
648.54	1740.77
648.73	1640.42
648.91	1716.20
649.10	1708.01
649.29	1677.29
649.48	1718.25
649.67	1658.85
649.86	1720.29
650.05	1777.64
650.23	1742.82
650.42	1636.33
650.61	1759.21
650.80	1720.29
650.99	1861.60
651.18	1783.78
651.36	1855.46
651.55	1730.53
651.74	1757.16
651.93	1746.92
652.12	1708.01
652.31	1671.14
652.49	1656.81
652.68	1708.01
652.87	1800.16
653.06	1832.93
653.25	1802.21
653.44	1746.92
653.62	1755.11
653.81	1804.26
654.00	1583.08
654.19	1769.44
654.38	1763.30
654.56	1783.78
654.75	1761.25
654.94	1763.30
655.13	1748.97
655.32	1789.92
655.51	1798.12
655.69	1671.14
655.88	1746.92
656.07	1648.61
656.26	1767.40
656.45	1687.53
656.63	1740.77
656.82	1726.44
657.01	1738.73
657.20	1675.24
657.38	1820.64
657.57	1667.05
657.76	1662.95
657.95	1748.97
658.14	1638.38
658.32	1699.81
658.51	1695.72
658.70	1693.67
658.89	1742.82
659.08	1728.49
659.26	1798.12
659.45	1681.38
659.64	1781.73
659.83	1693.67
660.01	1873.89
660.20	1718.25
660.39	1861.60
660.58	1578.98
660.76	1837.03
660.95	1665.00
661.14	1685.48
661.33	1740.77
661.51	1705.96
661.70	1726.44
661.89	1744.87
662.08	1740.77
662.26	1652.71
662.45	1683.43
662.64	1767.40
662.83	1787.88
663.01	1591.27
663.20	1677.29
663.39	1767.40
663.58	1728.49
663.76	1722.34
663.95	1763.30
664.14	1724.39
664.32	1628.14
664.51	1601.51
664.70	1552.36
664.89	1789.92
665.07	1675.24
665.26	1785.83
665.45	1705.96
665.64	1794.02
665.82	1681.38
666.01	1751.01
666.20	1675.24
666.38	1867.75
666.57	1734.63
666.76	2217.95
666.95	4591.55
667.13	10295.14
667.32	15197.98
667.51	17426.17
667.69	18972.38
667.88	17272.57
668.07	11994.95
668.25	9308.02
668.44	7995.27
668.63	7303.06
668.81	6786.97
669.00	6125.47
669.19	5566.38
669.38	4966.32
669.56	4452.28
669.75	3973.06
669.94	3344.33
670.12	2834.39
670.31	2523.10
670.50	2197.47
670.68	2058.21
670.87	1888.23
671.06	1828.84
671.24	1800.16
671.43	1810.40
671.62	1708.01
671.80	1710.05
671.99	1753.06
672.18	1767.40
672.36	1759.21
672.55	1773.54
672.74	1685.48
672.92	1701.86
673.11	1761.25
673.29	1636.33
673.48	1865.70
673.67	1667.05
673.85	1871.84
674.04	1603.56
674.23	1675.24
674.41	1751.01
674.60	1710.05
674.79	1642.47
674.97	1751.01
675.16	1726.44
675.34	1773.54
675.53	1714.15
675.72	1828.84
675.90	1781.73
676.09	1689.57
676.28	1714.15
676.46	1605.61
676.65	1740.77
676.83	1724.39
677.02	1718.25
677.21	1720.29
677.39	1732.58
677.58	1650.66
677.77	1660.90
677.95	1613.80
678.14	1675.24
678.32	1742.82
678.51	1732.58
678.70	1837.03
678.88	1755.11
679.07	1716.20
679.25	1662.95
679.44	1728.49
679.63	1675.24
679.81	1720.29
680.00	1826.79
680.18	1816.55
680.37	1785.83
680.55	1730.53
680.74	1630.18
680.93	1599.46
681.11	1722.34
681.30	1812.45
681.48	1742.82
681.67	1660.90
681.85	1722.34
682.04	1593.32
682.23	1757.16
682.41	1783.78
682.60	1693.67
682.78	1691.62
682.97	1714.15
683.15	1691.62
683.34	1708.01
683.53	1789.92
683.71	1650.66
683.90	1771.49
684.08	1814.50
684.27	1742.82
684.45	1712.10
684.64	1804.26
684.82	1744.87
685.01	1746.92
685.19	1753.06
685.38	1884.13
685.57	1665.00
685.75	1667.05
685.94	1730.53
686.12	1667.05
686.31	1728.49
686.49	1789.92
686.68	1628.14
686.86	1736.68
687.05	1796.07
687.23	1873.89
687.42	1730.53
687.60	1656.81
687.79	1810.40
687.97	1791.97
688.16	1783.78
688.34	1751.01
688.53	1673.19
688.71	1800.16
688.90	1800.16
689.08	1710.05
689.27	1665.00
689.45	1730.53
689.64	1751.01
689.82	1734.63
690.01	1742.82
690.19	1744.87
690.38	1701.86
690.56	1808.36
690.75	1636.33
690.93	1720.29
691.12	1748.97
691.30	1718.25
691.49	1710.05
691.67	1667.05
691.86	1800.16
692.04	1689.57
692.23	1669.09
692.41	1677.29
692.60	1818.60
692.78	1744.87
692.97	1710.05
693.15	1724.39
693.34	1830.88
693.52	1871.84
693.71	1699.81
693.89	1714.15
694.08	1621.99
694.26	1724.39
694.44	1757.16
694.63	1718.25
694.81	1640.42
695.00	1630.18
695.18	1779.68
695.37	1841.12
695.55	1675.24
695.74	1714.15
695.92	1726.44
696.10	1740.77
696.29	1679.33
696.47	1705.96
696.66	1728.49
696.84	1658.85
697.03	1677.29
697.21	1718.25
697.40	2392.03
697.58	1828.84
697.76	1632.23
697.95	1662.95
698.13	1632.23
698.32	1734.63
698.50	1748.97
698.68	1779.68
698.87	1751.01
699.05	1783.78
699.24	1685.48
699.42	1710.05
699.61	1767.40
699.79	1761.25
699.97	1652.71
700.16	1617.90
700.34	1662.95
700.53	1669.09
700.71	1826.79
700.89	1699.81
701.08	1712.10
701.26	1710.05
701.45	2152.42
701.63	1708.01
701.81	1689.57
702.00	1708.01
702.18	1619.94
702.37	1669.09
702.55	1720.29
702.73	1628.14
702.92	1628.14
703.10	1703.91
703.28	1732.58
703.47	1675.24
703.65	1804.26
703.84	1769.44
704.02	1722.34
704.20	1787.88
704.39	1703.91
704.57	1722.34
704.75	1773.54
704.94	1701.86
705.12	1732.58
705.30	1730.53
705.49	2289.63
705.67	4460.48
705.86	9541.49
706.04	12601.15
706.22	13948.72
706.41	15294.23
706.59	13659.95
706.77	9269.11
706.96	7272.34
707.14	6461.34
707.32	5914.53
707.51	5502.89
707.69	4743.10
707.87	4100.03
708.06	3487.69
708.24	2869.20
708.42	2430.94
708.61	2277.34
708.79	1900.52
708.97	1925.09
709.16	1777.64
709.34	1783.78
709.52	1751.01
709.71	1656.81
709.89	1763.30
710.07	1677.29
710.26	1705.96
710.44	1738.73
710.62	1783.78
710.80	1746.92
710.99	1728.49
711.17	1839.08
711.35	1591.27
711.54	1665.00
711.72	1796.07
711.90	1738.73
712.09	1712.10
712.27	1665.00
712.45	1736.68
712.63	1648.61
712.82	1734.63
713.00	1755.11
713.18	1722.34
713.37	1800.16
713.55	1738.73
713.73	1665.00
713.91	1703.91
714.10	1628.14
714.28	1732.58
714.46	1740.77
714.65	1687.53
714.83	1683.43
715.01	1701.86
715.19	1693.67
715.38	1636.33
715.56	1843.17
715.74	1687.53
715.92	1703.91
716.11	1757.16
716.29	1609.70
716.47	1708.01
716.65	1787.88
716.84	1601.51
717.02	1712.10
717.20	1642.47
717.38	1658.85
717.57	1755.11
717.75	1718.25
717.93	1724.39
718.11	1683.43
718.30	1714.15
718.48	1806.31
718.66	1753.06
718.84	1806.31
719.03	1740.77
719.21	1740.77
719.39	1869.80
719.57	1708.01
719.75	1785.83
719.94	1640.42
720.12	1699.81
720.30	1660.90
720.48	1800.16
720.67	1744.87
720.85	1638.38
721.03	1740.77
721.21	1624.04
721.39	1806.31
721.58	1746.92
721.76	1650.66
721.94	1757.16
722.12	1779.68
722.30	1759.21
722.49	1708.01
722.67	1746.92
722.85	1738.73
723.03	1538.02
723.21	1638.38
723.40	1640.42
723.58	1697.77
723.76	1726.44
723.94	1808.36
724.12	1652.71
724.30	1669.09
724.49	1771.49
724.67	1636.33
724.85	1781.73
725.03	1599.46
725.21	1781.73
725.40	1853.41
725.58	1716.20
725.76	1734.63
725.94	1808.36
726.12	1656.81
726.30	1695.72
726.49	1771.49
726.67	1669.09
726.85	1701.86
727.03	1826.79
727.21	2179.04
727.39	2879.44
727.57	3784.65
727.76	4206.53
727.94	4405.18
728.12	4265.92
728.30	3557.32
728.48	2975.70
728.66	2752.47
728.84	2529.24
729.03	2320.35
729.21	2189.28
729.39	1912.80
729.57	1804.26
729.75	1812.45
729.93	1812.45
730.11	1726.44
730.30	1712.10
730.48	1734.63
730.66	1796.07
730.84	1734.63
731.02	1656.81
731.20	1728.49
731.38	1791.97
731.56	1607.66
731.74	1675.24
731.93	1738.73
732.11	1757.16
732.29	1722.34
732.47	1753.06
732.65	1693.67
732.83	1861.60
733.01	1722.34
733.19	1660.90
733.37	1761.25
733.56	1765.35
733.74	1712.10
733.92	1787.88
734.10	1689.57
734.28	1812.45
734.46	1595.37
734.64	1718.25
734.82	1656.81
735.00	1708.01
735.18	1642.47
735.36	1744.87
735.54	1697.77
735.73	1816.55
735.91	1730.53
736.09	1753.06
736.27	1753.06
736.45	1730.53
736.63	1626.09
736.81	1677.29
736.99	1763.30
737.17	1775.59
737.35	1621.99
737.53	1738.73
737.71	1718.25
737.89	1763.30
738.07	1667.05
738.25	1605.61
738.43	1634.28
738.61	1705.96
738.80	1656.81
738.98	1656.81
739.16	1701.86
739.34	1705.96
739.52	1755.11
739.70	1718.25
739.88	1712.10
740.06	1771.49
740.24	1624.04
740.42	1771.49
740.60	1654.76
740.78	1632.23
740.96	1677.29
741.14	1673.19
741.32	1716.20
741.50	1628.14
741.68	1861.60
741.86	1791.97
742.04	1630.18
742.22	1703.91
742.40	1701.86
742.58	1724.39
742.76	1607.66
742.94	1769.44
743.12	1542.12
743.30	1671.14
743.48	1791.97
743.66	1613.80
743.84	1728.49
744.02	1665.00
744.20	1654.76
744.38	1714.15
744.56	1644.52
744.74	1753.06
744.92	1728.49
745.10	1759.21
745.28	1857.51
745.46	1753.06
745.64	1742.82
745.82	1730.53
746.00	1730.53
746.18	1724.39
746.36	1654.76
746.54	1765.35
746.72	1736.68
746.90	1597.42
747.08	1777.64
747.26	1820.64
747.44	1744.87
747.62	1759.21
747.80	1712.10
747.98	1718.25
748.15	1691.62
748.33	1765.35
748.51	1691.62
748.69	1746.92
748.87	1611.75
749.05	1665.00
749.23	1714.15
749.41	1730.53
749.59	1689.57
749.77	1710.05
749.95	1669.09
750.13	1751.01
750.31	1699.81
750.49	1724.39
750.67	1738.73
750.85	1845.22
751.03	1761.25
751.20	1857.51
751.38	1740.77
751.56	1720.29
751.74	1726.44
751.92	1732.58
752.10	1697.77
752.28	1726.44
752.46	1710.05
752.64	1718.25
752.82	1742.82
753.00	1708.01
753.18	1669.09
753.35	1689.57
753.53	1667.05
753.71	1800.16
753.89	1796.07
754.07	1617.90
754.25	1730.53
754.43	1755.11
754.61	1605.61
754.79	1734.63
754.97	1689.57
755.14	1759.21
755.32	1619.94
755.50	1689.57
755.68	1714.15
755.86	1673.19
756.04	1699.81
756.22	1656.81
756.40	1726.44
756.57	1847.27
756.75	1728.49
756.93	1808.36
757.11	1783.78
757.29	1714.15
757.47	1658.85
757.65	1581.03
757.82	1560.55
758.00	1621.99
758.18	1736.68
758.36	1671.14
758.54	1826.79
758.72	1671.14
758.90	1818.60
759.07	1730.53
759.25	1656.81
759.43	1742.82
759.61	1667.05
759.79	2322.40
759.97	1644.52
760.15	1683.43
760.32	1685.48
760.50	1765.35
760.68	1794.02
760.86	1599.46
761.04	1708.01
761.22	1763.30
761.39	1720.29
761.57	1751.01
761.75	1722.34
761.93	1751.01
762.11	1667.05
762.28	1734.63
762.46	1656.81
762.64	1748.97
762.82	1599.46
763.00	1693.67
763.18	1861.60
763.35	1613.80
763.53	1810.40
763.71	1665.00
763.89	1746.92
764.07	1691.62
764.24	1767.40
764.42	1781.73
764.60	1691.62
764.78	1789.92
764.96	1806.31
765.13	1726.44
765.31	1648.61
765.49	1714.15
765.67	1574.89
765.84	1642.47
766.02	1718.25
766.20	1619.94
766.38	1730.53
766.56	1775.59
766.73	1740.77
766.91	1630.18
767.09	1642.47
767.27	1712.10
767.44	1632.23
767.62	1820.64
767.80	1822.69
767.98	1738.73
768.15	1722.34
768.33	1705.96
768.51	1771.49
768.69	1787.88
768.87	1779.68
769.04	1658.85
769.22	1828.84
769.40	1832.93
769.58	1873.89
769.75	1689.57
769.93	1775.59
770.11	1646.57
770.28	1607.66
770.46	1765.35
770.64	1712.10
770.82	1693.67
770.99	1744.87
771.17	1755.11
771.35	1628.14
771.53	1669.09
771.70	1677.29
771.88	1755.11
772.06	1679.33
772.23	1693.67
772.41	1751.01
772.59	1679.33
772.77	1644.52
772.94	1738.73
773.12	1722.34
773.30	1583.08
773.47	1738.73
773.65	1697.77
773.83	1785.83
774.01	1644.52
774.18	1591.27
774.36	1646.57
774.54	1630.18
774.71	1718.25
774.89	1652.71
775.07	1687.53
775.24	1660.90
775.42	1671.14
775.60	1853.41
775.78	1660.90
775.95	1634.28
776.13	1554.41
776.31	1601.51
776.48	1755.11
776.66	1796.07
776.84	1654.76
777.01	1648.61
777.19	1742.82
777.37	1738.73
777.54	1685.48
777.72	1730.53
777.90	1738.73
778.07	1734.63
778.25	1884.13
778.43	1730.53
778.60	1722.34
778.78	1755.11
778.96	1828.84
779.13	1695.72
779.31	1773.54
779.49	1742.82
779.66	1703.91
779.84	1746.92
780.01	1673.19
780.19	1669.09
780.37	1789.92
780.54	1705.96
780.72	1703.91
780.90	1730.53
781.07	1701.86
781.25	1648.61
781.43	1767.40
781.60	1689.57
781.78	1759.21
781.95	1744.87
782.13	1615.85
782.31	1646.57
782.48	1636.33
782.66	1697.77
782.83	1857.51
783.01	1740.77
783.19	1746.92
783.36	1710.05
783.54	1630.18
783.72	1837.03
783.89	1658.85
784.07	1781.73
784.24	1677.29
784.42	1859.56
784.60	1703.91
784.77	1787.88
784.95	1652.71
785.12	1683.43
785.30	1648.61
785.47	1681.38
785.65	1785.83
785.83	1685.48
786.00	1710.05
786.18	1642.47
786.35	1658.85
786.53	1665.00
786.71	1714.15
786.88	1742.82
787.06	1753.06
787.23	1759.21
787.41	1701.86
787.58	1753.06
787.76	1603.56
787.94	1718.25
788.11	1714.15
788.29	1630.18
788.46	1714.15
788.64	1619.94
788.81	1642.47
788.99	1593.32
789.16	1703.91
789.34	1755.11
789.52	1644.52
789.69	1738.73
789.87	1595.37
790.04	1617.90
790.22	1673.19
790.39	1822.69
790.57	1605.61
790.74	1650.66
790.92	1759.21
791.09	1650.66
791.27	1712.10
791.44	1834.98
791.62	1753.06
791.79	1767.40
791.97	1734.63
792.15	1867.75
792.32	1714.15
792.50	1798.12
792.67	1767.40
792.85	1787.88
793.02	1744.87
793.20	1675.24
793.37	1736.68
793.55	1732.58
793.72	1599.46
793.90	1734.63
794.07	1683.43
794.25	1718.25
794.42	1791.97
794.60	1656.81
794.77	1708.01
794.95	1740.77
795.12	1761.25
795.30	1621.99
795.47	1658.85
795.65	1927.14
795.82	1767.40
796.00	1652.71
796.17	1732.58
796.34	1630.18
796.52	1763.30
796.69	1796.07
796.87	1748.97
797.04	1744.87
797.22	1785.83
797.39	1710.05
797.57	1822.69
797.74	1714.15
797.92	1761.25
798.09	1640.42
798.27	1740.77
798.44	1746.92
798.62	1681.38
798.79	1732.58
798.96	1667.05
799.14	1683.43
799.31	1849.32
799.49	1734.63
799.66	1705.96
799.84	1716.20
800.01	1636.33
800.19	1685.48
800.36	1638.38
800.53	1785.83
800.71	1705.96
800.88	1794.02
801.06	1679.33
801.23	1554.41
801.41	1650.66
801.58	1648.61
801.75	1628.14
801.93	1812.45
802.10	1744.87
802.28	1615.85
802.45	1712.10
802.63	1746.92
802.80	1769.44
802.97	1695.72
803.15	1681.38
803.32	1621.99
803.50	1636.33
803.67	1724.39
803.84	1683.43
804.02	1757.16
804.19	1607.66
804.37	1583.08
804.54	1607.66
804.71	1669.09
804.89	1759.21
805.06	1642.47
805.24	1669.09
805.41	1699.81
805.58	1665.00
805.76	1841.12
805.93	1724.39
806.10	1773.54
806.28	1746.92
806.45	1722.34
806.63	1691.62
806.80	1787.88
806.97	1736.68
807.15	1796.07
807.32	1691.62
807.49	1720.29
807.67	1621.99
807.84	1648.61
808.01	1593.32
808.19	1865.70
808.36	1851.36
808.54	1716.20
808.71	1646.57
808.88	1724.39
809.06	1681.38
809.23	1771.49
809.40	1642.47
809.58	1773.54
809.75	1759.21
809.92	1703.91
810.10	1832.93
810.27	1640.42
810.44	1703.91
810.62	1746.92
810.79	1669.09
810.96	1638.38
811.14	1701.86
811.31	1714.15
811.48	1701.86
811.66	1724.39
811.83	1773.54
812.00	1667.05
812.18	1775.59
812.35	1820.64
812.52	1701.86
812.69	1740.77
812.87	1724.39
813.04	1724.39
813.21	1689.57
813.39	1683.43
813.56	1656.81
813.73	1755.11
813.91	1617.90
814.08	1724.39
814.25	1769.44
814.42	1667.05
814.60	1746.92
814.77	1744.87
814.94	1718.25
815.12	1791.97
815.29	1691.62
815.46	1695.72
815.63	1736.68
815.81	1705.96
815.98	1722.34
816.15	1665.00
816.33	1773.54
816.50	1695.72
816.67	1697.77
816.84	1738.73
817.02	1591.27
817.19	1630.18
817.36	1710.05
817.53	1708.01
817.71	1673.19
817.88	1736.68
818.05	1658.85
818.22	1681.38
818.40	1775.59
818.57	1740.77
818.74	1683.43
818.91	1767.40
819.09	1734.63
819.26	1748.97
819.43	1658.85
819.60	1652.71
819.78	1765.35
819.95	1824.74
820.12	1665.00
820.29	1742.82
820.47	1779.68
820.64	1660.90
820.81	1624.04
820.98	1701.86
821.15	1695.72
821.33	1781.73
821.50	1587.18
821.67	1665.00
821.84	1701.86
822.02	1775.59
822.19	1689.57
822.36	1710.05
822.53	1742.82
822.70	1642.47
822.88	1687.53
823.05	1769.44
823.22	1636.33
823.39	1716.20
823.56	1705.96
823.74	1814.50
823.91	1615.85
824.08	1669.09
824.25	1640.42
824.42	1769.44
824.60	1665.00
824.77	1787.88
824.94	1613.80
825.11	1728.49
825.28	1615.85
825.45	1689.57
825.63	1755.11
825.80	1636.33
825.97	1714.15
826.14	1710.05
826.31	1703.91
826.48	1701.86
826.66	1646.57
826.83	1648.61
827.00	1708.01
827.17	1617.90
827.34	1740.77
827.51	1730.53
827.69	1675.24
827.86	1714.15
828.03	1755.11
828.20	1718.25
828.37	1710.05
828.54	1730.53
828.71	1677.29
828.89	1853.41
829.06	1728.49
829.23	1798.12
829.40	1742.82
829.57	1724.39
829.74	1673.19
829.91	1736.68
830.09	1630.18
830.26	1724.39
830.43	1783.78
830.60	1624.04
830.77	1847.27
830.94	1714.15
831.11	1734.63
831.28	1675.24
831.46	1726.44
831.63	1626.09
831.80	1755.11
831.97	1574.89
832.14	1611.75
832.31	1689.57
832.48	1621.99
832.65	1730.53
832.82	1701.86
832.99	1740.77
833.17	1628.14
833.34	1794.02
833.51	1730.53
833.68	1599.46
833.85	1781.73
834.02	1638.38
834.19	1710.05
834.36	1601.51
834.53	1744.87
834.70	1730.53
834.87	1769.44
835.04	1671.14
835.22	1718.25
835.39	1648.61
835.56	1644.52
835.73	1683.43
835.90	1736.68
836.07	1624.04
836.24	1798.12
836.41	1673.19
836.58	1701.86
836.75	1767.40
836.92	1755.11
837.09	1673.19
837.26	1791.97
837.43	1730.53
837.60	1683.43
837.77	1683.43
837.94	1751.01
838.12	1806.31
838.29	1693.67
838.46	1665.00
838.63	1662.95
838.80	1736.68
838.97	1718.25
839.14	1716.20
839.31	1691.62
839.48	1677.29
839.65	1714.15
839.82	1787.88
839.99	1775.59
840.16	1660.90
840.33	1710.05
840.50	1767.40
840.67	1695.72
840.84	1552.36
841.01	1689.57
841.18	1654.76
841.35	1673.19
841.52	1726.44
841.69	1839.08
841.86	1773.54
842.03	1757.16
842.20	1763.30
842.37	1703.91
842.54	1726.44
842.71	1683.43
842.88	1646.57
843.05	1757.16
843.22	1726.44
843.39	1865.70
843.56	1660.90
843.73	1681.38
843.90	1675.24
844.07	1761.25
844.24	1675.24
844.41	1728.49
844.58	1742.82
844.75	1697.77
844.92	1705.96
845.09	1671.14
845.26	1648.61
845.43	1751.01
845.60	1656.81
845.77	1806.31
845.94	1687.53
846.10	1779.68
846.27	1624.04
846.44	1669.09
846.61	1693.67
846.78	1718.25
846.95	1757.16
847.12	1591.27
847.29	1640.42
847.46	1714.15
847.63	1753.06
847.80	1619.94
847.97	1640.42
848.14	1818.60
848.31	1742.82
848.48	1658.85
848.65	1783.78
848.82	1693.67
848.98	1867.75
849.15	1765.35
849.32	1816.55
849.49	1808.36
849.66	1765.35
849.83	1679.33
850.00	1667.05
850.17	1779.68
850.34	1654.76
850.51	1667.05
850.68	1697.77
850.85	1740.77
851.01	1675.24
851.18	1744.87
851.35	1619.94
851.52	1734.63
851.69	1759.21
851.86	1671.14
852.03	1669.09
852.20	1732.58
852.37	1732.58
852.53	1605.61
852.70	1605.61
852.87	1746.92
853.04	1755.11
853.21	1718.25
853.38	1755.11
853.55	1781.73
853.72	1775.59
853.89	1656.81
854.05	1632.23
854.22	1677.29
854.39	1683.43
854.56	1746.92
854.73	1662.95
854.90	1685.48
855.07	1697.77
855.23	1640.42
855.40	1710.05
855.57	1724.39
855.74	1583.08
855.91	1857.51
856.08	1650.66
856.25	1677.29
856.41	1624.04
856.58	1634.28
856.75	1693.67
856.92	1660.90
857.09	1720.29
857.26	1673.19
857.42	1689.57
857.59	1720.29
857.76	1691.62
857.93	1726.44
858.10	1640.42
858.27	1665.00
858.43	1611.75
858.60	1673.19
858.77	1615.85
858.94	1650.66
859.11	1732.58
859.27	1681.38
859.44	1689.57
859.61	1828.84
859.78	1714.15
859.95	1736.68
860.12	1699.81
860.28	1853.41
860.45	1820.64
860.62	1730.53
860.79	1740.77
860.95	1689.57
861.12	1632.23
861.29	1691.62
861.46	1697.77
861.63	1695.72
861.79	1767.40
861.96	1718.25
862.13	1703.91
862.30	1781.73
862.47	1626.09
862.63	1613.80
862.80	1767.40
862.97	1777.64
863.14	1796.07
863.30	1730.53
863.47	1675.24
863.64	1773.54
863.81	1705.96
863.97	1712.10
864.14	1699.81
864.31	1714.15
864.48	1787.88
864.65	1775.59
864.81	1734.63
864.98	1726.44
865.15	1716.20
865.32	1746.92
865.48	1751.01
865.65	1734.63
865.82	1697.77
865.98	1693.67
866.15	1755.11
866.32	1755.11
866.49	1710.05
866.65	1785.83
866.82	1712.10
866.99	1683.43
867.16	1712.10
867.32	1654.76
867.49	1648.61
867.66	1708.01
867.83	1728.49
867.99	1607.66
868.16	1648.61
868.33	1570.79
868.49	1695.72
868.66	1736.68
868.83	1665.00
868.99	1736.68
869.16	1769.44
869.33	1708.01
869.50	1701.86
869.66	1679.33
869.83	1685.48
870.00	1603.56
870.16	1802.21
870.33	1740.77
870.50	1767.40
870.66	1691.62
870.83	1867.75
871.00	1734.63
871.17	1673.19
871.33	1685.48
871.50	1605.61
871.67	1687.53
871.83	1710.05
872.00	1751.01
872.17	1646.57
872.33	1828.84
872.50	1761.25
872.67	1763.30
872.83	1646.57
873.00	1705.96
873.17	1738.73
873.33	1716.20
873.50	1744.87
873.67	1705.96
873.83	1740.77
874.00	1650.66
874.16	1734.63
874.33	1771.49
874.50	1673.19
874.66	1744.87
874.83	1701.86
875.00	1800.16
875.16	1773.54
875.33	1748.97
875.50	1705.96
875.66	1683.43
875.83	1712.10
875.99	1746.92
876.16	1699.81
876.33	1724.39
876.49	1701.86
876.66	1718.25
876.83	1679.33
876.99	1646.57
877.16	1748.97
877.32	1730.53
877.49	1638.38
877.66	1732.58
877.82	1796.07
877.99	1669.09
878.15	1779.68
878.32	1679.33
878.49	1705.96
878.65	1777.64
878.82	1816.55
878.98	1728.49
879.15	1771.49
879.32	1746.92
879.48	1728.49
879.65	1669.09
879.81	1656.81
879.98	1722.34
880.15	1675.24
880.31	1744.87
880.48	1697.77
880.64	1763.30
880.81	1755.11
880.97	1820.64
881.14	1740.77
881.31	1617.90
881.47	1814.50
881.64	1744.87
881.80	1646.57
881.97	1710.05
882.13	1751.01
882.30	1648.61
882.47	1730.53
882.63	1621.99
882.80	1710.05
882.96	1714.15
883.13	1755.11
883.29	1683.43
883.46	1775.59
883.62	1826.79
883.79	1777.64
883.95	1771.49
884.12	1673.19
884.29	1734.63
884.45	1781.73
884.62	1769.44
884.78	1660.90
884.95	1736.68
885.11	1697.77
885.28	1767.40
885.44	1718.25
885.61	1767.40
885.77	1789.92
885.94	1611.75
886.10	1658.85
886.27	1714.15
886.43	1796.07
886.60	1685.48
886.76	1652.71
886.93	1587.18
887.09	1759.21
887.26	1607.66
887.42	1736.68
887.59	1767.40
887.75	1873.89
887.92	1736.68
888.08	1828.84
888.25	1853.41
888.41	1716.20
888.58	1644.52
888.74	1679.33
888.91	1705.96
>>>>>End Processed Spectral Data<<<<<
