SpectraSuite Data File
++++++++++++++++++++++++++++++++++++
Date: Mon Jun 06 15:42:17 CEST 2016
User: root
Dark Spectrum Present: No
Reference Spectrum Present: No
Number of Sampled Component Spectra: 1
Spectrometers: USB4C02835
Integration Time (usec): 100000 (USB4C02835)
Spectra Averaged: 1 (USB4C02835)
Boxcar Smoothing: 0 (USB4C02835)
Correct for Electrical Dark: No (USB4C02835)
Strobe/Lamp Enabled: No (USB4C02835)
Correct for Detector Non-linearity: No (USB4C02835)
Correct for Stray Light: No (USB4C02835)
Number of Pixels in Processed Spectrum: 3648
>>>>>Begin Processed Spectral Data<<<<<
177.47	1521.64
177.69	1521.64
177.91	1521.64
178.13	1509.35
178.36	1409.00
178.58	1671.14
178.80	1718.25
179.02	1538.02
179.24	1660.90
179.46	1683.43
179.68	1746.92
179.90	1685.48
180.13	1646.57
180.35	1689.57
180.57	1687.53
180.79	1810.40
181.01	1720.29
181.23	1812.45
181.45	1765.35
181.67	1708.01
181.90	1730.53
182.12	1665.00
182.34	1658.85
182.56	1787.88
182.78	1720.29
183.00	1611.75
183.22	1740.77
183.44	1595.37
183.66	1859.56
183.89	1834.98
184.11	1697.77
184.33	1746.92
184.55	1736.68
184.77	1695.72
184.99	1781.73
185.21	1732.58
185.43	1867.75
185.65	1638.38
185.87	1703.91
186.10	1830.88
186.32	1849.32
186.54	1726.44
186.76	1773.54
186.98	1765.35
187.20	1677.29
187.42	1697.77
187.64	1705.96
187.86	1828.84
188.08	1779.68
188.30	1701.86
188.52	1703.91
188.75	1783.78
188.97	1808.36
189.19	1660.90
189.41	1615.85
189.63	1685.48
189.85	1722.34
190.07	1658.85
190.29	1681.38
190.51	1834.98
190.73	1646.57
190.95	1794.02
191.17	1724.39
191.39	1609.70
191.61	1761.25
191.84	1665.00
192.06	1738.73
192.28	1681.38
192.50	1892.32
192.72	1722.34
192.94	1734.63
193.16	1773.54
193.38	1769.44
193.60	1699.81
193.82	1703.91
194.04	1812.45
194.26	1744.87
194.48	1734.63
194.70	1710.05
194.92	1667.05
195.14	1802.21
195.36	1673.19
195.58	1691.62
195.80	1658.85
196.02	1708.01
196.24	1615.85
196.46	1697.77
196.69	1716.20
196.91	1845.22
197.13	1740.77
197.35	1599.46
197.57	1757.16
197.79	1767.40
198.01	1677.29
198.23	1630.18
198.45	1787.88
198.67	1736.68
198.89	1703.91
199.11	1755.11
199.33	1691.62
199.55	1550.31
199.77	1753.06
199.99	1796.07
200.21	1699.81
200.43	1726.44
200.65	1599.46
200.87	1544.17
201.09	1765.35
201.31	1691.62
201.53	1775.59
201.75	1759.21
201.97	1812.45
202.19	1675.24
202.41	1759.21
202.63	1871.84
202.85	1738.73
203.07	1701.86
203.29	1662.95
203.51	1615.85
203.73	1701.86
203.95	1900.52
204.17	1746.92
204.39	1726.44
204.61	1658.85
204.83	1699.81
205.05	1722.34
205.27	1724.39
205.49	1810.40
205.71	1708.01
205.93	1665.00
206.15	1673.19
206.37	1710.05
206.59	1738.73
206.81	1656.81
207.03	1654.76
207.25	1675.24
207.47	1783.78
207.69	1738.73
207.91	1781.73
208.13	1740.77
208.34	1646.57
208.56	1689.57
208.78	1775.59
209.00	1697.77
209.22	1714.15
209.44	1728.49
209.66	1701.86
209.88	1722.34
210.10	1718.25
210.32	1662.95
210.54	1751.01
210.76	1675.24
210.98	1837.03
211.20	1599.46
211.42	1703.91
211.64	1767.40
211.86	1671.14
212.08	1804.26
212.30	1697.77
212.52	1624.04
212.74	1716.20
212.96	1695.72
213.17	1699.81
213.39	1703.91
213.61	1824.74
213.83	1677.29
214.05	1658.85
214.27	1828.84
214.49	1634.28
214.71	1667.05
214.93	1812.45
215.15	1716.20
215.37	1763.30
215.59	1640.42
215.81	1718.25
216.03	1796.07
216.24	1742.82
216.46	1685.48
216.68	1753.06
216.90	1736.68
217.12	1822.69
217.34	1724.39
217.56	1703.91
217.78	1826.79
218.00	1695.72
218.22	1683.43
218.44	1699.81
218.66	1769.44
218.87	1806.31
219.09	1708.01
219.31	1773.54
219.53	1714.15
219.75	1642.47
219.97	1624.04
220.19	1642.47
220.41	1720.29
220.63	1730.53
220.85	1697.77
221.06	1648.61
221.28	1798.12
221.50	1734.63
221.72	1744.87
221.94	1761.25
222.16	1660.90
222.38	1730.53
222.60	1761.25
222.82	1681.38
223.03	1748.97
223.25	1578.98
223.47	1785.83
223.69	1947.62
223.91	1701.86
224.13	1675.24
224.35	1767.40
224.57	1757.16
224.78	1753.06
225.00	1652.71
225.22	1738.73
225.44	1703.91
225.66	1681.38
225.88	1671.14
226.10	1773.54
226.32	1677.29
226.53	1738.73
226.75	1765.35
226.97	1689.57
227.19	1689.57
227.41	1660.90
227.63	1660.90
227.85	1681.38
228.06	1720.29
228.28	1679.33
228.50	1708.01
228.72	1632.23
228.94	1736.68
229.16	1650.66
229.37	1654.76
229.59	1662.95
229.81	1773.54
230.03	1634.28
230.25	1648.61
230.47	1646.57
230.69	1593.32
230.90	1753.06
231.12	1630.18
231.34	1787.88
231.56	1808.36
231.78	1693.67
232.00	1705.96
232.21	1730.53
232.43	1621.99
232.65	1665.00
232.87	1789.92
233.09	1669.09
233.30	1710.05
233.52	1710.05
233.74	1708.01
233.96	1697.77
234.18	1714.15
234.40	1673.19
234.61	1769.44
234.83	1695.72
235.05	1693.67
235.27	1882.08
235.49	1804.26
235.70	1734.63
235.92	1828.84
236.14	1732.58
236.36	1822.69
236.58	1685.48
236.79	1748.97
237.01	1757.16
237.23	1632.23
237.45	1779.68
237.67	1671.14
237.88	1718.25
238.10	1769.44
238.32	1681.38
238.54	1744.87
238.76	1710.05
238.97	1736.68
239.19	1679.33
239.41	1703.91
239.63	1806.31
239.85	1632.23
240.06	1695.72
240.28	1667.05
240.50	1787.88
240.72	1693.67
240.93	1687.53
241.15	1685.48
241.37	1648.61
241.59	1777.64
241.81	1755.11
242.02	1705.96
242.24	1660.90
242.46	1724.39
242.68	1669.09
242.89	1742.82
243.11	1691.62
243.33	1683.43
243.55	1767.40
243.76	1808.36
243.98	1654.76
244.20	1714.15
244.42	1777.64
244.64	1773.54
244.85	1607.66
245.07	1656.81
245.29	1718.25
245.51	1687.53
245.72	1722.34
245.94	1775.59
246.16	1718.25
246.38	1804.26
246.59	1675.24
246.81	1701.86
247.03	1722.34
247.24	1640.42
247.46	1742.82
247.68	1701.86
247.90	1722.34
248.11	1677.29
248.33	1726.44
248.55	1701.86
248.77	1740.77
248.98	1705.96
249.20	1826.79
249.42	1740.77
249.64	1730.53
249.85	1705.96
250.07	1685.48
250.29	1796.07
250.50	1734.63
250.72	1644.52
250.94	1703.91
251.16	1806.31
251.37	1775.59
251.59	1730.53
251.81	1767.40
252.02	1773.54
252.24	1628.14
252.46	1806.31
252.68	1671.14
252.89	1763.30
253.11	1677.29
253.33	1820.64
253.54	1673.19
253.76	1626.09
253.98	1634.28
254.20	1667.05
254.41	1587.18
254.63	1675.24
254.85	1665.00
255.06	1748.97
255.28	1710.05
255.50	1740.77
255.71	1720.29
255.93	1660.90
256.15	1675.24
256.36	1726.44
256.58	1712.10
256.80	1736.68
257.02	1677.29
257.23	1716.20
257.45	1753.06
257.67	1724.39
257.88	1716.20
258.10	1798.12
258.32	1708.01
258.53	1693.67
258.75	1892.32
258.97	1673.19
259.18	1744.87
259.40	1736.68
259.62	1828.84
259.83	1806.31
260.05	1763.30
260.27	1996.77
260.48	1746.92
260.70	1728.49
260.92	1673.19
261.13	1777.64
261.35	1701.86
261.57	1816.55
261.78	1683.43
262.00	1710.05
262.22	1732.58
262.43	1763.30
262.65	1691.62
262.86	1742.82
263.08	1787.88
263.30	1781.73
263.51	1581.03
263.73	1730.53
263.95	1837.03
264.16	1679.33
264.38	1687.53
264.60	1753.06
264.81	1699.81
265.03	1728.49
265.25	1736.68
265.46	1685.48
265.68	1726.44
265.89	1794.02
266.11	1667.05
266.33	1703.91
266.54	1777.64
266.76	1738.73
266.98	1679.33
267.19	1798.12
267.41	1765.35
267.62	1656.81
267.84	1646.57
268.06	1742.82
268.27	1718.25
268.49	1755.11
268.70	1779.68
268.92	1753.06
269.14	1669.09
269.35	1648.61
269.57	1779.68
269.79	1832.93
270.00	1693.67
270.22	1882.08
270.43	1808.36
270.65	1531.88
270.87	1728.49
271.08	1771.49
271.30	1751.01
271.51	1732.58
271.73	1714.15
271.95	1800.16
272.16	1701.86
272.38	1732.58
272.59	1679.33
272.81	1722.34
273.02	1644.52
273.24	1796.07
273.46	1824.74
273.67	1677.29
273.89	1687.53
274.10	1665.00
274.32	1742.82
274.54	1791.97
274.75	1791.97
274.97	1708.01
275.18	1761.25
275.40	1757.16
275.61	1722.34
275.83	1722.34
276.05	1728.49
276.26	1730.53
276.48	1744.87
276.69	1644.52
276.91	1648.61
277.12	1890.28
277.34	1662.95
277.55	1828.84
277.77	1689.57
277.99	1716.20
278.20	1632.23
278.42	1681.38
278.63	1656.81
278.85	1669.09
279.06	1607.66
279.28	1732.58
279.49	1753.06
279.71	1779.68
279.93	1753.06
280.14	1753.06
280.36	1714.15
280.57	1789.92
280.79	1734.63
281.00	1726.44
281.22	1667.05
281.43	1853.41
281.65	1667.05
281.86	1705.96
282.08	1691.62
282.29	1849.32
282.51	1574.89
282.73	1667.05
282.94	1646.57
283.16	1789.92
283.37	1759.21
283.59	1703.91
283.80	1720.29
284.02	1701.86
284.23	1710.05
284.45	1748.97
284.66	1619.94
284.88	1650.66
285.09	1677.29
285.31	1716.20
285.52	1810.40
285.74	1658.85
285.95	1732.58
286.17	1671.14
286.38	1759.21
286.60	1658.85
286.81	1705.96
287.03	1724.39
287.24	1730.53
287.46	1734.63
287.67	1689.57
287.89	1865.70
288.10	1630.18
288.32	1689.57
288.53	1843.17
288.75	1730.53
288.96	1779.68
289.18	1681.38
289.39	1705.96
289.61	1658.85
289.82	1816.55
290.04	1832.93
290.25	1671.14
290.47	1714.15
290.68	1613.80
290.90	1757.16
291.11	1636.33
291.33	1705.96
291.54	1570.79
291.76	1665.00
291.97	1701.86
292.18	1785.83
292.40	1699.81
292.61	1777.64
292.83	1855.46
293.04	1773.54
293.26	1718.25
293.47	1701.86
293.69	1687.53
293.90	1648.61
294.12	1814.50
294.33	1701.86
294.55	1734.63
294.76	1748.97
294.97	1777.64
295.19	1882.08
295.40	1761.25
295.62	1767.40
295.83	1671.14
296.05	1679.33
296.26	1812.45
296.48	1738.73
296.69	1619.94
296.90	1671.14
297.12	1726.44
297.33	1763.30
297.55	1720.29
297.76	1699.81
297.98	1800.16
298.19	1734.63
298.41	1685.48
298.62	1644.52
298.83	1816.55
299.05	1714.15
299.26	1708.01
299.48	1675.24
299.69	1800.16
299.90	1789.92
300.12	1677.29
300.33	1849.32
300.55	1658.85
300.76	1810.40
300.98	1660.90
301.19	1777.64
301.40	1671.14
301.62	1763.30
301.83	1763.30
302.05	1757.16
302.26	1728.49
302.47	1705.96
302.69	1675.24
302.90	1705.96
303.12	1609.70
303.33	1783.78
303.54	1812.45
303.76	1681.38
303.97	1777.64
304.19	1794.02
304.40	1581.03
304.61	1742.82
304.83	1800.16
305.04	1763.30
305.26	1759.21
305.47	1640.42
305.68	1720.29
305.90	1628.14
306.11	1773.54
306.33	1726.44
306.54	1730.53
306.75	1675.24
306.97	1615.85
307.18	1724.39
307.39	1699.81
307.61	1796.07
307.82	1716.20
308.04	1730.53
308.25	1648.61
308.46	1820.64
308.68	1701.86
308.89	1714.15
309.10	1734.63
309.32	1740.77
309.53	1691.62
309.74	1730.53
309.96	1730.53
310.17	1830.88
310.39	1634.28
310.60	1748.97
310.81	1767.40
311.03	1687.53
311.24	1755.11
311.45	1681.38
311.67	1834.98
311.88	1748.97
312.09	1705.96
312.31	1675.24
312.52	1685.48
312.73	1671.14
312.95	1638.38
313.16	1685.48
313.37	1736.68
313.59	1849.32
313.80	1765.35
314.01	1882.08
314.23	1755.11
314.44	1753.06
314.65	1619.94
314.87	1605.61
315.08	1761.25
315.29	1734.63
315.51	1626.09
315.72	1652.71
315.93	1843.17
316.15	1802.21
316.36	1656.81
316.57	1720.29
316.79	1734.63
317.00	1767.40
317.21	1691.62
317.43	1654.76
317.64	1685.48
317.85	1673.19
318.07	1736.68
318.28	1701.86
318.49	1800.16
318.70	1884.13
318.92	1755.11
319.13	1888.23
319.34	1890.28
319.56	1814.50
319.77	1714.15
319.98	1812.45
320.20	1640.42
320.41	1753.06
320.62	1796.07
320.83	1705.96
321.05	1845.22
321.26	1767.40
321.47	1748.97
321.69	1783.78
321.90	1611.75
322.11	1640.42
322.32	1697.77
322.54	1753.06
322.75	1759.21
322.96	1773.54
323.18	1685.48
323.39	1673.19
323.60	1665.00
323.81	1748.97
324.03	1652.71
324.24	1714.15
324.45	1687.53
324.66	1679.33
324.88	1722.34
325.09	1800.16
325.30	1755.11
325.52	1783.78
325.73	1658.85
325.94	1685.48
326.15	1607.66
326.37	1693.67
326.58	1722.34
326.79	1820.64
327.00	1759.21
327.22	1822.69
327.43	1673.19
327.64	1634.28
327.85	1703.91
328.07	1712.10
328.28	1902.56
328.49	1677.29
328.70	1742.82
328.92	1665.00
329.13	1732.58
329.34	1673.19
329.55	1808.36
329.76	1718.25
329.98	1708.01
330.19	1812.45
330.40	1718.25
330.61	1734.63
330.83	1849.32
331.04	1630.18
331.25	1722.34
331.46	1695.72
331.68	1601.51
331.89	1796.07
332.10	1722.34
332.31	1675.24
332.52	1681.38
332.74	1802.21
332.95	1609.70
333.16	1673.19
333.37	1814.50
333.58	1701.86
333.80	1767.40
334.01	1615.85
334.22	1791.97
334.43	1671.14
334.64	1644.52
334.86	1665.00
335.07	1755.11
335.28	1808.36
335.49	1671.14
335.70	1814.50
335.92	1822.69
336.13	1929.19
336.34	1740.77
336.55	1722.34
336.76	1697.77
336.98	1662.95
337.19	1693.67
337.40	1845.22
337.61	1837.03
337.82	1640.42
338.04	1767.40
338.25	1630.18
338.46	1685.48
338.67	1687.53
338.88	1648.61
339.09	1675.24
339.31	1675.24
339.52	1701.86
339.73	1662.95
339.94	1626.09
340.15	1759.21
340.36	1665.00
340.58	1806.31
340.79	1626.09
341.00	1732.58
341.21	1636.33
341.42	1769.44
341.63	1816.55
341.85	1773.54
342.06	1736.68
342.27	1671.14
342.48	1681.38
342.69	1556.46
342.90	1656.81
343.12	1751.01
343.33	1656.81
343.54	1734.63
343.75	1767.40
343.96	1687.53
344.17	1656.81
344.38	1650.66
344.60	1691.62
344.81	1736.68
345.02	1671.14
345.23	1837.03
345.44	1787.88
345.65	1798.12
345.86	1730.53
346.07	1730.53
346.29	1695.72
346.50	1728.49
346.71	1738.73
346.92	1798.12
347.13	1867.75
347.34	1714.15
347.55	1746.92
347.76	1697.77
347.98	1773.54
348.19	1691.62
348.40	1755.11
348.61	1732.58
348.82	1775.59
349.03	1798.12
349.24	1652.71
349.45	1832.93
349.66	1630.18
349.88	1724.39
350.09	1650.66
350.30	1722.34
350.51	1800.16
350.72	1755.11
350.93	1703.91
351.14	1710.05
351.35	1804.26
351.56	1710.05
351.77	1718.25
351.99	1748.97
352.20	1814.50
352.41	1757.16
352.62	1621.99
352.83	1724.39
353.04	1771.49
353.25	1712.10
353.46	1808.36
353.67	1683.43
353.88	1603.56
354.09	1740.77
354.30	1814.50
354.52	1769.44
354.73	1693.67
354.94	1740.77
355.15	1687.53
355.36	1804.26
355.57	1677.29
355.78	1736.68
355.99	1691.62
356.20	1636.33
356.41	1810.40
356.62	1769.44
356.83	1816.55
357.04	1744.87
357.25	1662.95
357.46	1669.09
357.68	1665.00
357.89	1656.81
358.10	1730.53
358.31	1734.63
358.52	1644.52
358.73	1585.13
358.94	1636.33
359.15	1656.81
359.36	1705.96
359.57	1765.35
359.78	1650.66
359.99	1724.39
360.20	1705.96
360.41	1712.10
360.62	1693.67
360.83	1730.53
361.04	1826.79
361.25	1736.68
361.46	1763.30
361.67	1796.07
361.88	1765.35
362.09	1724.39
362.30	1718.25
362.51	1703.91
362.72	1759.21
362.93	1755.11
363.14	1820.64
363.35	1742.82
363.56	1638.38
363.78	1808.36
363.99	1763.30
364.20	1656.81
364.41	1740.77
364.62	1906.66
364.83	1757.16
365.04	1685.48
365.25	1693.67
365.46	1806.31
365.67	1605.61
365.88	1646.57
366.09	1724.39
366.30	1634.28
366.51	1728.49
366.72	1736.68
366.93	1703.91
367.14	1714.15
367.35	1802.21
367.56	1732.58
367.77	1841.12
367.98	1732.58
368.18	1716.20
368.39	1806.31
368.60	1714.15
368.81	1738.73
369.02	1626.09
369.23	1710.05
369.44	1568.74
369.65	1732.58
369.86	1722.34
370.07	1714.15
370.28	1667.05
370.49	1775.59
370.70	1748.97
370.91	1611.75
371.12	1624.04
371.33	1736.68
371.54	1730.53
371.75	1920.99
371.96	1658.85
372.17	1769.44
372.38	1724.39
372.59	1796.07
372.80	1662.95
373.01	1652.71
373.22	1697.77
373.43	1660.90
373.64	1677.29
373.85	1728.49
374.06	1814.50
374.26	1697.77
374.47	1681.38
374.68	1857.51
374.89	1728.49
375.10	1658.85
375.31	1822.69
375.52	1662.95
375.73	1656.81
375.94	1669.09
376.15	1775.59
376.36	1660.90
376.57	1650.66
376.78	1634.28
376.99	1716.20
377.20	1839.08
377.40	1671.14
377.61	1832.93
377.82	1626.09
378.03	1787.88
378.24	1789.92
378.45	1650.66
378.66	1732.58
378.87	1689.57
379.08	1699.81
379.29	1689.57
379.50	1818.60
379.71	1699.81
379.91	1736.68
380.12	1705.96
380.33	1773.54
380.54	1714.15
380.75	1783.78
380.96	1720.29
381.17	1796.07
381.38	1671.14
381.59	1753.06
381.80	1761.25
382.00	1861.60
382.21	1783.78
382.42	1816.55
382.63	1791.97
382.84	1746.92
383.05	1798.12
383.26	1882.08
383.47	1742.82
383.68	1697.77
383.88	1861.60
384.09	1822.69
384.30	1769.44
384.51	1771.49
384.72	1685.48
384.93	1656.81
385.14	1736.68
385.35	1800.16
385.55	1607.66
385.76	1779.68
385.97	1740.77
386.18	1646.57
386.39	1718.25
386.60	1722.34
386.81	1703.91
387.02	1640.42
387.22	1609.70
387.43	1755.11
387.64	1812.45
387.85	1855.46
388.06	2176.99
388.27	4247.49
388.48	6748.06
388.68	8306.56
388.89	9551.73
389.10	9693.04
389.31	8558.46
389.52	7632.78
389.73	6682.52
389.93	6250.40
390.14	5863.33
390.35	5085.11
390.56	4542.39
390.77	3762.12
390.98	3016.66
391.18	2543.58
391.39	2054.11
391.60	1865.70
391.81	1851.36
392.02	1781.73
392.23	1877.99
392.43	1742.82
392.64	1773.54
392.85	1701.86
393.06	1851.36
393.27	1746.92
393.47	1701.86
393.68	1693.67
393.89	1734.63
394.10	1873.89
394.31	1652.71
394.52	1644.52
394.72	1720.29
394.93	1820.64
395.14	1624.04
395.35	1708.01
395.56	1671.14
395.76	1746.92
395.97	1873.89
396.18	1771.49
396.39	1906.66
396.60	2009.06
396.80	1873.89
397.01	1869.80
397.22	1882.08
397.43	1849.32
397.64	1693.67
397.84	1810.40
398.05	1877.99
398.26	1722.34
398.47	1757.16
398.67	1814.50
398.88	1748.97
399.09	1738.73
399.30	1705.96
399.51	1697.77
399.71	1734.63
399.92	1705.96
400.13	1728.49
400.34	1667.05
400.54	1730.53
400.75	1828.84
400.96	1712.10
401.17	1779.68
401.37	1791.97
401.58	1734.63
401.79	1771.49
402.00	1906.66
402.21	1947.62
402.41	2011.11
402.62	1964.00
402.83	2115.55
403.04	1959.91
403.24	2107.36
403.45	1806.31
403.66	1957.86
403.87	1845.22
404.07	1884.13
404.28	1912.80
404.49	1798.12
404.70	1806.31
404.90	1767.40
405.11	1775.59
405.32	1802.21
405.52	1644.52
405.73	1695.72
405.94	1638.38
406.15	1753.06
406.35	1720.29
406.56	1773.54
406.77	1640.42
406.98	1714.15
407.18	1720.29
407.39	1798.12
407.60	1722.34
407.80	1724.39
408.01	1638.38
408.22	1769.44
408.43	1703.91
408.63	1705.96
408.84	1710.05
409.05	1789.92
409.25	1710.05
409.46	1644.52
409.67	1769.44
409.88	1671.14
410.08	1787.88
410.29	1658.85
410.50	1822.69
410.70	1691.62
410.91	1675.24
411.12	1691.62
411.32	1734.63
411.53	1761.25
411.74	1834.98
411.95	1755.11
412.15	1855.46
412.36	1843.17
412.57	1783.78
412.77	1820.64
412.98	1771.49
413.19	1656.81
413.39	1751.01
413.60	1746.92
413.81	1834.98
414.01	1763.30
414.22	1802.21
414.43	1810.40
414.63	1669.09
414.84	1767.40
415.05	1761.25
415.25	1572.84
415.46	1751.01
415.67	1751.01
415.87	1812.45
416.08	1767.40
416.29	1746.92
416.49	1732.58
416.70	1705.96
416.91	1763.30
417.11	1736.68
417.32	1726.44
417.53	1777.64
417.73	1736.68
417.94	1697.77
418.15	1802.21
418.35	1722.34
418.56	1714.15
418.77	1820.64
418.97	1734.63
419.18	1742.82
419.38	1521.64
419.59	1722.34
419.80	1816.55
420.00	1677.29
420.21	1771.49
420.42	1828.84
420.62	1732.58
420.83	1738.73
421.04	1703.91
421.24	1712.10
421.45	1765.35
421.65	1773.54
421.86	1705.96
422.07	1810.40
422.27	1828.84
422.48	1677.29
422.69	1611.75
422.89	1701.86
423.10	1763.30
423.30	1683.43
423.51	1744.87
423.72	1687.53
423.92	1742.82
424.13	1671.14
424.33	1701.86
424.54	1744.87
424.75	1712.10
424.95	1837.03
425.16	1703.91
425.36	1681.38
425.57	1779.68
425.78	1722.34
425.98	1675.24
426.19	1753.06
426.39	1689.57
426.60	1742.82
426.81	1826.79
427.01	1746.92
427.22	1769.44
427.42	1679.33
427.63	1689.57
427.83	1720.29
428.04	1824.74
428.25	1738.73
428.45	1767.40
428.66	1787.88
428.86	1720.29
429.07	1683.43
429.28	1708.01
429.48	1742.82
429.69	1642.47
429.89	1791.97
430.10	1689.57
430.30	1773.54
430.51	1765.35
430.71	1757.16
430.92	1740.77
431.13	1722.34
431.33	1763.30
431.54	1732.58
431.74	1759.21
431.95	1771.49
432.15	1646.57
432.36	1673.19
432.56	1732.58
432.77	1794.02
432.98	1818.60
433.18	1767.40
433.39	1679.33
433.59	1685.48
433.80	1847.27
434.00	1808.36
434.21	1712.10
434.41	1683.43
434.62	1941.47
434.82	1660.90
435.03	1665.00
435.23	1744.87
435.44	1671.14
435.64	1718.25
435.85	1718.25
436.06	1705.96
436.26	1763.30
436.47	1722.34
436.67	1771.49
436.88	1673.19
437.08	1775.59
437.29	1822.69
437.49	1662.95
437.70	1785.83
437.90	1656.81
438.11	1841.12
438.31	1810.40
438.52	1894.37
438.72	1849.32
438.93	1927.14
439.13	1730.53
439.34	1783.78
439.54	1748.97
439.75	1830.88
439.95	1863.65
440.16	1703.91
440.36	1746.92
440.57	1728.49
440.77	1742.82
440.98	1746.92
441.18	1796.07
441.39	1626.09
441.59	1742.82
441.80	1898.47
442.00	1742.82
442.21	1820.64
442.41	1712.10
442.62	1732.58
442.82	1621.99
443.02	1730.53
443.23	1730.53
443.43	1728.49
443.64	1832.93
443.84	1642.47
444.05	1796.07
444.25	1712.10
444.46	1708.01
444.66	1777.64
444.87	1826.79
445.07	1624.04
445.28	1714.15
445.48	1748.97
445.69	1757.16
445.89	1877.99
446.09	1742.82
446.30	2027.49
446.50	2691.03
446.71	3702.73
446.91	4231.10
447.12	4802.49
447.32	4863.93
447.53	4382.65
447.73	3899.33
447.93	3454.92
448.14	3258.32
448.34	3123.15
448.55	2779.09
448.75	2834.39
448.96	2719.70
449.16	2488.28
449.36	2279.39
449.57	2041.82
449.77	1972.19
449.98	1779.68
450.18	1822.69
450.39	1808.36
450.59	1791.97
450.79	1718.25
451.00	1763.30
451.20	1773.54
451.41	1734.63
451.61	1765.35
451.81	1726.44
452.02	1734.63
452.22	1699.81
452.43	1775.59
452.63	1685.48
452.84	1800.16
453.04	1660.90
453.24	1753.06
453.45	1773.54
453.65	1720.29
453.86	1834.98
454.06	1789.92
454.26	1755.11
454.47	1624.04
454.67	1767.40
454.87	1781.73
455.08	1751.01
455.28	1830.88
455.49	1779.68
455.69	1708.01
455.89	1900.52
456.10	1847.27
456.30	1689.57
456.51	1763.30
456.71	1738.73
456.91	1734.63
457.12	1812.45
457.32	1775.59
457.52	1673.19
457.73	1871.84
457.93	1880.04
458.14	1718.25
458.34	1660.90
458.54	1742.82
458.75	1705.96
458.95	1794.02
459.15	1794.02
459.36	1714.15
459.56	1744.87
459.76	1867.75
459.97	1759.21
460.17	1736.68
460.37	1771.49
460.58	1794.02
460.78	1822.69
460.99	1693.67
461.19	1759.21
461.39	1757.16
461.60	1697.77
461.80	1802.21
462.00	1656.81
462.21	1681.38
462.41	1654.76
462.61	1675.24
462.82	1679.33
463.02	1775.59
463.22	1718.25
463.43	1828.84
463.63	1787.88
463.83	1837.03
464.04	1820.64
464.24	1767.40
464.44	1716.20
464.64	1687.53
464.85	1789.92
465.05	1771.49
465.25	1789.92
465.46	1742.82
465.66	1769.44
465.86	1759.21
466.07	1691.62
466.27	1722.34
466.47	1671.14
466.68	1628.14
466.88	1832.93
467.08	1822.69
467.29	1783.78
467.49	1720.29
467.69	1722.34
467.89	1853.41
468.10	1675.24
468.30	1761.25
468.50	1796.07
468.71	1812.45
468.91	1685.48
469.11	1849.32
469.31	1763.30
469.52	1662.95
469.72	1912.80
469.92	1863.65
470.13	1761.25
470.33	1730.53
470.53	1832.93
470.73	2070.50
470.94	2301.92
471.14	2328.54
471.34	2508.76
471.54	2385.88
471.75	2267.10
471.95	2136.03
472.15	2039.78
472.36	2140.13
472.56	2084.83
472.76	2072.54
472.96	2000.87
473.17	1964.00
473.37	1925.09
473.57	1832.93
473.77	1875.94
473.98	1691.62
474.18	1740.77
474.38	1937.38
474.58	1740.77
474.79	1677.29
474.99	1789.92
475.19	1816.55
475.39	1626.09
475.60	1814.50
475.80	1673.19
476.00	1787.88
476.20	1693.67
476.41	1748.97
476.61	1869.80
476.81	1851.36
477.01	1728.49
477.21	1761.25
477.42	1843.17
477.62	1648.61
477.82	1787.88
478.02	1718.25
478.23	1837.03
478.43	1650.66
478.63	1730.53
478.83	1685.48
479.03	1656.81
479.24	1875.94
479.44	1861.60
479.64	1687.53
479.84	1671.14
480.04	1681.38
480.25	1775.59
480.45	1705.96
480.65	1677.29
480.85	1812.45
481.06	1665.00
481.26	1787.88
481.46	1720.29
481.66	1716.20
481.86	1652.71
482.06	1777.64
482.27	1697.77
482.47	1685.48
482.67	1769.44
482.87	1730.53
483.07	1820.64
483.28	1738.73
483.48	1650.66
483.68	1814.50
483.88	1677.29
484.08	1628.14
484.29	1658.85
484.49	1744.87
484.69	1685.48
484.89	1826.79
485.09	1812.45
485.29	1849.32
485.50	1765.35
485.70	1708.01
485.90	1767.40
486.10	1785.83
486.30	1789.92
486.50	1716.20
486.71	1699.81
486.91	1730.53
487.11	1845.22
487.31	1679.33
487.51	1734.63
487.71	1701.86
487.91	1693.67
488.12	1746.92
488.32	1599.46
488.52	1691.62
488.72	1628.14
488.92	1650.66
489.12	1824.74
489.32	1728.49
489.53	1779.68
489.73	1665.00
489.93	1837.03
490.13	1683.43
490.33	1640.42
490.53	1736.68
490.73	1789.92
490.94	1757.16
491.14	1755.11
491.34	1843.17
491.54	2099.17
491.74	2537.43
491.94	3002.32
492.14	3045.33
492.34	3016.66
492.54	2822.10
492.75	2570.20
492.95	2402.27
493.15	2383.84
493.35	2242.53
493.55	2234.33
493.75	2131.94
493.95	2246.62
494.15	2007.01
494.35	1886.18
494.56	1873.89
494.76	1769.44
494.96	1814.50
495.16	1812.45
495.36	1712.10
495.56	1769.44
495.76	1681.38
495.96	1746.92
496.16	1652.71
496.36	1941.47
496.56	1748.97
496.77	1804.26
496.97	1730.53
497.17	1812.45
497.37	1669.09
497.57	1701.86
497.77	1757.16
497.97	1689.57
498.17	1667.05
498.37	1796.07
498.57	1787.88
498.77	1689.57
498.97	1828.84
499.17	1843.17
499.38	1798.12
499.58	1742.82
499.78	1812.45
499.98	1753.06
500.18	1777.64
500.38	1742.82
500.58	1959.91
500.78	2527.19
500.98	4593.59
501.18	5748.65
501.38	6838.17
501.58	7096.21
501.78	6602.65
501.98	5588.91
502.18	5128.11
502.38	4267.97
502.58	4257.73
502.78	3901.38
502.98	3682.25
503.18	3430.35
503.38	3252.17
503.59	2795.48
503.79	2672.60
503.99	2574.30
504.19	2322.40
504.39	2191.33
504.59	2168.80
504.79	2164.70
504.99	1951.71
505.19	1961.95
505.39	1947.62
505.59	1937.38
505.79	1918.95
505.99	1882.08
506.19	1781.73
506.39	1931.23
506.59	1767.40
506.79	1779.68
506.99	1769.44
507.19	1730.53
507.39	1798.12
507.59	1714.15
507.79	1708.01
507.99	1748.97
508.19	1673.19
508.39	1714.15
508.59	1759.21
508.79	1796.07
508.99	1890.28
509.19	1671.14
509.39	1849.32
509.59	1701.86
509.79	1660.90
509.99	1773.54
510.19	1849.32
510.39	1791.97
510.59	1716.20
510.79	1714.15
510.99	1669.09
511.19	1826.79
511.39	1839.08
511.59	1832.93
511.79	1847.27
511.99	1734.63
512.19	1834.98
512.38	1755.11
512.58	1683.43
512.78	1759.21
512.98	1806.31
513.18	1845.22
513.38	1599.46
513.58	1808.36
513.78	1720.29
513.98	1779.68
514.18	1720.29
514.38	1669.09
514.58	1798.12
514.78	1718.25
514.98	1660.90
515.18	1771.49
515.38	1724.39
515.58	1947.62
515.78	1710.05
515.98	1837.03
516.18	1787.88
516.38	1765.35
516.57	1757.16
516.77	1746.92
516.97	1773.54
517.17	1810.40
517.37	1587.18
517.57	1763.30
517.77	1697.77
517.97	1720.29
518.17	1775.59
518.37	1705.96
518.57	1636.33
518.77	1761.25
518.97	1722.34
519.16	1751.01
519.36	1828.84
519.56	1675.24
519.76	1806.31
519.96	1697.77
520.16	1800.16
520.36	1632.23
520.56	1824.74
520.76	1714.15
520.96	1683.43
521.16	1822.69
521.35	1818.60
521.55	1777.64
521.75	1775.59
521.95	1785.83
522.15	1665.00
522.35	1662.95
522.55	1685.48
522.75	1798.12
522.95	1703.91
523.14	1697.77
523.34	1742.82
523.54	1701.86
523.74	1832.93
523.94	1652.71
524.14	1699.81
524.34	1814.50
524.54	1814.50
524.73	1726.44
524.93	1789.92
525.13	1718.25
525.33	1673.19
525.53	1847.27
525.73	1804.26
525.93	1789.92
526.13	1718.25
526.32	1712.10
526.52	1843.17
526.72	1826.79
526.92	1748.97
527.12	1736.68
527.32	1650.66
527.52	1710.05
527.71	1781.73
527.91	1726.44
528.11	1746.92
528.31	1757.16
528.51	1685.48
528.71	1736.68
528.90	1767.40
529.10	1820.64
529.30	1822.69
529.50	1613.80
529.70	1804.26
529.90	1685.48
530.09	1742.82
530.29	1640.42
530.49	1650.66
530.69	1877.99
530.89	1765.35
531.09	1791.97
531.28	1710.05
531.48	1748.97
531.68	1767.40
531.88	1785.83
532.08	1781.73
532.28	1728.49
532.47	1824.74
532.67	1755.11
532.87	1742.82
533.07	1675.24
533.27	1832.93
533.46	1830.88
533.66	1697.77
533.86	1757.16
534.06	1781.73
534.26	1755.11
534.45	1755.11
534.65	1816.55
534.85	1703.91
535.05	1667.05
535.25	1779.68
535.44	1626.09
535.64	1791.97
535.84	1662.95
536.04	1740.77
536.24	1738.73
536.43	1724.39
536.63	1843.17
536.83	1708.01
537.03	1734.63
537.22	1701.86
537.42	1644.52
537.62	1806.31
537.82	1703.91
538.02	1804.26
538.21	1837.03
538.41	1974.24
538.61	1826.79
538.81	1718.25
539.00	1730.53
539.20	1648.61
539.40	1714.15
539.60	1783.78
539.79	1808.36
539.99	1771.49
540.19	1681.38
540.39	1769.44
540.58	1662.95
540.78	1781.73
540.98	1763.30
541.18	1806.31
541.37	1748.97
541.57	1705.96
541.77	1787.88
541.97	1773.54
542.16	1574.89
542.36	1751.01
542.56	1660.90
542.76	1847.27
542.95	1748.97
543.15	1798.12
543.35	1755.11
543.54	1613.80
543.74	1714.15
543.94	1808.36
544.14	1697.77
544.33	1757.16
544.53	1759.21
544.73	1748.97
544.93	1810.40
545.12	1769.44
545.32	1759.21
545.52	1759.21
545.71	1681.38
545.91	1728.49
546.11	1724.39
546.30	1697.77
546.50	1771.49
546.70	1773.54
546.90	1732.58
547.09	1738.73
547.29	1669.09
547.49	1779.68
547.68	1773.54
547.88	1667.05
548.08	1789.92
548.27	2199.52
548.47	1714.15
548.67	1722.34
548.87	1755.11
549.06	1734.63
549.26	1726.44
549.46	1769.44
549.65	1740.77
549.85	1779.68
550.05	1845.22
550.24	1667.05
550.44	1716.20
550.64	1777.64
550.83	1734.63
551.03	1814.50
551.23	1816.55
551.42	1814.50
551.62	1818.60
551.82	1791.97
552.01	1753.06
552.21	1859.56
552.41	1832.93
552.60	1773.54
552.80	1716.20
553.00	1763.30
553.19	1800.16
553.39	1751.01
553.59	1630.18
553.78	1773.54
553.98	1771.49
554.17	1746.92
554.37	1703.91
554.57	1800.16
554.76	1599.46
554.96	1748.97
555.16	1703.91
555.35	1783.78
555.55	1787.88
555.75	1787.88
555.94	1767.40
556.14	1624.04
556.33	1759.21
556.53	1814.50
556.73	1714.15
556.92	1763.30
557.12	1767.40
557.32	1837.03
557.51	1830.88
557.71	1787.88
557.90	1824.74
558.10	1877.99
558.30	1771.49
558.49	1804.26
558.69	1669.09
558.88	1736.68
559.08	1800.16
559.28	1761.25
559.47	1802.21
559.67	1828.84
559.86	1861.60
560.06	1820.64
560.26	1810.40
560.45	1767.40
560.65	1710.05
560.84	1771.49
561.04	1714.15
561.24	1767.40
561.43	1761.25
561.63	1746.92
561.82	1771.49
562.02	1798.12
562.22	1720.29
562.41	1763.30
562.61	1779.68
562.80	1714.15
563.00	1927.14
563.19	1748.97
563.39	1798.12
563.59	1812.45
563.78	1681.38
563.98	1609.70
564.17	1624.04
564.37	1685.48
564.56	1734.63
564.76	1716.20
564.96	1855.46
565.15	1753.06
565.35	1849.32
565.54	1730.53
565.74	1892.32
565.93	1796.07
566.13	1742.82
566.32	1732.58
566.52	1820.64
566.71	1808.36
566.91	1783.78
567.11	1804.26
567.30	1787.88
567.50	1779.68
567.69	1773.54
567.89	1683.43
568.08	1693.67
568.28	1814.50
568.47	1665.00
568.67	1755.11
568.86	1710.05
569.06	1744.87
569.25	1773.54
569.45	1730.53
569.64	1732.58
569.84	1748.97
570.04	1771.49
570.23	1648.61
570.43	1693.67
570.62	1816.55
570.82	1882.08
571.01	1695.72
571.21	1759.21
571.40	1720.29
571.60	1816.55
571.79	1843.17
571.99	1730.53
572.18	1751.01
572.38	1824.74
572.57	1791.97
572.77	1855.46
572.96	1861.60
573.16	1687.53
573.35	1728.49
573.55	1863.65
573.74	1736.68
573.94	1767.40
574.13	1718.25
574.33	1851.36
574.52	1779.68
574.71	1740.77
574.91	1820.64
575.10	1656.81
575.30	1708.01
575.49	1783.78
575.69	1714.15
575.88	1744.87
576.08	1767.40
576.27	1783.78
576.47	1697.77
576.66	1906.66
576.86	1853.41
577.05	1757.16
577.25	1779.68
577.44	1886.18
577.64	1767.40
577.83	1826.79
578.02	1769.44
578.22	1843.17
578.41	1787.88
578.61	1695.72
578.80	1732.58
579.00	1726.44
579.19	1796.07
579.39	1804.26
579.58	1777.64
579.77	1763.30
579.97	1855.46
580.16	1859.56
580.36	1841.12
580.55	1857.51
580.75	1837.03
580.94	1712.10
581.13	1877.99
581.33	1818.60
581.52	1785.83
581.72	1859.56
581.91	1800.16
582.11	1685.48
582.30	1839.08
582.49	1695.72
582.69	1828.84
582.88	1810.40
583.08	1759.21
583.27	1837.03
583.47	1798.12
583.66	1683.43
583.85	1712.10
584.05	1867.75
584.24	1832.93
584.44	1853.41
584.63	1861.60
584.82	1822.69
585.02	1814.50
585.21	1814.50
585.41	1794.02
585.60	1845.22
585.79	1877.99
585.99	1935.33
586.18	1824.74
586.37	2187.23
586.57	3395.53
586.76	9940.84
586.96	24577.67
587.15	34192.89
587.34	40402.33
587.54	42085.76
587.73	36302.29
587.93	26158.70
588.12	21601.97
588.31	18124.52
588.51	16203.53
588.70	15040.28
588.89	14102.31
589.09	12412.74
589.28	10954.58
589.47	9480.05
589.67	7915.40
589.86	6295.46
590.06	4794.29
590.25	3825.61
590.44	3063.76
590.64	2664.41
590.83	2271.20
591.02	2123.74
591.22	1957.86
591.41	1902.56
591.60	1906.66
591.80	1927.14
591.99	1742.82
592.18	1767.40
592.38	1853.41
592.57	1732.58
592.76	1789.92
592.96	1787.88
593.15	1834.98
593.34	1841.12
593.54	1716.20
593.73	1812.45
593.92	1757.16
594.12	1730.53
594.31	1834.98
594.50	1890.28
594.70	1783.78
594.89	1877.99
595.08	1683.43
595.28	1912.80
595.47	1888.23
595.66	1794.02
595.86	1753.06
596.05	1751.01
596.24	1697.77
596.43	1929.19
596.63	1738.73
596.82	1697.77
597.01	1791.97
597.21	1853.41
597.40	1837.03
597.59	1757.16
597.79	1773.54
597.98	1765.35
598.17	1822.69
598.36	1746.92
598.56	1802.21
598.75	1697.77
598.94	1732.58
599.14	1759.21
599.33	1738.73
599.52	1806.31
599.71	1757.16
599.91	1765.35
600.10	1789.92
600.29	1781.73
600.48	1820.64
600.68	1779.68
600.87	1791.97
601.06	1662.95
601.26	1740.77
601.45	1763.30
601.64	1806.31
601.83	1738.73
602.03	1730.53
602.22	1708.01
602.41	1783.78
602.60	1777.64
602.80	1855.46
602.99	1724.39
603.18	1742.82
603.37	1718.25
603.57	1705.96
603.76	1847.27
603.95	1800.16
604.14	1662.95
604.34	1740.77
604.53	1779.68
604.72	1783.78
604.91	1791.97
605.10	1744.87
605.30	1705.96
605.49	1812.45
605.68	1800.16
605.87	1732.58
606.07	1712.10
606.26	1763.30
606.45	1757.16
606.64	1732.58
606.84	1636.33
607.03	1800.16
607.22	1853.41
607.41	1746.92
607.60	1730.53
607.80	1701.86
607.99	1767.40
608.18	1726.44
608.37	1746.92
608.56	1789.92
608.76	1798.12
608.95	1845.22
609.14	1767.40
609.33	1767.40
609.52	1789.92
609.72	1742.82
609.91	1867.75
610.10	1771.49
610.29	1828.84
610.48	1804.26
610.68	1783.78
610.87	1781.73
611.06	1783.78
611.25	1669.09
611.44	1830.88
611.63	1708.01
611.83	1791.97
612.02	1665.00
612.21	1773.54
612.40	1595.37
612.59	1701.86
612.79	1683.43
612.98	1779.68
613.17	1849.32
613.36	1767.40
613.55	1843.17
613.74	1681.38
613.93	1699.81
614.13	1712.10
614.32	1738.73
614.51	1656.81
614.70	1763.30
614.89	1710.05
615.08	1736.68
615.28	2015.20
615.47	1665.00
615.66	1789.92
615.85	1736.68
616.04	1832.93
616.23	1720.29
616.42	1714.15
616.62	1806.31
616.81	1726.44
617.00	1722.34
617.19	1742.82
617.38	1701.86
617.57	1763.30
617.76	1802.21
617.95	1826.79
618.15	1726.44
618.34	1773.54
618.53	1636.33
618.72	1798.12
618.91	1796.07
619.10	1845.22
619.29	1671.14
619.48	1746.92
619.68	1775.59
619.87	1748.97
620.06	1722.34
620.25	1777.64
620.44	1699.81
620.63	1720.29
620.82	1822.69
621.01	1748.97
621.20	1742.82
621.39	1748.97
621.59	1726.44
621.78	1771.49
621.97	1687.53
622.16	1751.01
622.35	1779.68
622.54	1802.21
622.73	1798.12
622.92	1681.38
623.11	1904.61
623.30	1810.40
623.49	1736.68
623.68	1685.48
623.88	1783.78
624.07	1689.57
624.26	1769.44
624.45	1724.39
624.64	1705.96
624.83	1738.73
625.02	1667.05
625.21	1763.30
625.40	1828.84
625.59	1814.50
625.78	1789.92
625.97	1783.78
626.16	1785.83
626.35	1824.74
626.54	1736.68
626.74	1810.40
626.93	1687.53
627.12	1667.05
627.31	1861.60
627.50	1730.53
627.69	1849.32
627.88	1705.96
628.07	1748.97
628.26	1677.29
628.45	1710.05
628.64	1665.00
628.83	1683.43
629.02	1691.62
629.21	1753.06
629.40	1732.58
629.59	1675.24
629.78	1771.49
629.97	1701.86
630.16	1744.87
630.35	1667.05
630.54	1722.34
630.73	1689.57
630.92	1703.91
631.11	1665.00
631.30	1703.91
631.49	1742.82
631.68	1732.58
631.87	1828.84
632.06	1751.01
632.25	1869.80
632.44	1798.12
632.63	1787.88
632.82	1708.01
633.01	1675.24
633.20	1794.02
633.39	1644.52
633.58	1650.66
633.77	1818.60
633.96	1748.97
634.15	1677.29
634.34	1763.30
634.53	1761.25
634.72	1660.90
634.91	1669.09
635.10	1710.05
635.29	1761.25
635.48	1722.34
635.67	1767.40
635.86	1624.04
636.05	1826.79
636.24	1761.25
636.43	1757.16
636.62	1703.91
636.81	1574.89
637.00	1703.91
637.19	1769.44
637.38	1732.58
637.57	1730.53
637.76	1759.21
637.95	1759.21
638.14	1699.81
638.33	1681.38
638.52	1777.64
638.71	1736.68
638.89	1716.20
639.08	1929.19
639.27	1765.35
639.46	1667.05
639.65	1837.03
639.84	1705.96
640.03	1832.93
640.22	1712.10
640.41	1818.60
640.60	1654.76
640.79	1787.88
640.98	1720.29
641.17	1759.21
641.36	1837.03
641.55	1785.83
641.74	1677.29
641.92	1703.91
642.11	1646.57
642.30	1658.85
642.49	1642.47
642.68	1722.34
642.87	1798.12
643.06	1685.48
643.25	1740.77
643.44	1691.62
643.63	1769.44
643.82	1775.59
644.00	1624.04
644.19	1785.83
644.38	1630.18
644.57	1714.15
644.76	1763.30
644.95	1781.73
645.14	1759.21
645.33	1705.96
645.52	1732.58
645.71	1599.46
645.89	1677.29
646.08	1671.14
646.27	1705.96
646.46	1763.30
646.65	1671.14
646.84	1769.44
647.03	1673.19
647.22	1718.25
647.40	1785.83
647.59	1703.91
647.78	1738.73
647.97	1769.44
648.16	1640.42
648.35	1765.35
648.54	1730.53
648.73	1773.54
648.91	1732.58
649.10	1736.68
649.29	1683.43
649.48	1748.97
649.67	1736.68
649.86	1740.77
650.05	1718.25
650.23	1746.92
650.42	1722.34
650.61	1773.54
650.80	1732.58
650.99	1910.75
651.18	1718.25
651.36	1834.98
651.55	1722.34
651.74	1771.49
651.93	1761.25
652.12	1681.38
652.31	1621.99
652.49	1767.40
652.68	1697.77
652.87	1765.35
653.06	1703.91
653.25	1882.08
653.44	1736.68
653.62	1796.07
653.81	1656.81
654.00	1748.97
654.19	1808.36
654.38	1970.15
654.56	1683.43
654.75	1730.53
654.94	1789.92
655.13	1714.15
655.32	1769.44
655.51	1648.61
655.69	1720.29
655.88	1812.45
656.07	1693.67
656.26	1712.10
656.45	1638.38
656.63	1738.73
656.82	1751.01
657.01	1791.97
657.20	1722.34
657.38	1798.12
657.57	1701.86
657.76	1611.75
657.95	1779.68
658.14	1751.01
658.32	1669.09
658.51	1673.19
658.70	1738.73
658.89	1722.34
659.08	1705.96
659.26	1904.61
659.45	1603.56
659.64	1783.78
659.83	1621.99
660.01	1886.18
660.20	1697.77
660.39	1822.69
660.58	1665.00
660.76	1740.77
660.95	1560.55
661.14	1759.21
661.33	1687.53
661.51	1718.25
661.70	1728.49
661.89	1720.29
662.08	1652.71
662.26	1703.91
662.45	1699.81
662.64	1851.36
662.83	1855.46
663.01	1697.77
663.20	1728.49
663.39	1857.51
663.58	1689.57
663.76	1662.95
663.95	1730.53
664.14	1648.61
664.32	1693.67
664.51	1695.72
664.70	1636.33
664.89	1665.00
665.07	1648.61
665.26	1849.32
665.45	1660.90
665.64	1791.97
665.82	1742.82
666.01	1753.06
666.20	1652.71
666.38	1814.50
666.57	1812.45
666.76	2174.94
666.95	4505.53
667.13	10504.03
667.32	15394.58
667.51	17958.64
667.69	18657.00
667.88	17663.73
668.07	12533.57
668.25	9480.05
668.44	8122.24
668.63	7231.38
668.81	6844.31
669.00	6178.72
669.19	5633.96
669.38	5160.88
669.56	4579.26
669.75	3854.28
669.94	3407.82
670.12	2934.74
670.31	2539.48
670.50	2234.33
670.68	2004.96
670.87	1882.08
671.06	1761.25
671.24	1757.16
671.43	1890.28
671.62	1755.11
671.80	1677.29
671.99	1818.60
672.18	1742.82
672.36	1767.40
672.55	1734.63
672.74	1744.87
672.92	1726.44
673.11	1677.29
673.29	1697.77
673.48	1806.31
673.67	1708.01
673.85	1769.44
674.04	1693.67
674.23	1746.92
674.41	1853.41
674.60	1675.24
674.79	1609.70
674.97	1687.53
675.16	1796.07
675.34	1849.32
675.53	1660.90
675.72	1765.35
675.90	1824.74
676.09	1712.10
676.28	1681.38
676.46	1662.95
676.65	1734.63
676.83	1701.86
677.02	1722.34
677.21	1705.96
677.39	1757.16
677.58	1699.81
677.77	1671.14
677.95	1716.20
678.14	1619.94
678.32	1718.25
678.51	1730.53
678.70	1841.12
678.88	1785.83
679.07	1718.25
679.25	1693.67
679.44	1722.34
679.63	1699.81
679.81	1705.96
680.00	1783.78
680.18	1789.92
680.37	1712.10
680.55	1755.11
680.74	1644.52
680.93	1656.81
681.11	1767.40
681.30	1791.97
681.48	1800.16
681.67	1794.02
681.85	1703.91
682.04	1722.34
682.23	1794.02
682.41	1767.40
682.60	1703.91
682.78	1634.28
682.97	1716.20
683.15	1738.73
683.34	1738.73
683.53	1816.55
683.71	1705.96
683.90	1867.75
684.08	1748.97
684.27	1683.43
684.45	1732.58
684.64	1794.02
684.82	1662.95
685.01	1775.59
685.19	1798.12
685.38	1904.61
685.57	1755.11
685.75	1738.73
685.94	1736.68
686.12	1720.29
686.31	1669.09
686.49	1845.22
686.68	1574.89
686.86	1759.21
687.05	1724.39
687.23	1857.51
687.42	1771.49
687.60	1634.28
687.79	1763.30
687.97	1839.08
688.16	1724.39
688.34	1779.68
688.53	1617.90
688.71	1755.11
688.90	1753.06
689.08	1718.25
689.27	1671.14
689.45	1843.17
689.64	1779.68
689.82	1699.81
690.01	1787.88
690.19	1777.64
690.38	1744.87
690.56	1845.22
690.75	1652.71
690.93	1767.40
691.12	1714.15
691.30	1699.81
691.49	1695.72
691.67	1751.01
691.86	1777.64
692.04	1652.71
692.23	1665.00
692.41	1736.68
692.60	1857.51
692.78	1763.30
692.97	1716.20
693.15	1716.20
693.34	1808.36
693.52	1783.78
693.71	1599.46
693.89	1697.77
694.08	1671.14
694.26	1738.73
694.44	1767.40
694.63	1685.48
694.81	1689.57
695.00	1685.48
695.18	1718.25
695.37	1847.27
695.55	1759.21
695.74	1708.01
695.92	1740.77
696.10	1816.55
696.29	1632.23
696.47	1667.05
696.66	1646.57
696.84	1640.42
697.03	1759.21
697.21	1783.78
697.40	2383.84
697.58	1812.45
697.76	1650.66
697.95	1697.77
698.13	1708.01
698.32	1660.90
698.50	1712.10
698.68	1804.26
698.87	1759.21
699.05	1841.12
699.24	1687.53
699.42	1654.76
699.61	1771.49
699.79	1726.44
699.97	1716.20
700.16	1697.77
700.34	1605.61
700.53	1761.25
700.71	1847.27
700.89	1794.02
701.08	1810.40
701.26	1798.12
701.45	2045.92
701.63	1761.25
701.81	1802.21
702.00	1685.48
702.18	1720.29
702.37	1673.19
702.55	1748.97
702.73	1712.10
702.92	1632.23
703.10	1763.30
703.28	1699.81
703.47	1652.71
703.65	1755.11
703.84	1738.73
704.02	1693.67
704.20	1816.55
704.39	1665.00
704.57	1714.15
704.75	1761.25
704.94	1742.82
705.12	1658.85
705.30	1828.84
705.49	2277.34
705.67	4485.05
705.86	9588.59
706.04	12699.45
706.22	14708.51
706.41	15146.78
706.59	13623.09
706.77	9574.25
706.96	7223.19
707.14	6776.73
707.32	5922.73
707.51	5586.86
707.69	4675.51
707.87	4140.99
708.06	3585.99
708.24	2959.31
708.42	2322.40
708.61	2238.43
708.79	1894.37
708.97	1824.74
709.16	1794.02
709.34	1767.40
709.52	1753.06
709.71	1763.30
709.89	1849.32
710.07	1662.95
710.26	1640.42
710.44	1693.67
710.62	1853.41
710.80	1710.05
710.99	1765.35
711.17	1722.34
711.35	1636.33
711.54	1636.33
711.72	1839.08
711.90	1699.81
712.09	1728.49
712.27	1761.25
712.45	1730.53
712.63	1689.57
712.82	1712.10
713.00	1767.40
713.18	1742.82
713.37	1800.16
713.55	1759.21
713.73	1710.05
713.91	1763.30
714.10	1662.95
714.28	1718.25
714.46	1814.50
714.65	1742.82
714.83	1751.01
715.01	1724.39
715.19	1740.77
715.38	1679.33
715.56	1738.73
715.74	1648.61
715.92	1673.19
716.11	1789.92
716.29	1628.14
716.47	1734.63
716.65	1773.54
716.84	1636.33
717.02	1726.44
717.20	1607.66
717.38	1685.48
717.57	1753.06
717.75	1714.15
717.93	1646.57
718.11	1724.39
718.30	1640.42
718.48	1751.01
718.66	1763.30
718.84	1791.97
719.03	1642.47
719.21	1626.09
719.39	1753.06
719.57	1755.11
719.75	1845.22
719.94	1650.66
720.12	1693.67
720.30	1757.16
720.48	1703.91
720.67	1705.96
720.85	1671.14
721.03	1740.77
721.21	1695.72
721.39	1744.87
721.58	1808.36
721.76	1822.69
721.94	1730.53
722.12	1771.49
722.30	1841.12
722.49	1718.25
722.67	1755.11
722.85	1779.68
723.03	1742.82
723.21	1632.23
723.40	1742.82
723.58	1794.02
723.76	1820.64
723.94	1703.91
724.12	1781.73
724.30	1781.73
724.49	1716.20
724.67	1652.71
724.85	1800.16
725.03	1646.57
725.21	1732.58
725.40	1777.64
725.58	1693.67
725.76	1771.49
725.94	1736.68
726.12	1720.29
726.30	1703.91
726.49	1740.77
726.67	1671.14
726.85	1753.06
727.03	1830.88
727.21	2189.28
727.39	2932.69
727.57	3790.79
727.76	4161.47
727.94	4327.36
728.12	4300.73
728.30	3633.10
728.48	2951.12
728.66	2721.75
728.84	2625.50
729.03	2281.44
729.21	2117.60
729.39	2000.87
729.57	1861.60
729.75	1796.07
729.93	1822.69
730.11	1687.53
730.30	1703.91
730.48	1632.23
730.66	1769.44
730.84	1697.77
731.02	1693.67
731.20	1718.25
731.38	1804.26
731.56	1578.98
731.74	1705.96
731.93	1624.04
732.11	1775.59
732.29	1687.53
732.47	1677.29
732.65	1734.63
732.83	1781.73
733.01	1773.54
733.19	1597.42
733.37	1673.19
733.56	1763.30
733.74	1658.85
733.92	1812.45
734.10	1652.71
734.28	1738.73
734.46	1599.46
734.64	1748.97
734.82	1654.76
735.00	1646.57
735.18	1693.67
735.36	1753.06
735.54	1708.01
735.73	1781.73
735.91	1804.26
736.09	1751.01
736.27	1652.71
736.45	1800.16
736.63	1617.90
736.81	1617.90
736.99	1781.73
737.17	1734.63
737.35	1683.43
737.53	1705.96
737.71	1667.05
737.89	1783.78
738.07	1705.96
738.25	1693.67
738.43	1642.47
738.61	1783.78
738.80	1681.38
738.98	1654.76
739.16	1693.67
739.34	1632.23
739.52	1773.54
739.70	1720.29
739.88	1820.64
740.06	1769.44
740.24	1583.08
740.42	1730.53
740.60	1568.74
740.78	1693.67
740.96	1632.23
741.14	1681.38
741.32	1697.77
741.50	1558.50
741.68	1929.19
741.86	1785.83
742.04	1710.05
742.22	1642.47
742.40	1689.57
742.58	1677.29
742.76	1626.09
742.94	1771.49
743.12	1591.27
743.30	1644.52
743.48	1755.11
743.66	1761.25
743.84	1691.62
744.02	1605.61
744.20	1714.15
744.38	1654.76
744.56	1669.09
744.74	1748.97
744.92	1767.40
745.10	1841.12
745.28	1742.82
745.46	1826.79
745.64	1609.70
745.82	1759.21
746.00	1705.96
746.18	1732.58
746.36	1689.57
746.54	1642.47
746.72	1642.47
746.90	1755.11
747.08	1740.77
747.26	1708.01
747.44	1789.92
747.62	1820.64
747.80	1732.58
747.98	1775.59
748.15	1673.19
748.33	1826.79
748.51	1777.64
748.69	1716.20
748.87	1648.61
749.05	1662.95
749.23	1701.86
749.41	1744.87
749.59	1660.90
749.77	1695.72
749.95	1689.57
750.13	1730.53
750.31	1712.10
750.49	1759.21
750.67	1730.53
750.85	1796.07
751.03	1761.25
751.20	1824.74
751.38	1755.11
751.56	1728.49
751.74	1726.44
751.92	1738.73
752.10	1673.19
752.28	1794.02
752.46	1656.81
752.64	1697.77
752.82	1710.05
753.00	1804.26
753.18	1693.67
753.35	1701.86
753.53	1746.92
753.71	1705.96
753.89	1763.30
754.07	1667.05
754.25	1789.92
754.43	1734.63
754.61	1599.46
754.79	1734.63
754.97	1705.96
755.14	1699.81
755.32	1640.42
755.50	1697.77
755.68	1746.92
755.86	1677.29
756.04	1681.38
756.22	1568.74
756.40	1802.21
756.57	1775.59
756.75	1679.33
756.93	1748.97
757.11	1665.00
757.29	1742.82
757.47	1648.61
757.65	1658.85
757.82	1615.85
758.00	1665.00
758.18	1669.09
758.36	1617.90
758.54	1873.89
758.72	1671.14
758.90	1716.20
759.07	1705.96
759.25	1662.95
759.43	1712.10
759.61	1624.04
759.79	2205.66
759.97	1759.21
760.15	1693.67
760.32	1685.48
760.50	1757.16
760.68	1830.88
760.86	1628.14
761.04	1755.11
761.22	1738.73
761.39	1701.86
761.57	1708.01
761.75	1769.44
761.93	1796.07
762.11	1636.33
762.28	1718.25
762.46	1710.05
762.64	1683.43
762.82	1679.33
763.00	1751.01
763.18	1789.92
763.35	1693.67
763.53	1746.92
763.71	1732.58
763.89	1732.58
764.07	1705.96
764.24	1728.49
764.42	1751.01
764.60	1705.96
764.78	1787.88
764.96	1738.73
765.13	1748.97
765.31	1751.01
765.49	1722.34
765.67	1746.92
765.84	1667.05
766.02	1597.42
766.20	1611.75
766.38	1779.68
766.56	1753.06
766.73	1699.81
766.91	1722.34
767.09	1771.49
767.27	1714.15
767.44	1681.38
767.62	1699.81
767.80	1691.62
767.98	1613.80
768.15	1714.15
768.33	1728.49
768.51	1796.07
768.69	1785.83
768.87	1783.78
769.04	1769.44
769.22	1945.57
769.40	1761.25
769.58	1877.99
769.75	1767.40
769.93	1763.30
770.11	1753.06
770.28	1617.90
770.46	1796.07
770.64	1736.68
770.82	1722.34
770.99	1646.57
771.17	1710.05
771.35	1720.29
771.53	1722.34
771.70	1705.96
771.88	1683.43
772.06	1640.42
772.23	1734.63
772.41	1675.24
772.59	1714.15
772.77	1675.24
772.94	1650.66
773.12	1683.43
773.30	1714.15
773.47	1703.91
773.65	1724.39
773.83	1746.92
774.01	1777.64
774.18	1617.90
774.36	1742.82
774.54	1558.50
774.71	1787.88
774.89	1644.52
775.07	1699.81
775.24	1677.29
775.42	1701.86
775.60	1820.64
775.78	1726.44
775.95	1644.52
776.13	1548.26
776.31	1576.94
776.48	1800.16
776.66	1742.82
776.84	1701.86
777.01	1683.43
777.19	1644.52
777.37	1798.12
777.54	1822.69
777.72	1796.07
777.90	1703.91
778.07	1619.94
778.25	1890.28
778.43	1814.50
778.60	1636.33
778.78	1806.31
778.96	1722.34
779.13	1640.42
779.31	1738.73
779.49	1681.38
779.66	1675.24
779.84	1718.25
780.01	1703.91
780.19	1636.33
780.37	1787.88
780.54	1798.12
780.72	1611.75
780.90	1718.25
781.07	1626.09
781.25	1681.38
781.43	1751.01
781.60	1673.19
781.78	1804.26
781.95	1705.96
782.13	1708.01
782.31	1716.20
782.48	1656.81
782.66	1714.15
782.83	1912.80
783.01	1763.30
783.19	1712.10
783.36	1669.09
783.54	1644.52
783.72	1785.83
783.89	1746.92
784.07	1656.81
784.24	1763.30
784.42	1722.34
784.60	1693.67
784.77	1751.01
784.95	1634.28
785.12	1734.63
785.30	1763.30
785.47	1689.57
785.65	1736.68
785.83	1753.06
786.00	1705.96
786.18	1736.68
786.35	1615.85
786.53	1697.77
786.71	1740.77
786.88	1751.01
787.06	1820.64
787.23	1738.73
787.41	1697.77
787.58	1763.30
787.76	1660.90
787.94	1734.63
788.11	1665.00
788.29	1642.47
788.46	1677.29
788.64	1683.43
788.81	1646.57
788.99	1695.72
789.16	1714.15
789.34	1671.14
789.52	1640.42
789.69	1718.25
789.87	1576.94
790.04	1710.05
790.22	1726.44
790.39	1785.83
790.57	1628.14
790.74	1667.05
790.92	1726.44
791.09	1642.47
791.27	1777.64
791.44	1834.98
791.62	1683.43
791.79	1789.92
791.97	1783.78
792.15	1812.45
792.32	1710.05
792.50	1685.48
792.67	1730.53
792.85	1810.40
793.02	1730.53
793.20	1718.25
793.37	1628.14
793.55	1679.33
793.72	1679.33
793.90	1755.11
794.07	1648.61
794.25	1689.57
794.42	1705.96
794.60	1652.71
794.77	1697.77
794.95	1748.97
795.12	1632.23
795.30	1708.01
795.47	1605.61
795.65	1884.13
795.82	1701.86
796.00	1642.47
796.17	1724.39
796.34	1705.96
796.52	1703.91
796.69	1824.74
796.87	1744.87
797.04	1652.71
797.22	1794.02
797.39	1708.01
797.57	1796.07
797.74	1716.20
797.92	1744.87
798.09	1685.48
798.27	1802.21
798.44	1730.53
798.62	1689.57
798.79	1726.44
798.96	1720.29
799.14	1769.44
799.31	1959.91
799.49	1693.67
799.66	1677.29
799.84	1714.15
800.01	1689.57
800.19	1753.06
800.36	1644.52
800.53	1724.39
800.71	1720.29
800.88	1796.07
801.06	1736.68
801.23	1658.85
801.41	1667.05
801.58	1685.48
801.75	1617.90
801.93	1826.79
802.10	1775.59
802.28	1705.96
802.45	1585.13
802.63	1779.68
802.80	1742.82
802.97	1689.57
803.15	1748.97
803.32	1693.67
803.50	1687.53
803.67	1656.81
803.84	1648.61
804.02	1722.34
804.19	1738.73
804.37	1634.28
804.54	1712.10
804.71	1744.87
804.89	1742.82
805.06	1759.21
805.24	1689.57
805.41	1660.90
805.58	1697.77
805.76	1853.41
805.93	1736.68
806.10	1824.74
806.28	1777.64
806.45	1701.86
806.63	1632.23
806.80	1783.78
806.97	1708.01
807.15	1732.58
807.32	1734.63
807.49	1714.15
807.67	1691.62
807.84	1693.67
808.01	1595.37
808.19	1794.02
808.36	1863.65
808.54	1718.25
808.71	1691.62
808.88	1722.34
809.06	1716.20
809.23	1746.92
809.40	1687.53
809.58	1783.78
809.75	1671.14
809.92	1689.57
810.10	1822.69
810.27	1705.96
810.44	1712.10
810.62	1755.11
810.79	1683.43
810.96	1757.16
811.14	1648.61
811.31	1771.49
811.48	1693.67
811.66	1720.29
811.83	1693.67
812.00	1783.78
812.18	1689.57
812.35	1830.88
812.52	1685.48
812.69	1638.38
812.87	1677.29
813.04	1632.23
813.21	1769.44
813.39	1730.53
813.56	1619.94
813.73	1726.44
813.91	1677.29
814.08	1742.82
814.25	1720.29
814.42	1634.28
814.60	1701.86
814.77	1712.10
814.94	1693.67
815.12	1730.53
815.29	1824.74
815.46	1685.48
815.63	1769.44
815.81	1748.97
815.98	1697.77
816.15	1732.58
816.33	1699.81
816.50	1695.72
816.67	1708.01
816.84	1738.73
817.02	1621.99
817.19	1722.34
817.36	1679.33
817.53	1779.68
817.71	1613.80
817.88	1734.63
818.05	1724.39
818.22	1732.58
818.40	1771.49
818.57	1693.67
818.74	1708.01
818.91	1783.78
819.09	1765.35
819.26	1763.30
819.43	1673.19
819.60	1732.58
819.78	1738.73
819.95	1791.97
820.12	1636.33
820.29	1787.88
820.47	1779.68
820.64	1603.56
820.81	1662.95
820.98	1699.81
821.15	1724.39
821.33	1732.58
821.50	1654.76
821.67	1710.05
821.84	1681.38
822.02	1740.77
822.19	1718.25
822.36	1718.25
822.53	1742.82
822.70	1615.85
822.88	1671.14
823.05	1822.69
823.22	1714.15
823.39	1751.01
823.56	1695.72
823.74	1900.52
823.91	1671.14
824.08	1665.00
824.25	1695.72
824.42	1787.88
824.60	1609.70
824.77	1712.10
824.94	1726.44
825.11	1687.53
825.28	1632.23
825.45	1675.24
825.63	1691.62
825.80	1685.48
825.97	1781.73
826.14	1773.54
826.31	1652.71
826.48	1705.96
826.66	1675.24
826.83	1683.43
827.00	1699.81
827.17	1624.04
827.34	1609.70
827.51	1724.39
827.69	1761.25
827.86	1525.74
828.03	1626.09
828.20	1669.09
828.37	1646.57
828.54	1677.29
828.71	1607.66
828.89	1777.64
829.06	1796.07
829.23	1738.73
829.40	1603.56
829.57	1771.49
829.74	1691.62
829.91	1724.39
830.09	1712.10
830.26	1779.68
830.43	1773.54
830.60	1652.71
830.77	1783.78
830.94	1720.29
831.11	1757.16
831.28	1742.82
831.46	1847.27
831.63	1654.76
831.80	1810.40
831.97	1675.24
832.14	1654.76
832.31	1757.16
832.48	1703.91
832.65	1757.16
832.82	1708.01
832.99	1730.53
833.17	1728.49
833.34	1742.82
833.51	1730.53
833.68	1716.20
833.85	1791.97
834.02	1697.77
834.19	1630.18
834.36	1699.81
834.53	1734.63
834.70	1789.92
834.87	1775.59
835.04	1736.68
835.22	1619.94
835.39	1736.68
835.56	1621.99
835.73	1712.10
835.90	1755.11
836.07	1636.33
836.24	1744.87
836.41	1691.62
836.58	1697.77
836.75	1744.87
836.92	1746.92
837.09	1683.43
837.26	1785.83
837.43	1732.58
837.60	1705.96
837.77	1607.66
837.94	1693.67
838.12	1791.97
838.29	1714.15
838.46	1652.71
838.63	1613.80
838.80	1839.08
838.97	1681.38
839.14	1753.06
839.31	1701.86
839.48	1691.62
839.65	1693.67
839.82	1699.81
839.99	1699.81
840.16	1693.67
840.33	1699.81
840.50	1693.67
840.67	1701.86
840.84	1568.74
841.01	1728.49
841.18	1697.77
841.35	1691.62
841.52	1746.92
841.69	1769.44
841.86	1718.25
842.03	1769.44
842.20	1769.44
842.37	1763.30
842.54	1734.63
842.71	1722.34
842.88	1636.33
843.05	1732.58
843.22	1771.49
843.39	1771.49
843.56	1650.66
843.73	1794.02
843.90	1767.40
844.07	1755.11
844.24	1810.40
844.41	1806.31
844.58	1722.34
844.75	1701.86
844.92	1742.82
845.09	1673.19
845.26	1689.57
845.43	1703.91
845.60	1708.01
845.77	1763.30
845.94	1724.39
846.10	1705.96
846.27	1570.79
846.44	1679.33
846.61	1736.68
846.78	1785.83
846.95	1808.36
847.12	1687.53
847.29	1730.53
847.46	1771.49
847.63	1800.16
847.80	1654.76
847.97	1642.47
848.14	1914.85
848.31	1718.25
848.48	1609.70
848.65	1648.61
848.82	1738.73
848.98	1822.69
849.15	1738.73
849.32	1755.11
849.49	1677.29
849.66	1675.24
849.83	1726.44
850.00	1599.46
850.17	1753.06
850.34	1667.05
850.51	1730.53
850.68	1628.14
850.85	1822.69
851.01	1705.96
851.18	1736.68
851.35	1753.06
851.52	1728.49
851.69	1763.30
851.86	1667.05
852.03	1742.82
852.20	1744.87
852.37	1701.86
852.53	1654.76
852.70	1779.68
852.87	1732.58
853.04	1634.28
853.21	1804.26
853.38	1755.11
853.55	1763.30
853.72	1775.59
853.89	1621.99
854.05	1675.24
854.22	1714.15
854.39	1695.72
854.56	1738.73
854.73	1845.22
854.90	1714.15
855.07	1642.47
855.23	1669.09
855.40	1738.73
855.57	1677.29
855.74	1605.61
855.91	1892.32
856.08	1658.85
856.25	1730.53
856.41	1730.53
856.58	1660.90
856.75	1765.35
856.92	1689.57
857.09	1808.36
857.26	1642.47
857.42	1705.96
857.59	1734.63
857.76	1695.72
857.93	1810.40
858.10	1746.92
858.27	1689.57
858.43	1742.82
858.60	1628.14
858.77	1589.22
858.94	1681.38
859.11	1714.15
859.27	1701.86
859.44	1679.33
859.61	1765.35
859.78	1843.17
859.95	1665.00
860.12	1691.62
860.28	1791.97
860.45	1861.60
860.62	1689.57
860.79	1714.15
860.95	1708.01
861.12	1718.25
861.29	1660.90
861.46	1742.82
861.63	1689.57
861.79	1738.73
861.96	1599.46
862.13	1603.56
862.30	1787.88
862.47	1710.05
862.63	1648.61
862.80	1824.74
862.97	1806.31
863.14	1714.15
863.30	1714.15
863.47	1705.96
863.64	1781.73
863.81	1779.68
863.97	1677.29
864.14	1714.15
864.31	1681.38
864.48	1714.15
864.65	1650.66
864.81	1736.68
864.98	1738.73
865.15	1748.97
865.32	1726.44
865.48	1791.97
865.65	1794.02
865.82	1665.00
865.98	1732.58
866.15	1742.82
866.32	1699.81
866.49	1689.57
866.65	1779.68
866.82	1658.85
866.99	1683.43
867.16	1697.77
867.32	1681.38
867.49	1789.92
867.66	1669.09
867.83	1701.86
867.99	1638.38
868.16	1636.33
868.33	1601.51
868.49	1783.78
868.66	1615.85
868.83	1720.29
868.99	1689.57
869.16	1728.49
869.33	1783.78
869.50	1765.35
869.66	1683.43
869.83	1710.05
870.00	1693.67
870.16	1771.49
870.33	1748.97
870.50	1679.33
870.66	1652.71
870.83	1861.60
871.00	1724.39
871.17	1763.30
871.33	1734.63
871.50	1718.25
871.67	1781.73
871.83	1693.67
872.00	1861.60
872.17	1667.05
872.33	1898.47
872.50	1759.21
872.67	1712.10
872.83	1705.96
873.00	1730.53
873.17	1746.92
873.33	1804.26
873.50	1665.00
873.67	1693.67
873.83	1712.10
874.00	1660.90
874.16	1834.98
874.33	1734.63
874.50	1617.90
874.66	1689.57
874.83	1697.77
875.00	1779.68
875.16	1751.01
875.33	1775.59
875.50	1609.70
875.66	1665.00
875.83	1687.53
875.99	1746.92
876.16	1765.35
876.33	1673.19
876.49	1656.81
876.66	1695.72
876.83	1673.19
876.99	1671.14
877.16	1755.11
877.32	1767.40
877.49	1785.83
877.66	1691.62
877.82	1773.54
877.99	1712.10
878.15	1798.12
878.32	1791.97
878.49	1689.57
878.65	1681.38
878.82	1736.68
878.98	1597.42
879.15	1763.30
879.32	1728.49
879.48	1693.67
879.65	1728.49
879.81	1632.23
879.98	1640.42
880.15	1673.19
880.31	1716.20
880.48	1626.09
880.64	1767.40
880.81	1765.35
880.97	1765.35
881.14	1705.96
881.31	1646.57
881.47	1859.56
881.64	1714.15
881.80	1673.19
881.97	1685.48
882.13	1724.39
882.30	1671.14
882.47	1615.85
882.63	1609.70
882.80	1746.92
882.96	1705.96
883.13	1755.11
883.29	1714.15
883.46	1742.82
883.62	1800.16
883.79	1771.49
883.95	1726.44
884.12	1685.48
884.29	1796.07
884.45	1828.84
884.62	1716.20
884.78	1693.67
884.95	1785.83
885.11	1654.76
885.28	1675.24
885.44	1718.25
885.61	1767.40
885.77	1759.21
885.94	1718.25
886.10	1667.05
886.27	1751.01
886.43	1789.92
886.60	1771.49
886.76	1667.05
886.93	1665.00
887.09	1691.62
887.26	1599.46
887.42	1742.82
887.59	1771.49
887.75	1771.49
887.92	1802.21
888.08	1701.86
888.25	1855.46
888.41	1751.01
888.58	1724.39
888.74	1687.53
888.91	1646.57
>>>>>End Processed Spectral Data<<<<<
