SpectraSuite Data File
++++++++++++++++++++++++++++++++++++
Date: Mon Jun 06 17:12:37 CEST 2016
User: root
Dark Spectrum Present: No
Reference Spectrum Present: No
Number of Sampled Component Spectra: 1
Spectrometers: USB4C02835
Integration Time (usec): 100000 (USB4C02835)
Spectra Averaged: 1 (USB4C02835)
Boxcar Smoothing: 0 (USB4C02835)
Correct for Electrical Dark: No (USB4C02835)
Strobe/Lamp Enabled: No (USB4C02835)
Correct for Detector Non-linearity: No (USB4C02835)
Correct for Stray Light: No (USB4C02835)
Number of Pixels in Processed Spectrum: 3648
>>>>>Begin Processed Spectral Data<<<<<
177.47	1435.63
177.69	1435.63
177.91	1435.63
178.13	1452.01
178.36	1454.06
178.58	1656.81
178.80	1658.85
179.02	1615.85
179.24	1621.99
179.46	1609.70
179.68	1746.92
179.90	1705.96
180.13	1728.49
180.35	1675.24
180.57	1734.63
180.79	1769.44
181.01	1773.54
181.23	1716.20
181.45	1773.54
181.67	1794.02
181.90	1757.16
182.12	1718.25
182.34	1626.09
182.56	1685.48
182.78	1806.31
183.00	1738.73
183.22	1730.53
183.44	1632.23
183.66	1980.39
183.89	1771.49
184.11	1611.75
184.33	1806.31
184.55	1769.44
184.77	1748.97
184.99	1685.48
185.21	1751.01
185.43	1822.69
185.65	1685.48
185.87	1744.87
186.10	1810.40
186.32	1828.84
186.54	1767.40
186.76	1714.15
186.98	1791.97
187.20	1742.82
187.42	1701.86
187.64	1710.05
187.86	1775.59
188.08	1720.29
188.30	1703.91
188.52	1693.67
188.75	1820.64
188.97	1814.50
189.19	1708.01
189.41	1705.96
189.63	1748.97
189.85	1746.92
190.07	1708.01
190.29	1675.24
190.51	1759.21
190.73	1669.09
190.95	1767.40
191.17	1734.63
191.39	1603.56
191.61	1656.81
191.84	1728.49
192.06	1736.68
192.28	1630.18
192.50	1873.89
192.72	1853.41
192.94	1718.25
193.16	1781.73
193.38	1767.40
193.60	1673.19
193.82	1710.05
194.04	1714.15
194.26	1665.00
194.48	1736.68
194.70	1660.90
194.92	1699.81
195.14	1697.77
195.36	1701.86
195.58	1759.21
195.80	1665.00
196.02	1648.61
196.24	1755.11
196.46	1669.09
196.69	1648.61
196.91	1822.69
197.13	1665.00
197.35	1675.24
197.57	1775.59
197.79	1705.96
198.01	1730.53
198.23	1728.49
198.45	1665.00
198.67	1708.01
198.89	1691.62
199.11	1691.62
199.33	1642.47
199.55	1568.74
199.77	1685.48
199.99	1828.84
200.21	1662.95
200.43	1710.05
200.65	1624.04
200.87	1601.51
201.09	1781.73
201.31	1740.77
201.53	1751.01
201.75	1769.44
201.97	1710.05
202.19	1779.68
202.41	1746.92
202.63	1826.79
202.85	1763.30
203.07	1732.58
203.29	1621.99
203.51	1644.52
203.73	1658.85
203.95	1873.89
204.17	1736.68
204.39	1822.69
204.61	1695.72
204.83	1665.00
205.05	1748.97
205.27	1691.62
205.49	1755.11
205.71	1703.91
205.93	1671.14
206.15	1671.14
206.37	1689.57
206.59	1712.10
206.81	1695.72
207.03	1726.44
207.25	1691.62
207.47	1796.07
207.69	1654.76
207.91	1767.40
208.13	1781.73
208.34	1677.29
208.56	1671.14
208.78	1708.01
209.00	1685.48
209.22	1673.19
209.44	1687.53
209.66	1624.04
209.88	1699.81
210.10	1646.57
210.32	1763.30
210.54	1890.28
210.76	1740.77
210.98	1804.26
211.20	1550.31
211.42	1677.29
211.64	1714.15
211.86	1701.86
212.08	1769.44
212.30	1767.40
212.52	1738.73
212.74	1746.92
212.96	1656.81
213.17	1730.53
213.39	1687.53
213.61	1828.84
213.83	1789.92
214.05	1695.72
214.27	1658.85
214.49	1632.23
214.71	1624.04
214.93	1767.40
215.15	1683.43
215.37	1751.01
215.59	1636.33
215.81	1810.40
216.03	1810.40
216.24	1671.14
216.46	1699.81
216.68	1693.67
216.90	1751.01
217.12	1746.92
217.34	1621.99
217.56	1695.72
217.78	1753.06
218.00	1767.40
218.22	1691.62
218.44	1746.92
218.66	1718.25
218.87	1751.01
219.09	1679.33
219.31	1763.30
219.53	1693.67
219.75	1667.05
219.97	1726.44
220.19	1673.19
220.41	1714.15
220.63	1785.83
220.85	1771.49
221.06	1671.14
221.28	1746.92
221.50	1763.30
221.72	1705.96
221.94	1687.53
222.16	1691.62
222.38	1726.44
222.60	1839.08
222.82	1734.63
223.03	1671.14
223.25	1572.84
223.47	1771.49
223.69	1802.21
223.91	1738.73
224.13	1753.06
224.35	1685.48
224.57	1761.25
224.78	1732.58
225.00	1744.87
225.22	1675.24
225.44	1689.57
225.66	1742.82
225.88	1708.01
226.10	1720.29
226.32	1789.92
226.53	1814.50
226.75	1742.82
226.97	1757.16
227.19	1726.44
227.41	1701.86
227.63	1675.24
227.85	1703.91
228.06	1767.40
228.28	1742.82
228.50	1767.40
228.72	1732.58
228.94	1736.68
229.16	1630.18
229.37	1671.14
229.59	1677.29
229.81	1794.02
230.03	1751.01
230.25	1652.71
230.47	1634.28
230.69	1671.14
230.90	1738.73
231.12	1660.90
231.34	1744.87
231.56	1751.01
231.78	1705.96
232.00	1722.34
232.21	1646.57
232.43	1693.67
232.65	1607.66
232.87	1685.48
233.09	1718.25
233.30	1591.27
233.52	1800.16
233.74	1677.29
233.96	1648.61
234.18	1781.73
234.40	1703.91
234.61	1781.73
234.83	1632.23
235.05	1720.29
235.27	1806.31
235.49	1847.27
235.70	1716.20
235.92	1765.35
236.14	1779.68
236.36	1871.84
236.58	1654.76
236.79	1742.82
237.01	1617.90
237.23	1763.30
237.45	1787.88
237.67	1718.25
237.88	1755.11
238.10	1806.31
238.32	1613.80
238.54	1646.57
238.76	1714.15
238.97	1712.10
239.19	1638.38
239.41	1820.64
239.63	1771.49
239.85	1679.33
240.06	1839.08
240.28	1687.53
240.50	1812.45
240.72	1701.86
240.93	1779.68
241.15	1773.54
241.37	1687.53
241.59	1773.54
241.81	1746.92
242.02	1673.19
242.24	1722.34
242.46	1769.44
242.68	1615.85
242.89	1697.77
243.11	1722.34
243.33	1697.77
243.55	1755.11
243.76	1769.44
243.98	1626.09
244.20	1691.62
244.42	1740.77
244.64	1679.33
244.85	1589.22
245.07	1658.85
245.29	1783.78
245.51	1722.34
245.72	1759.21
245.94	1757.16
246.16	1738.73
246.38	1724.39
246.59	1685.48
246.81	1691.62
247.03	1587.18
247.24	1611.75
247.46	1751.01
247.68	1722.34
247.90	1681.38
248.11	1753.06
248.33	1765.35
248.55	1787.88
248.77	1740.77
248.98	1714.15
249.20	1708.01
249.42	1757.16
249.64	1773.54
249.85	1695.72
250.07	1607.66
250.29	1824.74
250.50	1718.25
250.72	1665.00
250.94	1679.33
251.16	1794.02
251.37	1724.39
251.59	1830.88
251.81	1746.92
252.02	1826.79
252.24	1650.66
252.46	1781.73
252.68	1603.56
252.89	1683.43
253.11	1626.09
253.33	1800.16
253.54	1785.83
253.76	1652.71
253.98	1685.48
254.20	1701.86
254.41	1644.52
254.63	1685.48
254.85	1603.56
255.06	1705.96
255.28	1681.38
255.50	1738.73
255.71	1689.57
255.93	1591.27
256.15	1677.29
256.36	1810.40
256.58	1646.57
256.80	1812.45
257.02	1759.21
257.23	1714.15
257.45	1656.81
257.67	1742.82
257.88	1656.81
258.10	1757.16
258.32	1748.97
258.53	1705.96
258.75	1849.32
258.97	1730.53
259.18	1646.57
259.40	1646.57
259.62	1755.11
259.83	1777.64
260.05	1751.01
260.27	1959.91
260.48	1826.79
260.70	1636.33
260.92	1683.43
261.13	1679.33
261.35	1724.39
261.57	1675.24
261.78	1615.85
262.00	1626.09
262.22	1781.73
262.43	1742.82
262.65	1677.29
262.86	1697.77
263.08	1826.79
263.30	1738.73
263.51	1691.62
263.73	1691.62
263.95	1857.51
264.16	1611.75
264.38	1691.62
264.60	1658.85
264.81	1683.43
265.03	1789.92
265.25	1705.96
265.46	1761.25
265.68	1789.92
265.89	1699.81
266.11	1636.33
266.33	1806.31
266.54	1757.16
266.76	1806.31
266.98	1732.58
267.19	1755.11
267.41	1785.83
267.62	1763.30
267.84	1613.80
268.06	1769.44
268.27	1751.01
268.49	1779.68
268.70	1787.88
268.92	1716.20
269.14	1716.20
269.35	1660.90
269.57	1632.23
269.79	1730.53
270.00	1685.48
270.22	1771.49
270.43	1667.05
270.65	1613.80
270.87	1791.97
271.08	1787.88
271.30	1742.82
271.51	1693.67
271.73	1779.68
271.95	1740.77
272.16	1675.24
272.38	1742.82
272.59	1732.58
272.81	1677.29
273.02	1730.53
273.24	1705.96
273.46	1759.21
273.67	1632.23
273.89	1628.14
274.10	1685.48
274.32	1761.25
274.54	1691.62
274.75	1710.05
274.97	1685.48
275.18	1775.59
275.40	1681.38
275.61	1710.05
275.83	1757.16
276.05	1658.85
276.26	1710.05
276.48	1726.44
276.69	1738.73
276.91	1730.53
277.12	1892.32
277.34	1767.40
277.55	1730.53
277.77	1697.77
277.99	1683.43
278.20	1607.66
278.42	1671.14
278.63	1650.66
278.85	1665.00
279.06	1656.81
279.28	1722.34
279.49	1701.86
279.71	1820.64
279.93	1722.34
280.14	1699.81
280.36	1708.01
280.57	1753.06
280.79	1740.77
281.00	1658.85
281.22	1681.38
281.43	1742.82
281.65	1605.61
281.86	1656.81
282.08	1660.90
282.29	1812.45
282.51	1677.29
282.73	1646.57
282.94	1570.79
283.16	1746.92
283.37	1771.49
283.59	1730.53
283.80	1767.40
284.02	1693.67
284.23	1767.40
284.45	1665.00
284.66	1697.77
284.88	1654.76
285.09	1697.77
285.31	1718.25
285.52	1767.40
285.74	1615.85
285.95	1781.73
286.17	1777.64
286.38	1724.39
286.60	1693.67
286.81	1724.39
287.03	1671.14
287.24	1646.57
287.46	1765.35
287.67	1746.92
287.89	1785.83
288.10	1744.87
288.32	1642.47
288.53	1730.53
288.75	1703.91
288.96	1695.72
289.18	1697.77
289.39	1701.86
289.61	1806.31
289.82	1857.51
290.04	1869.80
290.25	1714.15
290.47	1759.21
290.68	1732.58
290.90	1777.64
291.11	1648.61
291.33	1732.58
291.54	1654.76
291.76	1695.72
291.97	1746.92
292.18	1783.78
292.40	1751.01
292.61	1708.01
292.83	1908.71
293.04	1718.25
293.26	1810.40
293.47	1687.53
293.69	1630.18
293.90	1701.86
294.12	1720.29
294.33	1806.31
294.55	1714.15
294.76	1755.11
294.97	1810.40
295.19	1867.75
295.40	1736.68
295.62	1689.57
295.83	1738.73
296.05	1648.61
296.26	1748.97
296.48	1650.66
296.69	1724.39
296.90	1734.63
297.12	1732.58
297.33	1757.16
297.55	1759.21
297.76	1757.16
297.98	1710.05
298.19	1787.88
298.41	1646.57
298.62	1714.15
298.83	1759.21
299.05	1679.33
299.26	1687.53
299.48	1681.38
299.69	1767.40
299.90	1718.25
300.12	1693.67
300.33	1767.40
300.55	1714.15
300.76	1742.82
300.98	1726.44
301.19	1720.29
301.40	1665.00
301.62	1710.05
301.83	1705.96
302.05	1804.26
302.26	1765.35
302.47	1726.44
302.69	1636.33
302.90	1703.91
303.12	1581.03
303.33	1787.88
303.54	1775.59
303.76	1648.61
303.97	1779.68
304.19	1755.11
304.40	1601.51
304.61	1738.73
304.83	1832.93
305.04	1808.36
305.26	1781.73
305.47	1632.23
305.68	1751.01
305.90	1652.71
306.11	1740.77
306.33	1714.15
306.54	1742.82
306.75	1730.53
306.97	1603.56
307.18	1660.90
307.39	1636.33
307.61	1746.92
307.82	1746.92
308.04	1794.02
308.25	1640.42
308.46	1775.59
308.68	1665.00
308.89	1679.33
309.10	1761.25
309.32	1730.53
309.53	1673.19
309.74	1705.96
309.96	1628.14
310.17	1746.92
310.39	1617.90
310.60	1732.58
310.81	1740.77
311.03	1587.18
311.24	1787.88
311.45	1730.53
311.67	1734.63
311.88	1722.34
312.09	1656.81
312.31	1626.09
312.52	1746.92
312.73	1775.59
312.95	1662.95
313.16	1658.85
313.37	1804.26
313.59	1675.24
313.80	1697.77
314.01	1880.04
314.23	1669.09
314.44	1705.96
314.65	1591.27
314.87	1722.34
315.08	1708.01
315.29	1671.14
315.51	1689.57
315.72	1734.63
315.93	1918.95
316.15	1806.31
316.36	1648.61
316.57	1837.03
316.79	1710.05
317.00	1681.38
317.21	1748.97
317.43	1734.63
317.64	1673.19
317.85	1660.90
318.07	1669.09
318.28	1732.58
318.49	1794.02
318.70	1935.33
318.92	1748.97
319.13	1830.88
319.34	1853.41
319.56	1877.99
319.77	1791.97
319.98	1781.73
320.20	1785.83
320.41	1830.88
320.62	1679.33
320.83	1595.37
321.05	1873.89
321.26	1761.25
321.47	1742.82
321.69	1769.44
321.90	1660.90
322.11	1652.71
322.32	1591.27
322.54	1734.63
322.75	1654.76
322.96	1837.03
323.18	1609.70
323.39	1587.18
323.60	1708.01
323.81	1712.10
324.03	1753.06
324.24	1685.48
324.45	1732.58
324.66	1671.14
324.88	1820.64
325.09	1804.26
325.30	1662.95
325.52	1708.01
325.73	1751.01
325.94	1660.90
326.15	1636.33
326.37	1675.24
326.58	1804.26
326.79	1738.73
327.00	1732.58
327.22	1640.42
327.43	1669.09
327.64	1693.67
327.85	1703.91
328.07	1697.77
328.28	1794.02
328.49	1705.96
328.70	1654.76
328.92	1746.92
329.13	1703.91
329.34	1773.54
329.55	1806.31
329.76	1820.64
329.98	1738.73
330.19	1673.19
330.40	1724.39
330.61	1697.77
330.83	1759.21
331.04	1634.28
331.25	1708.01
331.46	1662.95
331.68	1611.75
331.89	1857.51
332.10	1748.97
332.31	1660.90
332.52	1658.85
332.74	1761.25
332.95	1693.67
333.16	1736.68
333.37	1722.34
333.58	1681.38
333.80	1697.77
334.01	1601.51
334.22	1794.02
334.43	1699.81
334.64	1710.05
334.86	1673.19
335.07	1667.05
335.28	1834.98
335.49	1699.81
335.70	1708.01
335.92	1853.41
336.13	1781.73
336.34	1832.93
336.55	1705.96
336.76	1742.82
336.98	1587.18
337.19	1695.72
337.40	1748.97
337.61	1873.89
337.82	1722.34
338.04	1744.87
338.25	1632.23
338.46	1730.53
338.67	1708.01
338.88	1652.71
339.09	1708.01
339.31	1652.71
339.52	1587.18
339.73	1642.47
339.94	1658.85
340.15	1783.78
340.36	1640.42
340.58	1730.53
340.79	1634.28
341.00	1746.92
341.21	1621.99
341.42	1849.32
341.63	1714.15
341.85	1806.31
342.06	1726.44
342.27	1617.90
342.48	1761.25
342.69	1693.67
342.90	1763.30
343.12	1755.11
343.33	1742.82
343.54	1757.16
343.75	1755.11
343.96	1738.73
344.17	1638.38
344.38	1720.29
344.60	1679.33
344.81	1679.33
345.02	1755.11
345.23	1771.49
345.44	1783.78
345.65	1718.25
345.86	1671.14
346.07	1638.38
346.29	1644.52
346.50	1732.58
346.71	1761.25
346.92	1841.12
347.13	1808.36
347.34	1654.76
347.55	1730.53
347.76	1656.81
347.98	1718.25
348.19	1732.58
348.40	1726.44
348.61	1742.82
348.82	1773.54
349.03	1783.78
349.24	1677.29
349.45	1785.83
349.66	1593.32
349.88	1734.63
350.09	1677.29
350.30	1806.31
350.51	1697.77
350.72	1693.67
350.93	1777.64
351.14	1662.95
351.35	1718.25
351.56	1697.77
351.77	1685.48
351.99	1730.53
352.20	1781.73
352.41	1781.73
352.62	1658.85
352.83	1775.59
353.04	1732.58
353.25	1697.77
353.46	1748.97
353.67	1830.88
353.88	1632.23
354.09	1736.68
354.30	1697.77
354.52	1726.44
354.73	1736.68
354.94	1669.09
355.15	1757.16
355.36	1830.88
355.57	1650.66
355.78	1710.05
355.99	1619.94
356.20	1615.85
356.41	1787.88
356.62	1740.77
356.83	1730.53
357.04	1853.41
357.25	1607.66
357.46	1697.77
357.68	1619.94
357.89	1724.39
358.10	1771.49
358.31	1654.76
358.52	1740.77
358.73	1701.86
358.94	1660.90
359.15	1607.66
359.36	1734.63
359.57	1677.29
359.78	1687.53
359.99	1832.93
360.20	1685.48
360.41	1718.25
360.62	1761.25
360.83	1804.26
361.04	1748.97
361.25	1716.20
361.46	1789.92
361.67	1746.92
361.88	1722.34
362.09	1722.34
362.30	1753.06
362.51	1687.53
362.72	1679.33
362.93	1787.88
363.14	1798.12
363.35	1705.96
363.56	1615.85
363.78	1802.21
363.99	1722.34
364.20	1681.38
364.41	1705.96
364.62	1826.79
364.83	1771.49
365.04	1718.25
365.25	1726.44
365.46	1779.68
365.67	1689.57
365.88	1624.04
366.09	1732.58
366.30	1642.47
366.51	1726.44
366.72	1705.96
366.93	1804.26
367.14	1679.33
367.35	1740.77
367.56	1765.35
367.77	1783.78
367.98	1710.05
368.18	1738.73
368.39	1703.91
368.60	1703.91
368.81	1734.63
369.02	1701.86
369.23	1726.44
369.44	1708.01
369.65	1660.90
369.86	1828.84
370.07	1716.20
370.28	1679.33
370.49	1679.33
370.70	1755.11
370.91	1636.33
371.12	1603.56
371.33	1781.73
371.54	1746.92
371.75	1789.92
371.96	1544.17
372.17	1703.91
372.38	1673.19
372.59	1724.39
372.80	1724.39
373.01	1726.44
373.22	1689.57
373.43	1726.44
373.64	1683.43
373.85	1720.29
374.06	1814.50
374.26	1787.88
374.47	1740.77
374.68	1765.35
374.89	1755.11
375.10	1705.96
375.31	1785.83
375.52	1742.82
375.73	1738.73
375.94	1603.56
376.15	1886.18
376.36	1720.29
376.57	1578.98
376.78	1691.62
376.99	1767.40
377.20	1767.40
377.40	1714.15
377.61	1742.82
377.82	1636.33
378.03	1779.68
378.24	1806.31
378.45	1722.34
378.66	1802.21
378.87	1630.18
379.08	1613.80
379.29	1755.11
379.50	1773.54
379.71	1591.27
379.91	1667.05
380.12	1800.16
380.33	1720.29
380.54	1652.71
380.75	1708.01
380.96	1681.38
381.17	1767.40
381.38	1718.25
381.59	1757.16
381.80	1712.10
382.00	1851.36
382.21	1759.21
382.42	1857.51
382.63	1884.13
382.84	1767.40
383.05	1695.72
383.26	1804.26
383.47	1777.64
383.68	1691.62
383.88	1814.50
384.09	1789.92
384.30	1800.16
384.51	1775.59
384.72	1677.29
384.93	1683.43
385.14	1753.06
385.35	1746.92
385.55	1589.22
385.76	1757.16
385.97	1693.67
386.18	1648.61
386.39	1730.53
386.60	1716.20
386.81	1673.19
387.02	1697.77
387.22	1636.33
387.43	1787.88
387.64	1875.94
387.85	1849.32
388.06	2187.23
388.27	4239.30
388.48	6784.92
388.68	8011.65
388.89	9500.53
389.10	9723.76
389.31	8583.04
389.52	7550.86
389.73	6764.44
389.93	6131.62
390.14	5963.68
390.35	5083.06
390.56	4677.56
390.77	3887.04
390.98	3155.92
391.18	2516.95
391.39	2113.50
391.60	1877.99
391.81	1949.67
392.02	1722.34
392.23	1820.64
392.43	1724.39
392.64	1853.41
392.85	1703.91
393.06	1810.40
393.27	1718.25
393.47	1652.71
393.68	1767.40
393.89	1738.73
394.10	1746.92
394.31	1665.00
394.52	1685.48
394.72	1597.42
394.93	1757.16
395.14	1615.85
395.35	1757.16
395.56	1609.70
395.76	1726.44
395.97	1800.16
396.18	1755.11
396.39	1787.88
396.60	2035.68
396.80	1855.46
397.01	1804.26
397.22	1859.56
397.43	1851.36
397.64	1720.29
397.84	1755.11
398.05	1861.60
398.26	1806.31
398.47	1804.26
398.67	1751.01
398.88	1781.73
399.09	1720.29
399.30	1656.81
399.51	1697.77
399.71	1646.57
399.92	1703.91
400.13	1771.49
400.34	1718.25
400.54	1708.01
400.75	1763.30
400.96	1751.01
401.17	1834.98
401.37	1785.83
401.58	1718.25
401.79	1820.64
402.00	1875.94
402.21	2047.97
402.41	1931.23
402.62	1996.77
402.83	2029.54
403.04	2019.30
403.24	2068.45
403.45	1826.79
403.66	1886.18
403.87	1906.66
404.07	1853.41
404.28	1867.75
404.49	1832.93
404.70	1839.08
404.90	1808.36
405.11	1718.25
405.32	1810.40
405.52	1701.86
405.73	1759.21
405.94	1673.19
406.15	1673.19
406.35	1779.68
406.56	1812.45
406.77	1697.77
406.98	1726.44
407.18	1716.20
407.39	1800.16
407.60	1689.57
407.80	1751.01
408.01	1708.01
408.22	1771.49
408.43	1685.48
408.63	1783.78
408.84	1744.87
409.05	1720.29
409.25	1581.03
409.46	1665.00
409.67	1669.09
409.88	1609.70
410.08	1642.47
410.29	1708.01
410.50	1708.01
410.70	1712.10
410.91	1693.67
411.12	1746.92
411.32	1697.77
411.53	1660.90
411.74	1824.74
411.95	1751.01
412.15	1755.11
412.36	1783.78
412.57	1714.15
412.77	1906.66
412.98	1685.48
413.19	1724.39
413.39	1669.09
413.60	1677.29
413.81	1843.17
414.01	1669.09
414.22	1695.72
414.43	1703.91
414.63	1642.47
414.84	1779.68
415.05	1679.33
415.25	1660.90
415.46	1685.48
415.67	1728.49
415.87	1662.95
416.08	1669.09
416.29	1667.05
416.49	1757.16
416.70	1671.14
416.91	1675.24
417.11	1718.25
417.32	1738.73
417.53	1791.97
417.73	1775.59
417.94	1689.57
418.15	1748.97
418.35	1785.83
418.56	1710.05
418.77	1824.74
418.97	1685.48
419.18	1724.39
419.38	1621.99
419.59	1679.33
419.80	1759.21
420.00	1675.24
420.21	1726.44
420.42	1812.45
420.62	1763.30
420.83	1665.00
421.04	1718.25
421.24	1710.05
421.45	1736.68
421.65	1757.16
421.86	1699.81
422.07	1675.24
422.27	1740.77
422.48	1658.85
422.69	1710.05
422.89	1683.43
423.10	1728.49
423.30	1632.23
423.51	1701.86
423.72	1716.20
423.92	1714.15
424.13	1671.14
424.33	1748.97
424.54	1708.01
424.75	1734.63
424.95	1882.08
425.16	1800.16
425.36	1748.97
425.57	1757.16
425.78	1722.34
425.98	1755.11
426.19	1755.11
426.39	1679.33
426.60	1740.77
426.81	1773.54
427.01	1712.10
427.22	1710.05
427.42	1677.29
427.63	1658.85
427.83	1794.02
428.04	1796.07
428.25	1804.26
428.45	1794.02
428.66	1730.53
428.86	1740.77
429.07	1697.77
429.28	1683.43
429.48	1646.57
429.69	1714.15
429.89	1732.58
430.10	1685.48
430.30	1839.08
430.51	1761.25
430.71	1679.33
430.92	1763.30
431.13	1642.47
431.33	1810.40
431.54	1716.20
431.74	1828.84
431.95	1794.02
432.15	1638.38
432.36	1738.73
432.56	1767.40
432.77	1804.26
432.98	1937.38
433.18	1726.44
433.39	1656.81
433.59	1634.28
433.80	1753.06
434.00	1841.12
434.21	1660.90
434.41	1673.19
434.62	1914.85
434.82	1656.81
435.03	1628.14
435.23	1675.24
435.44	1570.79
435.64	1773.54
435.85	1732.58
436.06	1794.02
436.26	1732.58
436.47	1736.68
436.67	1669.09
436.88	1730.53
437.08	1824.74
437.29	1791.97
437.49	1738.73
437.70	1726.44
437.90	1701.86
438.11	1806.31
438.31	1828.84
438.52	1918.95
438.72	1837.03
438.93	1925.09
439.13	1798.12
439.34	1888.23
439.54	1732.58
439.75	1757.16
439.95	1820.64
440.16	1671.14
440.36	1767.40
440.57	1822.69
440.77	1777.64
440.98	1761.25
441.18	1785.83
441.39	1746.92
441.59	1726.44
441.80	1886.18
442.00	1714.15
442.21	1865.70
442.41	1703.91
442.62	1716.20
442.82	1732.58
443.02	1726.44
443.23	1675.24
443.43	1744.87
443.64	1791.97
443.84	1716.20
444.05	1820.64
444.25	1769.44
444.46	1697.77
444.66	1705.96
444.87	1767.40
445.07	1621.99
445.28	1697.77
445.48	1769.44
445.69	1746.92
445.89	1873.89
446.09	1722.34
446.30	2070.50
446.50	2650.07
446.71	3803.08
446.91	4392.89
447.12	4841.40
447.32	4865.97
447.53	4341.69
447.73	3862.47
447.93	3538.89
448.14	3203.02
448.34	3178.45
448.55	2975.70
448.75	2836.44
448.96	2668.50
449.16	2426.84
449.36	2289.63
449.57	2050.02
449.77	1976.29
449.98	1789.92
450.18	1783.78
450.39	1830.88
450.59	1757.16
450.79	1734.63
451.00	1828.84
451.20	1785.83
451.41	1759.21
451.61	1822.69
451.81	1767.40
452.02	1744.87
452.22	1673.19
452.43	1712.10
452.63	1703.91
452.84	1767.40
453.04	1804.26
453.24	1689.57
453.45	1720.29
453.65	1798.12
453.86	1744.87
454.06	1748.97
454.26	1726.44
454.47	1718.25
454.67	1863.65
454.87	1740.77
455.08	1701.86
455.28	1765.35
455.49	1765.35
455.69	1724.39
455.89	1894.37
456.10	1771.49
456.30	1755.11
456.51	1742.82
456.71	1804.26
456.91	1779.68
457.12	1736.68
457.32	1771.49
457.52	1632.23
457.73	1808.36
457.93	1789.92
458.14	1705.96
458.34	1667.05
458.54	1734.63
458.75	1712.10
458.95	1791.97
459.15	1724.39
459.36	1695.72
459.56	1791.97
459.76	1867.75
459.97	1791.97
460.17	1757.16
460.37	1742.82
460.58	1718.25
460.78	1843.17
460.99	1683.43
461.19	1814.50
461.39	1746.92
461.60	1808.36
461.80	1740.77
462.00	1724.39
462.21	1746.92
462.41	1658.85
462.61	1671.14
462.82	1697.77
463.02	1710.05
463.22	1730.53
463.43	1777.64
463.63	1773.54
463.83	1851.36
464.04	1845.22
464.24	1810.40
464.44	1710.05
464.64	1775.59
464.85	1755.11
465.05	1701.86
465.25	1708.01
465.46	1673.19
465.66	1716.20
465.86	1787.88
466.07	1714.15
466.27	1746.92
466.47	1697.77
466.68	1665.00
466.88	1869.80
467.08	1728.49
467.29	1779.68
467.49	1708.01
467.69	1681.38
467.89	1712.10
468.10	1705.96
468.30	1787.88
468.50	1748.97
468.71	1787.88
468.91	1617.90
469.11	1871.84
469.31	1773.54
469.52	1671.14
469.72	1828.84
469.92	1810.40
470.13	1730.53
470.33	1710.05
470.53	1800.16
470.73	2066.40
470.94	2336.73
471.14	2346.97
471.34	2510.81
471.54	2373.60
471.75	2211.81
471.95	2162.66
472.15	2127.84
472.36	2045.92
472.56	2060.26
472.76	2033.63
472.96	2004.96
473.17	1974.24
473.37	1892.32
473.57	1855.46
473.77	1814.50
473.98	1755.11
474.18	1773.54
474.38	1896.42
474.58	1716.20
474.79	1665.00
474.99	1703.91
475.19	1755.11
475.39	1671.14
475.60	1742.82
475.80	1802.21
476.00	1746.92
476.20	1738.73
476.41	1773.54
476.61	1863.65
476.81	1787.88
477.01	1701.86
477.21	1837.03
477.42	1884.13
477.62	1695.72
477.82	1759.21
478.02	1736.68
478.23	1759.21
478.43	1632.23
478.63	1679.33
478.83	1695.72
479.03	1685.48
479.24	1814.50
479.44	1828.84
479.64	1761.25
479.84	1632.23
480.04	1687.53
480.25	1834.98
480.45	1677.29
480.65	1734.63
480.85	1832.93
481.06	1673.19
481.26	1689.57
481.46	1746.92
481.66	1769.44
481.86	1738.73
482.06	1744.87
482.27	1644.52
482.47	1738.73
482.67	1757.16
482.87	1810.40
483.07	1746.92
483.28	1693.67
483.48	1693.67
483.68	1732.58
483.88	1648.61
484.08	1595.37
484.29	1654.76
484.49	1640.42
484.69	1679.33
484.89	1857.51
485.09	1810.40
485.29	1822.69
485.50	1767.40
485.70	1685.48
485.90	1818.60
486.10	1808.36
486.30	1765.35
486.50	1746.92
486.71	1746.92
486.91	1804.26
487.11	1773.54
487.31	1703.91
487.51	1665.00
487.71	1656.81
487.91	1677.29
488.12	1710.05
488.32	1603.56
488.52	1681.38
488.72	1599.46
488.92	1730.53
489.12	1828.84
489.32	1740.77
489.53	1746.92
489.73	1683.43
489.93	1837.03
490.13	1753.06
490.33	1640.42
490.53	1693.67
490.73	1785.83
490.94	1546.22
491.14	1789.92
491.34	1779.68
491.54	2062.30
491.74	2574.30
491.94	2953.17
492.14	3002.32
492.34	3000.27
492.54	2750.42
492.75	2488.28
492.95	2463.71
493.15	2353.12
493.35	2246.62
493.55	2220.00
493.75	2052.06
493.95	2166.75
494.15	2002.91
494.35	1869.80
494.56	1837.03
494.76	1804.26
494.96	1843.17
495.16	1800.16
495.36	1736.68
495.56	1746.92
495.76	1740.77
495.96	1634.28
496.16	1695.72
496.36	1822.69
496.56	1746.92
496.77	1761.25
496.97	1728.49
497.17	1746.92
497.37	1673.19
497.57	1783.78
497.77	1726.44
497.97	1730.53
498.17	1773.54
498.37	1685.48
498.57	1791.97
498.77	1716.20
498.97	1757.16
499.17	1800.16
499.38	1714.15
499.58	1699.81
499.78	1888.23
499.98	1724.39
500.18	1777.64
500.38	1697.77
500.58	1910.75
500.78	2514.91
500.98	4609.98
501.18	5816.23
501.38	6672.28
501.58	7034.77
501.78	6764.44
501.98	5703.59
502.18	5056.43
502.38	4419.52
502.58	4106.18
502.78	3835.85
502.98	3698.63
503.18	3463.12
503.38	3125.20
503.59	2844.63
503.79	2717.65
503.99	2465.75
504.19	2371.55
504.39	2189.28
504.59	2176.99
504.79	2105.31
504.99	2097.12
505.19	1939.43
505.39	1927.14
505.59	2047.97
505.79	1898.47
505.99	1837.03
506.19	1783.78
506.39	1818.60
506.59	1689.57
506.79	1740.77
506.99	1834.98
507.19	1828.84
507.39	1785.83
507.59	1687.53
507.79	1638.38
507.99	1687.53
508.19	1773.54
508.39	1636.33
508.59	1777.64
508.79	1920.99
508.99	1890.28
509.19	1683.43
509.39	1808.36
509.59	1730.53
509.79	1757.16
509.99	1746.92
510.19	1808.36
510.39	1802.21
510.59	1726.44
510.79	1691.62
510.99	1660.90
511.19	1746.92
511.39	1853.41
511.59	1822.69
511.79	1824.74
511.99	1771.49
512.19	1882.08
512.38	1691.62
512.58	1681.38
512.78	1759.21
512.98	1804.26
513.18	1773.54
513.38	1675.24
513.58	1808.36
513.78	1708.01
513.98	1710.05
514.18	1726.44
514.38	1695.72
514.58	1759.21
514.78	1675.24
514.98	1673.19
515.18	1685.48
515.38	1675.24
515.58	1822.69
515.78	1646.57
515.98	1753.06
516.18	1769.44
516.38	1728.49
516.57	1703.91
516.77	1714.15
516.97	1746.92
517.17	1695.72
517.37	1619.94
517.57	1841.12
517.77	1746.92
517.97	1665.00
518.17	1712.10
518.37	1656.81
518.57	1714.15
518.77	1730.53
518.97	1757.16
519.16	1751.01
519.36	1718.25
519.56	1677.29
519.76	1763.30
519.96	1644.52
520.16	1761.25
520.36	1759.21
520.56	1798.12
520.76	1650.66
520.96	1632.23
521.16	1837.03
521.35	1814.50
521.55	1806.31
521.75	1755.11
521.95	1699.81
522.15	1595.37
522.35	1685.48
522.55	1738.73
522.75	1802.21
522.95	1748.97
523.14	1714.15
523.34	1761.25
523.54	1628.14
523.74	1818.60
523.94	1734.63
524.14	1705.96
524.34	1748.97
524.54	1796.07
524.73	1673.19
524.93	1748.97
525.13	1687.53
525.33	1681.38
525.53	1884.13
525.73	1759.21
525.93	1673.19
526.13	1691.62
526.32	1710.05
526.52	1806.31
526.72	1794.02
526.92	1728.49
527.12	1714.15
527.32	1609.70
527.52	1740.77
527.71	1785.83
527.91	1802.21
528.11	1808.36
528.31	1759.21
528.51	1687.53
528.71	1689.57
528.90	1771.49
529.10	1890.28
529.30	1771.49
529.50	1646.57
529.70	1810.40
529.90	1746.92
530.09	1720.29
530.29	1634.28
530.49	1726.44
530.69	1920.99
530.89	1748.97
531.09	1732.58
531.28	1701.86
531.48	1798.12
531.68	1708.01
531.88	1783.78
532.08	1791.97
532.28	1724.39
532.47	1746.92
532.67	1806.31
532.87	1728.49
533.07	1609.70
533.27	1794.02
533.46	1779.68
533.66	1796.07
533.86	1718.25
534.06	1720.29
534.26	1701.86
534.45	1660.90
534.65	1703.91
534.85	1794.02
535.05	1658.85
535.25	1714.15
535.44	1718.25
535.64	1744.87
535.84	1644.52
536.04	1708.01
536.24	1720.29
536.43	1726.44
536.63	1789.92
536.83	1689.57
537.03	1728.49
537.22	1722.34
537.42	1636.33
537.62	1656.81
537.82	1769.44
538.02	1789.92
538.21	1882.08
538.41	1847.27
538.61	1759.21
538.81	1751.01
539.00	1767.40
539.20	1613.80
539.40	1744.87
539.60	1824.74
539.79	1859.56
539.99	1708.01
540.19	1763.30
540.39	1689.57
540.58	1806.31
540.78	1712.10
540.98	1871.84
541.18	1787.88
541.37	1744.87
541.57	1728.49
541.77	1728.49
541.97	1716.20
542.16	1736.68
542.36	1734.63
542.56	1861.60
542.76	1814.50
542.95	1830.88
543.15	1753.06
543.35	1738.73
543.54	1714.15
543.74	1769.44
543.94	1808.36
544.14	1787.88
544.33	1789.92
544.53	1757.16
544.73	1718.25
544.93	1679.33
545.12	1708.01
545.32	1695.72
545.52	1701.86
545.71	1624.04
545.91	1744.87
546.11	1691.62
546.30	1705.96
546.50	1740.77
546.70	1783.78
546.90	1839.08
547.09	1621.99
547.29	1783.78
547.49	1787.88
547.68	1734.63
547.88	1718.25
548.08	1861.60
548.27	2156.51
548.47	1716.20
548.67	1783.78
548.87	1751.01
549.06	1687.53
549.26	1730.53
549.46	1738.73
549.65	1744.87
549.85	1742.82
550.05	1759.21
550.24	1783.78
550.44	1732.58
550.64	1742.82
550.83	1710.05
551.03	1849.32
551.23	1744.87
551.42	1853.41
551.62	1728.49
551.82	1689.57
552.01	1773.54
552.21	1765.35
552.41	1814.50
552.60	1841.12
552.80	1734.63
553.00	1679.33
553.19	1787.88
553.39	1845.22
553.59	1673.19
553.78	1810.40
553.98	1734.63
554.17	1699.81
554.37	1755.11
554.57	1863.65
554.76	1685.48
554.96	1722.34
555.16	1751.01
555.35	1748.97
555.55	1763.30
555.75	1800.16
555.94	1849.32
556.14	1611.75
556.33	1730.53
556.53	1726.44
556.73	1724.39
556.92	1705.96
557.12	1814.50
557.32	1841.12
557.51	1771.49
557.71	1751.01
557.90	1863.65
558.10	1791.97
558.30	1697.77
558.49	1652.71
558.69	1771.49
558.88	1837.03
559.08	1779.68
559.28	1724.39
559.47	1789.92
559.67	1757.16
559.86	1855.46
560.06	1742.82
560.26	1673.19
560.45	1765.35
560.65	1761.25
560.84	1783.78
561.04	1765.35
561.24	1730.53
561.43	1716.20
561.63	1816.55
561.82	1767.40
562.02	1755.11
562.22	1732.58
562.41	1658.85
562.61	1765.35
562.80	1679.33
563.00	1892.32
563.19	1705.96
563.39	1751.01
563.59	1734.63
563.78	1597.42
563.98	1642.47
564.17	1751.01
564.37	1607.66
564.56	1732.58
564.76	1712.10
564.96	1796.07
565.15	1820.64
565.35	1888.23
565.54	1748.97
565.74	1779.68
565.93	1734.63
566.13	1740.77
566.32	1773.54
566.52	1751.01
566.71	1763.30
566.91	1734.63
567.11	1751.01
567.30	1705.96
567.50	1685.48
567.69	1796.07
567.89	1738.73
568.08	1669.09
568.28	1730.53
568.47	1714.15
568.67	1763.30
568.86	1714.15
569.06	1853.41
569.25	1740.77
569.45	1673.19
569.64	1683.43
569.84	1714.15
570.04	1738.73
570.23	1656.81
570.43	1712.10
570.62	1861.60
570.82	1798.12
571.01	1697.77
571.21	1738.73
571.40	1710.05
571.60	1767.40
571.79	1763.30
571.99	1742.82
572.18	1740.77
572.38	1787.88
572.57	1681.38
572.77	1753.06
572.96	1832.93
573.16	1748.97
573.35	1705.96
573.55	1818.60
573.74	1812.45
573.94	1740.77
574.13	1808.36
574.33	1753.06
574.52	1783.78
574.71	1691.62
574.91	1806.31
575.10	1677.29
575.30	1726.44
575.49	1724.39
575.69	1785.83
575.88	1753.06
576.08	1775.59
576.27	1900.52
576.47	1771.49
576.66	1853.41
576.86	1779.68
577.05	1816.55
577.25	1863.65
577.44	1822.69
577.64	1701.86
577.83	1794.02
578.02	1699.81
578.22	1853.41
578.41	1820.64
578.61	1744.87
578.80	1689.57
579.00	1740.77
579.19	1718.25
579.39	1820.64
579.58	1802.21
579.77	1726.44
579.97	1851.36
580.16	1863.65
580.36	1832.93
580.55	1767.40
580.75	1865.70
580.94	1769.44
581.13	1828.84
581.33	1791.97
581.52	1773.54
581.72	1920.99
581.91	1869.80
582.11	1742.82
582.30	1769.44
582.49	1806.31
582.69	1853.41
582.88	1724.39
583.08	1734.63
583.27	1828.84
583.47	1771.49
583.66	1816.55
583.85	1677.29
584.05	1744.87
584.24	1828.84
584.44	1804.26
584.63	1839.08
584.82	1812.45
585.02	1814.50
585.21	1845.22
585.41	1824.74
585.60	1822.69
585.79	1855.46
585.99	1894.37
586.18	1865.70
586.37	2176.99
586.57	3389.39
586.76	9676.65
586.96	24184.46
587.15	34041.34
587.34	40256.92
587.54	41850.24
587.73	36675.02
587.93	25945.72
588.12	21395.13
588.31	18405.10
588.51	16297.74
588.70	15042.33
588.89	13887.28
589.09	12576.58
589.28	11042.65
589.47	9500.53
589.67	7870.34
589.86	6371.23
590.06	4902.84
590.25	3977.16
590.44	3141.58
590.64	2607.06
590.83	2275.29
591.02	2037.73
591.22	1927.14
591.41	1859.56
591.60	1863.65
591.80	1925.09
591.99	1697.77
592.18	1791.97
592.38	1800.16
592.57	1755.11
592.76	1742.82
592.96	1839.08
593.15	1681.38
593.34	1820.64
593.54	1783.78
593.73	1787.88
593.92	1759.21
594.12	1849.32
594.31	1751.01
594.50	1843.17
594.70	1740.77
594.89	1877.99
595.08	1720.29
595.28	1705.96
595.47	1916.90
595.66	1796.07
595.86	1658.85
596.05	1791.97
596.24	1658.85
596.43	1859.56
596.63	1863.65
596.82	1810.40
597.01	1773.54
597.21	1857.51
597.40	1736.68
597.59	1773.54
597.79	1789.92
597.98	1695.72
598.17	1728.49
598.36	1753.06
598.56	1814.50
598.75	1679.33
598.94	1777.64
599.14	1767.40
599.33	1722.34
599.52	1742.82
599.71	1718.25
599.91	1804.26
600.10	1806.31
600.29	1771.49
600.48	1785.83
600.68	1712.10
600.87	1746.92
601.06	1771.49
601.26	1738.73
601.45	1759.21
601.64	1787.88
601.83	1861.60
602.03	1789.92
602.22	1699.81
602.41	1787.88
602.60	1900.52
602.80	1855.46
602.99	1740.77
603.18	1720.29
603.37	1744.87
603.57	1693.67
603.76	1806.31
603.95	1789.92
604.14	1738.73
604.34	1730.53
604.53	1763.30
604.72	1777.64
604.91	1808.36
605.10	1808.36
605.30	1660.90
605.49	1843.17
605.68	1802.21
605.87	1724.39
606.07	1689.57
606.26	1734.63
606.45	1746.92
606.64	1738.73
606.84	1693.67
607.03	1751.01
607.22	1822.69
607.41	1646.57
607.60	1667.05
607.80	1746.92
607.99	1726.44
608.18	1773.54
608.37	1705.96
608.56	1695.72
608.76	1744.87
608.95	1800.16
609.14	1714.15
609.33	1769.44
609.52	1783.78
609.72	1654.76
609.91	1716.20
610.10	1783.78
610.29	1744.87
610.48	1820.64
610.68	1789.92
610.87	1765.35
611.06	1787.88
611.25	1708.01
611.44	1742.82
611.63	1736.68
611.83	1847.27
612.02	1619.94
612.21	1755.11
612.40	1671.14
612.59	1699.81
612.79	1679.33
612.98	1771.49
613.17	1796.07
613.36	1738.73
613.55	1771.49
613.74	1732.58
613.93	1712.10
614.13	1771.49
614.32	1736.68
614.51	1824.74
614.70	1705.96
614.89	1658.85
615.08	1826.79
615.28	2105.31
615.47	1689.57
615.66	1781.73
615.85	1757.16
616.04	1834.98
616.23	1806.31
616.42	1751.01
616.62	1718.25
616.81	1779.68
617.00	1679.33
617.19	1746.92
617.38	1689.57
617.57	1791.97
617.76	1730.53
617.95	1708.01
618.15	1724.39
618.34	1824.74
618.53	1685.48
618.72	1794.02
618.91	1818.60
619.10	1877.99
619.29	1689.57
619.48	1724.39
619.68	1714.15
619.87	1779.68
620.06	1679.33
620.25	1748.97
620.44	1753.06
620.63	1748.97
620.82	1693.67
621.01	1716.20
621.20	1804.26
621.39	1767.40
621.59	1673.19
621.78	1724.39
621.97	1808.36
622.16	1781.73
622.35	1640.42
622.54	1736.68
622.73	1826.79
622.92	1640.42
623.11	1783.78
623.30	1736.68
623.49	1755.11
623.68	1777.64
623.88	1751.01
624.07	1724.39
624.26	1746.92
624.45	1787.88
624.64	1691.62
624.83	1710.05
625.02	1734.63
625.21	1728.49
625.40	1779.68
625.59	1845.22
625.78	1785.83
625.97	1773.54
626.16	1738.73
626.35	1710.05
626.54	1775.59
626.74	1828.84
626.93	1761.25
627.12	1722.34
627.31	1781.73
627.50	1777.64
627.69	1781.73
627.88	1667.05
628.07	1558.50
628.26	1636.33
628.45	1636.33
628.64	1621.99
628.83	1738.73
629.02	1689.57
629.21	1703.91
629.40	1753.06
629.59	1650.66
629.78	1683.43
629.97	1720.29
630.16	1662.95
630.35	1679.33
630.54	1736.68
630.73	1689.57
630.92	1761.25
631.11	1732.58
631.30	1697.77
631.49	1712.10
631.68	1730.53
631.87	1738.73
632.06	1656.81
632.25	1888.23
632.44	1609.70
632.63	1781.73
632.82	1703.91
633.01	1710.05
633.20	1763.30
633.39	1726.44
633.58	1636.33
633.77	1724.39
633.96	1814.50
634.15	1828.84
634.34	1804.26
634.53	1759.21
634.72	1652.71
634.91	1689.57
635.10	1777.64
635.29	1781.73
635.48	1728.49
635.67	1736.68
635.86	1621.99
636.05	1710.05
636.24	1755.11
636.43	1744.87
636.62	1724.39
636.81	1656.81
637.00	1751.01
637.19	1736.68
637.38	1787.88
637.57	1701.86
637.76	1695.72
637.95	1744.87
638.14	1732.58
638.33	1767.40
638.52	1769.44
638.71	1652.71
638.89	1708.01
639.08	1865.70
639.27	1748.97
639.46	1689.57
639.65	1791.97
639.84	1808.36
640.03	1808.36
640.22	1665.00
640.41	1841.12
640.60	1646.57
640.79	1763.30
640.98	1695.72
641.17	1771.49
641.36	1689.57
641.55	1722.34
641.74	1644.52
641.92	1703.91
642.11	1691.62
642.30	1755.11
642.49	1697.77
642.68	1753.06
642.87	1771.49
643.06	1771.49
643.25	1691.62
643.44	1742.82
643.63	1751.01
643.82	1845.22
644.00	1718.25
644.19	1751.01
644.38	1693.67
644.57	1765.35
644.76	1746.92
644.95	1740.77
645.14	1648.61
645.33	1724.39
645.52	1634.28
645.71	1675.24
645.89	1703.91
646.08	1716.20
646.27	1746.92
646.46	1796.07
646.65	1691.62
646.84	1669.09
647.03	1685.48
647.22	1818.60
647.40	1796.07
647.59	1681.38
647.78	1648.61
647.97	1634.28
648.16	1722.34
648.35	1773.54
648.54	1753.06
648.73	1681.38
648.91	1779.68
649.10	1720.29
649.29	1740.77
649.48	1681.38
649.67	1777.64
649.86	1722.34
650.05	1673.19
650.23	1716.20
650.42	1724.39
650.61	1746.92
650.80	1791.97
650.99	1818.60
651.18	1812.45
651.36	1763.30
651.55	1763.30
651.74	1834.98
651.93	1705.96
652.12	1624.04
652.31	1771.49
652.49	1779.68
652.68	1638.38
652.87	1740.77
653.06	1693.67
653.25	1832.93
653.44	1705.96
653.62	1812.45
653.81	1765.35
654.00	1757.16
654.19	1746.92
654.38	1890.28
654.56	1824.74
654.75	1724.39
654.94	1773.54
655.13	1759.21
655.32	1689.57
655.51	1746.92
655.69	1683.43
655.88	1753.06
656.07	1689.57
656.26	1783.78
656.45	1632.23
656.63	1718.25
656.82	1703.91
657.01	1798.12
657.20	1703.91
657.38	1757.16
657.57	1722.34
657.76	1660.90
657.95	1757.16
658.14	1730.53
658.32	1746.92
658.51	1624.04
658.70	1775.59
658.89	1771.49
659.08	1748.97
659.26	1765.35
659.45	1646.57
659.64	1693.67
659.83	1665.00
660.01	1914.85
660.20	1830.88
660.39	1814.50
660.58	1564.65
660.76	1720.29
660.95	1665.00
661.14	1712.10
661.33	1605.61
661.51	1652.71
661.70	1691.62
661.89	1757.16
662.08	1730.53
662.26	1730.53
662.45	1646.57
662.64	1787.88
662.83	1775.59
663.01	1597.42
663.20	1796.07
663.39	1734.63
663.58	1720.29
663.76	1701.86
663.95	1834.98
664.14	1785.83
664.32	1695.72
664.51	1675.24
664.70	1654.76
664.89	1794.02
665.07	1701.86
665.26	1738.73
665.45	1636.33
665.64	1822.69
665.82	1808.36
666.01	1761.25
666.20	1640.42
666.38	1755.11
666.57	1787.88
666.76	2140.13
666.95	4595.64
667.13	10360.67
667.32	15353.62
667.51	17946.35
667.69	18822.88
667.88	17520.37
668.07	12148.55
668.25	9652.08
668.44	8116.10
668.63	7440.27
668.81	6844.31
669.00	6354.85
669.19	5695.40
669.38	5199.79
669.56	4548.54
669.75	3954.63
669.94	3411.92
670.12	2842.58
670.31	2541.53
670.50	2308.06
670.68	2136.03
670.87	1918.95
671.06	1791.97
671.24	1763.30
671.43	1802.21
671.62	1871.84
671.80	1685.48
671.99	1822.69
672.18	1687.53
672.36	1738.73
672.55	1798.12
672.74	1716.20
672.92	1783.78
673.11	1740.77
673.29	1712.10
673.48	1705.96
673.67	1681.38
673.85	1818.60
674.04	1540.07
674.23	1746.92
674.41	1814.50
674.60	1638.38
674.79	1599.46
674.97	1689.57
675.16	1763.30
675.34	1724.39
675.53	1601.51
675.72	1724.39
675.90	1849.32
676.09	1648.61
676.28	1660.90
676.46	1673.19
676.65	1779.68
676.83	1718.25
677.02	1789.92
677.21	1701.86
677.39	1714.15
677.58	1720.29
677.77	1689.57
677.95	1744.87
678.14	1710.05
678.32	1691.62
678.51	1677.29
678.70	1789.92
678.88	1662.95
679.07	1726.44
679.25	1712.10
679.44	1705.96
679.63	1611.75
679.81	1767.40
680.00	1806.31
680.18	1800.16
680.37	1779.68
680.55	1718.25
680.74	1636.33
680.93	1615.85
681.11	1791.97
681.30	1746.92
681.48	1724.39
681.67	1587.18
681.85	1724.39
682.04	1722.34
682.23	1683.43
682.41	1691.62
682.60	1759.21
682.78	1740.77
682.97	1685.48
683.15	1695.72
683.34	1714.15
683.53	1871.84
683.71	1652.71
683.90	1839.08
684.08	1865.70
684.27	1632.23
684.45	1751.01
684.64	1804.26
684.82	1761.25
685.01	1740.77
685.19	1798.12
685.38	1869.80
685.57	1734.63
685.75	1714.15
685.94	1677.29
686.12	1740.77
686.31	1746.92
686.49	1834.98
686.68	1617.90
686.86	1699.81
687.05	1695.72
687.23	1765.35
687.42	1669.09
687.60	1628.14
687.79	1767.40
687.97	1789.92
688.16	1769.44
688.34	1843.17
688.53	1568.74
688.71	1771.49
688.90	1814.50
689.08	1669.09
689.27	1691.62
689.45	1810.40
689.64	1740.77
689.82	1767.40
690.01	1767.40
690.19	1746.92
690.38	1732.58
690.56	1703.91
690.75	1703.91
690.93	1722.34
691.12	1652.71
691.30	1726.44
691.49	1771.49
691.67	1777.64
691.86	1841.12
692.04	1738.73
692.23	1665.00
692.41	1697.77
692.60	1849.32
692.78	1742.82
692.97	1699.81
693.15	1730.53
693.34	1828.84
693.52	1781.73
693.71	1673.19
693.89	1726.44
694.08	1673.19
694.26	1787.88
694.44	1834.98
694.63	1806.31
694.81	1658.85
695.00	1609.70
695.18	1708.01
695.37	1820.64
695.55	1748.97
695.74	1703.91
695.92	1689.57
696.10	1730.53
696.29	1701.86
696.47	1658.85
696.66	1595.37
696.84	1658.85
697.03	1734.63
697.21	1841.12
697.40	2281.44
697.58	1755.11
697.76	1742.82
697.95	1662.95
698.13	1679.33
698.32	1689.57
698.50	1671.14
698.68	1791.97
698.87	1740.77
699.05	1812.45
699.24	1791.97
699.42	1667.05
699.61	1703.91
699.79	1718.25
699.97	1734.63
700.16	1636.33
700.34	1714.15
700.53	1718.25
700.71	1771.49
700.89	1742.82
701.08	1742.82
701.26	1742.82
701.45	2043.87
701.63	1697.77
701.81	1683.43
702.00	1722.34
702.18	1673.19
702.37	1701.86
702.55	1767.40
702.73	1689.57
702.92	1677.29
703.10	1791.97
703.28	1742.82
703.47	1697.77
703.65	1757.16
703.84	1769.44
704.02	1730.53
704.20	1812.45
704.39	1603.56
704.57	1675.24
704.75	1771.49
704.94	1781.73
705.12	1732.58
705.30	1705.96
705.49	2334.68
705.67	4530.11
705.86	9201.52
706.04	12519.23
706.22	14393.12
706.41	15189.78
706.59	13651.76
706.77	9320.31
706.96	7284.62
707.14	6639.51
707.32	5842.85
707.51	5603.24
707.69	4900.79
707.87	4212.67
708.06	3606.47
708.24	2959.31
708.42	2435.03
708.61	2273.25
708.79	1910.75
708.97	1880.04
709.16	1796.07
709.34	1761.25
709.52	1710.05
709.71	1820.64
709.89	1740.77
710.07	1626.09
710.26	1687.53
710.44	1757.16
710.62	1800.16
710.80	1738.73
710.99	1779.68
711.17	1744.87
711.35	1769.44
711.54	1677.29
711.72	1751.01
711.90	1802.21
712.09	1781.73
712.27	1665.00
712.45	1734.63
712.63	1619.94
712.82	1785.83
713.00	1748.97
713.18	1826.79
713.37	1755.11
713.55	1697.77
713.73	1767.40
713.91	1742.82
714.10	1681.38
714.28	1675.24
714.46	1712.10
714.65	1730.53
714.83	1730.53
715.01	1775.59
715.19	1748.97
715.38	1652.71
715.56	1683.43
715.74	1673.19
715.92	1665.00
716.11	1841.12
716.29	1673.19
716.47	1644.52
716.65	1761.25
716.84	1609.70
717.02	1757.16
717.20	1628.14
717.38	1634.28
717.57	1671.14
717.75	1710.05
717.93	1697.77
718.11	1679.33
718.30	1630.18
718.48	1705.96
718.66	1644.52
718.84	1818.60
719.03	1763.30
719.21	1658.85
719.39	1802.21
719.57	1763.30
719.75	1761.25
719.94	1703.91
720.12	1697.77
720.30	1654.76
720.48	1810.40
720.67	1636.33
720.85	1638.38
721.03	1656.81
721.21	1624.04
721.39	1824.74
721.58	1732.58
721.76	1779.68
721.94	1746.92
722.12	1654.76
722.30	1761.25
722.49	1722.34
722.67	1714.15
722.85	1804.26
723.03	1583.08
723.21	1607.66
723.40	1726.44
723.58	1828.84
723.76	1685.48
723.94	1812.45
724.12	1708.01
724.30	1742.82
724.49	1767.40
724.67	1683.43
724.85	1798.12
725.03	1640.42
725.21	1789.92
725.40	1699.81
725.58	1658.85
725.76	1722.34
725.94	1759.21
726.12	1665.00
726.30	1693.67
726.49	1738.73
726.67	1646.57
726.85	1665.00
727.03	1787.88
727.21	2072.54
727.39	2975.70
727.57	3772.36
727.76	4278.21
727.94	4507.58
728.12	4364.22
728.30	3719.11
728.48	2942.93
728.66	2815.96
728.84	2553.82
729.03	2328.54
729.21	2148.32
729.39	1910.75
729.57	1794.02
729.75	1898.47
729.93	1822.69
730.11	1789.92
730.30	1759.21
730.48	1728.49
730.66	1847.27
730.84	1802.21
731.02	1681.38
731.20	1746.92
731.38	1716.20
731.56	1628.14
731.74	1705.96
731.93	1765.35
732.11	1685.48
732.29	1710.05
732.47	1728.49
732.65	1804.26
732.83	1808.36
733.01	1746.92
733.19	1640.42
733.37	1732.58
733.56	1746.92
733.74	1683.43
733.92	1839.08
734.10	1734.63
734.28	1742.82
734.46	1716.20
734.64	1699.81
734.82	1777.64
735.00	1687.53
735.18	1716.20
735.36	1744.87
735.54	1681.38
735.73	1714.15
735.91	1701.86
736.09	1791.97
736.27	1746.92
736.45	1726.44
736.63	1619.94
736.81	1722.34
736.99	1775.59
737.17	1800.16
737.35	1705.96
737.53	1720.29
737.71	1595.37
737.89	1787.88
738.07	1726.44
738.25	1675.24
738.43	1576.94
738.61	1734.63
738.80	1630.18
738.98	1628.14
739.16	1675.24
739.34	1683.43
739.52	1789.92
739.70	1671.14
739.88	1791.97
740.06	1767.40
740.24	1587.18
740.42	1761.25
740.60	1673.19
740.78	1585.13
740.96	1650.66
741.14	1685.48
741.32	1808.36
741.50	1654.76
741.68	1875.94
741.86	1812.45
742.04	1722.34
742.22	1621.99
742.40	1681.38
742.58	1746.92
742.76	1716.20
742.94	1796.07
743.12	1597.42
743.30	1705.96
743.48	1724.39
743.66	1718.25
743.84	1751.01
744.02	1673.19
744.20	1648.61
744.38	1638.38
744.56	1646.57
744.74	1812.45
744.92	1791.97
745.10	1796.07
745.28	1763.30
745.46	1812.45
745.64	1695.72
745.82	1798.12
746.00	1673.19
746.18	1771.49
746.36	1761.25
746.54	1744.87
746.72	1769.44
746.90	1650.66
747.08	1748.97
747.26	1624.04
747.44	1769.44
747.62	1742.82
747.80	1665.00
747.98	1738.73
748.15	1701.86
748.33	1816.55
748.51	1675.24
748.69	1832.93
748.87	1734.63
749.05	1660.90
749.23	1652.71
749.41	1714.15
749.59	1705.96
749.77	1794.02
749.95	1697.77
750.13	1673.19
750.31	1738.73
750.49	1757.16
750.67	1763.30
750.85	1796.07
751.03	1808.36
751.20	1798.12
751.38	1720.29
751.56	1771.49
751.74	1710.05
751.92	1728.49
752.10	1642.47
752.28	1775.59
752.46	1669.09
752.64	1650.66
752.82	1697.77
753.00	1812.45
753.18	1763.30
753.35	1712.10
753.53	1665.00
753.71	1581.03
753.89	1755.11
754.07	1730.53
754.25	1802.21
754.43	1689.57
754.61	1632.23
754.79	1755.11
754.97	1697.77
755.14	1816.55
755.32	1630.18
755.50	1722.34
755.68	1798.12
755.86	1671.14
756.04	1685.48
756.22	1619.94
756.40	1775.59
756.57	1822.69
756.75	1714.15
756.93	1763.30
757.11	1716.20
757.29	1621.99
757.47	1628.14
757.65	1693.67
757.82	1578.98
758.00	1634.28
758.18	1638.38
758.36	1626.09
758.54	1773.54
758.72	1681.38
758.90	1705.96
759.07	1722.34
759.25	1714.15
759.43	1703.91
759.61	1759.21
759.79	2181.09
759.97	1740.77
760.15	1607.66
760.32	1628.14
760.50	1740.77
760.68	1877.99
760.86	1605.61
761.04	1787.88
761.22	1804.26
761.39	1734.63
761.57	1679.33
761.75	1662.95
761.93	1808.36
762.11	1728.49
762.28	1779.68
762.46	1652.71
762.64	1785.83
762.82	1665.00
763.00	1734.63
763.18	1785.83
763.35	1591.27
763.53	1732.58
763.71	1755.11
763.89	1714.15
764.07	1689.57
764.24	1728.49
764.42	1632.23
764.60	1767.40
764.78	1746.92
764.96	1765.35
765.13	1720.29
765.31	1810.40
765.49	1781.73
765.67	1720.29
765.84	1726.44
766.02	1714.15
766.20	1675.24
766.38	1781.73
766.56	1785.83
766.73	1726.44
766.91	1685.48
767.09	1746.92
767.27	1734.63
767.44	1693.67
767.62	1705.96
767.80	1740.77
767.98	1693.67
768.15	1710.05
768.33	1767.40
768.51	1671.14
768.69	1734.63
768.87	1722.34
769.04	1685.48
769.22	1916.90
769.40	1730.53
769.58	1910.75
769.75	1710.05
769.93	1804.26
770.11	1779.68
770.28	1681.38
770.46	1804.26
770.64	1863.65
770.82	1773.54
770.99	1718.25
771.17	1726.44
771.35	1640.42
771.53	1724.39
771.70	1640.42
771.88	1693.67
772.06	1689.57
772.23	1673.19
772.41	1753.06
772.59	1665.00
772.77	1710.05
772.94	1732.58
773.12	1798.12
773.30	1650.66
773.47	1718.25
773.65	1710.05
773.83	1771.49
774.01	1724.39
774.18	1679.33
774.36	1751.01
774.54	1695.72
774.71	1742.82
774.89	1667.05
775.07	1660.90
775.24	1632.23
775.42	1624.04
775.60	1871.84
775.78	1689.57
775.95	1650.66
776.13	1619.94
776.31	1583.08
776.48	1710.05
776.66	1736.68
776.84	1748.97
777.01	1583.08
777.19	1669.09
777.37	1656.81
777.54	1775.59
777.72	1783.78
777.90	1662.95
778.07	1617.90
778.25	1927.14
778.43	1759.21
778.60	1685.48
778.78	1781.73
778.96	1796.07
779.13	1667.05
779.31	1789.92
779.49	1683.43
779.66	1714.15
779.84	1683.43
780.01	1658.85
780.19	1591.27
780.37	1822.69
780.54	1759.21
780.72	1640.42
780.90	1628.14
781.07	1646.57
781.25	1685.48
781.43	1716.20
781.60	1669.09
781.78	1753.06
781.95	1726.44
782.13	1628.14
782.31	1642.47
782.48	1581.03
782.66	1765.35
782.83	1845.22
783.01	1724.39
783.19	1810.40
783.36	1673.19
783.54	1689.57
783.72	1697.77
783.89	1701.86
784.07	1689.57
784.24	1759.21
784.42	1775.59
784.60	1742.82
784.77	1689.57
784.95	1679.33
785.12	1660.90
785.30	1656.81
785.47	1650.66
785.65	1685.48
785.83	1660.90
786.00	1632.23
786.18	1734.63
786.35	1675.24
786.53	1644.52
786.71	1685.48
786.88	1726.44
787.06	1718.25
787.23	1730.53
787.41	1646.57
787.58	1705.96
787.76	1687.53
787.94	1693.67
788.11	1667.05
788.29	1701.86
788.46	1710.05
788.64	1654.76
788.81	1712.10
788.99	1632.23
789.16	1677.29
789.34	1652.71
789.52	1595.37
789.69	1630.18
789.87	1632.23
790.04	1628.14
790.22	1656.81
790.39	1824.74
790.57	1738.73
790.74	1718.25
790.92	1804.26
791.09	1558.50
791.27	1683.43
791.44	1820.64
791.62	1671.14
791.79	1761.25
791.97	1703.91
792.15	1877.99
792.32	1755.11
792.50	1804.26
792.67	1843.17
792.85	1808.36
793.02	1687.53
793.20	1738.73
793.37	1681.38
793.55	1759.21
793.72	1652.71
793.90	1738.73
794.07	1695.72
794.25	1613.80
794.42	1800.16
794.60	1699.81
794.77	1802.21
794.95	1775.59
795.12	1730.53
795.30	1738.73
795.47	1583.08
795.65	1882.08
795.82	1703.91
796.00	1583.08
796.17	1701.86
796.34	1660.90
796.52	1738.73
796.69	1669.09
796.87	1701.86
797.04	1703.91
797.22	1712.10
797.39	1646.57
797.57	1781.73
797.74	1722.34
797.92	1730.53
798.09	1736.68
798.27	1791.97
798.44	1734.63
798.62	1714.15
798.79	1673.19
798.96	1734.63
799.14	1769.44
799.31	1826.79
799.49	1701.86
799.66	1726.44
799.84	1755.11
800.01	1609.70
800.19	1730.53
800.36	1673.19
800.53	1769.44
800.71	1687.53
800.88	1802.21
801.06	1763.30
801.23	1701.86
801.41	1703.91
801.58	1662.95
801.75	1703.91
801.93	1779.68
802.10	1751.01
802.28	1738.73
802.45	1753.06
802.63	1742.82
802.80	1738.73
802.97	1705.96
803.15	1671.14
803.32	1599.46
803.50	1753.06
803.67	1634.28
803.84	1691.62
804.02	1730.53
804.19	1681.38
804.37	1650.66
804.54	1640.42
804.71	1642.47
804.89	1646.57
805.06	1634.28
805.24	1720.29
805.41	1705.96
805.58	1644.52
805.76	1875.94
805.93	1826.79
806.10	1796.07
806.28	1708.01
806.45	1683.43
806.63	1802.21
806.80	1765.35
806.97	1751.01
807.15	1722.34
807.32	1722.34
807.49	1740.77
807.67	1650.66
807.84	1732.58
808.01	1681.38
808.19	1877.99
808.36	1736.68
808.54	1665.00
808.71	1705.96
808.88	1708.01
809.06	1738.73
809.23	1853.41
809.40	1708.01
809.58	1783.78
809.75	1708.01
809.92	1681.38
810.10	1873.89
810.27	1716.20
810.44	1708.01
810.62	1779.68
810.79	1718.25
810.96	1712.10
811.14	1683.43
811.31	1740.77
811.48	1730.53
811.66	1742.82
811.83	1724.39
812.00	1714.15
812.18	1775.59
812.35	1863.65
812.52	1734.63
812.69	1699.81
812.87	1671.14
813.04	1746.92
813.21	1710.05
813.39	1685.48
813.56	1619.94
813.73	1738.73
813.91	1660.90
814.08	1683.43
814.25	1662.95
814.42	1689.57
814.60	1683.43
814.77	1728.49
814.94	1701.86
815.12	1798.12
815.29	1779.68
815.46	1642.47
815.63	1753.06
815.81	1751.01
815.98	1716.20
816.15	1638.38
816.33	1714.15
816.50	1691.62
816.67	1701.86
816.84	1685.48
817.02	1740.77
817.19	1689.57
817.36	1705.96
817.53	1716.20
817.71	1716.20
817.88	1796.07
818.05	1734.63
818.22	1718.25
818.40	1824.74
818.57	1701.86
818.74	1701.86
818.91	1742.82
819.09	1722.34
819.26	1761.25
819.43	1619.94
819.60	1660.90
819.78	1744.87
819.95	1742.82
820.12	1650.66
820.29	1720.29
820.47	1777.64
820.64	1652.71
820.81	1652.71
820.98	1619.94
821.15	1708.01
821.33	1773.54
821.50	1576.94
821.67	1714.15
821.84	1705.96
822.02	1726.44
822.19	1808.36
822.36	1621.99
822.53	1697.77
822.70	1581.03
822.88	1730.53
823.05	1853.41
823.22	1732.58
823.39	1710.05
823.56	1746.92
823.74	1816.55
823.91	1710.05
824.08	1677.29
824.25	1699.81
824.42	1800.16
824.60	1595.37
824.77	1765.35
824.94	1673.19
825.11	1693.67
825.28	1619.94
825.45	1724.39
825.63	1714.15
825.80	1683.43
825.97	1744.87
826.14	1730.53
826.31	1640.42
826.48	1722.34
826.66	1605.61
826.83	1691.62
827.00	1720.29
827.17	1609.70
827.34	1658.85
827.51	1701.86
827.69	1800.16
827.86	1626.09
828.03	1671.14
828.20	1734.63
828.37	1701.86
828.54	1718.25
828.71	1648.61
828.89	1824.74
829.06	1695.72
829.23	1775.59
829.40	1662.95
829.57	1691.62
829.74	1759.21
829.91	1683.43
830.09	1652.71
830.26	1689.57
830.43	1740.77
830.60	1695.72
830.77	1730.53
830.94	1738.73
831.11	1734.63
831.28	1728.49
831.46	1748.97
831.63	1648.61
831.80	1734.63
831.97	1675.24
832.14	1615.85
832.31	1738.73
832.48	1812.45
832.65	1783.78
832.82	1720.29
832.99	1705.96
833.17	1669.09
833.34	1763.30
833.51	1785.83
833.68	1587.18
833.85	1767.40
834.02	1665.00
834.19	1693.67
834.36	1656.81
834.53	1685.48
834.70	1779.68
834.87	1734.63
835.04	1787.88
835.22	1685.48
835.39	1650.66
835.56	1679.33
835.73	1640.42
835.90	1808.36
836.07	1681.38
836.24	1802.21
836.41	1628.14
836.58	1671.14
836.75	1740.77
836.92	1753.06
837.09	1671.14
837.26	1705.96
837.43	1705.96
837.60	1777.64
837.77	1646.57
837.94	1767.40
838.12	1828.84
838.29	1687.53
838.46	1638.38
838.63	1613.80
838.80	1779.68
838.97	1822.69
839.14	1728.49
839.31	1689.57
839.48	1808.36
839.65	1705.96
839.82	1816.55
839.99	1767.40
840.16	1714.15
840.33	1701.86
840.50	1785.83
840.67	1703.91
840.84	1560.55
841.01	1689.57
841.18	1636.33
841.35	1689.57
841.52	1777.64
841.69	1763.30
841.86	1755.11
842.03	1728.49
842.20	1710.05
842.37	1654.76
842.54	1705.96
842.71	1728.49
842.88	1660.90
843.05	1722.34
843.22	1574.89
843.39	1730.53
843.56	1673.19
843.73	1708.01
843.90	1689.57
844.07	1681.38
844.24	1814.50
844.41	1765.35
844.58	1677.29
844.75	1681.38
844.92	1730.53
845.09	1742.82
845.26	1693.67
845.43	1791.97
845.60	1644.52
845.77	1802.21
845.94	1744.87
846.10	1781.73
846.27	1613.80
846.44	1617.90
846.61	1609.70
846.78	1722.34
846.95	1796.07
847.12	1796.07
847.29	1703.91
847.46	1628.14
847.63	1785.83
847.80	1673.19
847.97	1642.47
848.14	1851.36
848.31	1738.73
848.48	1669.09
848.65	1710.05
848.82	1658.85
848.98	1800.16
849.15	1769.44
849.32	1730.53
849.49	1798.12
849.66	1681.38
849.83	1689.57
850.00	1593.32
850.17	1728.49
850.34	1697.77
850.51	1630.18
850.68	1685.48
850.85	1880.04
851.01	1779.68
851.18	1669.09
851.35	1677.29
851.52	1746.92
851.69	1794.02
851.86	1652.71
852.03	1667.05
852.20	1765.35
852.37	1673.19
852.53	1597.42
852.70	1671.14
852.87	1681.38
853.04	1816.55
853.21	1726.44
853.38	1775.59
853.55	1746.92
853.72	1828.84
853.89	1665.00
854.05	1595.37
854.22	1726.44
854.39	1677.29
854.56	1800.16
854.73	1791.97
854.90	1693.67
855.07	1665.00
855.23	1705.96
855.40	1777.64
855.57	1693.67
855.74	1665.00
855.91	1880.04
856.08	1652.71
856.25	1720.29
856.41	1710.05
856.58	1673.19
856.75	1722.34
856.92	1638.38
857.09	1818.60
857.26	1640.42
857.42	1705.96
857.59	1681.38
857.76	1636.33
857.93	1710.05
858.10	1697.77
858.27	1617.90
858.43	1679.33
858.60	1751.01
858.77	1630.18
858.94	1681.38
859.11	1767.40
859.27	1697.77
859.44	1689.57
859.61	1800.16
859.78	1757.16
859.95	1671.14
860.12	1705.96
860.28	1845.22
860.45	1800.16
860.62	1726.44
860.79	1615.85
860.95	1667.05
861.12	1693.67
861.29	1677.29
861.46	1710.05
861.63	1701.86
861.79	1705.96
861.96	1730.53
862.13	1644.52
862.30	1757.16
862.47	1636.33
862.63	1638.38
862.80	1765.35
862.97	1773.54
863.14	1781.73
863.30	1783.78
863.47	1689.57
863.64	1781.73
863.81	1708.01
863.97	1681.38
864.14	1722.34
864.31	1679.33
864.48	1681.38
864.65	1699.81
864.81	1718.25
864.98	1712.10
865.15	1730.53
865.32	1796.07
865.48	1753.06
865.65	1771.49
865.82	1675.24
865.98	1755.11
866.15	1751.01
866.32	1638.38
866.49	1632.23
866.65	1804.26
866.82	1701.86
866.99	1640.42
867.16	1683.43
867.32	1703.91
867.49	1691.62
867.66	1658.85
867.83	1714.15
867.99	1587.18
868.16	1691.62
868.33	1675.24
868.49	1693.67
868.66	1677.29
868.83	1716.20
868.99	1755.11
869.16	1808.36
869.33	1728.49
869.50	1724.39
869.66	1738.73
869.83	1746.92
870.00	1675.24
870.16	1748.97
870.33	1689.57
870.50	1685.48
870.66	1732.58
870.83	1832.93
871.00	1716.20
871.17	1726.44
871.33	1832.93
871.50	1695.72
871.67	1611.75
871.83	1718.25
872.00	1798.12
872.17	1755.11
872.33	1818.60
872.50	1775.59
872.67	1742.82
872.83	1656.81
873.00	1726.44
873.17	1665.00
873.33	1751.01
873.50	1720.29
873.67	1640.42
873.83	1699.81
874.00	1658.85
874.16	1746.92
874.33	1732.58
874.50	1677.29
874.66	1734.63
874.83	1708.01
875.00	1806.31
875.16	1751.01
875.33	1785.83
875.50	1621.99
875.66	1757.16
875.83	1673.19
875.99	1671.14
876.16	1718.25
876.33	1693.67
876.49	1671.14
876.66	1755.11
876.83	1683.43
876.99	1568.74
877.16	1755.11
877.32	1757.16
877.49	1714.15
877.66	1740.77
877.82	1826.79
877.99	1783.78
878.15	1791.97
878.32	1699.81
878.49	1804.26
878.65	1779.68
878.82	1798.12
878.98	1689.57
879.15	1865.70
879.32	1783.78
879.48	1687.53
879.65	1615.85
879.81	1646.57
879.98	1732.58
880.15	1679.33
880.31	1781.73
880.48	1644.52
880.64	1859.56
880.81	1685.48
880.97	1763.30
881.14	1718.25
881.31	1683.43
881.47	1892.32
881.64	1671.14
881.80	1617.90
881.97	1697.77
882.13	1798.12
882.30	1621.99
882.47	1642.47
882.63	1562.60
882.80	1626.09
882.96	1589.22
883.13	1667.05
883.29	1705.96
883.46	1675.24
883.62	1888.23
883.79	1757.16
883.95	1730.53
884.12	1777.64
884.29	1787.88
884.45	1642.47
884.62	1814.50
884.78	1665.00
884.95	1759.21
885.11	1714.15
885.28	1671.14
885.44	1671.14
885.61	1740.77
885.77	1771.49
885.94	1703.91
886.10	1734.63
886.27	1681.38
886.43	1816.55
886.60	1800.16
886.76	1691.62
886.93	1699.81
887.09	1642.47
887.26	1728.49
887.42	1712.10
887.59	1728.49
887.75	1886.18
887.92	1767.40
888.08	1765.35
888.25	1820.64
888.41	1800.16
888.58	1722.34
888.74	1636.33
888.91	1669.09
>>>>>End Processed Spectral Data<<<<<
