SpectraSuite Data File
++++++++++++++++++++++++++++++++++++
Date: Mon Jun 06 14:09:17 CEST 2016
User: root
Dark Spectrum Present: No
Reference Spectrum Present: No
Number of Sampled Component Spectra: 1
Spectrometers: USB4C02835
Integration Time (usec): 100000 (USB4C02835)
Spectra Averaged: 1 (USB4C02835)
Boxcar Smoothing: 0 (USB4C02835)
Correct for Electrical Dark: No (USB4C02835)
Strobe/Lamp Enabled: No (USB4C02835)
Correct for Detector Non-linearity: No (USB4C02835)
Correct for Stray Light: No (USB4C02835)
Number of Pixels in Processed Spectrum: 3648
>>>>>Begin Processed Spectral Data<<<<<
177.47	1456.11
177.69	1456.11
177.91	1456.11
178.13	1476.59
178.36	1470.44
178.58	1558.50
178.80	1687.53
179.02	1648.61
179.24	1685.48
179.46	1689.57
179.68	1755.11
179.90	1640.42
180.13	1767.40
180.35	1685.48
180.57	1724.39
180.79	1722.34
181.01	1673.19
181.23	1779.68
181.45	1730.53
181.67	1679.33
181.90	1734.63
182.12	1624.04
182.34	1660.90
182.56	1728.49
182.78	1718.25
183.00	1726.44
183.22	1675.24
183.44	1619.94
183.66	1849.32
183.89	1791.97
184.11	1726.44
184.33	1751.01
184.55	1746.92
184.77	1714.15
184.99	1753.06
185.21	1675.24
185.43	1798.12
185.65	1624.04
185.87	1757.16
186.10	1759.21
186.32	1785.83
186.54	1732.58
186.76	1886.18
186.98	1791.97
187.20	1656.81
187.42	1681.38
187.64	1740.77
187.86	1703.91
188.08	1683.43
188.30	1718.25
188.52	1671.14
188.75	1658.85
188.97	1757.16
189.19	1585.13
189.41	1644.52
189.63	1679.33
189.85	1722.34
190.07	1540.07
190.29	1628.14
190.51	1697.77
190.73	1578.98
190.95	1746.92
191.17	1736.68
191.39	1619.94
191.61	1634.28
191.84	1718.25
192.06	1689.57
192.28	1644.52
192.50	1871.84
192.72	1720.29
192.94	1648.61
193.16	1728.49
193.38	1785.83
193.60	1644.52
193.82	1683.43
194.04	1720.29
194.26	1652.71
194.48	1675.24
194.70	1701.86
194.92	1703.91
195.14	1738.73
195.36	1689.57
195.58	1738.73
195.80	1681.38
196.02	1728.49
196.24	1667.05
196.46	1765.35
196.69	1732.58
196.91	1810.40
197.13	1683.43
197.35	1642.47
197.57	1781.73
197.79	1736.68
198.01	1785.83
198.23	1748.97
198.45	1744.87
198.67	1597.42
198.89	1624.04
199.11	1751.01
199.33	1685.48
199.55	1591.27
199.77	1677.29
199.99	1814.50
200.21	1654.76
200.43	1779.68
200.65	1656.81
200.87	1601.51
201.09	1646.57
201.31	1689.57
201.53	1667.05
201.75	1701.86
201.97	1714.15
202.19	1746.92
202.41	1730.53
202.63	1884.13
202.85	1740.77
203.07	1654.76
203.29	1710.05
203.51	1689.57
203.73	1652.71
203.95	1808.36
204.17	1695.72
204.39	1689.57
204.61	1734.63
204.83	1714.15
205.05	1814.50
205.27	1761.25
205.49	1904.61
205.71	1671.14
205.93	1636.33
206.15	1673.19
206.37	1650.66
206.59	1703.91
206.81	1605.61
207.03	1632.23
207.25	1656.81
207.47	1677.29
207.69	1644.52
207.91	1763.30
208.13	1802.21
208.34	1714.15
208.56	1699.81
208.78	1689.57
209.00	1701.86
209.22	1581.03
209.44	1716.20
209.66	1603.56
209.88	1624.04
210.10	1703.91
210.32	1679.33
210.54	1830.88
210.76	1685.48
210.98	1701.86
211.20	1540.07
211.42	1712.10
211.64	1789.92
211.86	1697.77
212.08	1763.30
212.30	1767.40
212.52	1712.10
212.74	1746.92
212.96	1697.77
213.17	1730.53
213.39	1624.04
213.61	1783.78
213.83	1734.63
214.05	1626.09
214.27	1757.16
214.49	1671.14
214.71	1701.86
214.93	1800.16
215.15	1703.91
215.37	1705.96
215.59	1671.14
215.81	1732.58
216.03	1808.36
216.24	1687.53
216.46	1624.04
216.68	1769.44
216.90	1703.91
217.12	1748.97
217.34	1652.71
217.56	1718.25
217.78	1742.82
218.00	1724.39
218.22	1722.34
218.44	1771.49
218.66	1699.81
218.87	1738.73
219.09	1626.09
219.31	1716.20
219.53	1677.29
219.75	1689.57
219.97	1660.90
220.19	1697.77
220.41	1595.37
220.63	1789.92
220.85	1730.53
221.06	1685.48
221.28	1746.92
221.50	1742.82
221.72	1669.09
221.94	1701.86
222.16	1732.58
222.38	1691.62
222.60	1777.64
222.82	1708.01
223.03	1701.86
223.25	1654.76
223.47	1736.68
223.69	1843.17
223.91	1722.34
224.13	1697.77
224.35	1693.67
224.57	1757.16
224.78	1652.71
225.00	1574.89
225.22	1712.10
225.44	1705.96
225.66	1705.96
225.88	1656.81
226.10	1816.55
226.32	1730.53
226.53	1791.97
226.75	1650.66
226.97	1648.61
227.19	1796.07
227.41	1716.20
227.63	1619.94
227.85	1607.66
228.06	1718.25
228.28	1716.20
228.50	1697.77
228.72	1644.52
228.94	1648.61
229.16	1632.23
229.37	1730.53
229.59	1691.62
229.81	1755.11
230.03	1572.84
230.25	1648.61
230.47	1630.18
230.69	1609.70
230.90	1738.73
231.12	1658.85
231.34	1685.48
231.56	1726.44
231.78	1701.86
232.00	1699.81
232.21	1724.39
232.43	1726.44
232.65	1591.27
232.87	1755.11
233.09	1701.86
233.30	1595.37
233.52	1732.58
233.74	1697.77
233.96	1652.71
234.18	1658.85
234.40	1695.72
234.61	1804.26
234.83	1730.53
235.05	1628.14
235.27	1753.06
235.49	1734.63
235.70	1683.43
235.92	1789.92
236.14	1730.53
236.36	1859.56
236.58	1644.52
236.79	1767.40
237.01	1718.25
237.23	1708.01
237.45	1865.70
237.67	1697.77
237.88	1626.09
238.10	1816.55
238.32	1701.86
238.54	1683.43
238.76	1646.57
238.97	1648.61
239.19	1636.33
239.41	1748.97
239.63	1855.46
239.85	1693.67
240.06	1703.91
240.28	1646.57
240.50	1687.53
240.72	1800.16
240.93	1710.05
241.15	1765.35
241.37	1703.91
241.59	1757.16
241.81	1677.29
242.02	1705.96
242.24	1853.41
242.46	1722.34
242.68	1667.05
242.89	1742.82
243.11	1767.40
243.33	1697.77
243.55	1703.91
243.76	1677.29
243.98	1617.90
244.20	1738.73
244.42	1615.85
244.64	1746.92
244.85	1636.33
245.07	1638.38
245.29	1734.63
245.51	1732.58
245.72	1693.67
245.94	1771.49
246.16	1671.14
246.38	1783.78
246.59	1738.73
246.81	1617.90
247.03	1601.51
247.24	1648.61
247.46	1587.18
247.68	1681.38
247.90	1611.75
248.11	1654.76
248.33	1705.96
248.55	1687.53
248.77	1734.63
248.98	1791.97
249.20	1841.12
249.42	1720.29
249.64	1742.82
249.85	1689.57
250.07	1671.14
250.29	1712.10
250.50	1781.73
250.72	1607.66
250.94	1703.91
251.16	1822.69
251.37	1787.88
251.59	1781.73
251.81	1742.82
252.02	1787.88
252.24	1621.99
252.46	1787.88
252.68	1673.19
252.89	1656.81
253.11	1677.29
253.33	1830.88
253.54	1726.44
253.76	1615.85
253.98	1591.27
254.20	1705.96
254.41	1640.42
254.63	1667.05
254.85	1615.85
255.06	1619.94
255.28	1714.15
255.50	1648.61
255.71	1724.39
255.93	1695.72
256.15	1708.01
256.36	1673.19
256.58	1658.85
256.80	1687.53
257.02	1683.43
257.23	1740.77
257.45	1693.67
257.67	1771.49
257.88	1714.15
258.10	1738.73
258.32	1710.05
258.53	1722.34
258.75	1839.08
258.97	1669.09
259.18	1755.11
259.40	1646.57
259.62	1755.11
259.83	1730.53
260.05	1656.81
260.27	1980.39
260.48	1751.01
260.70	1593.32
260.92	1701.86
261.13	1644.52
261.35	1740.77
261.57	1660.90
261.78	1667.05
262.00	1656.81
262.22	1693.67
262.43	1619.94
262.65	1677.29
262.86	1689.57
263.08	1843.17
263.30	1695.72
263.51	1671.14
263.73	1644.52
263.95	1802.21
264.16	1693.67
264.38	1642.47
264.60	1667.05
264.81	1701.86
265.03	1736.68
265.25	1773.54
265.46	1671.14
265.68	1794.02
265.89	1728.49
266.11	1562.60
266.33	1744.87
266.54	1781.73
266.76	1718.25
266.98	1703.91
267.19	1783.78
267.41	1808.36
267.62	1681.38
267.84	1667.05
268.06	1705.96
268.27	1644.52
268.49	1730.53
268.70	1718.25
268.92	1736.68
269.14	1658.85
269.35	1640.42
269.57	1730.53
269.79	1736.68
270.00	1726.44
270.22	1832.93
270.43	1708.01
270.65	1599.46
270.87	1701.86
271.08	1798.12
271.30	1812.45
271.51	1675.24
271.73	1724.39
271.95	1787.88
272.16	1671.14
272.38	1794.02
272.59	1701.86
272.81	1775.59
273.02	1748.97
273.24	1714.15
273.46	1720.29
273.67	1679.33
273.89	1619.94
274.10	1648.61
274.32	1714.15
274.54	1705.96
274.75	1693.67
274.97	1679.33
275.18	1748.97
275.40	1650.66
275.61	1665.00
275.83	1726.44
276.05	1640.42
276.26	1708.01
276.48	1755.11
276.69	1607.66
276.91	1697.77
277.12	1802.21
277.34	1783.78
277.55	1806.31
277.77	1769.44
277.99	1714.15
278.20	1701.86
278.42	1679.33
278.63	1640.42
278.85	1650.66
279.06	1654.76
279.28	1724.39
279.49	1757.16
279.71	1761.25
279.93	1746.92
280.14	1751.01
280.36	1703.91
280.57	1789.92
280.79	1755.11
281.00	1681.38
281.22	1660.90
281.43	1794.02
281.65	1550.31
281.86	1626.09
282.08	1638.38
282.29	1746.92
282.51	1599.46
282.73	1642.47
282.94	1570.79
283.16	1697.77
283.37	1738.73
283.59	1660.90
283.80	1771.49
284.02	1636.33
284.23	1746.92
284.45	1665.00
284.66	1662.95
284.88	1611.75
285.09	1697.77
285.31	1705.96
285.52	1697.77
285.74	1615.85
285.95	1726.44
286.17	1683.43
286.38	1783.78
286.60	1636.33
286.81	1667.05
287.03	1724.39
287.24	1701.86
287.46	1710.05
287.67	1671.14
287.89	1775.59
288.10	1732.58
288.32	1673.19
288.53	1869.80
288.75	1742.82
288.96	1798.12
289.18	1673.19
289.39	1636.33
289.61	1669.09
289.82	1863.65
290.04	1777.64
290.25	1626.09
290.47	1626.09
290.68	1675.24
290.90	1808.36
291.11	1617.90
291.33	1820.64
291.54	1644.52
291.76	1654.76
291.97	1751.01
292.18	1800.16
292.40	1675.24
292.61	1683.43
292.83	1837.03
293.04	1714.15
293.26	1683.43
293.47	1718.25
293.69	1710.05
293.90	1693.67
294.12	1742.82
294.33	1671.14
294.55	1701.86
294.76	1746.92
294.97	1853.41
295.19	1839.08
295.40	1712.10
295.62	1767.40
295.83	1753.06
296.05	1667.05
296.26	1746.92
296.48	1705.96
296.69	1720.29
296.90	1705.96
297.12	1748.97
297.33	1763.30
297.55	1677.29
297.76	1751.01
297.98	1773.54
298.19	1734.63
298.41	1621.99
298.62	1619.94
298.83	1742.82
299.05	1656.81
299.26	1693.67
299.48	1732.58
299.69	1734.63
299.90	1658.85
300.12	1648.61
300.33	1722.34
300.55	1777.64
300.76	1742.82
300.98	1644.52
301.19	1763.30
301.40	1587.18
301.62	1683.43
301.83	1718.25
302.05	1767.40
302.26	1615.85
302.47	1724.39
302.69	1662.95
302.90	1665.00
303.12	1535.98
303.33	1779.68
303.54	1746.92
303.76	1718.25
303.97	1714.15
304.19	1759.21
304.40	1705.96
304.61	1695.72
304.83	1751.01
305.04	1738.73
305.26	1685.48
305.47	1724.39
305.68	1662.95
305.90	1652.71
306.11	1730.53
306.33	1658.85
306.54	1624.04
306.75	1675.24
306.97	1617.90
307.18	1673.19
307.39	1632.23
307.61	1755.11
307.82	1644.52
308.04	1693.67
308.25	1660.90
308.46	1775.59
308.68	1730.53
308.89	1722.34
309.10	1716.20
309.32	1624.04
309.53	1708.01
309.74	1714.15
309.96	1677.29
310.17	1697.77
310.39	1683.43
310.60	1769.44
310.81	1726.44
311.03	1585.13
311.24	1712.10
311.45	1716.20
311.67	1845.22
311.88	1785.83
312.09	1689.57
312.31	1699.81
312.52	1695.72
312.73	1685.48
312.95	1675.24
313.16	1656.81
313.37	1787.88
313.59	1691.62
313.80	1742.82
314.01	1796.07
314.23	1640.42
314.44	1669.09
314.65	1644.52
314.87	1742.82
315.08	1587.18
315.29	1652.71
315.51	1562.60
315.72	1605.61
315.93	1742.82
316.15	1714.15
316.36	1667.05
316.57	1746.92
316.79	1699.81
317.00	1734.63
317.21	1812.45
317.43	1652.71
317.64	1660.90
317.85	1669.09
318.07	1679.33
318.28	1740.77
318.49	1824.74
318.70	1918.95
318.92	1906.66
319.13	1855.46
319.34	1777.64
319.56	1818.60
319.77	1662.95
319.98	1812.45
320.20	1769.44
320.41	1687.53
320.62	1681.38
320.83	1632.23
321.05	1855.46
321.26	1697.77
321.47	1648.61
321.69	1755.11
321.90	1607.66
322.11	1718.25
322.32	1796.07
322.54	1814.50
322.75	1677.29
322.96	1787.88
323.18	1587.18
323.39	1605.61
323.60	1695.72
323.81	1773.54
324.03	1746.92
324.24	1746.92
324.45	1722.34
324.66	1685.48
324.88	1816.55
325.09	1771.49
325.30	1730.53
325.52	1693.67
325.73	1757.16
325.94	1632.23
326.15	1652.71
326.37	1708.01
326.58	1755.11
326.79	1796.07
327.00	1615.85
327.22	1714.15
327.43	1644.52
327.64	1658.85
327.85	1671.14
328.07	1751.01
328.28	1767.40
328.49	1671.14
328.70	1669.09
328.92	1755.11
329.13	1656.81
329.34	1726.44
329.55	1867.75
329.76	1728.49
329.98	1665.00
330.19	1804.26
330.40	1693.67
330.61	1673.19
330.83	1730.53
331.04	1662.95
331.25	1697.77
331.46	1619.94
331.68	1597.42
331.89	1757.16
332.10	1753.06
332.31	1587.18
332.52	1652.71
332.74	1732.58
332.95	1703.91
333.16	1755.11
333.37	1755.11
333.58	1630.18
333.80	1740.77
334.01	1570.79
334.22	1652.71
334.43	1662.95
334.64	1638.38
334.86	1589.22
335.07	1619.94
335.28	1755.11
335.49	1595.37
335.70	1759.21
335.92	1714.15
336.13	1812.45
336.34	1695.72
336.55	1683.43
336.76	1769.44
336.98	1591.27
337.19	1677.29
337.40	1763.30
337.61	1802.21
337.82	1708.01
338.04	1783.78
338.25	1546.22
338.46	1755.11
338.67	1798.12
338.88	1703.91
339.09	1648.61
339.31	1576.94
339.52	1628.14
339.73	1675.24
339.94	1685.48
340.15	1708.01
340.36	1730.53
340.58	1628.14
340.79	1708.01
341.00	1693.67
341.21	1669.09
341.42	1783.78
341.63	1751.01
341.85	1781.73
342.06	1646.57
342.27	1644.52
342.48	1781.73
342.69	1570.79
342.90	1755.11
343.12	1701.86
343.33	1695.72
343.54	1726.44
343.75	1830.88
343.96	1665.00
344.17	1669.09
344.38	1689.57
344.60	1626.09
344.81	1630.18
345.02	1705.96
345.23	1748.97
345.44	1751.01
345.65	1734.63
345.86	1759.21
346.07	1761.25
346.29	1697.77
346.50	1791.97
346.71	1697.77
346.92	1742.82
347.13	1851.36
347.34	1699.81
347.55	1693.67
347.76	1730.53
347.98	1583.08
348.19	1660.90
348.40	1777.64
348.61	1689.57
348.82	1759.21
349.03	1755.11
349.24	1693.67
349.45	1767.40
349.66	1650.66
349.88	1675.24
350.09	1603.56
350.30	1767.40
350.51	1673.19
350.72	1689.57
350.93	1746.92
351.14	1724.39
351.35	1585.13
351.56	1710.05
351.77	1685.48
351.99	1742.82
352.20	1822.69
352.41	1814.50
352.62	1632.23
352.83	1671.14
353.04	1732.58
353.25	1720.29
353.46	1773.54
353.67	1744.87
353.88	1581.03
354.09	1757.16
354.30	1597.42
354.52	1746.92
354.73	1716.20
354.94	1697.77
355.15	1689.57
355.36	1728.49
355.57	1665.00
355.78	1785.83
355.99	1652.71
356.20	1677.29
356.41	1744.87
356.62	1724.39
356.83	1669.09
357.04	1847.27
357.25	1642.47
357.46	1710.05
357.68	1513.45
357.89	1601.51
358.10	1685.48
358.31	1695.72
358.52	1677.29
358.73	1619.94
358.94	1613.80
359.15	1691.62
359.36	1744.87
359.57	1728.49
359.78	1708.01
359.99	1736.68
360.20	1650.66
360.41	1656.81
360.62	1712.10
360.83	1744.87
361.04	1681.38
361.25	1728.49
361.46	1800.16
361.67	1763.30
361.88	1726.44
362.09	1695.72
362.30	1693.67
362.51	1615.85
362.72	1726.44
362.93	1771.49
363.14	1751.01
363.35	1656.81
363.56	1568.74
363.78	1800.16
363.99	1710.05
364.20	1681.38
364.41	1785.83
364.62	1880.04
364.83	1703.91
365.04	1740.77
365.25	1722.34
365.46	1826.79
365.67	1646.57
365.88	1609.70
366.09	1699.81
366.30	1675.24
366.51	1732.58
366.72	1638.38
366.93	1710.05
367.14	1689.57
367.35	1783.78
367.56	1705.96
367.77	1773.54
367.98	1714.15
368.18	1755.11
368.39	1697.77
368.60	1650.66
368.81	1757.16
369.02	1732.58
369.23	1714.15
369.44	1630.18
369.65	1742.82
369.86	1763.30
370.07	1753.06
370.28	1636.33
370.49	1787.88
370.70	1701.86
370.91	1654.76
371.12	1648.61
371.33	1716.20
371.54	1697.77
371.75	1771.49
371.96	1648.61
372.17	1759.21
372.38	1636.33
372.59	1775.59
372.80	1734.63
373.01	1619.94
373.22	1742.82
373.43	1710.05
373.64	1644.52
373.85	1787.88
374.06	1779.68
374.26	1765.35
374.47	1679.33
374.68	1808.36
374.89	1722.34
375.10	1697.77
375.31	1685.48
375.52	1804.26
375.73	1697.77
375.94	1591.27
376.15	1775.59
376.36	1638.38
376.57	1718.25
376.78	1697.77
376.99	1630.18
377.20	1847.27
377.40	1603.56
377.61	1763.30
377.82	1703.91
378.03	1720.29
378.24	1777.64
378.45	1755.11
378.66	1705.96
378.87	1570.79
379.08	1673.19
379.29	1708.01
379.50	1759.21
379.71	1742.82
379.91	1728.49
380.12	1687.53
380.33	1687.53
380.54	1689.57
380.75	1744.87
380.96	1677.29
381.17	1751.01
381.38	1734.63
381.59	1662.95
381.80	1703.91
382.00	1916.90
382.21	1753.06
382.42	1828.84
382.63	1918.95
382.84	1738.73
383.05	1837.03
383.26	1775.59
383.47	1726.44
383.68	1714.15
383.88	1687.53
384.09	1710.05
384.30	1867.75
384.51	1683.43
384.72	1630.18
384.93	1542.12
385.14	1687.53
385.35	1773.54
385.55	1593.32
385.76	1712.10
385.97	1716.20
386.18	1640.42
386.39	1656.81
386.60	1669.09
386.81	1771.49
387.02	1753.06
387.22	1593.32
387.43	1828.84
387.64	1787.88
387.85	1830.88
388.06	2150.37
388.27	4200.38
388.48	6670.23
388.68	8173.44
388.89	9357.17
389.10	9946.98
389.31	8689.53
389.52	7593.87
389.73	6686.62
389.93	6150.05
390.14	5869.48
390.35	5275.57
390.56	4579.26
390.77	3835.85
390.98	3065.81
391.18	2418.65
391.39	2158.56
391.60	1886.18
391.81	1779.68
392.02	1730.53
392.23	1865.70
392.43	1705.96
392.64	1771.49
392.85	1755.11
393.06	1804.26
393.27	1646.57
393.47	1683.43
393.68	1763.30
393.89	1675.24
394.10	1791.97
394.31	1648.61
394.52	1687.53
394.72	1740.77
394.93	1804.26
395.14	1583.08
395.35	1665.00
395.56	1679.33
395.76	1718.25
395.97	1718.25
396.18	1800.16
396.39	1886.18
396.60	2017.25
396.80	1933.28
397.01	1843.17
397.22	1746.92
397.43	1845.22
397.64	1738.73
397.84	1746.92
398.05	1877.99
398.26	1734.63
398.47	1777.64
398.67	1751.01
398.88	1742.82
399.09	1796.07
399.30	1636.33
399.51	1742.82
399.71	1665.00
399.92	1697.77
400.13	1757.16
400.34	1660.90
400.54	1667.05
400.75	1880.04
400.96	1685.48
401.17	1820.64
401.37	1779.68
401.58	1685.48
401.79	1705.96
402.00	1865.70
402.21	1988.58
402.41	1994.72
402.62	2041.82
402.83	2004.96
403.04	1966.05
403.24	2009.06
403.45	1865.70
403.66	1877.99
403.87	1902.56
404.07	1933.28
404.28	1867.75
404.49	1882.08
404.70	1779.68
404.90	1822.69
405.11	1767.40
405.32	1724.39
405.52	1710.05
405.73	1675.24
405.94	1701.86
406.15	1685.48
406.35	1732.58
406.56	1746.92
406.77	1708.01
406.98	1708.01
407.18	1626.09
407.39	1753.06
407.60	1697.77
407.80	1794.02
408.01	1665.00
408.22	1798.12
408.43	1679.33
408.63	1724.39
408.84	1771.49
409.05	1714.15
409.25	1640.42
409.46	1722.34
409.67	1675.24
409.88	1703.91
410.08	1748.97
410.29	1673.19
410.50	1708.01
410.70	1718.25
410.91	1574.89
411.12	1798.12
411.32	1705.96
411.53	1619.94
411.74	1720.29
411.95	1722.34
412.15	1716.20
412.36	1796.07
412.57	1701.86
412.77	1781.73
412.98	1701.86
413.19	1671.14
413.39	1771.49
413.60	1724.39
413.81	1777.64
414.01	1708.01
414.22	1685.48
414.43	1736.68
414.63	1726.44
414.84	1755.11
415.05	1656.81
415.25	1599.46
415.46	1771.49
415.67	1718.25
415.87	1712.10
416.08	1759.21
416.29	1660.90
416.49	1722.34
416.70	1683.43
416.91	1697.77
417.11	1644.52
417.32	1673.19
417.53	1806.31
417.73	1726.44
417.94	1630.18
418.15	1748.97
418.35	1779.68
418.56	1718.25
418.77	1812.45
418.97	1681.38
419.18	1726.44
419.38	1517.54
419.59	1734.63
419.80	1804.26
420.00	1695.72
420.21	1632.23
420.42	1718.25
420.62	1681.38
420.83	1667.05
421.04	1705.96
421.24	1710.05
421.45	1748.97
421.65	1791.97
421.86	1683.43
422.07	1716.20
422.27	1708.01
422.48	1732.58
422.69	1648.61
422.89	1755.11
423.10	1732.58
423.30	1697.77
423.51	1701.86
423.72	1712.10
423.92	1726.44
424.13	1673.19
424.33	1701.86
424.54	1759.21
424.75	1726.44
424.95	1804.26
425.16	1734.63
425.36	1689.57
425.57	1759.21
425.78	1703.91
425.98	1765.35
426.19	1705.96
426.39	1583.08
426.60	1689.57
426.81	1822.69
427.01	1671.14
427.22	1730.53
427.42	1591.27
427.63	1624.04
427.83	1775.59
428.04	1861.60
428.25	1818.60
428.45	1785.83
428.66	1796.07
428.86	1675.24
429.07	1646.57
429.28	1722.34
429.48	1662.95
429.69	1714.15
429.89	1746.92
430.10	1624.04
430.30	1718.25
430.51	1744.87
430.71	1703.91
430.92	1626.09
431.13	1632.23
431.33	1755.11
431.54	1726.44
431.74	1777.64
431.95	1804.26
432.15	1636.33
432.36	1679.33
432.56	1724.39
432.77	1839.08
432.98	1871.84
433.18	1738.73
433.39	1626.09
433.59	1744.87
433.80	1824.74
434.00	1847.27
434.21	1695.72
434.41	1658.85
434.62	1863.65
434.82	1667.05
435.03	1734.63
435.23	1683.43
435.44	1615.85
435.64	1642.47
435.85	1708.01
436.06	1734.63
436.26	1699.81
436.47	1771.49
436.67	1640.42
436.88	1722.34
437.08	1665.00
437.29	1841.12
437.49	1798.12
437.70	1808.36
437.90	1732.58
438.11	1843.17
438.31	1767.40
438.52	1884.13
438.72	1910.75
438.93	1988.58
439.13	1746.92
439.34	1867.75
439.54	1730.53
439.75	1800.16
439.95	1808.36
440.16	1718.25
440.36	1785.83
440.57	1812.45
440.77	1732.58
440.98	1736.68
441.18	1730.53
441.39	1665.00
441.59	1658.85
441.80	1804.26
442.00	1767.40
442.21	1783.78
442.41	1626.09
442.62	1744.87
442.82	1720.29
443.02	1779.68
443.23	1736.68
443.43	1703.91
443.64	1789.92
443.84	1644.52
444.05	1820.64
444.25	1773.54
444.46	1675.24
444.66	1746.92
444.87	1779.68
445.07	1648.61
445.28	1685.48
445.48	1871.84
445.69	1773.54
445.89	1863.65
446.09	1757.16
446.30	2021.35
446.50	2635.74
446.71	3696.58
446.91	4257.73
447.12	4796.34
447.32	4839.35
447.53	4370.37
447.73	3909.57
447.93	3516.36
448.14	3254.22
448.34	3303.37
448.55	2992.08
448.75	2801.62
448.96	2791.38
449.16	2461.66
449.36	2297.82
449.57	2115.55
449.77	1923.04
449.98	1824.74
450.18	1834.98
450.39	1837.03
450.59	1783.78
450.79	1726.44
451.00	1734.63
451.20	1837.03
451.41	1773.54
451.61	1765.35
451.81	1794.02
452.02	1785.83
452.22	1691.62
452.43	1624.04
452.63	1648.61
452.84	1753.06
453.04	1757.16
453.24	1689.57
453.45	1705.96
453.65	1714.15
453.86	1826.79
454.06	1738.73
454.26	1736.68
454.47	1728.49
454.67	1820.64
454.87	1771.49
455.08	1640.42
455.28	1832.93
455.49	1675.24
455.69	1783.78
455.89	1906.66
456.10	1753.06
456.30	1730.53
456.51	1791.97
456.71	1828.84
456.91	1763.30
457.12	1740.77
457.32	1683.43
457.52	1746.92
457.73	1783.78
457.93	1824.74
458.14	1673.19
458.34	1650.66
458.54	1777.64
458.75	1736.68
458.95	1853.41
459.15	1703.91
459.36	1804.26
459.56	1746.92
459.76	1781.73
459.97	1685.48
460.17	1662.95
460.37	1828.84
460.58	1724.39
460.78	1665.00
460.99	1712.10
461.19	1691.62
461.39	1710.05
461.60	1722.34
461.80	1699.81
462.00	1714.15
462.21	1800.16
462.41	1648.61
462.61	1738.73
462.82	1560.55
463.02	1826.79
463.22	1724.39
463.43	1808.36
463.63	1681.38
463.83	1742.82
464.04	1744.87
464.24	1687.53
464.44	1673.19
464.64	1736.68
464.85	1634.28
465.05	1755.11
465.25	1738.73
465.46	1720.29
465.66	1789.92
465.86	1722.34
466.07	1701.86
466.27	1662.95
466.47	1677.29
466.68	1640.42
466.88	1818.60
467.08	1728.49
467.29	1751.01
467.49	1773.54
467.69	1734.63
467.89	1800.16
468.10	1687.53
468.30	1724.39
468.50	1787.88
468.71	1744.87
468.91	1566.70
469.11	1783.78
469.31	1796.07
469.52	1609.70
469.72	1767.40
469.92	1822.69
470.13	1691.62
470.33	1771.49
470.53	1761.25
470.73	2074.59
470.94	2430.94
471.14	2263.01
471.34	2484.19
471.54	2389.98
471.75	2238.43
471.95	2111.46
472.15	1986.53
472.36	2045.92
472.56	2062.30
472.76	2099.17
472.96	1970.15
473.17	1912.80
473.37	1951.71
473.57	1738.73
473.77	1767.40
473.98	1802.21
474.18	1689.57
474.38	1923.04
474.58	1742.82
474.79	1634.28
474.99	1687.53
475.19	1748.97
475.39	1685.48
475.60	1734.63
475.80	1755.11
476.00	1693.67
476.20	1601.51
476.41	1705.96
476.61	1859.56
476.81	1759.21
477.01	1638.38
477.21	1890.28
477.42	1787.88
477.62	1685.48
477.82	1757.16
478.02	1716.20
478.23	1740.77
478.43	1740.77
478.63	1812.45
478.83	1671.14
479.03	1689.57
479.24	1722.34
479.44	1812.45
479.64	1701.86
479.84	1656.81
480.04	1669.09
480.25	1742.82
480.45	1746.92
480.65	1726.44
480.85	1853.41
481.06	1714.15
481.26	1693.67
481.46	1669.09
481.66	1740.77
481.86	1687.53
482.06	1753.06
482.27	1669.09
482.47	1703.91
482.67	1744.87
482.87	1718.25
483.07	1775.59
483.28	1781.73
483.48	1695.72
483.68	1767.40
483.88	1763.30
484.08	1624.04
484.29	1667.05
484.49	1736.68
484.69	1644.52
484.89	1759.21
485.09	1755.11
485.29	1732.58
485.50	1751.01
485.70	1681.38
485.90	1779.68
486.10	1802.21
486.30	1804.26
486.50	1779.68
486.71	1718.25
486.91	1714.15
487.11	1769.44
487.31	1607.66
487.51	1687.53
487.71	1621.99
487.91	1685.48
488.12	1662.95
488.32	1566.70
488.52	1695.72
488.72	1574.89
488.92	1734.63
489.12	1740.77
489.32	1808.36
489.53	1710.05
489.73	1617.90
489.93	1820.64
490.13	1642.47
490.33	1617.90
490.53	1742.82
490.73	1691.62
490.94	1560.55
491.14	1779.68
491.34	1841.12
491.54	2197.47
491.74	2555.86
491.94	2947.03
492.14	2871.25
492.34	3049.43
492.54	2797.53
492.75	2420.70
492.95	2525.15
493.15	2293.72
493.35	2344.92
493.55	2252.77
493.75	2117.60
493.95	2133.98
494.15	2064.35
494.35	1877.99
494.56	1855.46
494.76	1748.97
494.96	1785.83
495.16	1740.77
495.36	1755.11
495.56	1746.92
495.76	1751.01
495.96	1714.15
496.16	1644.52
496.36	1828.84
496.56	1736.68
496.77	1806.31
496.97	1644.52
497.17	1785.83
497.37	1636.33
497.57	1787.88
497.77	1689.57
497.97	1646.57
498.17	1673.19
498.37	1687.53
498.57	1744.87
498.77	1658.85
498.97	1771.49
499.17	1804.26
499.38	1632.23
499.58	1832.93
499.78	1787.88
499.98	1722.34
500.18	1767.40
500.38	1701.86
500.58	1900.52
500.78	2607.06
500.98	4468.67
501.18	5726.12
501.38	6746.01
501.58	6928.28
501.78	6649.75
501.98	5541.80
502.18	5038.00
502.38	4405.18
502.58	4177.86
502.78	3778.50
502.98	3542.99
503.18	3477.45
503.38	3084.24
503.59	2875.35
503.79	2631.64
503.99	2457.56
504.19	2392.03
504.39	2164.70
504.59	2154.46
504.79	2117.60
504.99	2076.64
505.19	1923.04
505.39	1898.47
505.59	2002.91
505.79	1904.61
505.99	1894.37
506.19	1826.79
506.39	1925.09
506.59	1759.21
506.79	1832.93
506.99	1810.40
507.19	1726.44
507.39	1738.73
507.59	1613.80
507.79	1742.82
507.99	1671.14
508.19	1724.39
508.39	1699.81
508.59	1701.86
508.79	1775.59
508.99	1853.41
509.19	1675.24
509.39	1804.26
509.59	1736.68
509.79	1646.57
509.99	1746.92
510.19	1824.74
510.39	1818.60
510.59	1710.05
510.79	1624.04
510.99	1710.05
511.19	1703.91
511.39	1714.15
511.59	1791.97
511.79	1757.16
511.99	1714.15
512.19	1808.36
512.38	1753.06
512.58	1697.77
512.78	1621.99
512.98	1796.07
513.18	1804.26
513.38	1613.80
513.58	1718.25
513.78	1775.59
513.98	1730.53
514.18	1712.10
514.38	1734.63
514.58	1716.20
514.78	1728.49
514.98	1660.90
515.18	1689.57
515.38	1658.85
515.58	1814.50
515.78	1697.77
515.98	1705.96
516.18	1724.39
516.38	1759.21
516.57	1665.00
516.77	1701.86
516.97	1785.83
517.17	1767.40
517.37	1619.94
517.57	1736.68
517.77	1736.68
517.97	1691.62
518.17	1759.21
518.37	1689.57
518.57	1640.42
518.77	1677.29
518.97	1677.29
519.16	1781.73
519.36	1832.93
519.56	1636.33
519.76	1705.96
519.96	1701.86
520.16	1824.74
520.36	1665.00
520.56	1777.64
520.76	1732.58
520.96	1636.33
521.16	1724.39
521.35	1789.92
521.55	1794.02
521.75	1695.72
521.95	1689.57
522.15	1671.14
522.35	1632.23
522.55	1634.28
522.75	1787.88
522.95	1681.38
523.14	1679.33
523.34	1779.68
523.54	1675.24
523.74	1824.74
523.94	1736.68
524.14	1671.14
524.34	1771.49
524.54	1851.36
524.73	1724.39
524.93	1730.53
525.13	1693.67
525.33	1665.00
525.53	1896.42
525.73	1769.44
525.93	1714.15
526.13	1669.09
526.32	1732.58
526.52	1742.82
526.72	1763.30
526.92	1714.15
527.12	1736.68
527.32	1748.97
527.52	1812.45
527.71	1718.25
527.91	1712.10
528.11	1630.18
528.31	1722.34
528.51	1669.09
528.71	1802.21
528.90	1746.92
529.10	1785.83
529.30	1794.02
529.50	1583.08
529.70	1746.92
529.90	1738.73
530.09	1744.87
530.29	1648.61
530.49	1669.09
530.69	1834.98
530.89	1718.25
531.09	1742.82
531.28	1722.34
531.48	1841.12
531.68	1751.01
531.88	1753.06
532.08	1718.25
532.28	1785.83
532.47	1777.64
532.67	1771.49
532.87	1703.91
533.07	1746.92
533.27	1812.45
533.46	1757.16
533.66	1730.53
533.86	1667.05
534.06	1718.25
534.26	1742.82
534.45	1718.25
534.65	1851.36
534.85	1734.63
535.05	1722.34
535.25	1703.91
535.44	1675.24
535.64	1767.40
535.84	1650.66
536.04	1665.00
536.24	1644.52
536.43	1615.85
536.63	1746.92
536.83	1683.43
537.03	1732.58
537.22	1599.46
537.42	1687.53
537.62	1791.97
537.82	1701.86
538.02	1812.45
538.21	1781.73
538.41	1898.47
538.61	1796.07
538.81	1718.25
539.00	1761.25
539.20	1656.81
539.40	1665.00
539.60	1785.83
539.79	1787.88
539.99	1697.77
540.19	1687.53
540.39	1769.44
540.58	1787.88
540.78	1798.12
540.98	1701.86
541.18	1763.30
541.37	1753.06
541.57	1703.91
541.77	1771.49
541.97	1744.87
542.16	1652.71
542.36	1638.38
542.56	1673.19
542.76	1783.78
542.95	1806.31
543.15	1824.74
543.35	1882.08
543.54	1671.14
543.74	1679.33
543.94	1746.92
544.14	1693.67
544.33	1783.78
544.53	1798.12
544.73	1701.86
544.93	1705.96
545.12	1742.82
545.32	1753.06
545.52	1699.81
545.71	1697.77
545.91	1714.15
546.11	1759.21
546.30	1705.96
546.50	1771.49
546.70	1716.20
546.90	1728.49
547.09	1615.85
547.29	1703.91
547.49	1755.11
547.68	1738.73
547.88	1615.85
548.08	1769.44
548.27	2168.80
548.47	1665.00
548.67	1685.48
548.87	1785.83
549.06	1781.73
549.26	1693.67
549.46	1765.35
549.65	1740.77
549.85	1738.73
550.05	1763.30
550.24	1656.81
550.44	1701.86
550.64	1705.96
550.83	1708.01
551.03	1742.82
551.23	1755.11
551.42	1802.21
551.62	1671.14
551.82	1714.15
552.01	1708.01
552.21	1673.19
552.41	1738.73
552.60	1802.21
552.80	1726.44
553.00	1730.53
553.19	1736.68
553.39	1869.80
553.59	1708.01
553.78	1767.40
553.98	1685.48
554.17	1681.38
554.37	1783.78
554.57	1759.21
554.76	1632.23
554.96	1683.43
555.16	1722.34
555.35	1757.16
555.55	1724.39
555.75	1816.55
555.94	1763.30
556.14	1538.02
556.33	1767.40
556.53	1742.82
556.73	1708.01
556.92	1714.15
557.12	1775.59
557.32	1834.98
557.51	1810.40
557.71	1779.68
557.90	1812.45
558.10	1867.75
558.30	1591.27
558.49	1783.78
558.69	1689.57
558.88	1761.25
559.08	1753.06
559.28	1769.44
559.47	1759.21
559.67	1798.12
559.86	1849.32
560.06	1718.25
560.26	1724.39
560.45	1779.68
560.65	1675.24
560.84	1853.41
561.04	1691.62
561.24	1742.82
561.43	1708.01
561.63	1861.60
561.82	1718.25
562.02	1800.16
562.22	1712.10
562.41	1673.19
562.61	1732.58
562.80	1703.91
563.00	1855.46
563.19	1783.78
563.39	1728.49
563.59	1775.59
563.78	1710.05
563.98	1609.70
564.17	1701.86
564.37	1669.09
564.56	1691.62
564.76	1744.87
564.96	1918.95
565.15	1636.33
565.35	1873.89
565.54	1769.44
565.74	1773.54
565.93	1785.83
566.13	1828.84
566.32	1708.01
566.52	1777.64
566.71	1767.40
566.91	1796.07
567.11	1685.48
567.30	1656.81
567.50	1806.31
567.69	1753.06
567.89	1748.97
568.08	1728.49
568.28	1722.34
568.47	1738.73
568.67	1736.68
568.86	1681.38
569.06	1880.04
569.25	1703.91
569.45	1630.18
569.64	1699.81
569.84	1722.34
570.04	1751.01
570.23	1759.21
570.43	1785.83
570.62	1781.73
570.82	1765.35
571.01	1681.38
571.21	1646.57
571.40	1730.53
571.60	1845.22
571.79	1820.64
571.99	1775.59
572.18	1730.53
572.38	1753.06
572.57	1703.91
572.77	1738.73
572.96	1824.74
573.16	1775.59
573.35	1755.11
573.55	1728.49
573.74	1763.30
573.94	1783.78
574.13	1730.53
574.33	1746.92
574.52	1783.78
574.71	1701.86
574.91	1730.53
575.10	1673.19
575.30	1755.11
575.49	1718.25
575.69	1714.15
575.88	1757.16
576.08	1689.57
576.27	1787.88
576.47	1732.58
576.66	1804.26
576.86	1785.83
577.05	1722.34
577.25	1773.54
577.44	1832.93
577.64	1763.30
577.83	1791.97
578.02	1722.34
578.22	1871.84
578.41	1808.36
578.61	1732.58
578.80	1650.66
579.00	1718.25
579.19	1744.87
579.39	1824.74
579.58	1845.22
579.77	1673.19
579.97	1781.73
580.16	1822.69
580.36	1812.45
580.55	1824.74
580.75	1751.01
580.94	1777.64
581.13	1863.65
581.33	1847.27
581.52	1761.25
581.72	1796.07
581.91	1787.88
582.11	1720.29
582.30	1820.64
582.49	1775.59
582.69	1812.45
582.88	1779.68
583.08	1744.87
583.27	1822.69
583.47	1783.78
583.66	1656.81
583.85	1695.72
584.05	1767.40
584.24	1794.02
584.44	1787.88
584.63	1880.04
584.82	1812.45
585.02	1787.88
585.21	1830.88
585.41	1875.94
585.60	1818.60
585.79	1931.23
585.99	1935.33
586.18	1873.89
586.37	2162.66
586.57	3321.81
586.76	9926.50
586.96	24422.03
587.15	34526.71
587.34	40207.77
587.54	41952.64
587.73	36503.00
587.93	26242.67
588.12	21638.84
588.31	18065.13
588.51	16422.66
588.70	15206.17
588.89	13887.28
589.09	12482.37
589.28	10995.54
589.47	9545.58
589.67	8052.61
589.86	6281.12
590.06	4999.09
590.25	3829.70
590.44	3043.28
590.64	2617.30
590.83	2351.07
591.02	2062.30
591.22	1996.77
591.41	1972.19
591.60	1818.60
591.80	1904.61
591.99	1720.29
592.18	1896.42
592.38	1865.70
592.57	1746.92
592.76	1851.36
592.96	1808.36
593.15	1685.48
593.34	1882.08
593.54	1677.29
593.73	1818.60
593.92	1802.21
594.12	1761.25
594.31	1812.45
594.50	1779.68
594.70	1814.50
594.89	1882.08
595.08	1665.00
595.28	1701.86
595.47	1931.23
595.66	1791.97
595.86	1687.53
596.05	1777.64
596.24	1652.71
596.43	1869.80
596.63	1873.89
596.82	1751.01
597.01	1716.20
597.21	1834.98
597.40	1769.44
597.59	1779.68
597.79	1689.57
597.98	1718.25
598.17	1740.77
598.36	1755.11
598.56	1730.53
598.75	1675.24
598.94	1824.74
599.14	1714.15
599.33	1724.39
599.52	1775.59
599.71	1748.97
599.91	1728.49
600.10	1726.44
600.29	1759.21
600.48	1802.21
600.68	1730.53
600.87	1769.44
601.06	1697.77
601.26	1736.68
601.45	1808.36
601.64	1679.33
601.83	1863.65
602.03	1626.09
602.22	1640.42
602.41	1806.31
602.60	1886.18
602.80	1791.97
602.99	1771.49
603.18	1681.38
603.37	1779.68
603.57	1748.97
603.76	1800.16
603.95	1832.93
604.14	1755.11
604.34	1648.61
604.53	1773.54
604.72	1748.97
604.91	1808.36
605.10	1759.21
605.30	1640.42
605.49	1914.85
605.68	1763.30
605.87	1818.60
606.07	1796.07
606.26	1734.63
606.45	1718.25
606.64	1695.72
606.84	1673.19
607.03	1734.63
607.22	1740.77
607.41	1669.09
607.60	1667.05
607.80	1675.24
607.99	1699.81
608.18	1716.20
608.37	1757.16
608.56	1757.16
608.76	1740.77
608.95	1814.50
609.14	1728.49
609.33	1746.92
609.52	1808.36
609.72	1767.40
609.91	1791.97
610.10	1691.62
610.29	1779.68
610.48	1726.44
610.68	1773.54
610.87	1691.62
611.06	1822.69
611.25	1634.28
611.44	1841.12
611.63	1658.85
611.83	1814.50
612.02	1667.05
612.21	1734.63
612.40	1687.53
612.59	1697.77
612.79	1697.77
612.98	1740.77
613.17	1847.27
613.36	1691.62
613.55	1800.16
613.74	1718.25
613.93	1691.62
614.13	1734.63
614.32	1722.34
614.51	1751.01
614.70	1685.48
614.89	1726.44
615.08	1687.53
615.28	2009.06
615.47	1650.66
615.66	1732.58
615.85	1722.34
616.04	1697.77
616.23	1751.01
616.42	1695.72
616.62	1742.82
616.81	1800.16
617.00	1697.77
617.19	1746.92
617.38	1740.77
617.57	1714.15
617.76	1765.35
617.95	1710.05
618.15	1732.58
618.34	1839.08
618.53	1665.00
618.72	1767.40
618.91	1789.92
619.10	1884.13
619.29	1773.54
619.48	1685.48
619.68	1677.29
619.87	1734.63
620.06	1677.29
620.25	1791.97
620.44	1759.21
620.63	1783.78
620.82	1662.95
621.01	1748.97
621.20	1665.00
621.39	1765.35
621.59	1771.49
621.78	1701.86
621.97	1656.81
622.16	1765.35
622.35	1662.95
622.54	1681.38
622.73	1753.06
622.92	1628.14
623.11	1695.72
623.30	1720.29
623.49	1798.12
623.68	1667.05
623.88	1783.78
624.07	1683.43
624.26	1726.44
624.45	1773.54
624.64	1681.38
624.83	1677.29
625.02	1722.34
625.21	1699.81
625.40	1744.87
625.59	1771.49
625.78	1705.96
625.97	1777.64
626.16	1808.36
626.35	1781.73
626.54	1685.48
626.74	1806.31
626.93	1722.34
627.12	1683.43
627.31	1675.24
627.50	1773.54
627.69	1822.69
627.88	1621.99
628.07	1744.87
628.26	1607.66
628.45	1667.05
628.64	1667.05
628.83	1701.86
629.02	1642.47
629.21	1734.63
629.40	1730.53
629.59	1648.61
629.78	1656.81
629.97	1695.72
630.16	1734.63
630.35	1677.29
630.54	1648.61
630.73	1685.48
630.92	1685.48
631.11	1679.33
631.30	1738.73
631.49	1798.12
631.68	1726.44
631.87	1794.02
632.06	1626.09
632.25	1791.97
632.44	1734.63
632.63	1796.07
632.82	1632.23
633.01	1658.85
633.20	1681.38
633.39	1583.08
633.58	1642.47
633.77	1730.53
633.96	1773.54
634.15	1685.48
634.34	1667.05
634.53	1751.01
634.72	1732.58
634.91	1636.33
635.10	1796.07
635.29	1771.49
635.48	1644.52
635.67	1679.33
635.86	1699.81
636.05	1759.21
636.24	1779.68
636.43	1732.58
636.62	1738.73
636.81	1593.32
637.00	1781.73
637.19	1736.68
637.38	1679.33
637.57	1714.15
637.76	1701.86
637.95	1783.78
638.14	1636.33
638.33	1705.96
638.52	1695.72
638.71	1687.53
638.89	1689.57
639.08	1787.88
639.27	1722.34
639.46	1681.38
639.65	1820.64
639.84	1734.63
640.03	1812.45
640.22	1761.25
640.41	1796.07
640.60	1660.90
640.79	1724.39
640.98	1632.23
641.17	1728.49
641.36	1712.10
641.55	1746.92
641.74	1576.94
641.92	1636.33
642.11	1642.47
642.30	1691.62
642.49	1699.81
642.68	1681.38
642.87	1671.14
643.06	1683.43
643.25	1722.34
643.44	1683.43
643.63	1638.38
643.82	1765.35
644.00	1669.09
644.19	1714.15
644.38	1667.05
644.57	1732.58
644.76	1660.90
644.95	1734.63
645.14	1777.64
645.33	1644.52
645.52	1746.92
645.71	1744.87
645.89	1662.95
646.08	1693.67
646.27	1714.15
646.46	1738.73
646.65	1566.70
646.84	1708.01
647.03	1638.38
647.22	1714.15
647.40	1767.40
647.59	1732.58
647.78	1632.23
647.97	1679.33
648.16	1650.66
648.35	1789.92
648.54	1744.87
648.73	1675.24
648.91	1683.43
649.10	1671.14
649.29	1683.43
649.48	1673.19
649.67	1683.43
649.86	1701.86
650.05	1646.57
650.23	1722.34
650.42	1671.14
650.61	1726.44
650.80	1708.01
650.99	1820.64
651.18	1767.40
651.36	1765.35
651.55	1660.90
651.74	1710.05
651.93	1652.71
652.12	1642.47
652.31	1714.15
652.49	1734.63
652.68	1648.61
652.87	1794.02
653.06	1712.10
653.25	1832.93
653.44	1699.81
653.62	1777.64
653.81	1673.19
654.00	1822.69
654.19	1744.87
654.38	1908.71
654.56	1761.25
654.75	1708.01
654.94	1787.88
655.13	1724.39
655.32	1742.82
655.51	1753.06
655.69	1722.34
655.88	1753.06
656.07	1665.00
656.26	1761.25
656.45	1683.43
656.63	1673.19
656.82	1742.82
657.01	1738.73
657.20	1697.77
657.38	1771.49
657.57	1693.67
657.76	1638.38
657.95	1859.56
658.14	1697.77
658.32	1722.34
658.51	1705.96
658.70	1804.26
658.89	1730.53
659.08	1767.40
659.26	1834.98
659.45	1687.53
659.64	1744.87
659.83	1679.33
660.01	1877.99
660.20	1710.05
660.39	1847.27
660.58	1648.61
660.76	1777.64
660.95	1650.66
661.14	1701.86
661.33	1720.29
661.51	1753.06
661.70	1679.33
661.89	1687.53
662.08	1748.97
662.26	1714.15
662.45	1681.38
662.64	1808.36
662.83	1720.29
663.01	1583.08
663.20	1734.63
663.39	1877.99
663.58	1714.15
663.76	1673.19
663.95	1757.16
664.14	1738.73
664.32	1755.11
664.51	1728.49
664.70	1599.46
664.89	1705.96
665.07	1693.67
665.26	1888.23
665.45	1617.90
665.64	1787.88
665.82	1695.72
666.01	1769.44
666.20	1679.33
666.38	1814.50
666.57	1804.26
666.76	2158.56
666.95	4292.54
667.13	10381.15
667.32	15107.87
667.51	17698.55
667.69	19134.17
667.88	17835.76
668.07	12336.96
668.25	9531.25
668.44	8183.68
668.63	7516.05
668.81	6850.46
669.00	6285.22
669.19	5756.84
669.38	5052.34
669.56	4329.41
669.75	4044.74
669.94	3364.81
670.12	2885.59
670.31	2492.38
670.50	2263.01
670.68	2088.93
670.87	1933.28
671.06	1796.07
671.24	1812.45
671.43	1839.08
671.62	1718.25
671.80	1751.01
671.99	1722.34
672.18	1650.66
672.36	1740.77
672.55	1701.86
672.74	1783.78
672.92	1642.47
673.11	1761.25
673.29	1671.14
673.48	1771.49
673.67	1710.05
673.85	1705.96
674.04	1626.09
674.23	1712.10
674.41	1861.60
674.60	1669.09
674.79	1554.41
674.97	1662.95
675.16	1820.64
675.34	1701.86
675.53	1660.90
675.72	1689.57
675.90	1826.79
676.09	1685.48
676.28	1732.58
676.46	1556.46
676.65	1773.54
676.83	1740.77
677.02	1708.01
677.21	1724.39
677.39	1751.01
677.58	1679.33
677.77	1697.77
677.95	1673.19
678.14	1667.05
678.32	1697.77
678.51	1662.95
678.70	1890.28
678.88	1681.38
679.07	1775.59
679.25	1759.21
679.44	1626.09
679.63	1624.04
679.81	1728.49
680.00	1767.40
680.18	1705.96
680.37	1777.64
680.55	1689.57
680.74	1714.15
680.93	1677.29
681.11	1767.40
681.30	1724.39
681.48	1708.01
681.67	1658.85
681.85	1660.90
682.04	1654.76
682.23	1712.10
682.41	1730.53
682.60	1665.00
682.78	1660.90
682.97	1634.28
683.15	1763.30
683.34	1732.58
683.53	1877.99
683.71	1650.66
683.90	1880.04
684.08	1804.26
684.27	1703.91
684.45	1671.14
684.64	1755.11
684.82	1783.78
685.01	1660.90
685.19	1714.15
685.38	1832.93
685.57	1726.44
685.75	1693.67
685.94	1669.09
686.12	1716.20
686.31	1660.90
686.49	1708.01
686.68	1585.13
686.86	1679.33
687.05	1734.63
687.23	1859.56
687.42	1695.72
687.60	1640.42
687.79	1779.68
687.97	1732.58
688.16	1814.50
688.34	1837.03
688.53	1613.80
688.71	1746.92
688.90	1843.17
689.08	1687.53
689.27	1638.38
689.45	1769.44
689.64	1714.15
689.82	1785.83
690.01	1712.10
690.19	1757.16
690.38	1718.25
690.56	1681.38
690.75	1646.57
690.93	1667.05
691.12	1697.77
691.30	1783.78
691.49	1642.47
691.67	1658.85
691.86	1845.22
692.04	1591.27
692.23	1673.19
692.41	1705.96
692.60	1853.41
692.78	1785.83
692.97	1689.57
693.15	1730.53
693.34	1667.05
693.52	1734.63
693.71	1701.86
693.89	1689.57
694.08	1632.23
694.26	1759.21
694.44	1753.06
694.63	1705.96
694.81	1617.90
695.00	1587.18
695.18	1763.30
695.37	1757.16
695.55	1570.79
695.74	1595.37
695.92	1642.47
696.10	1820.64
696.29	1611.75
696.47	1660.90
696.66	1607.66
696.84	1660.90
697.03	1718.25
697.21	1740.77
697.40	2293.72
697.58	1837.03
697.76	1626.09
697.95	1626.09
698.13	1746.92
698.32	1691.62
698.50	1730.53
698.68	1738.73
698.87	1681.38
699.05	1767.40
699.24	1738.73
699.42	1617.90
699.61	1683.43
699.79	1777.64
699.97	1667.05
700.16	1626.09
700.34	1662.95
700.53	1775.59
700.71	1728.49
700.89	1699.81
701.08	1701.86
701.26	1673.19
701.45	2052.06
701.63	1718.25
701.81	1681.38
702.00	1679.33
702.18	1650.66
702.37	1640.42
702.55	1716.20
702.73	1669.09
702.92	1703.91
703.10	1746.92
703.28	1720.29
703.47	1621.99
703.65	1785.83
703.84	1783.78
704.02	1656.81
704.20	1781.73
704.39	1710.05
704.57	1724.39
704.75	1810.40
704.94	1787.88
705.12	1753.06
705.30	1818.60
705.49	2273.25
705.67	4329.41
705.86	9508.72
706.04	12455.75
706.22	14698.27
706.41	15365.91
706.59	13893.42
706.77	9451.38
706.96	7323.54
707.14	6576.03
707.32	5816.23
707.51	5533.61
707.69	4919.22
707.87	4181.95
708.06	3502.03
708.24	3022.80
708.42	2445.27
708.61	2265.05
708.79	1949.67
708.97	1961.95
709.16	1822.69
709.34	1757.16
709.52	1755.11
709.71	1687.53
709.89	1761.25
710.07	1679.33
710.26	1689.57
710.44	1687.53
710.62	1716.20
710.80	1716.20
710.99	1755.11
711.17	1732.58
711.35	1687.53
711.54	1558.50
711.72	1783.78
711.90	1732.58
712.09	1738.73
712.27	1697.77
712.45	1705.96
712.63	1658.85
712.82	1685.48
713.00	1701.86
713.18	1751.01
713.37	1777.64
713.55	1722.34
713.73	1724.39
713.91	1697.77
714.10	1714.15
714.28	1665.00
714.46	1677.29
714.65	1796.07
714.83	1718.25
715.01	1705.96
715.19	1677.29
715.38	1665.00
715.56	1650.66
715.74	1734.63
715.92	1660.90
716.11	1738.73
716.29	1640.42
716.47	1677.29
716.65	1566.70
716.84	1660.90
717.02	1708.01
717.20	1611.75
717.38	1738.73
717.57	1744.87
717.75	1714.15
717.93	1685.48
718.11	1746.92
718.30	1665.00
718.48	1746.92
718.66	1767.40
718.84	1724.39
719.03	1636.33
719.21	1667.05
719.39	1826.79
719.57	1751.01
719.75	1720.29
719.94	1646.57
720.12	1728.49
720.30	1746.92
720.48	1726.44
720.67	1718.25
720.85	1677.29
721.03	1619.94
721.21	1689.57
721.39	1693.67
721.58	1732.58
721.76	1701.86
721.94	1703.91
722.12	1724.39
722.30	1724.39
722.49	1683.43
722.67	1689.57
722.85	1687.53
723.03	1613.80
723.21	1632.23
723.40	1789.92
723.58	1740.77
723.76	1660.90
723.94	1722.34
724.12	1685.48
724.30	1714.15
724.49	1667.05
724.67	1671.14
724.85	1804.26
725.03	1615.85
725.21	1726.44
725.40	1839.08
725.58	1681.38
725.76	1771.49
725.94	1724.39
726.12	1599.46
726.30	1660.90
726.49	1691.62
726.67	1775.59
726.85	1755.11
727.03	1757.16
727.21	2095.07
727.39	2951.12
727.57	3723.21
727.76	4212.67
727.94	4386.75
728.12	4444.09
728.30	3633.10
728.48	2947.03
728.66	2820.05
728.84	2557.91
729.03	2381.79
729.21	2150.37
729.39	2021.35
729.57	1822.69
729.75	1820.64
729.93	1757.16
730.11	1757.16
730.30	1671.14
730.48	1710.05
730.66	1777.64
730.84	1701.86
731.02	1732.58
731.20	1642.47
731.38	1675.24
731.56	1650.66
731.74	1613.80
731.93	1708.01
732.11	1781.73
732.29	1708.01
732.47	1687.53
732.65	1732.58
732.83	1748.97
733.01	1744.87
733.19	1683.43
733.37	1726.44
733.56	1718.25
733.74	1636.33
733.92	1796.07
734.10	1703.91
734.28	1697.77
734.46	1636.33
734.64	1693.67
734.82	1771.49
735.00	1634.28
735.18	1712.10
735.36	1685.48
735.54	1734.63
735.73	1691.62
735.91	1751.01
736.09	1742.82
736.27	1722.34
736.45	1751.01
736.63	1658.85
736.81	1634.28
736.99	1726.44
737.17	1740.77
737.35	1671.14
737.53	1708.01
737.71	1687.53
737.89	1779.68
738.07	1665.00
738.25	1603.56
738.43	1656.81
738.61	1683.43
738.80	1667.05
738.98	1691.62
739.16	1705.96
739.34	1607.66
739.52	1787.88
739.70	1679.33
739.88	1748.97
740.06	1800.16
740.24	1615.85
740.42	1730.53
740.60	1544.17
740.78	1646.57
740.96	1595.37
741.14	1646.57
741.32	1658.85
741.50	1605.61
741.68	1783.78
741.86	1673.19
742.04	1658.85
742.22	1619.94
742.40	1695.72
742.58	1683.43
742.76	1660.90
742.94	1726.44
743.12	1599.46
743.30	1710.05
743.48	1722.34
743.66	1691.62
743.84	1763.30
744.02	1650.66
744.20	1722.34
744.38	1671.14
744.56	1673.19
744.74	1791.97
744.92	1718.25
745.10	1761.25
745.28	1769.44
745.46	1748.97
745.64	1669.09
745.82	1865.70
746.00	1636.33
746.18	1697.77
746.36	1634.28
746.54	1728.49
746.72	1697.77
746.90	1587.18
747.08	1718.25
747.26	1708.01
747.44	1759.21
747.62	1708.01
747.80	1665.00
747.98	1767.40
748.15	1730.53
748.33	1775.59
748.51	1689.57
748.69	1763.30
748.87	1673.19
749.05	1691.62
749.23	1718.25
749.41	1728.49
749.59	1734.63
749.77	1843.17
749.95	1673.19
750.13	1724.39
750.31	1677.29
750.49	1634.28
750.67	1722.34
750.85	1808.36
751.03	1578.98
751.20	1824.74
751.38	1689.57
751.56	1701.86
751.74	1722.34
751.92	1603.56
752.10	1642.47
752.28	1783.78
752.46	1669.09
752.64	1789.92
752.82	1658.85
753.00	1757.16
753.18	1703.91
753.35	1624.04
753.53	1650.66
753.71	1740.77
753.89	1746.92
754.07	1699.81
754.25	1804.26
754.43	1665.00
754.61	1615.85
754.79	1710.05
754.97	1624.04
755.14	1726.44
755.32	1572.84
755.50	1740.77
755.68	1640.42
755.86	1650.66
756.04	1644.52
756.22	1640.42
756.40	1669.09
756.57	1757.16
756.75	1576.94
756.93	1708.01
757.11	1773.54
757.29	1640.42
757.47	1662.95
757.65	1656.81
757.82	1593.32
758.00	1701.86
758.18	1708.01
758.36	1775.59
758.54	1736.68
758.72	1652.71
758.90	1804.26
759.07	1708.01
759.25	1677.29
759.43	1703.91
759.61	1658.85
759.79	2172.89
759.97	1759.21
760.15	1685.48
760.32	1734.63
760.50	1759.21
760.68	1812.45
760.86	1638.38
761.04	1732.58
761.22	1773.54
761.39	1740.77
761.57	1798.12
761.75	1687.53
761.93	1691.62
762.11	1748.97
762.28	1746.92
762.46	1712.10
762.64	1810.40
762.82	1650.66
763.00	1708.01
763.18	1787.88
763.35	1679.33
763.53	1708.01
763.71	1777.64
763.89	1736.68
764.07	1716.20
764.24	1718.25
764.42	1730.53
764.60	1710.05
764.78	1720.29
764.96	1718.25
765.13	1720.29
765.31	1746.92
765.49	1734.63
765.67	1669.09
765.84	1738.73
766.02	1660.90
766.20	1654.76
766.38	1757.16
766.56	1785.83
766.73	1765.35
766.91	1691.62
767.09	1703.91
767.27	1810.40
767.44	1648.61
767.62	1796.07
767.80	1695.72
767.98	1697.77
768.15	1654.76
768.33	1783.78
768.51	1726.44
768.69	1740.77
768.87	1669.09
769.04	1753.06
769.22	1779.68
769.40	1775.59
769.58	1871.84
769.75	1714.15
769.93	1765.35
770.11	1718.25
770.28	1599.46
770.46	1738.73
770.64	1685.48
770.82	1656.81
770.99	1708.01
771.17	1697.77
771.35	1689.57
771.53	1662.95
771.70	1685.48
771.88	1624.04
772.06	1705.96
772.23	1716.20
772.41	1775.59
772.59	1660.90
772.77	1689.57
772.94	1753.06
773.12	1660.90
773.30	1667.05
773.47	1748.97
773.65	1644.52
773.83	1744.87
774.01	1697.77
774.18	1624.04
774.36	1703.91
774.54	1642.47
774.71	1693.67
774.89	1583.08
775.07	1630.18
775.24	1648.61
775.42	1695.72
775.60	1828.84
775.78	1613.80
775.95	1689.57
776.13	1634.28
776.31	1525.74
776.48	1791.97
776.66	1738.73
776.84	1591.27
777.01	1718.25
777.19	1652.71
777.37	1632.23
777.54	1755.11
777.72	1822.69
777.90	1730.53
778.07	1673.19
778.25	1886.18
778.43	1777.64
778.60	1681.38
778.78	1814.50
778.96	1701.86
779.13	1736.68
779.31	1730.53
779.49	1697.77
779.66	1689.57
779.84	1728.49
780.01	1697.77
780.19	1667.05
780.37	1796.07
780.54	1722.34
780.72	1683.43
780.90	1675.24
781.07	1714.15
781.25	1675.24
781.43	1722.34
781.60	1640.42
781.78	1701.86
781.95	1722.34
782.13	1718.25
782.31	1652.71
782.48	1587.18
782.66	1644.52
782.83	1781.73
783.01	1730.53
783.19	1712.10
783.36	1732.58
783.54	1560.55
783.72	1734.63
783.89	1642.47
784.07	1681.38
784.24	1767.40
784.42	1722.34
784.60	1669.09
784.77	1740.77
784.95	1632.23
785.12	1669.09
785.30	1734.63
785.47	1583.08
785.65	1722.34
785.83	1671.14
786.00	1630.18
786.18	1779.68
786.35	1701.86
786.53	1673.19
786.71	1763.30
786.88	1705.96
787.06	1693.67
787.23	1712.10
787.41	1644.52
787.58	1726.44
787.76	1662.95
787.94	1689.57
788.11	1662.95
788.29	1673.19
788.46	1679.33
788.64	1705.96
788.81	1683.43
788.99	1708.01
789.16	1669.09
789.34	1724.39
789.52	1642.47
789.69	1648.61
789.87	1640.42
790.04	1697.77
790.22	1652.71
790.39	1791.97
790.57	1650.66
790.74	1710.05
790.92	1806.31
791.09	1619.94
791.27	1646.57
791.44	1845.22
791.62	1679.33
791.79	1808.36
791.97	1722.34
792.15	1880.04
792.32	1728.49
792.50	1794.02
792.67	1787.88
792.85	1787.88
793.02	1671.14
793.20	1718.25
793.37	1609.70
793.55	1677.29
793.72	1617.90
793.90	1746.92
794.07	1662.95
794.25	1626.09
794.42	1759.21
794.60	1636.33
794.77	1753.06
794.95	1716.20
795.12	1734.63
795.30	1720.29
795.47	1619.94
795.65	1966.05
795.82	1699.81
796.00	1685.48
796.17	1632.23
796.34	1693.67
796.52	1652.71
796.69	1726.44
796.87	1718.25
797.04	1675.24
797.22	1755.11
797.39	1769.44
797.57	1796.07
797.74	1687.53
797.92	1693.67
798.09	1679.33
798.27	1759.21
798.44	1732.58
798.62	1652.71
798.79	1689.57
798.96	1644.52
799.14	1679.33
799.31	1916.90
799.49	1705.96
799.66	1757.16
799.84	1773.54
800.01	1667.05
800.19	1724.39
800.36	1574.89
800.53	1728.49
800.71	1697.77
800.88	1763.30
801.06	1699.81
801.23	1716.20
801.41	1673.19
801.58	1677.29
801.75	1632.23
801.93	1716.20
802.10	1740.77
802.28	1718.25
802.45	1621.99
802.63	1746.92
802.80	1708.01
802.97	1703.91
803.15	1730.53
803.32	1642.47
803.50	1650.66
803.67	1634.28
803.84	1671.14
804.02	1701.86
804.19	1708.01
804.37	1617.90
804.54	1615.85
804.71	1652.71
804.89	1726.44
805.06	1611.75
805.24	1677.29
805.41	1601.51
805.58	1628.14
805.76	1859.56
805.93	1636.33
806.10	1839.08
806.28	1718.25
806.45	1679.33
806.63	1755.11
806.80	1695.72
806.97	1742.82
807.15	1685.48
807.32	1773.54
807.49	1794.02
807.67	1634.28
807.84	1650.66
808.01	1650.66
808.19	1697.77
808.36	1730.53
808.54	1734.63
808.71	1630.18
808.88	1640.42
809.06	1763.30
809.23	1798.12
809.40	1718.25
809.58	1726.44
809.75	1701.86
809.92	1693.67
810.10	1796.07
810.27	1656.81
810.44	1720.29
810.62	1697.77
810.79	1722.34
810.96	1628.14
811.14	1656.81
811.31	1773.54
811.48	1773.54
811.66	1722.34
811.83	1837.03
812.00	1753.06
812.18	1765.35
812.35	1796.07
812.52	1611.75
812.69	1665.00
812.87	1648.61
813.04	1687.53
813.21	1683.43
813.39	1648.61
813.56	1585.13
813.73	1773.54
813.91	1568.74
814.08	1685.48
814.25	1726.44
814.42	1566.70
814.60	1703.91
814.77	1734.63
814.94	1742.82
815.12	1687.53
815.29	1783.78
815.46	1689.57
815.63	1722.34
815.81	1716.20
815.98	1736.68
816.15	1738.73
816.33	1748.97
816.50	1669.09
816.67	1724.39
816.84	1703.91
817.02	1628.14
817.19	1681.38
817.36	1667.05
817.53	1662.95
817.71	1603.56
817.88	1689.57
818.05	1646.57
818.22	1689.57
818.40	1787.88
818.57	1644.52
818.74	1679.33
818.91	1718.25
819.09	1710.05
819.26	1724.39
819.43	1671.14
819.60	1722.34
819.78	1728.49
819.95	1744.87
820.12	1683.43
820.29	1759.21
820.47	1773.54
820.64	1685.48
820.81	1648.61
820.98	1714.15
821.15	1689.57
821.33	1746.92
821.50	1583.08
821.67	1722.34
821.84	1636.33
822.02	1734.63
822.19	1785.83
822.36	1699.81
822.53	1718.25
822.70	1705.96
822.88	1695.72
823.05	1712.10
823.22	1665.00
823.39	1667.05
823.56	1687.53
823.74	1751.01
823.91	1652.71
824.08	1611.75
824.25	1679.33
824.42	1806.31
824.60	1632.23
824.77	1763.30
824.94	1662.95
825.11	1648.61
825.28	1638.38
825.45	1701.86
825.63	1640.42
825.80	1648.61
825.97	1712.10
826.14	1693.67
826.31	1630.18
826.48	1738.73
826.66	1697.77
826.83	1691.62
827.00	1660.90
827.17	1656.81
827.34	1675.24
827.51	1703.91
827.69	1693.67
827.86	1660.90
828.03	1701.86
828.20	1665.00
828.37	1636.33
828.54	1726.44
828.71	1685.48
828.89	1832.93
829.06	1669.09
829.23	1716.20
829.40	1734.63
829.57	1687.53
829.74	1798.12
829.91	1624.04
830.09	1621.99
830.26	1742.82
830.43	1781.73
830.60	1654.76
830.77	1751.01
830.94	1779.68
831.11	1642.47
831.28	1722.34
831.46	1740.77
831.63	1722.34
831.80	1826.79
831.97	1667.05
832.14	1656.81
832.31	1771.49
832.48	1677.29
832.65	1767.40
832.82	1714.15
832.99	1720.29
833.17	1718.25
833.34	1812.45
833.51	1705.96
833.68	1654.76
833.85	1703.91
834.02	1646.57
834.19	1675.24
834.36	1617.90
834.53	1775.59
834.70	1837.03
834.87	1701.86
835.04	1757.16
835.22	1656.81
835.39	1689.57
835.56	1611.75
835.73	1722.34
835.90	1740.77
836.07	1630.18
836.24	1796.07
836.41	1654.76
836.58	1681.38
836.75	1726.44
836.92	1767.40
837.09	1642.47
837.26	1759.21
837.43	1685.48
837.60	1759.21
837.77	1669.09
837.94	1742.82
838.12	1804.26
838.29	1738.73
838.46	1576.94
838.63	1671.14
838.80	1865.70
838.97	1656.81
839.14	1687.53
839.31	1714.15
839.48	1728.49
839.65	1564.65
839.82	1691.62
839.99	1648.61
840.16	1740.77
840.33	1726.44
840.50	1703.91
840.67	1669.09
840.84	1574.89
841.01	1773.54
841.18	1734.63
841.35	1599.46
841.52	1744.87
841.69	1824.74
841.86	1656.81
842.03	1714.15
842.20	1757.16
842.37	1693.67
842.54	1744.87
842.71	1695.72
842.88	1662.95
843.05	1734.63
843.22	1714.15
843.39	1759.21
843.56	1699.81
843.73	1644.52
843.90	1683.43
844.07	1710.05
844.24	1808.36
844.41	1736.68
844.58	1714.15
844.75	1695.72
844.92	1654.76
845.09	1730.53
845.26	1722.34
845.43	1740.77
845.60	1812.45
845.77	1703.91
845.94	1734.63
846.10	1816.55
846.27	1609.70
846.44	1640.42
846.61	1683.43
846.78	1765.35
846.95	1730.53
847.12	1671.14
847.29	1718.25
847.46	1632.23
847.63	1705.96
847.80	1763.30
847.97	1708.01
848.14	1808.36
848.31	1726.44
848.48	1572.84
848.65	1718.25
848.82	1605.61
848.98	1863.65
849.15	1689.57
849.32	1779.68
849.49	1769.44
849.66	1677.29
849.83	1818.60
850.00	1601.51
850.17	1660.90
850.34	1714.15
850.51	1693.67
850.68	1689.57
850.85	1787.88
851.01	1751.01
851.18	1697.77
851.35	1646.57
851.52	1734.63
851.69	1765.35
851.86	1630.18
852.03	1656.81
852.20	1804.26
852.37	1673.19
852.53	1693.67
852.70	1601.51
852.87	1710.05
853.04	1761.25
853.21	1683.43
853.38	1722.34
853.55	1746.92
853.72	1730.53
853.89	1656.81
854.05	1613.80
854.22	1714.15
854.39	1710.05
854.56	1740.77
854.73	1822.69
854.90	1648.61
855.07	1714.15
855.23	1667.05
855.40	1751.01
855.57	1685.48
855.74	1589.22
855.91	1886.18
856.08	1642.47
856.25	1712.10
856.41	1712.10
856.58	1712.10
856.75	1722.34
856.92	1648.61
857.09	1718.25
857.26	1634.28
857.42	1595.37
857.59	1710.05
857.76	1705.96
857.93	1722.34
858.10	1699.81
858.27	1652.71
858.43	1714.15
858.60	1691.62
858.77	1648.61
858.94	1710.05
859.11	1800.16
859.27	1726.44
859.44	1714.15
859.61	1791.97
859.78	1763.30
859.95	1687.53
860.12	1617.90
860.28	1812.45
860.45	1808.36
860.62	1675.24
860.79	1675.24
860.95	1667.05
861.12	1656.81
861.29	1703.91
861.46	1640.42
861.63	1656.81
861.79	1724.39
861.96	1654.76
862.13	1695.72
862.30	1826.79
862.47	1695.72
862.63	1632.23
862.80	1722.34
862.97	1765.35
863.14	1632.23
863.30	1683.43
863.47	1695.72
863.64	1853.41
863.81	1667.05
863.97	1732.58
864.14	1751.01
864.31	1712.10
864.48	1736.68
864.65	1693.67
864.81	1744.87
864.98	1705.96
865.15	1705.96
865.32	1724.39
865.48	1730.53
865.65	1710.05
865.82	1648.61
865.98	1679.33
866.15	1761.25
866.32	1716.20
866.49	1695.72
866.65	1683.43
866.82	1636.33
866.99	1632.23
867.16	1677.29
867.32	1576.94
867.49	1714.15
867.66	1755.11
867.83	1667.05
867.99	1617.90
868.16	1669.09
868.33	1636.33
868.49	1656.81
868.66	1701.86
868.83	1812.45
868.99	1726.44
869.16	1658.85
869.33	1777.64
869.50	1697.77
869.66	1703.91
869.83	1673.19
870.00	1578.98
870.16	1740.77
870.33	1667.05
870.50	1722.34
870.66	1693.67
870.83	1771.49
871.00	1787.88
871.17	1779.68
871.33	1687.53
871.50	1730.53
871.67	1642.47
871.83	1636.33
872.00	1726.44
872.17	1632.23
872.33	1724.39
872.50	1726.44
872.67	1695.72
872.83	1677.29
873.00	1730.53
873.17	1687.53
873.33	1738.73
873.50	1693.67
873.67	1611.75
873.83	1638.38
874.00	1665.00
874.16	1777.64
874.33	1714.15
874.50	1660.90
874.66	1728.49
874.83	1720.29
875.00	1802.21
875.16	1697.77
875.33	1771.49
875.50	1615.85
875.66	1681.38
875.83	1671.14
875.99	1730.53
876.16	1746.92
876.33	1591.27
876.49	1744.87
876.66	1640.42
876.83	1714.15
876.99	1585.13
877.16	1701.86
877.32	1660.90
877.49	1697.77
877.66	1714.15
877.82	1720.29
877.99	1775.59
878.15	1701.86
878.32	1767.40
878.49	1683.43
878.65	1738.73
878.82	1816.55
878.98	1654.76
879.15	1757.16
879.32	1714.15
879.48	1681.38
879.65	1665.00
879.81	1646.57
879.98	1681.38
880.15	1658.85
880.31	1677.29
880.48	1656.81
880.64	1771.49
880.81	1671.14
880.97	1802.21
881.14	1724.39
881.31	1667.05
881.47	1794.02
881.64	1697.77
881.80	1667.05
881.97	1748.97
882.13	1712.10
882.30	1710.05
882.47	1640.42
882.63	1640.42
882.80	1695.72
882.96	1699.81
883.13	1814.50
883.29	1705.96
883.46	1697.77
883.62	1810.40
883.79	1695.72
883.95	1669.09
884.12	1718.25
884.29	1728.49
884.45	1685.48
884.62	1662.95
884.78	1667.05
884.95	1806.31
885.11	1628.14
885.28	1656.81
885.44	1603.56
885.61	1716.20
885.77	1796.07
885.94	1769.44
886.10	1695.72
886.27	1697.77
886.43	1744.87
886.60	1777.64
886.76	1761.25
886.93	1667.05
887.09	1665.00
887.26	1599.46
887.42	1638.38
887.59	1779.68
887.75	1748.97
887.92	1767.40
888.08	1767.40
888.25	1775.59
888.41	1726.44
888.58	1716.20
888.74	1648.61
888.91	1597.42
>>>>>End Processed Spectral Data<<<<<
