SpectraSuite Data File
++++++++++++++++++++++++++++++++++++
Date: Mon Jun 06 15:26:37 CEST 2016
User: root
Dark Spectrum Present: No
Reference Spectrum Present: No
Number of Sampled Component Spectra: 1
Spectrometers: USB4C02835
Integration Time (usec): 100000 (USB4C02835)
Spectra Averaged: 1 (USB4C02835)
Boxcar Smoothing: 0 (USB4C02835)
Correct for Electrical Dark: No (USB4C02835)
Strobe/Lamp Enabled: No (USB4C02835)
Correct for Detector Non-linearity: No (USB4C02835)
Correct for Stray Light: No (USB4C02835)
Number of Pixels in Processed Spectrum: 3648
>>>>>Begin Processed Spectral Data<<<<<
177.47	1460.20
177.69	1460.20
177.91	1460.20
178.13	1441.77
178.36	1515.50
178.58	1697.77
178.80	1736.68
179.02	1681.38
179.24	1679.33
179.46	1697.77
179.68	1769.44
179.90	1720.29
180.13	1720.29
180.35	1683.43
180.57	1736.68
180.79	1751.01
181.01	1667.05
181.23	1779.68
181.45	1761.25
181.67	1687.53
181.90	1779.68
182.12	1681.38
182.34	1624.04
182.56	1740.77
182.78	1691.62
183.00	1708.01
183.22	1705.96
183.44	1589.22
183.66	1796.07
183.89	1791.97
184.11	1695.72
184.33	1789.92
184.55	1753.06
184.77	1753.06
184.99	1746.92
185.21	1646.57
185.43	1877.99
185.65	1593.32
185.87	1736.68
186.10	1832.93
186.32	1751.01
186.54	1699.81
186.76	1736.68
186.98	1726.44
187.20	1691.62
187.42	1667.05
187.64	1708.01
187.86	1677.29
188.08	1798.12
188.30	1677.29
188.52	1656.81
188.75	1828.84
188.97	1791.97
189.19	1636.33
189.41	1738.73
189.63	1779.68
189.85	1740.77
190.07	1689.57
190.29	1753.06
190.51	1783.78
190.73	1685.48
190.95	1787.88
191.17	1736.68
191.39	1564.65
191.61	1615.85
191.84	1640.42
192.06	1734.63
192.28	1611.75
192.50	1904.61
192.72	1695.72
192.94	1677.29
193.16	1812.45
193.38	1740.77
193.60	1693.67
193.82	1662.95
194.04	1763.30
194.26	1736.68
194.48	1671.14
194.70	1646.57
194.92	1693.67
195.14	1738.73
195.36	1695.72
195.58	1681.38
195.80	1621.99
196.02	1673.19
196.24	1716.20
196.46	1701.86
196.69	1683.43
196.91	1898.47
197.13	1693.67
197.35	1681.38
197.57	1777.64
197.79	1771.49
198.01	1644.52
198.23	1734.63
198.45	1724.39
198.67	1640.42
198.89	1703.91
199.11	1701.86
199.33	1640.42
199.55	1632.23
199.77	1738.73
199.99	1775.59
200.21	1679.33
200.43	1714.15
200.65	1644.52
200.87	1564.65
201.09	1755.11
201.31	1697.77
201.53	1763.30
201.75	1718.25
201.97	1681.38
202.19	1732.58
202.41	1710.05
202.63	1849.32
202.85	1761.25
203.07	1714.15
203.29	1658.85
203.51	1652.71
203.73	1695.72
203.95	1880.04
204.17	1748.97
204.39	1726.44
204.61	1710.05
204.83	1679.33
205.05	1771.49
205.27	1738.73
205.49	1787.88
205.71	1771.49
205.93	1585.13
206.15	1705.96
206.37	1693.67
206.59	1679.33
206.81	1603.56
207.03	1644.52
207.25	1658.85
207.47	1808.36
207.69	1695.72
207.91	1808.36
208.13	1773.54
208.34	1685.48
208.56	1615.85
208.78	1783.78
209.00	1667.05
209.22	1665.00
209.44	1720.29
209.66	1699.81
209.88	1753.06
210.10	1660.90
210.32	1650.66
210.54	1798.12
210.76	1634.28
210.98	1738.73
211.20	1544.17
211.42	1724.39
211.64	1832.93
211.86	1771.49
212.08	1769.44
212.30	1705.96
212.52	1757.16
212.74	1644.52
212.96	1816.55
213.17	1720.29
213.39	1730.53
213.61	1814.50
213.83	1765.35
214.05	1685.48
214.27	1667.05
214.49	1648.61
214.71	1628.14
214.93	1751.01
215.15	1693.67
215.37	1667.05
215.59	1650.66
215.81	1771.49
216.03	1806.31
216.24	1755.11
216.46	1689.57
216.68	1755.11
216.90	1699.81
217.12	1796.07
217.34	1681.38
217.56	1810.40
217.78	1837.03
218.00	1763.30
218.22	1716.20
218.44	1746.92
218.66	1724.39
218.87	1804.26
219.09	1677.29
219.31	1804.26
219.53	1751.01
219.75	1675.24
219.97	1679.33
220.19	1740.77
220.41	1724.39
220.63	1777.64
220.85	1785.83
221.06	1699.81
221.28	1853.41
221.50	1697.77
221.72	1724.39
221.94	1710.05
222.16	1710.05
222.38	1863.65
222.60	1796.07
222.82	1716.20
223.03	1794.02
223.25	1724.39
223.47	1720.29
223.69	1828.84
223.91	1804.26
224.13	1652.71
224.35	1699.81
224.57	1726.44
224.78	1732.58
225.00	1691.62
225.22	1769.44
225.44	1734.63
225.66	1753.06
225.88	1710.05
226.10	1724.39
226.32	1736.68
226.53	1783.78
226.75	1689.57
226.97	1695.72
227.19	1708.01
227.41	1652.71
227.63	1615.85
227.85	1576.94
228.06	1605.61
228.28	1714.15
228.50	1716.20
228.72	1671.14
228.94	1685.48
229.16	1550.31
229.37	1662.95
229.59	1673.19
229.81	1851.36
230.03	1583.08
230.25	1665.00
230.47	1718.25
230.69	1658.85
230.90	1769.44
231.12	1648.61
231.34	1697.77
231.56	1771.49
231.78	1722.34
232.00	1714.15
232.21	1703.91
232.43	1583.08
232.65	1533.93
232.87	1665.00
233.09	1642.47
233.30	1636.33
233.52	1714.15
233.74	1714.15
233.96	1601.51
234.18	1697.77
234.40	1675.24
234.61	1849.32
234.83	1619.94
235.05	1658.85
235.27	1900.52
235.49	1796.07
235.70	1691.62
235.92	1798.12
236.14	1724.39
236.36	1839.08
236.58	1634.28
236.79	1710.05
237.01	1808.36
237.23	1697.77
237.45	1783.78
237.67	1699.81
237.88	1777.64
238.10	1791.97
238.32	1611.75
238.54	1751.01
238.76	1683.43
238.97	1621.99
239.19	1705.96
239.41	1820.64
239.63	1748.97
239.85	1601.51
240.06	1681.38
240.28	1677.29
240.50	1767.40
240.72	1726.44
240.93	1662.95
241.15	1732.58
241.37	1728.49
241.59	1800.16
241.81	1703.91
242.02	1714.15
242.24	1720.29
242.46	1748.97
242.68	1681.38
242.89	1794.02
243.11	1730.53
243.33	1679.33
243.55	1740.77
243.76	1806.31
243.98	1619.94
244.20	1769.44
244.42	1736.68
244.64	1742.82
244.85	1548.26
245.07	1718.25
245.29	1802.21
245.51	1701.86
245.72	1697.77
245.94	1796.07
246.16	1671.14
246.38	1697.77
246.59	1681.38
246.81	1681.38
247.03	1681.38
247.24	1576.94
247.46	1703.91
247.68	1726.44
247.90	1691.62
248.11	1611.75
248.33	1744.87
248.55	1708.01
248.77	1689.57
248.98	1732.58
249.20	1810.40
249.42	1746.92
249.64	1779.68
249.85	1624.04
250.07	1693.67
250.29	1726.44
250.50	1726.44
250.72	1656.81
250.94	1683.43
251.16	1804.26
251.37	1751.01
251.59	1650.66
251.81	1683.43
252.02	1751.01
252.24	1658.85
252.46	1837.03
252.68	1587.18
252.89	1701.86
253.11	1538.02
253.33	1834.98
253.54	1791.97
253.76	1632.23
253.98	1740.77
254.20	1689.57
254.41	1591.27
254.63	1767.40
254.85	1658.85
255.06	1740.77
255.28	1748.97
255.50	1697.77
255.71	1759.21
255.93	1640.42
256.15	1636.33
256.36	1673.19
256.58	1669.09
256.80	1710.05
257.02	1673.19
257.23	1763.30
257.45	1689.57
257.67	1779.68
257.88	1714.15
258.10	1732.58
258.32	1675.24
258.53	1722.34
258.75	1751.01
258.97	1703.91
259.18	1722.34
259.40	1708.01
259.62	1822.69
259.83	1798.12
260.05	1640.42
260.27	2004.96
260.48	1779.68
260.70	1665.00
260.92	1691.62
261.13	1736.68
261.35	1740.77
261.57	1722.34
261.78	1597.42
262.00	1593.32
262.22	1794.02
262.43	1665.00
262.65	1712.10
262.86	1722.34
263.08	1826.79
263.30	1742.82
263.51	1611.75
263.73	1621.99
263.95	1796.07
264.16	1605.61
264.38	1705.96
264.60	1689.57
264.81	1742.82
265.03	1730.53
265.25	1781.73
265.46	1671.14
265.68	1804.26
265.89	1703.91
266.11	1628.14
266.33	1806.31
266.54	1701.86
266.76	1699.81
266.98	1728.49
267.19	1812.45
267.41	1763.30
267.62	1648.61
267.84	1644.52
268.06	1687.53
268.27	1783.78
268.49	1775.59
268.70	1718.25
268.92	1744.87
269.14	1677.29
269.35	1671.14
269.57	1714.15
269.79	1751.01
270.00	1710.05
270.22	1865.70
270.43	1691.62
270.65	1587.18
270.87	1665.00
271.08	1720.29
271.30	1701.86
271.51	1732.58
271.73	1671.14
271.95	1755.11
272.16	1744.87
272.38	1712.10
272.59	1710.05
272.81	1693.67
273.02	1851.36
273.24	1708.01
273.46	1681.38
273.67	1601.51
273.89	1718.25
274.10	1705.96
274.32	1822.69
274.54	1669.09
274.75	1650.66
274.97	1665.00
275.18	1781.73
275.40	1742.82
275.61	1798.12
275.83	1705.96
276.05	1626.09
276.26	1699.81
276.48	1722.34
276.69	1724.39
276.91	1699.81
277.12	1742.82
277.34	1775.59
277.55	1689.57
277.77	1714.15
277.99	1683.43
278.20	1705.96
278.42	1599.46
278.63	1646.57
278.85	1714.15
279.06	1630.18
279.28	1748.97
279.49	1736.68
279.71	1742.82
279.93	1748.97
280.14	1751.01
280.36	1714.15
280.57	1763.30
280.79	1800.16
281.00	1691.62
281.22	1730.53
281.43	1851.36
281.65	1630.18
281.86	1652.71
282.08	1673.19
282.29	1787.88
282.51	1660.90
282.73	1665.00
282.94	1626.09
283.16	1701.86
283.37	1812.45
283.59	1658.85
283.80	1669.09
284.02	1644.52
284.23	1734.63
284.45	1738.73
284.66	1673.19
284.88	1646.57
285.09	1751.01
285.31	1757.16
285.52	1705.96
285.74	1677.29
285.95	1687.53
286.17	1656.81
286.38	1796.07
286.60	1660.90
286.81	1636.33
287.03	1746.92
287.24	1748.97
287.46	1759.21
287.67	1705.96
287.89	1787.88
288.10	1744.87
288.32	1755.11
288.53	1769.44
288.75	1716.20
288.96	1767.40
289.18	1665.00
289.39	1732.58
289.61	1814.50
289.82	1810.40
290.04	1746.92
290.25	1665.00
290.47	1718.25
290.68	1677.29
290.90	1732.58
291.11	1609.70
291.33	1746.92
291.54	1726.44
291.76	1693.67
291.97	1771.49
292.18	1720.29
292.40	1791.97
292.61	1691.62
292.83	1820.64
293.04	1724.39
293.26	1828.84
293.47	1716.20
293.69	1640.42
293.90	1736.68
294.12	1779.68
294.33	1722.34
294.55	1669.09
294.76	1726.44
294.97	1753.06
295.19	1800.16
295.40	1757.16
295.62	1671.14
295.83	1798.12
296.05	1591.27
296.26	1771.49
296.48	1632.23
296.69	1718.25
296.90	1673.19
297.12	1744.87
297.33	1771.49
297.55	1658.85
297.76	1783.78
297.98	1816.55
298.19	1740.77
298.41	1734.63
298.62	1677.29
298.83	1802.21
299.05	1701.86
299.26	1652.71
299.48	1699.81
299.69	1736.68
299.90	1646.57
300.12	1691.62
300.33	1744.87
300.55	1781.73
300.76	1742.82
300.98	1648.61
301.19	1703.91
301.40	1679.33
301.62	1689.57
301.83	1765.35
302.05	1763.30
302.26	1679.33
302.47	1708.01
302.69	1630.18
302.90	1636.33
303.12	1630.18
303.33	1796.07
303.54	1818.60
303.76	1742.82
303.97	1646.57
304.19	1730.53
304.40	1685.48
304.61	1710.05
304.83	1814.50
305.04	1832.93
305.26	1705.96
305.47	1681.38
305.68	1787.88
305.90	1583.08
306.11	1746.92
306.33	1675.24
306.54	1726.44
306.75	1632.23
306.97	1673.19
307.18	1640.42
307.39	1665.00
307.61	1716.20
307.82	1761.25
308.04	1730.53
308.25	1656.81
308.46	1771.49
308.68	1734.63
308.89	1640.42
309.10	1734.63
309.32	1724.39
309.53	1667.05
309.74	1695.72
309.96	1624.04
310.17	1834.98
310.39	1730.53
310.60	1804.26
310.81	1665.00
311.03	1679.33
311.24	1808.36
311.45	1683.43
311.67	1783.78
311.88	1751.01
312.09	1763.30
312.31	1636.33
312.52	1693.67
312.73	1681.38
312.95	1587.18
313.16	1658.85
313.37	1767.40
313.59	1734.63
313.80	1773.54
314.01	1783.78
314.23	1699.81
314.44	1751.01
314.65	1615.85
314.87	1716.20
315.08	1589.22
315.29	1730.53
315.51	1693.67
315.72	1621.99
315.93	1695.72
316.15	1744.87
316.36	1619.94
316.57	1705.96
316.79	1697.77
317.00	1624.04
317.21	1681.38
317.43	1699.81
317.64	1732.58
317.85	1671.14
318.07	1642.47
318.28	1732.58
318.49	1808.36
318.70	1834.98
318.92	1771.49
319.13	1837.03
319.34	1939.43
319.56	1837.03
319.77	1753.06
319.98	1820.64
320.20	1839.08
320.41	1828.84
320.62	1759.21
320.83	1652.71
321.05	1808.36
321.26	1771.49
321.47	1716.20
321.69	1802.21
321.90	1675.24
322.11	1683.43
322.32	1722.34
322.54	1826.79
322.75	1744.87
322.96	1837.03
323.18	1662.95
323.39	1654.76
323.60	1605.61
323.81	1773.54
324.03	1679.33
324.24	1724.39
324.45	1742.82
324.66	1708.01
324.88	1828.84
325.09	1740.77
325.30	1703.91
325.52	1812.45
325.73	1732.58
325.94	1660.90
326.15	1621.99
326.37	1691.62
326.58	1853.41
326.79	1771.49
327.00	1644.52
327.22	1781.73
327.43	1585.13
327.64	1648.61
327.85	1722.34
328.07	1728.49
328.28	1787.88
328.49	1679.33
328.70	1771.49
328.92	1763.30
329.13	1701.86
329.34	1681.38
329.55	1800.16
329.76	1773.54
329.98	1681.38
330.19	1730.53
330.40	1767.40
330.61	1703.91
330.83	1804.26
331.04	1630.18
331.25	1738.73
331.46	1705.96
331.68	1593.32
331.89	1781.73
332.10	1736.68
332.31	1603.56
332.52	1714.15
332.74	1812.45
332.95	1671.14
333.16	1755.11
333.37	1781.73
333.58	1703.91
333.80	1740.77
334.01	1675.24
334.22	1718.25
334.43	1691.62
334.64	1679.33
334.86	1634.28
335.07	1714.15
335.28	1814.50
335.49	1642.47
335.70	1845.22
335.92	1816.55
336.13	1798.12
336.34	1656.81
336.55	1746.92
336.76	1691.62
336.98	1632.23
337.19	1673.19
337.40	1753.06
337.61	1816.55
337.82	1556.46
338.04	1802.21
338.25	1593.32
338.46	1714.15
338.67	1658.85
338.88	1673.19
339.09	1689.57
339.31	1679.33
339.52	1644.52
339.73	1667.05
339.94	1683.43
340.15	1708.01
340.36	1671.14
340.58	1781.73
340.79	1617.90
341.00	1808.36
341.21	1572.84
341.42	1826.79
341.63	1714.15
341.85	1751.01
342.06	1732.58
342.27	1652.71
342.48	1791.97
342.69	1626.09
342.90	1693.67
343.12	1759.21
343.33	1689.57
343.54	1757.16
343.75	1794.02
343.96	1703.91
344.17	1648.61
344.38	1753.06
344.60	1683.43
344.81	1689.57
345.02	1691.62
345.23	1650.66
345.44	1812.45
345.65	1685.48
345.86	1730.53
346.07	1689.57
346.29	1632.23
346.50	1738.73
346.71	1761.25
346.92	1744.87
347.13	1802.21
347.34	1695.72
347.55	1662.95
347.76	1716.20
347.98	1677.29
348.19	1673.19
348.40	1828.84
348.61	1683.43
348.82	1798.12
349.03	1710.05
349.24	1722.34
349.45	1814.50
349.66	1570.79
349.88	1691.62
350.09	1777.64
350.30	1771.49
350.51	1736.68
350.72	1665.00
350.93	1730.53
351.14	1708.01
351.35	1779.68
351.56	1691.62
351.77	1720.29
351.99	1722.34
352.20	1875.94
352.41	1732.58
352.62	1560.55
352.83	1619.94
353.04	1763.30
353.25	1701.86
353.46	1712.10
353.67	1765.35
353.88	1652.71
354.09	1650.66
354.30	1675.24
354.52	1761.25
354.73	1734.63
354.94	1615.85
355.15	1714.15
355.36	1826.79
355.57	1611.75
355.78	1710.05
355.99	1675.24
356.20	1712.10
356.41	1761.25
356.62	1763.30
356.83	1740.77
357.04	1740.77
357.25	1597.42
357.46	1650.66
357.68	1609.70
357.89	1642.47
358.10	1726.44
358.31	1705.96
358.52	1669.09
358.73	1691.62
358.94	1695.72
359.15	1630.18
359.36	1722.34
359.57	1662.95
359.78	1675.24
359.99	1759.21
360.20	1685.48
360.41	1736.68
360.62	1767.40
360.83	1699.81
361.04	1701.86
361.25	1783.78
361.46	1791.97
361.67	1724.39
361.88	1736.68
362.09	1705.96
362.30	1783.78
362.51	1736.68
362.72	1710.05
362.93	1757.16
363.14	1783.78
363.35	1736.68
363.56	1669.09
363.78	1779.68
363.99	1746.92
364.20	1738.73
364.41	1689.57
364.62	1843.17
364.83	1718.25
365.04	1679.33
365.25	1720.29
365.46	1794.02
365.67	1701.86
365.88	1665.00
366.09	1685.48
366.30	1748.97
366.51	1759.21
366.72	1685.48
366.93	1691.62
367.14	1767.40
367.35	1824.74
367.56	1734.63
367.77	1808.36
367.98	1712.10
368.18	1697.77
368.39	1748.97
368.60	1654.76
368.81	1787.88
369.02	1808.36
369.23	1675.24
369.44	1617.90
369.65	1656.81
369.86	1748.97
370.07	1814.50
370.28	1710.05
370.49	1740.77
370.70	1775.59
370.91	1619.94
371.12	1720.29
371.33	1814.50
371.54	1673.19
371.75	1685.48
371.96	1544.17
372.17	1777.64
372.38	1734.63
372.59	1716.20
372.80	1648.61
373.01	1689.57
373.22	1767.40
373.43	1734.63
373.64	1574.89
373.85	1900.52
374.06	1808.36
374.26	1773.54
374.47	1697.77
374.68	1730.53
374.89	1632.23
375.10	1687.53
375.31	1828.84
375.52	1767.40
375.73	1734.63
375.94	1683.43
376.15	1798.12
376.36	1630.18
376.57	1728.49
376.78	1746.92
376.99	1763.30
377.20	1759.21
377.40	1646.57
377.61	1789.92
377.82	1636.33
378.03	1873.89
378.24	1755.11
378.45	1689.57
378.66	1673.19
378.87	1642.47
379.08	1628.14
379.29	1689.57
379.50	1804.26
379.71	1691.62
379.91	1697.77
380.12	1716.20
380.33	1724.39
380.54	1667.05
380.75	1738.73
380.96	1675.24
381.17	1728.49
381.38	1724.39
381.59	1716.20
381.80	1820.64
382.00	1839.08
382.21	1781.73
382.42	1798.12
382.63	1902.56
382.84	1769.44
383.05	1814.50
383.26	1804.26
383.47	1777.64
383.68	1804.26
383.88	1757.16
384.09	1638.38
384.30	1802.21
384.51	1796.07
384.72	1720.29
384.93	1642.47
385.14	1669.09
385.35	1759.21
385.55	1728.49
385.76	1796.07
385.97	1681.38
386.18	1679.33
386.39	1654.76
386.60	1652.71
386.81	1708.01
387.02	1619.94
387.22	1669.09
387.43	1814.50
387.64	1746.92
387.85	1894.37
388.06	2187.23
388.27	4190.14
388.48	6743.96
388.68	8058.76
388.89	9475.95
389.10	9629.55
389.31	8523.65
389.52	7475.09
389.73	6711.19
389.93	6176.67
390.14	5816.23
390.35	5418.93
390.56	4509.63
390.77	3747.78
390.98	3033.04
391.18	2480.09
391.39	2070.50
391.60	1896.42
391.81	1896.42
392.02	1695.72
392.23	1849.32
392.43	1732.58
392.64	1851.36
392.85	1734.63
393.06	1818.60
393.27	1746.92
393.47	1714.15
393.68	1730.53
393.89	1677.29
394.10	1771.49
394.31	1728.49
394.52	1574.89
394.72	1748.97
394.93	1798.12
395.14	1628.14
395.35	1796.07
395.56	1654.76
395.76	1679.33
395.97	1789.92
396.18	1849.32
396.39	1859.56
396.60	1976.29
396.80	1865.70
397.01	1837.03
397.22	1800.16
397.43	1894.37
397.64	1753.06
397.84	1886.18
398.05	1898.47
398.26	1804.26
398.47	1808.36
398.67	1740.77
398.88	1796.07
399.09	1712.10
399.30	1634.28
399.51	1785.83
399.71	1718.25
399.92	1705.96
400.13	1845.22
400.34	1830.88
400.54	1660.90
400.75	1765.35
400.96	1710.05
401.17	1834.98
401.37	1779.68
401.58	1755.11
401.79	1755.11
402.00	1849.32
402.21	2011.11
402.41	1972.19
402.62	2009.06
402.83	2027.49
403.04	1935.33
403.24	2111.46
403.45	1820.64
403.66	1916.90
403.87	1828.84
404.07	1959.91
404.28	1853.41
404.49	1896.42
404.70	1789.92
404.90	1822.69
405.11	1732.58
405.32	1742.82
405.52	1607.66
405.73	1683.43
405.94	1701.86
406.15	1677.29
406.35	1619.94
406.56	1771.49
406.77	1742.82
406.98	1697.77
407.18	1730.53
407.39	1708.01
407.60	1730.53
407.80	1753.06
408.01	1662.95
408.22	1722.34
408.43	1699.81
408.63	1705.96
408.84	1742.82
409.05	1794.02
409.25	1624.04
409.46	1751.01
409.67	1757.16
409.88	1677.29
410.08	1736.68
410.29	1708.01
410.50	1761.25
410.70	1802.21
410.91	1714.15
411.12	1755.11
411.32	1697.77
411.53	1677.29
411.74	1744.87
411.95	1794.02
412.15	1710.05
412.36	1802.21
412.57	1775.59
412.77	1820.64
412.98	1677.29
413.19	1718.25
413.39	1738.73
413.60	1787.88
413.81	1720.29
414.01	1703.91
414.22	1779.68
414.43	1755.11
414.63	1689.57
414.84	1775.59
415.05	1785.83
415.25	1597.42
415.46	1693.67
415.67	1769.44
415.87	1697.77
416.08	1732.58
416.29	1691.62
416.49	1693.67
416.70	1728.49
416.91	1640.42
417.11	1742.82
417.32	1757.16
417.53	1748.97
417.73	1689.57
417.94	1695.72
418.15	1728.49
418.35	1777.64
418.56	1671.14
418.77	1873.89
418.97	1677.29
419.18	1712.10
419.38	1601.51
419.59	1593.32
419.80	1769.44
420.00	1695.72
420.21	1736.68
420.42	1757.16
420.62	1832.93
420.83	1660.90
421.04	1705.96
421.24	1738.73
421.45	1732.58
421.65	1748.97
421.86	1701.86
422.07	1769.44
422.27	1667.05
422.48	1746.92
422.69	1773.54
422.89	1732.58
423.10	1791.97
423.30	1654.76
423.51	1800.16
423.72	1687.53
423.92	1740.77
424.13	1714.15
424.33	1673.19
424.54	1714.15
424.75	1767.40
424.95	1810.40
425.16	1730.53
425.36	1710.05
425.57	1755.11
425.78	1783.78
425.98	1800.16
426.19	1779.68
426.39	1683.43
426.60	1708.01
426.81	1759.21
427.01	1712.10
427.22	1716.20
427.42	1621.99
427.63	1634.28
427.83	1785.83
428.04	1812.45
428.25	1796.07
428.45	1789.92
428.66	1771.49
428.86	1710.05
429.07	1677.29
429.28	1652.71
429.48	1716.20
429.69	1656.81
429.89	1683.43
430.10	1675.24
430.30	1806.31
430.51	1769.44
430.71	1644.52
430.92	1714.15
431.13	1710.05
431.33	1716.20
431.54	1759.21
431.74	1738.73
431.95	1859.56
432.15	1705.96
432.36	1742.82
432.56	1677.29
432.77	1839.08
432.98	1777.64
433.18	1695.72
433.39	1738.73
433.59	1695.72
433.80	1912.80
434.00	1867.75
434.21	1644.52
434.41	1601.51
434.62	1927.14
434.82	1722.34
435.03	1673.19
435.23	1779.68
435.44	1695.72
435.64	1660.90
435.85	1759.21
436.06	1755.11
436.26	1722.34
436.47	1705.96
436.67	1613.80
436.88	1718.25
437.08	1742.82
437.29	1734.63
437.49	1730.53
437.70	1822.69
437.90	1753.06
438.11	1937.38
438.31	1767.40
438.52	1771.49
438.72	1802.21
438.93	1849.32
439.13	1804.26
439.34	1820.64
439.54	1818.60
439.75	1828.84
439.95	1818.60
440.16	1585.13
440.36	1732.58
440.57	1738.73
440.77	1746.92
440.98	1744.87
441.18	1759.21
441.39	1673.19
441.59	1791.97
441.80	1765.35
442.00	1726.44
442.21	1791.97
442.41	1701.86
442.62	1767.40
442.82	1738.73
443.02	1753.06
443.23	1697.77
443.43	1718.25
443.64	1851.36
443.84	1669.09
444.05	1853.41
444.25	1734.63
444.46	1789.92
444.66	1708.01
444.87	1785.83
445.07	1681.38
445.28	1767.40
445.48	1822.69
445.69	1808.36
445.89	1877.99
446.09	1767.40
446.30	2156.51
446.50	2594.78
446.71	3706.82
446.91	4319.17
447.12	4745.14
447.32	4857.78
447.53	4331.45
447.73	3751.88
447.93	3459.02
448.14	3229.65
448.34	3090.38
448.55	2992.08
448.75	2959.31
448.96	2691.03
449.16	2435.03
449.36	2193.37
449.57	2086.88
449.77	1961.95
449.98	1837.03
450.18	1861.60
450.39	1791.97
450.59	1759.21
450.79	1693.67
451.00	1720.29
451.20	1830.88
451.41	1779.68
451.61	1775.59
451.81	1761.25
452.02	1648.61
452.22	1683.43
452.43	1763.30
452.63	1748.97
452.84	1675.24
453.04	1771.49
453.24	1759.21
453.45	1673.19
453.65	1767.40
453.86	1744.87
454.06	1757.16
454.26	1796.07
454.47	1742.82
454.67	1814.50
454.87	1736.68
455.08	1685.48
455.28	1810.40
455.49	1714.15
455.69	1705.96
455.89	1796.07
456.10	1818.60
456.30	1650.66
456.51	1759.21
456.71	1775.59
456.91	1796.07
457.12	1798.12
457.32	1734.63
457.52	1759.21
457.73	1785.83
457.93	1841.12
458.14	1705.96
458.34	1630.18
458.54	1712.10
458.75	1746.92
458.95	1744.87
459.15	1673.19
459.36	1748.97
459.56	1738.73
459.76	1847.27
459.97	1763.30
460.17	1773.54
460.37	1822.69
460.58	1740.77
460.78	1687.53
460.99	1767.40
461.19	1708.01
461.39	1804.26
461.60	1744.87
461.80	1736.68
462.00	1671.14
462.21	1824.74
462.41	1660.90
462.61	1665.00
462.82	1656.81
463.02	1781.73
463.22	1806.31
463.43	1832.93
463.63	1783.78
463.83	1791.97
464.04	1779.68
464.24	1736.68
464.44	1775.59
464.64	1763.30
464.85	1744.87
465.05	1779.68
465.25	1697.77
465.46	1712.10
465.66	1783.78
465.86	1755.11
466.07	1783.78
466.27	1681.38
466.47	1656.81
466.68	1626.09
466.88	1769.44
467.08	1730.53
467.29	1810.40
467.49	1781.73
467.69	1714.15
467.89	1714.15
468.10	1691.62
468.30	1775.59
468.50	1822.69
468.71	1800.16
468.91	1640.42
469.11	1900.52
469.31	1642.47
469.52	1595.37
469.72	1869.80
469.92	1828.84
470.13	1775.59
470.33	1730.53
470.53	1843.17
470.73	2127.84
470.94	2310.11
471.14	2283.49
471.34	2484.19
471.54	2449.37
471.75	2230.24
471.95	2090.98
472.15	2058.21
472.36	2076.64
472.56	2017.25
472.76	1994.72
472.96	1968.10
473.17	1880.04
473.37	1935.33
473.57	1791.97
473.77	1802.21
473.98	1775.59
474.18	1615.85
474.38	1845.22
474.58	1681.38
474.79	1681.38
474.99	1773.54
475.19	1796.07
475.39	1648.61
475.60	1826.79
475.80	1787.88
476.00	1683.43
476.20	1732.58
476.41	1828.84
476.61	1771.49
476.81	1759.21
477.01	1677.29
477.21	1820.64
477.42	1820.64
477.62	1677.29
477.82	1753.06
478.02	1683.43
478.23	1699.81
478.43	1777.64
478.63	1763.30
478.83	1691.62
479.03	1701.86
479.24	1765.35
479.44	1898.47
479.64	1705.96
479.84	1634.28
480.04	1753.06
480.25	1712.10
480.45	1705.96
480.65	1751.01
480.85	1794.02
481.06	1710.05
481.26	1785.83
481.46	1775.59
481.66	1734.63
481.86	1742.82
482.06	1779.68
482.27	1785.83
482.47	1705.96
482.67	1730.53
482.87	1683.43
483.07	1769.44
483.28	1658.85
483.48	1669.09
483.68	1665.00
483.88	1654.76
484.08	1603.56
484.29	1681.38
484.49	1722.34
484.69	1687.53
484.89	1769.44
485.09	1726.44
485.29	1824.74
485.50	1787.88
485.70	1673.19
485.90	1714.15
486.10	1726.44
486.30	1746.92
486.50	1765.35
486.71	1771.49
486.91	1773.54
487.11	1779.68
487.31	1679.33
487.51	1765.35
487.71	1677.29
487.91	1615.85
488.12	1591.27
488.32	1703.91
488.52	1626.09
488.72	1585.13
488.92	1755.11
489.12	1767.40
489.32	1763.30
489.53	1785.83
489.73	1675.24
489.93	1806.31
490.13	1781.73
490.33	1640.42
490.53	1744.87
490.73	1851.36
490.94	1646.57
491.14	1718.25
491.34	1875.94
491.54	2109.41
491.74	2555.86
491.94	2834.39
492.14	2863.06
492.34	3041.23
492.54	2719.70
492.75	2451.42
492.95	2535.39
493.15	2295.77
493.35	2246.62
493.55	2293.72
493.75	2064.35
493.95	2090.98
494.15	2017.25
494.35	1880.04
494.56	1794.02
494.76	1767.40
494.96	1785.83
495.16	1761.25
495.36	1720.29
495.56	1794.02
495.76	1695.72
495.96	1634.28
496.16	1748.97
496.36	1871.84
496.56	1757.16
496.77	1718.25
496.97	1761.25
497.17	1826.79
497.37	1658.85
497.57	1781.73
497.77	1736.68
497.97	1652.71
498.17	1763.30
498.37	1669.09
498.57	1781.73
498.77	1718.25
498.97	1779.68
499.17	1804.26
499.38	1751.01
499.58	1769.44
499.78	1794.02
499.98	1781.73
500.18	1734.63
500.38	1744.87
500.58	1953.76
500.78	2557.91
500.98	4517.82
501.18	5760.94
501.38	6770.58
501.58	7047.06
501.78	6674.33
501.98	5474.22
502.18	4947.89
502.38	4530.11
502.58	4038.59
502.78	3704.78
502.98	3690.44
503.18	3332.05
503.38	3117.01
503.59	2799.57
503.79	2750.42
503.99	2463.71
504.19	2334.68
504.39	2115.55
504.59	2193.37
504.79	2125.79
504.99	2062.30
505.19	1900.52
505.39	1888.23
505.59	1949.67
505.79	1773.54
505.99	1892.32
506.19	1806.31
506.39	1839.08
506.59	1761.25
506.79	1779.68
506.99	1767.40
507.19	1789.92
507.39	1738.73
507.59	1650.66
507.79	1701.86
507.99	1658.85
508.19	1728.49
508.39	1669.09
508.59	1714.15
508.79	1873.89
508.99	1900.52
509.19	1705.96
509.39	1796.07
509.59	1720.29
509.79	1705.96
509.99	1804.26
510.19	1808.36
510.39	1789.92
510.59	1773.54
510.79	1716.20
510.99	1732.58
511.19	1763.30
511.39	1763.30
511.59	1794.02
511.79	1832.93
511.99	1742.82
512.19	1794.02
512.38	1781.73
512.58	1779.68
512.78	1794.02
512.98	1834.98
513.18	1855.46
513.38	1671.14
513.58	1794.02
513.78	1705.96
513.98	1708.01
514.18	1695.72
514.38	1734.63
514.58	1742.82
514.78	1658.85
514.98	1710.05
515.18	1712.10
515.38	1679.33
515.58	1894.37
515.78	1746.92
515.98	1845.22
516.18	1767.40
516.38	1755.11
516.57	1728.49
516.77	1759.21
516.97	1767.40
517.17	1705.96
517.37	1658.85
517.57	1853.41
517.77	1734.63
517.97	1677.29
518.17	1880.04
518.37	1701.86
518.57	1673.19
518.77	1652.71
518.97	1734.63
519.16	1701.86
519.36	1832.93
519.56	1740.77
519.76	1751.01
519.96	1714.15
520.16	1830.88
520.36	1636.33
520.56	1767.40
520.76	1771.49
520.96	1724.39
521.16	1794.02
521.35	1882.08
521.55	1800.16
521.75	1738.73
521.95	1765.35
522.15	1728.49
522.35	1683.43
522.55	1708.01
522.75	1726.44
522.95	1746.92
523.14	1658.85
523.34	1757.16
523.54	1798.12
523.74	1726.44
523.94	1767.40
524.14	1777.64
524.34	1759.21
524.54	1849.32
524.73	1673.19
524.93	1849.32
525.13	1724.39
525.33	1689.57
525.53	1959.91
525.73	1753.06
525.93	1757.16
526.13	1744.87
526.32	1746.92
526.52	1832.93
526.72	1859.56
526.92	1710.05
527.12	1714.15
527.32	1671.14
527.52	1765.35
527.71	1789.92
527.91	1736.68
528.11	1734.63
528.31	1701.86
528.51	1679.33
528.71	1761.25
528.90	1771.49
529.10	1734.63
529.30	1787.88
529.50	1646.57
529.70	1740.77
529.90	1746.92
530.09	1689.57
530.29	1621.99
530.49	1697.77
530.69	1951.71
530.89	1701.86
531.09	1765.35
531.28	1652.71
531.48	1769.44
531.68	1802.21
531.88	1718.25
532.08	1824.74
532.28	1740.77
532.47	1722.34
532.67	1808.36
532.87	1734.63
533.07	1732.58
533.27	1736.68
533.46	1783.78
533.66	1779.68
533.86	1644.52
534.06	1708.01
534.26	1732.58
534.45	1757.16
534.65	1800.16
534.85	1734.63
535.05	1708.01
535.25	1791.97
535.44	1646.57
535.64	1751.01
535.84	1738.73
536.04	1753.06
536.24	1755.11
536.43	1802.21
536.63	1744.87
536.83	1734.63
537.03	1705.96
537.22	1658.85
537.42	1675.24
537.62	1763.30
537.82	1683.43
538.02	1767.40
538.21	1845.22
538.41	1861.60
538.61	1742.82
538.81	1746.92
539.00	1832.93
539.20	1601.51
539.40	1693.67
539.60	1800.16
539.79	1837.03
539.99	1673.19
540.19	1738.73
540.39	1748.97
540.58	1777.64
540.78	1794.02
540.98	1767.40
541.18	1783.78
541.37	1720.29
541.57	1708.01
541.77	1781.73
541.97	1681.38
542.16	1660.90
542.36	1656.81
542.56	1738.73
542.76	1906.66
542.95	1740.77
543.15	1759.21
543.35	1822.69
543.54	1673.19
543.74	1740.77
543.94	1798.12
544.14	1765.35
544.33	1726.44
544.53	1755.11
544.73	1669.09
544.93	1718.25
545.12	1687.53
545.32	1771.49
545.52	1751.01
545.71	1734.63
545.91	1656.81
546.11	1738.73
546.30	1673.19
546.50	1708.01
546.70	1830.88
546.90	1783.78
547.09	1685.48
547.29	1708.01
547.49	1738.73
547.68	1728.49
547.88	1654.76
548.08	1794.02
548.27	2176.99
548.47	1673.19
548.67	1640.42
548.87	1767.40
549.06	1730.53
549.26	1710.05
549.46	1695.72
549.65	1734.63
549.85	1755.11
550.05	1777.64
550.24	1638.38
550.44	1781.73
550.64	1822.69
550.83	1783.78
551.03	1851.36
551.23	1777.64
551.42	1812.45
551.62	1802.21
551.82	1740.77
552.01	1720.29
552.21	1796.07
552.41	1724.39
552.60	1841.12
552.80	1771.49
553.00	1693.67
553.19	1812.45
553.39	1861.60
553.59	1687.53
553.78	1812.45
553.98	1794.02
554.17	1644.52
554.37	1798.12
554.57	1841.12
554.76	1705.96
554.96	1767.40
555.16	1712.10
555.35	1806.31
555.55	1730.53
555.75	1732.58
555.94	1791.97
556.14	1640.42
556.33	1779.68
556.53	1662.95
556.73	1787.88
556.92	1820.64
557.12	1894.37
557.32	1759.21
557.51	1853.41
557.71	1777.64
557.90	1863.65
558.10	1812.45
558.30	1759.21
558.49	1738.73
558.69	1755.11
558.88	1685.48
559.08	1757.16
559.28	1722.34
559.47	1787.88
559.67	1814.50
559.86	1902.56
560.06	1751.01
560.26	1720.29
560.45	1847.27
560.65	1732.58
560.84	1785.83
561.04	1718.25
561.24	1738.73
561.43	1699.81
561.63	1824.74
561.82	1783.78
562.02	1802.21
562.22	1640.42
562.41	1660.90
562.61	1697.77
562.80	1675.24
563.00	1863.65
563.19	1779.68
563.39	1802.21
563.59	1812.45
563.78	1636.33
563.98	1644.52
564.17	1685.48
564.37	1624.04
564.56	1781.73
564.76	1648.61
564.96	1892.32
565.15	1828.84
565.35	1937.38
565.54	1718.25
565.74	1732.58
565.93	1791.97
566.13	1716.20
566.32	1771.49
566.52	1787.88
566.71	1701.86
566.91	1798.12
567.11	1705.96
567.30	1656.81
567.50	1804.26
567.69	1757.16
567.89	1757.16
568.08	1718.25
568.28	1880.04
568.47	1714.15
568.67	1814.50
568.86	1798.12
569.06	1783.78
569.25	1736.68
569.45	1814.50
569.64	1724.39
569.84	1712.10
570.04	1812.45
570.23	1734.63
570.43	1697.77
570.62	1830.88
570.82	1834.98
571.01	1714.15
571.21	1744.87
571.40	1671.14
571.60	1816.55
571.79	1802.21
571.99	1652.71
572.18	1644.52
572.38	1742.82
572.57	1693.67
572.77	1787.88
572.96	1978.34
573.16	1761.25
573.35	1775.59
573.55	1787.88
573.74	1787.88
573.94	1783.78
574.13	1716.20
574.33	1849.32
574.52	1812.45
574.71	1775.59
574.91	1775.59
575.10	1734.63
575.30	1708.01
575.49	1722.34
575.69	1697.77
575.88	1724.39
576.08	1742.82
576.27	1755.11
576.47	1802.21
576.66	1773.54
576.86	1808.36
577.05	1730.53
577.25	1820.64
577.44	1826.79
577.64	1724.39
577.83	1730.53
578.02	1783.78
578.22	1861.60
578.41	1845.22
578.61	1720.29
578.80	1626.09
579.00	1771.49
579.19	1769.44
579.39	1794.02
579.58	1837.03
579.77	1718.25
579.97	1820.64
580.16	1753.06
580.36	1810.40
580.55	1841.12
580.75	1771.49
580.94	1736.68
581.13	1898.47
581.33	1771.49
581.52	1746.92
581.72	1834.98
581.91	1880.04
582.11	1708.01
582.30	1781.73
582.49	1798.12
582.69	1880.04
582.88	1800.16
583.08	1708.01
583.27	1869.80
583.47	1800.16
583.66	1734.63
583.85	1675.24
584.05	1816.55
584.24	1794.02
584.44	1789.92
584.63	1767.40
584.82	1808.36
585.02	1777.64
585.21	1798.12
585.41	1796.07
585.60	1791.97
585.79	1939.43
585.99	1867.75
586.18	1898.47
586.37	2197.47
586.57	3454.92
586.76	9731.95
586.96	23869.08
587.15	33766.91
587.34	39957.92
587.54	41538.95
587.73	36232.66
587.93	26011.25
588.12	21247.68
588.31	18003.69
588.51	16238.34
588.70	14870.30
588.89	13936.43
589.09	12345.16
589.28	10774.36
589.47	9219.96
589.67	7800.71
589.86	6330.27
590.06	4884.41
590.25	3758.02
590.44	3010.51
590.64	2525.15
590.83	2215.90
591.02	2164.70
591.22	1933.28
591.41	1863.65
591.60	1802.21
591.80	1857.51
591.99	1755.11
592.18	1779.68
592.38	1824.74
592.57	1746.92
592.76	1738.73
592.96	1773.54
593.15	1710.05
593.34	1828.84
593.54	1800.16
593.73	1818.60
593.92	1834.98
594.12	1757.16
594.31	1771.49
594.50	1771.49
594.70	1857.51
594.89	1837.03
595.08	1789.92
595.28	1732.58
595.47	1986.53
595.66	1757.16
595.86	1748.97
596.05	1718.25
596.24	1681.38
596.43	1861.60
596.63	1857.51
596.82	1802.21
597.01	1781.73
597.21	1896.42
597.40	1732.58
597.59	1812.45
597.79	1773.54
597.98	1787.88
598.17	1732.58
598.36	1783.78
598.56	1755.11
598.75	1665.00
598.94	1734.63
599.14	1751.01
599.33	1720.29
599.52	1820.64
599.71	1789.92
599.91	1802.21
600.10	1783.78
600.29	1791.97
600.48	1773.54
600.68	1781.73
600.87	1746.92
601.06	1714.15
601.26	1679.33
601.45	1746.92
601.64	1708.01
601.83	1798.12
602.03	1705.96
602.22	1644.52
602.41	1751.01
602.60	1800.16
602.80	1861.60
602.99	1791.97
603.18	1656.81
603.37	1822.69
603.57	1808.36
603.76	1726.44
603.95	1810.40
604.14	1771.49
604.34	1697.77
604.53	1830.88
604.72	1748.97
604.91	1773.54
605.10	1744.87
605.30	1687.53
605.49	1886.18
605.68	1779.68
605.87	1777.64
606.07	1763.30
606.26	1769.44
606.45	1841.12
606.64	1744.87
606.84	1718.25
607.03	1761.25
607.22	1783.78
607.41	1697.77
607.60	1720.29
607.80	1767.40
607.99	1689.57
608.18	1794.02
608.37	1730.53
608.56	1697.77
608.76	1853.41
608.95	1851.36
609.14	1751.01
609.33	1730.53
609.52	1828.84
609.72	1728.49
609.91	1757.16
610.10	1742.82
610.29	1740.77
610.48	1759.21
610.68	1837.03
610.87	1701.86
611.06	1837.03
611.25	1665.00
611.44	1734.63
611.63	1669.09
611.83	1746.92
612.02	1687.53
612.21	1755.11
612.40	1624.04
612.59	1665.00
612.79	1740.77
612.98	1724.39
613.17	1800.16
613.36	1714.15
613.55	1816.55
613.74	1697.77
613.93	1685.48
614.13	1701.86
614.32	1699.81
614.51	1730.53
614.70	1734.63
614.89	1744.87
615.08	1728.49
615.28	2127.84
615.47	1587.18
615.66	1814.50
615.85	1667.05
616.04	1869.80
616.23	1705.96
616.42	1724.39
616.62	1755.11
616.81	1781.73
617.00	1730.53
617.19	1822.69
617.38	1796.07
617.57	1734.63
617.76	1773.54
617.95	1708.01
618.15	1748.97
618.34	1984.48
618.53	1656.81
618.72	1777.64
618.91	1839.08
619.10	1853.41
619.29	1710.05
619.48	1738.73
619.68	1660.90
619.87	1710.05
620.06	1665.00
620.25	1767.40
620.44	1716.20
620.63	1757.16
620.82	1744.87
621.01	1798.12
621.20	1634.28
621.39	1751.01
621.59	1744.87
621.78	1691.62
621.97	1708.01
622.16	1798.12
622.35	1812.45
622.54	1789.92
622.73	1826.79
622.92	1619.94
623.11	1826.79
623.30	1652.71
623.49	1712.10
623.68	1658.85
623.88	1820.64
624.07	1673.19
624.26	1781.73
624.45	1763.30
624.64	1736.68
624.83	1769.44
625.02	1677.29
625.21	1767.40
625.40	1779.68
625.59	1806.31
625.78	1734.63
625.97	1705.96
626.16	1820.64
626.35	1726.44
626.54	1759.21
626.74	1806.31
626.93	1662.95
627.12	1837.03
627.31	1724.39
627.50	1798.12
627.69	1734.63
627.88	1691.62
628.07	1718.25
628.26	1603.56
628.45	1710.05
628.64	1714.15
628.83	1730.53
629.02	1705.96
629.21	1761.25
629.40	1662.95
629.59	1665.00
629.78	1689.57
629.97	1693.67
630.16	1789.92
630.35	1730.53
630.54	1667.05
630.73	1740.77
630.92	1740.77
631.11	1644.52
631.30	1796.07
631.49	1742.82
631.68	1714.15
631.87	1742.82
632.06	1636.33
632.25	1828.84
632.44	1710.05
632.63	1761.25
632.82	1636.33
633.01	1634.28
633.20	1677.29
633.39	1679.33
633.58	1703.91
633.77	1681.38
633.96	1785.83
634.15	1753.06
634.34	1763.30
634.53	1746.92
634.72	1779.68
634.91	1605.61
635.10	1705.96
635.29	1812.45
635.48	1681.38
635.67	1708.01
635.86	1644.52
636.05	1806.31
636.24	1703.91
636.43	1716.20
636.62	1826.79
636.81	1648.61
637.00	1755.11
637.19	1718.25
637.38	1751.01
637.57	1624.04
637.76	1726.44
637.95	1695.72
638.14	1611.75
638.33	1650.66
638.52	1699.81
638.71	1697.77
638.89	1767.40
639.08	1855.46
639.27	1669.09
639.46	1656.81
639.65	1816.55
639.84	1765.35
640.03	1796.07
640.22	1681.38
640.41	1800.16
640.60	1748.97
640.79	1726.44
640.98	1755.11
641.17	1710.05
641.36	1722.34
641.55	1757.16
641.74	1665.00
641.92	1675.24
642.11	1638.38
642.30	1689.57
642.49	1667.05
642.68	1783.78
642.87	1783.78
643.06	1720.29
643.25	1708.01
643.44	1755.11
643.63	1658.85
643.82	1732.58
644.00	1714.15
644.19	1771.49
644.38	1611.75
644.57	1751.01
644.76	1759.21
644.95	1738.73
645.14	1722.34
645.33	1734.63
645.52	1814.50
645.71	1675.24
645.89	1619.94
646.08	1753.06
646.27	1748.97
646.46	1814.50
646.65	1640.42
646.84	1675.24
647.03	1701.86
647.22	1710.05
647.40	1759.21
647.59	1718.25
647.78	1597.42
647.97	1665.00
648.16	1640.42
648.35	1861.60
648.54	1867.75
648.73	1773.54
648.91	1734.63
649.10	1748.97
649.29	1708.01
649.48	1730.53
649.67	1767.40
649.86	1746.92
650.05	1724.39
650.23	1789.92
650.42	1703.91
650.61	1796.07
650.80	1683.43
650.99	1837.03
651.18	1761.25
651.36	1755.11
651.55	1757.16
651.74	1779.68
651.93	1720.29
652.12	1605.61
652.31	1687.53
652.49	1689.57
652.68	1759.21
652.87	1728.49
653.06	1785.83
653.25	1853.41
653.44	1701.86
653.62	1839.08
653.81	1728.49
654.00	1710.05
654.19	1771.49
654.38	1920.99
654.56	1767.40
654.75	1599.46
654.94	1759.21
655.13	1742.82
655.32	1705.96
655.51	1828.84
655.69	1708.01
655.88	1724.39
656.07	1714.15
656.26	1812.45
656.45	1601.51
656.63	1773.54
656.82	1802.21
657.01	1687.53
657.20	1671.14
657.38	1779.68
657.57	1656.81
657.76	1624.04
657.95	1718.25
658.14	1718.25
658.32	1726.44
658.51	1701.86
658.70	1798.12
658.89	1783.78
659.08	1658.85
659.26	1853.41
659.45	1624.04
659.64	1712.10
659.83	1613.80
660.01	1896.42
660.20	1699.81
660.39	1767.40
660.58	1593.32
660.76	1804.26
660.95	1705.96
661.14	1701.86
661.33	1701.86
661.51	1660.90
661.70	1621.99
661.89	1816.55
662.08	1734.63
662.26	1665.00
662.45	1636.33
662.64	1857.51
662.83	1767.40
663.01	1587.18
663.20	1656.81
663.39	1791.97
663.58	1701.86
663.76	1675.24
663.95	1794.02
664.14	1685.48
664.32	1730.53
664.51	1699.81
664.70	1677.29
664.89	1695.72
665.07	1656.81
665.26	1724.39
665.45	1650.66
665.64	1806.31
665.82	1730.53
666.01	1808.36
666.20	1718.25
666.38	1783.78
666.57	1839.08
666.76	2129.89
666.95	4573.11
667.13	10375.01
667.32	15286.04
667.51	17848.05
667.69	18630.37
667.88	17438.45
668.07	11935.56
668.25	9383.79
668.44	8062.85
668.63	7313.30
668.81	6512.54
669.00	6217.63
669.19	5572.52
669.38	4999.09
669.56	4411.32
669.75	4020.16
669.94	3405.77
670.12	2947.03
670.31	2422.75
670.50	2277.34
670.68	2127.84
670.87	1933.28
671.06	1771.49
671.24	1785.83
671.43	1794.02
671.62	1708.01
671.80	1742.82
671.99	1742.82
672.18	1710.05
672.36	1746.92
672.55	1726.44
672.74	1816.55
672.92	1734.63
673.11	1738.73
673.29	1677.29
673.48	1738.73
673.67	1693.67
673.85	1746.92
674.04	1740.77
674.23	1689.57
674.41	1816.55
674.60	1652.71
674.79	1626.09
674.97	1636.33
675.16	1724.39
675.34	1738.73
675.53	1738.73
675.72	1775.59
675.90	1822.69
676.09	1683.43
676.28	1734.63
676.46	1603.56
676.65	1716.20
676.83	1710.05
677.02	1730.53
677.21	1800.16
677.39	1757.16
677.58	1667.05
677.77	1710.05
677.95	1613.80
678.14	1656.81
678.32	1697.77
678.51	1699.81
678.70	1802.21
678.88	1710.05
679.07	1814.50
679.25	1687.53
679.44	1769.44
679.63	1685.48
679.81	1687.53
680.00	1775.59
680.18	1769.44
680.37	1894.37
680.55	1714.15
680.74	1624.04
680.93	1695.72
681.11	1708.01
681.30	1726.44
681.48	1742.82
681.67	1757.16
681.85	1740.77
682.04	1624.04
682.23	1802.21
682.41	1796.07
682.60	1695.72
682.78	1732.58
682.97	1654.76
683.15	1703.91
683.34	1654.76
683.53	1839.08
683.71	1658.85
683.90	1877.99
684.08	1746.92
684.27	1673.19
684.45	1701.86
684.64	1787.88
684.82	1783.78
685.01	1800.16
685.19	1738.73
685.38	1763.30
685.57	1714.15
685.75	1632.23
685.94	1652.71
686.12	1699.81
686.31	1730.53
686.49	1757.16
686.68	1587.18
686.86	1816.55
687.05	1714.15
687.23	1787.88
687.42	1728.49
687.60	1642.47
687.79	1785.83
687.97	1773.54
688.16	1781.73
688.34	1773.54
688.53	1601.51
688.71	1826.79
688.90	1810.40
689.08	1755.11
689.27	1658.85
689.45	1806.31
689.64	1787.88
689.82	1744.87
690.01	1738.73
690.19	1708.01
690.38	1742.82
690.56	1796.07
690.75	1697.77
690.93	1660.90
691.12	1650.66
691.30	1761.25
691.49	1687.53
691.67	1681.38
691.86	1853.41
692.04	1691.62
692.23	1636.33
692.41	1671.14
692.60	1855.46
692.78	1810.40
692.97	1722.34
693.15	1755.11
693.34	1830.88
693.52	1808.36
693.71	1632.23
693.89	1654.76
694.08	1699.81
694.26	1734.63
694.44	1824.74
694.63	1757.16
694.81	1685.48
695.00	1712.10
695.18	1828.84
695.37	1861.60
695.55	1675.24
695.74	1751.01
695.92	1716.20
696.10	1771.49
696.29	1640.42
696.47	1681.38
696.66	1640.42
696.84	1724.39
697.03	1697.77
697.21	1871.84
697.40	2355.16
697.58	1734.63
697.76	1654.76
697.95	1677.29
698.13	1656.81
698.32	1718.25
698.50	1701.86
698.68	1720.29
698.87	1742.82
699.05	1865.70
699.24	1812.45
699.42	1794.02
699.61	1630.18
699.79	1722.34
699.97	1740.77
700.16	1710.05
700.34	1648.61
700.53	1748.97
700.71	1810.40
700.89	1724.39
701.08	1685.48
701.26	1716.20
701.45	2199.52
701.63	1714.15
701.81	1640.42
702.00	1665.00
702.18	1689.57
702.37	1669.09
702.55	1728.49
702.73	1662.95
702.92	1636.33
703.10	1771.49
703.28	1671.14
703.47	1677.29
703.65	1697.77
703.84	1761.25
704.02	1691.62
704.20	1861.60
704.39	1681.38
704.57	1648.61
704.75	1759.21
704.94	1822.69
705.12	1742.82
705.30	1851.36
705.49	2340.83
705.67	4442.04
705.86	9498.48
706.04	12709.69
706.22	14346.02
706.41	15109.91
706.59	13365.04
706.77	9324.40
706.96	7294.86
707.14	6559.64
707.32	5808.04
707.51	5427.12
707.69	4820.92
707.87	4097.99
708.06	3504.07
708.24	2865.11
708.42	2475.99
708.61	2213.85
708.79	1875.94
708.97	1837.03
709.16	1814.50
709.34	1853.41
709.52	1789.92
709.71	1783.78
709.89	1757.16
710.07	1675.24
710.26	1720.29
710.44	1705.96
710.62	1777.64
710.80	1671.14
710.99	1800.16
711.17	1806.31
711.35	1673.19
711.54	1581.03
711.72	1847.27
711.90	1775.59
712.09	1761.25
712.27	1705.96
712.45	1771.49
712.63	1761.25
712.82	1660.90
713.00	1681.38
713.18	1781.73
713.37	1789.92
713.55	1814.50
713.73	1779.68
713.91	1730.53
714.10	1714.15
714.28	1736.68
714.46	1746.92
714.65	1759.21
714.83	1742.82
715.01	1730.53
715.19	1757.16
715.38	1767.40
715.56	1699.81
715.74	1703.91
715.92	1685.48
716.11	1828.84
716.29	1611.75
716.47	1642.47
716.65	1728.49
716.84	1644.52
717.02	1787.88
717.20	1669.09
717.38	1740.77
717.57	1730.53
717.75	1763.30
717.93	1669.09
718.11	1765.35
718.30	1583.08
718.48	1828.84
718.66	1820.64
718.84	1734.63
719.03	1742.82
719.21	1716.20
719.39	1806.31
719.57	1765.35
719.75	1783.78
719.94	1654.76
720.12	1699.81
720.30	1746.92
720.48	1802.21
720.67	1716.20
720.85	1695.72
721.03	1693.67
721.21	1724.39
721.39	1837.03
721.58	1800.16
721.76	1761.25
721.94	1744.87
722.12	1748.97
722.30	1810.40
722.49	1701.86
722.67	1722.34
722.85	1806.31
723.03	1673.19
723.21	1689.57
723.40	1746.92
723.58	1773.54
723.76	1785.83
723.94	1718.25
724.12	1617.90
724.30	1798.12
724.49	1839.08
724.67	1566.70
724.85	1769.44
725.03	1671.14
725.21	1824.74
725.40	1779.68
725.58	1656.81
725.76	1759.21
725.94	1687.53
726.12	1718.25
726.30	1673.19
726.49	1703.91
726.67	1753.06
726.85	1740.77
727.03	1751.01
727.21	2236.38
727.39	2922.45
727.57	3864.52
727.76	4214.72
727.94	4448.19
728.12	4274.11
728.30	3551.18
728.48	2979.79
728.66	2686.94
728.84	2570.20
729.03	2293.72
729.21	2176.99
729.39	1998.82
729.57	1779.68
729.75	1886.18
729.93	1814.50
730.11	1675.24
730.30	1781.73
730.48	1656.81
730.66	1769.44
730.84	1816.55
731.02	1687.53
731.20	1665.00
731.38	1783.78
731.56	1691.62
731.74	1728.49
731.93	1781.73
732.11	1722.34
732.29	1658.85
732.47	1736.68
732.65	1730.53
732.83	1753.06
733.01	1822.69
733.19	1581.03
733.37	1726.44
733.56	1746.92
733.74	1722.34
733.92	1871.84
734.10	1714.15
734.28	1708.01
734.46	1681.38
734.64	1722.34
734.82	1642.47
735.00	1703.91
735.18	1726.44
735.36	1675.24
735.54	1673.19
735.73	1734.63
735.91	1714.15
736.09	1765.35
736.27	1658.85
736.45	1767.40
736.63	1617.90
736.81	1683.43
736.99	1742.82
737.17	1783.78
737.35	1687.53
737.53	1693.67
737.71	1685.48
737.89	1765.35
738.07	1710.05
738.25	1673.19
738.43	1693.67
738.61	1621.99
738.80	1658.85
738.98	1665.00
739.16	1671.14
739.34	1667.05
739.52	1798.12
739.70	1710.05
739.88	1718.25
740.06	1697.77
740.24	1652.71
740.42	1753.06
740.60	1636.33
740.78	1581.03
740.96	1701.86
741.14	1724.39
741.32	1710.05
741.50	1689.57
741.68	1871.84
741.86	1771.49
742.04	1683.43
742.22	1621.99
742.40	1798.12
742.58	1767.40
742.76	1685.48
742.94	1757.16
743.12	1689.57
743.30	1673.19
743.48	1757.16
743.66	1632.23
743.84	1755.11
744.02	1646.57
744.20	1714.15
744.38	1669.09
744.56	1724.39
744.74	1771.49
744.92	1767.40
745.10	1724.39
745.28	1791.97
745.46	1828.84
745.64	1769.44
745.82	1773.54
746.00	1656.81
746.18	1767.40
746.36	1605.61
746.54	1687.53
746.72	1726.44
746.90	1677.29
747.08	1783.78
747.26	1718.25
747.44	1796.07
747.62	1734.63
747.80	1687.53
747.98	1767.40
748.15	1726.44
748.33	1777.64
748.51	1654.76
748.69	1730.53
748.87	1658.85
749.05	1646.57
749.23	1708.01
749.41	1744.87
749.59	1658.85
749.77	1794.02
749.95	1677.29
750.13	1744.87
750.31	1710.05
750.49	1701.86
750.67	1771.49
750.85	1824.74
751.03	1683.43
751.20	1890.28
751.38	1734.63
751.56	1681.38
751.74	1695.72
751.92	1714.15
752.10	1710.05
752.28	1802.21
752.46	1587.18
752.64	1726.44
752.82	1781.73
753.00	1806.31
753.18	1677.29
753.35	1697.77
753.53	1621.99
753.71	1681.38
753.89	1810.40
754.07	1673.19
754.25	1732.58
754.43	1734.63
754.61	1626.09
754.79	1734.63
754.97	1744.87
755.14	1740.77
755.32	1607.66
755.50	1761.25
755.68	1773.54
755.86	1660.90
756.04	1736.68
756.22	1554.41
756.40	1720.29
756.57	1802.21
756.75	1695.72
756.93	1787.88
757.11	1748.97
757.29	1574.89
757.47	1667.05
757.65	1679.33
757.82	1546.22
758.00	1722.34
758.18	1656.81
758.36	1697.77
758.54	1853.41
758.72	1607.66
758.90	1787.88
759.07	1691.62
759.25	1744.87
759.43	1667.05
759.61	1634.28
759.79	2234.33
759.97	1751.01
760.15	1693.67
760.32	1699.81
760.50	1773.54
760.68	1845.22
760.86	1710.05
761.04	1765.35
761.22	1726.44
761.39	1746.92
761.57	1681.38
761.75	1656.81
761.93	1822.69
762.11	1765.35
762.28	1796.07
762.46	1648.61
762.64	1742.82
762.82	1599.46
763.00	1710.05
763.18	1753.06
763.35	1644.52
763.53	1812.45
763.71	1667.05
763.89	1830.88
764.07	1732.58
764.24	1708.01
764.42	1783.78
764.60	1748.97
764.78	1695.72
764.96	1740.77
765.13	1755.11
765.31	1697.77
765.49	1728.49
765.67	1693.67
765.84	1681.38
766.02	1683.43
766.20	1624.04
766.38	1724.39
766.56	1718.25
766.73	1679.33
766.91	1740.77
767.09	1650.66
767.27	1849.32
767.44	1681.38
767.62	1720.29
767.80	1718.25
767.98	1687.53
768.15	1703.91
768.33	1701.86
768.51	1785.83
768.69	1732.58
768.87	1742.82
769.04	1744.87
769.22	1822.69
769.40	1748.97
769.58	1816.55
769.75	1716.20
769.93	1763.30
770.11	1671.14
770.28	1705.96
770.46	1802.21
770.64	1710.05
770.82	1751.01
770.99	1773.54
771.17	1693.67
771.35	1667.05
771.53	1658.85
771.70	1646.57
771.88	1761.25
772.06	1720.29
772.23	1730.53
772.41	1765.35
772.59	1710.05
772.77	1669.09
772.94	1726.44
773.12	1695.72
773.30	1730.53
773.47	1564.65
773.65	1603.56
773.83	1746.92
774.01	1624.04
774.18	1593.32
774.36	1632.23
774.54	1656.81
774.71	1732.58
774.89	1656.81
775.07	1587.18
775.24	1710.05
775.42	1699.81
775.60	1748.97
775.78	1726.44
775.95	1632.23
776.13	1660.90
776.31	1632.23
776.48	1796.07
776.66	1812.45
776.84	1683.43
777.01	1650.66
777.19	1714.15
777.37	1693.67
777.54	1769.44
777.72	1837.03
777.90	1822.69
778.07	1626.09
778.25	1826.79
778.43	1798.12
778.60	1656.81
778.78	1703.91
778.96	1773.54
779.13	1650.66
779.31	1757.16
779.49	1777.64
779.66	1761.25
779.84	1697.77
780.01	1685.48
780.19	1699.81
780.37	1787.88
780.54	1783.78
780.72	1685.48
780.90	1732.58
781.07	1708.01
781.25	1712.10
781.43	1808.36
781.60	1736.68
781.78	1771.49
781.95	1673.19
782.13	1617.90
782.31	1759.21
782.48	1624.04
782.66	1757.16
782.83	1814.50
783.01	1783.78
783.19	1753.06
783.36	1673.19
783.54	1605.61
783.72	1722.34
783.89	1710.05
784.07	1638.38
784.24	1701.86
784.42	1820.64
784.60	1722.34
784.77	1693.67
784.95	1630.18
785.12	1726.44
785.30	1742.82
785.47	1705.96
785.65	1654.76
785.83	1726.44
786.00	1714.15
786.18	1714.15
786.35	1667.05
786.53	1693.67
786.71	1724.39
786.88	1718.25
787.06	1693.67
787.23	1738.73
787.41	1615.85
787.58	1783.78
787.76	1654.76
787.94	1708.01
788.11	1759.21
788.29	1708.01
788.46	1697.77
788.64	1644.52
788.81	1695.72
788.99	1679.33
789.16	1640.42
789.34	1683.43
789.52	1689.57
789.69	1718.25
789.87	1556.46
790.04	1650.66
790.22	1685.48
790.39	1830.88
790.57	1677.29
790.74	1595.37
790.92	1759.21
791.09	1632.23
791.27	1746.92
791.44	1714.15
791.62	1705.96
791.79	1773.54
791.97	1742.82
792.15	1822.69
792.32	1798.12
792.50	1734.63
792.67	1769.44
792.85	1736.68
793.02	1738.73
793.20	1708.01
793.37	1644.52
793.55	1624.04
793.72	1665.00
793.90	1691.62
794.07	1667.05
794.25	1632.23
794.42	1732.58
794.60	1652.71
794.77	1640.42
794.95	1730.53
795.12	1767.40
795.30	1675.24
795.47	1574.89
795.65	1892.32
795.82	1718.25
796.00	1619.94
796.17	1734.63
796.34	1624.04
796.52	1679.33
796.69	1761.25
796.87	1730.53
797.04	1732.58
797.22	1781.73
797.39	1734.63
797.57	1716.20
797.74	1806.31
797.92	1683.43
798.09	1673.19
798.27	1814.50
798.44	1642.47
798.62	1613.80
798.79	1705.96
798.96	1630.18
799.14	1665.00
799.31	1886.18
799.49	1724.39
799.66	1712.10
799.84	1710.05
800.01	1636.33
800.19	1751.01
800.36	1640.42
800.53	1726.44
800.71	1728.49
800.88	1822.69
801.06	1736.68
801.23	1716.20
801.41	1689.57
801.58	1554.41
801.75	1669.09
801.93	1705.96
802.10	1763.30
802.28	1669.09
802.45	1677.29
802.63	1734.63
802.80	1804.26
802.97	1687.53
803.15	1714.15
803.32	1701.86
803.50	1589.22
803.67	1687.53
803.84	1662.95
804.02	1757.16
804.19	1671.14
804.37	1570.79
804.54	1591.27
804.71	1724.39
804.89	1779.68
805.06	1671.14
805.24	1656.81
805.41	1652.71
805.58	1671.14
805.76	1775.59
805.93	1671.14
806.10	1816.55
806.28	1775.59
806.45	1654.76
806.63	1738.73
806.80	1765.35
806.97	1681.38
807.15	1652.71
807.32	1771.49
807.49	1724.39
807.67	1578.98
807.84	1744.87
808.01	1667.05
808.19	1847.27
808.36	1814.50
808.54	1652.71
808.71	1650.66
808.88	1724.39
809.06	1744.87
809.23	1753.06
809.40	1665.00
809.58	1781.73
809.75	1769.44
809.92	1662.95
810.10	1865.70
810.27	1685.48
810.44	1789.92
810.62	1767.40
810.79	1705.96
810.96	1701.86
811.14	1652.71
811.31	1693.67
811.48	1787.88
811.66	1806.31
811.83	1794.02
812.00	1820.64
812.18	1720.29
812.35	1789.92
812.52	1722.34
812.69	1646.57
812.87	1751.01
813.04	1755.11
813.21	1785.83
813.39	1665.00
813.56	1658.85
813.73	1716.20
813.91	1693.67
814.08	1669.09
814.25	1677.29
814.42	1535.98
814.60	1695.72
814.77	1683.43
814.94	1748.97
815.12	1744.87
815.29	1761.25
815.46	1724.39
815.63	1693.67
815.81	1636.33
815.98	1806.31
816.15	1687.53
816.33	1720.29
816.50	1665.00
816.67	1755.11
816.84	1757.16
817.02	1611.75
817.19	1744.87
817.36	1787.88
817.53	1726.44
817.71	1669.09
817.88	1746.92
818.05	1654.76
818.22	1656.81
818.40	1802.21
818.57	1710.05
818.74	1677.29
818.91	1722.34
819.09	1796.07
819.26	1781.73
819.43	1558.50
819.60	1722.34
819.78	1689.57
819.95	1738.73
820.12	1699.81
820.29	1781.73
820.47	1814.50
820.64	1648.61
820.81	1605.61
820.98	1677.29
821.15	1703.91
821.33	1755.11
821.50	1644.52
821.67	1755.11
821.84	1662.95
822.02	1779.68
822.19	1810.40
822.36	1624.04
822.53	1732.58
822.70	1630.18
822.88	1650.66
823.05	1812.45
823.22	1671.14
823.39	1742.82
823.56	1724.39
823.74	1785.83
823.91	1705.96
824.08	1703.91
824.25	1673.19
824.42	1769.44
824.60	1662.95
824.77	1781.73
824.94	1671.14
825.11	1812.45
825.28	1605.61
825.45	1708.01
825.63	1777.64
825.80	1673.19
825.97	1761.25
826.14	1691.62
826.31	1662.95
826.48	1703.91
826.66	1619.94
826.83	1714.15
827.00	1767.40
827.17	1652.71
827.34	1724.39
827.51	1708.01
827.69	1632.23
827.86	1724.39
828.03	1712.10
828.20	1722.34
828.37	1619.94
828.54	1789.92
828.71	1701.86
828.89	1828.84
829.06	1693.67
829.23	1794.02
829.40	1693.67
829.57	1650.66
829.74	1759.21
829.91	1585.13
830.09	1675.24
830.26	1767.40
830.43	1777.64
830.60	1726.44
830.77	1689.57
830.94	1806.31
831.11	1718.25
831.28	1730.53
831.46	1675.24
831.63	1703.91
831.80	1742.82
831.97	1646.57
832.14	1665.00
832.31	1753.06
832.48	1722.34
832.65	1746.92
832.82	1722.34
832.99	1789.92
833.17	1716.20
833.34	1814.50
833.51	1746.92
833.68	1662.95
833.85	1800.16
834.02	1714.15
834.19	1581.03
834.36	1685.48
834.53	1703.91
834.70	1753.06
834.87	1708.01
835.04	1710.05
835.22	1673.19
835.39	1685.48
835.56	1712.10
835.73	1685.48
835.90	1791.97
836.07	1687.53
836.24	1755.11
836.41	1597.42
836.58	1691.62
836.75	1824.74
836.92	1679.33
837.09	1642.47
837.26	1679.33
837.43	1775.59
837.60	1705.96
837.77	1691.62
837.94	1658.85
838.12	1738.73
838.29	1767.40
838.46	1533.93
838.63	1699.81
838.80	1771.49
838.97	1716.20
839.14	1785.83
839.31	1660.90
839.48	1665.00
839.65	1662.95
839.82	1759.21
839.99	1732.58
840.16	1683.43
840.33	1722.34
840.50	1708.01
840.67	1691.62
840.84	1599.46
841.01	1710.05
841.18	1714.15
841.35	1691.62
841.52	1769.44
841.69	1804.26
841.86	1738.73
842.03	1693.67
842.20	1667.05
842.37	1712.10
842.54	1708.01
842.71	1708.01
842.88	1570.79
843.05	1763.30
843.22	1693.67
843.39	1693.67
843.56	1699.81
843.73	1732.58
843.90	1665.00
844.07	1705.96
844.24	1703.91
844.41	1703.91
844.58	1703.91
844.75	1755.11
844.92	1662.95
845.09	1730.53
845.26	1654.76
845.43	1732.58
845.60	1724.39
845.77	1765.35
845.94	1658.85
846.10	1697.77
846.27	1619.94
846.44	1691.62
846.61	1675.24
846.78	1703.91
846.95	1796.07
847.12	1689.57
847.29	1656.81
847.46	1677.29
847.63	1832.93
847.80	1703.91
847.97	1650.66
848.14	1843.17
848.31	1726.44
848.48	1578.98
848.65	1773.54
848.82	1632.23
848.98	1802.21
849.15	1783.78
849.32	1773.54
849.49	1802.21
849.66	1693.67
849.83	1794.02
850.00	1671.14
850.17	1730.53
850.34	1710.05
850.51	1800.16
850.68	1656.81
850.85	1802.21
851.01	1722.34
851.18	1751.01
851.35	1640.42
851.52	1779.68
851.69	1728.49
851.86	1628.14
852.03	1656.81
852.20	1789.92
852.37	1755.11
852.53	1599.46
852.70	1708.01
852.87	1726.44
853.04	1730.53
853.21	1726.44
853.38	1773.54
853.55	1763.30
853.72	1783.78
853.89	1703.91
854.05	1593.32
854.22	1730.53
854.39	1728.49
854.56	1718.25
854.73	1820.64
854.90	1605.61
855.07	1701.86
855.23	1673.19
855.40	1675.24
855.57	1714.15
855.74	1624.04
855.91	1880.04
856.08	1722.34
856.25	1658.85
856.41	1652.71
856.58	1716.20
856.75	1738.73
856.92	1695.72
857.09	1738.73
857.26	1642.47
857.42	1644.52
857.59	1701.86
857.76	1675.24
857.93	1734.63
858.10	1736.68
858.27	1697.77
858.43	1656.81
858.60	1662.95
858.77	1714.15
858.94	1636.33
859.11	1773.54
859.27	1699.81
859.44	1724.39
859.61	1832.93
859.78	1791.97
859.95	1665.00
860.12	1699.81
860.28	1859.56
860.45	1796.07
860.62	1712.10
860.79	1796.07
860.95	1654.76
861.12	1652.71
861.29	1699.81
861.46	1677.29
861.63	1755.11
861.79	1665.00
861.96	1728.49
862.13	1697.77
862.30	1798.12
862.47	1640.42
862.63	1685.48
862.80	1767.40
862.97	1746.92
863.14	1761.25
863.30	1716.20
863.47	1638.38
863.64	1834.98
863.81	1738.73
863.97	1685.48
864.14	1781.73
864.31	1683.43
864.48	1738.73
864.65	1677.29
864.81	1699.81
864.98	1736.68
865.15	1812.45
865.32	1738.73
865.48	1753.06
865.65	1779.68
865.82	1724.39
865.98	1767.40
866.15	1744.87
866.32	1748.97
866.49	1689.57
866.65	1787.88
866.82	1640.42
866.99	1689.57
867.16	1744.87
867.32	1650.66
867.49	1730.53
867.66	1716.20
867.83	1644.52
867.99	1697.77
868.16	1638.38
868.33	1669.09
868.49	1724.39
868.66	1658.85
868.83	1779.68
868.99	1728.49
869.16	1736.68
869.33	1806.31
869.50	1681.38
869.66	1691.62
869.83	1640.42
870.00	1591.27
870.16	1695.72
870.33	1675.24
870.50	1699.81
870.66	1787.88
870.83	1863.65
871.00	1716.20
871.17	1742.82
871.33	1796.07
871.50	1714.15
871.67	1763.30
871.83	1626.09
872.00	1798.12
872.17	1667.05
872.33	1822.69
872.50	1773.54
872.67	1683.43
872.83	1716.20
873.00	1751.01
873.17	1697.77
873.33	1757.16
873.50	1794.02
873.67	1687.53
873.83	1708.01
874.00	1660.90
874.16	1746.92
874.33	1722.34
874.50	1732.58
874.66	1742.82
874.83	1712.10
875.00	1771.49
875.16	1798.12
875.33	1775.59
875.50	1611.75
875.66	1742.82
875.83	1687.53
875.99	1824.74
876.16	1730.53
876.33	1632.23
876.49	1718.25
876.66	1777.64
876.83	1691.62
876.99	1656.81
877.16	1695.72
877.32	1667.05
877.49	1654.76
877.66	1767.40
877.82	1808.36
877.99	1738.73
878.15	1697.77
878.32	1701.86
878.49	1722.34
878.65	1691.62
878.82	1779.68
878.98	1628.14
879.15	1806.31
879.32	1771.49
879.48	1755.11
879.65	1699.81
879.81	1681.38
879.98	1656.81
880.15	1669.09
880.31	1789.92
880.48	1587.18
880.64	1763.30
880.81	1742.82
880.97	1777.64
881.14	1775.59
881.31	1593.32
881.47	1837.03
881.64	1736.68
881.80	1632.23
881.97	1828.84
882.13	1724.39
882.30	1697.77
882.47	1677.29
882.63	1630.18
882.80	1742.82
882.96	1644.52
883.13	1767.40
883.29	1677.29
883.46	1705.96
883.62	1849.32
883.79	1689.57
883.95	1798.12
884.12	1736.68
884.29	1738.73
884.45	1640.42
884.62	1705.96
884.78	1632.23
884.95	1779.68
885.11	1730.53
885.28	1765.35
885.44	1634.28
885.61	1761.25
885.77	1761.25
885.94	1783.78
886.10	1697.77
886.27	1638.38
886.43	1726.44
886.60	1761.25
886.76	1675.24
886.93	1708.01
887.09	1724.39
887.26	1624.04
887.42	1689.57
887.59	1732.58
887.75	1806.31
887.92	1738.73
888.08	1839.08
888.25	1789.92
888.41	1769.44
888.58	1775.59
888.74	1599.46
888.91	1712.10
>>>>>End Processed Spectral Data<<<<<
