SpectraSuite Data File
++++++++++++++++++++++++++++++++++++
Date: Mon Jun 06 13:31:17 CEST 2016
User: root
Dark Spectrum Present: No
Reference Spectrum Present: No
Number of Sampled Component Spectra: 1
Spectrometers: USB4C02835
Integration Time (usec): 100000 (USB4C02835)
Spectra Averaged: 1 (USB4C02835)
Boxcar Smoothing: 0 (USB4C02835)
Correct for Electrical Dark: No (USB4C02835)
Strobe/Lamp Enabled: No (USB4C02835)
Correct for Detector Non-linearity: No (USB4C02835)
Correct for Stray Light: No (USB4C02835)
Number of Pixels in Processed Spectrum: 3648
>>>>>Begin Processed Spectral Data<<<<<
177.47	1468.39
177.69	1468.39
177.91	1468.39
178.13	1486.83
178.36	1507.30
178.58	1578.98
178.80	1804.26
179.02	1595.37
179.24	1621.99
179.46	1671.14
179.68	1724.39
179.90	1683.43
180.13	1689.57
180.35	1730.53
180.57	1697.77
180.79	1767.40
181.01	1726.44
181.23	1791.97
181.45	1757.16
181.67	1689.57
181.90	1712.10
182.12	1638.38
182.34	1665.00
182.56	1673.19
182.78	1621.99
183.00	1679.33
183.22	1650.66
183.44	1595.37
183.66	1830.88
183.89	1757.16
184.11	1748.97
184.33	1800.16
184.55	1705.96
184.77	1734.63
184.99	1699.81
185.21	1687.53
185.43	1781.73
185.65	1628.14
185.87	1714.15
186.10	1830.88
186.32	1839.08
186.54	1638.38
186.76	1787.88
186.98	1712.10
187.20	1708.01
187.42	1689.57
187.64	1705.96
187.86	1689.57
188.08	1806.31
188.30	1673.19
188.52	1615.85
188.75	1755.11
188.97	1742.82
189.19	1691.62
189.41	1673.19
189.63	1722.34
189.85	1732.58
190.07	1697.77
190.29	1714.15
190.51	1712.10
190.73	1714.15
190.95	1796.07
191.17	1660.90
191.39	1591.27
191.61	1685.48
191.84	1703.91
192.06	1775.59
192.28	1689.57
192.50	1896.42
192.72	1697.77
192.94	1626.09
193.16	1736.68
193.38	1673.19
193.60	1632.23
193.82	1642.47
194.04	1773.54
194.26	1642.47
194.48	1613.80
194.70	1646.57
194.92	1660.90
195.14	1714.15
195.36	1679.33
195.58	1689.57
195.80	1660.90
196.02	1638.38
196.24	1665.00
196.46	1740.77
196.69	1597.42
196.91	1904.61
197.13	1646.57
197.35	1705.96
197.57	1755.11
197.79	1730.53
198.01	1677.29
198.23	1779.68
198.45	1681.38
198.67	1667.05
198.89	1644.52
199.11	1681.38
199.33	1685.48
199.55	1595.37
199.77	1681.38
199.99	1828.84
200.21	1691.62
200.43	1714.15
200.65	1677.29
200.87	1568.74
201.09	1626.09
201.31	1605.61
201.53	1732.58
201.75	1671.14
201.97	1691.62
202.19	1652.71
202.41	1734.63
202.63	1804.26
202.85	1726.44
203.07	1714.15
203.29	1656.81
203.51	1576.94
203.73	1619.94
203.95	1843.17
204.17	1691.62
204.39	1669.09
204.61	1617.90
204.83	1636.33
205.05	1703.91
205.27	1732.58
205.49	1755.11
205.71	1679.33
205.93	1652.71
206.15	1673.19
206.37	1757.16
206.59	1642.47
206.81	1695.72
207.03	1607.66
207.25	1585.13
207.47	1757.16
207.69	1687.53
207.91	1812.45
208.13	1812.45
208.34	1636.33
208.56	1615.85
208.78	1724.39
209.00	1624.04
209.22	1681.38
209.44	1714.15
209.66	1699.81
209.88	1693.67
210.10	1701.86
210.32	1724.39
210.54	1742.82
210.76	1636.33
210.98	1703.91
211.20	1544.17
211.42	1722.34
211.64	1765.35
211.86	1763.30
212.08	1775.59
212.30	1787.88
212.52	1675.24
212.74	1699.81
212.96	1722.34
213.17	1757.16
213.39	1763.30
213.61	1687.53
213.83	1665.00
214.05	1665.00
214.27	1665.00
214.49	1681.38
214.71	1685.48
214.93	1742.82
215.15	1665.00
215.37	1695.72
215.59	1621.99
215.81	1718.25
216.03	1775.59
216.24	1716.20
216.46	1765.35
216.68	1755.11
216.90	1742.82
217.12	1736.68
217.34	1746.92
217.56	1687.53
217.78	1730.53
218.00	1738.73
218.22	1679.33
218.44	1746.92
218.66	1716.20
218.87	1789.92
219.09	1730.53
219.31	1699.81
219.53	1724.39
219.75	1665.00
219.97	1744.87
220.19	1736.68
220.41	1615.85
220.63	1738.73
220.85	1857.51
221.06	1671.14
221.28	1759.21
221.50	1751.01
221.72	1675.24
221.94	1714.15
222.16	1628.14
222.38	1751.01
222.60	1691.62
222.82	1658.85
223.03	1710.05
223.25	1646.57
223.47	1781.73
223.69	1779.68
223.91	1746.92
224.13	1642.47
224.35	1667.05
224.57	1730.53
224.78	1789.92
225.00	1595.37
225.22	1652.71
225.44	1757.16
225.66	1751.01
225.88	1646.57
226.10	1691.62
226.32	1691.62
226.53	1865.70
226.75	1665.00
226.97	1615.85
227.19	1667.05
227.41	1562.60
227.63	1681.38
227.85	1599.46
228.06	1802.21
228.28	1689.57
228.50	1759.21
228.72	1636.33
228.94	1642.47
229.16	1574.89
229.37	1574.89
229.59	1691.62
229.81	1763.30
230.03	1716.20
230.25	1570.79
230.47	1611.75
230.69	1619.94
230.90	1802.21
231.12	1677.29
231.34	1726.44
231.56	1658.85
231.78	1619.94
232.00	1730.53
232.21	1724.39
232.43	1656.81
232.65	1599.46
232.87	1703.91
233.09	1671.14
233.30	1687.53
233.52	1771.49
233.74	1726.44
233.96	1634.28
234.18	1751.01
234.40	1732.58
234.61	1789.92
234.83	1642.47
235.05	1607.66
235.27	1822.69
235.49	1773.54
235.70	1699.81
235.92	1798.12
236.14	1800.16
236.36	1810.40
236.58	1570.79
236.79	1798.12
237.01	1697.77
237.23	1701.86
237.45	1841.12
237.67	1581.03
237.88	1689.57
238.10	1832.93
238.32	1611.75
238.54	1730.53
238.76	1710.05
238.97	1708.01
239.19	1665.00
239.41	1763.30
239.63	1693.67
239.85	1726.44
240.06	1634.28
240.28	1718.25
240.50	1783.78
240.72	1710.05
240.93	1605.61
241.15	1740.77
241.37	1683.43
241.59	1869.80
241.81	1644.52
242.02	1695.72
242.24	1669.09
242.46	1671.14
242.68	1624.04
242.89	1755.11
243.11	1720.29
243.33	1697.77
243.55	1699.81
243.76	1679.33
243.98	1660.90
244.20	1667.05
244.42	1697.77
244.64	1701.86
244.85	1648.61
245.07	1595.37
245.29	1691.62
245.51	1658.85
245.72	1677.29
245.94	1753.06
246.16	1654.76
246.38	1654.76
246.59	1703.91
246.81	1607.66
247.03	1617.90
247.24	1679.33
247.46	1681.38
247.68	1710.05
247.90	1638.38
248.11	1708.01
248.33	1773.54
248.55	1671.14
248.77	1671.14
248.98	1675.24
249.20	1740.77
249.42	1736.68
249.64	1695.72
249.85	1624.04
250.07	1669.09
250.29	1724.39
250.50	1722.34
250.72	1665.00
250.94	1693.67
251.16	1824.74
251.37	1800.16
251.59	1701.86
251.81	1650.66
252.02	1726.44
252.24	1611.75
252.46	1740.77
252.68	1607.66
252.89	1699.81
253.11	1638.38
253.33	1812.45
253.54	1730.53
253.76	1656.81
253.98	1710.05
254.20	1665.00
254.41	1654.76
254.63	1605.61
254.85	1654.76
255.06	1679.33
255.28	1673.19
255.50	1673.19
255.71	1597.42
255.93	1613.80
256.15	1728.49
256.36	1714.15
256.58	1628.14
256.80	1746.92
257.02	1671.14
257.23	1656.81
257.45	1720.29
257.67	1705.96
257.88	1685.48
258.10	1740.77
258.32	1640.42
258.53	1755.11
258.75	1800.16
258.97	1644.52
259.18	1642.47
259.40	1689.57
259.62	1781.73
259.83	1779.68
260.05	1703.91
260.27	1923.04
260.48	1720.29
260.70	1634.28
260.92	1667.05
261.13	1658.85
261.35	1652.71
261.57	1746.92
261.78	1587.18
262.00	1626.09
262.22	1708.01
262.43	1605.61
262.65	1677.29
262.86	1740.77
263.08	1935.33
263.30	1642.47
263.51	1562.60
263.73	1689.57
263.95	1785.83
264.16	1621.99
264.38	1701.86
264.60	1748.97
264.81	1687.53
265.03	1726.44
265.25	1724.39
265.46	1650.66
265.68	1738.73
265.89	1726.44
266.11	1615.85
266.33	1687.53
266.54	1742.82
266.76	1708.01
266.98	1689.57
267.19	1746.92
267.41	1755.11
267.62	1617.90
267.84	1599.46
268.06	1642.47
268.27	1712.10
268.49	1806.31
268.70	1818.60
268.92	1710.05
269.14	1636.33
269.35	1576.94
269.57	1718.25
269.79	1701.86
270.00	1681.38
270.22	1732.58
270.43	1669.09
270.65	1597.42
270.87	1646.57
271.08	1787.88
271.30	1802.21
271.51	1722.34
271.73	1720.29
271.95	1767.40
272.16	1699.81
272.38	1726.44
272.59	1652.71
272.81	1734.63
273.02	1677.29
273.24	1710.05
273.46	1798.12
273.67	1738.73
273.89	1638.38
274.10	1667.05
274.32	1853.41
274.54	1656.81
274.75	1726.44
274.97	1648.61
275.18	1804.26
275.40	1751.01
275.61	1722.34
275.83	1720.29
276.05	1613.80
276.26	1689.57
276.48	1763.30
276.69	1673.19
276.91	1660.90
277.12	1775.59
277.34	1755.11
277.55	1746.92
277.77	1652.71
277.99	1630.18
278.20	1656.81
278.42	1605.61
278.63	1611.75
278.85	1685.48
279.06	1703.91
279.28	1734.63
279.49	1765.35
279.71	1716.20
279.93	1683.43
280.14	1761.25
280.36	1636.33
280.57	1718.25
280.79	1720.29
281.00	1626.09
281.22	1677.29
281.43	1753.06
281.65	1621.99
281.86	1615.85
282.08	1710.05
282.29	1832.93
282.51	1667.05
282.73	1685.48
282.94	1589.22
283.16	1738.73
283.37	1804.26
283.59	1656.81
283.80	1728.49
284.02	1679.33
284.23	1599.46
284.45	1708.01
284.66	1681.38
284.88	1628.14
285.09	1675.24
285.31	1714.15
285.52	1804.26
285.74	1613.80
285.95	1705.96
286.17	1740.77
286.38	1712.10
286.60	1753.06
286.81	1685.48
287.03	1642.47
287.24	1681.38
287.46	1736.68
287.67	1695.72
287.89	1822.69
288.10	1673.19
288.32	1765.35
288.53	1791.97
288.75	1726.44
288.96	1695.72
289.18	1607.66
289.39	1601.51
289.61	1701.86
289.82	1830.88
290.04	1873.89
290.25	1642.47
290.47	1765.35
290.68	1634.28
290.90	1781.73
291.11	1583.08
291.33	1730.53
291.54	1656.81
291.76	1630.18
291.97	1662.95
292.18	1734.63
292.40	1697.77
292.61	1701.86
292.83	1832.93
293.04	1728.49
293.26	1718.25
293.47	1669.09
293.69	1626.09
293.90	1665.00
294.12	1771.49
294.33	1611.75
294.55	1669.09
294.76	1851.36
294.97	1734.63
295.19	1796.07
295.40	1673.19
295.62	1642.47
295.83	1650.66
296.05	1630.18
296.26	1736.68
296.48	1710.05
296.69	1632.23
296.90	1720.29
297.12	1716.20
297.33	1787.88
297.55	1677.29
297.76	1697.77
297.98	1677.29
298.19	1691.62
298.41	1626.09
298.62	1640.42
298.83	1771.49
299.05	1757.16
299.26	1648.61
299.48	1660.90
299.69	1710.05
299.90	1626.09
300.12	1597.42
300.33	1718.25
300.55	1669.09
300.76	1763.30
300.98	1654.76
301.19	1662.95
301.40	1695.72
301.62	1640.42
301.83	1638.38
302.05	1667.05
302.26	1628.14
302.47	1751.01
302.69	1619.94
302.90	1675.24
303.12	1613.80
303.33	1699.81
303.54	1808.36
303.76	1656.81
303.97	1763.30
304.19	1742.82
304.40	1613.80
304.61	1759.21
304.83	1794.02
305.04	1705.96
305.26	1710.05
305.47	1611.75
305.68	1712.10
305.90	1644.52
306.11	1691.62
306.33	1673.19
306.54	1607.66
306.75	1599.46
306.97	1636.33
307.18	1632.23
307.39	1714.15
307.61	1742.82
307.82	1693.67
308.04	1755.11
308.25	1654.76
308.46	1691.62
308.68	1718.25
308.89	1693.67
309.10	1730.53
309.32	1652.71
309.53	1673.19
309.74	1755.11
309.96	1665.00
310.17	1751.01
310.39	1708.01
310.60	1787.88
310.81	1718.25
311.03	1591.27
311.24	1761.25
311.45	1695.72
311.67	1751.01
311.88	1691.62
312.09	1716.20
312.31	1681.38
312.52	1742.82
312.73	1642.47
312.95	1679.33
313.16	1624.04
313.37	1800.16
313.59	1794.02
313.80	1710.05
314.01	1738.73
314.23	1699.81
314.44	1671.14
314.65	1615.85
314.87	1628.14
315.08	1701.86
315.29	1632.23
315.51	1640.42
315.72	1617.90
315.93	1773.54
316.15	1740.77
316.36	1636.33
316.57	1701.86
316.79	1787.88
317.00	1728.49
317.21	1738.73
317.43	1669.09
317.64	1722.34
317.85	1675.24
318.07	1675.24
318.28	1681.38
318.49	1787.88
318.70	1935.33
318.92	1777.64
319.13	1722.34
319.34	1837.03
319.56	1826.79
319.77	1769.44
319.98	1802.21
320.20	1832.93
320.41	1720.29
320.62	1714.15
320.83	1695.72
321.05	1857.51
321.26	1638.38
321.47	1716.20
321.69	1828.84
321.90	1566.70
322.11	1705.96
322.32	1683.43
322.54	1773.54
322.75	1640.42
322.96	1808.36
323.18	1644.52
323.39	1554.41
323.60	1550.31
323.81	1689.57
324.03	1660.90
324.24	1671.14
324.45	1779.68
324.66	1660.90
324.88	1695.72
325.09	1800.16
325.30	1710.05
325.52	1769.44
325.73	1734.63
325.94	1624.04
326.15	1660.90
326.37	1632.23
326.58	1716.20
326.79	1779.68
327.00	1644.52
327.22	1730.53
327.43	1687.53
327.64	1589.22
327.85	1730.53
328.07	1769.44
328.28	1783.78
328.49	1607.66
328.70	1640.42
328.92	1656.81
329.13	1675.24
329.34	1802.21
329.55	1726.44
329.76	1658.85
329.98	1677.29
330.19	1734.63
330.40	1724.39
330.61	1738.73
330.83	1687.53
331.04	1605.61
331.25	1724.39
331.46	1705.96
331.68	1705.96
331.89	1781.73
332.10	1630.18
332.31	1591.27
332.52	1654.76
332.74	1730.53
332.95	1599.46
333.16	1708.01
333.37	1681.38
333.58	1609.70
333.80	1697.77
334.01	1644.52
334.22	1665.00
334.43	1730.53
334.64	1642.47
334.86	1578.98
335.07	1591.27
335.28	1714.15
335.49	1654.76
335.70	1677.29
335.92	1781.73
336.13	1787.88
336.34	1761.25
336.55	1730.53
336.76	1683.43
336.98	1562.60
337.19	1658.85
337.40	1798.12
337.61	1812.45
337.82	1695.72
338.04	1814.50
338.25	1617.90
338.46	1710.05
338.67	1687.53
338.88	1746.92
339.09	1630.18
339.31	1687.53
339.52	1628.14
339.73	1611.75
339.94	1751.01
340.15	1740.77
340.36	1656.81
340.58	1628.14
340.79	1609.70
341.00	1734.63
341.21	1583.08
341.42	1826.79
341.63	1720.29
341.85	1744.87
342.06	1718.25
342.27	1638.38
342.48	1753.06
342.69	1662.95
342.90	1730.53
343.12	1726.44
343.33	1728.49
343.54	1769.44
343.75	1777.64
343.96	1720.29
344.17	1619.94
344.38	1705.96
344.60	1691.62
344.81	1634.28
345.02	1624.04
345.23	1755.11
345.44	1751.01
345.65	1705.96
345.86	1763.30
346.07	1712.10
346.29	1660.90
346.50	1822.69
346.71	1691.62
346.92	1740.77
347.13	1796.07
347.34	1570.79
347.55	1695.72
347.76	1765.35
347.98	1525.74
348.19	1601.51
348.40	1775.59
348.61	1742.82
348.82	1779.68
349.03	1738.73
349.24	1673.19
349.45	1822.69
349.66	1599.46
349.88	1726.44
350.09	1683.43
350.30	1806.31
350.51	1765.35
350.72	1718.25
350.93	1699.81
351.14	1718.25
351.35	1748.97
351.56	1720.29
351.77	1689.57
351.99	1703.91
352.20	1734.63
352.41	1738.73
352.62	1558.50
352.83	1726.44
353.04	1697.77
353.25	1681.38
353.46	1761.25
353.67	1824.74
353.88	1593.32
354.09	1734.63
354.30	1652.71
354.52	1802.21
354.73	1730.53
354.94	1619.94
355.15	1703.91
355.36	1751.01
355.57	1642.47
355.78	1685.48
355.99	1638.38
356.20	1658.85
356.41	1757.16
356.62	1796.07
356.83	1615.85
357.04	1769.44
357.25	1624.04
357.46	1703.91
357.68	1679.33
357.89	1710.05
358.10	1638.38
358.31	1708.01
358.52	1595.37
358.73	1685.48
358.94	1642.47
359.15	1640.42
359.36	1769.44
359.57	1671.14
359.78	1740.77
359.99	1726.44
360.20	1652.71
360.41	1660.90
360.62	1812.45
360.83	1705.96
361.04	1765.35
361.25	1669.09
361.46	1728.49
361.67	1726.44
361.88	1689.57
362.09	1720.29
362.30	1710.05
362.51	1728.49
362.72	1726.44
362.93	1710.05
363.14	1718.25
363.35	1796.07
363.56	1632.23
363.78	1763.30
363.99	1724.39
364.20	1685.48
364.41	1683.43
364.62	1787.88
364.83	1759.21
365.04	1701.86
365.25	1591.27
365.46	1875.94
365.67	1662.95
365.88	1630.18
366.09	1656.81
366.30	1724.39
366.51	1705.96
366.72	1607.66
366.93	1714.15
367.14	1703.91
367.35	1722.34
367.56	1660.90
367.77	1820.64
367.98	1687.53
368.18	1689.57
368.39	1638.38
368.60	1710.05
368.81	1724.39
369.02	1705.96
369.23	1656.81
369.44	1535.98
369.65	1675.24
369.86	1687.53
370.07	1679.33
370.28	1683.43
370.49	1773.54
370.70	1791.97
370.91	1636.33
371.12	1636.33
371.33	1755.11
371.54	1638.38
371.75	1834.98
371.96	1591.27
372.17	1697.77
372.38	1681.38
372.59	1660.90
372.80	1705.96
373.01	1718.25
373.22	1742.82
373.43	1738.73
373.64	1599.46
373.85	1804.26
374.06	1855.46
374.26	1783.78
374.47	1728.49
374.68	1751.01
374.89	1691.62
375.10	1728.49
375.31	1710.05
375.52	1738.73
375.73	1689.57
375.94	1634.28
376.15	1777.64
376.36	1693.67
376.57	1634.28
376.78	1662.95
376.99	1665.00
377.20	1734.63
377.40	1712.10
377.61	1820.64
377.82	1722.34
378.03	1755.11
378.24	1759.21
378.45	1722.34
378.66	1642.47
378.87	1673.19
379.08	1640.42
379.29	1730.53
379.50	1689.57
379.71	1748.97
379.91	1744.87
380.12	1699.81
380.33	1787.88
380.54	1720.29
380.75	1714.15
380.96	1744.87
381.17	1701.86
381.38	1771.49
381.59	1783.78
381.80	1689.57
382.00	1800.16
382.21	1617.90
382.42	1744.87
382.63	1888.23
382.84	1740.77
383.05	1798.12
383.26	1791.97
383.47	1748.97
383.68	1765.35
383.88	1712.10
384.09	1697.77
384.30	1789.92
384.51	1714.15
384.72	1701.86
384.93	1667.05
385.14	1695.72
385.35	1759.21
385.55	1587.18
385.76	1767.40
385.97	1654.76
386.18	1699.81
386.39	1685.48
386.60	1691.62
386.81	1662.95
387.02	1691.62
387.22	1642.47
387.43	1746.92
387.64	1777.64
387.85	1810.40
388.06	2152.42
388.27	4247.49
388.48	6782.87
388.68	8236.93
388.89	9654.12
389.10	9758.57
389.31	8490.88
389.52	7741.32
389.73	6719.39
389.93	6287.26
390.14	5853.09
390.35	5152.69
390.56	4491.20
390.77	3780.55
390.98	2992.08
391.18	2506.71
391.39	2095.07
391.60	1804.26
391.81	1769.44
392.02	1726.44
392.23	1787.88
392.43	1751.01
392.64	1828.84
392.85	1759.21
393.06	1751.01
393.27	1642.47
393.47	1654.76
393.68	1773.54
393.89	1730.53
394.10	1812.45
394.31	1644.52
394.52	1714.15
394.72	1669.09
394.93	1769.44
395.14	1648.61
395.35	1724.39
395.56	1673.19
395.76	1736.68
395.97	1761.25
396.18	1867.75
396.39	1796.07
396.60	2074.59
396.80	1869.80
397.01	1880.04
397.22	1818.60
397.43	1837.03
397.64	1693.67
397.84	1859.56
398.05	1841.12
398.26	1730.53
398.47	1761.25
398.67	1744.87
398.88	1697.77
399.09	1736.68
399.30	1611.75
399.51	1751.01
399.71	1638.38
399.92	1673.19
400.13	1714.15
400.34	1632.23
400.54	1705.96
400.75	1722.34
400.96	1708.01
401.17	1802.21
401.37	1650.66
401.58	1732.58
401.79	1636.33
402.00	1830.88
402.21	2011.11
402.41	1970.15
402.62	2019.30
402.83	1976.29
403.04	2000.87
403.24	2052.06
403.45	1832.93
403.66	1896.42
403.87	1843.17
404.07	1906.66
404.28	1904.61
404.49	1849.32
404.70	1808.36
404.90	1708.01
405.11	1722.34
405.32	1667.05
405.52	1611.75
405.73	1685.48
405.94	1669.09
406.15	1751.01
406.35	1640.42
406.56	1701.86
406.77	1691.62
406.98	1775.59
407.18	1675.24
407.39	1802.21
407.60	1693.67
407.80	1712.10
408.01	1703.91
408.22	1728.49
408.43	1673.19
408.63	1734.63
408.84	1683.43
409.05	1705.96
409.25	1595.37
409.46	1710.05
409.67	1679.33
409.88	1695.72
410.08	1763.30
410.29	1591.27
410.50	1738.73
410.70	1683.43
410.91	1662.95
411.12	1740.77
411.32	1665.00
411.53	1677.29
411.74	1771.49
411.95	1755.11
412.15	1730.53
412.36	1720.29
412.57	1771.49
412.77	1763.30
412.98	1800.16
413.19	1687.53
413.39	1734.63
413.60	1689.57
413.81	1808.36
414.01	1650.66
414.22	1703.91
414.43	1726.44
414.63	1679.33
414.84	1828.84
415.05	1771.49
415.25	1656.81
415.46	1746.92
415.67	1677.29
415.87	1708.01
416.08	1697.77
416.29	1695.72
416.49	1687.53
416.70	1724.39
416.91	1619.94
417.11	1654.76
417.32	1728.49
417.53	1808.36
417.73	1767.40
417.94	1683.43
418.15	1646.57
418.35	1755.11
418.56	1722.34
418.77	1722.34
418.97	1724.39
419.18	1716.20
419.38	1550.31
419.59	1675.24
419.80	1701.86
420.00	1642.47
420.21	1705.96
420.42	1708.01
420.62	1675.24
420.83	1677.29
421.04	1687.53
421.24	1669.09
421.45	1804.26
421.65	1708.01
421.86	1671.14
422.07	1728.49
422.27	1767.40
422.48	1724.39
422.69	1648.61
422.89	1681.38
423.10	1638.38
423.30	1703.91
423.51	1685.48
423.72	1751.01
423.92	1804.26
424.13	1609.70
424.33	1767.40
424.54	1845.22
424.75	1726.44
424.95	1794.02
425.16	1744.87
425.36	1642.47
425.57	1722.34
425.78	1783.78
425.98	1757.16
426.19	1683.43
426.39	1638.38
426.60	1734.63
426.81	1763.30
427.01	1691.62
427.22	1624.04
427.42	1626.09
427.63	1691.62
427.83	1693.67
428.04	1832.93
428.25	1818.60
428.45	1767.40
428.66	1773.54
428.86	1714.15
429.07	1730.53
429.28	1695.72
429.48	1646.57
429.69	1634.28
429.89	1695.72
430.10	1708.01
430.30	1746.92
430.51	1697.77
430.71	1619.94
430.92	1730.53
431.13	1685.48
431.33	1775.59
431.54	1636.33
431.74	1796.07
431.95	1794.02
432.15	1714.15
432.36	1679.33
432.56	1748.97
432.77	1771.49
432.98	1791.97
433.18	1687.53
433.39	1775.59
433.59	1763.30
433.80	1771.49
434.00	1826.79
434.21	1671.14
434.41	1636.33
434.62	1851.36
434.82	1632.23
435.03	1665.00
435.23	1677.29
435.44	1624.04
435.64	1763.30
435.85	1785.83
436.06	1716.20
436.26	1771.49
436.47	1687.53
436.67	1683.43
436.88	1789.92
437.08	1665.00
437.29	1812.45
437.49	1728.49
437.70	1812.45
437.90	1681.38
438.11	1814.50
438.31	1689.57
438.52	1806.31
438.72	1869.80
438.93	1845.22
439.13	1728.49
439.34	1761.25
439.54	1769.44
439.75	1810.40
439.95	1783.78
440.16	1658.85
440.36	1787.88
440.57	1689.57
440.77	1765.35
440.98	1710.05
441.18	1775.59
441.39	1730.53
441.59	1662.95
441.80	1841.12
442.00	1705.96
442.21	1869.80
442.41	1628.14
442.62	1732.58
442.82	1638.38
443.02	1714.15
443.23	1746.92
443.43	1738.73
443.64	1779.68
443.84	1695.72
444.05	1806.31
444.25	1665.00
444.46	1665.00
444.66	1718.25
444.87	1761.25
445.07	1669.09
445.28	1734.63
445.48	1800.16
445.69	1800.16
445.89	1822.69
446.09	1701.86
446.30	2015.20
446.50	2719.70
446.71	3760.07
446.91	4315.07
447.12	4763.58
447.32	4736.95
447.53	4358.08
447.73	4001.73
447.93	3520.46
448.14	3325.90
448.34	3229.65
448.55	2871.25
448.75	2820.05
448.96	2648.02
449.16	2461.66
449.36	2322.40
449.57	1992.67
449.77	1900.52
449.98	1820.64
450.18	1765.35
450.39	1865.70
450.59	1796.07
450.79	1718.25
451.00	1812.45
451.20	1787.88
451.41	1732.58
451.61	1812.45
451.81	1718.25
452.02	1714.15
452.22	1697.77
452.43	1730.53
452.63	1779.68
452.84	1781.73
453.04	1734.63
453.24	1738.73
453.45	1722.34
453.65	1753.06
453.86	1730.53
454.06	1767.40
454.26	1671.14
454.47	1646.57
454.67	1808.36
454.87	1771.49
455.08	1708.01
455.28	1814.50
455.49	1757.16
455.69	1650.66
455.89	1781.73
456.10	1783.78
456.30	1763.30
456.51	1798.12
456.71	1744.87
456.91	1689.57
457.12	1677.29
457.32	1742.82
457.52	1656.81
457.73	1742.82
457.93	1796.07
458.14	1736.68
458.34	1712.10
458.54	1681.38
458.75	1705.96
458.95	1691.62
459.15	1712.10
459.36	1669.09
459.56	1746.92
459.76	1804.26
459.97	1724.39
460.17	1644.52
460.37	1787.88
460.58	1689.57
460.78	1724.39
460.99	1683.43
461.19	1796.07
461.39	1621.99
461.60	1767.40
461.80	1804.26
462.00	1636.33
462.21	1751.01
462.41	1652.71
462.61	1693.67
462.82	1611.75
463.02	1724.39
463.22	1689.57
463.43	1800.16
463.63	1718.25
463.83	1837.03
464.04	1773.54
464.24	1720.29
464.44	1691.62
464.64	1679.33
464.85	1667.05
465.05	1742.82
465.25	1796.07
465.46	1738.73
465.66	1798.12
465.86	1691.62
466.07	1736.68
466.27	1679.33
466.47	1675.24
466.68	1619.94
466.88	1740.77
467.08	1800.16
467.29	1771.49
467.49	1724.39
467.69	1730.53
467.89	1781.73
468.10	1611.75
468.30	1732.58
468.50	1746.92
468.71	1791.97
468.91	1685.48
469.11	1845.22
469.31	1732.58
469.52	1701.86
469.72	1755.11
469.92	1806.31
470.13	1648.61
470.33	1738.73
470.53	1822.69
470.73	2035.68
470.94	2199.52
471.14	2394.08
471.34	2598.87
471.54	2349.02
471.75	2250.72
471.95	2129.89
472.15	2090.98
472.36	2078.69
472.56	2105.31
472.76	2013.15
472.96	1978.34
473.17	1990.63
473.37	1882.08
473.57	1712.10
473.77	1796.07
473.98	1808.36
474.18	1634.28
474.38	1867.75
474.58	1705.96
474.79	1738.73
474.99	1724.39
475.19	1742.82
475.39	1761.25
475.60	1755.11
475.80	1738.73
476.00	1705.96
476.20	1724.39
476.41	1685.48
476.61	1761.25
476.81	1832.93
477.01	1685.48
477.21	1943.52
477.42	1759.21
477.62	1726.44
477.82	1832.93
478.02	1673.19
478.23	1683.43
478.43	1665.00
478.63	1708.01
478.83	1710.05
479.03	1685.48
479.24	1746.92
479.44	1810.40
479.64	1636.33
479.84	1591.27
480.04	1552.36
480.25	1746.92
480.45	1669.09
480.65	1683.43
480.85	1789.92
481.06	1720.29
481.26	1824.74
481.46	1771.49
481.66	1660.90
481.86	1691.62
482.06	1832.93
482.27	1679.33
482.47	1687.53
482.67	1775.59
482.87	1656.81
483.07	1839.08
483.28	1632.23
483.48	1708.01
483.68	1621.99
483.88	1632.23
484.08	1669.09
484.29	1656.81
484.49	1730.53
484.69	1646.57
484.89	1832.93
485.09	1757.16
485.29	1744.87
485.50	1734.63
485.70	1673.19
485.90	1779.68
486.10	1751.01
486.30	1738.73
486.50	1820.64
486.71	1705.96
486.91	1703.91
487.11	1708.01
487.31	1656.81
487.51	1697.77
487.71	1652.71
487.91	1667.05
488.12	1646.57
488.32	1607.66
488.52	1710.05
488.72	1576.94
488.92	1685.48
489.12	1734.63
489.32	1834.98
489.53	1667.05
489.73	1691.62
489.93	1828.84
490.13	1703.91
490.33	1644.52
490.53	1730.53
490.73	1738.73
490.94	1691.62
491.14	1708.01
491.34	1808.36
491.54	2179.04
491.74	2475.99
491.94	2944.98
492.14	3012.56
492.34	2981.84
492.54	2738.13
492.75	2457.56
492.95	2396.12
493.15	2310.11
493.35	2301.92
493.55	2254.81
493.75	2162.66
493.95	2068.45
494.15	1968.10
494.35	1937.38
494.56	1875.94
494.76	1730.53
494.96	1755.11
495.16	1812.45
495.36	1699.81
495.56	1748.97
495.76	1714.15
495.96	1703.91
496.16	1648.61
496.36	1820.64
496.56	1730.53
496.77	1771.49
496.97	1642.47
497.17	1740.77
497.37	1658.85
497.57	1734.63
497.77	1675.24
497.97	1638.38
498.17	1662.95
498.37	1705.96
498.57	1703.91
498.77	1728.49
498.97	1748.97
499.17	1814.50
499.38	1644.52
499.58	1767.40
499.78	1775.59
499.98	1830.88
500.18	1767.40
500.38	1746.92
500.58	1841.12
500.78	2555.86
500.98	4564.92
501.18	5910.44
501.38	6827.93
501.58	7131.03
501.78	6612.89
501.98	5670.83
502.18	4999.09
502.38	4343.74
502.58	4097.99
502.78	3717.06
502.98	3661.77
503.18	3360.72
503.38	3225.55
503.59	2826.20
503.79	2656.22
503.99	2508.76
504.19	2318.30
504.39	2176.99
504.59	2222.05
504.79	2082.78
504.99	1961.95
505.19	1880.04
505.39	1853.41
505.59	2031.58
505.79	1916.90
505.99	1812.45
506.19	1824.74
506.39	1900.52
506.59	1677.29
506.79	1718.25
506.99	1783.78
507.19	1808.36
507.39	1775.59
507.59	1691.62
507.79	1603.56
507.99	1724.39
508.19	1722.34
508.39	1650.66
508.59	1671.14
508.79	1845.22
508.99	1781.73
509.19	1675.24
509.39	1728.49
509.59	1755.11
509.79	1695.72
509.99	1710.05
510.19	1765.35
510.39	1720.29
510.59	1732.58
510.79	1650.66
510.99	1708.01
511.19	1665.00
511.39	1720.29
511.59	1796.07
511.79	1789.92
511.99	1740.77
512.19	1769.44
512.38	1695.72
512.58	1679.33
512.78	1677.29
512.98	1785.83
513.18	1804.26
513.38	1619.94
513.58	1738.73
513.78	1677.29
513.98	1738.73
514.18	1640.42
514.38	1736.68
514.58	1716.20
514.78	1710.05
514.98	1763.30
515.18	1734.63
515.38	1689.57
515.58	1818.60
515.78	1697.77
515.98	1755.11
516.18	1748.97
516.38	1710.05
516.57	1673.19
516.77	1708.01
516.97	1796.07
517.17	1673.19
517.37	1662.95
517.57	1765.35
517.77	1667.05
517.97	1687.53
518.17	1701.86
518.37	1722.34
518.57	1699.81
518.77	1689.57
518.97	1740.77
519.16	1808.36
519.36	1755.11
519.56	1712.10
519.76	1681.38
519.96	1730.53
520.16	1849.32
520.36	1753.06
520.56	1728.49
520.76	1718.25
520.96	1656.81
521.16	1830.88
521.35	1769.44
521.55	1841.12
521.75	1689.57
521.95	1617.90
522.15	1736.68
522.35	1570.79
522.55	1687.53
522.75	1769.44
522.95	1728.49
523.14	1652.71
523.34	1703.91
523.54	1722.34
523.74	1738.73
523.94	1734.63
524.14	1673.19
524.34	1814.50
524.54	1847.27
524.73	1763.30
524.93	1767.40
525.13	1710.05
525.33	1781.73
525.53	1857.51
525.73	1755.11
525.93	1808.36
526.13	1703.91
526.32	1714.15
526.52	1738.73
526.72	1759.21
526.92	1732.58
527.12	1779.68
527.32	1705.96
527.52	1751.01
527.71	1738.73
527.91	1763.30
528.11	1638.38
528.31	1820.64
528.51	1601.51
528.71	1804.26
528.90	1742.82
529.10	1834.98
529.30	1738.73
529.50	1652.71
529.70	1769.44
529.90	1642.47
530.09	1753.06
530.29	1699.81
530.49	1701.86
530.69	1890.28
530.89	1757.16
531.09	1730.53
531.28	1732.58
531.48	1726.44
531.68	1761.25
531.88	1703.91
532.08	1777.64
532.28	1755.11
532.47	1742.82
532.67	1789.92
532.87	1744.87
533.07	1744.87
533.27	1785.83
533.46	1738.73
533.66	1748.97
533.86	1796.07
534.06	1720.29
534.26	1777.64
534.45	1738.73
534.65	1791.97
534.85	1695.72
535.05	1714.15
535.25	1705.96
535.44	1634.28
535.64	1771.49
535.84	1681.38
536.04	1769.44
536.24	1611.75
536.43	1671.14
536.63	1740.77
536.83	1742.82
537.03	1759.21
537.22	1558.50
537.42	1570.79
537.62	1728.49
537.82	1738.73
538.02	1814.50
538.21	1820.64
538.41	1880.04
538.61	1742.82
538.81	1671.14
539.00	1777.64
539.20	1656.81
539.40	1742.82
539.60	1722.34
539.79	1746.92
539.99	1669.09
540.19	1675.24
540.39	1742.82
540.58	1748.97
540.78	1775.59
540.98	1726.44
541.18	1720.29
541.37	1796.07
541.57	1689.57
541.77	1708.01
541.97	1710.05
542.16	1609.70
542.36	1767.40
542.56	1693.67
542.76	1839.08
542.95	1789.92
543.15	1787.88
543.35	1787.88
543.54	1677.29
543.74	1624.04
543.94	1804.26
544.14	1691.62
544.33	1746.92
544.53	1773.54
544.73	1769.44
544.93	1746.92
545.12	1734.63
545.32	1714.15
545.52	1734.63
545.71	1681.38
545.91	1687.53
546.11	1714.15
546.30	1708.01
546.50	1730.53
546.70	1757.16
546.90	1724.39
547.09	1624.04
547.29	1730.53
547.49	1755.11
547.68	1689.57
547.88	1697.77
548.08	1697.77
548.27	2093.02
548.47	1695.72
548.67	1691.62
548.87	1753.06
549.06	1689.57
549.26	1787.88
549.46	1785.83
549.65	1697.77
549.85	1783.78
550.05	1697.77
550.24	1675.24
550.44	1746.92
550.64	1771.49
550.83	1677.29
551.03	1828.84
551.23	1738.73
551.42	1708.01
551.62	1783.78
551.82	1708.01
552.01	1767.40
552.21	1736.68
552.41	1722.34
552.60	1751.01
552.80	1804.26
553.00	1748.97
553.19	1740.77
553.39	1822.69
553.59	1644.52
553.78	1796.07
553.98	1730.53
554.17	1632.23
554.37	1861.60
554.57	1740.77
554.76	1693.67
554.96	1705.96
555.16	1763.30
555.35	1685.48
555.55	1748.97
555.75	1748.97
555.94	1742.82
556.14	1632.23
556.33	1761.25
556.53	1667.05
556.73	1689.57
556.92	1789.92
557.12	1877.99
557.32	1789.92
557.51	1814.50
557.71	1849.32
557.90	1812.45
558.10	1724.39
558.30	1738.73
558.49	1730.53
558.69	1769.44
558.88	1728.49
559.08	1730.53
559.28	1757.16
559.47	1771.49
559.67	1746.92
559.86	1863.65
560.06	1802.21
560.26	1683.43
560.45	1769.44
560.65	1726.44
560.84	1791.97
561.04	1757.16
561.24	1691.62
561.43	1673.19
561.63	1828.84
561.82	1765.35
562.02	1804.26
562.22	1634.28
562.41	1697.77
562.61	1673.19
562.80	1724.39
563.00	1890.28
563.19	1767.40
563.39	1794.02
563.59	1781.73
563.78	1669.09
563.98	1701.86
564.17	1724.39
564.37	1671.14
564.56	1751.01
564.76	1695.72
564.96	1726.44
565.15	1718.25
565.35	1890.28
565.54	1722.34
565.74	1783.78
565.93	1738.73
566.13	1755.11
566.32	1736.68
566.52	1757.16
566.71	1730.53
566.91	1759.21
567.11	1705.96
567.30	1708.01
567.50	1771.49
567.69	1742.82
567.89	1695.72
568.08	1716.20
568.28	1734.63
568.47	1705.96
568.67	1853.41
568.86	1699.81
569.06	1804.26
569.25	1806.31
569.45	1687.53
569.64	1720.29
569.84	1714.15
570.04	1767.40
570.23	1728.49
570.43	1699.81
570.62	1769.44
570.82	1824.74
571.01	1734.63
571.21	1708.01
571.40	1648.61
571.60	1806.31
571.79	1708.01
571.99	1765.35
572.18	1703.91
572.38	1771.49
572.57	1722.34
572.77	1693.67
572.96	1834.98
573.16	1763.30
573.35	1662.95
573.55	1789.92
573.74	1720.29
573.94	1830.88
574.13	1724.39
574.33	1753.06
574.52	1849.32
574.71	1763.30
574.91	1714.15
575.10	1660.90
575.30	1710.05
575.49	1697.77
575.69	1681.38
575.88	1710.05
576.08	1652.71
576.27	1736.68
576.47	1748.97
576.66	1730.53
576.86	1832.93
577.05	1755.11
577.25	1830.88
577.44	1830.88
577.64	1753.06
577.83	1828.84
578.02	1679.33
578.22	1806.31
578.41	1804.26
578.61	1796.07
578.80	1693.67
579.00	1705.96
579.19	1683.43
579.39	1728.49
579.58	1791.97
579.77	1732.58
579.97	1738.73
580.16	1816.55
580.36	1812.45
580.55	1777.64
580.75	1732.58
580.94	1716.20
581.13	1845.22
581.33	1775.59
581.52	1761.25
581.72	1791.97
581.91	1828.84
582.11	1773.54
582.30	1763.30
582.49	1746.92
582.69	1804.26
582.88	1789.92
583.08	1742.82
583.27	1783.78
583.47	1765.35
583.66	1669.09
583.85	1656.81
584.05	1705.96
584.24	1802.21
584.44	1736.68
584.63	1767.40
584.82	1861.60
585.02	1820.64
585.21	1828.84
585.41	1843.17
585.60	1789.92
585.79	1923.04
585.99	1771.49
586.18	1900.52
586.37	2248.67
586.57	3389.39
586.76	9764.72
586.96	24618.63
587.15	34610.67
587.34	40742.29
587.54	42472.82
587.73	36933.07
587.93	26531.44
588.12	21761.72
588.31	18415.34
588.51	16439.05
588.70	15204.12
588.89	14067.50
589.09	12721.98
589.28	11097.94
589.47	9396.08
589.67	8112.00
589.86	6485.92
590.06	5187.50
590.25	3958.72
590.44	3178.45
590.64	2584.54
590.83	2256.86
591.02	2131.94
591.22	1918.95
591.41	1869.80
591.60	1730.53
591.80	1904.61
591.99	1734.63
592.18	1769.44
592.38	1777.64
592.57	1763.30
592.76	1804.26
592.96	1859.56
593.15	1802.21
593.34	1839.08
593.54	1839.08
593.73	1742.82
593.92	1814.50
594.12	1796.07
594.31	1779.68
594.50	1800.16
594.70	1830.88
594.89	1886.18
595.08	1720.29
595.28	1794.02
595.47	1970.15
595.66	1665.00
595.86	1683.43
596.05	1714.15
596.24	1806.31
596.43	1851.36
596.63	1796.07
596.82	1740.77
597.01	1789.92
597.21	1863.65
597.40	1808.36
597.59	1644.52
597.79	1712.10
597.98	1769.44
598.17	1808.36
598.36	1730.53
598.56	1662.95
598.75	1708.01
598.94	1800.16
599.14	1757.16
599.33	1744.87
599.52	1699.81
599.71	1773.54
599.91	1740.77
600.10	1804.26
600.29	1753.06
600.48	1771.49
600.68	1757.16
600.87	1691.62
601.06	1677.29
601.26	1703.91
601.45	1724.39
601.64	1785.83
601.83	1841.12
602.03	1685.48
602.22	1714.15
602.41	1726.44
602.60	1892.32
602.80	1767.40
602.99	1791.97
603.18	1759.21
603.37	1845.22
603.57	1759.21
603.76	1746.92
603.95	1822.69
604.14	1710.05
604.34	1710.05
604.53	1755.11
604.72	1675.24
604.91	1742.82
605.10	1808.36
605.30	1751.01
605.49	1910.75
605.68	1746.92
605.87	1734.63
606.07	1710.05
606.26	1716.20
606.45	1751.01
606.64	1669.09
606.84	1685.48
607.03	1779.68
607.22	1755.11
607.41	1718.25
607.60	1779.68
607.80	1716.20
607.99	1683.43
608.18	1767.40
608.37	1771.49
608.56	1695.72
608.76	1740.77
608.95	1828.84
609.14	1744.87
609.33	1718.25
609.52	1771.49
609.72	1771.49
609.91	1830.88
610.10	1753.06
610.29	1808.36
610.48	1789.92
610.68	1808.36
610.87	1720.29
611.06	1763.30
611.25	1658.85
611.44	1855.46
611.63	1789.92
611.83	1806.31
612.02	1630.18
612.21	1732.58
612.40	1624.04
612.59	1597.42
612.79	1746.92
612.98	1671.14
613.17	1820.64
613.36	1683.43
613.55	1802.21
613.74	1646.57
613.93	1710.05
614.13	1738.73
614.32	1712.10
614.51	1773.54
614.70	1724.39
614.89	1665.00
615.08	1734.63
615.28	2023.39
615.47	1572.84
615.66	1738.73
615.85	1720.29
616.04	1765.35
616.23	1683.43
616.42	1681.38
616.62	1730.53
616.81	1777.64
617.00	1740.77
617.19	1744.87
617.38	1675.24
617.57	1638.38
617.76	1806.31
617.95	1794.02
618.15	1665.00
618.34	1845.22
618.53	1662.95
618.72	1746.92
618.91	1798.12
619.10	1820.64
619.29	1773.54
619.48	1693.67
619.68	1658.85
619.87	1716.20
620.06	1701.86
620.25	1755.11
620.44	1763.30
620.63	1648.61
620.82	1751.01
621.01	1705.96
621.20	1671.14
621.39	1701.86
621.59	1804.26
621.78	1710.05
621.97	1697.77
622.16	1755.11
622.35	1705.96
622.54	1761.25
622.73	1746.92
622.92	1615.85
623.11	1794.02
623.30	1769.44
623.49	1724.39
623.68	1662.95
623.88	1839.08
624.07	1691.62
624.26	1691.62
624.45	1783.78
624.64	1724.39
624.83	1763.30
625.02	1746.92
625.21	1798.12
625.40	1691.62
625.59	1761.25
625.78	1722.34
625.97	1796.07
626.16	1755.11
626.35	1818.60
626.54	1736.68
626.74	1802.21
626.93	1804.26
627.12	1681.38
627.31	1744.87
627.50	1771.49
627.69	1744.87
627.88	1652.71
628.07	1632.23
628.26	1640.42
628.45	1740.77
628.64	1628.14
628.83	1681.38
629.02	1705.96
629.21	1691.62
629.40	1724.39
629.59	1732.58
629.78	1699.81
629.97	1734.63
630.16	1730.53
630.35	1712.10
630.54	1689.57
630.73	1679.33
630.92	1718.25
631.11	1677.29
631.30	1728.49
631.49	1724.39
631.68	1710.05
631.87	1757.16
632.06	1603.56
632.25	1955.81
632.44	1697.77
632.63	1736.68
632.82	1642.47
633.01	1697.77
633.20	1755.11
633.39	1669.09
633.58	1652.71
633.77	1734.63
633.96	1685.48
634.15	1832.93
634.34	1773.54
634.53	1767.40
634.72	1730.53
634.91	1660.90
635.10	1744.87
635.29	1755.11
635.48	1699.81
635.67	1705.96
635.86	1566.70
636.05	1677.29
636.24	1656.81
636.43	1765.35
636.62	1712.10
636.81	1599.46
637.00	1705.96
637.19	1755.11
637.38	1691.62
637.57	1714.15
637.76	1697.77
637.95	1779.68
638.14	1632.23
638.33	1669.09
638.52	1753.06
638.71	1705.96
638.89	1632.23
639.08	1886.18
639.27	1703.91
639.46	1619.94
639.65	1806.31
639.84	1738.73
640.03	1822.69
640.22	1640.42
640.41	1890.28
640.60	1736.68
640.79	1785.83
640.98	1710.05
641.17	1800.16
641.36	1699.81
641.55	1675.24
641.74	1656.81
641.92	1703.91
642.11	1660.90
642.30	1697.77
642.49	1691.62
642.68	1728.49
642.87	1701.86
643.06	1746.92
643.25	1611.75
643.44	1687.53
643.63	1740.77
643.82	1783.78
644.00	1669.09
644.19	1740.77
644.38	1619.94
644.57	1779.68
644.76	1712.10
644.95	1689.57
645.14	1718.25
645.33	1716.20
645.52	1685.48
645.71	1642.47
645.89	1652.71
646.08	1677.29
646.27	1740.77
646.46	1759.21
646.65	1710.05
646.84	1703.91
647.03	1593.32
647.22	1730.53
647.40	1697.77
647.59	1703.91
647.78	1636.33
647.97	1691.62
648.16	1716.20
648.35	1781.73
648.54	1738.73
648.73	1640.42
648.91	1693.67
649.10	1701.86
649.29	1724.39
649.48	1740.77
649.67	1697.77
649.86	1722.34
650.05	1646.57
650.23	1738.73
650.42	1673.19
650.61	1626.09
650.80	1701.86
650.99	1740.77
651.18	1726.44
651.36	1703.91
651.55	1714.15
651.74	1712.10
651.93	1677.29
652.12	1673.19
652.31	1765.35
652.49	1675.24
652.68	1726.44
652.87	1783.78
653.06	1740.77
653.25	1816.55
653.44	1744.87
653.62	1791.97
653.81	1718.25
654.00	1652.71
654.19	1818.60
654.38	1787.88
654.56	1693.67
654.75	1665.00
654.94	1738.73
655.13	1718.25
655.32	1705.96
655.51	1728.49
655.69	1683.43
655.88	1705.96
656.07	1695.72
656.26	1738.73
656.45	1640.42
656.63	1697.77
656.82	1724.39
657.01	1771.49
657.20	1701.86
657.38	1853.41
657.57	1650.66
657.76	1621.99
657.95	1783.78
658.14	1714.15
658.32	1685.48
658.51	1703.91
658.70	1724.39
658.89	1734.63
659.08	1693.67
659.26	1757.16
659.45	1576.94
659.64	1757.16
659.83	1667.05
660.01	1869.80
660.20	1767.40
660.39	1798.12
660.58	1615.85
660.76	1804.26
660.95	1656.81
661.14	1765.35
661.33	1636.33
661.51	1722.34
661.70	1785.83
661.89	1687.53
662.08	1699.81
662.26	1603.56
662.45	1730.53
662.64	1789.92
662.83	1720.29
663.01	1685.48
663.20	1619.94
663.39	1791.97
663.58	1697.77
663.76	1732.58
663.95	1722.34
664.14	1642.47
664.32	1644.52
664.51	1689.57
664.70	1619.94
664.89	1763.30
665.07	1570.79
665.26	1761.25
665.45	1730.53
665.64	1814.50
665.82	1705.96
666.01	1781.73
666.20	1757.16
666.38	1841.12
666.57	1787.88
666.76	2238.43
666.95	4523.96
667.13	10346.34
667.32	15347.48
667.51	17919.73
667.69	19189.47
667.88	17704.69
668.07	12605.25
668.25	9600.88
668.44	8210.31
668.63	7374.74
668.81	6809.50
669.00	6399.90
669.19	5666.73
669.38	5148.59
669.56	4571.07
669.75	3983.30
669.94	3383.24
670.12	2977.75
670.31	2555.86
670.50	2260.96
670.68	2103.26
670.87	1843.17
671.06	1845.22
671.24	1767.40
671.43	1841.12
671.62	1759.21
671.80	1740.77
671.99	1763.30
672.18	1648.61
672.36	1779.68
672.55	1730.53
672.74	1710.05
672.92	1665.00
673.11	1738.73
673.29	1607.66
673.48	1730.53
673.67	1728.49
673.85	1734.63
674.04	1683.43
674.23	1687.53
674.41	1851.36
674.60	1734.63
674.79	1646.57
674.97	1658.85
675.16	1808.36
675.34	1812.45
675.53	1671.14
675.72	1757.16
675.90	1796.07
676.09	1738.73
676.28	1705.96
676.46	1628.14
676.65	1738.73
676.83	1603.56
677.02	1722.34
677.21	1691.62
677.39	1644.52
677.58	1699.81
677.77	1714.15
677.95	1644.52
678.14	1673.19
678.32	1732.58
678.51	1646.57
678.70	1820.64
678.88	1648.61
679.07	1701.86
679.25	1753.06
679.44	1718.25
679.63	1636.33
679.81	1699.81
680.00	1673.19
680.18	1769.44
680.37	1839.08
680.55	1722.34
680.74	1613.80
680.93	1597.42
681.11	1703.91
681.30	1732.58
681.48	1695.72
681.67	1671.14
681.85	1730.53
682.04	1673.19
682.23	1730.53
682.41	1722.34
682.60	1746.92
682.78	1669.09
682.97	1665.00
683.15	1775.59
683.34	1628.14
683.53	1736.68
683.71	1681.38
683.90	1832.93
684.08	1767.40
684.27	1671.14
684.45	1673.19
684.64	1775.59
684.82	1703.91
685.01	1761.25
685.19	1701.86
685.38	1712.10
685.57	1722.34
685.75	1691.62
685.94	1693.67
686.12	1617.90
686.31	1697.77
686.49	1822.69
686.68	1591.27
686.86	1736.68
687.05	1662.95
687.23	1814.50
687.42	1673.19
687.60	1609.70
687.79	1734.63
687.97	1718.25
688.16	1755.11
688.34	1714.15
688.53	1574.89
688.71	1710.05
688.90	1810.40
689.08	1683.43
689.27	1603.56
689.45	1665.00
689.64	1734.63
689.82	1685.48
690.01	1689.57
690.19	1677.29
690.38	1732.58
690.56	1781.73
690.75	1660.90
690.93	1705.96
691.12	1615.85
691.30	1710.05
691.49	1697.77
691.67	1722.34
691.86	1834.98
692.04	1728.49
692.23	1720.29
692.41	1751.01
692.60	1816.55
692.78	1665.00
692.97	1701.86
693.15	1730.53
693.34	1832.93
693.52	1693.67
693.71	1708.01
693.89	1755.11
694.08	1628.14
694.26	1767.40
694.44	1796.07
694.63	1693.67
694.81	1556.46
695.00	1705.96
695.18	1695.72
695.37	1834.98
695.55	1753.06
695.74	1720.29
695.92	1669.09
696.10	1755.11
696.29	1619.94
696.47	1697.77
696.66	1591.27
696.84	1740.77
697.03	1755.11
697.21	1812.45
697.40	2318.30
697.58	1746.92
697.76	1693.67
697.95	1703.91
698.13	1699.81
698.32	1695.72
698.50	1699.81
698.68	1751.01
698.87	1644.52
699.05	1734.63
699.24	1742.82
699.42	1693.67
699.61	1701.86
699.79	1665.00
699.97	1753.06
700.16	1605.61
700.34	1695.72
700.53	1697.77
700.71	1705.96
700.89	1814.50
701.08	1650.66
701.26	1748.97
701.45	2172.89
701.63	1689.57
701.81	1720.29
702.00	1740.77
702.18	1710.05
702.37	1695.72
702.55	1798.12
702.73	1679.33
702.92	1693.67
703.10	1769.44
703.28	1695.72
703.47	1656.81
703.65	1691.62
703.84	1832.93
704.02	1687.53
704.20	1746.92
704.39	1779.68
704.57	1755.11
704.75	1763.30
704.94	1705.96
705.12	1761.25
705.30	1744.87
705.49	2148.32
705.67	4491.20
705.86	9199.48
706.04	12691.26
706.22	14501.67
706.41	15404.82
706.59	13807.41
706.77	9758.57
706.96	7507.85
707.14	6592.41
707.32	6113.19
707.51	5631.91
707.69	4853.69
707.87	4323.26
708.06	3598.28
708.24	2975.70
708.42	2502.62
708.61	2215.90
708.79	1908.71
708.97	1904.61
709.16	1814.50
709.34	1765.35
709.52	1761.25
709.71	1714.15
709.89	1746.92
710.07	1726.44
710.26	1710.05
710.44	1589.22
710.62	1767.40
710.80	1642.47
710.99	1748.97
711.17	1736.68
711.35	1619.94
711.54	1673.19
711.72	1726.44
711.90	1781.73
712.09	1669.09
712.27	1683.43
712.45	1718.25
712.63	1673.19
712.82	1769.44
713.00	1640.42
713.18	1705.96
713.37	1748.97
713.55	1775.59
713.73	1671.14
713.91	1759.21
714.10	1726.44
714.28	1667.05
714.46	1751.01
714.65	1714.15
714.83	1781.73
715.01	1728.49
715.19	1640.42
715.38	1652.71
715.56	1775.59
715.74	1652.71
715.92	1521.64
716.11	1720.29
716.29	1560.55
716.47	1636.33
716.65	1673.19
716.84	1566.70
717.02	1796.07
717.20	1636.33
717.38	1671.14
717.57	1697.77
717.75	1718.25
717.93	1677.29
718.11	1648.61
718.30	1652.71
718.48	1796.07
718.66	1689.57
718.84	1701.86
719.03	1642.47
719.21	1716.20
719.39	1828.84
719.57	1687.53
719.75	1779.68
719.94	1662.95
720.12	1632.23
720.30	1726.44
720.48	1734.63
720.67	1681.38
720.85	1607.66
721.03	1689.57
721.21	1648.61
721.39	1806.31
721.58	1642.47
721.76	1703.91
721.94	1665.00
722.12	1699.81
722.30	1738.73
722.49	1632.23
722.67	1769.44
722.85	1708.01
723.03	1665.00
723.21	1693.67
723.40	1638.38
723.58	1753.06
723.76	1673.19
723.94	1730.53
724.12	1748.97
724.30	1720.29
724.49	1697.77
724.67	1624.04
724.85	1791.97
725.03	1660.90
725.21	1753.06
725.40	1718.25
725.58	1685.48
725.76	1796.07
725.94	1648.61
726.12	1646.57
726.30	1755.11
726.49	1681.38
726.67	1658.85
726.85	1783.78
727.03	1742.82
727.21	2119.65
727.39	2867.16
727.57	3710.92
727.76	4188.10
727.94	4523.96
728.12	4390.84
728.30	3598.28
728.48	2947.03
728.66	2709.46
728.84	2555.86
729.03	2258.91
729.21	2119.65
729.39	1949.67
729.57	1920.99
729.75	1753.06
729.93	1845.22
730.11	1699.81
730.30	1599.46
730.48	1732.58
730.66	1744.87
730.84	1730.53
731.02	1685.48
731.20	1644.52
731.38	1736.68
731.56	1605.61
731.74	1654.76
731.93	1679.33
732.11	1695.72
732.29	1736.68
732.47	1685.48
732.65	1662.95
732.83	1857.51
733.01	1705.96
733.19	1646.57
733.37	1744.87
733.56	1718.25
733.74	1642.47
733.92	1816.55
734.10	1648.61
734.28	1703.91
734.46	1662.95
734.64	1599.46
734.82	1689.57
735.00	1669.09
735.18	1669.09
735.36	1667.05
735.54	1677.29
735.73	1624.04
735.91	1660.90
736.09	1730.53
736.27	1648.61
736.45	1740.77
736.63	1656.81
736.81	1695.72
736.99	1798.12
737.17	1796.07
737.35	1705.96
737.53	1671.14
737.71	1705.96
737.89	1804.26
738.07	1650.66
738.25	1593.32
738.43	1699.81
738.61	1736.68
738.80	1656.81
738.98	1710.05
739.16	1716.20
739.34	1595.37
739.52	1724.39
739.70	1699.81
739.88	1814.50
740.06	1697.77
740.24	1562.60
740.42	1734.63
740.60	1601.51
740.78	1624.04
740.96	1636.33
741.14	1720.29
741.32	1705.96
741.50	1656.81
741.68	1773.54
741.86	1742.82
742.04	1642.47
742.22	1605.61
742.40	1712.10
742.58	1726.44
742.76	1681.38
742.94	1705.96
743.12	1624.04
743.30	1681.38
743.48	1767.40
743.66	1697.77
743.84	1755.11
744.02	1669.09
744.20	1728.49
744.38	1603.56
744.56	1593.32
744.74	1757.16
744.92	1693.67
745.10	1761.25
745.28	1738.73
745.46	1853.41
745.64	1697.77
745.82	1740.77
746.00	1730.53
746.18	1712.10
746.36	1667.05
746.54	1705.96
746.72	1734.63
746.90	1759.21
747.08	1746.92
747.26	1724.39
747.44	1783.78
747.62	1738.73
747.80	1751.01
747.98	1767.40
748.15	1699.81
748.33	1628.14
748.51	1681.38
748.69	1732.58
748.87	1665.00
749.05	1691.62
749.23	1701.86
749.41	1724.39
749.59	1720.29
749.77	1763.30
749.95	1689.57
750.13	1705.96
750.31	1654.76
750.49	1613.80
750.67	1718.25
750.85	1802.21
751.03	1699.81
751.20	1832.93
751.38	1652.71
751.56	1710.05
751.74	1646.57
751.92	1626.09
752.10	1638.38
752.28	1771.49
752.46	1728.49
752.64	1705.96
752.82	1636.33
753.00	1734.63
753.18	1660.90
753.35	1638.38
753.53	1621.99
753.71	1662.95
753.89	1736.68
754.07	1689.57
754.25	1728.49
754.43	1699.81
754.61	1640.42
754.79	1650.66
754.97	1736.68
755.14	1875.94
755.32	1656.81
755.50	1736.68
755.68	1708.01
755.86	1673.19
756.04	1685.48
756.22	1619.94
756.40	1818.60
756.57	1806.31
756.75	1642.47
756.93	1751.01
757.11	1775.59
757.29	1615.85
757.47	1658.85
757.65	1542.12
757.82	1544.17
758.00	1708.01
758.18	1710.05
758.36	1607.66
758.54	1697.77
758.72	1628.14
758.90	1763.30
759.07	1726.44
759.25	1589.22
759.43	1656.81
759.61	1601.51
759.79	2158.56
759.97	1728.49
760.15	1722.34
760.32	1617.90
760.50	1726.44
760.68	1779.68
760.86	1677.29
761.04	1849.32
761.22	1738.73
761.39	1738.73
761.57	1720.29
761.75	1675.24
761.93	1667.05
762.11	1689.57
762.28	1656.81
762.46	1632.23
762.64	1785.83
762.82	1660.90
763.00	1726.44
763.18	1773.54
763.35	1572.84
763.53	1796.07
763.71	1677.29
763.89	1687.53
764.07	1652.71
764.24	1703.91
764.42	1716.20
764.60	1630.18
764.78	1738.73
764.96	1679.33
765.13	1783.78
765.31	1619.94
765.49	1697.77
765.67	1599.46
765.84	1687.53
766.02	1665.00
766.20	1611.75
766.38	1742.82
766.56	1748.97
766.73	1669.09
766.91	1744.87
767.09	1662.95
767.27	1798.12
767.44	1673.19
767.62	1716.20
767.80	1738.73
767.98	1638.38
768.15	1673.19
768.33	1775.59
768.51	1753.06
768.69	1759.21
768.87	1714.15
769.04	1683.43
769.22	1812.45
769.40	1802.21
769.58	1853.41
769.75	1685.48
769.93	1751.01
770.11	1642.47
770.28	1583.08
770.46	1763.30
770.64	1691.62
770.82	1679.33
770.99	1705.96
771.17	1722.34
771.35	1695.72
771.53	1738.73
771.70	1724.39
771.88	1646.57
772.06	1691.62
772.23	1730.53
772.41	1765.35
772.59	1714.15
772.77	1673.19
772.94	1685.48
773.12	1746.92
773.30	1681.38
773.47	1658.85
773.65	1669.09
773.83	1789.92
774.01	1630.18
774.18	1624.04
774.36	1718.25
774.54	1615.85
774.71	1691.62
774.89	1640.42
775.07	1675.24
775.24	1705.96
775.42	1628.14
775.60	1826.79
775.78	1679.33
775.95	1624.04
776.13	1593.32
776.31	1640.42
776.48	1630.18
776.66	1791.97
776.84	1669.09
777.01	1757.16
777.19	1652.71
777.37	1656.81
777.54	1726.44
777.72	1769.44
777.90	1722.34
778.07	1728.49
778.25	1869.80
778.43	1673.19
778.60	1714.15
778.78	1701.86
778.96	1771.49
779.13	1611.75
779.31	1779.68
779.49	1689.57
779.66	1693.67
779.84	1693.67
780.01	1710.05
780.19	1685.48
780.37	1751.01
780.54	1697.77
780.72	1638.38
780.90	1675.24
781.07	1675.24
781.25	1628.14
781.43	1783.78
781.60	1716.20
781.78	1699.81
781.95	1716.20
782.13	1673.19
782.31	1722.34
782.48	1617.90
782.66	1712.10
782.83	1814.50
783.01	1714.15
783.19	1710.05
783.36	1685.48
783.54	1716.20
783.72	1716.20
783.89	1738.73
784.07	1683.43
784.24	1656.81
784.42	1789.92
784.60	1718.25
784.77	1685.48
784.95	1570.79
785.12	1652.71
785.30	1646.57
785.47	1624.04
785.65	1667.05
785.83	1708.01
786.00	1683.43
786.18	1751.01
786.35	1644.52
786.53	1611.75
786.71	1724.39
786.88	1757.16
787.06	1757.16
787.23	1685.48
787.41	1644.52
787.58	1673.19
787.76	1671.14
787.94	1759.21
788.11	1744.87
788.29	1605.61
788.46	1591.27
788.64	1658.85
788.81	1665.00
788.99	1636.33
789.16	1658.85
789.34	1671.14
789.52	1671.14
789.69	1638.38
789.87	1652.71
790.04	1669.09
790.22	1673.19
790.39	1832.93
790.57	1683.43
790.74	1683.43
790.92	1746.92
791.09	1566.70
791.27	1640.42
791.44	1783.78
791.62	1658.85
791.79	1755.11
791.97	1654.76
792.15	1884.13
792.32	1771.49
792.50	1720.29
792.67	1802.21
792.85	1753.06
793.02	1693.67
793.20	1748.97
793.37	1671.14
793.55	1705.96
793.72	1646.57
793.90	1658.85
794.07	1665.00
794.25	1665.00
794.42	1689.57
794.60	1656.81
794.77	1783.78
794.95	1738.73
795.12	1767.40
795.30	1683.43
795.47	1589.22
795.65	1853.41
795.82	1734.63
796.00	1708.01
796.17	1685.48
796.34	1699.81
796.52	1712.10
796.69	1738.73
796.87	1775.59
797.04	1730.53
797.22	1732.58
797.39	1746.92
797.57	1751.01
797.74	1708.01
797.92	1607.66
798.09	1652.71
798.27	1669.09
798.44	1718.25
798.62	1642.47
798.79	1771.49
798.96	1685.48
799.14	1708.01
799.31	1773.54
799.49	1679.33
799.66	1685.48
799.84	1695.72
800.01	1578.98
800.19	1742.82
800.36	1630.18
800.53	1710.05
800.71	1687.53
800.88	1759.21
801.06	1642.47
801.23	1681.38
801.41	1722.34
801.58	1726.44
801.75	1667.05
801.93	1755.11
802.10	1658.85
802.28	1703.91
802.45	1646.57
802.63	1794.02
802.80	1726.44
802.97	1654.76
803.15	1685.48
803.32	1681.38
803.50	1734.63
803.67	1667.05
803.84	1644.52
804.02	1697.77
804.19	1730.53
804.37	1578.98
804.54	1644.52
804.71	1665.00
804.89	1703.91
805.06	1699.81
805.24	1658.85
805.41	1572.84
805.58	1660.90
805.76	1777.64
805.93	1759.21
806.10	1763.30
806.28	1732.58
806.45	1716.20
806.63	1691.62
806.80	1722.34
806.97	1621.99
807.15	1769.44
807.32	1667.05
807.49	1708.01
807.67	1546.22
807.84	1765.35
808.01	1572.84
808.19	1755.11
808.36	1785.83
808.54	1648.61
808.71	1566.70
808.88	1734.63
809.06	1746.92
809.23	1738.73
809.40	1683.43
809.58	1759.21
809.75	1677.29
809.92	1626.09
810.10	1820.64
810.27	1665.00
810.44	1746.92
810.62	1648.61
810.79	1800.16
810.96	1753.06
811.14	1652.71
811.31	1732.58
811.48	1740.77
811.66	1656.81
811.83	1632.23
812.00	1748.97
812.18	1675.24
812.35	1791.97
812.52	1675.24
812.69	1691.62
812.87	1652.71
813.04	1734.63
813.21	1693.67
813.39	1679.33
813.56	1640.42
813.73	1708.01
813.91	1638.38
814.08	1705.96
814.25	1683.43
814.42	1632.23
814.60	1665.00
814.77	1685.48
814.94	1697.77
815.12	1705.96
815.29	1742.82
815.46	1599.46
815.63	1744.87
815.81	1751.01
815.98	1669.09
816.15	1763.30
816.33	1742.82
816.50	1626.09
816.67	1712.10
816.84	1718.25
817.02	1636.33
817.19	1667.05
817.36	1722.34
817.53	1691.62
817.71	1593.32
817.88	1689.57
818.05	1619.94
818.22	1611.75
818.40	1753.06
818.57	1673.19
818.74	1675.24
818.91	1636.33
819.09	1726.44
819.26	1710.05
819.43	1724.39
819.60	1660.90
819.78	1738.73
819.95	1728.49
820.12	1648.61
820.29	1693.67
820.47	1710.05
820.64	1613.80
820.81	1601.51
820.98	1617.90
821.15	1679.33
821.33	1800.16
821.50	1667.05
821.67	1757.16
821.84	1685.48
822.02	1693.67
822.19	1748.97
822.36	1685.48
822.53	1695.72
822.70	1609.70
822.88	1714.15
823.05	1763.30
823.22	1648.61
823.39	1718.25
823.56	1675.24
823.74	1734.63
823.91	1628.14
824.08	1595.37
824.25	1562.60
824.42	1826.79
824.60	1660.90
824.77	1675.24
824.94	1685.48
825.11	1769.44
825.28	1634.28
825.45	1708.01
825.63	1740.77
825.80	1613.80
825.97	1654.76
826.14	1705.96
826.31	1609.70
826.48	1714.15
826.66	1677.29
826.83	1716.20
827.00	1705.96
827.17	1646.57
827.34	1779.68
827.51	1687.53
827.69	1681.38
827.86	1615.85
828.03	1621.99
828.20	1732.58
828.37	1642.47
828.54	1759.21
828.71	1665.00
828.89	1830.88
829.06	1712.10
829.23	1808.36
829.40	1626.09
829.57	1681.38
829.74	1787.88
829.91	1634.28
830.09	1695.72
830.26	1794.02
830.43	1744.87
830.60	1673.19
830.77	1791.97
830.94	1746.92
831.11	1705.96
831.28	1609.70
831.46	1794.02
831.63	1675.24
831.80	1705.96
831.97	1669.09
832.14	1703.91
832.31	1753.06
832.48	1679.33
832.65	1804.26
832.82	1705.96
832.99	1734.63
833.17	1644.52
833.34	1736.68
833.51	1726.44
833.68	1581.03
833.85	1734.63
834.02	1710.05
834.19	1673.19
834.36	1675.24
834.53	1652.71
834.70	1730.53
834.87	1691.62
835.04	1697.77
835.22	1640.42
835.39	1574.89
835.56	1548.26
835.73	1638.38
835.90	1722.34
836.07	1648.61
836.24	1716.20
836.41	1640.42
836.58	1626.09
836.75	1767.40
836.92	1667.05
837.09	1642.47
837.26	1728.49
837.43	1691.62
837.60	1642.47
837.77	1660.90
837.94	1656.81
838.12	1722.34
838.29	1658.85
838.46	1654.76
838.63	1740.77
838.80	1812.45
838.97	1736.68
839.14	1652.71
839.31	1652.71
839.48	1763.30
839.65	1660.90
839.82	1781.73
839.99	1708.01
840.16	1699.81
840.33	1669.09
840.50	1740.77
840.67	1681.38
840.84	1609.70
841.01	1683.43
841.18	1607.66
841.35	1714.15
841.52	1757.16
841.69	1777.64
841.86	1751.01
842.03	1667.05
842.20	1753.06
842.37	1667.05
842.54	1675.24
842.71	1642.47
842.88	1613.80
843.05	1771.49
843.22	1652.71
843.39	1712.10
843.56	1673.19
843.73	1705.96
843.90	1708.01
844.07	1703.91
844.24	1767.40
844.41	1722.34
844.58	1738.73
844.75	1699.81
844.92	1673.19
845.09	1679.33
845.26	1644.52
845.43	1718.25
845.60	1705.96
845.77	1705.96
845.94	1648.61
846.10	1759.21
846.27	1624.04
846.44	1712.10
846.61	1615.85
846.78	1640.42
846.95	1783.78
847.12	1624.04
847.29	1634.28
847.46	1669.09
847.63	1753.06
847.80	1619.94
847.97	1685.48
848.14	1820.64
848.31	1705.96
848.48	1662.95
848.65	1689.57
848.82	1716.20
848.98	1822.69
849.15	1794.02
849.32	1789.92
849.49	1677.29
849.66	1705.96
849.83	1634.28
850.00	1570.79
850.17	1767.40
850.34	1650.66
850.51	1619.94
850.68	1591.27
850.85	1765.35
851.01	1705.96
851.18	1701.86
851.35	1658.85
851.52	1716.20
851.69	1724.39
851.86	1617.90
852.03	1701.86
852.20	1751.01
852.37	1656.81
852.53	1621.99
852.70	1708.01
852.87	1710.05
853.04	1763.30
853.21	1597.42
853.38	1705.96
853.55	1781.73
853.72	1757.16
853.89	1617.90
854.05	1595.37
854.22	1662.95
854.39	1708.01
854.56	1775.59
854.73	1722.34
854.90	1701.86
855.07	1751.01
855.23	1654.76
855.40	1658.85
855.57	1648.61
855.74	1566.70
855.91	1851.36
856.08	1644.52
856.25	1660.90
856.41	1648.61
856.58	1669.09
856.75	1779.68
856.92	1667.05
857.09	1748.97
857.26	1673.19
857.42	1705.96
857.59	1748.97
857.76	1689.57
857.93	1695.72
858.10	1748.97
858.27	1599.46
858.43	1679.33
858.60	1669.09
858.77	1691.62
858.94	1638.38
859.11	1812.45
859.27	1660.90
859.44	1722.34
859.61	1761.25
859.78	1705.96
859.95	1718.25
860.12	1683.43
860.28	1722.34
860.45	1773.54
860.62	1705.96
860.79	1708.01
860.95	1705.96
861.12	1591.27
861.29	1677.29
861.46	1634.28
861.63	1671.14
861.79	1751.01
861.96	1675.24
862.13	1591.27
862.30	1687.53
862.47	1689.57
862.63	1681.38
862.80	1765.35
862.97	1701.86
863.14	1714.15
863.30	1726.44
863.47	1722.34
863.64	1744.87
863.81	1718.25
863.97	1730.53
864.14	1720.29
864.31	1656.81
864.48	1667.05
864.65	1628.14
864.81	1669.09
864.98	1683.43
865.15	1718.25
865.32	1734.63
865.48	1703.91
865.65	1685.48
865.82	1705.96
865.98	1724.39
866.15	1824.74
866.32	1703.91
866.49	1611.75
866.65	1728.49
866.82	1710.05
866.99	1646.57
867.16	1699.81
867.32	1648.61
867.49	1761.25
867.66	1605.61
867.83	1703.91
867.99	1636.33
868.16	1685.48
868.33	1630.18
868.49	1697.77
868.66	1669.09
868.83	1708.01
868.99	1662.95
869.16	1697.77
869.33	1781.73
869.50	1783.78
869.66	1683.43
869.83	1716.20
870.00	1648.61
870.16	1794.02
870.33	1705.96
870.50	1724.39
870.66	1644.52
870.83	1812.45
871.00	1675.24
871.17	1748.97
871.33	1730.53
871.50	1605.61
871.67	1617.90
871.83	1650.66
872.00	1798.12
872.17	1636.33
872.33	1777.64
872.50	1724.39
872.67	1638.38
872.83	1667.05
873.00	1751.01
873.17	1671.14
873.33	1638.38
873.50	1763.30
873.67	1703.91
873.83	1609.70
874.00	1605.61
874.16	1800.16
874.33	1654.76
874.50	1601.51
874.66	1708.01
874.83	1771.49
875.00	1718.25
875.16	1757.16
875.33	1703.91
875.50	1578.98
875.66	1658.85
875.83	1656.81
875.99	1689.57
876.16	1632.23
876.33	1650.66
876.49	1665.00
876.66	1738.73
876.83	1683.43
876.99	1640.42
877.16	1587.18
877.32	1683.43
877.49	1767.40
877.66	1660.90
877.82	1726.44
877.99	1689.57
878.15	1755.11
878.32	1648.61
878.49	1738.73
878.65	1671.14
878.82	1697.77
878.98	1701.86
879.15	1779.68
879.32	1705.96
879.48	1628.14
879.65	1740.77
879.81	1638.38
879.98	1656.81
880.15	1708.01
880.31	1691.62
880.48	1648.61
880.64	1730.53
880.81	1714.15
880.97	1722.34
881.14	1710.05
881.31	1650.66
881.47	1798.12
881.64	1705.96
881.80	1609.70
881.97	1708.01
882.13	1679.33
882.30	1630.18
882.47	1708.01
882.63	1648.61
882.80	1619.94
882.96	1687.53
883.13	1738.73
883.29	1681.38
883.46	1714.15
883.62	1865.70
883.79	1703.91
883.95	1730.53
884.12	1681.38
884.29	1740.77
884.45	1738.73
884.62	1740.77
884.78	1632.23
884.95	1736.68
885.11	1708.01
885.28	1720.29
885.44	1671.14
885.61	1722.34
885.77	1751.01
885.94	1722.34
886.10	1677.29
886.27	1728.49
886.43	1765.35
886.60	1716.20
886.76	1681.38
886.93	1603.56
887.09	1742.82
887.26	1667.05
887.42	1746.92
887.59	1759.21
887.75	1771.49
887.92	1763.30
888.08	1679.33
888.25	1851.36
888.41	1634.28
888.58	1726.44
888.74	1697.77
888.91	1648.61
>>>>>End Processed Spectral Data<<<<<
