SpectraSuite Data File
++++++++++++++++++++++++++++++++++++
Date: Mon Jun 06 16:45:57 CEST 2016
User: root
Dark Spectrum Present: No
Reference Spectrum Present: No
Number of Sampled Component Spectra: 1
Spectrometers: USB4C02835
Integration Time (usec): 100000 (USB4C02835)
Spectra Averaged: 1 (USB4C02835)
Boxcar Smoothing: 0 (USB4C02835)
Correct for Electrical Dark: No (USB4C02835)
Strobe/Lamp Enabled: No (USB4C02835)
Correct for Detector Non-linearity: No (USB4C02835)
Correct for Stray Light: No (USB4C02835)
Number of Pixels in Processed Spectrum: 3648
>>>>>Begin Processed Spectral Data<<<<<
177.47	1456.11
177.69	1456.11
177.91	1456.11
178.13	1464.30
178.36	1437.67
178.58	1640.42
178.80	1757.16
179.02	1609.70
179.24	1615.85
179.46	1675.24
179.68	1808.36
179.90	1636.33
180.13	1644.52
180.35	1695.72
180.57	1714.15
180.79	1724.39
181.01	1687.53
181.23	1740.77
181.45	1826.79
181.67	1681.38
181.90	1763.30
182.12	1691.62
182.34	1642.47
182.56	1740.77
182.78	1693.67
183.00	1669.09
183.22	1695.72
183.44	1640.42
183.66	1886.18
183.89	1751.01
184.11	1675.24
184.33	1785.83
184.55	1710.05
184.77	1716.20
184.99	1789.92
185.21	1679.33
185.43	1898.47
185.65	1699.81
185.87	1755.11
186.10	1843.17
186.32	1773.54
186.54	1775.59
186.76	1699.81
186.98	1718.25
187.20	1679.33
187.42	1644.52
187.64	1724.39
187.86	1720.29
188.08	1740.77
188.30	1646.57
188.52	1726.44
188.75	1783.78
188.97	1730.53
189.19	1652.71
189.41	1671.14
189.63	1785.83
189.85	1687.53
190.07	1679.33
190.29	1675.24
190.51	1701.86
190.73	1652.71
190.95	1718.25
191.17	1738.73
191.39	1660.90
191.61	1667.05
191.84	1626.09
192.06	1849.32
192.28	1658.85
192.50	1970.15
192.72	1665.00
192.94	1716.20
193.16	1679.33
193.38	1783.78
193.60	1648.61
193.82	1658.85
194.04	1810.40
194.26	1732.58
194.48	1763.30
194.70	1628.14
194.92	1705.96
195.14	1779.68
195.36	1683.43
195.58	1773.54
195.80	1673.19
196.02	1624.04
196.24	1683.43
196.46	1679.33
196.69	1677.29
196.91	1769.44
197.13	1689.57
197.35	1685.48
197.57	1796.07
197.79	1675.24
198.01	1644.52
198.23	1751.01
198.45	1740.77
198.67	1556.46
198.89	1755.11
199.11	1726.44
199.33	1697.77
199.55	1644.52
199.77	1726.44
199.99	1738.73
200.21	1574.89
200.43	1689.57
200.65	1617.90
200.87	1558.50
201.09	1720.29
201.31	1656.81
201.53	1822.69
201.75	1763.30
201.97	1746.92
202.19	1652.71
202.41	1740.77
202.63	1824.74
202.85	1794.02
203.07	1716.20
203.29	1734.63
203.51	1599.46
203.73	1703.91
203.95	1888.23
204.17	1759.21
204.39	1775.59
204.61	1615.85
204.83	1716.20
205.05	1767.40
205.27	1773.54
205.49	1796.07
205.71	1644.52
205.93	1601.51
206.15	1669.09
206.37	1689.57
206.59	1697.77
206.81	1603.56
207.03	1708.01
207.25	1613.80
207.47	1753.06
207.69	1701.86
207.91	1765.35
208.13	1824.74
208.34	1609.70
208.56	1673.19
208.78	1736.68
209.00	1720.29
209.22	1757.16
209.44	1681.38
209.66	1701.86
209.88	1685.48
210.10	1751.01
210.32	1736.68
210.54	1781.73
210.76	1705.96
210.98	1736.68
211.20	1617.90
211.42	1667.05
211.64	1775.59
211.86	1779.68
212.08	1775.59
212.30	1728.49
212.52	1693.67
212.74	1689.57
212.96	1687.53
213.17	1761.25
213.39	1748.97
213.61	1796.07
213.83	1671.14
214.05	1732.58
214.27	1847.27
214.49	1683.43
214.71	1689.57
214.93	1734.63
215.15	1724.39
215.37	1820.64
215.59	1662.95
215.81	1744.87
216.03	1720.29
216.24	1677.29
216.46	1673.19
216.68	1718.25
216.90	1753.06
217.12	1763.30
217.34	1712.10
217.56	1734.63
217.78	1808.36
218.00	1701.86
218.22	1726.44
218.44	1808.36
218.66	1753.06
218.87	1853.41
219.09	1705.96
219.31	1705.96
219.53	1675.24
219.75	1677.29
219.97	1669.09
220.19	1689.57
220.41	1677.29
220.63	1779.68
220.85	1683.43
221.06	1640.42
221.28	1755.11
221.50	1751.01
221.72	1738.73
221.94	1753.06
222.16	1673.19
222.38	1789.92
222.60	1718.25
222.82	1677.29
223.03	1718.25
223.25	1646.57
223.47	1728.49
223.69	1910.75
223.91	1695.72
224.13	1646.57
224.35	1632.23
224.57	1806.31
224.78	1689.57
225.00	1597.42
225.22	1730.53
225.44	1697.77
225.66	1726.44
225.88	1724.39
226.10	1722.34
226.32	1665.00
226.53	1787.88
226.75	1681.38
226.97	1728.49
227.19	1710.05
227.41	1742.82
227.63	1755.11
227.85	1624.04
228.06	1734.63
228.28	1808.36
228.50	1738.73
228.72	1638.38
228.94	1697.77
229.16	1675.24
229.37	1656.81
229.59	1679.33
229.81	1783.78
230.03	1650.66
230.25	1691.62
230.47	1656.81
230.69	1595.37
230.90	1820.64
231.12	1667.05
231.34	1699.81
231.56	1708.01
231.78	1703.91
232.00	1712.10
232.21	1728.49
232.43	1673.19
232.65	1589.22
232.87	1755.11
233.09	1628.14
233.30	1628.14
233.52	1802.21
233.74	1740.77
233.96	1675.24
234.18	1718.25
234.40	1671.14
234.61	1812.45
234.83	1626.09
235.05	1660.90
235.27	1785.83
235.49	1738.73
235.70	1687.53
235.92	1773.54
236.14	1755.11
236.36	1855.46
236.58	1738.73
236.79	1703.91
237.01	1769.44
237.23	1703.91
237.45	1822.69
237.67	1652.71
237.88	1771.49
238.10	1691.62
238.32	1597.42
238.54	1652.71
238.76	1708.01
238.97	1665.00
239.19	1605.61
239.41	1783.78
239.63	1753.06
239.85	1705.96
240.06	1734.63
240.28	1699.81
240.50	1794.02
240.72	1681.38
240.93	1646.57
241.15	1720.29
241.37	1726.44
241.59	1765.35
241.81	1640.42
242.02	1636.33
242.24	1687.53
242.46	1742.82
242.68	1732.58
242.89	1798.12
243.11	1812.45
243.33	1683.43
243.55	1830.88
243.76	1816.55
243.98	1607.66
244.20	1697.77
244.42	1701.86
244.64	1708.01
244.85	1732.58
245.07	1617.90
245.29	1718.25
245.51	1652.71
245.72	1730.53
245.94	1818.60
246.16	1748.97
246.38	1714.15
246.59	1695.72
246.81	1656.81
247.03	1662.95
247.24	1562.60
247.46	1691.62
247.68	1740.77
247.90	1630.18
248.11	1675.24
248.33	1769.44
248.55	1609.70
248.77	1724.39
248.98	1730.53
249.20	1837.03
249.42	1755.11
249.64	1701.86
249.85	1689.57
250.07	1611.75
250.29	1695.72
250.50	1742.82
250.72	1630.18
250.94	1787.88
251.16	1851.36
251.37	1755.11
251.59	1705.96
251.81	1710.05
252.02	1755.11
252.24	1718.25
252.46	1769.44
252.68	1638.38
252.89	1662.95
253.11	1583.08
253.33	1863.65
253.54	1751.01
253.76	1648.61
253.98	1677.29
254.20	1675.24
254.41	1658.85
254.63	1644.52
254.85	1669.09
255.06	1705.96
255.28	1746.92
255.50	1660.90
255.71	1640.42
255.93	1710.05
256.15	1697.77
256.36	1818.60
256.58	1669.09
256.80	1759.21
257.02	1660.90
257.23	1624.04
257.45	1689.57
257.67	1720.29
257.88	1662.95
258.10	1728.49
258.32	1722.34
258.53	1681.38
258.75	1751.01
258.97	1656.81
259.18	1652.71
259.40	1736.68
259.62	1824.74
259.83	1773.54
260.05	1683.43
260.27	1937.38
260.48	1742.82
260.70	1648.61
260.92	1683.43
261.13	1656.81
261.35	1736.68
261.57	1740.77
261.78	1562.60
262.00	1634.28
262.22	1718.25
262.43	1687.53
262.65	1671.14
262.86	1730.53
263.08	1777.64
263.30	1781.73
263.51	1648.61
263.73	1665.00
263.95	1779.68
264.16	1683.43
264.38	1671.14
264.60	1675.24
264.81	1652.71
265.03	1740.77
265.25	1689.57
265.46	1658.85
265.68	1759.21
265.89	1744.87
266.11	1605.61
266.33	1714.15
266.54	1769.44
266.76	1695.72
266.98	1728.49
267.19	1796.07
267.41	1748.97
267.62	1681.38
267.84	1593.32
268.06	1691.62
268.27	1701.86
268.49	1804.26
268.70	1798.12
268.92	1714.15
269.14	1675.24
269.35	1640.42
269.57	1632.23
269.79	1771.49
270.00	1691.62
270.22	1726.44
270.43	1662.95
270.65	1630.18
270.87	1755.11
271.08	1730.53
271.30	1822.69
271.51	1769.44
271.73	1736.68
271.95	1787.88
272.16	1646.57
272.38	1748.97
272.59	1740.77
272.81	1705.96
273.02	1812.45
273.24	1761.25
273.46	1710.05
273.67	1611.75
273.89	1665.00
274.10	1695.72
274.32	1738.73
274.54	1716.20
274.75	1712.10
274.97	1665.00
275.18	1798.12
275.40	1685.48
275.61	1726.44
275.83	1773.54
276.05	1628.14
276.26	1611.75
276.48	1693.67
276.69	1669.09
276.91	1607.66
277.12	1779.68
277.34	1775.59
277.55	1689.57
277.77	1701.86
277.99	1648.61
278.20	1593.32
278.42	1644.52
278.63	1677.29
278.85	1665.00
279.06	1626.09
279.28	1705.96
279.49	1775.59
279.71	1697.77
279.93	1794.02
280.14	1669.09
280.36	1634.28
280.57	1759.21
280.79	1730.53
281.00	1714.15
281.22	1701.86
281.43	1775.59
281.65	1578.98
281.86	1619.94
282.08	1826.79
282.29	1857.51
282.51	1591.27
282.73	1662.95
282.94	1593.32
283.16	1746.92
283.37	1712.10
283.59	1742.82
283.80	1734.63
284.02	1648.61
284.23	1681.38
284.45	1650.66
284.66	1617.90
284.88	1689.57
285.09	1746.92
285.31	1753.06
285.52	1722.34
285.74	1624.04
285.95	1699.81
286.17	1662.95
286.38	1761.25
286.60	1671.14
286.81	1687.53
287.03	1632.23
287.24	1751.01
287.46	1738.73
287.67	1626.09
287.89	1798.12
288.10	1712.10
288.32	1740.77
288.53	1804.26
288.75	1640.42
288.96	1771.49
289.18	1638.38
289.39	1720.29
289.61	1785.83
289.82	1806.31
290.04	1738.73
290.25	1636.33
290.47	1673.19
290.68	1675.24
290.90	1701.86
291.11	1611.75
291.33	1679.33
291.54	1689.57
291.76	1689.57
291.97	1677.29
292.18	1832.93
292.40	1705.96
292.61	1658.85
292.83	1781.73
293.04	1724.39
293.26	1732.58
293.47	1656.81
293.69	1730.53
293.90	1742.82
294.12	1751.01
294.33	1712.10
294.55	1757.16
294.76	1732.58
294.97	1808.36
295.19	1845.22
295.40	1693.67
295.62	1710.05
295.83	1767.40
296.05	1681.38
296.26	1757.16
296.48	1644.52
296.69	1736.68
296.90	1705.96
297.12	1705.96
297.33	1787.88
297.55	1687.53
297.76	1779.68
297.98	1806.31
298.19	1687.53
298.41	1671.14
298.62	1689.57
298.83	1849.32
299.05	1748.97
299.26	1714.15
299.48	1699.81
299.69	1742.82
299.90	1710.05
300.12	1726.44
300.33	1703.91
300.55	1710.05
300.76	1673.19
300.98	1650.66
301.19	1751.01
301.40	1662.95
301.62	1689.57
301.83	1746.92
302.05	1779.68
302.26	1691.62
302.47	1720.29
302.69	1667.05
302.90	1775.59
303.12	1624.04
303.33	1734.63
303.54	1734.63
303.76	1757.16
303.97	1724.39
304.19	1767.40
304.40	1634.28
304.61	1775.59
304.83	1816.55
305.04	1744.87
305.26	1685.48
305.47	1687.53
305.68	1683.43
305.90	1624.04
306.11	1705.96
306.33	1773.54
306.54	1667.05
306.75	1730.53
306.97	1601.51
307.18	1669.09
307.39	1652.71
307.61	1691.62
307.82	1662.95
308.04	1748.97
308.25	1685.48
308.46	1714.15
308.68	1718.25
308.89	1804.26
309.10	1732.58
309.32	1742.82
309.53	1697.77
309.74	1683.43
309.96	1685.48
310.17	1800.16
310.39	1695.72
310.60	1785.83
310.81	1701.86
311.03	1591.27
311.24	1697.77
311.45	1732.58
311.67	1867.75
311.88	1732.58
312.09	1640.42
312.31	1667.05
312.52	1705.96
312.73	1669.09
312.95	1601.51
313.16	1683.43
313.37	1765.35
313.59	1742.82
313.80	1763.30
314.01	1806.31
314.23	1665.00
314.44	1693.67
314.65	1632.23
314.87	1613.80
315.08	1665.00
315.29	1708.01
315.51	1726.44
315.72	1656.81
315.93	1851.36
316.15	1744.87
316.36	1695.72
316.57	1736.68
316.79	1712.10
317.00	1708.01
317.21	1800.16
317.43	1634.28
317.64	1722.34
317.85	1642.47
318.07	1607.66
318.28	1718.25
318.49	1841.12
318.70	1865.70
318.92	1851.36
319.13	1787.88
319.34	1912.80
319.56	1771.49
319.77	1796.07
319.98	1728.49
320.20	1708.01
320.41	1742.82
320.62	1685.48
320.83	1607.66
321.05	1837.03
321.26	1746.92
321.47	1667.05
321.69	1837.03
321.90	1593.32
322.11	1726.44
322.32	1677.29
322.54	1800.16
322.75	1607.66
322.96	1804.26
323.18	1589.22
323.39	1693.67
323.60	1703.91
323.81	1708.01
324.03	1705.96
324.24	1699.81
324.45	1742.82
324.66	1691.62
324.88	1769.44
325.09	1775.59
325.30	1714.15
325.52	1773.54
325.73	1669.09
325.94	1632.23
326.15	1644.52
326.37	1716.20
326.58	1761.25
326.79	1730.53
327.00	1615.85
327.22	1681.38
327.43	1634.28
327.64	1605.61
327.85	1771.49
328.07	1675.24
328.28	1763.30
328.49	1671.14
328.70	1671.14
328.92	1742.82
329.13	1701.86
329.34	1726.44
329.55	1804.26
329.76	1724.39
329.98	1636.33
330.19	1796.07
330.40	1783.78
330.61	1748.97
330.83	1802.21
331.04	1658.85
331.25	1718.25
331.46	1751.01
331.68	1609.70
331.89	1728.49
332.10	1722.34
332.31	1660.90
332.52	1630.18
332.74	1853.41
332.95	1636.33
333.16	1671.14
333.37	1773.54
333.58	1648.61
333.80	1771.49
334.01	1546.22
334.22	1677.29
334.43	1621.99
334.64	1701.86
334.86	1585.13
335.07	1712.10
335.28	1847.27
335.49	1642.47
335.70	1771.49
335.92	1779.68
336.13	1841.12
336.34	1740.77
336.55	1724.39
336.76	1751.01
336.98	1617.90
337.19	1742.82
337.40	1894.37
337.61	1902.56
337.82	1738.73
338.04	1744.87
338.25	1585.13
338.46	1656.81
338.67	1769.44
338.88	1669.09
339.09	1656.81
339.31	1640.42
339.52	1634.28
339.73	1644.52
339.94	1724.39
340.15	1685.48
340.36	1654.76
340.58	1654.76
340.79	1605.61
341.00	1775.59
341.21	1693.67
341.42	1781.73
341.63	1683.43
341.85	1753.06
342.06	1691.62
342.27	1675.24
342.48	1697.77
342.69	1683.43
342.90	1712.10
343.12	1714.15
343.33	1646.57
343.54	1773.54
343.75	1787.88
343.96	1740.77
344.17	1662.95
344.38	1732.58
344.60	1660.90
344.81	1677.29
345.02	1665.00
345.23	1816.55
345.44	1806.31
345.65	1806.31
345.86	1720.29
346.07	1695.72
346.29	1609.70
346.50	1703.91
346.71	1763.30
346.92	1773.54
347.13	1832.93
347.34	1724.39
347.55	1691.62
347.76	1779.68
347.98	1650.66
348.19	1617.90
348.40	1724.39
348.61	1695.72
348.82	1708.01
349.03	1740.77
349.24	1656.81
349.45	1845.22
349.66	1538.02
349.88	1646.57
350.09	1683.43
350.30	1730.53
350.51	1845.22
350.72	1734.63
350.93	1654.76
351.14	1671.14
351.35	1718.25
351.56	1697.77
351.77	1697.77
351.99	1730.53
352.20	1832.93
352.41	1712.10
352.62	1642.47
352.83	1654.76
353.04	1781.73
353.25	1720.29
353.46	1816.55
353.67	1738.73
353.88	1665.00
354.09	1703.91
354.30	1683.43
354.52	1734.63
354.73	1736.68
354.94	1611.75
355.15	1697.77
355.36	1820.64
355.57	1675.24
355.78	1677.29
355.99	1642.47
356.20	1677.29
356.41	1697.77
356.62	1671.14
356.83	1802.21
357.04	1839.08
357.25	1691.62
357.46	1667.05
357.68	1636.33
357.89	1693.67
358.10	1634.28
358.31	1724.39
358.52	1658.85
358.73	1595.37
358.94	1677.29
359.15	1697.77
359.36	1671.14
359.57	1708.01
359.78	1738.73
359.99	1806.31
360.20	1673.19
360.41	1667.05
360.62	1654.76
360.83	1708.01
361.04	1673.19
361.25	1789.92
361.46	1775.59
361.67	1701.86
361.88	1789.92
362.09	1779.68
362.30	1734.63
362.51	1650.66
362.72	1699.81
362.93	1755.11
363.14	1746.92
363.35	1734.63
363.56	1708.01
363.78	1781.73
363.99	1673.19
364.20	1742.82
364.41	1722.34
364.62	1839.08
364.83	1822.69
365.04	1701.86
365.25	1742.82
365.46	1777.64
365.67	1720.29
365.88	1638.38
366.09	1779.68
366.30	1730.53
366.51	1722.34
366.72	1671.14
366.93	1685.48
367.14	1714.15
367.35	1763.30
367.56	1691.62
367.77	1845.22
367.98	1671.14
368.18	1726.44
368.39	1789.92
368.60	1632.23
368.81	1751.01
369.02	1773.54
369.23	1673.19
369.44	1660.90
369.65	1697.77
369.86	1722.34
370.07	1710.05
370.28	1730.53
370.49	1722.34
370.70	1722.34
370.91	1677.29
371.12	1624.04
371.33	1677.29
371.54	1736.68
371.75	1796.07
371.96	1632.23
372.17	1724.39
372.38	1732.58
372.59	1796.07
372.80	1703.91
373.01	1732.58
373.22	1771.49
373.43	1718.25
373.64	1650.66
373.85	1755.11
374.06	1845.22
374.26	1742.82
374.47	1787.88
374.68	1732.58
374.89	1716.20
375.10	1726.44
375.31	1732.58
375.52	1785.83
375.73	1787.88
375.94	1699.81
376.15	1853.41
376.36	1626.09
376.57	1581.03
376.78	1705.96
376.99	1753.06
377.20	1798.12
377.40	1687.53
377.61	1720.29
377.82	1634.28
378.03	1832.93
378.24	1710.05
378.45	1714.15
378.66	1685.48
378.87	1603.56
379.08	1718.25
379.29	1732.58
379.50	1769.44
379.71	1681.38
379.91	1816.55
380.12	1726.44
380.33	1716.20
380.54	1681.38
380.75	1685.48
380.96	1658.85
381.17	1689.57
381.38	1732.58
381.59	1767.40
381.80	1705.96
382.00	1867.75
382.21	1726.44
382.42	1791.97
382.63	1873.89
382.84	1703.91
383.05	1746.92
383.26	1849.32
383.47	1685.48
383.68	1765.35
383.88	1759.21
384.09	1687.53
384.30	1751.01
384.51	1779.68
384.72	1701.86
384.93	1624.04
385.14	1726.44
385.35	1722.34
385.55	1699.81
385.76	1775.59
385.97	1701.86
386.18	1665.00
386.39	1742.82
386.60	1693.67
386.81	1736.68
387.02	1636.33
387.22	1730.53
387.43	1794.02
387.64	1890.28
387.85	1914.85
388.06	2244.57
388.27	4284.35
388.48	6850.46
388.68	8095.62
388.89	9799.53
389.10	9885.55
389.31	8509.31
389.52	7604.11
389.73	6864.79
389.93	6260.64
390.14	5894.05
390.35	5253.04
390.56	4566.97
390.77	3751.88
390.98	2979.79
391.18	2559.96
391.39	2131.94
391.60	1781.73
391.81	1882.08
392.02	1671.14
392.23	1859.56
392.43	1769.44
392.64	1828.84
392.85	1812.45
393.06	1800.16
393.27	1736.68
393.47	1652.71
393.68	1740.77
393.89	1712.10
394.10	1806.31
394.31	1671.14
394.52	1677.29
394.72	1712.10
394.93	1794.02
395.14	1636.33
395.35	1769.44
395.56	1705.96
395.76	1738.73
395.97	1806.31
396.18	1857.51
396.39	1808.36
396.60	2017.25
396.80	1880.04
397.01	1861.60
397.22	1814.50
397.43	1916.90
397.64	1746.92
397.84	1806.31
398.05	1923.04
398.26	1763.30
398.47	1732.58
398.67	1781.73
398.88	1746.92
399.09	1654.76
399.30	1748.97
399.51	1751.01
399.71	1724.39
399.92	1738.73
400.13	1755.11
400.34	1714.15
400.54	1714.15
400.75	1828.84
400.96	1759.21
401.17	1841.12
401.37	1732.58
401.58	1703.91
401.79	1697.77
402.00	1920.99
402.21	1994.72
402.41	1984.48
402.62	1959.91
402.83	2078.69
403.04	1947.62
403.24	2109.41
403.45	1847.27
403.66	1877.99
403.87	1888.23
404.07	1886.18
404.28	1861.60
404.49	1787.88
404.70	1845.22
404.90	1857.51
405.11	1785.83
405.32	1740.77
405.52	1677.29
405.73	1632.23
405.94	1660.90
406.15	1656.81
406.35	1779.68
406.56	1781.73
406.77	1746.92
406.98	1820.64
407.18	1710.05
407.39	1751.01
407.60	1701.86
407.80	1820.64
408.01	1632.23
408.22	1703.91
408.43	1691.62
408.63	1675.24
408.84	1787.88
409.05	1701.86
409.25	1677.29
409.46	1656.81
409.67	1679.33
409.88	1701.86
410.08	1746.92
410.29	1591.27
410.50	1738.73
410.70	1773.54
410.91	1695.72
411.12	1740.77
411.32	1693.67
411.53	1628.14
411.74	1812.45
411.95	1810.40
412.15	1726.44
412.36	1853.41
412.57	1787.88
412.77	1847.27
412.98	1662.95
413.19	1689.57
413.39	1796.07
413.60	1736.68
413.81	1783.78
414.01	1656.81
414.22	1751.01
414.43	1742.82
414.63	1740.77
414.84	1761.25
415.05	1714.15
415.25	1630.18
415.46	1748.97
415.67	1667.05
415.87	1669.09
416.08	1712.10
416.29	1730.53
416.49	1722.34
416.70	1718.25
416.91	1701.86
417.11	1689.57
417.32	1777.64
417.53	1785.83
417.73	1757.16
417.94	1783.78
418.15	1714.15
418.35	1767.40
418.56	1665.00
418.77	1855.46
418.97	1648.61
419.18	1626.09
419.38	1615.85
419.59	1740.77
419.80	1824.74
420.00	1728.49
420.21	1796.07
420.42	1746.92
420.62	1730.53
420.83	1644.52
421.04	1710.05
421.24	1716.20
421.45	1753.06
421.65	1751.01
421.86	1656.81
422.07	1775.59
422.27	1736.68
422.48	1755.11
422.69	1656.81
422.89	1755.11
423.10	1724.39
423.30	1652.71
423.51	1734.63
423.72	1726.44
423.92	1771.49
424.13	1673.19
424.33	1734.63
424.54	1740.77
424.75	1675.24
424.95	1824.74
425.16	1718.25
425.36	1712.10
425.57	1755.11
425.78	1753.06
425.98	1796.07
426.19	1681.38
426.39	1644.52
426.60	1703.91
426.81	1822.69
427.01	1656.81
427.22	1640.42
427.42	1689.57
427.63	1681.38
427.83	1763.30
428.04	1837.03
428.25	1806.31
428.45	1789.92
428.66	1771.49
428.86	1683.43
429.07	1685.48
429.28	1751.01
429.48	1656.81
429.69	1726.44
429.89	1742.82
430.10	1642.47
430.30	1726.44
430.51	1738.73
430.71	1742.82
430.92	1738.73
431.13	1742.82
431.33	1763.30
431.54	1705.96
431.74	1773.54
431.95	1865.70
432.15	1712.10
432.36	1794.02
432.56	1765.35
432.77	1802.21
432.98	1837.03
433.18	1828.84
433.39	1679.33
433.59	1679.33
433.80	1812.45
434.00	1857.51
434.21	1660.90
434.41	1705.96
434.62	1873.89
434.82	1718.25
435.03	1685.48
435.23	1742.82
435.44	1613.80
435.64	1689.57
435.85	1712.10
436.06	1769.44
436.26	1771.49
436.47	1636.33
436.67	1673.19
436.88	1722.34
437.08	1818.60
437.29	1748.97
437.49	1761.25
437.70	1775.59
437.90	1765.35
438.11	1816.55
438.31	1806.31
438.52	1877.99
438.72	1892.32
438.93	2029.54
439.13	1841.12
439.34	1832.93
439.54	1697.77
439.75	1814.50
439.95	1693.67
440.16	1722.34
440.36	1738.73
440.57	1767.40
440.77	1798.12
440.98	1748.97
441.18	1830.88
441.39	1724.39
441.59	1701.86
441.80	1816.55
442.00	1724.39
442.21	1845.22
442.41	1656.81
442.62	1791.97
442.82	1697.77
443.02	1720.29
443.23	1802.21
443.43	1767.40
443.64	1855.46
443.84	1615.85
444.05	1824.74
444.25	1714.15
444.46	1765.35
444.66	1755.11
444.87	1816.55
445.07	1722.34
445.28	1769.44
445.48	1849.32
445.69	1830.88
445.89	1914.85
446.09	1783.78
446.30	2050.02
446.50	2693.08
446.71	3688.39
446.91	4446.14
447.12	4687.80
447.32	4872.12
447.53	4356.03
447.73	3878.85
447.93	3479.50
448.14	3350.48
448.34	3137.49
448.55	2916.31
448.75	2736.09
448.96	2695.13
449.16	2402.27
449.36	2336.73
449.57	2078.69
449.77	1898.47
449.98	1796.07
450.18	1898.47
450.39	1824.74
450.59	1701.86
450.79	1791.97
451.00	1775.59
451.20	1740.77
451.41	1708.01
451.61	1751.01
451.81	1732.58
452.02	1771.49
452.22	1656.81
452.43	1642.47
452.63	1669.09
452.84	1763.30
453.04	1681.38
453.24	1781.73
453.45	1722.34
453.65	1740.77
453.86	1775.59
454.06	1794.02
454.26	1818.60
454.47	1755.11
454.67	1832.93
454.87	1777.64
455.08	1720.29
455.28	1873.89
455.49	1783.78
455.69	1677.29
455.89	1867.75
456.10	1812.45
456.30	1683.43
456.51	1744.87
456.71	1740.77
456.91	1771.49
457.12	1718.25
457.32	1757.16
457.52	1734.63
457.73	1728.49
457.93	1804.26
458.14	1665.00
458.34	1734.63
458.54	1759.21
458.75	1771.49
458.95	1816.55
459.15	1722.34
459.36	1716.20
459.56	1806.31
459.76	1804.26
459.97	1705.96
460.17	1751.01
460.37	1714.15
460.58	1685.48
460.78	1808.36
460.99	1722.34
461.19	1712.10
461.39	1722.34
461.60	1716.20
461.80	1771.49
462.00	1646.57
462.21	1689.57
462.41	1722.34
462.61	1679.33
462.82	1673.19
463.02	1722.34
463.22	1636.33
463.43	1826.79
463.63	1687.53
463.83	1714.15
464.04	1791.97
464.24	1685.48
464.44	1658.85
464.64	1685.48
464.85	1734.63
465.05	1832.93
465.25	1751.01
465.46	1675.24
465.66	1775.59
465.86	1699.81
466.07	1708.01
466.27	1767.40
466.47	1689.57
466.68	1658.85
466.88	1812.45
467.08	1732.58
467.29	1755.11
467.49	1769.44
467.69	1710.05
467.89	1791.97
468.10	1718.25
468.30	1683.43
468.50	1841.12
468.71	1738.73
468.91	1658.85
469.11	1894.37
469.31	1751.01
469.52	1683.43
469.72	1816.55
469.92	1802.21
470.13	1763.30
470.33	1775.59
470.53	1869.80
470.73	2136.03
470.94	2279.39
471.14	2447.32
471.34	2580.44
471.54	2439.13
471.75	2164.70
471.95	2179.04
472.15	2045.92
472.36	2084.83
472.56	2041.82
472.76	2115.55
472.96	1972.19
473.17	1953.76
473.37	1961.95
473.57	1822.69
473.77	1839.08
473.98	1808.36
474.18	1708.01
474.38	1869.80
474.58	1650.66
474.79	1693.67
474.99	1775.59
475.19	1847.27
475.39	1677.29
475.60	1798.12
475.80	1728.49
476.00	1744.87
476.20	1665.00
476.41	1771.49
476.61	1816.55
476.81	1820.64
477.01	1693.67
477.21	1798.12
477.42	1794.02
477.62	1656.81
477.82	1785.83
478.02	1742.82
478.23	1732.58
478.43	1587.18
478.63	1695.72
478.83	1671.14
479.03	1656.81
479.24	1791.97
479.44	1818.60
479.64	1699.81
479.84	1658.85
480.04	1718.25
480.25	1789.92
480.45	1708.01
480.65	1701.86
480.85	1810.40
481.06	1710.05
481.26	1767.40
481.46	1763.30
481.66	1791.97
481.86	1628.14
482.06	1783.78
482.27	1775.59
482.47	1763.30
482.67	1775.59
482.87	1736.68
483.07	1763.30
483.28	1683.43
483.48	1726.44
483.68	1716.20
483.88	1591.27
484.08	1583.08
484.29	1667.05
484.49	1695.72
484.69	1718.25
484.89	1816.55
485.09	1814.50
485.29	1824.74
485.50	1751.01
485.70	1703.91
485.90	1767.40
486.10	1718.25
486.30	1695.72
486.50	1800.16
486.71	1703.91
486.91	1839.08
487.11	1783.78
487.31	1671.14
487.51	1726.44
487.71	1685.48
487.91	1603.56
488.12	1791.97
488.32	1589.22
488.52	1755.11
488.72	1589.22
488.92	1767.40
489.12	1806.31
489.32	1814.50
489.53	1769.44
489.73	1611.75
489.93	1755.11
490.13	1736.68
490.33	1699.81
490.53	1779.68
490.73	1804.26
490.94	1669.09
491.14	1820.64
491.34	1882.08
491.54	2068.45
491.74	2588.63
491.94	3051.47
492.14	3051.47
492.34	3006.42
492.54	2801.62
492.75	2396.12
492.95	2512.86
493.15	2334.68
493.35	2222.05
493.55	2138.08
493.75	2144.22
493.95	2150.37
494.15	1986.53
494.35	1980.39
494.56	1949.67
494.76	1769.44
494.96	1791.97
495.16	1746.92
495.36	1755.11
495.56	1738.73
495.76	1726.44
495.96	1681.38
496.16	1748.97
496.36	1912.80
496.56	1630.18
496.77	1746.92
496.97	1705.96
497.17	1755.11
497.37	1615.85
497.57	1748.97
497.77	1724.39
497.97	1660.90
498.17	1763.30
498.37	1714.15
498.57	1804.26
498.77	1724.39
498.97	1779.68
499.17	1802.21
499.38	1708.01
499.58	1826.79
499.78	1802.21
499.98	1767.40
500.18	1736.68
500.38	1746.92
500.58	1923.04
500.78	2529.24
500.98	4573.11
501.18	5920.68
501.38	6838.17
501.58	7112.60
501.78	6776.73
501.98	5547.95
502.18	5013.43
502.38	4421.56
502.58	4151.23
502.78	3850.18
502.98	3731.40
503.18	3448.78
503.38	3104.72
503.59	2840.53
503.79	2697.17
503.99	2480.09
504.19	2269.15
504.39	2205.66
504.59	2205.66
504.79	2117.60
504.99	2070.50
505.19	1908.71
505.39	1877.99
505.59	1992.67
505.79	1970.15
505.99	1894.37
506.19	1763.30
506.39	1853.41
506.59	1779.68
506.79	1751.01
506.99	1832.93
507.19	1822.69
507.39	1744.87
507.59	1697.77
507.79	1677.29
507.99	1646.57
508.19	1777.64
508.39	1705.96
508.59	1791.97
508.79	1834.98
508.99	1822.69
509.19	1726.44
509.39	1730.53
509.59	1746.92
509.79	1712.10
509.99	1757.16
510.19	1771.49
510.39	1767.40
510.59	1783.78
510.79	1673.19
510.99	1748.97
511.19	1730.53
511.39	1857.51
511.59	1757.16
511.79	1828.84
511.99	1761.25
512.19	1751.01
512.38	1691.62
512.58	1703.91
512.78	1757.16
512.98	1857.51
513.18	1880.04
513.38	1662.95
513.58	1701.86
513.78	1665.00
513.98	1712.10
514.18	1818.60
514.38	1640.42
514.58	1722.34
514.78	1726.44
514.98	1697.77
515.18	1761.25
515.38	1751.01
515.58	1865.70
515.78	1689.57
515.98	1718.25
516.18	1820.64
516.38	1826.79
516.57	1761.25
516.77	1703.91
516.97	1828.84
517.17	1691.62
517.37	1689.57
517.57	1791.97
517.77	1722.34
517.97	1667.05
518.17	1820.64
518.37	1730.53
518.57	1710.05
518.77	1689.57
518.97	1755.11
519.16	1746.92
519.36	1751.01
519.56	1732.58
519.76	1652.71
519.96	1726.44
520.16	1849.32
520.36	1759.21
520.56	1751.01
520.76	1767.40
520.96	1722.34
521.16	1841.12
521.35	1849.32
521.55	1796.07
521.75	1691.62
521.95	1699.81
522.15	1662.95
522.35	1660.90
522.55	1710.05
522.75	1765.35
522.95	1689.57
523.14	1699.81
523.34	1779.68
523.54	1769.44
523.74	1804.26
523.94	1701.86
524.14	1599.46
524.34	1763.30
524.54	1916.90
524.73	1730.53
524.93	1744.87
525.13	1675.24
525.33	1695.72
525.53	1853.41
525.73	1720.29
525.93	1757.16
526.13	1689.57
526.32	1677.29
526.52	1785.83
526.72	1796.07
526.92	1705.96
527.12	1722.34
527.32	1628.14
527.52	1716.20
527.71	1742.82
527.91	1705.96
528.11	1722.34
528.31	1730.53
528.51	1685.48
528.71	1828.84
528.90	1742.82
529.10	1818.60
529.30	1791.97
529.50	1681.38
529.70	1712.10
529.90	1665.00
530.09	1732.58
530.29	1675.24
530.49	1669.09
530.69	1845.22
530.89	1746.92
531.09	1855.46
531.28	1748.97
531.48	1765.35
531.68	1757.16
531.88	1796.07
532.08	1716.20
532.28	1734.63
532.47	1759.21
532.67	1812.45
532.87	1779.68
533.07	1679.33
533.27	1837.03
533.46	1757.16
533.66	1755.11
533.86	1718.25
534.06	1712.10
534.26	1818.60
534.45	1697.77
534.65	1789.92
534.85	1730.53
535.05	1748.97
535.25	1730.53
535.44	1628.14
535.64	1824.74
535.84	1691.62
536.04	1751.01
536.24	1761.25
536.43	1667.05
536.63	1816.55
536.83	1712.10
537.03	1722.34
537.22	1724.39
537.42	1644.52
537.62	1791.97
537.82	1646.57
538.02	1759.21
538.21	1779.68
538.41	1953.76
538.61	1740.77
538.81	1746.92
539.00	1828.84
539.20	1677.29
539.40	1720.29
539.60	1783.78
539.79	1802.21
539.99	1693.67
540.19	1736.68
540.39	1744.87
540.58	1716.20
540.78	1730.53
540.98	1796.07
541.18	1714.15
541.37	1742.82
541.57	1736.68
541.77	1810.40
541.97	1718.25
542.16	1701.86
542.36	1665.00
542.56	1736.68
542.76	1830.88
542.95	1728.49
543.15	1812.45
543.35	1810.40
543.54	1660.90
543.74	1699.81
543.94	1757.16
544.14	1699.81
544.33	1771.49
544.53	1689.57
544.73	1794.02
544.93	1734.63
545.12	1714.15
545.32	1794.02
545.52	1718.25
545.71	1665.00
545.91	1669.09
546.11	1716.20
546.30	1656.81
546.50	1796.07
546.70	1757.16
546.90	1810.40
547.09	1632.23
547.29	1789.92
547.49	1820.64
547.68	1771.49
547.88	1669.09
548.08	1789.92
548.27	2189.28
548.47	1613.80
548.67	1677.29
548.87	1785.83
549.06	1736.68
549.26	1734.63
549.46	1708.01
549.65	1757.16
549.85	1808.36
550.05	1818.60
550.24	1632.23
550.44	1730.53
550.64	1716.20
550.83	1656.81
551.03	1781.73
551.23	1775.59
551.42	1744.87
551.62	1849.32
551.82	1820.64
552.01	1722.34
552.21	1832.93
552.41	1724.39
552.60	1804.26
552.80	1736.68
553.00	1779.68
553.19	1718.25
553.39	1839.08
553.59	1714.15
553.78	1791.97
553.98	1800.16
554.17	1724.39
554.37	1808.36
554.57	1816.55
554.76	1740.77
554.96	1685.48
555.16	1746.92
555.35	1742.82
555.55	1755.11
555.75	1763.30
555.94	1802.21
556.14	1710.05
556.33	1783.78
556.53	1746.92
556.73	1730.53
556.92	1785.83
557.12	1837.03
557.32	1796.07
557.51	1896.42
557.71	1789.92
557.90	1871.84
558.10	1867.75
558.30	1726.44
558.49	1699.81
558.69	1705.96
558.88	1804.26
559.08	1757.16
559.28	1710.05
559.47	1757.16
559.67	1802.21
559.86	1892.32
560.06	1777.64
560.26	1699.81
560.45	1781.73
560.65	1751.01
560.84	1736.68
561.04	1714.15
561.24	1761.25
561.43	1607.66
561.63	1800.16
561.82	1714.15
562.02	1796.07
562.22	1712.10
562.41	1687.53
562.61	1703.91
562.80	1695.72
563.00	1843.17
563.19	1837.03
563.39	1794.02
563.59	1734.63
563.78	1669.09
563.98	1705.96
564.17	1710.05
564.37	1587.18
564.56	1779.68
564.76	1630.18
564.96	1804.26
565.15	1775.59
565.35	1794.02
565.54	1728.49
565.74	1751.01
565.93	1759.21
566.13	1730.53
566.32	1787.88
566.52	1777.64
566.71	1767.40
566.91	1837.03
567.11	1757.16
567.30	1802.21
567.50	1824.74
567.69	1773.54
567.89	1699.81
568.08	1759.21
568.28	1806.31
568.47	1675.24
568.67	1724.39
568.86	1726.44
569.06	1759.21
569.25	1718.25
569.45	1679.33
569.64	1665.00
569.84	1675.24
570.04	1775.59
570.23	1728.49
570.43	1757.16
570.62	1767.40
570.82	1820.64
571.01	1705.96
571.21	1759.21
571.40	1648.61
571.60	1806.31
571.79	1843.17
571.99	1761.25
572.18	1720.29
572.38	1781.73
572.57	1710.05
572.77	1744.87
572.96	1875.94
573.16	1763.30
573.35	1693.67
573.55	1849.32
573.74	1687.53
573.94	1703.91
574.13	1767.40
574.33	1726.44
574.52	1875.94
574.71	1753.06
574.91	1722.34
575.10	1615.85
575.30	1593.32
575.49	1761.25
575.69	1703.91
575.88	1632.23
576.08	1675.24
576.27	1855.46
576.47	1806.31
576.66	1828.84
576.86	1753.06
577.05	1732.58
577.25	1769.44
577.44	1918.95
577.64	1720.29
577.83	1710.05
578.02	1791.97
578.22	1845.22
578.41	1845.22
578.61	1755.11
578.80	1720.29
579.00	1814.50
579.19	1783.78
579.39	1798.12
579.58	1837.03
579.77	1746.92
579.97	1802.21
580.16	1798.12
580.36	1818.60
580.55	1929.19
580.75	1761.25
580.94	1755.11
581.13	1865.70
581.33	1888.23
581.52	1812.45
581.72	1982.43
581.91	1814.50
582.11	1716.20
582.30	1759.21
582.49	1794.02
582.69	1832.93
582.88	1853.41
583.08	1773.54
583.27	1824.74
583.47	1705.96
583.66	1712.10
583.85	1710.05
584.05	1777.64
584.24	1722.34
584.44	1773.54
584.63	1794.02
584.82	1824.74
585.02	1845.22
585.21	1812.45
585.41	1875.94
585.60	1794.02
585.79	1951.71
585.99	1943.52
586.18	1849.32
586.37	2250.72
586.57	3350.48
586.76	9838.44
586.96	24166.03
587.15	34524.66
587.34	40797.59
587.54	42632.57
587.73	36703.70
587.93	26496.62
588.12	21376.70
588.31	18310.89
588.51	16475.91
588.70	15161.11
588.89	14092.07
589.09	12504.90
589.28	11005.78
589.47	9621.36
589.67	8054.66
589.86	6500.25
590.06	5038.00
590.25	3983.30
590.44	3057.62
590.64	2596.82
590.83	2291.68
591.02	2144.22
591.22	2004.96
591.41	1959.91
591.60	1796.07
591.80	1912.80
591.99	1830.88
592.18	1765.35
592.38	1843.17
592.57	1732.58
592.76	1806.31
592.96	1826.79
593.15	1740.77
593.34	1771.49
593.54	1751.01
593.73	1740.77
593.92	1826.79
594.12	1802.21
594.31	1724.39
594.50	1814.50
594.70	1847.27
594.89	1882.08
595.08	1658.85
595.28	1777.64
595.47	1904.61
595.66	1818.60
595.86	1683.43
596.05	1640.42
596.24	1683.43
596.43	1783.78
596.63	1841.12
596.82	1820.64
597.01	1800.16
597.21	1847.27
597.40	1779.68
597.59	1767.40
597.79	1748.97
597.98	1796.07
598.17	1712.10
598.36	1808.36
598.56	1769.44
598.75	1673.19
598.94	1722.34
599.14	1746.92
599.33	1640.42
599.52	1837.03
599.71	1742.82
599.91	1794.02
600.10	1679.33
600.29	1689.57
600.48	1759.21
600.68	1755.11
600.87	1755.11
601.06	1759.21
601.26	1671.14
601.45	1720.29
601.64	1689.57
601.83	1802.21
602.03	1716.20
602.22	1683.43
602.41	1761.25
602.60	1900.52
602.80	1757.16
602.99	1736.68
603.18	1708.01
603.37	1742.82
603.57	1740.77
603.76	1781.73
603.95	1791.97
604.14	1767.40
604.34	1626.09
604.53	1712.10
604.72	1789.92
604.91	1779.68
605.10	1746.92
605.30	1738.73
605.49	1791.97
605.68	1742.82
605.87	1798.12
606.07	1724.39
606.26	1785.83
606.45	1687.53
606.64	1693.67
606.84	1736.68
607.03	1728.49
607.22	1718.25
607.41	1636.33
607.60	1624.04
607.80	1779.68
607.99	1726.44
608.18	1726.44
608.37	1746.92
608.56	1699.81
608.76	1779.68
608.95	1763.30
609.14	1759.21
609.33	1814.50
609.52	1789.92
609.72	1763.30
609.91	1855.46
610.10	1738.73
610.29	1812.45
610.48	1779.68
610.68	1746.92
610.87	1744.87
611.06	1773.54
611.25	1681.38
611.44	1771.49
611.63	1767.40
611.83	1845.22
612.02	1691.62
612.21	1716.20
612.40	1599.46
612.59	1648.61
612.79	1621.99
612.98	1722.34
613.17	1808.36
613.36	1789.92
613.55	1812.45
613.74	1701.86
613.93	1730.53
614.13	1775.59
614.32	1712.10
614.51	1806.31
614.70	1677.29
614.89	1718.25
615.08	1695.72
615.28	2027.49
615.47	1699.81
615.66	1751.01
615.85	1763.30
616.04	1839.08
616.23	1767.40
616.42	1697.77
616.62	1683.43
616.81	1744.87
617.00	1714.15
617.19	1734.63
617.38	1695.72
617.57	1771.49
617.76	1705.96
617.95	1761.25
618.15	1746.92
618.34	1861.60
618.53	1619.94
618.72	1871.84
618.91	1761.25
619.10	1812.45
619.29	1687.53
619.48	1796.07
619.68	1630.18
619.87	1708.01
620.06	1650.66
620.25	1800.16
620.44	1720.29
620.63	1759.21
620.82	1744.87
621.01	1732.58
621.20	1746.92
621.39	1783.78
621.59	1705.96
621.78	1740.77
621.97	1675.24
622.16	1759.21
622.35	1800.16
622.54	1753.06
622.73	1824.74
622.92	1656.81
623.11	1789.92
623.30	1775.59
623.49	1714.15
623.68	1705.96
623.88	1804.26
624.07	1699.81
624.26	1742.82
624.45	1734.63
624.64	1697.77
624.83	1720.29
625.02	1728.49
625.21	1742.82
625.40	1722.34
625.59	1787.88
625.78	1796.07
625.97	1777.64
626.16	1806.31
626.35	1767.40
626.54	1699.81
626.74	1834.98
626.93	1681.38
627.12	1812.45
627.31	1830.88
627.50	1771.49
627.69	1808.36
627.88	1722.34
628.07	1734.63
628.26	1581.03
628.45	1619.94
628.64	1658.85
628.83	1748.97
629.02	1673.19
629.21	1736.68
629.40	1685.48
629.59	1673.19
629.78	1732.58
629.97	1699.81
630.16	1708.01
630.35	1683.43
630.54	1732.58
630.73	1767.40
630.92	1736.68
631.11	1656.81
631.30	1722.34
631.49	1761.25
631.68	1673.19
631.87	1722.34
632.06	1628.14
632.25	1884.13
632.44	1765.35
632.63	1693.67
632.82	1710.05
633.01	1652.71
633.20	1646.57
633.39	1640.42
633.58	1642.47
633.77	1714.15
633.96	1736.68
634.15	1746.92
634.34	1722.34
634.53	1714.15
634.72	1681.38
634.91	1605.61
635.10	1751.01
635.29	1761.25
635.48	1675.24
635.67	1675.24
635.86	1697.77
636.05	1755.11
636.24	1779.68
636.43	1699.81
636.62	1773.54
636.81	1605.61
637.00	1724.39
637.19	1777.64
637.38	1734.63
637.57	1699.81
637.76	1712.10
637.95	1769.44
638.14	1716.20
638.33	1648.61
638.52	1763.30
638.71	1621.99
638.89	1681.38
639.08	1832.93
639.27	1753.06
639.46	1763.30
639.65	1812.45
639.84	1816.55
640.03	1820.64
640.22	1744.87
640.41	1822.69
640.60	1742.82
640.79	1738.73
640.98	1636.33
641.17	1689.57
641.36	1699.81
641.55	1730.53
641.74	1646.57
641.92	1714.15
642.11	1683.43
642.30	1703.91
642.49	1671.14
642.68	1667.05
642.87	1785.83
643.06	1775.59
643.25	1669.09
643.44	1746.92
643.63	1679.33
643.82	1720.29
644.00	1718.25
644.19	1767.40
644.38	1755.11
644.57	1822.69
644.76	1800.16
644.95	1673.19
645.14	1738.73
645.33	1753.06
645.52	1738.73
645.71	1665.00
645.89	1638.38
646.08	1730.53
646.27	1693.67
646.46	1798.12
646.65	1712.10
646.84	1765.35
647.03	1710.05
647.22	1759.21
647.40	1777.64
647.59	1720.29
647.78	1687.53
647.97	1699.81
648.16	1722.34
648.35	1769.44
648.54	1781.73
648.73	1697.77
648.91	1800.16
649.10	1732.58
649.29	1648.61
649.48	1736.68
649.67	1736.68
649.86	1705.96
650.05	1646.57
650.23	1845.22
650.42	1685.48
650.61	1751.01
650.80	1685.48
650.99	1830.88
651.18	1785.83
651.36	1796.07
651.55	1710.05
651.74	1753.06
651.93	1689.57
652.12	1816.55
652.31	1708.01
652.49	1689.57
652.68	1763.30
652.87	1728.49
653.06	1761.25
653.25	1779.68
653.44	1732.58
653.62	1818.60
653.81	1689.57
654.00	1724.39
654.19	1712.10
654.38	1890.28
654.56	1748.97
654.75	1738.73
654.94	1757.16
655.13	1689.57
655.32	1740.77
655.51	1714.15
655.69	1708.01
655.88	1767.40
656.07	1673.19
656.26	1673.19
656.45	1693.67
656.63	1738.73
656.82	1656.81
657.01	1736.68
657.20	1619.94
657.38	1763.30
657.57	1755.11
657.76	1693.67
657.95	1785.83
658.14	1624.04
658.32	1738.73
658.51	1626.09
658.70	1683.43
658.89	1751.01
659.08	1767.40
659.26	1849.32
659.45	1665.00
659.64	1742.82
659.83	1722.34
660.01	1894.37
660.20	1656.81
660.39	1751.01
660.58	1628.14
660.76	1759.21
660.95	1693.67
661.14	1732.58
661.33	1611.75
661.51	1636.33
661.70	1658.85
661.89	1734.63
662.08	1634.28
662.26	1660.90
662.45	1699.81
662.64	1847.27
662.83	1763.30
663.01	1714.15
663.20	1724.39
663.39	1771.49
663.58	1705.96
663.76	1679.33
663.95	1751.01
664.14	1648.61
664.32	1773.54
664.51	1730.53
664.70	1632.23
664.89	1787.88
665.07	1757.16
665.26	1775.59
665.45	1703.91
665.64	1738.73
665.82	1781.73
666.01	1759.21
666.20	1665.00
666.38	1748.97
666.57	1873.89
666.76	2187.23
666.95	4526.01
667.13	10432.35
667.32	15296.28
667.51	18054.89
667.69	19312.35
667.88	17784.56
668.07	12644.16
668.25	9553.77
668.44	8150.92
668.63	7436.17
668.81	7028.63
669.00	6297.50
669.19	5726.12
669.38	5167.03
669.56	4655.03
669.75	4016.07
669.94	3549.13
670.12	2963.41
670.31	2498.52
670.50	2326.49
670.68	2074.59
670.87	1853.41
671.06	1843.17
671.24	1818.60
671.43	1818.60
671.62	1763.30
671.80	1718.25
671.99	1785.83
672.18	1787.88
672.36	1755.11
672.55	1810.40
672.74	1783.78
672.92	1730.53
673.11	1804.26
673.29	1681.38
673.48	1802.21
673.67	1681.38
673.85	1777.64
674.04	1710.05
674.23	1800.16
674.41	1834.98
674.60	1691.62
674.79	1677.29
674.97	1681.38
675.16	1722.34
675.34	1796.07
675.53	1636.33
675.72	1720.29
675.90	1847.27
676.09	1718.25
676.28	1779.68
676.46	1644.52
676.65	1791.97
676.83	1642.47
677.02	1705.96
677.21	1691.62
677.39	1755.11
677.58	1662.95
677.77	1734.63
677.95	1564.65
678.14	1730.53
678.32	1648.61
678.51	1701.86
678.70	1855.46
678.88	1740.77
679.07	1798.12
679.25	1730.53
679.44	1660.90
679.63	1613.80
679.81	1650.66
680.00	1738.73
680.18	1759.21
680.37	1830.88
680.55	1662.95
680.74	1650.66
680.93	1564.65
681.11	1767.40
681.30	1652.71
681.48	1798.12
681.67	1656.81
681.85	1740.77
682.04	1740.77
682.23	1757.16
682.41	1703.91
682.60	1636.33
682.78	1720.29
682.97	1728.49
683.15	1701.86
683.34	1732.58
683.53	1798.12
683.71	1638.38
683.90	1843.17
684.08	1734.63
684.27	1652.71
684.45	1765.35
684.64	1755.11
684.82	1636.33
685.01	1748.97
685.19	1751.01
685.38	1832.93
685.57	1697.77
685.75	1652.71
685.94	1736.68
686.12	1691.62
686.31	1714.15
686.49	1822.69
686.68	1673.19
686.86	1789.92
687.05	1761.25
687.23	1828.84
687.42	1718.25
687.60	1648.61
687.79	1783.78
687.97	1826.79
688.16	1705.96
688.34	1767.40
688.53	1662.95
688.71	1662.95
688.90	1755.11
689.08	1679.33
689.27	1607.66
689.45	1746.92
689.64	1685.48
689.82	1742.82
690.01	1662.95
690.19	1732.58
690.38	1763.30
690.56	1839.08
690.75	1615.85
690.93	1652.71
691.12	1648.61
691.30	1675.24
691.49	1683.43
691.67	1720.29
691.86	1791.97
692.04	1722.34
692.23	1673.19
692.41	1667.05
692.60	1853.41
692.78	1779.68
692.97	1703.91
693.15	1769.44
693.34	1804.26
693.52	1783.78
693.71	1667.05
693.89	1714.15
694.08	1632.23
694.26	1769.44
694.44	1751.01
694.63	1728.49
694.81	1660.90
695.00	1679.33
695.18	1783.78
695.37	1806.31
695.55	1701.86
695.74	1736.68
695.92	1699.81
696.10	1744.87
696.29	1593.32
696.47	1662.95
696.66	1689.57
696.84	1644.52
697.03	1703.91
697.21	1849.32
697.40	2324.44
697.58	1804.26
697.76	1695.72
697.95	1720.29
698.13	1640.42
698.32	1654.76
698.50	1785.83
698.68	1738.73
698.87	1820.64
699.05	1744.87
699.24	1677.29
699.42	1654.76
699.61	1742.82
699.79	1734.63
699.97	1748.97
700.16	1650.66
700.34	1701.86
700.53	1734.63
700.71	1828.84
700.89	1791.97
701.08	1695.72
701.26	1765.35
701.45	2156.51
701.63	1677.29
701.81	1738.73
702.00	1699.81
702.18	1667.05
702.37	1642.47
702.55	1689.57
702.73	1714.15
702.92	1662.95
703.10	1755.11
703.28	1699.81
703.47	1626.09
703.65	1712.10
703.84	1705.96
704.02	1695.72
704.20	1822.69
704.39	1677.29
704.57	1677.29
704.75	1828.84
704.94	1757.16
705.12	1740.77
705.30	1726.44
705.49	2258.91
705.67	4335.55
705.86	9256.82
706.04	12468.03
706.22	14610.21
706.41	15550.23
706.59	13791.02
706.77	9465.71
706.96	7454.61
707.14	6578.08
707.32	6014.88
707.51	5558.19
707.69	4843.45
707.87	4208.58
708.06	3643.34
708.24	2975.70
708.42	2488.28
708.61	2320.35
708.79	1920.99
708.97	1837.03
709.16	1808.36
709.34	1798.12
709.52	1730.53
709.71	1677.29
709.89	1843.17
710.07	1656.81
710.26	1685.48
710.44	1755.11
710.62	1804.26
710.80	1771.49
710.99	1802.21
711.17	1794.02
711.35	1755.11
711.54	1708.01
711.72	1759.21
711.90	1730.53
712.09	1710.05
712.27	1662.95
712.45	1769.44
712.63	1673.19
712.82	1783.78
713.00	1667.05
713.18	1759.21
713.37	1765.35
713.55	1769.44
713.73	1722.34
713.91	1708.01
714.10	1658.85
714.28	1763.30
714.46	1712.10
714.65	1640.42
714.83	1765.35
715.01	1669.09
715.19	1685.48
715.38	1673.19
715.56	1710.05
715.74	1681.38
715.92	1642.47
716.11	1779.68
716.29	1624.04
716.47	1755.11
716.65	1693.67
716.84	1624.04
717.02	1748.97
717.20	1681.38
717.38	1640.42
717.57	1695.72
717.75	1701.86
717.93	1667.05
718.11	1730.53
718.30	1681.38
718.48	1722.34
718.66	1820.64
718.84	1810.40
719.03	1730.53
719.21	1611.75
719.39	1798.12
719.57	1716.20
719.75	1796.07
719.94	1650.66
720.12	1660.90
720.30	1798.12
720.48	1798.12
720.67	1644.52
720.85	1605.61
721.03	1712.10
721.21	1683.43
721.39	1820.64
721.58	1677.29
721.76	1615.85
721.94	1726.44
722.12	1771.49
722.30	1740.77
722.49	1705.96
722.67	1677.29
722.85	1746.92
723.03	1636.33
723.21	1697.77
723.40	1669.09
723.58	1724.39
723.76	1716.20
723.94	1822.69
724.12	1705.96
724.30	1818.60
724.49	1755.11
724.67	1673.19
724.85	1806.31
725.03	1654.76
725.21	1802.21
725.40	1718.25
725.58	1632.23
725.76	1755.11
725.94	1765.35
726.12	1699.81
726.30	1656.81
726.49	1710.05
726.67	1742.82
726.85	1814.50
727.03	1847.27
727.21	2127.84
727.39	2856.92
727.57	3880.90
727.76	4321.21
727.94	4511.68
728.12	4370.37
728.30	3655.62
728.48	2963.41
728.66	2734.04
728.84	2557.91
729.03	2275.29
729.21	2168.80
729.39	2021.35
729.57	1896.42
729.75	1794.02
729.93	1902.56
730.11	1701.86
730.30	1775.59
730.48	1767.40
730.66	1871.84
730.84	1834.98
731.02	1726.44
731.20	1714.15
731.38	1673.19
731.56	1642.47
731.74	1638.38
731.93	1716.20
732.11	1681.38
732.29	1732.58
732.47	1667.05
732.65	1638.38
732.83	1814.50
733.01	1681.38
733.19	1624.04
733.37	1710.05
733.56	1738.73
733.74	1718.25
733.92	1769.44
734.10	1619.94
734.28	1734.63
734.46	1662.95
734.64	1724.39
734.82	1699.81
735.00	1613.80
735.18	1626.09
735.36	1740.77
735.54	1673.19
735.73	1660.90
735.91	1785.83
736.09	1742.82
736.27	1722.34
736.45	1748.97
736.63	1607.66
736.81	1652.71
736.99	1785.83
737.17	1787.88
737.35	1673.19
737.53	1701.86
737.71	1724.39
737.89	1771.49
738.07	1736.68
738.25	1720.29
738.43	1566.70
738.61	1671.14
738.80	1665.00
738.98	1605.61
739.16	1705.96
739.34	1613.80
739.52	1796.07
739.70	1722.34
739.88	1773.54
740.06	1746.92
740.24	1654.76
740.42	1826.79
740.60	1683.43
740.78	1710.05
740.96	1599.46
741.14	1673.19
741.32	1697.77
741.50	1628.14
741.68	1779.68
741.86	1826.79
742.04	1652.71
742.22	1681.38
742.40	1644.52
742.58	1724.39
742.76	1677.29
742.94	1712.10
743.12	1691.62
743.30	1656.81
743.48	1781.73
743.66	1724.39
743.84	1732.58
744.02	1732.58
744.20	1796.07
744.38	1648.61
744.56	1681.38
744.74	1841.12
744.92	1681.38
745.10	1806.31
745.28	1726.44
745.46	1884.13
745.64	1636.33
745.82	1695.72
746.00	1689.57
746.18	1761.25
746.36	1658.85
746.54	1697.77
746.72	1728.49
746.90	1650.66
747.08	1808.36
747.26	1624.04
747.44	1767.40
747.62	1771.49
747.80	1634.28
747.98	1730.53
748.15	1746.92
748.33	1716.20
748.51	1808.36
748.69	1783.78
748.87	1660.90
749.05	1712.10
749.23	1783.78
749.41	1691.62
749.59	1710.05
749.77	1693.67
749.95	1697.77
750.13	1660.90
750.31	1742.82
750.49	1683.43
750.67	1767.40
750.85	1755.11
751.03	1714.15
751.20	1804.26
751.38	1662.95
751.56	1730.53
751.74	1742.82
751.92	1718.25
752.10	1624.04
752.28	1746.92
752.46	1675.24
752.64	1714.15
752.82	1755.11
753.00	1751.01
753.18	1656.81
753.35	1677.29
753.53	1656.81
753.71	1693.67
753.89	1701.86
754.07	1718.25
754.25	1771.49
754.43	1726.44
754.61	1634.28
754.79	1710.05
754.97	1759.21
755.14	1771.49
755.32	1593.32
755.50	1679.33
755.68	1783.78
755.86	1673.19
756.04	1722.34
756.22	1593.32
756.40	1738.73
756.57	1859.56
756.75	1697.77
756.93	1685.48
757.11	1759.21
757.29	1697.77
757.47	1665.00
757.65	1595.37
757.82	1607.66
758.00	1632.23
758.18	1701.86
758.36	1619.94
758.54	1771.49
758.72	1591.27
758.90	1714.15
759.07	1718.25
759.25	1648.61
759.43	1828.84
759.61	1679.33
759.79	2181.09
759.97	1742.82
760.15	1634.28
760.32	1650.66
760.50	1755.11
760.68	1740.77
760.86	1632.23
761.04	1791.97
761.22	1667.05
761.39	1816.55
761.57	1748.97
761.75	1734.63
761.93	1730.53
762.11	1621.99
762.28	1730.53
762.46	1634.28
762.64	1804.26
762.82	1628.14
763.00	1650.66
763.18	1779.68
763.35	1677.29
763.53	1759.21
763.71	1744.87
763.89	1714.15
764.07	1744.87
764.24	1669.09
764.42	1718.25
764.60	1720.29
764.78	1697.77
764.96	1765.35
765.13	1812.45
765.31	1599.46
765.49	1755.11
765.67	1701.86
765.84	1748.97
766.02	1722.34
766.20	1644.52
766.38	1705.96
766.56	1660.90
766.73	1744.87
766.91	1781.73
767.09	1708.01
767.27	1763.30
767.44	1662.95
767.62	1738.73
767.80	1738.73
767.98	1665.00
768.15	1791.97
768.33	1785.83
768.51	1708.01
768.69	1703.91
768.87	1753.06
769.04	1744.87
769.22	1787.88
769.40	1755.11
769.58	1843.17
769.75	1665.00
769.93	1703.91
770.11	1730.53
770.28	1689.57
770.46	1769.44
770.64	1693.67
770.82	1734.63
770.99	1628.14
771.17	1857.51
771.35	1673.19
771.53	1716.20
771.70	1689.57
771.88	1691.62
772.06	1748.97
772.23	1671.14
772.41	1736.68
772.59	1730.53
772.77	1654.76
772.94	1712.10
773.12	1691.62
773.30	1619.94
773.47	1726.44
773.65	1660.90
773.83	1849.32
774.01	1581.03
774.18	1583.08
774.36	1685.48
774.54	1673.19
774.71	1738.73
774.89	1617.90
775.07	1632.23
775.24	1748.97
775.42	1660.90
775.60	1705.96
775.78	1634.28
775.95	1591.27
776.13	1570.79
776.31	1630.18
776.48	1738.73
776.66	1738.73
776.84	1613.80
777.01	1685.48
777.19	1759.21
777.37	1722.34
777.54	1742.82
777.72	1812.45
777.90	1689.57
778.07	1675.24
778.25	1847.27
778.43	1779.68
778.60	1681.38
778.78	1699.81
778.96	1812.45
779.13	1667.05
779.31	1785.83
779.49	1660.90
779.66	1736.68
779.84	1765.35
780.01	1742.82
780.19	1712.10
780.37	1777.64
780.54	1767.40
780.72	1634.28
780.90	1689.57
781.07	1708.01
781.25	1701.86
781.43	1691.62
781.60	1689.57
781.78	1814.50
781.95	1726.44
782.13	1591.27
782.31	1714.15
782.48	1640.42
782.66	1716.20
782.83	1794.02
783.01	1626.09
783.19	1691.62
783.36	1755.11
783.54	1687.53
783.72	1710.05
783.89	1601.51
784.07	1785.83
784.24	1734.63
784.42	1798.12
784.60	1761.25
784.77	1775.59
784.95	1591.27
785.12	1607.66
785.30	1710.05
785.47	1662.95
785.65	1660.90
785.83	1628.14
786.00	1662.95
786.18	1744.87
786.35	1609.70
786.53	1673.19
786.71	1761.25
786.88	1724.39
787.06	1779.68
787.23	1730.53
787.41	1609.70
787.58	1728.49
787.76	1701.86
787.94	1755.11
788.11	1703.91
788.29	1632.23
788.46	1722.34
788.64	1679.33
788.81	1613.80
788.99	1621.99
789.16	1595.37
789.34	1763.30
789.52	1730.53
789.69	1734.63
789.87	1703.91
790.04	1677.29
790.22	1701.86
790.39	1787.88
790.57	1685.48
790.74	1652.71
790.92	1808.36
791.09	1638.38
791.27	1703.91
791.44	1732.58
791.62	1673.19
791.79	1781.73
791.97	1714.15
792.15	1894.37
792.32	1851.36
792.50	1818.60
792.67	1824.74
792.85	1755.11
793.02	1652.71
793.20	1763.30
793.37	1685.48
793.55	1738.73
793.72	1638.38
793.90	1675.24
794.07	1615.85
794.25	1654.76
794.42	1730.53
794.60	1742.82
794.77	1683.43
794.95	1740.77
795.12	1830.88
795.30	1658.85
795.47	1624.04
795.65	1877.99
795.82	1738.73
796.00	1662.95
796.17	1744.87
796.34	1708.01
796.52	1683.43
796.69	1798.12
796.87	1751.01
797.04	1665.00
797.22	1722.34
797.39	1738.73
797.57	1736.68
797.74	1681.38
797.92	1753.06
798.09	1642.47
798.27	1705.96
798.44	1771.49
798.62	1601.51
798.79	1716.20
798.96	1839.08
799.14	1746.92
799.31	1927.14
799.49	1667.05
799.66	1734.63
799.84	1785.83
800.01	1624.04
800.19	1683.43
800.36	1630.18
800.53	1796.07
800.71	1777.64
800.88	1773.54
801.06	1673.19
801.23	1626.09
801.41	1697.77
801.58	1693.67
801.75	1624.04
801.93	1740.77
802.10	1718.25
802.28	1689.57
802.45	1638.38
802.63	1730.53
802.80	1726.44
802.97	1667.05
803.15	1759.21
803.32	1665.00
803.50	1568.74
803.67	1783.78
803.84	1636.33
804.02	1746.92
804.19	1728.49
804.37	1630.18
804.54	1615.85
804.71	1681.38
804.89	1687.53
805.06	1701.86
805.24	1638.38
805.41	1636.33
805.58	1648.61
805.76	1837.03
805.93	1742.82
806.10	1783.78
806.28	1765.35
806.45	1710.05
806.63	1705.96
806.80	1726.44
806.97	1751.01
807.15	1757.16
807.32	1712.10
807.49	1742.82
807.67	1599.46
807.84	1691.62
808.01	1710.05
808.19	1794.02
808.36	1824.74
808.54	1665.00
808.71	1673.19
808.88	1759.21
809.06	1673.19
809.23	1761.25
809.40	1683.43
809.58	1722.34
809.75	1677.29
809.92	1656.81
810.10	1877.99
810.27	1771.49
810.44	1638.38
810.62	1783.78
810.79	1736.68
810.96	1673.19
811.14	1710.05
811.31	1751.01
811.48	1687.53
811.66	1640.42
811.83	1794.02
812.00	1732.58
812.18	1755.11
812.35	1820.64
812.52	1722.34
812.69	1691.62
812.87	1722.34
813.04	1716.20
813.21	1667.05
813.39	1673.19
813.56	1671.14
813.73	1783.78
813.91	1728.49
814.08	1697.77
814.25	1703.91
814.42	1697.77
814.60	1665.00
814.77	1759.21
814.94	1693.67
815.12	1718.25
815.29	1742.82
815.46	1722.34
815.63	1652.71
815.81	1681.38
815.98	1710.05
816.15	1716.20
816.33	1740.77
816.50	1677.29
816.67	1732.58
816.84	1652.71
817.02	1656.81
817.19	1691.62
817.36	1683.43
817.53	1783.78
817.71	1589.22
817.88	1701.86
818.05	1665.00
818.22	1675.24
818.40	1796.07
818.57	1697.77
818.74	1773.54
818.91	1685.48
819.09	1720.29
819.26	1724.39
819.43	1728.49
819.60	1619.94
819.78	1740.77
819.95	1728.49
820.12	1634.28
820.29	1757.16
820.47	1714.15
820.64	1689.57
820.81	1656.81
820.98	1708.01
821.15	1626.09
821.33	1701.86
821.50	1691.62
821.67	1742.82
821.84	1658.85
822.02	1746.92
822.19	1748.97
822.36	1734.63
822.53	1669.09
822.70	1673.19
822.88	1746.92
823.05	1802.21
823.22	1662.95
823.39	1671.14
823.56	1656.81
823.74	1843.17
823.91	1681.38
824.08	1726.44
824.25	1636.33
824.42	1851.36
824.60	1640.42
824.77	1738.73
824.94	1640.42
825.11	1732.58
825.28	1652.71
825.45	1742.82
825.63	1683.43
825.80	1710.05
825.97	1722.34
826.14	1656.81
826.31	1566.70
826.48	1812.45
826.66	1693.67
826.83	1667.05
827.00	1740.77
827.17	1667.05
827.34	1757.16
827.51	1660.90
827.69	1710.05
827.86	1621.99
828.03	1705.96
828.20	1738.73
828.37	1597.42
828.54	1701.86
828.71	1716.20
828.89	1767.40
829.06	1675.24
829.23	1775.59
829.40	1609.70
829.57	1667.05
829.74	1748.97
829.91	1617.90
830.09	1644.52
830.26	1734.63
830.43	1777.64
830.60	1677.29
830.77	1726.44
830.94	1789.92
831.11	1759.21
831.28	1677.29
831.46	1773.54
831.63	1693.67
831.80	1765.35
831.97	1699.81
832.14	1626.09
832.31	1736.68
832.48	1679.33
832.65	1783.78
832.82	1619.94
832.99	1685.48
833.17	1685.48
833.34	1781.73
833.51	1718.25
833.68	1566.70
833.85	1742.82
834.02	1605.61
834.19	1652.71
834.36	1636.33
834.53	1687.53
834.70	1828.84
834.87	1697.77
835.04	1697.77
835.22	1591.27
835.39	1691.62
835.56	1701.86
835.73	1640.42
835.90	1796.07
836.07	1714.15
836.24	1755.11
836.41	1665.00
836.58	1677.29
836.75	1726.44
836.92	1636.33
837.09	1708.01
837.26	1718.25
837.43	1718.25
837.60	1734.63
837.77	1687.53
837.94	1708.01
838.12	1740.77
838.29	1730.53
838.46	1660.90
838.63	1642.47
838.80	1816.55
838.97	1665.00
839.14	1695.72
839.31	1712.10
839.48	1744.87
839.65	1710.05
839.82	1798.12
839.99	1738.73
840.16	1697.77
840.33	1630.18
840.50	1691.62
840.67	1581.03
840.84	1636.33
841.01	1769.44
841.18	1710.05
841.35	1742.82
841.52	1708.01
841.69	1812.45
841.86	1712.10
842.03	1726.44
842.20	1691.62
842.37	1753.06
842.54	1689.57
842.71	1693.67
842.88	1675.24
843.05	1771.49
843.22	1751.01
843.39	1705.96
843.56	1691.62
843.73	1693.67
843.90	1724.39
844.07	1734.63
844.24	1734.63
844.41	1767.40
844.58	1738.73
844.75	1697.77
844.92	1757.16
845.09	1746.92
845.26	1652.71
845.43	1712.10
845.60	1624.04
845.77	1720.29
845.94	1787.88
846.10	1796.07
846.27	1671.14
846.44	1665.00
846.61	1632.23
846.78	1701.86
846.95	1763.30
847.12	1671.14
847.29	1640.42
847.46	1665.00
847.63	1724.39
847.80	1658.85
847.97	1673.19
848.14	1789.92
848.31	1755.11
848.48	1640.42
848.65	1781.73
848.82	1718.25
848.98	1845.22
849.15	1746.92
849.32	1814.50
849.49	1736.68
849.66	1654.76
849.83	1714.15
850.00	1585.13
850.17	1708.01
850.34	1730.53
850.51	1646.57
850.68	1683.43
850.85	1832.93
851.01	1738.73
851.18	1667.05
851.35	1648.61
851.52	1726.44
851.69	1775.59
851.86	1599.46
852.03	1695.72
852.20	1691.62
852.37	1708.01
852.53	1632.23
852.70	1748.97
852.87	1697.77
853.04	1722.34
853.21	1699.81
853.38	1746.92
853.55	1656.81
853.72	1763.30
853.89	1675.24
854.05	1660.90
854.22	1726.44
854.39	1712.10
854.56	1710.05
854.73	1738.73
854.90	1691.62
855.07	1640.42
855.23	1683.43
855.40	1699.81
855.57	1730.53
855.74	1630.18
855.91	1794.02
856.08	1652.71
856.25	1699.81
856.41	1685.48
856.58	1728.49
856.75	1716.20
856.92	1607.66
857.09	1818.60
857.26	1673.19
857.42	1681.38
857.59	1718.25
857.76	1703.91
857.93	1732.58
858.10	1759.21
858.27	1689.57
858.43	1708.01
858.60	1675.24
858.77	1624.04
858.94	1679.33
859.11	1689.57
859.27	1665.00
859.44	1646.57
859.61	1822.69
859.78	1712.10
859.95	1650.66
860.12	1665.00
860.28	1890.28
860.45	1806.31
860.62	1724.39
860.79	1720.29
860.95	1710.05
861.12	1691.62
861.29	1658.85
861.46	1658.85
861.63	1665.00
861.79	1769.44
861.96	1601.51
862.13	1716.20
862.30	1779.68
862.47	1605.61
862.63	1658.85
862.80	1710.05
862.97	1753.06
863.14	1695.72
863.30	1710.05
863.47	1724.39
863.64	1841.12
863.81	1773.54
863.97	1681.38
864.14	1724.39
864.31	1710.05
864.48	1710.05
864.65	1648.61
864.81	1746.92
864.98	1691.62
865.15	1716.20
865.32	1714.15
865.48	1736.68
865.65	1785.83
865.82	1656.81
865.98	1691.62
866.15	1738.73
866.32	1701.86
866.49	1632.23
866.65	1798.12
866.82	1687.53
866.99	1708.01
867.16	1681.38
867.32	1652.71
867.49	1638.38
867.66	1671.14
867.83	1708.01
867.99	1605.61
868.16	1665.00
868.33	1667.05
868.49	1667.05
868.66	1708.01
868.83	1744.87
868.99	1710.05
869.16	1708.01
869.33	1763.30
869.50	1798.12
869.66	1755.11
869.83	1714.15
870.00	1605.61
870.16	1665.00
870.33	1695.72
870.50	1746.92
870.66	1730.53
870.83	1832.93
871.00	1665.00
871.17	1687.53
871.33	1822.69
871.50	1681.38
871.67	1705.96
871.83	1626.09
872.00	1781.73
872.17	1722.34
872.33	1722.34
872.50	1763.30
872.67	1617.90
872.83	1634.28
873.00	1677.29
873.17	1732.58
873.33	1701.86
873.50	1746.92
873.67	1671.14
873.83	1605.61
874.00	1685.48
874.16	1742.82
874.33	1740.77
874.50	1652.71
874.66	1710.05
874.83	1648.61
875.00	1761.25
875.16	1796.07
875.33	1746.92
875.50	1609.70
875.66	1656.81
875.83	1697.77
875.99	1681.38
876.16	1697.77
876.33	1621.99
876.49	1693.67
876.66	1734.63
876.83	1648.61
876.99	1650.66
877.16	1748.97
877.32	1695.72
877.49	1660.90
877.66	1767.40
877.82	1818.60
877.99	1705.96
878.15	1791.97
878.32	1705.96
878.49	1695.72
878.65	1699.81
878.82	1689.57
878.98	1705.96
879.15	1703.91
879.32	1767.40
879.48	1677.29
879.65	1703.91
879.81	1732.58
879.98	1628.14
880.15	1718.25
880.31	1779.68
880.48	1697.77
880.64	1800.16
880.81	1671.14
880.97	1824.74
881.14	1769.44
881.31	1736.68
881.47	1783.78
881.64	1650.66
881.80	1665.00
881.97	1667.05
882.13	1755.11
882.30	1722.34
882.47	1677.29
882.63	1732.58
882.80	1636.33
882.96	1619.94
883.13	1726.44
883.29	1640.42
883.46	1877.99
883.62	1794.02
883.79	1732.58
883.95	1800.16
884.12	1728.49
884.29	1724.39
884.45	1726.44
884.62	1753.06
884.78	1667.05
884.95	1839.08
885.11	1665.00
885.28	1632.23
885.44	1593.32
885.61	1730.53
885.77	1744.87
885.94	1843.17
886.10	1703.91
886.27	1748.97
886.43	1740.77
886.60	1796.07
886.76	1753.06
886.93	1638.38
887.09	1679.33
887.26	1628.14
887.42	1712.10
887.59	1808.36
887.75	1771.49
887.92	1705.96
888.08	1779.68
888.25	1740.77
888.41	1771.49
888.58	1708.01
888.74	1660.90
888.91	1648.61
>>>>>End Processed Spectral Data<<<<<
