SpectraSuite Data File
++++++++++++++++++++++++++++++++++++
Date: Mon Jun 06 15:01:17 CEST 2016
User: root
Dark Spectrum Present: No
Reference Spectrum Present: No
Number of Sampled Component Spectra: 1
Spectrometers: USB4C02835
Integration Time (usec): 100000 (USB4C02835)
Spectra Averaged: 1 (USB4C02835)
Boxcar Smoothing: 0 (USB4C02835)
Correct for Electrical Dark: No (USB4C02835)
Strobe/Lamp Enabled: No (USB4C02835)
Correct for Detector Non-linearity: No (USB4C02835)
Correct for Stray Light: No (USB4C02835)
Number of Pixels in Processed Spectrum: 3648
>>>>>Begin Processed Spectral Data<<<<<
177.47	1503.21
177.69	1503.21
177.91	1503.21
178.13	1433.58
178.36	1411.05
178.58	1701.86
178.80	1710.05
179.02	1683.43
179.24	1691.62
179.46	1673.19
179.68	1798.12
179.90	1611.75
180.13	1697.77
180.35	1685.48
180.57	1632.23
180.79	1667.05
181.01	1671.14
181.23	1810.40
181.45	1738.73
181.67	1708.01
181.90	1714.15
182.12	1718.25
182.34	1642.47
182.56	1718.25
182.78	1701.86
183.00	1732.58
183.22	1703.91
183.44	1634.28
183.66	1800.16
183.89	1837.03
184.11	1740.77
184.33	1689.57
184.55	1814.50
184.77	1748.97
184.99	1738.73
185.21	1648.61
185.43	1794.02
185.65	1677.29
185.87	1804.26
186.10	1824.74
186.32	1943.52
186.54	1742.82
186.76	1748.97
186.98	1775.59
187.20	1730.53
187.42	1660.90
187.64	1681.38
187.86	1814.50
188.08	1763.30
188.30	1703.91
188.52	1693.67
188.75	1767.40
188.97	1710.05
189.19	1619.94
189.41	1751.01
189.63	1783.78
189.85	1662.95
190.07	1677.29
190.29	1587.18
190.51	1685.48
190.73	1665.00
190.95	1734.63
191.17	1665.00
191.39	1646.57
191.61	1650.66
191.84	1660.90
192.06	1673.19
192.28	1646.57
192.50	1906.66
192.72	1746.92
192.94	1699.81
193.16	1708.01
193.38	1773.54
193.60	1699.81
193.82	1720.29
194.04	1755.11
194.26	1751.01
194.48	1755.11
194.70	1667.05
194.92	1665.00
195.14	1757.16
195.36	1660.90
195.58	1687.53
195.80	1667.05
196.02	1624.04
196.24	1681.38
196.46	1683.43
196.69	1675.24
196.91	1871.84
197.13	1642.47
197.35	1703.91
197.57	1724.39
197.79	1724.39
198.01	1720.29
198.23	1689.57
198.45	1712.10
198.67	1638.38
198.89	1703.91
199.11	1699.81
199.33	1710.05
199.55	1613.80
199.77	1716.20
199.99	1785.83
200.21	1685.48
200.43	1642.47
200.65	1683.43
200.87	1660.90
201.09	1710.05
201.31	1611.75
201.53	1726.44
201.75	1718.25
201.97	1675.24
202.19	1644.52
202.41	1687.53
202.63	1771.49
202.85	1675.24
203.07	1693.67
203.29	1650.66
203.51	1665.00
203.73	1593.32
203.95	1888.23
204.17	1718.25
204.39	1642.47
204.61	1722.34
204.83	1726.44
205.05	1714.15
205.27	1751.01
205.49	1757.16
205.71	1667.05
205.93	1609.70
206.15	1720.29
206.37	1722.34
206.59	1691.62
206.81	1617.90
207.03	1738.73
207.25	1593.32
207.47	1763.30
207.69	1626.09
207.91	1746.92
208.13	1736.68
208.34	1630.18
208.56	1763.30
208.78	1742.82
209.00	1632.23
209.22	1660.90
209.44	1705.96
209.66	1642.47
209.88	1748.97
210.10	1669.09
210.32	1787.88
210.54	1751.01
210.76	1775.59
210.98	1685.48
211.20	1527.78
211.42	1675.24
211.64	1738.73
211.86	1734.63
212.08	1769.44
212.30	1708.01
212.52	1785.83
212.74	1656.81
212.96	1703.91
213.17	1710.05
213.39	1728.49
213.61	1822.69
213.83	1613.80
214.05	1576.94
214.27	1708.01
214.49	1570.79
214.71	1705.96
214.93	1771.49
215.15	1671.14
215.37	1718.25
215.59	1665.00
215.81	1724.39
216.03	1763.30
216.24	1714.15
216.46	1718.25
216.68	1689.57
216.90	1753.06
217.12	1824.74
217.34	1687.53
217.56	1744.87
217.78	1822.69
218.00	1699.81
218.22	1779.68
218.44	1632.23
218.66	1697.77
218.87	1847.27
219.09	1718.25
219.31	1710.05
219.53	1683.43
219.75	1689.57
219.97	1650.66
220.19	1779.68
220.41	1728.49
220.63	1781.73
220.85	1722.34
221.06	1646.57
221.28	1798.12
221.50	1742.82
221.72	1665.00
221.94	1740.77
222.16	1642.47
222.38	1710.05
222.60	1755.11
222.82	1660.90
223.03	1695.72
223.25	1662.95
223.47	1732.58
223.69	1798.12
223.91	1763.30
224.13	1677.29
224.35	1724.39
224.57	1763.30
224.78	1708.01
225.00	1636.33
225.22	1660.90
225.44	1714.15
225.66	1730.53
225.88	1646.57
226.10	1748.97
226.32	1671.14
226.53	1738.73
226.75	1648.61
226.97	1699.81
227.19	1632.23
227.41	1626.09
227.63	1685.48
227.85	1660.90
228.06	1736.68
228.28	1730.53
228.50	1777.64
228.72	1712.10
228.94	1650.66
229.16	1730.53
229.37	1687.53
229.59	1703.91
229.81	1730.53
230.03	1669.09
230.25	1611.75
230.47	1681.38
230.69	1542.12
230.90	1773.54
231.12	1710.05
231.34	1652.71
231.56	1751.01
231.78	1693.67
232.00	1624.04
232.21	1763.30
232.43	1708.01
232.65	1624.04
232.87	1701.86
233.09	1619.94
233.30	1714.15
233.52	1736.68
233.74	1656.81
233.96	1679.33
234.18	1691.62
234.40	1734.63
234.61	1845.22
234.83	1636.33
235.05	1613.80
235.27	1800.16
235.49	1812.45
235.70	1671.14
235.92	1832.93
236.14	1699.81
236.36	1869.80
236.58	1617.90
236.79	1728.49
237.01	1781.73
237.23	1771.49
237.45	1867.75
237.67	1570.79
237.88	1677.29
238.10	1794.02
238.32	1722.34
238.54	1677.29
238.76	1726.44
238.97	1591.27
239.19	1724.39
239.41	1759.21
239.63	1796.07
239.85	1716.20
240.06	1685.48
240.28	1738.73
240.50	1757.16
240.72	1687.53
240.93	1728.49
241.15	1812.45
241.37	1683.43
241.59	1800.16
241.81	1652.71
242.02	1714.15
242.24	1703.91
242.46	1759.21
242.68	1669.09
242.89	1699.81
243.11	1673.19
243.33	1679.33
243.55	1667.05
243.76	1738.73
243.98	1681.38
244.20	1660.90
244.42	1796.07
244.64	1673.19
244.85	1681.38
245.07	1624.04
245.29	1781.73
245.51	1738.73
245.72	1767.40
245.94	1808.36
246.16	1669.09
246.38	1806.31
246.59	1718.25
246.81	1693.67
247.03	1611.75
247.24	1689.57
247.46	1662.95
247.68	1755.11
247.90	1708.01
248.11	1665.00
248.33	1720.29
248.55	1689.57
248.77	1689.57
248.98	1744.87
249.20	1773.54
249.42	1730.53
249.64	1771.49
249.85	1703.91
250.07	1619.94
250.29	1740.77
250.50	1730.53
250.72	1613.80
250.94	1714.15
251.16	1818.60
251.37	1726.44
251.59	1699.81
251.81	1683.43
252.02	1746.92
252.24	1722.34
252.46	1730.53
252.68	1589.22
252.89	1644.52
253.11	1601.51
253.33	1863.65
253.54	1710.05
253.76	1634.28
253.98	1599.46
254.20	1730.53
254.41	1650.66
254.63	1695.72
254.85	1617.90
255.06	1697.77
255.28	1742.82
255.50	1691.62
255.71	1701.86
255.93	1673.19
256.15	1648.61
256.36	1693.67
256.58	1701.86
256.80	1699.81
257.02	1632.23
257.23	1568.74
257.45	1710.05
257.67	1720.29
257.88	1656.81
258.10	1677.29
258.32	1779.68
258.53	1689.57
258.75	1791.97
258.97	1687.53
259.18	1699.81
259.40	1742.82
259.62	1820.64
259.83	1824.74
260.05	1677.29
260.27	1908.71
260.48	1736.68
260.70	1679.33
260.92	1751.01
261.13	1791.97
261.35	1714.15
261.57	1728.49
261.78	1638.38
262.00	1687.53
262.22	1814.50
262.43	1652.71
262.65	1595.37
262.86	1646.57
263.08	1806.31
263.30	1693.67
263.51	1683.43
263.73	1591.27
263.95	1753.06
264.16	1720.29
264.38	1689.57
264.60	1806.31
264.81	1679.33
265.03	1763.30
265.25	1841.12
265.46	1636.33
265.68	1748.97
265.89	1755.11
266.11	1583.08
266.33	1738.73
266.54	1681.38
266.76	1681.38
266.98	1673.19
267.19	1804.26
267.41	1691.62
267.62	1675.24
267.84	1650.66
268.06	1648.61
268.27	1699.81
268.49	1681.38
268.70	1738.73
268.92	1667.05
269.14	1628.14
269.35	1632.23
269.57	1705.96
269.79	1673.19
270.00	1687.53
270.22	1779.68
270.43	1677.29
270.65	1587.18
270.87	1769.44
271.08	1808.36
271.30	1767.40
271.51	1652.71
271.73	1755.11
271.95	1767.40
272.16	1679.33
272.38	1734.63
272.59	1712.10
272.81	1718.25
273.02	1681.38
273.24	1665.00
273.46	1785.83
273.67	1677.29
273.89	1689.57
274.10	1708.01
274.32	1773.54
274.54	1724.39
274.75	1748.97
274.97	1667.05
275.18	1742.82
275.40	1781.73
275.61	1701.86
275.83	1757.16
276.05	1599.46
276.26	1671.14
276.48	1777.64
276.69	1701.86
276.91	1658.85
277.12	1718.25
277.34	1755.11
277.55	1714.15
277.77	1693.67
277.99	1628.14
278.20	1648.61
278.42	1685.48
278.63	1619.94
278.85	1701.86
279.06	1640.42
279.28	1720.29
279.49	1759.21
279.71	1757.16
279.93	1685.48
280.14	1656.81
280.36	1662.95
280.57	1877.99
280.79	1748.97
281.00	1626.09
281.22	1765.35
281.43	1742.82
281.65	1564.65
281.86	1630.18
282.08	1746.92
282.29	1832.93
282.51	1617.90
282.73	1656.81
282.94	1636.33
283.16	1767.40
283.37	1814.50
283.59	1708.01
283.80	1742.82
284.02	1662.95
284.23	1775.59
284.45	1642.47
284.66	1634.28
284.88	1679.33
285.09	1783.78
285.31	1724.39
285.52	1710.05
285.74	1603.56
285.95	1650.66
286.17	1712.10
286.38	1718.25
286.60	1687.53
286.81	1652.71
287.03	1652.71
287.24	1613.80
287.46	1697.77
287.67	1619.94
287.89	1800.16
288.10	1683.43
288.32	1767.40
288.53	1845.22
288.75	1671.14
288.96	1677.29
289.18	1648.61
289.39	1738.73
289.61	1783.78
289.82	1832.93
290.04	1837.03
290.25	1712.10
290.47	1771.49
290.68	1699.81
290.90	1773.54
291.11	1646.57
291.33	1763.30
291.54	1593.32
291.76	1658.85
291.97	1738.73
292.18	1755.11
292.40	1656.81
292.61	1591.27
292.83	1824.74
293.04	1718.25
293.26	1701.86
293.47	1619.94
293.69	1636.33
293.90	1771.49
294.12	1771.49
294.33	1701.86
294.55	1714.15
294.76	1818.60
294.97	1718.25
295.19	1892.32
295.40	1687.53
295.62	1757.16
295.83	1730.53
296.05	1660.90
296.26	1757.16
296.48	1636.33
296.69	1726.44
296.90	1699.81
297.12	1787.88
297.33	1802.21
297.55	1642.47
297.76	1720.29
297.98	1751.01
298.19	1724.39
298.41	1619.94
298.62	1687.53
298.83	1744.87
299.05	1689.57
299.26	1679.33
299.48	1697.77
299.69	1757.16
299.90	1685.48
300.12	1650.66
300.33	1779.68
300.55	1716.20
300.76	1771.49
300.98	1599.46
301.19	1685.48
301.40	1640.42
301.62	1624.04
301.83	1740.77
302.05	1576.94
302.26	1628.14
302.47	1742.82
302.69	1632.23
302.90	1679.33
303.12	1558.50
303.33	1777.64
303.54	1753.06
303.76	1730.53
303.97	1753.06
304.19	1820.64
304.40	1677.29
304.61	1697.77
304.83	1765.35
305.04	1746.92
305.26	1685.48
305.47	1646.57
305.68	1683.43
305.90	1673.19
306.11	1800.16
306.33	1671.14
306.54	1677.29
306.75	1714.15
306.97	1611.75
307.18	1677.29
307.39	1665.00
307.61	1710.05
307.82	1669.09
308.04	1759.21
308.25	1656.81
308.46	1742.82
308.68	1701.86
308.89	1724.39
309.10	1732.58
309.32	1773.54
309.53	1638.38
309.74	1771.49
309.96	1742.82
310.17	1724.39
310.39	1617.90
310.60	1755.11
310.81	1712.10
311.03	1640.42
311.24	1730.53
311.45	1687.53
311.67	1773.54
311.88	1816.55
312.09	1644.52
312.31	1665.00
312.52	1648.61
312.73	1695.72
312.95	1593.32
313.16	1601.51
313.37	1779.68
313.59	1714.15
313.80	1730.53
314.01	1837.03
314.23	1642.47
314.44	1665.00
314.65	1607.66
314.87	1724.39
315.08	1710.05
315.29	1632.23
315.51	1669.09
315.72	1648.61
315.93	1753.06
316.15	1748.97
316.36	1683.43
316.57	1650.66
316.79	1726.44
317.00	1658.85
317.21	1775.59
317.43	1632.23
317.64	1695.72
317.85	1689.57
318.07	1619.94
318.28	1714.15
318.49	1742.82
318.70	1834.98
318.92	1800.16
319.13	1822.69
319.34	1820.64
319.56	1777.64
319.77	1765.35
319.98	1730.53
320.20	1800.16
320.41	1714.15
320.62	1763.30
320.83	1656.81
321.05	1773.54
321.26	1658.85
321.47	1669.09
321.69	1779.68
321.90	1628.14
322.11	1712.10
322.32	1671.14
322.54	1798.12
322.75	1648.61
322.96	1814.50
323.18	1599.46
323.39	1597.42
323.60	1714.15
323.81	1751.01
324.03	1658.85
324.24	1716.20
324.45	1751.01
324.66	1624.04
324.88	1728.49
325.09	1761.25
325.30	1619.94
325.52	1759.21
325.73	1730.53
325.94	1697.77
326.15	1595.37
326.37	1710.05
326.58	1761.25
326.79	1796.07
327.00	1632.23
327.22	1705.96
327.43	1662.95
327.64	1636.33
327.85	1718.25
328.07	1683.43
328.28	1767.40
328.49	1710.05
328.70	1689.57
328.92	1714.15
329.13	1615.85
329.34	1738.73
329.55	1787.88
329.76	1751.01
329.98	1728.49
330.19	1798.12
330.40	1703.91
330.61	1705.96
330.83	1734.63
331.04	1695.72
331.25	1742.82
331.46	1681.38
331.68	1609.70
331.89	1746.92
332.10	1691.62
332.31	1677.29
332.52	1662.95
332.74	1806.31
332.95	1617.90
333.16	1681.38
333.37	1744.87
333.58	1787.88
333.80	1751.01
334.01	1667.05
334.22	1677.29
334.43	1667.05
334.64	1720.29
334.86	1699.81
335.07	1712.10
335.28	1806.31
335.49	1587.18
335.70	1757.16
335.92	1724.39
336.13	1701.86
336.34	1722.34
336.55	1728.49
336.76	1654.76
336.98	1538.02
337.19	1679.33
337.40	1877.99
337.61	1824.74
337.82	1669.09
338.04	1755.11
338.25	1611.75
338.46	1642.47
338.67	1609.70
338.88	1646.57
339.09	1658.85
339.31	1634.28
339.52	1636.33
339.73	1646.57
339.94	1738.73
340.15	1681.38
340.36	1587.18
340.58	1681.38
340.79	1722.34
341.00	1675.24
341.21	1650.66
341.42	1824.74
341.63	1705.96
341.85	1794.02
342.06	1765.35
342.27	1685.48
342.48	1787.88
342.69	1638.38
342.90	1691.62
343.12	1753.06
343.33	1660.90
343.54	1738.73
343.75	1757.16
343.96	1708.01
344.17	1634.28
344.38	1665.00
344.60	1660.90
344.81	1642.47
345.02	1656.81
345.23	1746.92
345.44	1759.21
345.65	1812.45
345.86	1753.06
346.07	1785.83
346.29	1677.29
346.50	1728.49
346.71	1716.20
346.92	1746.92
347.13	1814.50
347.34	1644.52
347.55	1718.25
347.76	1734.63
347.98	1632.23
348.19	1626.09
348.40	1806.31
348.61	1654.76
348.82	1767.40
349.03	1722.34
349.24	1640.42
349.45	1826.79
349.66	1591.27
349.88	1761.25
350.09	1646.57
350.30	1810.40
350.51	1746.92
350.72	1687.53
350.93	1720.29
351.14	1642.47
351.35	1753.06
351.56	1726.44
351.77	1779.68
351.99	1669.09
352.20	1730.53
352.41	1812.45
352.62	1671.14
352.83	1685.48
353.04	1708.01
353.25	1611.75
353.46	1705.96
353.67	1744.87
353.88	1613.80
354.09	1714.15
354.30	1753.06
354.52	1710.05
354.73	1621.99
354.94	1642.47
355.15	1683.43
355.36	1847.27
355.57	1662.95
355.78	1769.44
355.99	1685.48
356.20	1736.68
356.41	1746.92
356.62	1748.97
356.83	1728.49
357.04	1734.63
357.25	1609.70
357.46	1695.72
357.68	1640.42
357.89	1677.29
358.10	1679.33
358.31	1720.29
358.52	1689.57
358.73	1736.68
358.94	1615.85
359.15	1718.25
359.36	1744.87
359.57	1742.82
359.78	1714.15
359.99	1755.11
360.20	1599.46
360.41	1642.47
360.62	1740.77
360.83	1662.95
361.04	1718.25
361.25	1701.86
361.46	1779.68
361.67	1689.57
361.88	1779.68
362.09	1691.62
362.30	1736.68
362.51	1685.48
362.72	1714.15
362.93	1761.25
363.14	1724.39
363.35	1681.38
363.56	1611.75
363.78	1806.31
363.99	1740.77
364.20	1703.91
364.41	1742.82
364.62	1810.40
364.83	1746.92
365.04	1699.81
365.25	1671.14
365.46	1736.68
365.67	1734.63
365.88	1605.61
366.09	1630.18
366.30	1611.75
366.51	1720.29
366.72	1675.24
366.93	1665.00
367.14	1771.49
367.35	1773.54
367.56	1740.77
367.77	1796.07
367.98	1765.35
368.18	1636.33
368.39	1740.77
368.60	1611.75
368.81	1746.92
369.02	1791.97
369.23	1654.76
369.44	1589.22
369.65	1677.29
369.86	1736.68
370.07	1660.90
370.28	1636.33
370.49	1665.00
370.70	1767.40
370.91	1644.52
371.12	1609.70
371.33	1800.16
371.54	1685.48
371.75	1886.18
371.96	1654.76
372.17	1728.49
372.38	1689.57
372.59	1757.16
372.80	1660.90
373.01	1677.29
373.22	1732.58
373.43	1720.29
373.64	1634.28
373.85	1712.10
374.06	1800.16
374.26	1734.63
374.47	1718.25
374.68	1800.16
374.89	1726.44
375.10	1708.01
375.31	1765.35
375.52	1759.21
375.73	1769.44
375.94	1595.37
376.15	1814.50
376.36	1656.81
376.57	1658.85
376.78	1683.43
376.99	1693.67
377.20	1769.44
377.40	1685.48
377.61	1808.36
377.82	1644.52
378.03	1732.58
378.24	1761.25
378.45	1732.58
378.66	1789.92
378.87	1576.94
379.08	1714.15
379.29	1677.29
379.50	1730.53
379.71	1642.47
379.91	1718.25
380.12	1734.63
380.33	1722.34
380.54	1718.25
380.75	1710.05
380.96	1658.85
381.17	1751.01
381.38	1773.54
381.59	1755.11
381.80	1714.15
382.00	1789.92
382.21	1724.39
382.42	1826.79
382.63	1845.22
382.84	1734.63
383.05	1800.16
383.26	1816.55
383.47	1755.11
383.68	1710.05
383.88	1697.77
384.09	1746.92
384.30	1789.92
384.51	1724.39
384.72	1722.34
384.93	1632.23
385.14	1632.23
385.35	1818.60
385.55	1705.96
385.76	1806.31
385.97	1738.73
386.18	1658.85
386.39	1660.90
386.60	1703.91
386.81	1744.87
387.02	1691.62
387.22	1591.27
387.43	1785.83
387.64	1783.78
387.85	1900.52
388.06	2127.84
388.27	4059.07
388.48	6432.67
388.68	8005.51
388.89	9162.61
389.10	9453.42
389.31	8191.88
389.52	7184.27
389.73	6401.95
389.93	5859.24
390.14	5590.95
390.35	5009.33
390.56	4431.80
390.77	3581.90
390.98	2926.55
391.18	2496.47
391.39	2078.69
391.60	1880.04
391.81	1765.35
392.02	1710.05
392.23	1841.12
392.43	1693.67
392.64	1814.50
392.85	1652.71
393.06	1828.84
393.27	1685.48
393.47	1697.77
393.68	1732.58
393.89	1695.72
394.10	1744.87
394.31	1720.29
394.52	1679.33
394.72	1699.81
394.93	1822.69
395.14	1615.85
395.35	1701.86
395.56	1630.18
395.76	1695.72
395.97	1796.07
396.18	1791.97
396.39	1748.97
396.60	2052.06
396.80	1800.16
397.01	1834.98
397.22	1806.31
397.43	1863.65
397.64	1728.49
397.84	1826.79
398.05	1884.13
398.26	1777.64
398.47	1816.55
398.67	1773.54
398.88	1748.97
399.09	1748.97
399.30	1693.67
399.51	1773.54
399.71	1630.18
399.92	1673.19
400.13	1759.21
400.34	1701.86
400.54	1624.04
400.75	1791.97
400.96	1683.43
401.17	1810.40
401.37	1712.10
401.58	1673.19
401.79	1759.21
402.00	1824.74
402.21	2019.30
402.41	1966.05
402.62	1964.00
402.83	1943.52
403.04	1964.00
403.24	2070.50
403.45	1804.26
403.66	1824.74
403.87	1859.56
404.07	1843.17
404.28	1837.03
404.49	1896.42
404.70	1820.64
404.90	1703.91
405.11	1765.35
405.32	1714.15
405.52	1632.23
405.73	1624.04
405.94	1744.87
406.15	1728.49
406.35	1767.40
406.56	1724.39
406.77	1675.24
406.98	1673.19
407.18	1681.38
407.39	1791.97
407.60	1775.59
407.80	1742.82
408.01	1718.25
408.22	1746.92
408.43	1671.14
408.63	1759.21
408.84	1681.38
409.05	1740.77
409.25	1644.52
409.46	1673.19
409.67	1718.25
409.88	1673.19
410.08	1695.72
410.29	1689.57
410.50	1722.34
410.70	1753.06
410.91	1656.81
411.12	1726.44
411.32	1787.88
411.53	1638.38
411.74	1714.15
411.95	1740.77
412.15	1714.15
412.36	1769.44
412.57	1757.16
412.77	1796.07
412.98	1687.53
413.19	1730.53
413.39	1701.86
413.60	1759.21
413.81	1701.86
414.01	1626.09
414.22	1765.35
414.43	1773.54
414.63	1656.81
414.84	1775.59
415.05	1732.58
415.25	1644.52
415.46	1734.63
415.67	1615.85
415.87	1744.87
416.08	1746.92
416.29	1665.00
416.49	1746.92
416.70	1662.95
416.91	1665.00
417.11	1710.05
417.32	1683.43
417.53	1736.68
417.73	1724.39
417.94	1675.24
418.15	1730.53
418.35	1687.53
418.56	1742.82
418.77	1890.28
418.97	1800.16
419.18	1751.01
419.38	1550.31
419.59	1681.38
419.80	1822.69
420.00	1744.87
420.21	1689.57
420.42	1736.68
420.62	1734.63
420.83	1615.85
421.04	1701.86
421.24	1669.09
421.45	1748.97
421.65	1730.53
421.86	1730.53
422.07	1763.30
422.27	1761.25
422.48	1699.81
422.69	1744.87
422.89	1701.86
423.10	1636.33
423.30	1665.00
423.51	1767.40
423.72	1746.92
423.92	1722.34
424.13	1648.61
424.33	1671.14
424.54	1710.05
424.75	1685.48
424.95	1791.97
425.16	1808.36
425.36	1638.38
425.57	1751.01
425.78	1626.09
425.98	1771.49
426.19	1665.00
426.39	1652.71
426.60	1697.77
426.81	1705.96
427.01	1650.66
427.22	1669.09
427.42	1662.95
427.63	1675.24
427.83	1787.88
428.04	1800.16
428.25	1744.87
428.45	1798.12
428.66	1767.40
428.86	1708.01
429.07	1705.96
429.28	1697.77
429.48	1673.19
429.69	1640.42
429.89	1718.25
430.10	1621.99
430.30	1748.97
430.51	1708.01
430.71	1671.14
430.92	1738.73
431.13	1619.94
431.33	1796.07
431.54	1757.16
431.74	1800.16
431.95	1906.66
432.15	1583.08
432.36	1677.29
432.56	1791.97
432.77	1828.84
432.98	1791.97
433.18	1720.29
433.39	1691.62
433.59	1775.59
433.80	1796.07
434.00	1853.41
434.21	1689.57
434.41	1693.67
434.62	1804.26
434.82	1673.19
435.03	1624.04
435.23	1802.21
435.44	1583.08
435.64	1761.25
435.85	1740.77
436.06	1763.30
436.26	1806.31
436.47	1740.77
436.67	1687.53
436.88	1699.81
437.08	1710.05
437.29	1761.25
437.49	1705.96
437.70	1699.81
437.90	1746.92
438.11	1814.50
438.31	1748.97
438.52	1882.08
438.72	1853.41
438.93	1867.75
439.13	1785.83
439.34	1789.92
439.54	1779.68
439.75	1814.50
439.95	1822.69
440.16	1763.30
440.36	1730.53
440.57	1671.14
440.77	1740.77
440.98	1736.68
441.18	1740.77
441.39	1658.85
441.59	1710.05
441.80	1814.50
442.00	1667.05
442.21	1873.89
442.41	1656.81
442.62	1720.29
442.82	1658.85
443.02	1734.63
443.23	1771.49
443.43	1675.24
443.64	1802.21
443.84	1644.52
444.05	1757.16
444.25	1734.63
444.46	1720.29
444.66	1687.53
444.87	1861.60
445.07	1605.61
445.28	1722.34
445.48	1785.83
445.69	1699.81
445.89	1877.99
446.09	1755.11
446.30	1998.82
446.50	2688.98
446.71	3626.95
446.91	4206.53
447.12	4673.46
447.32	4693.94
447.53	4118.47
447.73	3770.31
447.93	3375.05
448.14	3319.76
448.34	3164.11
448.55	2869.20
448.75	2830.29
448.96	2600.92
449.16	2336.73
449.36	2230.24
449.57	2017.25
449.77	1925.09
449.98	1742.82
450.18	1861.60
450.39	1845.22
450.59	1759.21
450.79	1708.01
451.00	1699.81
451.20	1775.59
451.41	1671.14
451.61	1769.44
451.81	1753.06
452.02	1699.81
452.22	1783.78
452.43	1726.44
452.63	1691.62
452.84	1710.05
453.04	1685.48
453.24	1779.68
453.45	1685.48
453.65	1808.36
453.86	1728.49
454.06	1691.62
454.26	1767.40
454.47	1695.72
454.67	1796.07
454.87	1787.88
455.08	1689.57
455.28	1906.66
455.49	1763.30
455.69	1665.00
455.89	1896.42
456.10	1779.68
456.30	1728.49
456.51	1791.97
456.71	1724.39
456.91	1714.15
457.12	1697.77
457.32	1683.43
457.52	1669.09
457.73	1746.92
457.93	1746.92
458.14	1658.85
458.34	1617.90
458.54	1665.00
458.75	1734.63
458.95	1796.07
459.15	1794.02
459.36	1681.38
459.56	1818.60
459.76	1861.60
459.97	1806.31
460.17	1751.01
460.37	1820.64
460.58	1787.88
460.78	1783.78
460.99	1734.63
461.19	1708.01
461.39	1667.05
461.60	1701.86
461.80	1718.25
462.00	1695.72
462.21	1761.25
462.41	1644.52
462.61	1726.44
462.82	1587.18
463.02	1765.35
463.22	1791.97
463.43	1841.12
463.63	1783.78
463.83	1755.11
464.04	1763.30
464.24	1742.82
464.44	1660.90
464.64	1765.35
464.85	1800.16
465.05	1791.97
465.25	1699.81
465.46	1734.63
465.66	1814.50
465.86	1740.77
466.07	1724.39
466.27	1773.54
466.47	1587.18
466.68	1644.52
466.88	1798.12
467.08	1732.58
467.29	1779.68
467.49	1691.62
467.69	1785.83
467.89	1730.53
468.10	1660.90
468.30	1775.59
468.50	1695.72
468.71	1798.12
468.91	1644.52
469.11	1896.42
469.31	1662.95
469.52	1730.53
469.72	1777.64
469.92	1892.32
470.13	1763.30
470.33	1849.32
470.53	1806.31
470.73	2080.74
470.94	2269.15
471.14	2279.39
471.34	2420.70
471.54	2336.73
471.75	2185.18
471.95	2148.32
472.15	2076.64
472.36	2090.98
472.56	2009.06
472.76	2009.06
472.96	1945.57
473.17	1896.42
473.37	1906.66
473.57	1789.92
473.77	1806.31
473.98	1771.49
474.18	1648.61
474.38	1847.27
474.58	1722.34
474.79	1738.73
474.99	1753.06
475.19	1691.62
475.39	1695.72
475.60	1757.16
475.80	1677.29
476.00	1722.34
476.20	1595.37
476.41	1753.06
476.61	1814.50
476.81	1808.36
477.01	1607.66
477.21	1791.97
477.42	1806.31
477.62	1628.14
477.82	1769.44
478.02	1681.38
478.23	1810.40
478.43	1646.57
478.63	1761.25
478.83	1652.71
479.03	1701.86
479.24	1818.60
479.44	1843.17
479.64	1583.08
479.84	1605.61
480.04	1691.62
480.25	1705.96
480.45	1742.82
480.65	1718.25
480.85	1757.16
481.06	1724.39
481.26	1726.44
481.46	1761.25
481.66	1703.91
481.86	1710.05
482.06	1722.34
482.27	1755.11
482.47	1687.53
482.67	1787.88
482.87	1705.96
483.07	1775.59
483.28	1658.85
483.48	1738.73
483.68	1669.09
483.88	1626.09
484.08	1591.27
484.29	1667.05
484.49	1654.76
484.69	1652.71
484.89	1761.25
485.09	1808.36
485.29	1767.40
485.50	1820.64
485.70	1656.81
485.90	1832.93
486.10	1765.35
486.30	1753.06
486.50	1839.08
486.71	1736.68
486.91	1777.64
487.11	1798.12
487.31	1679.33
487.51	1746.92
487.71	1679.33
487.91	1634.28
488.12	1691.62
488.32	1662.95
488.52	1632.23
488.72	1644.52
488.92	1701.86
489.12	1783.78
489.32	1804.26
489.53	1773.54
489.73	1648.61
489.93	1818.60
490.13	1658.85
490.33	1716.20
490.53	1691.62
490.73	1802.21
490.94	1603.56
491.14	1718.25
491.34	1759.21
491.54	2029.54
491.74	2496.47
491.94	2850.77
492.14	2994.13
492.34	2918.36
492.54	2734.04
492.75	2408.41
492.95	2406.36
493.15	2271.20
493.35	2330.59
493.55	2248.67
493.75	2080.74
493.95	2160.61
494.15	2039.78
494.35	1851.36
494.56	1832.93
494.76	1822.69
494.96	1730.53
495.16	1804.26
495.36	1751.01
495.56	1771.49
495.76	1677.29
495.96	1695.72
496.16	1742.82
496.36	1751.01
496.56	1708.01
496.77	1667.05
496.97	1716.20
497.17	1796.07
497.37	1607.66
497.57	1779.68
497.77	1748.97
497.97	1669.09
498.17	1816.55
498.37	1675.24
498.57	1781.73
498.77	1779.68
498.97	1746.92
499.17	1771.49
499.38	1712.10
499.58	1789.92
499.78	1775.59
499.98	1816.55
500.18	1701.86
500.38	1677.29
500.58	1834.98
500.78	2490.33
500.98	4323.26
501.18	5736.36
501.38	6453.15
501.58	6686.62
501.78	6363.04
501.98	5373.87
502.18	4724.66
502.38	4302.78
502.58	3993.54
502.78	3608.52
502.98	3557.32
503.18	3327.95
503.38	3153.87
503.59	2746.33
503.79	2627.54
503.99	2445.27
504.19	2312.16
504.39	2138.08
504.59	2197.47
504.79	2062.30
504.99	2004.96
505.19	2011.11
505.39	1888.23
505.59	1966.05
505.79	1834.98
505.99	1902.56
506.19	1771.49
506.39	1814.50
506.59	1785.83
506.79	1736.68
506.99	1859.56
507.19	1759.21
507.39	1746.92
507.59	1662.95
507.79	1705.96
507.99	1665.00
508.19	1705.96
508.39	1667.05
508.59	1736.68
508.79	1812.45
508.99	1834.98
509.19	1685.48
509.39	1722.34
509.59	1687.53
509.79	1755.11
509.99	1683.43
510.19	1875.94
510.39	1757.16
510.59	1724.39
510.79	1716.20
510.99	1683.43
511.19	1730.53
511.39	1820.64
511.59	1755.11
511.79	1845.22
511.99	1650.66
512.19	1828.84
512.38	1779.68
512.58	1773.54
512.78	1697.77
512.98	1742.82
513.18	1832.93
513.38	1689.57
513.58	1845.22
513.78	1677.29
513.98	1697.77
514.18	1724.39
514.38	1687.53
514.58	1714.15
514.78	1722.34
514.98	1665.00
515.18	1628.14
515.38	1619.94
515.58	1824.74
515.78	1751.01
515.98	1773.54
516.18	1779.68
516.38	1789.92
516.57	1603.56
516.77	1685.48
516.97	1722.34
517.17	1742.82
517.37	1636.33
517.57	1820.64
517.77	1755.11
517.97	1699.81
518.17	1785.83
518.37	1673.19
518.57	1695.72
518.77	1693.67
518.97	1734.63
519.16	1744.87
519.36	1796.07
519.56	1726.44
519.76	1751.01
519.96	1712.10
520.16	1806.31
520.36	1691.62
520.56	1826.79
520.76	1638.38
520.96	1699.81
521.16	1845.22
521.35	1796.07
521.55	1816.55
521.75	1765.35
521.95	1775.59
522.15	1742.82
522.35	1603.56
522.55	1591.27
522.75	1789.92
522.95	1769.44
523.14	1697.77
523.34	1800.16
523.54	1751.01
523.74	1779.68
523.94	1816.55
524.14	1738.73
524.34	1761.25
524.54	1757.16
524.73	1724.39
524.93	1783.78
525.13	1656.81
525.33	1624.04
525.53	1845.22
525.73	1761.25
525.93	1798.12
526.13	1638.38
526.32	1689.57
526.52	1722.34
526.72	1787.88
526.92	1718.25
527.12	1736.68
527.32	1656.81
527.52	1755.11
527.71	1789.92
527.91	1722.34
528.11	1677.29
528.31	1720.29
528.51	1607.66
528.71	1685.48
528.90	1720.29
529.10	1748.97
529.30	1859.56
529.50	1583.08
529.70	1775.59
529.90	1724.39
530.09	1712.10
530.29	1648.61
530.49	1730.53
530.69	1810.40
530.89	1755.11
531.09	1830.88
531.28	1720.29
531.48	1773.54
531.68	1726.44
531.88	1722.34
532.08	1796.07
532.28	1640.42
532.47	1755.11
532.67	1894.37
532.87	1802.21
533.07	1656.81
533.27	1787.88
533.46	1773.54
533.66	1765.35
533.86	1746.92
534.06	1806.31
534.26	1806.31
534.45	1685.48
534.65	1830.88
534.85	1722.34
535.05	1669.09
535.25	1794.02
535.44	1615.85
535.64	1755.11
535.84	1685.48
536.04	1757.16
536.24	1671.14
536.43	1703.91
536.63	1757.16
536.83	1693.67
537.03	1753.06
537.22	1650.66
537.42	1642.47
537.62	1724.39
537.82	1718.25
538.02	1787.88
538.21	1855.46
538.41	1822.69
538.61	1746.92
538.81	1708.01
539.00	1855.46
539.20	1638.38
539.40	1730.53
539.60	1779.68
539.79	1820.64
539.99	1736.68
540.19	1671.14
540.39	1662.95
540.58	1755.11
540.78	1787.88
540.98	1763.30
541.18	1765.35
541.37	1783.78
541.57	1658.85
541.77	1738.73
541.97	1681.38
542.16	1683.43
542.36	1648.61
542.56	1640.42
542.76	1824.74
542.95	1775.59
543.15	1742.82
543.35	1773.54
543.54	1695.72
543.74	1730.53
543.94	1894.37
544.14	1636.33
544.33	1769.44
544.53	1673.19
544.73	1730.53
544.93	1712.10
545.12	1761.25
545.32	1689.57
545.52	1771.49
545.71	1724.39
545.91	1673.19
546.11	1726.44
546.30	1746.92
546.50	1705.96
546.70	1687.53
546.90	1708.01
547.09	1697.77
547.29	1703.91
547.49	1699.81
547.68	1730.53
547.88	1679.33
548.08	1746.92
548.27	2205.66
548.47	1773.54
548.67	1714.15
548.87	1728.49
549.06	1771.49
549.26	1691.62
549.46	1742.82
549.65	1775.59
549.85	1708.01
550.05	1716.20
550.24	1691.62
550.44	1724.39
550.64	1667.05
550.83	1738.73
551.03	1837.03
551.23	1806.31
551.42	1779.68
551.62	1738.73
551.82	1681.38
552.01	1736.68
552.21	1783.78
552.41	1689.57
552.60	1865.70
552.80	1710.05
553.00	1685.48
553.19	1720.29
553.39	1830.88
553.59	1687.53
553.78	1787.88
553.98	1722.34
554.17	1675.24
554.37	1697.77
554.57	1734.63
554.76	1642.47
554.96	1640.42
555.16	1722.34
555.35	1708.01
555.55	1757.16
555.75	1652.71
555.94	1753.06
556.14	1621.99
556.33	1755.11
556.53	1712.10
556.73	1746.92
556.92	1751.01
557.12	1814.50
557.32	1830.88
557.51	1824.74
557.71	1732.58
557.90	1804.26
558.10	1820.64
558.30	1658.85
558.49	1712.10
558.69	1732.58
558.88	1763.30
559.08	1785.83
559.28	1738.73
559.47	1714.15
559.67	1771.49
559.86	1884.13
560.06	1720.29
560.26	1775.59
560.45	1837.03
560.65	1744.87
560.84	1816.55
561.04	1685.48
561.24	1757.16
561.43	1701.86
561.63	1796.07
561.82	1724.39
562.02	1820.64
562.22	1667.05
562.41	1753.06
562.61	1691.62
562.80	1660.90
563.00	1861.60
563.19	1824.74
563.39	1738.73
563.59	1763.30
563.78	1714.15
563.98	1636.33
564.17	1787.88
564.37	1662.95
564.56	1697.77
564.76	1638.38
564.96	1802.21
565.15	1712.10
565.35	1834.98
565.54	1753.06
565.74	1810.40
565.93	1732.58
566.13	1710.05
566.32	1685.48
566.52	1789.92
566.71	1736.68
566.91	1742.82
567.11	1791.97
567.30	1638.38
567.50	1796.07
567.69	1751.01
567.89	1740.77
568.08	1683.43
568.28	1720.29
568.47	1656.81
568.67	1759.21
568.86	1658.85
569.06	1722.34
569.25	1730.53
569.45	1755.11
569.64	1773.54
569.84	1722.34
570.04	1724.39
570.23	1650.66
570.43	1671.14
570.62	1748.97
570.82	1763.30
571.01	1660.90
571.21	1679.33
571.40	1683.43
571.60	1804.26
571.79	1751.01
571.99	1761.25
572.18	1738.73
572.38	1742.82
572.57	1763.30
572.77	1804.26
572.96	1818.60
573.16	1689.57
573.35	1703.91
573.55	1859.56
573.74	1800.16
573.94	1755.11
574.13	1669.09
574.33	1722.34
574.52	1804.26
574.71	1660.90
574.91	1722.34
575.10	1701.86
575.30	1742.82
575.49	1712.10
575.69	1681.38
575.88	1673.19
576.08	1671.14
576.27	1773.54
576.47	1783.78
576.66	1877.99
576.86	1783.78
577.05	1816.55
577.25	1814.50
577.44	1822.69
577.64	1773.54
577.83	1773.54
578.02	1736.68
578.22	1781.73
578.41	1865.70
578.61	1691.62
578.80	1691.62
579.00	1738.73
579.19	1765.35
579.39	1781.73
579.58	1898.47
579.77	1781.73
579.97	1843.17
580.16	1814.50
580.36	1847.27
580.55	1845.22
580.75	1656.81
580.94	1787.88
581.13	1900.52
581.33	1869.80
581.52	1718.25
581.72	1898.47
581.91	1777.64
582.11	1656.81
582.30	1775.59
582.49	1804.26
582.69	1806.31
582.88	1775.59
583.08	1777.64
583.27	1753.06
583.47	1761.25
583.66	1630.18
583.85	1724.39
584.05	1744.87
584.24	1796.07
584.44	1798.12
584.63	1847.27
584.82	1845.22
585.02	1847.27
585.21	1851.36
585.41	1814.50
585.60	1718.25
585.79	1918.95
585.99	1918.95
586.18	1789.92
586.37	2115.55
586.57	3381.20
586.76	9402.22
586.96	23463.58
587.15	32738.83
587.34	38499.76
587.54	40248.73
587.73	34856.43
587.93	25101.95
588.12	20489.93
588.31	17270.52
588.51	15601.43
588.70	14573.35
588.89	13516.59
589.09	12062.54
589.28	10698.59
589.47	9006.97
589.67	7653.26
589.86	6295.46
590.06	4757.43
590.25	3815.37
590.44	3098.58
590.64	2551.77
590.83	2215.90
591.02	2080.74
591.22	1875.94
591.41	1943.52
591.60	1777.64
591.80	1931.23
591.99	1742.82
592.18	1710.05
592.38	1826.79
592.57	1703.91
592.76	1787.88
592.96	1767.40
593.15	1783.78
593.34	1828.84
593.54	1847.27
593.73	1828.84
593.92	1755.11
594.12	1746.92
594.31	1751.01
594.50	1818.60
594.70	1796.07
594.89	1896.42
595.08	1710.05
595.28	1820.64
595.47	1865.70
595.66	1830.88
595.86	1722.34
596.05	1730.53
596.24	1701.86
596.43	1834.98
596.63	1814.50
596.82	1683.43
597.01	1751.01
597.21	1859.56
597.40	1849.32
597.59	1722.34
597.79	1761.25
597.98	1773.54
598.17	1714.15
598.36	1710.05
598.56	1771.49
598.75	1746.92
598.94	1789.92
599.14	1791.97
599.33	1736.68
599.52	1697.77
599.71	1761.25
599.91	1781.73
600.10	1755.11
600.29	1738.73
600.48	1740.77
600.68	1759.21
600.87	1683.43
601.06	1677.29
601.26	1726.44
601.45	1777.64
601.64	1742.82
601.83	1812.45
602.03	1685.48
602.22	1681.38
602.41	1732.58
602.60	1863.65
602.80	1834.98
602.99	1714.15
603.18	1730.53
603.37	1781.73
603.57	1820.64
603.76	1779.68
603.95	1771.49
604.14	1683.43
604.34	1755.11
604.53	1773.54
604.72	1812.45
604.91	1812.45
605.10	1783.78
605.30	1648.61
605.49	1847.27
605.68	1789.92
605.87	1701.86
606.07	1710.05
606.26	1789.92
606.45	1802.21
606.64	1769.44
606.84	1748.97
607.03	1646.57
607.22	1806.31
607.41	1638.38
607.60	1712.10
607.80	1769.44
607.99	1751.01
608.18	1775.59
608.37	1855.46
608.56	1675.24
608.76	1804.26
608.95	1832.93
609.14	1755.11
609.33	1742.82
609.52	1751.01
609.72	1740.77
609.91	1714.15
610.10	1763.30
610.29	1834.98
610.48	1759.21
610.68	1757.16
610.87	1775.59
611.06	1748.97
611.25	1742.82
611.44	1834.98
611.63	1632.23
611.83	1689.57
612.02	1718.25
612.21	1859.56
612.40	1632.23
612.59	1669.09
612.79	1679.33
612.98	1810.40
613.17	1791.97
613.36	1789.92
613.55	1826.79
613.74	1703.91
613.93	1648.61
614.13	1703.91
614.32	1722.34
614.51	1787.88
614.70	1738.73
614.89	1714.15
615.08	1822.69
615.28	2070.50
615.47	1665.00
615.66	1816.55
615.85	1722.34
616.04	1871.84
616.23	1689.57
616.42	1685.48
616.62	1675.24
616.81	1820.64
617.00	1665.00
617.19	1738.73
617.38	1689.57
617.57	1740.77
617.76	1751.01
617.95	1734.63
618.15	1724.39
618.34	1804.26
618.53	1611.75
618.72	1828.84
618.91	1816.55
619.10	1765.35
619.29	1669.09
619.48	1751.01
619.68	1597.42
619.87	1734.63
620.06	1572.84
620.25	1767.40
620.44	1701.86
620.63	1724.39
620.82	1777.64
621.01	1751.01
621.20	1757.16
621.39	1693.67
621.59	1734.63
621.78	1714.15
621.97	1701.86
622.16	1824.74
622.35	1791.97
622.54	1783.78
622.73	1767.40
622.92	1640.42
623.11	1675.24
623.30	1761.25
623.49	1839.08
623.68	1763.30
623.88	1744.87
624.07	1677.29
624.26	1724.39
624.45	1767.40
624.64	1755.11
624.83	1744.87
625.02	1691.62
625.21	1759.21
625.40	1626.09
625.59	1812.45
625.78	1708.01
625.97	1789.92
626.16	1699.81
626.35	1726.44
626.54	1705.96
626.74	1767.40
626.93	1703.91
627.12	1662.95
627.31	1669.09
627.50	1654.76
627.69	1771.49
627.88	1662.95
628.07	1669.09
628.26	1621.99
628.45	1732.58
628.64	1763.30
628.83	1757.16
629.02	1662.95
629.21	1689.57
629.40	1751.01
629.59	1705.96
629.78	1632.23
629.97	1667.05
630.16	1697.77
630.35	1744.87
630.54	1714.15
630.73	1714.15
630.92	1748.97
631.11	1673.19
631.30	1746.92
631.49	1740.77
631.68	1769.44
631.87	1693.67
632.06	1671.14
632.25	1781.73
632.44	1724.39
632.63	1769.44
632.82	1648.61
633.01	1646.57
633.20	1691.62
633.39	1665.00
633.58	1615.85
633.77	1697.77
633.96	1789.92
634.15	1794.02
634.34	1712.10
634.53	1722.34
634.72	1712.10
634.91	1648.61
635.10	1818.60
635.29	1724.39
635.48	1689.57
635.67	1652.71
635.86	1619.94
636.05	1826.79
636.24	1710.05
636.43	1667.05
636.62	1769.44
636.81	1640.42
637.00	1732.58
637.19	1683.43
637.38	1689.57
637.57	1652.71
637.76	1708.01
637.95	1732.58
638.14	1677.29
638.33	1675.24
638.52	1765.35
638.71	1705.96
638.89	1611.75
639.08	1779.68
639.27	1785.83
639.46	1660.90
639.65	1826.79
639.84	1726.44
640.03	1734.63
640.22	1681.38
640.41	1888.23
640.60	1691.62
640.79	1716.20
640.98	1695.72
641.17	1738.73
641.36	1800.16
641.55	1722.34
641.74	1736.68
641.92	1724.39
642.11	1638.38
642.30	1722.34
642.49	1652.71
642.68	1714.15
642.87	1685.48
643.06	1757.16
643.25	1699.81
643.44	1718.25
643.63	1757.16
643.82	1753.06
644.00	1681.38
644.19	1724.39
644.38	1634.28
644.57	1767.40
644.76	1751.01
644.95	1753.06
645.14	1724.39
645.33	1634.28
645.52	1693.67
645.71	1634.28
645.89	1677.29
646.08	1755.11
646.27	1718.25
646.46	1851.36
646.65	1652.71
646.84	1732.58
647.03	1648.61
647.22	1693.67
647.40	1773.54
647.59	1757.16
647.78	1769.44
647.97	1716.20
648.16	1746.92
648.35	1869.80
648.54	1763.30
648.73	1658.85
648.91	1763.30
649.10	1726.44
649.29	1683.43
649.48	1693.67
649.67	1720.29
649.86	1650.66
650.05	1726.44
650.23	1730.53
650.42	1607.66
650.61	1779.68
650.80	1763.30
650.99	1828.84
651.18	1732.58
651.36	1796.07
651.55	1626.09
651.74	1755.11
651.93	1755.11
652.12	1720.29
652.31	1628.14
652.49	1656.81
652.68	1615.85
652.87	1687.53
653.06	1693.67
653.25	1816.55
653.44	1722.34
653.62	1843.17
653.81	1701.86
654.00	1710.05
654.19	1734.63
654.38	1863.65
654.56	1785.83
654.75	1697.77
654.94	1753.06
655.13	1837.03
655.32	1673.19
655.51	1751.01
655.69	1740.77
655.88	1757.16
656.07	1685.48
656.26	1763.30
656.45	1636.33
656.63	1638.38
656.82	1738.73
657.01	1796.07
657.20	1701.86
657.38	1787.88
657.57	1587.18
657.76	1613.80
657.95	1800.16
658.14	1619.94
658.32	1695.72
658.51	1693.67
658.70	1773.54
658.89	1697.77
659.08	1720.29
659.26	1775.59
659.45	1742.82
659.64	1755.11
659.83	1687.53
660.01	1927.14
660.20	1734.63
660.39	1808.36
660.58	1652.71
660.76	1697.77
660.95	1687.53
661.14	1757.16
661.33	1714.15
661.51	1714.15
661.70	1703.91
661.89	1755.11
662.08	1726.44
662.26	1634.28
662.45	1689.57
662.64	1804.26
662.83	1744.87
663.01	1712.10
663.20	1656.81
663.39	1771.49
663.58	1703.91
663.76	1710.05
663.95	1789.92
664.14	1683.43
664.32	1763.30
664.51	1626.09
664.70	1603.56
664.89	1724.39
665.07	1646.57
665.26	1759.21
665.45	1654.76
665.64	1685.48
665.82	1710.05
666.01	1761.25
666.20	1640.42
666.38	1800.16
666.57	1771.49
666.76	2183.13
666.95	4384.70
667.13	9756.52
667.32	14583.59
667.51	16944.89
667.69	18171.63
667.88	16822.02
668.07	11790.16
668.25	9226.10
668.44	7743.37
668.63	7067.54
668.81	6608.80
669.00	6070.18
669.19	5466.03
669.38	4992.95
669.56	4327.36
669.75	3831.75
669.94	3381.20
670.12	2920.40
670.31	2498.52
670.50	2195.42
670.68	2068.45
670.87	1914.85
671.06	1769.44
671.24	1767.40
671.43	1781.73
671.62	1753.06
671.80	1697.77
671.99	1755.11
672.18	1720.29
672.36	1724.39
672.55	1765.35
672.74	1781.73
672.92	1734.63
673.11	1691.62
673.29	1728.49
673.48	1738.73
673.67	1675.24
673.85	1802.21
674.04	1714.15
674.23	1720.29
674.41	1828.84
674.60	1619.94
674.79	1628.14
674.97	1714.15
675.16	1773.54
675.34	1748.97
675.53	1697.77
675.72	1685.48
675.90	1796.07
676.09	1665.00
676.28	1730.53
676.46	1689.57
676.65	1757.16
676.83	1673.19
677.02	1667.05
677.21	1699.81
677.39	1695.72
677.58	1691.62
677.77	1718.25
677.95	1708.01
678.14	1683.43
678.32	1748.97
678.51	1652.71
678.70	1818.60
678.88	1691.62
679.07	1656.81
679.25	1769.44
679.44	1730.53
679.63	1564.65
679.81	1730.53
680.00	1732.58
680.18	1720.29
680.37	1861.60
680.55	1677.29
680.74	1595.37
680.93	1591.27
681.11	1718.25
681.30	1697.77
681.48	1783.78
681.67	1716.20
681.85	1699.81
682.04	1667.05
682.23	1738.73
682.41	1708.01
682.60	1695.72
682.78	1720.29
682.97	1634.28
683.15	1619.94
683.34	1757.16
683.53	1789.92
683.71	1689.57
683.90	1779.68
684.08	1810.40
684.27	1722.34
684.45	1712.10
684.64	1812.45
684.82	1703.91
685.01	1691.62
685.19	1734.63
685.38	1757.16
685.57	1757.16
685.75	1683.43
685.94	1691.62
686.12	1617.90
686.31	1665.00
686.49	1806.31
686.68	1587.18
686.86	1728.49
687.05	1710.05
687.23	1753.06
687.42	1669.09
687.60	1675.24
687.79	1771.49
687.97	1763.30
688.16	1761.25
688.34	1708.01
688.53	1585.13
688.71	1806.31
688.90	1691.62
689.08	1722.34
689.27	1656.81
689.45	1746.92
689.64	1791.97
689.82	1757.16
690.01	1757.16
690.19	1689.57
690.38	1695.72
690.56	1806.31
690.75	1609.70
690.93	1669.09
691.12	1621.99
691.30	1662.95
691.49	1669.09
691.67	1767.40
691.86	1757.16
692.04	1712.10
692.23	1658.85
692.41	1619.94
692.60	1826.79
692.78	1730.53
692.97	1730.53
693.15	1710.05
693.34	1781.73
693.52	1728.49
693.71	1658.85
693.89	1730.53
694.08	1550.31
694.26	1730.53
694.44	1718.25
694.63	1665.00
694.81	1679.33
695.00	1611.75
695.18	1714.15
695.37	1935.33
695.55	1734.63
695.74	1652.71
695.92	1613.80
696.10	1736.68
696.29	1683.43
696.47	1746.92
696.66	1662.95
696.84	1691.62
697.03	1642.47
697.21	1861.60
697.40	2318.30
697.58	1771.49
697.76	1632.23
697.95	1665.00
698.13	1662.95
698.32	1646.57
698.50	1667.05
698.68	1753.06
698.87	1716.20
699.05	1841.12
699.24	1673.19
699.42	1591.27
699.61	1726.44
699.79	1789.92
699.97	1638.38
700.16	1714.15
700.34	1654.76
700.53	1734.63
700.71	1845.22
700.89	1765.35
701.08	1650.66
701.26	1746.92
701.45	2152.42
701.63	1642.47
701.81	1683.43
702.00	1677.29
702.18	1675.24
702.37	1703.91
702.55	1671.14
702.73	1742.82
702.92	1597.42
703.10	1732.58
703.28	1755.11
703.47	1634.28
703.65	1689.57
703.84	1816.55
704.02	1677.29
704.20	1785.83
704.39	1624.04
704.57	1753.06
704.75	1761.25
704.94	1744.87
705.12	1730.53
705.30	1755.11
705.49	2144.22
705.67	4296.64
705.86	8910.71
706.04	11980.62
706.22	13881.13
706.41	14628.64
706.59	13141.82
706.77	9039.73
706.96	7014.29
707.14	6387.61
707.32	5679.02
707.51	5398.45
707.69	4691.90
707.87	4026.31
708.06	3434.44
708.24	2787.29
708.42	2422.75
708.61	2263.01
708.79	1869.80
708.97	1789.92
709.16	1839.08
709.34	1837.03
709.52	1724.39
709.71	1742.82
709.89	1810.40
710.07	1628.14
710.26	1640.42
710.44	1718.25
710.62	1753.06
710.80	1726.44
710.99	1812.45
711.17	1751.01
711.35	1634.28
711.54	1689.57
711.72	1751.01
711.90	1720.29
712.09	1726.44
712.27	1683.43
712.45	1773.54
712.63	1640.42
712.82	1701.86
713.00	1660.90
713.18	1746.92
713.37	1708.01
713.55	1796.07
713.73	1767.40
713.91	1687.53
714.10	1716.20
714.28	1734.63
714.46	1705.96
714.65	1644.52
714.83	1691.62
715.01	1714.15
715.19	1720.29
715.38	1619.94
715.56	1636.33
715.74	1648.61
715.92	1675.24
716.11	1683.43
716.29	1609.70
716.47	1648.61
716.65	1681.38
716.84	1581.03
717.02	1734.63
717.20	1624.04
717.38	1615.85
717.57	1757.16
717.75	1660.90
717.93	1626.09
718.11	1703.91
718.30	1615.85
718.48	1812.45
718.66	1755.11
718.84	1781.73
719.03	1802.21
719.21	1705.96
719.39	1783.78
719.57	1757.16
719.75	1722.34
719.94	1687.53
720.12	1677.29
720.30	1710.05
720.48	1751.01
720.67	1691.62
720.85	1595.37
721.03	1703.91
721.21	1665.00
721.39	1775.59
721.58	1755.11
721.76	1683.43
721.94	1732.58
722.12	1703.91
722.30	1787.88
722.49	1671.14
722.67	1802.21
722.85	1783.78
723.03	1701.86
723.21	1679.33
723.40	1732.58
723.58	1771.49
723.76	1693.67
723.94	1824.74
724.12	1681.38
724.30	1794.02
724.49	1716.20
724.67	1687.53
724.85	1882.08
725.03	1617.90
725.21	1740.77
725.40	1804.26
725.58	1724.39
725.76	1798.12
725.94	1724.39
726.12	1640.42
726.30	1703.91
726.49	1634.28
726.67	1669.09
726.85	1705.96
727.03	1746.92
727.21	2176.99
727.39	2842.58
727.57	3553.23
727.76	4054.98
727.94	4417.47
728.12	4227.01
728.30	3577.80
728.48	2983.89
728.66	2688.98
728.84	2537.43
729.03	2303.96
729.21	2101.22
729.39	1970.15
729.57	1857.51
729.75	1755.11
729.93	1839.08
730.11	1642.47
730.30	1720.29
730.48	1759.21
730.66	1755.11
730.84	1705.96
731.02	1736.68
731.20	1714.15
731.38	1630.18
731.56	1626.09
731.74	1595.37
731.93	1681.38
732.11	1658.85
732.29	1677.29
732.47	1734.63
732.65	1746.92
732.83	1796.07
733.01	1705.96
733.19	1734.63
733.37	1644.52
733.56	1722.34
733.74	1691.62
733.92	1771.49
734.10	1658.85
734.28	1673.19
734.46	1609.70
734.64	1656.81
734.82	1667.05
735.00	1763.30
735.18	1732.58
735.36	1716.20
735.54	1675.24
735.73	1724.39
735.91	1767.40
736.09	1705.96
736.27	1701.86
736.45	1722.34
736.63	1634.28
736.81	1650.66
736.99	1726.44
737.17	1763.30
737.35	1689.57
737.53	1734.63
737.71	1703.91
737.89	1724.39
738.07	1652.71
738.25	1650.66
738.43	1675.24
738.61	1634.28
738.80	1632.23
738.98	1671.14
739.16	1728.49
739.34	1634.28
739.52	1820.64
739.70	1714.15
739.88	1769.44
740.06	1755.11
740.24	1570.79
740.42	1783.78
740.60	1636.33
740.78	1621.99
740.96	1585.13
741.14	1658.85
741.32	1695.72
741.50	1611.75
741.68	1882.08
741.86	1726.44
742.04	1634.28
742.22	1675.24
742.40	1658.85
742.58	1728.49
742.76	1660.90
742.94	1650.66
743.12	1714.15
743.30	1708.01
743.48	1691.62
743.66	1701.86
743.84	1722.34
744.02	1726.44
744.20	1708.01
744.38	1677.29
744.56	1685.48
744.74	1828.84
744.92	1759.21
745.10	1796.07
745.28	1746.92
745.46	1757.16
745.64	1681.38
745.82	1814.50
746.00	1665.00
746.18	1783.78
746.36	1652.71
746.54	1658.85
746.72	1634.28
746.90	1587.18
747.08	1804.26
747.26	1640.42
747.44	1763.30
747.62	1712.10
747.80	1734.63
747.98	1738.73
748.15	1705.96
748.33	1800.16
748.51	1746.92
748.69	1759.21
748.87	1669.09
749.05	1712.10
749.23	1689.57
749.41	1742.82
749.59	1689.57
749.77	1769.44
749.95	1654.76
750.13	1650.66
750.31	1669.09
750.49	1648.61
750.67	1785.83
750.85	1826.79
751.03	1724.39
751.20	1880.04
751.38	1736.68
751.56	1716.20
751.74	1683.43
751.92	1603.56
752.10	1576.94
752.28	1767.40
752.46	1632.23
752.64	1665.00
752.82	1705.96
753.00	1783.78
753.18	1740.77
753.35	1669.09
753.53	1681.38
753.71	1675.24
753.89	1794.02
754.07	1701.86
754.25	1851.36
754.43	1632.23
754.61	1632.23
754.79	1744.87
754.97	1646.57
755.14	1808.36
755.32	1642.47
755.50	1660.90
755.68	1740.77
755.86	1740.77
756.04	1636.33
756.22	1630.18
756.40	1697.77
756.57	1857.51
756.75	1726.44
756.93	1789.92
757.11	1744.87
757.29	1628.14
757.47	1576.94
757.65	1650.66
757.82	1566.70
758.00	1646.57
758.18	1648.61
758.36	1652.71
758.54	1828.84
758.72	1550.31
758.90	1687.53
759.07	1734.63
759.25	1691.62
759.43	1746.92
759.61	1558.50
759.79	2170.85
759.97	1673.19
760.15	1699.81
760.32	1689.57
760.50	1722.34
760.68	1720.29
760.86	1568.74
761.04	1773.54
761.22	1720.29
761.39	1656.81
761.57	1744.87
761.75	1667.05
761.93	1699.81
762.11	1638.38
762.28	1689.57
762.46	1703.91
762.64	1746.92
762.82	1652.71
763.00	1660.90
763.18	1740.77
763.35	1644.52
763.53	1802.21
763.71	1683.43
763.89	1634.28
764.07	1695.72
764.24	1665.00
764.42	1693.67
764.60	1675.24
764.78	1728.49
764.96	1748.97
765.13	1697.77
765.31	1708.01
765.49	1703.91
765.67	1642.47
765.84	1683.43
766.02	1730.53
766.20	1593.32
766.38	1759.21
766.56	1705.96
766.73	1689.57
766.91	1769.44
767.09	1636.33
767.27	1722.34
767.44	1687.53
767.62	1775.59
767.80	1693.67
767.98	1746.92
768.15	1693.67
768.33	1769.44
768.51	1755.11
768.69	1734.63
768.87	1640.42
769.04	1683.43
769.22	1837.03
769.40	1767.40
769.58	1783.78
769.75	1740.77
769.93	1763.30
770.11	1716.20
770.28	1665.00
770.46	1734.63
770.64	1671.14
770.82	1646.57
770.99	1669.09
771.17	1761.25
771.35	1671.14
771.53	1720.29
771.70	1669.09
771.88	1646.57
772.06	1679.33
772.23	1716.20
772.41	1671.14
772.59	1632.23
772.77	1650.66
772.94	1662.95
773.12	1767.40
773.30	1679.33
773.47	1714.15
773.65	1681.38
773.83	1828.84
774.01	1677.29
774.18	1624.04
774.36	1679.33
774.54	1601.51
774.71	1814.50
774.89	1685.48
775.07	1738.73
775.24	1662.95
775.42	1740.77
775.60	1816.55
775.78	1677.29
775.95	1650.66
776.13	1605.61
776.31	1619.94
776.48	1734.63
776.66	1683.43
776.84	1695.72
777.01	1624.04
777.19	1673.19
777.37	1710.05
777.54	1755.11
777.72	1759.21
777.90	1662.95
778.07	1769.44
778.25	1886.18
778.43	1730.53
778.60	1681.38
778.78	1685.48
778.96	1787.88
779.13	1650.66
779.31	1744.87
779.49	1714.15
779.66	1763.30
779.84	1675.24
780.01	1644.52
780.19	1687.53
780.37	1748.97
780.54	1691.62
780.72	1603.56
780.90	1669.09
781.07	1767.40
781.25	1615.85
781.43	1710.05
781.60	1757.16
781.78	1705.96
781.95	1714.15
782.13	1712.10
782.31	1791.97
782.48	1714.15
782.66	1689.57
782.83	1882.08
783.01	1701.86
783.19	1753.06
783.36	1742.82
783.54	1628.14
783.72	1748.97
783.89	1769.44
784.07	1652.71
784.24	1710.05
784.42	1771.49
784.60	1689.57
784.77	1656.81
784.95	1583.08
785.12	1638.38
785.30	1759.21
785.47	1662.95
785.65	1646.57
785.83	1744.87
786.00	1640.42
786.18	1681.38
786.35	1646.57
786.53	1681.38
786.71	1781.73
786.88	1697.77
787.06	1648.61
787.23	1748.97
787.41	1615.85
787.58	1748.97
787.76	1572.84
787.94	1650.66
788.11	1771.49
788.29	1607.66
788.46	1697.77
788.64	1591.27
788.81	1646.57
788.99	1595.37
789.16	1607.66
789.34	1683.43
789.52	1607.66
789.69	1669.09
789.87	1615.85
790.04	1716.20
790.22	1761.25
790.39	1742.82
790.57	1632.23
790.74	1656.81
790.92	1794.02
791.09	1574.89
791.27	1705.96
791.44	1763.30
791.62	1697.77
791.79	1757.16
791.97	1714.15
792.15	1853.41
792.32	1738.73
792.50	1810.40
792.67	1738.73
792.85	1736.68
793.02	1722.34
793.20	1689.57
793.37	1685.48
793.55	1673.19
793.72	1683.43
793.90	1691.62
794.07	1708.01
794.25	1710.05
794.42	1640.42
794.60	1691.62
794.77	1607.66
794.95	1781.73
795.12	1740.77
795.30	1693.67
795.47	1646.57
795.65	1918.95
795.82	1738.73
796.00	1660.90
796.17	1685.48
796.34	1646.57
796.52	1708.01
796.69	1732.58
796.87	1708.01
797.04	1718.25
797.22	1679.33
797.39	1748.97
797.57	1607.66
797.74	1701.86
797.92	1712.10
798.09	1677.29
798.27	1697.77
798.44	1798.12
798.62	1673.19
798.79	1722.34
798.96	1683.43
799.14	1615.85
799.31	1783.78
799.49	1712.10
799.66	1691.62
799.84	1748.97
800.01	1626.09
800.19	1734.63
800.36	1591.27
800.53	1708.01
800.71	1683.43
800.88	1726.44
801.06	1615.85
801.23	1685.48
801.41	1759.21
801.58	1667.05
801.75	1624.04
801.93	1689.57
802.10	1775.59
802.28	1746.92
802.45	1687.53
802.63	1714.15
802.80	1771.49
802.97	1740.77
803.15	1619.94
803.32	1689.57
803.50	1722.34
803.67	1683.43
803.84	1624.04
804.02	1724.39
804.19	1748.97
804.37	1583.08
804.54	1632.23
804.71	1689.57
804.89	1701.86
805.06	1566.70
805.24	1671.14
805.41	1728.49
805.58	1650.66
805.76	1779.68
805.93	1628.14
806.10	1800.16
806.28	1753.06
806.45	1767.40
806.63	1765.35
806.80	1736.68
806.97	1728.49
807.15	1853.41
807.32	1650.66
807.49	1712.10
807.67	1619.94
807.84	1783.78
808.01	1658.85
808.19	1796.07
808.36	1851.36
808.54	1683.43
808.71	1689.57
808.88	1689.57
809.06	1714.15
809.23	1775.59
809.40	1632.23
809.58	1746.92
809.75	1681.38
809.92	1712.10
810.10	1796.07
810.27	1681.38
810.44	1755.11
810.62	1771.49
810.79	1714.15
810.96	1683.43
811.14	1697.77
811.31	1617.90
811.48	1681.38
811.66	1708.01
811.83	1728.49
812.00	1736.68
812.18	1730.53
812.35	1847.27
812.52	1650.66
812.69	1640.42
812.87	1691.62
813.04	1677.29
813.21	1681.38
813.39	1619.94
813.56	1611.75
813.73	1693.67
813.91	1619.94
814.08	1667.05
814.25	1718.25
814.42	1658.85
814.60	1613.80
814.77	1697.77
814.94	1626.09
815.12	1681.38
815.29	1908.71
815.46	1689.57
815.63	1708.01
815.81	1769.44
815.98	1691.62
816.15	1716.20
816.33	1687.53
816.50	1656.81
816.67	1767.40
816.84	1751.01
817.02	1619.94
817.19	1675.24
817.36	1599.46
817.53	1730.53
817.71	1656.81
817.88	1738.73
818.05	1718.25
818.22	1630.18
818.40	1742.82
818.57	1652.71
818.74	1726.44
818.91	1738.73
819.09	1845.22
819.26	1822.69
819.43	1652.71
819.60	1671.14
819.78	1697.77
819.95	1806.31
820.12	1650.66
820.29	1755.11
820.47	1726.44
820.64	1673.19
820.81	1632.23
820.98	1691.62
821.15	1755.11
821.33	1742.82
821.50	1662.95
821.67	1740.77
821.84	1673.19
822.02	1648.61
822.19	1738.73
822.36	1615.85
822.53	1660.90
822.70	1667.05
822.88	1708.01
823.05	1765.35
823.22	1689.57
823.39	1689.57
823.56	1714.15
823.74	1810.40
823.91	1675.24
824.08	1644.52
824.25	1601.51
824.42	1824.74
824.60	1628.14
824.77	1716.20
824.94	1695.72
825.11	1697.77
825.28	1628.14
825.45	1714.15
825.63	1800.16
825.80	1644.52
825.97	1708.01
826.14	1734.63
826.31	1636.33
826.48	1732.58
826.66	1636.33
826.83	1558.50
827.00	1738.73
827.17	1671.14
827.34	1658.85
827.51	1665.00
827.69	1685.48
827.86	1734.63
828.03	1773.54
828.20	1685.48
828.37	1652.71
828.54	1685.48
828.71	1734.63
828.89	1828.84
829.06	1759.21
829.23	1746.92
829.40	1671.14
829.57	1665.00
829.74	1722.34
829.91	1705.96
830.09	1681.38
830.26	1730.53
830.43	1755.11
830.60	1665.00
830.77	1718.25
830.94	1673.19
831.11	1740.77
831.28	1755.11
831.46	1777.64
831.63	1665.00
831.80	1724.39
831.97	1662.95
832.14	1613.80
832.31	1671.14
832.48	1710.05
832.65	1740.77
832.82	1771.49
832.99	1791.97
833.17	1660.90
833.34	1763.30
833.51	1767.40
833.68	1595.37
833.85	1697.77
834.02	1634.28
834.19	1617.90
834.36	1646.57
834.53	1646.57
834.70	1753.06
834.87	1693.67
835.04	1748.97
835.22	1654.76
835.39	1691.62
835.56	1673.19
835.73	1609.70
835.90	1714.15
836.07	1634.28
836.24	1738.73
836.41	1652.71
836.58	1667.05
836.75	1812.45
836.92	1730.53
837.09	1667.05
837.26	1757.16
837.43	1638.38
837.60	1699.81
837.77	1613.80
837.94	1722.34
838.12	1748.97
838.29	1728.49
838.46	1675.24
838.63	1681.38
838.80	1832.93
838.97	1701.86
839.14	1746.92
839.31	1697.77
839.48	1681.38
839.65	1701.86
839.82	1669.09
839.99	1716.20
840.16	1714.15
840.33	1646.57
840.50	1708.01
840.67	1609.70
840.84	1619.94
841.01	1796.07
841.18	1681.38
841.35	1611.75
841.52	1679.33
841.69	1837.03
841.86	1675.24
842.03	1769.44
842.20	1656.81
842.37	1630.18
842.54	1652.71
842.71	1724.39
842.88	1722.34
843.05	1804.26
843.22	1675.24
843.39	1757.16
843.56	1679.33
843.73	1710.05
843.90	1791.97
844.07	1630.18
844.24	1779.68
844.41	1761.25
844.58	1697.77
844.75	1697.77
844.92	1755.11
845.09	1697.77
845.26	1624.04
845.43	1656.81
845.60	1654.76
845.77	1714.15
845.94	1628.14
846.10	1791.97
846.27	1658.85
846.44	1669.09
846.61	1656.81
846.78	1785.83
846.95	1714.15
847.12	1681.38
847.29	1695.72
847.46	1701.86
847.63	1767.40
847.80	1650.66
847.97	1599.46
848.14	1777.64
848.31	1660.90
848.48	1601.51
848.65	1619.94
848.82	1660.90
848.98	1902.56
849.15	1740.77
849.32	1695.72
849.49	1662.95
849.66	1685.48
849.83	1710.05
850.00	1636.33
850.17	1685.48
850.34	1746.92
850.51	1724.39
850.68	1626.09
850.85	1824.74
851.01	1738.73
851.18	1695.72
851.35	1695.72
851.52	1730.53
851.69	1751.01
851.86	1656.81
852.03	1724.39
852.20	1716.20
852.37	1626.09
852.53	1597.42
852.70	1689.57
852.87	1695.72
853.04	1701.86
853.21	1658.85
853.38	1716.20
853.55	1730.53
853.72	1783.78
853.89	1542.12
854.05	1591.27
854.22	1710.05
854.39	1701.86
854.56	1746.92
854.73	1763.30
854.90	1691.62
855.07	1722.34
855.23	1693.67
855.40	1722.34
855.57	1697.77
855.74	1660.90
855.91	1865.70
856.08	1658.85
856.25	1644.52
856.41	1642.47
856.58	1726.44
856.75	1755.11
856.92	1650.66
857.09	1699.81
857.26	1632.23
857.42	1710.05
857.59	1695.72
857.76	1701.86
857.93	1712.10
858.10	1660.90
858.27	1652.71
858.43	1679.33
858.60	1617.90
858.77	1613.80
858.94	1660.90
859.11	1677.29
859.27	1685.48
859.44	1642.47
859.61	1800.16
859.78	1736.68
859.95	1662.95
860.12	1626.09
860.28	1767.40
860.45	1820.64
860.62	1677.29
860.79	1738.73
860.95	1626.09
861.12	1744.87
861.29	1683.43
861.46	1652.71
861.63	1624.04
861.79	1714.15
861.96	1597.42
862.13	1730.53
862.30	1691.62
862.47	1617.90
862.63	1648.61
862.80	1779.68
862.97	1710.05
863.14	1708.01
863.30	1703.91
863.47	1695.72
863.64	1845.22
863.81	1779.68
863.97	1732.58
864.14	1697.77
864.31	1638.38
864.48	1724.39
864.65	1634.28
864.81	1691.62
864.98	1718.25
865.15	1730.53
865.32	1708.01
865.48	1744.87
865.65	1771.49
865.82	1621.99
865.98	1712.10
866.15	1773.54
866.32	1742.82
866.49	1714.15
866.65	1769.44
866.82	1624.04
866.99	1734.63
867.16	1660.90
867.32	1660.90
867.49	1660.90
867.66	1658.85
867.83	1644.52
867.99	1667.05
868.16	1677.29
868.33	1683.43
868.49	1689.57
868.66	1634.28
868.83	1710.05
868.99	1759.21
869.16	1636.33
869.33	1691.62
869.50	1732.58
869.66	1695.72
869.83	1699.81
870.00	1632.23
870.16	1740.77
870.33	1650.66
870.50	1705.96
870.66	1734.63
870.83	1882.08
871.00	1613.80
871.17	1632.23
871.33	1726.44
871.50	1677.29
871.67	1714.15
871.83	1654.76
872.00	1810.40
872.17	1621.99
872.33	1859.56
872.50	1818.60
872.67	1611.75
872.83	1552.36
873.00	1689.57
873.17	1705.96
873.33	1802.21
873.50	1689.57
873.67	1685.48
873.83	1632.23
874.00	1720.29
874.16	1798.12
874.33	1712.10
874.50	1576.94
874.66	1808.36
874.83	1726.44
875.00	1677.29
875.16	1779.68
875.33	1757.16
875.50	1519.59
875.66	1675.24
875.83	1650.66
875.99	1753.06
876.16	1691.62
876.33	1562.60
876.49	1730.53
876.66	1708.01
876.83	1699.81
876.99	1619.94
877.16	1695.72
877.32	1701.86
877.49	1716.20
877.66	1648.61
877.82	1761.25
877.99	1726.44
878.15	1724.39
878.32	1736.68
878.49	1796.07
878.65	1703.91
878.82	1798.12
878.98	1671.14
879.15	1751.01
879.32	1757.16
879.48	1650.66
879.65	1710.05
879.81	1697.77
879.98	1669.09
880.15	1619.94
880.31	1763.30
880.48	1636.33
880.64	1755.11
880.81	1755.11
880.97	1681.38
881.14	1787.88
881.31	1640.42
881.47	1857.51
881.64	1638.38
881.80	1535.98
881.97	1724.39
882.13	1808.36
882.30	1556.46
882.47	1665.00
882.63	1665.00
882.80	1681.38
882.96	1656.81
883.13	1767.40
883.29	1740.77
883.46	1703.91
883.62	1802.21
883.79	1669.09
883.95	1740.77
884.12	1667.05
884.29	1656.81
884.45	1712.10
884.62	1693.67
884.78	1673.19
884.95	1740.77
885.11	1667.05
885.28	1742.82
885.44	1693.67
885.61	1732.58
885.77	1794.02
885.94	1791.97
886.10	1665.00
886.27	1703.91
886.43	1785.83
886.60	1718.25
886.76	1685.48
886.93	1648.61
887.09	1703.91
887.26	1644.52
887.42	1697.77
887.59	1785.83
887.75	1814.50
887.92	1738.73
888.08	1675.24
888.25	1796.07
888.41	1724.39
888.58	1628.14
888.74	1615.85
888.91	1654.76
>>>>>End Processed Spectral Data<<<<<
