SpectraSuite Data File
++++++++++++++++++++++++++++++++++++
Date: Mon Jun 06 12:47:37 CEST 2016
User: root
Dark Spectrum Present: No
Reference Spectrum Present: No
Number of Sampled Component Spectra: 1
Spectrometers: USB4C02835
Integration Time (usec): 100000 (USB4C02835)
Spectra Averaged: 1 (USB4C02835)
Boxcar Smoothing: 0 (USB4C02835)
Correct for Electrical Dark: No (USB4C02835)
Strobe/Lamp Enabled: No (USB4C02835)
Correct for Detector Non-linearity: No (USB4C02835)
Correct for Stray Light: No (USB4C02835)
Number of Pixels in Processed Spectrum: 3648
>>>>>Begin Processed Spectral Data<<<<<
177.47	1480.68
177.69	1480.68
177.91	1480.68
178.13	1472.49
178.36	1419.24
178.58	1646.57
178.80	1710.05
179.02	1648.61
179.24	1669.09
179.46	1683.43
179.68	1753.06
179.90	1665.00
180.13	1796.07
180.35	1683.43
180.57	1685.48
180.79	1681.38
181.01	1710.05
181.23	1675.24
181.45	1736.68
181.67	1714.15
181.90	1699.81
182.12	1619.94
182.34	1658.85
182.56	1746.92
182.78	1660.90
183.00	1726.44
183.22	1763.30
183.44	1626.09
183.66	1828.84
183.89	1794.02
184.11	1728.49
184.33	1783.78
184.55	1748.97
184.77	1718.25
184.99	1669.09
185.21	1581.03
185.43	1816.55
185.65	1654.76
185.87	1738.73
186.10	1832.93
186.32	1773.54
186.54	1648.61
186.76	1796.07
186.98	1818.60
187.20	1628.14
187.42	1710.05
187.64	1685.48
187.86	1712.10
188.08	1687.53
188.30	1724.39
188.52	1683.43
188.75	1804.26
188.97	1763.30
189.19	1769.44
189.41	1708.01
189.63	1742.82
189.85	1738.73
190.07	1697.77
190.29	1701.86
190.51	1791.97
190.73	1650.66
190.95	1777.64
191.17	1636.33
191.39	1603.56
191.61	1656.81
191.84	1732.58
192.06	1658.85
192.28	1665.00
192.50	1855.46
192.72	1779.68
192.94	1748.97
193.16	1800.16
193.38	1748.97
193.60	1597.42
193.82	1691.62
194.04	1769.44
194.26	1650.66
194.48	1646.57
194.70	1708.01
194.92	1624.04
195.14	1769.44
195.36	1732.58
195.58	1689.57
195.80	1708.01
196.02	1712.10
196.24	1640.42
196.46	1718.25
196.69	1673.19
196.91	1789.92
197.13	1791.97
197.35	1621.99
197.57	1812.45
197.79	1705.96
198.01	1710.05
198.23	1691.62
198.45	1783.78
198.67	1585.13
198.89	1699.81
199.11	1638.38
199.33	1685.48
199.55	1603.56
199.77	1726.44
199.99	1718.25
200.21	1650.66
200.43	1660.90
200.65	1667.05
200.87	1656.81
201.09	1738.73
201.31	1630.18
201.53	1611.75
201.75	1740.77
201.97	1710.05
202.19	1763.30
202.41	1773.54
202.63	1837.03
202.85	1742.82
203.07	1724.39
203.29	1681.38
203.51	1689.57
203.73	1712.10
203.95	1816.55
204.17	1675.24
204.39	1677.29
204.61	1658.85
204.83	1671.14
205.05	1710.05
205.27	1773.54
205.49	1806.31
205.71	1732.58
205.93	1703.91
206.15	1615.85
206.37	1691.62
206.59	1640.42
206.81	1697.77
207.03	1652.71
207.25	1656.81
207.47	1824.74
207.69	1714.15
207.91	1697.77
208.13	1789.92
208.34	1615.85
208.56	1646.57
208.78	1724.39
209.00	1660.90
209.22	1708.01
209.44	1705.96
209.66	1665.00
209.88	1679.33
210.10	1689.57
210.32	1695.72
210.54	1808.36
210.76	1677.29
210.98	1685.48
211.20	1644.52
211.42	1621.99
211.64	1759.21
211.86	1755.11
212.08	1697.77
212.30	1685.48
212.52	1667.05
212.74	1742.82
212.96	1695.72
213.17	1699.81
213.39	1763.30
213.61	1822.69
213.83	1660.90
214.05	1681.38
214.27	1828.84
214.49	1705.96
214.71	1671.14
214.93	1804.26
215.15	1665.00
215.37	1687.53
215.59	1615.85
215.81	1771.49
216.03	1781.73
216.24	1746.92
216.46	1669.09
216.68	1679.33
216.90	1763.30
217.12	1769.44
217.34	1632.23
217.56	1783.78
217.78	1802.21
218.00	1656.81
218.22	1703.91
218.44	1732.58
218.66	1681.38
218.87	1710.05
219.09	1630.18
219.31	1687.53
219.53	1640.42
219.75	1705.96
219.97	1714.15
220.19	1724.39
220.41	1660.90
220.63	1765.35
220.85	1804.26
221.06	1662.95
221.28	1826.79
221.50	1693.67
221.72	1710.05
221.94	1714.15
222.16	1742.82
222.38	1728.49
222.60	1738.73
222.82	1656.81
223.03	1791.97
223.25	1730.53
223.47	1746.92
223.69	1796.07
223.91	1759.21
224.13	1669.09
224.35	1638.38
224.57	1748.97
224.78	1728.49
225.00	1769.44
225.22	1681.38
225.44	1658.85
225.66	1818.60
225.88	1658.85
226.10	1710.05
226.32	1634.28
226.53	1808.36
226.75	1730.53
226.97	1734.63
227.19	1708.01
227.41	1697.77
227.63	1583.08
227.85	1632.23
228.06	1718.25
228.28	1726.44
228.50	1701.86
228.72	1658.85
228.94	1742.82
229.16	1660.90
229.37	1630.18
229.59	1662.95
229.81	1722.34
230.03	1611.75
230.25	1617.90
230.47	1644.52
230.69	1705.96
230.90	1781.73
231.12	1624.04
231.34	1703.91
231.56	1789.92
231.78	1667.05
232.00	1738.73
232.21	1699.81
232.43	1644.52
232.65	1576.94
232.87	1689.57
233.09	1683.43
233.30	1722.34
233.52	1837.03
233.74	1689.57
233.96	1611.75
234.18	1634.28
234.40	1695.72
234.61	1824.74
234.83	1576.94
235.05	1679.33
235.27	1820.64
235.49	1804.26
235.70	1658.85
235.92	1732.58
236.14	1665.00
236.36	1796.07
236.58	1640.42
236.79	1722.34
237.01	1654.76
237.23	1628.14
237.45	1845.22
237.67	1697.77
237.88	1654.76
238.10	1847.27
238.32	1603.56
238.54	1630.18
238.76	1634.28
238.97	1658.85
239.19	1699.81
239.41	1724.39
239.63	1744.87
239.85	1732.58
240.06	1640.42
240.28	1689.57
240.50	1742.82
240.72	1695.72
240.93	1691.62
241.15	1763.30
241.37	1718.25
241.59	1808.36
241.81	1697.77
242.02	1658.85
242.24	1691.62
242.46	1718.25
242.68	1658.85
242.89	1718.25
243.11	1693.67
243.33	1705.96
243.55	1658.85
243.76	1738.73
243.98	1593.32
244.20	1712.10
244.42	1746.92
244.64	1697.77
244.85	1578.98
245.07	1681.38
245.29	1679.33
245.51	1681.38
245.72	1687.53
245.94	1724.39
246.16	1708.01
246.38	1699.81
246.59	1683.43
246.81	1617.90
247.03	1595.37
247.24	1599.46
247.46	1632.23
247.68	1703.91
247.90	1593.32
248.11	1677.29
248.33	1675.24
248.55	1685.48
248.77	1701.86
248.98	1748.97
249.20	1748.97
249.42	1667.05
249.64	1669.09
249.85	1697.77
250.07	1673.19
250.29	1763.30
250.50	1746.92
250.72	1642.47
250.94	1654.76
251.16	1794.02
251.37	1689.57
251.59	1738.73
251.81	1761.25
252.02	1816.55
252.24	1677.29
252.46	1751.01
252.68	1675.24
252.89	1621.99
253.11	1652.71
253.33	1812.45
253.54	1746.92
253.76	1583.08
253.98	1708.01
254.20	1640.42
254.41	1632.23
254.63	1689.57
254.85	1632.23
255.06	1699.81
255.28	1665.00
255.50	1722.34
255.71	1673.19
255.93	1634.28
256.15	1710.05
256.36	1710.05
256.58	1638.38
256.80	1683.43
257.02	1679.33
257.23	1736.68
257.45	1677.29
257.67	1691.62
257.88	1660.90
258.10	1679.33
258.32	1720.29
258.53	1677.29
258.75	1796.07
258.97	1679.33
259.18	1628.14
259.40	1681.38
259.62	1703.91
259.83	1816.55
260.05	1787.88
260.27	1994.72
260.48	1710.05
260.70	1624.04
260.92	1708.01
261.13	1738.73
261.35	1742.82
261.57	1763.30
261.78	1546.22
262.00	1630.18
262.22	1697.77
262.43	1701.86
262.65	1693.67
262.86	1685.48
263.08	1812.45
263.30	1685.48
263.51	1658.85
263.73	1683.43
263.95	1773.54
264.16	1669.09
264.38	1634.28
264.60	1724.39
264.81	1654.76
265.03	1693.67
265.25	1759.21
265.46	1714.15
265.68	1710.05
265.89	1728.49
266.11	1574.89
266.33	1730.53
266.54	1761.25
266.76	1722.34
266.98	1767.40
267.19	1697.77
267.41	1652.71
267.62	1726.44
267.84	1634.28
268.06	1765.35
268.27	1669.09
268.49	1777.64
268.70	1781.73
268.92	1611.75
269.14	1699.81
269.35	1605.61
269.57	1619.94
269.79	1742.82
270.00	1695.72
270.22	1781.73
270.43	1644.52
270.65	1632.23
270.87	1654.76
271.08	1740.77
271.30	1779.68
271.51	1705.96
271.73	1691.62
271.95	1765.35
272.16	1669.09
272.38	1693.67
272.59	1697.77
272.81	1730.53
273.02	1701.86
273.24	1691.62
273.46	1775.59
273.67	1660.90
273.89	1652.71
274.10	1667.05
274.32	1746.92
274.54	1744.87
274.75	1753.06
274.97	1708.01
275.18	1787.88
275.40	1720.29
275.61	1734.63
275.83	1681.38
276.05	1648.61
276.26	1712.10
276.48	1726.44
276.69	1656.81
276.91	1679.33
277.12	1697.77
277.34	1777.64
277.55	1742.82
277.77	1712.10
277.99	1689.57
278.20	1621.99
278.42	1591.27
278.63	1673.19
278.85	1689.57
279.06	1601.51
279.28	1716.20
279.49	1781.73
279.71	1744.87
279.93	1673.19
280.14	1697.77
280.36	1681.38
280.57	1759.21
280.79	1742.82
281.00	1669.09
281.22	1716.20
281.43	1759.21
281.65	1501.16
281.86	1665.00
282.08	1705.96
282.29	1822.69
282.51	1632.23
282.73	1642.47
282.94	1611.75
283.16	1820.64
283.37	1789.92
283.59	1652.71
283.80	1763.30
284.02	1691.62
284.23	1726.44
284.45	1705.96
284.66	1611.75
284.88	1624.04
285.09	1722.34
285.31	1759.21
285.52	1755.11
285.74	1679.33
285.95	1667.05
286.17	1699.81
286.38	1742.82
286.60	1665.00
286.81	1656.81
287.03	1665.00
287.24	1673.19
287.46	1759.21
287.67	1738.73
287.89	1855.46
288.10	1695.72
288.32	1703.91
288.53	1753.06
288.75	1656.81
288.96	1767.40
289.18	1683.43
289.39	1730.53
289.61	1755.11
289.82	1816.55
290.04	1796.07
290.25	1628.14
290.47	1681.38
290.68	1724.39
290.90	1738.73
291.11	1677.29
291.33	1783.78
291.54	1626.09
291.76	1689.57
291.97	1779.68
292.18	1687.53
292.40	1632.23
292.61	1632.23
292.83	1845.22
293.04	1781.73
293.26	1726.44
293.47	1632.23
293.69	1615.85
293.90	1632.23
294.12	1775.59
294.33	1744.87
294.55	1712.10
294.76	1722.34
294.97	1734.63
295.19	1853.41
295.40	1654.76
295.62	1755.11
295.83	1779.68
296.05	1613.80
296.26	1699.81
296.48	1746.92
296.69	1689.57
296.90	1730.53
297.12	1722.34
297.33	1740.77
297.55	1671.14
297.76	1746.92
297.98	1748.97
298.19	1714.15
298.41	1732.58
298.62	1673.19
298.83	1785.83
299.05	1656.81
299.26	1699.81
299.48	1685.48
299.69	1798.12
299.90	1685.48
300.12	1660.90
300.33	1691.62
300.55	1730.53
300.76	1773.54
300.98	1695.72
301.19	1730.53
301.40	1693.67
301.62	1685.48
301.83	1757.16
302.05	1771.49
302.26	1650.66
302.47	1757.16
302.69	1574.89
302.90	1642.47
303.12	1538.02
303.33	1738.73
303.54	1882.08
303.76	1662.95
303.97	1796.07
304.19	1716.20
304.40	1679.33
304.61	1689.57
304.83	1791.97
305.04	1785.83
305.26	1753.06
305.47	1660.90
305.68	1669.09
305.90	1597.42
306.11	1644.52
306.33	1710.05
306.54	1714.15
306.75	1648.61
306.97	1703.91
307.18	1689.57
307.39	1665.00
307.61	1728.49
307.82	1716.20
308.04	1722.34
308.25	1642.47
308.46	1802.21
308.68	1746.92
308.89	1636.33
309.10	1771.49
309.32	1763.30
309.53	1640.42
309.74	1679.33
309.96	1724.39
310.17	1789.92
310.39	1644.52
310.60	1785.83
310.81	1710.05
311.03	1607.66
311.24	1730.53
311.45	1757.16
311.67	1728.49
311.88	1601.51
312.09	1716.20
312.31	1644.52
312.52	1736.68
312.73	1718.25
312.95	1683.43
313.16	1570.79
313.37	1769.44
313.59	1677.29
313.80	1722.34
314.01	1783.78
314.23	1646.57
314.44	1718.25
314.65	1556.46
314.87	1679.33
315.08	1730.53
315.29	1634.28
315.51	1675.24
315.72	1587.18
315.93	1816.55
316.15	1701.86
316.36	1662.95
316.57	1730.53
316.79	1757.16
317.00	1679.33
317.21	1701.86
317.43	1607.66
317.64	1669.09
317.85	1599.46
318.07	1615.85
318.28	1773.54
318.49	1789.92
318.70	1935.33
318.92	1837.03
319.13	1804.26
319.34	1894.37
319.56	1703.91
319.77	1816.55
319.98	1789.92
320.20	1785.83
320.41	1665.00
320.62	1763.30
320.83	1656.81
321.05	1820.64
321.26	1728.49
321.47	1744.87
321.69	1775.59
321.90	1609.70
322.11	1699.81
322.32	1689.57
322.54	1834.98
322.75	1705.96
322.96	1888.23
323.18	1640.42
323.39	1675.24
323.60	1726.44
323.81	1677.29
324.03	1681.38
324.24	1728.49
324.45	1669.09
324.66	1705.96
324.88	1669.09
325.09	1847.27
325.30	1775.59
325.52	1665.00
325.73	1710.05
325.94	1628.14
326.15	1554.41
326.37	1650.66
326.58	1681.38
326.79	1746.92
327.00	1617.90
327.22	1794.02
327.43	1624.04
327.64	1607.66
327.85	1705.96
328.07	1726.44
328.28	1746.92
328.49	1675.24
328.70	1679.33
328.92	1683.43
329.13	1699.81
329.34	1722.34
329.55	1873.89
329.76	1759.21
329.98	1648.61
330.19	1738.73
330.40	1732.58
330.61	1718.25
330.83	1697.77
331.04	1611.75
331.25	1687.53
331.46	1617.90
331.68	1650.66
331.89	1744.87
332.10	1695.72
332.31	1603.56
332.52	1587.18
332.74	1761.25
332.95	1632.23
333.16	1675.24
333.37	1722.34
333.58	1687.53
333.80	1712.10
334.01	1665.00
334.22	1714.15
334.43	1689.57
334.64	1654.76
334.86	1591.27
335.07	1699.81
335.28	1755.11
335.49	1662.95
335.70	1716.20
335.92	1724.39
336.13	1884.13
336.34	1669.09
336.55	1748.97
336.76	1755.11
336.98	1550.31
337.19	1691.62
337.40	1781.73
337.61	1849.32
337.82	1675.24
338.04	1775.59
338.25	1675.24
338.46	1728.49
338.67	1705.96
338.88	1642.47
339.09	1683.43
339.31	1685.48
339.52	1564.65
339.73	1619.94
339.94	1714.15
340.15	1736.68
340.36	1681.38
340.58	1714.15
340.79	1630.18
341.00	1720.29
341.21	1626.09
341.42	1822.69
341.63	1691.62
341.85	1791.97
342.06	1695.72
342.27	1619.94
342.48	1730.53
342.69	1591.27
342.90	1705.96
343.12	1736.68
343.33	1726.44
343.54	1765.35
343.75	1748.97
343.96	1705.96
344.17	1593.32
344.38	1669.09
344.60	1681.38
344.81	1673.19
345.02	1667.05
345.23	1718.25
345.44	1773.54
345.65	1732.58
345.86	1789.92
346.07	1613.80
346.29	1642.47
346.50	1683.43
346.71	1667.05
346.92	1765.35
347.13	1837.03
347.34	1681.38
347.55	1615.85
347.76	1828.84
347.98	1675.24
348.19	1734.63
348.40	1767.40
348.61	1710.05
348.82	1781.73
349.03	1777.64
349.24	1681.38
349.45	1804.26
349.66	1646.57
349.88	1734.63
350.09	1574.89
350.30	1767.40
350.51	1740.77
350.72	1685.48
350.93	1714.15
351.14	1656.81
351.35	1740.77
351.56	1757.16
351.77	1765.35
351.99	1681.38
352.20	1734.63
352.41	1677.29
352.62	1609.70
352.83	1773.54
353.04	1665.00
353.25	1687.53
353.46	1824.74
353.67	1712.10
353.88	1583.08
354.09	1736.68
354.30	1734.63
354.52	1687.53
354.73	1597.42
354.94	1636.33
355.15	1740.77
355.36	1822.69
355.57	1671.14
355.78	1746.92
355.99	1697.77
356.20	1714.15
356.41	1787.88
356.62	1769.44
356.83	1705.96
357.04	1757.16
357.25	1642.47
357.46	1730.53
357.68	1617.90
357.89	1578.98
358.10	1705.96
358.31	1697.77
358.52	1650.66
358.73	1683.43
358.94	1603.56
359.15	1609.70
359.36	1769.44
359.57	1742.82
359.78	1728.49
359.99	1720.29
360.20	1677.29
360.41	1697.77
360.62	1736.68
360.83	1705.96
361.04	1728.49
361.25	1761.25
361.46	1871.84
361.67	1718.25
361.88	1722.34
362.09	1720.29
362.30	1705.96
362.51	1675.24
362.72	1648.61
362.93	1775.59
363.14	1699.81
363.35	1648.61
363.56	1650.66
363.78	1775.59
363.99	1744.87
364.20	1703.91
364.41	1642.47
364.62	1789.92
364.83	1722.34
365.04	1699.81
365.25	1662.95
365.46	1804.26
365.67	1638.38
365.88	1652.71
366.09	1693.67
366.30	1675.24
366.51	1652.71
366.72	1656.81
366.93	1775.59
367.14	1642.47
367.35	1753.06
367.56	1732.58
367.77	1818.60
367.98	1679.33
368.18	1683.43
368.39	1769.44
368.60	1605.61
368.81	1761.25
369.02	1757.16
369.23	1644.52
369.44	1607.66
369.65	1697.77
369.86	1699.81
370.07	1724.39
370.28	1669.09
370.49	1763.30
370.70	1746.92
370.91	1621.99
371.12	1638.38
371.33	1716.20
371.54	1632.23
371.75	1853.41
371.96	1624.04
372.17	1765.35
372.38	1746.92
372.59	1691.62
372.80	1642.47
373.01	1714.15
373.22	1691.62
373.43	1710.05
373.64	1619.94
373.85	1714.15
374.06	1804.26
374.26	1732.58
374.47	1708.01
374.68	1832.93
374.89	1716.20
375.10	1669.09
375.31	1712.10
375.52	1685.48
375.73	1708.01
375.94	1636.33
376.15	1751.01
376.36	1703.91
376.57	1669.09
376.78	1685.48
376.99	1710.05
377.20	1787.88
377.40	1714.15
377.61	1767.40
377.82	1740.77
378.03	1734.63
378.24	1671.14
378.45	1777.64
378.66	1708.01
378.87	1648.61
379.08	1609.70
379.29	1701.86
379.50	1738.73
379.71	1703.91
379.91	1734.63
380.12	1599.46
380.33	1691.62
380.54	1689.57
380.75	1632.23
380.96	1763.30
381.17	1761.25
381.38	1751.01
381.59	1763.30
381.80	1730.53
382.00	1820.64
382.21	1730.53
382.42	1773.54
382.63	1849.32
382.84	1740.77
383.05	1761.25
383.26	1828.84
383.47	1681.38
383.68	1818.60
383.88	1763.30
384.09	1722.34
384.30	1798.12
384.51	1669.09
384.72	1665.00
384.93	1648.61
385.14	1718.25
385.35	1685.48
385.55	1632.23
385.76	1787.88
385.97	1777.64
386.18	1650.66
386.39	1665.00
386.60	1705.96
386.81	1705.96
387.02	1718.25
387.22	1654.76
387.43	1781.73
387.64	1804.26
387.85	1785.83
388.06	2201.57
388.27	4267.97
388.48	6719.39
388.68	8060.80
388.89	9457.52
389.10	9693.04
389.31	8507.26
389.52	7593.87
389.73	6655.90
389.93	6234.02
390.14	5810.09
390.35	5167.03
390.56	4499.39
390.77	3741.64
390.98	3080.14
391.18	2478.04
391.39	2121.70
391.60	1832.93
391.81	1783.78
392.02	1679.33
392.23	1894.37
392.43	1779.68
392.64	1794.02
392.85	1714.15
393.06	1806.31
393.27	1675.24
393.47	1632.23
393.68	1767.40
393.89	1665.00
394.10	1738.73
394.31	1714.15
394.52	1701.86
394.72	1642.47
394.93	1755.11
395.14	1667.05
395.35	1693.67
395.56	1763.30
395.76	1681.38
395.97	1800.16
396.18	1800.16
396.39	1845.22
396.60	2029.54
396.80	1888.23
397.01	1898.47
397.22	1802.21
397.43	1845.22
397.64	1681.38
397.84	1779.68
398.05	1894.37
398.26	1744.87
398.47	1843.17
398.67	1837.03
398.88	1710.05
399.09	1724.39
399.30	1718.25
399.51	1724.39
399.71	1621.99
399.92	1726.44
400.13	1738.73
400.34	1722.34
400.54	1701.86
400.75	1884.13
400.96	1687.53
401.17	1845.22
401.37	1748.97
401.58	1617.90
401.79	1746.92
402.00	1927.14
402.21	2068.45
402.41	1931.23
402.62	2025.44
402.83	1943.52
403.04	1994.72
403.24	1961.95
403.45	1865.70
403.66	1898.47
403.87	1933.28
404.07	1861.60
404.28	1822.69
404.49	1755.11
404.70	1769.44
404.90	1757.16
405.11	1746.92
405.32	1669.09
405.52	1689.57
405.73	1558.50
405.94	1699.81
406.15	1710.05
406.35	1755.11
406.56	1753.06
406.77	1746.92
406.98	1734.63
407.18	1624.04
407.39	1826.79
407.60	1662.95
407.80	1710.05
408.01	1642.47
408.22	1691.62
408.43	1722.34
408.63	1841.12
408.84	1734.63
409.05	1791.97
409.25	1636.33
409.46	1591.27
409.67	1624.04
409.88	1662.95
410.08	1759.21
410.29	1697.77
410.50	1755.11
410.70	1787.88
410.91	1673.19
411.12	1718.25
411.32	1734.63
411.53	1607.66
411.74	1759.21
411.95	1773.54
412.15	1751.01
412.36	1738.73
412.57	1787.88
412.77	1814.50
412.98	1718.25
413.19	1673.19
413.39	1689.57
413.60	1771.49
413.81	1804.26
414.01	1675.24
414.22	1730.53
414.43	1660.90
414.63	1744.87
414.84	1746.92
415.05	1714.15
415.25	1691.62
415.46	1751.01
415.67	1675.24
415.87	1734.63
416.08	1689.57
416.29	1662.95
416.49	1753.06
416.70	1656.81
416.91	1734.63
417.11	1630.18
417.32	1751.01
417.53	1783.78
417.73	1722.34
417.94	1714.15
418.15	1662.95
418.35	1726.44
418.56	1669.09
418.77	1828.84
418.97	1777.64
419.18	1632.23
419.38	1591.27
419.59	1691.62
419.80	1763.30
420.00	1665.00
420.21	1703.91
420.42	1843.17
420.62	1701.86
420.83	1683.43
421.04	1708.01
421.24	1673.19
421.45	1730.53
421.65	1783.78
421.86	1650.66
422.07	1675.24
422.27	1703.91
422.48	1798.12
422.69	1574.89
422.89	1677.29
423.10	1648.61
423.30	1656.81
423.51	1708.01
423.72	1726.44
423.92	1724.39
424.13	1609.70
424.33	1689.57
424.54	1732.58
424.75	1673.19
424.95	1808.36
425.16	1757.16
425.36	1726.44
425.57	1751.01
425.78	1804.26
425.98	1763.30
426.19	1732.58
426.39	1691.62
426.60	1710.05
426.81	1781.73
427.01	1673.19
427.22	1656.81
427.42	1576.94
427.63	1624.04
427.83	1728.49
428.04	1775.59
428.25	1771.49
428.45	1726.44
428.66	1816.55
428.86	1703.91
429.07	1665.00
429.28	1796.07
429.48	1689.57
429.69	1652.71
429.89	1736.68
430.10	1583.08
430.30	1714.15
430.51	1691.62
430.71	1624.04
430.92	1658.85
431.13	1650.66
431.33	1736.68
431.54	1724.39
431.74	1830.88
431.95	1869.80
432.15	1687.53
432.36	1689.57
432.56	1783.78
432.77	1857.51
432.98	1796.07
433.18	1720.29
433.39	1710.05
433.59	1669.09
433.80	1791.97
434.00	1871.84
434.21	1638.38
434.41	1669.09
434.62	1871.84
434.82	1691.62
435.03	1570.79
435.23	1771.49
435.44	1656.81
435.64	1714.15
435.85	1742.82
436.06	1726.44
436.26	1718.25
436.47	1669.09
436.67	1611.75
436.88	1730.53
437.08	1763.30
437.29	1761.25
437.49	1712.10
437.70	1800.16
437.90	1753.06
438.11	1744.87
438.31	1751.01
438.52	1894.37
438.72	1796.07
438.93	1892.32
439.13	1806.31
439.34	1832.93
439.54	1783.78
439.75	1783.78
439.95	1734.63
440.16	1671.14
440.36	1746.92
440.57	1740.77
440.77	1693.67
440.98	1691.62
441.18	1798.12
441.39	1646.57
441.59	1679.33
441.80	1783.78
442.00	1753.06
442.21	1855.46
442.41	1638.38
442.62	1832.93
442.82	1675.24
443.02	1839.08
443.23	1781.73
443.43	1636.33
443.64	1808.36
443.84	1734.63
444.05	1787.88
444.25	1665.00
444.46	1681.38
444.66	1648.61
444.87	1806.31
445.07	1669.09
445.28	1742.82
445.48	1824.74
445.69	1804.26
445.89	1886.18
446.09	1753.06
446.30	2000.87
446.50	2688.98
446.71	3698.63
446.91	4329.41
447.12	4698.04
447.32	4542.39
447.53	4253.63
447.73	3848.13
447.93	3516.36
448.14	3291.09
448.34	3268.56
448.55	2861.01
448.75	2713.56
448.96	2719.70
449.16	2367.45
449.36	2269.15
449.57	2037.73
449.77	1837.03
449.98	1748.97
450.18	1816.55
450.39	1791.97
450.59	1781.73
450.79	1718.25
451.00	1693.67
451.20	1808.36
451.41	1781.73
451.61	1800.16
451.81	1724.39
452.02	1726.44
452.22	1730.53
452.43	1775.59
452.63	1691.62
452.84	1730.53
453.04	1738.73
453.24	1718.25
453.45	1658.85
453.65	1748.97
453.86	1775.59
454.06	1642.47
454.26	1742.82
454.47	1646.57
454.67	1791.97
454.87	1755.11
455.08	1757.16
455.28	1796.07
455.49	1730.53
455.69	1697.77
455.89	1779.68
456.10	1794.02
456.30	1681.38
456.51	1763.30
456.71	1771.49
456.91	1761.25
457.12	1763.30
457.32	1800.16
457.52	1689.57
457.73	1746.92
457.93	1744.87
458.14	1742.82
458.34	1718.25
458.54	1687.53
458.75	1701.86
458.95	1761.25
459.15	1794.02
459.36	1718.25
459.56	1759.21
459.76	1875.94
459.97	1755.11
460.17	1771.49
460.37	1894.37
460.58	1783.78
460.78	1746.92
460.99	1691.62
461.19	1701.86
461.39	1722.34
461.60	1759.21
461.80	1662.95
462.00	1667.05
462.21	1691.62
462.41	1660.90
462.61	1632.23
462.82	1587.18
463.02	1681.38
463.22	1665.00
463.43	1736.68
463.63	1740.77
463.83	1775.59
464.04	1757.16
464.24	1685.48
464.44	1705.96
464.64	1724.39
464.85	1832.93
465.05	1765.35
465.25	1785.83
465.46	1691.62
465.66	1816.55
465.86	1738.73
466.07	1724.39
466.27	1697.77
466.47	1656.81
466.68	1626.09
466.88	1746.92
467.08	1708.01
467.29	1759.21
467.49	1771.49
467.69	1728.49
467.89	1753.06
468.10	1673.19
468.30	1746.92
468.50	1861.60
468.71	1726.44
468.91	1656.81
469.11	1796.07
469.31	1697.77
469.52	1697.77
469.72	1794.02
469.92	1812.45
470.13	1671.14
470.33	1677.29
470.53	1802.21
470.73	2142.18
470.94	2334.68
471.14	2324.44
471.34	2494.43
471.54	2424.80
471.75	2273.25
471.95	2136.03
472.15	2080.74
472.36	2054.11
472.56	2066.40
472.76	2150.37
472.96	2019.30
473.17	1955.81
473.37	1900.52
473.57	1832.93
473.77	1730.53
473.98	1769.44
474.18	1708.01
474.38	1822.69
474.58	1751.01
474.79	1667.05
474.99	1804.26
475.19	1800.16
475.39	1701.86
475.60	1720.29
475.80	1718.25
476.00	1685.48
476.20	1773.54
476.41	1757.16
476.61	1775.59
476.81	1832.93
477.01	1644.52
477.21	1841.12
477.42	1771.49
477.62	1677.29
477.82	1769.44
478.02	1703.91
478.23	1755.11
478.43	1648.61
478.63	1710.05
478.83	1748.97
479.03	1673.19
479.24	1742.82
479.44	1785.83
479.64	1689.57
479.84	1628.14
480.04	1705.96
480.25	1767.40
480.45	1673.19
480.65	1697.77
480.85	1755.11
481.06	1724.39
481.26	1783.78
481.46	1712.10
481.66	1718.25
481.86	1658.85
482.06	1851.36
482.27	1652.71
482.47	1642.47
482.67	1736.68
482.87	1701.86
483.07	1736.68
483.28	1671.14
483.48	1650.66
483.68	1628.14
483.88	1654.76
484.08	1667.05
484.29	1636.33
484.49	1689.57
484.69	1669.09
484.89	1828.84
485.09	1781.73
485.29	1765.35
485.50	1732.58
485.70	1679.33
485.90	1843.17
486.10	1746.92
486.30	1812.45
486.50	1742.82
486.71	1714.15
486.91	1806.31
487.11	1773.54
487.31	1716.20
487.51	1708.01
487.71	1632.23
487.91	1726.44
488.12	1683.43
488.32	1570.79
488.52	1660.90
488.72	1644.52
488.92	1746.92
489.12	1779.68
489.32	1748.97
489.53	1742.82
489.73	1638.38
489.93	1773.54
490.13	1708.01
490.33	1681.38
490.53	1761.25
490.73	1796.07
490.94	1630.18
491.14	1837.03
491.34	1865.70
491.54	2084.83
491.74	2594.78
491.94	2914.26
492.14	2899.92
492.34	3090.38
492.54	2729.94
492.75	2478.04
492.95	2402.27
493.15	2308.06
493.35	2316.25
493.55	2271.20
493.75	2148.32
493.95	2215.90
494.15	1968.10
494.35	1882.08
494.56	1875.94
494.76	1794.02
494.96	1894.37
495.16	1716.20
495.36	1744.87
495.56	1724.39
495.76	1712.10
495.96	1738.73
496.16	1632.23
496.36	1775.59
496.56	1671.14
496.77	1759.21
496.97	1710.05
497.17	1740.77
497.37	1662.95
497.57	1771.49
497.77	1787.88
497.97	1669.09
498.17	1705.96
498.37	1677.29
498.57	1767.40
498.77	1748.97
498.97	1681.38
499.17	1753.06
499.38	1703.91
499.58	1812.45
499.78	1763.30
499.98	1775.59
500.18	1746.92
500.38	1691.62
500.58	1845.22
500.78	2486.23
500.98	4388.80
501.18	5713.83
501.38	6657.95
501.58	6991.77
501.78	6457.25
501.98	5416.88
502.18	4886.45
502.38	4353.98
502.58	4112.32
502.78	3655.62
502.98	3645.38
503.18	3459.02
503.38	3233.74
503.59	2801.62
503.79	2609.11
503.99	2557.91
504.19	2211.81
504.39	2207.71
504.59	2205.66
504.79	2068.45
504.99	2043.87
505.19	1947.62
505.39	1943.52
505.59	1908.71
505.79	1789.92
505.99	1794.02
506.19	1857.51
506.39	1869.80
506.59	1755.11
506.79	1769.44
506.99	1855.46
507.19	1726.44
507.39	1683.43
507.59	1697.77
507.79	1712.10
507.99	1669.09
508.19	1753.06
508.39	1689.57
508.59	1687.53
508.79	1822.69
508.99	1904.61
509.19	1701.86
509.39	1822.69
509.59	1726.44
509.79	1669.09
509.99	1810.40
510.19	1755.11
510.39	1804.26
510.59	1779.68
510.79	1705.96
510.99	1646.57
511.19	1734.63
511.39	1841.12
511.59	1763.30
511.79	1814.50
511.99	1755.11
512.19	1738.73
512.38	1796.07
512.58	1689.57
512.78	1724.39
512.98	1718.25
513.18	1847.27
513.38	1656.81
513.58	1708.01
513.78	1744.87
513.98	1761.25
514.18	1703.91
514.38	1730.53
514.58	1753.06
514.78	1734.63
514.98	1701.86
515.18	1763.30
515.38	1683.43
515.58	1877.99
515.78	1753.06
515.98	1712.10
516.18	1746.92
516.38	1708.01
516.57	1726.44
516.77	1691.62
516.97	1785.83
517.17	1681.38
517.37	1656.81
517.57	1814.50
517.77	1791.97
517.97	1720.29
518.17	1804.26
518.37	1603.56
518.57	1701.86
518.77	1728.49
518.97	1705.96
519.16	1802.21
519.36	1775.59
519.56	1724.39
519.76	1755.11
519.96	1708.01
520.16	1767.40
520.36	1673.19
520.56	1779.68
520.76	1632.23
520.96	1656.81
521.16	1732.58
521.35	1703.91
521.55	1812.45
521.75	1697.77
521.95	1724.39
522.15	1742.82
522.35	1593.32
522.55	1683.43
522.75	1816.55
522.95	1730.53
523.14	1697.77
523.34	1783.78
523.54	1628.14
523.74	1773.54
523.94	1734.63
524.14	1640.42
524.34	1746.92
524.54	1787.88
524.73	1673.19
524.93	1755.11
525.13	1742.82
525.33	1650.66
525.53	1902.56
525.73	1732.58
525.93	1736.68
526.13	1736.68
526.32	1697.77
526.52	1824.74
526.72	1789.92
526.92	1685.48
527.12	1699.81
527.32	1595.37
527.52	1806.31
527.71	1763.30
527.91	1812.45
528.11	1753.06
528.31	1755.11
528.51	1685.48
528.71	1755.11
528.90	1804.26
529.10	1800.16
529.30	1773.54
529.50	1650.66
529.70	1701.86
529.90	1777.64
530.09	1720.29
530.29	1611.75
530.49	1673.19
530.69	1904.61
530.89	1728.49
531.09	1730.53
531.28	1703.91
531.48	1802.21
531.68	1742.82
531.88	1845.22
532.08	1753.06
532.28	1775.59
532.47	1738.73
532.67	1830.88
532.87	1691.62
533.07	1683.43
533.27	1826.79
533.46	1740.77
533.66	1791.97
533.86	1724.39
534.06	1722.34
534.26	1755.11
534.45	1734.63
534.65	1710.05
534.85	1800.16
535.05	1695.72
535.25	1828.84
535.44	1677.29
535.64	1675.24
535.84	1738.73
536.04	1714.15
536.24	1656.81
536.43	1720.29
536.63	1732.58
536.83	1671.14
537.03	1705.96
537.22	1646.57
537.42	1601.51
537.62	1753.06
537.82	1697.77
538.02	1820.64
538.21	1814.50
538.41	1894.37
538.61	1677.29
538.81	1738.73
539.00	1765.35
539.20	1654.76
539.40	1671.14
539.60	1818.60
539.79	1738.73
539.99	1751.01
540.19	1599.46
540.39	1716.20
540.58	1773.54
540.78	1814.50
540.98	1806.31
541.18	1742.82
541.37	1714.15
541.57	1718.25
541.77	1771.49
541.97	1714.15
542.16	1656.81
542.36	1708.01
542.56	1685.48
542.76	1843.17
542.95	1769.44
543.15	1814.50
543.35	1701.86
543.54	1675.24
543.74	1705.96
543.94	1832.93
544.14	1697.77
544.33	1767.40
544.53	1691.62
544.73	1730.53
544.93	1779.68
545.12	1693.67
545.32	1763.30
545.52	1642.47
545.71	1632.23
545.91	1705.96
546.11	1636.33
546.30	1634.28
546.50	1728.49
546.70	1791.97
546.90	1730.53
547.09	1605.61
547.29	1734.63
547.49	1789.92
547.68	1722.34
547.88	1716.20
548.08	1791.97
548.27	2213.85
548.47	1677.29
548.67	1679.33
548.87	1785.83
549.06	1804.26
549.26	1769.44
549.46	1683.43
549.65	1607.66
549.85	1820.64
550.05	1699.81
550.24	1617.90
550.44	1744.87
550.64	1746.92
550.83	1705.96
551.03	1791.97
551.23	1796.07
551.42	1783.78
551.62	1720.29
551.82	1816.55
552.01	1726.44
552.21	1767.40
552.41	1763.30
552.60	1759.21
552.80	1781.73
553.00	1718.25
553.19	1757.16
553.39	1820.64
553.59	1660.90
553.78	1708.01
553.98	1777.64
554.17	1601.51
554.37	1718.25
554.57	1849.32
554.76	1607.66
554.96	1683.43
555.16	1710.05
555.35	1802.21
555.55	1802.21
555.75	1732.58
555.94	1796.07
556.14	1576.94
556.33	1773.54
556.53	1816.55
556.73	1738.73
556.92	1769.44
557.12	1775.59
557.32	1771.49
557.51	1851.36
557.71	1802.21
557.90	1769.44
558.10	1779.68
558.30	1761.25
558.49	1724.39
558.69	1685.48
558.88	1718.25
559.08	1789.92
559.28	1777.64
559.47	1701.86
559.67	1736.68
559.86	1785.83
560.06	1812.45
560.26	1675.24
560.45	1701.86
560.65	1716.20
560.84	1798.12
561.04	1716.20
561.24	1726.44
561.43	1695.72
561.63	1828.84
561.82	1742.82
562.02	1767.40
562.22	1736.68
562.41	1673.19
562.61	1769.44
562.80	1660.90
563.00	1886.18
563.19	1751.01
563.39	1828.84
563.59	1738.73
563.78	1665.00
563.98	1640.42
564.17	1746.92
564.37	1611.75
564.56	1693.67
564.76	1607.66
564.96	1771.49
565.15	1771.49
565.35	1855.46
565.54	1701.86
565.74	1755.11
565.93	1820.64
566.13	1712.10
566.32	1742.82
566.52	1705.96
566.71	1777.64
566.91	1787.88
567.11	1757.16
567.30	1828.84
567.50	1769.44
567.69	1775.59
567.89	1687.53
568.08	1671.14
568.28	1785.83
568.47	1712.10
568.67	1791.97
568.86	1708.01
569.06	1767.40
569.25	1609.70
569.45	1746.92
569.64	1703.91
569.84	1665.00
570.04	1695.72
570.23	1665.00
570.43	1806.31
570.62	1759.21
570.82	1841.12
571.01	1624.04
571.21	1714.15
571.40	1578.98
571.60	1744.87
571.79	1771.49
571.99	1714.15
572.18	1679.33
572.38	1722.34
572.57	1730.53
572.77	1810.40
572.96	1918.95
573.16	1773.54
573.35	1681.38
573.55	1812.45
573.74	1742.82
573.94	1656.81
574.13	1787.88
574.33	1777.64
574.52	1777.64
574.71	1767.40
574.91	1806.31
575.10	1687.53
575.30	1798.12
575.49	1746.92
575.69	1718.25
575.88	1755.11
576.08	1705.96
576.27	1724.39
576.47	1652.71
576.66	1810.40
576.86	1810.40
577.05	1783.78
577.25	1802.21
577.44	1873.89
577.64	1726.44
577.83	1824.74
578.02	1734.63
578.22	1849.32
578.41	1886.18
578.61	1658.85
578.80	1675.24
579.00	1804.26
579.19	1671.14
579.39	1853.41
579.58	1800.16
579.77	1710.05
579.97	1791.97
580.16	1849.32
580.36	1841.12
580.55	1763.30
580.75	1701.86
580.94	1798.12
581.13	1853.41
581.33	1791.97
581.52	1738.73
581.72	1810.40
581.91	1812.45
582.11	1691.62
582.30	1716.20
582.49	1714.15
582.69	1810.40
582.88	1738.73
583.08	1787.88
583.27	1845.22
583.47	1802.21
583.66	1699.81
583.85	1701.86
584.05	1763.30
584.24	1714.15
584.44	1839.08
584.63	1763.30
584.82	1839.08
585.02	1734.63
585.21	1812.45
585.41	1847.27
585.60	1839.08
585.79	1935.33
585.99	1976.29
586.18	1892.32
586.37	2156.51
586.57	3344.33
586.76	9936.74
586.96	24155.79
587.15	33797.63
587.34	39873.95
587.54	42001.79
587.73	36183.51
587.93	26052.21
588.12	21315.26
588.31	18089.71
588.51	16103.18
588.70	14829.34
588.89	14137.13
589.09	12775.23
589.28	10843.99
589.47	9224.05
589.67	7993.22
589.86	6412.19
590.06	4923.32
590.25	3878.85
590.44	3139.54
590.64	2512.86
590.83	2271.20
591.02	2082.78
591.22	1945.57
591.41	1830.88
591.60	1814.50
591.80	1943.52
591.99	1771.49
592.18	1701.86
592.38	1730.53
592.57	1697.77
592.76	1771.49
592.96	1820.64
593.15	1822.69
593.34	1816.55
593.54	1736.68
593.73	1779.68
593.92	1789.92
594.12	1660.90
594.31	1753.06
594.50	1824.74
594.70	1884.13
594.89	1902.56
595.08	1724.39
595.28	1759.21
595.47	1937.38
595.66	1886.18
595.86	1652.71
596.05	1763.30
596.24	1748.97
596.43	1837.03
596.63	1826.79
596.82	1751.01
597.01	1740.77
597.21	1796.07
597.40	1748.97
597.59	1714.15
597.79	1734.63
597.98	1808.36
598.17	1800.16
598.36	1757.16
598.56	1748.97
598.75	1693.67
598.94	1785.83
599.14	1705.96
599.33	1681.38
599.52	1796.07
599.71	1775.59
599.91	1759.21
600.10	1824.74
600.29	1716.20
600.48	1720.29
600.68	1691.62
600.87	1740.77
601.06	1730.53
601.26	1701.86
601.45	1689.57
601.64	1638.38
601.83	1822.69
602.03	1679.33
602.22	1746.92
602.41	1710.05
602.60	1845.22
602.80	1763.30
602.99	1757.16
603.18	1671.14
603.37	1751.01
603.57	1779.68
603.76	1789.92
603.95	1781.73
604.14	1728.49
604.34	1613.80
604.53	1681.38
604.72	1691.62
604.91	1738.73
605.10	1806.31
605.30	1665.00
605.49	1863.65
605.68	1802.21
605.87	1687.53
606.07	1710.05
606.26	1779.68
606.45	1759.21
606.64	1726.44
606.84	1687.53
607.03	1687.53
607.22	1757.16
607.41	1693.67
607.60	1669.09
607.80	1798.12
607.99	1583.08
608.18	1693.67
608.37	1687.53
608.56	1654.76
608.76	1726.44
608.95	1773.54
609.14	1691.62
609.33	1757.16
609.52	1742.82
609.72	1740.77
609.91	1761.25
610.10	1746.92
610.29	1800.16
610.48	1849.32
610.68	1796.07
610.87	1742.82
611.06	1822.69
611.25	1771.49
611.44	1796.07
611.63	1705.96
611.83	1816.55
612.02	1744.87
612.21	1804.26
612.40	1697.77
612.59	1691.62
612.79	1675.24
612.98	1683.43
613.17	1714.15
613.36	1658.85
613.55	1753.06
613.74	1767.40
613.93	1720.29
614.13	1720.29
614.32	1716.20
614.51	1730.53
614.70	1691.62
614.89	1640.42
615.08	1689.57
615.28	2121.70
615.47	1740.77
615.66	1740.77
615.85	1671.14
616.04	1839.08
616.23	1650.66
616.42	1691.62
616.62	1718.25
616.81	1746.92
617.00	1787.88
617.19	1751.01
617.38	1720.29
617.57	1724.39
617.76	1763.30
617.95	1751.01
618.15	1800.16
618.34	1789.92
618.53	1675.24
618.72	1822.69
618.91	1832.93
619.10	1816.55
619.29	1724.39
619.48	1738.73
619.68	1697.77
619.87	1710.05
620.06	1724.39
620.25	1798.12
620.44	1650.66
620.63	1687.53
620.82	1685.48
621.01	1701.86
621.20	1710.05
621.39	1769.44
621.59	1673.19
621.78	1730.53
621.97	1751.01
622.16	1789.92
622.35	1695.72
622.54	1785.83
622.73	1691.62
622.92	1691.62
623.11	1757.16
623.30	1648.61
623.49	1732.58
623.68	1624.04
623.88	1880.04
624.07	1654.76
624.26	1748.97
624.45	1814.50
624.64	1701.86
624.83	1746.92
625.02	1734.63
625.21	1679.33
625.40	1769.44
625.59	1804.26
625.78	1734.63
625.97	1837.03
626.16	1820.64
626.35	1798.12
626.54	1744.87
626.74	1724.39
626.93	1638.38
627.12	1808.36
627.31	1796.07
627.50	1681.38
627.69	1751.01
627.88	1662.95
628.07	1648.61
628.26	1642.47
628.45	1679.33
628.64	1642.47
628.83	1759.21
629.02	1691.62
629.21	1718.25
629.40	1785.83
629.59	1658.85
629.78	1740.77
629.97	1710.05
630.16	1689.57
630.35	1683.43
630.54	1779.68
630.73	1636.33
630.92	1667.05
631.11	1742.82
631.30	1679.33
631.49	1738.73
631.68	1710.05
631.87	1730.53
632.06	1607.66
632.25	1800.16
632.44	1699.81
632.63	1705.96
632.82	1642.47
633.01	1613.80
633.20	1662.95
633.39	1701.86
633.58	1615.85
633.77	1716.20
633.96	1718.25
634.15	1726.44
634.34	1720.29
634.53	1740.77
634.72	1679.33
634.91	1619.94
635.10	1699.81
635.29	1761.25
635.48	1755.11
635.67	1748.97
635.86	1675.24
636.05	1804.26
636.24	1681.38
636.43	1689.57
636.62	1714.15
636.81	1603.56
637.00	1730.53
637.19	1742.82
637.38	1705.96
637.57	1695.72
637.76	1773.54
637.95	1712.10
638.14	1683.43
638.33	1669.09
638.52	1779.68
638.71	1603.56
638.89	1710.05
639.08	1906.66
639.27	1701.86
639.46	1681.38
639.65	1759.21
639.84	1685.48
640.03	1781.73
640.22	1714.15
640.41	1757.16
640.60	1724.39
640.79	1701.86
640.98	1740.77
641.17	1740.77
641.36	1660.90
641.55	1730.53
641.74	1671.14
641.92	1589.22
642.11	1576.94
642.30	1710.05
642.49	1720.29
642.68	1689.57
642.87	1740.77
643.06	1673.19
643.25	1689.57
643.44	1640.42
643.63	1673.19
643.82	1783.78
644.00	1626.09
644.19	1691.62
644.38	1617.90
644.57	1751.01
644.76	1728.49
644.95	1699.81
645.14	1687.53
645.33	1738.73
645.52	1667.05
645.71	1619.94
645.89	1677.29
646.08	1689.57
646.27	1701.86
646.46	1873.89
646.65	1589.22
646.84	1720.29
647.03	1640.42
647.22	1740.77
647.40	1716.20
647.59	1710.05
647.78	1656.81
647.97	1724.39
648.16	1701.86
648.35	1763.30
648.54	1722.34
648.73	1693.67
648.91	1726.44
649.10	1687.53
649.29	1640.42
649.48	1746.92
649.67	1693.67
649.86	1755.11
650.05	1685.48
650.23	1763.30
650.42	1611.75
650.61	1775.59
650.80	1656.81
650.99	1843.17
651.18	1773.54
651.36	1789.92
651.55	1687.53
651.74	1767.40
651.93	1646.57
652.12	1767.40
652.31	1689.57
652.49	1679.33
652.68	1771.49
652.87	1787.88
653.06	1628.14
653.25	1779.68
653.44	1648.61
653.62	1843.17
653.81	1736.68
654.00	1708.01
654.19	1824.74
654.38	1789.92
654.56	1746.92
654.75	1724.39
654.94	1775.59
655.13	1718.25
655.32	1681.38
655.51	1757.16
655.69	1656.81
655.88	1728.49
656.07	1636.33
656.26	1718.25
656.45	1673.19
656.63	1722.34
656.82	1734.63
657.01	1824.74
657.20	1716.20
657.38	1806.31
657.57	1638.38
657.76	1624.04
657.95	1761.25
658.14	1755.11
658.32	1681.38
658.51	1708.01
658.70	1732.58
658.89	1746.92
659.08	1734.63
659.26	1820.64
659.45	1654.76
659.64	1734.63
659.83	1697.77
660.01	1867.75
660.20	1738.73
660.39	1816.55
660.58	1574.89
660.76	1767.40
660.95	1609.70
661.14	1652.71
661.33	1673.19
661.51	1738.73
661.70	1724.39
661.89	1738.73
662.08	1662.95
662.26	1634.28
662.45	1656.81
662.64	1775.59
662.83	1775.59
663.01	1638.38
663.20	1755.11
663.39	1810.40
663.58	1746.92
663.76	1703.91
663.95	1800.16
664.14	1652.71
664.32	1691.62
664.51	1689.57
664.70	1708.01
664.89	1687.53
665.07	1634.28
665.26	1763.30
665.45	1675.24
665.64	1861.60
665.82	1746.92
666.01	1820.64
666.20	1720.29
666.38	1771.49
666.57	1791.97
666.76	2150.37
666.95	4499.39
667.13	10184.55
667.32	15484.69
667.51	17362.68
667.69	18675.43
667.88	17616.63
668.07	12058.44
668.25	9377.65
668.44	8163.20
668.63	7350.16
668.81	6838.17
669.00	6268.83
669.19	5621.67
669.38	4982.71
669.56	4501.44
669.75	3915.72
669.94	3422.16
670.12	2854.87
670.31	2484.19
670.50	2187.23
670.68	2058.21
670.87	1910.75
671.06	1796.07
671.24	1853.41
671.43	1834.98
671.62	1738.73
671.80	1626.09
671.99	1763.30
672.18	1703.91
672.36	1699.81
672.55	1736.68
672.74	1708.01
672.92	1710.05
673.11	1738.73
673.29	1716.20
673.48	1796.07
673.67	1683.43
673.85	1775.59
674.04	1644.52
674.23	1722.34
674.41	1812.45
674.60	1621.99
674.79	1621.99
674.97	1617.90
675.16	1785.83
675.34	1746.92
675.53	1683.43
675.72	1759.21
675.90	1841.12
676.09	1683.43
676.28	1656.81
676.46	1628.14
676.65	1736.68
676.83	1691.62
677.02	1804.26
677.21	1730.53
677.39	1687.53
677.58	1691.62
677.77	1652.71
677.95	1642.47
678.14	1669.09
678.32	1652.71
678.51	1648.61
678.70	1832.93
678.88	1660.90
679.07	1755.11
679.25	1669.09
679.44	1738.73
679.63	1665.00
679.81	1755.11
680.00	1761.25
680.18	1708.01
680.37	1757.16
680.55	1671.14
680.74	1619.94
680.93	1607.66
681.11	1730.53
681.30	1697.77
681.48	1718.25
681.67	1634.28
681.85	1681.38
682.04	1603.56
682.23	1732.58
682.41	1705.96
682.60	1699.81
682.78	1697.77
682.97	1638.38
683.15	1746.92
683.34	1767.40
683.53	1810.40
683.71	1714.15
683.90	1738.73
684.08	1828.84
684.27	1712.10
684.45	1736.68
684.64	1748.97
684.82	1712.10
685.01	1714.15
685.19	1675.24
685.38	1867.75
685.57	1732.58
685.75	1681.38
685.94	1675.24
686.12	1626.09
686.31	1740.77
686.49	1763.30
686.68	1617.90
686.86	1679.33
687.05	1648.61
687.23	1732.58
687.42	1720.29
687.60	1667.05
687.79	1783.78
687.97	1767.40
688.16	1738.73
688.34	1726.44
688.53	1617.90
688.71	1712.10
688.90	1759.21
689.08	1675.24
689.27	1648.61
689.45	1753.06
689.64	1794.02
689.82	1728.49
690.01	1744.87
690.19	1624.04
690.38	1751.01
690.56	1751.01
690.75	1703.91
690.93	1640.42
691.12	1671.14
691.30	1675.24
691.49	1716.20
691.67	1662.95
691.86	1847.27
692.04	1587.18
692.23	1691.62
692.41	1705.96
692.60	1832.93
692.78	1654.76
692.97	1708.01
693.15	1679.33
693.34	1722.34
693.52	1753.06
693.71	1675.24
693.89	1667.05
694.08	1576.94
694.26	1785.83
694.44	1767.40
694.63	1708.01
694.81	1697.77
695.00	1722.34
695.18	1695.72
695.37	1849.32
695.55	1738.73
695.74	1693.67
695.92	1621.99
696.10	1839.08
696.29	1593.32
696.47	1691.62
696.66	1583.08
696.84	1677.29
697.03	1605.61
697.21	1761.25
697.40	2324.44
697.58	1804.26
697.76	1708.01
697.95	1665.00
698.13	1693.67
698.32	1650.66
698.50	1755.11
698.68	1800.16
698.87	1763.30
699.05	1791.97
699.24	1738.73
699.42	1701.86
699.61	1683.43
699.79	1738.73
699.97	1687.53
700.16	1687.53
700.34	1726.44
700.53	1697.77
700.71	1828.84
700.89	1662.95
701.08	1773.54
701.26	1716.20
701.45	2095.07
701.63	1638.38
701.81	1689.57
702.00	1638.38
702.18	1708.01
702.37	1726.44
702.55	1816.55
702.73	1699.81
702.92	1693.67
703.10	1804.26
703.28	1728.49
703.47	1662.95
703.65	1867.75
703.84	1796.07
704.02	1748.97
704.20	1869.80
704.39	1640.42
704.57	1701.86
704.75	1732.58
704.94	1753.06
705.12	1740.77
705.30	1822.69
705.49	2263.01
705.67	4466.62
705.86	9265.01
706.04	12599.10
706.22	14260.01
706.41	15193.88
706.59	13557.55
706.77	9543.53
706.96	7370.64
707.14	6711.19
707.32	5805.99
707.51	5568.43
707.69	4904.89
707.87	4247.49
708.06	3438.54
708.24	2965.46
708.42	2441.18
708.61	2336.73
708.79	1906.66
708.97	1884.13
709.16	1742.82
709.34	1738.73
709.52	1722.34
709.71	1671.14
709.89	1716.20
710.07	1609.70
710.26	1626.09
710.44	1658.85
710.62	1808.36
710.80	1710.05
710.99	1812.45
711.17	1726.44
711.35	1697.77
711.54	1712.10
711.72	1765.35
711.90	1828.84
712.09	1681.38
712.27	1748.97
712.45	1800.16
712.63	1708.01
712.82	1669.09
713.00	1693.67
713.18	1652.71
713.37	1699.81
713.55	1689.57
713.73	1734.63
713.91	1787.88
714.10	1712.10
714.28	1632.23
714.46	1705.96
714.65	1648.61
714.83	1699.81
715.01	1718.25
715.19	1832.93
715.38	1673.19
715.56	1701.86
715.74	1705.96
715.92	1675.24
716.11	1765.35
716.29	1566.70
716.47	1677.29
716.65	1662.95
716.84	1656.81
717.02	1804.26
717.20	1613.80
717.38	1673.19
717.57	1669.09
717.75	1714.15
717.93	1654.76
718.11	1720.29
718.30	1656.81
718.48	1689.57
718.66	1779.68
718.84	1746.92
719.03	1679.33
719.21	1638.38
719.39	1800.16
719.57	1685.48
719.75	1771.49
719.94	1673.19
720.12	1763.30
720.30	1681.38
720.48	1738.73
720.67	1728.49
720.85	1665.00
721.03	1669.09
721.21	1671.14
721.39	1759.21
721.58	1705.96
721.76	1662.95
721.94	1775.59
722.12	1669.09
722.30	1726.44
722.49	1660.90
722.67	1714.15
722.85	1718.25
723.03	1607.66
723.21	1705.96
723.40	1732.58
723.58	1705.96
723.76	1689.57
723.94	1634.28
724.12	1742.82
724.30	1748.97
724.49	1755.11
724.67	1662.95
724.85	1763.30
725.03	1615.85
725.21	1730.53
725.40	1746.92
725.58	1628.14
725.76	1734.63
725.94	1705.96
726.12	1675.24
726.30	1705.96
726.49	1673.19
726.67	1710.05
726.85	1656.81
727.03	1855.46
727.21	2142.18
727.39	2799.57
727.57	3749.83
727.76	4171.71
727.94	4538.30
728.12	4204.48
728.30	3667.91
728.48	2912.21
728.66	2746.33
728.84	2533.34
729.03	2295.77
729.21	2146.27
729.39	1986.53
729.57	1851.36
729.75	1861.60
729.93	1771.49
730.11	1701.86
730.30	1695.72
730.48	1748.97
730.66	1751.01
730.84	1751.01
731.02	1746.92
731.20	1658.85
731.38	1748.97
731.56	1615.85
731.74	1652.71
731.93	1710.05
732.11	1660.90
732.29	1732.58
732.47	1751.01
732.65	1746.92
732.83	1746.92
733.01	1699.81
733.19	1677.29
733.37	1720.29
733.56	1730.53
733.74	1697.77
733.92	1730.53
734.10	1652.71
734.28	1736.68
734.46	1691.62
734.64	1701.86
734.82	1658.85
735.00	1646.57
735.18	1611.75
735.36	1720.29
735.54	1685.48
735.73	1669.09
735.91	1646.57
736.09	1785.83
736.27	1677.29
736.45	1738.73
736.63	1615.85
736.81	1712.10
736.99	1716.20
737.17	1748.97
737.35	1658.85
737.53	1718.25
737.71	1726.44
737.89	1779.68
738.07	1587.18
738.25	1640.42
738.43	1550.31
738.61	1642.47
738.80	1595.37
738.98	1628.14
739.16	1646.57
739.34	1662.95
739.52	1738.73
739.70	1685.48
739.88	1748.97
740.06	1726.44
740.24	1595.37
740.42	1697.77
740.60	1658.85
740.78	1681.38
740.96	1691.62
741.14	1693.67
741.32	1769.44
741.50	1652.71
741.68	1779.68
741.86	1798.12
742.04	1591.27
742.22	1724.39
742.40	1699.81
742.58	1744.87
742.76	1712.10
742.94	1755.11
743.12	1595.37
743.30	1626.09
743.48	1791.97
743.66	1701.86
743.84	1673.19
744.02	1673.19
744.20	1712.10
744.38	1642.47
744.56	1636.33
744.74	1828.84
744.92	1671.14
745.10	1759.21
745.28	1744.87
745.46	1757.16
745.64	1638.38
745.82	1783.78
746.00	1738.73
746.18	1660.90
746.36	1634.28
746.54	1687.53
746.72	1730.53
746.90	1626.09
747.08	1773.54
747.26	1675.24
747.44	1669.09
747.62	1693.67
747.80	1675.24
747.98	1753.06
748.15	1697.77
748.33	1742.82
748.51	1677.29
748.69	1783.78
748.87	1632.23
749.05	1607.66
749.23	1738.73
749.41	1794.02
749.59	1701.86
749.77	1732.58
749.95	1697.77
750.13	1632.23
750.31	1701.86
750.49	1681.38
750.67	1689.57
750.85	1796.07
751.03	1728.49
751.20	1826.79
751.38	1652.71
751.56	1730.53
751.74	1656.81
751.92	1718.25
752.10	1695.72
752.28	1712.10
752.46	1681.38
752.64	1644.52
752.82	1791.97
753.00	1697.77
753.18	1724.39
753.35	1642.47
753.53	1689.57
753.71	1646.57
753.89	1720.29
754.07	1728.49
754.25	1665.00
754.43	1679.33
754.61	1603.56
754.79	1779.68
754.97	1734.63
755.14	1746.92
755.32	1609.70
755.50	1679.33
755.68	1740.77
755.86	1617.90
756.04	1691.62
756.22	1626.09
756.40	1714.15
756.57	1804.26
756.75	1691.62
756.93	1777.64
757.11	1746.92
757.29	1626.09
757.47	1636.33
757.65	1607.66
757.82	1607.66
758.00	1611.75
758.18	1681.38
758.36	1667.05
758.54	1730.53
758.72	1662.95
758.90	1779.68
759.07	1683.43
759.25	1609.70
759.43	1730.53
759.61	1656.81
759.79	2144.22
759.97	1742.82
760.15	1697.77
760.32	1662.95
760.50	1656.81
760.68	1755.11
760.86	1665.00
761.04	1781.73
761.22	1740.77
761.39	1687.53
761.57	1787.88
761.75	1675.24
761.93	1736.68
762.11	1656.81
762.28	1710.05
762.46	1695.72
762.64	1746.92
762.82	1662.95
763.00	1736.68
763.18	1763.30
763.35	1634.28
763.53	1714.15
763.71	1753.06
763.89	1669.09
764.07	1724.39
764.24	1662.95
764.42	1714.15
764.60	1697.77
764.78	1701.86
764.96	1783.78
765.13	1796.07
765.31	1691.62
765.49	1767.40
765.67	1615.85
765.84	1656.81
766.02	1660.90
766.20	1634.28
766.38	1736.68
766.56	1710.05
766.73	1718.25
766.91	1742.82
767.09	1765.35
767.27	1761.25
767.44	1705.96
767.62	1726.44
767.80	1751.01
767.98	1634.28
768.15	1705.96
768.33	1765.35
768.51	1755.11
768.69	1787.88
768.87	1716.20
769.04	1685.48
769.22	1771.49
769.40	1767.40
769.58	1837.03
769.75	1761.25
769.93	1812.45
770.11	1738.73
770.28	1708.01
770.46	1771.49
770.64	1701.86
770.82	1662.95
770.99	1652.71
771.17	1734.63
771.35	1617.90
771.53	1710.05
771.70	1722.34
771.88	1720.29
772.06	1703.91
772.23	1665.00
772.41	1669.09
772.59	1681.38
772.77	1683.43
772.94	1646.57
773.12	1699.81
773.30	1683.43
773.47	1712.10
773.65	1644.52
773.83	1773.54
774.01	1671.14
774.18	1646.57
774.36	1660.90
774.54	1640.42
774.71	1695.72
774.89	1572.84
775.07	1763.30
775.24	1658.85
775.42	1640.42
775.60	1748.97
775.78	1644.52
775.95	1660.90
776.13	1611.75
776.31	1603.56
776.48	1705.96
776.66	1732.58
776.84	1677.29
777.01	1644.52
777.19	1644.52
777.37	1658.85
777.54	1738.73
777.72	1785.83
777.90	1699.81
778.07	1619.94
778.25	1843.17
778.43	1757.16
778.60	1705.96
778.78	1773.54
778.96	1705.96
779.13	1701.86
779.31	1728.49
779.49	1675.24
779.66	1679.33
779.84	1677.29
780.01	1699.81
780.19	1683.43
780.37	1687.53
780.54	1740.77
780.72	1671.14
780.90	1718.25
781.07	1624.04
781.25	1699.81
781.43	1759.21
781.60	1632.23
781.78	1800.16
781.95	1697.77
782.13	1662.95
782.31	1734.63
782.48	1632.23
782.66	1748.97
782.83	1820.64
783.01	1753.06
783.19	1791.97
783.36	1726.44
783.54	1558.50
783.72	1718.25
783.89	1652.71
784.07	1697.77
784.24	1775.59
784.42	1763.30
784.60	1628.14
784.77	1773.54
784.95	1695.72
785.12	1695.72
785.30	1791.97
785.47	1587.18
785.65	1695.72
785.83	1669.09
786.00	1669.09
786.18	1761.25
786.35	1656.81
786.53	1673.19
786.71	1732.58
786.88	1773.54
787.06	1738.73
787.23	1748.97
787.41	1581.03
787.58	1740.77
787.76	1720.29
787.94	1621.99
788.11	1718.25
788.29	1675.24
788.46	1644.52
788.64	1581.03
788.81	1675.24
788.99	1734.63
789.16	1636.33
789.34	1728.49
789.52	1660.90
789.69	1667.05
789.87	1671.14
790.04	1642.47
790.22	1675.24
790.39	1818.60
790.57	1677.29
790.74	1658.85
790.92	1697.77
791.09	1648.61
791.27	1648.61
791.44	1746.92
791.62	1716.20
791.79	1730.53
791.97	1705.96
792.15	1804.26
792.32	1767.40
792.50	1763.30
792.67	1806.31
792.85	1701.86
793.02	1736.68
793.20	1634.28
793.37	1607.66
793.55	1665.00
793.72	1609.70
793.90	1800.16
794.07	1677.29
794.25	1619.94
794.42	1720.29
794.60	1708.01
794.77	1679.33
794.95	1662.95
795.12	1720.29
795.30	1746.92
795.47	1578.98
795.65	1894.37
795.82	1779.68
796.00	1746.92
796.17	1695.72
796.34	1601.51
796.52	1738.73
796.69	1800.16
796.87	1677.29
797.04	1697.77
797.22	1691.62
797.39	1701.86
797.57	1697.77
797.74	1732.58
797.92	1675.24
798.09	1697.77
798.27	1695.72
798.44	1726.44
798.62	1708.01
798.79	1771.49
798.96	1619.94
799.14	1695.72
799.31	1853.41
799.49	1646.57
799.66	1798.12
799.84	1662.95
800.01	1662.95
800.19	1755.11
800.36	1548.26
800.53	1638.38
800.71	1658.85
800.88	1755.11
801.06	1665.00
801.23	1665.00
801.41	1701.86
801.58	1740.77
801.75	1671.14
801.93	1642.47
802.10	1787.88
802.28	1683.43
802.45	1712.10
802.63	1726.44
802.80	1826.79
802.97	1681.38
803.15	1679.33
803.32	1679.33
803.50	1689.57
803.67	1638.38
803.84	1603.56
804.02	1722.34
804.19	1654.76
804.37	1529.83
804.54	1593.32
804.71	1615.85
804.89	1650.66
805.06	1646.57
805.24	1693.67
805.41	1648.61
805.58	1546.22
805.76	1800.16
805.93	1746.92
806.10	1802.21
806.28	1722.34
806.45	1720.29
806.63	1650.66
806.80	1765.35
806.97	1748.97
807.15	1718.25
807.32	1767.40
807.49	1777.64
807.67	1611.75
807.84	1759.21
808.01	1652.71
808.19	1800.16
808.36	1740.77
808.54	1689.57
808.71	1654.76
808.88	1716.20
809.06	1691.62
809.23	1708.01
809.40	1720.29
809.58	1705.96
809.75	1712.10
809.92	1656.81
810.10	1808.36
810.27	1695.72
810.44	1669.09
810.62	1726.44
810.79	1667.05
810.96	1681.38
811.14	1722.34
811.31	1728.49
811.48	1728.49
811.66	1699.81
811.83	1755.11
812.00	1736.68
812.18	1757.16
812.35	1851.36
812.52	1646.57
812.69	1705.96
812.87	1677.29
813.04	1658.85
813.21	1732.58
813.39	1681.38
813.56	1685.48
813.73	1751.01
813.91	1632.23
814.08	1734.63
814.25	1669.09
814.42	1624.04
814.60	1669.09
814.77	1632.23
814.94	1683.43
815.12	1687.53
815.29	1779.68
815.46	1705.96
815.63	1662.95
815.81	1726.44
815.98	1689.57
816.15	1685.48
816.33	1691.62
816.50	1667.05
816.67	1708.01
816.84	1712.10
817.02	1640.42
817.19	1695.72
817.36	1660.90
817.53	1763.30
817.71	1632.23
817.88	1720.29
818.05	1740.77
818.22	1685.48
818.40	1728.49
818.57	1726.44
818.74	1673.19
818.91	1703.91
819.09	1732.58
819.26	1751.01
819.43	1722.34
819.60	1697.77
819.78	1738.73
819.95	1783.78
820.12	1636.33
820.29	1804.26
820.47	1650.66
820.64	1703.91
820.81	1624.04
820.98	1599.46
821.15	1705.96
821.33	1748.97
821.50	1638.38
821.67	1761.25
821.84	1648.61
822.02	1740.77
822.19	1718.25
822.36	1691.62
822.53	1669.09
822.70	1546.22
822.88	1683.43
823.05	1751.01
823.22	1681.38
823.39	1716.20
823.56	1689.57
823.74	1763.30
823.91	1677.29
824.08	1697.77
824.25	1613.80
824.42	1738.73
824.60	1605.61
824.77	1689.57
824.94	1687.53
825.11	1783.78
825.28	1665.00
825.45	1720.29
825.63	1746.92
825.80	1613.80
825.97	1728.49
826.14	1634.28
826.31	1597.42
826.48	1691.62
826.66	1675.24
826.83	1687.53
827.00	1703.91
827.17	1677.29
827.34	1753.06
827.51	1689.57
827.69	1683.43
827.86	1689.57
828.03	1681.38
828.20	1677.29
828.37	1699.81
828.54	1712.10
828.71	1576.94
828.89	1902.56
829.06	1738.73
829.23	1718.25
829.40	1619.94
829.57	1646.57
829.74	1751.01
829.91	1648.61
830.09	1662.95
830.26	1705.96
830.43	1771.49
830.60	1740.77
830.77	1742.82
830.94	1744.87
831.11	1744.87
831.28	1613.80
831.46	1753.06
831.63	1697.77
831.80	1771.49
831.97	1667.05
832.14	1699.81
832.31	1746.92
832.48	1679.33
832.65	1746.92
832.82	1740.77
832.99	1732.58
833.17	1591.27
833.34	1812.45
833.51	1740.77
833.68	1558.50
833.85	1691.62
834.02	1650.66
834.19	1621.99
834.36	1646.57
834.53	1673.19
834.70	1646.57
834.87	1746.92
835.04	1746.92
835.22	1689.57
835.39	1708.01
835.56	1617.90
835.73	1701.86
835.90	1730.53
836.07	1630.18
836.24	1796.07
836.41	1697.77
836.58	1642.47
836.75	1724.39
836.92	1738.73
837.09	1595.37
837.26	1748.97
837.43	1646.57
837.60	1675.24
837.77	1669.09
837.94	1679.33
838.12	1763.30
838.29	1699.81
838.46	1619.94
838.63	1642.47
838.80	1796.07
838.97	1712.10
839.14	1724.39
839.31	1740.77
839.48	1650.66
839.65	1658.85
839.82	1710.05
839.99	1738.73
840.16	1724.39
840.33	1662.95
840.50	1691.62
840.67	1638.38
840.84	1667.05
841.01	1726.44
841.18	1599.46
841.35	1642.47
841.52	1708.01
841.69	1849.32
841.86	1701.86
842.03	1765.35
842.20	1755.11
842.37	1748.97
842.54	1794.02
842.71	1681.38
842.88	1646.57
843.05	1751.01
843.22	1681.38
843.39	1746.92
843.56	1591.27
843.73	1765.35
843.90	1691.62
844.07	1660.90
844.24	1810.40
844.41	1787.88
844.58	1714.15
844.75	1691.62
844.92	1773.54
845.09	1675.24
845.26	1718.25
845.43	1695.72
845.60	1656.81
845.77	1751.01
845.94	1722.34
846.10	1802.21
846.27	1656.81
846.44	1648.61
846.61	1562.60
846.78	1730.53
846.95	1699.81
847.12	1740.77
847.29	1665.00
847.46	1607.66
847.63	1658.85
847.80	1673.19
847.97	1689.57
848.14	1734.63
848.31	1654.76
848.48	1558.50
848.65	1658.85
848.82	1566.70
848.98	1785.83
849.15	1763.30
849.32	1708.01
849.49	1738.73
849.66	1701.86
849.83	1757.16
850.00	1662.95
850.17	1708.01
850.34	1718.25
850.51	1689.57
850.68	1736.68
850.85	1775.59
851.01	1726.44
851.18	1708.01
851.35	1691.62
851.52	1675.24
851.69	1779.68
851.86	1624.04
852.03	1714.15
852.20	1708.01
852.37	1656.81
852.53	1699.81
852.70	1718.25
852.87	1703.91
853.04	1695.72
853.21	1677.29
853.38	1746.92
853.55	1796.07
853.72	1753.06
853.89	1619.94
854.05	1636.33
854.22	1642.47
854.39	1720.29
854.56	1748.97
854.73	1806.31
854.90	1640.42
855.07	1648.61
855.23	1689.57
855.40	1624.04
855.57	1656.81
855.74	1607.66
855.91	1798.12
856.08	1583.08
856.25	1677.29
856.41	1669.09
856.58	1642.47
856.75	1634.28
856.92	1630.18
857.09	1763.30
857.26	1701.86
857.42	1677.29
857.59	1757.16
857.76	1703.91
857.93	1755.11
858.10	1650.66
858.27	1648.61
858.43	1640.42
858.60	1718.25
858.77	1615.85
858.94	1652.71
859.11	1791.97
859.27	1675.24
859.44	1656.81
859.61	1804.26
859.78	1673.19
859.95	1648.61
860.12	1699.81
860.28	1765.35
860.45	1812.45
860.62	1638.38
860.79	1724.39
860.95	1658.85
861.12	1642.47
861.29	1611.75
861.46	1691.62
861.63	1701.86
861.79	1665.00
861.96	1626.09
862.13	1669.09
862.30	1701.86
862.47	1648.61
862.63	1728.49
862.80	1763.30
862.97	1716.20
863.14	1755.11
863.30	1775.59
863.47	1677.29
863.64	1783.78
863.81	1648.61
863.97	1712.10
864.14	1701.86
864.31	1605.61
864.48	1726.44
864.65	1652.71
864.81	1763.30
864.98	1751.01
865.15	1753.06
865.32	1808.36
865.48	1777.64
865.65	1773.54
865.82	1656.81
865.98	1646.57
866.15	1744.87
866.32	1638.38
866.49	1671.14
866.65	1783.78
866.82	1730.53
866.99	1693.67
867.16	1656.81
867.32	1656.81
867.49	1751.01
867.66	1699.81
867.83	1675.24
867.99	1617.90
868.16	1624.04
868.33	1576.94
868.49	1761.25
868.66	1697.77
868.83	1730.53
868.99	1662.95
869.16	1671.14
869.33	1650.66
869.50	1794.02
869.66	1703.91
869.83	1701.86
870.00	1585.13
870.16	1734.63
870.33	1642.47
870.50	1648.61
870.66	1726.44
870.83	1767.40
871.00	1695.72
871.17	1662.95
871.33	1703.91
871.50	1712.10
871.67	1640.42
871.83	1677.29
872.00	1822.69
872.17	1718.25
872.33	1748.97
872.50	1765.35
872.67	1628.14
872.83	1660.90
873.00	1685.48
873.17	1728.49
873.33	1705.96
873.50	1736.68
873.67	1646.57
873.83	1701.86
874.00	1660.90
874.16	1767.40
874.33	1755.11
874.50	1630.18
874.66	1724.39
874.83	1665.00
875.00	1785.83
875.16	1732.58
875.33	1796.07
875.50	1517.54
875.66	1710.05
875.83	1679.33
875.99	1677.29
876.16	1697.77
876.33	1613.80
876.49	1638.38
876.66	1779.68
876.83	1654.76
876.99	1642.47
877.16	1673.19
877.32	1660.90
877.49	1685.48
877.66	1728.49
877.82	1810.40
877.99	1677.29
878.15	1746.92
878.32	1665.00
878.49	1697.77
878.65	1695.72
878.82	1728.49
878.98	1646.57
879.15	1746.92
879.32	1818.60
879.48	1650.66
879.65	1662.95
879.81	1675.24
879.98	1671.14
880.15	1660.90
880.31	1728.49
880.48	1740.77
880.64	1767.40
880.81	1699.81
880.97	1812.45
881.14	1765.35
881.31	1593.32
881.47	1896.42
881.64	1615.85
881.80	1658.85
881.97	1714.15
882.13	1798.12
882.30	1636.33
882.47	1658.85
882.63	1619.94
882.80	1673.19
882.96	1740.77
883.13	1789.92
883.29	1673.19
883.46	1701.86
883.62	1791.97
883.79	1689.57
883.95	1710.05
884.12	1675.24
884.29	1744.87
884.45	1624.04
884.62	1722.34
884.78	1632.23
884.95	1785.83
885.11	1658.85
885.28	1724.39
885.44	1650.66
885.61	1689.57
885.77	1794.02
885.94	1734.63
886.10	1708.01
886.27	1730.53
886.43	1759.21
886.60	1705.96
886.76	1613.80
886.93	1581.03
887.09	1636.33
887.26	1595.37
887.42	1748.97
887.59	1665.00
887.75	1810.40
887.92	1724.39
888.08	1755.11
888.25	1814.50
888.41	1685.48
888.58	1665.00
888.74	1626.09
888.91	1642.47
>>>>>End Processed Spectral Data<<<<<
