SpectraSuite Data File
++++++++++++++++++++++++++++++++++++
Date: Mon Jun 06 14:47:57 CEST 2016
User: root
Dark Spectrum Present: No
Reference Spectrum Present: No
Number of Sampled Component Spectra: 1
Spectrometers: USB4C02835
Integration Time (usec): 100000 (USB4C02835)
Spectra Averaged: 1 (USB4C02835)
Boxcar Smoothing: 0 (USB4C02835)
Correct for Electrical Dark: No (USB4C02835)
Strobe/Lamp Enabled: No (USB4C02835)
Correct for Detector Non-linearity: No (USB4C02835)
Correct for Stray Light: No (USB4C02835)
Number of Pixels in Processed Spectrum: 3648
>>>>>Begin Processed Spectral Data<<<<<
177.47	1452.01
177.69	1452.01
177.91	1452.01
178.13	1544.17
178.36	1449.96
178.58	1626.09
178.80	1785.83
179.02	1505.26
179.24	1611.75
179.46	1638.38
179.68	1720.29
179.90	1683.43
180.13	1640.42
180.35	1705.96
180.57	1687.53
180.79	1798.12
181.01	1732.58
181.23	1722.34
181.45	1796.07
181.67	1773.54
181.90	1714.15
182.12	1703.91
182.34	1650.66
182.56	1697.77
182.78	1665.00
183.00	1708.01
183.22	1718.25
183.44	1617.90
183.66	1810.40
183.89	1826.79
184.11	1675.24
184.33	1683.43
184.55	1763.30
184.77	1673.19
184.99	1759.21
185.21	1665.00
185.43	1935.33
185.65	1671.14
185.87	1730.53
186.10	1834.98
186.32	1847.27
186.54	1710.05
186.76	1765.35
186.98	1761.25
187.20	1677.29
187.42	1675.24
187.64	1724.39
187.86	1767.40
188.08	1705.96
188.30	1636.33
188.52	1771.49
188.75	1761.25
188.97	1847.27
189.19	1677.29
189.41	1736.68
189.63	1644.52
189.85	1675.24
190.07	1628.14
190.29	1597.42
190.51	1783.78
190.73	1568.74
190.95	1730.53
191.17	1726.44
191.39	1619.94
191.61	1701.86
191.84	1675.24
192.06	1728.49
192.28	1613.80
192.50	1871.84
192.72	1730.53
192.94	1734.63
193.16	1746.92
193.38	1714.15
193.60	1628.14
193.82	1660.90
194.04	1736.68
194.26	1681.38
194.48	1744.87
194.70	1665.00
194.92	1638.38
195.14	1726.44
195.36	1695.72
195.58	1681.38
195.80	1701.86
196.02	1681.38
196.24	1695.72
196.46	1736.68
196.69	1718.25
196.91	1818.60
197.13	1732.58
197.35	1683.43
197.57	1765.35
197.79	1695.72
198.01	1701.86
198.23	1740.77
198.45	1673.19
198.67	1665.00
198.89	1632.23
199.11	1722.34
199.33	1687.53
199.55	1578.98
199.77	1689.57
199.99	1810.40
200.21	1697.77
200.43	1728.49
200.65	1642.47
200.87	1648.61
201.09	1677.29
201.31	1726.44
201.53	1761.25
201.75	1648.61
201.97	1724.39
202.19	1755.11
202.41	1746.92
202.63	1828.84
202.85	1759.21
203.07	1679.33
203.29	1669.09
203.51	1720.29
203.73	1656.81
203.95	1837.03
204.17	1660.90
204.39	1726.44
204.61	1652.71
204.83	1705.96
205.05	1724.39
205.27	1701.86
205.49	1837.03
205.71	1781.73
205.93	1716.20
206.15	1712.10
206.37	1705.96
206.59	1755.11
206.81	1687.53
207.03	1632.23
207.25	1607.66
207.47	1730.53
207.69	1689.57
207.91	1785.83
208.13	1740.77
208.34	1628.14
208.56	1730.53
208.78	1722.34
209.00	1669.09
209.22	1675.24
209.44	1673.19
209.66	1665.00
209.88	1703.91
210.10	1636.33
210.32	1757.16
210.54	1841.12
210.76	1630.18
210.98	1763.30
211.20	1652.71
211.42	1712.10
211.64	1724.39
211.86	1714.15
212.08	1781.73
212.30	1710.05
212.52	1736.68
212.74	1710.05
212.96	1675.24
213.17	1734.63
213.39	1742.82
213.61	1800.16
213.83	1685.48
214.05	1681.38
214.27	1814.50
214.49	1609.70
214.71	1624.04
214.93	1777.64
215.15	1677.29
215.37	1748.97
215.59	1644.52
215.81	1718.25
216.03	1738.73
216.24	1687.53
216.46	1671.14
216.68	1781.73
216.90	1701.86
217.12	1757.16
217.34	1703.91
217.56	1699.81
217.78	1736.68
218.00	1724.39
218.22	1742.82
218.44	1714.15
218.66	1701.86
218.87	1769.44
219.09	1779.68
219.31	1734.63
219.53	1755.11
219.75	1640.42
219.97	1695.72
220.19	1763.30
220.41	1654.76
220.63	1673.19
220.85	1755.11
221.06	1640.42
221.28	1714.15
221.50	1697.77
221.72	1699.81
221.94	1798.12
222.16	1730.53
222.38	1753.06
222.60	1763.30
222.82	1646.57
223.03	1710.05
223.25	1652.71
223.47	1671.14
223.69	1765.35
223.91	1783.78
224.13	1712.10
224.35	1708.01
224.57	1708.01
224.78	1822.69
225.00	1677.29
225.22	1673.19
225.44	1742.82
225.66	1783.78
225.88	1636.33
226.10	1775.59
226.32	1650.66
226.53	1783.78
226.75	1593.32
226.97	1689.57
227.19	1673.19
227.41	1521.64
227.63	1648.61
227.85	1624.04
228.06	1675.24
228.28	1744.87
228.50	1693.67
228.72	1681.38
228.94	1714.15
229.16	1675.24
229.37	1599.46
229.59	1650.66
229.81	1763.30
230.03	1677.29
230.25	1626.09
230.47	1644.52
230.69	1574.89
230.90	1771.49
231.12	1673.19
231.34	1722.34
231.56	1744.87
231.78	1685.48
232.00	1695.72
232.21	1675.24
232.43	1671.14
232.65	1581.03
232.87	1665.00
233.09	1642.47
233.30	1705.96
233.52	1767.40
233.74	1634.28
233.96	1677.29
234.18	1777.64
234.40	1726.44
234.61	1816.55
234.83	1650.66
235.05	1654.76
235.27	1869.80
235.49	1814.50
235.70	1714.15
235.92	1701.86
236.14	1677.29
236.36	1837.03
236.58	1613.80
236.79	1718.25
237.01	1687.53
237.23	1640.42
237.45	1824.74
237.67	1671.14
237.88	1685.48
238.10	1787.88
238.32	1689.57
238.54	1730.53
238.76	1677.29
238.97	1650.66
239.19	1689.57
239.41	1712.10
239.63	1757.16
239.85	1652.71
240.06	1671.14
240.28	1699.81
240.50	1730.53
240.72	1685.48
240.93	1601.51
241.15	1751.01
241.37	1679.33
241.59	1789.92
241.81	1687.53
242.02	1677.29
242.24	1703.91
242.46	1730.53
242.68	1724.39
242.89	1773.54
243.11	1722.34
243.33	1687.53
243.55	1662.95
243.76	1720.29
243.98	1626.09
244.20	1679.33
244.42	1693.67
244.64	1675.24
244.85	1662.95
245.07	1617.90
245.29	1703.91
245.51	1650.66
245.72	1673.19
245.94	1767.40
246.16	1771.49
246.38	1751.01
246.59	1644.52
246.81	1718.25
247.03	1656.81
247.24	1615.85
247.46	1691.62
247.68	1720.29
247.90	1685.48
248.11	1714.15
248.33	1693.67
248.55	1691.62
248.77	1656.81
248.98	1626.09
249.20	1777.64
249.42	1730.53
249.64	1683.43
249.85	1662.95
250.07	1708.01
250.29	1771.49
250.50	1763.30
250.72	1642.47
250.94	1636.33
251.16	1834.98
251.37	1744.87
251.59	1710.05
251.81	1777.64
252.02	1755.11
252.24	1624.04
252.46	1830.88
252.68	1734.63
252.89	1650.66
253.11	1642.47
253.33	1779.68
253.54	1716.20
253.76	1566.70
253.98	1748.97
254.20	1746.92
254.41	1646.57
254.63	1634.28
254.85	1615.85
255.06	1599.46
255.28	1701.86
255.50	1658.85
255.71	1644.52
255.93	1609.70
256.15	1714.15
256.36	1687.53
256.58	1574.89
256.80	1695.72
257.02	1697.77
257.23	1615.85
257.45	1693.67
257.67	1773.54
257.88	1677.29
258.10	1671.14
258.32	1708.01
258.53	1685.48
258.75	1802.21
258.97	1636.33
259.18	1677.29
259.40	1701.86
259.62	1880.04
259.83	1796.07
260.05	1728.49
260.27	1947.62
260.48	1730.53
260.70	1615.85
260.92	1642.47
261.13	1740.77
261.35	1824.74
261.57	1658.85
261.78	1581.03
262.00	1648.61
262.22	1800.16
262.43	1691.62
262.65	1658.85
262.86	1687.53
263.08	1763.30
263.30	1681.38
263.51	1595.37
263.73	1681.38
263.95	1853.41
264.16	1658.85
264.38	1660.90
264.60	1732.58
264.81	1619.94
265.03	1798.12
265.25	1759.21
265.46	1656.81
265.68	1794.02
265.89	1755.11
266.11	1652.71
266.33	1746.92
266.54	1697.77
266.76	1703.91
266.98	1736.68
267.19	1714.15
267.41	1751.01
267.62	1658.85
267.84	1607.66
268.06	1822.69
268.27	1722.34
268.49	1767.40
268.70	1824.74
268.92	1744.87
269.14	1665.00
269.35	1560.55
269.57	1720.29
269.79	1794.02
270.00	1794.02
270.22	1738.73
270.43	1679.33
270.65	1644.52
270.87	1734.63
271.08	1738.73
271.30	1703.91
271.51	1718.25
271.73	1724.39
271.95	1763.30
272.16	1734.63
272.38	1802.21
272.59	1740.77
272.81	1769.44
273.02	1673.19
273.24	1767.40
273.46	1781.73
273.67	1683.43
273.89	1734.63
274.10	1671.14
274.32	1767.40
274.54	1785.83
274.75	1669.09
274.97	1673.19
275.18	1771.49
275.40	1730.53
275.61	1755.11
275.83	1732.58
276.05	1630.18
276.26	1718.25
276.48	1724.39
276.69	1615.85
276.91	1658.85
277.12	1746.92
277.34	1796.07
277.55	1769.44
277.77	1724.39
277.99	1609.70
278.20	1636.33
278.42	1748.97
278.63	1640.42
278.85	1595.37
279.06	1662.95
279.28	1738.73
279.49	1714.15
279.71	1734.63
279.93	1714.15
280.14	1728.49
280.36	1611.75
280.57	1822.69
280.79	1740.77
281.00	1626.09
281.22	1716.20
281.43	1828.84
281.65	1560.55
281.86	1599.46
282.08	1777.64
282.29	1834.98
282.51	1628.14
282.73	1699.81
282.94	1636.33
283.16	1746.92
283.37	1814.50
283.59	1751.01
283.80	1677.29
284.02	1683.43
284.23	1708.01
284.45	1718.25
284.66	1660.90
284.88	1697.77
285.09	1677.29
285.31	1708.01
285.52	1738.73
285.74	1685.48
285.95	1765.35
286.17	1695.72
286.38	1689.57
286.60	1669.09
286.81	1650.66
287.03	1724.39
287.24	1681.38
287.46	1765.35
287.67	1640.42
287.89	1767.40
288.10	1714.15
288.32	1687.53
288.53	1755.11
288.75	1708.01
288.96	1787.88
289.18	1660.90
289.39	1642.47
289.61	1730.53
289.82	1800.16
290.04	1787.88
290.25	1581.03
290.47	1665.00
290.68	1607.66
290.90	1738.73
291.11	1621.99
291.33	1789.92
291.54	1685.48
291.76	1609.70
291.97	1714.15
292.18	1751.01
292.40	1650.66
292.61	1607.66
292.83	1828.84
293.04	1691.62
293.26	1679.33
293.47	1630.18
293.69	1628.14
293.90	1720.29
294.12	1720.29
294.33	1626.09
294.55	1671.14
294.76	1730.53
294.97	1753.06
295.19	1810.40
295.40	1744.87
295.62	1689.57
295.83	1716.20
296.05	1724.39
296.26	1718.25
296.48	1693.67
296.69	1724.39
296.90	1650.66
297.12	1769.44
297.33	1806.31
297.55	1728.49
297.76	1726.44
297.98	1765.35
298.19	1740.77
298.41	1718.25
298.62	1689.57
298.83	1724.39
299.05	1658.85
299.26	1671.14
299.48	1705.96
299.69	1691.62
299.90	1730.53
300.12	1599.46
300.33	1689.57
300.55	1755.11
300.76	1789.92
300.98	1626.09
301.19	1683.43
301.40	1687.53
301.62	1701.86
301.83	1718.25
302.05	1712.10
302.26	1722.34
302.47	1726.44
302.69	1665.00
302.90	1730.53
303.12	1624.04
303.33	1742.82
303.54	1787.88
303.76	1691.62
303.97	1748.97
304.19	1726.44
304.40	1669.09
304.61	1730.53
304.83	1761.25
305.04	1658.85
305.26	1794.02
305.47	1683.43
305.68	1683.43
305.90	1574.89
306.11	1693.67
306.33	1679.33
306.54	1648.61
306.75	1689.57
306.97	1642.47
307.18	1712.10
307.39	1765.35
307.61	1708.01
307.82	1728.49
308.04	1695.72
308.25	1624.04
308.46	1685.48
308.68	1705.96
308.89	1697.77
309.10	1714.15
309.32	1708.01
309.53	1722.34
309.74	1703.91
309.96	1718.25
310.17	1703.91
310.39	1640.42
310.60	1802.21
310.81	1689.57
311.03	1667.05
311.24	1665.00
311.45	1730.53
311.67	1849.32
311.88	1736.68
312.09	1660.90
312.31	1658.85
312.52	1771.49
312.73	1648.61
312.95	1638.38
313.16	1703.91
313.37	1738.73
313.59	1656.81
313.80	1693.67
314.01	1810.40
314.23	1619.94
314.44	1648.61
314.65	1597.42
314.87	1644.52
315.08	1632.23
315.29	1755.11
315.51	1644.52
315.72	1650.66
315.93	1828.84
316.15	1712.10
316.36	1640.42
316.57	1681.38
316.79	1757.16
317.00	1753.06
317.21	1730.53
317.43	1607.66
317.64	1697.77
317.85	1603.56
318.07	1646.57
318.28	1697.77
318.49	1857.51
318.70	1916.90
318.92	1837.03
319.13	1785.83
319.34	1861.60
319.56	1775.59
319.77	1748.97
319.98	1806.31
320.20	1775.59
320.41	1708.01
320.62	1767.40
320.83	1632.23
321.05	1787.88
321.26	1732.58
321.47	1656.81
321.69	1771.49
321.90	1660.90
322.11	1679.33
322.32	1691.62
322.54	1779.68
322.75	1644.52
322.96	1847.27
323.18	1650.66
323.39	1662.95
323.60	1654.76
323.81	1740.77
324.03	1687.53
324.24	1691.62
324.45	1755.11
324.66	1667.05
324.88	1806.31
325.09	1691.62
325.30	1732.58
325.52	1701.86
325.73	1779.68
325.94	1605.61
326.15	1603.56
326.37	1677.29
326.58	1736.68
326.79	1785.83
327.00	1656.81
327.22	1697.77
327.43	1632.23
327.64	1652.71
327.85	1689.57
328.07	1718.25
328.28	1744.87
328.49	1701.86
328.70	1691.62
328.92	1748.97
329.13	1705.96
329.34	1781.73
329.55	1826.79
329.76	1734.63
329.98	1693.67
330.19	1740.77
330.40	1656.81
330.61	1701.86
330.83	1734.63
331.04	1689.57
331.25	1691.62
331.46	1685.48
331.68	1578.98
331.89	1800.16
332.10	1738.73
332.31	1585.13
332.52	1708.01
332.74	1716.20
332.95	1644.52
333.16	1701.86
333.37	1712.10
333.58	1761.25
333.80	1755.11
334.01	1714.15
334.22	1656.81
334.43	1697.77
334.64	1685.48
334.86	1583.08
335.07	1736.68
335.28	1751.01
335.49	1615.85
335.70	1769.44
335.92	1755.11
336.13	1816.55
336.34	1728.49
336.55	1738.73
336.76	1722.34
336.98	1540.07
337.19	1703.91
337.40	1736.68
337.61	1865.70
337.82	1648.61
338.04	1779.68
338.25	1595.37
338.46	1669.09
338.67	1773.54
338.88	1669.09
339.09	1724.39
339.31	1619.94
339.52	1648.61
339.73	1630.18
339.94	1779.68
340.15	1726.44
340.36	1716.20
340.58	1730.53
340.79	1642.47
341.00	1832.93
341.21	1650.66
341.42	1724.39
341.63	1697.77
341.85	1779.68
342.06	1708.01
342.27	1601.51
342.48	1712.10
342.69	1640.42
342.90	1677.29
343.12	1798.12
343.33	1685.48
343.54	1808.36
343.75	1685.48
343.96	1734.63
344.17	1521.64
344.38	1675.24
344.60	1669.09
344.81	1687.53
345.02	1712.10
345.23	1691.62
345.44	1783.78
345.65	1751.01
345.86	1689.57
346.07	1757.16
346.29	1611.75
346.50	1742.82
346.71	1734.63
346.92	1755.11
347.13	1804.26
347.34	1728.49
347.55	1683.43
347.76	1773.54
347.98	1630.18
348.19	1609.70
348.40	1761.25
348.61	1675.24
348.82	1787.88
349.03	1710.05
349.24	1640.42
349.45	1785.83
349.66	1552.36
349.88	1689.57
350.09	1740.77
350.30	1777.64
350.51	1810.40
350.72	1673.19
350.93	1746.92
351.14	1695.72
351.35	1781.73
351.56	1687.53
351.77	1624.04
351.99	1726.44
352.20	1826.79
352.41	1744.87
352.62	1636.33
352.83	1630.18
353.04	1753.06
353.25	1656.81
353.46	1783.78
353.67	1757.16
353.88	1560.55
354.09	1728.49
354.30	1658.85
354.52	1759.21
354.73	1679.33
354.94	1705.96
355.15	1705.96
355.36	1814.50
355.57	1744.87
355.78	1759.21
355.99	1665.00
356.20	1646.57
356.41	1771.49
356.62	1761.25
356.83	1724.39
357.04	1746.92
357.25	1630.18
357.46	1665.00
357.68	1595.37
357.89	1726.44
358.10	1648.61
358.31	1662.95
358.52	1716.20
358.73	1667.05
358.94	1646.57
359.15	1638.38
359.36	1705.96
359.57	1726.44
359.78	1673.19
359.99	1742.82
360.20	1613.80
360.41	1640.42
360.62	1746.92
360.83	1695.72
361.04	1693.67
361.25	1751.01
361.46	1781.73
361.67	1656.81
361.88	1642.47
362.09	1742.82
362.30	1746.92
362.51	1640.42
362.72	1656.81
362.93	1775.59
363.14	1742.82
363.35	1693.67
363.56	1652.71
363.78	1746.92
363.99	1710.05
364.20	1677.29
364.41	1648.61
364.62	1828.84
364.83	1730.53
365.04	1746.92
365.25	1681.38
365.46	1814.50
365.67	1714.15
365.88	1607.66
366.09	1697.77
366.30	1621.99
366.51	1716.20
366.72	1720.29
366.93	1605.61
367.14	1744.87
367.35	1775.59
367.56	1761.25
367.77	1748.97
367.98	1681.38
368.18	1748.97
368.39	1716.20
368.60	1648.61
368.81	1699.81
369.02	1738.73
369.23	1646.57
369.44	1665.00
369.65	1691.62
369.86	1722.34
370.07	1740.77
370.28	1654.76
370.49	1658.85
370.70	1755.11
370.91	1732.58
371.12	1583.08
371.33	1769.44
371.54	1675.24
371.75	1718.25
371.96	1654.76
372.17	1722.34
372.38	1720.29
372.59	1714.15
372.80	1714.15
373.01	1712.10
373.22	1726.44
373.43	1722.34
373.64	1634.28
373.85	1736.68
374.06	1806.31
374.26	1755.11
374.47	1697.77
374.68	1845.22
374.89	1751.01
375.10	1675.24
375.31	1726.44
375.52	1701.86
375.73	1681.38
375.94	1683.43
376.15	1779.68
376.36	1621.99
376.57	1658.85
376.78	1679.33
376.99	1714.15
377.20	1730.53
377.40	1599.46
377.61	1847.27
377.82	1628.14
378.03	1738.73
378.24	1677.29
378.45	1677.29
378.66	1746.92
378.87	1632.23
379.08	1591.27
379.29	1769.44
379.50	1738.73
379.71	1660.90
379.91	1771.49
380.12	1609.70
380.33	1697.77
380.54	1716.20
380.75	1738.73
380.96	1636.33
381.17	1777.64
381.38	1693.67
381.59	1730.53
381.80	1716.20
382.00	1902.56
382.21	1744.87
382.42	1740.77
382.63	1863.65
382.84	1695.72
383.05	1824.74
383.26	1787.88
383.47	1726.44
383.68	1828.84
383.88	1744.87
384.09	1740.77
384.30	1841.12
384.51	1740.77
384.72	1609.70
384.93	1638.38
385.14	1748.97
385.35	1841.12
385.55	1607.66
385.76	1763.30
385.97	1771.49
386.18	1646.57
386.39	1658.85
386.60	1628.14
386.81	1753.06
387.02	1662.95
387.22	1638.38
387.43	1841.12
387.64	1877.99
387.85	1798.12
388.06	2195.42
388.27	4177.86
388.48	6786.97
388.68	8134.53
388.89	9512.81
389.10	9856.87
389.31	8505.21
389.52	7628.68
389.73	6690.71
389.93	6043.56
390.14	5803.94
390.35	5218.22
390.56	4526.01
390.77	3803.08
390.98	2994.13
391.18	2602.97
391.39	2152.42
391.60	1859.56
391.81	1978.34
392.02	1693.67
392.23	1804.26
392.43	1720.29
392.64	1761.25
392.85	1693.67
393.06	1746.92
393.27	1697.77
393.47	1656.81
393.68	1648.61
393.89	1648.61
394.10	1781.73
394.31	1648.61
394.52	1628.14
394.72	1665.00
394.93	1794.02
395.14	1638.38
395.35	1759.21
395.56	1644.52
395.76	1734.63
395.97	1773.54
396.18	1783.78
396.39	1787.88
396.60	2037.73
396.80	1900.52
397.01	1841.12
397.22	1855.46
397.43	1853.41
397.64	1648.61
397.84	1746.92
398.05	1914.85
398.26	1718.25
398.47	1773.54
398.67	1769.44
398.88	1744.87
399.09	1761.25
399.30	1779.68
399.51	1732.58
399.71	1662.95
399.92	1730.53
400.13	1761.25
400.34	1744.87
400.54	1609.70
400.75	1814.50
400.96	1787.88
401.17	1728.49
401.37	1761.25
401.58	1701.86
401.79	1683.43
402.00	1861.60
402.21	2027.49
402.41	1898.47
402.62	2029.54
402.83	1914.85
403.04	2004.96
403.24	2074.59
403.45	1970.15
403.66	1873.89
403.87	1951.71
404.07	1918.95
404.28	1773.54
404.49	1920.99
404.70	1732.58
404.90	1714.15
405.11	1769.44
405.32	1705.96
405.52	1708.01
405.73	1724.39
405.94	1728.49
406.15	1650.66
406.35	1705.96
406.56	1785.83
406.77	1763.30
406.98	1757.16
407.18	1751.01
407.39	1798.12
407.60	1701.86
407.80	1759.21
408.01	1646.57
408.22	1656.81
408.43	1652.71
408.63	1759.21
408.84	1736.68
409.05	1724.39
409.25	1644.52
409.46	1675.24
409.67	1671.14
409.88	1738.73
410.08	1734.63
410.29	1718.25
410.50	1769.44
410.70	1728.49
410.91	1611.75
411.12	1705.96
411.32	1658.85
411.53	1675.24
411.74	1851.36
411.95	1783.78
412.15	1755.11
412.36	1763.30
412.57	1734.63
412.77	1849.32
412.98	1712.10
413.19	1708.01
413.39	1798.12
413.60	1775.59
413.81	1763.30
414.01	1628.14
414.22	1697.77
414.43	1714.15
414.63	1748.97
414.84	1726.44
415.05	1671.14
415.25	1574.89
415.46	1714.15
415.67	1667.05
415.87	1681.38
416.08	1734.63
416.29	1708.01
416.49	1685.48
416.70	1697.77
416.91	1673.19
417.11	1740.77
417.32	1732.58
417.53	1748.97
417.73	1724.39
417.94	1697.77
418.15	1632.23
418.35	1726.44
418.56	1675.24
418.77	1888.23
418.97	1652.71
419.18	1716.20
419.38	1619.94
419.59	1742.82
419.80	1763.30
420.00	1693.67
420.21	1654.76
420.42	1824.74
420.62	1652.71
420.83	1736.68
421.04	1667.05
421.24	1593.32
421.45	1683.43
421.65	1718.25
421.86	1693.67
422.07	1708.01
422.27	1714.15
422.48	1720.29
422.69	1599.46
422.89	1689.57
423.10	1697.77
423.30	1556.46
423.51	1726.44
423.72	1673.19
423.92	1701.86
424.13	1667.05
424.33	1677.29
424.54	1742.82
424.75	1644.52
424.95	1794.02
425.16	1755.11
425.36	1710.05
425.57	1804.26
425.78	1798.12
425.98	1734.63
426.19	1675.24
426.39	1607.66
426.60	1771.49
426.81	1748.97
427.01	1705.96
427.22	1652.71
427.42	1560.55
427.63	1656.81
427.83	1734.63
428.04	1802.21
428.25	1738.73
428.45	1775.59
428.66	1763.30
428.86	1742.82
429.07	1689.57
429.28	1720.29
429.48	1705.96
429.69	1689.57
429.89	1679.33
430.10	1615.85
430.30	1794.02
430.51	1724.39
430.71	1634.28
430.92	1673.19
431.13	1644.52
431.33	1720.29
431.54	1751.01
431.74	1787.88
431.95	1808.36
432.15	1712.10
432.36	1615.85
432.56	1738.73
432.77	1814.50
432.98	1769.44
433.18	1675.24
433.39	1665.00
433.59	1814.50
433.80	1808.36
434.00	1857.51
434.21	1665.00
434.41	1730.53
434.62	1824.74
434.82	1642.47
435.03	1603.56
435.23	1755.11
435.44	1609.70
435.64	1777.64
435.85	1708.01
436.06	1804.26
436.26	1730.53
436.47	1751.01
436.67	1632.23
436.88	1722.34
437.08	1769.44
437.29	1806.31
437.49	1736.68
437.70	1677.29
437.90	1726.44
438.11	1935.33
438.31	1804.26
438.52	1839.08
438.72	1888.23
438.93	1873.89
439.13	1722.34
439.34	1816.55
439.54	1708.01
439.75	1767.40
439.95	1804.26
440.16	1744.87
440.36	1757.16
440.57	1761.25
440.77	1722.34
440.98	1761.25
441.18	1714.15
441.39	1695.72
441.59	1675.24
441.80	1828.84
442.00	1787.88
442.21	1773.54
442.41	1585.13
442.62	1730.53
442.82	1728.49
443.02	1771.49
443.23	1755.11
443.43	1708.01
443.64	1812.45
443.84	1628.14
444.05	1837.03
444.25	1718.25
444.46	1728.49
444.66	1748.97
444.87	1791.97
445.07	1605.61
445.28	1714.15
445.48	1808.36
445.69	1714.15
445.89	1798.12
446.09	1718.25
446.30	2043.87
446.50	2703.32
446.71	3766.21
446.91	4298.69
447.12	4642.75
447.32	4806.58
447.53	4216.77
447.73	3942.34
447.93	3473.36
448.14	3221.45
448.34	3160.02
448.55	2977.75
448.75	2824.15
448.96	2736.09
449.16	2463.71
449.36	2265.05
449.57	2043.87
449.77	1890.28
449.98	1828.84
450.18	1757.16
450.39	1837.03
450.59	1804.26
450.79	1755.11
451.00	1740.77
451.20	1744.87
451.41	1738.73
451.61	1802.21
451.81	1730.53
452.02	1701.86
452.22	1738.73
452.43	1755.11
452.63	1669.09
452.84	1751.01
453.04	1665.00
453.24	1779.68
453.45	1667.05
453.65	1703.91
453.86	1693.67
454.06	1794.02
454.26	1765.35
454.47	1609.70
454.67	1832.93
454.87	1691.62
455.08	1804.26
455.28	1853.41
455.49	1751.01
455.69	1751.01
455.89	1890.28
456.10	1779.68
456.30	1705.96
456.51	1734.63
456.71	1802.21
456.91	1759.21
457.12	1724.39
457.32	1736.68
457.52	1718.25
457.73	1728.49
457.93	1779.68
458.14	1761.25
458.34	1679.33
458.54	1683.43
458.75	1720.29
458.95	1734.63
459.15	1736.68
459.36	1810.40
459.56	1789.92
459.76	1869.80
459.97	1716.20
460.17	1748.97
460.37	1794.02
460.58	1763.30
460.78	1763.30
460.99	1658.85
461.19	1714.15
461.39	1671.14
461.60	1662.95
461.80	1746.92
462.00	1611.75
462.21	1654.76
462.41	1650.66
462.61	1681.38
462.82	1617.90
463.02	1751.01
463.22	1662.95
463.43	1837.03
463.63	1763.30
463.83	1839.08
464.04	1669.09
464.24	1683.43
464.44	1673.19
464.64	1685.48
464.85	1781.73
465.05	1714.15
465.25	1710.05
465.46	1722.34
465.66	1699.81
465.86	1755.11
466.07	1771.49
466.27	1794.02
466.47	1640.42
466.68	1609.70
466.88	1783.78
467.08	1708.01
467.29	1755.11
467.49	1708.01
467.69	1759.21
467.89	1818.60
468.10	1718.25
468.30	1644.52
468.50	1751.01
468.71	1767.40
468.91	1656.81
469.11	1828.84
469.31	1783.78
469.52	1759.21
469.72	1802.21
469.92	1806.31
470.13	1755.11
470.33	1703.91
470.53	1759.21
470.73	2062.30
470.94	2297.82
471.14	2303.96
471.34	2582.49
471.54	2385.88
471.75	2240.48
471.95	2045.92
472.15	2031.58
472.36	2097.12
472.56	2093.02
472.76	2023.39
472.96	2064.35
473.17	1912.80
473.37	1857.51
473.57	1742.82
473.77	1837.03
473.98	1804.26
474.18	1624.04
474.38	1867.75
474.58	1708.01
474.79	1767.40
474.99	1718.25
475.19	1718.25
475.39	1658.85
475.60	1761.25
475.80	1779.68
476.00	1718.25
476.20	1650.66
476.41	1732.58
476.61	1865.70
476.81	1767.40
477.01	1640.42
477.21	1949.67
477.42	1779.68
477.62	1574.89
477.82	1775.59
478.02	1734.63
478.23	1787.88
478.43	1658.85
478.63	1728.49
478.83	1716.20
479.03	1714.15
479.24	1865.70
479.44	1789.92
479.64	1632.23
479.84	1665.00
480.04	1683.43
480.25	1769.44
480.45	1720.29
480.65	1665.00
480.85	1757.16
481.06	1626.09
481.26	1683.43
481.46	1691.62
481.66	1703.91
481.86	1662.95
482.06	1853.41
482.27	1751.01
482.47	1683.43
482.67	1722.34
482.87	1679.33
483.07	1738.73
483.28	1705.96
483.48	1679.33
483.68	1728.49
483.88	1712.10
484.08	1632.23
484.29	1677.29
484.49	1660.90
484.69	1673.19
484.89	1800.16
485.09	1816.55
485.29	1718.25
485.50	1791.97
485.70	1718.25
485.90	1787.88
486.10	1808.36
486.30	1742.82
486.50	1726.44
486.71	1738.73
486.91	1816.55
487.11	1746.92
487.31	1703.91
487.51	1765.35
487.71	1705.96
487.91	1593.32
488.12	1642.47
488.32	1619.94
488.52	1644.52
488.72	1650.66
488.92	1728.49
489.12	1800.16
489.32	1804.26
489.53	1689.57
489.73	1697.77
489.93	1796.07
490.13	1708.01
490.33	1646.57
490.53	1687.53
490.73	1775.59
490.94	1576.94
491.14	1767.40
491.34	1890.28
491.54	2117.60
491.74	2574.30
491.94	2863.06
492.14	3022.80
492.34	2887.64
492.54	2691.03
492.75	2430.94
492.95	2441.18
493.15	2297.82
493.35	2189.28
493.55	2199.52
493.75	2119.65
493.95	2029.54
494.15	2009.06
494.35	1941.47
494.56	1855.46
494.76	1716.20
494.96	1753.06
495.16	1773.54
495.36	1724.39
495.56	1742.82
495.76	1697.77
495.96	1665.00
496.16	1689.57
496.36	1806.31
496.56	1742.82
496.77	1714.15
496.97	1650.66
497.17	1718.25
497.37	1658.85
497.57	1736.68
497.77	1740.77
497.97	1658.85
498.17	1693.67
498.37	1726.44
498.57	1779.68
498.77	1742.82
498.97	1900.52
499.17	1830.88
499.38	1710.05
499.58	1796.07
499.78	1701.86
499.98	1732.58
500.18	1800.16
500.38	1718.25
500.58	1933.28
500.78	2531.29
500.98	4294.59
501.18	5724.07
501.38	6594.46
501.58	7264.15
501.78	6643.61
501.98	5472.17
502.18	4956.08
502.38	4444.09
502.58	4120.51
502.78	3717.06
502.98	3561.42
503.18	3475.40
503.38	3157.97
503.59	2820.05
503.79	2729.94
503.99	2504.67
504.19	2240.48
504.39	2189.28
504.59	2043.87
504.79	2148.32
504.99	2031.58
505.19	1910.75
505.39	1918.95
505.59	2035.68
505.79	1945.57
505.99	1830.88
506.19	1851.36
506.39	1806.31
506.59	1746.92
506.79	1783.78
506.99	1767.40
507.19	1789.92
507.39	1802.21
507.59	1714.15
507.79	1679.33
507.99	1677.29
508.19	1722.34
508.39	1714.15
508.59	1748.97
508.79	1808.36
508.99	1888.23
509.19	1712.10
509.39	1828.84
509.59	1626.09
509.79	1675.24
509.99	1732.58
510.19	1748.97
510.39	1757.16
510.59	1687.53
510.79	1748.97
510.99	1669.09
511.19	1718.25
511.39	1748.97
511.59	1845.22
511.79	1783.78
511.99	1757.16
512.19	1802.21
512.38	1716.20
512.58	1691.62
512.78	1693.67
512.98	1785.83
513.18	1773.54
513.38	1669.09
513.58	1771.49
513.78	1693.67
513.98	1734.63
514.18	1617.90
514.38	1697.77
514.58	1769.44
514.78	1667.05
514.98	1671.14
515.18	1675.24
515.38	1660.90
515.58	1820.64
515.78	1714.15
515.98	1710.05
516.18	1710.05
516.38	1767.40
516.57	1683.43
516.77	1738.73
516.97	1716.20
517.17	1712.10
517.37	1626.09
517.57	1810.40
517.77	1742.82
517.97	1710.05
518.17	1730.53
518.37	1714.15
518.57	1650.66
518.77	1746.92
518.97	1746.92
519.16	1777.64
519.36	1720.29
519.56	1628.14
519.76	1728.49
519.96	1746.92
520.16	1873.89
520.36	1783.78
520.56	1773.54
520.76	1660.90
520.96	1716.20
521.16	1773.54
521.35	1826.79
521.55	1857.51
521.75	1701.86
521.95	1703.91
522.15	1736.68
522.35	1648.61
522.55	1748.97
522.75	1880.04
522.95	1701.86
523.14	1695.72
523.34	1781.73
523.54	1699.81
523.74	1767.40
523.94	1773.54
524.14	1693.67
524.34	1746.92
524.54	1775.59
524.73	1710.05
524.93	1771.49
525.13	1757.16
525.33	1642.47
525.53	1814.50
525.73	1771.49
525.93	1675.24
526.13	1759.21
526.32	1734.63
526.52	1710.05
526.72	1820.64
526.92	1681.38
527.12	1726.44
527.32	1617.90
527.52	1697.77
527.71	1705.96
527.91	1648.61
528.11	1697.77
528.31	1767.40
528.51	1611.75
528.71	1816.55
528.90	1740.77
529.10	1755.11
529.30	1851.36
529.50	1648.61
529.70	1775.59
529.90	1658.85
530.09	1742.82
530.29	1693.67
530.49	1662.95
530.69	1976.29
530.89	1710.05
531.09	1843.17
531.28	1697.77
531.48	1812.45
531.68	1712.10
531.88	1652.71
532.08	1697.77
532.28	1673.19
532.47	1755.11
532.67	1767.40
532.87	1781.73
533.07	1615.85
533.27	1767.40
533.46	1773.54
533.66	1773.54
533.86	1615.85
534.06	1699.81
534.26	1732.58
534.45	1705.96
534.65	1761.25
534.85	1769.44
535.05	1648.61
535.25	1804.26
535.44	1638.38
535.64	1705.96
535.84	1697.77
536.04	1728.49
536.24	1611.75
536.43	1665.00
536.63	1740.77
536.83	1652.71
537.03	1708.01
537.22	1638.38
537.42	1673.19
537.62	1710.05
537.82	1691.62
538.02	1814.50
538.21	1816.55
538.41	1865.70
538.61	1722.34
538.81	1738.73
539.00	1742.82
539.20	1640.42
539.40	1708.01
539.60	1708.01
539.79	1804.26
539.99	1712.10
540.19	1705.96
540.39	1685.48
540.58	1753.06
540.78	1783.78
540.98	1791.97
541.18	1722.34
541.37	1722.34
541.57	1777.64
541.77	1783.78
541.97	1662.95
542.16	1740.77
542.36	1677.29
542.56	1679.33
542.76	1837.03
542.95	1818.60
543.15	1705.96
543.35	1744.87
543.54	1763.30
543.74	1675.24
543.94	1814.50
544.14	1699.81
544.33	1828.84
544.53	1730.53
544.73	1665.00
544.93	1683.43
545.12	1671.14
545.32	1708.01
545.52	1638.38
545.71	1648.61
545.91	1652.71
546.11	1755.11
546.30	1658.85
546.50	1675.24
546.70	1783.78
546.90	1736.68
547.09	1554.41
547.29	1691.62
547.49	1730.53
547.68	1701.86
547.88	1736.68
548.08	1859.56
548.27	2209.76
548.47	1722.34
548.67	1769.44
548.87	1732.58
549.06	1697.77
549.26	1806.31
549.46	1783.78
549.65	1650.66
549.85	1789.92
550.05	1753.06
550.24	1673.19
550.44	1753.06
550.64	1740.77
550.83	1773.54
551.03	1785.83
551.23	1789.92
551.42	1798.12
551.62	1699.81
551.82	1771.49
552.01	1687.53
552.21	1765.35
552.41	1720.29
552.60	1796.07
552.80	1761.25
553.00	1714.15
553.19	1794.02
553.39	1826.79
553.59	1693.67
553.78	1791.97
553.98	1777.64
554.17	1677.29
554.37	1736.68
554.57	1773.54
554.76	1695.72
554.96	1636.33
555.16	1783.78
555.35	1724.39
555.55	1822.69
555.75	1761.25
555.94	1751.01
556.14	1611.75
556.33	1787.88
556.53	1755.11
556.73	1652.71
556.92	1742.82
557.12	1791.97
557.32	1763.30
557.51	1822.69
557.71	1761.25
557.90	1816.55
558.10	1818.60
558.30	1777.64
558.49	1726.44
558.69	1755.11
558.88	1796.07
559.08	1802.21
559.28	1705.96
559.47	1685.48
559.67	1759.21
559.86	1845.22
560.06	1775.59
560.26	1665.00
560.45	1748.97
560.65	1720.29
560.84	1800.16
561.04	1673.19
561.24	1798.12
561.43	1634.28
561.63	1806.31
561.82	1767.40
562.02	1808.36
562.22	1699.81
562.41	1675.24
562.61	1732.58
562.80	1705.96
563.00	1863.65
563.19	1683.43
563.39	1746.92
563.59	1744.87
563.78	1677.29
563.98	1634.28
564.17	1656.81
564.37	1691.62
564.56	1753.06
564.76	1697.77
564.96	1828.84
565.15	1728.49
565.35	1867.75
565.54	1636.33
565.74	1832.93
565.93	1712.10
566.13	1695.72
566.32	1769.44
566.52	1794.02
566.71	1724.39
566.91	1804.26
567.11	1722.34
567.30	1695.72
567.50	1693.67
567.69	1755.11
567.89	1734.63
568.08	1646.57
568.28	1812.45
568.47	1761.25
568.67	1699.81
568.86	1648.61
569.06	1753.06
569.25	1755.11
569.45	1636.33
569.64	1691.62
569.84	1751.01
570.04	1691.62
570.23	1708.01
570.43	1662.95
570.62	1769.44
570.82	1828.84
571.01	1658.85
571.21	1652.71
571.40	1755.11
571.60	1753.06
571.79	1769.44
571.99	1732.58
572.18	1714.15
572.38	1662.95
572.57	1759.21
572.77	1771.49
572.96	1869.80
573.16	1722.34
573.35	1738.73
573.55	1779.68
573.74	1708.01
573.94	1765.35
574.13	1771.49
574.33	1779.68
574.52	1781.73
574.71	1757.16
574.91	1759.21
575.10	1665.00
575.30	1722.34
575.49	1675.24
575.69	1689.57
575.88	1789.92
576.08	1687.53
576.27	1724.39
576.47	1724.39
576.66	1812.45
576.86	1791.97
577.05	1748.97
577.25	1746.92
577.44	1800.16
577.64	1722.34
577.83	1834.98
578.02	1642.47
578.22	1880.04
578.41	1894.37
578.61	1728.49
578.80	1679.33
579.00	1734.63
579.19	1771.49
579.39	1796.07
579.58	1851.36
579.77	1714.15
579.97	1834.98
580.16	1920.99
580.36	1814.50
580.55	1939.43
580.75	1730.53
580.94	1742.82
581.13	1859.56
581.33	1828.84
581.52	1740.77
581.72	1863.65
581.91	1824.74
582.11	1644.52
582.30	1810.40
582.49	1746.92
582.69	1841.12
582.88	1738.73
583.08	1783.78
583.27	1822.69
583.47	1732.58
583.66	1748.97
583.85	1748.97
584.05	1773.54
584.24	1748.97
584.44	1822.69
584.63	1839.08
584.82	1837.03
585.02	1814.50
585.21	1812.45
585.41	1877.99
585.60	1853.41
585.79	1873.89
585.99	1918.95
586.18	1884.13
586.37	2176.99
586.57	3340.24
586.76	9828.20
586.96	24080.02
587.15	34084.34
587.34	40107.42
587.54	41252.23
587.73	36306.39
587.93	26287.73
588.12	21388.99
588.31	18165.48
588.51	16420.61
588.70	15251.22
588.89	14014.25
589.09	12654.40
589.28	10948.44
589.47	9258.87
589.67	7813.00
589.86	6549.40
590.06	5068.72
590.25	3878.85
590.44	3147.73
590.64	2598.87
590.83	2164.70
591.02	2197.47
591.22	1959.91
591.41	1880.04
591.60	1802.21
591.80	1918.95
591.99	1699.81
592.18	1785.83
592.38	1847.27
592.57	1769.44
592.76	1775.59
592.96	1767.40
593.15	1748.97
593.34	1798.12
593.54	1763.30
593.73	1748.97
593.92	1740.77
594.12	1681.38
594.31	1728.49
594.50	1832.93
594.70	1740.77
594.89	1839.08
595.08	1642.47
595.28	1869.80
595.47	1875.94
595.66	1785.83
595.86	1703.91
596.05	1728.49
596.24	1740.77
596.43	1875.94
596.63	1820.64
596.82	1732.58
597.01	1804.26
597.21	1882.08
597.40	1787.88
597.59	1638.38
597.79	1746.92
597.98	1697.77
598.17	1796.07
598.36	1820.64
598.56	1804.26
598.75	1734.63
598.94	1751.01
599.14	1677.29
599.33	1738.73
599.52	1746.92
599.71	1695.72
599.91	1863.65
600.10	1773.54
600.29	1701.86
600.48	1843.17
600.68	1736.68
600.87	1665.00
601.06	1626.09
601.26	1744.87
601.45	1816.55
601.64	1751.01
601.83	1810.40
602.03	1679.33
602.22	1718.25
602.41	1818.60
602.60	1894.37
602.80	1837.03
602.99	1716.20
603.18	1710.05
603.37	1730.53
603.57	1791.97
603.76	1791.97
603.95	1736.68
604.14	1722.34
604.34	1691.62
604.53	1732.58
604.72	1736.68
604.91	1806.31
605.10	1714.15
605.30	1703.91
605.49	1808.36
605.68	1718.25
605.87	1708.01
606.07	1736.68
606.26	1687.53
606.45	1779.68
606.64	1800.16
606.84	1761.25
607.03	1726.44
607.22	1724.39
607.41	1699.81
607.60	1738.73
607.80	1634.28
607.99	1701.86
608.18	1757.16
608.37	1685.48
608.56	1652.71
608.76	1802.21
608.95	1875.94
609.14	1675.24
609.33	1726.44
609.52	1710.05
609.72	1767.40
609.91	1748.97
610.10	1683.43
610.29	1837.03
610.48	1763.30
610.68	1804.26
610.87	1685.48
611.06	1746.92
611.25	1732.58
611.44	1871.84
611.63	1775.59
611.83	1771.49
612.02	1646.57
612.21	1830.88
612.40	1529.83
612.59	1708.01
612.79	1732.58
612.98	1779.68
613.17	1808.36
613.36	1722.34
613.55	1810.40
613.74	1667.05
613.93	1656.81
614.13	1710.05
614.32	1808.36
614.51	1863.65
614.70	1732.58
614.89	1665.00
615.08	1732.58
615.28	2058.21
615.47	1697.77
615.66	1763.30
615.85	1763.30
616.04	1849.32
616.23	1701.86
616.42	1701.86
616.62	1751.01
616.81	1816.55
617.00	1767.40
617.19	1759.21
617.38	1656.81
617.57	1671.14
617.76	1697.77
617.95	1691.62
618.15	1759.21
618.34	1755.11
618.53	1738.73
618.72	1771.49
618.91	1785.83
619.10	1828.84
619.29	1716.20
619.48	1708.01
619.68	1644.52
619.87	1691.62
620.06	1595.37
620.25	1779.68
620.44	1685.48
620.63	1708.01
620.82	1724.39
621.01	1718.25
621.20	1738.73
621.39	1730.53
621.59	1683.43
621.78	1769.44
621.97	1755.11
622.16	1828.84
622.35	1697.77
622.54	1767.40
622.73	1804.26
622.92	1599.46
623.11	1714.15
623.30	1699.81
623.49	1767.40
623.68	1673.19
623.88	1746.92
624.07	1689.57
624.26	1728.49
624.45	1742.82
624.64	1673.19
624.83	1794.02
625.02	1665.00
625.21	1697.77
625.40	1734.63
625.59	1771.49
625.78	1662.95
625.97	1783.78
626.16	1701.86
626.35	1763.30
626.54	1714.15
626.74	1775.59
626.93	1701.86
627.12	1687.53
627.31	1728.49
627.50	1765.35
627.69	1746.92
627.88	1695.72
628.07	1675.24
628.26	1646.57
628.45	1708.01
628.64	1685.48
628.83	1718.25
629.02	1621.99
629.21	1705.96
629.40	1689.57
629.59	1662.95
629.78	1626.09
629.97	1710.05
630.16	1732.58
630.35	1650.66
630.54	1683.43
630.73	1681.38
630.92	1839.08
631.11	1669.09
631.30	1828.84
631.49	1730.53
631.68	1753.06
631.87	1748.97
632.06	1595.37
632.25	1806.31
632.44	1765.35
632.63	1775.59
632.82	1644.52
633.01	1648.61
633.20	1716.20
633.39	1646.57
633.58	1548.26
633.77	1722.34
633.96	1683.43
634.15	1820.64
634.34	1767.40
634.53	1681.38
634.72	1699.81
634.91	1640.42
635.10	1744.87
635.29	1705.96
635.48	1691.62
635.67	1679.33
635.86	1646.57
636.05	1771.49
636.24	1685.48
636.43	1683.43
636.62	1771.49
636.81	1626.09
637.00	1714.15
637.19	1787.88
637.38	1695.72
637.57	1665.00
637.76	1708.01
637.95	1710.05
638.14	1654.76
638.33	1669.09
638.52	1697.77
638.71	1665.00
638.89	1648.61
639.08	1841.12
639.27	1697.77
639.46	1705.96
639.65	1773.54
639.84	1728.49
640.03	1685.48
640.22	1744.87
640.41	1779.68
640.60	1755.11
640.79	1685.48
640.98	1642.47
641.17	1734.63
641.36	1746.92
641.55	1822.69
641.74	1742.82
641.92	1718.25
642.11	1722.34
642.30	1665.00
642.49	1722.34
642.68	1757.16
642.87	1710.05
643.06	1781.73
643.25	1681.38
643.44	1689.57
643.63	1720.29
643.82	1755.11
644.00	1665.00
644.19	1773.54
644.38	1638.38
644.57	1732.58
644.76	1722.34
644.95	1701.86
645.14	1689.57
645.33	1685.48
645.52	1685.48
645.71	1677.29
645.89	1636.33
646.08	1697.77
646.27	1742.82
646.46	1820.64
646.65	1646.57
646.84	1746.92
647.03	1693.67
647.22	1785.83
647.40	1767.40
647.59	1777.64
647.78	1656.81
647.97	1648.61
648.16	1601.51
648.35	1816.55
648.54	1830.88
648.73	1755.11
648.91	1744.87
649.10	1726.44
649.29	1718.25
649.48	1685.48
649.67	1746.92
649.86	1775.59
650.05	1697.77
650.23	1673.19
650.42	1615.85
650.61	1726.44
650.80	1730.53
650.99	1828.84
651.18	1748.97
651.36	1787.88
651.55	1740.77
651.74	1736.68
651.93	1648.61
652.12	1681.38
652.31	1742.82
652.49	1753.06
652.68	1724.39
652.87	1779.68
653.06	1761.25
653.25	1730.53
653.44	1730.53
653.62	1798.12
653.81	1712.10
654.00	1779.68
654.19	1701.86
654.38	1837.03
654.56	1746.92
654.75	1714.15
654.94	1837.03
655.13	1730.53
655.32	1730.53
655.51	1732.58
655.69	1660.90
655.88	1689.57
656.07	1665.00
656.26	1703.91
656.45	1595.37
656.63	1708.01
656.82	1759.21
657.01	1783.78
657.20	1708.01
657.38	1816.55
657.57	1722.34
657.76	1626.09
657.95	1818.60
658.14	1710.05
658.32	1775.59
658.51	1597.42
658.70	1714.15
658.89	1732.58
659.08	1753.06
659.26	1785.83
659.45	1638.38
659.64	1734.63
659.83	1644.52
660.01	1939.43
660.20	1716.20
660.39	1800.16
660.58	1642.47
660.76	1806.31
660.95	1724.39
661.14	1693.67
661.33	1703.91
661.51	1665.00
661.70	1705.96
661.89	1767.40
662.08	1746.92
662.26	1634.28
662.45	1718.25
662.64	1789.92
662.83	1789.92
663.01	1636.33
663.20	1746.92
663.39	1775.59
663.58	1789.92
663.76	1705.96
663.95	1740.77
664.14	1708.01
664.32	1685.48
664.51	1746.92
664.70	1685.48
664.89	1767.40
665.07	1636.33
665.26	1771.49
665.45	1638.38
665.64	1818.60
665.82	1652.71
666.01	1812.45
666.20	1689.57
666.38	1722.34
666.57	1822.69
666.76	2248.67
666.95	4532.15
667.13	10321.76
667.32	15353.62
667.51	18056.94
667.69	18927.33
667.88	17458.93
668.07	12212.04
668.25	9529.20
668.44	8107.91
668.63	7362.45
668.81	6883.22
669.00	6301.60
669.19	5595.05
669.38	4941.75
669.56	4493.24
669.75	3993.54
669.94	3416.01
670.12	2985.94
670.31	2443.23
670.50	2256.86
670.68	2086.88
670.87	1888.23
671.06	1777.64
671.24	1787.88
671.43	1824.74
671.62	1730.53
671.80	1730.53
671.99	1734.63
672.18	1675.24
672.36	1804.26
672.55	1648.61
672.74	1693.67
672.92	1724.39
673.11	1718.25
673.29	1665.00
673.48	1800.16
673.67	1687.53
673.85	1796.07
674.04	1738.73
674.23	1738.73
674.41	1751.01
674.60	1638.38
674.79	1679.33
674.97	1619.94
675.16	1738.73
675.34	1771.49
675.53	1648.61
675.72	1775.59
675.90	1742.82
676.09	1765.35
676.28	1687.53
676.46	1642.47
676.65	1751.01
676.83	1632.23
677.02	1751.01
677.21	1736.68
677.39	1763.30
677.58	1685.48
677.77	1701.86
677.95	1681.38
678.14	1669.09
678.32	1644.52
678.51	1673.19
678.70	1824.74
678.88	1699.81
679.07	1757.16
679.25	1720.29
679.44	1724.39
679.63	1632.23
679.81	1800.16
680.00	1814.50
680.18	1722.34
680.37	1722.34
680.55	1783.78
680.74	1585.13
680.93	1644.52
681.11	1687.53
681.30	1714.15
681.48	1845.22
681.67	1695.72
681.85	1773.54
682.04	1626.09
682.23	1746.92
682.41	1744.87
682.60	1675.24
682.78	1675.24
682.97	1662.95
683.15	1665.00
683.34	1689.57
683.53	1787.88
683.71	1673.19
683.90	1730.53
684.08	1734.63
684.27	1705.96
684.45	1609.70
684.64	1828.84
684.82	1697.77
685.01	1705.96
685.19	1730.53
685.38	1814.50
685.57	1658.85
685.75	1716.20
685.94	1669.09
686.12	1628.14
686.31	1679.33
686.49	1892.32
686.68	1619.94
686.86	1859.56
687.05	1611.75
687.23	1814.50
687.42	1587.18
687.60	1595.37
687.79	1757.16
687.97	1738.73
688.16	1806.31
688.34	1665.00
688.53	1621.99
688.71	1742.82
688.90	1697.77
689.08	1671.14
689.27	1636.33
689.45	1736.68
689.64	1767.40
689.82	1714.15
690.01	1693.67
690.19	1765.35
690.38	1753.06
690.56	1800.16
690.75	1630.18
690.93	1746.92
691.12	1624.04
691.30	1732.58
691.49	1705.96
691.67	1662.95
691.86	1904.61
692.04	1652.71
692.23	1611.75
692.41	1683.43
692.60	1865.70
692.78	1730.53
692.97	1689.57
693.15	1736.68
693.34	1806.31
693.52	1763.30
693.71	1583.08
693.89	1677.29
694.08	1638.38
694.26	1699.81
694.44	1787.88
694.63	1730.53
694.81	1540.07
695.00	1615.85
695.18	1734.63
695.37	1849.32
695.55	1734.63
695.74	1708.01
695.92	1746.92
696.10	1753.06
696.29	1609.70
696.47	1773.54
696.66	1710.05
696.84	1619.94
697.03	1753.06
697.21	1853.41
697.40	2293.72
697.58	1738.73
697.76	1695.72
697.95	1652.71
698.13	1738.73
698.32	1658.85
698.50	1703.91
698.68	1769.44
698.87	1755.11
699.05	1812.45
699.24	1716.20
699.42	1732.58
699.61	1693.67
699.79	1748.97
699.97	1652.71
700.16	1640.42
700.34	1609.70
700.53	1675.24
700.71	1779.68
700.89	1744.87
701.08	1564.65
701.26	1710.05
701.45	2101.22
701.63	1665.00
701.81	1669.09
702.00	1740.77
702.18	1699.81
702.37	1705.96
702.55	1783.78
702.73	1683.43
702.92	1685.48
703.10	1746.92
703.28	1724.39
703.47	1697.77
703.65	1802.21
703.84	1742.82
704.02	1658.85
704.20	1730.53
704.39	1736.68
704.57	1710.05
704.75	1734.63
704.94	1738.73
705.12	1777.64
705.30	1734.63
705.49	2248.67
705.67	4261.82
705.86	9394.03
706.04	12488.51
706.22	14489.38
706.41	15335.19
706.59	13762.35
706.77	9570.16
706.96	7356.30
707.14	6520.73
707.32	5881.77
707.51	5615.53
707.69	5015.48
707.87	4145.09
708.06	3497.93
708.24	2942.93
708.42	2359.26
708.61	2183.13
708.79	1914.85
708.97	1877.99
709.16	1843.17
709.34	1757.16
709.52	1757.16
709.71	1732.58
709.89	1748.97
710.07	1703.91
710.26	1648.61
710.44	1761.25
710.62	1720.29
710.80	1648.61
710.99	1820.64
711.17	1755.11
711.35	1708.01
711.54	1654.76
711.72	1839.08
711.90	1765.35
712.09	1763.30
712.27	1732.58
712.45	1689.57
712.63	1656.81
712.82	1634.28
713.00	1699.81
713.18	1652.71
713.37	1794.02
713.55	1744.87
713.73	1746.92
713.91	1734.63
714.10	1611.75
714.28	1677.29
714.46	1755.11
714.65	1685.48
714.83	1761.25
715.01	1665.00
715.19	1689.57
715.38	1648.61
715.56	1724.39
715.74	1669.09
715.92	1665.00
716.11	1732.58
716.29	1652.71
716.47	1699.81
716.65	1712.10
716.84	1642.47
717.02	1771.49
717.20	1634.28
717.38	1712.10
717.57	1697.77
717.75	1728.49
717.93	1714.15
718.11	1712.10
718.30	1621.99
718.48	1677.29
718.66	1802.21
718.84	1798.12
719.03	1628.14
719.21	1601.51
719.39	1796.07
719.57	1761.25
719.75	1708.01
719.94	1671.14
720.12	1736.68
720.30	1744.87
720.48	1722.34
720.67	1671.14
720.85	1720.29
721.03	1634.28
721.21	1619.94
721.39	1796.07
721.58	1798.12
721.76	1640.42
721.94	1718.25
722.12	1642.47
722.30	1847.27
722.49	1607.66
722.67	1669.09
722.85	1710.05
723.03	1585.13
723.21	1648.61
723.40	1693.67
723.58	1787.88
723.76	1753.06
723.94	1718.25
724.12	1677.29
724.30	1787.88
724.49	1730.53
724.67	1650.66
724.85	1732.58
725.03	1662.95
725.21	1691.62
725.40	1771.49
725.58	1656.81
725.76	1701.86
725.94	1808.36
726.12	1615.85
726.30	1728.49
726.49	1671.14
726.67	1654.76
726.85	1716.20
727.03	1802.21
727.21	2183.13
727.39	2918.36
727.57	3837.89
727.76	4102.08
727.94	4405.18
728.12	4415.42
728.30	3708.87
728.48	2942.93
728.66	2635.74
728.84	2490.33
729.03	2353.12
729.21	2138.08
729.39	1998.82
729.57	1914.85
729.75	1810.40
729.93	1773.54
730.11	1679.33
730.30	1712.10
730.48	1640.42
730.66	1759.21
730.84	1697.77
731.02	1683.43
731.20	1677.29
731.38	1673.19
731.56	1605.61
731.74	1683.43
731.93	1714.15
732.11	1683.43
732.29	1736.68
732.47	1687.53
732.65	1775.59
732.83	1779.68
733.01	1665.00
733.19	1695.72
733.37	1724.39
733.56	1669.09
733.74	1708.01
733.92	1832.93
734.10	1687.53
734.28	1677.29
734.46	1662.95
734.64	1685.48
734.82	1734.63
735.00	1679.33
735.18	1640.42
735.36	1779.68
735.54	1701.86
735.73	1714.15
735.91	1667.05
736.09	1744.87
736.27	1687.53
736.45	1779.68
736.63	1726.44
736.81	1714.15
736.99	1767.40
737.17	1871.84
737.35	1685.48
737.53	1724.39
737.71	1751.01
737.89	1818.60
738.07	1656.81
738.25	1632.23
738.43	1658.85
738.61	1570.79
738.80	1669.09
738.98	1658.85
739.16	1630.18
739.34	1642.47
739.52	1771.49
739.70	1710.05
739.88	1740.77
740.06	1728.49
740.24	1521.64
740.42	1849.32
740.60	1611.75
740.78	1593.32
740.96	1712.10
741.14	1691.62
741.32	1636.33
741.50	1656.81
741.68	1849.32
741.86	1824.74
742.04	1726.44
742.22	1636.33
742.40	1812.45
742.58	1740.77
742.76	1681.38
742.94	1732.58
743.12	1601.51
743.30	1681.38
743.48	1738.73
743.66	1677.29
743.84	1808.36
744.02	1687.53
744.20	1683.43
744.38	1679.33
744.56	1646.57
744.74	1765.35
744.92	1761.25
745.10	1798.12
745.28	1607.66
745.46	1738.73
745.64	1683.43
745.82	1761.25
746.00	1738.73
746.18	1746.92
746.36	1636.33
746.54	1689.57
746.72	1695.72
746.90	1712.10
747.08	1824.74
747.26	1712.10
747.44	1732.58
747.62	1691.62
747.80	1736.68
747.98	1689.57
748.15	1724.39
748.33	1794.02
748.51	1724.39
748.69	1708.01
748.87	1703.91
749.05	1621.99
749.23	1757.16
749.41	1726.44
749.59	1673.19
749.77	1697.77
749.95	1673.19
750.13	1591.27
750.31	1718.25
750.49	1689.57
750.67	1791.97
750.85	1855.46
751.03	1714.15
751.20	1816.55
751.38	1671.14
751.56	1603.56
751.74	1746.92
751.92	1648.61
752.10	1597.42
752.28	1765.35
752.46	1691.62
752.64	1726.44
752.82	1669.09
753.00	1705.96
753.18	1712.10
753.35	1701.86
753.53	1665.00
753.71	1628.14
753.89	1691.62
754.07	1728.49
754.25	1710.05
754.43	1648.61
754.61	1697.77
754.79	1638.38
754.97	1724.39
755.14	1742.82
755.32	1654.76
755.50	1683.43
755.68	1703.91
755.86	1683.43
756.04	1578.98
756.22	1568.74
756.40	1726.44
756.57	1765.35
756.75	1662.95
756.93	1730.53
757.11	1804.26
757.29	1632.23
757.47	1613.80
757.65	1535.98
757.82	1601.51
758.00	1613.80
758.18	1701.86
758.36	1699.81
758.54	1755.11
758.72	1607.66
758.90	1740.77
759.07	1716.20
759.25	1617.90
759.43	1769.44
759.61	1634.28
759.79	2246.62
759.97	1765.35
760.15	1683.43
760.32	1708.01
760.50	1697.77
760.68	1857.51
760.86	1656.81
761.04	1816.55
761.22	1718.25
761.39	1712.10
761.57	1732.58
761.75	1710.05
761.93	1712.10
762.11	1646.57
762.28	1648.61
762.46	1576.94
762.64	1814.50
762.82	1613.80
763.00	1705.96
763.18	1742.82
763.35	1652.71
763.53	1785.83
763.71	1712.10
763.89	1671.14
764.07	1708.01
764.24	1710.05
764.42	1789.92
764.60	1693.67
764.78	1712.10
764.96	1712.10
765.13	1734.63
765.31	1634.28
765.49	1708.01
765.67	1671.14
765.84	1671.14
766.02	1640.42
766.20	1599.46
766.38	1742.82
766.56	1701.86
766.73	1681.38
766.91	1640.42
767.09	1705.96
767.27	1730.53
767.44	1578.98
767.62	1699.81
767.80	1712.10
767.98	1681.38
768.15	1701.86
768.33	1730.53
768.51	1806.31
768.69	1665.00
768.87	1732.58
769.04	1722.34
769.22	1847.27
769.40	1773.54
769.58	1857.51
769.75	1726.44
769.93	1814.50
770.11	1720.29
770.28	1656.81
770.46	1691.62
770.64	1699.81
770.82	1730.53
770.99	1652.71
771.17	1771.49
771.35	1665.00
771.53	1671.14
771.70	1650.66
771.88	1724.39
772.06	1679.33
772.23	1660.90
772.41	1724.39
772.59	1705.96
772.77	1626.09
772.94	1732.58
773.12	1734.63
773.30	1615.85
773.47	1736.68
773.65	1716.20
773.83	1816.55
774.01	1677.29
774.18	1591.27
774.36	1722.34
774.54	1646.57
774.71	1667.05
774.89	1613.80
775.07	1609.70
775.24	1665.00
775.42	1693.67
775.60	1732.58
775.78	1716.20
775.95	1605.61
776.13	1591.27
776.31	1591.27
776.48	1816.55
776.66	1718.25
776.84	1730.53
777.01	1617.90
777.19	1628.14
777.37	1689.57
777.54	1710.05
777.72	1771.49
777.90	1714.15
778.07	1683.43
778.25	1841.12
778.43	1718.25
778.60	1662.95
778.78	1720.29
778.96	1773.54
779.13	1720.29
779.31	1763.30
779.49	1683.43
779.66	1716.20
779.84	1753.06
780.01	1705.96
780.19	1615.85
780.37	1787.88
780.54	1759.21
780.72	1716.20
780.90	1716.20
781.07	1687.53
781.25	1701.86
781.43	1757.16
781.60	1691.62
781.78	1828.84
781.95	1714.15
782.13	1656.81
782.31	1673.19
782.48	1654.76
782.66	1718.25
782.83	1740.77
783.01	1652.71
783.19	1738.73
783.36	1665.00
783.54	1695.72
783.72	1837.03
783.89	1697.77
784.07	1753.06
784.24	1779.68
784.42	1765.35
784.60	1720.29
784.77	1738.73
784.95	1570.79
785.12	1607.66
785.30	1712.10
785.47	1681.38
785.65	1587.18
785.83	1681.38
786.00	1617.90
786.18	1673.19
786.35	1544.17
786.53	1617.90
786.71	1755.11
786.88	1693.67
787.06	1791.97
787.23	1673.19
787.41	1636.33
787.58	1691.62
787.76	1626.09
787.94	1650.66
788.11	1656.81
788.29	1648.61
788.46	1724.39
788.64	1617.90
788.81	1679.33
788.99	1695.72
789.16	1587.18
789.34	1748.97
789.52	1632.23
789.69	1660.90
789.87	1552.36
790.04	1603.56
790.22	1751.01
790.39	1863.65
790.57	1665.00
790.74	1673.19
790.92	1773.54
791.09	1665.00
791.27	1691.62
791.44	1748.97
791.62	1685.48
791.79	1771.49
791.97	1720.29
792.15	1890.28
792.32	1759.21
792.50	1738.73
792.67	1761.25
792.85	1708.01
793.02	1794.02
793.20	1644.52
793.37	1652.71
793.55	1675.24
793.72	1593.32
793.90	1681.38
794.07	1624.04
794.25	1695.72
794.42	1726.44
794.60	1683.43
794.77	1648.61
794.95	1763.30
795.12	1779.68
795.30	1607.66
795.47	1615.85
795.65	1865.70
795.82	1753.06
796.00	1611.75
796.17	1689.57
796.34	1681.38
796.52	1724.39
796.69	1728.49
796.87	1746.92
797.04	1773.54
797.22	1787.88
797.39	1732.58
797.57	1714.15
797.74	1701.86
797.92	1705.96
798.09	1716.20
798.27	1818.60
798.44	1716.20
798.62	1644.52
798.79	1673.19
798.96	1667.05
799.14	1685.48
799.31	1763.30
799.49	1755.11
799.66	1617.90
799.84	1693.67
800.01	1572.84
800.19	1703.91
800.36	1628.14
800.53	1693.67
800.71	1687.53
800.88	1849.32
801.06	1673.19
801.23	1771.49
801.41	1742.82
801.58	1660.90
801.75	1638.38
801.93	1679.33
802.10	1640.42
802.28	1734.63
802.45	1675.24
802.63	1806.31
802.80	1765.35
802.97	1697.77
803.15	1673.19
803.32	1681.38
803.50	1660.90
803.67	1646.57
803.84	1687.53
804.02	1722.34
804.19	1714.15
804.37	1650.66
804.54	1609.70
804.71	1683.43
804.89	1701.86
805.06	1691.62
805.24	1607.66
805.41	1646.57
805.58	1671.14
805.76	1853.41
805.93	1787.88
806.10	1761.25
806.28	1757.16
806.45	1691.62
806.63	1734.63
806.80	1718.25
806.97	1685.48
807.15	1746.92
807.32	1681.38
807.49	1763.30
807.67	1669.09
807.84	1724.39
808.01	1638.38
808.19	1753.06
808.36	1837.03
808.54	1644.52
808.71	1665.00
808.88	1718.25
809.06	1734.63
809.23	1779.68
809.40	1697.77
809.58	1779.68
809.75	1751.01
809.92	1667.05
810.10	1869.80
810.27	1665.00
810.44	1578.98
810.62	1701.86
810.79	1812.45
810.96	1673.19
811.14	1681.38
811.31	1687.53
811.48	1794.02
811.66	1675.24
811.83	1785.83
812.00	1697.77
812.18	1705.96
812.35	1830.88
812.52	1753.06
812.69	1628.14
812.87	1685.48
813.04	1660.90
813.21	1603.56
813.39	1671.14
813.56	1621.99
813.73	1728.49
813.91	1595.37
814.08	1712.10
814.25	1724.39
814.42	1652.71
814.60	1695.72
814.77	1720.29
814.94	1648.61
815.12	1705.96
815.29	1759.21
815.46	1736.68
815.63	1742.82
815.81	1716.20
815.98	1705.96
816.15	1673.19
816.33	1703.91
816.50	1638.38
816.67	1701.86
816.84	1730.53
817.02	1736.68
817.19	1658.85
817.36	1648.61
817.53	1609.70
817.71	1726.44
817.88	1794.02
818.05	1669.09
818.22	1681.38
818.40	1791.97
818.57	1669.09
818.74	1665.00
818.91	1669.09
819.09	1779.68
819.26	1730.53
819.43	1683.43
819.60	1656.81
819.78	1660.90
819.95	1726.44
820.12	1681.38
820.29	1763.30
820.47	1802.21
820.64	1773.54
820.81	1705.96
820.98	1693.67
821.15	1744.87
821.33	1849.32
821.50	1599.46
821.67	1681.38
821.84	1665.00
822.02	1765.35
822.19	1697.77
822.36	1718.25
822.53	1665.00
822.70	1644.52
822.88	1673.19
823.05	1794.02
823.22	1677.29
823.39	1779.68
823.56	1751.01
823.74	1890.28
823.91	1646.57
824.08	1642.47
824.25	1597.42
824.42	1761.25
824.60	1675.24
824.77	1722.34
824.94	1701.86
825.11	1654.76
825.28	1619.94
825.45	1800.16
825.63	1628.14
825.80	1617.90
825.97	1720.29
826.14	1726.44
826.31	1574.89
826.48	1812.45
826.66	1701.86
826.83	1720.29
827.00	1683.43
827.17	1673.19
827.34	1646.57
827.51	1658.85
827.69	1669.09
827.86	1632.23
828.03	1708.01
828.20	1703.91
828.37	1626.09
828.54	1773.54
828.71	1601.51
828.89	1757.16
829.06	1710.05
829.23	1755.11
829.40	1675.24
829.57	1685.48
829.74	1777.64
829.91	1669.09
830.09	1722.34
830.26	1728.49
830.43	1798.12
830.60	1708.01
830.77	1751.01
830.94	1812.45
831.11	1748.97
831.28	1652.71
831.46	1683.43
831.63	1591.27
831.80	1722.34
831.97	1660.90
832.14	1695.72
832.31	1703.91
832.48	1677.29
832.65	1748.97
832.82	1699.81
832.99	1755.11
833.17	1656.81
833.34	1728.49
833.51	1679.33
833.68	1560.55
833.85	1753.06
834.02	1642.47
834.19	1671.14
834.36	1644.52
834.53	1726.44
834.70	1804.26
834.87	1726.44
835.04	1658.85
835.22	1665.00
835.39	1591.27
835.56	1570.79
835.73	1720.29
835.90	1718.25
836.07	1665.00
836.24	1730.53
836.41	1611.75
836.58	1605.61
836.75	1775.59
836.92	1769.44
837.09	1669.09
837.26	1744.87
837.43	1669.09
837.60	1660.90
837.77	1671.14
837.94	1730.53
838.12	1730.53
838.29	1669.09
838.46	1617.90
838.63	1650.66
838.80	1837.03
838.97	1718.25
839.14	1656.81
839.31	1691.62
839.48	1738.73
839.65	1636.33
839.82	1783.78
839.99	1757.16
840.16	1681.38
840.33	1669.09
840.50	1652.71
840.67	1697.77
840.84	1581.03
841.01	1738.73
841.18	1624.04
841.35	1660.90
841.52	1740.77
841.69	1857.51
841.86	1759.21
842.03	1681.38
842.20	1814.50
842.37	1648.61
842.54	1701.86
842.71	1669.09
842.88	1621.99
843.05	1722.34
843.22	1701.86
843.39	1734.63
843.56	1691.62
843.73	1705.96
843.90	1675.24
844.07	1720.29
844.24	1740.77
844.41	1716.20
844.58	1791.97
844.75	1673.19
844.92	1800.16
845.09	1640.42
845.26	1615.85
845.43	1705.96
845.60	1642.47
845.77	1818.60
845.94	1730.53
846.10	1775.59
846.27	1640.42
846.44	1628.14
846.61	1617.90
846.78	1746.92
846.95	1837.03
847.12	1693.67
847.29	1744.87
847.46	1636.33
847.63	1724.39
847.80	1656.81
847.97	1652.71
848.14	1843.17
848.31	1736.68
848.48	1542.12
848.65	1697.77
848.82	1677.29
848.98	1871.84
849.15	1708.01
849.32	1697.77
849.49	1775.59
849.66	1652.71
849.83	1697.77
850.00	1646.57
850.17	1699.81
850.34	1652.71
850.51	1693.67
850.68	1665.00
850.85	1796.07
851.01	1689.57
851.18	1742.82
851.35	1681.38
851.52	1646.57
851.69	1753.06
851.86	1609.70
852.03	1701.86
852.20	1767.40
852.37	1671.14
852.53	1628.14
852.70	1675.24
852.87	1640.42
853.04	1767.40
853.21	1699.81
853.38	1787.88
853.55	1710.05
853.72	1796.07
853.89	1605.61
854.05	1665.00
854.22	1708.01
854.39	1650.66
854.56	1693.67
854.73	1816.55
854.90	1644.52
855.07	1689.57
855.23	1619.94
855.40	1624.04
855.57	1691.62
855.74	1585.13
855.91	1824.74
856.08	1570.79
856.25	1552.36
856.41	1611.75
856.58	1576.94
856.75	1628.14
856.92	1601.51
857.09	1804.26
857.26	1630.18
857.42	1720.29
857.59	1720.29
857.76	1714.15
857.93	1767.40
858.10	1720.29
858.27	1751.01
858.43	1695.72
858.60	1650.66
858.77	1624.04
858.94	1646.57
859.11	1730.53
859.27	1632.23
859.44	1730.53
859.61	1853.41
859.78	1732.58
859.95	1617.90
860.12	1671.14
860.28	1837.03
860.45	1837.03
860.62	1603.56
860.79	1724.39
860.95	1677.29
861.12	1595.37
861.29	1613.80
861.46	1673.19
861.63	1742.82
861.79	1669.09
861.96	1644.52
862.13	1642.47
862.30	1757.16
862.47	1681.38
862.63	1611.75
862.80	1742.82
862.97	1730.53
863.14	1640.42
863.30	1656.81
863.47	1644.52
863.64	1816.55
863.81	1673.19
863.97	1595.37
864.14	1685.48
864.31	1605.61
864.48	1746.92
864.65	1669.09
864.81	1626.09
864.98	1742.82
865.15	1755.11
865.32	1757.16
865.48	1736.68
865.65	1855.46
865.82	1654.76
865.98	1710.05
866.15	1830.88
866.32	1652.71
866.49	1759.21
866.65	1777.64
866.82	1665.00
866.99	1730.53
867.16	1611.75
867.32	1712.10
867.49	1687.53
867.66	1744.87
867.83	1689.57
867.99	1589.22
868.16	1679.33
868.33	1685.48
868.49	1650.66
868.66	1701.86
868.83	1730.53
868.99	1751.01
869.16	1705.96
869.33	1769.44
869.50	1767.40
869.66	1665.00
869.83	1685.48
870.00	1644.52
870.16	1685.48
870.33	1712.10
870.50	1691.62
870.66	1691.62
870.83	1810.40
871.00	1621.99
871.17	1705.96
871.33	1726.44
871.50	1638.38
871.67	1630.18
871.83	1619.94
872.00	1880.04
872.17	1654.76
872.33	1773.54
872.50	1759.21
872.67	1632.23
872.83	1671.14
873.00	1734.63
873.17	1708.01
873.33	1710.05
873.50	1724.39
873.67	1675.24
873.83	1695.72
874.00	1662.95
874.16	1759.21
874.33	1710.05
874.50	1662.95
874.66	1722.34
874.83	1751.01
875.00	1720.29
875.16	1703.91
875.33	1746.92
875.50	1695.72
875.66	1683.43
875.83	1705.96
875.99	1740.77
876.16	1705.96
876.33	1640.42
876.49	1662.95
876.66	1775.59
876.83	1710.05
876.99	1665.00
877.16	1681.38
877.32	1763.30
877.49	1679.33
877.66	1695.72
877.82	1755.11
877.99	1712.10
878.15	1777.64
878.32	1773.54
878.49	1691.62
878.65	1705.96
878.82	1714.15
878.98	1710.05
879.15	1832.93
879.32	1787.88
879.48	1691.62
879.65	1640.42
879.81	1693.67
879.98	1697.77
880.15	1697.77
880.31	1734.63
880.48	1621.99
880.64	1714.15
880.81	1710.05
880.97	1824.74
881.14	1771.49
881.31	1617.90
881.47	1804.26
881.64	1648.61
881.80	1667.05
881.97	1763.30
882.13	1781.73
882.30	1605.61
882.47	1617.90
882.63	1652.71
882.80	1671.14
882.96	1714.15
883.13	1777.64
883.29	1642.47
883.46	1703.91
883.62	1769.44
883.79	1710.05
883.95	1732.58
884.12	1626.09
884.29	1722.34
884.45	1685.48
884.62	1708.01
884.78	1689.57
884.95	1791.97
885.11	1679.33
885.28	1736.68
885.44	1634.28
885.61	1681.38
885.77	1777.64
885.94	1685.48
886.10	1699.81
886.27	1722.34
886.43	1765.35
886.60	1742.82
886.76	1701.86
886.93	1634.28
887.09	1703.91
887.26	1673.19
887.42	1722.34
887.59	1722.34
887.75	1806.31
887.92	1884.13
888.08	1701.86
888.25	1851.36
888.41	1757.16
888.58	1701.86
888.74	1605.61
888.91	1652.71
>>>>>End Processed Spectral Data<<<<<
