SpectraSuite Data File
++++++++++++++++++++++++++++++++++++
Date: Mon Jun 06 13:41:57 CEST 2016
User: root
Dark Spectrum Present: No
Reference Spectrum Present: No
Number of Sampled Component Spectra: 1
Spectrometers: USB4C02835
Integration Time (usec): 100000 (USB4C02835)
Spectra Averaged: 1 (USB4C02835)
Boxcar Smoothing: 0 (USB4C02835)
Correct for Electrical Dark: No (USB4C02835)
Strobe/Lamp Enabled: No (USB4C02835)
Correct for Detector Non-linearity: No (USB4C02835)
Correct for Stray Light: No (USB4C02835)
Number of Pixels in Processed Spectrum: 3648
>>>>>Begin Processed Spectral Data<<<<<
177.47	1468.39
177.69	1468.39
177.91	1468.39
178.13	1417.19
178.36	1486.83
178.58	1679.33
178.80	1695.72
179.02	1650.66
179.24	1613.80
179.46	1669.09
179.68	1718.25
179.90	1669.09
180.13	1755.11
180.35	1693.67
180.57	1722.34
180.79	1714.15
181.01	1662.95
181.23	1769.44
181.45	1763.30
181.67	1734.63
181.90	1732.58
182.12	1671.14
182.34	1689.57
182.56	1755.11
182.78	1781.73
183.00	1677.29
183.22	1669.09
183.44	1566.70
183.66	1890.28
183.89	1767.40
184.11	1669.09
184.33	1789.92
184.55	1740.77
184.77	1718.25
184.99	1714.15
185.21	1693.67
185.43	1834.98
185.65	1634.28
185.87	1724.39
186.10	1722.34
186.32	1771.49
186.54	1738.73
186.76	1714.15
186.98	1708.01
187.20	1697.77
187.42	1712.10
187.64	1714.15
187.86	1771.49
188.08	1708.01
188.30	1685.48
188.52	1691.62
188.75	1738.73
188.97	1751.01
189.19	1662.95
189.41	1761.25
189.63	1710.05
189.85	1712.10
190.07	1714.15
190.29	1624.04
190.51	1685.48
190.73	1662.95
190.95	1744.87
191.17	1677.29
191.39	1615.85
191.61	1605.61
191.84	1652.71
192.06	1767.40
192.28	1656.81
192.50	1861.60
192.72	1687.53
192.94	1665.00
193.16	1734.63
193.38	1642.47
193.60	1660.90
193.82	1681.38
194.04	1736.68
194.26	1646.57
194.48	1667.05
194.70	1716.20
194.92	1648.61
195.14	1699.81
195.36	1644.52
195.58	1703.91
195.80	1665.00
196.02	1650.66
196.24	1720.29
196.46	1785.83
196.69	1648.61
196.91	1839.08
197.13	1710.05
197.35	1626.09
197.57	1818.60
197.79	1734.63
198.01	1705.96
198.23	1767.40
198.45	1755.11
198.67	1638.38
198.89	1662.95
199.11	1734.63
199.33	1681.38
199.55	1566.70
199.77	1697.77
199.99	1740.77
200.21	1708.01
200.43	1710.05
200.65	1632.23
200.87	1632.23
201.09	1742.82
201.31	1652.71
201.53	1755.11
201.75	1802.21
201.97	1644.52
202.19	1681.38
202.41	1710.05
202.63	1890.28
202.85	1705.96
203.07	1714.15
203.29	1660.90
203.51	1601.51
203.73	1628.14
203.95	1929.19
204.17	1699.81
204.39	1718.25
204.61	1720.29
204.83	1628.14
205.05	1675.24
205.27	1685.48
205.49	1796.07
205.71	1660.90
205.93	1605.61
206.15	1685.48
206.37	1638.38
206.59	1607.66
206.81	1658.85
207.03	1607.66
207.25	1605.61
207.47	1714.15
207.69	1695.72
207.91	1845.22
208.13	1751.01
208.34	1699.81
208.56	1550.31
208.78	1794.02
209.00	1529.83
209.22	1681.38
209.44	1746.92
209.66	1748.97
209.88	1650.66
210.10	1734.63
210.32	1740.77
210.54	1841.12
210.76	1712.10
210.98	1769.44
211.20	1578.98
211.42	1722.34
211.64	1832.93
211.86	1662.95
212.08	1665.00
212.30	1763.30
212.52	1671.14
212.74	1630.18
212.96	1697.77
213.17	1734.63
213.39	1757.16
213.61	1828.84
213.83	1636.33
214.05	1619.94
214.27	1759.21
214.49	1652.71
214.71	1675.24
214.93	1755.11
215.15	1669.09
215.37	1734.63
215.59	1603.56
215.81	1679.33
216.03	1728.49
216.24	1724.39
216.46	1744.87
216.68	1693.67
216.90	1738.73
217.12	1779.68
217.34	1724.39
217.56	1712.10
217.78	1781.73
218.00	1728.49
218.22	1691.62
218.44	1724.39
218.66	1695.72
218.87	1783.78
219.09	1689.57
219.31	1742.82
219.53	1751.01
219.75	1687.53
219.97	1691.62
220.19	1740.77
220.41	1665.00
220.63	1789.92
220.85	1755.11
221.06	1697.77
221.28	1726.44
221.50	1722.34
221.72	1699.81
221.94	1746.92
222.16	1689.57
222.38	1753.06
222.60	1693.67
222.82	1705.96
223.03	1775.59
223.25	1628.14
223.47	1710.05
223.69	1757.16
223.91	1708.01
224.13	1701.86
224.35	1660.90
224.57	1820.64
224.78	1718.25
225.00	1681.38
225.22	1660.90
225.44	1609.70
225.66	1695.72
225.88	1693.67
226.10	1777.64
226.32	1701.86
226.53	1728.49
226.75	1632.23
226.97	1638.38
227.19	1718.25
227.41	1687.53
227.63	1710.05
227.85	1617.90
228.06	1746.92
228.28	1669.09
228.50	1746.92
228.72	1613.80
228.94	1693.67
229.16	1574.89
229.37	1691.62
229.59	1630.18
229.81	1810.40
230.03	1712.10
230.25	1554.41
230.47	1605.61
230.69	1681.38
230.90	1746.92
231.12	1669.09
231.34	1705.96
231.56	1767.40
231.78	1583.08
232.00	1683.43
232.21	1701.86
232.43	1726.44
232.65	1554.41
232.87	1673.19
233.09	1617.90
233.30	1689.57
233.52	1675.24
233.74	1708.01
233.96	1675.24
234.18	1652.71
234.40	1722.34
234.61	1884.13
234.83	1638.38
235.05	1615.85
235.27	1837.03
235.49	1744.87
235.70	1667.05
235.92	1798.12
236.14	1646.57
236.36	1861.60
236.58	1685.48
236.79	1730.53
237.01	1744.87
237.23	1691.62
237.45	1761.25
237.67	1636.33
237.88	1650.66
238.10	1781.73
238.32	1695.72
238.54	1656.81
238.76	1656.81
238.97	1667.05
239.19	1703.91
239.41	1701.86
239.63	1746.92
239.85	1767.40
240.06	1736.68
240.28	1728.49
240.50	1691.62
240.72	1630.18
240.93	1656.81
241.15	1701.86
241.37	1595.37
241.59	1746.92
241.81	1683.43
242.02	1626.09
242.24	1730.53
242.46	1759.21
242.68	1576.94
242.89	1634.28
243.11	1730.53
243.33	1705.96
243.55	1732.58
243.76	1701.86
243.98	1705.96
244.20	1708.01
244.42	1763.30
244.64	1759.21
244.85	1636.33
245.07	1693.67
245.29	1820.64
245.51	1777.64
245.72	1687.53
245.94	1808.36
246.16	1724.39
246.38	1789.92
246.59	1677.29
246.81	1658.85
247.03	1677.29
247.24	1609.70
247.46	1675.24
247.68	1701.86
247.90	1699.81
248.11	1716.20
248.33	1730.53
248.55	1718.25
248.77	1673.19
248.98	1804.26
249.20	1859.56
249.42	1595.37
249.64	1763.30
249.85	1728.49
250.07	1675.24
250.29	1732.58
250.50	1728.49
250.72	1599.46
250.94	1746.92
251.16	1787.88
251.37	1726.44
251.59	1781.73
251.81	1744.87
252.02	1779.68
252.24	1736.68
252.46	1804.26
252.68	1648.61
252.89	1648.61
253.11	1535.98
253.33	1820.64
253.54	1777.64
253.76	1665.00
253.98	1710.05
254.20	1656.81
254.41	1681.38
254.63	1634.28
254.85	1595.37
255.06	1718.25
255.28	1722.34
255.50	1646.57
255.71	1648.61
255.93	1656.81
256.15	1578.98
256.36	1687.53
256.58	1591.27
256.80	1738.73
257.02	1667.05
257.23	1669.09
257.45	1656.81
257.67	1730.53
257.88	1642.47
258.10	1665.00
258.32	1734.63
258.53	1722.34
258.75	1726.44
258.97	1673.19
259.18	1744.87
259.40	1708.01
259.62	1839.08
259.83	1722.34
260.05	1728.49
260.27	1927.14
260.48	1724.39
260.70	1662.95
260.92	1689.57
261.13	1685.48
261.35	1718.25
261.57	1722.34
261.78	1607.66
262.00	1703.91
262.22	1681.38
262.43	1667.05
262.65	1785.83
262.86	1615.85
263.08	1875.94
263.30	1748.97
263.51	1613.80
263.73	1720.29
263.95	1787.88
264.16	1648.61
264.38	1687.53
264.60	1763.30
264.81	1689.57
265.03	1734.63
265.25	1744.87
265.46	1722.34
265.68	1742.82
265.89	1710.05
266.11	1593.32
266.33	1751.01
266.54	1699.81
266.76	1726.44
266.98	1673.19
267.19	1812.45
267.41	1783.78
267.62	1730.53
267.84	1619.94
268.06	1740.77
268.27	1736.68
268.49	1724.39
268.70	1769.44
268.92	1673.19
269.14	1603.56
269.35	1695.72
269.57	1695.72
269.79	1742.82
270.00	1724.39
270.22	1828.84
270.43	1671.14
270.65	1544.17
270.87	1708.01
271.08	1800.16
271.30	1708.01
271.51	1605.61
271.73	1806.31
271.95	1804.26
272.16	1710.05
272.38	1695.72
272.59	1718.25
272.81	1722.34
273.02	1738.73
273.24	1693.67
273.46	1775.59
273.67	1624.04
273.89	1617.90
274.10	1634.28
274.32	1820.64
274.54	1581.03
274.75	1732.58
274.97	1671.14
275.18	1755.11
275.40	1722.34
275.61	1658.85
275.83	1673.19
276.05	1691.62
276.26	1642.47
276.48	1753.06
276.69	1617.90
276.91	1640.42
277.12	1779.68
277.34	1802.21
277.55	1771.49
277.77	1748.97
277.99	1642.47
278.20	1679.33
278.42	1652.71
278.63	1599.46
278.85	1705.96
279.06	1646.57
279.28	1705.96
279.49	1736.68
279.71	1726.44
279.93	1722.34
280.14	1718.25
280.36	1748.97
280.57	1656.81
280.79	1724.39
281.00	1658.85
281.22	1656.81
281.43	1744.87
281.65	1640.42
281.86	1673.19
282.08	1603.56
282.29	1757.16
282.51	1632.23
282.73	1691.62
282.94	1660.90
283.16	1779.68
283.37	1800.16
283.59	1646.57
283.80	1683.43
284.02	1730.53
284.23	1734.63
284.45	1656.81
284.66	1669.09
284.88	1744.87
285.09	1828.84
285.31	1718.25
285.52	1736.68
285.74	1574.89
285.95	1767.40
286.17	1732.58
286.38	1695.72
286.60	1595.37
286.81	1691.62
287.03	1757.16
287.24	1705.96
287.46	1810.40
287.67	1697.77
287.89	1800.16
288.10	1624.04
288.32	1724.39
288.53	1814.50
288.75	1693.67
288.96	1701.86
289.18	1681.38
289.39	1712.10
289.61	1693.67
289.82	1804.26
290.04	1855.46
290.25	1660.90
290.47	1665.00
290.68	1658.85
290.90	1732.58
291.11	1679.33
291.33	1701.86
291.54	1607.66
291.76	1791.97
291.97	1681.38
292.18	1681.38
292.40	1691.62
292.61	1630.18
292.83	1818.60
293.04	1703.91
293.26	1673.19
293.47	1730.53
293.69	1597.42
293.90	1677.29
294.12	1767.40
294.33	1710.05
294.55	1763.30
294.76	1738.73
294.97	1748.97
295.19	1718.25
295.40	1650.66
295.62	1705.96
295.83	1716.20
296.05	1744.87
296.26	1785.83
296.48	1665.00
296.69	1699.81
296.90	1628.14
297.12	1697.77
297.33	1740.77
297.55	1712.10
297.76	1703.91
297.98	1724.39
298.19	1667.05
298.41	1632.23
298.62	1718.25
298.83	1777.64
299.05	1697.77
299.26	1689.57
299.48	1644.52
299.69	1683.43
299.90	1712.10
300.12	1652.71
300.33	1724.39
300.55	1771.49
300.76	1703.91
300.98	1660.90
301.19	1759.21
301.40	1724.39
301.62	1699.81
301.83	1685.48
302.05	1722.34
302.26	1730.53
302.47	1714.15
302.69	1628.14
302.90	1748.97
303.12	1527.78
303.33	1730.53
303.54	1716.20
303.76	1632.23
303.97	1738.73
304.19	1847.27
304.40	1677.29
304.61	1804.26
304.83	1763.30
305.04	1724.39
305.26	1789.92
305.47	1671.14
305.68	1755.11
305.90	1607.66
306.11	1685.48
306.33	1785.83
306.54	1656.81
306.75	1695.72
306.97	1566.70
307.18	1687.53
307.39	1705.96
307.61	1738.73
307.82	1652.71
308.04	1761.25
308.25	1691.62
308.46	1746.92
308.68	1705.96
308.89	1728.49
309.10	1724.39
309.32	1726.44
309.53	1728.49
309.74	1660.90
309.96	1621.99
310.17	1820.64
310.39	1693.67
310.60	1738.73
310.81	1669.09
311.03	1632.23
311.24	1740.77
311.45	1722.34
311.67	1804.26
311.88	1753.06
312.09	1650.66
312.31	1607.66
312.52	1650.66
312.73	1722.34
312.95	1632.23
313.16	1605.61
313.37	1824.74
313.59	1757.16
313.80	1689.57
314.01	1751.01
314.23	1601.51
314.44	1652.71
314.65	1665.00
314.87	1708.01
315.08	1701.86
315.29	1652.71
315.51	1628.14
315.72	1669.09
315.93	1781.73
316.15	1740.77
316.36	1685.48
316.57	1691.62
316.79	1718.25
317.00	1730.53
317.21	1714.15
317.43	1671.14
317.64	1757.16
317.85	1724.39
318.07	1658.85
318.28	1734.63
318.49	1746.92
318.70	1865.70
318.92	1841.12
319.13	1789.92
319.34	1796.07
319.56	1814.50
319.77	1837.03
319.98	1779.68
320.20	1746.92
320.41	1765.35
320.62	1771.49
320.83	1642.47
321.05	1841.12
321.26	1728.49
321.47	1724.39
321.69	1695.72
321.90	1665.00
322.11	1718.25
322.32	1652.71
322.54	1777.64
322.75	1662.95
322.96	1841.12
323.18	1564.65
323.39	1587.18
323.60	1685.48
323.81	1765.35
324.03	1630.18
324.24	1734.63
324.45	1712.10
324.66	1603.56
324.88	1843.17
325.09	1753.06
325.30	1687.53
325.52	1697.77
325.73	1705.96
325.94	1603.56
326.15	1601.51
326.37	1652.71
326.58	1726.44
326.79	1791.97
327.00	1570.79
327.22	1693.67
327.43	1769.44
327.64	1638.38
327.85	1798.12
328.07	1665.00
328.28	1845.22
328.49	1683.43
328.70	1669.09
328.92	1652.71
329.13	1665.00
329.34	1730.53
329.55	1773.54
329.76	1767.40
329.98	1738.73
330.19	1755.11
330.40	1722.34
330.61	1708.01
330.83	1757.16
331.04	1705.96
331.25	1773.54
331.46	1705.96
331.68	1656.81
331.89	1722.34
332.10	1705.96
332.31	1642.47
332.52	1685.48
332.74	1736.68
332.95	1662.95
333.16	1669.09
333.37	1742.82
333.58	1626.09
333.80	1763.30
334.01	1708.01
334.22	1685.48
334.43	1640.42
334.64	1693.67
334.86	1613.80
335.07	1624.04
335.28	1787.88
335.49	1656.81
335.70	1716.20
335.92	1748.97
336.13	1857.51
336.34	1697.77
336.55	1656.81
336.76	1746.92
336.98	1648.61
337.19	1705.96
337.40	1675.24
337.61	1859.56
337.82	1738.73
338.04	1767.40
338.25	1683.43
338.46	1660.90
338.67	1667.05
338.88	1716.20
339.09	1667.05
339.31	1660.90
339.52	1658.85
339.73	1585.13
339.94	1728.49
340.15	1652.71
340.36	1675.24
340.58	1673.19
340.79	1705.96
341.00	1714.15
341.21	1673.19
341.42	1740.77
341.63	1777.64
341.85	1794.02
342.06	1712.10
342.27	1554.41
342.48	1732.58
342.69	1632.23
342.90	1669.09
343.12	1703.91
343.33	1726.44
343.54	1781.73
343.75	1775.59
343.96	1753.06
344.17	1677.29
344.38	1693.67
344.60	1619.94
344.81	1658.85
345.02	1646.57
345.23	1804.26
345.44	1777.64
345.65	1685.48
345.86	1675.24
346.07	1609.70
346.29	1671.14
346.50	1751.01
346.71	1708.01
346.92	1755.11
347.13	1787.88
347.34	1685.48
347.55	1673.19
347.76	1736.68
347.98	1632.23
348.19	1730.53
348.40	1732.58
348.61	1683.43
348.82	1812.45
349.03	1683.43
349.24	1611.75
349.45	1791.97
349.66	1679.33
349.88	1677.29
350.09	1732.58
350.30	1800.16
350.51	1744.87
350.72	1710.05
350.93	1673.19
351.14	1658.85
351.35	1791.97
351.56	1701.86
351.77	1730.53
351.99	1740.77
352.20	1875.94
352.41	1785.83
352.62	1578.98
352.83	1689.57
353.04	1716.20
353.25	1591.27
353.46	1708.01
353.67	1712.10
353.88	1607.66
354.09	1783.78
354.30	1695.72
354.52	1648.61
354.73	1751.01
354.94	1681.38
355.15	1763.30
355.36	1722.34
355.57	1689.57
355.78	1699.81
355.99	1726.44
356.20	1720.29
356.41	1800.16
356.62	1712.10
356.83	1665.00
357.04	1828.84
357.25	1703.91
357.46	1671.14
357.68	1581.03
357.89	1665.00
358.10	1669.09
358.31	1693.67
358.52	1683.43
358.73	1601.51
358.94	1638.38
359.15	1677.29
359.36	1783.78
359.57	1656.81
359.78	1691.62
359.99	1757.16
360.20	1689.57
360.41	1736.68
360.62	1714.15
360.83	1691.62
361.04	1644.52
361.25	1716.20
361.46	1757.16
361.67	1644.52
361.88	1757.16
362.09	1724.39
362.30	1677.29
362.51	1679.33
362.72	1648.61
362.93	1718.25
363.14	1806.31
363.35	1710.05
363.56	1708.01
363.78	1791.97
363.99	1744.87
364.20	1628.14
364.41	1685.48
364.62	1787.88
364.83	1679.33
365.04	1609.70
365.25	1621.99
365.46	1828.84
365.67	1665.00
365.88	1619.94
366.09	1671.14
366.30	1615.85
366.51	1773.54
366.72	1646.57
366.93	1693.67
367.14	1669.09
367.35	1828.84
367.56	1730.53
367.77	1816.55
367.98	1619.94
368.18	1685.48
368.39	1732.58
368.60	1634.28
368.81	1744.87
369.02	1714.15
369.23	1701.86
369.44	1562.60
369.65	1679.33
369.86	1753.06
370.07	1732.58
370.28	1597.42
370.49	1714.15
370.70	1722.34
370.91	1619.94
371.12	1597.42
371.33	1814.50
371.54	1685.48
371.75	1824.74
371.96	1624.04
372.17	1656.81
372.38	1732.58
372.59	1677.29
372.80	1621.99
373.01	1718.25
373.22	1714.15
373.43	1632.23
373.64	1701.86
373.85	1673.19
374.06	1798.12
374.26	1667.05
374.47	1662.95
374.68	1806.31
374.89	1689.57
375.10	1689.57
375.31	1820.64
375.52	1697.77
375.73	1630.18
375.94	1605.61
376.15	1808.36
376.36	1646.57
376.57	1673.19
376.78	1716.20
376.99	1730.53
377.20	1746.92
377.40	1638.38
377.61	1884.13
377.82	1568.74
378.03	1767.40
378.24	1718.25
378.45	1658.85
378.66	1732.58
378.87	1574.89
379.08	1648.61
379.29	1640.42
379.50	1794.02
379.71	1769.44
379.91	1714.15
380.12	1693.67
380.33	1710.05
380.54	1712.10
380.75	1781.73
380.96	1662.95
381.17	1796.07
381.38	1689.57
381.59	1697.77
381.80	1697.77
382.00	1923.04
382.21	1779.68
382.42	1771.49
382.63	1869.80
382.84	1730.53
383.05	1728.49
383.26	1783.78
383.47	1771.49
383.68	1773.54
383.88	1673.19
384.09	1787.88
384.30	1740.77
384.51	1730.53
384.72	1697.77
384.93	1648.61
385.14	1648.61
385.35	1757.16
385.55	1646.57
385.76	1824.74
385.97	1634.28
386.18	1681.38
386.39	1662.95
386.60	1683.43
386.81	1736.68
387.02	1650.66
387.22	1669.09
387.43	1775.59
387.64	1759.21
387.85	1894.37
388.06	2267.10
388.27	4245.44
388.48	6911.89
388.68	8195.97
388.89	9568.11
389.10	9789.29
389.31	8560.51
389.52	7651.21
389.73	6592.41
389.93	6328.22
390.14	5820.33
390.35	5195.70
390.56	4429.76
390.77	3801.03
390.98	2975.70
391.18	2471.90
391.39	2156.51
391.60	1802.21
391.81	1857.51
392.02	1695.72
392.23	1800.16
392.43	1736.68
392.64	1824.74
392.85	1789.92
393.06	1798.12
393.27	1611.75
393.47	1759.21
393.68	1759.21
393.89	1728.49
394.10	1771.49
394.31	1730.53
394.52	1601.51
394.72	1636.33
394.93	1849.32
395.14	1669.09
395.35	1734.63
395.56	1660.90
395.76	1705.96
395.97	1748.97
396.18	1794.02
396.39	1806.31
396.60	2009.06
396.80	1939.43
397.01	1857.51
397.22	1875.94
397.43	1794.02
397.64	1753.06
397.84	1787.88
398.05	1832.93
398.26	1740.77
398.47	1701.86
398.67	1869.80
398.88	1689.57
399.09	1746.92
399.30	1722.34
399.51	1724.39
399.71	1650.66
399.92	1646.57
400.13	1705.96
400.34	1675.24
400.54	1751.01
400.75	1826.79
400.96	1746.92
401.17	1753.06
401.37	1802.21
401.58	1757.16
401.79	1757.16
402.00	1843.17
402.21	1994.72
402.41	1990.63
402.62	1998.82
402.83	2072.54
403.04	1996.77
403.24	2045.92
403.45	1820.64
403.66	1927.14
403.87	1892.32
404.07	1845.22
404.28	1902.56
404.49	1820.64
404.70	1767.40
404.90	1761.25
405.11	1734.63
405.32	1783.78
405.52	1697.77
405.73	1695.72
405.94	1691.62
406.15	1701.86
406.35	1738.73
406.56	1757.16
406.77	1736.68
406.98	1652.71
407.18	1695.72
407.39	1798.12
407.60	1712.10
407.80	1705.96
408.01	1693.67
408.22	1703.91
408.43	1724.39
408.63	1728.49
408.84	1822.69
409.05	1714.15
409.25	1703.91
409.46	1703.91
409.67	1683.43
409.88	1798.12
410.08	1724.39
410.29	1675.24
410.50	1771.49
410.70	1744.87
410.91	1671.14
411.12	1771.49
411.32	1701.86
411.53	1724.39
411.74	1744.87
411.95	1718.25
412.15	1718.25
412.36	1740.77
412.57	1779.68
412.77	1822.69
412.98	1689.57
413.19	1730.53
413.39	1667.05
413.60	1726.44
413.81	1802.21
414.01	1636.33
414.22	1728.49
414.43	1755.11
414.63	1765.35
414.84	1847.27
415.05	1800.16
415.25	1566.70
415.46	1808.36
415.67	1658.85
415.87	1748.97
416.08	1708.01
416.29	1644.52
416.49	1736.68
416.70	1656.81
416.91	1703.91
417.11	1697.77
417.32	1740.77
417.53	1753.06
417.73	1791.97
417.94	1701.86
418.15	1730.53
418.35	1705.96
418.56	1691.62
418.77	1851.36
418.97	1705.96
419.18	1697.77
419.38	1548.26
419.59	1708.01
419.80	1759.21
420.00	1644.52
420.21	1685.48
420.42	1775.59
420.62	1771.49
420.83	1634.28
421.04	1705.96
421.24	1689.57
421.45	1761.25
421.65	1669.09
421.86	1665.00
422.07	1748.97
422.27	1783.78
422.48	1669.09
422.69	1636.33
422.89	1677.29
423.10	1716.20
423.30	1587.18
423.51	1720.29
423.72	1695.72
423.92	1771.49
424.13	1667.05
424.33	1777.64
424.54	1818.60
424.75	1734.63
424.95	1818.60
425.16	1710.05
425.36	1736.68
425.57	1742.82
425.78	1691.62
425.98	1771.49
426.19	1656.81
426.39	1673.19
426.60	1730.53
426.81	1818.60
427.01	1722.34
427.22	1669.09
427.42	1626.09
427.63	1722.34
427.83	1728.49
428.04	1853.41
428.25	1746.92
428.45	1728.49
428.66	1785.83
428.86	1687.53
429.07	1607.66
429.28	1732.58
429.48	1738.73
429.69	1669.09
429.89	1718.25
430.10	1652.71
430.30	1849.32
430.51	1832.93
430.71	1665.00
430.92	1708.01
431.13	1683.43
431.33	1716.20
431.54	1710.05
431.74	1800.16
431.95	1814.50
432.15	1665.00
432.36	1685.48
432.56	1736.68
432.77	1781.73
432.98	1837.03
433.18	1693.67
433.39	1734.63
433.59	1744.87
433.80	1861.60
434.00	1843.17
434.21	1656.81
434.41	1640.42
434.62	1847.27
434.82	1617.90
435.03	1728.49
435.23	1730.53
435.44	1613.80
435.64	1794.02
435.85	1685.48
436.06	1791.97
436.26	1763.30
436.47	1697.77
436.67	1630.18
436.88	1691.62
437.08	1771.49
437.29	1783.78
437.49	1705.96
437.70	1820.64
437.90	1681.38
438.11	1951.71
438.31	1814.50
438.52	1806.31
438.72	1861.60
438.93	1904.61
439.13	1740.77
439.34	1861.60
439.54	1734.63
439.75	1804.26
439.95	1730.53
440.16	1652.71
440.36	1812.45
440.57	1789.92
440.77	1732.58
440.98	1728.49
441.18	1808.36
441.39	1744.87
441.59	1609.70
441.80	1781.73
442.00	1705.96
442.21	1839.08
442.41	1691.62
442.62	1734.63
442.82	1665.00
443.02	1730.53
443.23	1683.43
443.43	1746.92
443.64	1834.98
443.84	1669.09
444.05	1853.41
444.25	1689.57
444.46	1677.29
444.66	1730.53
444.87	1806.31
445.07	1648.61
445.28	1710.05
445.48	1779.68
445.69	1656.81
445.89	1755.11
446.09	1730.53
446.30	1986.53
446.50	2631.64
446.71	3698.63
446.91	4179.90
447.12	4605.88
447.32	4825.01
447.53	4468.67
447.73	3803.08
447.93	3459.02
448.14	3213.26
448.34	3110.86
448.55	2828.24
448.75	2809.81
448.96	2740.18
449.16	2340.83
449.36	2334.68
449.57	2023.39
449.77	1892.32
449.98	1841.12
450.18	1796.07
450.39	1882.08
450.59	1867.75
450.79	1681.38
451.00	1687.53
451.20	1763.30
451.41	1736.68
451.61	1734.63
451.81	1718.25
452.02	1787.88
452.22	1658.85
452.43	1699.81
452.63	1701.86
452.84	1699.81
453.04	1798.12
453.24	1699.81
453.45	1730.53
453.65	1726.44
453.86	1767.40
454.06	1769.44
454.26	1746.92
454.47	1632.23
454.67	1748.97
454.87	1761.25
455.08	1775.59
455.28	1748.97
455.49	1757.16
455.69	1767.40
455.89	1863.65
456.10	1812.45
456.30	1757.16
456.51	1755.11
456.71	1712.10
456.91	1796.07
457.12	1640.42
457.32	1783.78
457.52	1689.57
457.73	1847.27
457.93	1779.68
458.14	1673.19
458.34	1656.81
458.54	1738.73
458.75	1648.61
458.95	1755.11
459.15	1718.25
459.36	1753.06
459.56	1763.30
459.76	1828.84
459.97	1675.24
460.17	1722.34
460.37	1744.87
460.58	1712.10
460.78	1775.59
460.99	1681.38
461.19	1724.39
461.39	1699.81
461.60	1685.48
461.80	1718.25
462.00	1603.56
462.21	1716.20
462.41	1677.29
462.61	1703.91
462.82	1609.70
463.02	1771.49
463.22	1730.53
463.43	1773.54
463.63	1742.82
463.83	1767.40
464.04	1720.29
464.24	1705.96
464.44	1679.33
464.64	1701.86
464.85	1744.87
465.05	1804.26
465.25	1751.01
465.46	1693.67
465.66	1748.97
465.86	1726.44
466.07	1779.68
466.27	1755.11
466.47	1650.66
466.68	1679.33
466.88	1816.55
467.08	1738.73
467.29	1794.02
467.49	1697.77
467.69	1679.33
467.89	1724.39
468.10	1732.58
468.30	1757.16
468.50	1744.87
468.71	1755.11
468.91	1605.61
469.11	1820.64
469.31	1755.11
469.52	1656.81
469.72	1828.84
469.92	1787.88
470.13	1730.53
470.33	1783.78
470.53	1824.74
470.73	2031.58
470.94	2297.82
471.14	2332.64
471.34	2527.19
471.54	2383.84
471.75	2160.61
471.95	2166.75
472.15	2011.11
472.36	2029.54
472.56	2017.25
472.76	2082.78
472.96	2033.63
473.17	1988.58
473.37	1869.80
473.57	1722.34
473.77	1859.56
473.98	1802.21
474.18	1673.19
474.38	1871.84
474.58	1771.49
474.79	1638.38
474.99	1791.97
475.19	1730.53
475.39	1652.71
475.60	1732.58
475.80	1738.73
476.00	1607.66
476.20	1665.00
476.41	1751.01
476.61	1812.45
476.81	1814.50
477.01	1714.15
477.21	1806.31
477.42	1812.45
477.62	1685.48
477.82	1720.29
478.02	1734.63
478.23	1802.21
478.43	1693.67
478.63	1699.81
478.83	1734.63
479.03	1724.39
479.24	1748.97
479.44	1869.80
479.64	1648.61
479.84	1669.09
480.04	1642.47
480.25	1830.88
480.45	1652.71
480.65	1673.19
480.85	1765.35
481.06	1718.25
481.26	1716.20
481.46	1691.62
481.66	1732.58
481.86	1556.46
482.06	1718.25
482.27	1708.01
482.47	1681.38
482.67	1665.00
482.87	1748.97
483.07	1796.07
483.28	1673.19
483.48	1609.70
483.68	1701.86
483.88	1617.90
484.08	1613.80
484.29	1638.38
484.49	1701.86
484.69	1693.67
484.89	1812.45
485.09	1789.92
485.29	1796.07
485.50	1673.19
485.70	1708.01
485.90	1781.73
486.10	1701.86
486.30	1781.73
486.50	1779.68
486.71	1693.67
486.91	1779.68
487.11	1798.12
487.31	1634.28
487.51	1656.81
487.71	1693.67
487.91	1660.90
488.12	1656.81
488.32	1564.65
488.52	1646.57
488.72	1581.03
488.92	1677.29
489.12	1757.16
489.32	1722.34
489.53	1796.07
489.73	1652.71
489.93	1853.41
490.13	1699.81
490.33	1634.28
490.53	1767.40
490.73	1777.64
490.94	1621.99
491.14	1724.39
491.34	1847.27
491.54	2090.98
491.74	2527.19
491.94	2889.68
492.14	3037.14
492.34	2942.93
492.54	2799.57
492.75	2486.23
492.95	2375.64
493.15	2267.10
493.35	2240.48
493.55	2246.62
493.75	2146.27
493.95	2150.37
494.15	1994.72
494.35	1900.52
494.56	1841.12
494.76	1767.40
494.96	1767.40
495.16	1783.78
495.36	1710.05
495.56	1710.05
495.76	1705.96
495.96	1769.44
496.16	1570.79
496.36	1841.12
496.56	1683.43
496.77	1783.78
496.97	1685.48
497.17	1832.93
497.37	1650.66
497.57	1712.10
497.77	1677.29
497.97	1648.61
498.17	1677.29
498.37	1734.63
498.57	1849.32
498.77	1730.53
498.97	1785.83
499.17	1828.84
499.38	1734.63
499.58	1730.53
499.78	1773.54
499.98	1767.40
500.18	1701.86
500.38	1718.25
500.58	1900.52
500.78	2576.34
500.98	4458.43
501.18	5744.55
501.38	6608.80
501.58	7026.58
501.78	6721.43
501.98	5484.46
502.18	4929.46
502.38	4337.60
502.58	4067.27
502.78	3704.78
502.98	3774.41
503.18	3338.19
503.38	3221.45
503.59	2752.47
503.79	2645.98
503.99	2525.15
504.19	2263.01
504.39	2232.29
504.59	2164.70
504.79	2133.98
504.99	1992.67
505.19	1900.52
505.39	1849.32
505.59	1968.10
505.79	1910.75
505.99	1824.74
506.19	1763.30
506.39	1906.66
506.59	1726.44
506.79	1751.01
506.99	1818.60
507.19	1687.53
507.39	1816.55
507.59	1683.43
507.79	1722.34
507.99	1746.92
508.19	1828.84
508.39	1769.44
508.59	1751.01
508.79	1824.74
508.99	1871.84
509.19	1654.76
509.39	1730.53
509.59	1724.39
509.79	1687.53
509.99	1740.77
510.19	1734.63
510.39	1757.16
510.59	1697.77
510.79	1705.96
510.99	1667.05
511.19	1742.82
511.39	1837.03
511.59	1884.13
511.79	1769.44
511.99	1705.96
512.19	1886.18
512.38	1841.12
512.58	1705.96
512.78	1708.01
512.98	1697.77
513.18	1845.22
513.38	1697.77
513.58	1755.11
513.78	1720.29
513.98	1687.53
514.18	1722.34
514.38	1753.06
514.58	1753.06
514.78	1615.85
514.98	1697.77
515.18	1757.16
515.38	1613.80
515.58	1849.32
515.78	1679.33
515.98	1724.39
516.18	1759.21
516.38	1683.43
516.57	1654.76
516.77	1677.29
516.97	1783.78
517.17	1662.95
517.37	1673.19
517.57	1740.77
517.77	1765.35
517.97	1665.00
518.17	1812.45
518.37	1667.05
518.57	1677.29
518.77	1708.01
518.97	1701.86
519.16	1769.44
519.36	1748.97
519.56	1775.59
519.76	1636.33
519.96	1814.50
520.16	1773.54
520.36	1634.28
520.56	1837.03
520.76	1650.66
520.96	1816.55
521.16	1759.21
521.35	1781.73
521.55	1804.26
521.75	1677.29
521.95	1683.43
522.15	1736.68
522.35	1613.80
522.55	1685.48
522.75	1816.55
522.95	1693.67
523.14	1677.29
523.34	1699.81
523.54	1748.97
523.74	1748.97
523.94	1751.01
524.14	1726.44
524.34	1730.53
524.54	1748.97
524.73	1771.49
524.93	1777.64
525.13	1634.28
525.33	1638.38
525.53	1904.61
525.73	1804.26
525.93	1732.58
526.13	1677.29
526.32	1703.91
526.52	1736.68
526.72	1769.44
526.92	1642.47
527.12	1667.05
527.32	1552.36
527.52	1779.68
527.71	1812.45
527.91	1701.86
528.11	1703.91
528.31	1699.81
528.51	1642.47
528.71	1841.12
528.90	1834.98
529.10	1796.07
529.30	1718.25
529.50	1708.01
529.70	1683.43
529.90	1630.18
530.09	1738.73
530.29	1628.14
530.49	1691.62
530.69	1859.56
530.89	1746.92
531.09	1789.92
531.28	1757.16
531.48	1742.82
531.68	1738.73
531.88	1712.10
532.08	1773.54
532.28	1765.35
532.47	1791.97
532.67	1779.68
532.87	1732.58
533.07	1695.72
533.27	1812.45
533.46	1724.39
533.66	1781.73
533.86	1654.76
534.06	1757.16
534.26	1796.07
534.45	1677.29
534.65	1787.88
534.85	1726.44
535.05	1705.96
535.25	1734.63
535.44	1638.38
535.64	1748.97
535.84	1675.24
536.04	1716.20
536.24	1669.09
536.43	1697.77
536.63	1767.40
536.83	1716.20
537.03	1710.05
537.22	1650.66
537.42	1601.51
537.62	1730.53
537.82	1730.53
538.02	1787.88
538.21	1882.08
538.41	1923.04
538.61	1742.82
538.81	1644.52
539.00	1806.31
539.20	1650.66
539.40	1722.34
539.60	1714.15
539.79	1849.32
539.99	1660.90
540.19	1683.43
540.39	1677.29
540.58	1746.92
540.78	1781.73
540.98	1773.54
541.18	1767.40
541.37	1789.92
541.57	1671.14
541.77	1771.49
541.97	1763.30
542.16	1646.57
542.36	1689.57
542.56	1730.53
542.76	1877.99
542.95	1800.16
543.15	1789.92
543.35	1767.40
543.54	1660.90
543.74	1652.71
543.94	1806.31
544.14	1746.92
544.33	1769.44
544.53	1710.05
544.73	1677.29
544.93	1691.62
545.12	1726.44
545.32	1783.78
545.52	1771.49
545.71	1634.28
545.91	1679.33
546.11	1738.73
546.30	1691.62
546.50	1763.30
546.70	1755.11
546.90	1716.20
547.09	1611.75
547.29	1640.42
547.49	1794.02
547.68	1705.96
547.88	1726.44
548.08	1765.35
548.27	2156.51
548.47	1656.81
548.67	1703.91
548.87	1783.78
549.06	1779.68
549.26	1769.44
549.46	1779.68
549.65	1697.77
549.85	1832.93
550.05	1769.44
550.24	1585.13
550.44	1755.11
550.64	1763.30
550.83	1755.11
551.03	1806.31
551.23	1755.11
551.42	1796.07
551.62	1724.39
551.82	1693.67
552.01	1716.20
552.21	1753.06
552.41	1791.97
552.60	1816.55
552.80	1785.83
553.00	1732.58
553.19	1779.68
553.39	1822.69
553.59	1658.85
553.78	1736.68
553.98	1763.30
554.17	1646.57
554.37	1777.64
554.57	1763.30
554.76	1624.04
554.96	1703.91
555.16	1824.74
555.35	1791.97
555.55	1761.25
555.75	1738.73
555.94	1730.53
556.14	1691.62
556.33	1763.30
556.53	1720.29
556.73	1656.81
556.92	1826.79
557.12	1810.40
557.32	1808.36
557.51	1794.02
557.71	1779.68
557.90	1824.74
558.10	1832.93
558.30	1675.24
558.49	1677.29
558.69	1652.71
558.88	1689.57
559.08	1722.34
559.28	1699.81
559.47	1761.25
559.67	1779.68
559.86	1832.93
560.06	1777.64
560.26	1742.82
560.45	1734.63
560.65	1669.09
560.84	1814.50
561.04	1705.96
561.24	1773.54
561.43	1642.47
561.63	1826.79
561.82	1822.69
562.02	1728.49
562.22	1693.67
562.41	1705.96
562.61	1757.16
562.80	1701.86
563.00	1830.88
563.19	1775.59
563.39	1742.82
563.59	1791.97
563.78	1785.83
563.98	1595.37
564.17	1652.71
564.37	1638.38
564.56	1720.29
564.76	1687.53
564.96	1865.70
565.15	1759.21
565.35	1814.50
565.54	1695.72
565.74	1773.54
565.93	1783.78
566.13	1665.00
566.32	1773.54
566.52	1771.49
566.71	1734.63
566.91	1753.06
567.11	1650.66
567.30	1679.33
567.50	1769.44
567.69	1828.84
567.89	1681.38
568.08	1689.57
568.28	1783.78
568.47	1660.90
568.67	1730.53
568.86	1708.01
569.06	1822.69
569.25	1708.01
569.45	1658.85
569.64	1660.90
569.84	1703.91
570.04	1789.92
570.23	1712.10
570.43	1646.57
570.62	1708.01
570.82	1763.30
571.01	1705.96
571.21	1636.33
571.40	1662.95
571.60	1826.79
571.79	1761.25
571.99	1701.86
572.18	1775.59
572.38	1740.77
572.57	1716.20
572.77	1767.40
572.96	1882.08
573.16	1740.77
573.35	1654.76
573.55	1757.16
573.74	1789.92
573.94	1773.54
574.13	1716.20
574.33	1775.59
574.52	1769.44
574.71	1738.73
574.91	1830.88
575.10	1636.33
575.30	1660.90
575.49	1710.05
575.69	1669.09
575.88	1722.34
576.08	1804.26
576.27	1771.49
576.47	1689.57
576.66	1796.07
576.86	1781.73
577.05	1744.87
577.25	1730.53
577.44	1857.51
577.64	1703.91
577.83	1791.97
578.02	1783.78
578.22	1796.07
578.41	1882.08
578.61	1687.53
578.80	1642.47
579.00	1746.92
579.19	1748.97
579.39	1804.26
579.58	1789.92
579.77	1744.87
579.97	1738.73
580.16	1730.53
580.36	1820.64
580.55	1751.01
580.75	1798.12
580.94	1861.60
581.13	1839.08
581.33	1810.40
581.52	1697.77
581.72	1796.07
581.91	1828.84
582.11	1757.16
582.30	1767.40
582.49	1748.97
582.69	1775.59
582.88	1710.05
583.08	1740.77
583.27	1732.58
583.47	1773.54
583.66	1765.35
583.85	1714.15
584.05	1748.97
584.24	1820.64
584.44	1771.49
584.63	1837.03
584.82	1779.68
585.02	1873.89
585.21	1824.74
585.41	1785.83
585.60	1789.92
585.79	1886.18
585.99	1910.75
586.18	1851.36
586.37	2189.28
586.57	3325.90
586.76	9916.26
586.96	24456.84
587.15	34321.91
587.34	40537.49
587.54	42548.60
587.73	36666.83
587.93	26207.86
588.12	21677.75
588.31	18265.83
588.51	16437.00
588.70	14972.70
588.89	14438.18
589.09	12449.60
589.28	11007.83
589.47	9602.93
589.67	8009.61
589.86	6385.57
590.06	5001.14
590.25	3903.43
590.44	3119.06
590.64	2510.81
590.83	2320.35
591.02	2056.16
591.22	1920.99
591.41	1869.80
591.60	1720.29
591.80	1949.67
591.99	1751.01
592.18	1794.02
592.38	1828.84
592.57	1746.92
592.76	1804.26
592.96	1822.69
593.15	1767.40
593.34	1767.40
593.54	1779.68
593.73	1718.25
593.92	1728.49
594.12	1712.10
594.31	1726.44
594.50	1804.26
594.70	1773.54
594.89	1880.04
595.08	1632.23
595.28	1775.59
595.47	1904.61
595.66	1781.73
595.86	1632.23
596.05	1710.05
596.24	1691.62
596.43	1859.56
596.63	1863.65
596.82	1822.69
597.01	1791.97
597.21	1779.68
597.40	1775.59
597.59	1744.87
597.79	1705.96
597.98	1759.21
598.17	1736.68
598.36	1759.21
598.56	1738.73
598.75	1662.95
598.94	1714.15
599.14	1718.25
599.33	1724.39
599.52	1773.54
599.71	1650.66
599.91	1714.15
600.10	1814.50
600.29	1806.31
600.48	1740.77
600.68	1812.45
600.87	1677.29
601.06	1660.90
601.26	1748.97
601.45	1755.11
601.64	1671.14
601.83	1732.58
602.03	1724.39
602.22	1683.43
602.41	1755.11
602.60	1869.80
602.80	1761.25
602.99	1751.01
603.18	1708.01
603.37	1769.44
603.57	1738.73
603.76	1816.55
603.95	1734.63
604.14	1722.34
604.34	1730.53
604.53	1744.87
604.72	1759.21
604.91	1798.12
605.10	1753.06
605.30	1679.33
605.49	1794.02
605.68	1847.27
605.87	1800.16
606.07	1621.99
606.26	1738.73
606.45	1773.54
606.64	1755.11
606.84	1697.77
607.03	1732.58
607.22	1732.58
607.41	1712.10
607.60	1757.16
607.80	1779.68
607.99	1791.97
608.18	1703.91
608.37	1740.77
608.56	1757.16
608.76	1746.92
608.95	1875.94
609.14	1687.53
609.33	1771.49
609.52	1730.53
609.72	1744.87
609.91	1820.64
610.10	1712.10
610.29	1757.16
610.48	1728.49
610.68	1771.49
610.87	1812.45
611.06	1705.96
611.25	1710.05
611.44	1798.12
611.63	1687.53
611.83	1820.64
612.02	1628.14
612.21	1810.40
612.40	1744.87
612.59	1630.18
612.79	1677.29
612.98	1681.38
613.17	1794.02
613.36	1736.68
613.55	1736.68
613.74	1683.43
613.93	1746.92
614.13	1765.35
614.32	1638.38
614.51	1785.83
614.70	1695.72
614.89	1718.25
615.08	1738.73
615.28	1998.82
615.47	1660.90
615.66	1787.88
615.85	1701.86
616.04	1755.11
616.23	1796.07
616.42	1751.01
616.62	1699.81
616.81	1697.77
617.00	1667.05
617.19	1734.63
617.38	1787.88
617.57	1714.15
617.76	1687.53
617.95	1701.86
618.15	1746.92
618.34	1822.69
618.53	1583.08
618.72	1775.59
618.91	1789.92
619.10	1847.27
619.29	1710.05
619.48	1740.77
619.68	1607.66
619.87	1708.01
620.06	1640.42
620.25	1728.49
620.44	1662.95
620.63	1701.86
620.82	1675.24
621.01	1708.01
621.20	1732.58
621.39	1738.73
621.59	1818.60
621.78	1718.25
621.97	1675.24
622.16	1820.64
622.35	1714.15
622.54	1812.45
622.73	1763.30
622.92	1744.87
623.11	1785.83
623.30	1730.53
623.49	1728.49
623.68	1697.77
623.88	1732.58
624.07	1673.19
624.26	1744.87
624.45	1746.92
624.64	1726.44
624.83	1716.20
625.02	1728.49
625.21	1724.39
625.40	1658.85
625.59	1769.44
625.78	1697.77
625.97	1785.83
626.16	1845.22
626.35	1816.55
626.54	1726.44
626.74	1742.82
626.93	1685.48
627.12	1695.72
627.31	1726.44
627.50	1798.12
627.69	1718.25
627.88	1689.57
628.07	1650.66
628.26	1710.05
628.45	1720.29
628.64	1726.44
628.83	1775.59
629.02	1650.66
629.21	1796.07
629.40	1730.53
629.59	1679.33
629.78	1751.01
629.97	1744.87
630.16	1689.57
630.35	1673.19
630.54	1703.91
630.73	1699.81
630.92	1679.33
631.11	1595.37
631.30	1734.63
631.49	1767.40
631.68	1697.77
631.87	1761.25
632.06	1697.77
632.25	1820.64
632.44	1710.05
632.63	1734.63
632.82	1689.57
633.01	1558.50
633.20	1716.20
633.39	1755.11
633.58	1654.76
633.77	1763.30
633.96	1705.96
634.15	1761.25
634.34	1820.64
634.53	1732.58
634.72	1708.01
634.91	1650.66
635.10	1757.16
635.29	1810.40
635.48	1753.06
635.67	1701.86
635.86	1669.09
636.05	1800.16
636.24	1796.07
636.43	1693.67
636.62	1791.97
636.81	1609.70
637.00	1748.97
637.19	1783.78
637.38	1738.73
637.57	1699.81
637.76	1626.09
637.95	1705.96
638.14	1687.53
638.33	1755.11
638.52	1712.10
638.71	1669.09
638.89	1642.47
639.08	1822.69
639.27	1738.73
639.46	1667.05
639.65	1791.97
639.84	1736.68
640.03	1785.83
640.22	1679.33
640.41	1742.82
640.60	1636.33
640.79	1662.95
640.98	1652.71
641.17	1718.25
641.36	1669.09
641.55	1759.21
641.74	1660.90
641.92	1619.94
642.11	1701.86
642.30	1646.57
642.49	1615.85
642.68	1656.81
642.87	1728.49
643.06	1755.11
643.25	1675.24
643.44	1712.10
643.63	1681.38
643.82	1660.90
644.00	1640.42
644.19	1740.77
644.38	1667.05
644.57	1779.68
644.76	1720.29
644.95	1699.81
645.14	1769.44
645.33	1705.96
645.52	1673.19
645.71	1687.53
645.89	1605.61
646.08	1677.29
646.27	1636.33
646.46	1916.90
646.65	1636.33
646.84	1693.67
647.03	1691.62
647.22	1751.01
647.40	1673.19
647.59	1697.77
647.78	1632.23
647.97	1628.14
648.16	1708.01
648.35	1757.16
648.54	1816.55
648.73	1673.19
648.91	1837.03
649.10	1728.49
649.29	1675.24
649.48	1667.05
649.67	1710.05
649.86	1724.39
650.05	1697.77
650.23	1761.25
650.42	1689.57
650.61	1808.36
650.80	1730.53
650.99	1855.46
651.18	1755.11
651.36	1783.78
651.55	1718.25
651.74	1814.50
651.93	1603.56
652.12	1787.88
652.31	1677.29
652.49	1667.05
652.68	1720.29
652.87	1730.53
653.06	1777.64
653.25	1746.92
653.44	1763.30
653.62	1757.16
653.81	1654.76
654.00	1765.35
654.19	1718.25
654.38	1814.50
654.56	1726.44
654.75	1697.77
654.94	1753.06
655.13	1726.44
655.32	1773.54
655.51	1701.86
655.69	1712.10
655.88	1714.15
656.07	1728.49
656.26	1708.01
656.45	1654.76
656.63	1755.11
656.82	1677.29
657.01	1775.59
657.20	1632.23
657.38	1806.31
657.57	1617.90
657.76	1619.94
657.95	1724.39
658.14	1654.76
658.32	1791.97
658.51	1746.92
658.70	1810.40
658.89	1619.94
659.08	1683.43
659.26	1763.30
659.45	1613.80
659.64	1751.01
659.83	1656.81
660.01	1935.33
660.20	1677.29
660.39	1751.01
660.58	1658.85
660.76	1804.26
660.95	1644.52
661.14	1781.73
661.33	1609.70
661.51	1724.39
661.70	1679.33
661.89	1718.25
662.08	1779.68
662.26	1642.47
662.45	1624.04
662.64	1734.63
662.83	1779.68
663.01	1644.52
663.20	1716.20
663.39	1812.45
663.58	1642.47
663.76	1751.01
663.95	1753.06
664.14	1773.54
664.32	1667.05
664.51	1665.00
664.70	1652.71
664.89	1697.77
665.07	1675.24
665.26	1732.58
665.45	1615.85
665.64	1812.45
665.82	1714.15
666.01	1771.49
666.20	1681.38
666.38	1798.12
666.57	1843.17
666.76	2127.84
666.95	4677.56
667.13	10291.04
667.32	15404.82
667.51	17579.76
667.69	18757.35
667.88	17655.54
668.07	12465.99
668.25	9654.12
668.44	8009.61
668.63	7251.86
668.81	6883.22
669.00	6358.94
669.19	5771.18
669.38	5142.45
669.56	4634.55
669.75	3987.40
669.94	3493.83
670.12	2818.00
670.31	2584.54
670.50	2281.44
670.68	2009.06
670.87	1863.65
671.06	1712.10
671.24	1787.88
671.43	1841.12
671.62	1806.31
671.80	1656.81
671.99	1765.35
672.18	1775.59
672.36	1769.44
672.55	1720.29
672.74	1718.25
672.92	1673.19
673.11	1744.87
673.29	1687.53
673.48	1654.76
673.67	1654.76
673.85	1771.49
674.04	1681.38
674.23	1746.92
674.41	1771.49
674.60	1656.81
674.79	1638.38
674.97	1638.38
675.16	1748.97
675.34	1722.34
675.53	1658.85
675.72	1832.93
675.90	1744.87
676.09	1646.57
676.28	1675.24
676.46	1671.14
676.65	1761.25
676.83	1652.71
677.02	1730.53
677.21	1746.92
677.39	1761.25
677.58	1716.20
677.77	1701.86
677.95	1687.53
678.14	1724.39
678.32	1740.77
678.51	1650.66
678.70	1894.37
678.88	1665.00
679.07	1724.39
679.25	1740.77
679.44	1689.57
679.63	1656.81
679.81	1691.62
680.00	1796.07
680.18	1755.11
680.37	1804.26
680.55	1669.09
680.74	1665.00
680.93	1593.32
681.11	1773.54
681.30	1781.73
681.48	1730.53
681.67	1671.14
681.85	1748.97
682.04	1648.61
682.23	1802.21
682.41	1779.68
682.60	1675.24
682.78	1697.77
682.97	1673.19
683.15	1703.91
683.34	1744.87
683.53	1796.07
683.71	1609.70
683.90	1853.41
684.08	1820.64
684.27	1642.47
684.45	1687.53
684.64	1789.92
684.82	1681.38
685.01	1728.49
685.19	1708.01
685.38	1804.26
685.57	1652.71
685.75	1660.90
685.94	1751.01
686.12	1640.42
686.31	1671.14
686.49	1742.82
686.68	1621.99
686.86	1744.87
687.05	1769.44
687.23	1732.58
687.42	1714.15
687.60	1603.56
687.79	1767.40
687.97	1837.03
688.16	1728.49
688.34	1742.82
688.53	1607.66
688.71	1810.40
688.90	1787.88
689.08	1695.72
689.27	1691.62
689.45	1753.06
689.64	1753.06
689.82	1796.07
690.01	1718.25
690.19	1746.92
690.38	1710.05
690.56	1787.88
690.75	1726.44
690.93	1675.24
691.12	1675.24
691.30	1773.54
691.49	1714.15
691.67	1673.19
691.86	1824.74
692.04	1673.19
692.23	1779.68
692.41	1738.73
692.60	1855.46
692.78	1787.88
692.97	1722.34
693.15	1724.39
693.34	1820.64
693.52	1751.01
693.71	1679.33
693.89	1632.23
694.08	1597.42
694.26	1681.38
694.44	1693.67
694.63	1679.33
694.81	1703.91
695.00	1636.33
695.18	1851.36
695.37	1830.88
695.55	1634.28
695.74	1693.67
695.92	1736.68
696.10	1789.92
696.29	1642.47
696.47	1597.42
696.66	1640.42
696.84	1667.05
697.03	1701.86
697.21	1845.22
697.40	2396.12
697.58	1728.49
697.76	1714.15
697.95	1732.58
698.13	1581.03
698.32	1693.67
698.50	1755.11
698.68	1738.73
698.87	1730.53
699.05	1755.11
699.24	1714.15
699.42	1665.00
699.61	1736.68
699.79	1705.96
699.97	1677.29
700.16	1630.18
700.34	1562.60
700.53	1714.15
700.71	1820.64
700.89	1685.48
701.08	1673.19
701.26	1742.82
701.45	2095.07
701.63	1675.24
701.81	1677.29
702.00	1677.29
702.18	1722.34
702.37	1636.33
702.55	1687.53
702.73	1718.25
702.92	1597.42
703.10	1652.71
703.28	1773.54
703.47	1687.53
703.65	1828.84
703.84	1824.74
704.02	1665.00
704.20	1812.45
704.39	1665.00
704.57	1748.97
704.75	1767.40
704.94	1726.44
705.12	1738.73
705.30	1681.38
705.49	2205.66
705.67	4286.40
705.86	9326.45
706.04	12422.98
706.22	14466.85
706.41	15560.47
706.59	13801.26
706.77	9496.43
706.96	7397.26
707.14	6703.00
707.32	5978.02
707.51	5574.57
707.69	4931.51
707.87	4181.95
708.06	3594.19
708.24	3016.66
708.42	2396.12
708.61	2301.92
708.79	1882.08
708.97	1855.46
709.16	1857.51
709.34	1798.12
709.52	1763.30
709.71	1748.97
709.89	1763.30
710.07	1701.86
710.26	1652.71
710.44	1751.01
710.62	1787.88
710.80	1708.01
710.99	1759.21
711.17	1775.59
711.35	1642.47
711.54	1691.62
711.72	1808.36
711.90	1669.09
712.09	1716.20
712.27	1640.42
712.45	1773.54
712.63	1675.24
712.82	1708.01
713.00	1722.34
713.18	1703.91
713.37	1863.65
713.55	1802.21
713.73	1781.73
713.91	1730.53
714.10	1779.68
714.28	1677.29
714.46	1738.73
714.65	1722.34
714.83	1685.48
715.01	1724.39
715.19	1665.00
715.38	1630.18
715.56	1669.09
715.74	1601.51
715.92	1624.04
716.11	1755.11
716.29	1652.71
716.47	1708.01
716.65	1699.81
716.84	1613.80
717.02	1738.73
717.20	1665.00
717.38	1624.04
717.57	1710.05
717.75	1671.14
717.93	1730.53
718.11	1714.15
718.30	1632.23
718.48	1812.45
718.66	1701.86
718.84	1695.72
719.03	1771.49
719.21	1589.22
719.39	1742.82
719.57	1722.34
719.75	1775.59
719.94	1673.19
720.12	1687.53
720.30	1710.05
720.48	1748.97
720.67	1679.33
720.85	1665.00
721.03	1681.38
721.21	1632.23
721.39	1843.17
721.58	1712.10
721.76	1738.73
721.94	1744.87
722.12	1691.62
722.30	1800.16
722.49	1693.67
722.67	1740.77
722.85	1681.38
723.03	1624.04
723.21	1642.47
723.40	1646.57
723.58	1769.44
723.76	1712.10
723.94	1730.53
724.12	1679.33
724.30	1787.88
724.49	1771.49
724.67	1619.94
724.85	1796.07
725.03	1595.37
725.21	1722.34
725.40	1837.03
725.58	1652.71
725.76	1794.02
725.94	1738.73
726.12	1626.09
726.30	1710.05
726.49	1691.62
726.67	1675.24
726.85	1761.25
727.03	1791.97
727.21	2117.60
727.39	2953.17
727.57	3661.77
727.76	4181.95
727.94	4290.49
728.12	4315.07
728.30	3696.58
728.48	2965.46
728.66	2793.43
728.84	2525.15
729.03	2283.49
729.21	2170.85
729.39	1951.71
729.57	1834.98
729.75	1853.41
729.93	1820.64
730.11	1689.57
730.30	1669.09
730.48	1689.57
730.66	1816.55
730.84	1730.53
731.02	1665.00
731.20	1671.14
731.38	1757.16
731.56	1650.66
731.74	1652.71
731.93	1724.39
732.11	1714.15
732.29	1757.16
732.47	1708.01
732.65	1740.77
732.83	1761.25
733.01	1763.30
733.19	1636.33
733.37	1716.20
733.56	1697.77
733.74	1658.85
733.92	1677.29
734.10	1679.33
734.28	1812.45
734.46	1613.80
734.64	1734.63
734.82	1722.34
735.00	1654.76
735.18	1611.75
735.36	1710.05
735.54	1667.05
735.73	1710.05
735.91	1677.29
736.09	1703.91
736.27	1630.18
736.45	1787.88
736.63	1611.75
736.81	1613.80
736.99	1748.97
737.17	1794.02
737.35	1681.38
737.53	1746.92
737.71	1665.00
737.89	1812.45
738.07	1609.70
738.25	1617.90
738.43	1708.01
738.61	1757.16
738.80	1642.47
738.98	1656.81
739.16	1701.86
739.34	1724.39
739.52	1781.73
739.70	1685.48
739.88	1736.68
740.06	1794.02
740.24	1513.45
740.42	1751.01
740.60	1632.23
740.78	1650.66
740.96	1578.98
741.14	1615.85
741.32	1685.48
741.50	1669.09
741.68	1828.84
741.86	1738.73
742.04	1673.19
742.22	1650.66
742.40	1689.57
742.58	1736.68
742.76	1615.85
742.94	1814.50
743.12	1650.66
743.30	1675.24
743.48	1757.16
743.66	1601.51
743.84	1738.73
744.02	1689.57
744.20	1675.24
744.38	1650.66
744.56	1634.28
744.74	1882.08
744.92	1728.49
745.10	1824.74
745.28	1787.88
745.46	1757.16
745.64	1599.46
745.82	1763.30
746.00	1708.01
746.18	1810.40
746.36	1701.86
746.54	1714.15
746.72	1753.06
746.90	1654.76
747.08	1679.33
747.26	1712.10
747.44	1757.16
747.62	1724.39
747.80	1763.30
747.98	1660.90
748.15	1751.01
748.33	1748.97
748.51	1755.11
748.69	1765.35
748.87	1636.33
749.05	1656.81
749.23	1675.24
749.41	1748.97
749.59	1746.92
749.77	1757.16
749.95	1675.24
750.13	1630.18
750.31	1755.11
750.49	1677.29
750.67	1738.73
750.85	1714.15
751.03	1732.58
751.20	1796.07
751.38	1720.29
751.56	1720.29
751.74	1656.81
751.92	1683.43
752.10	1722.34
752.28	1732.58
752.46	1656.81
752.64	1691.62
752.82	1695.72
753.00	1722.34
753.18	1652.71
753.35	1687.53
753.53	1685.48
753.71	1675.24
753.89	1742.82
754.07	1714.15
754.25	1791.97
754.43	1703.91
754.61	1632.23
754.79	1734.63
754.97	1722.34
755.14	1695.72
755.32	1601.51
755.50	1720.29
755.68	1658.85
755.86	1638.38
756.04	1660.90
756.22	1601.51
756.40	1816.55
756.57	1722.34
756.75	1687.53
756.93	1765.35
757.11	1800.16
757.29	1660.90
757.47	1609.70
757.65	1734.63
757.82	1595.37
758.00	1669.09
758.18	1681.38
758.36	1687.53
758.54	1839.08
758.72	1652.71
758.90	1812.45
759.07	1718.25
759.25	1654.76
759.43	1748.97
759.61	1630.18
759.79	2193.37
759.97	1744.87
760.15	1705.96
760.32	1632.23
760.50	1675.24
760.68	1800.16
760.86	1646.57
761.04	1808.36
761.22	1777.64
761.39	1689.57
761.57	1738.73
761.75	1716.20
761.93	1714.15
762.11	1705.96
762.28	1652.71
762.46	1632.23
762.64	1736.68
762.82	1693.67
763.00	1716.20
763.18	1738.73
763.35	1685.48
763.53	1724.39
763.71	1689.57
763.89	1751.01
764.07	1730.53
764.24	1732.58
764.42	1789.92
764.60	1667.05
764.78	1732.58
764.96	1748.97
765.13	1818.60
765.31	1714.15
765.49	1806.31
765.67	1640.42
765.84	1624.04
766.02	1603.56
766.20	1570.79
766.38	1685.48
766.56	1697.77
766.73	1808.36
766.91	1714.15
767.09	1677.29
767.27	1742.82
767.44	1654.76
767.62	1810.40
767.80	1804.26
767.98	1640.42
768.15	1669.09
768.33	1720.29
768.51	1810.40
768.69	1736.68
768.87	1734.63
769.04	1679.33
769.22	1832.93
769.40	1779.68
769.58	1857.51
769.75	1650.66
769.93	1789.92
770.11	1646.57
770.28	1652.71
770.46	1720.29
770.64	1675.24
770.82	1624.04
770.99	1658.85
771.17	1695.72
771.35	1658.85
771.53	1693.67
771.70	1710.05
771.88	1710.05
772.06	1736.68
772.23	1691.62
772.41	1765.35
772.59	1677.29
772.77	1619.94
772.94	1613.80
773.12	1705.96
773.30	1720.29
773.47	1685.48
773.65	1632.23
773.83	1841.12
774.01	1712.10
774.18	1667.05
774.36	1720.29
774.54	1595.37
774.71	1708.01
774.89	1566.70
775.07	1652.71
775.24	1660.90
775.42	1673.19
775.60	1759.21
775.78	1712.10
775.95	1609.70
776.13	1519.59
776.31	1597.42
776.48	1701.86
776.66	1847.27
776.84	1701.86
777.01	1681.38
777.19	1648.61
777.37	1705.96
777.54	1773.54
777.72	1884.13
777.90	1687.53
778.07	1685.48
778.25	1804.26
778.43	1761.25
778.60	1583.08
778.78	1687.53
778.96	1816.55
779.13	1685.48
779.31	1767.40
779.49	1726.44
779.66	1738.73
779.84	1656.81
780.01	1683.43
780.19	1640.42
780.37	1767.40
780.54	1746.92
780.72	1638.38
780.90	1679.33
781.07	1695.72
781.25	1677.29
781.43	1703.91
781.60	1617.90
781.78	1708.01
781.95	1695.72
782.13	1632.23
782.31	1755.11
782.48	1669.09
782.66	1740.77
782.83	1822.69
783.01	1808.36
783.19	1736.68
783.36	1679.33
783.54	1642.47
783.72	1791.97
783.89	1658.85
784.07	1724.39
784.24	1654.76
784.42	1810.40
784.60	1626.09
784.77	1718.25
784.95	1642.47
785.12	1671.14
785.30	1734.63
785.47	1626.09
785.65	1701.86
785.83	1632.23
786.00	1697.77
786.18	1746.92
786.35	1687.53
786.53	1634.28
786.71	1644.52
786.88	1748.97
787.06	1689.57
787.23	1648.61
787.41	1624.04
787.58	1701.86
787.76	1632.23
787.94	1699.81
788.11	1722.34
788.29	1654.76
788.46	1660.90
788.64	1615.85
788.81	1671.14
788.99	1685.48
789.16	1673.19
789.34	1726.44
789.52	1656.81
789.69	1638.38
789.87	1550.31
790.04	1642.47
790.22	1716.20
790.39	1865.70
790.57	1599.46
790.74	1675.24
790.92	1744.87
791.09	1591.27
791.27	1675.24
791.44	1691.62
791.62	1697.77
791.79	1740.77
791.97	1685.48
792.15	1806.31
792.32	1777.64
792.50	1669.09
792.67	1736.68
792.85	1755.11
793.02	1679.33
793.20	1708.01
793.37	1624.04
793.55	1705.96
793.72	1630.18
793.90	1677.29
794.07	1658.85
794.25	1587.18
794.42	1714.15
794.60	1751.01
794.77	1697.77
794.95	1720.29
795.12	1769.44
795.30	1736.68
795.47	1566.70
795.65	1894.37
795.82	1662.95
796.00	1640.42
796.17	1695.72
796.34	1679.33
796.52	1751.01
796.69	1660.90
796.87	1734.63
797.04	1779.68
797.22	1718.25
797.39	1687.53
797.57	1691.62
797.74	1632.23
797.92	1748.97
798.09	1632.23
798.27	1837.03
798.44	1785.83
798.62	1695.72
798.79	1724.39
798.96	1716.20
799.14	1687.53
799.31	1859.56
799.49	1656.81
799.66	1665.00
799.84	1726.44
800.01	1646.57
800.19	1677.29
800.36	1642.47
800.53	1697.77
800.71	1644.52
800.88	1800.16
801.06	1652.71
801.23	1652.71
801.41	1685.48
801.58	1728.49
801.75	1667.05
801.93	1759.21
802.10	1783.78
802.28	1589.22
802.45	1695.72
802.63	1796.07
802.80	1765.35
802.97	1638.38
803.15	1751.01
803.32	1665.00
803.50	1675.24
803.67	1716.20
803.84	1669.09
804.02	1683.43
804.19	1632.23
804.37	1550.31
804.54	1646.57
804.71	1710.05
804.89	1722.34
805.06	1593.32
805.24	1642.47
805.41	1632.23
805.58	1671.14
805.76	1871.84
805.93	1665.00
806.10	1785.83
806.28	1705.96
806.45	1685.48
806.63	1732.58
806.80	1701.86
806.97	1775.59
807.15	1705.96
807.32	1763.30
807.49	1693.67
807.67	1624.04
807.84	1691.62
808.01	1597.42
808.19	1746.92
808.36	1853.41
808.54	1699.81
808.71	1665.00
808.88	1689.57
809.06	1742.82
809.23	1787.88
809.40	1755.11
809.58	1771.49
809.75	1714.15
809.92	1570.79
810.10	1814.50
810.27	1648.61
810.44	1695.72
810.62	1796.07
810.79	1722.34
810.96	1681.38
811.14	1675.24
811.31	1718.25
811.48	1796.07
811.66	1673.19
811.83	1751.01
812.00	1689.57
812.18	1732.58
812.35	1777.64
812.52	1640.42
812.69	1705.96
812.87	1734.63
813.04	1665.00
813.21	1646.57
813.39	1546.22
813.56	1585.13
813.73	1708.01
813.91	1691.62
814.08	1656.81
814.25	1654.76
814.42	1642.47
814.60	1615.85
814.77	1673.19
814.94	1691.62
815.12	1665.00
815.29	1812.45
815.46	1650.66
815.63	1689.57
815.81	1740.77
815.98	1705.96
816.15	1677.29
816.33	1714.15
816.50	1689.57
816.67	1650.66
816.84	1697.77
817.02	1677.29
817.19	1720.29
817.36	1701.86
817.53	1720.29
817.71	1648.61
817.88	1781.73
818.05	1697.77
818.22	1656.81
818.40	1818.60
818.57	1718.25
818.74	1691.62
818.91	1746.92
819.09	1742.82
819.26	1716.20
819.43	1652.71
819.60	1722.34
819.78	1759.21
819.95	1755.11
820.12	1728.49
820.29	1757.16
820.47	1775.59
820.64	1658.85
820.81	1583.08
820.98	1626.09
821.15	1615.85
821.33	1746.92
821.50	1564.65
821.67	1699.81
821.84	1652.71
822.02	1710.05
822.19	1751.01
822.36	1734.63
822.53	1654.76
822.70	1601.51
822.88	1642.47
823.05	1732.58
823.22	1703.91
823.39	1695.72
823.56	1716.20
823.74	1830.88
823.91	1683.43
824.08	1648.61
824.25	1621.99
824.42	1804.26
824.60	1595.37
824.77	1687.53
824.94	1742.82
825.11	1697.77
825.28	1587.18
825.45	1693.67
825.63	1613.80
825.80	1648.61
825.97	1671.14
826.14	1755.11
826.31	1603.56
826.48	1720.29
826.66	1755.11
826.83	1617.90
827.00	1703.91
827.17	1632.23
827.34	1685.48
827.51	1705.96
827.69	1679.33
827.86	1656.81
828.03	1675.24
828.20	1755.11
828.37	1644.52
828.54	1736.68
828.71	1665.00
828.89	1734.63
829.06	1716.20
829.23	1763.30
829.40	1669.09
829.57	1718.25
829.74	1689.57
829.91	1652.71
830.09	1665.00
830.26	1794.02
830.43	1783.78
830.60	1689.57
830.77	1755.11
830.94	1755.11
831.11	1742.82
831.28	1656.81
831.46	1716.20
831.63	1679.33
831.80	1783.78
831.97	1646.57
832.14	1689.57
832.31	1714.15
832.48	1738.73
832.65	1705.96
832.82	1785.83
832.99	1669.09
833.17	1615.85
833.34	1714.15
833.51	1726.44
833.68	1583.08
833.85	1720.29
834.02	1611.75
834.19	1630.18
834.36	1615.85
834.53	1726.44
834.70	1787.88
834.87	1767.40
835.04	1695.72
835.22	1626.09
835.39	1634.28
835.56	1601.51
835.73	1671.14
835.90	1787.88
836.07	1599.46
836.24	1714.15
836.41	1691.62
836.58	1630.18
836.75	1691.62
836.92	1767.40
837.09	1677.29
837.26	1757.16
837.43	1705.96
837.60	1693.67
837.77	1685.48
837.94	1708.01
838.12	1798.12
838.29	1675.24
838.46	1609.70
838.63	1642.47
838.80	1841.12
838.97	1716.20
839.14	1679.33
839.31	1734.63
839.48	1656.81
839.65	1615.85
839.82	1691.62
839.99	1755.11
840.16	1771.49
840.33	1607.66
840.50	1789.92
840.67	1599.46
840.84	1626.09
841.01	1669.09
841.18	1693.67
841.35	1650.66
841.52	1703.91
841.69	1806.31
841.86	1757.16
842.03	1714.15
842.20	1691.62
842.37	1669.09
842.54	1703.91
842.71	1701.86
842.88	1673.19
843.05	1716.20
843.22	1697.77
843.39	1751.01
843.56	1705.96
843.73	1716.20
843.90	1724.39
844.07	1626.09
844.24	1730.53
844.41	1726.44
844.58	1656.81
844.75	1660.90
844.92	1718.25
845.09	1669.09
845.26	1705.96
845.43	1658.85
845.60	1705.96
845.77	1763.30
845.94	1685.48
846.10	1714.15
846.27	1574.89
846.44	1683.43
846.61	1621.99
846.78	1697.77
846.95	1660.90
847.12	1597.42
847.29	1691.62
847.46	1626.09
847.63	1837.03
847.80	1660.90
847.97	1671.14
848.14	1839.08
848.31	1624.04
848.48	1685.48
848.65	1740.77
848.82	1656.81
848.98	1904.61
849.15	1783.78
849.32	1730.53
849.49	1810.40
849.66	1691.62
849.83	1677.29
850.00	1673.19
850.17	1755.11
850.34	1685.48
850.51	1716.20
850.68	1607.66
850.85	1740.77
851.01	1769.44
851.18	1753.06
851.35	1628.14
851.52	1685.48
851.69	1771.49
851.86	1607.66
852.03	1656.81
852.20	1679.33
852.37	1667.05
852.53	1591.27
852.70	1679.33
852.87	1611.75
853.04	1705.96
853.21	1697.77
853.38	1773.54
853.55	1767.40
853.72	1804.26
853.89	1628.14
854.05	1621.99
854.22	1574.89
854.39	1687.53
854.56	1708.01
854.73	1775.59
854.90	1609.70
855.07	1634.28
855.23	1660.90
855.40	1689.57
855.57	1566.70
855.74	1630.18
855.91	1820.64
856.08	1605.61
856.25	1636.33
856.41	1708.01
856.58	1697.77
856.75	1658.85
856.92	1652.71
857.09	1742.82
857.26	1617.90
857.42	1691.62
857.59	1619.94
857.76	1660.90
857.93	1765.35
858.10	1728.49
858.27	1671.14
858.43	1718.25
858.60	1646.57
858.77	1644.52
858.94	1595.37
859.11	1791.97
859.27	1636.33
859.44	1689.57
859.61	1796.07
859.78	1732.58
859.95	1705.96
860.12	1638.38
860.28	1791.97
860.45	1767.40
860.62	1624.04
860.79	1621.99
860.95	1677.29
861.12	1665.00
861.29	1640.42
861.46	1708.01
861.63	1671.14
861.79	1763.30
861.96	1607.66
862.13	1624.04
862.30	1724.39
862.47	1685.48
862.63	1675.24
862.80	1703.91
862.97	1798.12
863.14	1660.90
863.30	1736.68
863.47	1603.56
863.64	1724.39
863.81	1693.67
863.97	1669.09
864.14	1693.67
864.31	1658.85
864.48	1701.86
864.65	1652.71
864.81	1669.09
864.98	1660.90
865.15	1714.15
865.32	1759.21
865.48	1775.59
865.65	1722.34
865.82	1732.58
865.98	1728.49
866.15	1753.06
866.32	1638.38
866.49	1751.01
866.65	1783.78
866.82	1634.28
866.99	1701.86
867.16	1626.09
867.32	1699.81
867.49	1673.19
867.66	1718.25
867.83	1677.29
867.99	1669.09
868.16	1609.70
868.33	1621.99
868.49	1675.24
868.66	1652.71
868.83	1683.43
868.99	1701.86
869.16	1695.72
869.33	1697.77
869.50	1689.57
869.66	1716.20
869.83	1671.14
870.00	1597.42
870.16	1693.67
870.33	1732.58
870.50	1757.16
870.66	1665.00
870.83	1822.69
871.00	1671.14
871.17	1685.48
871.33	1722.34
871.50	1738.73
871.67	1679.33
871.83	1617.90
872.00	1751.01
872.17	1693.67
872.33	1779.68
872.50	1755.11
872.67	1675.24
872.83	1714.15
873.00	1685.48
873.17	1779.68
873.33	1751.01
873.50	1695.72
873.67	1693.67
873.83	1656.81
874.00	1583.08
874.16	1787.88
874.33	1761.25
874.50	1550.31
874.66	1693.67
874.83	1708.01
875.00	1724.39
875.16	1785.83
875.33	1746.92
875.50	1581.03
875.66	1636.33
875.83	1646.57
875.99	1677.29
876.16	1685.48
876.33	1581.03
876.49	1658.85
876.66	1716.20
876.83	1742.82
876.99	1648.61
877.16	1718.25
877.32	1679.33
877.49	1689.57
877.66	1646.57
877.82	1787.88
877.99	1705.96
878.15	1796.07
878.32	1685.48
878.49	1724.39
878.65	1685.48
878.82	1822.69
878.98	1685.48
879.15	1755.11
879.32	1789.92
879.48	1636.33
879.65	1572.84
879.81	1683.43
879.98	1648.61
880.15	1714.15
880.31	1742.82
880.48	1665.00
880.64	1824.74
880.81	1705.96
880.97	1806.31
881.14	1691.62
881.31	1693.67
881.47	1816.55
881.64	1685.48
881.80	1611.75
881.97	1744.87
882.13	1701.86
882.30	1564.65
882.47	1632.23
882.63	1628.14
882.80	1705.96
882.96	1589.22
883.13	1726.44
883.29	1751.01
883.46	1736.68
883.62	1822.69
883.79	1662.95
883.95	1810.40
884.12	1748.97
884.29	1853.41
884.45	1697.77
884.62	1800.16
884.78	1669.09
884.95	1771.49
885.11	1634.28
885.28	1730.53
885.44	1675.24
885.61	1642.47
885.77	1785.83
885.94	1773.54
886.10	1658.85
886.27	1771.49
886.43	1765.35
886.60	1742.82
886.76	1685.48
886.93	1705.96
887.09	1699.81
887.26	1650.66
887.42	1681.38
887.59	1730.53
887.75	1779.68
887.92	1818.60
888.08	1748.97
888.25	1794.02
888.41	1765.35
888.58	1730.53
888.74	1624.04
888.91	1621.99
>>>>>End Processed Spectral Data<<<<<
