SpectraSuite Data File
++++++++++++++++++++++++++++++++++++
Date: Mon Jun 06 14:41:57 CEST 2016
User: root
Dark Spectrum Present: No
Reference Spectrum Present: No
Number of Sampled Component Spectra: 1
Spectrometers: USB4C02835
Integration Time (usec): 100000 (USB4C02835)
Spectra Averaged: 1 (USB4C02835)
Boxcar Smoothing: 0 (USB4C02835)
Correct for Electrical Dark: No (USB4C02835)
Strobe/Lamp Enabled: No (USB4C02835)
Correct for Detector Non-linearity: No (USB4C02835)
Correct for Stray Light: No (USB4C02835)
Number of Pixels in Processed Spectrum: 3648
>>>>>Begin Processed Spectral Data<<<<<
177.47	1503.21
177.69	1503.21
177.91	1503.21
178.13	1447.91
178.36	1478.63
178.58	1669.09
178.80	1636.33
179.02	1656.81
179.24	1621.99
179.46	1736.68
179.68	1685.48
179.90	1708.01
180.13	1654.76
180.35	1583.08
180.57	1712.10
180.79	1724.39
181.01	1730.53
181.23	1718.25
181.45	1755.11
181.67	1669.09
181.90	1689.57
182.12	1662.95
182.34	1621.99
182.56	1746.92
182.78	1804.26
183.00	1673.19
183.22	1740.77
183.44	1687.53
183.66	1832.93
183.89	1726.44
184.11	1708.01
184.33	1730.53
184.55	1755.11
184.77	1714.15
184.99	1689.57
185.21	1759.21
185.43	1830.88
185.65	1693.67
185.87	1708.01
186.10	1757.16
186.32	1806.31
186.54	1712.10
186.76	1748.97
186.98	1839.08
187.20	1624.04
187.42	1691.62
187.64	1742.82
187.86	1671.14
188.08	1665.00
188.30	1636.33
188.52	1656.81
188.75	1849.32
188.97	1744.87
189.19	1697.77
189.41	1697.77
189.63	1714.15
189.85	1699.81
190.07	1628.14
190.29	1701.86
190.51	1675.24
190.73	1611.75
190.95	1787.88
191.17	1634.28
191.39	1607.66
191.61	1644.52
191.84	1656.81
192.06	1665.00
192.28	1679.33
192.50	1888.23
192.72	1683.43
192.94	1648.61
193.16	1673.19
193.38	1667.05
193.60	1691.62
193.82	1710.05
194.04	1662.95
194.26	1642.47
194.48	1636.33
194.70	1777.64
194.92	1699.81
195.14	1783.78
195.36	1601.51
195.58	1673.19
195.80	1673.19
196.02	1728.49
196.24	1691.62
196.46	1740.77
196.69	1695.72
196.91	1908.71
197.13	1589.22
197.35	1734.63
197.57	1812.45
197.79	1732.58
198.01	1769.44
198.23	1714.15
198.45	1716.20
198.67	1667.05
198.89	1691.62
199.11	1669.09
199.33	1716.20
199.55	1578.98
199.77	1722.34
199.99	1683.43
200.21	1675.24
200.43	1660.90
200.65	1624.04
200.87	1677.29
201.09	1681.38
201.31	1718.25
201.53	1728.49
201.75	1757.16
201.97	1708.01
202.19	1732.58
202.41	1734.63
202.63	1751.01
202.85	1697.77
203.07	1775.59
203.29	1683.43
203.51	1638.38
203.73	1595.37
203.95	1896.42
204.17	1726.44
204.39	1732.58
204.61	1687.53
204.83	1673.19
205.05	1716.20
205.27	1800.16
205.49	1867.75
205.71	1669.09
205.93	1656.81
206.15	1628.14
206.37	1689.57
206.59	1730.53
206.81	1581.03
207.03	1636.33
207.25	1736.68
207.47	1738.73
207.69	1648.61
207.91	1746.92
208.13	1814.50
208.34	1626.09
208.56	1607.66
208.78	1720.29
209.00	1697.77
209.22	1613.80
209.44	1695.72
209.66	1685.48
209.88	1773.54
210.10	1636.33
210.32	1671.14
210.54	1755.11
210.76	1671.14
210.98	1845.22
211.20	1595.37
211.42	1703.91
211.64	1800.16
211.86	1681.38
212.08	1843.17
212.30	1718.25
212.52	1644.52
212.74	1697.77
212.96	1701.86
213.17	1722.34
213.39	1773.54
213.61	1753.06
213.83	1787.88
214.05	1701.86
214.27	1718.25
214.49	1640.42
214.71	1654.76
214.93	1863.65
215.15	1710.05
215.37	1691.62
215.59	1554.41
215.81	1722.34
216.03	1775.59
216.24	1667.05
216.46	1675.24
216.68	1710.05
216.90	1863.65
217.12	1769.44
217.34	1689.57
217.56	1742.82
217.78	1802.21
218.00	1773.54
218.22	1677.29
218.44	1705.96
218.66	1804.26
218.87	1779.68
219.09	1695.72
219.31	1628.14
219.53	1806.31
219.75	1685.48
219.97	1669.09
220.19	1783.78
220.41	1734.63
220.63	1771.49
220.85	1724.39
221.06	1660.90
221.28	1759.21
221.50	1677.29
221.72	1716.20
221.94	1724.39
222.16	1626.09
222.38	1716.20
222.60	1794.02
222.82	1591.27
223.03	1771.49
223.25	1617.90
223.47	1720.29
223.69	1773.54
223.91	1769.44
224.13	1722.34
224.35	1736.68
224.57	1730.53
224.78	1781.73
225.00	1617.90
225.22	1703.91
225.44	1697.77
225.66	1691.62
225.88	1638.38
226.10	1720.29
226.32	1726.44
226.53	1847.27
226.75	1710.05
226.97	1685.48
227.19	1730.53
227.41	1576.94
227.63	1632.23
227.85	1570.79
228.06	1755.11
228.28	1718.25
228.50	1720.29
228.72	1613.80
228.94	1662.95
229.16	1624.04
229.37	1652.71
229.59	1720.29
229.81	1832.93
230.03	1611.75
230.25	1595.37
230.47	1648.61
230.69	1621.99
230.90	1785.83
231.12	1638.38
231.34	1660.90
231.56	1746.92
231.78	1673.19
232.00	1712.10
232.21	1767.40
232.43	1701.86
232.65	1628.14
232.87	1656.81
233.09	1671.14
233.30	1677.29
233.52	1697.77
233.74	1732.58
233.96	1705.96
234.18	1738.73
234.40	1642.47
234.61	1746.92
234.83	1617.90
235.05	1576.94
235.27	1781.73
235.49	1808.36
235.70	1689.57
235.92	1748.97
236.14	1732.58
236.36	1845.22
236.58	1648.61
236.79	1751.01
237.01	1636.33
237.23	1722.34
237.45	1748.97
237.67	1640.42
237.88	1759.21
238.10	1816.55
238.32	1652.71
238.54	1619.94
238.76	1679.33
238.97	1669.09
239.19	1716.20
239.41	1748.97
239.63	1796.07
239.85	1658.85
240.06	1658.85
240.28	1570.79
240.50	1769.44
240.72	1705.96
240.93	1607.66
241.15	1779.68
241.37	1726.44
241.59	1738.73
241.81	1740.77
242.02	1605.61
242.24	1703.91
242.46	1759.21
242.68	1648.61
242.89	1732.58
243.11	1703.91
243.33	1722.34
243.55	1689.57
243.76	1695.72
243.98	1677.29
244.20	1624.04
244.42	1742.82
244.64	1722.34
244.85	1677.29
245.07	1667.05
245.29	1701.86
245.51	1742.82
245.72	1751.01
245.94	1732.58
246.16	1681.38
246.38	1753.06
246.59	1624.04
246.81	1685.48
247.03	1665.00
247.24	1546.22
247.46	1648.61
247.68	1679.33
247.90	1667.05
248.11	1646.57
248.33	1728.49
248.55	1687.53
248.77	1716.20
248.98	1744.87
249.20	1798.12
249.42	1703.91
249.64	1736.68
249.85	1693.67
250.07	1652.71
250.29	1728.49
250.50	1708.01
250.72	1605.61
250.94	1701.86
251.16	1828.84
251.37	1812.45
251.59	1697.77
251.81	1675.24
252.02	1718.25
252.24	1640.42
252.46	1806.31
252.68	1652.71
252.89	1708.01
253.11	1611.75
253.33	1724.39
253.54	1759.21
253.76	1615.85
253.98	1683.43
254.20	1691.62
254.41	1634.28
254.63	1734.63
254.85	1601.51
255.06	1681.38
255.28	1730.53
255.50	1693.67
255.71	1736.68
255.93	1667.05
256.15	1677.29
256.36	1791.97
256.58	1640.42
256.80	1726.44
257.02	1677.29
257.23	1640.42
257.45	1734.63
257.67	1746.92
257.88	1648.61
258.10	1708.01
258.32	1695.72
258.53	1671.14
258.75	1822.69
258.97	1726.44
259.18	1775.59
259.40	1722.34
259.62	1802.21
259.83	1765.35
260.05	1714.15
260.27	1961.95
260.48	1763.30
260.70	1665.00
260.92	1673.19
261.13	1740.77
261.35	1691.62
261.57	1714.15
261.78	1576.94
262.00	1665.00
262.22	1740.77
262.43	1648.61
262.65	1691.62
262.86	1656.81
263.08	1824.74
263.30	1726.44
263.51	1583.08
263.73	1615.85
263.95	1761.25
264.16	1636.33
264.38	1669.09
264.60	1732.58
264.81	1630.18
265.03	1730.53
265.25	1781.73
265.46	1714.15
265.68	1816.55
265.89	1685.48
266.11	1701.86
266.33	1746.92
266.54	1656.81
266.76	1701.86
266.98	1716.20
267.19	1763.30
267.41	1738.73
267.62	1697.77
267.84	1605.61
268.06	1794.02
268.27	1679.33
268.49	1744.87
268.70	1730.53
268.92	1689.57
269.14	1673.19
269.35	1636.33
269.57	1677.29
269.79	1738.73
270.00	1636.33
270.22	1734.63
270.43	1699.81
270.65	1595.37
270.87	1687.53
271.08	1804.26
271.30	1736.68
271.51	1685.48
271.73	1732.58
271.95	1714.15
272.16	1705.96
272.38	1759.21
272.59	1630.18
272.81	1787.88
273.02	1757.16
273.24	1716.20
273.46	1722.34
273.67	1665.00
273.89	1660.90
274.10	1718.25
274.32	1742.82
274.54	1744.87
274.75	1751.01
274.97	1705.96
275.18	1732.58
275.40	1794.02
275.61	1615.85
275.83	1724.39
276.05	1628.14
276.26	1699.81
276.48	1720.29
276.69	1720.29
276.91	1683.43
277.12	1753.06
277.34	1740.77
277.55	1757.16
277.77	1685.48
277.99	1685.48
278.20	1652.71
278.42	1636.33
278.63	1730.53
278.85	1665.00
279.06	1648.61
279.28	1746.92
279.49	1708.01
279.71	1746.92
279.93	1722.34
280.14	1675.24
280.36	1576.94
280.57	1791.97
280.79	1755.11
281.00	1605.61
281.22	1642.47
281.43	1794.02
281.65	1624.04
281.86	1695.72
282.08	1722.34
282.29	1763.30
282.51	1701.86
282.73	1691.62
282.94	1601.51
283.16	1630.18
283.37	1767.40
283.59	1734.63
283.80	1804.26
284.02	1609.70
284.23	1773.54
284.45	1634.28
284.66	1593.32
284.88	1685.48
285.09	1634.28
285.31	1746.92
285.52	1779.68
285.74	1599.46
285.95	1802.21
286.17	1730.53
286.38	1732.58
286.60	1667.05
286.81	1630.18
287.03	1757.16
287.24	1714.15
287.46	1734.63
287.67	1742.82
287.89	1834.98
288.10	1753.06
288.32	1683.43
288.53	1753.06
288.75	1734.63
288.96	1775.59
289.18	1599.46
289.39	1730.53
289.61	1714.15
289.82	1800.16
290.04	1802.21
290.25	1660.90
290.47	1802.21
290.68	1658.85
290.90	1734.63
291.11	1624.04
291.33	1755.11
291.54	1677.29
291.76	1724.39
291.97	1708.01
292.18	1773.54
292.40	1718.25
292.61	1658.85
292.83	1732.58
293.04	1779.68
293.26	1736.68
293.47	1681.38
293.69	1644.52
293.90	1660.90
294.12	1775.59
294.33	1755.11
294.55	1718.25
294.76	1671.14
294.97	1841.12
295.19	1863.65
295.40	1640.42
295.62	1697.77
295.83	1697.77
296.05	1677.29
296.26	1771.49
296.48	1609.70
296.69	1748.97
296.90	1746.92
297.12	1652.71
297.33	1726.44
297.55	1671.14
297.76	1697.77
297.98	1742.82
298.19	1726.44
298.41	1697.77
298.62	1630.18
298.83	1689.57
299.05	1728.49
299.26	1607.66
299.48	1636.33
299.69	1658.85
299.90	1681.38
300.12	1734.63
300.33	1708.01
300.55	1724.39
300.76	1769.44
300.98	1695.72
301.19	1761.25
301.40	1665.00
301.62	1636.33
301.83	1669.09
302.05	1628.14
302.26	1730.53
302.47	1718.25
302.69	1574.89
302.90	1744.87
303.12	1513.45
303.33	1714.15
303.54	1884.13
303.76	1730.53
303.97	1708.01
304.19	1761.25
304.40	1697.77
304.61	1804.26
304.83	1800.16
305.04	1808.36
305.26	1722.34
305.47	1679.33
305.68	1665.00
305.90	1642.47
306.11	1683.43
306.33	1609.70
306.54	1628.14
306.75	1681.38
306.97	1660.90
307.18	1587.18
307.39	1763.30
307.61	1773.54
307.82	1771.49
308.04	1720.29
308.25	1603.56
308.46	1697.77
308.68	1642.47
308.89	1683.43
309.10	1767.40
309.32	1771.49
309.53	1710.05
309.74	1652.71
309.96	1671.14
310.17	1742.82
310.39	1671.14
310.60	1728.49
310.81	1652.71
311.03	1689.57
311.24	1679.33
311.45	1691.62
311.67	1859.56
311.88	1710.05
312.09	1718.25
312.31	1607.66
312.52	1736.68
312.73	1673.19
312.95	1564.65
313.16	1628.14
313.37	1824.74
313.59	1789.92
313.80	1679.33
314.01	1787.88
314.23	1722.34
314.44	1642.47
314.65	1665.00
314.87	1665.00
315.08	1720.29
315.29	1644.52
315.51	1654.76
315.72	1658.85
315.93	1861.60
316.15	1734.63
316.36	1615.85
316.57	1722.34
316.79	1787.88
317.00	1734.63
317.21	1712.10
317.43	1658.85
317.64	1656.81
317.85	1681.38
318.07	1658.85
318.28	1765.35
318.49	1789.92
318.70	1847.27
318.92	1839.08
319.13	1830.88
319.34	1853.41
319.56	1798.12
319.77	1900.52
319.98	1775.59
320.20	1806.31
320.41	1769.44
320.62	1796.07
320.83	1718.25
321.05	1849.32
321.26	1720.29
321.47	1628.14
321.69	1806.31
321.90	1699.81
322.11	1673.19
322.32	1738.73
322.54	1802.21
322.75	1714.15
322.96	1806.31
323.18	1628.14
323.39	1648.61
323.60	1689.57
323.81	1767.40
324.03	1681.38
324.24	1728.49
324.45	1732.58
324.66	1736.68
324.88	1849.32
325.09	1800.16
325.30	1693.67
325.52	1705.96
325.73	1716.20
325.94	1660.90
326.15	1607.66
326.37	1613.80
326.58	1742.82
326.79	1785.83
327.00	1599.46
327.22	1699.81
327.43	1720.29
327.64	1593.32
327.85	1769.44
328.07	1722.34
328.28	1785.83
328.49	1720.29
328.70	1642.47
328.92	1720.29
329.13	1689.57
329.34	1654.76
329.55	1935.33
329.76	1779.68
329.98	1644.52
330.19	1755.11
330.40	1658.85
330.61	1755.11
330.83	1773.54
331.04	1626.09
331.25	1681.38
331.46	1648.61
331.68	1613.80
331.89	1748.97
332.10	1673.19
332.31	1667.05
332.52	1681.38
332.74	1773.54
332.95	1624.04
333.16	1675.24
333.37	1740.77
333.58	1685.48
333.80	1716.20
334.01	1685.48
334.22	1718.25
334.43	1691.62
334.64	1656.81
334.86	1585.13
335.07	1673.19
335.28	1783.78
335.49	1658.85
335.70	1669.09
335.92	1777.64
336.13	1771.49
336.34	1761.25
336.55	1734.63
336.76	1779.68
336.98	1550.31
337.19	1683.43
337.40	1810.40
337.61	1806.31
337.82	1671.14
338.04	1751.01
338.25	1626.09
338.46	1667.05
338.67	1699.81
338.88	1603.56
339.09	1615.85
339.31	1660.90
339.52	1624.04
339.73	1667.05
339.94	1669.09
340.15	1832.93
340.36	1656.81
340.58	1679.33
340.79	1650.66
341.00	1767.40
341.21	1617.90
341.42	1785.83
341.63	1677.29
341.85	1714.15
342.06	1685.48
342.27	1701.86
342.48	1724.39
342.69	1675.24
342.90	1785.83
343.12	1687.53
343.33	1673.19
343.54	1773.54
343.75	1777.64
343.96	1697.77
344.17	1671.14
344.38	1662.95
344.60	1716.20
344.81	1681.38
345.02	1671.14
345.23	1765.35
345.44	1748.97
345.65	1697.77
345.86	1730.53
346.07	1710.05
346.29	1667.05
346.50	1767.40
346.71	1687.53
346.92	1732.58
347.13	1777.64
347.34	1634.28
347.55	1662.95
347.76	1697.77
347.98	1595.37
348.19	1667.05
348.40	1804.26
348.61	1660.90
348.82	1742.82
349.03	1781.73
349.24	1644.52
349.45	1769.44
349.66	1535.98
349.88	1736.68
350.09	1640.42
350.30	1693.67
350.51	1728.49
350.72	1738.73
350.93	1691.62
351.14	1601.51
351.35	1742.82
351.56	1818.60
351.77	1673.19
351.99	1820.64
352.20	1808.36
352.41	1726.44
352.62	1540.07
352.83	1724.39
353.04	1636.33
353.25	1658.85
353.46	1742.82
353.67	1714.15
353.88	1558.50
354.09	1658.85
354.30	1734.63
354.52	1812.45
354.73	1722.34
354.94	1681.38
355.15	1673.19
355.36	1779.68
355.57	1677.29
355.78	1712.10
355.99	1630.18
356.20	1697.77
356.41	1796.07
356.62	1757.16
356.83	1714.15
357.04	1775.59
357.25	1636.33
357.46	1791.97
357.68	1542.12
357.89	1660.90
358.10	1615.85
358.31	1697.77
358.52	1734.63
358.73	1593.32
358.94	1619.94
359.15	1679.33
359.36	1748.97
359.57	1687.53
359.78	1767.40
359.99	1765.35
360.20	1703.91
360.41	1669.09
360.62	1779.68
360.83	1781.73
361.04	1646.57
361.25	1683.43
361.46	1794.02
361.67	1677.29
361.88	1759.21
362.09	1683.43
362.30	1724.39
362.51	1728.49
362.72	1738.73
362.93	1748.97
363.14	1820.64
363.35	1691.62
363.56	1671.14
363.78	1734.63
363.99	1771.49
364.20	1656.81
364.41	1693.67
364.62	1777.64
364.83	1687.53
365.04	1693.67
365.25	1652.71
365.46	1837.03
365.67	1689.57
365.88	1609.70
366.09	1708.01
366.30	1642.47
366.51	1679.33
366.72	1640.42
366.93	1654.76
367.14	1746.92
367.35	1734.63
367.56	1609.70
367.77	1828.84
367.98	1708.01
368.18	1800.16
368.39	1748.97
368.60	1728.49
368.81	1751.01
369.02	1751.01
369.23	1705.96
369.44	1656.81
369.65	1673.19
369.86	1767.40
370.07	1738.73
370.28	1671.14
370.49	1763.30
370.70	1693.67
370.91	1644.52
371.12	1599.46
371.33	1794.02
371.54	1640.42
371.75	1746.92
371.96	1615.85
372.17	1728.49
372.38	1718.25
372.59	1693.67
372.80	1746.92
373.01	1710.05
373.22	1683.43
373.43	1689.57
373.64	1634.28
373.85	1722.34
374.06	1861.60
374.26	1771.49
374.47	1648.61
374.68	1751.01
374.89	1691.62
375.10	1693.67
375.31	1777.64
375.52	1779.68
375.73	1724.39
375.94	1697.77
376.15	1689.57
376.36	1705.96
376.57	1656.81
376.78	1683.43
376.99	1708.01
377.20	1810.40
377.40	1693.67
377.61	1769.44
377.82	1665.00
378.03	1794.02
378.24	1722.34
378.45	1619.94
378.66	1705.96
378.87	1601.51
379.08	1595.37
379.29	1601.51
379.50	1705.96
379.71	1652.71
379.91	1705.96
380.12	1701.86
380.33	1667.05
380.54	1675.24
380.75	1720.29
380.96	1673.19
381.17	1730.53
381.38	1810.40
381.59	1794.02
381.80	1701.86
382.00	1888.23
382.21	1734.63
382.42	1861.60
382.63	1884.13
382.84	1722.34
383.05	1761.25
383.26	1779.68
383.47	1720.29
383.68	1810.40
383.88	1726.44
384.09	1718.25
384.30	1814.50
384.51	1720.29
384.72	1761.25
384.93	1703.91
385.14	1665.00
385.35	1771.49
385.55	1632.23
385.76	1761.25
385.97	1734.63
386.18	1609.70
386.39	1656.81
386.60	1705.96
386.81	1628.14
387.02	1683.43
387.22	1675.24
387.43	1763.30
387.64	1763.30
387.85	1832.93
388.06	2256.86
388.27	4353.98
388.48	6920.09
388.68	8411.01
388.89	9799.53
389.10	9914.22
389.31	8705.92
389.52	7616.40
389.73	6819.74
389.93	6248.35
390.14	5975.97
390.35	5197.74
390.56	4573.11
390.77	3747.78
390.98	3104.72
391.18	2529.24
391.39	2150.37
391.60	1853.41
391.81	1906.66
392.02	1703.91
392.23	1796.07
392.43	1710.05
392.64	1808.36
392.85	1773.54
393.06	1873.89
393.27	1753.06
393.47	1665.00
393.68	1701.86
393.89	1636.33
394.10	1730.53
394.31	1681.38
394.52	1640.42
394.72	1626.09
394.93	1759.21
395.14	1656.81
395.35	1771.49
395.56	1665.00
395.76	1722.34
395.97	1794.02
396.18	1834.98
396.39	1880.04
396.60	2060.26
396.80	1820.64
397.01	1896.42
397.22	1828.84
397.43	1853.41
397.64	1761.25
397.84	1818.60
398.05	1855.46
398.26	1738.73
398.47	1853.41
398.67	1769.44
398.88	1771.49
399.09	1673.19
399.30	1681.38
399.51	1763.30
399.71	1636.33
399.92	1775.59
400.13	1800.16
400.34	1689.57
400.54	1609.70
400.75	1767.40
400.96	1705.96
401.17	1796.07
401.37	1718.25
401.58	1675.24
401.79	1718.25
402.00	1890.28
402.21	2033.63
402.41	1970.15
402.62	2068.45
402.83	2021.35
403.04	1943.52
403.24	2082.78
403.45	1906.66
403.66	1902.56
403.87	1884.13
404.07	1882.08
404.28	1933.28
404.49	1861.60
404.70	1767.40
404.90	1763.30
405.11	1781.73
405.32	1708.01
405.52	1650.66
405.73	1667.05
405.94	1673.19
406.15	1683.43
406.35	1808.36
406.56	1718.25
406.77	1714.15
406.98	1787.88
407.18	1634.28
407.39	1798.12
407.60	1658.85
407.80	1816.55
408.01	1689.57
408.22	1759.21
408.43	1693.67
408.63	1751.01
408.84	1654.76
409.05	1771.49
409.25	1730.53
409.46	1646.57
409.67	1699.81
409.88	1624.04
410.08	1691.62
410.29	1691.62
410.50	1705.96
410.70	1730.53
410.91	1701.86
411.12	1798.12
411.32	1640.42
411.53	1716.20
411.74	1777.64
411.95	1763.30
412.15	1781.73
412.36	1781.73
412.57	1787.88
412.77	1894.37
412.98	1675.24
413.19	1675.24
413.39	1808.36
413.60	1697.77
413.81	1800.16
414.01	1681.38
414.22	1787.88
414.43	1773.54
414.63	1671.14
414.84	1783.78
415.05	1732.58
415.25	1624.04
415.46	1738.73
415.67	1730.53
415.87	1683.43
416.08	1761.25
416.29	1669.09
416.49	1734.63
416.70	1712.10
416.91	1751.01
417.11	1667.05
417.32	1798.12
417.53	1738.73
417.73	1720.29
417.94	1660.90
418.15	1693.67
418.35	1712.10
418.56	1693.67
418.77	1910.75
418.97	1669.09
419.18	1650.66
419.38	1591.27
419.59	1662.95
419.80	1718.25
420.00	1683.43
420.21	1693.67
420.42	1724.39
420.62	1708.01
420.83	1710.05
421.04	1699.81
421.24	1677.29
421.45	1796.07
421.65	1744.87
421.86	1681.38
422.07	1722.34
422.27	1736.68
422.48	1724.39
422.69	1621.99
422.89	1714.15
423.10	1691.62
423.30	1644.52
423.51	1693.67
423.72	1732.58
423.92	1759.21
424.13	1642.47
424.33	1638.38
424.54	1720.29
424.75	1738.73
424.95	1787.88
425.16	1736.68
425.36	1748.97
425.57	1732.58
425.78	1703.91
425.98	1693.67
426.19	1601.51
426.39	1703.91
426.60	1695.72
426.81	1720.29
427.01	1714.15
427.22	1605.61
427.42	1542.12
427.63	1703.91
427.83	1757.16
428.04	1763.30
428.25	1705.96
428.45	1738.73
428.66	1744.87
428.86	1660.90
429.07	1742.82
429.28	1660.90
429.48	1726.44
429.69	1705.96
429.89	1728.49
430.10	1595.37
430.30	1697.77
430.51	1814.50
430.71	1742.82
430.92	1681.38
431.13	1691.62
431.33	1779.68
431.54	1697.77
431.74	1867.75
431.95	1822.69
432.15	1691.62
432.36	1714.15
432.56	1763.30
432.77	1894.37
432.98	1832.93
433.18	1759.21
433.39	1726.44
433.59	1701.86
433.80	1785.83
434.00	1851.36
434.21	1705.96
434.41	1669.09
434.62	1824.74
434.82	1626.09
435.03	1597.42
435.23	1785.83
435.44	1589.22
435.64	1681.38
435.85	1751.01
436.06	1791.97
436.26	1849.32
436.47	1701.86
436.67	1681.38
436.88	1662.95
437.08	1765.35
437.29	1791.97
437.49	1720.29
437.70	1757.16
437.90	1681.38
438.11	1802.21
438.31	1814.50
438.52	1875.94
438.72	1869.80
438.93	1906.66
439.13	1716.20
439.34	1763.30
439.54	1710.05
439.75	1761.25
439.95	1751.01
440.16	1765.35
440.36	1662.95
440.57	1816.55
440.77	1789.92
440.98	1777.64
441.18	1920.99
441.39	1708.01
441.59	1742.82
441.80	1763.30
442.00	1728.49
442.21	1892.32
442.41	1626.09
442.62	1734.63
442.82	1695.72
443.02	1748.97
443.23	1726.44
443.43	1671.14
443.64	1826.79
443.84	1669.09
444.05	1837.03
444.25	1744.87
444.46	1714.15
444.66	1740.77
444.87	1849.32
445.07	1716.20
445.28	1742.82
445.48	1777.64
445.69	1685.48
445.89	1812.45
446.09	1732.58
446.30	2105.31
446.50	2676.70
446.71	3667.91
446.91	4446.14
447.12	4810.68
447.32	4831.16
447.53	4376.51
447.73	3809.22
447.93	3606.47
448.14	3356.62
448.34	3241.93
448.55	2944.98
448.75	2906.07
448.96	2695.13
449.16	2424.80
449.36	2308.06
449.57	2052.06
449.77	1927.14
449.98	1751.01
450.18	1794.02
450.39	1834.98
450.59	1800.16
450.79	1755.11
451.00	1734.63
451.20	1773.54
451.41	1785.83
451.61	1791.97
451.81	1699.81
452.02	1771.49
452.22	1738.73
452.43	1720.29
452.63	1730.53
452.84	1740.77
453.04	1746.92
453.24	1679.33
453.45	1679.33
453.65	1689.57
453.86	1785.83
454.06	1777.64
454.26	1759.21
454.47	1705.96
454.67	1757.16
454.87	1689.57
455.08	1695.72
455.28	1806.31
455.49	1746.92
455.69	1714.15
455.89	1890.28
456.10	1794.02
456.30	1734.63
456.51	1751.01
456.71	1722.34
456.91	1757.16
457.12	1769.44
457.32	1767.40
457.52	1744.87
457.73	1775.59
457.93	1710.05
458.14	1673.19
458.34	1716.20
458.54	1755.11
458.75	1638.38
458.95	1787.88
459.15	1724.39
459.36	1785.83
459.56	1781.73
459.76	1834.98
459.97	1742.82
460.17	1728.49
460.37	1847.27
460.58	1718.25
460.78	1748.97
460.99	1656.81
461.19	1732.58
461.39	1783.78
461.60	1638.38
461.80	1791.97
462.00	1746.92
462.21	1751.01
462.41	1736.68
462.61	1677.29
462.82	1671.14
463.02	1769.44
463.22	1746.92
463.43	1814.50
463.63	1736.68
463.83	1751.01
464.04	1761.25
464.24	1744.87
464.44	1693.67
464.64	1779.68
464.85	1736.68
465.05	1710.05
465.25	1783.78
465.46	1681.38
465.66	1775.59
465.86	1791.97
466.07	1744.87
466.27	1751.01
466.47	1665.00
466.68	1710.05
466.88	1845.22
467.08	1771.49
467.29	1820.64
467.49	1679.33
467.69	1695.72
467.89	1714.15
468.10	1816.55
468.30	1693.67
468.50	1824.74
468.71	1734.63
468.91	1619.94
469.11	1853.41
469.31	1849.32
469.52	1613.80
469.72	1808.36
469.92	1822.69
470.13	1708.01
470.33	1708.01
470.53	1820.64
470.73	2021.35
470.94	2242.53
471.14	2283.49
471.34	2494.43
471.54	2404.32
471.75	2271.20
471.95	2172.89
472.15	2052.06
472.36	2041.82
472.56	2070.50
472.76	2080.74
472.96	2013.15
473.17	1984.48
473.37	1871.84
473.57	1753.06
473.77	1828.84
473.98	1763.30
474.18	1648.61
474.38	1861.60
474.58	1658.85
474.79	1703.91
474.99	1824.74
475.19	1798.12
475.39	1652.71
475.60	1675.24
475.80	1714.15
476.00	1746.92
476.20	1718.25
476.41	1712.10
476.61	1839.08
476.81	1843.17
477.01	1642.47
477.21	1837.03
477.42	1818.60
477.62	1662.95
477.82	1718.25
478.02	1757.16
478.23	1771.49
478.43	1740.77
478.63	1722.34
478.83	1632.23
479.03	1673.19
479.24	1775.59
479.44	1761.25
479.64	1681.38
479.84	1646.57
480.04	1652.71
480.25	1771.49
480.45	1619.94
480.65	1771.49
480.85	1841.12
481.06	1679.33
481.26	1734.63
481.46	1734.63
481.66	1763.30
481.86	1656.81
482.06	1806.31
482.27	1724.39
482.47	1710.05
482.67	1759.21
482.87	1665.00
483.07	1765.35
483.28	1669.09
483.48	1628.14
483.68	1685.48
483.88	1632.23
484.08	1578.98
484.29	1609.70
484.49	1697.77
484.69	1699.81
484.89	1798.12
485.09	1759.21
485.29	1822.69
485.50	1742.82
485.70	1619.94
485.90	1789.92
486.10	1767.40
486.30	1816.55
486.50	1775.59
486.71	1744.87
486.91	1880.04
487.11	1724.39
487.31	1648.61
487.51	1787.88
487.71	1570.79
487.91	1574.89
488.12	1671.14
488.32	1552.36
488.52	1683.43
488.72	1632.23
488.92	1765.35
489.12	1783.78
489.32	1785.83
489.53	1812.45
489.73	1652.71
489.93	1855.46
490.13	1718.25
490.33	1701.86
490.53	1757.16
490.73	1814.50
490.94	1693.67
491.14	1785.83
491.34	1861.60
491.54	2099.17
491.74	2545.63
491.94	2875.35
492.14	3000.27
492.34	3043.28
492.54	2779.09
492.75	2461.66
492.95	2449.37
493.15	2316.25
493.35	2373.60
493.55	2209.76
493.75	2127.84
493.95	2062.30
494.15	1966.05
494.35	1904.61
494.56	1851.36
494.76	1748.97
494.96	1808.36
495.16	1796.07
495.36	1677.29
495.56	1794.02
495.76	1695.72
495.96	1763.30
496.16	1621.99
496.36	1751.01
496.56	1740.77
496.77	1685.48
496.97	1644.52
497.17	1757.16
497.37	1660.90
497.57	1748.97
497.77	1746.92
497.97	1607.66
498.17	1746.92
498.37	1685.48
498.57	1728.49
498.77	1728.49
498.97	1748.97
499.17	1771.49
499.38	1779.68
499.58	1808.36
499.78	1808.36
499.98	1779.68
500.18	1763.30
500.38	1710.05
500.58	1927.14
500.78	2619.35
500.98	4562.87
501.18	5875.62
501.38	6793.11
501.58	7208.85
501.78	6690.71
501.98	5595.05
502.18	4988.85
502.38	4554.68
502.58	4224.96
502.78	3807.17
502.98	3708.87
503.18	3434.44
503.38	3188.69
503.59	2852.82
503.79	2664.41
503.99	2500.57
504.19	2293.72
504.39	2248.67
504.59	2185.18
504.79	2115.55
504.99	2029.54
505.19	1861.60
505.39	1941.47
505.59	2000.87
505.79	1918.95
505.99	1845.22
506.19	1796.07
506.39	1871.84
506.59	1726.44
506.79	1738.73
506.99	1759.21
507.19	1660.90
507.39	1794.02
507.59	1701.86
507.79	1724.39
507.99	1693.67
508.19	1724.39
508.39	1705.96
508.59	1746.92
508.79	1855.46
508.99	1779.68
509.19	1718.25
509.39	1802.21
509.59	1705.96
509.79	1693.67
509.99	1802.21
510.19	1771.49
510.39	1708.01
510.59	1753.06
510.79	1601.51
510.99	1718.25
511.19	1757.16
511.39	1828.84
511.59	1794.02
511.79	1794.02
511.99	1703.91
512.19	1773.54
512.38	1628.14
512.58	1746.92
512.78	1828.84
512.98	1771.49
513.18	1845.22
513.38	1722.34
513.58	1775.59
513.78	1675.24
513.98	1738.73
514.18	1757.16
514.38	1732.58
514.58	1679.33
514.78	1648.61
514.98	1667.05
515.18	1757.16
515.38	1677.29
515.58	1779.68
515.78	1681.38
515.98	1742.82
516.18	1775.59
516.38	1824.74
516.57	1681.38
516.77	1802.21
516.97	1736.68
517.17	1705.96
517.37	1589.22
517.57	1789.92
517.77	1759.21
517.97	1667.05
518.17	1765.35
518.37	1658.85
518.57	1689.57
518.77	1724.39
518.97	1734.63
519.16	1740.77
519.36	1736.68
519.56	1738.73
519.76	1730.53
519.96	1773.54
520.16	1814.50
520.36	1681.38
520.56	1781.73
520.76	1654.76
520.96	1748.97
521.16	1796.07
521.35	1847.27
521.55	1814.50
521.75	1763.30
521.95	1722.34
522.15	1738.73
522.35	1675.24
522.55	1710.05
522.75	1867.75
522.95	1734.63
523.14	1673.19
523.34	1781.73
523.54	1679.33
523.74	1742.82
523.94	1687.53
524.14	1572.84
524.34	1742.82
524.54	1794.02
524.73	1724.39
524.93	1804.26
525.13	1798.12
525.33	1662.95
525.53	1898.47
525.73	1779.68
525.93	1716.20
526.13	1818.60
526.32	1791.97
526.52	1773.54
526.72	1740.77
526.92	1673.19
527.12	1789.92
527.32	1673.19
527.52	1726.44
527.71	1724.39
527.91	1763.30
528.11	1673.19
528.31	1693.67
528.51	1591.27
528.71	1789.92
528.90	1740.77
529.10	1759.21
529.30	1814.50
529.50	1646.57
529.70	1722.34
529.90	1650.66
530.09	1687.53
530.29	1624.04
530.49	1589.22
530.69	1869.80
530.89	1779.68
531.09	1781.73
531.28	1714.15
531.48	1851.36
531.68	1691.62
531.88	1746.92
532.08	1751.01
532.28	1681.38
532.47	1816.55
532.67	1718.25
532.87	1763.30
533.07	1673.19
533.27	1789.92
533.46	1773.54
533.66	1710.05
533.86	1779.68
534.06	1746.92
534.26	1718.25
534.45	1812.45
534.65	1830.88
534.85	1734.63
535.05	1798.12
535.25	1742.82
535.44	1665.00
535.64	1746.92
535.84	1691.62
536.04	1738.73
536.24	1665.00
536.43	1652.71
536.63	1806.31
536.83	1775.59
537.03	1714.15
537.22	1619.94
537.42	1652.71
537.62	1726.44
537.82	1751.01
538.02	1761.25
538.21	1791.97
538.41	1898.47
538.61	1824.74
538.81	1732.58
539.00	1810.40
539.20	1693.67
539.40	1714.15
539.60	1765.35
539.79	1761.25
539.99	1669.09
540.19	1689.57
540.39	1665.00
540.58	1767.40
540.78	1826.79
540.98	1656.81
541.18	1755.11
541.37	1751.01
541.57	1710.05
541.77	1708.01
541.97	1646.57
542.16	1650.66
542.36	1665.00
542.56	1671.14
542.76	1859.56
542.95	1734.63
543.15	1796.07
543.35	1777.64
543.54	1677.29
543.74	1742.82
543.94	1775.59
544.14	1624.04
544.33	1699.81
544.53	1718.25
544.73	1746.92
544.93	1701.86
545.12	1687.53
545.32	1738.73
545.52	1712.10
545.71	1710.05
545.91	1726.44
546.11	1646.57
546.30	1687.53
546.50	1681.38
546.70	1771.49
546.90	1746.92
547.09	1609.70
547.29	1724.39
547.49	1802.21
547.68	1683.43
547.88	1732.58
548.08	1705.96
548.27	2234.33
548.47	1699.81
548.67	1677.29
548.87	1746.92
549.06	1695.72
549.26	1806.31
549.46	1761.25
549.65	1681.38
549.85	1742.82
550.05	1777.64
550.24	1675.24
550.44	1697.77
550.64	1724.39
550.83	1683.43
551.03	1775.59
551.23	1761.25
551.42	1791.97
551.62	1804.26
551.82	1705.96
552.01	1722.34
552.21	1800.16
552.41	1738.73
552.60	1759.21
552.80	1665.00
553.00	1687.53
553.19	1714.15
553.39	1806.31
553.59	1656.81
553.78	1738.73
553.98	1757.16
554.17	1650.66
554.37	1732.58
554.57	1826.79
554.76	1665.00
554.96	1691.62
555.16	1619.94
555.35	1785.83
555.55	1722.34
555.75	1787.88
555.94	1681.38
556.14	1636.33
556.33	1806.31
556.53	1794.02
556.73	1746.92
556.92	1763.30
557.12	1851.36
557.32	1847.27
557.51	1767.40
557.71	1724.39
557.90	1875.94
558.10	1767.40
558.30	1667.05
558.49	1777.64
558.69	1701.86
558.88	1705.96
559.08	1710.05
559.28	1748.97
559.47	1796.07
559.67	1734.63
559.86	1843.17
560.06	1722.34
560.26	1718.25
560.45	1724.39
560.65	1738.73
560.84	1738.73
561.04	1662.95
561.24	1800.16
561.43	1681.38
561.63	1796.07
561.82	1728.49
562.02	1732.58
562.22	1658.85
562.41	1720.29
562.61	1765.35
562.80	1701.86
563.00	1857.51
563.19	1742.82
563.39	1726.44
563.59	1775.59
563.78	1691.62
563.98	1644.52
564.17	1656.81
564.37	1660.90
564.56	1708.01
564.76	1632.23
564.96	1882.08
565.15	1699.81
565.35	1861.60
565.54	1654.76
565.74	1869.80
565.93	1785.83
566.13	1740.77
566.32	1753.06
566.52	1775.59
566.71	1794.02
566.91	1789.92
567.11	1703.91
567.30	1712.10
567.50	1744.87
567.69	1789.92
567.89	1763.30
568.08	1697.77
568.28	1794.02
568.47	1691.62
568.67	1669.09
568.86	1675.24
569.06	1783.78
569.25	1665.00
569.45	1718.25
569.64	1720.29
569.84	1705.96
570.04	1671.14
570.23	1677.29
570.43	1673.19
570.62	1808.36
570.82	1820.64
571.01	1755.11
571.21	1679.33
571.40	1720.29
571.60	1812.45
571.79	1720.29
571.99	1757.16
572.18	1689.57
572.38	1753.06
572.57	1679.33
572.77	1845.22
572.96	1935.33
573.16	1746.92
573.35	1734.63
573.55	1855.46
573.74	1734.63
573.94	1773.54
574.13	1773.54
574.33	1763.30
574.52	1861.60
574.71	1794.02
574.91	1777.64
575.10	1708.01
575.30	1720.29
575.49	1677.29
575.69	1712.10
575.88	1804.26
576.08	1691.62
576.27	1693.67
576.47	1687.53
576.66	1849.32
576.86	1751.01
577.05	1755.11
577.25	1826.79
577.44	1822.69
577.64	1714.15
577.83	1722.34
578.02	1703.91
578.22	1839.08
578.41	1908.71
578.61	1789.92
578.80	1726.44
579.00	1771.49
579.19	1687.53
579.39	1724.39
579.58	1791.97
579.77	1742.82
579.97	1853.41
580.16	1820.64
580.36	1865.70
580.55	1808.36
580.75	1746.92
580.94	1751.01
581.13	1884.13
581.33	1822.69
581.52	1720.29
581.72	1871.84
581.91	1896.42
582.11	1708.01
582.30	1865.70
582.49	1703.91
582.69	1822.69
582.88	1716.20
583.08	1808.36
583.27	1826.79
583.47	1693.67
583.66	1794.02
583.85	1673.19
584.05	1861.60
584.24	1748.97
584.44	1791.97
584.63	1767.40
584.82	1824.74
585.02	1802.21
585.21	1859.56
585.41	1832.93
585.60	1746.92
585.79	1894.37
585.99	1886.18
586.18	1894.37
586.37	2140.13
586.57	3401.68
586.76	10168.16
586.96	24745.61
587.15	34842.09
587.34	40965.52
587.54	42630.52
587.73	37086.67
587.93	26461.80
588.12	21915.31
588.31	18568.93
588.51	16619.27
588.70	15290.13
588.89	14298.92
589.09	12609.34
589.28	11253.59
589.47	9498.48
589.67	8257.41
589.86	6371.23
590.06	5001.14
590.25	3913.67
590.44	3248.08
590.64	2617.30
590.83	2320.35
591.02	2095.07
591.22	1961.95
591.41	1863.65
591.60	1857.51
591.80	1882.08
591.99	1718.25
592.18	1855.46
592.38	1810.40
592.57	1779.68
592.76	1742.82
592.96	1783.78
593.15	1824.74
593.34	1787.88
593.54	1765.35
593.73	1757.16
593.92	1787.88
594.12	1736.68
594.31	1740.77
594.50	1847.27
594.70	1806.31
594.89	1822.69
595.08	1640.42
595.28	1785.83
595.47	1837.03
595.66	1765.35
595.86	1658.85
596.05	1652.71
596.24	1765.35
596.43	1767.40
596.63	1843.17
596.82	1748.97
597.01	1820.64
597.21	1806.31
597.40	1787.88
597.59	1769.44
597.79	1738.73
597.98	1783.78
598.17	1804.26
598.36	1800.16
598.56	1746.92
598.75	1710.05
598.94	1742.82
599.14	1777.64
599.33	1701.86
599.52	1820.64
599.71	1822.69
599.91	1804.26
600.10	1742.82
600.29	1742.82
600.48	1765.35
600.68	1738.73
600.87	1619.94
601.06	1705.96
601.26	1732.58
601.45	1753.06
601.64	1675.24
601.83	1816.55
602.03	1740.77
602.22	1726.44
602.41	1808.36
602.60	1849.32
602.80	1794.02
602.99	1742.82
603.18	1648.61
603.37	1708.01
603.57	1746.92
603.76	1697.77
603.95	1816.55
604.14	1714.15
604.34	1701.86
604.53	1777.64
604.72	1738.73
604.91	1728.49
605.10	1804.26
605.30	1755.11
605.49	1871.84
605.68	1787.88
605.87	1779.68
606.07	1722.34
606.26	1732.58
606.45	1753.06
606.64	1751.01
606.84	1705.96
607.03	1720.29
607.22	1794.02
607.41	1705.96
607.60	1769.44
607.80	1755.11
607.99	1701.86
608.18	1691.62
608.37	1773.54
608.56	1660.90
608.76	1791.97
608.95	1849.32
609.14	1728.49
609.33	1724.39
609.52	1820.64
609.72	1712.10
609.91	1814.50
610.10	1736.68
610.29	1814.50
610.48	1695.72
610.68	1779.68
610.87	1734.63
611.06	1779.68
611.25	1716.20
611.44	1834.98
611.63	1716.20
611.83	1808.36
612.02	1720.29
612.21	1810.40
612.40	1619.94
612.59	1677.29
612.79	1722.34
612.98	1744.87
613.17	1777.64
613.36	1722.34
613.55	1849.32
613.74	1646.57
613.93	1683.43
614.13	1748.97
614.32	1800.16
614.51	1742.82
614.70	1708.01
614.89	1615.85
615.08	1734.63
615.28	2068.45
615.47	1669.09
615.66	1720.29
615.85	1646.57
616.04	1796.07
616.23	1738.73
616.42	1689.57
616.62	1755.11
616.81	1718.25
617.00	1701.86
617.19	1779.68
617.38	1697.77
617.57	1650.66
617.76	1740.77
617.95	1794.02
618.15	1712.10
618.34	1804.26
618.53	1689.57
618.72	1761.25
618.91	1755.11
619.10	1816.55
619.29	1740.77
619.48	1783.78
619.68	1689.57
619.87	1714.15
620.06	1693.67
620.25	1691.62
620.44	1681.38
620.63	1728.49
620.82	1712.10
621.01	1724.39
621.20	1656.81
621.39	1716.20
621.59	1748.97
621.78	1724.39
621.97	1681.38
622.16	1769.44
622.35	1738.73
622.54	1781.73
622.73	1777.64
622.92	1601.51
623.11	1781.73
623.30	1691.62
623.49	1753.06
623.68	1744.87
623.88	1804.26
624.07	1724.39
624.26	1736.68
624.45	1728.49
624.64	1738.73
624.83	1689.57
625.02	1650.66
625.21	1734.63
625.40	1800.16
625.59	1796.07
625.78	1695.72
625.97	1728.49
626.16	1703.91
626.35	1822.69
626.54	1724.39
626.74	1781.73
626.93	1634.28
627.12	1665.00
627.31	1845.22
627.50	1726.44
627.69	1804.26
627.88	1701.86
628.07	1720.29
628.26	1583.08
628.45	1626.09
628.64	1621.99
628.83	1757.16
629.02	1689.57
629.21	1699.81
629.40	1777.64
629.59	1683.43
629.78	1660.90
629.97	1744.87
630.16	1673.19
630.35	1716.20
630.54	1738.73
630.73	1701.86
630.92	1744.87
631.11	1662.95
631.30	1679.33
631.49	1824.74
631.68	1738.73
631.87	1689.57
632.06	1658.85
632.25	1834.98
632.44	1708.01
632.63	1710.05
632.82	1607.66
633.01	1644.52
633.20	1740.77
633.39	1677.29
633.58	1634.28
633.77	1673.19
633.96	1779.68
634.15	1703.91
634.34	1736.68
634.53	1734.63
634.72	1675.24
634.91	1574.89
635.10	1658.85
635.29	1779.68
635.48	1646.57
635.67	1728.49
635.86	1621.99
636.05	1753.06
636.24	1693.67
636.43	1734.63
636.62	1839.08
636.81	1595.37
637.00	1679.33
637.19	1773.54
637.38	1738.73
637.57	1683.43
637.76	1720.29
637.95	1701.86
638.14	1617.90
638.33	1650.66
638.52	1705.96
638.71	1632.23
638.89	1683.43
639.08	1814.50
639.27	1781.73
639.46	1716.20
639.65	1714.15
639.84	1732.58
640.03	1771.49
640.22	1742.82
640.41	1812.45
640.60	1615.85
640.79	1718.25
640.98	1673.19
641.17	1830.88
641.36	1730.53
641.55	1714.15
641.74	1638.38
641.92	1771.49
642.11	1626.09
642.30	1677.29
642.49	1681.38
642.68	1619.94
642.87	1746.92
643.06	1742.82
643.25	1800.16
643.44	1677.29
643.63	1734.63
643.82	1771.49
644.00	1665.00
644.19	1744.87
644.38	1640.42
644.57	1773.54
644.76	1689.57
644.95	1701.86
645.14	1826.79
645.33	1783.78
645.52	1730.53
645.71	1683.43
645.89	1687.53
646.08	1751.01
646.27	1718.25
646.46	1810.40
646.65	1626.09
646.84	1791.97
647.03	1708.01
647.22	1785.83
647.40	1726.44
647.59	1736.68
647.78	1681.38
647.97	1650.66
648.16	1718.25
648.35	1880.04
648.54	1691.62
648.73	1671.14
648.91	1767.40
649.10	1730.53
649.29	1746.92
649.48	1699.81
649.67	1746.92
649.86	1697.77
650.05	1673.19
650.23	1779.68
650.42	1656.81
650.61	1693.67
650.80	1751.01
650.99	1912.80
651.18	1773.54
651.36	1748.97
651.55	1648.61
651.74	1742.82
651.93	1662.95
652.12	1783.78
652.31	1632.23
652.49	1705.96
652.68	1615.85
652.87	1755.11
653.06	1734.63
653.25	1783.78
653.44	1751.01
653.62	1849.32
653.81	1714.15
654.00	1779.68
654.19	1820.64
654.38	1925.09
654.56	1714.15
654.75	1710.05
654.94	1669.09
655.13	1740.77
655.32	1742.82
655.51	1755.11
655.69	1730.53
655.88	1744.87
656.07	1658.85
656.26	1767.40
656.45	1658.85
656.63	1732.58
656.82	1734.63
657.01	1714.15
657.20	1703.91
657.38	1804.26
657.57	1691.62
657.76	1673.19
657.95	1808.36
658.14	1722.34
658.32	1710.05
658.51	1697.77
658.70	1746.92
658.89	1722.34
659.08	1679.33
659.26	1832.93
659.45	1660.90
659.64	1753.06
659.83	1681.38
660.01	1953.76
660.20	1681.38
660.39	1755.11
660.58	1562.60
660.76	1755.11
660.95	1576.94
661.14	1656.81
661.33	1695.72
661.51	1708.01
661.70	1693.67
661.89	1787.88
662.08	1751.01
662.26	1591.27
662.45	1585.13
662.64	1837.03
662.83	1742.82
663.01	1638.38
663.20	1636.33
663.39	1722.34
663.58	1677.29
663.76	1757.16
663.95	1755.11
664.14	1685.48
664.32	1734.63
664.51	1679.33
664.70	1628.14
664.89	1816.55
665.07	1574.89
665.26	1705.96
665.45	1722.34
665.64	1767.40
665.82	1740.77
666.01	1751.01
666.20	1667.05
666.38	1740.77
666.57	1804.26
666.76	2185.18
666.95	4427.71
667.13	10588.00
667.32	15529.75
667.51	18024.17
667.69	19390.17
667.88	17823.47
668.07	12429.12
668.25	9566.06
668.44	8316.80
668.63	7511.95
668.81	6985.62
669.00	6379.42
669.19	5762.98
669.38	4958.13
669.56	4577.21
669.75	4018.11
669.94	3448.78
670.12	2949.08
670.31	2664.41
670.50	2240.48
670.68	2064.35
670.87	1945.57
671.06	1751.01
671.24	1806.31
671.43	1812.45
671.62	1734.63
671.80	1691.62
671.99	1796.07
672.18	1650.66
672.36	1740.77
672.55	1724.39
672.74	1740.77
672.92	1636.33
673.11	1763.30
673.29	1660.90
673.48	1779.68
673.67	1691.62
673.85	1775.59
674.04	1712.10
674.23	1640.42
674.41	1837.03
674.60	1681.38
674.79	1613.80
674.97	1615.85
675.16	1767.40
675.34	1712.10
675.53	1714.15
675.72	1722.34
675.90	1789.92
676.09	1771.49
676.28	1730.53
676.46	1685.48
676.65	1787.88
676.83	1624.04
677.02	1665.00
677.21	1769.44
677.39	1712.10
677.58	1658.85
677.77	1703.91
677.95	1679.33
678.14	1714.15
678.32	1685.48
678.51	1671.14
678.70	1828.84
678.88	1675.24
679.07	1785.83
679.25	1757.16
679.44	1763.30
679.63	1638.38
679.81	1785.83
680.00	1841.12
680.18	1685.48
680.37	1722.34
680.55	1710.05
680.74	1644.52
680.93	1550.31
681.11	1755.11
681.30	1708.01
681.48	1716.20
681.67	1751.01
681.85	1812.45
682.04	1626.09
682.23	1732.58
682.41	1681.38
682.60	1736.68
682.78	1697.77
682.97	1638.38
683.15	1751.01
683.34	1728.49
683.53	1777.64
683.71	1628.14
683.90	1877.99
684.08	1775.59
684.27	1673.19
684.45	1726.44
684.64	1779.68
684.82	1697.77
685.01	1705.96
685.19	1742.82
685.38	1738.73
685.57	1742.82
685.75	1708.01
685.94	1703.91
686.12	1615.85
686.31	1718.25
686.49	1839.08
686.68	1591.27
686.86	1755.11
687.05	1734.63
687.23	1826.79
687.42	1728.49
687.60	1652.71
687.79	1785.83
687.97	1746.92
688.16	1775.59
688.34	1703.91
688.53	1650.66
688.71	1796.07
688.90	1834.98
689.08	1691.62
689.27	1605.61
689.45	1714.15
689.64	1767.40
689.82	1787.88
690.01	1650.66
690.19	1734.63
690.38	1683.43
690.56	1791.97
690.75	1724.39
690.93	1658.85
691.12	1662.95
691.30	1697.77
691.49	1615.85
691.67	1681.38
691.86	1746.92
692.04	1671.14
692.23	1673.19
692.41	1693.67
692.60	1777.64
692.78	1718.25
692.97	1708.01
693.15	1708.01
693.34	1853.41
693.52	1759.21
693.71	1669.09
693.89	1693.67
694.08	1673.19
694.26	1763.30
694.44	1712.10
694.63	1718.25
694.81	1656.81
695.00	1591.27
695.18	1789.92
695.37	1820.64
695.55	1734.63
695.74	1640.42
695.92	1708.01
696.10	1771.49
696.29	1628.14
696.47	1671.14
696.66	1583.08
696.84	1619.94
697.03	1669.09
697.21	1843.17
697.40	2293.72
697.58	1740.77
697.76	1681.38
697.95	1689.57
698.13	1632.23
698.32	1660.90
698.50	1689.57
698.68	1705.96
698.87	1796.07
699.05	1730.53
699.24	1689.57
699.42	1640.42
699.61	1759.21
699.79	1783.78
699.97	1816.55
700.16	1597.42
700.34	1660.90
700.53	1716.20
700.71	1771.49
700.89	1699.81
701.08	1652.71
701.26	1724.39
701.45	2074.59
701.63	1667.05
701.81	1708.01
702.00	1613.80
702.18	1605.61
702.37	1650.66
702.55	1787.88
702.73	1755.11
702.92	1599.46
703.10	1683.43
703.28	1732.58
703.47	1626.09
703.65	1712.10
703.84	1718.25
704.02	1617.90
704.20	1787.88
704.39	1703.91
704.57	1681.38
704.75	1785.83
704.94	1822.69
705.12	1714.15
705.30	1804.26
705.49	2263.01
705.67	4249.54
705.86	9406.32
706.04	12818.24
706.22	14706.46
706.41	15456.02
706.59	14034.73
706.77	9676.65
706.96	7452.56
707.14	6686.62
707.32	6035.36
707.51	5595.05
707.69	5001.14
707.87	4259.78
708.06	3643.34
708.24	2971.60
708.42	2416.60
708.61	2164.70
708.79	1902.56
708.97	1824.74
709.16	1765.35
709.34	1746.92
709.52	1724.39
709.71	1705.96
709.89	1748.97
710.07	1697.77
710.26	1734.63
710.44	1753.06
710.62	1701.86
710.80	1755.11
710.99	1820.64
711.17	1740.77
711.35	1671.14
711.54	1665.00
711.72	1841.12
711.90	1705.96
712.09	1671.14
712.27	1699.81
712.45	1726.44
712.63	1701.86
712.82	1730.53
713.00	1701.86
713.18	1669.09
713.37	1771.49
713.55	1783.78
713.73	1787.88
713.91	1767.40
714.10	1650.66
714.28	1693.67
714.46	1712.10
714.65	1714.15
714.83	1722.34
715.01	1689.57
715.19	1703.91
715.38	1646.57
715.56	1763.30
715.74	1617.90
715.92	1624.04
716.11	1665.00
716.29	1611.75
716.47	1753.06
716.65	1615.85
716.84	1638.38
717.02	1751.01
717.20	1601.51
717.38	1697.77
717.57	1673.19
717.75	1773.54
717.93	1691.62
718.11	1759.21
718.30	1669.09
718.48	1714.15
718.66	1794.02
718.84	1777.64
719.03	1705.96
719.21	1648.61
719.39	1787.88
719.57	1738.73
719.75	1759.21
719.94	1640.42
720.12	1685.48
720.30	1665.00
720.48	1771.49
720.67	1665.00
720.85	1667.05
721.03	1675.24
721.21	1638.38
721.39	1728.49
721.58	1705.96
721.76	1748.97
721.94	1787.88
722.12	1660.90
722.30	1763.30
722.49	1734.63
722.67	1703.91
722.85	1714.15
723.03	1660.90
723.21	1677.29
723.40	1652.71
723.58	1791.97
723.76	1734.63
723.94	1714.15
724.12	1697.77
724.30	1808.36
724.49	1765.35
724.67	1695.72
724.85	1791.97
725.03	1638.38
725.21	1824.74
725.40	1734.63
725.58	1642.47
725.76	1708.01
725.94	1716.20
726.12	1701.86
726.30	1712.10
726.49	1669.09
726.67	1679.33
726.85	1699.81
727.03	1757.16
727.21	2144.22
727.39	2893.78
727.57	3864.52
727.76	4270.01
727.94	4440.00
728.12	4396.99
728.30	3788.74
728.48	3065.81
728.66	2754.52
728.84	2543.58
729.03	2312.16
729.21	2215.90
729.39	2093.02
729.57	1818.60
729.75	1923.04
729.93	1849.32
730.11	1701.86
730.30	1761.25
730.48	1660.90
730.66	1740.77
730.84	1695.72
731.02	1683.43
731.20	1605.61
731.38	1787.88
731.56	1634.28
731.74	1662.95
731.93	1642.47
732.11	1701.86
732.29	1669.09
732.47	1767.40
732.65	1642.47
732.83	1767.40
733.01	1757.16
733.19	1599.46
733.37	1751.01
733.56	1673.19
733.74	1744.87
733.92	1818.60
734.10	1589.22
734.28	1689.57
734.46	1581.03
734.64	1691.62
734.82	1675.24
735.00	1671.14
735.18	1615.85
735.36	1697.77
735.54	1667.05
735.73	1656.81
735.91	1683.43
736.09	1726.44
736.27	1748.97
736.45	1787.88
736.63	1716.20
736.81	1724.39
736.99	1691.62
737.17	1783.78
737.35	1804.26
737.53	1714.15
737.71	1634.28
737.89	1710.05
738.07	1640.42
738.25	1755.11
738.43	1615.85
738.61	1677.29
738.80	1552.36
738.98	1705.96
739.16	1681.38
739.34	1677.29
739.52	1826.79
739.70	1662.95
739.88	1703.91
740.06	1746.92
740.24	1593.32
740.42	1736.68
740.60	1583.08
740.78	1667.05
740.96	1617.90
741.14	1697.77
741.32	1660.90
741.50	1636.33
741.68	1834.98
741.86	1800.16
742.04	1675.24
742.22	1667.05
742.40	1642.47
742.58	1677.29
742.76	1703.91
742.94	1791.97
743.12	1617.90
743.30	1699.81
743.48	1732.58
743.66	1730.53
743.84	1753.06
744.02	1689.57
744.20	1667.05
744.38	1675.24
744.56	1679.33
744.74	1857.51
744.92	1638.38
745.10	1818.60
745.28	1703.91
745.46	1773.54
745.64	1656.81
745.82	1755.11
746.00	1658.85
746.18	1779.68
746.36	1626.09
746.54	1705.96
746.72	1724.39
746.90	1712.10
747.08	1712.10
747.26	1714.15
747.44	1746.92
747.62	1705.96
747.80	1740.77
747.98	1730.53
748.15	1671.14
748.33	1808.36
748.51	1662.95
748.69	1673.19
748.87	1658.85
749.05	1697.77
749.23	1656.81
749.41	1765.35
749.59	1705.96
749.77	1734.63
749.95	1671.14
750.13	1710.05
750.31	1705.96
750.49	1718.25
750.67	1753.06
750.85	1787.88
751.03	1697.77
751.20	1798.12
751.38	1712.10
751.56	1712.10
751.74	1724.39
751.92	1640.42
752.10	1673.19
752.28	1746.92
752.46	1642.47
752.64	1753.06
752.82	1738.73
753.00	1828.84
753.18	1640.42
753.35	1636.33
753.53	1695.72
753.71	1632.23
753.89	1738.73
754.07	1656.81
754.25	1791.97
754.43	1716.20
754.61	1673.19
754.79	1804.26
754.97	1695.72
755.14	1802.21
755.32	1656.81
755.50	1660.90
755.68	1714.15
755.86	1660.90
756.04	1667.05
756.22	1581.03
756.40	1742.82
756.57	1810.40
756.75	1669.09
756.93	1759.21
757.11	1787.88
757.29	1656.81
757.47	1710.05
757.65	1646.57
757.82	1619.94
758.00	1718.25
758.18	1732.58
758.36	1660.90
758.54	1748.97
758.72	1566.70
758.90	1744.87
759.07	1738.73
759.25	1636.33
759.43	1736.68
759.61	1671.14
759.79	2123.74
759.97	1714.15
760.15	1710.05
760.32	1665.00
760.50	1646.57
760.68	1724.39
760.86	1617.90
761.04	1753.06
761.22	1712.10
761.39	1779.68
761.57	1730.53
761.75	1685.48
761.93	1716.20
762.11	1646.57
762.28	1722.34
762.46	1683.43
762.64	1775.59
762.82	1603.56
763.00	1691.62
763.18	1759.21
763.35	1585.13
763.53	1722.34
763.71	1705.96
763.89	1730.53
764.07	1673.19
764.24	1718.25
764.42	1806.31
764.60	1597.42
764.78	1755.11
764.96	1710.05
765.13	1734.63
765.31	1736.68
765.49	1763.30
765.67	1660.90
765.84	1677.29
766.02	1615.85
766.20	1601.51
766.38	1683.43
766.56	1738.73
766.73	1828.84
766.91	1710.05
767.09	1685.48
767.27	1748.97
767.44	1648.61
767.62	1748.97
767.80	1765.35
767.98	1632.23
768.15	1667.05
768.33	1738.73
768.51	1748.97
768.69	1701.86
768.87	1742.82
769.04	1660.90
769.22	1863.65
769.40	1826.79
769.58	1894.37
769.75	1718.25
769.93	1738.73
770.11	1728.49
770.28	1693.67
770.46	1734.63
770.64	1722.34
770.82	1683.43
770.99	1773.54
771.17	1708.01
771.35	1650.66
771.53	1683.43
771.70	1673.19
771.88	1714.15
772.06	1728.49
772.23	1734.63
772.41	1767.40
772.59	1662.95
772.77	1648.61
772.94	1701.86
773.12	1771.49
773.30	1732.58
773.47	1669.09
773.65	1734.63
773.83	1814.50
774.01	1658.85
774.18	1638.38
774.36	1660.90
774.54	1628.14
774.71	1703.91
774.89	1570.79
775.07	1662.95
775.24	1683.43
775.42	1767.40
775.60	1828.84
775.78	1712.10
775.95	1683.43
776.13	1665.00
776.31	1572.84
776.48	1673.19
776.66	1738.73
776.84	1718.25
777.01	1708.01
777.19	1679.33
777.37	1640.42
777.54	1716.20
777.72	1767.40
777.90	1710.05
778.07	1562.60
778.25	1849.32
778.43	1738.73
778.60	1654.76
778.78	1710.05
778.96	1814.50
779.13	1607.66
779.31	1802.21
779.49	1652.71
779.66	1693.67
779.84	1703.91
780.01	1675.24
780.19	1607.66
780.37	1796.07
780.54	1728.49
780.72	1626.09
780.90	1650.66
781.07	1677.29
781.25	1656.81
781.43	1652.71
781.60	1656.81
781.78	1726.44
781.95	1804.26
782.13	1648.61
782.31	1652.71
782.48	1656.81
782.66	1689.57
782.83	1789.92
783.01	1628.14
783.19	1744.87
783.36	1681.38
783.54	1583.08
783.72	1736.68
783.89	1648.61
784.07	1714.15
784.24	1722.34
784.42	1802.21
784.60	1644.52
784.77	1710.05
784.95	1599.46
785.12	1685.48
785.30	1681.38
785.47	1697.77
785.65	1640.42
785.83	1697.77
786.00	1660.90
786.18	1748.97
786.35	1605.61
786.53	1640.42
786.71	1808.36
786.88	1712.10
787.06	1753.06
787.23	1732.58
787.41	1624.04
787.58	1732.58
787.76	1697.77
787.94	1648.61
788.11	1708.01
788.29	1673.19
788.46	1624.04
788.64	1642.47
788.81	1718.25
788.99	1652.71
789.16	1687.53
789.34	1746.92
789.52	1654.76
789.69	1677.29
789.87	1593.32
790.04	1617.90
790.22	1767.40
790.39	1753.06
790.57	1665.00
790.74	1650.66
790.92	1726.44
791.09	1585.13
791.27	1703.91
791.44	1712.10
791.62	1742.82
791.79	1718.25
791.97	1689.57
792.15	1830.88
792.32	1689.57
792.50	1710.05
792.67	1771.49
792.85	1757.16
793.02	1738.73
793.20	1679.33
793.37	1634.28
793.55	1681.38
793.72	1609.70
793.90	1781.73
794.07	1619.94
794.25	1607.66
794.42	1701.86
794.60	1648.61
794.77	1697.77
794.95	1769.44
795.12	1726.44
795.30	1755.11
795.47	1636.33
795.65	1765.35
795.82	1687.53
796.00	1703.91
796.17	1673.19
796.34	1646.57
796.52	1687.53
796.69	1751.01
796.87	1705.96
797.04	1710.05
797.22	1789.92
797.39	1738.73
797.57	1755.11
797.74	1705.96
797.92	1746.92
798.09	1683.43
798.27	1724.39
798.44	1714.15
798.62	1691.62
798.79	1693.67
798.96	1738.73
799.14	1753.06
799.31	1794.02
799.49	1681.38
799.66	1636.33
799.84	1755.11
800.01	1636.33
800.19	1763.30
800.36	1615.85
800.53	1685.48
800.71	1812.45
800.88	1773.54
801.06	1636.33
801.23	1705.96
801.41	1703.91
801.58	1714.15
801.75	1667.05
801.93	1740.77
802.10	1767.40
802.28	1656.81
802.45	1656.81
802.63	1812.45
802.80	1763.30
802.97	1648.61
803.15	1675.24
803.32	1593.32
803.50	1638.38
803.67	1683.43
803.84	1685.48
804.02	1732.58
804.19	1689.57
804.37	1640.42
804.54	1683.43
804.71	1726.44
804.89	1693.67
805.06	1726.44
805.24	1640.42
805.41	1689.57
805.58	1640.42
805.76	1767.40
805.93	1736.68
806.10	1783.78
806.28	1703.91
806.45	1628.14
806.63	1714.15
806.80	1705.96
806.97	1665.00
807.15	1703.91
807.32	1693.67
807.49	1660.90
807.67	1695.72
807.84	1740.77
808.01	1574.89
808.19	1761.25
808.36	1832.93
808.54	1691.62
808.71	1630.18
808.88	1710.05
809.06	1683.43
809.23	1769.44
809.40	1677.29
809.58	1806.31
809.75	1646.57
809.92	1619.94
810.10	1806.31
810.27	1761.25
810.44	1771.49
810.62	1677.29
810.79	1689.57
810.96	1740.77
811.14	1617.90
811.31	1751.01
811.48	1738.73
811.66	1722.34
811.83	1736.68
812.00	1746.92
812.18	1740.77
812.35	1767.40
812.52	1603.56
812.69	1726.44
812.87	1683.43
813.04	1679.33
813.21	1710.05
813.39	1652.71
813.56	1693.67
813.73	1720.29
813.91	1656.81
814.08	1687.53
814.25	1738.73
814.42	1626.09
814.60	1734.63
814.77	1665.00
814.94	1701.86
815.12	1673.19
815.29	1791.97
815.46	1665.00
815.63	1695.72
815.81	1716.20
815.98	1681.38
816.15	1662.95
816.33	1738.73
816.50	1681.38
816.67	1675.24
816.84	1769.44
817.02	1591.27
817.19	1652.71
817.36	1710.05
817.53	1689.57
817.71	1648.61
817.88	1693.67
818.05	1699.81
818.22	1689.57
818.40	1804.26
818.57	1636.33
818.74	1689.57
818.91	1671.14
819.09	1748.97
819.26	1744.87
819.43	1607.66
819.60	1599.46
819.78	1716.20
819.95	1730.53
820.12	1630.18
820.29	1783.78
820.47	1712.10
820.64	1689.57
820.81	1658.85
820.98	1673.19
821.15	1660.90
821.33	1730.53
821.50	1595.37
821.67	1800.16
821.84	1742.82
822.02	1773.54
822.19	1759.21
822.36	1708.01
822.53	1671.14
822.70	1685.48
822.88	1714.15
823.05	1798.12
823.22	1759.21
823.39	1742.82
823.56	1718.25
823.74	1828.84
823.91	1648.61
824.08	1632.23
824.25	1642.47
824.42	1708.01
824.60	1630.18
824.77	1722.34
824.94	1601.51
825.11	1665.00
825.28	1576.94
825.45	1718.25
825.63	1761.25
825.80	1679.33
825.97	1775.59
826.14	1685.48
826.31	1599.46
826.48	1679.33
826.66	1656.81
826.83	1683.43
827.00	1699.81
827.17	1665.00
827.34	1718.25
827.51	1576.94
827.69	1632.23
827.86	1632.23
828.03	1734.63
828.20	1769.44
828.37	1726.44
828.54	1775.59
828.71	1611.75
828.89	1800.16
829.06	1726.44
829.23	1871.84
829.40	1677.29
829.57	1685.48
829.74	1632.23
829.91	1789.92
830.09	1644.52
830.26	1708.01
830.43	1691.62
830.60	1742.82
830.77	1761.25
830.94	1769.44
831.11	1742.82
831.28	1701.86
831.46	1753.06
831.63	1621.99
831.80	1773.54
831.97	1574.89
832.14	1632.23
832.31	1724.39
832.48	1789.92
832.65	1718.25
832.82	1642.47
832.99	1703.91
833.17	1656.81
833.34	1845.22
833.51	1767.40
833.68	1665.00
833.85	1787.88
834.02	1669.09
834.19	1656.81
834.36	1699.81
834.53	1685.48
834.70	1697.77
834.87	1763.30
835.04	1708.01
835.22	1628.14
835.39	1771.49
835.56	1621.99
835.73	1658.85
835.90	1712.10
836.07	1642.47
836.24	1761.25
836.41	1667.05
836.58	1671.14
836.75	1753.06
836.92	1779.68
837.09	1626.09
837.26	1705.96
837.43	1665.00
837.60	1722.34
837.77	1703.91
837.94	1693.67
838.12	1763.30
838.29	1720.29
838.46	1642.47
838.63	1630.18
838.80	1820.64
838.97	1767.40
839.14	1693.67
839.31	1748.97
839.48	1703.91
839.65	1675.24
839.82	1728.49
839.99	1748.97
840.16	1652.71
840.33	1634.28
840.50	1691.62
840.67	1615.85
840.84	1624.04
841.01	1685.48
841.18	1738.73
841.35	1697.77
841.52	1767.40
841.69	1839.08
841.86	1708.01
842.03	1683.43
842.20	1710.05
842.37	1677.29
842.54	1755.11
842.71	1687.53
842.88	1624.04
843.05	1771.49
843.22	1693.67
843.39	1742.82
843.56	1675.24
843.73	1626.09
843.90	1656.81
844.07	1726.44
844.24	1738.73
844.41	1734.63
844.58	1665.00
844.75	1687.53
844.92	1669.09
845.09	1669.09
845.26	1701.86
845.43	1722.34
845.60	1632.23
845.77	1740.77
845.94	1705.96
846.10	1761.25
846.27	1681.38
846.44	1648.61
846.61	1630.18
846.78	1642.47
846.95	1748.97
847.12	1671.14
847.29	1640.42
847.46	1671.14
847.63	1771.49
847.80	1644.52
847.97	1656.81
848.14	1841.12
848.31	1648.61
848.48	1624.04
848.65	1693.67
848.82	1605.61
848.98	1822.69
849.15	1722.34
849.32	1804.26
849.49	1642.47
849.66	1689.57
849.83	1738.73
850.00	1605.61
850.17	1724.39
850.34	1689.57
850.51	1677.29
850.68	1679.33
850.85	1740.77
851.01	1695.72
851.18	1789.92
851.35	1677.29
851.52	1708.01
851.69	1767.40
851.86	1646.57
852.03	1669.09
852.20	1712.10
852.37	1667.05
852.53	1574.89
852.70	1599.46
852.87	1716.20
853.04	1724.39
853.21	1716.20
853.38	1779.68
853.55	1746.92
853.72	1722.34
853.89	1617.90
854.05	1609.70
854.22	1765.35
854.39	1714.15
854.56	1677.29
854.73	1787.88
854.90	1665.00
855.07	1740.77
855.23	1667.05
855.40	1773.54
855.57	1656.81
855.74	1611.75
855.91	1828.84
856.08	1607.66
856.25	1599.46
856.41	1689.57
856.58	1658.85
856.75	1708.01
856.92	1615.85
857.09	1769.44
857.26	1652.71
857.42	1705.96
857.59	1710.05
857.76	1681.38
857.93	1736.68
858.10	1705.96
858.27	1746.92
858.43	1705.96
858.60	1632.23
858.77	1654.76
858.94	1658.85
859.11	1695.72
859.27	1761.25
859.44	1665.00
859.61	1714.15
859.78	1685.48
859.95	1691.62
860.12	1656.81
860.28	1781.73
860.45	1730.53
860.62	1693.67
860.79	1693.67
860.95	1611.75
861.12	1640.42
861.29	1697.77
861.46	1667.05
861.63	1619.94
861.79	1718.25
861.96	1628.14
862.13	1673.19
862.30	1744.87
862.47	1656.81
862.63	1660.90
862.80	1724.39
862.97	1726.44
863.14	1699.81
863.30	1724.39
863.47	1638.38
863.64	1734.63
863.81	1718.25
863.97	1699.81
864.14	1679.33
864.31	1767.40
864.48	1722.34
864.65	1646.57
864.81	1742.82
864.98	1773.54
865.15	1660.90
865.32	1783.78
865.48	1710.05
865.65	1832.93
865.82	1636.33
865.98	1687.53
866.15	1677.29
866.32	1728.49
866.49	1705.96
866.65	1796.07
866.82	1681.38
866.99	1644.52
867.16	1658.85
867.32	1617.90
867.49	1673.19
867.66	1669.09
867.83	1740.77
867.99	1665.00
868.16	1705.96
868.33	1574.89
868.49	1722.34
868.66	1724.39
868.83	1732.58
868.99	1673.19
869.16	1755.11
869.33	1804.26
869.50	1724.39
869.66	1624.04
869.83	1624.04
870.00	1665.00
870.16	1701.86
870.33	1679.33
870.50	1710.05
870.66	1689.57
870.83	1763.30
871.00	1677.29
871.17	1777.64
871.33	1732.58
871.50	1619.94
871.67	1708.01
871.83	1656.81
872.00	1761.25
872.17	1671.14
872.33	1736.68
872.50	1800.16
872.67	1693.67
872.83	1689.57
873.00	1632.23
873.17	1757.16
873.33	1757.16
873.50	1722.34
873.67	1658.85
873.83	1658.85
874.00	1699.81
874.16	1732.58
874.33	1695.72
874.50	1583.08
874.66	1699.81
874.83	1671.14
875.00	1748.97
875.16	1714.15
875.33	1765.35
875.50	1568.74
875.66	1628.14
875.83	1683.43
875.99	1742.82
876.16	1679.33
876.33	1665.00
876.49	1691.62
876.66	1808.36
876.83	1683.43
876.99	1628.14
877.16	1665.00
877.32	1703.91
877.49	1689.57
877.66	1650.66
877.82	1806.31
877.99	1720.29
878.15	1705.96
878.32	1722.34
878.49	1703.91
878.65	1705.96
878.82	1738.73
878.98	1644.52
879.15	1714.15
879.32	1740.77
879.48	1693.67
879.65	1662.95
879.81	1591.27
879.98	1656.81
880.15	1705.96
880.31	1669.09
880.48	1681.38
880.64	1783.78
880.81	1675.24
880.97	1800.16
881.14	1757.16
881.31	1603.56
881.47	1810.40
881.64	1710.05
881.80	1587.18
881.97	1673.19
882.13	1718.25
882.30	1640.42
882.47	1675.24
882.63	1697.77
882.80	1617.90
882.96	1675.24
883.13	1685.48
883.29	1642.47
883.46	1798.12
883.62	1824.74
883.79	1734.63
883.95	1726.44
884.12	1724.39
884.29	1746.92
884.45	1667.05
884.62	1771.49
884.78	1624.04
884.95	1761.25
885.11	1667.05
885.28	1705.96
885.44	1640.42
885.61	1695.72
885.77	1791.97
885.94	1716.20
886.10	1695.72
886.27	1705.96
886.43	1777.64
886.60	1771.49
886.76	1699.81
886.93	1595.37
887.09	1736.68
887.26	1652.71
887.42	1755.11
887.59	1732.58
887.75	1802.21
887.92	1781.73
888.08	1755.11
888.25	1744.87
888.41	1683.43
888.58	1716.20
888.74	1685.48
888.91	1687.53
>>>>>End Processed Spectral Data<<<<<
