SpectraSuite Data File
++++++++++++++++++++++++++++++++++++
Date: Mon Jun 06 15:51:17 CEST 2016
User: root
Dark Spectrum Present: No
Reference Spectrum Present: No
Number of Sampled Component Spectra: 1
Spectrometers: USB4C02835
Integration Time (usec): 100000 (USB4C02835)
Spectra Averaged: 1 (USB4C02835)
Boxcar Smoothing: 0 (USB4C02835)
Correct for Electrical Dark: No (USB4C02835)
Strobe/Lamp Enabled: No (USB4C02835)
Correct for Detector Non-linearity: No (USB4C02835)
Correct for Stray Light: No (USB4C02835)
Number of Pixels in Processed Spectrum: 3648
>>>>>Begin Processed Spectral Data<<<<<
177.47	1437.67
177.69	1437.67
177.91	1437.67
178.13	1464.30
178.36	1466.35
178.58	1695.72
178.80	1730.53
179.02	1710.05
179.24	1710.05
179.46	1648.61
179.68	1697.77
179.90	1697.77
180.13	1738.73
180.35	1685.48
180.57	1771.49
180.79	1730.53
181.01	1640.42
181.23	1777.64
181.45	1722.34
181.67	1701.86
181.90	1769.44
182.12	1650.66
182.34	1689.57
182.56	1748.97
182.78	1777.64
183.00	1789.92
183.22	1665.00
183.44	1638.38
183.66	1808.36
183.89	1828.84
184.11	1759.21
184.33	1759.21
184.55	1828.84
184.77	1812.45
184.99	1718.25
185.21	1693.67
185.43	1814.50
185.65	1705.96
185.87	1710.05
186.10	1832.93
186.32	1724.39
186.54	1722.34
186.76	1693.67
186.98	1796.07
187.20	1628.14
187.42	1703.91
187.64	1791.97
187.86	1660.90
188.08	1742.82
188.30	1787.88
188.52	1665.00
188.75	1757.16
188.97	1773.54
189.19	1636.33
189.41	1712.10
189.63	1697.77
189.85	1722.34
190.07	1624.04
190.29	1640.42
190.51	1710.05
190.73	1681.38
190.95	1832.93
191.17	1718.25
191.39	1597.42
191.61	1679.33
191.84	1693.67
192.06	1740.77
192.28	1640.42
192.50	1880.04
192.72	1621.99
192.94	1638.38
193.16	1787.88
193.38	1748.97
193.60	1705.96
193.82	1705.96
194.04	1775.59
194.26	1722.34
194.48	1650.66
194.70	1763.30
194.92	1675.24
195.14	1777.64
195.36	1746.92
195.58	1767.40
195.80	1662.95
196.02	1673.19
196.24	1693.67
196.46	1710.05
196.69	1673.19
196.91	1857.51
197.13	1701.86
197.35	1611.75
197.57	1796.07
197.79	1771.49
198.01	1675.24
198.23	1814.50
198.45	1771.49
198.67	1699.81
198.89	1697.77
199.11	1736.68
199.33	1679.33
199.55	1607.66
199.77	1640.42
199.99	1757.16
200.21	1654.76
200.43	1755.11
200.65	1662.95
200.87	1562.60
201.09	1693.67
201.31	1728.49
201.53	1779.68
201.75	1761.25
201.97	1746.92
202.19	1714.15
202.41	1757.16
202.63	1779.68
202.85	1718.25
203.07	1718.25
203.29	1691.62
203.51	1644.52
203.73	1632.23
203.95	1947.62
204.17	1716.20
204.39	1746.92
204.61	1730.53
204.83	1705.96
205.05	1748.97
205.27	1742.82
205.49	1808.36
205.71	1656.81
205.93	1642.47
206.15	1728.49
206.37	1654.76
206.59	1683.43
206.81	1714.15
207.03	1697.77
207.25	1703.91
207.47	1691.62
207.69	1689.57
207.91	1761.25
208.13	1765.35
208.34	1705.96
208.56	1681.38
208.78	1783.78
209.00	1693.67
209.22	1734.63
209.44	1732.58
209.66	1644.52
209.88	1693.67
210.10	1710.05
210.32	1652.71
210.54	1742.82
210.76	1665.00
210.98	1712.10
211.20	1638.38
211.42	1714.15
211.64	1796.07
211.86	1787.88
212.08	1732.58
212.30	1755.11
212.52	1660.90
212.74	1742.82
212.96	1703.91
213.17	1826.79
213.39	1816.55
213.61	1808.36
213.83	1687.53
214.05	1636.33
214.27	1800.16
214.49	1644.52
214.71	1671.14
214.93	1773.54
215.15	1736.68
215.37	1734.63
215.59	1603.56
215.81	1736.68
216.03	1677.29
216.24	1751.01
216.46	1736.68
216.68	1781.73
216.90	1740.77
217.12	1716.20
217.34	1744.87
217.56	1720.29
217.78	1796.07
218.00	1730.53
218.22	1681.38
218.44	1722.34
218.66	1679.33
218.87	1871.84
219.09	1669.09
219.31	1740.77
219.53	1736.68
219.75	1677.29
219.97	1785.83
220.19	1708.01
220.41	1687.53
220.63	1710.05
220.85	1708.01
221.06	1689.57
221.28	1804.26
221.50	1701.86
221.72	1718.25
221.94	1730.53
222.16	1636.33
222.38	1755.11
222.60	1783.78
222.82	1734.63
223.03	1794.02
223.25	1648.61
223.47	1734.63
223.69	1849.32
223.91	1738.73
224.13	1673.19
224.35	1673.19
224.57	1746.92
224.78	1781.73
225.00	1652.71
225.22	1718.25
225.44	1720.29
225.66	1755.11
225.88	1681.38
226.10	1767.40
226.32	1730.53
226.53	1771.49
226.75	1693.67
226.97	1703.91
227.19	1720.29
227.41	1697.77
227.63	1601.51
227.85	1619.94
228.06	1687.53
228.28	1691.62
228.50	1867.75
228.72	1626.09
228.94	1687.53
229.16	1632.23
229.37	1714.15
229.59	1601.51
229.81	1816.55
230.03	1708.01
230.25	1624.04
230.47	1689.57
230.69	1687.53
230.90	1734.63
231.12	1648.61
231.34	1755.11
231.56	1808.36
231.78	1699.81
232.00	1806.31
232.21	1742.82
232.43	1681.38
232.65	1570.79
232.87	1677.29
233.09	1673.19
233.30	1728.49
233.52	1705.96
233.74	1773.54
233.96	1716.20
234.18	1734.63
234.40	1703.91
234.61	1851.36
234.83	1695.72
235.05	1658.85
235.27	1798.12
235.49	1804.26
235.70	1675.24
235.92	1740.77
236.14	1689.57
236.36	1789.92
236.58	1648.61
236.79	1761.25
237.01	1710.05
237.23	1685.48
237.45	1777.64
237.67	1685.48
237.88	1734.63
238.10	1826.79
238.32	1683.43
238.54	1699.81
238.76	1751.01
238.97	1673.19
239.19	1679.33
239.41	1708.01
239.63	1716.20
239.85	1638.38
240.06	1728.49
240.28	1648.61
240.50	1748.97
240.72	1751.01
240.93	1697.77
241.15	1751.01
241.37	1671.14
241.59	1826.79
241.81	1710.05
242.02	1738.73
242.24	1658.85
242.46	1677.29
242.68	1662.95
242.89	1712.10
243.11	1703.91
243.33	1679.33
243.55	1761.25
243.76	1681.38
243.98	1648.61
244.20	1748.97
244.42	1794.02
244.64	1712.10
244.85	1652.71
245.07	1650.66
245.29	1820.64
245.51	1714.15
245.72	1841.12
245.94	1695.72
246.16	1765.35
246.38	1816.55
246.59	1742.82
246.81	1736.68
247.03	1783.78
247.24	1599.46
247.46	1636.33
247.68	1691.62
247.90	1660.90
248.11	1712.10
248.33	1722.34
248.55	1642.47
248.77	1662.95
248.98	1802.21
249.20	1734.63
249.42	1751.01
249.64	1751.01
249.85	1654.76
250.07	1697.77
250.29	1806.31
250.50	1755.11
250.72	1693.67
250.94	1660.90
251.16	1853.41
251.37	1802.21
251.59	1753.06
251.81	1781.73
252.02	1880.04
252.24	1685.48
252.46	1832.93
252.68	1665.00
252.89	1665.00
253.11	1566.70
253.33	1783.78
253.54	1738.73
253.76	1677.29
253.98	1691.62
254.20	1751.01
254.41	1656.81
254.63	1685.48
254.85	1681.38
255.06	1742.82
255.28	1681.38
255.50	1724.39
255.71	1679.33
255.93	1658.85
256.15	1685.48
256.36	1728.49
256.58	1665.00
256.80	1718.25
257.02	1787.88
257.23	1681.38
257.45	1720.29
257.67	1773.54
257.88	1640.42
258.10	1777.64
258.32	1708.01
258.53	1755.11
258.75	1839.08
258.97	1660.90
259.18	1708.01
259.40	1736.68
259.62	1800.16
259.83	1738.73
260.05	1734.63
260.27	1972.19
260.48	1695.72
260.70	1656.81
260.92	1693.67
261.13	1718.25
261.35	1730.53
261.57	1712.10
261.78	1654.76
262.00	1628.14
262.22	1734.63
262.43	1673.19
262.65	1722.34
262.86	1724.39
263.08	1873.89
263.30	1693.67
263.51	1660.90
263.73	1695.72
263.95	1791.97
264.16	1714.15
264.38	1685.48
264.60	1775.59
264.81	1748.97
265.03	1681.38
265.25	1757.16
265.46	1689.57
265.68	1845.22
265.89	1677.29
266.11	1662.95
266.33	1751.01
266.54	1837.03
266.76	1771.49
266.98	1751.01
267.19	1777.64
267.41	1712.10
267.62	1722.34
267.84	1681.38
268.06	1722.34
268.27	1730.53
268.49	1744.87
268.70	1773.54
268.92	1697.77
269.14	1675.24
269.35	1640.42
269.57	1742.82
269.79	1665.00
270.00	1669.09
270.22	1820.64
270.43	1662.95
270.65	1574.89
270.87	1712.10
271.08	1798.12
271.30	1730.53
271.51	1703.91
271.73	1759.21
271.95	1794.02
272.16	1796.07
272.38	1683.43
272.59	1646.57
272.81	1685.48
273.02	1767.40
273.24	1751.01
273.46	1685.48
273.67	1746.92
273.89	1705.96
274.10	1628.14
274.32	1771.49
274.54	1765.35
274.75	1779.68
274.97	1652.71
275.18	1765.35
275.40	1734.63
275.61	1736.68
275.83	1732.58
276.05	1656.81
276.26	1667.05
276.48	1787.88
276.69	1617.90
276.91	1701.86
277.12	1771.49
277.34	1742.82
277.55	1779.68
277.77	1705.96
277.99	1691.62
278.20	1644.52
278.42	1681.38
278.63	1699.81
278.85	1677.29
279.06	1564.65
279.28	1626.09
279.49	1783.78
279.71	1708.01
279.93	1736.68
280.14	1667.05
280.36	1638.38
280.57	1738.73
280.79	1671.14
281.00	1595.37
281.22	1638.38
281.43	1757.16
281.65	1558.50
281.86	1613.80
282.08	1757.16
282.29	1853.41
282.51	1603.56
282.73	1615.85
282.94	1638.38
283.16	1789.92
283.37	1845.22
283.59	1738.73
283.80	1656.81
284.02	1755.11
284.23	1710.05
284.45	1736.68
284.66	1683.43
284.88	1689.57
285.09	1761.25
285.31	1701.86
285.52	1658.85
285.74	1636.33
285.95	1724.39
286.17	1730.53
286.38	1783.78
286.60	1728.49
286.81	1675.24
287.03	1740.77
287.24	1714.15
287.46	1763.30
287.67	1656.81
287.89	1861.60
288.10	1599.46
288.32	1751.01
288.53	1847.27
288.75	1699.81
288.96	1724.39
289.18	1716.20
289.39	1662.95
289.61	1699.81
289.82	1775.59
290.04	1869.80
290.25	1611.75
290.47	1667.05
290.68	1693.67
290.90	1759.21
291.11	1652.71
291.33	1769.44
291.54	1587.18
291.76	1570.79
291.97	1613.80
292.18	1742.82
292.40	1714.15
292.61	1646.57
292.83	1863.65
293.04	1769.44
293.26	1705.96
293.47	1751.01
293.69	1662.95
293.90	1691.62
294.12	1699.81
294.33	1738.73
294.55	1705.96
294.76	1703.91
294.97	1734.63
295.19	1822.69
295.40	1667.05
295.62	1757.16
295.83	1761.25
296.05	1691.62
296.26	1777.64
296.48	1720.29
296.69	1679.33
296.90	1705.96
297.12	1710.05
297.33	1824.74
297.55	1685.48
297.76	1656.81
297.98	1755.11
298.19	1703.91
298.41	1783.78
298.62	1634.28
298.83	1855.46
299.05	1746.92
299.26	1697.77
299.48	1697.77
299.69	1703.91
299.90	1697.77
300.12	1656.81
300.33	1843.17
300.55	1771.49
300.76	1722.34
300.98	1724.39
301.19	1769.44
301.40	1685.48
301.62	1650.66
301.83	1761.25
302.05	1679.33
302.26	1714.15
302.47	1720.29
302.69	1654.76
302.90	1669.09
303.12	1636.33
303.33	1820.64
303.54	1800.16
303.76	1724.39
303.97	1775.59
304.19	1791.97
304.40	1732.58
304.61	1714.15
304.83	1888.23
305.04	1783.78
305.26	1806.31
305.47	1656.81
305.68	1716.20
305.90	1697.77
306.11	1753.06
306.33	1755.11
306.54	1685.48
306.75	1724.39
306.97	1601.51
307.18	1630.18
307.39	1677.29
307.61	1820.64
307.82	1648.61
308.04	1736.68
308.25	1687.53
308.46	1710.05
308.68	1689.57
308.89	1656.81
309.10	1816.55
309.32	1748.97
309.53	1816.55
309.74	1767.40
309.96	1763.30
310.17	1716.20
310.39	1724.39
310.60	1769.44
310.81	1753.06
311.03	1642.47
311.24	1695.72
311.45	1738.73
311.67	1734.63
311.88	1687.53
312.09	1738.73
312.31	1761.25
312.52	1718.25
312.73	1757.16
312.95	1636.33
313.16	1708.01
313.37	1853.41
313.59	1757.16
313.80	1761.25
314.01	1796.07
314.23	1667.05
314.44	1701.86
314.65	1654.76
314.87	1669.09
315.08	1724.39
315.29	1689.57
315.51	1650.66
315.72	1671.14
315.93	1843.17
316.15	1742.82
316.36	1710.05
316.57	1708.01
316.79	1744.87
317.00	1658.85
317.21	1757.16
317.43	1742.82
317.64	1673.19
317.85	1689.57
318.07	1644.52
318.28	1755.11
318.49	1820.64
318.70	1898.47
318.92	1818.60
319.13	1837.03
319.34	1863.65
319.56	1761.25
319.77	1796.07
319.98	1912.80
320.20	1775.59
320.41	1755.11
320.62	1755.11
320.83	1697.77
321.05	1794.02
321.26	1755.11
321.47	1693.67
321.69	1822.69
321.90	1689.57
322.11	1667.05
322.32	1746.92
322.54	1736.68
322.75	1644.52
322.96	1839.08
323.18	1587.18
323.39	1708.01
323.60	1650.66
323.81	1802.21
324.03	1716.20
324.24	1722.34
324.45	1677.29
324.66	1642.47
324.88	1787.88
325.09	1783.78
325.30	1652.71
325.52	1763.30
325.73	1734.63
325.94	1710.05
326.15	1656.81
326.37	1640.42
326.58	1730.53
326.79	1757.16
327.00	1656.81
327.22	1746.92
327.43	1654.76
327.64	1689.57
327.85	1773.54
328.07	1697.77
328.28	1832.93
328.49	1673.19
328.70	1751.01
328.92	1761.25
329.13	1611.75
329.34	1708.01
329.55	1822.69
329.76	1697.77
329.98	1599.46
330.19	1722.34
330.40	1710.05
330.61	1742.82
330.83	1810.40
331.04	1671.14
331.25	1716.20
331.46	1624.04
331.68	1640.42
331.89	1820.64
332.10	1740.77
332.31	1611.75
332.52	1708.01
332.74	1783.78
332.95	1632.23
333.16	1673.19
333.37	1728.49
333.58	1685.48
333.80	1755.11
334.01	1591.27
334.22	1595.37
334.43	1693.67
334.64	1667.05
334.86	1587.18
335.07	1695.72
335.28	1771.49
335.49	1587.18
335.70	1720.29
335.92	1806.31
336.13	1865.70
336.34	1697.77
336.55	1796.07
336.76	1656.81
336.98	1642.47
337.19	1738.73
337.40	1777.64
337.61	1877.99
337.82	1759.21
338.04	1773.54
338.25	1595.37
338.46	1777.64
338.67	1755.11
338.88	1611.75
339.09	1673.19
339.31	1726.44
339.52	1656.81
339.73	1656.81
339.94	1695.72
340.15	1730.53
340.36	1742.82
340.58	1634.28
340.79	1671.14
341.00	1718.25
341.21	1632.23
341.42	1804.26
341.63	1714.15
341.85	1763.30
342.06	1781.73
342.27	1673.19
342.48	1794.02
342.69	1681.38
342.90	1763.30
343.12	1751.01
343.33	1722.34
343.54	1648.61
343.75	1796.07
343.96	1636.33
344.17	1705.96
344.38	1691.62
344.60	1675.24
344.81	1697.77
345.02	1732.58
345.23	1777.64
345.44	1718.25
345.65	1763.30
345.86	1726.44
346.07	1656.81
346.29	1658.85
346.50	1783.78
346.71	1722.34
346.92	1789.92
347.13	1839.08
347.34	1738.73
347.55	1773.54
347.76	1742.82
347.98	1646.57
348.19	1714.15
348.40	1738.73
348.61	1726.44
348.82	1789.92
349.03	1804.26
349.24	1683.43
349.45	1837.03
349.66	1581.03
349.88	1720.29
350.09	1689.57
350.30	1787.88
350.51	1810.40
350.72	1677.29
350.93	1644.52
351.14	1615.85
351.35	1763.30
351.56	1671.14
351.77	1720.29
351.99	1757.16
352.20	1812.45
352.41	1771.49
352.62	1638.38
352.83	1722.34
353.04	1714.15
353.25	1695.72
353.46	1763.30
353.67	1783.78
353.88	1638.38
354.09	1705.96
354.30	1646.57
354.52	1783.78
354.73	1697.77
354.94	1748.97
355.15	1648.61
355.36	1779.68
355.57	1763.30
355.78	1755.11
355.99	1730.53
356.20	1683.43
356.41	1855.46
356.62	1720.29
356.83	1714.15
357.04	1867.75
357.25	1675.24
357.46	1695.72
357.68	1650.66
357.89	1677.29
358.10	1701.86
358.31	1718.25
358.52	1718.25
358.73	1650.66
358.94	1681.38
359.15	1654.76
359.36	1693.67
359.57	1714.15
359.78	1681.38
359.99	1755.11
360.20	1744.87
360.41	1671.14
360.62	1697.77
360.83	1742.82
361.04	1746.92
361.25	1753.06
361.46	1791.97
361.67	1640.42
361.88	1787.88
362.09	1777.64
362.30	1665.00
362.51	1628.14
362.72	1726.44
362.93	1769.44
363.14	1785.83
363.35	1732.58
363.56	1732.58
363.78	1808.36
363.99	1714.15
364.20	1767.40
364.41	1738.73
364.62	1718.25
364.83	1695.72
365.04	1748.97
365.25	1691.62
365.46	1824.74
365.67	1746.92
365.88	1701.86
366.09	1732.58
366.30	1744.87
366.51	1677.29
366.72	1583.08
366.93	1632.23
367.14	1773.54
367.35	1755.11
367.56	1785.83
367.77	1845.22
367.98	1695.72
368.18	1691.62
368.39	1718.25
368.60	1718.25
368.81	1777.64
369.02	1691.62
369.23	1671.14
369.44	1665.00
369.65	1654.76
369.86	1705.96
370.07	1746.92
370.28	1677.29
370.49	1652.71
370.70	1738.73
370.91	1617.90
371.12	1673.19
371.33	1808.36
371.54	1701.86
371.75	1812.45
371.96	1607.66
372.17	1722.34
372.38	1748.97
372.59	1705.96
372.80	1722.34
373.01	1677.29
373.22	1787.88
373.43	1695.72
373.64	1740.77
373.85	1726.44
374.06	1839.08
374.26	1789.92
374.47	1703.91
374.68	1785.83
374.89	1644.52
375.10	1734.63
375.31	1732.58
375.52	1669.09
375.73	1671.14
375.94	1669.09
376.15	1791.97
376.36	1638.38
376.57	1718.25
376.78	1697.77
376.99	1734.63
377.20	1755.11
377.40	1689.57
377.61	1779.68
377.82	1671.14
378.03	1769.44
378.24	1710.05
378.45	1703.91
378.66	1705.96
378.87	1673.19
379.08	1624.04
379.29	1662.95
379.50	1789.92
379.71	1697.77
379.91	1783.78
380.12	1636.33
380.33	1816.55
380.54	1728.49
380.75	1705.96
380.96	1699.81
381.17	1761.25
381.38	1765.35
381.59	1689.57
381.80	1710.05
382.00	1779.68
382.21	1769.44
382.42	1845.22
382.63	1820.64
382.84	1775.59
383.05	1683.43
383.26	1820.64
383.47	1675.24
383.68	1697.77
383.88	1820.64
384.09	1769.44
384.30	1779.68
384.51	1687.53
384.72	1662.95
384.93	1753.06
385.14	1708.01
385.35	1802.21
385.55	1597.42
385.76	1800.16
385.97	1720.29
386.18	1681.38
386.39	1746.92
386.60	1746.92
386.81	1679.33
387.02	1671.14
387.22	1679.33
387.43	1841.12
387.64	1812.45
387.85	1925.09
388.06	2168.80
388.27	4134.85
388.48	6657.95
388.68	8071.04
388.89	9514.86
389.10	9656.17
389.31	8472.45
389.52	7550.86
389.73	6594.46
389.93	6229.92
390.14	5838.76
390.35	5050.29
390.56	4542.39
390.77	3663.82
390.98	3051.47
391.18	2535.39
391.39	2019.30
391.60	1900.52
391.81	1877.99
392.02	1718.25
392.23	1857.51
392.43	1826.79
392.64	1800.16
392.85	1740.77
393.06	1816.55
393.27	1689.57
393.47	1718.25
393.68	1765.35
393.89	1644.52
394.10	1751.01
394.31	1757.16
394.52	1640.42
394.72	1703.91
394.93	1785.83
395.14	1701.86
395.35	1779.68
395.56	1597.42
395.76	1796.07
395.97	1828.84
396.18	1830.88
396.39	1763.30
396.60	2078.69
396.80	1923.04
397.01	1824.74
397.22	1830.88
397.43	1804.26
397.64	1689.57
397.84	1839.08
398.05	1873.89
398.26	1783.78
398.47	1742.82
398.67	1773.54
398.88	1767.40
399.09	1818.60
399.30	1632.23
399.51	1812.45
399.71	1677.29
399.92	1705.96
400.13	1746.92
400.34	1785.83
400.54	1718.25
400.75	1728.49
400.96	1689.57
401.17	1816.55
401.37	1685.48
401.58	1759.21
401.79	1791.97
402.00	1863.65
402.21	2058.21
402.41	1970.15
402.62	1959.91
402.83	2045.92
403.04	1972.19
403.24	2070.50
403.45	1925.09
403.66	1949.67
403.87	1834.98
404.07	1935.33
404.28	1976.29
404.49	1886.18
404.70	1787.88
404.90	1845.22
405.11	1773.54
405.32	1714.15
405.52	1720.29
405.73	1624.04
405.94	1667.05
406.15	1720.29
406.35	1843.17
406.56	1740.77
406.77	1775.59
406.98	1746.92
407.18	1699.81
407.39	1787.88
407.60	1667.05
407.80	1740.77
408.01	1695.72
408.22	1736.68
408.43	1636.33
408.63	1693.67
408.84	1761.25
409.05	1748.97
409.25	1669.09
409.46	1677.29
409.67	1675.24
409.88	1665.00
410.08	1767.40
410.29	1708.01
410.50	1818.60
410.70	1738.73
410.91	1642.47
411.12	1759.21
411.32	1728.49
411.53	1630.18
411.74	1742.82
411.95	1787.88
412.15	1753.06
412.36	1746.92
412.57	1773.54
412.77	1783.78
412.98	1755.11
413.19	1777.64
413.39	1828.84
413.60	1763.30
413.81	1791.97
414.01	1683.43
414.22	1650.66
414.43	1763.30
414.63	1695.72
414.84	1767.40
415.05	1691.62
415.25	1626.09
415.46	1828.84
415.67	1675.24
415.87	1779.68
416.08	1693.67
416.29	1699.81
416.49	1816.55
416.70	1693.67
416.91	1669.09
417.11	1730.53
417.32	1785.83
417.53	1843.17
417.73	1742.82
417.94	1744.87
418.15	1779.68
418.35	1730.53
418.56	1730.53
418.77	1939.43
418.97	1740.77
419.18	1677.29
419.38	1687.53
419.59	1742.82
419.80	1804.26
420.00	1708.01
420.21	1656.81
420.42	1787.88
420.62	1804.26
420.83	1679.33
421.04	1699.81
421.24	1701.86
421.45	1738.73
421.65	1785.83
421.86	1607.66
422.07	1724.39
422.27	1732.58
422.48	1718.25
422.69	1693.67
422.89	1718.25
423.10	1681.38
423.30	1652.71
423.51	1732.58
423.72	1789.92
423.92	1781.73
424.13	1658.85
424.33	1763.30
424.54	1720.29
424.75	1794.02
424.95	1738.73
425.16	1742.82
425.36	1615.85
425.57	1769.44
425.78	1800.16
425.98	1785.83
426.19	1724.39
426.39	1712.10
426.60	1681.38
426.81	1775.59
427.01	1669.09
427.22	1673.19
427.42	1624.04
427.63	1689.57
427.83	1685.48
428.04	1798.12
428.25	1796.07
428.45	1769.44
428.66	1789.92
428.86	1738.73
429.07	1697.77
429.28	1796.07
429.48	1697.77
429.69	1673.19
429.89	1759.21
430.10	1656.81
430.30	1724.39
430.51	1796.07
430.71	1689.57
430.92	1673.19
431.13	1656.81
431.33	1734.63
431.54	1746.92
431.74	1871.84
431.95	1877.99
432.15	1748.97
432.36	1695.72
432.56	1714.15
432.77	1773.54
432.98	1812.45
433.18	1812.45
433.39	1660.90
433.59	1728.49
433.80	1855.46
434.00	1929.19
434.21	1787.88
434.41	1662.95
434.62	1904.61
434.82	1613.80
435.03	1632.23
435.23	1761.25
435.44	1671.14
435.64	1683.43
435.85	1720.29
436.06	1751.01
436.26	1771.49
436.47	1630.18
436.67	1619.94
436.88	1716.20
437.08	1765.35
437.29	1775.59
437.49	1693.67
437.70	1757.16
437.90	1640.42
438.11	1873.89
438.31	1785.83
438.52	1855.46
438.72	1849.32
438.93	1927.14
439.13	1767.40
439.34	1773.54
439.54	1689.57
439.75	1759.21
439.95	1742.82
440.16	1697.77
440.36	1779.68
440.57	1710.05
440.77	1683.43
440.98	1744.87
441.18	1753.06
441.39	1746.92
441.59	1697.77
441.80	1849.32
442.00	1714.15
442.21	1808.36
442.41	1701.86
442.62	1759.21
442.82	1665.00
443.02	1767.40
443.23	1785.83
443.43	1712.10
443.64	1867.75
443.84	1683.43
444.05	1789.92
444.25	1728.49
444.46	1673.19
444.66	1753.06
444.87	1822.69
445.07	1634.28
445.28	1730.53
445.48	1841.12
445.69	1855.46
445.89	1906.66
446.09	1710.05
446.30	2058.21
446.50	2658.26
446.71	3629.00
446.91	4304.83
447.12	4716.47
447.32	4718.52
447.53	4294.59
447.73	3872.71
447.93	3446.73
448.14	3368.91
448.34	3172.30
448.55	2844.63
448.75	2846.68
448.96	2707.41
449.16	2389.98
449.36	2295.77
449.57	2082.78
449.77	1853.41
449.98	1814.50
450.18	1882.08
450.39	1898.47
450.59	1769.44
450.79	1712.10
451.00	1765.35
451.20	1822.69
451.41	1701.86
451.61	1853.41
451.81	1769.44
452.02	1751.01
452.22	1730.53
452.43	1769.44
452.63	1746.92
452.84	1738.73
453.04	1755.11
453.24	1757.16
453.45	1734.63
453.65	1714.15
453.86	1810.40
454.06	1781.73
454.26	1751.01
454.47	1671.14
454.67	1824.74
454.87	1677.29
455.08	1697.77
455.28	1775.59
455.49	1736.68
455.69	1730.53
455.89	1943.52
456.10	1730.53
456.30	1738.73
456.51	1714.15
456.71	1771.49
456.91	1794.02
457.12	1761.25
457.32	1791.97
457.52	1724.39
457.73	1763.30
457.93	1814.50
458.14	1662.95
458.34	1583.08
458.54	1695.72
458.75	1800.16
458.95	1869.80
459.15	1791.97
459.36	1748.97
459.56	1728.49
459.76	1916.90
459.97	1734.63
460.17	1763.30
460.37	1822.69
460.58	1781.73
460.78	1724.39
460.99	1816.55
461.19	1773.54
461.39	1736.68
461.60	1699.81
461.80	1861.60
462.00	1632.23
462.21	1775.59
462.41	1740.77
462.61	1691.62
462.82	1642.47
463.02	1779.68
463.22	1767.40
463.43	1703.91
463.63	1689.57
463.83	1800.16
464.04	1798.12
464.24	1736.68
464.44	1712.10
464.64	1736.68
464.85	1810.40
465.05	1787.88
465.25	1810.40
465.46	1761.25
465.66	1818.60
465.86	1787.88
466.07	1687.53
466.27	1660.90
466.47	1691.62
466.68	1660.90
466.88	1828.84
467.08	1728.49
467.29	1832.93
467.49	1699.81
467.69	1837.03
467.89	1724.39
468.10	1656.81
468.30	1742.82
468.50	1824.74
468.71	1830.88
468.91	1597.42
469.11	1890.28
469.31	1699.81
469.52	1609.70
469.72	1773.54
469.92	1859.56
470.13	1726.44
470.33	1669.09
470.53	1900.52
470.73	2109.41
470.94	2297.82
471.14	2357.21
471.34	2490.33
471.54	2351.07
471.75	2123.74
471.95	2097.12
472.15	2084.83
472.36	2025.44
472.56	2125.79
472.76	2023.39
472.96	2058.21
473.17	1935.33
473.37	1939.43
473.57	1808.36
473.77	1783.78
473.98	1812.45
474.18	1761.25
474.38	1910.75
474.58	1724.39
474.79	1683.43
474.99	1845.22
475.19	1800.16
475.39	1642.47
475.60	1789.92
475.80	1787.88
476.00	1712.10
476.20	1652.71
476.41	1751.01
476.61	1902.56
476.81	1794.02
477.01	1718.25
477.21	1781.73
477.42	1828.84
477.62	1798.12
477.82	1687.53
478.02	1771.49
478.23	1763.30
478.43	1681.38
478.63	1685.48
478.83	1769.44
479.03	1669.09
479.24	1822.69
479.44	1740.77
479.64	1734.63
479.84	1673.19
480.04	1703.91
480.25	1699.81
480.45	1669.09
480.65	1773.54
480.85	1830.88
481.06	1640.42
481.26	1714.15
481.46	1804.26
481.66	1769.44
481.86	1736.68
482.06	1759.21
482.27	1730.53
482.47	1626.09
482.67	1804.26
482.87	1665.00
483.07	1804.26
483.28	1673.19
483.48	1615.85
483.68	1757.16
483.88	1652.71
484.08	1730.53
484.29	1685.48
484.49	1773.54
484.69	1681.38
484.89	1757.16
485.09	1740.77
485.29	1791.97
485.50	1757.16
485.70	1728.49
485.90	1810.40
486.10	1808.36
486.30	1730.53
486.50	1791.97
486.71	1714.15
486.91	1769.44
487.11	1781.73
487.31	1693.67
487.51	1740.77
487.71	1763.30
487.91	1773.54
488.12	1714.15
488.32	1607.66
488.52	1738.73
488.72	1656.81
488.92	1751.01
489.12	1814.50
489.32	1748.97
489.53	1816.55
489.73	1650.66
489.93	1755.11
490.13	1755.11
490.33	1640.42
490.53	1751.01
490.73	1761.25
490.94	1658.85
491.14	1755.11
491.34	1882.08
491.54	2138.08
491.74	2541.53
491.94	2904.02
492.14	3022.80
492.34	2934.74
492.54	2826.20
492.75	2488.28
492.95	2398.17
493.15	2299.87
493.35	2293.72
493.55	2162.66
493.75	2107.36
493.95	2133.98
494.15	1970.15
494.35	1927.14
494.56	1830.88
494.76	1787.88
494.96	1826.79
495.16	1808.36
495.36	1746.92
495.56	1691.62
495.76	1701.86
495.96	1718.25
496.16	1654.76
496.36	1802.21
496.56	1705.96
496.77	1812.45
496.97	1798.12
497.17	1810.40
497.37	1640.42
497.57	1744.87
497.77	1697.77
497.97	1722.34
498.17	1748.97
498.37	1718.25
498.57	1777.64
498.77	1716.20
498.97	1742.82
499.17	1763.30
499.38	1726.44
499.58	1738.73
499.78	1773.54
499.98	1832.93
500.18	1746.92
500.38	1769.44
500.58	1912.80
500.78	2465.75
500.98	4485.05
501.18	5855.14
501.38	6737.82
501.58	7108.50
501.78	6494.11
501.98	5339.05
502.18	4792.25
502.38	4229.06
502.58	4153.28
502.78	3909.57
502.98	3540.94
503.18	3454.92
503.38	3315.66
503.59	2721.75
503.79	2594.78
503.99	2410.46
504.19	2260.96
504.39	2205.66
504.59	2265.05
504.79	2131.94
504.99	2031.58
505.19	1941.47
505.39	1861.60
505.59	1957.86
505.79	1988.58
505.99	1890.28
506.19	1773.54
506.39	1871.84
506.59	1798.12
506.79	1736.68
506.99	1806.31
507.19	1755.11
507.39	1761.25
507.59	1648.61
507.79	1665.00
507.99	1679.33
508.19	1736.68
508.39	1722.34
508.59	1708.01
508.79	1869.80
508.99	1816.55
509.19	1738.73
509.39	1845.22
509.59	1699.81
509.79	1767.40
509.99	1765.35
510.19	1845.22
510.39	1779.68
510.59	1746.92
510.79	1738.73
510.99	1677.29
511.19	1804.26
511.39	1816.55
511.59	1851.36
511.79	1814.50
511.99	1703.91
512.19	1800.16
512.38	1708.01
512.58	1753.06
512.78	1705.96
512.98	1814.50
513.18	1902.56
513.38	1632.23
513.58	1773.54
513.78	1769.44
513.98	1669.09
514.18	1728.49
514.38	1730.53
514.58	1804.26
514.78	1773.54
514.98	1626.09
515.18	1701.86
515.38	1708.01
515.58	1841.12
515.78	1757.16
515.98	1724.39
516.18	1748.97
516.38	1748.97
516.57	1798.12
516.77	1781.73
516.97	1714.15
517.17	1705.96
517.37	1611.75
517.57	1820.64
517.77	1746.92
517.97	1691.62
518.17	1794.02
518.37	1730.53
518.57	1660.90
518.77	1695.72
518.97	1730.53
519.16	1853.41
519.36	1767.40
519.56	1714.15
519.76	1781.73
519.96	1755.11
520.16	1716.20
520.36	1624.04
520.56	1820.64
520.76	1638.38
520.96	1601.51
521.16	1828.84
521.35	1808.36
521.55	1847.27
521.75	1791.97
521.95	1683.43
522.15	1644.52
522.35	1574.89
522.55	1767.40
522.75	1769.44
522.95	1716.20
523.14	1693.67
523.34	1714.15
523.54	1716.20
523.74	1746.92
523.94	1732.58
524.14	1599.46
524.34	1746.92
524.54	1853.41
524.73	1736.68
524.93	1699.81
525.13	1726.44
525.33	1697.77
525.53	1898.47
525.73	1832.93
525.93	1810.40
526.13	1718.25
526.32	1765.35
526.52	1808.36
526.72	1796.07
526.92	1708.01
527.12	1830.88
527.32	1665.00
527.52	1781.73
527.71	1789.92
527.91	1722.34
528.11	1781.73
528.31	1695.72
528.51	1669.09
528.71	1763.30
528.90	1761.25
529.10	1828.84
529.30	1794.02
529.50	1652.71
529.70	1691.62
529.90	1771.49
530.09	1773.54
530.29	1703.91
530.49	1671.14
530.69	1904.61
530.89	1802.21
531.09	1748.97
531.28	1708.01
531.48	1775.59
531.68	1714.15
531.88	1767.40
532.08	1841.12
532.28	1714.15
532.47	1763.30
532.67	1757.16
532.87	1869.80
533.07	1701.86
533.27	1746.92
533.46	1767.40
533.66	1724.39
533.86	1755.11
534.06	1681.38
534.26	1767.40
534.45	1667.05
534.65	1775.59
534.85	1812.45
535.05	1748.97
535.25	1814.50
535.44	1689.57
535.64	1773.54
535.84	1714.15
536.04	1712.10
536.24	1726.44
536.43	1650.66
536.63	1810.40
536.83	1763.30
537.03	1724.39
537.22	1681.38
537.42	1695.72
537.62	1806.31
537.82	1644.52
538.02	1837.03
538.21	1798.12
538.41	1867.75
538.61	1689.57
538.81	1787.88
539.00	1755.11
539.20	1636.33
539.40	1708.01
539.60	1800.16
539.79	1722.34
539.99	1701.86
540.19	1658.85
540.39	1685.48
540.58	1789.92
540.78	1701.86
540.98	1779.68
541.18	1800.16
541.37	1744.87
541.57	1730.53
541.77	1802.21
541.97	1724.39
542.16	1695.72
542.36	1834.98
542.56	1802.21
542.76	1890.28
542.95	1751.01
543.15	1800.16
543.35	1755.11
543.54	1677.29
543.74	1718.25
543.94	1773.54
544.14	1701.86
544.33	1753.06
544.53	1726.44
544.73	1646.57
544.93	1787.88
545.12	1814.50
545.32	1705.96
545.52	1812.45
545.71	1699.81
545.91	1720.29
546.11	1732.58
546.30	1681.38
546.50	1789.92
546.70	1865.70
546.90	1771.49
547.09	1638.38
547.29	1650.66
547.49	1744.87
547.68	1732.58
547.88	1738.73
548.08	1777.64
548.27	2160.61
548.47	1650.66
548.67	1751.01
548.87	1796.07
549.06	1669.09
549.26	1683.43
549.46	1701.86
549.65	1724.39
549.85	1765.35
550.05	1791.97
550.24	1726.44
550.44	1746.92
550.64	1789.92
550.83	1787.88
551.03	1787.88
551.23	1816.55
551.42	1726.44
551.62	1736.68
551.82	1718.25
552.01	1720.29
552.21	1824.74
552.41	1796.07
552.60	1810.40
552.80	1759.21
553.00	1697.77
553.19	1740.77
553.39	1900.52
553.59	1656.81
553.78	1742.82
553.98	1671.14
554.17	1697.77
554.37	1744.87
554.57	1777.64
554.76	1667.05
554.96	1648.61
555.16	1789.92
555.35	1701.86
555.55	1765.35
555.75	1712.10
555.94	1818.60
556.14	1687.53
556.33	1775.59
556.53	1757.16
556.73	1794.02
556.92	1712.10
557.12	1929.19
557.32	1882.08
557.51	1828.84
557.71	1757.16
557.90	1804.26
558.10	1837.03
558.30	1812.45
558.49	1783.78
558.69	1710.05
558.88	1763.30
559.08	1744.87
559.28	1724.39
559.47	1744.87
559.67	1832.93
559.86	1865.70
560.06	1759.21
560.26	1724.39
560.45	1759.21
560.65	1705.96
560.84	1830.88
561.04	1753.06
561.24	1759.21
561.43	1718.25
561.63	1785.83
561.82	1789.92
562.02	1761.25
562.22	1722.34
562.41	1679.33
562.61	1751.01
562.80	1693.67
563.00	1886.18
563.19	1785.83
563.39	1822.69
563.59	1777.64
563.78	1665.00
563.98	1652.71
564.17	1767.40
564.37	1712.10
564.56	1716.20
564.76	1746.92
564.96	1849.32
565.15	1841.12
565.35	1867.75
565.54	1708.01
565.74	1771.49
565.93	1755.11
566.13	1732.58
566.32	1744.87
566.52	1806.31
566.71	1798.12
566.91	1789.92
567.11	1724.39
567.30	1683.43
567.50	1775.59
567.69	1767.40
567.89	1767.40
568.08	1646.57
568.28	1693.67
568.47	1699.81
568.67	1728.49
568.86	1648.61
569.06	1814.50
569.25	1742.82
569.45	1818.60
569.64	1718.25
569.84	1736.68
570.04	1767.40
570.23	1734.63
570.43	1812.45
570.62	1789.92
570.82	1847.27
571.01	1724.39
571.21	1673.19
571.40	1677.29
571.60	1810.40
571.79	1822.69
571.99	1769.44
572.18	1714.15
572.38	1773.54
572.57	1675.24
572.77	1834.98
572.96	1822.69
573.16	1828.84
573.35	1777.64
573.55	1820.64
573.74	1806.31
573.94	1746.92
574.13	1726.44
574.33	1830.88
574.52	1804.26
574.71	1830.88
574.91	1802.21
575.10	1640.42
575.30	1767.40
575.49	1732.58
575.69	1728.49
575.88	1787.88
576.08	1669.09
576.27	1722.34
576.47	1779.68
576.66	1910.75
576.86	1839.08
577.05	1759.21
577.25	1773.54
577.44	1791.97
577.64	1800.16
577.83	1769.44
578.02	1669.09
578.22	1847.27
578.41	1855.46
578.61	1787.88
578.80	1652.71
579.00	1775.59
579.19	1820.64
579.39	1834.98
579.58	1734.63
579.77	1753.06
579.97	1882.08
580.16	1789.92
580.36	1832.93
580.55	1865.70
580.75	1761.25
580.94	1861.60
581.13	1871.84
581.33	1806.31
581.52	1769.44
581.72	1896.42
581.91	1740.77
582.11	1751.01
582.30	1820.64
582.49	1773.54
582.69	1826.79
582.88	1853.41
583.08	1753.06
583.27	1796.07
583.47	1812.45
583.66	1773.54
583.85	1730.53
584.05	1734.63
584.24	1841.12
584.44	1734.63
584.63	1837.03
584.82	1787.88
585.02	1761.25
585.21	1882.08
585.41	1810.40
585.60	1822.69
585.79	1935.33
585.99	1888.23
586.18	1867.75
586.37	2197.47
586.57	3377.10
586.76	9828.20
586.96	24163.98
587.15	33617.41
587.34	39822.75
587.54	41418.12
587.73	35904.99
587.93	26011.25
588.12	21288.64
588.31	18214.63
588.51	16166.67
588.70	14989.08
588.89	13707.05
589.09	12310.34
589.28	10764.12
589.47	9142.13
589.67	7896.97
589.86	6461.34
590.06	4878.26
590.25	3946.44
590.44	3092.43
590.64	2488.28
590.83	2312.16
591.02	2045.92
591.22	1968.10
591.41	1869.80
591.60	1810.40
591.80	1976.29
591.99	1787.88
592.18	1822.69
592.38	1877.99
592.57	1734.63
592.76	1775.59
592.96	1769.44
593.15	1834.98
593.34	1808.36
593.54	1798.12
593.73	1783.78
593.92	1742.82
594.12	1734.63
594.31	1746.92
594.50	1804.26
594.70	1773.54
594.89	1880.04
595.08	1640.42
595.28	1742.82
595.47	2019.30
595.66	1812.45
595.86	1769.44
596.05	1624.04
596.24	1740.77
596.43	1873.89
596.63	1884.13
596.82	1769.44
597.01	1759.21
597.21	1787.88
597.40	1820.64
597.59	1761.25
597.79	1785.83
597.98	1751.01
598.17	1771.49
598.36	1693.67
598.56	1775.59
598.75	1746.92
598.94	1759.21
599.14	1751.01
599.33	1697.77
599.52	1708.01
599.71	1744.87
599.91	1869.80
600.10	1718.25
600.29	1705.96
600.48	1771.49
600.68	1755.11
600.87	1755.11
601.06	1710.05
601.26	1773.54
601.45	1777.64
601.64	1734.63
601.83	1796.07
602.03	1742.82
602.22	1671.14
602.41	1880.04
602.60	1857.51
602.80	1875.94
602.99	1753.06
603.18	1689.57
603.37	1787.88
603.57	1779.68
603.76	1853.41
603.95	1816.55
604.14	1724.39
604.34	1708.01
604.53	1783.78
604.72	1767.40
604.91	1751.01
605.10	1847.27
605.30	1695.72
605.49	1855.46
605.68	1808.36
605.87	1816.55
606.07	1703.91
606.26	1761.25
606.45	1884.13
606.64	1796.07
606.84	1652.71
607.03	1757.16
607.22	1855.46
607.41	1718.25
607.60	1753.06
607.80	1802.21
607.99	1734.63
608.18	1740.77
608.37	1748.97
608.56	1716.20
608.76	1751.01
608.95	1767.40
609.14	1738.73
609.33	1818.60
609.52	1746.92
609.72	1751.01
609.91	1757.16
610.10	1730.53
610.29	1810.40
610.48	1734.63
610.68	1746.92
610.87	1783.78
611.06	1828.84
611.25	1734.63
611.44	1826.79
611.63	1777.64
611.83	1849.32
612.02	1714.15
612.21	1775.59
612.40	1652.71
612.59	1703.91
612.79	1693.67
612.98	1712.10
613.17	1789.92
613.36	1779.68
613.55	1824.74
613.74	1716.20
613.93	1763.30
614.13	1767.40
614.32	1734.63
614.51	1753.06
614.70	1773.54
614.89	1665.00
615.08	1771.49
615.28	2082.78
615.47	1755.11
615.66	1656.81
615.85	1636.33
616.04	1851.36
616.23	1730.53
616.42	1697.77
616.62	1697.77
616.81	1781.73
617.00	1781.73
617.19	1808.36
617.38	1718.25
617.57	1714.15
617.76	1753.06
617.95	1812.45
618.15	1787.88
618.34	1771.49
618.53	1630.18
618.72	1855.46
618.91	1925.09
619.10	1742.82
619.29	1687.53
619.48	1794.02
619.68	1722.34
619.87	1705.96
620.06	1693.67
620.25	1775.59
620.44	1712.10
620.63	1769.44
620.82	1753.06
621.01	1798.12
621.20	1726.44
621.39	1802.21
621.59	1693.67
621.78	1742.82
621.97	1767.40
622.16	1779.68
622.35	1759.21
622.54	1761.25
622.73	1804.26
622.92	1652.71
623.11	1839.08
623.30	1691.62
623.49	1665.00
623.68	1669.09
623.88	1851.36
624.07	1712.10
624.26	1734.63
624.45	1796.07
624.64	1710.05
624.83	1794.02
625.02	1781.73
625.21	1765.35
625.40	1679.33
625.59	1812.45
625.78	1701.86
625.97	1757.16
626.16	1748.97
626.35	1890.28
626.54	1710.05
626.74	1822.69
626.93	1734.63
627.12	1783.78
627.31	1744.87
627.50	1730.53
627.69	1791.97
627.88	1751.01
628.07	1714.15
628.26	1691.62
628.45	1595.37
628.64	1613.80
628.83	1732.58
629.02	1697.77
629.21	1757.16
629.40	1777.64
629.59	1673.19
629.78	1712.10
629.97	1658.85
630.16	1783.78
630.35	1646.57
630.54	1611.75
630.73	1681.38
630.92	1710.05
631.11	1691.62
631.30	1728.49
631.49	1794.02
631.68	1708.01
631.87	1783.78
632.06	1689.57
632.25	1890.28
632.44	1765.35
632.63	1771.49
632.82	1652.71
633.01	1732.58
633.20	1734.63
633.39	1705.96
633.58	1708.01
633.77	1685.48
633.96	1753.06
634.15	1806.31
634.34	1761.25
634.53	1697.77
634.72	1751.01
634.91	1634.28
635.10	1669.09
635.29	1818.60
635.48	1763.30
635.67	1691.62
635.86	1730.53
636.05	1753.06
636.24	1689.57
636.43	1738.73
636.62	1775.59
636.81	1607.66
637.00	1724.39
637.19	1783.78
637.38	1730.53
637.57	1697.77
637.76	1681.38
637.95	1751.01
638.14	1671.14
638.33	1687.53
638.52	1767.40
638.71	1705.96
638.89	1650.66
639.08	1851.36
639.27	1742.82
639.46	1691.62
639.65	1779.68
639.84	1720.29
640.03	1769.44
640.22	1730.53
640.41	1740.77
640.60	1697.77
640.79	1765.35
640.98	1658.85
641.17	1771.49
641.36	1720.29
641.55	1699.81
641.74	1599.46
641.92	1699.81
642.11	1658.85
642.30	1773.54
642.49	1726.44
642.68	1669.09
642.87	1724.39
643.06	1720.29
643.25	1669.09
643.44	1679.33
643.63	1761.25
643.82	1753.06
644.00	1642.47
644.19	1736.68
644.38	1662.95
644.57	1787.88
644.76	1789.92
644.95	1669.09
645.14	1708.01
645.33	1722.34
645.52	1755.11
645.71	1697.77
645.89	1572.84
646.08	1677.29
646.27	1701.86
646.46	1751.01
646.65	1687.53
646.84	1771.49
647.03	1632.23
647.22	1777.64
647.40	1726.44
647.59	1681.38
647.78	1611.75
647.97	1650.66
648.16	1703.91
648.35	1871.84
648.54	1763.30
648.73	1703.91
648.91	1759.21
649.10	1724.39
649.29	1728.49
649.48	1734.63
649.67	1697.77
649.86	1748.97
650.05	1755.11
650.23	1757.16
650.42	1632.23
650.61	1759.21
650.80	1812.45
650.99	1902.56
651.18	1771.49
651.36	1755.11
651.55	1683.43
651.74	1775.59
651.93	1701.86
652.12	1701.86
652.31	1771.49
652.49	1738.73
652.68	1718.25
652.87	1757.16
653.06	1740.77
653.25	1832.93
653.44	1656.81
653.62	1740.77
653.81	1708.01
654.00	1779.68
654.19	1767.40
654.38	1781.73
654.56	1816.55
654.75	1714.15
654.94	1781.73
655.13	1744.87
655.32	1689.57
655.51	1742.82
655.69	1644.52
655.88	1757.16
656.07	1593.32
656.26	1744.87
656.45	1679.33
656.63	1679.33
656.82	1769.44
657.01	1751.01
657.20	1746.92
657.38	1804.26
657.57	1691.62
657.76	1665.00
657.95	1771.49
658.14	1679.33
658.32	1789.92
658.51	1667.05
658.70	1687.53
658.89	1724.39
659.08	1755.11
659.26	1804.26
659.45	1697.77
659.64	1765.35
659.83	1611.75
660.01	1855.46
660.20	1708.01
660.39	1755.11
660.58	1642.47
660.76	1757.16
660.95	1724.39
661.14	1757.16
661.33	1705.96
661.51	1679.33
661.70	1716.20
661.89	1820.64
662.08	1687.53
662.26	1757.16
662.45	1710.05
662.64	1806.31
662.83	1779.68
663.01	1628.14
663.20	1708.01
663.39	1834.98
663.58	1607.66
663.76	1722.34
663.95	1769.44
664.14	1640.42
664.32	1771.49
664.51	1642.47
664.70	1644.52
664.89	1712.10
665.07	1701.86
665.26	1785.83
665.45	1734.63
665.64	1810.40
665.82	1697.77
666.01	1837.03
666.20	1685.48
666.38	1804.26
666.57	1794.02
666.76	2211.81
666.95	4605.88
667.13	10332.00
667.32	14939.93
667.51	17549.04
667.69	18794.21
667.88	17211.13
668.07	12289.86
668.25	9387.89
668.44	7956.36
668.63	7268.24
668.81	6752.15
669.00	6119.33
669.19	5683.11
669.38	5087.15
669.56	4468.67
669.75	3887.04
669.94	3403.72
670.12	2691.03
670.31	2596.82
670.50	2267.10
670.68	2086.88
670.87	1902.56
671.06	1824.74
671.24	1755.11
671.43	1841.12
671.62	1767.40
671.80	1714.15
671.99	1773.54
672.18	1742.82
672.36	1781.73
672.55	1691.62
672.74	1742.82
672.92	1673.19
673.11	1738.73
673.29	1654.76
673.48	1732.58
673.67	1689.57
673.85	1771.49
674.04	1734.63
674.23	1708.01
674.41	1748.97
674.60	1701.86
674.79	1648.61
674.97	1697.77
675.16	1736.68
675.34	1699.81
675.53	1671.14
675.72	1763.30
675.90	1865.70
676.09	1718.25
676.28	1810.40
676.46	1615.85
676.65	1716.20
676.83	1716.20
677.02	1685.48
677.21	1726.44
677.39	1779.68
677.58	1619.94
677.77	1679.33
677.95	1679.33
678.14	1726.44
678.32	1718.25
678.51	1722.34
678.70	1861.60
678.88	1712.10
679.07	1738.73
679.25	1730.53
679.44	1753.06
679.63	1638.38
679.81	1708.01
680.00	1757.16
680.18	1800.16
680.37	1824.74
680.55	1744.87
680.74	1701.86
680.93	1611.75
681.11	1769.44
681.30	1730.53
681.48	1783.78
681.67	1648.61
681.85	1738.73
682.04	1695.72
682.23	1757.16
682.41	1759.21
682.60	1757.16
682.78	1718.25
682.97	1658.85
683.15	1634.28
683.34	1736.68
683.53	1783.78
683.71	1640.42
683.90	1794.02
684.08	1800.16
684.27	1757.16
684.45	1728.49
684.64	1785.83
684.82	1796.07
685.01	1806.31
685.19	1744.87
685.38	1845.22
685.57	1677.29
685.75	1724.39
685.94	1642.47
686.12	1708.01
686.31	1693.67
686.49	1869.80
686.68	1689.57
686.86	1636.33
687.05	1716.20
687.23	1798.12
687.42	1693.67
687.60	1699.81
687.79	1763.30
687.97	1740.77
688.16	1810.40
688.34	1738.73
688.53	1638.38
688.71	1718.25
688.90	1884.13
689.08	1730.53
689.27	1712.10
689.45	1642.47
689.64	1734.63
689.82	1677.29
690.01	1730.53
690.19	1669.09
690.38	1730.53
690.56	1771.49
690.75	1632.23
690.93	1703.91
691.12	1701.86
691.30	1728.49
691.49	1730.53
691.67	1689.57
691.86	1816.55
692.04	1701.86
692.23	1789.92
692.41	1718.25
692.60	1751.01
692.78	1660.90
692.97	1683.43
693.15	1728.49
693.34	1841.12
693.52	1877.99
693.71	1695.72
693.89	1646.57
694.08	1675.24
694.26	1742.82
694.44	1683.43
694.63	1779.68
694.81	1669.09
695.00	1765.35
695.18	1767.40
695.37	1880.04
695.55	1800.16
695.74	1705.96
695.92	1740.77
696.10	1791.97
696.29	1566.70
696.47	1722.34
696.66	1708.01
696.84	1660.90
697.03	1685.48
697.21	1902.56
697.40	2379.74
697.58	1738.73
697.76	1716.20
697.95	1638.38
698.13	1746.92
698.32	1716.20
698.50	1679.33
698.68	1802.21
698.87	1818.60
699.05	1783.78
699.24	1669.09
699.42	1691.62
699.61	1720.29
699.79	1740.77
699.97	1751.01
700.16	1673.19
700.34	1751.01
700.53	1765.35
700.71	1873.89
700.89	1740.77
701.08	1669.09
701.26	1761.25
701.45	2127.84
701.63	1607.66
701.81	1746.92
702.00	1679.33
702.18	1703.91
702.37	1738.73
702.55	1738.73
702.73	1751.01
702.92	1603.56
703.10	1718.25
703.28	1753.06
703.47	1677.29
703.65	1779.68
703.84	1791.97
704.02	1669.09
704.20	1779.68
704.39	1673.19
704.57	1726.44
704.75	1673.19
704.94	1783.78
705.12	1775.59
705.30	1746.92
705.49	2271.20
705.67	4347.84
705.86	9310.07
706.04	12388.16
706.22	14219.05
706.41	15345.43
706.59	13395.76
706.77	9484.14
706.96	7243.67
707.14	6594.46
707.32	5810.09
707.51	5474.22
707.69	4872.12
707.87	4061.12
708.06	3524.55
708.24	2918.36
708.42	2369.50
708.61	2176.99
708.79	1937.38
708.97	1847.27
709.16	1824.74
709.34	1791.97
709.52	1710.05
709.71	1755.11
709.89	1796.07
710.07	1740.77
710.26	1734.63
710.44	1714.15
710.62	1746.92
710.80	1751.01
710.99	1796.07
711.17	1812.45
711.35	1665.00
711.54	1656.81
711.72	1824.74
711.90	1781.73
712.09	1687.53
712.27	1755.11
712.45	1738.73
712.63	1753.06
712.82	1705.96
713.00	1667.05
713.18	1759.21
713.37	1789.92
713.55	1736.68
713.73	1710.05
713.91	1806.31
714.10	1652.71
714.28	1732.58
714.46	1699.81
714.65	1662.95
714.83	1763.30
715.01	1736.68
715.19	1732.58
715.38	1601.51
715.56	1800.16
715.74	1732.58
715.92	1679.33
716.11	1812.45
716.29	1609.70
716.47	1765.35
716.65	1751.01
716.84	1632.23
717.02	1853.41
717.20	1648.61
717.38	1748.97
717.57	1675.24
717.75	1753.06
717.93	1687.53
718.11	1740.77
718.30	1636.33
718.48	1679.33
718.66	1730.53
718.84	1796.07
719.03	1730.53
719.21	1656.81
719.39	1796.07
719.57	1695.72
719.75	1732.58
719.94	1658.85
720.12	1720.29
720.30	1689.57
720.48	1734.63
720.67	1701.86
720.85	1624.04
721.03	1746.92
721.21	1585.13
721.39	1728.49
721.58	1695.72
721.76	1755.11
721.94	1787.88
722.12	1771.49
722.30	1789.92
722.49	1671.14
722.67	1734.63
722.85	1791.97
723.03	1646.57
723.21	1681.38
723.40	1732.58
723.58	1769.44
723.76	1753.06
723.94	1734.63
724.12	1781.73
724.30	1699.81
724.49	1783.78
724.67	1665.00
724.85	1830.88
725.03	1640.42
725.21	1683.43
725.40	1734.63
725.58	1662.95
725.76	1847.27
725.94	1802.21
726.12	1597.42
726.30	1710.05
726.49	1714.15
726.67	1724.39
726.85	1808.36
727.03	1794.02
727.21	2246.62
727.39	2928.60
727.57	3833.80
727.76	4169.66
727.94	4337.60
728.12	4216.77
728.30	3614.66
728.48	3000.27
728.66	2711.51
728.84	2586.58
729.03	2289.63
729.21	2076.64
729.39	2025.44
729.57	1812.45
729.75	1814.50
729.93	1869.80
730.11	1781.73
730.30	1630.18
730.48	1740.77
730.66	1751.01
730.84	1771.49
731.02	1753.06
731.20	1685.48
731.38	1710.05
731.56	1587.18
731.74	1658.85
731.93	1742.82
732.11	1718.25
732.29	1699.81
732.47	1689.57
732.65	1705.96
732.83	1767.40
733.01	1718.25
733.19	1722.34
733.37	1671.14
733.56	1753.06
733.74	1617.90
733.92	1832.93
734.10	1710.05
734.28	1701.86
734.46	1640.42
734.64	1675.24
734.82	1628.14
735.00	1779.68
735.18	1650.66
735.36	1701.86
735.54	1662.95
735.73	1791.97
735.91	1736.68
736.09	1751.01
736.27	1740.77
736.45	1718.25
736.63	1636.33
736.81	1695.72
736.99	1763.30
737.17	1824.74
737.35	1685.48
737.53	1781.73
737.71	1724.39
737.89	1791.97
738.07	1701.86
738.25	1638.38
738.43	1613.80
738.61	1693.67
738.80	1681.38
738.98	1595.37
739.16	1626.09
739.34	1724.39
739.52	1820.64
739.70	1718.25
739.88	1708.01
740.06	1718.25
740.24	1605.61
740.42	1830.88
740.60	1632.23
740.78	1642.47
740.96	1685.48
741.14	1701.86
741.32	1687.53
741.50	1583.08
741.68	1828.84
741.86	1787.88
742.04	1605.61
742.22	1677.29
742.40	1662.95
742.58	1802.21
742.76	1683.43
742.94	1712.10
743.12	1574.89
743.30	1697.77
743.48	1730.53
743.66	1701.86
743.84	1789.92
744.02	1607.66
744.20	1783.78
744.38	1681.38
744.56	1720.29
744.74	1796.07
744.92	1769.44
745.10	1763.30
745.28	1718.25
745.46	1845.22
745.64	1619.94
745.82	1740.77
746.00	1685.48
746.18	1697.77
746.36	1738.73
746.54	1712.10
746.72	1757.16
746.90	1681.38
747.08	1800.16
747.26	1669.09
747.44	1718.25
747.62	1761.25
747.80	1722.34
747.98	1753.06
748.15	1710.05
748.33	1724.39
748.51	1781.73
748.69	1724.39
748.87	1658.85
749.05	1675.24
749.23	1673.19
749.41	1738.73
749.59	1687.53
749.77	1818.60
749.95	1656.81
750.13	1599.46
750.31	1685.48
750.49	1722.34
750.67	1769.44
750.85	1685.48
751.03	1808.36
751.20	1767.40
751.38	1796.07
751.56	1681.38
751.74	1748.97
751.92	1695.72
752.10	1693.67
752.28	1753.06
752.46	1691.62
752.64	1720.29
752.82	1679.33
753.00	1757.16
753.18	1697.77
753.35	1716.20
753.53	1695.72
753.71	1673.19
753.89	1730.53
754.07	1730.53
754.25	1742.82
754.43	1718.25
754.61	1585.13
754.79	1738.73
754.97	1714.15
755.14	1834.98
755.32	1722.34
755.50	1687.53
755.68	1759.21
755.86	1595.37
756.04	1626.09
756.22	1589.22
756.40	1810.40
756.57	1808.36
756.75	1755.11
756.93	1746.92
757.11	1808.36
757.29	1617.90
757.47	1662.95
757.65	1611.75
757.82	1562.60
758.00	1654.76
758.18	1783.78
758.36	1761.25
758.54	1773.54
758.72	1640.42
758.90	1771.49
759.07	1708.01
759.25	1628.14
759.43	1648.61
759.61	1769.44
759.79	2164.70
759.97	1748.97
760.15	1613.80
760.32	1652.71
760.50	1734.63
760.68	1826.79
760.86	1554.41
761.04	1783.78
761.22	1716.20
761.39	1714.15
761.57	1677.29
761.75	1763.30
761.93	1726.44
762.11	1755.11
762.28	1712.10
762.46	1572.84
762.64	1779.68
762.82	1642.47
763.00	1648.61
763.18	1744.87
763.35	1671.14
763.53	1720.29
763.71	1720.29
763.89	1673.19
764.07	1734.63
764.24	1724.39
764.42	1787.88
764.60	1771.49
764.78	1732.58
764.96	1839.08
765.13	1681.38
765.31	1734.63
765.49	1783.78
765.67	1607.66
765.84	1671.14
766.02	1681.38
766.20	1677.29
766.38	1748.97
766.56	1781.73
766.73	1763.30
766.91	1705.96
767.09	1763.30
767.27	1751.01
767.44	1708.01
767.62	1738.73
767.80	1748.97
767.98	1613.80
768.15	1648.61
768.33	1710.05
768.51	1796.07
768.69	1755.11
768.87	1728.49
769.04	1693.67
769.22	1820.64
769.40	1824.74
769.58	1853.41
769.75	1800.16
769.93	1810.40
770.11	1753.06
770.28	1681.38
770.46	1697.77
770.64	1673.19
770.82	1679.33
770.99	1724.39
771.17	1708.01
771.35	1716.20
771.53	1671.14
771.70	1718.25
771.88	1757.16
772.06	1718.25
772.23	1708.01
772.41	1757.16
772.59	1714.15
772.77	1699.81
772.94	1689.57
773.12	1732.58
773.30	1583.08
773.47	1615.85
773.65	1716.20
773.83	1734.63
774.01	1742.82
774.18	1615.85
774.36	1681.38
774.54	1628.14
774.71	1624.04
774.89	1677.29
775.07	1640.42
775.24	1658.85
775.42	1607.66
775.60	1816.55
775.78	1693.67
775.95	1671.14
776.13	1554.41
776.31	1640.42
776.48	1689.57
776.66	1865.70
776.84	1742.82
777.01	1673.19
777.19	1640.42
777.37	1689.57
777.54	1767.40
777.72	1877.99
777.90	1722.34
778.07	1640.42
778.25	1914.85
778.43	1814.50
778.60	1611.75
778.78	1781.73
778.96	1791.97
779.13	1640.42
779.31	1820.64
779.49	1802.21
779.66	1734.63
779.84	1685.48
780.01	1658.85
780.19	1710.05
780.37	1769.44
780.54	1763.30
780.72	1587.18
780.90	1693.67
781.07	1765.35
781.25	1691.62
781.43	1730.53
781.60	1732.58
781.78	1794.02
781.95	1740.77
782.13	1714.15
782.31	1777.64
782.48	1605.61
782.66	1787.88
782.83	1779.68
783.01	1781.73
783.19	1703.91
783.36	1720.29
783.54	1605.61
783.72	1732.58
783.89	1697.77
784.07	1705.96
784.24	1734.63
784.42	1777.64
784.60	1759.21
784.77	1654.76
784.95	1548.26
785.12	1703.91
785.30	1654.76
785.47	1624.04
785.65	1644.52
785.83	1628.14
786.00	1734.63
786.18	1753.06
786.35	1669.09
786.53	1712.10
786.71	1753.06
786.88	1757.16
787.06	1783.78
787.23	1705.96
787.41	1667.05
787.58	1755.11
787.76	1701.86
787.94	1724.39
788.11	1701.86
788.29	1665.00
788.46	1662.95
788.64	1621.99
788.81	1693.67
788.99	1689.57
789.16	1660.90
789.34	1763.30
789.52	1691.62
789.69	1626.09
789.87	1671.14
790.04	1726.44
790.22	1685.48
790.39	1816.55
790.57	1583.08
790.74	1644.52
790.92	1796.07
791.09	1624.04
791.27	1642.47
791.44	1697.77
791.62	1648.61
791.79	1773.54
791.97	1738.73
792.15	1912.80
792.32	1740.77
792.50	1761.25
792.67	1796.07
792.85	1773.54
793.02	1734.63
793.20	1679.33
793.37	1605.61
793.55	1708.01
793.72	1632.23
793.90	1787.88
794.07	1660.90
794.25	1730.53
794.42	1751.01
794.60	1689.57
794.77	1738.73
794.95	1673.19
795.12	1753.06
795.30	1783.78
795.47	1626.09
795.65	1898.47
795.82	1697.77
796.00	1652.71
796.17	1775.59
796.34	1681.38
796.52	1744.87
796.69	1837.03
796.87	1746.92
797.04	1730.53
797.22	1769.44
797.39	1714.15
797.57	1822.69
797.74	1726.44
797.92	1697.77
798.09	1689.57
798.27	1814.50
798.44	1683.43
798.62	1671.14
798.79	1724.39
798.96	1732.58
799.14	1720.29
799.31	1890.28
799.49	1734.63
799.66	1654.76
799.84	1691.62
800.01	1646.57
800.19	1656.81
800.36	1591.27
800.53	1730.53
800.71	1767.40
800.88	1802.21
801.06	1628.14
801.23	1712.10
801.41	1738.73
801.58	1705.96
801.75	1683.43
801.93	1718.25
802.10	1763.30
802.28	1730.53
802.45	1744.87
802.63	1796.07
802.80	1787.88
802.97	1634.28
803.15	1771.49
803.32	1697.77
803.50	1656.81
803.67	1691.62
803.84	1669.09
804.02	1716.20
804.19	1695.72
804.37	1613.80
804.54	1757.16
804.71	1650.66
804.89	1734.63
805.06	1636.33
805.24	1628.14
805.41	1587.18
805.58	1665.00
805.76	1783.78
805.93	1695.72
806.10	1804.26
806.28	1730.53
806.45	1656.81
806.63	1757.16
806.80	1767.40
806.97	1677.29
807.15	1763.30
807.32	1722.34
807.49	1751.01
807.67	1601.51
807.84	1736.68
808.01	1574.89
808.19	1834.98
808.36	1812.45
808.54	1624.04
808.71	1669.09
808.88	1695.72
809.06	1742.82
809.23	1810.40
809.40	1632.23
809.58	1796.07
809.75	1701.86
809.92	1718.25
810.10	1902.56
810.27	1685.48
810.44	1689.57
810.62	1759.21
810.79	1687.53
810.96	1648.61
811.14	1701.86
811.31	1667.05
811.48	1726.44
811.66	1683.43
811.83	1775.59
812.00	1769.44
812.18	1701.86
812.35	1863.65
812.52	1746.92
812.69	1630.18
812.87	1691.62
813.04	1681.38
813.21	1648.61
813.39	1595.37
813.56	1656.81
813.73	1869.80
813.91	1601.51
814.08	1681.38
814.25	1675.24
814.42	1581.03
814.60	1644.52
814.77	1671.14
814.94	1671.14
815.12	1697.77
815.29	1775.59
815.46	1638.38
815.63	1732.58
815.81	1794.02
815.98	1714.15
816.15	1757.16
816.33	1699.81
816.50	1714.15
816.67	1781.73
816.84	1718.25
817.02	1615.85
817.19	1701.86
817.36	1669.09
817.53	1726.44
817.71	1710.05
817.88	1742.82
818.05	1595.37
818.22	1703.91
818.40	1818.60
818.57	1677.29
818.74	1732.58
818.91	1744.87
819.09	1701.86
819.26	1751.01
819.43	1685.48
819.60	1701.86
819.78	1734.63
819.95	1738.73
820.12	1671.14
820.29	1796.07
820.47	1791.97
820.64	1708.01
820.81	1599.46
820.98	1599.46
821.15	1726.44
821.33	1787.88
821.50	1656.81
821.67	1767.40
821.84	1705.96
822.02	1765.35
822.19	1794.02
822.36	1714.15
822.53	1703.91
822.70	1603.56
822.88	1699.81
823.05	1841.12
823.22	1712.10
823.39	1791.97
823.56	1662.95
823.74	1828.84
823.91	1665.00
824.08	1691.62
824.25	1615.85
824.42	1810.40
824.60	1648.61
824.77	1763.30
824.94	1630.18
825.11	1742.82
825.28	1605.61
825.45	1724.39
825.63	1734.63
825.80	1695.72
825.97	1708.01
826.14	1726.44
826.31	1691.62
826.48	1748.97
826.66	1710.05
826.83	1636.33
827.00	1720.29
827.17	1626.09
827.34	1644.52
827.51	1755.11
827.69	1673.19
827.86	1673.19
828.03	1730.53
828.20	1748.97
828.37	1642.47
828.54	1626.09
828.71	1718.25
828.89	1822.69
829.06	1720.29
829.23	1796.07
829.40	1695.72
829.57	1730.53
829.74	1732.58
829.91	1708.01
830.09	1652.71
830.26	1722.34
830.43	1783.78
830.60	1642.47
830.77	1787.88
830.94	1732.58
831.11	1642.47
831.28	1691.62
831.46	1755.11
831.63	1673.19
831.80	1724.39
831.97	1615.85
832.14	1714.15
832.31	1765.35
832.48	1693.67
832.65	1734.63
832.82	1744.87
832.99	1773.54
833.17	1677.29
833.34	1816.55
833.51	1798.12
833.68	1619.94
833.85	1718.25
834.02	1699.81
834.19	1636.33
834.36	1632.23
834.53	1734.63
834.70	1714.15
834.87	1800.16
835.04	1744.87
835.22	1742.82
835.39	1628.14
835.56	1683.43
835.73	1632.23
835.90	1777.64
836.07	1710.05
836.24	1740.77
836.41	1763.30
836.58	1667.05
836.75	1744.87
836.92	1687.53
837.09	1648.61
837.26	1765.35
837.43	1697.77
837.60	1746.92
837.77	1654.76
837.94	1730.53
838.12	1765.35
838.29	1744.87
838.46	1656.81
838.63	1673.19
838.80	1818.60
838.97	1744.87
839.14	1761.25
839.31	1652.71
839.48	1763.30
839.65	1662.95
839.82	1751.01
839.99	1636.33
840.16	1771.49
840.33	1638.38
840.50	1785.83
840.67	1621.99
840.84	1570.79
841.01	1705.96
841.18	1714.15
841.35	1656.81
841.52	1794.02
841.69	1810.40
841.86	1751.01
842.03	1732.58
842.20	1787.88
842.37	1673.19
842.54	1730.53
842.71	1742.82
842.88	1589.22
843.05	1732.58
843.22	1712.10
843.39	1794.02
843.56	1675.24
843.73	1716.20
843.90	1689.57
844.07	1769.44
844.24	1783.78
844.41	1718.25
844.58	1710.05
844.75	1769.44
844.92	1675.24
845.09	1708.01
845.26	1634.28
845.43	1714.15
845.60	1695.72
845.77	1824.74
845.94	1751.01
846.10	1757.16
846.27	1578.98
846.44	1701.86
846.61	1644.52
846.78	1767.40
846.95	1740.77
847.12	1642.47
847.29	1681.38
847.46	1683.43
847.63	1787.88
847.80	1687.53
847.97	1656.81
848.14	1806.31
848.31	1740.77
848.48	1603.56
848.65	1804.26
848.82	1722.34
848.98	1761.25
849.15	1742.82
849.32	1726.44
849.49	1800.16
849.66	1712.10
849.83	1710.05
850.00	1673.19
850.17	1808.36
850.34	1607.66
850.51	1642.47
850.68	1710.05
850.85	1759.21
851.01	1736.68
851.18	1722.34
851.35	1714.15
851.52	1681.38
851.69	1775.59
851.86	1632.23
852.03	1628.14
852.20	1714.15
852.37	1771.49
852.53	1607.66
852.70	1714.15
852.87	1660.90
853.04	1761.25
853.21	1685.48
853.38	1748.97
853.55	1822.69
853.72	1796.07
853.89	1636.33
854.05	1689.57
854.22	1697.77
854.39	1693.67
854.56	1708.01
854.73	1796.07
854.90	1660.90
855.07	1720.29
855.23	1722.34
855.40	1732.58
855.57	1640.42
855.74	1628.14
855.91	1837.03
856.08	1675.24
856.25	1665.00
856.41	1685.48
856.58	1689.57
856.75	1742.82
856.92	1615.85
857.09	1787.88
857.26	1570.79
857.42	1695.72
857.59	1744.87
857.76	1656.81
857.93	1683.43
858.10	1736.68
858.27	1667.05
858.43	1728.49
858.60	1673.19
858.77	1652.71
858.94	1699.81
859.11	1767.40
859.27	1691.62
859.44	1710.05
859.61	1800.16
859.78	1748.97
859.95	1699.81
860.12	1644.52
860.28	1845.22
860.45	1771.49
860.62	1701.86
860.79	1722.34
860.95	1656.81
861.12	1572.84
861.29	1660.90
861.46	1597.42
861.63	1621.99
861.79	1757.16
861.96	1722.34
862.13	1718.25
862.30	1783.78
862.47	1673.19
862.63	1697.77
862.80	1769.44
862.97	1820.64
863.14	1714.15
863.30	1775.59
863.47	1697.77
863.64	1755.11
863.81	1705.96
863.97	1646.57
864.14	1755.11
864.31	1685.48
864.48	1771.49
864.65	1740.77
864.81	1800.16
864.98	1722.34
865.15	1736.68
865.32	1748.97
865.48	1746.92
865.65	1830.88
865.82	1738.73
865.98	1677.29
866.15	1746.92
866.32	1665.00
866.49	1746.92
866.65	1769.44
866.82	1695.72
866.99	1703.91
867.16	1667.05
867.32	1632.23
867.49	1728.49
867.66	1701.86
867.83	1712.10
867.99	1652.71
868.16	1693.67
868.33	1648.61
868.49	1746.92
868.66	1689.57
868.83	1722.34
868.99	1712.10
869.16	1716.20
869.33	1742.82
869.50	1804.26
869.66	1728.49
869.83	1734.63
870.00	1691.62
870.16	1767.40
870.33	1710.05
870.50	1785.83
870.66	1779.68
870.83	1861.60
871.00	1738.73
871.17	1730.53
871.33	1843.17
871.50	1689.57
871.67	1642.47
871.83	1740.77
872.00	1736.68
872.17	1660.90
872.33	1732.58
872.50	1732.58
872.67	1742.82
872.83	1677.29
873.00	1734.63
873.17	1789.92
873.33	1730.53
873.50	1863.65
873.67	1671.14
873.83	1660.90
874.00	1828.84
874.16	1769.44
874.33	1687.53
874.50	1691.62
874.66	1710.05
874.83	1667.05
875.00	1730.53
875.16	1685.48
875.33	1744.87
875.50	1591.27
875.66	1728.49
875.83	1728.49
875.99	1755.11
876.16	1714.15
876.33	1677.29
876.49	1656.81
876.66	1740.77
876.83	1734.63
876.99	1566.70
877.16	1648.61
877.32	1716.20
877.49	1740.77
877.66	1677.29
877.82	1736.68
877.99	1638.38
878.15	1744.87
878.32	1837.03
878.49	1683.43
878.65	1695.72
878.82	1732.58
878.98	1691.62
879.15	1767.40
879.32	1769.44
879.48	1638.38
879.65	1658.85
879.81	1693.67
879.98	1687.53
880.15	1677.29
880.31	1824.74
880.48	1681.38
880.64	1794.02
880.81	1787.88
880.97	1824.74
881.14	1789.92
881.31	1617.90
881.47	1800.16
881.64	1662.95
881.80	1626.09
881.97	1669.09
882.13	1757.16
882.30	1632.23
882.47	1734.63
882.63	1652.71
882.80	1714.15
882.96	1681.38
883.13	1832.93
883.29	1751.01
883.46	1705.96
883.62	1804.26
883.79	1703.91
883.95	1767.40
884.12	1761.25
884.29	1759.21
884.45	1648.61
884.62	1746.92
884.78	1599.46
884.95	1834.98
885.11	1658.85
885.28	1722.34
885.44	1603.56
885.61	1781.73
885.77	1718.25
885.94	1705.96
886.10	1662.95
886.27	1705.96
886.43	1755.11
886.60	1804.26
886.76	1662.95
886.93	1632.23
887.09	1765.35
887.26	1703.91
887.42	1751.01
887.59	1843.17
887.75	1871.84
887.92	1789.92
888.08	1757.16
888.25	1757.16
888.41	1740.77
888.58	1681.38
888.74	1730.53
888.91	1730.53
>>>>>End Processed Spectral Data<<<<<
