SpectraSuite Data File
++++++++++++++++++++++++++++++++++++
Date: Mon Jun 06 14:49:17 CEST 2016
User: root
Dark Spectrum Present: No
Reference Spectrum Present: No
Number of Sampled Component Spectra: 1
Spectrometers: USB4C02835
Integration Time (usec): 100000 (USB4C02835)
Spectra Averaged: 1 (USB4C02835)
Boxcar Smoothing: 0 (USB4C02835)
Correct for Electrical Dark: No (USB4C02835)
Strobe/Lamp Enabled: No (USB4C02835)
Correct for Detector Non-linearity: No (USB4C02835)
Correct for Stray Light: No (USB4C02835)
Number of Pixels in Processed Spectrum: 3648
>>>>>Begin Processed Spectral Data<<<<<
177.47	1472.49
177.69	1472.49
177.91	1472.49
178.13	1509.35
178.36	1462.25
178.58	1613.80
178.80	1689.57
179.02	1628.14
179.24	1626.09
179.46	1718.25
179.68	1748.97
179.90	1628.14
180.13	1732.58
180.35	1593.32
180.57	1636.33
180.79	1667.05
181.01	1619.94
181.23	1683.43
181.45	1828.84
181.67	1669.09
181.90	1691.62
182.12	1640.42
182.34	1607.66
182.56	1769.44
182.78	1736.68
183.00	1740.77
183.22	1710.05
183.44	1615.85
183.66	1824.74
183.89	1816.55
184.11	1679.33
184.33	1730.53
184.55	1765.35
184.77	1753.06
184.99	1800.16
185.21	1669.09
185.43	1826.79
185.65	1691.62
185.87	1689.57
186.10	1855.46
186.32	1779.68
186.54	1652.71
186.76	1775.59
186.98	1718.25
187.20	1591.27
187.42	1656.81
187.64	1681.38
187.86	1703.91
188.08	1779.68
188.30	1667.05
188.52	1667.05
188.75	1761.25
188.97	1755.11
189.19	1601.51
189.41	1708.01
189.63	1771.49
189.85	1691.62
190.07	1708.01
190.29	1607.66
190.51	1845.22
190.73	1624.04
190.95	1800.16
191.17	1660.90
191.39	1636.33
191.61	1689.57
191.84	1578.98
192.06	1791.97
192.28	1611.75
192.50	1853.41
192.72	1697.77
192.94	1746.92
193.16	1705.96
193.38	1642.47
193.60	1587.18
193.82	1652.71
194.04	1812.45
194.26	1724.39
194.48	1650.66
194.70	1656.81
194.92	1656.81
195.14	1714.15
195.36	1648.61
195.58	1728.49
195.80	1693.67
196.02	1615.85
196.24	1687.53
196.46	1757.16
196.69	1675.24
196.91	1802.21
197.13	1734.63
197.35	1714.15
197.57	1830.88
197.79	1755.11
198.01	1730.53
198.23	1748.97
198.45	1767.40
198.67	1640.42
198.89	1691.62
199.11	1697.77
199.33	1628.14
199.55	1617.90
199.77	1746.92
199.99	1763.30
200.21	1695.72
200.43	1703.91
200.65	1656.81
200.87	1667.05
201.09	1701.86
201.31	1726.44
201.53	1722.34
201.75	1730.53
201.97	1726.44
202.19	1734.63
202.41	1742.82
202.63	1845.22
202.85	1730.53
203.07	1814.50
203.29	1636.33
203.51	1667.05
203.73	1589.22
203.95	1863.65
204.17	1742.82
204.39	1716.20
204.61	1724.39
204.83	1662.95
205.05	1734.63
205.27	1722.34
205.49	1728.49
205.71	1671.14
205.93	1705.96
206.15	1597.42
206.37	1716.20
206.59	1642.47
206.81	1660.90
207.03	1708.01
207.25	1654.76
207.47	1714.15
207.69	1681.38
207.91	1787.88
208.13	1710.05
208.34	1701.86
208.56	1630.18
208.78	1736.68
209.00	1654.76
209.22	1703.91
209.44	1705.96
209.66	1718.25
209.88	1755.11
210.10	1656.81
210.32	1748.97
210.54	1779.68
210.76	1730.53
210.98	1710.05
211.20	1628.14
211.42	1705.96
211.64	1765.35
211.86	1703.91
212.08	1705.96
212.30	1787.88
212.52	1667.05
212.74	1789.92
212.96	1712.10
213.17	1771.49
213.39	1681.38
213.61	1781.73
213.83	1720.29
214.05	1591.27
214.27	1705.96
214.49	1685.48
214.71	1626.09
214.93	1787.88
215.15	1673.19
215.37	1724.39
215.59	1642.47
215.81	1710.05
216.03	1802.21
216.24	1656.81
216.46	1697.77
216.68	1667.05
216.90	1734.63
217.12	1798.12
217.34	1708.01
217.56	1818.60
217.78	1812.45
218.00	1697.77
218.22	1751.01
218.44	1705.96
218.66	1665.00
218.87	1673.19
219.09	1689.57
219.31	1652.71
219.53	1814.50
219.75	1744.87
219.97	1677.29
220.19	1669.09
220.41	1736.68
220.63	1740.77
220.85	1781.73
221.06	1662.95
221.28	1832.93
221.50	1740.77
221.72	1742.82
221.94	1783.78
222.16	1648.61
222.38	1759.21
222.60	1763.30
222.82	1568.74
223.03	1761.25
223.25	1687.53
223.47	1701.86
223.69	1787.88
223.91	1791.97
224.13	1716.20
224.35	1712.10
224.57	1675.24
224.78	1736.68
225.00	1656.81
225.22	1595.37
225.44	1693.67
225.66	1767.40
225.88	1693.67
226.10	1830.88
226.32	1624.04
226.53	1734.63
226.75	1759.21
226.97	1718.25
227.19	1708.01
227.41	1673.19
227.63	1617.90
227.85	1642.47
228.06	1691.62
228.28	1679.33
228.50	1744.87
228.72	1609.70
228.94	1626.09
229.16	1660.90
229.37	1652.71
229.59	1636.33
229.81	1757.16
230.03	1611.75
230.25	1574.89
230.47	1636.33
230.69	1667.05
230.90	1759.21
231.12	1656.81
231.34	1720.29
231.56	1783.78
231.78	1748.97
232.00	1740.77
232.21	1669.09
232.43	1677.29
232.65	1501.16
232.87	1722.34
233.09	1621.99
233.30	1660.90
233.52	1773.54
233.74	1689.57
233.96	1662.95
234.18	1705.96
234.40	1624.04
234.61	1820.64
234.83	1681.38
235.05	1591.27
235.27	1875.94
235.49	1871.84
235.70	1710.05
235.92	1798.12
236.14	1742.82
236.36	1820.64
236.58	1634.28
236.79	1769.44
237.01	1718.25
237.23	1705.96
237.45	1845.22
237.67	1683.43
237.88	1751.01
238.10	1746.92
238.32	1589.22
238.54	1771.49
238.76	1656.81
238.97	1681.38
239.19	1687.53
239.41	1724.39
239.63	1748.97
239.85	1673.19
240.06	1728.49
240.28	1658.85
240.50	1712.10
240.72	1681.38
240.93	1685.48
241.15	1769.44
241.37	1751.01
241.59	1787.88
241.81	1679.33
242.02	1673.19
242.24	1677.29
242.46	1775.59
242.68	1687.53
242.89	1730.53
243.11	1718.25
243.33	1732.58
243.55	1665.00
243.76	1685.48
243.98	1595.37
244.20	1671.14
244.42	1685.48
244.64	1695.72
244.85	1636.33
245.07	1654.76
245.29	1695.72
245.51	1708.01
245.72	1681.38
245.94	1701.86
246.16	1746.92
246.38	1736.68
246.59	1599.46
246.81	1660.90
247.03	1701.86
247.24	1576.94
247.46	1632.23
247.68	1742.82
247.90	1669.09
248.11	1652.71
248.33	1783.78
248.55	1677.29
248.77	1738.73
248.98	1734.63
249.20	1775.59
249.42	1624.04
249.64	1759.21
249.85	1736.68
250.07	1632.23
250.29	1695.72
250.50	1767.40
250.72	1595.37
250.94	1660.90
251.16	1738.73
251.37	1783.78
251.59	1679.33
251.81	1787.88
252.02	1748.97
252.24	1669.09
252.46	1789.92
252.68	1636.33
252.89	1683.43
253.11	1640.42
253.33	1869.80
253.54	1779.68
253.76	1660.90
253.98	1677.29
254.20	1701.86
254.41	1640.42
254.63	1716.20
254.85	1644.52
255.06	1644.52
255.28	1734.63
255.50	1738.73
255.71	1640.42
255.93	1615.85
256.15	1685.48
256.36	1748.97
256.58	1665.00
256.80	1697.77
257.02	1662.95
257.23	1685.48
257.45	1751.01
257.67	1695.72
257.88	1644.52
258.10	1744.87
258.32	1738.73
258.53	1697.77
258.75	1779.68
258.97	1660.90
259.18	1705.96
259.40	1763.30
259.62	1787.88
259.83	1738.73
260.05	1683.43
260.27	2011.11
260.48	1775.59
260.70	1574.89
260.92	1652.71
261.13	1669.09
261.35	1654.76
261.57	1734.63
261.78	1654.76
262.00	1619.94
262.22	1669.09
262.43	1624.04
262.65	1667.05
262.86	1708.01
263.08	1785.83
263.30	1730.53
263.51	1607.66
263.73	1667.05
263.95	1767.40
264.16	1636.33
264.38	1679.33
264.60	1783.78
264.81	1699.81
265.03	1701.86
265.25	1759.21
265.46	1714.15
265.68	1736.68
265.89	1775.59
266.11	1599.46
266.33	1718.25
266.54	1789.92
266.76	1685.48
266.98	1796.07
267.19	1806.31
267.41	1724.39
267.62	1642.47
267.84	1611.75
268.06	1755.11
268.27	1636.33
268.49	1699.81
268.70	1800.16
268.92	1748.97
269.14	1585.13
269.35	1652.71
269.57	1714.15
269.79	1710.05
270.00	1691.62
270.22	1855.46
270.43	1570.79
270.65	1570.79
270.87	1794.02
271.08	1771.49
271.30	1736.68
271.51	1710.05
271.73	1687.53
271.95	1767.40
272.16	1693.67
272.38	1726.44
272.59	1710.05
272.81	1757.16
273.02	1755.11
273.24	1621.99
273.46	1697.77
273.67	1642.47
273.89	1654.76
274.10	1673.19
274.32	1781.73
274.54	1740.77
274.75	1687.53
274.97	1624.04
275.18	1708.01
275.40	1789.92
275.61	1667.05
275.83	1691.62
276.05	1634.28
276.26	1708.01
276.48	1738.73
276.69	1640.42
276.91	1650.66
277.12	1751.01
277.34	1738.73
277.55	1794.02
277.77	1650.66
277.99	1644.52
278.20	1646.57
278.42	1656.81
278.63	1597.42
278.85	1648.61
279.06	1619.94
279.28	1691.62
279.49	1742.82
279.71	1830.88
279.93	1742.82
280.14	1673.19
280.36	1654.76
280.57	1769.44
280.79	1789.92
281.00	1697.77
281.22	1599.46
281.43	1794.02
281.65	1578.98
281.86	1677.29
282.08	1769.44
282.29	1804.26
282.51	1632.23
282.73	1638.38
282.94	1624.04
283.16	1740.77
283.37	1802.21
283.59	1726.44
283.80	1818.60
284.02	1697.77
284.23	1718.25
284.45	1705.96
284.66	1640.42
284.88	1658.85
285.09	1714.15
285.31	1804.26
285.52	1728.49
285.74	1665.00
285.95	1712.10
286.17	1748.97
286.38	1724.39
286.60	1718.25
286.81	1691.62
287.03	1595.37
287.24	1734.63
287.46	1787.88
287.67	1658.85
287.89	1816.55
288.10	1660.90
288.32	1685.48
288.53	1755.11
288.75	1746.92
288.96	1781.73
289.18	1656.81
289.39	1677.29
289.61	1757.16
289.82	1882.08
290.04	1810.40
290.25	1617.90
290.47	1718.25
290.68	1710.05
290.90	1761.25
291.11	1650.66
291.33	1722.34
291.54	1701.86
291.76	1751.01
291.97	1738.73
292.18	1726.44
292.40	1673.19
292.61	1730.53
292.83	1822.69
293.04	1789.92
293.26	1744.87
293.47	1673.19
293.69	1705.96
293.90	1685.48
294.12	1761.25
294.33	1714.15
294.55	1621.99
294.76	1841.12
294.97	1839.08
295.19	1787.88
295.40	1652.71
295.62	1810.40
295.83	1757.16
296.05	1708.01
296.26	1753.06
296.48	1755.11
296.69	1685.48
296.90	1665.00
297.12	1685.48
297.33	1757.16
297.55	1662.95
297.76	1748.97
297.98	1789.92
298.19	1693.67
298.41	1751.01
298.62	1697.77
298.83	1779.68
299.05	1656.81
299.26	1712.10
299.48	1667.05
299.69	1814.50
299.90	1656.81
300.12	1546.22
300.33	1691.62
300.55	1742.82
300.76	1738.73
300.98	1626.09
301.19	1742.82
301.40	1665.00
301.62	1640.42
301.83	1640.42
302.05	1742.82
302.26	1677.29
302.47	1736.68
302.69	1658.85
302.90	1744.87
303.12	1585.13
303.33	1746.92
303.54	1841.12
303.76	1693.67
303.97	1687.53
304.19	1761.25
304.40	1656.81
304.61	1675.24
304.83	1787.88
305.04	1794.02
305.26	1677.29
305.47	1679.33
305.68	1662.95
305.90	1632.23
306.11	1761.25
306.33	1660.90
306.54	1665.00
306.75	1644.52
306.97	1585.13
307.18	1662.95
307.39	1685.48
307.61	1789.92
307.82	1701.86
308.04	1687.53
308.25	1652.71
308.46	1726.44
308.68	1681.38
308.89	1691.62
309.10	1769.44
309.32	1736.68
309.53	1718.25
309.74	1728.49
309.96	1691.62
310.17	1734.63
310.39	1675.24
310.60	1787.88
310.81	1716.20
311.03	1617.90
311.24	1757.16
311.45	1656.81
311.67	1804.26
311.88	1732.58
312.09	1669.09
312.31	1689.57
312.52	1662.95
312.73	1751.01
312.95	1636.33
313.16	1648.61
313.37	1814.50
313.59	1722.34
313.80	1767.40
314.01	1773.54
314.23	1667.05
314.44	1667.05
314.65	1658.85
314.87	1546.22
315.08	1724.39
315.29	1734.63
315.51	1646.57
315.72	1621.99
315.93	1816.55
316.15	1703.91
316.36	1621.99
316.57	1683.43
316.79	1703.91
317.00	1738.73
317.21	1771.49
317.43	1673.19
317.64	1751.01
317.85	1689.57
318.07	1646.57
318.28	1685.48
318.49	1890.28
318.70	1927.14
318.92	1890.28
319.13	1789.92
319.34	1816.55
319.56	1796.07
319.77	1839.08
319.98	1755.11
320.20	1806.31
320.41	1765.35
320.62	1769.44
320.83	1736.68
321.05	1841.12
321.26	1712.10
321.47	1746.92
321.69	1683.43
321.90	1665.00
322.11	1677.29
322.32	1740.77
322.54	1738.73
322.75	1624.04
322.96	1884.13
323.18	1605.61
323.39	1540.07
323.60	1685.48
323.81	1687.53
324.03	1632.23
324.24	1681.38
324.45	1701.86
324.66	1656.81
324.88	1703.91
325.09	1779.68
325.30	1718.25
325.52	1708.01
325.73	1662.95
325.94	1662.95
326.15	1658.85
326.37	1677.29
326.58	1665.00
326.79	1787.88
327.00	1636.33
327.22	1751.01
327.43	1681.38
327.64	1658.85
327.85	1775.59
328.07	1744.87
328.28	1802.21
328.49	1673.19
328.70	1685.48
328.92	1667.05
329.13	1646.57
329.34	1726.44
329.55	1785.83
329.76	1724.39
329.98	1714.15
330.19	1775.59
330.40	1689.57
330.61	1648.61
330.83	1705.96
331.04	1671.14
331.25	1763.30
331.46	1677.29
331.68	1609.70
331.89	1761.25
332.10	1701.86
332.31	1689.57
332.52	1718.25
332.74	1769.44
332.95	1624.04
333.16	1744.87
333.37	1699.81
333.58	1697.77
333.80	1689.57
334.01	1609.70
334.22	1705.96
334.43	1665.00
334.64	1656.81
334.86	1595.37
335.07	1644.52
335.28	1814.50
335.49	1585.13
335.70	1693.67
335.92	1734.63
336.13	1773.54
336.34	1779.68
336.55	1753.06
336.76	1617.90
336.98	1681.38
337.19	1685.48
337.40	1765.35
337.61	1851.36
337.82	1669.09
338.04	1820.64
338.25	1642.47
338.46	1660.90
338.67	1699.81
338.88	1644.52
339.09	1693.67
339.31	1650.66
339.52	1648.61
339.73	1628.14
339.94	1771.49
340.15	1828.84
340.36	1660.90
340.58	1708.01
340.79	1650.66
341.00	1763.30
341.21	1652.71
341.42	1751.01
341.63	1636.33
341.85	1767.40
342.06	1779.68
342.27	1695.72
342.48	1755.11
342.69	1626.09
342.90	1697.77
343.12	1654.76
343.33	1644.52
343.54	1736.68
343.75	1800.16
343.96	1718.25
344.17	1689.57
344.38	1681.38
344.60	1613.80
344.81	1650.66
345.02	1734.63
345.23	1744.87
345.44	1806.31
345.65	1728.49
345.86	1773.54
346.07	1662.95
346.29	1652.71
346.50	1718.25
346.71	1757.16
346.92	1687.53
347.13	1800.16
347.34	1595.37
347.55	1718.25
347.76	1771.49
347.98	1634.28
348.19	1681.38
348.40	1798.12
348.61	1671.14
348.82	1800.16
349.03	1771.49
349.24	1656.81
349.45	1742.82
349.66	1576.94
349.88	1724.39
350.09	1546.22
350.30	1763.30
350.51	1734.63
350.72	1660.90
350.93	1648.61
351.14	1658.85
351.35	1687.53
351.56	1712.10
351.77	1726.44
351.99	1695.72
352.20	1718.25
352.41	1734.63
352.62	1652.71
352.83	1681.38
353.04	1732.58
353.25	1769.44
353.46	1791.97
353.67	1787.88
353.88	1566.70
354.09	1673.19
354.30	1646.57
354.52	1722.34
354.73	1632.23
354.94	1677.29
355.15	1646.57
355.36	1775.59
355.57	1730.53
355.78	1738.73
355.99	1634.28
356.20	1642.47
356.41	1736.68
356.62	1748.97
356.83	1667.05
357.04	1693.67
357.25	1619.94
357.46	1615.85
357.68	1720.29
357.89	1628.14
358.10	1630.18
358.31	1677.29
358.52	1697.77
358.73	1669.09
358.94	1624.04
359.15	1724.39
359.36	1816.55
359.57	1660.90
359.78	1748.97
359.99	1757.16
360.20	1581.03
360.41	1681.38
360.62	1769.44
360.83	1703.91
361.04	1697.77
361.25	1703.91
361.46	1824.74
361.67	1767.40
361.88	1740.77
362.09	1839.08
362.30	1697.77
362.51	1646.57
362.72	1708.01
362.93	1787.88
363.14	1759.21
363.35	1771.49
363.56	1609.70
363.78	1742.82
363.99	1708.01
364.20	1697.77
364.41	1763.30
364.62	1845.22
364.83	1677.29
365.04	1705.96
365.25	1695.72
365.46	1843.17
365.67	1730.53
365.88	1599.46
366.09	1714.15
366.30	1708.01
366.51	1701.86
366.72	1667.05
366.93	1730.53
367.14	1771.49
367.35	1791.97
367.56	1787.88
367.77	1763.30
367.98	1697.77
368.18	1703.91
368.39	1808.36
368.60	1611.75
368.81	1693.67
369.02	1689.57
369.23	1714.15
369.44	1607.66
369.65	1722.34
369.86	1718.25
370.07	1720.29
370.28	1683.43
370.49	1730.53
370.70	1781.73
370.91	1679.33
371.12	1710.05
371.33	1726.44
371.54	1730.53
371.75	1783.78
371.96	1697.77
372.17	1697.77
372.38	1681.38
372.59	1800.16
372.80	1640.42
373.01	1677.29
373.22	1726.44
373.43	1685.48
373.64	1673.19
373.85	1751.01
374.06	1804.26
374.26	1720.29
374.47	1724.39
374.68	1767.40
374.89	1673.19
375.10	1699.81
375.31	1837.03
375.52	1708.01
375.73	1714.15
375.94	1646.57
376.15	1773.54
376.36	1693.67
376.57	1687.53
376.78	1583.08
376.99	1658.85
377.20	1828.84
377.40	1689.57
377.61	1798.12
377.82	1677.29
378.03	1761.25
378.24	1796.07
378.45	1648.61
378.66	1796.07
378.87	1570.79
379.08	1630.18
379.29	1683.43
379.50	1783.78
379.71	1673.19
379.91	1705.96
380.12	1693.67
380.33	1691.62
380.54	1662.95
380.75	1736.68
380.96	1675.24
381.17	1732.58
381.38	1718.25
381.59	1730.53
381.80	1671.14
382.00	1855.46
382.21	1722.34
382.42	1789.92
382.63	1830.88
382.84	1796.07
383.05	1845.22
383.26	1832.93
383.47	1689.57
383.68	1673.19
383.88	1763.30
384.09	1691.62
384.30	1832.93
384.51	1787.88
384.72	1681.38
384.93	1679.33
385.14	1791.97
385.35	1714.15
385.55	1656.81
385.76	1787.88
385.97	1740.77
386.18	1669.09
386.39	1652.71
386.60	1732.58
386.81	1685.48
387.02	1687.53
387.22	1646.57
387.43	1740.77
387.64	1738.73
387.85	2000.87
388.06	2260.96
388.27	4347.84
388.48	6782.87
388.68	8361.86
388.89	9752.43
389.10	9881.45
389.31	8712.06
389.52	7561.10
389.73	6709.15
389.93	6221.73
390.14	5826.47
390.35	5361.58
390.56	4532.15
390.77	3708.87
390.98	3098.58
391.18	2533.34
391.39	2082.78
391.60	1818.60
391.81	1828.84
392.02	1722.34
392.23	1841.12
392.43	1665.00
392.64	1791.97
392.85	1753.06
393.06	1822.69
393.27	1722.34
393.47	1638.38
393.68	1734.63
393.89	1710.05
394.10	1800.16
394.31	1703.91
394.52	1619.94
394.72	1683.43
394.93	1824.74
395.14	1599.46
395.35	1679.33
395.56	1667.05
395.76	1712.10
395.97	1753.06
396.18	1845.22
396.39	1828.84
396.60	1949.67
396.80	1834.98
397.01	1765.35
397.22	1851.36
397.43	1859.56
397.64	1777.64
397.84	1765.35
398.05	1839.08
398.26	1736.68
398.47	1716.20
398.67	1740.77
398.88	1689.57
399.09	1820.64
399.30	1751.01
399.51	1757.16
399.71	1677.29
399.92	1710.05
400.13	1718.25
400.34	1673.19
400.54	1710.05
400.75	1806.31
400.96	1697.77
401.17	1839.08
401.37	1734.63
401.58	1660.90
401.79	1734.63
402.00	1871.84
402.21	2050.02
402.41	1941.47
402.62	2064.35
402.83	2064.35
403.04	1943.52
403.24	2142.18
403.45	1843.17
403.66	1898.47
403.87	1834.98
404.07	1898.47
404.28	1925.09
404.49	1841.12
404.70	1773.54
404.90	1789.92
405.11	1699.81
405.32	1730.53
405.52	1742.82
405.73	1697.77
405.94	1642.47
406.15	1675.24
406.35	1699.81
406.56	1773.54
406.77	1673.19
406.98	1765.35
407.18	1699.81
407.39	1849.32
407.60	1732.58
407.80	1699.81
408.01	1669.09
408.22	1730.53
408.43	1662.95
408.63	1765.35
408.84	1720.29
409.05	1791.97
409.25	1648.61
409.46	1558.50
409.67	1705.96
409.88	1675.24
410.08	1648.61
410.29	1714.15
410.50	1779.68
410.70	1667.05
410.91	1644.52
411.12	1755.11
411.32	1685.48
411.53	1617.90
411.74	1781.73
411.95	1791.97
412.15	1708.01
412.36	1748.97
412.57	1794.02
412.77	1732.58
412.98	1728.49
413.19	1763.30
413.39	1755.11
413.60	1732.58
413.81	1863.65
414.01	1603.56
414.22	1763.30
414.43	1816.55
414.63	1689.57
414.84	1734.63
415.05	1757.16
415.25	1570.79
415.46	1695.72
415.67	1730.53
415.87	1722.34
416.08	1693.67
416.29	1701.86
416.49	1757.16
416.70	1691.62
416.91	1624.04
417.11	1646.57
417.32	1691.62
417.53	1777.64
417.73	1757.16
417.94	1656.81
418.15	1667.05
418.35	1744.87
418.56	1650.66
418.77	1779.68
418.97	1630.18
419.18	1705.96
419.38	1710.05
419.59	1624.04
419.80	1785.83
420.00	1673.19
420.21	1617.90
420.42	1736.68
420.62	1769.44
420.83	1619.94
421.04	1660.90
421.24	1685.48
421.45	1685.48
421.65	1712.10
421.86	1816.55
422.07	1744.87
422.27	1763.30
422.48	1705.96
422.69	1652.71
422.89	1687.53
423.10	1679.33
423.30	1716.20
423.51	1681.38
423.72	1638.38
423.92	1703.91
424.13	1691.62
424.33	1714.15
424.54	1777.64
424.75	1654.76
424.95	1746.92
425.16	1746.92
425.36	1703.91
425.57	1681.38
425.78	1740.77
425.98	1730.53
426.19	1693.67
426.39	1677.29
426.60	1789.92
426.81	1738.73
427.01	1744.87
427.22	1693.67
427.42	1609.70
427.63	1652.71
427.83	1777.64
428.04	1816.55
428.25	1699.81
428.45	1857.51
428.66	1761.25
428.86	1675.24
429.07	1781.73
429.28	1705.96
429.48	1705.96
429.69	1656.81
429.89	1771.49
430.10	1673.19
430.30	1617.90
430.51	1734.63
430.71	1689.57
430.92	1728.49
431.13	1671.14
431.33	1718.25
431.54	1689.57
431.74	1826.79
431.95	1816.55
432.15	1667.05
432.36	1722.34
432.56	1824.74
432.77	1812.45
432.98	1765.35
433.18	1767.40
433.39	1667.05
433.59	1675.24
433.80	1828.84
434.00	1832.93
434.21	1699.81
434.41	1732.58
434.62	1865.70
434.82	1634.28
435.03	1714.15
435.23	1624.04
435.44	1648.61
435.64	1726.44
435.85	1728.49
436.06	1787.88
436.26	1787.88
436.47	1736.68
436.67	1697.77
436.88	1654.76
437.08	1759.21
437.29	1812.45
437.49	1652.71
437.70	1728.49
437.90	1791.97
438.11	1869.80
438.31	1800.16
438.52	1892.32
438.72	1765.35
438.93	1910.75
439.13	1812.45
439.34	1787.88
439.54	1816.55
439.75	1796.07
439.95	1796.07
440.16	1716.20
440.36	1732.58
440.57	1751.01
440.77	1740.77
440.98	1708.01
441.18	1667.05
441.39	1675.24
441.59	1636.33
441.80	1828.84
442.00	1785.83
442.21	1847.27
442.41	1677.29
442.62	1748.97
442.82	1658.85
443.02	1767.40
443.23	1710.05
443.43	1697.77
443.64	1837.03
443.84	1712.10
444.05	1861.60
444.25	1679.33
444.46	1685.48
444.66	1722.34
444.87	1892.32
445.07	1658.85
445.28	1726.44
445.48	1806.31
445.69	1740.77
445.89	1910.75
446.09	1714.15
446.30	1935.33
446.50	2701.27
446.71	3694.54
446.91	4452.28
447.12	4743.10
447.32	4782.01
447.53	4550.59
447.73	3823.56
447.93	3502.03
448.14	3307.47
448.34	3205.07
448.55	2918.36
448.75	2772.95
448.96	2576.34
449.16	2336.73
449.36	2357.21
449.57	2076.64
449.77	1966.05
449.98	1744.87
450.18	1779.68
450.39	1796.07
450.59	1781.73
450.79	1773.54
451.00	1705.96
451.20	1769.44
451.41	1732.58
451.61	1710.05
451.81	1691.62
452.02	1722.34
452.22	1695.72
452.43	1712.10
452.63	1722.34
452.84	1708.01
453.04	1759.21
453.24	1755.11
453.45	1607.66
453.65	1658.85
453.86	1787.88
454.06	1804.26
454.26	1695.72
454.47	1746.92
454.67	1828.84
454.87	1781.73
455.08	1701.86
455.28	1816.55
455.49	1691.62
455.69	1714.15
455.89	1837.03
456.10	1767.40
456.30	1705.96
456.51	1787.88
456.71	1808.36
456.91	1761.25
457.12	1751.01
457.32	1787.88
457.52	1722.34
457.73	1796.07
457.93	1779.68
458.14	1755.11
458.34	1615.85
458.54	1691.62
458.75	1660.90
458.95	1728.49
459.15	1671.14
459.36	1789.92
459.56	1781.73
459.76	1849.32
459.97	1675.24
460.17	1796.07
460.37	1873.89
460.58	1800.16
460.78	1744.87
460.99	1722.34
461.19	1734.63
461.39	1675.24
461.60	1718.25
461.80	1789.92
462.00	1660.90
462.21	1703.91
462.41	1675.24
462.61	1665.00
462.82	1613.80
463.02	1757.16
463.22	1701.86
463.43	1824.74
463.63	1761.25
463.83	1781.73
464.04	1767.40
464.24	1646.57
464.44	1648.61
464.64	1834.98
464.85	1689.57
465.05	1710.05
465.25	1783.78
465.46	1734.63
465.66	1785.83
465.86	1781.73
466.07	1728.49
466.27	1718.25
466.47	1634.28
466.68	1578.98
466.88	1773.54
467.08	1771.49
467.29	1755.11
467.49	1718.25
467.69	1726.44
467.89	1740.77
468.10	1693.67
468.30	1791.97
468.50	1824.74
468.71	1794.02
468.91	1624.04
469.11	1744.87
469.31	1681.38
469.52	1599.46
469.72	1767.40
469.92	1802.21
470.13	1705.96
470.33	1697.77
470.53	1906.66
470.73	2111.46
470.94	2260.96
471.14	2365.40
471.34	2504.67
471.54	2428.89
471.75	2224.09
471.95	2050.02
472.15	2052.06
472.36	2207.71
472.56	2023.39
472.76	2099.17
472.96	2019.30
473.17	1964.00
473.37	1927.14
473.57	1857.51
473.77	1781.73
473.98	1742.82
474.18	1660.90
474.38	1839.08
474.58	1648.61
474.79	1699.81
474.99	1763.30
475.19	1802.21
475.39	1718.25
475.60	1736.68
475.80	1789.92
476.00	1761.25
476.20	1720.29
476.41	1753.06
476.61	1755.11
476.81	1820.64
477.01	1662.95
477.21	1742.82
477.42	1834.98
477.62	1679.33
477.82	1773.54
478.02	1673.19
478.23	1746.92
478.43	1675.24
478.63	1783.78
478.83	1689.57
479.03	1720.29
479.24	1818.60
479.44	1779.68
479.64	1642.47
479.84	1634.28
480.04	1624.04
480.25	1769.44
480.45	1710.05
480.65	1634.28
480.85	1781.73
481.06	1669.09
481.26	1767.40
481.46	1708.01
481.66	1759.21
481.86	1757.16
482.06	1757.16
482.27	1759.21
482.47	1673.19
482.67	1753.06
482.87	1632.23
483.07	1820.64
483.28	1699.81
483.48	1673.19
483.68	1714.15
483.88	1642.47
484.08	1572.84
484.29	1603.56
484.49	1701.86
484.69	1703.91
484.89	1771.49
485.09	1685.48
485.29	1746.92
485.50	1796.07
485.70	1734.63
485.90	1781.73
486.10	1736.68
486.30	1652.71
486.50	1814.50
486.71	1740.77
486.91	1732.58
487.11	1839.08
487.31	1665.00
487.51	1746.92
487.71	1689.57
487.91	1599.46
488.12	1656.81
488.32	1613.80
488.52	1595.37
488.72	1615.85
488.92	1714.15
489.12	1775.59
489.32	1814.50
489.53	1734.63
489.73	1654.76
489.93	1740.77
490.13	1751.01
490.33	1628.14
490.53	1734.63
490.73	1785.83
490.94	1581.03
491.14	1734.63
491.34	1877.99
491.54	2035.68
491.74	2539.48
491.94	2858.96
492.14	3022.80
492.34	2969.55
492.54	2756.57
492.75	2463.71
492.95	2445.27
493.15	2389.98
493.35	2316.25
493.55	2265.05
493.75	2090.98
493.95	2191.33
494.15	2043.87
494.35	1982.43
494.56	1824.74
494.76	1820.64
494.96	1728.49
495.16	1779.68
495.36	1683.43
495.56	1718.25
495.76	1669.09
495.96	1703.91
496.16	1693.67
496.36	1796.07
496.56	1771.49
496.77	1722.34
496.97	1730.53
497.17	1746.92
497.37	1662.95
497.57	1785.83
497.77	1658.85
497.97	1693.67
498.17	1763.30
498.37	1742.82
498.57	1726.44
498.77	1669.09
498.97	1769.44
499.17	1804.26
499.38	1708.01
499.58	1791.97
499.78	1785.83
499.98	1730.53
500.18	1714.15
500.38	1697.77
500.58	1841.12
500.78	2545.63
500.98	4642.75
501.18	5855.14
501.38	6842.26
501.58	7186.32
501.78	6913.94
501.98	5689.26
502.18	4898.74
502.38	4579.26
502.58	4202.43
502.78	3833.80
502.98	3624.90
503.18	3471.31
503.38	3205.07
503.59	2887.64
503.79	2672.60
503.99	2461.66
504.19	2318.30
504.39	2224.09
504.59	2183.13
504.79	2183.13
504.99	2027.49
505.19	1886.18
505.39	1906.66
505.59	1910.75
505.79	1908.71
505.99	1900.52
506.19	1800.16
506.39	1931.23
506.59	1755.11
506.79	1665.00
506.99	1849.32
507.19	1755.11
507.39	1730.53
507.59	1718.25
507.79	1673.19
507.99	1621.99
508.19	1677.29
508.39	1724.39
508.59	1777.64
508.79	1820.64
508.99	1810.40
509.19	1689.57
509.39	1759.21
509.59	1693.67
509.79	1595.37
509.99	1722.34
510.19	1755.11
510.39	1751.01
510.59	1714.15
510.79	1656.81
510.99	1681.38
511.19	1675.24
511.39	1783.78
511.59	1806.31
511.79	1730.53
511.99	1730.53
512.19	1861.60
512.38	1703.91
512.58	1730.53
512.78	1726.44
512.98	1767.40
513.18	1832.93
513.38	1658.85
513.58	1773.54
513.78	1677.29
513.98	1726.44
514.18	1669.09
514.38	1648.61
514.58	1724.39
514.78	1710.05
514.98	1681.38
515.18	1765.35
515.38	1578.98
515.58	1791.97
515.78	1667.05
515.98	1681.38
516.18	1759.21
516.38	1730.53
516.57	1732.58
516.77	1699.81
516.97	1728.49
517.17	1748.97
517.37	1665.00
517.57	1730.53
517.77	1716.20
517.97	1777.64
518.17	1779.68
518.37	1671.14
518.57	1736.68
518.77	1710.05
518.97	1593.32
519.16	1816.55
519.36	1857.51
519.56	1703.91
519.76	1687.53
519.96	1769.44
520.16	1751.01
520.36	1660.90
520.56	1767.40
520.76	1701.86
520.96	1656.81
521.16	1789.92
521.35	1736.68
521.55	1865.70
521.75	1781.73
521.95	1710.05
522.15	1701.86
522.35	1714.15
522.55	1771.49
522.75	1740.77
522.95	1714.15
523.14	1681.38
523.34	1722.34
523.54	1683.43
523.74	1794.02
523.94	1771.49
524.14	1673.19
524.34	1644.52
524.54	1814.50
524.73	1669.09
524.93	1703.91
525.13	1728.49
525.33	1599.46
525.53	1888.23
525.73	1783.78
525.93	1730.53
526.13	1722.34
526.32	1667.05
526.52	1755.11
526.72	1746.92
526.92	1722.34
527.12	1703.91
527.32	1681.38
527.52	1705.96
527.71	1765.35
527.91	1669.09
528.11	1740.77
528.31	1767.40
528.51	1660.90
528.71	1757.16
528.90	1675.24
529.10	1740.77
529.30	1794.02
529.50	1609.70
529.70	1669.09
529.90	1701.86
530.09	1777.64
530.29	1685.48
530.49	1679.33
530.69	1892.32
530.89	1755.11
531.09	1814.50
531.28	1724.39
531.48	1802.21
531.68	1771.49
531.88	1677.29
532.08	1783.78
532.28	1734.63
532.47	1763.30
532.67	1828.84
532.87	1763.30
533.07	1697.77
533.27	1755.11
533.46	1771.49
533.66	1767.40
533.86	1710.05
534.06	1775.59
534.26	1722.34
534.45	1783.78
534.65	1775.59
534.85	1718.25
535.05	1660.90
535.25	1771.49
535.44	1591.27
535.64	1773.54
535.84	1744.87
536.04	1673.19
536.24	1673.19
536.43	1679.33
536.63	1746.92
536.83	1683.43
537.03	1726.44
537.22	1642.47
537.42	1685.48
537.62	1691.62
537.82	1769.44
538.02	1775.59
538.21	1767.40
538.41	1865.70
538.61	1667.05
538.81	1648.61
539.00	1816.55
539.20	1683.43
539.40	1646.57
539.60	1675.24
539.79	1814.50
539.99	1703.91
540.19	1697.77
540.39	1736.68
540.58	1775.59
540.78	1787.88
540.98	1767.40
541.18	1730.53
541.37	1834.98
541.57	1734.63
541.77	1736.68
541.97	1665.00
542.16	1705.96
542.36	1759.21
542.56	1634.28
542.76	1843.17
542.95	1740.77
543.15	1730.53
543.35	1746.92
543.54	1712.10
543.74	1738.73
543.94	1867.75
544.14	1734.63
544.33	1777.64
544.53	1753.06
544.73	1712.10
544.93	1712.10
545.12	1753.06
545.32	1773.54
545.52	1822.69
545.71	1728.49
545.91	1744.87
546.11	1691.62
546.30	1695.72
546.50	1777.64
546.70	1775.59
546.90	1724.39
547.09	1636.33
547.29	1802.21
547.49	1871.84
547.68	1730.53
547.88	1701.86
548.08	1744.87
548.27	2242.53
548.47	1716.20
548.67	1722.34
548.87	1843.17
549.06	1722.34
549.26	1812.45
549.46	1742.82
549.65	1673.19
549.85	1791.97
550.05	1677.29
550.24	1671.14
550.44	1730.53
550.64	1687.53
550.83	1761.25
551.03	1791.97
551.23	1828.84
551.42	1810.40
551.62	1732.58
551.82	1810.40
552.01	1701.86
552.21	1841.12
552.41	1800.16
552.60	1716.20
552.80	1720.29
553.00	1703.91
553.19	1681.38
553.39	1863.65
553.59	1626.09
553.78	1722.34
553.98	1714.15
554.17	1699.81
554.37	1771.49
554.57	1818.60
554.76	1632.23
554.96	1585.13
555.16	1798.12
555.35	1746.92
555.55	1746.92
555.75	1716.20
555.94	1765.35
556.14	1662.95
556.33	1779.68
556.53	1671.14
556.73	1763.30
556.92	1724.39
557.12	1830.88
557.32	1847.27
557.51	1834.98
557.71	1775.59
557.90	1802.21
558.10	1814.50
558.30	1791.97
558.49	1710.05
558.69	1746.92
558.88	1771.49
559.08	1703.91
559.28	1753.06
559.47	1812.45
559.67	1726.44
559.86	1812.45
560.06	1738.73
560.26	1722.34
560.45	1769.44
560.65	1665.00
560.84	1830.88
561.04	1767.40
561.24	1785.83
561.43	1685.48
561.63	1796.07
561.82	1765.35
562.02	1796.07
562.22	1703.91
562.41	1736.68
562.61	1712.10
562.80	1660.90
563.00	1916.90
563.19	1757.16
563.39	1787.88
563.59	1712.10
563.78	1689.57
563.98	1660.90
564.17	1710.05
564.37	1591.27
564.56	1712.10
564.76	1667.05
564.96	1828.84
565.15	1718.25
565.35	1861.60
565.54	1730.53
565.74	1773.54
565.93	1738.73
566.13	1697.77
566.32	1728.49
566.52	1738.73
566.71	1755.11
566.91	1773.54
567.11	1708.01
567.30	1775.59
567.50	1761.25
567.69	1777.64
567.89	1816.55
568.08	1708.01
568.28	1708.01
568.47	1689.57
568.67	1771.49
568.86	1726.44
569.06	1728.49
569.25	1730.53
569.45	1708.01
569.64	1708.01
569.84	1722.34
570.04	1732.58
570.23	1720.29
570.43	1669.09
570.62	1789.92
570.82	1877.99
571.01	1755.11
571.21	1650.66
571.40	1665.00
571.60	1748.97
571.79	1757.16
571.99	1820.64
572.18	1779.68
572.38	1701.86
572.57	1716.20
572.77	1728.49
572.96	1849.32
573.16	1775.59
573.35	1716.20
573.55	1736.68
573.74	1767.40
573.94	1810.40
574.13	1699.81
574.33	1785.83
574.52	1810.40
574.71	1699.81
574.91	1738.73
575.10	1708.01
575.30	1744.87
575.49	1628.14
575.69	1673.19
575.88	1642.47
576.08	1697.77
576.27	1845.22
576.47	1691.62
576.66	1830.88
576.86	1759.21
577.05	1753.06
577.25	1796.07
577.44	1861.60
577.64	1718.25
577.83	1728.49
578.02	1759.21
578.22	1796.07
578.41	1822.69
578.61	1724.39
578.80	1607.66
579.00	1771.49
579.19	1800.16
579.39	1742.82
579.58	1837.03
579.77	1748.97
579.97	1785.83
580.16	1832.93
580.36	1796.07
580.55	1736.68
580.75	1724.39
580.94	1740.77
581.13	1828.84
581.33	1773.54
581.52	1814.50
581.72	1796.07
581.91	1767.40
582.11	1738.73
582.30	1779.68
582.49	1839.08
582.69	1755.11
582.88	1775.59
583.08	1738.73
583.27	1791.97
583.47	1726.44
583.66	1726.44
583.85	1730.53
584.05	1705.96
584.24	1775.59
584.44	1847.27
584.63	1873.89
584.82	1837.03
585.02	1777.64
585.21	1796.07
585.41	1814.50
585.60	1853.41
585.79	1951.71
585.99	2009.06
586.18	1882.08
586.37	2193.37
586.57	3456.97
586.76	10090.34
586.96	24682.12
587.15	34704.88
587.34	41158.03
587.54	42878.32
587.73	37043.66
587.93	26834.53
588.12	21890.74
588.31	18654.95
588.51	16615.17
588.70	15187.74
588.89	14372.64
589.09	12855.10
589.28	11233.11
589.47	9537.39
589.67	8136.58
589.86	6582.17
590.06	5109.68
590.25	3954.63
590.44	3131.34
590.64	2635.74
590.83	2271.20
591.02	2078.69
591.22	1992.67
591.41	1918.95
591.60	1865.70
591.80	1982.43
591.99	1738.73
592.18	1759.21
592.38	1785.83
592.57	1714.15
592.76	1767.40
592.96	1757.16
593.15	1785.83
593.34	1849.32
593.54	1757.16
593.73	1791.97
593.92	1796.07
594.12	1828.84
594.31	1703.91
594.50	1830.88
594.70	1738.73
594.89	1937.38
595.08	1611.75
595.28	1798.12
595.47	1945.57
595.66	1818.60
595.86	1693.67
596.05	1763.30
596.24	1800.16
596.43	1857.51
596.63	1877.99
596.82	1699.81
597.01	1769.44
597.21	1746.92
597.40	1742.82
597.59	1746.92
597.79	1708.01
597.98	1802.21
598.17	1791.97
598.36	1693.67
598.56	1763.30
598.75	1615.85
598.94	1808.36
599.14	1820.64
599.33	1716.20
599.52	1785.83
599.71	1742.82
599.91	1763.30
600.10	1828.84
600.29	1724.39
600.48	1744.87
600.68	1800.16
600.87	1789.92
601.06	1734.63
601.26	1685.48
601.45	1783.78
601.64	1746.92
601.83	1859.56
602.03	1708.01
602.22	1748.97
602.41	1722.34
602.60	1863.65
602.80	1826.79
602.99	1736.68
603.18	1773.54
603.37	1746.92
603.57	1728.49
603.76	1746.92
603.95	1820.64
604.14	1732.58
604.34	1654.76
604.53	1740.77
604.72	1740.77
604.91	1828.84
605.10	1722.34
605.30	1665.00
605.49	1804.26
605.68	1746.92
605.87	1794.02
606.07	1734.63
606.26	1720.29
606.45	1669.09
606.64	1705.96
606.84	1687.53
607.03	1710.05
607.22	1724.39
607.41	1658.85
607.60	1712.10
607.80	1755.11
607.99	1759.21
608.18	1734.63
608.37	1624.04
608.56	1712.10
608.76	1779.68
608.95	1851.36
609.14	1710.05
609.33	1736.68
609.52	1773.54
609.72	1736.68
609.91	1859.56
610.10	1681.38
610.29	1777.64
610.48	1724.39
610.68	1806.31
610.87	1679.33
611.06	1742.82
611.25	1703.91
611.44	1877.99
611.63	1753.06
611.83	1755.11
612.02	1601.51
612.21	1789.92
612.40	1695.72
612.59	1662.95
612.79	1673.19
612.98	1734.63
613.17	1744.87
613.36	1720.29
613.55	1757.16
613.74	1689.57
613.93	1734.63
614.13	1757.16
614.32	1791.97
614.51	1751.01
614.70	1638.38
614.89	1693.67
615.08	1714.15
615.28	2095.07
615.47	1636.33
615.66	1718.25
615.85	1726.44
616.04	1826.79
616.23	1701.86
616.42	1751.01
616.62	1775.59
616.81	1763.30
617.00	1646.57
617.19	1699.81
617.38	1732.58
617.57	1728.49
617.76	1726.44
617.95	1796.07
618.15	1810.40
618.34	1787.88
618.53	1650.66
618.72	1665.00
618.91	1812.45
619.10	1730.53
619.29	1660.90
619.48	1728.49
619.68	1675.24
619.87	1767.40
620.06	1648.61
620.25	1730.53
620.44	1687.53
620.63	1722.34
620.82	1748.97
621.01	1656.81
621.20	1783.78
621.39	1714.15
621.59	1660.90
621.78	1720.29
621.97	1701.86
622.16	1757.16
622.35	1767.40
622.54	1767.40
622.73	1800.16
622.92	1615.85
623.11	1800.16
623.30	1615.85
623.49	1761.25
623.68	1669.09
623.88	1800.16
624.07	1718.25
624.26	1701.86
624.45	1648.61
624.64	1703.91
624.83	1767.40
625.02	1708.01
625.21	1738.73
625.40	1695.72
625.59	1791.97
625.78	1734.63
625.97	1796.07
626.16	1765.35
626.35	1746.92
626.54	1767.40
626.74	1771.49
626.93	1802.21
627.12	1712.10
627.31	1869.80
627.50	1699.81
627.69	1718.25
627.88	1658.85
628.07	1677.29
628.26	1583.08
628.45	1691.62
628.64	1675.24
628.83	1751.01
629.02	1718.25
629.21	1789.92
629.40	1738.73
629.59	1654.76
629.78	1595.37
629.97	1746.92
630.16	1746.92
630.35	1710.05
630.54	1679.33
630.73	1693.67
630.92	1722.34
631.11	1697.77
631.30	1714.15
631.49	1722.34
631.68	1681.38
631.87	1712.10
632.06	1671.14
632.25	1900.52
632.44	1691.62
632.63	1738.73
632.82	1714.15
633.01	1632.23
633.20	1720.29
633.39	1583.08
633.58	1689.57
633.77	1740.77
633.96	1699.81
634.15	1726.44
634.34	1720.29
634.53	1640.42
634.72	1708.01
634.91	1611.75
635.10	1738.73
635.29	1746.92
635.48	1783.78
635.67	1753.06
635.86	1617.90
636.05	1775.59
636.24	1660.90
636.43	1724.39
636.62	1722.34
636.81	1595.37
637.00	1785.83
637.19	1769.44
637.38	1736.68
637.57	1656.81
637.76	1710.05
637.95	1751.01
638.14	1740.77
638.33	1613.80
638.52	1685.48
638.71	1697.77
638.89	1595.37
639.08	1802.21
639.27	1736.68
639.46	1730.53
639.65	1720.29
639.84	1708.01
640.03	1685.48
640.22	1673.19
640.41	1783.78
640.60	1671.14
640.79	1740.77
640.98	1753.06
641.17	1728.49
641.36	1722.34
641.55	1642.47
641.74	1603.56
641.92	1710.05
642.11	1652.71
642.30	1628.14
642.49	1730.53
642.68	1644.52
642.87	1671.14
643.06	1703.91
643.25	1771.49
643.44	1734.63
643.63	1685.48
643.82	1716.20
644.00	1613.80
644.19	1742.82
644.38	1701.86
644.57	1751.01
644.76	1763.30
644.95	1677.29
645.14	1630.18
645.33	1656.81
645.52	1767.40
645.71	1652.71
645.89	1746.92
646.08	1740.77
646.27	1716.20
646.46	1765.35
646.65	1660.90
646.84	1693.67
647.03	1669.09
647.22	1746.92
647.40	1726.44
647.59	1671.14
647.78	1640.42
647.97	1646.57
648.16	1732.58
648.35	1771.49
648.54	1800.16
648.73	1671.14
648.91	1714.15
649.10	1697.77
649.29	1636.33
649.48	1724.39
649.67	1691.62
649.86	1718.25
650.05	1634.28
650.23	1763.30
650.42	1603.56
650.61	1699.81
650.80	1800.16
650.99	1880.04
651.18	1728.49
651.36	1820.64
651.55	1695.72
651.74	1775.59
651.93	1667.05
652.12	1712.10
652.31	1724.39
652.49	1656.81
652.68	1710.05
652.87	1738.73
653.06	1761.25
653.25	1824.74
653.44	1728.49
653.62	1781.73
653.81	1738.73
654.00	1699.81
654.19	1748.97
654.38	1853.41
654.56	1751.01
654.75	1697.77
654.94	1777.64
655.13	1732.58
655.32	1714.15
655.51	1718.25
655.69	1726.44
655.88	1841.12
656.07	1697.77
656.26	1732.58
656.45	1691.62
656.63	1720.29
656.82	1744.87
657.01	1765.35
657.20	1779.68
657.38	1861.60
657.57	1687.53
657.76	1689.57
657.95	1695.72
658.14	1724.39
658.32	1763.30
658.51	1658.85
658.70	1693.67
658.89	1642.47
659.08	1632.23
659.26	1744.87
659.45	1673.19
659.64	1783.78
659.83	1626.09
660.01	1943.52
660.20	1736.68
660.39	1796.07
660.58	1607.66
660.76	1705.96
660.95	1681.38
661.14	1701.86
661.33	1710.05
661.51	1691.62
661.70	1708.01
661.89	1683.43
662.08	1771.49
662.26	1679.33
662.45	1693.67
662.64	1837.03
662.83	1642.47
663.01	1677.29
663.20	1675.24
663.39	1845.22
663.58	1609.70
663.76	1771.49
663.95	1687.53
664.14	1642.47
664.32	1660.90
664.51	1675.24
664.70	1675.24
664.89	1705.96
665.07	1619.94
665.26	1800.16
665.45	1669.09
665.64	1806.31
665.82	1712.10
666.01	1757.16
666.20	1705.96
666.38	1810.40
666.57	1853.41
666.76	2224.09
666.95	4548.54
667.13	10536.80
667.32	15327.00
667.51	18157.29
667.69	19336.92
667.88	17942.25
668.07	12521.28
668.25	9508.72
668.44	8224.64
668.63	7294.86
668.81	6901.65
669.00	6342.56
669.19	5805.99
669.38	5156.79
669.56	4671.42
669.75	3999.68
669.94	3493.83
670.12	2844.63
670.31	2582.49
670.50	2226.14
670.68	2039.78
670.87	1933.28
671.06	1771.49
671.24	1765.35
671.43	1812.45
671.62	1845.22
671.80	1751.01
671.99	1751.01
672.18	1632.23
672.36	1796.07
672.55	1775.59
672.74	1828.84
672.92	1693.67
673.11	1697.77
673.29	1681.38
673.48	1820.64
673.67	1677.29
673.85	1759.21
674.04	1683.43
674.23	1722.34
674.41	1806.31
674.60	1650.66
674.79	1603.56
674.97	1656.81
675.16	1681.38
675.34	1761.25
675.53	1611.75
675.72	1757.16
675.90	1820.64
676.09	1675.24
676.28	1722.34
676.46	1632.23
676.65	1740.77
676.83	1703.91
677.02	1730.53
677.21	1748.97
677.39	1718.25
677.58	1630.18
677.77	1642.47
677.95	1683.43
678.14	1720.29
678.32	1734.63
678.51	1685.48
678.70	1806.31
678.88	1654.76
679.07	1724.39
679.25	1703.91
679.44	1730.53
679.63	1619.94
679.81	1638.38
680.00	1783.78
680.18	1746.92
680.37	1734.63
680.55	1712.10
680.74	1650.66
680.93	1609.70
681.11	1726.44
681.30	1662.95
681.48	1738.73
681.67	1705.96
681.85	1665.00
682.04	1726.44
682.23	1722.34
682.41	1722.34
682.60	1701.86
682.78	1662.95
682.97	1669.09
683.15	1791.97
683.34	1738.73
683.53	1791.97
683.71	1599.46
683.90	1800.16
684.08	1791.97
684.27	1656.81
684.45	1632.23
684.64	1832.93
684.82	1712.10
685.01	1712.10
685.19	1646.57
685.38	1771.49
685.57	1652.71
685.75	1730.53
685.94	1714.15
686.12	1712.10
686.31	1785.83
686.49	1845.22
686.68	1669.09
686.86	1763.30
687.05	1703.91
687.23	1767.40
687.42	1708.01
687.60	1632.23
687.79	1755.11
687.97	1742.82
688.16	1808.36
688.34	1722.34
688.53	1619.94
688.71	1705.96
688.90	1830.88
689.08	1714.15
689.27	1734.63
689.45	1689.57
689.64	1699.81
689.82	1742.82
690.01	1777.64
690.19	1654.76
690.38	1757.16
690.56	1755.11
690.75	1638.38
690.93	1667.05
691.12	1685.48
691.30	1730.53
691.49	1638.38
691.67	1730.53
691.86	1812.45
692.04	1691.62
692.23	1691.62
692.41	1703.91
692.60	1804.26
692.78	1757.16
692.97	1740.77
693.15	1718.25
693.34	1843.17
693.52	1806.31
693.71	1724.39
693.89	1683.43
694.08	1677.29
694.26	1701.86
694.44	1689.57
694.63	1683.43
694.81	1662.95
695.00	1683.43
695.18	1781.73
695.37	1808.36
695.55	1718.25
695.74	1693.67
695.92	1617.90
696.10	1740.77
696.29	1619.94
696.47	1703.91
696.66	1613.80
696.84	1648.61
697.03	1701.86
697.21	1783.78
697.40	2246.62
697.58	1765.35
697.76	1599.46
697.95	1669.09
698.13	1687.53
698.32	1634.28
698.50	1738.73
698.68	1757.16
698.87	1753.06
699.05	1861.60
699.24	1708.01
699.42	1728.49
699.61	1607.66
699.79	1673.19
699.97	1714.15
700.16	1638.38
700.34	1636.33
700.53	1781.73
700.71	1769.44
700.89	1724.39
701.08	1677.29
701.26	1701.86
701.45	2142.18
701.63	1660.90
701.81	1589.22
702.00	1621.99
702.18	1687.53
702.37	1738.73
702.55	1783.78
702.73	1724.39
702.92	1656.81
703.10	1738.73
703.28	1710.05
703.47	1701.86
703.65	1800.16
703.84	1730.53
704.02	1695.72
704.20	1759.21
704.39	1656.81
704.57	1640.42
704.75	1777.64
704.94	1738.73
705.12	1669.09
705.30	1755.11
705.49	2281.44
705.67	4392.89
705.86	9416.56
706.04	12744.51
706.22	14544.67
706.41	15703.82
706.59	13819.69
706.77	9779.05
706.96	7415.69
707.14	6731.67
707.32	6104.99
707.51	5388.21
707.69	4943.80
707.87	4368.32
708.06	3530.70
708.24	3024.85
708.42	2467.80
708.61	2314.20
708.79	1853.41
708.97	1843.17
709.16	1877.99
709.34	1755.11
709.52	1685.48
709.71	1755.11
709.89	1728.49
710.07	1652.71
710.26	1722.34
710.44	1779.68
710.62	1751.01
710.80	1609.70
710.99	1710.05
711.17	1794.02
711.35	1720.29
711.54	1636.33
711.72	1767.40
711.90	1730.53
712.09	1720.29
712.27	1667.05
712.45	1767.40
712.63	1740.77
712.82	1720.29
713.00	1697.77
713.18	1712.10
713.37	1732.58
713.55	1763.30
713.73	1744.87
713.91	1769.44
714.10	1748.97
714.28	1742.82
714.46	1705.96
714.65	1765.35
714.83	1693.67
715.01	1699.81
715.19	1671.14
715.38	1703.91
715.56	1746.92
715.74	1677.29
715.92	1660.90
716.11	1859.56
716.29	1669.09
716.47	1611.75
716.65	1716.20
716.84	1621.99
717.02	1785.83
717.20	1634.28
717.38	1699.81
717.57	1710.05
717.75	1675.24
717.93	1654.76
718.11	1681.38
718.30	1662.95
718.48	1712.10
718.66	1738.73
718.84	1732.58
719.03	1822.69
719.21	1640.42
719.39	1849.32
719.57	1714.15
719.75	1812.45
719.94	1677.29
720.12	1654.76
720.30	1693.67
720.48	1738.73
720.67	1648.61
720.85	1652.71
721.03	1687.53
721.21	1601.51
721.39	1755.11
721.58	1669.09
721.76	1738.73
721.94	1714.15
722.12	1820.64
722.30	1820.64
722.49	1689.57
722.67	1718.25
722.85	1714.15
723.03	1640.42
723.21	1634.28
723.40	1736.68
723.58	1789.92
723.76	1738.73
723.94	1773.54
724.12	1673.19
724.30	1767.40
724.49	1759.21
724.67	1708.01
724.85	1779.68
725.03	1601.51
725.21	1763.30
725.40	1763.30
725.58	1628.14
725.76	1763.30
725.94	1693.67
726.12	1671.14
726.30	1714.15
726.49	1718.25
726.67	1640.42
726.85	1724.39
727.03	1736.68
727.21	2131.94
727.39	2914.26
727.57	3825.61
727.76	4167.62
727.94	4407.23
728.12	4440.00
728.30	3860.42
728.48	2996.18
728.66	2787.29
728.84	2516.95
729.03	2293.72
729.21	2185.18
729.39	1968.10
729.57	1781.73
729.75	1744.87
729.93	1800.16
730.11	1665.00
730.30	1742.82
730.48	1646.57
730.66	1693.67
730.84	1677.29
731.02	1820.64
731.20	1697.77
731.38	1701.86
731.56	1550.31
731.74	1615.85
731.93	1679.33
732.11	1632.23
732.29	1761.25
732.47	1697.77
732.65	1710.05
732.83	1722.34
733.01	1677.29
733.19	1677.29
733.37	1669.09
733.56	1732.58
733.74	1638.38
733.92	1834.98
734.10	1671.14
734.28	1757.16
734.46	1521.64
734.64	1724.39
734.82	1650.66
735.00	1636.33
735.18	1662.95
735.36	1726.44
735.54	1708.01
735.73	1744.87
735.91	1728.49
736.09	1748.97
736.27	1720.29
736.45	1679.33
736.63	1654.76
736.81	1621.99
736.99	1757.16
737.17	1703.91
737.35	1689.57
737.53	1736.68
737.71	1689.57
737.89	1767.40
738.07	1718.25
738.25	1591.27
738.43	1685.48
738.61	1677.29
738.80	1626.09
738.98	1652.71
739.16	1718.25
739.34	1791.97
739.52	1751.01
739.70	1636.33
739.88	1849.32
740.06	1738.73
740.24	1669.09
740.42	1787.88
740.60	1552.36
740.78	1638.38
740.96	1591.27
741.14	1595.37
741.32	1695.72
741.50	1687.53
741.68	1789.92
741.86	1789.92
742.04	1718.25
742.22	1697.77
742.40	1728.49
742.58	1734.63
742.76	1720.29
742.94	1775.59
743.12	1558.50
743.30	1722.34
743.48	1742.82
743.66	1617.90
743.84	1660.90
744.02	1710.05
744.20	1726.44
744.38	1638.38
744.56	1681.38
744.74	1861.60
744.92	1714.15
745.10	1841.12
745.28	1693.67
745.46	1783.78
745.64	1665.00
745.82	1722.34
746.00	1656.81
746.18	1683.43
746.36	1744.87
746.54	1746.92
746.72	1720.29
746.90	1691.62
747.08	1751.01
747.26	1667.05
747.44	1742.82
747.62	1734.63
747.80	1726.44
747.98	1767.40
748.15	1644.52
748.33	1798.12
748.51	1703.91
748.69	1705.96
748.87	1617.90
749.05	1662.95
749.23	1656.81
749.41	1787.88
749.59	1685.48
749.77	1781.73
749.95	1632.23
750.13	1689.57
750.31	1740.77
750.49	1675.24
750.67	1697.77
750.85	1755.11
751.03	1628.14
751.20	1804.26
751.38	1619.94
751.56	1679.33
751.74	1640.42
751.92	1689.57
752.10	1581.03
752.28	1767.40
752.46	1683.43
752.64	1681.38
752.82	1677.29
753.00	1777.64
753.18	1667.05
753.35	1638.38
753.53	1660.90
753.71	1648.61
753.89	1722.34
754.07	1701.86
754.25	1714.15
754.43	1720.29
754.61	1617.90
754.79	1693.67
754.97	1708.01
755.14	1753.06
755.32	1677.29
755.50	1730.53
755.68	1755.11
755.86	1669.09
756.04	1654.76
756.22	1611.75
756.40	1755.11
756.57	1806.31
756.75	1689.57
756.93	1742.82
757.11	1714.15
757.29	1656.81
757.47	1673.19
757.65	1540.07
757.82	1554.41
758.00	1583.08
758.18	1630.18
758.36	1673.19
758.54	1841.12
758.72	1624.04
758.90	1732.58
759.07	1767.40
759.25	1703.91
759.43	1708.01
759.61	1583.08
759.79	2207.71
759.97	1751.01
760.15	1734.63
760.32	1689.57
760.50	1718.25
760.68	1742.82
760.86	1632.23
761.04	1734.63
761.22	1691.62
761.39	1716.20
761.57	1753.06
761.75	1667.05
761.93	1744.87
762.11	1599.46
762.28	1669.09
762.46	1720.29
762.64	1740.77
762.82	1677.29
763.00	1714.15
763.18	1708.01
763.35	1679.33
763.53	1716.20
763.71	1732.58
763.89	1607.66
764.07	1621.99
764.24	1652.71
764.42	1787.88
764.60	1632.23
764.78	1726.44
764.96	1742.82
765.13	1738.73
765.31	1667.05
765.49	1734.63
765.67	1601.51
765.84	1595.37
766.02	1681.38
766.20	1566.70
766.38	1740.77
766.56	1607.66
766.73	1759.21
766.91	1720.29
767.09	1701.86
767.27	1746.92
767.44	1578.98
767.62	1699.81
767.80	1671.14
767.98	1716.20
768.15	1669.09
768.33	1742.82
768.51	1722.34
768.69	1746.92
768.87	1722.34
769.04	1685.48
769.22	1853.41
769.40	1830.88
769.58	1849.32
769.75	1742.82
769.93	1791.97
770.11	1665.00
770.28	1722.34
770.46	1693.67
770.64	1699.81
770.82	1744.87
770.99	1665.00
771.17	1685.48
771.35	1685.48
771.53	1732.58
771.70	1671.14
771.88	1693.67
772.06	1675.24
772.23	1662.95
772.41	1691.62
772.59	1720.29
772.77	1619.94
772.94	1746.92
773.12	1695.72
773.30	1662.95
773.47	1757.16
773.65	1652.71
773.83	1751.01
774.01	1710.05
774.18	1568.74
774.36	1615.85
774.54	1581.03
774.71	1695.72
774.89	1689.57
775.07	1660.90
775.24	1667.05
775.42	1716.20
775.60	1859.56
775.78	1660.90
775.95	1650.66
776.13	1679.33
776.31	1568.74
776.48	1689.57
776.66	1757.16
776.84	1609.70
777.01	1673.19
777.19	1603.56
777.37	1675.24
777.54	1759.21
777.72	1802.21
777.90	1767.40
778.07	1613.80
778.25	1877.99
778.43	1761.25
778.60	1734.63
778.78	1728.49
778.96	1755.11
779.13	1658.85
779.31	1701.86
779.49	1697.77
779.66	1720.29
779.84	1732.58
780.01	1656.81
780.19	1587.18
780.37	1736.68
780.54	1736.68
780.72	1648.61
780.90	1665.00
781.07	1726.44
781.25	1593.32
781.43	1705.96
781.60	1656.81
781.78	1738.73
781.95	1714.15
782.13	1640.42
782.31	1722.34
782.48	1562.60
782.66	1712.10
782.83	1755.11
783.01	1810.40
783.19	1705.96
783.36	1742.82
783.54	1650.66
783.72	1701.86
783.89	1665.00
784.07	1632.23
784.24	1744.87
784.42	1765.35
784.60	1689.57
784.77	1683.43
784.95	1669.09
785.12	1642.47
785.30	1628.14
785.47	1615.85
785.65	1568.74
785.83	1669.09
786.00	1624.04
786.18	1665.00
786.35	1636.33
786.53	1617.90
786.71	1771.49
786.88	1636.33
787.06	1710.05
787.23	1554.41
787.41	1585.13
787.58	1669.09
787.76	1679.33
787.94	1716.20
788.11	1679.33
788.29	1597.42
788.46	1597.42
788.64	1705.96
788.81	1677.29
788.99	1658.85
789.16	1648.61
789.34	1757.16
789.52	1724.39
789.69	1693.67
789.87	1576.94
790.04	1708.01
790.22	1726.44
790.39	1759.21
790.57	1669.09
790.74	1675.24
790.92	1742.82
791.09	1583.08
791.27	1724.39
791.44	1716.20
791.62	1632.23
791.79	1763.30
791.97	1673.19
792.15	1839.08
792.32	1738.73
792.50	1712.10
792.67	1871.84
792.85	1710.05
793.02	1720.29
793.20	1675.24
793.37	1583.08
793.55	1695.72
793.72	1578.98
793.90	1767.40
794.07	1644.52
794.25	1642.47
794.42	1796.07
794.60	1673.19
794.77	1703.91
794.95	1748.97
795.12	1740.77
795.30	1636.33
795.47	1591.27
795.65	1882.08
795.82	1742.82
796.00	1712.10
796.17	1724.39
796.34	1632.23
796.52	1744.87
796.69	1699.81
796.87	1703.91
797.04	1628.14
797.22	1732.58
797.39	1724.39
797.57	1642.47
797.74	1605.61
797.92	1669.09
798.09	1687.53
798.27	1720.29
798.44	1724.39
798.62	1607.66
798.79	1705.96
798.96	1703.91
799.14	1683.43
799.31	1812.45
799.49	1675.24
799.66	1658.85
799.84	1738.73
800.01	1574.89
800.19	1687.53
800.36	1652.71
800.53	1779.68
800.71	1712.10
800.88	1755.11
801.06	1607.66
801.23	1726.44
801.41	1779.68
801.58	1593.32
801.75	1695.72
801.93	1675.24
802.10	1699.81
802.28	1667.05
802.45	1695.72
802.63	1699.81
802.80	1789.92
802.97	1716.20
803.15	1705.96
803.32	1681.38
803.50	1634.28
803.67	1660.90
803.84	1665.00
804.02	1660.90
804.19	1683.43
804.37	1593.32
804.54	1609.70
804.71	1658.85
804.89	1667.05
805.06	1658.85
805.24	1662.95
805.41	1624.04
805.58	1675.24
805.76	1720.29
805.93	1624.04
806.10	1796.07
806.28	1751.01
806.45	1748.97
806.63	1710.05
806.80	1701.86
806.97	1746.92
807.15	1673.19
807.32	1730.53
807.49	1673.19
807.67	1650.66
807.84	1783.78
808.01	1679.33
808.19	1828.84
808.36	1824.74
808.54	1669.09
808.71	1624.04
808.88	1771.49
809.06	1722.34
809.23	1705.96
809.40	1652.71
809.58	1800.16
809.75	1685.48
809.92	1691.62
810.10	1888.23
810.27	1712.10
810.44	1654.76
810.62	1755.11
810.79	1775.59
810.96	1714.15
811.14	1636.33
811.31	1763.30
811.48	1650.66
811.66	1759.21
811.83	1779.68
812.00	1714.15
812.18	1761.25
812.35	1804.26
812.52	1685.48
812.69	1621.99
812.87	1734.63
813.04	1626.09
813.21	1632.23
813.39	1621.99
813.56	1677.29
813.73	1691.62
813.91	1648.61
814.08	1769.44
814.25	1675.24
814.42	1644.52
814.60	1665.00
814.77	1712.10
814.94	1740.77
815.12	1748.97
815.29	1769.44
815.46	1714.15
815.63	1720.29
815.81	1691.62
815.98	1669.09
816.15	1656.81
816.33	1728.49
816.50	1695.72
816.67	1763.30
816.84	1619.94
817.02	1544.17
817.19	1800.16
817.36	1728.49
817.53	1714.15
817.71	1621.99
817.88	1771.49
818.05	1687.53
818.22	1697.77
818.40	1843.17
818.57	1687.53
818.74	1691.62
818.91	1691.62
819.09	1734.63
819.26	1662.95
819.43	1636.33
819.60	1746.92
819.78	1779.68
819.95	1710.05
820.12	1591.27
820.29	1773.54
820.47	1810.40
820.64	1667.05
820.81	1658.85
820.98	1638.38
821.15	1681.38
821.33	1802.21
821.50	1634.28
821.67	1763.30
821.84	1714.15
822.02	1677.29
822.19	1710.05
822.36	1683.43
822.53	1681.38
822.70	1617.90
822.88	1697.77
823.05	1781.73
823.22	1660.90
823.39	1691.62
823.56	1697.77
823.74	1722.34
823.91	1701.86
824.08	1693.67
824.25	1697.77
824.42	1785.83
824.60	1640.42
824.77	1691.62
824.94	1669.09
825.11	1701.86
825.28	1648.61
825.45	1763.30
825.63	1621.99
825.80	1685.48
825.97	1644.52
826.14	1796.07
826.31	1634.28
826.48	1736.68
826.66	1662.95
826.83	1708.01
827.00	1777.64
827.17	1652.71
827.34	1683.43
827.51	1646.57
827.69	1742.82
827.86	1615.85
828.03	1675.24
828.20	1632.23
828.37	1654.76
828.54	1763.30
828.71	1671.14
828.89	1806.31
829.06	1738.73
829.23	1789.92
829.40	1665.00
829.57	1718.25
829.74	1732.58
829.91	1656.81
830.09	1652.71
830.26	1710.05
830.43	1818.60
830.60	1660.90
830.77	1779.68
830.94	1798.12
831.11	1718.25
831.28	1669.09
831.46	1738.73
831.63	1609.70
831.80	1718.25
831.97	1703.91
832.14	1654.76
832.31	1742.82
832.48	1693.67
832.65	1675.24
832.82	1650.66
832.99	1751.01
833.17	1609.70
833.34	1779.68
833.51	1689.57
833.68	1640.42
833.85	1732.58
834.02	1626.09
834.19	1658.85
834.36	1576.94
834.53	1736.68
834.70	1779.68
834.87	1757.16
835.04	1710.05
835.22	1656.81
835.39	1632.23
835.56	1581.03
835.73	1675.24
835.90	1730.53
836.07	1660.90
836.24	1708.01
836.41	1626.09
836.58	1619.94
836.75	1724.39
836.92	1722.34
837.09	1697.77
837.26	1744.87
837.43	1705.96
837.60	1722.34
837.77	1658.85
837.94	1687.53
838.12	1794.02
838.29	1607.66
838.46	1650.66
838.63	1624.04
838.80	1767.40
838.97	1763.30
839.14	1775.59
839.31	1621.99
839.48	1714.15
839.65	1683.43
839.82	1734.63
839.99	1640.42
840.16	1689.57
840.33	1689.57
840.50	1689.57
840.67	1681.38
840.84	1611.75
841.01	1685.48
841.18	1640.42
841.35	1621.99
841.52	1779.68
841.69	1794.02
841.86	1703.91
842.03	1646.57
842.20	1718.25
842.37	1699.81
842.54	1656.81
842.71	1695.72
842.88	1599.46
843.05	1763.30
843.22	1722.34
843.39	1683.43
843.56	1656.81
843.73	1759.21
843.90	1728.49
844.07	1720.29
844.24	1695.72
844.41	1705.96
844.58	1763.30
844.75	1689.57
844.92	1683.43
845.09	1654.76
845.26	1640.42
845.43	1695.72
845.60	1716.20
845.77	1730.53
845.94	1714.15
846.10	1773.54
846.27	1675.24
846.44	1646.57
846.61	1656.81
846.78	1736.68
846.95	1722.34
847.12	1724.39
847.29	1701.86
847.46	1669.09
847.63	1744.87
847.80	1636.33
847.97	1701.86
848.14	1828.84
848.31	1697.77
848.48	1583.08
848.65	1724.39
848.82	1646.57
848.98	1814.50
849.15	1791.97
849.32	1753.06
849.49	1701.86
849.66	1746.92
849.83	1693.67
850.00	1652.71
850.17	1703.91
850.34	1740.77
850.51	1638.38
850.68	1626.09
850.85	1746.92
851.01	1675.24
851.18	1658.85
851.35	1757.16
851.52	1708.01
851.69	1783.78
851.86	1552.36
852.03	1695.72
852.20	1722.34
852.37	1652.71
852.53	1621.99
852.70	1644.52
852.87	1691.62
853.04	1839.08
853.21	1714.15
853.38	1744.87
853.55	1759.21
853.72	1779.68
853.89	1671.14
854.05	1630.18
854.22	1683.43
854.39	1751.01
854.56	1703.91
854.73	1689.57
854.90	1617.90
855.07	1605.61
855.23	1669.09
855.40	1617.90
855.57	1654.76
855.74	1574.89
855.91	1822.69
856.08	1648.61
856.25	1648.61
856.41	1652.71
856.58	1630.18
856.75	1722.34
856.92	1638.38
857.09	1738.73
857.26	1583.08
857.42	1710.05
857.59	1736.68
857.76	1636.33
857.93	1675.24
858.10	1761.25
858.27	1673.19
858.43	1718.25
858.60	1693.67
858.77	1564.65
858.94	1689.57
859.11	1701.86
859.27	1665.00
859.44	1705.96
859.61	1808.36
859.78	1718.25
859.95	1634.28
860.12	1626.09
860.28	1767.40
860.45	1724.39
860.62	1712.10
860.79	1703.91
860.95	1644.52
861.12	1626.09
861.29	1658.85
861.46	1726.44
861.63	1679.33
861.79	1681.38
861.96	1683.43
862.13	1648.61
862.30	1777.64
862.47	1693.67
862.63	1587.18
862.80	1781.73
862.97	1763.30
863.14	1708.01
863.30	1777.64
863.47	1603.56
863.64	1779.68
863.81	1722.34
863.97	1648.61
864.14	1681.38
864.31	1722.34
864.48	1660.90
864.65	1705.96
864.81	1753.06
864.98	1738.73
865.15	1781.73
865.32	1771.49
865.48	1714.15
865.65	1781.73
865.82	1601.51
865.98	1785.83
866.15	1736.68
866.32	1781.73
866.49	1675.24
866.65	1785.83
866.82	1658.85
866.99	1671.14
867.16	1642.47
867.32	1748.97
867.49	1642.47
867.66	1652.71
867.83	1667.05
867.99	1607.66
868.16	1609.70
868.33	1609.70
868.49	1732.58
868.66	1675.24
868.83	1751.01
868.99	1714.15
869.16	1708.01
869.33	1699.81
869.50	1769.44
869.66	1765.35
869.83	1751.01
870.00	1654.76
870.16	1804.26
870.33	1621.99
870.50	1748.97
870.66	1693.67
870.83	1818.60
871.00	1665.00
871.17	1714.15
871.33	1671.14
871.50	1652.71
871.67	1763.30
871.83	1574.89
872.00	1826.79
872.17	1697.77
872.33	1800.16
872.50	1775.59
872.67	1757.16
872.83	1759.21
873.00	1665.00
873.17	1716.20
873.33	1722.34
873.50	1669.09
873.67	1712.10
873.83	1648.61
874.00	1611.75
874.16	1781.73
874.33	1738.73
874.50	1669.09
874.66	1597.42
874.83	1722.34
875.00	1757.16
875.16	1753.06
875.33	1753.06
875.50	1615.85
875.66	1607.66
875.83	1679.33
875.99	1746.92
876.16	1689.57
876.33	1607.66
876.49	1714.15
876.66	1679.33
876.83	1687.53
876.99	1619.94
877.16	1740.77
877.32	1683.43
877.49	1691.62
877.66	1601.51
877.82	1806.31
877.99	1693.67
878.15	1755.11
878.32	1640.42
878.49	1685.48
878.65	1662.95
878.82	1689.57
878.98	1667.05
879.15	1646.57
879.32	1771.49
879.48	1656.81
879.65	1712.10
879.81	1724.39
879.98	1619.94
880.15	1726.44
880.31	1736.68
880.48	1542.12
880.64	1751.01
880.81	1718.25
880.97	1781.73
881.14	1683.43
881.31	1621.99
881.47	1859.56
881.64	1603.56
881.80	1574.89
881.97	1746.92
882.13	1720.29
882.30	1644.52
882.47	1615.85
882.63	1646.57
882.80	1685.48
882.96	1685.48
883.13	1685.48
883.29	1671.14
883.46	1683.43
883.62	1787.88
883.79	1722.34
883.95	1730.53
884.12	1718.25
884.29	1781.73
884.45	1705.96
884.62	1736.68
884.78	1636.33
884.95	1796.07
885.11	1665.00
885.28	1771.49
885.44	1683.43
885.61	1720.29
885.77	1753.06
885.94	1732.58
886.10	1732.58
886.27	1695.72
886.43	1755.11
886.60	1751.01
886.76	1626.09
886.93	1681.38
887.09	1724.39
887.26	1624.04
887.42	1697.77
887.59	1818.60
887.75	1765.35
887.92	1742.82
888.08	1746.92
888.25	1765.35
888.41	1779.68
888.58	1746.92
888.74	1525.74
888.91	1701.86
>>>>>End Processed Spectral Data<<<<<
