SpectraSuite Data File
++++++++++++++++++++++++++++++++++++
Date: Mon Jun 06 13:23:57 CEST 2016
User: root
Dark Spectrum Present: No
Reference Spectrum Present: No
Number of Sampled Component Spectra: 1
Spectrometers: USB4C02835
Integration Time (usec): 100000 (USB4C02835)
Spectra Averaged: 1 (USB4C02835)
Boxcar Smoothing: 0 (USB4C02835)
Correct for Electrical Dark: No (USB4C02835)
Strobe/Lamp Enabled: No (USB4C02835)
Correct for Detector Non-linearity: No (USB4C02835)
Correct for Stray Light: No (USB4C02835)
Number of Pixels in Processed Spectrum: 3648
>>>>>Begin Processed Spectral Data<<<<<
177.47	1406.95
177.69	1406.95
177.91	1406.95
178.13	1443.82
178.36	1380.33
178.58	1642.47
178.80	1775.59
179.02	1710.05
179.24	1640.42
179.46	1751.01
179.68	1781.73
179.90	1720.29
180.13	1722.34
180.35	1621.99
180.57	1656.81
180.79	1681.38
181.01	1783.78
181.23	1789.92
181.45	1708.01
181.67	1761.25
181.90	1699.81
182.12	1679.33
182.34	1705.96
182.56	1720.29
182.78	1732.58
183.00	1654.76
183.22	1658.85
183.44	1556.46
183.66	1798.12
183.89	1759.21
184.11	1724.39
184.33	1753.06
184.55	1738.73
184.77	1742.82
184.99	1691.62
185.21	1677.29
185.43	1828.84
185.65	1640.42
185.87	1675.24
186.10	1814.50
186.32	1894.37
186.54	1734.63
186.76	1671.14
186.98	1705.96
187.20	1636.33
187.42	1720.29
187.64	1570.79
187.86	1728.49
188.08	1708.01
188.30	1619.94
188.52	1718.25
188.75	1705.96
188.97	1783.78
189.19	1658.85
189.41	1660.90
189.63	1669.09
189.85	1654.76
190.07	1695.72
190.29	1660.90
190.51	1697.77
190.73	1615.85
190.95	1759.21
191.17	1791.97
191.39	1542.12
191.61	1740.77
191.84	1660.90
192.06	1738.73
192.28	1607.66
192.50	1875.94
192.72	1730.53
192.94	1783.78
193.16	1748.97
193.38	1712.10
193.60	1630.18
193.82	1718.25
194.04	1794.02
194.26	1632.23
194.48	1683.43
194.70	1675.24
194.92	1642.47
195.14	1796.07
195.36	1597.42
195.58	1791.97
195.80	1695.72
196.02	1685.48
196.24	1675.24
196.46	1777.64
196.69	1607.66
196.91	1734.63
197.13	1650.66
197.35	1679.33
197.57	1794.02
197.79	1708.01
198.01	1689.57
198.23	1738.73
198.45	1720.29
198.67	1648.61
198.89	1667.05
199.11	1675.24
199.33	1640.42
199.55	1540.07
199.77	1771.49
199.99	1755.11
200.21	1685.48
200.43	1660.90
200.65	1642.47
200.87	1564.65
201.09	1736.68
201.31	1744.87
201.53	1763.30
201.75	1710.05
201.97	1720.29
202.19	1732.58
202.41	1665.00
202.63	1808.36
202.85	1748.97
203.07	1722.34
203.29	1593.32
203.51	1652.71
203.73	1660.90
203.95	1892.32
204.17	1740.77
204.39	1710.05
204.61	1691.62
204.83	1724.39
205.05	1716.20
205.27	1689.57
205.49	1800.16
205.71	1708.01
205.93	1632.23
206.15	1714.15
206.37	1728.49
206.59	1679.33
206.81	1714.15
207.03	1687.53
207.25	1624.04
207.47	1675.24
207.69	1740.77
207.91	1771.49
208.13	1808.36
208.34	1656.81
208.56	1740.77
208.78	1628.14
209.00	1699.81
209.22	1658.85
209.44	1691.62
209.66	1613.80
209.88	1632.23
210.10	1642.47
210.32	1658.85
210.54	1822.69
210.76	1644.52
210.98	1675.24
211.20	1550.31
211.42	1781.73
211.64	1787.88
211.86	1755.11
212.08	1726.44
212.30	1646.57
212.52	1697.77
212.74	1804.26
212.96	1767.40
213.17	1689.57
213.39	1748.97
213.61	1746.92
213.83	1755.11
214.05	1611.75
214.27	1701.86
214.49	1689.57
214.71	1669.09
214.93	1726.44
215.15	1722.34
215.37	1791.97
215.59	1642.47
215.81	1703.91
216.03	1791.97
216.24	1708.01
216.46	1722.34
216.68	1644.52
216.90	1712.10
217.12	1789.92
217.34	1763.30
217.56	1708.01
217.78	1810.40
218.00	1705.96
218.22	1742.82
218.44	1667.05
218.66	1718.25
218.87	1685.48
219.09	1695.72
219.31	1761.25
219.53	1732.58
219.75	1701.86
219.97	1779.68
220.19	1687.53
220.41	1701.86
220.63	1734.63
220.85	1730.53
221.06	1693.67
221.28	1773.54
221.50	1673.19
221.72	1753.06
221.94	1687.53
222.16	1652.71
222.38	1738.73
222.60	1708.01
222.82	1742.82
223.03	1779.68
223.25	1642.47
223.47	1714.15
223.69	1830.88
223.91	1734.63
224.13	1689.57
224.35	1693.67
224.57	1632.23
224.78	1701.86
225.00	1605.61
225.22	1646.57
225.44	1689.57
225.66	1716.20
225.88	1650.66
226.10	1781.73
226.32	1685.48
226.53	1728.49
226.75	1607.66
226.97	1644.52
227.19	1656.81
227.41	1681.38
227.63	1558.50
227.85	1628.14
228.06	1691.62
228.28	1669.09
228.50	1708.01
228.72	1662.95
228.94	1732.58
229.16	1578.98
229.37	1621.99
229.59	1630.18
229.81	1724.39
230.03	1634.28
230.25	1650.66
230.47	1650.66
230.69	1648.61
230.90	1783.78
231.12	1605.61
231.34	1673.19
231.56	1742.82
231.78	1644.52
232.00	1714.15
232.21	1673.19
232.43	1650.66
232.65	1564.65
232.87	1679.33
233.09	1621.99
233.30	1677.29
233.52	1740.77
233.74	1685.48
233.96	1716.20
234.18	1740.77
234.40	1714.15
234.61	1724.39
234.83	1652.71
235.05	1648.61
235.27	1775.59
235.49	1830.88
235.70	1673.19
235.92	1677.29
236.14	1734.63
236.36	1822.69
236.58	1619.94
236.79	1732.58
237.01	1697.77
237.23	1679.33
237.45	1837.03
237.67	1626.09
237.88	1724.39
238.10	1779.68
238.32	1669.09
238.54	1718.25
238.76	1746.92
238.97	1591.27
239.19	1648.61
239.41	1746.92
239.63	1718.25
239.85	1710.05
240.06	1732.58
240.28	1726.44
240.50	1738.73
240.72	1697.77
240.93	1691.62
241.15	1751.01
241.37	1599.46
241.59	1742.82
241.81	1642.47
242.02	1714.15
242.24	1722.34
242.46	1802.21
242.68	1611.75
242.89	1671.14
243.11	1753.06
243.33	1734.63
243.55	1660.90
243.76	1773.54
243.98	1697.77
244.20	1740.77
244.42	1675.24
244.64	1728.49
244.85	1626.09
245.07	1671.14
245.29	1738.73
245.51	1650.66
245.72	1714.15
245.94	1724.39
246.16	1759.21
246.38	1683.43
246.59	1656.81
246.81	1667.05
247.03	1648.61
247.24	1578.98
247.46	1705.96
247.68	1753.06
247.90	1730.53
248.11	1644.52
248.33	1791.97
248.55	1691.62
248.77	1781.73
248.98	1796.07
249.20	1822.69
249.42	1738.73
249.64	1658.85
249.85	1667.05
250.07	1644.52
250.29	1742.82
250.50	1748.97
250.72	1597.42
250.94	1693.67
251.16	1853.41
251.37	1759.21
251.59	1759.21
251.81	1681.38
252.02	1724.39
252.24	1662.95
252.46	1789.92
252.68	1626.09
252.89	1675.24
253.11	1632.23
253.33	1804.26
253.54	1740.77
253.76	1603.56
253.98	1671.14
254.20	1632.23
254.41	1648.61
254.63	1695.72
254.85	1630.18
255.06	1751.01
255.28	1705.96
255.50	1720.29
255.71	1646.57
255.93	1656.81
256.15	1726.44
256.36	1660.90
256.58	1669.09
256.80	1769.44
257.02	1636.33
257.23	1697.77
257.45	1665.00
257.67	1804.26
257.88	1648.61
258.10	1724.39
258.32	1689.57
258.53	1714.15
258.75	1808.36
258.97	1615.85
259.18	1710.05
259.40	1705.96
259.62	1738.73
259.83	1773.54
260.05	1722.34
260.27	1984.48
260.48	1718.25
260.70	1638.38
260.92	1675.24
261.13	1720.29
261.35	1734.63
261.57	1722.34
261.78	1591.27
262.00	1640.42
262.22	1695.72
262.43	1648.61
262.65	1671.14
262.86	1683.43
263.08	1740.77
263.30	1812.45
263.51	1654.76
263.73	1656.81
263.95	1859.56
264.16	1681.38
264.38	1607.66
264.60	1697.77
264.81	1619.94
265.03	1763.30
265.25	1732.58
265.46	1761.25
265.68	1755.11
265.89	1757.16
266.11	1583.08
266.33	1708.01
266.54	1689.57
266.76	1734.63
266.98	1763.30
267.19	1789.92
267.41	1689.57
267.62	1619.94
267.84	1615.85
268.06	1757.16
268.27	1714.15
268.49	1710.05
268.70	1773.54
268.92	1640.42
269.14	1695.72
269.35	1650.66
269.57	1697.77
269.79	1804.26
270.00	1708.01
270.22	1744.87
270.43	1714.15
270.65	1609.70
270.87	1693.67
271.08	1693.67
271.30	1712.10
271.51	1681.38
271.73	1716.20
271.95	1751.01
272.16	1687.53
272.38	1703.91
272.59	1695.72
272.81	1697.77
273.02	1763.30
273.24	1708.01
273.46	1718.25
273.67	1699.81
273.89	1675.24
274.10	1644.52
274.32	1777.64
274.54	1705.96
274.75	1708.01
274.97	1638.38
275.18	1787.88
275.40	1730.53
275.61	1773.54
275.83	1689.57
276.05	1626.09
276.26	1654.76
276.48	1789.92
276.69	1656.81
276.91	1671.14
277.12	1798.12
277.34	1757.16
277.55	1708.01
277.77	1714.15
277.99	1757.16
278.20	1654.76
278.42	1624.04
278.63	1656.81
278.85	1624.04
279.06	1611.75
279.28	1744.87
279.49	1767.40
279.71	1736.68
279.93	1632.23
280.14	1732.58
280.36	1656.81
280.57	1714.15
280.79	1824.74
281.00	1665.00
281.22	1615.85
281.43	1763.30
281.65	1572.84
281.86	1581.03
282.08	1691.62
282.29	1716.20
282.51	1689.57
282.73	1636.33
282.94	1644.52
283.16	1730.53
283.37	1757.16
283.59	1703.91
283.80	1705.96
284.02	1656.81
284.23	1671.14
284.45	1593.32
284.66	1642.47
284.88	1685.48
285.09	1730.53
285.31	1689.57
285.52	1742.82
285.74	1595.37
285.95	1667.05
286.17	1718.25
286.38	1751.01
286.60	1613.80
286.81	1695.72
287.03	1642.47
287.24	1636.33
287.46	1708.01
287.67	1683.43
287.89	1783.78
288.10	1705.96
288.32	1726.44
288.53	1763.30
288.75	1763.30
288.96	1722.34
289.18	1542.12
289.39	1699.81
289.61	1761.25
289.82	1775.59
290.04	1808.36
290.25	1650.66
290.47	1693.67
290.68	1738.73
290.90	1765.35
291.11	1648.61
291.33	1761.25
291.54	1636.33
291.76	1628.14
291.97	1708.01
292.18	1712.10
292.40	1703.91
292.61	1646.57
292.83	1814.50
293.04	1718.25
293.26	1722.34
293.47	1748.97
293.69	1648.61
293.90	1652.71
294.12	1744.87
294.33	1755.11
294.55	1732.58
294.76	1675.24
294.97	1738.73
295.19	1843.17
295.40	1673.19
295.62	1740.77
295.83	1763.30
296.05	1597.42
296.26	1761.25
296.48	1687.53
296.69	1695.72
296.90	1736.68
297.12	1771.49
297.33	1773.54
297.55	1761.25
297.76	1714.15
297.98	1767.40
298.19	1650.66
298.41	1677.29
298.62	1638.38
298.83	1738.73
299.05	1722.34
299.26	1695.72
299.48	1630.18
299.69	1800.16
299.90	1708.01
300.12	1591.27
300.33	1712.10
300.55	1667.05
300.76	1771.49
300.98	1578.98
301.19	1718.25
301.40	1677.29
301.62	1675.24
301.83	1705.96
302.05	1697.77
302.26	1701.86
302.47	1697.77
302.69	1703.91
302.90	1722.34
303.12	1550.31
303.33	1740.77
303.54	1798.12
303.76	1718.25
303.97	1744.87
304.19	1759.21
304.40	1630.18
304.61	1732.58
304.83	1771.49
305.04	1701.86
305.26	1759.21
305.47	1585.13
305.68	1687.53
305.90	1626.09
306.11	1755.11
306.33	1681.38
306.54	1619.94
306.75	1638.38
306.97	1628.14
307.18	1669.09
307.39	1691.62
307.61	1703.91
307.82	1742.82
308.04	1687.53
308.25	1734.63
308.46	1667.05
308.68	1710.05
308.89	1732.58
309.10	1744.87
309.32	1761.25
309.53	1746.92
309.74	1734.63
309.96	1718.25
310.17	1726.44
310.39	1681.38
310.60	1753.06
310.81	1728.49
311.03	1595.37
311.24	1718.25
311.45	1675.24
311.67	1820.64
311.88	1656.81
312.09	1722.34
312.31	1724.39
312.52	1660.90
312.73	1699.81
312.95	1619.94
313.16	1662.95
313.37	1718.25
313.59	1665.00
313.80	1642.47
314.01	1841.12
314.23	1626.09
314.44	1660.90
314.65	1583.08
314.87	1634.28
315.08	1624.04
315.29	1714.15
315.51	1650.66
315.72	1589.22
315.93	1769.44
316.15	1720.29
316.36	1746.92
316.57	1691.62
316.79	1675.24
317.00	1701.86
317.21	1728.49
317.43	1681.38
317.64	1685.48
317.85	1722.34
318.07	1669.09
318.28	1759.21
318.49	1830.88
318.70	1953.76
318.92	1812.45
319.13	1802.21
319.34	1916.90
319.56	1796.07
319.77	1773.54
319.98	1812.45
320.20	1826.79
320.41	1761.25
320.62	1693.67
320.83	1636.33
321.05	1810.40
321.26	1769.44
321.47	1757.16
321.69	1730.53
321.90	1708.01
322.11	1693.67
322.32	1673.19
322.54	1837.03
322.75	1710.05
322.96	1834.98
323.18	1621.99
323.39	1591.27
323.60	1685.48
323.81	1736.68
324.03	1705.96
324.24	1720.29
324.45	1730.53
324.66	1710.05
324.88	1701.86
325.09	1720.29
325.30	1656.81
325.52	1777.64
325.73	1697.77
325.94	1687.53
326.15	1607.66
326.37	1681.38
326.58	1728.49
326.79	1783.78
327.00	1681.38
327.22	1744.87
327.43	1603.56
327.64	1638.38
327.85	1734.63
328.07	1794.02
328.28	1880.04
328.49	1619.94
328.70	1568.74
328.92	1734.63
329.13	1687.53
329.34	1751.01
329.55	1816.55
329.76	1693.67
329.98	1728.49
330.19	1783.78
330.40	1693.67
330.61	1675.24
330.83	1810.40
331.04	1642.47
331.25	1644.52
331.46	1669.09
331.68	1687.53
331.89	1744.87
332.10	1757.16
332.31	1665.00
332.52	1730.53
332.74	1773.54
332.95	1732.58
333.16	1691.62
333.37	1703.91
333.58	1568.74
333.80	1662.95
334.01	1619.94
334.22	1642.47
334.43	1669.09
334.64	1669.09
334.86	1685.48
335.07	1652.71
335.28	1769.44
335.49	1691.62
335.70	1748.97
335.92	1791.97
336.13	1765.35
336.34	1650.66
336.55	1734.63
336.76	1724.39
336.98	1587.18
337.19	1705.96
337.40	1837.03
337.61	1810.40
337.82	1630.18
338.04	1816.55
338.25	1603.56
338.46	1679.33
338.67	1656.81
338.88	1632.23
339.09	1699.81
339.31	1671.14
339.52	1718.25
339.73	1581.03
339.94	1660.90
340.15	1738.73
340.36	1677.29
340.58	1734.63
340.79	1642.47
341.00	1738.73
341.21	1617.90
341.42	1826.79
341.63	1652.71
341.85	1716.20
342.06	1742.82
342.27	1609.70
342.48	1804.26
342.69	1624.04
342.90	1732.58
343.12	1732.58
343.33	1755.11
343.54	1671.14
343.75	1681.38
343.96	1732.58
344.17	1699.81
344.38	1720.29
344.60	1646.57
344.81	1673.19
345.02	1660.90
345.23	1746.92
345.44	1718.25
345.65	1705.96
345.86	1644.52
346.07	1714.15
346.29	1632.23
346.50	1728.49
346.71	1730.53
346.92	1701.86
347.13	1802.21
347.34	1607.66
347.55	1619.94
347.76	1685.48
347.98	1591.27
348.19	1652.71
348.40	1757.16
348.61	1714.15
348.82	1779.68
349.03	1673.19
349.24	1626.09
349.45	1841.12
349.66	1603.56
349.88	1691.62
350.09	1685.48
350.30	1769.44
350.51	1779.68
350.72	1712.10
350.93	1757.16
351.14	1646.57
351.35	1662.95
351.56	1691.62
351.77	1671.14
351.99	1734.63
352.20	1710.05
352.41	1712.10
352.62	1648.61
352.83	1675.24
353.04	1740.77
353.25	1619.94
353.46	1789.92
353.67	1712.10
353.88	1550.31
354.09	1712.10
354.30	1687.53
354.52	1751.01
354.73	1636.33
354.94	1662.95
355.15	1716.20
355.36	1798.12
355.57	1689.57
355.78	1726.44
355.99	1658.85
356.20	1658.85
356.41	1751.01
356.62	1740.77
356.83	1703.91
357.04	1734.63
357.25	1568.74
357.46	1665.00
357.68	1626.09
357.89	1699.81
358.10	1738.73
358.31	1626.09
358.52	1642.47
358.73	1646.57
358.94	1591.27
359.15	1714.15
359.36	1757.16
359.57	1693.67
359.78	1744.87
359.99	1753.06
360.20	1642.47
360.41	1695.72
360.62	1648.61
360.83	1779.68
361.04	1703.91
361.25	1681.38
361.46	1837.03
361.67	1714.15
361.88	1779.68
362.09	1777.64
362.30	1679.33
362.51	1665.00
362.72	1665.00
362.93	1726.44
363.14	1734.63
363.35	1679.33
363.56	1591.27
363.78	1726.44
363.99	1761.25
364.20	1609.70
364.41	1755.11
364.62	1779.68
364.83	1703.91
365.04	1656.81
365.25	1720.29
365.46	1771.49
365.67	1652.71
365.88	1714.15
366.09	1691.62
366.30	1710.05
366.51	1638.38
366.72	1648.61
366.93	1716.20
367.14	1714.15
367.35	1738.73
367.56	1669.09
367.77	1751.01
367.98	1736.68
368.18	1773.54
368.39	1660.90
368.60	1654.76
368.81	1716.20
369.02	1648.61
369.23	1757.16
369.44	1708.01
369.65	1683.43
369.86	1703.91
370.07	1740.77
370.28	1607.66
370.49	1689.57
370.70	1693.67
370.91	1632.23
371.12	1644.52
371.33	1671.14
371.54	1685.48
371.75	1775.59
371.96	1531.88
372.17	1689.57
372.38	1703.91
372.59	1812.45
372.80	1619.94
373.01	1601.51
373.22	1671.14
373.43	1755.11
373.64	1638.38
373.85	1685.48
374.06	1798.12
374.26	1796.07
374.47	1685.48
374.68	1769.44
374.89	1662.95
375.10	1701.86
375.31	1832.93
375.52	1548.26
375.73	1779.68
375.94	1628.14
376.15	1820.64
376.36	1652.71
376.57	1689.57
376.78	1593.32
376.99	1732.58
377.20	1759.21
377.40	1746.92
377.61	1767.40
377.82	1658.85
378.03	1771.49
378.24	1693.67
378.45	1691.62
378.66	1740.77
378.87	1626.09
379.08	1593.32
379.29	1705.96
379.50	1773.54
379.71	1703.91
379.91	1671.14
380.12	1705.96
380.33	1718.25
380.54	1642.47
380.75	1718.25
380.96	1728.49
381.17	1755.11
381.38	1751.01
381.59	1699.81
381.80	1761.25
382.00	1849.32
382.21	1732.58
382.42	1816.55
382.63	1843.17
382.84	1730.53
383.05	1796.07
383.26	1779.68
383.47	1755.11
383.68	1791.97
383.88	1734.63
384.09	1757.16
384.30	1806.31
384.51	1777.64
384.72	1689.57
384.93	1677.29
385.14	1705.96
385.35	1703.91
385.55	1607.66
385.76	1810.40
385.97	1642.47
386.18	1617.90
386.39	1619.94
386.60	1658.85
386.81	1789.92
387.02	1658.85
387.22	1613.80
387.43	1755.11
387.64	1804.26
387.85	1767.40
388.06	2189.28
388.27	4251.58
388.48	6789.02
388.68	8155.01
388.89	9750.38
389.10	10071.91
389.31	8449.92
389.52	7602.06
389.73	6911.89
389.93	6215.59
390.14	6018.98
390.35	5347.25
390.56	4638.65
390.77	3823.56
390.98	3047.38
391.18	2508.76
391.39	2142.18
391.60	1775.59
391.81	1796.07
392.02	1675.24
392.23	1787.88
392.43	1736.68
392.64	1806.31
392.85	1759.21
393.06	1791.97
393.27	1693.67
393.47	1701.86
393.68	1746.92
393.89	1728.49
394.10	1824.74
394.31	1681.38
394.52	1667.05
394.72	1722.34
394.93	1693.67
395.14	1624.04
395.35	1714.15
395.56	1681.38
395.76	1753.06
395.97	1851.36
396.18	1781.73
396.39	1785.83
396.60	2027.49
396.80	1841.12
397.01	1814.50
397.22	1865.70
397.43	1843.17
397.64	1738.73
397.84	1781.73
398.05	1865.70
398.26	1806.31
398.47	1767.40
398.67	1769.44
398.88	1697.77
399.09	1718.25
399.30	1660.90
399.51	1726.44
399.71	1669.09
399.92	1712.10
400.13	1675.24
400.34	1779.68
400.54	1660.90
400.75	1800.16
400.96	1648.61
401.17	1806.31
401.37	1771.49
401.58	1746.92
401.79	1724.39
402.00	1906.66
402.21	2017.25
402.41	1892.32
402.62	2007.01
402.83	1892.32
403.04	1920.99
403.24	2058.21
403.45	1832.93
403.66	1877.99
403.87	1796.07
404.07	1855.46
404.28	1947.62
404.49	1822.69
404.70	1755.11
404.90	1787.88
405.11	1636.33
405.32	1767.40
405.52	1650.66
405.73	1675.24
405.94	1660.90
406.15	1693.67
406.35	1691.62
406.56	1691.62
406.77	1740.77
406.98	1789.92
407.18	1685.48
407.39	1822.69
407.60	1636.33
407.80	1742.82
408.01	1685.48
408.22	1757.16
408.43	1710.05
408.63	1783.78
408.84	1755.11
409.05	1796.07
409.25	1632.23
409.46	1632.23
409.67	1689.57
409.88	1589.22
410.08	1777.64
410.29	1619.94
410.50	1751.01
410.70	1742.82
410.91	1667.05
411.12	1685.48
411.32	1658.85
411.53	1746.92
411.74	1781.73
411.95	1748.97
412.15	1732.58
412.36	1767.40
412.57	1738.73
412.77	1794.02
412.98	1804.26
413.19	1708.01
413.39	1810.40
413.60	1806.31
413.81	1818.60
414.01	1687.53
414.22	1746.92
414.43	1714.15
414.63	1675.24
414.84	1757.16
415.05	1763.30
415.25	1652.71
415.46	1748.97
415.67	1722.34
415.87	1724.39
416.08	1730.53
416.29	1585.13
416.49	1755.11
416.70	1652.71
416.91	1665.00
417.11	1646.57
417.32	1791.97
417.53	1712.10
417.73	1701.86
417.94	1708.01
418.15	1701.86
418.35	1744.87
418.56	1740.77
418.77	1812.45
418.97	1712.10
419.18	1738.73
419.38	1550.31
419.59	1703.91
419.80	1818.60
420.00	1724.39
420.21	1675.24
420.42	1845.22
420.62	1730.53
420.83	1638.38
421.04	1714.15
421.24	1738.73
421.45	1751.01
421.65	1718.25
421.86	1640.42
422.07	1742.82
422.27	1726.44
422.48	1640.42
422.69	1687.53
422.89	1689.57
423.10	1685.48
423.30	1566.70
423.51	1640.42
423.72	1644.52
423.92	1726.44
424.13	1619.94
424.33	1669.09
424.54	1740.77
424.75	1673.19
424.95	1724.39
425.16	1761.25
425.36	1746.92
425.57	1748.97
425.78	1769.44
425.98	1765.35
426.19	1679.33
426.39	1609.70
426.60	1671.14
426.81	1779.68
427.01	1744.87
427.22	1640.42
427.42	1646.57
427.63	1628.14
427.83	1748.97
428.04	1779.68
428.25	1812.45
428.45	1726.44
428.66	1753.06
428.86	1685.48
429.07	1691.62
429.28	1697.77
429.48	1662.95
429.69	1656.81
429.89	1648.61
430.10	1654.76
430.30	1718.25
430.51	1804.26
430.71	1652.71
430.92	1636.33
431.13	1679.33
431.33	1693.67
431.54	1712.10
431.74	1771.49
431.95	1814.50
432.15	1654.76
432.36	1708.01
432.56	1667.05
432.77	1816.55
432.98	1775.59
433.18	1708.01
433.39	1671.14
433.59	1701.86
433.80	1830.88
434.00	1832.93
434.21	1646.57
434.41	1619.94
434.62	1906.66
434.82	1660.90
435.03	1665.00
435.23	1685.48
435.44	1615.85
435.64	1648.61
435.85	1724.39
436.06	1769.44
436.26	1724.39
436.47	1691.62
436.67	1642.47
436.88	1736.68
437.08	1751.01
437.29	1828.84
437.49	1732.58
437.70	1730.53
437.90	1751.01
438.11	1847.27
438.31	1734.63
438.52	1857.51
438.72	1800.16
438.93	1877.99
439.13	1789.92
439.34	1826.79
439.54	1787.88
439.75	1857.51
439.95	1726.44
440.16	1761.25
440.36	1767.40
440.57	1714.15
440.77	1808.36
440.98	1771.49
441.18	1759.21
441.39	1673.19
441.59	1605.61
441.80	1832.93
442.00	1761.25
442.21	1748.97
442.41	1710.05
442.62	1695.72
442.82	1738.73
443.02	1730.53
443.23	1769.44
443.43	1658.85
443.64	1816.55
443.84	1634.28
444.05	1796.07
444.25	1767.40
444.46	1665.00
444.66	1789.92
444.87	1806.31
445.07	1607.66
445.28	1742.82
445.48	1716.20
445.69	1697.77
445.89	1820.64
446.09	1748.97
446.30	2013.15
446.50	2625.50
446.71	3684.30
446.91	4378.56
447.12	4724.66
447.32	4759.48
447.53	4310.97
447.73	3811.27
447.93	3487.69
448.14	3258.32
448.34	3143.63
448.55	2887.64
448.75	2840.53
448.96	2641.88
449.16	2459.61
449.36	2334.68
449.57	1992.67
449.77	1947.62
449.98	1761.25
450.18	1820.64
450.39	1767.40
450.59	1763.30
450.79	1771.49
451.00	1738.73
451.20	1800.16
451.41	1712.10
451.61	1751.01
451.81	1738.73
452.02	1742.82
452.22	1693.67
452.43	1673.19
452.63	1767.40
452.84	1701.86
453.04	1656.81
453.24	1773.54
453.45	1681.38
453.65	1599.46
453.86	1736.68
454.06	1693.67
454.26	1722.34
454.47	1720.29
454.67	1748.97
454.87	1740.77
455.08	1712.10
455.28	1845.22
455.49	1697.77
455.69	1667.05
455.89	1843.17
456.10	1738.73
456.30	1759.21
456.51	1683.43
456.71	1673.19
456.91	1751.01
457.12	1800.16
457.32	1744.87
457.52	1681.38
457.73	1771.49
457.93	1826.79
458.14	1789.92
458.34	1648.61
458.54	1703.91
458.75	1681.38
458.95	1728.49
459.15	1781.73
459.36	1753.06
459.56	1746.92
459.76	1851.36
459.97	1777.64
460.17	1722.34
460.37	1742.82
460.58	1705.96
460.78	1865.70
460.99	1726.44
461.19	1759.21
461.39	1746.92
461.60	1673.19
461.80	1773.54
462.00	1742.82
462.21	1697.77
462.41	1636.33
462.61	1724.39
462.82	1617.90
463.02	1783.78
463.22	1689.57
463.43	1818.60
463.63	1705.96
463.83	1828.84
464.04	1677.29
464.24	1712.10
464.44	1640.42
464.64	1738.73
464.85	1640.42
465.05	1841.12
465.25	1751.01
465.46	1626.09
465.66	1796.07
465.86	1783.78
466.07	1710.05
466.27	1716.20
466.47	1671.14
466.68	1583.08
466.88	1882.08
467.08	1648.61
467.29	1722.34
467.49	1669.09
467.69	1751.01
467.89	1708.01
468.10	1624.04
468.30	1732.58
468.50	1808.36
468.71	1748.97
468.91	1691.62
469.11	1849.32
469.31	1714.15
469.52	1701.86
469.72	1771.49
469.92	1767.40
470.13	1734.63
470.33	1701.86
470.53	1816.55
470.73	2009.06
470.94	2287.58
471.14	2318.30
471.34	2494.43
471.54	2330.59
471.75	2260.96
471.95	2152.42
472.15	2101.22
472.36	2138.08
472.56	2099.17
472.76	2119.65
472.96	2002.91
473.17	1974.24
473.37	1882.08
473.57	1892.32
473.77	1882.08
473.98	1708.01
474.18	1736.68
474.38	1855.46
474.58	1685.48
474.79	1628.14
474.99	1779.68
475.19	1769.44
475.39	1644.52
475.60	1761.25
475.80	1701.86
476.00	1738.73
476.20	1683.43
476.41	1679.33
476.61	1810.40
476.81	1740.77
477.01	1636.33
477.21	1843.17
477.42	1841.12
477.62	1658.85
477.82	1728.49
478.02	1658.85
478.23	1746.92
478.43	1626.09
478.63	1722.34
478.83	1652.71
479.03	1701.86
479.24	1738.73
479.44	1816.55
479.64	1728.49
479.84	1593.32
480.04	1648.61
480.25	1751.01
480.45	1677.29
480.65	1710.05
480.85	1798.12
481.06	1615.85
481.26	1738.73
481.46	1689.57
481.66	1748.97
481.86	1710.05
482.06	1759.21
482.27	1734.63
482.47	1621.99
482.67	1736.68
482.87	1669.09
483.07	1732.58
483.28	1671.14
483.48	1687.53
483.68	1765.35
483.88	1740.77
484.08	1660.90
484.29	1648.61
484.49	1765.35
484.69	1644.52
484.89	1738.73
485.09	1773.54
485.29	1794.02
485.50	1791.97
485.70	1656.81
485.90	1789.92
486.10	1689.57
486.30	1767.40
486.50	1751.01
486.71	1753.06
486.91	1796.07
487.11	1779.68
487.31	1671.14
487.51	1705.96
487.71	1576.94
487.91	1722.34
488.12	1714.15
488.32	1638.38
488.52	1658.85
488.72	1624.04
488.92	1673.19
489.12	1789.92
489.32	1845.22
489.53	1787.88
489.73	1591.27
489.93	1871.84
490.13	1697.77
490.33	1722.34
490.53	1728.49
490.73	1775.59
490.94	1675.24
491.14	1763.30
491.34	1812.45
491.54	2209.76
491.74	2547.67
491.94	2883.54
492.14	3041.23
492.34	3041.23
492.54	2709.46
492.75	2525.15
492.95	2441.18
493.15	2338.78
493.35	2258.91
493.55	2224.09
493.75	2080.74
493.95	2160.61
494.15	2002.91
494.35	2027.49
494.56	1818.60
494.76	1763.30
494.96	1714.15
495.16	1832.93
495.36	1740.77
495.56	1724.39
495.76	1742.82
495.96	1751.01
496.16	1683.43
496.36	1867.75
496.56	1701.86
496.77	1755.11
496.97	1654.76
497.17	1834.98
497.37	1632.23
497.57	1824.74
497.77	1804.26
497.97	1675.24
498.17	1689.57
498.37	1654.76
498.57	1755.11
498.77	1728.49
498.97	1775.59
499.17	1884.13
499.38	1714.15
499.58	1697.77
499.78	1722.34
499.98	1787.88
500.18	1757.16
500.38	1751.01
500.58	1927.14
500.78	2574.30
500.98	4511.68
501.18	5820.33
501.38	6879.13
501.58	7145.36
501.78	6625.18
501.98	5535.66
502.18	4911.03
502.38	4386.75
502.58	4120.51
502.78	3829.70
502.98	3704.78
503.18	3456.97
503.38	3309.52
503.59	2940.88
503.79	2729.94
503.99	2461.66
504.19	2328.54
504.39	2133.98
504.59	2193.37
504.79	2179.04
504.99	2011.11
505.19	1920.99
505.39	1955.81
505.59	1896.42
505.79	1824.74
505.99	1794.02
506.19	1794.02
506.39	1888.23
506.59	1708.01
506.79	1699.81
506.99	1865.70
507.19	1722.34
507.39	1728.49
507.59	1671.14
507.79	1667.05
507.99	1574.89
508.19	1697.77
508.39	1710.05
508.59	1759.21
508.79	1789.92
508.99	1847.27
509.19	1630.18
509.39	1796.07
509.59	1685.48
509.79	1636.33
509.99	1710.05
510.19	1791.97
510.39	1771.49
510.59	1722.34
510.79	1767.40
510.99	1617.90
511.19	1753.06
511.39	1808.36
511.59	1783.78
511.79	1816.55
511.99	1718.25
512.19	1857.51
512.38	1714.15
512.58	1744.87
512.78	1757.16
512.98	1806.31
513.18	1787.88
513.38	1697.77
513.58	1757.16
513.78	1726.44
513.98	1722.34
514.18	1730.53
514.38	1783.78
514.58	1779.68
514.78	1714.15
514.98	1662.95
515.18	1650.66
515.38	1673.19
515.58	1763.30
515.78	1695.72
515.98	1794.02
516.18	1783.78
516.38	1714.15
516.57	1720.29
516.77	1683.43
516.97	1718.25
517.17	1714.15
517.37	1716.20
517.57	1777.64
517.77	1746.92
517.97	1705.96
518.17	1810.40
518.37	1722.34
518.57	1685.48
518.77	1628.14
518.97	1689.57
519.16	1798.12
519.36	1800.16
519.56	1718.25
519.76	1769.44
519.96	1761.25
520.16	1828.84
520.36	1650.66
520.56	1845.22
520.76	1675.24
520.96	1785.83
521.16	1769.44
521.35	1787.88
521.55	1804.26
521.75	1695.72
521.95	1714.15
522.15	1701.86
522.35	1712.10
522.55	1630.18
522.75	1695.72
522.95	1681.38
523.14	1677.29
523.34	1783.78
523.54	1732.58
523.74	1818.60
523.94	1714.15
524.14	1642.47
524.34	1708.01
524.54	1822.69
524.73	1714.15
524.93	1732.58
525.13	1705.96
525.33	1742.82
525.53	1902.56
525.73	1771.49
525.93	1734.63
526.13	1615.85
526.32	1740.77
526.52	1857.51
526.72	1736.68
526.92	1656.81
527.12	1757.16
527.32	1662.95
527.52	1740.77
527.71	1744.87
527.91	1722.34
528.11	1656.81
528.31	1724.39
528.51	1667.05
528.71	1718.25
528.90	1722.34
529.10	1767.40
529.30	1773.54
529.50	1591.27
529.70	1787.88
529.90	1718.25
530.09	1748.97
530.29	1714.15
530.49	1665.00
530.69	1779.68
530.89	1681.38
531.09	1804.26
531.28	1691.62
531.48	1767.40
531.68	1738.73
531.88	1603.56
532.08	1789.92
532.28	1658.85
532.47	1748.97
532.67	1787.88
532.87	1697.77
533.07	1679.33
533.27	1738.73
533.46	1687.53
533.66	1804.26
533.86	1665.00
534.06	1769.44
534.26	1681.38
534.45	1644.52
534.65	1828.84
534.85	1708.01
535.05	1691.62
535.25	1763.30
535.44	1615.85
535.64	1820.64
535.84	1722.34
536.04	1660.90
536.24	1740.77
536.43	1660.90
536.63	1738.73
536.83	1671.14
537.03	1755.11
537.22	1677.29
537.42	1710.05
537.62	1640.42
537.82	1705.96
538.02	1742.82
538.21	1742.82
538.41	1820.64
538.61	1783.78
538.81	1755.11
539.00	1849.32
539.20	1632.23
539.40	1675.24
539.60	1726.44
539.79	1791.97
539.99	1730.53
540.19	1699.81
540.39	1767.40
540.58	1826.79
540.78	1775.59
540.98	1738.73
541.18	1824.74
541.37	1771.49
541.57	1687.53
541.77	1746.92
541.97	1642.47
542.16	1611.75
542.36	1718.25
542.56	1660.90
542.76	1841.12
542.95	1751.01
543.15	1755.11
543.35	1808.36
543.54	1710.05
543.74	1722.34
543.94	1822.69
544.14	1714.15
544.33	1703.91
544.53	1687.53
544.73	1693.67
544.93	1705.96
545.12	1740.77
545.32	1683.43
545.52	1763.30
545.71	1714.15
545.91	1701.86
546.11	1726.44
546.30	1710.05
546.50	1724.39
546.70	1794.02
546.90	1751.01
547.09	1656.81
547.29	1742.82
547.49	1726.44
547.68	1800.16
547.88	1712.10
548.08	1820.64
548.27	2209.76
548.47	1724.39
548.67	1675.24
548.87	1798.12
549.06	1763.30
549.26	1757.16
549.46	1785.83
549.65	1673.19
549.85	1769.44
550.05	1796.07
550.24	1718.25
550.44	1642.47
550.64	1742.82
550.83	1771.49
551.03	1808.36
551.23	1810.40
551.42	1714.15
551.62	1757.16
551.82	1685.48
552.01	1708.01
552.21	1873.89
552.41	1751.01
552.60	1738.73
552.80	1796.07
553.00	1740.77
553.19	1644.52
553.39	1794.02
553.59	1642.47
553.78	1806.31
553.98	1730.53
554.17	1662.95
554.37	1783.78
554.57	1787.88
554.76	1687.53
554.96	1738.73
555.16	1779.68
555.35	1779.68
555.55	1769.44
555.75	1753.06
555.94	1777.64
556.14	1701.86
556.33	1767.40
556.53	1640.42
556.73	1703.91
556.92	1855.46
557.12	1816.55
557.32	1785.83
557.51	1777.64
557.71	1703.91
557.90	1779.68
558.10	1789.92
558.30	1755.11
558.49	1716.20
558.69	1705.96
558.88	1765.35
559.08	1734.63
559.28	1718.25
559.47	1738.73
559.67	1771.49
559.86	1861.60
560.06	1785.83
560.26	1767.40
560.45	1791.97
560.65	1730.53
560.84	1748.97
561.04	1695.72
561.24	1773.54
561.43	1716.20
561.63	1722.34
561.82	1892.32
562.02	1720.29
562.22	1685.48
562.41	1669.09
562.61	1716.20
562.80	1687.53
563.00	1877.99
563.19	1769.44
563.39	1748.97
563.59	1808.36
563.78	1687.53
563.98	1669.09
564.17	1710.05
564.37	1718.25
564.56	1804.26
564.76	1634.28
564.96	1861.60
565.15	1789.92
565.35	1859.56
565.54	1742.82
565.74	1718.25
565.93	1742.82
566.13	1710.05
566.32	1755.11
566.52	1853.41
566.71	1685.48
566.91	1757.16
567.11	1648.61
567.30	1744.87
567.50	1748.97
567.69	1718.25
567.89	1748.97
568.08	1691.62
568.28	1751.01
568.47	1722.34
568.67	1679.33
568.86	1667.05
569.06	1785.83
569.25	1759.21
569.45	1558.50
569.64	1685.48
569.84	1609.70
570.04	1746.92
570.23	1640.42
570.43	1701.86
570.62	1675.24
570.82	1769.44
571.01	1624.04
571.21	1656.81
571.40	1609.70
571.60	1767.40
571.79	1755.11
571.99	1720.29
572.18	1742.82
572.38	1748.97
572.57	1736.68
572.77	1771.49
572.96	1849.32
573.16	1751.01
573.35	1781.73
573.55	1830.88
573.74	1755.11
573.94	1693.67
574.13	1742.82
574.33	1796.07
574.52	1837.03
574.71	1673.19
574.91	1755.11
575.10	1738.73
575.30	1722.34
575.49	1738.73
575.69	1732.58
575.88	1746.92
576.08	1730.53
576.27	1761.25
576.47	1744.87
576.66	1882.08
576.86	1837.03
577.05	1755.11
577.25	1794.02
577.44	1832.93
577.64	1761.25
577.83	1804.26
578.02	1742.82
578.22	1841.12
578.41	1783.78
578.61	1691.62
578.80	1671.14
579.00	1763.30
579.19	1710.05
579.39	1779.68
579.58	1796.07
579.77	1824.74
579.97	1773.54
580.16	1751.01
580.36	1773.54
580.55	1812.45
580.75	1746.92
580.94	1787.88
581.13	1800.16
581.33	1810.40
581.52	1820.64
581.72	1843.17
581.91	1826.79
582.11	1728.49
582.30	1822.69
582.49	1814.50
582.69	1820.64
582.88	1726.44
583.08	1697.77
583.27	1814.50
583.47	1769.44
583.66	1755.11
583.85	1673.19
584.05	1728.49
584.24	1742.82
584.44	1781.73
584.63	1841.12
584.82	1837.03
585.02	1796.07
585.21	1806.31
585.41	1826.79
585.60	1837.03
585.79	1968.10
585.99	1914.85
586.18	1865.70
586.37	2146.27
586.57	3323.85
586.76	9914.22
586.96	24415.88
587.15	35157.48
587.34	40975.76
587.54	42980.72
587.73	37047.75
587.93	26844.77
588.12	21892.79
588.31	18597.60
588.51	16602.88
588.70	15415.06
588.89	14221.10
589.09	12758.85
589.28	11063.13
589.47	9576.30
589.67	7950.21
589.86	6580.12
590.06	5040.05
590.25	3850.18
590.44	3143.63
590.64	2607.06
590.83	2281.44
591.02	2109.41
591.22	2021.35
591.41	1841.12
591.60	1839.08
591.80	1912.80
591.99	1787.88
592.18	1806.31
592.38	1826.79
592.57	1714.15
592.76	1834.98
592.96	1802.21
593.15	1800.16
593.34	1802.21
593.54	1746.92
593.73	1746.92
593.92	1744.87
594.12	1695.72
594.31	1761.25
594.50	1828.84
594.70	1759.21
594.89	1869.80
595.08	1763.30
595.28	1779.68
595.47	1939.43
595.66	1771.49
595.86	1703.91
596.05	1673.19
596.24	1748.97
596.43	1791.97
596.63	1859.56
596.82	1853.41
597.01	1769.44
597.21	1791.97
597.40	1761.25
597.59	1703.91
597.79	1773.54
597.98	1828.84
598.17	1767.40
598.36	1798.12
598.56	1699.81
598.75	1691.62
598.94	1767.40
599.14	1783.78
599.33	1660.90
599.52	1769.44
599.71	1759.21
599.91	1863.65
600.10	1746.92
600.29	1751.01
600.48	1802.21
600.68	1789.92
600.87	1769.44
601.06	1742.82
601.26	1783.78
601.45	1701.86
601.64	1671.14
601.83	1794.02
602.03	1703.91
602.22	1656.81
602.41	1751.01
602.60	1783.78
602.80	1806.31
602.99	1714.15
603.18	1726.44
603.37	1712.10
603.57	1800.16
603.76	1828.84
603.95	1767.40
604.14	1736.68
604.34	1714.15
604.53	1714.15
604.72	1824.74
604.91	1763.30
605.10	1775.59
605.30	1685.48
605.49	1818.60
605.68	1816.55
605.87	1820.64
606.07	1689.57
606.26	1738.73
606.45	1814.50
606.64	1804.26
606.84	1685.48
607.03	1669.09
607.22	1718.25
607.41	1697.77
607.60	1665.00
607.80	1769.44
607.99	1658.85
608.18	1771.49
608.37	1789.92
608.56	1703.91
608.76	1724.39
608.95	1814.50
609.14	1785.83
609.33	1728.49
609.52	1734.63
609.72	1720.29
609.91	1845.22
610.10	1763.30
610.29	1783.78
610.48	1738.73
610.68	1712.10
610.87	1720.29
611.06	1806.31
611.25	1699.81
611.44	1812.45
611.63	1665.00
611.83	1757.16
612.02	1619.94
612.21	1814.50
612.40	1648.61
612.59	1630.18
612.79	1599.46
612.98	1732.58
613.17	1781.73
613.36	1746.92
613.55	1773.54
613.74	1638.38
613.93	1699.81
614.13	1701.86
614.32	1705.96
614.51	1779.68
614.70	1736.68
614.89	1769.44
615.08	1810.40
615.28	1982.43
615.47	1619.94
615.66	1665.00
615.85	1724.39
616.04	1806.31
616.23	1701.86
616.42	1722.34
616.62	1726.44
616.81	1681.38
617.00	1722.34
617.19	1791.97
617.38	1730.53
617.57	1763.30
617.76	1755.11
617.95	1830.88
618.15	1710.05
618.34	1845.22
618.53	1683.43
618.72	1779.68
618.91	1761.25
619.10	1753.06
619.29	1705.96
619.48	1703.91
619.68	1652.71
619.87	1701.86
620.06	1599.46
620.25	1789.92
620.44	1734.63
620.63	1705.96
620.82	1695.72
621.01	1683.43
621.20	1775.59
621.39	1730.53
621.59	1710.05
621.78	1732.58
621.97	1695.72
622.16	1818.60
622.35	1632.23
622.54	1660.90
622.73	1851.36
622.92	1671.14
623.11	1773.54
623.30	1703.91
623.49	1748.97
623.68	1699.81
623.88	1804.26
624.07	1683.43
624.26	1759.21
624.45	1791.97
624.64	1648.61
624.83	1828.84
625.02	1689.57
625.21	1697.77
625.40	1757.16
625.59	1796.07
625.78	1677.29
625.97	1705.96
626.16	1816.55
626.35	1734.63
626.54	1679.33
626.74	1806.31
626.93	1720.29
627.12	1710.05
627.31	1779.68
627.50	1703.91
627.69	1814.50
627.88	1705.96
628.07	1736.68
628.26	1599.46
628.45	1662.95
628.64	1730.53
628.83	1671.14
629.02	1615.85
629.21	1697.77
629.40	1734.63
629.59	1665.00
629.78	1681.38
629.97	1769.44
630.16	1730.53
630.35	1730.53
630.54	1722.34
630.73	1646.57
630.92	1806.31
631.11	1636.33
631.30	1775.59
631.49	1839.08
631.68	1701.86
631.87	1714.15
632.06	1644.52
632.25	1873.89
632.44	1677.29
632.63	1677.29
632.82	1656.81
633.01	1718.25
633.20	1675.24
633.39	1701.86
633.58	1632.23
633.77	1771.49
633.96	1712.10
634.15	1738.73
634.34	1742.82
634.53	1705.96
634.72	1689.57
634.91	1558.50
635.10	1699.81
635.29	1730.53
635.48	1673.19
635.67	1708.01
635.86	1650.66
636.05	1853.41
636.24	1699.81
636.43	1771.49
636.62	1744.87
636.81	1587.18
637.00	1705.96
637.19	1716.20
637.38	1759.21
637.57	1697.77
637.76	1673.19
637.95	1757.16
638.14	1632.23
638.33	1736.68
638.52	1687.53
638.71	1689.57
638.89	1675.24
639.08	1820.64
639.27	1751.01
639.46	1691.62
639.65	1818.60
639.84	1742.82
640.03	1724.39
640.22	1771.49
640.41	1755.11
640.60	1681.38
640.79	1671.14
640.98	1667.05
641.17	1800.16
641.36	1720.29
641.55	1720.29
641.74	1640.42
641.92	1591.27
642.11	1677.29
642.30	1742.82
642.49	1650.66
642.68	1726.44
642.87	1673.19
643.06	1748.97
643.25	1705.96
643.44	1644.52
643.63	1736.68
643.82	1751.01
644.00	1794.02
644.19	1656.81
644.38	1667.05
644.57	1710.05
644.76	1771.49
644.95	1730.53
645.14	1771.49
645.33	1693.67
645.52	1724.39
645.71	1675.24
645.89	1587.18
646.08	1722.34
646.27	1609.70
646.46	1845.22
646.65	1603.56
646.84	1761.25
647.03	1640.42
647.22	1767.40
647.40	1714.15
647.59	1699.81
647.78	1679.33
647.97	1712.10
648.16	1636.33
648.35	1769.44
648.54	1755.11
648.73	1673.19
648.91	1736.68
649.10	1773.54
649.29	1673.19
649.48	1726.44
649.67	1697.77
649.86	1759.21
650.05	1671.14
650.23	1660.90
650.42	1701.86
650.61	1687.53
650.80	1798.12
650.99	1771.49
651.18	1757.16
651.36	1718.25
651.55	1710.05
651.74	1751.01
651.93	1656.81
652.12	1718.25
652.31	1769.44
652.49	1722.34
652.68	1677.29
652.87	1763.30
653.06	1800.16
653.25	1806.31
653.44	1693.67
653.62	1775.59
653.81	1646.57
654.00	1722.34
654.19	1738.73
654.38	1806.31
654.56	1763.30
654.75	1703.91
654.94	1755.11
655.13	1751.01
655.32	1662.95
655.51	1765.35
655.69	1667.05
655.88	1720.29
656.07	1636.33
656.26	1767.40
656.45	1609.70
656.63	1685.48
656.82	1783.78
657.01	1830.88
657.20	1679.33
657.38	1824.74
657.57	1714.15
657.76	1566.70
657.95	1796.07
658.14	1656.81
658.32	1726.44
658.51	1619.94
658.70	1767.40
658.89	1656.81
659.08	1632.23
659.26	1763.30
659.45	1691.62
659.64	1722.34
659.83	1720.29
660.01	1976.29
660.20	1710.05
660.39	1820.64
660.58	1554.41
660.76	1726.44
660.95	1660.90
661.14	1705.96
661.33	1697.77
661.51	1703.91
661.70	1738.73
661.89	1703.91
662.08	1695.72
662.26	1677.29
662.45	1652.71
662.64	1781.73
662.83	1839.08
663.01	1654.76
663.20	1675.24
663.39	1814.50
663.58	1648.61
663.76	1687.53
663.95	1761.25
664.14	1595.37
664.32	1640.42
664.51	1650.66
664.70	1654.76
664.89	1732.58
665.07	1611.75
665.26	1796.07
665.45	1615.85
665.64	1759.21
665.82	1695.72
666.01	1798.12
666.20	1650.66
666.38	1771.49
666.57	1798.12
666.76	2197.47
666.95	4386.75
667.13	10493.79
667.32	15353.62
667.51	17729.27
667.69	19248.86
667.88	17770.22
668.07	12500.80
668.25	9592.69
668.44	8120.20
668.63	7329.68
668.81	6805.40
669.00	6268.83
669.19	5568.43
669.38	5095.35
669.56	4560.83
669.75	4112.32
669.94	3534.79
670.12	2836.44
670.31	2500.57
670.50	2324.44
670.68	2078.69
670.87	1918.95
671.06	1841.12
671.24	1843.17
671.43	1869.80
671.62	1724.39
671.80	1699.81
671.99	1763.30
672.18	1726.44
672.36	1767.40
672.55	1742.82
672.74	1669.09
672.92	1675.24
673.11	1746.92
673.29	1642.47
673.48	1722.34
673.67	1724.39
673.85	1759.21
674.04	1708.01
674.23	1685.48
674.41	1834.98
674.60	1665.00
674.79	1662.95
674.97	1621.99
675.16	1720.29
675.34	1785.83
675.53	1677.29
675.72	1671.14
675.90	1796.07
676.09	1652.71
676.28	1703.91
676.46	1665.00
676.65	1740.77
676.83	1599.46
677.02	1658.85
677.21	1660.90
677.39	1746.92
677.58	1681.38
677.77	1675.24
677.95	1722.34
678.14	1652.71
678.32	1736.68
678.51	1648.61
678.70	1775.59
678.88	1679.33
679.07	1697.77
679.25	1701.86
679.44	1683.43
679.63	1646.57
679.81	1628.14
680.00	1703.91
680.18	1767.40
680.37	1818.60
680.55	1712.10
680.74	1677.29
680.93	1615.85
681.11	1724.39
681.30	1587.18
681.48	1714.15
681.67	1708.01
681.85	1648.61
682.04	1667.05
682.23	1720.29
682.41	1732.58
682.60	1652.71
682.78	1667.05
682.97	1687.53
683.15	1669.09
683.34	1646.57
683.53	1830.88
683.71	1636.33
683.90	1806.31
684.08	1796.07
684.27	1626.09
684.45	1734.63
684.64	1771.49
684.82	1665.00
685.01	1720.29
685.19	1689.57
685.38	1789.92
685.57	1681.38
685.75	1662.95
685.94	1685.48
686.12	1665.00
686.31	1804.26
686.49	1787.88
686.68	1560.55
686.86	1802.21
687.05	1748.97
687.23	1853.41
687.42	1665.00
687.60	1556.46
687.79	1732.58
687.97	1753.06
688.16	1794.02
688.34	1791.97
688.53	1689.57
688.71	1726.44
688.90	1705.96
689.08	1667.05
689.27	1560.55
689.45	1816.55
689.64	1746.92
689.82	1720.29
690.01	1787.88
690.19	1808.36
690.38	1728.49
690.56	1787.88
690.75	1611.75
690.93	1624.04
691.12	1644.52
691.30	1681.38
691.49	1640.42
691.67	1744.87
691.86	1834.98
692.04	1648.61
692.23	1728.49
692.41	1654.76
692.60	1791.97
692.78	1658.85
692.97	1667.05
693.15	1667.05
693.34	1796.07
693.52	1732.58
693.71	1613.80
693.89	1619.94
694.08	1613.80
694.26	1755.11
694.44	1769.44
694.63	1732.58
694.81	1691.62
695.00	1642.47
695.18	1839.08
695.37	1875.94
695.55	1818.60
695.74	1648.61
695.92	1669.09
696.10	1773.54
696.29	1597.42
696.47	1658.85
696.66	1628.14
696.84	1656.81
697.03	1722.34
697.21	1810.40
697.40	2318.30
697.58	1751.01
697.76	1685.48
697.95	1628.14
698.13	1660.90
698.32	1652.71
698.50	1662.95
698.68	1701.86
698.87	1656.81
699.05	1787.88
699.24	1691.62
699.42	1593.32
699.61	1730.53
699.79	1716.20
699.97	1748.97
700.16	1650.66
700.34	1593.32
700.53	1787.88
700.71	1818.60
700.89	1757.16
701.08	1716.20
701.26	1716.20
701.45	2125.79
701.63	1699.81
701.81	1638.38
702.00	1634.28
702.18	1695.72
702.37	1644.52
702.55	1701.86
702.73	1714.15
702.92	1732.58
703.10	1697.77
703.28	1716.20
703.47	1611.75
703.65	1751.01
703.84	1736.68
704.02	1722.34
704.20	1742.82
704.39	1621.99
704.57	1658.85
704.75	1748.97
704.94	1697.77
705.12	1767.40
705.30	1753.06
705.49	2217.95
705.67	4233.15
705.86	9486.19
706.04	12721.98
706.22	14534.43
706.41	15476.50
706.59	14042.92
706.77	9734.00
706.96	7458.70
707.14	6662.04
707.32	6090.66
707.51	5574.57
707.69	4876.21
707.87	4315.07
708.06	3502.03
708.24	2969.55
708.42	2510.81
708.61	2242.53
708.79	1894.37
708.97	1855.46
709.16	1916.90
709.34	1841.12
709.52	1728.49
709.71	1740.77
709.89	1699.81
710.07	1648.61
710.26	1705.96
710.44	1714.15
710.62	1746.92
710.80	1648.61
710.99	1705.96
711.17	1767.40
711.35	1656.81
711.54	1656.81
711.72	1798.12
711.90	1742.82
712.09	1703.91
712.27	1679.33
712.45	1624.04
712.63	1671.14
712.82	1644.52
713.00	1720.29
713.18	1638.38
713.37	1751.01
713.55	1732.58
713.73	1763.30
713.91	1746.92
714.10	1763.30
714.28	1722.34
714.46	1714.15
714.65	1650.66
714.83	1701.86
715.01	1652.71
715.19	1648.61
715.38	1642.47
715.56	1720.29
715.74	1687.53
715.92	1607.66
716.11	1800.16
716.29	1556.46
716.47	1656.81
716.65	1728.49
716.84	1521.64
717.02	1763.30
717.20	1613.80
717.38	1697.77
717.57	1716.20
717.75	1732.58
717.93	1722.34
718.11	1873.89
718.30	1632.23
718.48	1712.10
718.66	1759.21
718.84	1757.16
719.03	1648.61
719.21	1626.09
719.39	1775.59
719.57	1730.53
719.75	1728.49
719.94	1648.61
720.12	1701.86
720.30	1681.38
720.48	1687.53
720.67	1669.09
720.85	1632.23
721.03	1648.61
721.21	1677.29
721.39	1779.68
721.58	1748.97
721.76	1708.01
721.94	1724.39
722.12	1740.77
722.30	1861.60
722.49	1705.96
722.67	1673.19
722.85	1746.92
723.03	1671.14
723.21	1689.57
723.40	1716.20
723.58	1703.91
723.76	1705.96
723.94	1806.31
724.12	1722.34
724.30	1751.01
724.49	1808.36
724.67	1673.19
724.85	1773.54
725.03	1583.08
725.21	1783.78
725.40	1779.68
725.58	1642.47
725.76	1791.97
725.94	1740.77
726.12	1683.43
726.30	1640.42
726.49	1683.43
726.67	1656.81
726.85	1796.07
727.03	1781.73
727.21	2230.24
727.39	2918.36
727.57	3825.61
727.76	4161.47
727.94	4429.76
728.12	4212.67
728.30	3803.08
728.48	2832.34
728.66	2662.36
728.84	2471.90
729.03	2338.78
729.21	2160.61
729.39	2033.63
729.57	1867.75
729.75	1908.71
729.93	1861.60
730.11	1718.25
730.30	1718.25
730.48	1730.53
730.66	1834.98
730.84	1779.68
731.02	1642.47
731.20	1718.25
731.38	1714.15
731.56	1665.00
731.74	1730.53
731.93	1728.49
732.11	1708.01
732.29	1673.19
732.47	1796.07
732.65	1730.53
732.83	1708.01
733.01	1730.53
733.19	1703.91
733.37	1705.96
733.56	1734.63
733.74	1595.37
733.92	1763.30
734.10	1685.48
734.28	1744.87
734.46	1570.79
734.64	1660.90
734.82	1705.96
735.00	1683.43
735.18	1621.99
735.36	1736.68
735.54	1695.72
735.73	1665.00
735.91	1669.09
736.09	1738.73
736.27	1685.48
736.45	1753.06
736.63	1699.81
736.81	1667.05
736.99	1781.73
737.17	1841.12
737.35	1685.48
737.53	1667.05
737.71	1675.24
737.89	1785.83
738.07	1656.81
738.25	1632.23
738.43	1656.81
738.61	1712.10
738.80	1654.76
738.98	1597.42
739.16	1685.48
739.34	1691.62
739.52	1794.02
739.70	1640.42
739.88	1724.39
740.06	1703.91
740.24	1613.80
740.42	1732.58
740.60	1671.14
740.78	1624.04
740.96	1675.24
741.14	1568.74
741.32	1689.57
741.50	1626.09
741.68	1837.03
741.86	1808.36
742.04	1677.29
742.22	1658.85
742.40	1724.39
742.58	1699.81
742.76	1609.70
742.94	1761.25
743.12	1599.46
743.30	1718.25
743.48	1695.72
743.66	1640.42
743.84	1728.49
744.02	1732.58
744.20	1650.66
744.38	1621.99
744.56	1681.38
744.74	1822.69
744.92	1699.81
745.10	1814.50
745.28	1732.58
745.46	1785.83
745.64	1722.34
745.82	1757.16
746.00	1671.14
746.18	1691.62
746.36	1650.66
746.54	1730.53
746.72	1724.39
746.90	1617.90
747.08	1789.92
747.26	1677.29
747.44	1695.72
747.62	1705.96
747.80	1730.53
747.98	1742.82
748.15	1742.82
748.33	1765.35
748.51	1691.62
748.69	1677.29
748.87	1667.05
749.05	1712.10
749.23	1714.15
749.41	1726.44
749.59	1660.90
749.77	1777.64
749.95	1751.01
750.13	1613.80
750.31	1763.30
750.49	1716.20
750.67	1742.82
750.85	1826.79
751.03	1751.01
751.20	1796.07
751.38	1724.39
751.56	1703.91
751.74	1705.96
751.92	1665.00
752.10	1624.04
752.28	1730.53
752.46	1656.81
752.64	1634.28
752.82	1705.96
753.00	1775.59
753.18	1597.42
753.35	1716.20
753.53	1722.34
753.71	1677.29
753.89	1804.26
754.07	1712.10
754.25	1730.53
754.43	1705.96
754.61	1640.42
754.79	1751.01
754.97	1710.05
755.14	1834.98
755.32	1714.15
755.50	1605.61
755.68	1718.25
755.86	1683.43
756.04	1685.48
756.22	1605.61
756.40	1775.59
756.57	1847.27
756.75	1667.05
756.93	1810.40
757.11	1708.01
757.29	1621.99
757.47	1654.76
757.65	1636.33
757.82	1603.56
758.00	1652.71
758.18	1638.38
758.36	1697.77
758.54	1796.07
758.72	1693.67
758.90	1783.78
759.07	1751.01
759.25	1662.95
759.43	1683.43
759.61	1593.32
759.79	2197.47
759.97	1775.59
760.15	1806.31
760.32	1722.34
760.50	1714.15
760.68	1779.68
760.86	1609.70
761.04	1738.73
761.22	1759.21
761.39	1701.86
761.57	1783.78
761.75	1660.90
761.93	1720.29
762.11	1636.33
762.28	1722.34
762.46	1656.81
762.64	1791.97
762.82	1589.22
763.00	1689.57
763.18	1742.82
763.35	1681.38
763.53	1757.16
763.71	1675.24
763.89	1609.70
764.07	1656.81
764.24	1734.63
764.42	1718.25
764.60	1716.20
764.78	1697.77
764.96	1730.53
765.13	1718.25
765.31	1712.10
765.49	1730.53
765.67	1603.56
765.84	1656.81
766.02	1687.53
766.20	1621.99
766.38	1759.21
766.56	1755.11
766.73	1728.49
766.91	1656.81
767.09	1667.05
767.27	1765.35
767.44	1632.23
767.62	1710.05
767.80	1753.06
767.98	1718.25
768.15	1697.77
768.33	1673.19
768.51	1785.83
768.69	1804.26
768.87	1724.39
769.04	1712.10
769.22	1834.98
769.40	1802.21
769.58	1763.30
769.75	1736.68
769.93	1757.16
770.11	1685.48
770.28	1652.71
770.46	1669.09
770.64	1771.49
770.82	1617.90
770.99	1714.15
771.17	1701.86
771.35	1677.29
771.53	1617.90
771.70	1716.20
771.88	1705.96
772.06	1650.66
772.23	1640.42
772.41	1787.88
772.59	1734.63
772.77	1689.57
772.94	1656.81
773.12	1744.87
773.30	1691.62
773.47	1658.85
773.65	1728.49
773.83	1791.97
774.01	1665.00
774.18	1626.09
774.36	1726.44
774.54	1632.23
774.71	1763.30
774.89	1560.55
775.07	1581.03
775.24	1753.06
775.42	1669.09
775.60	1679.33
775.78	1650.66
775.95	1658.85
776.13	1542.12
776.31	1550.31
776.48	1746.92
776.66	1804.26
776.84	1732.58
777.01	1699.81
777.19	1650.66
777.37	1605.61
777.54	1783.78
777.72	1757.16
777.90	1689.57
778.07	1738.73
778.25	1832.93
778.43	1730.53
778.60	1617.90
778.78	1691.62
778.96	1751.01
779.13	1638.38
779.31	1751.01
779.49	1751.01
779.66	1708.01
779.84	1640.42
780.01	1665.00
780.19	1599.46
780.37	1732.58
780.54	1734.63
780.72	1726.44
780.90	1732.58
781.07	1701.86
781.25	1603.56
781.43	1759.21
781.60	1767.40
781.78	1720.29
781.95	1718.25
782.13	1595.37
782.31	1691.62
782.48	1613.80
782.66	1718.25
782.83	1779.68
783.01	1705.96
783.19	1685.48
783.36	1665.00
783.54	1617.90
783.72	1826.79
783.89	1679.33
784.07	1730.53
784.24	1765.35
784.42	1759.21
784.60	1669.09
784.77	1779.68
784.95	1615.85
785.12	1714.15
785.30	1685.48
785.47	1671.14
785.65	1578.98
785.83	1681.38
786.00	1662.95
786.18	1705.96
786.35	1619.94
786.53	1576.94
786.71	1853.41
786.88	1769.44
787.06	1759.21
787.23	1699.81
787.41	1599.46
787.58	1722.34
787.76	1585.13
787.94	1624.04
788.11	1708.01
788.29	1615.85
788.46	1576.94
788.64	1658.85
788.81	1673.19
788.99	1722.34
789.16	1607.66
789.34	1740.77
789.52	1648.61
789.69	1689.57
789.87	1570.79
790.04	1640.42
790.22	1759.21
790.39	1794.02
790.57	1732.58
790.74	1714.15
790.92	1708.01
791.09	1589.22
791.27	1607.66
791.44	1757.16
791.62	1710.05
791.79	1753.06
791.97	1648.61
792.15	1884.13
792.32	1685.48
792.50	1724.39
792.67	1794.02
792.85	1753.06
793.02	1654.76
793.20	1722.34
793.37	1599.46
793.55	1718.25
793.72	1650.66
793.90	1736.68
794.07	1673.19
794.25	1566.70
794.42	1712.10
794.60	1722.34
794.77	1683.43
794.95	1681.38
795.12	1720.29
795.30	1665.00
795.47	1621.99
795.65	1806.31
795.82	1730.53
796.00	1732.58
796.17	1677.29
796.34	1755.11
796.52	1644.52
796.69	1705.96
796.87	1802.21
797.04	1662.95
797.22	1740.77
797.39	1765.35
797.57	1724.39
797.74	1771.49
797.92	1681.38
798.09	1656.81
798.27	1818.60
798.44	1763.30
798.62	1574.89
798.79	1708.01
798.96	1722.34
799.14	1652.71
799.31	1824.74
799.49	1691.62
799.66	1716.20
799.84	1689.57
800.01	1642.47
800.19	1728.49
800.36	1648.61
800.53	1740.77
800.71	1767.40
800.88	1691.62
801.06	1658.85
801.23	1662.95
801.41	1642.47
801.58	1728.49
801.75	1705.96
801.93	1685.48
802.10	1648.61
802.28	1673.19
802.45	1638.38
802.63	1697.77
802.80	1705.96
802.97	1650.66
803.15	1648.61
803.32	1665.00
803.50	1656.81
803.67	1695.72
803.84	1609.70
804.02	1734.63
804.19	1738.73
804.37	1585.13
804.54	1638.38
804.71	1615.85
804.89	1658.85
805.06	1611.75
805.24	1605.61
805.41	1658.85
805.58	1746.92
805.76	1775.59
805.93	1650.66
806.10	1853.41
806.28	1697.77
806.45	1699.81
806.63	1726.44
806.80	1771.49
806.97	1763.30
807.15	1693.67
807.32	1683.43
807.49	1755.11
807.67	1644.52
807.84	1757.16
808.01	1578.98
808.19	1818.60
808.36	1832.93
808.54	1699.81
808.71	1736.68
808.88	1767.40
809.06	1742.82
809.23	1798.12
809.40	1662.95
809.58	1724.39
809.75	1708.01
809.92	1613.80
810.10	1794.02
810.27	1693.67
810.44	1734.63
810.62	1722.34
810.79	1714.15
810.96	1714.15
811.14	1628.14
811.31	1732.58
811.48	1658.85
811.66	1730.53
811.83	1761.25
812.00	1757.16
812.18	1794.02
812.35	1814.50
812.52	1701.86
812.69	1613.80
812.87	1724.39
813.04	1687.53
813.21	1630.18
813.39	1759.21
813.56	1599.46
813.73	1789.92
813.91	1685.48
814.08	1705.96
814.25	1644.52
814.42	1566.70
814.60	1654.76
814.77	1699.81
814.94	1640.42
815.12	1757.16
815.29	1787.88
815.46	1626.09
815.63	1636.33
815.81	1648.61
815.98	1687.53
816.15	1753.06
816.33	1669.09
816.50	1701.86
816.67	1714.15
816.84	1724.39
817.02	1572.84
817.19	1665.00
817.36	1705.96
817.53	1728.49
817.71	1673.19
817.88	1742.82
818.05	1685.48
818.22	1708.01
818.40	1812.45
818.57	1730.53
818.74	1658.85
818.91	1687.53
819.09	1710.05
819.26	1718.25
819.43	1597.42
819.60	1701.86
819.78	1712.10
819.95	1816.55
820.12	1607.66
820.29	1744.87
820.47	1724.39
820.64	1677.29
820.81	1693.67
820.98	1687.53
821.15	1640.42
821.33	1742.82
821.50	1560.55
821.67	1697.77
821.84	1722.34
822.02	1677.29
822.19	1755.11
822.36	1726.44
822.53	1671.14
822.70	1701.86
822.88	1640.42
823.05	1701.86
823.22	1693.67
823.39	1665.00
823.56	1593.32
823.74	1830.88
823.91	1517.54
824.08	1576.94
824.25	1667.05
824.42	1820.64
824.60	1595.37
824.77	1775.59
824.94	1617.90
825.11	1691.62
825.28	1660.90
825.45	1683.43
825.63	1742.82
825.80	1650.66
825.97	1705.96
826.14	1710.05
826.31	1572.84
826.48	1738.73
826.66	1667.05
826.83	1613.80
827.00	1689.57
827.17	1648.61
827.34	1665.00
827.51	1658.85
827.69	1751.01
827.86	1638.38
828.03	1736.68
828.20	1617.90
828.37	1630.18
828.54	1724.39
828.71	1656.81
828.89	1748.97
829.06	1699.81
829.23	1714.15
829.40	1609.70
829.57	1697.77
829.74	1710.05
829.91	1589.22
830.09	1689.57
830.26	1691.62
830.43	1789.92
830.60	1677.29
830.77	1738.73
830.94	1728.49
831.11	1773.54
831.28	1681.38
831.46	1685.48
831.63	1660.90
831.80	1761.25
831.97	1634.28
832.14	1613.80
832.31	1742.82
832.48	1675.24
832.65	1820.64
832.82	1683.43
832.99	1673.19
833.17	1675.24
833.34	1789.92
833.51	1724.39
833.68	1648.61
833.85	1769.44
834.02	1648.61
834.19	1703.91
834.36	1697.77
834.53	1648.61
834.70	1753.06
834.87	1806.31
835.04	1722.34
835.22	1685.48
835.39	1656.81
835.56	1654.76
835.73	1689.57
835.90	1808.36
836.07	1652.71
836.24	1730.53
836.41	1650.66
836.58	1589.22
836.75	1726.44
836.92	1654.76
837.09	1705.96
837.26	1748.97
837.43	1738.73
837.60	1714.15
837.77	1705.96
837.94	1695.72
838.12	1837.03
838.29	1740.77
838.46	1710.05
838.63	1630.18
838.80	1771.49
838.97	1775.59
839.14	1648.61
839.31	1695.72
839.48	1763.30
839.65	1683.43
839.82	1767.40
839.99	1650.66
840.16	1834.98
840.33	1589.22
840.50	1783.78
840.67	1578.98
840.84	1624.04
841.01	1767.40
841.18	1660.90
841.35	1699.81
841.52	1712.10
841.69	1873.89
841.86	1687.53
842.03	1734.63
842.20	1685.48
842.37	1720.29
842.54	1636.33
842.71	1644.52
842.88	1679.33
843.05	1763.30
843.22	1595.37
843.39	1769.44
843.56	1722.34
843.73	1726.44
843.90	1624.04
844.07	1626.09
844.24	1722.34
844.41	1714.15
844.58	1660.90
844.75	1710.05
844.92	1689.57
845.09	1660.90
845.26	1611.75
845.43	1619.94
845.60	1662.95
845.77	1755.11
845.94	1718.25
846.10	1718.25
846.27	1615.85
846.44	1646.57
846.61	1576.94
846.78	1638.38
846.95	1673.19
847.12	1652.71
847.29	1656.81
847.46	1615.85
847.63	1697.77
847.80	1652.71
847.97	1675.24
848.14	1820.64
848.31	1705.96
848.48	1677.29
848.65	1746.92
848.82	1662.95
848.98	1755.11
849.15	1685.48
849.32	1732.58
849.49	1734.63
849.66	1726.44
849.83	1685.48
850.00	1628.14
850.17	1728.49
850.34	1716.20
850.51	1662.95
850.68	1740.77
850.85	1882.08
851.01	1767.40
851.18	1724.39
851.35	1621.99
851.52	1693.67
851.69	1828.84
851.86	1654.76
852.03	1644.52
852.20	1710.05
852.37	1773.54
852.53	1621.99
852.70	1667.05
852.87	1722.34
853.04	1708.01
853.21	1701.86
853.38	1718.25
853.55	1808.36
853.72	1679.33
853.89	1662.95
854.05	1650.66
854.22	1740.77
854.39	1693.67
854.56	1691.62
854.73	1757.16
854.90	1656.81
855.07	1693.67
855.23	1636.33
855.40	1689.57
855.57	1595.37
855.74	1576.94
855.91	1812.45
856.08	1630.18
856.25	1587.18
856.41	1685.48
856.58	1642.47
856.75	1701.86
856.92	1605.61
857.09	1691.62
857.26	1603.56
857.42	1708.01
857.59	1773.54
857.76	1673.19
857.93	1695.72
858.10	1828.84
858.27	1646.57
858.43	1724.39
858.60	1656.81
858.77	1558.50
858.94	1701.86
859.11	1679.33
859.27	1736.68
859.44	1656.81
859.61	1843.17
859.78	1734.63
859.95	1705.96
860.12	1646.57
860.28	1834.98
860.45	1791.97
860.62	1644.52
860.79	1640.42
860.95	1710.05
861.12	1638.38
861.29	1662.95
861.46	1603.56
861.63	1656.81
861.79	1671.14
861.96	1591.27
862.13	1675.24
862.30	1751.01
862.47	1701.86
862.63	1673.19
862.80	1798.12
862.97	1791.97
863.14	1718.25
863.30	1677.29
863.47	1607.66
863.64	1832.93
863.81	1644.52
863.97	1701.86
864.14	1681.38
864.31	1683.43
864.48	1730.53
864.65	1660.90
864.81	1695.72
864.98	1759.21
865.15	1734.63
865.32	1744.87
865.48	1814.50
865.65	1697.77
865.82	1658.85
865.98	1673.19
866.15	1755.11
866.32	1705.96
866.49	1683.43
866.65	1714.15
866.82	1564.65
866.99	1742.82
867.16	1689.57
867.32	1642.47
867.49	1662.95
867.66	1724.39
867.83	1691.62
867.99	1619.94
868.16	1712.10
868.33	1669.09
868.49	1781.73
868.66	1665.00
868.83	1757.16
868.99	1781.73
869.16	1701.86
869.33	1751.01
869.50	1671.14
869.66	1687.53
869.83	1624.04
870.00	1656.81
870.16	1734.63
870.33	1724.39
870.50	1718.25
870.66	1624.04
870.83	1902.56
871.00	1699.81
871.17	1724.39
871.33	1724.39
871.50	1656.81
871.67	1746.92
871.83	1585.13
872.00	1820.64
872.17	1693.67
872.33	1791.97
872.50	1740.77
872.67	1677.29
872.83	1646.57
873.00	1724.39
873.17	1671.14
873.33	1689.57
873.50	1699.81
873.67	1646.57
873.83	1697.77
874.00	1697.77
874.16	1718.25
874.33	1738.73
874.50	1662.95
874.66	1689.57
874.83	1728.49
875.00	1763.30
875.16	1693.67
875.33	1837.03
875.50	1601.51
875.66	1712.10
875.83	1699.81
875.99	1769.44
876.16	1675.24
876.33	1626.09
876.49	1699.81
876.66	1781.73
876.83	1720.29
876.99	1624.04
877.16	1681.38
877.32	1708.01
877.49	1669.09
877.66	1736.68
877.82	1742.82
877.99	1710.05
878.15	1783.78
878.32	1615.85
878.49	1619.94
878.65	1665.00
878.82	1814.50
878.98	1695.72
879.15	1685.48
879.32	1751.01
879.48	1693.67
879.65	1632.23
879.81	1654.76
879.98	1701.86
880.15	1595.37
880.31	1748.97
880.48	1701.86
880.64	1710.05
880.81	1753.06
880.97	1757.16
881.14	1816.55
881.31	1617.90
881.47	1828.84
881.64	1636.33
881.80	1591.27
881.97	1742.82
882.13	1730.53
882.30	1558.50
882.47	1679.33
882.63	1755.11
882.80	1675.24
882.96	1708.01
883.13	1746.92
883.29	1646.57
883.46	1656.81
883.62	1810.40
883.79	1794.02
883.95	1710.05
884.12	1804.26
884.29	1734.63
884.45	1673.19
884.62	1759.21
884.78	1624.04
884.95	1800.16
885.11	1687.53
885.28	1728.49
885.44	1687.53
885.61	1652.71
885.77	1832.93
885.94	1683.43
886.10	1624.04
886.27	1785.83
886.43	1734.63
886.60	1777.64
886.76	1613.80
886.93	1681.38
887.09	1748.97
887.26	1665.00
887.42	1730.53
887.59	1701.86
887.75	1828.84
887.92	1765.35
888.08	1730.53
888.25	1822.69
888.41	1746.92
888.58	1746.92
888.74	1640.42
888.91	1630.18
>>>>>End Processed Spectral Data<<<<<
