SpectraSuite Data File
++++++++++++++++++++++++++++++++++++
Date: Mon Jun 06 12:19:37 CEST 2016
User: root
Dark Spectrum Present: No
Reference Spectrum Present: No
Number of Sampled Component Spectra: 1
Spectrometers: USB4C02835
Integration Time (usec): 100000 (USB4C02835)
Spectra Averaged: 1 (USB4C02835)
Boxcar Smoothing: 0 (USB4C02835)
Correct for Electrical Dark: No (USB4C02835)
Strobe/Lamp Enabled: No (USB4C02835)
Correct for Detector Non-linearity: No (USB4C02835)
Correct for Stray Light: No (USB4C02835)
Number of Pixels in Processed Spectrum: 3648
>>>>>Begin Processed Spectral Data<<<<<
177.47	1380.33
177.69	1380.33
177.91	1380.33
178.13	1484.78
178.36	1497.07
178.58	1589.22
178.80	1640.42
179.02	1671.14
179.24	1626.09
179.46	1730.53
179.68	1687.53
179.90	1718.25
180.13	1644.52
180.35	1669.09
180.57	1705.96
180.79	1710.05
181.01	1677.29
181.23	1724.39
181.45	1771.49
181.67	1660.90
181.90	1724.39
182.12	1611.75
182.34	1646.57
182.56	1665.00
182.78	1773.54
183.00	1748.97
183.22	1607.66
183.44	1638.38
183.66	1824.74
183.89	1796.07
184.11	1763.30
184.33	1689.57
184.55	1802.21
184.77	1751.01
184.99	1755.11
185.21	1615.85
185.43	1837.03
185.65	1712.10
185.87	1691.62
186.10	1773.54
186.32	1800.16
186.54	1714.15
186.76	1814.50
186.98	1783.78
187.20	1621.99
187.42	1687.53
187.64	1701.86
187.86	1816.55
188.08	1757.16
188.30	1732.58
188.52	1734.63
188.75	1767.40
188.97	1734.63
189.19	1624.04
189.41	1714.15
189.63	1783.78
189.85	1636.33
190.07	1593.32
190.29	1630.18
190.51	1681.38
190.73	1556.46
190.95	1849.32
191.17	1705.96
191.39	1583.08
191.61	1617.90
191.84	1681.38
192.06	1744.87
192.28	1640.42
192.50	1857.51
192.72	1708.01
192.94	1665.00
193.16	1716.20
193.38	1701.86
193.60	1687.53
193.82	1683.43
194.04	1656.81
194.26	1722.34
194.48	1646.57
194.70	1626.09
194.92	1660.90
195.14	1697.77
195.36	1640.42
195.58	1683.43
195.80	1615.85
196.02	1701.86
196.24	1716.20
196.46	1769.44
196.69	1744.87
196.91	1839.08
197.13	1669.09
197.35	1609.70
197.57	1720.29
197.79	1751.01
198.01	1681.38
198.23	1697.77
198.45	1730.53
198.67	1617.90
198.89	1665.00
199.11	1767.40
199.33	1681.38
199.55	1550.31
199.77	1650.66
199.99	1712.10
200.21	1746.92
200.43	1701.86
200.65	1617.90
200.87	1607.66
201.09	1675.24
201.31	1724.39
201.53	1759.21
201.75	1732.58
201.97	1665.00
202.19	1685.48
202.41	1691.62
202.63	1785.83
202.85	1753.06
203.07	1736.68
203.29	1658.85
203.51	1646.57
203.73	1646.57
203.95	1800.16
204.17	1691.62
204.39	1740.77
204.61	1685.48
204.83	1683.43
205.05	1773.54
205.27	1751.01
205.49	1791.97
205.71	1787.88
205.93	1624.04
206.15	1710.05
206.37	1658.85
206.59	1701.86
206.81	1708.01
207.03	1687.53
207.25	1638.38
207.47	1724.39
207.69	1568.74
207.91	1675.24
208.13	1726.44
208.34	1615.85
208.56	1628.14
208.78	1789.92
209.00	1638.38
209.22	1681.38
209.44	1669.09
209.66	1640.42
209.88	1685.48
210.10	1648.61
210.32	1665.00
210.54	1761.25
210.76	1644.52
210.98	1695.72
211.20	1591.27
211.42	1732.58
211.64	1753.06
211.86	1755.11
212.08	1763.30
212.30	1675.24
212.52	1734.63
212.74	1665.00
212.96	1660.90
213.17	1722.34
213.39	1697.77
213.61	1751.01
213.83	1742.82
214.05	1714.15
214.27	1708.01
214.49	1605.61
214.71	1671.14
214.93	1783.78
215.15	1722.34
215.37	1783.78
215.59	1566.70
215.81	1671.14
216.03	1740.77
216.24	1667.05
216.46	1673.19
216.68	1718.25
216.90	1732.58
217.12	1773.54
217.34	1687.53
217.56	1634.28
217.78	1783.78
218.00	1738.73
218.22	1689.57
218.44	1759.21
218.66	1765.35
218.87	1753.06
219.09	1640.42
219.31	1671.14
219.53	1708.01
219.75	1646.57
219.97	1701.86
220.19	1718.25
220.41	1722.34
220.63	1789.92
220.85	1757.16
221.06	1607.66
221.28	1826.79
221.50	1685.48
221.72	1660.90
221.94	1648.61
222.16	1701.86
222.38	1710.05
222.60	1779.68
222.82	1665.00
223.03	1763.30
223.25	1732.58
223.47	1710.05
223.69	1783.78
223.91	1689.57
224.13	1748.97
224.35	1644.52
224.57	1787.88
224.78	1738.73
225.00	1683.43
225.22	1581.03
225.44	1681.38
225.66	1730.53
225.88	1656.81
226.10	1701.86
226.32	1626.09
226.53	1775.59
226.75	1611.75
226.97	1705.96
227.19	1603.56
227.41	1642.47
227.63	1673.19
227.85	1619.94
228.06	1710.05
228.28	1701.86
228.50	1679.33
228.72	1638.38
228.94	1693.67
229.16	1593.32
229.37	1611.75
229.59	1611.75
229.81	1740.77
230.03	1673.19
230.25	1595.37
230.47	1673.19
230.69	1642.47
230.90	1724.39
231.12	1683.43
231.34	1697.77
231.56	1722.34
231.78	1566.70
232.00	1757.16
232.21	1660.90
232.43	1665.00
232.65	1648.61
232.87	1693.67
233.09	1603.56
233.30	1613.80
233.52	1773.54
233.74	1681.38
233.96	1626.09
234.18	1605.61
234.40	1646.57
234.61	1865.70
234.83	1595.37
235.05	1665.00
235.27	1789.92
235.49	1779.68
235.70	1722.34
235.92	1783.78
236.14	1777.64
236.36	1933.28
236.58	1607.66
236.79	1757.16
237.01	1669.09
237.23	1646.57
237.45	1816.55
237.67	1744.87
237.88	1648.61
238.10	1832.93
238.32	1652.71
238.54	1665.00
238.76	1681.38
238.97	1703.91
239.19	1667.05
239.41	1771.49
239.63	1794.02
239.85	1697.77
240.06	1691.62
240.28	1636.33
240.50	1728.49
240.72	1701.86
240.93	1701.86
241.15	1722.34
241.37	1673.19
241.59	1816.55
241.81	1660.90
242.02	1738.73
242.24	1734.63
242.46	1691.62
242.68	1662.95
242.89	1705.96
243.11	1771.49
243.33	1669.09
243.55	1722.34
243.76	1720.29
243.98	1658.85
244.20	1708.01
244.42	1695.72
244.64	1724.39
244.85	1568.74
245.07	1724.39
245.29	1755.11
245.51	1697.77
245.72	1654.76
245.94	1726.44
246.16	1671.14
246.38	1689.57
246.59	1648.61
246.81	1591.27
247.03	1705.96
247.24	1665.00
247.46	1615.85
247.68	1734.63
247.90	1710.05
248.11	1697.77
248.33	1748.97
248.55	1699.81
248.77	1708.01
248.98	1720.29
249.20	1818.60
249.42	1671.14
249.64	1732.58
249.85	1669.09
250.07	1695.72
250.29	1796.07
250.50	1765.35
250.72	1691.62
250.94	1699.81
251.16	1763.30
251.37	1783.78
251.59	1714.15
251.81	1654.76
252.02	1751.01
252.24	1652.71
252.46	1867.75
252.68	1593.32
252.89	1685.48
253.11	1550.31
253.33	1742.82
253.54	1794.02
253.76	1576.94
253.98	1681.38
254.20	1738.73
254.41	1658.85
254.63	1705.96
254.85	1640.42
255.06	1726.44
255.28	1656.81
255.50	1701.86
255.71	1673.19
255.93	1613.80
256.15	1669.09
256.36	1689.57
256.58	1734.63
256.80	1689.57
257.02	1656.81
257.23	1705.96
257.45	1691.62
257.67	1701.86
257.88	1679.33
258.10	1673.19
258.32	1708.01
258.53	1730.53
258.75	1810.40
258.97	1767.40
259.18	1679.33
259.40	1701.86
259.62	1853.41
259.83	1744.87
260.05	1679.33
260.27	1927.14
260.48	1775.59
260.70	1689.57
260.92	1630.18
261.13	1714.15
261.35	1691.62
261.57	1601.51
261.78	1640.42
262.00	1656.81
262.22	1720.29
262.43	1646.57
262.65	1652.71
262.86	1673.19
263.08	1861.60
263.30	1673.19
263.51	1517.54
263.73	1734.63
263.95	1808.36
264.16	1595.37
264.38	1708.01
264.60	1695.72
264.81	1693.67
265.03	1771.49
265.25	1757.16
265.46	1722.34
265.68	1738.73
265.89	1687.53
266.11	1558.50
266.33	1779.68
266.54	1779.68
266.76	1693.67
266.98	1734.63
267.19	1740.77
267.41	1701.86
267.62	1683.43
267.84	1593.32
268.06	1791.97
268.27	1701.86
268.49	1771.49
268.70	1757.16
268.92	1726.44
269.14	1609.70
269.35	1662.95
269.57	1691.62
269.79	1738.73
270.00	1681.38
270.22	1730.53
270.43	1667.05
270.65	1546.22
270.87	1703.91
271.08	1658.85
271.30	1802.21
271.51	1660.90
271.73	1759.21
271.95	1794.02
272.16	1656.81
272.38	1730.53
272.59	1728.49
272.81	1771.49
273.02	1597.42
273.24	1699.81
273.46	1677.29
273.67	1630.18
273.89	1705.96
274.10	1724.39
274.32	1726.44
274.54	1726.44
274.75	1712.10
274.97	1673.19
275.18	1685.48
275.40	1736.68
275.61	1685.48
275.83	1771.49
276.05	1611.75
276.26	1685.48
276.48	1724.39
276.69	1638.38
276.91	1689.57
277.12	1787.88
277.34	1740.77
277.55	1697.77
277.77	1636.33
277.99	1656.81
278.20	1615.85
278.42	1634.28
278.63	1640.42
278.85	1652.71
279.06	1630.18
279.28	1697.77
279.49	1691.62
279.71	1710.05
279.93	1615.85
280.14	1685.48
280.36	1648.61
280.57	1710.05
280.79	1734.63
281.00	1669.09
281.22	1705.96
281.43	1734.63
281.65	1599.46
281.86	1656.81
282.08	1722.34
282.29	1775.59
282.51	1662.95
282.73	1667.05
282.94	1642.47
283.16	1720.29
283.37	1794.02
283.59	1691.62
283.80	1693.67
284.02	1609.70
284.23	1720.29
284.45	1697.77
284.66	1587.18
284.88	1642.47
285.09	1759.21
285.31	1681.38
285.52	1673.19
285.74	1624.04
285.95	1710.05
286.17	1730.53
286.38	1671.14
286.60	1615.85
286.81	1673.19
287.03	1720.29
287.24	1720.29
287.46	1632.23
287.67	1716.20
287.89	1796.07
288.10	1697.77
288.32	1658.85
288.53	1783.78
288.75	1603.56
288.96	1775.59
289.18	1675.24
289.39	1681.38
289.61	1757.16
289.82	1785.83
290.04	1798.12
290.25	1662.95
290.47	1699.81
290.68	1673.19
290.90	1785.83
291.11	1640.42
291.33	1740.77
291.54	1662.95
291.76	1597.42
291.97	1789.92
292.18	1744.87
292.40	1671.14
292.61	1648.61
292.83	1771.49
293.04	1681.38
293.26	1697.77
293.47	1689.57
293.69	1652.71
293.90	1675.24
294.12	1771.49
294.33	1744.87
294.55	1634.28
294.76	1708.01
294.97	1777.64
295.19	1800.16
295.40	1572.84
295.62	1675.24
295.83	1730.53
296.05	1644.52
296.26	1800.16
296.48	1613.80
296.69	1718.25
296.90	1644.52
297.12	1751.01
297.33	1697.77
297.55	1718.25
297.76	1703.91
297.98	1718.25
298.19	1734.63
298.41	1681.38
298.62	1671.14
298.83	1814.50
299.05	1718.25
299.26	1677.29
299.48	1667.05
299.69	1718.25
299.90	1730.53
300.12	1583.08
300.33	1722.34
300.55	1708.01
300.76	1701.86
300.98	1658.85
301.19	1730.53
301.40	1730.53
301.62	1734.63
301.83	1703.91
302.05	1681.38
302.26	1722.34
302.47	1730.53
302.69	1624.04
302.90	1710.05
303.12	1548.26
303.33	1701.86
303.54	1839.08
303.76	1644.52
303.97	1720.29
304.19	1748.97
304.40	1603.56
304.61	1759.21
304.83	1816.55
305.04	1759.21
305.26	1734.63
305.47	1687.53
305.68	1644.52
305.90	1644.52
306.11	1734.63
306.33	1738.73
306.54	1697.77
306.75	1581.03
306.97	1583.08
307.18	1619.94
307.39	1687.53
307.61	1730.53
307.82	1705.96
308.04	1740.77
308.25	1671.14
308.46	1650.66
308.68	1677.29
308.89	1697.77
309.10	1648.61
309.32	1726.44
309.53	1646.57
309.74	1574.89
309.96	1658.85
310.17	1740.77
310.39	1593.32
310.60	1665.00
310.81	1685.48
311.03	1595.37
311.24	1751.01
311.45	1701.86
311.67	1796.07
311.88	1722.34
312.09	1636.33
312.31	1652.71
312.52	1593.32
312.73	1716.20
312.95	1683.43
313.16	1599.46
313.37	1824.74
313.59	1689.57
313.80	1730.53
314.01	1755.11
314.23	1615.85
314.44	1642.47
314.65	1605.61
314.87	1681.38
315.08	1683.43
315.29	1669.09
315.51	1638.38
315.72	1585.13
315.93	1775.59
316.15	1740.77
316.36	1677.29
316.57	1703.91
316.79	1695.72
317.00	1652.71
317.21	1730.53
317.43	1665.00
317.64	1689.57
317.85	1574.89
318.07	1640.42
318.28	1798.12
318.49	1738.73
318.70	1927.14
318.92	1828.84
319.13	1779.68
319.34	1773.54
319.56	1816.55
319.77	1787.88
319.98	1767.40
320.20	1767.40
320.41	1683.43
320.62	1753.06
320.83	1693.67
321.05	1849.32
321.26	1701.86
321.47	1695.72
321.69	1781.73
321.90	1587.18
322.11	1644.52
322.32	1771.49
322.54	1818.60
322.75	1679.33
322.96	1832.93
323.18	1656.81
323.39	1570.79
323.60	1675.24
323.81	1767.40
324.03	1611.75
324.24	1701.86
324.45	1646.57
324.66	1718.25
324.88	1763.30
325.09	1853.41
325.30	1671.14
325.52	1675.24
325.73	1705.96
325.94	1710.05
326.15	1554.41
326.37	1601.51
326.58	1742.82
326.79	1730.53
327.00	1673.19
327.22	1740.77
327.43	1630.18
327.64	1556.46
327.85	1769.44
328.07	1736.68
328.28	1744.87
328.49	1597.42
328.70	1599.46
328.92	1681.38
329.13	1746.92
329.34	1724.39
329.55	1726.44
329.76	1693.67
329.98	1742.82
330.19	1730.53
330.40	1720.29
330.61	1755.11
330.83	1710.05
331.04	1660.90
331.25	1710.05
331.46	1665.00
331.68	1650.66
331.89	1746.92
332.10	1665.00
332.31	1671.14
332.52	1679.33
332.74	1781.73
332.95	1611.75
333.16	1718.25
333.37	1687.53
333.58	1593.32
333.80	1644.52
334.01	1689.57
334.22	1701.86
334.43	1615.85
334.64	1699.81
334.86	1621.99
335.07	1630.18
335.28	1796.07
335.49	1605.61
335.70	1710.05
335.92	1798.12
336.13	1800.16
336.34	1656.81
336.55	1775.59
336.76	1654.76
336.98	1615.85
337.19	1705.96
337.40	1794.02
337.61	1837.03
337.82	1689.57
338.04	1791.97
338.25	1613.80
338.46	1679.33
338.67	1636.33
338.88	1669.09
339.09	1599.46
339.31	1568.74
339.52	1671.14
339.73	1720.29
339.94	1632.23
340.15	1763.30
340.36	1611.75
340.58	1654.76
340.79	1673.19
341.00	1681.38
341.21	1650.66
341.42	1808.36
341.63	1691.62
341.85	1763.30
342.06	1732.58
342.27	1621.99
342.48	1705.96
342.69	1640.42
342.90	1724.39
343.12	1693.67
343.33	1693.67
343.54	1769.44
343.75	1849.32
343.96	1691.62
344.17	1660.90
344.38	1718.25
344.60	1648.61
344.81	1621.99
345.02	1667.05
345.23	1771.49
345.44	1820.64
345.65	1748.97
345.86	1667.05
346.07	1708.01
346.29	1648.61
346.50	1685.48
346.71	1691.62
346.92	1724.39
347.13	1755.11
347.34	1740.77
347.55	1714.15
347.76	1783.78
347.98	1667.05
348.19	1789.92
348.40	1769.44
348.61	1628.14
348.82	1781.73
349.03	1753.06
349.24	1636.33
349.45	1734.63
349.66	1632.23
349.88	1757.16
350.09	1673.19
350.30	1933.28
350.51	1716.20
350.72	1652.71
350.93	1683.43
351.14	1632.23
351.35	1787.88
351.56	1689.57
351.77	1689.57
351.99	1734.63
352.20	1773.54
352.41	1687.53
352.62	1642.47
352.83	1628.14
353.04	1662.95
353.25	1578.98
353.46	1716.20
353.67	1753.06
353.88	1552.36
354.09	1726.44
354.30	1703.91
354.52	1714.15
354.73	1705.96
354.94	1630.18
355.15	1673.19
355.36	1765.35
355.57	1685.48
355.78	1730.53
355.99	1673.19
356.20	1714.15
356.41	1800.16
356.62	1716.20
356.83	1654.76
357.04	1787.88
357.25	1656.81
357.46	1660.90
357.68	1501.16
357.89	1562.60
358.10	1714.15
358.31	1677.29
358.52	1720.29
358.73	1636.33
358.94	1705.96
359.15	1665.00
359.36	1753.06
359.57	1632.23
359.78	1677.29
359.99	1693.67
360.20	1677.29
360.41	1687.53
360.62	1708.01
360.83	1714.15
361.04	1742.82
361.25	1738.73
361.46	1783.78
361.67	1701.86
361.88	1697.77
362.09	1712.10
362.30	1638.38
362.51	1710.05
362.72	1740.77
362.93	1794.02
363.14	1779.68
363.35	1699.81
363.56	1609.70
363.78	1716.20
363.99	1796.07
364.20	1603.56
364.41	1703.91
364.62	1777.64
364.83	1691.62
365.04	1710.05
365.25	1683.43
365.46	1755.11
365.67	1662.95
365.88	1636.33
366.09	1742.82
366.30	1634.28
366.51	1687.53
366.72	1564.65
366.93	1744.87
367.14	1718.25
367.35	1755.11
367.56	1677.29
367.77	1771.49
367.98	1654.76
368.18	1775.59
368.39	1693.67
368.60	1642.47
368.81	1687.53
369.02	1730.53
369.23	1728.49
369.44	1617.90
369.65	1693.67
369.86	1695.72
370.07	1636.33
370.28	1642.47
370.49	1689.57
370.70	1701.86
370.91	1687.53
371.12	1691.62
371.33	1734.63
371.54	1638.38
371.75	1777.64
371.96	1626.09
372.17	1693.67
372.38	1689.57
372.59	1773.54
372.80	1726.44
373.01	1689.57
373.22	1681.38
373.43	1769.44
373.64	1689.57
373.85	1753.06
374.06	1767.40
374.26	1761.25
374.47	1697.77
374.68	1808.36
374.89	1650.66
375.10	1726.44
375.31	1732.58
375.52	1763.30
375.73	1685.48
375.94	1691.62
376.15	1779.68
376.36	1624.04
376.57	1648.61
376.78	1705.96
376.99	1738.73
377.20	1763.30
377.40	1689.57
377.61	1781.73
377.82	1708.01
378.03	1726.44
378.24	1748.97
378.45	1656.81
378.66	1677.29
378.87	1562.60
379.08	1601.51
379.29	1611.75
379.50	1742.82
379.71	1697.77
379.91	1769.44
380.12	1640.42
380.33	1751.01
380.54	1710.05
380.75	1689.57
380.96	1665.00
381.17	1798.12
381.38	1701.86
381.59	1763.30
381.80	1703.91
382.00	1828.84
382.21	1705.96
382.42	1824.74
382.63	1816.55
382.84	1691.62
383.05	1740.77
383.26	1787.88
383.47	1726.44
383.68	1751.01
383.88	1720.29
384.09	1695.72
384.30	1806.31
384.51	1738.73
384.72	1705.96
384.93	1634.28
385.14	1722.34
385.35	1705.96
385.55	1626.09
385.76	1771.49
385.97	1708.01
386.18	1611.75
386.39	1683.43
386.60	1675.24
386.81	1722.34
387.02	1665.00
387.22	1648.61
387.43	1693.67
387.64	1716.20
387.85	1843.17
388.06	2220.00
388.27	4290.49
388.48	6879.13
388.68	8398.72
388.89	9914.22
389.10	10143.59
389.31	8683.39
389.52	7671.69
389.73	6649.75
389.93	6260.64
390.14	5851.05
390.35	5328.81
390.56	4644.79
390.77	3891.14
390.98	3004.37
391.18	2463.71
391.39	2181.09
391.60	1763.30
391.81	1863.65
392.02	1730.53
392.23	1779.68
392.43	1667.05
392.64	1751.01
392.85	1703.91
393.06	1748.97
393.27	1738.73
393.47	1691.62
393.68	1746.92
393.89	1695.72
394.10	1822.69
394.31	1662.95
394.52	1568.74
394.72	1644.52
394.93	1740.77
395.14	1660.90
395.35	1648.61
395.56	1660.90
395.76	1767.40
395.97	1783.78
396.18	1822.69
396.39	1820.64
396.60	2035.68
396.80	1943.52
397.01	1818.60
397.22	1800.16
397.43	1873.89
397.64	1703.91
397.84	1783.78
398.05	1791.97
398.26	1712.10
398.47	1759.21
398.67	1810.40
398.88	1679.33
399.09	1742.82
399.30	1615.85
399.51	1701.86
399.71	1673.19
399.92	1681.38
400.13	1714.15
400.34	1665.00
400.54	1624.04
400.75	1804.26
400.96	1687.53
401.17	1736.68
401.37	1763.30
401.58	1751.01
401.79	1748.97
402.00	1861.60
402.21	2011.11
402.41	1968.10
402.62	1951.71
402.83	1953.76
403.04	2021.35
403.24	2047.97
403.45	1910.75
403.66	1920.99
403.87	1767.40
404.07	1935.33
404.28	1941.47
404.49	1837.03
404.70	1730.53
404.90	1804.26
405.11	1716.20
405.32	1773.54
405.52	1636.33
405.73	1722.34
405.94	1662.95
406.15	1708.01
406.35	1740.77
406.56	1689.57
406.77	1751.01
406.98	1738.73
407.18	1681.38
407.39	1779.68
407.60	1613.80
407.80	1816.55
408.01	1605.61
408.22	1722.34
408.43	1671.14
408.63	1677.29
408.84	1834.98
409.05	1726.44
409.25	1626.09
409.46	1683.43
409.67	1669.09
409.88	1630.18
410.08	1685.48
410.29	1660.90
410.50	1738.73
410.70	1703.91
410.91	1679.33
411.12	1701.86
411.32	1662.95
411.53	1636.33
411.74	1767.40
411.95	1744.87
412.15	1703.91
412.36	1845.22
412.57	1857.51
412.77	1800.16
412.98	1773.54
413.19	1720.29
413.39	1783.78
413.60	1736.68
413.81	1746.92
414.01	1615.85
414.22	1753.06
414.43	1712.10
414.63	1658.85
414.84	1736.68
415.05	1695.72
415.25	1581.03
415.46	1757.16
415.67	1665.00
415.87	1669.09
416.08	1687.53
416.29	1691.62
416.49	1687.53
416.70	1718.25
416.91	1648.61
417.11	1632.23
417.32	1728.49
417.53	1724.39
417.73	1761.25
417.94	1714.15
418.15	1685.48
418.35	1626.09
418.56	1748.97
418.77	1826.79
418.97	1681.38
419.18	1634.28
419.38	1566.70
419.59	1697.77
419.80	1798.12
420.00	1701.86
420.21	1714.15
420.42	1718.25
420.62	1697.77
420.83	1667.05
421.04	1714.15
421.24	1648.61
421.45	1738.73
421.65	1722.34
421.86	1730.53
422.07	1800.16
422.27	1658.85
422.48	1753.06
422.69	1667.05
422.89	1671.14
423.10	1665.00
423.30	1716.20
423.51	1632.23
423.72	1669.09
423.92	1845.22
424.13	1619.94
424.33	1677.29
424.54	1767.40
424.75	1695.72
424.95	1800.16
425.16	1689.57
425.36	1646.57
425.57	1708.01
425.78	1726.44
425.98	1714.15
426.19	1634.28
426.39	1662.95
426.60	1621.99
426.81	1779.68
427.01	1681.38
427.22	1718.25
427.42	1642.47
427.63	1626.09
427.83	1724.39
428.04	1847.27
428.25	1769.44
428.45	1708.01
428.66	1769.44
428.86	1640.42
429.07	1646.57
429.28	1710.05
429.48	1701.86
429.69	1660.90
429.89	1712.10
430.10	1667.05
430.30	1765.35
430.51	1732.58
430.71	1632.23
430.92	1632.23
431.13	1660.90
431.33	1675.24
431.54	1775.59
431.74	1804.26
431.95	1777.64
432.15	1667.05
432.36	1742.82
432.56	1775.59
432.77	1779.68
432.98	1710.05
433.18	1746.92
433.39	1693.67
433.59	1720.29
433.80	1828.84
434.00	1800.16
434.21	1722.34
434.41	1683.43
434.62	1785.83
434.82	1646.57
435.03	1636.33
435.23	1658.85
435.44	1671.14
435.64	1644.52
435.85	1630.18
436.06	1718.25
436.26	1796.07
436.47	1695.72
436.67	1695.72
436.88	1687.53
437.08	1720.29
437.29	1816.55
437.49	1628.14
437.70	1722.34
437.90	1710.05
438.11	1820.64
438.31	1757.16
438.52	1771.49
438.72	1884.13
438.93	1837.03
439.13	1748.97
439.34	1701.86
439.54	1642.47
439.75	1746.92
439.95	1755.11
440.16	1685.48
440.36	1689.57
440.57	1763.30
440.77	1722.34
440.98	1687.53
441.18	1753.06
441.39	1712.10
441.59	1675.24
441.80	1902.56
442.00	1738.73
442.21	1753.06
442.41	1607.66
442.62	1734.63
442.82	1722.34
443.02	1722.34
443.23	1665.00
443.43	1701.86
443.64	1779.68
443.84	1708.01
444.05	1759.21
444.25	1820.64
444.46	1652.71
444.66	1718.25
444.87	1824.74
445.07	1585.13
445.28	1734.63
445.48	1787.88
445.69	1771.49
445.89	1869.80
446.09	1722.34
446.30	1978.34
446.50	2680.79
446.71	3717.06
446.91	4210.62
447.12	4845.49
447.32	4923.32
447.53	4302.78
447.73	3895.24
447.93	3497.93
448.14	3393.48
448.34	3280.85
448.55	2877.40
448.75	2826.20
448.96	2707.41
449.16	2437.08
449.36	2205.66
449.57	2056.16
449.77	1925.09
449.98	1822.69
450.18	1779.68
450.39	1853.41
450.59	1812.45
450.79	1824.74
451.00	1697.77
451.20	1730.53
451.41	1798.12
451.61	1722.34
451.81	1705.96
452.02	1740.77
452.22	1681.38
452.43	1710.05
452.63	1701.86
452.84	1689.57
453.04	1732.58
453.24	1697.77
453.45	1736.68
453.65	1712.10
453.86	1755.11
454.06	1746.92
454.26	1658.85
454.47	1695.72
454.67	1779.68
454.87	1761.25
455.08	1654.76
455.28	1904.61
455.49	1708.01
455.69	1718.25
455.89	1841.12
456.10	1816.55
456.30	1748.97
456.51	1771.49
456.71	1804.26
456.91	1695.72
457.12	1753.06
457.32	1687.53
457.52	1642.47
457.73	1716.20
457.93	1779.68
458.14	1724.39
458.34	1591.27
458.54	1628.14
458.75	1724.39
458.95	1814.50
459.15	1757.16
459.36	1716.20
459.56	1748.97
459.76	1834.98
459.97	1734.63
460.17	1767.40
460.37	1773.54
460.58	1769.44
460.78	1730.53
460.99	1628.14
461.19	1714.15
461.39	1714.15
461.60	1742.82
461.80	1775.59
462.00	1710.05
462.21	1677.29
462.41	1693.67
462.61	1636.33
462.82	1632.23
463.02	1726.44
463.22	1705.96
463.43	1812.45
463.63	1755.11
463.83	1716.20
464.04	1794.02
464.24	1720.29
464.44	1656.81
464.64	1832.93
464.85	1775.59
465.05	1834.98
465.25	1701.86
465.46	1724.39
465.66	1791.97
465.86	1742.82
466.07	1789.92
466.27	1693.67
466.47	1626.09
466.68	1634.28
466.88	1804.26
467.08	1771.49
467.29	1789.92
467.49	1679.33
467.69	1789.92
467.89	1789.92
468.10	1703.91
468.30	1714.15
468.50	1814.50
468.71	1765.35
468.91	1658.85
469.11	1697.77
469.31	1701.86
469.52	1677.29
469.72	1787.88
469.92	1880.04
470.13	1761.25
470.33	1632.23
470.53	1816.55
470.73	2050.02
470.94	2209.76
471.14	2346.97
471.34	2490.33
471.54	2402.27
471.75	2158.56
471.95	2074.59
472.15	2181.09
472.36	2103.26
472.56	2013.15
472.76	2080.74
472.96	2056.16
473.17	1935.33
473.37	1888.23
473.57	1873.89
473.77	1871.84
473.98	1767.40
474.18	1656.81
474.38	1900.52
474.58	1617.90
474.79	1669.09
474.99	1732.58
475.19	1751.01
475.39	1656.81
475.60	1767.40
475.80	1755.11
476.00	1753.06
476.20	1675.24
476.41	1732.58
476.61	1804.26
476.81	1746.92
477.01	1667.05
477.21	1869.80
477.42	1816.55
477.62	1683.43
477.82	1841.12
478.02	1667.05
478.23	1687.53
478.43	1677.29
478.63	1732.58
478.83	1630.18
479.03	1755.11
479.24	1738.73
479.44	1738.73
479.64	1576.94
479.84	1656.81
480.04	1652.71
480.25	1810.40
480.45	1662.95
480.65	1740.77
480.85	1818.60
481.06	1718.25
481.26	1730.53
481.46	1828.84
481.66	1683.43
481.86	1757.16
482.06	1779.68
482.27	1673.19
482.47	1628.14
482.67	1665.00
482.87	1722.34
483.07	1748.97
483.28	1656.81
483.48	1619.94
483.68	1730.53
483.88	1658.85
484.08	1644.52
484.29	1621.99
484.49	1658.85
484.69	1619.94
484.89	1777.64
485.09	1720.29
485.29	1714.15
485.50	1814.50
485.70	1634.28
485.90	1759.21
486.10	1734.63
486.30	1767.40
486.50	1738.73
486.71	1734.63
486.91	1755.11
487.11	1779.68
487.31	1648.61
487.51	1783.78
487.71	1660.90
487.91	1619.94
488.12	1681.38
488.32	1576.94
488.52	1642.47
488.72	1605.61
488.92	1808.36
489.12	1683.43
489.32	1755.11
489.53	1744.87
489.73	1619.94
489.93	1830.88
490.13	1720.29
490.33	1642.47
490.53	1693.67
490.73	1832.93
490.94	1665.00
491.14	1822.69
491.34	1845.22
491.54	2035.68
491.74	2650.07
491.94	2873.30
492.14	3123.15
492.34	2957.27
492.54	2715.61
492.75	2494.43
492.95	2400.22
493.15	2293.72
493.35	2275.29
493.55	2285.53
493.75	2179.04
493.95	2136.03
494.15	2017.25
494.35	1918.95
494.56	1886.18
494.76	1828.84
494.96	1783.78
495.16	1777.64
495.36	1712.10
495.56	1730.53
495.76	1767.40
495.96	1748.97
496.16	1693.67
496.36	1791.97
496.56	1681.38
496.77	1753.06
496.97	1785.83
497.17	1869.80
497.37	1593.32
497.57	1767.40
497.77	1701.86
497.97	1714.15
498.17	1679.33
498.37	1734.63
498.57	1703.91
498.77	1658.85
498.97	1832.93
499.17	1824.74
499.38	1781.73
499.58	1712.10
499.78	1695.72
499.98	1808.36
500.18	1673.19
500.38	1640.42
500.58	1914.85
500.78	2553.82
500.98	4605.88
501.18	5887.91
501.38	6807.45
501.58	7153.55
501.78	6782.87
501.98	5515.18
502.18	5064.63
502.38	4454.33
502.58	4173.76
502.78	3794.89
502.98	3643.34
503.18	3520.46
503.38	3102.67
503.59	2795.48
503.79	2695.13
503.99	2453.47
504.19	2328.54
504.39	2234.33
504.59	2176.99
504.79	2156.51
504.99	2035.68
505.19	1947.62
505.39	1867.75
505.59	1961.95
505.79	1847.27
505.99	1837.03
506.19	1765.35
506.39	1888.23
506.59	1718.25
506.79	1681.38
506.99	1824.74
507.19	1763.30
507.39	1718.25
507.59	1603.56
507.79	1568.74
507.99	1681.38
508.19	1761.25
508.39	1687.53
508.59	1714.15
508.79	1812.45
508.99	1875.94
509.19	1722.34
509.39	1767.40
509.59	1634.28
509.79	1628.14
509.99	1740.77
510.19	1824.74
510.39	1763.30
510.59	1748.97
510.79	1685.48
510.99	1619.94
511.19	1669.09
511.39	1763.30
511.59	1796.07
511.79	1869.80
511.99	1755.11
512.19	1791.97
512.38	1724.39
512.58	1628.14
512.78	1798.12
512.98	1720.29
513.18	1791.97
513.38	1681.38
513.58	1771.49
513.78	1697.77
513.98	1640.42
514.18	1689.57
514.38	1673.19
514.58	1843.17
514.78	1677.29
514.98	1697.77
515.18	1722.34
515.38	1689.57
515.58	1796.07
515.78	1710.05
515.98	1667.05
516.18	1734.63
516.38	1732.58
516.57	1611.75
516.77	1644.52
516.97	1806.31
517.17	1669.09
517.37	1681.38
517.57	1759.21
517.77	1671.14
517.97	1718.25
518.17	1726.44
518.37	1654.76
518.57	1675.24
518.77	1648.61
518.97	1708.01
519.16	1734.63
519.36	1843.17
519.56	1660.90
519.76	1738.73
519.96	1681.38
520.16	1716.20
520.36	1652.71
520.56	1775.59
520.76	1662.95
520.96	1667.05
521.16	1779.68
521.35	1710.05
521.55	1771.49
521.75	1693.67
521.95	1716.20
522.15	1681.38
522.35	1679.33
522.55	1728.49
522.75	1710.05
522.95	1740.77
523.14	1665.00
523.34	1722.34
523.54	1689.57
523.74	1742.82
523.94	1744.87
524.14	1568.74
524.34	1816.55
524.54	1759.21
524.73	1705.96
524.93	1687.53
525.13	1748.97
525.33	1617.90
525.53	1871.84
525.73	1828.84
525.93	1648.61
526.13	1757.16
526.32	1667.05
526.52	1798.12
526.72	1787.88
526.92	1722.34
527.12	1703.91
527.32	1642.47
527.52	1757.16
527.71	1697.77
527.91	1699.81
528.11	1660.90
528.31	1708.01
528.51	1656.81
528.71	1765.35
528.90	1730.53
529.10	1837.03
529.30	1781.73
529.50	1628.14
529.70	1693.67
529.90	1701.86
530.09	1701.86
530.29	1648.61
530.49	1689.57
530.69	1871.84
530.89	1761.25
531.09	1826.79
531.28	1722.34
531.48	1851.36
531.68	1751.01
531.88	1726.44
532.08	1685.48
532.28	1673.19
532.47	1703.91
532.67	1771.49
532.87	1740.77
533.07	1738.73
533.27	1789.92
533.46	1783.78
533.66	1728.49
533.86	1665.00
534.06	1687.53
534.26	1751.01
534.45	1687.53
534.65	1699.81
534.85	1800.16
535.05	1660.90
535.25	1804.26
535.44	1693.67
535.64	1781.73
535.84	1693.67
536.04	1634.28
536.24	1681.38
536.43	1705.96
536.63	1744.87
536.83	1710.05
537.03	1703.91
537.22	1558.50
537.42	1693.67
537.62	1728.49
537.82	1654.76
538.02	1832.93
538.21	1869.80
538.41	1923.04
538.61	1822.69
538.81	1697.77
539.00	1804.26
539.20	1665.00
539.40	1660.90
539.60	1705.96
539.79	1714.15
539.99	1744.87
540.19	1634.28
540.39	1728.49
540.58	1722.34
540.78	1785.83
540.98	1681.38
541.18	1816.55
541.37	1755.11
541.57	1679.33
541.77	1744.87
541.97	1665.00
542.16	1591.27
542.36	1722.34
542.56	1679.33
542.76	1841.12
542.95	1775.59
543.15	1744.87
543.35	1777.64
543.54	1708.01
543.74	1667.05
543.94	1771.49
544.14	1640.42
544.33	1771.49
544.53	1712.10
544.73	1759.21
544.93	1654.76
545.12	1712.10
545.32	1828.84
545.52	1683.43
545.71	1691.62
545.91	1640.42
546.11	1703.91
546.30	1695.72
546.50	1603.56
546.70	1767.40
546.90	1767.40
547.09	1650.66
547.29	1736.68
547.49	1734.63
547.68	1728.49
547.88	1687.53
548.08	1699.81
548.27	2191.33
548.47	1669.09
548.67	1687.53
548.87	1771.49
549.06	1710.05
549.26	1652.71
549.46	1703.91
549.65	1665.00
549.85	1736.68
550.05	1802.21
550.24	1640.42
550.44	1748.97
550.64	1642.47
550.83	1673.19
551.03	1820.64
551.23	1810.40
551.42	1771.49
551.62	1714.15
551.82	1722.34
552.01	1712.10
552.21	1769.44
552.41	1751.01
552.60	1771.49
552.80	1703.91
553.00	1697.77
553.19	1736.68
553.39	1751.01
553.59	1626.09
553.78	1710.05
553.98	1791.97
554.17	1644.52
554.37	1740.77
554.57	1755.11
554.76	1773.54
554.96	1734.63
555.16	1767.40
555.35	1765.35
555.55	1798.12
555.75	1783.78
555.94	1771.49
556.14	1632.23
556.33	1705.96
556.53	1705.96
556.73	1812.45
556.92	1699.81
557.12	1812.45
557.32	1824.74
557.51	1730.53
557.71	1767.40
557.90	1798.12
558.10	1837.03
558.30	1705.96
558.49	1683.43
558.69	1746.92
558.88	1699.81
559.08	1746.92
559.28	1718.25
559.47	1701.86
559.67	1794.02
559.86	1898.47
560.06	1732.58
560.26	1601.51
560.45	1720.29
560.65	1718.25
560.84	1791.97
561.04	1779.68
561.24	1718.25
561.43	1669.09
561.63	1736.68
561.82	1765.35
562.02	1757.16
562.22	1718.25
562.41	1710.05
562.61	1775.59
562.80	1703.91
563.00	1804.26
563.19	1779.68
563.39	1810.40
563.59	1785.83
563.78	1724.39
563.98	1605.61
564.17	1675.24
564.37	1572.84
564.56	1791.97
564.76	1597.42
564.96	1849.32
565.15	1773.54
565.35	1877.99
565.54	1720.29
565.74	1787.88
565.93	1769.44
566.13	1683.43
566.32	1746.92
566.52	1746.92
566.71	1732.58
566.91	1714.15
567.11	1693.67
567.30	1720.29
567.50	1818.60
567.69	1732.58
567.89	1759.21
568.08	1753.06
568.28	1777.64
568.47	1652.71
568.67	1822.69
568.86	1669.09
569.06	1757.16
569.25	1738.73
569.45	1683.43
569.64	1722.34
569.84	1699.81
570.04	1722.34
570.23	1685.48
570.43	1763.30
570.62	1726.44
570.82	1822.69
571.01	1695.72
571.21	1628.14
571.40	1615.85
571.60	1726.44
571.79	1783.78
571.99	1759.21
572.18	1681.38
572.38	1730.53
572.57	1775.59
572.77	1769.44
572.96	1832.93
573.16	1820.64
573.35	1753.06
573.55	1882.08
573.74	1820.64
573.94	1716.20
574.13	1710.05
574.33	1800.16
574.52	1904.61
574.71	1763.30
574.91	1818.60
575.10	1689.57
575.30	1673.19
575.49	1642.47
575.69	1669.09
575.88	1746.92
576.08	1701.86
576.27	1806.31
576.47	1730.53
576.66	1791.97
576.86	1781.73
577.05	1761.25
577.25	1796.07
577.44	1783.78
577.64	1708.01
577.83	1800.16
578.02	1697.77
578.22	1834.98
578.41	1832.93
578.61	1714.15
578.80	1722.34
579.00	1742.82
579.19	1742.82
579.39	1728.49
579.58	1779.68
579.77	1685.48
579.97	1785.83
580.16	1761.25
580.36	1798.12
580.55	1871.84
580.75	1755.11
580.94	1724.39
581.13	1820.64
581.33	1814.50
581.52	1650.66
581.72	1857.51
581.91	1740.77
582.11	1687.53
582.30	1787.88
582.49	1763.30
582.69	1804.26
582.88	1802.21
583.08	1673.19
583.27	1826.79
583.47	1804.26
583.66	1738.73
583.85	1685.48
584.05	1746.92
584.24	1812.45
584.44	1808.36
584.63	1812.45
584.82	1775.59
585.02	1802.21
585.21	1857.51
585.41	1798.12
585.60	1808.36
585.79	1826.79
585.99	1939.43
586.18	1869.80
586.37	2119.65
586.57	3434.44
586.76	10037.09
586.96	24938.12
587.15	35438.05
587.34	41481.61
587.54	42900.85
587.73	37887.42
587.93	27094.63
588.12	22027.95
588.31	18695.91
588.51	16664.32
588.70	15466.26
588.89	14354.21
589.09	12828.48
589.28	11229.01
589.47	9598.83
589.67	8216.45
589.86	6471.58
590.06	4974.52
590.25	4036.55
590.44	3125.20
590.64	2594.78
590.83	2271.20
591.02	2156.51
591.22	1880.04
591.41	1867.75
591.60	1867.75
591.80	1849.32
591.99	1736.68
592.18	1781.73
592.38	1779.68
592.57	1714.15
592.76	1789.92
592.96	1802.21
593.15	1726.44
593.34	1888.23
593.54	1767.40
593.73	1734.63
593.92	1871.84
594.12	1740.77
594.31	1738.73
594.50	1798.12
594.70	1689.57
594.89	1830.88
595.08	1599.46
595.28	1861.60
595.47	1920.99
595.66	1714.15
595.86	1757.16
596.05	1656.81
596.24	1701.86
596.43	1849.32
596.63	1855.46
596.82	1765.35
597.01	1705.96
597.21	1771.49
597.40	1759.21
597.59	1720.29
597.79	1734.63
597.98	1765.35
598.17	1720.29
598.36	1720.29
598.56	1773.54
598.75	1708.01
598.94	1796.07
599.14	1710.05
599.33	1658.85
599.52	1763.30
599.71	1763.30
599.91	1751.01
600.10	1828.84
600.29	1687.53
600.48	1763.30
600.68	1763.30
600.87	1593.32
601.06	1677.29
601.26	1701.86
601.45	1767.40
601.64	1705.96
601.83	1841.12
602.03	1597.42
602.22	1732.58
602.41	1753.06
602.60	1794.02
602.80	1755.11
602.99	1802.21
603.18	1681.38
603.37	1759.21
603.57	1734.63
603.76	1763.30
603.95	1818.60
604.14	1718.25
604.34	1681.38
604.53	1697.77
604.72	1798.12
604.91	1755.11
605.10	1714.15
605.30	1730.53
605.49	1882.08
605.68	1796.07
605.87	1826.79
606.07	1751.01
606.26	1798.12
606.45	1767.40
606.64	1779.68
606.84	1679.33
607.03	1685.48
607.22	1751.01
607.41	1656.81
607.60	1601.51
607.80	1781.73
607.99	1722.34
608.18	1767.40
608.37	1718.25
608.56	1648.61
608.76	1732.58
608.95	1773.54
609.14	1697.77
609.33	1742.82
609.52	1779.68
609.72	1714.15
609.91	1771.49
610.10	1701.86
610.29	1826.79
610.48	1767.40
610.68	1771.49
610.87	1665.00
611.06	1675.24
611.25	1652.71
611.44	1820.64
611.63	1705.96
611.83	1789.92
612.02	1644.52
612.21	1771.49
612.40	1658.85
612.59	1638.38
612.79	1642.47
612.98	1783.78
613.17	1818.60
613.36	1681.38
613.55	1826.79
613.74	1701.86
613.93	1605.61
614.13	1718.25
614.32	1695.72
614.51	1722.34
614.70	1712.10
614.89	1675.24
615.08	1767.40
615.28	2002.91
615.47	1607.66
615.66	1767.40
615.85	1726.44
616.04	1812.45
616.23	1677.29
616.42	1683.43
616.62	1783.78
616.81	1810.40
617.00	1722.34
617.19	1724.39
617.38	1673.19
617.57	1703.91
617.76	1773.54
617.95	1730.53
618.15	1720.29
618.34	1757.16
618.53	1628.14
618.72	1810.40
618.91	1761.25
619.10	1791.97
619.29	1763.30
619.48	1816.55
619.68	1695.72
619.87	1724.39
620.06	1683.43
620.25	1728.49
620.44	1640.42
620.63	1699.81
620.82	1685.48
621.01	1763.30
621.20	1751.01
621.39	1667.05
621.59	1736.68
621.78	1720.29
621.97	1699.81
622.16	1761.25
622.35	1732.58
622.54	1648.61
622.73	1820.64
622.92	1693.67
623.11	1681.38
623.30	1646.57
623.49	1701.86
623.68	1593.32
623.88	1732.58
624.07	1740.77
624.26	1642.47
624.45	1753.06
624.64	1634.28
624.83	1734.63
625.02	1728.49
625.21	1671.14
625.40	1703.91
625.59	1761.25
625.78	1689.57
625.97	1791.97
626.16	1703.91
626.35	1689.57
626.54	1763.30
626.74	1738.73
626.93	1740.77
627.12	1677.29
627.31	1699.81
627.50	1751.01
627.69	1812.45
627.88	1671.14
628.07	1673.19
628.26	1599.46
628.45	1691.62
628.64	1722.34
628.83	1691.62
629.02	1716.20
629.21	1763.30
629.40	1787.88
629.59	1648.61
629.78	1759.21
629.97	1677.29
630.16	1771.49
630.35	1656.81
630.54	1767.40
630.73	1683.43
630.92	1738.73
631.11	1609.70
631.30	1738.73
631.49	1753.06
631.68	1730.53
631.87	1714.15
632.06	1611.75
632.25	1769.44
632.44	1710.05
632.63	1726.44
632.82	1597.42
633.01	1644.52
633.20	1669.09
633.39	1701.86
633.58	1599.46
633.77	1751.01
633.96	1732.58
634.15	1722.34
634.34	1744.87
634.53	1771.49
634.72	1669.09
634.91	1513.45
635.10	1746.92
635.29	1755.11
635.48	1689.57
635.67	1689.57
635.86	1656.81
636.05	1794.02
636.24	1746.92
636.43	1734.63
636.62	1773.54
636.81	1550.31
637.00	1705.96
637.19	1773.54
637.38	1628.14
637.57	1669.09
637.76	1619.94
637.95	1761.25
638.14	1753.06
638.33	1636.33
638.52	1769.44
638.71	1652.71
638.89	1697.77
639.08	1820.64
639.27	1734.63
639.46	1619.94
639.65	1734.63
639.84	1763.30
640.03	1783.78
640.22	1652.71
640.41	1798.12
640.60	1654.76
640.79	1712.10
640.98	1673.19
641.17	1681.38
641.36	1734.63
641.55	1767.40
641.74	1679.33
641.92	1607.66
642.11	1726.44
642.30	1705.96
642.49	1705.96
642.68	1656.81
642.87	1689.57
643.06	1691.62
643.25	1671.14
643.44	1697.77
643.63	1667.05
643.82	1742.82
644.00	1658.85
644.19	1681.38
644.38	1638.38
644.57	1771.49
644.76	1767.40
644.95	1642.47
645.14	1726.44
645.33	1662.95
645.52	1722.34
645.71	1679.33
645.89	1705.96
646.08	1714.15
646.27	1642.47
646.46	1789.92
646.65	1624.04
646.84	1710.05
647.03	1660.90
647.22	1751.01
647.40	1652.71
647.59	1644.52
647.78	1593.32
647.97	1652.71
648.16	1722.34
648.35	1738.73
648.54	1796.07
648.73	1665.00
648.91	1751.01
649.10	1701.86
649.29	1632.23
649.48	1710.05
649.67	1681.38
649.86	1689.57
650.05	1726.44
650.23	1687.53
650.42	1673.19
650.61	1714.15
650.80	1769.44
650.99	1830.88
651.18	1708.01
651.36	1765.35
651.55	1669.09
651.74	1830.88
651.93	1701.86
652.12	1714.15
652.31	1705.96
652.49	1681.38
652.68	1642.47
652.87	1761.25
653.06	1726.44
653.25	1763.30
653.44	1695.72
653.62	1828.84
653.81	1658.85
654.00	1759.21
654.19	1771.49
654.38	1882.08
654.56	1744.87
654.75	1712.10
654.94	1765.35
655.13	1689.57
655.32	1642.47
655.51	1773.54
655.69	1652.71
655.88	1765.35
656.07	1626.09
656.26	1730.53
656.45	1652.71
656.63	1701.86
656.82	1685.48
657.01	1703.91
657.20	1689.57
657.38	1757.16
657.57	1656.81
657.76	1599.46
657.95	1802.21
658.14	1632.23
658.32	1628.14
658.51	1652.71
658.70	1683.43
658.89	1757.16
659.08	1687.53
659.26	1779.68
659.45	1615.85
659.64	1738.73
659.83	1652.71
660.01	1839.08
660.20	1638.38
660.39	1751.01
660.58	1531.88
660.76	1785.83
660.95	1544.17
661.14	1732.58
661.33	1687.53
661.51	1599.46
661.70	1644.52
661.89	1712.10
662.08	1753.06
662.26	1673.19
662.45	1679.33
662.64	1816.55
662.83	1771.49
663.01	1753.06
663.20	1701.86
663.39	1787.88
663.58	1720.29
663.76	1705.96
663.95	1730.53
664.14	1718.25
664.32	1689.57
664.51	1660.90
664.70	1667.05
664.89	1697.77
665.07	1619.94
665.26	1757.16
665.45	1626.09
665.64	1820.64
665.82	1681.38
666.01	1695.72
666.20	1710.05
666.38	1789.92
666.57	1830.88
666.76	2133.98
666.95	4517.82
667.13	10622.81
667.32	15630.10
667.51	18343.66
667.69	19142.36
667.88	17999.60
668.07	12580.67
668.25	9725.80
668.44	8324.99
668.63	7352.21
668.81	7098.26
669.00	6418.33
669.19	5846.95
669.38	5068.72
669.56	4595.64
669.75	4102.08
669.94	3381.20
670.12	2899.92
670.31	2504.67
670.50	2256.86
670.68	2088.93
670.87	1945.57
671.06	1789.92
671.24	1705.96
671.43	1804.26
671.62	1769.44
671.80	1738.73
671.99	1734.63
672.18	1628.14
672.36	1730.53
672.55	1665.00
672.74	1716.20
672.92	1695.72
673.11	1697.77
673.29	1667.05
673.48	1746.92
673.67	1730.53
673.85	1767.40
674.04	1634.28
674.23	1730.53
674.41	1746.92
674.60	1718.25
674.79	1646.57
674.97	1642.47
675.16	1687.53
675.34	1740.77
675.53	1714.15
675.72	1730.53
675.90	1724.39
676.09	1660.90
676.28	1728.49
676.46	1617.90
676.65	1777.64
676.83	1660.90
677.02	1693.67
677.21	1718.25
677.39	1701.86
677.58	1740.77
677.77	1679.33
677.95	1656.81
678.14	1660.90
678.32	1665.00
678.51	1685.48
678.70	1822.69
678.88	1710.05
679.07	1673.19
679.25	1740.77
679.44	1595.37
679.63	1578.98
679.81	1728.49
680.00	1810.40
680.18	1638.38
680.37	1726.44
680.55	1667.05
680.74	1640.42
680.93	1583.08
681.11	1640.42
681.30	1705.96
681.48	1677.29
681.67	1667.05
681.85	1773.54
682.04	1681.38
682.23	1736.68
682.41	1710.05
682.60	1714.15
682.78	1648.61
682.97	1794.02
683.15	1681.38
683.34	1689.57
683.53	1720.29
683.71	1638.38
683.90	1785.83
684.08	1777.64
684.27	1630.18
684.45	1701.86
684.64	1775.59
684.82	1740.77
685.01	1654.76
685.19	1744.87
685.38	1765.35
685.57	1677.29
685.75	1687.53
685.94	1673.19
686.12	1673.19
686.31	1677.29
686.49	1767.40
686.68	1646.57
686.86	1787.88
687.05	1697.77
687.23	1808.36
687.42	1697.77
687.60	1583.08
687.79	1800.16
687.97	1787.88
688.16	1812.45
688.34	1783.78
688.53	1593.32
688.71	1689.57
688.90	1730.53
689.08	1669.09
689.27	1599.46
689.45	1773.54
689.64	1736.68
689.82	1703.91
690.01	1724.39
690.19	1705.96
690.38	1687.53
690.56	1714.15
690.75	1593.32
690.93	1705.96
691.12	1593.32
691.30	1714.15
691.49	1714.15
691.67	1787.88
691.86	1822.69
692.04	1724.39
692.23	1669.09
692.41	1617.90
692.60	1800.16
692.78	1744.87
692.97	1699.81
693.15	1665.00
693.34	1830.88
693.52	1757.16
693.71	1638.38
693.89	1617.90
694.08	1683.43
694.26	1722.34
694.44	1714.15
694.63	1796.07
694.81	1697.77
695.00	1701.86
695.18	1781.73
695.37	1804.26
695.55	1710.05
695.74	1646.57
695.92	1636.33
696.10	1771.49
696.29	1640.42
696.47	1708.01
696.66	1615.85
696.84	1689.57
697.03	1718.25
697.21	1812.45
697.40	2369.50
697.58	1734.63
697.76	1763.30
697.95	1683.43
698.13	1619.94
698.32	1675.24
698.50	1685.48
698.68	1660.90
698.87	1673.19
699.05	1738.73
699.24	1767.40
699.42	1611.75
699.61	1726.44
699.79	1757.16
699.97	1740.77
700.16	1683.43
700.34	1607.66
700.53	1705.96
700.71	1722.34
700.89	1718.25
701.08	1632.23
701.26	1642.47
701.45	2107.36
701.63	1671.14
701.81	1689.57
702.00	1626.09
702.18	1822.69
702.37	1632.23
702.55	1726.44
702.73	1710.05
702.92	1628.14
703.10	1744.87
703.28	1718.25
703.47	1675.24
703.65	1730.53
703.84	1751.01
704.02	1705.96
704.20	1742.82
704.39	1658.85
704.57	1574.89
704.75	1800.16
704.94	1714.15
705.12	1714.15
705.30	1787.88
705.49	2283.49
705.67	4435.90
705.86	9510.77
706.04	12658.49
706.22	14614.30
706.41	15812.37
706.59	13907.76
706.77	9867.11
706.96	7681.93
707.14	6674.33
707.32	6004.64
707.51	5683.11
707.69	5097.39
707.87	4368.32
708.06	3735.50
708.24	2967.51
708.42	2445.27
708.61	2303.96
708.79	1861.60
708.97	1853.41
709.16	1847.27
709.34	1808.36
709.52	1734.63
709.71	1632.23
709.89	1773.54
710.07	1654.76
710.26	1662.95
710.44	1744.87
710.62	1744.87
710.80	1718.25
710.99	1796.07
711.17	1773.54
711.35	1634.28
711.54	1714.15
711.72	1812.45
711.90	1697.77
712.09	1710.05
712.27	1648.61
712.45	1724.39
712.63	1638.38
712.82	1595.37
713.00	1683.43
713.18	1757.16
713.37	1816.55
713.55	1765.35
713.73	1777.64
713.91	1726.44
714.10	1716.20
714.28	1681.38
714.46	1732.58
714.65	1787.88
714.83	1667.05
715.01	1691.62
715.19	1720.29
715.38	1650.66
715.56	1693.67
715.74	1658.85
715.92	1624.04
716.11	1763.30
716.29	1599.46
716.47	1703.91
716.65	1632.23
716.84	1621.99
717.02	1722.34
717.20	1525.74
717.38	1705.96
717.57	1728.49
717.75	1677.29
717.93	1714.15
718.11	1738.73
718.30	1640.42
718.48	1722.34
718.66	1748.97
718.84	1771.49
719.03	1671.14
719.21	1648.61
719.39	1761.25
719.57	1755.11
719.75	1740.77
719.94	1665.00
720.12	1710.05
720.30	1693.67
720.48	1660.90
720.67	1714.15
720.85	1685.48
721.03	1603.56
721.21	1648.61
721.39	1718.25
721.58	1726.44
721.76	1667.05
721.94	1783.78
722.12	1640.42
722.30	1746.92
722.49	1673.19
722.67	1783.78
722.85	1740.77
723.03	1613.80
723.21	1648.61
723.40	1722.34
723.58	1775.59
723.76	1751.01
723.94	1757.16
724.12	1755.11
724.30	1798.12
724.49	1720.29
724.67	1650.66
724.85	1765.35
725.03	1617.90
725.21	1685.48
725.40	1759.21
725.58	1656.81
725.76	1812.45
725.94	1728.49
726.12	1685.48
726.30	1675.24
726.49	1746.92
726.67	1738.73
726.85	1744.87
727.03	1763.30
727.21	2123.74
727.39	2861.01
727.57	3792.84
727.76	4093.89
727.94	4501.44
728.12	4530.11
728.30	3821.51
728.48	3028.95
728.66	2731.99
728.84	2500.57
729.03	2263.01
729.21	2113.50
729.39	1970.15
729.57	1855.46
729.75	1798.12
729.93	1867.75
730.11	1681.38
730.30	1757.16
730.48	1705.96
730.66	1779.68
730.84	1665.00
731.02	1683.43
731.20	1697.77
731.38	1730.53
731.56	1652.71
731.74	1652.71
731.93	1660.90
732.11	1638.38
732.29	1658.85
732.47	1722.34
732.65	1767.40
732.83	1775.59
733.01	1748.97
733.19	1624.04
733.37	1730.53
733.56	1695.72
733.74	1710.05
733.92	1796.07
734.10	1697.77
734.28	1677.29
734.46	1624.04
734.64	1667.05
734.82	1708.01
735.00	1728.49
735.18	1669.09
735.36	1740.77
735.54	1681.38
735.73	1695.72
735.91	1701.86
736.09	1615.85
736.27	1679.33
736.45	1767.40
736.63	1624.04
736.81	1710.05
736.99	1787.88
737.17	1808.36
737.35	1654.76
737.53	1697.77
737.71	1814.50
737.89	1759.21
738.07	1632.23
738.25	1640.42
738.43	1615.85
738.61	1578.98
738.80	1675.24
738.98	1693.67
739.16	1703.91
739.34	1681.38
739.52	1779.68
739.70	1720.29
739.88	1718.25
740.06	1701.86
740.24	1652.71
740.42	1789.92
740.60	1587.18
740.78	1673.19
740.96	1630.18
741.14	1665.00
741.32	1685.48
741.50	1634.28
741.68	1857.51
741.86	1748.97
742.04	1691.62
742.22	1650.66
742.40	1724.39
742.58	1794.02
742.76	1599.46
742.94	1748.97
743.12	1589.22
743.30	1720.29
743.48	1681.38
743.66	1626.09
743.84	1841.12
744.02	1574.89
744.20	1615.85
744.38	1570.79
744.56	1677.29
744.74	1841.12
744.92	1681.38
745.10	1740.77
745.28	1679.33
745.46	1808.36
745.64	1644.52
745.82	1658.85
746.00	1669.09
746.18	1685.48
746.36	1681.38
746.54	1703.91
746.72	1665.00
746.90	1681.38
747.08	1814.50
747.26	1652.71
747.44	1757.16
747.62	1716.20
747.80	1736.68
747.98	1775.59
748.15	1685.48
748.33	1777.64
748.51	1679.33
748.69	1746.92
748.87	1732.58
749.05	1671.14
749.23	1697.77
749.41	1705.96
749.59	1705.96
749.77	1701.86
749.95	1667.05
750.13	1624.04
750.31	1744.87
750.49	1619.94
750.67	1703.91
750.85	1828.84
751.03	1677.29
751.20	1796.07
751.38	1685.48
751.56	1617.90
751.74	1769.44
751.92	1665.00
752.10	1646.57
752.28	1818.60
752.46	1669.09
752.64	1669.09
752.82	1746.92
753.00	1708.01
753.18	1662.95
753.35	1597.42
753.53	1665.00
753.71	1685.48
753.89	1681.38
754.07	1730.53
754.25	1742.82
754.43	1724.39
754.61	1568.74
754.79	1771.49
754.97	1642.47
755.14	1812.45
755.32	1734.63
755.50	1695.72
755.68	1683.43
755.86	1576.94
756.04	1701.86
756.22	1552.36
756.40	1720.29
756.57	1863.65
756.75	1665.00
756.93	1753.06
757.11	1744.87
757.29	1558.50
757.47	1642.47
757.65	1585.13
757.82	1601.51
758.00	1597.42
758.18	1710.05
758.36	1599.46
758.54	1755.11
758.72	1632.23
758.90	1718.25
759.07	1722.34
759.25	1753.06
759.43	1683.43
759.61	1640.42
759.79	2121.70
759.97	1787.88
760.15	1656.81
760.32	1654.76
760.50	1697.77
760.68	1718.25
760.86	1554.41
761.04	1714.15
761.22	1777.64
761.39	1718.25
761.57	1638.38
761.75	1791.97
761.93	1630.18
762.11	1693.67
762.28	1705.96
762.46	1660.90
762.64	1710.05
762.82	1583.08
763.00	1640.42
763.18	1720.29
763.35	1679.33
763.53	1716.20
763.71	1632.23
763.89	1673.19
764.07	1722.34
764.24	1697.77
764.42	1775.59
764.60	1683.43
764.78	1755.11
764.96	1722.34
765.13	1718.25
765.31	1642.47
765.49	1683.43
765.67	1667.05
765.84	1669.09
766.02	1695.72
766.20	1687.53
766.38	1710.05
766.56	1726.44
766.73	1714.15
766.91	1722.34
767.09	1665.00
767.27	1802.21
767.44	1667.05
767.62	1718.25
767.80	1718.25
767.98	1685.48
768.15	1710.05
768.33	1697.77
768.51	1689.57
768.69	1755.11
768.87	1683.43
769.04	1640.42
769.22	1798.12
769.40	1705.96
769.58	1798.12
769.75	1722.34
769.93	1767.40
770.11	1693.67
770.28	1671.14
770.46	1787.88
770.64	1814.50
770.82	1716.20
770.99	1689.57
771.17	1669.09
771.35	1673.19
771.53	1681.38
771.70	1671.14
771.88	1716.20
772.06	1679.33
772.23	1658.85
772.41	1761.25
772.59	1687.53
772.77	1693.67
772.94	1591.27
773.12	1665.00
773.30	1642.47
773.47	1744.87
773.65	1662.95
773.83	1789.92
774.01	1636.33
774.18	1601.51
774.36	1644.52
774.54	1636.33
774.71	1685.48
774.89	1581.03
775.07	1581.03
775.24	1679.33
775.42	1572.84
775.60	1675.24
775.78	1654.76
775.95	1730.53
776.13	1652.71
776.31	1558.50
776.48	1562.60
776.66	1697.77
776.84	1619.94
777.01	1744.87
777.19	1640.42
777.37	1685.48
777.54	1671.14
777.72	1765.35
777.90	1771.49
778.07	1671.14
778.25	1931.23
778.43	1730.53
778.60	1652.71
778.78	1775.59
778.96	1703.91
779.13	1648.61
779.31	1755.11
779.49	1652.71
779.66	1732.58
779.84	1763.30
780.01	1689.57
780.19	1550.31
780.37	1761.25
780.54	1759.21
780.72	1642.47
780.90	1697.77
781.07	1601.51
781.25	1613.80
781.43	1771.49
781.60	1722.34
781.78	1796.07
781.95	1673.19
782.13	1738.73
782.31	1644.52
782.48	1554.41
782.66	1703.91
782.83	1771.49
783.01	1638.38
783.19	1773.54
783.36	1630.18
783.54	1630.18
783.72	1697.77
783.89	1636.33
784.07	1665.00
784.24	1677.29
784.42	1699.81
784.60	1656.81
784.77	1718.25
784.95	1662.95
785.12	1613.80
785.30	1730.53
785.47	1740.77
785.65	1574.89
785.83	1644.52
786.00	1650.66
786.18	1732.58
786.35	1658.85
786.53	1712.10
786.71	1722.34
786.88	1658.85
787.06	1632.23
787.23	1617.90
787.41	1626.09
787.58	1691.62
787.76	1556.46
787.94	1636.33
788.11	1695.72
788.29	1601.51
788.46	1624.04
788.64	1544.17
788.81	1697.77
788.99	1597.42
789.16	1658.85
789.34	1740.77
789.52	1607.66
789.69	1624.04
789.87	1578.98
790.04	1712.10
790.22	1708.01
790.39	1804.26
790.57	1521.64
790.74	1628.14
790.92	1767.40
791.09	1652.71
791.27	1628.14
791.44	1738.73
791.62	1712.10
791.79	1728.49
791.97	1685.48
792.15	1822.69
792.32	1716.20
792.50	1751.01
792.67	1808.36
792.85	1716.20
793.02	1636.33
793.20	1662.95
793.37	1687.53
793.55	1638.38
793.72	1585.13
793.90	1751.01
794.07	1646.57
794.25	1687.53
794.42	1722.34
794.60	1665.00
794.77	1710.05
794.95	1755.11
795.12	1742.82
795.30	1691.62
795.47	1607.66
795.65	1828.84
795.82	1681.38
796.00	1671.14
796.17	1660.90
796.34	1671.14
796.52	1687.53
796.69	1818.60
796.87	1787.88
797.04	1665.00
797.22	1687.53
797.39	1716.20
797.57	1701.86
797.74	1730.53
797.92	1624.04
798.09	1677.29
798.27	1744.87
798.44	1806.31
798.62	1615.85
798.79	1705.96
798.96	1681.38
799.14	1689.57
799.31	1853.41
799.49	1634.28
799.66	1675.24
799.84	1734.63
800.01	1665.00
800.19	1681.38
800.36	1632.23
800.53	1685.48
800.71	1642.47
800.88	1759.21
801.06	1517.54
801.23	1660.90
801.41	1701.86
801.58	1705.96
801.75	1624.04
801.93	1636.33
802.10	1757.16
802.28	1699.81
802.45	1665.00
802.63	1730.53
802.80	1757.16
802.97	1636.33
803.15	1699.81
803.32	1662.95
803.50	1681.38
803.67	1648.61
803.84	1697.77
804.02	1654.76
804.19	1660.90
804.37	1607.66
804.54	1628.14
804.71	1714.15
804.89	1697.77
805.06	1681.38
805.24	1624.04
805.41	1665.00
805.58	1689.57
805.76	1779.68
805.93	1683.43
806.10	1771.49
806.28	1755.11
806.45	1802.21
806.63	1689.57
806.80	1673.19
806.97	1662.95
807.15	1755.11
807.32	1712.10
807.49	1724.39
807.67	1585.13
807.84	1673.19
808.01	1634.28
808.19	1734.63
808.36	1802.21
808.54	1665.00
808.71	1624.04
808.88	1691.62
809.06	1658.85
809.23	1783.78
809.40	1644.52
809.58	1798.12
809.75	1728.49
809.92	1765.35
810.10	1759.21
810.27	1730.53
810.44	1742.82
810.62	1722.34
810.79	1718.25
810.96	1652.71
811.14	1626.09
811.31	1746.92
811.48	1689.57
811.66	1648.61
811.83	1673.19
812.00	1740.77
812.18	1751.01
812.35	1794.02
812.52	1650.66
812.69	1673.19
812.87	1669.09
813.04	1607.66
813.21	1667.05
813.39	1652.71
813.56	1646.57
813.73	1699.81
813.91	1583.08
814.08	1660.90
814.25	1687.53
814.42	1619.94
814.60	1665.00
814.77	1683.43
814.94	1699.81
815.12	1681.38
815.29	1742.82
815.46	1660.90
815.63	1701.86
815.81	1695.72
815.98	1673.19
816.15	1665.00
816.33	1718.25
816.50	1710.05
816.67	1638.38
816.84	1634.28
817.02	1636.33
817.19	1656.81
817.36	1685.48
817.53	1744.87
817.71	1599.46
817.88	1753.06
818.05	1693.67
818.22	1609.70
818.40	1830.88
818.57	1677.29
818.74	1681.38
818.91	1681.38
819.09	1714.15
819.26	1820.64
819.43	1640.42
819.60	1619.94
819.78	1769.44
819.95	1744.87
820.12	1587.18
820.29	1703.91
820.47	1757.16
820.64	1671.14
820.81	1572.84
820.98	1591.27
821.15	1665.00
821.33	1804.26
821.50	1562.60
821.67	1759.21
821.84	1673.19
822.02	1736.68
822.19	1736.68
822.36	1632.23
822.53	1681.38
822.70	1685.48
822.88	1644.52
823.05	1751.01
823.22	1703.91
823.39	1693.67
823.56	1705.96
823.74	1804.26
823.91	1603.56
824.08	1675.24
824.25	1558.50
824.42	1755.11
824.60	1611.75
824.77	1730.53
824.94	1720.29
825.11	1716.20
825.28	1550.31
825.45	1740.77
825.63	1681.38
825.80	1654.76
825.97	1671.14
826.14	1759.21
826.31	1650.66
826.48	1695.72
826.66	1673.19
826.83	1667.05
827.00	1650.66
827.17	1671.14
827.34	1671.14
827.51	1638.38
827.69	1759.21
827.86	1615.85
828.03	1734.63
828.20	1716.20
828.37	1718.25
828.54	1705.96
828.71	1621.99
828.89	1751.01
829.06	1740.77
829.23	1675.24
829.40	1634.28
829.57	1669.09
829.74	1775.59
829.91	1685.48
830.09	1671.14
830.26	1697.77
830.43	1773.54
830.60	1722.34
830.77	1779.68
830.94	1738.73
831.11	1765.35
831.28	1626.09
831.46	1781.73
831.63	1669.09
831.80	1763.30
831.97	1695.72
832.14	1691.62
832.31	1765.35
832.48	1732.58
832.65	1724.39
832.82	1703.91
832.99	1748.97
833.17	1636.33
833.34	1783.78
833.51	1740.77
833.68	1558.50
833.85	1683.43
834.02	1656.81
834.19	1542.12
834.36	1642.47
834.53	1730.53
834.70	1798.12
834.87	1716.20
835.04	1746.92
835.22	1587.18
835.39	1738.73
835.56	1654.76
835.73	1718.25
835.90	1748.97
836.07	1581.03
836.24	1724.39
836.41	1632.23
836.58	1642.47
836.75	1677.29
836.92	1701.86
837.09	1646.57
837.26	1726.44
837.43	1626.09
837.60	1660.90
837.77	1644.52
837.94	1740.77
838.12	1789.92
838.29	1738.73
838.46	1689.57
838.63	1591.27
838.80	1777.64
838.97	1722.34
839.14	1730.53
839.31	1662.95
839.48	1697.77
839.65	1630.18
839.82	1785.83
839.99	1701.86
840.16	1667.05
840.33	1656.81
840.50	1710.05
840.67	1701.86
840.84	1562.60
841.01	1734.63
841.18	1611.75
841.35	1656.81
841.52	1728.49
841.69	1783.78
841.86	1746.92
842.03	1726.44
842.20	1777.64
842.37	1609.70
842.54	1757.16
842.71	1626.09
842.88	1603.56
843.05	1832.93
843.22	1656.81
843.39	1794.02
843.56	1658.85
843.73	1708.01
843.90	1791.97
844.07	1744.87
844.24	1742.82
844.41	1673.19
844.58	1685.48
844.75	1718.25
844.92	1734.63
845.09	1646.57
845.26	1621.99
845.43	1820.64
845.60	1722.34
845.77	1763.30
845.94	1642.47
846.10	1789.92
846.27	1665.00
846.44	1685.48
846.61	1697.77
846.78	1708.01
846.95	1716.20
847.12	1685.48
847.29	1607.66
847.46	1705.96
847.63	1660.90
847.80	1619.94
847.97	1681.38
848.14	1849.32
848.31	1710.05
848.48	1634.28
848.65	1740.77
848.82	1673.19
848.98	1822.69
849.15	1650.66
849.32	1701.86
849.49	1726.44
849.66	1665.00
849.83	1589.22
850.00	1576.94
850.17	1734.63
850.34	1689.57
850.51	1642.47
850.68	1683.43
850.85	1794.02
851.01	1734.63
851.18	1689.57
851.35	1720.29
851.52	1724.39
851.69	1755.11
851.86	1630.18
852.03	1679.33
852.20	1687.53
852.37	1734.63
852.53	1597.42
852.70	1667.05
852.87	1757.16
853.04	1701.86
853.21	1708.01
853.38	1732.58
853.55	1777.64
853.72	1728.49
853.89	1656.81
854.05	1658.85
854.22	1658.85
854.39	1687.53
854.56	1722.34
854.73	1763.30
854.90	1654.76
855.07	1712.10
855.23	1693.67
855.40	1626.09
855.57	1617.90
855.74	1513.45
855.91	1798.12
856.08	1624.04
856.25	1697.77
856.41	1681.38
856.58	1685.48
856.75	1640.42
856.92	1677.29
857.09	1699.81
857.26	1638.38
857.42	1615.85
857.59	1695.72
857.76	1656.81
857.93	1669.09
858.10	1708.01
858.27	1599.46
858.43	1685.48
858.60	1599.46
858.77	1691.62
858.94	1644.52
859.11	1693.67
859.27	1626.09
859.44	1656.81
859.61	1880.04
859.78	1714.15
859.95	1673.19
860.12	1640.42
860.28	1857.51
860.45	1855.46
860.62	1607.66
860.79	1716.20
860.95	1714.15
861.12	1697.77
861.29	1687.53
861.46	1654.76
861.63	1665.00
861.79	1683.43
861.96	1691.62
862.13	1652.71
862.30	1746.92
862.47	1611.75
862.63	1621.99
862.80	1746.92
862.97	1607.66
863.14	1695.72
863.30	1716.20
863.47	1732.58
863.64	1753.06
863.81	1673.19
863.97	1699.81
864.14	1646.57
864.31	1685.48
864.48	1789.92
864.65	1646.57
864.81	1722.34
864.98	1689.57
865.15	1693.67
865.32	1806.31
865.48	1728.49
865.65	1771.49
865.82	1589.22
865.98	1665.00
866.15	1744.87
866.32	1642.47
866.49	1697.77
866.65	1726.44
866.82	1677.29
866.99	1724.39
867.16	1611.75
867.32	1662.95
867.49	1718.25
867.66	1687.53
867.83	1665.00
867.99	1529.83
868.16	1691.62
868.33	1599.46
868.49	1689.57
868.66	1660.90
868.83	1673.19
868.99	1742.82
869.16	1689.57
869.33	1689.57
869.50	1771.49
869.66	1703.91
869.83	1726.44
870.00	1583.08
870.16	1714.15
870.33	1630.18
870.50	1757.16
870.66	1671.14
870.83	1855.46
871.00	1665.00
871.17	1681.38
871.33	1693.67
871.50	1712.10
871.67	1675.24
871.83	1613.80
872.00	1841.12
872.17	1697.77
872.33	1785.83
872.50	1777.64
872.67	1619.94
872.83	1638.38
873.00	1667.05
873.17	1593.32
873.33	1722.34
873.50	1736.68
873.67	1607.66
873.83	1609.70
874.00	1796.07
874.16	1724.39
874.33	1798.12
874.50	1683.43
874.66	1769.44
874.83	1679.33
875.00	1705.96
875.16	1728.49
875.33	1761.25
875.50	1587.18
875.66	1685.48
875.83	1728.49
875.99	1804.26
876.16	1591.27
876.33	1724.39
876.49	1677.29
876.66	1697.77
876.83	1628.14
876.99	1615.85
877.16	1718.25
877.32	1634.28
877.49	1722.34
877.66	1751.01
877.82	1814.50
877.99	1771.49
878.15	1732.58
878.32	1636.33
878.49	1638.38
878.65	1732.58
878.82	1791.97
878.98	1724.39
879.15	1683.43
879.32	1640.42
879.48	1685.48
879.65	1677.29
879.81	1654.76
879.98	1652.71
880.15	1710.05
880.31	1693.67
880.48	1724.39
880.64	1589.22
880.81	1685.48
880.97	1800.16
881.14	1740.77
881.31	1601.51
881.47	1763.30
881.64	1681.38
881.80	1656.81
881.97	1759.21
882.13	1755.11
882.30	1638.38
882.47	1714.15
882.63	1607.66
882.80	1595.37
882.96	1683.43
883.13	1722.34
883.29	1730.53
883.46	1662.95
883.62	1751.01
883.79	1689.57
883.95	1677.29
884.12	1687.53
884.29	1759.21
884.45	1681.38
884.62	1789.92
884.78	1685.48
884.95	1699.81
885.11	1644.52
885.28	1712.10
885.44	1658.85
885.61	1695.72
885.77	1732.58
885.94	1736.68
886.10	1703.91
886.27	1677.29
886.43	1808.36
886.60	1718.25
886.76	1665.00
886.93	1626.09
887.09	1722.34
887.26	1492.97
887.42	1650.66
887.59	1759.21
887.75	1777.64
887.92	1830.88
888.08	1748.97
888.25	1810.40
888.41	1689.57
888.58	1699.81
888.74	1665.00
888.91	1656.81
>>>>>End Processed Spectral Data<<<<<
