SpectraSuite Data File
++++++++++++++++++++++++++++++++++++
Date: Mon Jun 06 12:41:57 CEST 2016
User: root
Dark Spectrum Present: No
Reference Spectrum Present: No
Number of Sampled Component Spectra: 1
Spectrometers: USB4C02835
Integration Time (usec): 100000 (USB4C02835)
Spectra Averaged: 1 (USB4C02835)
Boxcar Smoothing: 0 (USB4C02835)
Correct for Electrical Dark: No (USB4C02835)
Strobe/Lamp Enabled: No (USB4C02835)
Correct for Detector Non-linearity: No (USB4C02835)
Correct for Stray Light: No (USB4C02835)
Number of Pixels in Processed Spectrum: 3648
>>>>>Begin Processed Spectral Data<<<<<
177.47	1423.34
177.69	1423.34
177.91	1423.34
178.13	1511.40
178.36	1476.59
178.58	1587.18
178.80	1732.58
179.02	1605.61
179.24	1648.61
179.46	1785.83
179.68	1791.97
179.90	1665.00
180.13	1738.73
180.35	1701.86
180.57	1619.94
180.79	1689.57
181.01	1701.86
181.23	1761.25
181.45	1683.43
181.67	1718.25
181.90	1693.67
182.12	1677.29
182.34	1585.13
182.56	1716.20
182.78	1757.16
183.00	1669.09
183.22	1748.97
183.44	1574.89
183.66	1865.70
183.89	1701.86
184.11	1665.00
184.33	1798.12
184.55	1726.44
184.77	1685.48
184.99	1710.05
185.21	1742.82
185.43	1812.45
185.65	1644.52
185.87	1724.39
186.10	1791.97
186.32	1894.37
186.54	1689.57
186.76	1757.16
186.98	1742.82
187.20	1714.15
187.42	1675.24
187.64	1710.05
187.86	1658.85
188.08	1746.92
188.30	1683.43
188.52	1701.86
188.75	1705.96
188.97	1714.15
189.19	1611.75
189.41	1689.57
189.63	1740.77
189.85	1646.57
190.07	1587.18
190.29	1599.46
190.51	1695.72
190.73	1617.90
190.95	1781.73
191.17	1640.42
191.39	1578.98
191.61	1689.57
191.84	1632.23
192.06	1705.96
192.28	1566.70
192.50	1822.69
192.72	1667.05
192.94	1685.48
193.16	1716.20
193.38	1658.85
193.60	1697.77
193.82	1705.96
194.04	1714.15
194.26	1697.77
194.48	1677.29
194.70	1671.14
194.92	1656.81
195.14	1757.16
195.36	1665.00
195.58	1697.77
195.80	1644.52
196.02	1677.29
196.24	1722.34
196.46	1763.30
196.69	1677.29
196.91	1839.08
197.13	1708.01
197.35	1671.14
197.57	1814.50
197.79	1796.07
198.01	1802.21
198.23	1710.05
198.45	1689.57
198.67	1621.99
198.89	1718.25
199.11	1665.00
199.33	1669.09
199.55	1535.98
199.77	1705.96
199.99	1714.15
200.21	1740.77
200.43	1720.29
200.65	1648.61
200.87	1554.41
201.09	1683.43
201.31	1603.56
201.53	1746.92
201.75	1708.01
201.97	1716.20
202.19	1656.81
202.41	1718.25
202.63	1896.42
202.85	1755.11
203.07	1658.85
203.29	1716.20
203.51	1667.05
203.73	1607.66
203.95	1898.47
204.17	1689.57
204.39	1738.73
204.61	1636.33
204.83	1728.49
205.05	1701.86
205.27	1787.88
205.49	1775.59
205.71	1697.77
205.93	1624.04
206.15	1699.81
206.37	1699.81
206.59	1699.81
206.81	1673.19
207.03	1621.99
207.25	1656.81
207.47	1685.48
207.69	1626.09
207.91	1818.60
208.13	1718.25
208.34	1697.77
208.56	1677.29
208.78	1701.86
209.00	1621.99
209.22	1665.00
209.44	1693.67
209.66	1677.29
209.88	1697.77
210.10	1662.95
210.32	1718.25
210.54	1773.54
210.76	1718.25
210.98	1730.53
211.20	1599.46
211.42	1640.42
211.64	1716.20
211.86	1746.92
212.08	1705.96
212.30	1716.20
212.52	1679.33
212.74	1705.96
212.96	1701.86
213.17	1738.73
213.39	1716.20
213.61	1722.34
213.83	1683.43
214.05	1716.20
214.27	1708.01
214.49	1691.62
214.71	1689.57
214.93	1736.68
215.15	1726.44
215.37	1691.62
215.59	1679.33
215.81	1689.57
216.03	1738.73
216.24	1728.49
216.46	1679.33
216.68	1689.57
216.90	1751.01
217.12	1794.02
217.34	1722.34
217.56	1742.82
217.78	1796.07
218.00	1673.19
218.22	1738.73
218.44	1681.38
218.66	1697.77
218.87	1785.83
219.09	1652.71
219.31	1751.01
219.53	1669.09
219.75	1675.24
219.97	1730.53
220.19	1652.71
220.41	1677.29
220.63	1769.44
220.85	1703.91
221.06	1607.66
221.28	1771.49
221.50	1726.44
221.72	1677.29
221.94	1748.97
222.16	1695.72
222.38	1828.84
222.60	1781.73
222.82	1650.66
223.03	1615.85
223.25	1638.38
223.47	1730.53
223.69	1855.46
223.91	1701.86
224.13	1697.77
224.35	1632.23
224.57	1742.82
224.78	1689.57
225.00	1701.86
225.22	1726.44
225.44	1701.86
225.66	1701.86
225.88	1699.81
226.10	1712.10
226.32	1714.15
226.53	1853.41
226.75	1621.99
226.97	1656.81
227.19	1656.81
227.41	1685.48
227.63	1667.05
227.85	1658.85
228.06	1740.77
228.28	1656.81
228.50	1757.16
228.72	1677.29
228.94	1681.38
229.16	1669.09
229.37	1677.29
229.59	1693.67
229.81	1675.24
230.03	1634.28
230.25	1630.18
230.47	1650.66
230.69	1615.85
230.90	1748.97
231.12	1632.23
231.34	1665.00
231.56	1810.40
231.78	1689.57
232.00	1843.17
232.21	1691.62
232.43	1648.61
232.65	1578.98
232.87	1693.67
233.09	1669.09
233.30	1648.61
233.52	1775.59
233.74	1703.91
233.96	1701.86
234.18	1679.33
234.40	1738.73
234.61	1808.36
234.83	1499.11
235.05	1638.38
235.27	1834.98
235.49	1742.82
235.70	1744.87
235.92	1757.16
236.14	1689.57
236.36	1736.68
236.58	1644.52
236.79	1779.68
237.01	1673.19
237.23	1724.39
237.45	1865.70
237.67	1691.62
237.88	1716.20
238.10	1763.30
238.32	1724.39
238.54	1703.91
238.76	1716.20
238.97	1607.66
239.19	1705.96
239.41	1701.86
239.63	1734.63
239.85	1726.44
240.06	1732.58
240.28	1642.47
240.50	1730.53
240.72	1624.04
240.93	1650.66
241.15	1767.40
241.37	1656.81
241.59	1763.30
241.81	1732.58
242.02	1677.29
242.24	1720.29
242.46	1691.62
242.68	1677.29
242.89	1751.01
243.11	1781.73
243.33	1722.34
243.55	1662.95
243.76	1724.39
243.98	1705.96
244.20	1748.97
244.42	1648.61
244.64	1734.63
244.85	1728.49
245.07	1722.34
245.29	1828.84
245.51	1755.11
245.72	1656.81
245.94	1769.44
246.16	1755.11
246.38	1757.16
246.59	1724.39
246.81	1681.38
247.03	1683.43
247.24	1646.57
247.46	1712.10
247.68	1722.34
247.90	1687.53
248.11	1679.33
248.33	1658.85
248.55	1644.52
248.77	1734.63
248.98	1730.53
249.20	1740.77
249.42	1716.20
249.64	1667.05
249.85	1710.05
250.07	1595.37
250.29	1681.38
250.50	1728.49
250.72	1677.29
250.94	1671.14
251.16	1882.08
251.37	1710.05
251.59	1705.96
251.81	1650.66
252.02	1742.82
252.24	1617.90
252.46	1822.69
252.68	1673.19
252.89	1771.49
253.11	1564.65
253.33	1802.21
253.54	1775.59
253.76	1572.84
253.98	1695.72
254.20	1656.81
254.41	1630.18
254.63	1673.19
254.85	1628.14
255.06	1708.01
255.28	1742.82
255.50	1771.49
255.71	1650.66
255.93	1607.66
256.15	1683.43
256.36	1738.73
256.58	1656.81
256.80	1791.97
257.02	1689.57
257.23	1636.33
257.45	1656.81
257.67	1757.16
257.88	1607.66
258.10	1714.15
258.32	1705.96
258.53	1654.76
258.75	1701.86
258.97	1667.05
259.18	1699.81
259.40	1736.68
259.62	1804.26
259.83	1738.73
260.05	1814.50
260.27	1990.63
260.48	1730.53
260.70	1710.05
260.92	1685.48
261.13	1751.01
261.35	1636.33
261.57	1773.54
261.78	1640.42
262.00	1585.13
262.22	1751.01
262.43	1677.29
262.65	1712.10
262.86	1701.86
263.08	1744.87
263.30	1675.24
263.51	1677.29
263.73	1642.47
263.95	1736.68
264.16	1632.23
264.38	1710.05
264.60	1742.82
264.81	1685.48
265.03	1708.01
265.25	1773.54
265.46	1712.10
265.68	1779.68
265.89	1740.77
266.11	1531.88
266.33	1716.20
266.54	1791.97
266.76	1736.68
266.98	1710.05
267.19	1755.11
267.41	1730.53
267.62	1681.38
267.84	1597.42
268.06	1683.43
268.27	1685.48
268.49	1701.86
268.70	1710.05
268.92	1681.38
269.14	1654.76
269.35	1677.29
269.57	1650.66
269.79	1794.02
270.00	1589.22
270.22	1740.77
270.43	1634.28
270.65	1589.22
270.87	1673.19
271.08	1703.91
271.30	1701.86
271.51	1650.66
271.73	1646.57
271.95	1718.25
272.16	1689.57
272.38	1718.25
272.59	1708.01
272.81	1677.29
273.02	1683.43
273.24	1773.54
273.46	1742.82
273.67	1728.49
273.89	1660.90
274.10	1609.70
274.32	1738.73
274.54	1695.72
274.75	1714.15
274.97	1656.81
275.18	1699.81
275.40	1798.12
275.61	1712.10
275.83	1691.62
276.05	1652.71
276.26	1681.38
276.48	1734.63
276.69	1685.48
276.91	1611.75
277.12	1798.12
277.34	1796.07
277.55	1765.35
277.77	1787.88
277.99	1650.66
278.20	1714.15
278.42	1685.48
278.63	1650.66
278.85	1724.39
279.06	1705.96
279.28	1712.10
279.49	1740.77
279.71	1691.62
279.93	1677.29
280.14	1691.62
280.36	1611.75
280.57	1740.77
280.79	1757.16
281.00	1718.25
281.22	1689.57
281.43	1765.35
281.65	1576.94
281.86	1619.94
282.08	1781.73
282.29	1775.59
282.51	1544.17
282.73	1642.47
282.94	1630.18
283.16	1648.61
283.37	1849.32
283.59	1708.01
283.80	1804.26
284.02	1665.00
284.23	1703.91
284.45	1650.66
284.66	1587.18
284.88	1718.25
285.09	1748.97
285.31	1697.77
285.52	1669.09
285.74	1597.42
285.95	1695.72
286.17	1705.96
286.38	1724.39
286.60	1644.52
286.81	1632.23
287.03	1656.81
287.24	1689.57
287.46	1722.34
287.67	1679.33
287.89	1826.79
288.10	1691.62
288.32	1714.15
288.53	1808.36
288.75	1687.53
288.96	1710.05
289.18	1638.38
289.39	1644.52
289.61	1732.58
289.82	1847.27
290.04	1714.15
290.25	1587.18
290.47	1650.66
290.68	1673.19
290.90	1718.25
291.11	1705.96
291.33	1759.21
291.54	1665.00
291.76	1609.70
291.97	1679.33
292.18	1679.33
292.40	1597.42
292.61	1667.05
292.83	1779.68
293.04	1718.25
293.26	1800.16
293.47	1658.85
293.69	1697.77
293.90	1744.87
294.12	1736.68
294.33	1640.42
294.55	1703.91
294.76	1738.73
294.97	1759.21
295.19	1820.64
295.40	1652.71
295.62	1728.49
295.83	1683.43
296.05	1675.24
296.26	1779.68
296.48	1687.53
296.69	1701.86
296.90	1779.68
297.12	1742.82
297.33	1812.45
297.55	1636.33
297.76	1705.96
297.98	1724.39
298.19	1767.40
298.41	1740.77
298.62	1601.51
298.83	1890.28
299.05	1691.62
299.26	1701.86
299.48	1652.71
299.69	1736.68
299.90	1677.29
300.12	1683.43
300.33	1650.66
300.55	1730.53
300.76	1716.20
300.98	1621.99
301.19	1779.68
301.40	1660.90
301.62	1718.25
301.83	1734.63
302.05	1656.81
302.26	1644.52
302.47	1695.72
302.69	1632.23
302.90	1718.25
303.12	1587.18
303.33	1751.01
303.54	1761.25
303.76	1740.77
303.97	1720.29
304.19	1804.26
304.40	1566.70
304.61	1728.49
304.83	1822.69
305.04	1742.82
305.26	1734.63
305.47	1705.96
305.68	1632.23
305.90	1607.66
306.11	1710.05
306.33	1595.37
306.54	1636.33
306.75	1734.63
306.97	1591.27
307.18	1697.77
307.39	1642.47
307.61	1763.30
307.82	1658.85
308.04	1724.39
308.25	1665.00
308.46	1716.20
308.68	1716.20
308.89	1740.77
309.10	1763.30
309.32	1736.68
309.53	1736.68
309.74	1665.00
309.96	1734.63
310.17	1744.87
310.39	1621.99
310.60	1710.05
310.81	1679.33
311.03	1638.38
311.24	1740.77
311.45	1644.52
311.67	1744.87
311.88	1691.62
312.09	1634.28
312.31	1687.53
312.52	1705.96
312.73	1695.72
312.95	1605.61
313.16	1644.52
313.37	1824.74
313.59	1693.67
313.80	1728.49
314.01	1832.93
314.23	1634.28
314.44	1712.10
314.65	1632.23
314.87	1677.29
315.08	1728.49
315.29	1652.71
315.51	1640.42
315.72	1628.14
315.93	1798.12
316.15	1769.44
316.36	1697.77
316.57	1648.61
316.79	1728.49
317.00	1642.47
317.21	1658.85
317.43	1689.57
317.64	1746.92
317.85	1732.58
318.07	1697.77
318.28	1656.81
318.49	1759.21
318.70	1927.14
318.92	1824.74
319.13	1814.50
319.34	1742.82
319.56	1785.83
319.77	1820.64
319.98	1812.45
320.20	1720.29
320.41	1785.83
320.62	1716.20
320.83	1710.05
321.05	1853.41
321.26	1705.96
321.47	1699.81
321.69	1779.68
321.90	1621.99
322.11	1722.34
322.32	1677.29
322.54	1697.77
322.75	1636.33
322.96	1873.89
323.18	1587.18
323.39	1656.81
323.60	1730.53
323.81	1775.59
324.03	1585.13
324.24	1732.58
324.45	1685.48
324.66	1644.52
324.88	1763.30
325.09	1796.07
325.30	1724.39
325.52	1736.68
325.73	1718.25
325.94	1689.57
326.15	1662.95
326.37	1669.09
326.58	1796.07
326.79	1755.11
327.00	1585.13
327.22	1767.40
327.43	1673.19
327.64	1630.18
327.85	1779.68
328.07	1697.77
328.28	1816.55
328.49	1642.47
328.70	1710.05
328.92	1689.57
329.13	1640.42
329.34	1753.06
329.55	1818.60
329.76	1777.64
329.98	1691.62
330.19	1800.16
330.40	1667.05
330.61	1673.19
330.83	1779.68
331.04	1654.76
331.25	1681.38
331.46	1689.57
331.68	1636.33
331.89	1699.81
332.10	1671.14
332.31	1566.70
332.52	1656.81
332.74	1738.73
332.95	1634.28
333.16	1662.95
333.37	1781.73
333.58	1603.56
333.80	1732.58
334.01	1626.09
334.22	1626.09
334.43	1632.23
334.64	1689.57
334.86	1687.53
335.07	1652.71
335.28	1746.92
335.49	1658.85
335.70	1744.87
335.92	1791.97
336.13	1824.74
336.34	1665.00
336.55	1724.39
336.76	1734.63
336.98	1619.94
337.19	1724.39
337.40	1867.75
337.61	1783.78
337.82	1636.33
338.04	1722.34
338.25	1638.38
338.46	1726.44
338.67	1767.40
338.88	1726.44
339.09	1607.66
339.31	1636.33
339.52	1644.52
339.73	1724.39
339.94	1669.09
340.15	1765.35
340.36	1757.16
340.58	1693.67
340.79	1650.66
341.00	1753.06
341.21	1677.29
341.42	1785.83
341.63	1689.57
341.85	1763.30
342.06	1718.25
342.27	1644.52
342.48	1667.05
342.69	1648.61
342.90	1738.73
343.12	1646.57
343.33	1732.58
343.54	1742.82
343.75	1822.69
343.96	1673.19
344.17	1648.61
344.38	1669.09
344.60	1681.38
344.81	1656.81
345.02	1636.33
345.23	1712.10
345.44	1769.44
345.65	1701.86
345.86	1785.83
346.07	1681.38
346.29	1705.96
346.50	1728.49
346.71	1734.63
346.92	1716.20
347.13	1816.55
347.34	1726.44
347.55	1724.39
347.76	1847.27
347.98	1587.18
348.19	1677.29
348.40	1736.68
348.61	1566.70
348.82	1808.36
349.03	1742.82
349.24	1619.94
349.45	1828.84
349.66	1480.68
349.88	1654.76
350.09	1650.66
350.30	1869.80
350.51	1642.47
350.72	1783.78
350.93	1810.40
351.14	1630.18
351.35	1751.01
351.56	1712.10
351.77	1679.33
351.99	1703.91
352.20	1804.26
352.41	1798.12
352.62	1568.74
352.83	1679.33
353.04	1681.38
353.25	1677.29
353.46	1755.11
353.67	1740.77
353.88	1515.50
354.09	1705.96
354.30	1701.86
354.52	1714.15
354.73	1615.85
354.94	1681.38
355.15	1708.01
355.36	1812.45
355.57	1621.99
355.78	1695.72
355.99	1644.52
356.20	1669.09
356.41	1708.01
356.62	1755.11
356.83	1689.57
357.04	1808.36
357.25	1630.18
357.46	1662.95
357.68	1560.55
357.89	1650.66
358.10	1626.09
358.31	1619.94
358.52	1646.57
358.73	1581.03
358.94	1591.27
359.15	1632.23
359.36	1746.92
359.57	1697.77
359.78	1624.04
359.99	1712.10
360.20	1732.58
360.41	1701.86
360.62	1708.01
360.83	1738.73
361.04	1712.10
361.25	1710.05
361.46	1728.49
361.67	1695.72
361.88	1753.06
362.09	1751.01
362.30	1640.42
362.51	1671.14
362.72	1722.34
362.93	1669.09
363.14	1742.82
363.35	1636.33
363.56	1691.62
363.78	1734.63
363.99	1775.59
364.20	1642.47
364.41	1724.39
364.62	1718.25
364.83	1732.58
365.04	1761.25
365.25	1613.80
365.46	1789.92
365.67	1726.44
365.88	1652.71
366.09	1591.27
366.30	1630.18
366.51	1640.42
366.72	1632.23
366.93	1658.85
367.14	1708.01
367.35	1775.59
367.56	1693.67
367.77	1730.53
367.98	1705.96
368.18	1710.05
368.39	1726.44
368.60	1679.33
368.81	1710.05
369.02	1714.15
369.23	1701.86
369.44	1607.66
369.65	1669.09
369.86	1767.40
370.07	1714.15
370.28	1632.23
370.49	1785.83
370.70	1708.01
370.91	1671.14
371.12	1628.14
371.33	1740.77
371.54	1710.05
371.75	1777.64
371.96	1615.85
372.17	1710.05
372.38	1699.81
372.59	1728.49
372.80	1634.28
373.01	1712.10
373.22	1681.38
373.43	1724.39
373.64	1689.57
373.85	1712.10
374.06	1812.45
374.26	1753.06
374.47	1669.09
374.68	1738.73
374.89	1628.14
375.10	1667.05
375.31	1755.11
375.52	1689.57
375.73	1722.34
375.94	1593.32
376.15	1783.78
376.36	1589.22
376.57	1728.49
376.78	1642.47
376.99	1724.39
377.20	1806.31
377.40	1718.25
377.61	1785.83
377.82	1626.09
378.03	1759.21
378.24	1665.00
378.45	1718.25
378.66	1794.02
378.87	1574.89
379.08	1656.81
379.29	1699.81
379.50	1781.73
379.71	1705.96
379.91	1730.53
380.12	1665.00
380.33	1673.19
380.54	1689.57
380.75	1759.21
380.96	1609.70
381.17	1755.11
381.38	1740.77
381.59	1716.20
381.80	1748.97
382.00	1863.65
382.21	1742.82
382.42	1810.40
382.63	1851.36
382.84	1800.16
383.05	1804.26
383.26	1732.58
383.47	1746.92
383.68	1812.45
383.88	1744.87
384.09	1730.53
384.30	1748.97
384.51	1757.16
384.72	1677.29
384.93	1660.90
385.14	1705.96
385.35	1689.57
385.55	1656.81
385.76	1740.77
385.97	1720.29
386.18	1630.18
386.39	1722.34
386.60	1728.49
386.81	1708.01
387.02	1660.90
387.22	1665.00
387.43	1808.36
387.64	1765.35
387.85	1849.32
388.06	2230.24
388.27	4294.59
388.48	6827.93
388.68	8144.77
388.89	9635.69
389.10	9662.32
389.31	8574.85
389.52	7448.46
389.73	6842.26
389.93	6330.27
390.14	5863.33
390.35	5117.87
390.56	4581.31
390.77	3745.73
390.98	3051.47
391.18	2559.96
391.39	2088.93
391.60	1845.22
391.81	1877.99
392.02	1697.77
392.23	1900.52
392.43	1753.06
392.64	1773.54
392.85	1724.39
393.06	1837.03
393.27	1718.25
393.47	1677.29
393.68	1753.06
393.89	1681.38
394.10	1845.22
394.31	1736.68
394.52	1712.10
394.72	1652.71
394.93	1755.11
395.14	1656.81
395.35	1665.00
395.56	1716.20
395.76	1740.77
395.97	1781.73
396.18	1843.17
396.39	1824.74
396.60	1968.10
396.80	1877.99
397.01	1839.08
397.22	1832.93
397.43	1820.64
397.64	1738.73
397.84	1798.12
398.05	1818.60
398.26	1785.83
398.47	1763.30
398.67	1779.68
398.88	1728.49
399.09	1654.76
399.30	1710.05
399.51	1730.53
399.71	1660.90
399.92	1701.86
400.13	1740.77
400.34	1605.61
400.54	1755.11
400.75	1650.66
400.96	1771.49
401.17	1748.97
401.37	1755.11
401.58	1671.14
401.79	1718.25
402.00	1902.56
402.21	2045.92
402.41	1935.33
402.62	1968.10
402.83	1984.48
403.04	2056.16
403.24	2039.78
403.45	1806.31
403.66	1941.47
403.87	1798.12
404.07	1947.62
404.28	1935.33
404.49	1863.65
404.70	1738.73
404.90	1748.97
405.11	1718.25
405.32	1722.34
405.52	1701.86
405.73	1673.19
405.94	1636.33
406.15	1693.67
406.35	1687.53
406.56	1720.29
406.77	1679.33
406.98	1734.63
407.18	1673.19
407.39	1796.07
407.60	1638.38
407.80	1724.39
408.01	1712.10
408.22	1779.68
408.43	1665.00
408.63	1796.07
408.84	1740.77
409.05	1798.12
409.25	1665.00
409.46	1691.62
409.67	1695.72
409.88	1679.33
410.08	1748.97
410.29	1693.67
410.50	1763.30
410.70	1751.01
410.91	1679.33
411.12	1722.34
411.32	1738.73
411.53	1656.81
411.74	1834.98
411.95	1777.64
412.15	1685.48
412.36	1724.39
412.57	1675.24
412.77	1714.15
412.98	1705.96
413.19	1691.62
413.39	1808.36
413.60	1785.83
413.81	1753.06
414.01	1728.49
414.22	1724.39
414.43	1755.11
414.63	1705.96
414.84	1751.01
415.05	1689.57
415.25	1705.96
415.46	1789.92
415.67	1652.71
415.87	1638.38
416.08	1732.58
416.29	1683.43
416.49	1779.68
416.70	1730.53
416.91	1738.73
417.11	1705.96
417.32	1705.96
417.53	1712.10
417.73	1783.78
417.94	1626.09
418.15	1740.77
418.35	1789.92
418.56	1722.34
418.77	1810.40
418.97	1673.19
419.18	1640.42
419.38	1570.79
419.59	1708.01
419.80	1843.17
420.00	1665.00
420.21	1771.49
420.42	1767.40
420.62	1781.73
420.83	1644.52
421.04	1695.72
421.24	1712.10
421.45	1767.40
421.65	1748.97
421.86	1730.53
422.07	1697.77
422.27	1724.39
422.48	1736.68
422.69	1636.33
422.89	1708.01
423.10	1673.19
423.30	1619.94
423.51	1705.96
423.72	1757.16
423.92	1759.21
424.13	1636.33
424.33	1675.24
424.54	1851.36
424.75	1703.91
424.95	1861.60
425.16	1761.25
425.36	1626.09
425.57	1683.43
425.78	1681.38
425.98	1771.49
426.19	1671.14
426.39	1599.46
426.60	1646.57
426.81	1732.58
427.01	1730.53
427.22	1599.46
427.42	1597.42
427.63	1607.66
427.83	1720.29
428.04	1820.64
428.25	1789.92
428.45	1734.63
428.66	1742.82
428.86	1697.77
429.07	1701.86
429.28	1701.86
429.48	1656.81
429.69	1665.00
429.89	1755.11
430.10	1656.81
430.30	1769.44
430.51	1757.16
430.71	1722.34
430.92	1687.53
431.13	1675.24
431.33	1775.59
431.54	1824.74
431.74	1708.01
431.95	1873.89
432.15	1685.48
432.36	1783.78
432.56	1775.59
432.77	1832.93
432.98	1761.25
433.18	1732.58
433.39	1701.86
433.59	1714.15
433.80	1775.59
434.00	1855.46
434.21	1695.72
434.41	1710.05
434.62	1771.49
434.82	1701.86
435.03	1701.86
435.23	1699.81
435.44	1632.23
435.64	1765.35
435.85	1718.25
436.06	1761.25
436.26	1710.05
436.47	1593.32
436.67	1761.25
436.88	1677.29
437.08	1726.44
437.29	1775.59
437.49	1800.16
437.70	1757.16
437.90	1677.29
438.11	1808.36
438.31	1828.84
438.52	1886.18
438.72	1849.32
438.93	1910.75
439.13	1740.77
439.34	1843.17
439.54	1632.23
439.75	1785.83
439.95	1828.84
440.16	1669.09
440.36	1714.15
440.57	1771.49
440.77	1693.67
440.98	1710.05
441.18	1714.15
441.39	1656.81
441.59	1644.52
441.80	1796.07
442.00	1771.49
442.21	1775.59
442.41	1691.62
442.62	1734.63
442.82	1722.34
443.02	1746.92
443.23	1759.21
443.43	1781.73
443.64	1689.57
443.84	1644.52
444.05	1869.80
444.25	1818.60
444.46	1673.19
444.66	1740.77
444.87	1847.27
445.07	1632.23
445.28	1705.96
445.48	1744.87
445.69	1814.50
445.89	1914.85
446.09	1748.97
446.30	2054.11
446.50	2617.30
446.71	3760.07
446.91	4353.98
447.12	4739.00
447.32	4859.83
447.53	4331.45
447.73	3686.34
447.93	3553.23
448.14	3330.00
448.34	3268.56
448.55	2899.92
448.75	2777.05
448.96	2592.73
449.16	2416.60
449.36	2248.67
449.57	2099.17
449.77	1884.13
449.98	1787.88
450.18	1787.88
450.39	1800.16
450.59	1796.07
450.79	1708.01
451.00	1705.96
451.20	1759.21
451.41	1701.86
451.61	1722.34
451.81	1763.30
452.02	1738.73
452.22	1705.96
452.43	1734.63
452.63	1695.72
452.84	1718.25
453.04	1624.04
453.24	1681.38
453.45	1667.05
453.65	1718.25
453.86	1746.92
454.06	1767.40
454.26	1785.83
454.47	1714.15
454.67	1845.22
454.87	1818.60
455.08	1773.54
455.28	1814.50
455.49	1763.30
455.69	1693.67
455.89	1853.41
456.10	1798.12
456.30	1730.53
456.51	1771.49
456.71	1812.45
456.91	1689.57
457.12	1763.30
457.32	1748.97
457.52	1636.33
457.73	1738.73
457.93	1800.16
458.14	1734.63
458.34	1646.57
458.54	1777.64
458.75	1689.57
458.95	1763.30
459.15	1759.21
459.36	1785.83
459.56	1716.20
459.76	1777.64
459.97	1746.92
460.17	1712.10
460.37	1763.30
460.58	1732.58
460.78	1814.50
460.99	1673.19
461.19	1708.01
461.39	1748.97
461.60	1697.77
461.80	1744.87
462.00	1619.94
462.21	1728.49
462.41	1744.87
462.61	1644.52
462.82	1671.14
463.02	1724.39
463.22	1845.22
463.43	1773.54
463.63	1687.53
463.83	1853.41
464.04	1728.49
464.24	1712.10
464.44	1683.43
464.64	1677.29
464.85	1738.73
465.05	1847.27
465.25	1728.49
465.46	1736.68
465.66	1791.97
465.86	1785.83
466.07	1818.60
466.27	1710.05
466.47	1716.20
466.68	1615.85
466.88	1812.45
467.08	1773.54
467.29	1675.24
467.49	1746.92
467.69	1679.33
467.89	1767.40
468.10	1699.81
468.30	1744.87
468.50	1843.17
468.71	1761.25
468.91	1673.19
469.11	1834.98
469.31	1701.86
469.52	1626.09
469.72	1837.03
469.92	1824.74
470.13	1740.77
470.33	1800.16
470.53	1814.50
470.73	2031.58
470.94	2185.18
471.14	2250.72
471.34	2498.52
471.54	2437.08
471.75	2263.01
471.95	2168.80
472.15	2127.84
472.36	2031.58
472.56	2115.55
472.76	2043.87
472.96	1992.67
473.17	1877.99
473.37	1867.75
473.57	1873.89
473.77	1738.73
473.98	1871.84
474.18	1638.38
474.38	1945.57
474.58	1681.38
474.79	1736.68
474.99	1814.50
475.19	1746.92
475.39	1632.23
475.60	1726.44
475.80	1687.53
476.00	1716.20
476.20	1687.53
476.41	1796.07
476.61	1796.07
476.81	1851.36
477.01	1638.38
477.21	1845.22
477.42	1761.25
477.62	1599.46
477.82	1687.53
478.02	1740.77
478.23	1746.92
478.43	1634.28
478.63	1701.86
478.83	1736.68
479.03	1675.24
479.24	1732.58
479.44	1841.12
479.64	1705.96
479.84	1640.42
480.04	1634.28
480.25	1767.40
480.45	1751.01
480.65	1634.28
480.85	1767.40
481.06	1708.01
481.26	1708.01
481.46	1757.16
481.66	1718.25
481.86	1734.63
482.06	1785.83
482.27	1783.78
482.47	1634.28
482.67	1714.15
482.87	1677.29
483.07	1837.03
483.28	1603.56
483.48	1673.19
483.68	1716.20
483.88	1658.85
484.08	1654.76
484.29	1609.70
484.49	1662.95
484.69	1660.90
484.89	1787.88
485.09	1742.82
485.29	1800.16
485.50	1804.26
485.70	1701.86
485.90	1779.68
486.10	1714.15
486.30	1834.98
486.50	1812.45
486.71	1746.92
486.91	1816.55
487.11	1775.59
487.31	1630.18
487.51	1687.53
487.71	1662.95
487.91	1705.96
488.12	1658.85
488.32	1603.56
488.52	1685.48
488.72	1624.04
488.92	1837.03
489.12	1820.64
489.32	1703.91
489.53	1736.68
489.73	1634.28
489.93	1816.55
490.13	1699.81
490.33	1591.27
490.53	1730.53
490.73	1816.55
490.94	1660.90
491.14	1798.12
491.34	1861.60
491.54	2164.70
491.74	2545.63
491.94	2953.17
492.14	3055.57
492.34	2992.08
492.54	2803.67
492.75	2469.85
492.95	2379.74
493.15	2353.12
493.35	2342.88
493.55	2199.52
493.75	2131.94
493.95	2136.03
494.15	1966.05
494.35	1898.47
494.56	1923.04
494.76	1826.79
494.96	1806.31
495.16	1757.16
495.36	1730.53
495.56	1720.29
495.76	1660.90
495.96	1730.53
496.16	1740.77
496.36	1847.27
496.56	1689.57
496.77	1712.10
496.97	1759.21
497.17	1812.45
497.37	1675.24
497.57	1710.05
497.77	1689.57
497.97	1744.87
498.17	1740.77
498.37	1703.91
498.57	1716.20
498.77	1783.78
498.97	1853.41
499.17	1830.88
499.38	1763.30
499.58	1800.16
499.78	1705.96
499.98	1771.49
500.18	1677.29
500.38	1642.47
500.58	1935.33
500.78	2547.67
500.98	4507.58
501.18	5687.21
501.38	6707.10
501.58	6901.65
501.78	6596.51
501.98	5435.31
502.18	4915.12
502.38	4478.91
502.58	4126.66
502.78	3710.92
502.98	3567.56
503.18	3381.20
503.38	3215.31
503.59	2809.81
503.79	2627.54
503.99	2500.57
504.19	2340.83
504.39	2254.81
504.59	2062.30
504.79	2119.65
504.99	1984.48
505.19	2000.87
505.39	1849.32
505.59	1908.71
505.79	1902.56
505.99	1837.03
506.19	1757.16
506.39	1847.27
506.59	1716.20
506.79	1675.24
506.99	1843.17
507.19	1794.02
507.39	1697.77
507.59	1687.53
507.79	1689.57
507.99	1603.56
508.19	1763.30
508.39	1734.63
508.59	1759.21
508.79	1830.88
508.99	1791.97
509.19	1730.53
509.39	1810.40
509.59	1675.24
509.79	1683.43
509.99	1673.19
510.19	1779.68
510.39	1746.92
510.59	1701.86
510.79	1716.20
510.99	1624.04
511.19	1710.05
511.39	1830.88
511.59	1822.69
511.79	1759.21
511.99	1753.06
512.19	1744.87
512.38	1712.10
512.58	1759.21
512.78	1744.87
512.98	1761.25
513.18	1855.46
513.38	1658.85
513.58	1783.78
513.78	1724.39
513.98	1689.57
514.18	1738.73
514.38	1712.10
514.58	1703.91
514.78	1671.14
514.98	1703.91
515.18	1732.58
515.38	1634.28
515.58	1849.32
515.78	1742.82
515.98	1738.73
516.18	1789.92
516.38	1775.59
516.57	1662.95
516.77	1724.39
516.97	1746.92
517.17	1675.24
517.37	1636.33
517.57	1845.22
517.77	1632.23
517.97	1660.90
518.17	1855.46
518.37	1693.67
518.57	1642.47
518.77	1746.92
518.97	1632.23
519.16	1705.96
519.36	1785.83
519.56	1732.58
519.76	1738.73
519.96	1746.92
520.16	1771.49
520.36	1648.61
520.56	1855.46
520.76	1699.81
520.96	1699.81
521.16	1732.58
521.35	1796.07
521.55	1841.12
521.75	1660.90
521.95	1710.05
522.15	1718.25
522.35	1675.24
522.55	1652.71
522.75	1820.64
522.95	1697.77
523.14	1658.85
523.34	1779.68
523.54	1701.86
523.74	1712.10
523.94	1728.49
524.14	1632.23
524.34	1738.73
524.54	1855.46
524.73	1734.63
524.93	1751.01
525.13	1726.44
525.33	1628.14
525.53	1933.28
525.73	1730.53
525.93	1755.11
526.13	1740.77
526.32	1748.97
526.52	1785.83
526.72	1804.26
526.92	1710.05
527.12	1773.54
527.32	1650.66
527.52	1726.44
527.71	1771.49
527.91	1767.40
528.11	1742.82
528.31	1791.97
528.51	1607.66
528.71	1728.49
528.90	1781.73
529.10	1763.30
529.30	1824.74
529.50	1681.38
529.70	1734.63
529.90	1656.81
530.09	1738.73
530.29	1683.43
530.49	1652.71
530.69	1832.93
530.89	1757.16
531.09	1789.92
531.28	1710.05
531.48	1837.03
531.68	1705.96
531.88	1710.05
532.08	1732.58
532.28	1626.09
532.47	1738.73
532.67	1783.78
532.87	1759.21
533.07	1699.81
533.27	1744.87
533.46	1751.01
533.66	1753.06
533.86	1734.63
534.06	1691.62
534.26	1720.29
534.45	1681.38
534.65	1705.96
534.85	1683.43
535.05	1730.53
535.25	1765.35
535.44	1689.57
535.64	1746.92
535.84	1654.76
536.04	1699.81
536.24	1683.43
536.43	1703.91
536.63	1775.59
536.83	1730.53
537.03	1751.01
537.22	1669.09
537.42	1613.80
537.62	1712.10
537.82	1708.01
538.02	1810.40
538.21	1859.56
538.41	1877.99
538.61	1691.62
538.81	1726.44
539.00	1810.40
539.20	1615.85
539.40	1763.30
539.60	1763.30
539.79	1736.68
539.99	1726.44
540.19	1734.63
540.39	1720.29
540.58	1722.34
540.78	1738.73
540.98	1734.63
541.18	1699.81
541.37	1691.62
541.57	1708.01
541.77	1802.21
541.97	1662.95
542.16	1615.85
542.36	1781.73
542.56	1687.53
542.76	1757.16
542.95	1783.78
543.15	1757.16
543.35	1720.29
543.54	1634.28
543.74	1705.96
543.94	1826.79
544.14	1724.39
544.33	1712.10
544.53	1751.01
544.73	1685.48
544.93	1791.97
545.12	1728.49
545.32	1757.16
545.52	1685.48
545.71	1705.96
545.91	1710.05
546.11	1763.30
546.30	1697.77
546.50	1746.92
546.70	1751.01
546.90	1779.68
547.09	1628.14
547.29	1742.82
547.49	1769.44
547.68	1671.14
547.88	1648.61
548.08	1771.49
548.27	2172.89
548.47	1761.25
548.67	1765.35
548.87	1769.44
549.06	1730.53
549.26	1759.21
549.46	1738.73
549.65	1685.48
549.85	1708.01
550.05	1783.78
550.24	1601.51
550.44	1697.77
550.64	1759.21
550.83	1789.92
551.03	1740.77
551.23	1712.10
551.42	1734.63
551.62	1718.25
551.82	1677.29
552.01	1658.85
552.21	1765.35
552.41	1730.53
552.60	1767.40
552.80	1712.10
553.00	1787.88
553.19	1705.96
553.39	1759.21
553.59	1669.09
553.78	1736.68
553.98	1714.15
554.17	1660.90
554.37	1740.77
554.57	1779.68
554.76	1718.25
554.96	1781.73
555.16	1695.72
555.35	1810.40
555.55	1691.62
555.75	1705.96
555.94	1724.39
556.14	1738.73
556.33	1728.49
556.53	1640.42
556.73	1757.16
556.92	1849.32
557.12	1757.16
557.32	1812.45
557.51	1738.73
557.71	1740.77
557.90	1814.50
558.10	1777.64
558.30	1708.01
558.49	1722.34
558.69	1722.34
558.88	1824.74
559.08	1708.01
559.28	1710.05
559.47	1665.00
559.67	1806.31
559.86	1812.45
560.06	1783.78
560.26	1738.73
560.45	1742.82
560.65	1673.19
560.84	1820.64
561.04	1667.05
561.24	1740.77
561.43	1646.57
561.63	1732.58
561.82	1767.40
562.02	1751.01
562.22	1742.82
562.41	1683.43
562.61	1728.49
562.80	1740.77
563.00	1867.75
563.19	1775.59
563.39	1748.97
563.59	1732.58
563.78	1675.24
563.98	1673.19
564.17	1794.02
564.37	1603.56
564.56	1695.72
564.76	1671.14
564.96	1826.79
565.15	1755.11
565.35	1914.85
565.54	1658.85
565.74	1798.12
565.93	1755.11
566.13	1806.31
566.32	1812.45
566.52	1732.58
566.71	1853.41
566.91	1808.36
567.11	1699.81
567.30	1642.47
567.50	1755.11
567.69	1728.49
567.89	1771.49
568.08	1640.42
568.28	1693.67
568.47	1652.71
568.67	1746.92
568.86	1679.33
569.06	1826.79
569.25	1746.92
569.45	1677.29
569.64	1718.25
569.84	1775.59
570.04	1767.40
570.23	1648.61
570.43	1751.01
570.62	1705.96
570.82	1816.55
571.01	1722.34
571.21	1693.67
571.40	1662.95
571.60	1832.93
571.79	1746.92
571.99	1751.01
572.18	1652.71
572.38	1746.92
572.57	1779.68
572.77	1826.79
572.96	1910.75
573.16	1890.28
573.35	1712.10
573.55	1861.60
573.74	1775.59
573.94	1751.01
574.13	1710.05
574.33	1902.56
574.52	1861.60
574.71	1683.43
574.91	1724.39
575.10	1617.90
575.30	1818.60
575.49	1603.56
575.69	1689.57
575.88	1730.53
576.08	1675.24
576.27	1814.50
576.47	1748.97
576.66	1869.80
576.86	1748.97
577.05	1746.92
577.25	1818.60
577.44	1871.84
577.64	1722.34
577.83	1847.27
578.02	1746.92
578.22	1804.26
578.41	1808.36
578.61	1751.01
578.80	1689.57
579.00	1773.54
579.19	1798.12
579.39	1722.34
579.58	1853.41
579.77	1697.77
579.97	1818.60
580.16	1855.46
580.36	1791.97
580.55	1824.74
580.75	1753.06
580.94	1742.82
581.13	1769.44
581.33	1808.36
581.52	1761.25
581.72	1826.79
581.91	1910.75
582.11	1761.25
582.30	1755.11
582.49	1628.14
582.69	1767.40
582.88	1773.54
583.08	1824.74
583.27	1779.68
583.47	1761.25
583.66	1662.95
583.85	1716.20
584.05	1791.97
584.24	1761.25
584.44	1796.07
584.63	1820.64
584.82	1767.40
585.02	1841.12
585.21	1855.46
585.41	1818.60
585.60	1828.84
585.79	1873.89
585.99	1916.90
586.18	1837.03
586.37	2107.36
586.57	3352.52
586.76	9932.65
586.96	24379.02
587.15	34477.55
587.34	40134.04
587.54	42419.58
587.73	36380.12
587.93	26093.17
588.12	21380.79
588.31	18300.65
588.51	16375.56
588.70	15273.75
588.89	14036.78
589.09	12461.89
589.28	11138.90
589.47	9480.05
589.67	7917.45
589.86	6504.35
590.06	4859.83
590.25	4011.97
590.44	3184.59
590.64	2623.45
590.83	2220.00
591.02	2131.94
591.22	1961.95
591.41	1937.38
591.60	1863.65
591.80	1923.04
591.99	1730.53
592.18	1753.06
592.38	1882.08
592.57	1796.07
592.76	1779.68
592.96	1708.01
593.15	1771.49
593.34	1781.73
593.54	1755.11
593.73	1740.77
593.92	1810.40
594.12	1730.53
594.31	1785.83
594.50	1816.55
594.70	1841.12
594.89	1902.56
595.08	1718.25
595.28	1759.21
595.47	1945.57
595.66	1820.64
595.86	1726.44
596.05	1779.68
596.24	1687.53
596.43	1824.74
596.63	1789.92
596.82	1806.31
597.01	1796.07
597.21	1814.50
597.40	1800.16
597.59	1804.26
597.79	1785.83
597.98	1722.34
598.17	1787.88
598.36	1708.01
598.56	1654.76
598.75	1636.33
598.94	1693.67
599.14	1773.54
599.33	1738.73
599.52	1732.58
599.71	1740.77
599.91	1767.40
600.10	1781.73
600.29	1683.43
600.48	1806.31
600.68	1802.21
600.87	1693.67
601.06	1738.73
601.26	1763.30
601.45	1791.97
601.64	1755.11
601.83	1826.79
602.03	1658.85
602.22	1626.09
602.41	1859.56
602.60	1857.51
602.80	1771.49
602.99	1742.82
603.18	1742.82
603.37	1746.92
603.57	1740.77
603.76	1812.45
603.95	1748.97
604.14	1744.87
604.34	1675.24
604.53	1703.91
604.72	1759.21
604.91	1701.86
605.10	1748.97
605.30	1644.52
605.49	1871.84
605.68	1697.77
605.87	1705.96
606.07	1767.40
606.26	1773.54
606.45	1734.63
606.64	1783.78
606.84	1779.68
607.03	1708.01
607.22	1732.58
607.41	1619.94
607.60	1675.24
607.80	1800.16
607.99	1755.11
608.18	1785.83
608.37	1740.77
608.56	1689.57
608.76	1785.83
608.95	1837.03
609.14	1722.34
609.33	1703.91
609.52	1775.59
609.72	1759.21
609.91	1767.40
610.10	1705.96
610.29	1763.30
610.48	1718.25
610.68	1720.29
610.87	1697.77
611.06	1822.69
611.25	1720.29
611.44	1769.44
611.63	1675.24
611.83	1818.60
612.02	1701.86
612.21	1740.77
612.40	1648.61
612.59	1681.38
612.79	1652.71
612.98	1724.39
613.17	1767.40
613.36	1746.92
613.55	1871.84
613.74	1781.73
613.93	1615.85
614.13	1689.57
614.32	1732.58
614.51	1705.96
614.70	1630.18
614.89	1710.05
615.08	1787.88
615.28	2076.64
615.47	1675.24
615.66	1722.34
615.85	1716.20
616.04	1787.88
616.23	1714.15
616.42	1751.01
616.62	1691.62
616.81	1773.54
617.00	1652.71
617.19	1765.35
617.38	1677.29
617.57	1726.44
617.76	1708.01
617.95	1767.40
618.15	1767.40
618.34	1822.69
618.53	1648.61
618.72	1732.58
618.91	1832.93
619.10	1806.31
619.29	1636.33
619.48	1746.92
619.68	1636.33
619.87	1732.58
620.06	1605.61
620.25	1779.68
620.44	1777.64
620.63	1724.39
620.82	1703.91
621.01	1699.81
621.20	1751.01
621.39	1658.85
621.59	1783.78
621.78	1652.71
621.97	1685.48
622.16	1779.68
622.35	1724.39
622.54	1800.16
622.73	1837.03
622.92	1568.74
623.11	1740.77
623.30	1675.24
623.49	1728.49
623.68	1671.14
623.88	1751.01
624.07	1665.00
624.26	1751.01
624.45	1761.25
624.64	1679.33
624.83	1804.26
625.02	1693.67
625.21	1722.34
625.40	1687.53
625.59	1804.26
625.78	1718.25
625.97	1767.40
626.16	1761.25
626.35	1722.34
626.54	1705.96
626.74	1779.68
626.93	1730.53
627.12	1640.42
627.31	1767.40
627.50	1738.73
627.69	1761.25
627.88	1697.77
628.07	1738.73
628.26	1638.38
628.45	1658.85
628.64	1695.72
628.83	1695.72
629.02	1624.04
629.21	1687.53
629.40	1779.68
629.59	1644.52
629.78	1679.33
629.97	1755.11
630.16	1730.53
630.35	1646.57
630.54	1724.39
630.73	1703.91
630.92	1730.53
631.11	1726.44
631.30	1763.30
631.49	1701.86
631.68	1734.63
631.87	1781.73
632.06	1619.94
632.25	1816.55
632.44	1687.53
632.63	1775.59
632.82	1728.49
633.01	1681.38
633.20	1683.43
633.39	1640.42
633.58	1652.71
633.77	1716.20
633.96	1742.82
634.15	1753.06
634.34	1703.91
634.53	1701.86
634.72	1681.38
634.91	1656.81
635.10	1730.53
635.29	1738.73
635.48	1646.57
635.67	1646.57
635.86	1601.51
636.05	1757.16
636.24	1697.77
636.43	1755.11
636.62	1738.73
636.81	1533.93
637.00	1718.25
637.19	1703.91
637.38	1710.05
637.57	1640.42
637.76	1695.72
637.95	1697.77
638.14	1626.09
638.33	1642.47
638.52	1734.63
638.71	1667.05
638.89	1632.23
639.08	1824.74
639.27	1796.07
639.46	1673.19
639.65	1820.64
639.84	1755.11
640.03	1791.97
640.22	1724.39
640.41	1810.40
640.60	1726.44
640.79	1765.35
640.98	1667.05
641.17	1769.44
641.36	1753.06
641.55	1701.86
641.74	1673.19
641.92	1640.42
642.11	1611.75
642.30	1748.97
642.49	1718.25
642.68	1683.43
642.87	1722.34
643.06	1746.92
643.25	1628.14
643.44	1689.57
643.63	1638.38
643.82	1775.59
644.00	1626.09
644.19	1630.18
644.38	1673.19
644.57	1726.44
644.76	1736.68
644.95	1773.54
645.14	1728.49
645.33	1769.44
645.52	1726.44
645.71	1591.27
645.89	1675.24
646.08	1681.38
646.27	1726.44
646.46	1810.40
646.65	1644.52
646.84	1718.25
647.03	1634.28
647.22	1773.54
647.40	1642.47
647.59	1669.09
647.78	1650.66
647.97	1755.11
648.16	1730.53
648.35	1814.50
648.54	1796.07
648.73	1751.01
648.91	1751.01
649.10	1773.54
649.29	1673.19
649.48	1718.25
649.67	1751.01
649.86	1722.34
650.05	1669.09
650.23	1705.96
650.42	1671.14
650.61	1722.34
650.80	1773.54
650.99	1914.85
651.18	1791.97
651.36	1722.34
651.55	1683.43
651.74	1746.92
651.93	1740.77
652.12	1675.24
652.31	1724.39
652.49	1679.33
652.68	1673.19
652.87	1808.36
653.06	1708.01
653.25	1773.54
653.44	1703.91
653.62	1757.16
653.81	1726.44
654.00	1755.11
654.19	1798.12
654.38	1857.51
654.56	1660.90
654.75	1697.77
654.94	1759.21
655.13	1718.25
655.32	1708.01
655.51	1658.85
655.69	1732.58
655.88	1730.53
656.07	1644.52
656.26	1699.81
656.45	1681.38
656.63	1669.09
656.82	1712.10
657.01	1748.97
657.20	1681.38
657.38	1796.07
657.57	1667.05
657.76	1656.81
657.95	1734.63
658.14	1646.57
658.32	1669.09
658.51	1656.81
658.70	1744.87
658.89	1746.92
659.08	1763.30
659.26	1726.44
659.45	1642.47
659.64	1640.42
659.83	1734.63
660.01	1949.67
660.20	1757.16
660.39	1751.01
660.58	1507.30
660.76	1708.01
660.95	1699.81
661.14	1755.11
661.33	1609.70
661.51	1642.47
661.70	1689.57
661.89	1724.39
662.08	1697.77
662.26	1609.70
662.45	1714.15
662.64	1798.12
662.83	1773.54
663.01	1609.70
663.20	1732.58
663.39	1855.46
663.58	1636.33
663.76	1740.77
663.95	1798.12
664.14	1671.14
664.32	1746.92
664.51	1636.33
664.70	1605.61
664.89	1699.81
665.07	1683.43
665.26	1763.30
665.45	1593.32
665.64	1767.40
665.82	1689.57
666.01	1812.45
666.20	1683.43
666.38	1791.97
666.57	1759.21
666.76	2193.37
666.95	4526.01
667.13	10202.98
667.32	15245.08
667.51	17968.88
667.69	19011.29
667.88	17479.41
668.07	12390.21
668.25	9310.07
668.44	7976.84
668.63	7258.00
668.81	6672.28
669.00	6133.67
669.19	5648.30
669.38	5078.96
669.56	4560.83
669.75	3971.01
669.94	3471.31
670.12	2834.39
670.31	2547.67
670.50	2256.86
670.68	2166.75
670.87	1931.23
671.06	1820.64
671.24	1820.64
671.43	1771.49
671.62	1771.49
671.80	1701.86
671.99	1724.39
672.18	1722.34
672.36	1759.21
672.55	1687.53
672.74	1699.81
672.92	1697.77
673.11	1683.43
673.29	1705.96
673.48	1732.58
673.67	1636.33
673.85	1806.31
674.04	1619.94
674.23	1714.15
674.41	1816.55
674.60	1681.38
674.79	1634.28
674.97	1738.73
675.16	1738.73
675.34	1748.97
675.53	1665.00
675.72	1714.15
675.90	1798.12
676.09	1669.09
676.28	1773.54
676.46	1615.85
676.65	1755.11
676.83	1636.33
677.02	1685.48
677.21	1736.68
677.39	1753.06
677.58	1636.33
677.77	1736.68
677.95	1699.81
678.14	1736.68
678.32	1654.76
678.51	1714.15
678.70	1726.44
678.88	1687.53
679.07	1683.43
679.25	1816.55
679.44	1775.59
679.63	1630.18
679.81	1720.29
680.00	1781.73
680.18	1783.78
680.37	1736.68
680.55	1736.68
680.74	1615.85
680.93	1607.66
681.11	1714.15
681.30	1732.58
681.48	1773.54
681.67	1785.83
681.85	1716.20
682.04	1697.77
682.23	1757.16
682.41	1728.49
682.60	1640.42
682.78	1681.38
682.97	1615.85
683.15	1740.77
683.34	1675.24
683.53	1722.34
683.71	1581.03
683.90	1753.06
684.08	1777.64
684.27	1691.62
684.45	1757.16
684.64	1705.96
684.82	1644.52
685.01	1691.62
685.19	1693.67
685.38	1832.93
685.57	1669.09
685.75	1691.62
685.94	1638.38
686.12	1605.61
686.31	1611.75
686.49	1802.21
686.68	1640.42
686.86	1710.05
687.05	1681.38
687.23	1781.73
687.42	1671.14
687.60	1638.38
687.79	1724.39
687.97	1806.31
688.16	1783.78
688.34	1736.68
688.53	1611.75
688.71	1763.30
688.90	1701.86
689.08	1755.11
689.27	1626.09
689.45	1744.87
689.64	1687.53
689.82	1619.94
690.01	1812.45
690.19	1767.40
690.38	1710.05
690.56	1818.60
690.75	1695.72
690.93	1636.33
691.12	1570.79
691.30	1699.81
691.49	1638.38
691.67	1714.15
691.86	1761.25
692.04	1665.00
692.23	1634.28
692.41	1718.25
692.60	1826.79
692.78	1683.43
692.97	1675.24
693.15	1775.59
693.34	1880.04
693.52	1775.59
693.71	1726.44
693.89	1681.38
694.08	1564.65
694.26	1781.73
694.44	1738.73
694.63	1740.77
694.81	1634.28
695.00	1699.81
695.18	1748.97
695.37	1845.22
695.55	1699.81
695.74	1753.06
695.92	1669.09
696.10	1759.21
696.29	1617.90
696.47	1660.90
696.66	1665.00
696.84	1658.85
697.03	1738.73
697.21	1814.50
697.40	2328.54
697.58	1726.44
697.76	1720.29
697.95	1628.14
698.13	1640.42
698.32	1699.81
698.50	1738.73
698.68	1705.96
698.87	1779.68
699.05	1779.68
699.24	1656.81
699.42	1689.57
699.61	1662.95
699.79	1771.49
699.97	1740.77
700.16	1722.34
700.34	1634.28
700.53	1720.29
700.71	1794.02
700.89	1796.07
701.08	1656.81
701.26	1691.62
701.45	2115.55
701.63	1665.00
701.81	1738.73
702.00	1703.91
702.18	1681.38
702.37	1609.70
702.55	1675.24
702.73	1699.81
702.92	1646.57
703.10	1759.21
703.28	1703.91
703.47	1644.52
703.65	1724.39
703.84	1769.44
704.02	1693.67
704.20	1720.29
704.39	1716.20
704.57	1841.12
704.75	1781.73
704.94	1697.77
705.12	1705.96
705.30	1804.26
705.49	2230.24
705.67	4415.42
705.86	9596.78
706.04	12728.13
706.22	14661.41
706.41	15449.88
706.59	13911.85
706.77	9686.89
706.96	7356.30
707.14	6621.08
707.32	5930.92
707.51	5771.18
707.69	4929.46
707.87	4284.35
708.06	3536.84
708.24	2930.64
708.42	2318.30
708.61	2193.37
708.79	1957.86
708.97	1882.08
709.16	1888.23
709.34	1800.16
709.52	1728.49
709.71	1683.43
709.89	1685.48
710.07	1685.48
710.26	1728.49
710.44	1671.14
710.62	1740.77
710.80	1689.57
710.99	1808.36
711.17	1765.35
711.35	1607.66
711.54	1697.77
711.72	1789.92
711.90	1712.10
712.09	1732.58
712.27	1681.38
712.45	1685.48
712.63	1654.76
712.82	1681.38
713.00	1726.44
713.18	1734.63
713.37	1701.86
713.55	1705.96
713.73	1746.92
713.91	1665.00
714.10	1624.04
714.28	1681.38
714.46	1769.44
714.65	1775.59
714.83	1746.92
715.01	1781.73
715.19	1722.34
715.38	1601.51
715.56	1718.25
715.74	1656.81
715.92	1669.09
716.11	1724.39
716.29	1578.98
716.47	1669.09
716.65	1660.90
716.84	1646.57
717.02	1722.34
717.20	1630.18
717.38	1665.00
717.57	1714.15
717.75	1593.32
717.93	1585.13
718.11	1705.96
718.30	1634.28
718.48	1755.11
718.66	1779.68
718.84	1746.92
719.03	1742.82
719.21	1675.24
719.39	1824.74
719.57	1712.10
719.75	1798.12
719.94	1601.51
720.12	1646.57
720.30	1677.29
720.48	1703.91
720.67	1599.46
720.85	1619.94
721.03	1695.72
721.21	1693.67
721.39	1755.11
721.58	1683.43
721.76	1748.97
721.94	1814.50
722.12	1679.33
722.30	1779.68
722.49	1683.43
722.67	1603.56
722.85	1781.73
723.03	1558.50
723.21	1683.43
723.40	1671.14
723.58	1681.38
723.76	1742.82
723.94	1781.73
724.12	1687.53
724.30	1691.62
724.49	1763.30
724.67	1581.03
724.85	1769.44
725.03	1556.46
725.21	1667.05
725.40	1746.92
725.58	1648.61
725.76	1648.61
725.94	1781.73
726.12	1646.57
726.30	1687.53
726.49	1681.38
726.67	1708.01
726.85	1705.96
727.03	1822.69
727.21	2209.76
727.39	2856.92
727.57	3751.88
727.76	4239.30
727.94	4327.36
728.12	4265.92
728.30	3616.71
728.48	2916.31
728.66	2641.88
728.84	2588.63
729.03	2344.92
729.21	2156.51
729.39	1918.95
729.57	1839.08
729.75	1826.79
729.93	1806.31
730.11	1716.20
730.30	1781.73
730.48	1654.76
730.66	1787.88
730.84	1691.62
731.02	1710.05
731.20	1751.01
731.38	1726.44
731.56	1609.70
731.74	1673.19
731.93	1681.38
732.11	1708.01
732.29	1648.61
732.47	1730.53
732.65	1691.62
732.83	1724.39
733.01	1789.92
733.19	1648.61
733.37	1705.96
733.56	1701.86
733.74	1669.09
733.92	1769.44
734.10	1652.71
734.28	1781.73
734.46	1525.74
734.64	1767.40
734.82	1699.81
735.00	1642.47
735.18	1660.90
735.36	1716.20
735.54	1667.05
735.73	1691.62
735.91	1742.82
736.09	1798.12
736.27	1714.15
736.45	1689.57
736.63	1601.51
736.81	1714.15
736.99	1701.86
737.17	1796.07
737.35	1697.77
737.53	1703.91
737.71	1624.04
737.89	1720.29
738.07	1681.38
738.25	1646.57
738.43	1587.18
738.61	1591.27
738.80	1646.57
738.98	1605.61
739.16	1660.90
739.34	1601.51
739.52	1695.72
739.70	1710.05
739.88	1705.96
740.06	1753.06
740.24	1617.90
740.42	1736.68
740.60	1595.37
740.78	1609.70
740.96	1599.46
741.14	1677.29
741.32	1757.16
741.50	1611.75
741.68	1867.75
741.86	1781.73
742.04	1724.39
742.22	1685.48
742.40	1746.92
742.58	1730.53
742.76	1648.61
742.94	1726.44
743.12	1675.24
743.30	1695.72
743.48	1728.49
743.66	1714.15
743.84	1732.58
744.02	1683.43
744.20	1701.86
744.38	1617.90
744.56	1638.38
744.74	1773.54
744.92	1712.10
745.10	1855.46
745.28	1775.59
745.46	1783.78
745.64	1726.44
745.82	1779.68
746.00	1708.01
746.18	1708.01
746.36	1685.48
746.54	1714.15
746.72	1673.19
746.90	1677.29
747.08	1773.54
747.26	1677.29
747.44	1742.82
747.62	1685.48
747.80	1624.04
747.98	1710.05
748.15	1634.28
748.33	1806.31
748.51	1712.10
748.69	1738.73
748.87	1665.00
749.05	1681.38
749.23	1656.81
749.41	1744.87
749.59	1689.57
749.77	1755.11
749.95	1667.05
750.13	1642.47
750.31	1736.68
750.49	1687.53
750.67	1757.16
750.85	1814.50
751.03	1759.21
751.20	1722.34
751.38	1691.62
751.56	1714.15
751.74	1691.62
751.92	1691.62
752.10	1609.70
752.28	1691.62
752.46	1669.09
752.64	1712.10
752.82	1716.20
753.00	1746.92
753.18	1660.90
753.35	1591.27
753.53	1693.67
753.71	1669.09
753.89	1728.49
754.07	1652.71
754.25	1748.97
754.43	1732.58
754.61	1558.50
754.79	1701.86
754.97	1658.85
755.14	1759.21
755.32	1624.04
755.50	1656.81
755.68	1720.29
755.86	1585.13
756.04	1652.71
756.22	1718.25
756.40	1728.49
756.57	1822.69
756.75	1660.90
756.93	1761.25
757.11	1853.41
757.29	1656.81
757.47	1677.29
757.65	1535.98
757.82	1542.12
758.00	1701.86
758.18	1683.43
758.36	1648.61
758.54	1730.53
758.72	1615.85
758.90	1763.30
759.07	1742.82
759.25	1667.05
759.43	1665.00
759.61	1652.71
759.79	2197.47
759.97	1726.44
760.15	1642.47
760.32	1634.28
760.50	1673.19
760.68	1822.69
760.86	1644.52
761.04	1660.90
761.22	1722.34
761.39	1652.71
761.57	1738.73
761.75	1624.04
761.93	1714.15
762.11	1763.30
762.28	1734.63
762.46	1660.90
762.64	1742.82
762.82	1607.66
763.00	1679.33
763.18	1734.63
763.35	1638.38
763.53	1710.05
763.71	1732.58
763.89	1611.75
764.07	1679.33
764.24	1652.71
764.42	1826.79
764.60	1687.53
764.78	1728.49
764.96	1705.96
765.13	1732.58
765.31	1738.73
765.49	1689.57
765.67	1654.76
765.84	1628.14
766.02	1687.53
766.20	1589.22
766.38	1732.58
766.56	1705.96
766.73	1783.78
766.91	1675.24
767.09	1697.77
767.27	1691.62
767.44	1574.89
767.62	1779.68
767.80	1685.48
767.98	1642.47
768.15	1681.38
768.33	1716.20
768.51	1812.45
768.69	1724.39
768.87	1705.96
769.04	1660.90
769.22	1798.12
769.40	1789.92
769.58	1800.16
769.75	1683.43
769.93	1787.88
770.11	1626.09
770.28	1648.61
770.46	1736.68
770.64	1701.86
770.82	1734.63
770.99	1632.23
771.17	1734.63
771.35	1691.62
771.53	1695.72
771.70	1697.77
771.88	1708.01
772.06	1634.28
772.23	1679.33
772.41	1675.24
772.59	1730.53
772.77	1609.70
772.94	1712.10
773.12	1738.73
773.30	1730.53
773.47	1626.09
773.65	1667.05
773.83	1783.78
774.01	1708.01
774.18	1601.51
774.36	1665.00
774.54	1578.98
774.71	1753.06
774.89	1658.85
775.07	1607.66
775.24	1630.18
775.42	1599.46
775.60	1757.16
775.78	1640.42
775.95	1617.90
776.13	1628.14
776.31	1605.61
776.48	1685.48
776.66	1783.78
776.84	1636.33
777.01	1636.33
777.19	1732.58
777.37	1697.77
777.54	1712.10
777.72	1818.60
777.90	1746.92
778.07	1660.90
778.25	1853.41
778.43	1669.09
778.60	1683.43
778.78	1689.57
778.96	1761.25
779.13	1652.71
779.31	1693.67
779.49	1730.53
779.66	1652.71
779.84	1685.48
780.01	1640.42
780.19	1667.05
780.37	1734.63
780.54	1798.12
780.72	1589.22
780.90	1726.44
781.07	1738.73
781.25	1642.47
781.43	1710.05
781.60	1705.96
781.78	1753.06
781.95	1705.96
782.13	1665.00
782.31	1662.95
782.48	1572.84
782.66	1720.29
782.83	1773.54
783.01	1744.87
783.19	1751.01
783.36	1638.38
783.54	1714.15
783.72	1724.39
783.89	1728.49
784.07	1642.47
784.24	1769.44
784.42	1802.21
784.60	1701.86
784.77	1726.44
784.95	1591.27
785.12	1669.09
785.30	1714.15
785.47	1572.84
785.65	1648.61
785.83	1648.61
786.00	1693.67
786.18	1751.01
786.35	1683.43
786.53	1656.81
786.71	1748.97
786.88	1705.96
787.06	1703.91
787.23	1662.95
787.41	1554.41
787.58	1714.15
787.76	1689.57
787.94	1781.73
788.11	1689.57
788.29	1615.85
788.46	1669.09
788.64	1613.80
788.81	1718.25
788.99	1673.19
789.16	1656.81
789.34	1675.24
789.52	1644.52
789.69	1650.66
789.87	1529.83
790.04	1665.00
790.22	1701.86
790.39	1773.54
790.57	1662.95
790.74	1662.95
790.92	1681.38
791.09	1636.33
791.27	1650.66
791.44	1791.97
791.62	1716.20
791.79	1763.30
791.97	1669.09
792.15	1828.84
792.32	1656.81
792.50	1730.53
792.67	1775.59
792.85	1755.11
793.02	1722.34
793.20	1708.01
793.37	1640.42
793.55	1708.01
793.72	1681.38
793.90	1689.57
794.07	1673.19
794.25	1650.66
794.42	1705.96
794.60	1689.57
794.77	1693.67
794.95	1650.66
795.12	1779.68
795.30	1636.33
795.47	1624.04
795.65	1830.88
795.82	1767.40
796.00	1681.38
796.17	1693.67
796.34	1669.09
796.52	1677.29
796.69	1722.34
796.87	1755.11
797.04	1730.53
797.22	1714.15
797.39	1728.49
797.57	1742.82
797.74	1665.00
797.92	1693.67
798.09	1628.14
798.27	1759.21
798.44	1722.34
798.62	1634.28
798.79	1671.14
798.96	1652.71
799.14	1738.73
799.31	1824.74
799.49	1691.62
799.66	1615.85
799.84	1687.53
800.01	1648.61
800.19	1720.29
800.36	1662.95
800.53	1718.25
800.71	1722.34
800.88	1818.60
801.06	1621.99
801.23	1601.51
801.41	1699.81
801.58	1630.18
801.75	1665.00
801.93	1755.11
802.10	1802.21
802.28	1656.81
802.45	1681.38
802.63	1738.73
802.80	1779.68
802.97	1648.61
803.15	1738.73
803.32	1673.19
803.50	1683.43
803.67	1693.67
803.84	1591.27
804.02	1755.11
804.19	1640.42
804.37	1617.90
804.54	1654.76
804.71	1673.19
804.89	1685.48
805.06	1669.09
805.24	1689.57
805.41	1642.47
805.58	1695.72
805.76	1796.07
805.93	1751.01
806.10	1689.57
806.28	1732.58
806.45	1667.05
806.63	1708.01
806.80	1665.00
806.97	1621.99
807.15	1697.77
807.32	1722.34
807.49	1615.85
807.67	1607.66
807.84	1748.97
808.01	1658.85
808.19	1820.64
808.36	1767.40
808.54	1718.25
808.71	1662.95
808.88	1789.92
809.06	1675.24
809.23	1753.06
809.40	1679.33
809.58	1718.25
809.75	1685.48
809.92	1691.62
810.10	1857.51
810.27	1724.39
810.44	1710.05
810.62	1667.05
810.79	1791.97
810.96	1642.47
811.14	1624.04
811.31	1673.19
811.48	1607.66
811.66	1697.77
811.83	1701.86
812.00	1826.79
812.18	1746.92
812.35	1851.36
812.52	1658.85
812.69	1650.66
812.87	1603.56
813.04	1751.01
813.21	1671.14
813.39	1648.61
813.56	1599.46
813.73	1714.15
813.91	1585.13
814.08	1652.71
814.25	1681.38
814.42	1644.52
814.60	1712.10
814.77	1660.90
814.94	1695.72
815.12	1697.77
815.29	1781.73
815.46	1652.71
815.63	1736.68
815.81	1728.49
815.98	1644.52
816.15	1626.09
816.33	1712.10
816.50	1638.38
816.67	1662.95
816.84	1667.05
817.02	1626.09
817.19	1738.73
817.36	1718.25
817.53	1701.86
817.71	1675.24
817.88	1746.92
818.05	1640.42
818.22	1630.18
818.40	1767.40
818.57	1675.24
818.74	1765.35
818.91	1673.19
819.09	1816.55
819.26	1746.92
819.43	1636.33
819.60	1650.66
819.78	1724.39
819.95	1822.69
820.12	1591.27
820.29	1609.70
820.47	1708.01
820.64	1658.85
820.81	1593.32
820.98	1636.33
821.15	1732.58
821.33	1740.77
821.50	1611.75
821.67	1732.58
821.84	1665.00
822.02	1738.73
822.19	1761.25
822.36	1695.72
822.53	1611.75
822.70	1621.99
822.88	1712.10
823.05	1802.21
823.22	1697.77
823.39	1746.92
823.56	1615.85
823.74	1853.41
823.91	1675.24
824.08	1574.89
824.25	1669.09
824.42	1748.97
824.60	1621.99
824.77	1738.73
824.94	1689.57
825.11	1738.73
825.28	1675.24
825.45	1683.43
825.63	1693.67
825.80	1671.14
825.97	1705.96
826.14	1718.25
826.31	1685.48
826.48	1751.01
826.66	1576.94
826.83	1632.23
827.00	1705.96
827.17	1581.03
827.34	1675.24
827.51	1693.67
827.69	1701.86
827.86	1556.46
828.03	1716.20
828.20	1787.88
828.37	1644.52
828.54	1669.09
828.71	1656.81
828.89	1779.68
829.06	1769.44
829.23	1720.29
829.40	1628.14
829.57	1626.09
829.74	1705.96
829.91	1691.62
830.09	1619.94
830.26	1675.24
830.43	1753.06
830.60	1724.39
830.77	1744.87
830.94	1824.74
831.11	1701.86
831.28	1617.90
831.46	1722.34
831.63	1667.05
831.80	1738.73
831.97	1671.14
832.14	1648.61
832.31	1689.57
832.48	1673.19
832.65	1751.01
832.82	1771.49
832.99	1740.77
833.17	1640.42
833.34	1753.06
833.51	1677.29
833.68	1566.70
833.85	1757.16
834.02	1699.81
834.19	1656.81
834.36	1695.72
834.53	1744.87
834.70	1718.25
834.87	1703.91
835.04	1710.05
835.22	1624.04
835.39	1751.01
835.56	1679.33
835.73	1648.61
835.90	1734.63
836.07	1585.13
836.24	1798.12
836.41	1583.08
836.58	1581.03
836.75	1775.59
836.92	1708.01
837.09	1652.71
837.26	1751.01
837.43	1660.90
837.60	1705.96
837.77	1732.58
837.94	1755.11
838.12	1748.97
838.29	1640.42
838.46	1693.67
838.63	1617.90
838.80	1689.57
838.97	1660.90
839.14	1718.25
839.31	1716.20
839.48	1757.16
839.65	1628.14
839.82	1578.98
839.99	1716.20
840.16	1669.09
840.33	1646.57
840.50	1705.96
840.67	1632.23
840.84	1556.46
841.01	1740.77
841.18	1673.19
841.35	1671.14
841.52	1800.16
841.69	1865.70
841.86	1683.43
842.03	1791.97
842.20	1644.52
842.37	1697.77
842.54	1665.00
842.71	1689.57
842.88	1632.23
843.05	1720.29
843.22	1640.42
843.39	1714.15
843.56	1681.38
843.73	1642.47
843.90	1677.29
844.07	1665.00
844.24	1755.11
844.41	1751.01
844.58	1705.96
844.75	1712.10
844.92	1748.97
845.09	1615.85
845.26	1564.65
845.43	1679.33
845.60	1695.72
845.77	1734.63
845.94	1667.05
846.10	1734.63
846.27	1675.24
846.44	1656.81
846.61	1708.01
846.78	1771.49
846.95	1765.35
847.12	1650.66
847.29	1800.16
847.46	1638.38
847.63	1755.11
847.80	1654.76
847.97	1693.67
848.14	1738.73
848.31	1642.47
848.48	1595.37
848.65	1701.86
848.82	1595.37
848.98	1820.64
849.15	1738.73
849.32	1705.96
849.49	1763.30
849.66	1712.10
849.83	1689.57
850.00	1611.75
850.17	1740.77
850.34	1652.71
850.51	1705.96
850.68	1699.81
850.85	1800.16
851.01	1656.81
851.18	1720.29
851.35	1728.49
851.52	1689.57
851.69	1751.01
851.86	1619.94
852.03	1740.77
852.20	1802.21
852.37	1665.00
852.53	1587.18
852.70	1689.57
852.87	1697.77
853.04	1738.73
853.21	1628.14
853.38	1675.24
853.55	1736.68
853.72	1783.78
853.89	1652.71
854.05	1652.71
854.22	1660.90
854.39	1669.09
854.56	1695.72
854.73	1820.64
854.90	1636.33
855.07	1710.05
855.23	1638.38
855.40	1640.42
855.57	1624.04
855.74	1603.56
855.91	1814.50
856.08	1605.61
856.25	1630.18
856.41	1683.43
856.58	1634.28
856.75	1714.15
856.92	1650.66
857.09	1730.53
857.26	1630.18
857.42	1617.90
857.59	1701.86
857.76	1673.19
857.93	1662.95
858.10	1716.20
858.27	1644.52
858.43	1675.24
858.60	1634.28
858.77	1619.94
858.94	1732.58
859.11	1693.67
859.27	1669.09
859.44	1710.05
859.61	1851.36
859.78	1738.73
859.95	1650.66
860.12	1648.61
860.28	1767.40
860.45	1771.49
860.62	1632.23
860.79	1699.81
860.95	1685.48
861.12	1656.81
861.29	1755.11
861.46	1714.15
861.63	1634.28
861.79	1656.81
861.96	1697.77
862.13	1679.33
862.30	1787.88
862.47	1628.14
862.63	1652.71
862.80	1724.39
862.97	1710.05
863.14	1667.05
863.30	1757.16
863.47	1615.85
863.64	1720.29
863.81	1662.95
863.97	1634.28
864.14	1730.53
864.31	1689.57
864.48	1714.15
864.65	1724.39
864.81	1646.57
864.98	1779.68
865.15	1769.44
865.32	1714.15
865.48	1748.97
865.65	1736.68
865.82	1621.99
865.98	1714.15
866.15	1781.73
866.32	1710.05
866.49	1640.42
866.65	1771.49
866.82	1679.33
866.99	1630.18
867.16	1640.42
867.32	1736.68
867.49	1716.20
867.66	1644.52
867.83	1753.06
867.99	1665.00
868.16	1624.04
868.33	1673.19
868.49	1734.63
868.66	1697.77
868.83	1812.45
868.99	1787.88
869.16	1722.34
869.33	1714.15
869.50	1744.87
869.66	1787.88
869.83	1652.71
870.00	1619.94
870.16	1726.44
870.33	1669.09
870.50	1779.68
870.66	1669.09
870.83	1767.40
871.00	1615.85
871.17	1667.05
871.33	1736.68
871.50	1710.05
871.67	1681.38
871.83	1601.51
872.00	1763.30
872.17	1656.81
872.33	1738.73
872.50	1761.25
872.67	1628.14
872.83	1648.61
873.00	1744.87
873.17	1691.62
873.33	1761.25
873.50	1730.53
873.67	1683.43
873.83	1693.67
874.00	1644.52
874.16	1759.21
874.33	1701.86
874.50	1578.98
874.66	1689.57
874.83	1726.44
875.00	1755.11
875.16	1703.91
875.33	1781.73
875.50	1609.70
875.66	1652.71
875.83	1718.25
875.99	1748.97
876.16	1648.61
876.33	1591.27
876.49	1642.47
876.66	1689.57
876.83	1705.96
876.99	1640.42
877.16	1619.94
877.32	1679.33
877.49	1630.18
877.66	1777.64
877.82	1779.68
877.99	1671.14
878.15	1759.21
878.32	1705.96
878.49	1746.92
878.65	1538.02
878.82	1761.25
878.98	1638.38
879.15	1708.01
879.32	1693.67
879.48	1732.58
879.65	1748.97
879.81	1624.04
879.98	1679.33
880.15	1722.34
880.31	1738.73
880.48	1585.13
880.64	1742.82
880.81	1730.53
880.97	1775.59
881.14	1773.54
881.31	1681.38
881.47	1861.60
881.64	1656.81
881.80	1576.94
881.97	1634.28
882.13	1779.68
882.30	1679.33
882.47	1716.20
882.63	1607.66
882.80	1687.53
882.96	1701.86
883.13	1759.21
883.29	1640.42
883.46	1679.33
883.62	1859.56
883.79	1703.91
883.95	1789.92
884.12	1671.14
884.29	1728.49
884.45	1716.20
884.62	1648.61
884.78	1691.62
884.95	1738.73
885.11	1697.77
885.28	1628.14
885.44	1665.00
885.61	1697.77
885.77	1730.53
885.94	1716.20
886.10	1718.25
886.27	1720.29
886.43	1816.55
886.60	1755.11
886.76	1583.08
886.93	1701.86
887.09	1726.44
887.26	1675.24
887.42	1681.38
887.59	1669.09
887.75	1837.03
887.92	1787.88
888.08	1771.49
888.25	1714.15
888.41	1716.20
888.58	1669.09
888.74	1581.03
888.91	1667.05
>>>>>End Processed Spectral Data<<<<<
