SpectraSuite Data File
++++++++++++++++++++++++++++++++++++
Date: Mon Jun 06 16:01:57 CEST 2016
User: root
Dark Spectrum Present: No
Reference Spectrum Present: No
Number of Sampled Component Spectra: 1
Spectrometers: USB4C02835
Integration Time (usec): 100000 (USB4C02835)
Spectra Averaged: 1 (USB4C02835)
Boxcar Smoothing: 0 (USB4C02835)
Correct for Electrical Dark: No (USB4C02835)
Strobe/Lamp Enabled: No (USB4C02835)
Correct for Detector Non-linearity: No (USB4C02835)
Correct for Stray Light: No (USB4C02835)
Number of Pixels in Processed Spectrum: 3648
>>>>>Begin Processed Spectral Data<<<<<
177.47	1466.35
177.69	1466.35
177.91	1466.35
178.13	1433.58
178.36	1540.07
178.58	1714.15
178.80	1679.33
179.02	1685.48
179.24	1667.05
179.46	1738.73
179.68	1748.97
179.90	1763.30
180.13	1804.26
180.35	1667.05
180.57	1746.92
180.79	1755.11
181.01	1730.53
181.23	1755.11
181.45	1777.64
181.67	1701.86
181.90	1769.44
182.12	1652.71
182.34	1642.47
182.56	1701.86
182.78	1738.73
183.00	1718.25
183.22	1734.63
183.44	1667.05
183.66	1880.04
183.89	1871.84
184.11	1685.48
184.33	1736.68
184.55	1796.07
184.77	1642.47
184.99	1736.68
185.21	1679.33
185.43	1800.16
185.65	1687.53
185.87	1728.49
186.10	1841.12
186.32	1849.32
186.54	1701.86
186.76	1730.53
186.98	1728.49
187.20	1724.39
187.42	1671.14
187.64	1773.54
187.86	1759.21
188.08	1763.30
188.30	1734.63
188.52	1683.43
188.75	1771.49
188.97	1732.58
189.19	1685.48
189.41	1714.15
189.63	1734.63
189.85	1742.82
190.07	1626.09
190.29	1585.13
190.51	1701.86
190.73	1615.85
190.95	1771.49
191.17	1714.15
191.39	1654.76
191.61	1642.47
191.84	1613.80
192.06	1789.92
192.28	1619.94
192.50	1871.84
192.72	1787.88
192.94	1652.71
193.16	1849.32
193.38	1693.67
193.60	1658.85
193.82	1734.63
194.04	1798.12
194.26	1720.29
194.48	1742.82
194.70	1671.14
194.92	1693.67
195.14	1773.54
195.36	1644.52
195.58	1722.34
195.80	1714.15
196.02	1660.90
196.24	1751.01
196.46	1740.77
196.69	1685.48
196.91	1931.23
197.13	1679.33
197.35	1605.61
197.57	1791.97
197.79	1724.39
198.01	1761.25
198.23	1822.69
198.45	1794.02
198.67	1658.85
198.89	1697.77
199.11	1699.81
199.33	1740.77
199.55	1562.60
199.77	1710.05
199.99	1740.77
200.21	1656.81
200.43	1736.68
200.65	1638.38
200.87	1634.28
201.09	1736.68
201.31	1654.76
201.53	1746.92
201.75	1783.78
201.97	1734.63
202.19	1671.14
202.41	1746.92
202.63	1810.40
202.85	1806.31
203.07	1662.95
203.29	1697.77
203.51	1677.29
203.73	1654.76
203.95	1877.99
204.17	1693.67
204.39	1695.72
204.61	1720.29
204.83	1761.25
205.05	1804.26
205.27	1712.10
205.49	1855.46
205.71	1730.53
205.93	1693.67
206.15	1669.09
206.37	1705.96
206.59	1751.01
206.81	1624.04
207.03	1638.38
207.25	1677.29
207.47	1755.11
207.69	1628.14
207.91	1759.21
208.13	1789.92
208.34	1675.24
208.56	1667.05
208.78	1695.72
209.00	1671.14
209.22	1703.91
209.44	1697.77
209.66	1705.96
209.88	1730.53
210.10	1765.35
210.32	1738.73
210.54	1712.10
210.76	1626.09
210.98	1697.77
211.20	1701.86
211.42	1667.05
211.64	1791.97
211.86	1726.44
212.08	1738.73
212.30	1685.48
212.52	1785.83
212.74	1751.01
212.96	1736.68
213.17	1751.01
213.39	1789.92
213.61	1802.21
213.83	1802.21
214.05	1646.57
214.27	1904.61
214.49	1626.09
214.71	1671.14
214.93	1755.11
215.15	1701.86
215.37	1730.53
215.59	1671.14
215.81	1744.87
216.03	1732.58
216.24	1685.48
216.46	1693.67
216.68	1810.40
216.90	1738.73
217.12	1789.92
217.34	1701.86
217.56	1710.05
217.78	1769.44
218.00	1746.92
218.22	1652.71
218.44	1738.73
218.66	1746.92
218.87	1806.31
219.09	1724.39
219.31	1722.34
219.53	1785.83
219.75	1667.05
219.97	1697.77
220.19	1705.96
220.41	1634.28
220.63	1800.16
220.85	1730.53
221.06	1710.05
221.28	1759.21
221.50	1812.45
221.72	1621.99
221.94	1703.91
222.16	1699.81
222.38	1757.16
222.60	1759.21
222.82	1722.34
223.03	1761.25
223.25	1628.14
223.47	1787.88
223.69	1806.31
223.91	1781.73
224.13	1681.38
224.35	1648.61
224.57	1822.69
224.78	1724.39
225.00	1662.95
225.22	1683.43
225.44	1791.97
225.66	1757.16
225.88	1669.09
226.10	1779.68
226.32	1714.15
226.53	1738.73
226.75	1589.22
226.97	1767.40
227.19	1638.38
227.41	1665.00
227.63	1691.62
227.85	1632.23
228.06	1712.10
228.28	1783.78
228.50	1812.45
228.72	1621.99
228.94	1730.53
229.16	1644.52
229.37	1642.47
229.59	1621.99
229.81	1789.92
230.03	1697.77
230.25	1652.71
230.47	1677.29
230.69	1654.76
230.90	1775.59
231.12	1789.92
231.34	1728.49
231.56	1798.12
231.78	1613.80
232.00	1771.49
232.21	1738.73
232.43	1724.39
232.65	1636.33
232.87	1755.11
233.09	1654.76
233.30	1658.85
233.52	1857.51
233.74	1683.43
233.96	1728.49
234.18	1734.63
234.40	1796.07
234.61	1804.26
234.83	1687.53
235.05	1683.43
235.27	1863.65
235.49	1724.39
235.70	1621.99
235.92	1779.68
236.14	1765.35
236.36	1863.65
236.58	1617.90
236.79	1783.78
237.01	1691.62
237.23	1667.05
237.45	1820.64
237.67	1636.33
237.88	1708.01
238.10	1841.12
238.32	1656.81
238.54	1656.81
238.76	1681.38
238.97	1611.75
239.19	1658.85
239.41	1781.73
239.63	1777.64
239.85	1710.05
240.06	1720.29
240.28	1718.25
240.50	1779.68
240.72	1796.07
240.93	1763.30
241.15	1722.34
241.37	1724.39
241.59	1806.31
241.81	1697.77
242.02	1708.01
242.24	1738.73
242.46	1742.82
242.68	1691.62
242.89	1751.01
243.11	1767.40
243.33	1679.33
243.55	1683.43
243.76	1779.68
243.98	1712.10
244.20	1783.78
244.42	1693.67
244.64	1652.71
244.85	1667.05
245.07	1673.19
245.29	1705.96
245.51	1820.64
245.72	1812.45
245.94	1769.44
246.16	1654.76
246.38	1748.97
246.59	1624.04
246.81	1693.67
247.03	1767.40
247.24	1718.25
247.46	1705.96
247.68	1824.74
247.90	1695.72
248.11	1767.40
248.33	1730.53
248.55	1728.49
248.77	1710.05
248.98	1779.68
249.20	1769.44
249.42	1705.96
249.64	1699.81
249.85	1695.72
250.07	1677.29
250.29	1705.96
250.50	1832.93
250.72	1624.04
250.94	1761.25
251.16	1857.51
251.37	1783.78
251.59	1724.39
251.81	1775.59
252.02	1826.79
252.24	1667.05
252.46	1806.31
252.68	1705.96
252.89	1705.96
253.11	1611.75
253.33	1818.60
253.54	1761.25
253.76	1632.23
253.98	1699.81
254.20	1714.15
254.41	1529.83
254.63	1675.24
254.85	1607.66
255.06	1699.81
255.28	1691.62
255.50	1644.52
255.71	1636.33
255.93	1708.01
256.15	1734.63
256.36	1708.01
256.58	1660.90
256.80	1777.64
257.02	1642.47
257.23	1691.62
257.45	1652.71
257.67	1789.92
257.88	1695.72
258.10	1673.19
258.32	1677.29
258.53	1783.78
258.75	1837.03
258.97	1705.96
259.18	1658.85
259.40	1796.07
259.62	1773.54
259.83	1794.02
260.05	1665.00
260.27	1984.48
260.48	1783.78
260.70	1601.51
260.92	1691.62
261.13	1705.96
261.35	1763.30
261.57	1724.39
261.78	1619.94
262.00	1609.70
262.22	1796.07
262.43	1654.76
262.65	1685.48
262.86	1638.38
263.08	1822.69
263.30	1697.77
263.51	1648.61
263.73	1716.20
263.95	1746.92
264.16	1669.09
264.38	1744.87
264.60	1718.25
264.81	1701.86
265.03	1765.35
265.25	1710.05
265.46	1716.20
265.68	1918.95
265.89	1771.49
266.11	1611.75
266.33	1794.02
266.54	1685.48
266.76	1794.02
266.98	1742.82
267.19	1771.49
267.41	1800.16
267.62	1708.01
267.84	1708.01
268.06	1775.59
268.27	1779.68
268.49	1765.35
268.70	1810.40
268.92	1685.48
269.14	1708.01
269.35	1578.98
269.57	1695.72
269.79	1724.39
270.00	1689.57
270.22	1783.78
270.43	1726.44
270.65	1570.79
270.87	1673.19
271.08	1746.92
271.30	1705.96
271.51	1781.73
271.73	1701.86
271.95	1785.83
272.16	1708.01
272.38	1771.49
272.59	1595.37
272.81	1730.53
273.02	1648.61
273.24	1736.68
273.46	1763.30
273.67	1634.28
273.89	1667.05
274.10	1677.29
274.32	1763.30
274.54	1681.38
274.75	1738.73
274.97	1671.14
275.18	1773.54
275.40	1740.77
275.61	1736.68
275.83	1761.25
276.05	1687.53
276.26	1708.01
276.48	1800.16
276.69	1640.42
276.91	1636.33
277.12	1808.36
277.34	1730.53
277.55	1697.77
277.77	1718.25
277.99	1689.57
278.20	1656.81
278.42	1660.90
278.63	1648.61
278.85	1718.25
279.06	1626.09
279.28	1773.54
279.49	1757.16
279.71	1722.34
279.93	1693.67
280.14	1681.38
280.36	1691.62
280.57	1822.69
280.79	1781.73
281.00	1660.90
281.22	1712.10
281.43	1689.57
281.65	1599.46
281.86	1685.48
282.08	1767.40
282.29	1761.25
282.51	1615.85
282.73	1611.75
282.94	1642.47
283.16	1755.11
283.37	1855.46
283.59	1734.63
283.80	1642.47
284.02	1638.38
284.23	1712.10
284.45	1683.43
284.66	1693.67
284.88	1728.49
285.09	1769.44
285.31	1730.53
285.52	1714.15
285.74	1626.09
285.95	1765.35
286.17	1736.68
286.38	1779.68
286.60	1640.42
286.81	1705.96
287.03	1732.58
287.24	1697.77
287.46	1763.30
287.67	1708.01
287.89	1847.27
288.10	1693.67
288.32	1757.16
288.53	1794.02
288.75	1734.63
288.96	1748.97
289.18	1699.81
289.39	1701.86
289.61	1822.69
289.82	1853.41
290.04	1785.83
290.25	1648.61
290.47	1691.62
290.68	1705.96
290.90	1714.15
291.11	1654.76
291.33	1757.16
291.54	1654.76
291.76	1675.24
291.97	1753.06
292.18	1699.81
292.40	1636.33
292.61	1667.05
292.83	1800.16
293.04	1640.42
293.26	1722.34
293.47	1701.86
293.69	1755.11
293.90	1773.54
294.12	1746.92
294.33	1681.38
294.55	1736.68
294.76	1789.92
294.97	1708.01
295.19	1757.16
295.40	1703.91
295.62	1759.21
295.83	1642.47
296.05	1685.48
296.26	1742.82
296.48	1642.47
296.69	1755.11
296.90	1722.34
297.12	1800.16
297.33	1726.44
297.55	1751.01
297.76	1744.87
297.98	1654.76
298.19	1710.05
298.41	1755.11
298.62	1658.85
298.83	1814.50
299.05	1738.73
299.26	1701.86
299.48	1671.14
299.69	1755.11
299.90	1753.06
300.12	1611.75
300.33	1691.62
300.55	1671.14
300.76	1720.29
300.98	1685.48
301.19	1730.53
301.40	1693.67
301.62	1683.43
301.83	1771.49
302.05	1746.92
302.26	1730.53
302.47	1646.57
302.69	1619.94
302.90	1601.51
303.12	1667.05
303.33	1708.01
303.54	1861.60
303.76	1593.32
303.97	1734.63
304.19	1699.81
304.40	1665.00
304.61	1710.05
304.83	1759.21
305.04	1734.63
305.26	1785.83
305.47	1681.38
305.68	1755.11
305.90	1673.19
306.11	1746.92
306.33	1652.71
306.54	1669.09
306.75	1691.62
306.97	1585.13
307.18	1673.19
307.39	1687.53
307.61	1775.59
307.82	1710.05
308.04	1714.15
308.25	1683.43
308.46	1734.63
308.68	1683.43
308.89	1767.40
309.10	1746.92
309.32	1679.33
309.53	1783.78
309.74	1794.02
309.96	1673.19
310.17	1779.68
310.39	1693.67
310.60	1718.25
310.81	1691.62
311.03	1591.27
311.24	1736.68
311.45	1648.61
311.67	1841.12
311.88	1765.35
312.09	1718.25
312.31	1708.01
312.52	1640.42
312.73	1693.67
312.95	1701.86
313.16	1611.75
313.37	1824.74
313.59	1708.01
313.80	1744.87
314.01	1806.31
314.23	1703.91
314.44	1581.03
314.65	1650.66
314.87	1658.85
315.08	1667.05
315.29	1652.71
315.51	1599.46
315.72	1669.09
315.93	1761.25
316.15	1701.86
316.36	1697.77
316.57	1785.83
316.79	1722.34
317.00	1691.62
317.21	1720.29
317.43	1673.19
317.64	1740.77
317.85	1728.49
318.07	1648.61
318.28	1771.49
318.49	1824.74
318.70	1939.43
318.92	1847.27
319.13	1837.03
319.34	1857.51
319.56	1763.30
319.77	1802.21
319.98	1773.54
320.20	1751.01
320.41	1763.30
320.62	1822.69
320.83	1687.53
321.05	1785.83
321.26	1746.92
321.47	1781.73
321.69	1814.50
321.90	1660.90
322.11	1726.44
322.32	1826.79
322.54	1796.07
322.75	1636.33
322.96	1847.27
323.18	1656.81
323.39	1691.62
323.60	1665.00
323.81	1857.51
324.03	1624.04
324.24	1748.97
324.45	1693.67
324.66	1687.53
324.88	1789.92
325.09	1806.31
325.30	1703.91
325.52	1701.86
325.73	1779.68
325.94	1691.62
326.15	1617.90
326.37	1695.72
326.58	1775.59
326.79	1798.12
327.00	1718.25
327.22	1722.34
327.43	1607.66
327.64	1648.61
327.85	1718.25
328.07	1738.73
328.28	1800.16
328.49	1665.00
328.70	1617.90
328.92	1683.43
329.13	1769.44
329.34	1740.77
329.55	1845.22
329.76	1798.12
329.98	1734.63
330.19	1742.82
330.40	1712.10
330.61	1734.63
330.83	1763.30
331.04	1699.81
331.25	1738.73
331.46	1722.34
331.68	1679.33
331.89	1712.10
332.10	1703.91
332.31	1632.23
332.52	1726.44
332.74	1812.45
332.95	1654.76
333.16	1673.19
333.37	1740.77
333.58	1755.11
333.80	1769.44
334.01	1578.98
334.22	1724.39
334.43	1660.90
334.64	1634.28
334.86	1611.75
335.07	1638.38
335.28	1755.11
335.49	1671.14
335.70	1751.01
335.92	1800.16
336.13	1841.12
336.34	1718.25
336.55	1738.73
336.76	1705.96
336.98	1617.90
337.19	1683.43
337.40	1796.07
337.61	1837.03
337.82	1640.42
338.04	1810.40
338.25	1597.42
338.46	1683.43
338.67	1708.01
338.88	1722.34
339.09	1677.29
339.31	1708.01
339.52	1656.81
339.73	1771.49
339.94	1759.21
340.15	1718.25
340.36	1658.85
340.58	1701.86
340.79	1628.14
341.00	1671.14
341.21	1656.81
341.42	1773.54
341.63	1744.87
341.85	1689.57
342.06	1685.48
342.27	1646.57
342.48	1775.59
342.69	1566.70
342.90	1808.36
343.12	1662.95
343.33	1685.48
343.54	1763.30
343.75	1763.30
343.96	1671.14
344.17	1699.81
344.38	1689.57
344.60	1615.85
344.81	1771.49
345.02	1654.76
345.23	1875.94
345.44	1796.07
345.65	1769.44
345.86	1705.96
346.07	1761.25
346.29	1669.09
346.50	1732.58
346.71	1724.39
346.92	1804.26
347.13	1855.46
347.34	1716.20
347.55	1726.44
347.76	1691.62
347.98	1687.53
348.19	1705.96
348.40	1724.39
348.61	1689.57
348.82	1746.92
349.03	1857.51
349.24	1714.15
349.45	1818.60
349.66	1640.42
349.88	1728.49
350.09	1751.01
350.30	1765.35
350.51	1738.73
350.72	1693.67
350.93	1757.16
351.14	1646.57
351.35	1789.92
351.56	1755.11
351.77	1740.77
351.99	1669.09
352.20	1808.36
352.41	1867.75
352.62	1595.37
352.83	1705.96
353.04	1677.29
353.25	1570.79
353.46	1794.02
353.67	1767.40
353.88	1671.14
354.09	1781.73
354.30	1665.00
354.52	1708.01
354.73	1728.49
354.94	1669.09
355.15	1644.52
355.36	1845.22
355.57	1640.42
355.78	1791.97
355.99	1673.19
356.20	1662.95
356.41	1822.69
356.62	1751.01
356.83	1667.05
357.04	1828.84
357.25	1677.29
357.46	1738.73
357.68	1652.71
357.89	1703.91
358.10	1656.81
358.31	1710.05
358.52	1675.24
358.73	1581.03
358.94	1650.66
359.15	1685.48
359.36	1781.73
359.57	1724.39
359.78	1712.10
359.99	1742.82
360.20	1673.19
360.41	1728.49
360.62	1794.02
360.83	1804.26
361.04	1689.57
361.25	1794.02
361.46	1873.89
361.67	1740.77
361.88	1781.73
362.09	1779.68
362.30	1669.09
362.51	1744.87
362.72	1748.97
362.93	1716.20
363.14	1773.54
363.35	1728.49
363.56	1628.14
363.78	1806.31
363.99	1751.01
364.20	1710.05
364.41	1732.58
364.62	1871.84
364.83	1730.53
365.04	1773.54
365.25	1787.88
365.46	1810.40
365.67	1654.76
365.88	1685.48
366.09	1726.44
366.30	1679.33
366.51	1705.96
366.72	1648.61
366.93	1771.49
367.14	1765.35
367.35	1775.59
367.56	1624.04
367.77	1814.50
367.98	1718.25
368.18	1716.20
368.39	1705.96
368.60	1677.29
368.81	1800.16
369.02	1705.96
369.23	1646.57
369.44	1617.90
369.65	1673.19
369.86	1779.68
370.07	1683.43
370.28	1673.19
370.49	1763.30
370.70	1734.63
370.91	1710.05
371.12	1677.29
371.33	1761.25
371.54	1730.53
371.75	1828.84
371.96	1640.42
372.17	1724.39
372.38	1650.66
372.59	1777.64
372.80	1716.20
373.01	1685.48
373.22	1714.15
373.43	1742.82
373.64	1671.14
373.85	1734.63
374.06	1794.02
374.26	1753.06
374.47	1761.25
374.68	1734.63
374.89	1742.82
375.10	1660.90
375.31	1765.35
375.52	1689.57
375.73	1662.95
375.94	1607.66
376.15	1753.06
376.36	1671.14
376.57	1726.44
376.78	1738.73
376.99	1779.68
377.20	1851.36
377.40	1710.05
377.61	1853.41
377.82	1697.77
378.03	1771.49
378.24	1787.88
378.45	1736.68
378.66	1775.59
378.87	1613.80
379.08	1695.72
379.29	1718.25
379.50	1804.26
379.71	1708.01
379.91	1777.64
380.12	1720.29
380.33	1685.48
380.54	1824.74
380.75	1671.14
380.96	1705.96
381.17	1798.12
381.38	1697.77
381.59	1798.12
381.80	1751.01
382.00	1767.40
382.21	1740.77
382.42	1834.98
382.63	1834.98
382.84	1683.43
383.05	1902.56
383.26	1730.53
383.47	1759.21
383.68	1708.01
383.88	1763.30
384.09	1710.05
384.30	1839.08
384.51	1765.35
384.72	1699.81
384.93	1708.01
385.14	1699.81
385.35	1800.16
385.55	1591.27
385.76	1781.73
385.97	1699.81
386.18	1687.53
386.39	1689.57
386.60	1640.42
386.81	1673.19
387.02	1634.28
387.22	1732.58
387.43	1769.44
387.64	1755.11
387.85	1877.99
388.06	2228.19
388.27	4296.64
388.48	6705.05
388.68	8126.34
388.89	9631.60
389.10	9637.74
389.31	8456.06
389.52	7458.70
389.73	6727.58
389.93	6088.61
390.14	5924.77
390.35	5081.01
390.56	4548.54
390.77	3753.93
390.98	3069.91
391.18	2461.66
391.39	2148.32
391.60	1841.12
391.81	1841.12
392.02	1689.57
392.23	1859.56
392.43	1787.88
392.64	1775.59
392.85	1710.05
393.06	1857.51
393.27	1822.69
393.47	1683.43
393.68	1699.81
393.89	1685.48
394.10	1796.07
394.31	1748.97
394.52	1667.05
394.72	1697.77
394.93	1802.21
395.14	1646.57
395.35	1742.82
395.56	1728.49
395.76	1734.63
395.97	1789.92
396.18	1828.84
396.39	1800.16
396.60	2090.98
396.80	1871.84
397.01	1865.70
397.22	1851.36
397.43	1693.67
397.64	1759.21
397.84	1822.69
398.05	1908.71
398.26	1726.44
398.47	1796.07
398.67	1841.12
398.88	1783.78
399.09	1716.20
399.30	1697.77
399.51	1779.68
399.71	1673.19
399.92	1679.33
400.13	1757.16
400.34	1722.34
400.54	1716.20
400.75	1791.97
400.96	1794.02
401.17	1748.97
401.37	1771.49
401.58	1697.77
401.79	1724.39
402.00	1855.46
402.21	2004.96
402.41	2007.01
402.62	2066.40
402.83	2050.02
403.04	2039.78
403.24	2072.54
403.45	1865.70
403.66	1855.46
403.87	1826.79
404.07	1843.17
404.28	1937.38
404.49	1904.61
404.70	1802.21
404.90	1779.68
405.11	1826.79
405.32	1730.53
405.52	1728.49
405.73	1708.01
405.94	1705.96
406.15	1673.19
406.35	1763.30
406.56	1767.40
406.77	1722.34
406.98	1781.73
407.18	1593.32
407.39	1736.68
407.60	1669.09
407.80	1806.31
408.01	1744.87
408.22	1705.96
408.43	1640.42
408.63	1800.16
408.84	1802.21
409.05	1775.59
409.25	1640.42
409.46	1720.29
409.67	1679.33
409.88	1642.47
410.08	1703.91
410.29	1681.38
410.50	1746.92
410.70	1771.49
410.91	1699.81
411.12	1730.53
411.32	1728.49
411.53	1763.30
411.74	1802.21
411.95	1796.07
412.15	1753.06
412.36	1853.41
412.57	1736.68
412.77	1765.35
412.98	1738.73
413.19	1722.34
413.39	1775.59
413.60	1763.30
413.81	1781.73
414.01	1689.57
414.22	1767.40
414.43	1824.74
414.63	1693.67
414.84	1728.49
415.05	1783.78
415.25	1597.42
415.46	1746.92
415.67	1726.44
415.87	1712.10
416.08	1779.68
416.29	1695.72
416.49	1744.87
416.70	1677.29
416.91	1708.01
417.11	1689.57
417.32	1759.21
417.53	1791.97
417.73	1710.05
417.94	1710.05
418.15	1683.43
418.35	1755.11
418.56	1736.68
418.77	1810.40
418.97	1673.19
419.18	1708.01
419.38	1523.69
419.59	1710.05
419.80	1806.31
420.00	1691.62
420.21	1742.82
420.42	1736.68
420.62	1722.34
420.83	1644.52
421.04	1693.67
421.24	1656.81
421.45	1757.16
421.65	1755.11
421.86	1638.38
422.07	1658.85
422.27	1751.01
422.48	1738.73
422.69	1687.53
422.89	1708.01
423.10	1662.95
423.30	1630.18
423.51	1740.77
423.72	1759.21
423.92	1751.01
424.13	1720.29
424.33	1775.59
424.54	1791.97
424.75	1689.57
424.95	1834.98
425.16	1751.01
425.36	1695.72
425.57	1787.88
425.78	1808.36
425.98	1853.41
426.19	1705.96
426.39	1693.67
426.60	1781.73
426.81	1808.36
427.01	1736.68
427.22	1714.15
427.42	1660.90
427.63	1708.01
427.83	1783.78
428.04	1710.05
428.25	1763.30
428.45	1705.96
428.66	1769.44
428.86	1724.39
429.07	1699.81
429.28	1693.67
429.48	1681.38
429.69	1691.62
429.89	1746.92
430.10	1646.57
430.30	1822.69
430.51	1757.16
430.71	1701.86
430.92	1652.71
431.13	1765.35
431.33	1708.01
431.54	1740.77
431.74	1753.06
431.95	1869.80
432.15	1671.14
432.36	1742.82
432.56	1861.60
432.77	1777.64
432.98	1783.78
433.18	1746.92
433.39	1697.77
433.59	1718.25
433.80	1873.89
434.00	1808.36
434.21	1705.96
434.41	1687.53
434.62	1785.83
434.82	1564.65
435.03	1697.77
435.23	1753.06
435.44	1607.66
435.64	1681.38
435.85	1730.53
436.06	1740.77
436.26	1767.40
436.47	1712.10
436.67	1728.49
436.88	1781.73
437.08	1834.98
437.29	1814.50
437.49	1748.97
437.70	1837.03
437.90	1671.14
438.11	1892.32
438.31	1771.49
438.52	1804.26
438.72	1910.75
438.93	1925.09
439.13	1734.63
439.34	1777.64
439.54	1703.91
439.75	1779.68
439.95	1847.27
440.16	1732.58
440.36	1820.64
440.57	1771.49
440.77	1757.16
440.98	1757.16
441.18	1798.12
441.39	1771.49
441.59	1599.46
441.80	1849.32
442.00	1724.39
442.21	1843.17
442.41	1658.85
442.62	1822.69
442.82	1626.09
443.02	1757.16
443.23	1714.15
443.43	1716.20
443.64	1808.36
443.84	1660.90
444.05	1759.21
444.25	1808.36
444.46	1699.81
444.66	1726.44
444.87	1839.08
445.07	1630.18
445.28	1730.53
445.48	1869.80
445.69	1808.36
445.89	1841.12
446.09	1789.92
446.30	1988.58
446.50	2535.39
446.71	3712.97
446.91	4196.29
447.12	4624.31
447.32	4806.58
447.53	4247.49
447.73	3903.43
447.93	3452.88
448.14	3375.05
448.34	3262.41
448.55	2904.02
448.75	2787.29
448.96	2674.65
449.16	2416.60
449.36	2340.83
449.57	2074.59
449.77	1861.60
449.98	1714.15
450.18	1800.16
450.39	1845.22
450.59	1820.64
450.79	1732.58
451.00	1697.77
451.20	1763.30
451.41	1720.29
451.61	1800.16
451.81	1738.73
452.02	1716.20
452.22	1779.68
452.43	1624.04
452.63	1714.15
452.84	1757.16
453.04	1722.34
453.24	1804.26
453.45	1730.53
453.65	1734.63
453.86	1738.73
454.06	1740.77
454.26	1753.06
454.47	1732.58
454.67	1877.99
454.87	1740.77
455.08	1742.82
455.28	1906.66
455.49	1781.73
455.69	1796.07
455.89	1898.47
456.10	1789.92
456.30	1685.48
456.51	1890.28
456.71	1765.35
456.91	1814.50
457.12	1863.65
457.32	1777.64
457.52	1701.86
457.73	1853.41
457.93	1812.45
458.14	1697.77
458.34	1691.62
458.54	1652.71
458.75	1689.57
458.95	1869.80
459.15	1814.50
459.36	1722.34
459.56	1775.59
459.76	1810.40
459.97	1730.53
460.17	1765.35
460.37	1771.49
460.58	1712.10
460.78	1734.63
460.99	1691.62
461.19	1769.44
461.39	1734.63
461.60	1755.11
461.80	1740.77
462.00	1701.86
462.21	1667.05
462.41	1746.92
462.61	1677.29
462.82	1605.61
463.02	1810.40
463.22	1783.78
463.43	1798.12
463.63	1769.44
463.83	1820.64
464.04	1746.92
464.24	1730.53
464.44	1636.33
464.64	1769.44
464.85	1777.64
465.05	1853.41
465.25	1718.25
465.46	1708.01
465.66	1771.49
465.86	1818.60
466.07	1740.77
466.27	1738.73
466.47	1650.66
466.68	1683.43
466.88	1771.49
467.08	1773.54
467.29	1757.16
467.49	1744.87
467.69	1724.39
467.89	1806.31
468.10	1746.92
468.30	1763.30
468.50	1748.97
468.71	1751.01
468.91	1683.43
469.11	1800.16
469.31	1789.92
469.52	1640.42
469.72	1845.22
469.92	1791.97
470.13	1773.54
470.33	1728.49
470.53	1816.55
470.73	2101.22
470.94	2238.43
471.14	2258.91
471.34	2369.50
471.54	2463.71
471.75	2205.66
471.95	2088.93
472.15	2101.22
472.36	2101.22
472.56	2058.21
472.76	2109.41
472.96	2027.49
473.17	1953.76
473.37	1882.08
473.57	1820.64
473.77	1798.12
473.98	1759.21
474.18	1718.25
474.38	1943.52
474.58	1693.67
474.79	1701.86
474.99	1787.88
475.19	1806.31
475.39	1652.71
475.60	1660.90
475.80	1742.82
476.00	1751.01
476.20	1757.16
476.41	1669.09
476.61	1837.03
476.81	1800.16
477.01	1697.77
477.21	1837.03
477.42	1794.02
477.62	1740.77
477.82	1748.97
478.02	1705.96
478.23	1781.73
478.43	1705.96
478.63	1673.19
478.83	1732.58
479.03	1660.90
479.24	1847.27
479.44	1869.80
479.64	1677.29
479.84	1593.32
480.04	1662.95
480.25	1730.53
480.45	1677.29
480.65	1742.82
480.85	1755.11
481.06	1665.00
481.26	1728.49
481.46	1771.49
481.66	1798.12
481.86	1673.19
482.06	1853.41
482.27	1767.40
482.47	1714.15
482.67	1759.21
482.87	1761.25
483.07	1814.50
483.28	1669.09
483.48	1703.91
483.68	1712.10
483.88	1705.96
484.08	1628.14
484.29	1640.42
484.49	1689.57
484.69	1581.03
484.89	1824.74
485.09	1746.92
485.29	1853.41
485.50	1710.05
485.70	1810.40
485.90	1873.89
486.10	1736.68
486.30	1779.68
486.50	1806.31
486.71	1730.53
486.91	1765.35
487.11	1794.02
487.31	1720.29
487.51	1828.84
487.71	1753.06
487.91	1593.32
488.12	1691.62
488.32	1521.64
488.52	1669.09
488.72	1703.91
488.92	1800.16
489.12	1789.92
489.32	1728.49
489.53	1726.44
489.73	1613.80
489.93	1814.50
490.13	1693.67
490.33	1636.33
490.53	1794.02
490.73	1857.51
490.94	1689.57
491.14	1720.29
491.34	1816.55
491.54	2205.66
491.74	2471.90
491.94	2910.16
492.14	3008.47
492.34	2987.99
492.54	2826.20
492.75	2549.72
492.95	2492.38
493.15	2273.25
493.35	2240.48
493.55	2199.52
493.75	2158.56
493.95	2060.26
494.15	1996.77
494.35	1902.56
494.56	1820.64
494.76	1779.68
494.96	1812.45
495.16	1808.36
495.36	1751.01
495.56	1628.14
495.76	1722.34
495.96	1755.11
496.16	1736.68
496.36	1796.07
496.56	1824.74
496.77	1812.45
496.97	1806.31
497.17	1818.60
497.37	1742.82
497.57	1777.64
497.77	1734.63
497.97	1665.00
498.17	1677.29
498.37	1798.12
498.57	1705.96
498.77	1724.39
498.97	1771.49
499.17	1849.32
499.38	1759.21
499.58	1742.82
499.78	1826.79
499.98	1820.64
500.18	1734.63
500.38	1703.91
500.58	1929.19
500.78	2596.82
500.98	4407.23
501.18	5916.58
501.38	6641.56
501.58	7098.26
501.78	6647.71
501.98	5605.29
502.18	4966.32
502.38	4415.42
502.58	4216.77
502.78	3731.40
502.98	3688.39
503.18	3389.39
503.38	3151.82
503.59	2738.13
503.79	2670.55
503.99	2492.38
504.19	2220.00
504.39	2197.47
504.59	2209.76
504.79	2080.74
504.99	2138.08
505.19	2017.25
505.39	1861.60
505.59	2000.87
505.79	1865.70
505.99	1832.93
506.19	1791.97
506.39	1937.38
506.59	1705.96
506.79	1738.73
506.99	1812.45
507.19	1779.68
507.39	1791.97
507.59	1644.52
507.79	1724.39
507.99	1658.85
508.19	1796.07
508.39	1738.73
508.59	1748.97
508.79	1873.89
508.99	1832.93
509.19	1658.85
509.39	1794.02
509.59	1718.25
509.79	1681.38
509.99	1724.39
510.19	1789.92
510.39	1834.98
510.59	1791.97
510.79	1730.53
510.99	1677.29
511.19	1777.64
511.39	1824.74
511.59	1742.82
511.79	1863.65
511.99	1730.53
512.19	1810.40
512.38	1763.30
512.58	1738.73
512.78	1791.97
512.98	1808.36
513.18	1804.26
513.38	1677.29
513.58	1785.83
513.78	1751.01
513.98	1800.16
514.18	1714.15
514.38	1771.49
514.58	1773.54
514.78	1730.53
514.98	1714.15
515.18	1742.82
515.38	1656.81
515.58	1828.84
515.78	1716.20
515.98	1755.11
516.18	1800.16
516.38	1714.15
516.57	1697.77
516.77	1746.92
516.97	1759.21
517.17	1665.00
517.37	1658.85
517.57	1738.73
517.77	1697.77
517.97	1779.68
518.17	1824.74
518.37	1660.90
518.57	1767.40
518.77	1687.53
518.97	1669.09
519.16	1755.11
519.36	1832.93
519.56	1738.73
519.76	1771.49
519.96	1708.01
520.16	1763.30
520.36	1671.14
520.56	1773.54
520.76	1681.38
520.96	1771.49
521.16	1806.31
521.35	1771.49
521.55	1902.56
521.75	1722.34
521.95	1712.10
522.15	1710.05
522.35	1726.44
522.55	1693.67
522.75	1732.58
522.95	1615.85
523.14	1679.33
523.34	1730.53
523.54	1755.11
523.74	1697.77
523.94	1761.25
524.14	1767.40
524.34	1771.49
524.54	1853.41
524.73	1755.11
524.93	1755.11
525.13	1763.30
525.33	1714.15
525.53	1927.14
525.73	1763.30
525.93	1740.77
526.13	1701.86
526.32	1724.39
526.52	1757.16
526.72	1791.97
526.92	1771.49
527.12	1710.05
527.32	1708.01
527.52	1718.25
527.71	1796.07
527.91	1785.83
528.11	1763.30
528.31	1660.90
528.51	1691.62
528.71	1871.84
528.90	1769.44
529.10	1789.92
529.30	1912.80
529.50	1652.71
529.70	1771.49
529.90	1728.49
530.09	1734.63
530.29	1648.61
530.49	1689.57
530.69	1882.08
530.89	1798.12
531.09	1742.82
531.28	1755.11
531.48	1859.56
531.68	1830.88
531.88	1779.68
532.08	1830.88
532.28	1695.72
532.47	1748.97
532.67	1828.84
532.87	1806.31
533.07	1800.16
533.27	1806.31
533.46	1693.67
533.66	1744.87
533.86	1689.57
534.06	1718.25
534.26	1755.11
534.45	1701.86
534.65	1726.44
534.85	1783.78
535.05	1730.53
535.25	1834.98
535.44	1658.85
535.64	1769.44
535.84	1654.76
536.04	1742.82
536.24	1744.87
536.43	1693.67
536.63	1703.91
536.83	1830.88
537.03	1740.77
537.22	1667.05
537.42	1689.57
537.62	1794.02
537.82	1740.77
538.02	1822.69
538.21	1847.27
538.41	1843.17
538.61	1777.64
538.81	1767.40
539.00	1771.49
539.20	1658.85
539.40	1730.53
539.60	1759.21
539.79	1763.30
539.99	1773.54
540.19	1757.16
540.39	1781.73
540.58	1755.11
540.78	1789.92
540.98	1644.52
541.18	1763.30
541.37	1804.26
541.57	1798.12
541.77	1789.92
541.97	1740.77
542.16	1691.62
542.36	1716.20
542.56	1685.48
542.76	1826.79
542.95	1841.12
543.15	1816.55
543.35	1777.64
543.54	1734.63
543.74	1681.38
543.94	1865.70
544.14	1705.96
544.33	1818.60
544.53	1716.20
544.73	1714.15
544.93	1693.67
545.12	1777.64
545.32	1740.77
545.52	1748.97
545.71	1621.99
545.91	1712.10
546.11	1705.96
546.30	1691.62
546.50	1779.68
546.70	1853.41
546.90	1765.35
547.09	1662.95
547.29	1763.30
547.49	1845.22
547.68	1689.57
547.88	1710.05
548.08	1773.54
548.27	2213.85
548.47	1775.59
548.67	1710.05
548.87	1841.12
549.06	1724.39
549.26	1775.59
549.46	1753.06
549.65	1695.72
549.85	1767.40
550.05	1740.77
550.24	1634.28
550.44	1757.16
550.64	1763.30
550.83	1796.07
551.03	1884.13
551.23	1771.49
551.42	1812.45
551.62	1730.53
551.82	1818.60
552.01	1671.14
552.21	1787.88
552.41	1818.60
552.60	1855.46
552.80	1716.20
553.00	1722.34
553.19	1714.15
553.39	1781.73
553.59	1685.48
553.78	1810.40
553.98	1746.92
554.17	1753.06
554.37	1785.83
554.57	1775.59
554.76	1658.85
554.96	1667.05
555.16	1757.16
555.35	1767.40
555.55	1759.21
555.75	1781.73
555.94	1787.88
556.14	1628.14
556.33	1822.69
556.53	1652.71
556.73	1728.49
556.92	1724.39
557.12	1845.22
557.32	1798.12
557.51	1843.17
557.71	1787.88
557.90	1734.63
558.10	1816.55
558.30	1712.10
558.49	1744.87
558.69	1658.85
558.88	1777.64
559.08	1767.40
559.28	1779.68
559.47	1708.01
559.67	1824.74
559.86	1853.41
560.06	1701.86
560.26	1679.33
560.45	1773.54
560.65	1751.01
560.84	1818.60
561.04	1687.53
561.24	1826.79
561.43	1763.30
561.63	1820.64
561.82	1763.30
562.02	1808.36
562.22	1697.77
562.41	1763.30
562.61	1662.95
562.80	1710.05
563.00	1857.51
563.19	1722.34
563.39	1828.84
563.59	1687.53
563.78	1716.20
563.98	1665.00
564.17	1789.92
564.37	1718.25
564.56	1699.81
564.76	1767.40
564.96	1773.54
565.15	1722.34
565.35	1865.70
565.54	1738.73
565.74	1785.83
565.93	1751.01
566.13	1710.05
566.32	1785.83
566.52	1787.88
566.71	1773.54
566.91	1849.32
567.11	1701.86
567.30	1720.29
567.50	1748.97
567.69	1730.53
567.89	1736.68
568.08	1740.77
568.28	1867.75
568.47	1621.99
568.67	1771.49
568.86	1716.20
569.06	1855.46
569.25	1734.63
569.45	1648.61
569.64	1675.24
569.84	1765.35
570.04	1794.02
570.23	1669.09
570.43	1779.68
570.62	1736.68
570.82	1855.46
571.01	1712.10
571.21	1744.87
571.40	1646.57
571.60	1767.40
571.79	1785.83
571.99	1800.16
572.18	1769.44
572.38	1789.92
572.57	1691.62
572.77	1789.92
572.96	1867.75
573.16	1822.69
573.35	1751.01
573.55	1943.52
573.74	1722.34
573.94	1773.54
574.13	1710.05
574.33	1812.45
574.52	1814.50
574.71	1794.02
574.91	1701.86
575.10	1673.19
575.30	1669.09
575.49	1648.61
575.69	1755.11
575.88	1812.45
576.08	1679.33
576.27	1775.59
576.47	1787.88
576.66	1744.87
576.86	1853.41
577.05	1773.54
577.25	1804.26
577.44	1896.42
577.64	1734.63
577.83	1791.97
578.02	1765.35
578.22	1796.07
578.41	1789.92
578.61	1789.92
578.80	1730.53
579.00	1794.02
579.19	1714.15
579.39	1791.97
579.58	1853.41
579.77	1714.15
579.97	1820.64
580.16	1837.03
580.36	1824.74
580.55	1873.89
580.75	1849.32
580.94	1769.44
581.13	1867.75
581.33	1910.75
581.52	1738.73
581.72	1847.27
581.91	1923.04
582.11	1736.68
582.30	1796.07
582.49	1753.06
582.69	1804.26
582.88	1822.69
583.08	1818.60
583.27	1796.07
583.47	1726.44
583.66	1744.87
583.85	1777.64
584.05	1730.53
584.24	1839.08
584.44	1804.26
584.63	1746.92
584.82	1890.28
585.02	1886.18
585.21	1839.08
585.41	1826.79
585.60	1859.56
585.79	1875.94
585.99	1927.14
586.18	1892.32
586.37	2215.90
586.57	3258.32
586.76	9924.46
586.96	24151.70
587.15	34461.17
587.34	39646.63
587.54	41596.29
587.73	36234.71
587.93	25867.89
588.12	21327.55
588.31	17942.25
588.51	15963.92
588.70	15007.52
588.89	13944.62
589.09	12244.81
589.28	10927.96
589.47	9310.07
589.67	7856.01
589.86	6367.13
590.06	4812.73
590.25	3798.98
590.44	3102.67
590.64	2619.35
590.83	2222.05
591.02	2052.06
591.22	1927.14
591.41	1941.47
591.60	1828.84
591.80	1941.47
591.99	1746.92
592.18	1794.02
592.38	1796.07
592.57	1746.92
592.76	1771.49
592.96	1812.45
593.15	1787.88
593.34	1816.55
593.54	1748.97
593.73	1804.26
593.92	1839.08
594.12	1773.54
594.31	1806.31
594.50	1779.68
594.70	1816.55
594.89	1869.80
595.08	1640.42
595.28	1798.12
595.47	1951.71
595.66	1806.31
595.86	1656.81
596.05	1742.82
596.24	1714.15
596.43	1816.55
596.63	1834.98
596.82	1738.73
597.01	1800.16
597.21	1820.64
597.40	1730.53
597.59	1789.92
597.79	1785.83
597.98	1753.06
598.17	1789.92
598.36	1732.58
598.56	1726.44
598.75	1767.40
598.94	1740.77
599.14	1851.36
599.33	1742.82
599.52	1818.60
599.71	1802.21
599.91	1808.36
600.10	1734.63
600.29	1767.40
600.48	1800.16
600.68	1830.88
600.87	1736.68
601.06	1757.16
601.26	1742.82
601.45	1773.54
601.64	1771.49
601.83	1802.21
602.03	1693.67
602.22	1669.09
602.41	1779.68
602.60	1800.16
602.80	1863.65
602.99	1808.36
603.18	1785.83
603.37	1808.36
603.57	1775.59
603.76	1791.97
603.95	1847.27
604.14	1761.25
604.34	1763.30
604.53	1757.16
604.72	1710.05
604.91	1820.64
605.10	1761.25
605.30	1740.77
605.49	1837.03
605.68	1746.92
605.87	1820.64
606.07	1626.09
606.26	1722.34
606.45	1787.88
606.64	1814.50
606.84	1779.68
607.03	1734.63
607.22	1830.88
607.41	1693.67
607.60	1765.35
607.80	1748.97
607.99	1744.87
608.18	1757.16
608.37	1728.49
608.56	1759.21
608.76	1798.12
608.95	1789.92
609.14	1763.30
609.33	1804.26
609.52	1769.44
609.72	1773.54
609.91	1861.60
610.10	1787.88
610.29	1804.26
610.48	1746.92
610.68	1742.82
610.87	1722.34
611.06	1802.21
611.25	1775.59
611.44	1849.32
611.63	1714.15
611.83	1861.60
612.02	1777.64
612.21	1839.08
612.40	1697.77
612.59	1705.96
612.79	1712.10
612.98	1726.44
613.17	1843.17
613.36	1734.63
613.55	1834.98
613.74	1701.86
613.93	1701.86
614.13	1789.92
614.32	1794.02
614.51	1759.21
614.70	1802.21
614.89	1705.96
615.08	1734.63
615.28	2054.11
615.47	1681.38
615.66	1710.05
615.85	1714.15
616.04	1804.26
616.23	1753.06
616.42	1703.91
616.62	1757.16
616.81	1798.12
617.00	1716.20
617.19	1691.62
617.38	1734.63
617.57	1769.44
617.76	1734.63
617.95	1800.16
618.15	1798.12
618.34	1843.17
618.53	1691.62
618.72	1804.26
618.91	1736.68
619.10	1828.84
619.29	1773.54
619.48	1732.58
619.68	1689.57
619.87	1761.25
620.06	1669.09
620.25	1781.73
620.44	1734.63
620.63	1718.25
620.82	1757.16
621.01	1724.39
621.20	1703.91
621.39	1791.97
621.59	1722.34
621.78	1740.77
621.97	1753.06
622.16	1779.68
622.35	1730.53
622.54	1800.16
622.73	1810.40
622.92	1654.76
623.11	1738.73
623.30	1746.92
623.49	1718.25
623.68	1740.77
623.88	1740.77
624.07	1740.77
624.26	1734.63
624.45	1787.88
624.64	1730.53
624.83	1722.34
625.02	1781.73
625.21	1730.53
625.40	1761.25
625.59	1839.08
625.78	1871.84
625.97	1822.69
626.16	1820.64
626.35	1751.01
626.54	1765.35
626.74	1806.31
626.93	1667.05
627.12	1640.42
627.31	1763.30
627.50	1761.25
627.69	1736.68
627.88	1705.96
628.07	1701.86
628.26	1720.29
628.45	1753.06
628.64	1626.09
628.83	1763.30
629.02	1742.82
629.21	1761.25
629.40	1748.97
629.59	1697.77
629.78	1671.14
629.97	1796.07
630.16	1763.30
630.35	1703.91
630.54	1714.15
630.73	1738.73
630.92	1726.44
631.11	1638.38
631.30	1693.67
631.49	1806.31
631.68	1638.38
631.87	1734.63
632.06	1675.24
632.25	1882.08
632.44	1714.15
632.63	1755.11
632.82	1726.44
633.01	1671.14
633.20	1701.86
633.39	1720.29
633.58	1671.14
633.77	1740.77
633.96	1767.40
634.15	1755.11
634.34	1730.53
634.53	1779.68
634.72	1734.63
634.91	1654.76
635.10	1701.86
635.29	1818.60
635.48	1746.92
635.67	1656.81
635.86	1660.90
636.05	1824.74
636.24	1691.62
636.43	1755.11
636.62	1865.70
636.81	1576.94
637.00	1679.33
637.19	1714.15
637.38	1759.21
637.57	1675.24
637.76	1683.43
637.95	1738.73
638.14	1687.53
638.33	1732.58
638.52	1767.40
638.71	1708.01
638.89	1720.29
639.08	1898.47
639.27	1701.86
639.46	1796.07
639.65	1775.59
639.84	1734.63
640.03	1804.26
640.22	1771.49
640.41	1959.91
640.60	1683.43
640.79	1751.01
640.98	1656.81
641.17	1714.15
641.36	1675.24
641.55	1755.11
641.74	1681.38
641.92	1660.90
642.11	1685.48
642.30	1732.58
642.49	1724.39
642.68	1718.25
642.87	1744.87
643.06	1738.73
643.25	1718.25
643.44	1722.34
643.63	1638.38
643.82	1746.92
644.00	1703.91
644.19	1697.77
644.38	1683.43
644.57	1757.16
644.76	1738.73
644.95	1736.68
645.14	1798.12
645.33	1722.34
645.52	1796.07
645.71	1634.28
645.89	1679.33
646.08	1691.62
646.27	1775.59
646.46	1877.99
646.65	1642.47
646.84	1779.68
647.03	1730.53
647.22	1785.83
647.40	1720.29
647.59	1650.66
647.78	1654.76
647.97	1699.81
648.16	1757.16
648.35	1824.74
648.54	1828.84
648.73	1695.72
648.91	1746.92
649.10	1734.63
649.29	1693.67
649.48	1757.16
649.67	1685.48
649.86	1765.35
650.05	1669.09
650.23	1759.21
650.42	1720.29
650.61	1765.35
650.80	1771.49
650.99	1964.00
651.18	1740.77
651.36	1757.16
651.55	1755.11
651.74	1734.63
651.93	1763.30
652.12	1693.67
652.31	1695.72
652.49	1714.15
652.68	1636.33
652.87	1820.64
653.06	1705.96
653.25	1855.46
653.44	1716.20
653.62	1816.55
653.81	1744.87
654.00	1738.73
654.19	1781.73
654.38	1902.56
654.56	1722.34
654.75	1701.86
654.94	1748.97
655.13	1746.92
655.32	1611.75
655.51	1773.54
655.69	1689.57
655.88	1705.96
656.07	1689.57
656.26	1791.97
656.45	1716.20
656.63	1724.39
656.82	1703.91
657.01	1785.83
657.20	1703.91
657.38	1781.73
657.57	1697.77
657.76	1568.74
657.95	1746.92
658.14	1607.66
658.32	1781.73
658.51	1681.38
658.70	1757.16
658.89	1712.10
659.08	1753.06
659.26	1869.80
659.45	1632.23
659.64	1810.40
659.83	1677.29
660.01	1937.38
660.20	1742.82
660.39	1796.07
660.58	1665.00
660.76	1732.58
660.95	1675.24
661.14	1736.68
661.33	1644.52
661.51	1701.86
661.70	1669.09
661.89	1748.97
662.08	1746.92
662.26	1685.48
662.45	1736.68
662.64	1845.22
662.83	1691.62
663.01	1681.38
663.20	1710.05
663.39	1744.87
663.58	1730.53
663.76	1693.67
663.95	1740.77
664.14	1640.42
664.32	1755.11
664.51	1697.77
664.70	1634.28
664.89	1722.34
665.07	1603.56
665.26	1759.21
665.45	1703.91
665.64	1724.39
665.82	1718.25
666.01	1851.36
666.20	1705.96
666.38	1863.65
666.57	1812.45
666.76	2244.57
666.95	4495.29
667.13	10375.01
667.32	15234.84
667.51	17704.69
667.69	18745.06
667.88	17458.93
668.07	12214.09
668.25	9551.73
668.44	7909.26
668.63	7364.50
668.81	6471.58
669.00	6219.68
669.19	5562.28
669.38	5050.29
669.56	4620.22
669.75	3809.22
669.94	3426.25
670.12	2856.92
670.31	2488.28
670.50	2258.91
670.68	2080.74
670.87	1888.23
671.06	1865.70
671.24	1857.51
671.43	1849.32
671.62	1763.30
671.80	1617.90
671.99	1769.44
672.18	1736.68
672.36	1781.73
672.55	1820.64
672.74	1767.40
672.92	1710.05
673.11	1837.03
673.29	1640.42
673.48	1877.99
673.67	1669.09
673.85	1779.68
674.04	1699.81
674.23	1751.01
674.41	1820.64
674.60	1703.91
674.79	1640.42
674.97	1669.09
675.16	1714.15
675.34	1779.68
675.53	1679.33
675.72	1722.34
675.90	1849.32
676.09	1650.66
676.28	1804.26
676.46	1738.73
676.65	1726.44
676.83	1703.91
677.02	1689.57
677.21	1687.53
677.39	1736.68
677.58	1677.29
677.77	1736.68
677.95	1708.01
678.14	1779.68
678.32	1685.48
678.51	1679.33
678.70	1867.75
678.88	1658.85
679.07	1718.25
679.25	1712.10
679.44	1708.01
679.63	1708.01
679.81	1755.11
680.00	1775.59
680.18	1746.92
680.37	1845.22
680.55	1802.21
680.74	1695.72
680.93	1640.42
681.11	1724.39
681.30	1724.39
681.48	1769.44
681.67	1716.20
681.85	1693.67
682.04	1705.96
682.23	1771.49
682.41	1671.14
682.60	1722.34
682.78	1640.42
682.97	1732.58
683.15	1800.16
683.34	1779.68
683.53	1796.07
683.71	1619.94
683.90	1738.73
684.08	1890.28
684.27	1720.29
684.45	1748.97
684.64	1744.87
684.82	1683.43
685.01	1767.40
685.19	1798.12
685.38	1828.84
685.57	1773.54
685.75	1746.92
685.94	1720.29
686.12	1619.94
686.31	1673.19
686.49	1818.60
686.68	1583.08
686.86	1763.30
687.05	1722.34
687.23	1863.65
687.42	1724.39
687.60	1611.75
687.79	1820.64
687.97	1861.60
688.16	1744.87
688.34	1791.97
688.53	1621.99
688.71	1751.01
688.90	1787.88
689.08	1685.48
689.27	1630.18
689.45	1769.44
689.64	1703.91
689.82	1705.96
690.01	1742.82
690.19	1732.58
690.38	1771.49
690.56	1783.78
690.75	1695.72
690.93	1677.29
691.12	1705.96
691.30	1740.77
691.49	1660.90
691.67	1738.73
691.86	1759.21
692.04	1673.19
692.23	1654.76
692.41	1667.05
692.60	1849.32
692.78	1736.68
692.97	1771.49
693.15	1677.29
693.34	1865.70
693.52	1738.73
693.71	1654.76
693.89	1705.96
694.08	1640.42
694.26	1763.30
694.44	1751.01
694.63	1779.68
694.81	1646.57
695.00	1683.43
695.18	1724.39
695.37	1849.32
695.55	1769.44
695.74	1714.15
695.92	1681.38
696.10	1783.78
696.29	1695.72
696.47	1712.10
696.66	1675.24
696.84	1667.05
697.03	1689.57
697.21	1830.88
697.40	2363.36
697.58	1810.40
697.76	1665.00
697.95	1642.47
698.13	1646.57
698.32	1757.16
698.50	1695.72
698.68	1783.78
698.87	1771.49
699.05	1787.88
699.24	1779.68
699.42	1703.91
699.61	1730.53
699.79	1736.68
699.97	1761.25
700.16	1677.29
700.34	1703.91
700.53	1755.11
700.71	1755.11
700.89	1789.92
701.08	1785.83
701.26	1730.53
701.45	2105.31
701.63	1710.05
701.81	1722.34
702.00	1665.00
702.18	1667.05
702.37	1626.09
702.55	1744.87
702.73	1820.64
702.92	1705.96
703.10	1798.12
703.28	1789.92
703.47	1632.23
703.65	1746.92
703.84	1783.78
704.02	1755.11
704.20	1806.31
704.39	1730.53
704.57	1730.53
704.75	1814.50
704.94	1732.58
705.12	1732.58
705.30	1828.84
705.49	2242.53
705.67	4442.04
705.86	9541.49
706.04	12468.03
706.22	14329.64
706.41	15036.19
706.59	13434.68
706.77	9404.27
706.96	7305.10
707.14	6475.68
707.32	5959.59
707.51	5564.33
707.69	4886.45
707.87	4132.80
708.06	3532.75
708.24	2850.77
708.42	2422.75
708.61	2326.49
708.79	1892.32
708.97	1832.93
709.16	1875.94
709.34	1761.25
709.52	1736.68
709.71	1732.58
709.89	1759.21
710.07	1675.24
710.26	1679.33
710.44	1683.43
710.62	1816.55
710.80	1708.01
710.99	1724.39
711.17	1841.12
711.35	1634.28
711.54	1673.19
711.72	1748.97
711.90	1722.34
712.09	1744.87
712.27	1662.95
712.45	1781.73
712.63	1742.82
712.82	1716.20
713.00	1665.00
713.18	1734.63
713.37	1740.77
713.55	1847.27
713.73	1806.31
713.91	1779.68
714.10	1691.62
714.28	1693.67
714.46	1796.07
714.65	1697.77
714.83	1748.97
715.01	1779.68
715.19	1730.53
715.38	1691.62
715.56	1777.64
715.74	1701.86
715.92	1716.20
716.11	1732.58
716.29	1679.33
716.47	1767.40
716.65	1677.29
716.84	1654.76
717.02	1759.21
717.20	1632.23
717.38	1703.91
717.57	1828.84
717.75	1726.44
717.93	1673.19
718.11	1769.44
718.30	1654.76
718.48	1685.48
718.66	1753.06
718.84	1767.40
719.03	1728.49
719.21	1619.94
719.39	1847.27
719.57	1804.26
719.75	1773.54
719.94	1626.09
720.12	1740.77
720.30	1730.53
720.48	1775.59
720.67	1640.42
720.85	1626.09
721.03	1646.57
721.21	1675.24
721.39	1853.41
721.58	1736.68
721.76	1730.53
721.94	1806.31
722.12	1740.77
722.30	1775.59
722.49	1722.34
722.67	1697.77
722.85	1667.05
723.03	1578.98
723.21	1691.62
723.40	1685.48
723.58	1751.01
723.76	1744.87
723.94	1685.48
724.12	1724.39
724.30	1812.45
724.49	1775.59
724.67	1708.01
724.85	1755.11
725.03	1640.42
725.21	1771.49
725.40	1779.68
725.58	1636.33
725.76	1775.59
725.94	1734.63
726.12	1677.29
726.30	1728.49
726.49	1724.39
726.67	1656.81
726.85	1789.92
727.03	1783.78
727.21	2158.56
727.39	2967.51
727.57	3833.80
727.76	4159.42
727.94	4515.77
728.12	4356.03
728.30	3620.81
728.48	2938.84
728.66	2721.75
728.84	2574.30
729.03	2332.64
729.21	2185.18
729.39	1925.09
729.57	1867.75
729.75	1824.74
729.93	1865.70
730.11	1755.11
730.30	1697.77
730.48	1656.81
730.66	1724.39
730.84	1769.44
731.02	1787.88
731.20	1687.53
731.38	1728.49
731.56	1662.95
731.74	1589.22
731.93	1746.92
732.11	1759.21
732.29	1703.91
732.47	1730.53
732.65	1712.10
732.83	1761.25
733.01	1773.54
733.19	1671.14
733.37	1753.06
733.56	1755.11
733.74	1748.97
733.92	1783.78
734.10	1710.05
734.28	1677.29
734.46	1652.71
734.64	1681.38
734.82	1673.19
735.00	1640.42
735.18	1662.95
735.36	1716.20
735.54	1658.85
735.73	1796.07
735.91	1714.15
736.09	1757.16
736.27	1785.83
736.45	1757.16
736.63	1638.38
736.81	1617.90
736.99	1732.58
737.17	1796.07
737.35	1640.42
737.53	1814.50
737.71	1693.67
737.89	1810.40
738.07	1720.29
738.25	1675.24
738.43	1609.70
738.61	1734.63
738.80	1607.66
738.98	1710.05
739.16	1650.66
739.34	1689.57
739.52	1705.96
739.70	1697.77
739.88	1781.73
740.06	1742.82
740.24	1601.51
740.42	1736.68
740.60	1568.74
740.78	1675.24
740.96	1615.85
741.14	1699.81
741.32	1746.92
741.50	1658.85
741.68	1880.04
741.86	1767.40
742.04	1638.38
742.22	1644.52
742.40	1714.15
742.58	1724.39
742.76	1654.76
742.94	1804.26
743.12	1638.38
743.30	1718.25
743.48	1818.60
743.66	1646.57
743.84	1783.78
744.02	1683.43
744.20	1675.24
744.38	1652.71
744.56	1662.95
744.74	1757.16
744.92	1697.77
745.10	1806.31
745.28	1732.58
745.46	1785.83
745.64	1697.77
745.82	1820.64
746.00	1736.68
746.18	1730.53
746.36	1730.53
746.54	1744.87
746.72	1675.24
746.90	1652.71
747.08	1781.73
747.26	1710.05
747.44	1767.40
747.62	1789.92
747.80	1773.54
747.98	1759.21
748.15	1642.47
748.33	1839.08
748.51	1695.72
748.69	1794.02
748.87	1720.29
749.05	1714.15
749.23	1695.72
749.41	1728.49
749.59	1689.57
749.77	1703.91
749.95	1746.92
750.13	1722.34
750.31	1730.53
750.49	1712.10
750.67	1837.03
750.85	1818.60
751.03	1716.20
751.20	1882.08
751.38	1728.49
751.56	1705.96
751.74	1738.73
751.92	1660.90
752.10	1691.62
752.28	1779.68
752.46	1599.46
752.64	1681.38
752.82	1665.00
753.00	1781.73
753.18	1705.96
753.35	1640.42
753.53	1601.51
753.71	1718.25
753.89	1679.33
754.07	1781.73
754.25	1757.16
754.43	1746.92
754.61	1599.46
754.79	1738.73
754.97	1714.15
755.14	1726.44
755.32	1658.85
755.50	1744.87
755.68	1789.92
755.86	1607.66
756.04	1652.71
756.22	1640.42
756.40	1783.78
756.57	1810.40
756.75	1693.67
756.93	1816.55
757.11	1777.64
757.29	1589.22
757.47	1613.80
757.65	1603.56
757.82	1595.37
758.00	1697.77
758.18	1722.34
758.36	1624.04
758.54	1783.78
758.72	1654.76
758.90	1763.30
759.07	1720.29
759.25	1654.76
759.43	1755.11
759.61	1617.90
759.79	2248.67
759.97	1738.73
760.15	1660.90
760.32	1724.39
760.50	1779.68
760.68	1853.41
760.86	1658.85
761.04	1708.01
761.22	1732.58
761.39	1722.34
761.57	1773.54
761.75	1703.91
761.93	1765.35
762.11	1675.24
762.28	1744.87
762.46	1626.09
762.64	1775.59
762.82	1617.90
763.00	1697.77
763.18	1832.93
763.35	1587.18
763.53	1820.64
763.71	1720.29
763.89	1677.29
764.07	1798.12
764.24	1699.81
764.42	1767.40
764.60	1736.68
764.78	1722.34
764.96	1742.82
765.13	1834.98
765.31	1673.19
765.49	1699.81
765.67	1673.19
765.84	1677.29
766.02	1671.14
766.20	1673.19
766.38	1753.06
766.56	1708.01
766.73	1744.87
766.91	1605.61
767.09	1732.58
767.27	1730.53
767.44	1628.14
767.62	1732.58
767.80	1738.73
767.98	1662.95
768.15	1710.05
768.33	1808.36
768.51	1757.16
768.69	1716.20
768.87	1701.86
769.04	1703.91
769.22	1773.54
769.40	1742.82
769.58	1894.37
769.75	1738.73
769.93	1834.98
770.11	1634.28
770.28	1669.09
770.46	1640.42
770.64	1818.60
770.82	1718.25
770.99	1675.24
771.17	1718.25
771.35	1732.58
771.53	1736.68
771.70	1748.97
771.88	1740.77
772.06	1695.72
772.23	1673.19
772.41	1787.88
772.59	1742.82
772.77	1673.19
772.94	1697.77
773.12	1697.77
773.30	1621.99
773.47	1785.83
773.65	1679.33
773.83	1861.60
774.01	1761.25
774.18	1640.42
774.36	1724.39
774.54	1634.28
774.71	1746.92
774.89	1650.66
775.07	1673.19
775.24	1738.73
775.42	1644.52
775.60	1884.13
775.78	1695.72
775.95	1673.19
776.13	1624.04
776.31	1611.75
776.48	1705.96
776.66	1796.07
776.84	1671.14
777.01	1591.27
777.19	1669.09
777.37	1701.86
777.54	1726.44
777.72	1791.97
777.90	1812.45
778.07	1656.81
778.25	1916.90
778.43	1791.97
778.60	1648.61
778.78	1708.01
778.96	1722.34
779.13	1619.94
779.31	1759.21
779.49	1718.25
779.66	1738.73
779.84	1687.53
780.01	1716.20
780.19	1624.04
780.37	1816.55
780.54	1794.02
780.72	1726.44
780.90	1681.38
781.07	1701.86
781.25	1677.29
781.43	1732.58
781.60	1624.04
781.78	1775.59
781.95	1705.96
782.13	1662.95
782.31	1689.57
782.48	1673.19
782.66	1767.40
782.83	1789.92
783.01	1732.58
783.19	1740.77
783.36	1757.16
783.54	1701.86
783.72	1779.68
783.89	1679.33
784.07	1736.68
784.24	1718.25
784.42	1851.36
784.60	1742.82
784.77	1697.77
784.95	1628.14
785.12	1691.62
785.30	1746.92
785.47	1701.86
785.65	1738.73
785.83	1728.49
786.00	1632.23
786.18	1753.06
786.35	1644.52
786.53	1720.29
786.71	1732.58
786.88	1785.83
787.06	1710.05
787.23	1669.09
787.41	1607.66
787.58	1724.39
787.76	1748.97
787.94	1753.06
788.11	1681.38
788.29	1644.52
788.46	1724.39
788.64	1681.38
788.81	1742.82
788.99	1665.00
789.16	1611.75
789.34	1656.81
789.52	1697.77
789.69	1710.05
789.87	1583.08
790.04	1652.71
790.22	1671.14
790.39	1787.88
790.57	1624.04
790.74	1646.57
790.92	1761.25
791.09	1619.94
791.27	1683.43
791.44	1832.93
791.62	1675.24
791.79	1732.58
791.97	1742.82
792.15	1925.09
792.32	1732.58
792.50	1732.58
792.67	1796.07
792.85	1851.36
793.02	1662.95
793.20	1742.82
793.37	1583.08
793.55	1683.43
793.72	1656.81
793.90	1800.16
794.07	1714.15
794.25	1662.95
794.42	1640.42
794.60	1693.67
794.77	1742.82
794.95	1830.88
795.12	1771.49
795.30	1697.77
795.47	1640.42
795.65	1828.84
795.82	1763.30
796.00	1658.85
796.17	1748.97
796.34	1808.36
796.52	1658.85
796.69	1837.03
796.87	1681.38
797.04	1728.49
797.22	1781.73
797.39	1714.15
797.57	1751.01
797.74	1640.42
797.92	1732.58
798.09	1619.94
798.27	1705.96
798.44	1724.39
798.62	1718.25
798.79	1761.25
798.96	1714.15
799.14	1730.53
799.31	1828.84
799.49	1679.33
799.66	1714.15
799.84	1716.20
800.01	1726.44
800.19	1740.77
800.36	1669.09
800.53	1728.49
800.71	1697.77
800.88	1796.07
801.06	1710.05
801.23	1656.81
801.41	1730.53
801.58	1652.71
801.75	1644.52
801.93	1777.64
802.10	1751.01
802.28	1671.14
802.45	1699.81
802.63	1730.53
802.80	1759.21
802.97	1656.81
803.15	1687.53
803.32	1691.62
803.50	1669.09
803.67	1714.15
803.84	1615.85
804.02	1687.53
804.19	1632.23
804.37	1572.84
804.54	1654.76
804.71	1640.42
804.89	1767.40
805.06	1654.76
805.24	1642.47
805.41	1648.61
805.58	1667.05
805.76	1894.37
805.93	1771.49
806.10	1738.73
806.28	1757.16
806.45	1736.68
806.63	1732.58
806.80	1839.08
806.97	1691.62
807.15	1701.86
807.32	1763.30
807.49	1726.44
807.67	1656.81
807.84	1665.00
808.01	1617.90
808.19	1884.13
808.36	1810.40
808.54	1701.86
808.71	1710.05
808.88	1738.73
809.06	1714.15
809.23	1777.64
809.40	1695.72
809.58	1757.16
809.75	1665.00
809.92	1654.76
810.10	1787.88
810.27	1638.38
810.44	1693.67
810.62	1730.53
810.79	1712.10
810.96	1732.58
811.14	1703.91
811.31	1718.25
811.48	1726.44
811.66	1705.96
811.83	1869.80
812.00	1726.44
812.18	1824.74
812.35	1812.45
812.52	1710.05
812.69	1665.00
812.87	1753.06
813.04	1705.96
813.21	1708.01
813.39	1691.62
813.56	1673.19
813.73	1755.11
813.91	1714.15
814.08	1718.25
814.25	1724.39
814.42	1572.84
814.60	1730.53
814.77	1753.06
814.94	1722.34
815.12	1648.61
815.29	1775.59
815.46	1648.61
815.63	1767.40
815.81	1724.39
815.98	1708.01
816.15	1773.54
816.33	1742.82
816.50	1724.39
816.67	1759.21
816.84	1665.00
817.02	1652.71
817.19	1714.15
817.36	1746.92
817.53	1695.72
817.71	1708.01
817.88	1755.11
818.05	1693.67
818.22	1705.96
818.40	1892.32
818.57	1714.15
818.74	1787.88
818.91	1705.96
819.09	1763.30
819.26	1720.29
819.43	1697.77
819.60	1687.53
819.78	1794.02
819.95	1869.80
820.12	1665.00
820.29	1806.31
820.47	1765.35
820.64	1705.96
820.81	1644.52
820.98	1701.86
821.15	1677.29
821.33	1740.77
821.50	1652.71
821.67	1769.44
821.84	1648.61
822.02	1761.25
822.19	1740.77
822.36	1703.91
822.53	1714.15
822.70	1632.23
822.88	1712.10
823.05	1814.50
823.22	1683.43
823.39	1689.57
823.56	1710.05
823.74	1755.11
823.91	1644.52
824.08	1593.32
824.25	1634.28
824.42	1783.78
824.60	1638.38
824.77	1720.29
824.94	1644.52
825.11	1734.63
825.28	1687.53
825.45	1710.05
825.63	1710.05
825.80	1705.96
825.97	1767.40
826.14	1779.68
826.31	1589.22
826.48	1687.53
826.66	1697.77
826.83	1691.62
827.00	1689.57
827.17	1615.85
827.34	1736.68
827.51	1722.34
827.69	1632.23
827.86	1691.62
828.03	1738.73
828.20	1730.53
828.37	1693.67
828.54	1767.40
828.71	1705.96
828.89	1751.01
829.06	1796.07
829.23	1775.59
829.40	1628.14
829.57	1642.47
829.74	1748.97
829.91	1611.75
830.09	1638.38
830.26	1779.68
830.43	1767.40
830.60	1693.67
830.77	1695.72
830.94	1906.66
831.11	1855.46
831.28	1691.62
831.46	1687.53
831.63	1660.90
831.80	1761.25
831.97	1685.48
832.14	1654.76
832.31	1744.87
832.48	1751.01
832.65	1748.97
832.82	1730.53
832.99	1742.82
833.17	1675.24
833.34	1734.63
833.51	1726.44
833.68	1595.37
833.85	1746.92
834.02	1671.14
834.19	1652.71
834.36	1656.81
834.53	1740.77
834.70	1755.11
834.87	1769.44
835.04	1642.47
835.22	1632.23
835.39	1742.82
835.56	1679.33
835.73	1708.01
835.90	1802.21
836.07	1675.24
836.24	1771.49
836.41	1675.24
836.58	1730.53
836.75	1773.54
836.92	1697.77
837.09	1673.19
837.26	1742.82
837.43	1755.11
837.60	1701.86
837.77	1755.11
837.94	1660.90
838.12	1798.12
838.29	1679.33
838.46	1570.79
838.63	1675.24
838.80	1808.36
838.97	1669.09
839.14	1783.78
839.31	1671.14
839.48	1755.11
839.65	1705.96
839.82	1763.30
839.99	1695.72
840.16	1763.30
840.33	1665.00
840.50	1769.44
840.67	1714.15
840.84	1542.12
841.01	1710.05
841.18	1671.14
841.35	1746.92
841.52	1734.63
841.69	1841.12
841.86	1789.92
842.03	1722.34
842.20	1751.01
842.37	1771.49
842.54	1665.00
842.71	1751.01
842.88	1589.22
843.05	1746.92
843.22	1689.57
843.39	1728.49
843.56	1714.15
843.73	1755.11
843.90	1720.29
844.07	1701.86
844.24	1763.30
844.41	1779.68
844.58	1720.29
844.75	1660.90
844.92	1732.58
845.09	1773.54
845.26	1716.20
845.43	1595.37
845.60	1679.33
845.77	1757.16
845.94	1779.68
846.10	1710.05
846.27	1683.43
846.44	1671.14
846.61	1683.43
846.78	1740.77
846.95	1798.12
847.12	1646.57
847.29	1763.30
847.46	1634.28
847.63	1669.09
847.80	1634.28
847.97	1728.49
848.14	1779.68
848.31	1662.95
848.48	1658.85
848.65	1689.57
848.82	1677.29
848.98	1892.32
849.15	1753.06
849.32	1837.03
849.49	1722.34
849.66	1646.57
849.83	1662.95
850.00	1638.38
850.17	1763.30
850.34	1693.67
850.51	1705.96
850.68	1736.68
850.85	1718.25
851.01	1705.96
851.18	1701.86
851.35	1673.19
851.52	1693.67
851.69	1773.54
851.86	1626.09
852.03	1695.72
852.20	1722.34
852.37	1673.19
852.53	1591.27
852.70	1636.33
852.87	1710.05
853.04	1789.92
853.21	1697.77
853.38	1765.35
853.55	1853.41
853.72	1714.15
853.89	1712.10
854.05	1642.47
854.22	1654.76
854.39	1662.95
854.56	1732.58
854.73	1800.16
854.90	1658.85
855.07	1699.81
855.23	1662.95
855.40	1675.24
855.57	1636.33
855.74	1640.42
855.91	1871.84
856.08	1619.94
856.25	1624.04
856.41	1656.81
856.58	1675.24
856.75	1746.92
856.92	1662.95
857.09	1808.36
857.26	1636.33
857.42	1718.25
857.59	1683.43
857.76	1665.00
857.93	1808.36
858.10	1699.81
858.27	1613.80
858.43	1775.59
858.60	1679.33
858.77	1624.04
858.94	1671.14
859.11	1767.40
859.27	1710.05
859.44	1722.34
859.61	1824.74
859.78	1703.91
859.95	1679.33
860.12	1710.05
860.28	1791.97
860.45	1798.12
860.62	1681.38
860.79	1740.77
860.95	1785.83
861.12	1642.47
861.29	1673.19
861.46	1703.91
861.63	1699.81
861.79	1730.53
861.96	1587.18
862.13	1671.14
862.30	1689.57
862.47	1710.05
862.63	1724.39
862.80	1740.77
862.97	1652.71
863.14	1773.54
863.30	1771.49
863.47	1665.00
863.64	1834.98
863.81	1648.61
863.97	1710.05
864.14	1701.86
864.31	1712.10
864.48	1822.69
864.65	1626.09
864.81	1718.25
864.98	1705.96
865.15	1730.53
865.32	1753.06
865.48	1761.25
865.65	1789.92
865.82	1630.18
865.98	1703.91
866.15	1759.21
866.32	1691.62
866.49	1708.01
866.65	1765.35
866.82	1761.25
866.99	1742.82
867.16	1689.57
867.32	1726.44
867.49	1658.85
867.66	1681.38
867.83	1671.14
867.99	1636.33
868.16	1679.33
868.33	1701.86
868.49	1734.63
868.66	1679.33
868.83	1783.78
868.99	1656.81
869.16	1697.77
869.33	1818.60
869.50	1691.62
869.66	1691.62
869.83	1767.40
870.00	1693.67
870.16	1812.45
870.33	1671.14
870.50	1703.91
870.66	1722.34
870.83	1798.12
871.00	1671.14
871.17	1775.59
871.33	1759.21
871.50	1626.09
871.67	1734.63
871.83	1685.48
872.00	1830.88
872.17	1658.85
872.33	1789.92
872.50	1802.21
872.67	1654.76
872.83	1636.33
873.00	1701.86
873.17	1753.06
873.33	1728.49
873.50	1800.16
873.67	1691.62
873.83	1644.52
874.00	1634.28
874.16	1763.30
874.33	1705.96
874.50	1683.43
874.66	1812.45
874.83	1732.58
875.00	1742.82
875.16	1759.21
875.33	1744.87
875.50	1603.56
875.66	1673.19
875.83	1724.39
875.99	1761.25
876.16	1660.90
876.33	1638.38
876.49	1689.57
876.66	1779.68
876.83	1755.11
876.99	1667.05
877.16	1662.95
877.32	1654.76
877.49	1681.38
877.66	1726.44
877.82	1816.55
877.99	1728.49
878.15	1681.38
878.32	1695.72
878.49	1640.42
878.65	1671.14
878.82	1765.35
878.98	1685.48
879.15	1773.54
879.32	1724.39
879.48	1722.34
879.65	1685.48
879.81	1667.05
879.98	1621.99
880.15	1665.00
880.31	1759.21
880.48	1632.23
880.64	1701.86
880.81	1679.33
880.97	1839.08
881.14	1800.16
881.31	1658.85
881.47	1738.73
881.64	1652.71
881.80	1658.85
881.97	1722.34
882.13	1722.34
882.30	1695.72
882.47	1646.57
882.63	1738.73
882.80	1673.19
882.96	1685.48
883.13	1738.73
883.29	1796.07
883.46	1730.53
883.62	1773.54
883.79	1746.92
883.95	1796.07
884.12	1693.67
884.29	1839.08
884.45	1708.01
884.62	1806.31
884.78	1601.51
884.95	1812.45
885.11	1660.90
885.28	1763.30
885.44	1712.10
885.61	1794.02
885.77	1806.31
885.94	1650.66
886.10	1665.00
886.27	1767.40
886.43	1722.34
886.60	1710.05
886.76	1710.05
886.93	1710.05
887.09	1701.86
887.26	1640.42
887.42	1654.76
887.59	1730.53
887.75	1767.40
887.92	1787.88
888.08	1679.33
888.25	1828.84
888.41	1839.08
888.58	1726.44
888.74	1650.66
888.91	1726.44
>>>>>End Processed Spectral Data<<<<<
