SpectraSuite Data File
++++++++++++++++++++++++++++++++++++
Date: Mon Jun 06 13:15:37 CEST 2016
User: root
Dark Spectrum Present: No
Reference Spectrum Present: No
Number of Sampled Component Spectra: 1
Spectrometers: USB4C02835
Integration Time (usec): 100000 (USB4C02835)
Spectra Averaged: 1 (USB4C02835)
Boxcar Smoothing: 0 (USB4C02835)
Correct for Electrical Dark: No (USB4C02835)
Strobe/Lamp Enabled: No (USB4C02835)
Correct for Detector Non-linearity: No (USB4C02835)
Correct for Stray Light: No (USB4C02835)
Number of Pixels in Processed Spectrum: 3648
>>>>>Begin Processed Spectral Data<<<<<
177.47	1470.44
177.69	1470.44
177.91	1470.44
178.13	1556.46
178.36	1443.82
178.58	1626.09
178.80	1748.97
179.02	1621.99
179.24	1640.42
179.46	1636.33
179.68	1722.34
179.90	1730.53
180.13	1712.10
180.35	1724.39
180.57	1660.90
180.79	1796.07
181.01	1673.19
181.23	1734.63
181.45	1775.59
181.67	1693.67
181.90	1740.77
182.12	1650.66
182.34	1556.46
182.56	1767.40
182.78	1779.68
183.00	1699.81
183.22	1691.62
183.44	1621.99
183.66	1771.49
183.89	1781.73
184.11	1640.42
184.33	1699.81
184.55	1691.62
184.77	1681.38
184.99	1744.87
185.21	1652.71
185.43	1832.93
185.65	1677.29
185.87	1757.16
186.10	1808.36
186.32	1814.50
186.54	1665.00
186.76	1726.44
186.98	1701.86
187.20	1763.30
187.42	1628.14
187.64	1642.47
187.86	1751.01
188.08	1701.86
188.30	1638.38
188.52	1662.95
188.75	1830.88
188.97	1798.12
189.19	1685.48
189.41	1732.58
189.63	1646.57
189.85	1742.82
190.07	1742.82
190.29	1640.42
190.51	1734.63
190.73	1636.33
190.95	1728.49
191.17	1714.15
191.39	1681.38
191.61	1675.24
191.84	1660.90
192.06	1681.38
192.28	1626.09
192.50	1837.03
192.72	1759.21
192.94	1644.52
193.16	1767.40
193.38	1708.01
193.60	1624.04
193.82	1718.25
194.04	1753.06
194.26	1769.44
194.48	1667.05
194.70	1683.43
194.92	1683.43
195.14	1693.67
195.36	1726.44
195.58	1673.19
195.80	1730.53
196.02	1632.23
196.24	1730.53
196.46	1771.49
196.69	1650.66
196.91	1787.88
197.13	1730.53
197.35	1648.61
197.57	1773.54
197.79	1734.63
198.01	1701.86
198.23	1697.77
198.45	1710.05
198.67	1648.61
198.89	1638.38
199.11	1730.53
199.33	1667.05
199.55	1587.18
199.77	1720.29
199.99	1748.97
200.21	1585.13
200.43	1720.29
200.65	1574.89
200.87	1658.85
201.09	1734.63
201.31	1710.05
201.53	1703.91
201.75	1675.24
201.97	1689.57
202.19	1681.38
202.41	1744.87
202.63	1845.22
202.85	1748.97
203.07	1806.31
203.29	1601.51
203.51	1697.77
203.73	1673.19
203.95	1822.69
204.17	1730.53
204.39	1728.49
204.61	1691.62
204.83	1695.72
205.05	1701.86
205.27	1712.10
205.49	1867.75
205.71	1753.06
205.93	1611.75
206.15	1693.67
206.37	1736.68
206.59	1705.96
206.81	1638.38
207.03	1599.46
207.25	1654.76
207.47	1722.34
207.69	1787.88
207.91	1757.16
208.13	1771.49
208.34	1644.52
208.56	1660.90
208.78	1714.15
209.00	1689.57
209.22	1632.23
209.44	1677.29
209.66	1660.90
209.88	1636.33
210.10	1693.67
210.32	1656.81
210.54	1779.68
210.76	1710.05
210.98	1730.53
211.20	1554.41
211.42	1693.67
211.64	1773.54
211.86	1755.11
212.08	1703.91
212.30	1705.96
212.52	1646.57
212.74	1648.61
212.96	1755.11
213.17	1763.30
213.39	1736.68
213.61	1779.68
213.83	1753.06
214.05	1574.89
214.27	1679.33
214.49	1632.23
214.71	1712.10
214.93	1767.40
215.15	1689.57
215.37	1701.86
215.59	1583.08
215.81	1644.52
216.03	1738.73
216.24	1671.14
216.46	1693.67
216.68	1708.01
216.90	1708.01
217.12	1734.63
217.34	1669.09
217.56	1746.92
217.78	1751.01
218.00	1714.15
218.22	1619.94
218.44	1712.10
218.66	1695.72
218.87	1734.63
219.09	1677.29
219.31	1685.48
219.53	1679.33
219.75	1665.00
219.97	1701.86
220.19	1765.35
220.41	1724.39
220.63	1779.68
220.85	1748.97
221.06	1708.01
221.28	1742.82
221.50	1769.44
221.72	1660.90
221.94	1714.15
222.16	1708.01
222.38	1775.59
222.60	1751.01
222.82	1701.86
223.03	1695.72
223.25	1667.05
223.47	1726.44
223.69	1853.41
223.91	1771.49
224.13	1689.57
224.35	1667.05
224.57	1718.25
224.78	1654.76
225.00	1669.09
225.22	1705.96
225.44	1785.83
225.66	1626.09
225.88	1652.71
226.10	1779.68
226.32	1757.16
226.53	1863.65
226.75	1746.92
226.97	1636.33
227.19	1697.77
227.41	1650.66
227.63	1646.57
227.85	1574.89
228.06	1755.11
228.28	1834.98
228.50	1714.15
228.72	1660.90
228.94	1648.61
229.16	1644.52
229.37	1675.24
229.59	1695.72
229.81	1818.60
230.03	1689.57
230.25	1677.29
230.47	1658.85
230.69	1632.23
230.90	1734.63
231.12	1689.57
231.34	1716.20
231.56	1740.77
231.78	1679.33
232.00	1683.43
232.21	1662.95
232.43	1656.81
232.65	1607.66
232.87	1730.53
233.09	1652.71
233.30	1718.25
233.52	1734.63
233.74	1650.66
233.96	1722.34
234.18	1642.47
234.40	1726.44
234.61	1826.79
234.83	1632.23
235.05	1609.70
235.27	1867.75
235.49	1761.25
235.70	1687.53
235.92	1683.43
236.14	1775.59
236.36	1748.97
236.58	1691.62
236.79	1785.83
237.01	1660.90
237.23	1691.62
237.45	1773.54
237.67	1632.23
237.88	1691.62
238.10	1791.97
238.32	1677.29
238.54	1617.90
238.76	1705.96
238.97	1601.51
239.19	1634.28
239.41	1751.01
239.63	1763.30
239.85	1621.99
240.06	1781.73
240.28	1609.70
240.50	1703.91
240.72	1730.53
240.93	1728.49
241.15	1791.97
241.37	1699.81
241.59	1800.16
241.81	1718.25
242.02	1660.90
242.24	1812.45
242.46	1683.43
242.68	1675.24
242.89	1761.25
243.11	1802.21
243.33	1679.33
243.55	1740.77
243.76	1691.62
243.98	1607.66
244.20	1720.29
244.42	1662.95
244.64	1675.24
244.85	1570.79
245.07	1665.00
245.29	1738.73
245.51	1673.19
245.72	1701.86
245.94	1800.16
246.16	1697.77
246.38	1781.73
246.59	1621.99
246.81	1673.19
247.03	1656.81
247.24	1667.05
247.46	1683.43
247.68	1773.54
247.90	1695.72
248.11	1679.33
248.33	1724.39
248.55	1671.14
248.77	1726.44
248.98	1773.54
249.20	1800.16
249.42	1705.96
249.64	1720.29
249.85	1658.85
250.07	1611.75
250.29	1667.05
250.50	1814.50
250.72	1574.89
250.94	1708.01
251.16	1814.50
251.37	1810.40
251.59	1660.90
251.81	1630.18
252.02	1736.68
252.24	1693.67
252.46	1771.49
252.68	1597.42
252.89	1632.23
253.11	1611.75
253.33	1787.88
253.54	1755.11
253.76	1613.80
253.98	1656.81
254.20	1650.66
254.41	1611.75
254.63	1705.96
254.85	1624.04
255.06	1601.51
255.28	1728.49
255.50	1652.71
255.71	1646.57
255.93	1574.89
256.15	1675.24
256.36	1798.12
256.58	1662.95
256.80	1638.38
257.02	1574.89
257.23	1605.61
257.45	1667.05
257.67	1708.01
257.88	1583.08
258.10	1644.52
258.32	1712.10
258.53	1796.07
258.75	1755.11
258.97	1675.24
259.18	1650.66
259.40	1665.00
259.62	1843.17
259.83	1751.01
260.05	1693.67
260.27	1959.91
260.48	1748.97
260.70	1568.74
260.92	1775.59
261.13	1757.16
261.35	1789.92
261.57	1681.38
261.78	1634.28
262.00	1699.81
262.22	1767.40
262.43	1712.10
262.65	1699.81
262.86	1691.62
263.08	1886.18
263.30	1712.10
263.51	1662.95
263.73	1687.53
263.95	1802.21
264.16	1654.76
264.38	1630.18
264.60	1646.57
264.81	1701.86
265.03	1769.44
265.25	1742.82
265.46	1671.14
265.68	1777.64
265.89	1771.49
266.11	1634.28
266.33	1767.40
266.54	1769.44
266.76	1767.40
266.98	1716.20
267.19	1804.26
267.41	1708.01
267.62	1732.58
267.84	1636.33
268.06	1744.87
268.27	1642.47
268.49	1769.44
268.70	1757.16
268.92	1683.43
269.14	1646.57
269.35	1572.84
269.57	1660.90
269.79	1710.05
270.00	1628.14
270.22	1740.77
270.43	1624.04
270.65	1591.27
270.87	1748.97
271.08	1685.48
271.30	1718.25
271.51	1755.11
271.73	1718.25
271.95	1798.12
272.16	1724.39
272.38	1720.29
272.59	1648.61
272.81	1705.96
273.02	1691.62
273.24	1654.76
273.46	1767.40
273.67	1550.31
273.89	1632.23
274.10	1638.38
274.32	1746.92
274.54	1615.85
274.75	1751.01
274.97	1652.71
275.18	1746.92
275.40	1740.77
275.61	1701.86
275.83	1675.24
276.05	1630.18
276.26	1689.57
276.48	1742.82
276.69	1626.09
276.91	1667.05
277.12	1781.73
277.34	1654.76
277.55	1730.53
277.77	1726.44
277.99	1671.14
278.20	1562.60
278.42	1669.09
278.63	1701.86
278.85	1648.61
279.06	1619.94
279.28	1724.39
279.49	1732.58
279.71	1757.16
279.93	1671.14
280.14	1695.72
280.36	1607.66
280.57	1683.43
280.79	1673.19
281.00	1693.67
281.22	1736.68
281.43	1757.16
281.65	1587.18
281.86	1677.29
282.08	1697.77
282.29	1918.95
282.51	1693.67
282.73	1687.53
282.94	1624.04
283.16	1650.66
283.37	1804.26
283.59	1626.09
283.80	1732.58
284.02	1634.28
284.23	1791.97
284.45	1679.33
284.66	1601.51
284.88	1685.48
285.09	1734.63
285.31	1708.01
285.52	1736.68
285.74	1630.18
285.95	1669.09
286.17	1673.19
286.38	1746.92
286.60	1609.70
286.81	1701.86
287.03	1722.34
287.24	1667.05
287.46	1708.01
287.67	1638.38
287.89	1787.88
288.10	1783.78
288.32	1748.97
288.53	1828.84
288.75	1695.72
288.96	1734.63
289.18	1658.85
289.39	1671.14
289.61	1751.01
289.82	1828.84
290.04	1746.92
290.25	1693.67
290.47	1683.43
290.68	1716.20
290.90	1742.82
291.11	1613.80
291.33	1710.05
291.54	1638.38
291.76	1667.05
291.97	1730.53
292.18	1654.76
292.40	1736.68
292.61	1710.05
292.83	1894.37
293.04	1796.07
293.26	1675.24
293.47	1744.87
293.69	1634.28
293.90	1691.62
294.12	1796.07
294.33	1683.43
294.55	1710.05
294.76	1738.73
294.97	1712.10
295.19	1884.13
295.40	1660.90
295.62	1771.49
295.83	1656.81
296.05	1705.96
296.26	1751.01
296.48	1689.57
296.69	1763.30
296.90	1648.61
297.12	1753.06
297.33	1773.54
297.55	1736.68
297.76	1687.53
297.98	1765.35
298.19	1699.81
298.41	1724.39
298.62	1689.57
298.83	1808.36
299.05	1744.87
299.26	1712.10
299.48	1656.81
299.69	1755.11
299.90	1681.38
300.12	1638.38
300.33	1712.10
300.55	1710.05
300.76	1632.23
300.98	1617.90
301.19	1691.62
301.40	1681.38
301.62	1609.70
301.83	1697.77
302.05	1619.94
302.26	1728.49
302.47	1677.29
302.69	1712.10
302.90	1718.25
303.12	1634.28
303.33	1796.07
303.54	1937.38
303.76	1632.23
303.97	1705.96
304.19	1851.36
304.40	1665.00
304.61	1746.92
304.83	1783.78
305.04	1806.31
305.26	1708.01
305.47	1677.29
305.68	1726.44
305.90	1669.09
306.11	1683.43
306.33	1701.86
306.54	1642.47
306.75	1550.31
306.97	1591.27
307.18	1669.09
307.39	1597.42
307.61	1755.11
307.82	1712.10
308.04	1759.21
308.25	1648.61
308.46	1705.96
308.68	1718.25
308.89	1701.86
309.10	1746.92
309.32	1701.86
309.53	1714.15
309.74	1658.85
309.96	1748.97
310.17	1714.15
310.39	1689.57
310.60	1775.59
310.81	1683.43
311.03	1751.01
311.24	1710.05
311.45	1693.67
311.67	1873.89
311.88	1697.77
312.09	1658.85
312.31	1656.81
312.52	1656.81
312.73	1693.67
312.95	1636.33
313.16	1705.96
313.37	1783.78
313.59	1726.44
313.80	1689.57
314.01	1832.93
314.23	1603.56
314.44	1609.70
314.65	1652.71
314.87	1656.81
315.08	1697.77
315.29	1687.53
315.51	1638.38
315.72	1667.05
315.93	1769.44
316.15	1746.92
316.36	1708.01
316.57	1708.01
316.79	1734.63
317.00	1673.19
317.21	1761.25
317.43	1658.85
317.64	1662.95
317.85	1634.28
318.07	1673.19
318.28	1714.15
318.49	1822.69
318.70	1912.80
318.92	1810.40
319.13	1798.12
319.34	1820.64
319.56	1773.54
319.77	1867.75
319.98	1832.93
320.20	1785.83
320.41	1730.53
320.62	1740.77
320.83	1724.39
321.05	1898.47
321.26	1761.25
321.47	1726.44
321.69	1783.78
321.90	1652.71
322.11	1689.57
322.32	1687.53
322.54	1757.16
322.75	1673.19
322.96	1847.27
323.18	1548.26
323.39	1595.37
323.60	1689.57
323.81	1673.19
324.03	1716.20
324.24	1628.14
324.45	1732.58
324.66	1683.43
324.88	1728.49
325.09	1740.77
325.30	1589.22
325.52	1773.54
325.73	1710.05
325.94	1636.33
326.15	1617.90
326.37	1667.05
326.58	1738.73
326.79	1828.84
327.00	1617.90
327.22	1636.33
327.43	1654.76
327.64	1615.85
327.85	1710.05
328.07	1767.40
328.28	1814.50
328.49	1681.38
328.70	1665.00
328.92	1691.62
329.13	1712.10
329.34	1771.49
329.55	1818.60
329.76	1787.88
329.98	1722.34
330.19	1751.01
330.40	1658.85
330.61	1710.05
330.83	1708.01
331.04	1669.09
331.25	1712.10
331.46	1689.57
331.68	1583.08
331.89	1740.77
332.10	1679.33
332.31	1640.42
332.52	1697.77
332.74	1820.64
332.95	1597.42
333.16	1716.20
333.37	1687.53
333.58	1742.82
333.80	1701.86
334.01	1568.74
334.22	1677.29
334.43	1648.61
334.64	1658.85
334.86	1640.42
335.07	1658.85
335.28	1724.39
335.49	1574.89
335.70	1699.81
335.92	1808.36
336.13	1845.22
336.34	1703.91
336.55	1675.24
336.76	1665.00
336.98	1634.28
337.19	1718.25
337.40	1822.69
337.61	1865.70
337.82	1671.14
338.04	1734.63
338.25	1591.27
338.46	1683.43
338.67	1699.81
338.88	1628.14
339.09	1697.77
339.31	1687.53
339.52	1605.61
339.73	1669.09
339.94	1634.28
340.15	1712.10
340.36	1652.71
340.58	1761.25
340.79	1646.57
341.00	1695.72
341.21	1665.00
341.42	1777.64
341.63	1681.38
341.85	1796.07
342.06	1779.68
342.27	1566.70
342.48	1736.68
342.69	1656.81
342.90	1628.14
343.12	1726.44
343.33	1650.66
343.54	1775.59
343.75	1777.64
343.96	1730.53
344.17	1646.57
344.38	1712.10
344.60	1593.32
344.81	1687.53
345.02	1730.53
345.23	1759.21
345.44	1814.50
345.65	1714.15
345.86	1652.71
346.07	1708.01
346.29	1693.67
346.50	1738.73
346.71	1685.48
346.92	1763.30
347.13	1828.84
347.34	1658.85
347.55	1634.28
347.76	1744.87
347.98	1699.81
348.19	1695.72
348.40	1769.44
348.61	1693.67
348.82	1796.07
349.03	1718.25
349.24	1617.90
349.45	1746.92
349.66	1650.66
349.88	1705.96
350.09	1726.44
350.30	1742.82
350.51	1773.54
350.72	1671.14
350.93	1730.53
351.14	1646.57
351.35	1705.96
351.56	1738.73
351.77	1710.05
351.99	1724.39
352.20	1771.49
352.41	1726.44
352.62	1654.76
352.83	1615.85
353.04	1726.44
353.25	1679.33
353.46	1730.53
353.67	1800.16
353.88	1595.37
354.09	1697.77
354.30	1697.77
354.52	1738.73
354.73	1671.14
354.94	1648.61
355.15	1695.72
355.36	1746.92
355.57	1609.70
355.78	1720.29
355.99	1705.96
356.20	1681.38
356.41	1742.82
356.62	1673.19
356.83	1730.53
357.04	1767.40
357.25	1611.75
357.46	1697.77
357.68	1578.98
357.89	1697.77
358.10	1630.18
358.31	1691.62
358.52	1667.05
358.73	1658.85
358.94	1640.42
359.15	1648.61
359.36	1763.30
359.57	1791.97
359.78	1648.61
359.99	1699.81
360.20	1669.09
360.41	1673.19
360.62	1673.19
360.83	1665.00
361.04	1675.24
361.25	1740.77
361.46	1751.01
361.67	1691.62
361.88	1785.83
362.09	1757.16
362.30	1687.53
362.51	1613.80
362.72	1697.77
362.93	1738.73
363.14	1716.20
363.35	1761.25
363.56	1646.57
363.78	1759.21
363.99	1738.73
364.20	1736.68
364.41	1699.81
364.62	1871.84
364.83	1677.29
365.04	1658.85
365.25	1695.72
365.46	1779.68
365.67	1708.01
365.88	1630.18
366.09	1652.71
366.30	1689.57
366.51	1652.71
366.72	1570.79
366.93	1746.92
367.14	1699.81
367.35	1767.40
367.56	1732.58
367.77	1804.26
367.98	1638.38
368.18	1726.44
368.39	1697.77
368.60	1660.90
368.81	1771.49
369.02	1761.25
369.23	1746.92
369.44	1699.81
369.65	1683.43
369.86	1759.21
370.07	1710.05
370.28	1683.43
370.49	1771.49
370.70	1767.40
370.91	1632.23
371.12	1660.90
371.33	1665.00
371.54	1718.25
371.75	1796.07
371.96	1566.70
372.17	1732.58
372.38	1718.25
372.59	1769.44
372.80	1796.07
373.01	1642.47
373.22	1677.29
373.43	1728.49
373.64	1636.33
373.85	1800.16
374.06	1785.83
374.26	1722.34
374.47	1691.62
374.68	1781.73
374.89	1695.72
375.10	1699.81
375.31	1740.77
375.52	1714.15
375.73	1691.62
375.94	1589.22
376.15	1763.30
376.36	1695.72
376.57	1701.86
376.78	1671.14
376.99	1761.25
377.20	1748.97
377.40	1767.40
377.61	1886.18
377.82	1681.38
378.03	1734.63
378.24	1845.22
378.45	1742.82
378.66	1808.36
378.87	1603.56
379.08	1615.85
379.29	1675.24
379.50	1740.77
379.71	1767.40
379.91	1673.19
380.12	1638.38
380.33	1658.85
380.54	1687.53
380.75	1660.90
380.96	1667.05
381.17	1732.58
381.38	1714.15
381.59	1646.57
381.80	1675.24
382.00	1826.79
382.21	1796.07
382.42	1826.79
382.63	1871.84
382.84	1714.15
383.05	1746.92
383.26	1753.06
383.47	1624.04
383.68	1757.16
383.88	1710.05
384.09	1740.77
384.30	1777.64
384.51	1804.26
384.72	1656.81
384.93	1683.43
385.14	1648.61
385.35	1824.74
385.55	1593.32
385.76	1722.34
385.97	1728.49
386.18	1621.99
386.39	1710.05
386.60	1685.48
386.81	1691.62
387.02	1677.29
387.22	1724.39
387.43	1771.49
387.64	1832.93
387.85	1898.47
388.06	2142.18
388.27	4235.20
388.48	6733.72
388.68	8064.90
388.89	9697.13
389.10	9824.11
389.31	8460.16
389.52	7620.49
389.73	6643.61
389.93	6197.15
390.14	5822.38
390.35	5226.42
390.56	4560.83
390.77	3710.92
390.98	3082.19
391.18	2553.82
391.39	2133.98
391.60	1853.41
391.81	1853.41
392.02	1642.47
392.23	1865.70
392.43	1757.16
392.64	1712.10
392.85	1738.73
393.06	1832.93
393.27	1734.63
393.47	1587.18
393.68	1746.92
393.89	1697.77
394.10	1757.16
394.31	1648.61
394.52	1687.53
394.72	1695.72
394.93	1804.26
395.14	1712.10
395.35	1769.44
395.56	1665.00
395.76	1712.10
395.97	1751.01
396.18	1855.46
396.39	1849.32
396.60	2066.40
396.80	1873.89
397.01	1877.99
397.22	1837.03
397.43	1855.46
397.64	1652.71
397.84	1769.44
398.05	1880.04
398.26	1783.78
398.47	1736.68
398.67	1839.08
398.88	1734.63
399.09	1728.49
399.30	1697.77
399.51	1761.25
399.71	1646.57
399.92	1650.66
400.13	1683.43
400.34	1669.09
400.54	1697.77
400.75	1726.44
400.96	1675.24
401.17	1834.98
401.37	1710.05
401.58	1662.95
401.79	1691.62
402.00	1923.04
402.21	2041.82
402.41	1880.04
402.62	1955.81
402.83	1951.71
403.04	1998.82
403.24	2070.50
403.45	1857.51
403.66	1927.14
403.87	1808.36
404.07	1888.23
404.28	1933.28
404.49	1945.57
404.70	1753.06
404.90	1742.82
405.11	1722.34
405.32	1746.92
405.52	1665.00
405.73	1667.05
405.94	1673.19
406.15	1708.01
406.35	1724.39
406.56	1724.39
406.77	1656.81
406.98	1671.14
407.18	1669.09
407.39	1820.64
407.60	1626.09
407.80	1714.15
408.01	1650.66
408.22	1746.92
408.43	1679.33
408.63	1732.58
408.84	1724.39
409.05	1712.10
409.25	1665.00
409.46	1697.77
409.67	1656.81
409.88	1667.05
410.08	1693.67
410.29	1691.62
410.50	1730.53
410.70	1781.73
410.91	1652.71
411.12	1712.10
411.32	1726.44
411.53	1712.10
411.74	1779.68
411.95	1724.39
412.15	1687.53
412.36	1791.97
412.57	1726.44
412.77	1796.07
412.98	1714.15
413.19	1710.05
413.39	1689.57
413.60	1746.92
413.81	1822.69
414.01	1617.90
414.22	1757.16
414.43	1769.44
414.63	1705.96
414.84	1677.29
415.05	1779.68
415.25	1648.61
415.46	1791.97
415.67	1712.10
415.87	1681.38
416.08	1626.09
416.29	1648.61
416.49	1718.25
416.70	1712.10
416.91	1699.81
417.11	1779.68
417.32	1734.63
417.53	1648.61
417.73	1740.77
417.94	1724.39
418.15	1660.90
418.35	1665.00
418.56	1755.11
418.77	1857.51
418.97	1701.86
419.18	1699.81
419.38	1576.94
419.59	1730.53
419.80	1796.07
420.00	1705.96
420.21	1781.73
420.42	1730.53
420.62	1703.91
420.83	1681.38
421.04	1691.62
421.24	1720.29
421.45	1742.82
421.65	1787.88
421.86	1673.19
422.07	1679.33
422.27	1683.43
422.48	1779.68
422.69	1662.95
422.89	1665.00
423.10	1722.34
423.30	1632.23
423.51	1740.77
423.72	1708.01
423.92	1714.15
424.13	1714.15
424.33	1728.49
424.54	1841.12
424.75	1650.66
424.95	1806.31
425.16	1773.54
425.36	1730.53
425.57	1765.35
425.78	1714.15
425.98	1783.78
426.19	1683.43
426.39	1644.52
426.60	1685.48
426.81	1751.01
427.01	1771.49
427.22	1624.04
427.42	1562.60
427.63	1701.86
427.83	1755.11
428.04	1740.77
428.25	1802.21
428.45	1791.97
428.66	1738.73
428.86	1720.29
429.07	1759.21
429.28	1685.48
429.48	1689.57
429.69	1740.77
429.89	1708.01
430.10	1642.47
430.30	1755.11
430.51	1759.21
430.71	1607.66
430.92	1685.48
431.13	1726.44
431.33	1783.78
431.54	1669.09
431.74	1816.55
431.95	1798.12
432.15	1601.51
432.36	1714.15
432.56	1718.25
432.77	1781.73
432.98	1765.35
433.18	1667.05
433.39	1624.04
433.59	1730.53
433.80	1789.92
434.00	1832.93
434.21	1777.64
434.41	1660.90
434.62	1798.12
434.82	1695.72
435.03	1687.53
435.23	1695.72
435.44	1656.81
435.64	1722.34
435.85	1685.48
436.06	1763.30
436.26	1751.01
436.47	1724.39
436.67	1710.05
436.88	1742.82
437.08	1763.30
437.29	1730.53
437.49	1771.49
437.70	1783.78
437.90	1748.97
438.11	1769.44
438.31	1761.25
438.52	1863.65
438.72	1880.04
438.93	1841.12
439.13	1845.22
439.34	1851.36
439.54	1781.73
439.75	1812.45
439.95	1779.68
440.16	1673.19
440.36	1751.01
440.57	1796.07
440.77	1746.92
440.98	1708.01
441.18	1615.85
441.39	1703.91
441.59	1685.48
441.80	1855.46
442.00	1695.72
442.21	1769.44
442.41	1714.15
442.62	1765.35
442.82	1660.90
443.02	1746.92
443.23	1716.20
443.43	1671.14
443.64	1730.53
443.84	1734.63
444.05	1826.79
444.25	1746.92
444.46	1761.25
444.66	1693.67
444.87	1726.44
445.07	1681.38
445.28	1800.16
445.48	1794.02
445.69	1767.40
445.89	1863.65
446.09	1753.06
446.30	1992.67
446.50	2672.60
446.71	3710.92
446.91	4229.06
447.12	4724.66
447.32	4745.14
447.53	4212.67
447.73	3794.89
447.93	3467.21
448.14	3330.00
448.34	3164.11
448.55	2897.88
448.75	2861.01
448.96	2684.89
449.16	2519.00
449.36	2281.44
449.57	1988.58
449.77	1961.95
449.98	1789.92
450.18	1861.60
450.39	1849.32
450.59	1789.92
450.79	1724.39
451.00	1757.16
451.20	1718.25
451.41	1746.92
451.61	1796.07
451.81	1869.80
452.02	1767.40
452.22	1673.19
452.43	1642.47
452.63	1699.81
452.84	1714.15
453.04	1679.33
453.24	1744.87
453.45	1736.68
453.65	1736.68
453.86	1677.29
454.06	1699.81
454.26	1705.96
454.47	1683.43
454.67	1794.02
454.87	1716.20
455.08	1710.05
455.28	1814.50
455.49	1730.53
455.69	1652.71
455.89	1757.16
456.10	1787.88
456.30	1675.24
456.51	1744.87
456.71	1728.49
456.91	1787.88
457.12	1734.63
457.32	1740.77
457.52	1695.72
457.73	1791.97
457.93	1736.68
458.14	1701.86
458.34	1611.75
458.54	1673.19
458.75	1734.63
458.95	1767.40
459.15	1751.01
459.36	1705.96
459.56	1699.81
459.76	1822.69
459.97	1722.34
460.17	1781.73
460.37	1804.26
460.58	1740.77
460.78	1800.16
460.99	1665.00
461.19	1691.62
461.39	1744.87
461.60	1675.24
461.80	1802.21
462.00	1703.91
462.21	1728.49
462.41	1656.81
462.61	1720.29
462.82	1656.81
463.02	1748.97
463.22	1634.28
463.43	1787.88
463.63	1714.15
463.83	1759.21
464.04	1718.25
464.24	1730.53
464.44	1685.48
464.64	1767.40
464.85	1691.62
465.05	1820.64
465.25	1734.63
465.46	1703.91
465.66	1730.53
465.86	1808.36
466.07	1798.12
466.27	1691.62
466.47	1632.23
466.68	1724.39
466.88	1740.77
467.08	1804.26
467.29	1755.11
467.49	1753.06
467.69	1675.24
467.89	1783.78
468.10	1624.04
468.30	1722.34
468.50	1728.49
468.71	1832.93
468.91	1652.71
469.11	1822.69
469.31	1708.01
469.52	1679.33
469.72	1839.08
469.92	1869.80
470.13	1705.96
470.33	1669.09
470.53	1802.21
470.73	2066.40
470.94	2254.81
471.14	2320.35
471.34	2508.76
471.54	2385.88
471.75	2248.67
471.95	2133.98
472.15	2117.60
472.36	2189.28
472.56	2025.44
472.76	2017.25
472.96	1914.85
473.17	1943.52
473.37	1970.15
473.57	1826.79
473.77	1765.35
473.98	1753.06
474.18	1703.91
474.38	1935.33
474.58	1703.91
474.79	1656.81
474.99	1746.92
475.19	1726.44
475.39	1613.80
475.60	1742.82
475.80	1734.63
476.00	1773.54
476.20	1675.24
476.41	1689.57
476.61	1796.07
476.81	1771.49
477.01	1640.42
477.21	1865.70
477.42	1849.32
477.62	1703.91
477.82	1830.88
478.02	1724.39
478.23	1755.11
478.43	1685.48
478.63	1699.81
478.83	1730.53
479.03	1744.87
479.24	1841.12
479.44	1787.88
479.64	1644.52
479.84	1632.23
480.04	1648.61
480.25	1775.59
480.45	1669.09
480.65	1759.21
480.85	1740.77
481.06	1679.33
481.26	1761.25
481.46	1736.68
481.66	1708.01
481.86	1695.72
482.06	1746.92
482.27	1675.24
482.47	1634.28
482.67	1742.82
482.87	1710.05
483.07	1738.73
483.28	1712.10
483.48	1648.61
483.68	1755.11
483.88	1681.38
484.08	1601.51
484.29	1656.81
484.49	1695.72
484.69	1626.09
484.89	1726.44
485.09	1863.65
485.29	1757.16
485.50	1800.16
485.70	1658.85
485.90	1748.97
486.10	1726.44
486.30	1828.84
486.50	1791.97
486.71	1763.30
486.91	1740.77
487.11	1787.88
487.31	1566.70
487.51	1734.63
487.71	1630.18
487.91	1632.23
488.12	1712.10
488.32	1632.23
488.52	1642.47
488.72	1673.19
488.92	1814.50
489.12	1796.07
489.32	1787.88
489.53	1654.76
489.73	1673.19
489.93	1814.50
490.13	1697.77
490.33	1681.38
490.53	1654.76
490.73	1810.40
490.94	1581.03
491.14	1691.62
491.34	1744.87
491.54	2027.49
491.74	2586.58
491.94	2918.36
492.14	3049.43
492.34	2942.93
492.54	2766.81
492.75	2557.91
492.95	2424.80
493.15	2215.90
493.35	2320.35
493.55	2111.46
493.75	2113.50
493.95	2090.98
494.15	2009.06
494.35	1914.85
494.56	1955.81
494.76	1826.79
494.96	1890.28
495.16	1853.41
495.36	1765.35
495.56	1716.20
495.76	1724.39
495.96	1716.20
496.16	1656.81
496.36	1863.65
496.56	1734.63
496.77	1753.06
496.97	1669.09
497.17	1783.78
497.37	1689.57
497.57	1726.44
497.77	1720.29
497.97	1705.96
498.17	1718.25
498.37	1701.86
498.57	1726.44
498.77	1679.33
498.97	1767.40
499.17	1773.54
499.38	1718.25
499.58	1738.73
499.78	1740.77
499.98	1853.41
500.18	1701.86
500.38	1667.05
500.58	1914.85
500.78	2551.77
500.98	4437.95
501.18	5689.26
501.38	6682.52
501.58	7047.06
501.78	6500.25
501.98	5556.14
502.18	5087.15
502.38	4458.43
502.58	4134.85
502.78	3665.86
502.98	3575.75
503.18	3403.72
503.38	3178.45
503.59	2822.10
503.79	2637.78
503.99	2492.38
504.19	2291.68
504.39	2252.77
504.59	2117.60
504.79	2136.03
504.99	2039.78
505.19	1951.71
505.39	1988.58
505.59	1968.10
505.79	1929.19
505.99	1869.80
506.19	1699.81
506.39	1830.88
506.59	1742.82
506.79	1685.48
506.99	1882.08
507.19	1787.88
507.39	1681.38
507.59	1703.91
507.79	1660.90
507.99	1681.38
508.19	1751.01
508.39	1699.81
508.59	1718.25
508.79	1834.98
508.99	1820.64
509.19	1652.71
509.39	1830.88
509.59	1712.10
509.79	1697.77
509.99	1781.73
510.19	1791.97
510.39	1775.59
510.59	1673.19
510.79	1757.16
510.99	1640.42
511.19	1738.73
511.39	1738.73
511.59	1775.59
511.79	1781.73
511.99	1755.11
512.19	1796.07
512.38	1765.35
512.58	1714.15
512.78	1726.44
512.98	1740.77
513.18	1826.79
513.38	1624.04
513.58	1828.84
513.78	1714.15
513.98	1732.58
514.18	1746.92
514.38	1705.96
514.58	1654.76
514.78	1748.97
514.98	1591.27
515.18	1779.68
515.38	1667.05
515.58	1828.84
515.78	1665.00
515.98	1767.40
516.18	1728.49
516.38	1748.97
516.57	1691.62
516.77	1587.18
516.97	1726.44
517.17	1716.20
517.37	1660.90
517.57	1728.49
517.77	1705.96
517.97	1714.15
518.17	1777.64
518.37	1693.67
518.57	1687.53
518.77	1665.00
518.97	1730.53
519.16	1748.97
519.36	1738.73
519.56	1705.96
519.76	1710.05
519.96	1742.82
520.16	1761.25
520.36	1724.39
520.56	1804.26
520.76	1714.15
520.96	1665.00
521.16	1751.01
521.35	1796.07
521.55	1796.07
521.75	1748.97
521.95	1701.86
522.15	1683.43
522.35	1593.32
522.55	1615.85
522.75	1814.50
522.95	1773.54
523.14	1638.38
523.34	1675.24
523.54	1765.35
523.74	1740.77
523.94	1728.49
524.14	1630.18
524.34	1779.68
524.54	1804.26
524.73	1648.61
524.93	1794.02
525.13	1726.44
525.33	1654.76
525.53	1841.12
525.73	1783.78
525.93	1800.16
526.13	1777.64
526.32	1755.11
526.52	1810.40
526.72	1796.07
526.92	1720.29
527.12	1728.49
527.32	1662.95
527.52	1804.26
527.71	1705.96
527.91	1728.49
528.11	1656.81
528.31	1722.34
528.51	1732.58
528.71	1755.11
528.90	1705.96
529.10	1826.79
529.30	1804.26
529.50	1578.98
529.70	1742.82
529.90	1744.87
530.09	1789.92
530.29	1609.70
530.49	1691.62
530.69	1863.65
530.89	1742.82
531.09	1738.73
531.28	1722.34
531.48	1834.98
531.68	1740.77
531.88	1734.63
532.08	1769.44
532.28	1656.81
532.47	1751.01
532.67	1765.35
532.87	1787.88
533.07	1681.38
533.27	1814.50
533.46	1697.77
533.66	1771.49
533.86	1677.29
534.06	1751.01
534.26	1734.63
534.45	1791.97
534.65	1796.07
534.85	1763.30
535.05	1714.15
535.25	1779.68
535.44	1665.00
535.64	1701.86
535.84	1677.29
536.04	1734.63
536.24	1755.11
536.43	1640.42
536.63	1787.88
536.83	1718.25
537.03	1699.81
537.22	1603.56
537.42	1619.94
537.62	1740.77
537.82	1742.82
538.02	1773.54
538.21	1839.08
538.41	1927.14
538.61	1732.58
538.81	1751.01
539.00	1796.07
539.20	1603.56
539.40	1675.24
539.60	1738.73
539.79	1814.50
539.99	1742.82
540.19	1646.57
540.39	1708.01
540.58	1712.10
540.78	1773.54
540.98	1765.35
541.18	1771.49
541.37	1753.06
541.57	1734.63
541.77	1689.57
541.97	1648.61
542.16	1683.43
542.36	1712.10
542.56	1677.29
542.76	1777.64
542.95	1761.25
543.15	1763.30
543.35	1810.40
543.54	1732.58
543.74	1687.53
543.94	1812.45
544.14	1685.48
544.33	1732.58
544.53	1765.35
544.73	1759.21
544.93	1763.30
545.12	1744.87
545.32	1742.82
545.52	1720.29
545.71	1710.05
545.91	1665.00
546.11	1732.58
546.30	1722.34
546.50	1722.34
546.70	1697.77
546.90	1718.25
547.09	1554.41
547.29	1740.77
547.49	1771.49
547.68	1761.25
547.88	1681.38
548.08	1705.96
548.27	2203.61
548.47	1669.09
548.67	1712.10
548.87	1701.86
549.06	1710.05
549.26	1695.72
549.46	1757.16
549.65	1759.21
549.85	1779.68
550.05	1679.33
550.24	1673.19
550.44	1710.05
550.64	1648.61
550.83	1740.77
551.03	1804.26
551.23	1777.64
551.42	1746.92
551.62	1673.19
551.82	1714.15
552.01	1740.77
552.21	1851.36
552.41	1742.82
552.60	1822.69
552.80	1728.49
553.00	1640.42
553.19	1689.57
553.39	1841.12
553.59	1681.38
553.78	1712.10
553.98	1738.73
554.17	1630.18
554.37	1773.54
554.57	1771.49
554.76	1630.18
554.96	1691.62
555.16	1802.21
555.35	1755.11
555.55	1730.53
555.75	1730.53
555.94	1791.97
556.14	1718.25
556.33	1816.55
556.53	1656.81
556.73	1705.96
556.92	1781.73
557.12	1849.32
557.32	1751.01
557.51	1839.08
557.71	1814.50
557.90	1806.31
558.10	1796.07
558.30	1683.43
558.49	1728.49
558.69	1638.38
558.88	1732.58
559.08	1775.59
559.28	1730.53
559.47	1746.92
559.67	1730.53
559.86	1923.04
560.06	1779.68
560.26	1746.92
560.45	1777.64
560.65	1742.82
560.84	1843.17
561.04	1712.10
561.24	1761.25
561.43	1703.91
561.63	1824.74
561.82	1746.92
562.02	1736.68
562.22	1691.62
562.41	1673.19
562.61	1697.77
562.80	1673.19
563.00	1810.40
563.19	1763.30
563.39	1830.88
563.59	1779.68
563.78	1720.29
563.98	1658.85
564.17	1697.77
564.37	1591.27
564.56	1722.34
564.76	1611.75
564.96	1798.12
565.15	1742.82
565.35	1873.89
565.54	1652.71
565.74	1796.07
565.93	1710.05
566.13	1697.77
566.32	1753.06
566.52	1820.64
566.71	1744.87
566.91	1775.59
567.11	1748.97
567.30	1660.90
567.50	1845.22
567.69	1763.30
567.89	1732.58
568.08	1658.85
568.28	1732.58
568.47	1656.81
568.67	1785.83
568.86	1802.21
569.06	1767.40
569.25	1738.73
569.45	1683.43
569.64	1691.62
569.84	1806.31
570.04	1757.16
570.23	1699.81
570.43	1738.73
570.62	1740.77
570.82	1828.84
571.01	1621.99
571.21	1708.01
571.40	1701.86
571.60	1787.88
571.79	1794.02
571.99	1822.69
572.18	1757.16
572.38	1763.30
572.57	1673.19
572.77	1720.29
572.96	1884.13
573.16	1699.81
573.35	1755.11
573.55	1818.60
573.74	1771.49
573.94	1765.35
574.13	1763.30
574.33	1755.11
574.52	1806.31
574.71	1775.59
574.91	1660.90
575.10	1660.90
575.30	1738.73
575.49	1648.61
575.69	1652.71
575.88	1755.11
576.08	1699.81
576.27	1712.10
576.47	1771.49
576.66	1806.31
576.86	1843.17
577.05	1710.05
577.25	1730.53
577.44	1900.52
577.64	1699.81
577.83	1843.17
578.02	1763.30
578.22	1841.12
578.41	1877.99
578.61	1705.96
578.80	1697.77
579.00	1724.39
579.19	1759.21
579.39	1724.39
579.58	1855.46
579.77	1746.92
579.97	1822.69
580.16	1779.68
580.36	1849.32
580.55	1816.55
580.75	1771.49
580.94	1798.12
581.13	1783.78
581.33	1763.30
581.52	1697.77
581.72	1867.75
581.91	1824.74
582.11	1812.45
582.30	1773.54
582.49	1759.21
582.69	1867.75
582.88	1779.68
583.08	1763.30
583.27	1775.59
583.47	1822.69
583.66	1777.64
583.85	1591.27
584.05	1665.00
584.24	1843.17
584.44	1722.34
584.63	1791.97
584.82	1849.32
585.02	1828.84
585.21	1789.92
585.41	1820.64
585.60	1863.65
585.79	1906.66
585.99	1937.38
586.18	1800.16
586.37	2170.85
586.57	3330.00
586.76	9731.95
586.96	24555.15
587.15	34510.32
587.34	40332.70
587.54	42124.67
587.73	36621.78
587.93	26320.49
588.12	21409.47
588.31	18159.34
588.51	16164.62
588.70	15206.17
588.89	13864.75
589.09	12633.92
589.28	10762.08
589.47	9578.35
589.67	7866.25
589.86	6387.61
590.06	4966.32
590.25	3932.10
590.44	3049.43
590.64	2543.58
590.83	2260.96
591.02	2054.11
591.22	1966.05
591.41	1914.85
591.60	1808.36
591.80	1882.08
591.99	1740.77
592.18	1791.97
592.38	1814.50
592.57	1746.92
592.76	1773.54
592.96	1812.45
593.15	1791.97
593.34	1849.32
593.54	1740.77
593.73	1839.08
593.92	1763.30
594.12	1730.53
594.31	1769.44
594.50	1761.25
594.70	1861.60
594.89	1845.22
595.08	1673.19
595.28	1759.21
595.47	1886.18
595.66	1755.11
595.86	1734.63
596.05	1710.05
596.24	1714.15
596.43	1820.64
596.63	1816.55
596.82	1712.10
597.01	1761.25
597.21	1853.41
597.40	1757.16
597.59	1734.63
597.79	1716.20
597.98	1814.50
598.17	1726.44
598.36	1683.43
598.56	1787.88
598.75	1689.57
598.94	1718.25
599.14	1771.49
599.33	1734.63
599.52	1806.31
599.71	1687.53
599.91	1800.16
600.10	1740.77
600.29	1746.92
600.48	1759.21
600.68	1787.88
600.87	1746.92
601.06	1716.20
601.26	1685.48
601.45	1855.46
601.64	1710.05
601.83	1773.54
602.03	1662.95
602.22	1685.48
602.41	1789.92
602.60	1869.80
602.80	1765.35
602.99	1773.54
603.18	1650.66
603.37	1710.05
603.57	1714.15
603.76	1693.67
603.95	1779.68
604.14	1619.94
604.34	1714.15
604.53	1710.05
604.72	1701.86
604.91	1798.12
605.10	1847.27
605.30	1660.90
605.49	1839.08
605.68	1728.49
605.87	1667.05
606.07	1744.87
606.26	1732.58
606.45	1777.64
606.64	1787.88
606.84	1732.58
607.03	1695.72
607.22	1726.44
607.41	1624.04
607.60	1708.01
607.80	1728.49
607.99	1730.53
608.18	1775.59
608.37	1675.24
608.56	1691.62
608.76	1736.68
608.95	1859.56
609.14	1787.88
609.33	1773.54
609.52	1751.01
609.72	1697.77
609.91	1730.53
610.10	1726.44
610.29	1763.30
610.48	1714.15
610.68	1755.11
610.87	1677.29
611.06	1751.01
611.25	1681.38
611.44	1791.97
611.63	1720.29
611.83	1755.11
612.02	1671.14
612.21	1796.07
612.40	1572.84
612.59	1681.38
612.79	1648.61
612.98	1714.15
613.17	1800.16
613.36	1705.96
613.55	1841.12
613.74	1699.81
613.93	1685.48
614.13	1771.49
614.32	1767.40
614.51	1761.25
614.70	1761.25
614.89	1665.00
615.08	1714.15
615.28	2068.45
615.47	1705.96
615.66	1746.92
615.85	1679.33
616.04	1804.26
616.23	1662.95
616.42	1730.53
616.62	1710.05
616.81	1701.86
617.00	1746.92
617.19	1812.45
617.38	1761.25
617.57	1742.82
617.76	1759.21
617.95	1736.68
618.15	1791.97
618.34	1824.74
618.53	1624.04
618.72	1796.07
618.91	1882.08
619.10	1787.88
619.29	1716.20
619.48	1755.11
619.68	1646.57
619.87	1755.11
620.06	1591.27
620.25	1748.97
620.44	1730.53
620.63	1695.72
620.82	1716.20
621.01	1746.92
621.20	1705.96
621.39	1667.05
621.59	1708.01
621.78	1748.97
621.97	1716.20
622.16	1722.34
622.35	1755.11
622.54	1726.44
622.73	1744.87
622.92	1705.96
623.11	1767.40
623.30	1753.06
623.49	1820.64
623.68	1656.81
623.88	1773.54
624.07	1667.05
624.26	1746.92
624.45	1681.38
624.64	1705.96
624.83	1757.16
625.02	1751.01
625.21	1728.49
625.40	1771.49
625.59	1783.78
625.78	1722.34
625.97	1816.55
626.16	1755.11
626.35	1763.30
626.54	1767.40
626.74	1798.12
626.93	1646.57
627.12	1654.76
627.31	1796.07
627.50	1724.39
627.69	1724.39
627.88	1691.62
628.07	1699.81
628.26	1705.96
628.45	1667.05
628.64	1595.37
628.83	1714.15
629.02	1656.81
629.21	1714.15
629.40	1738.73
629.59	1646.57
629.78	1683.43
629.97	1654.76
630.16	1648.61
630.35	1679.33
630.54	1652.71
630.73	1740.77
630.92	1742.82
631.11	1636.33
631.30	1722.34
631.49	1742.82
631.68	1728.49
631.87	1794.02
632.06	1609.70
632.25	1804.26
632.44	1722.34
632.63	1796.07
632.82	1746.92
633.01	1693.67
633.20	1720.29
633.39	1681.38
633.58	1617.90
633.77	1724.39
633.96	1701.86
634.15	1687.53
634.34	1787.88
634.53	1720.29
634.72	1689.57
634.91	1615.85
635.10	1705.96
635.29	1785.83
635.48	1746.92
635.67	1691.62
635.86	1660.90
636.05	1759.21
636.24	1716.20
636.43	1718.25
636.62	1703.91
636.81	1654.76
637.00	1705.96
637.19	1705.96
637.38	1791.97
637.57	1687.53
637.76	1636.33
637.95	1673.19
638.14	1742.82
638.33	1650.66
638.52	1701.86
638.71	1658.85
638.89	1615.85
639.08	1789.92
639.27	1667.05
639.46	1671.14
639.65	1765.35
639.84	1671.14
640.03	1734.63
640.22	1578.98
640.41	1863.65
640.60	1708.01
640.79	1740.77
640.98	1681.38
641.17	1785.83
641.36	1697.77
641.55	1789.92
641.74	1656.81
641.92	1665.00
642.11	1714.15
642.30	1681.38
642.49	1685.48
642.68	1642.47
642.87	1767.40
643.06	1775.59
643.25	1693.67
643.44	1638.38
643.63	1722.34
643.82	1814.50
644.00	1650.66
644.19	1755.11
644.38	1671.14
644.57	1722.34
644.76	1765.35
644.95	1683.43
645.14	1730.53
645.33	1740.77
645.52	1685.48
645.71	1669.09
645.89	1689.57
646.08	1665.00
646.27	1742.82
646.46	1804.26
646.65	1667.05
646.84	1708.01
647.03	1677.29
647.22	1736.68
647.40	1716.20
647.59	1714.15
647.78	1613.80
647.97	1683.43
648.16	1714.15
648.35	1808.36
648.54	1740.77
648.73	1665.00
648.91	1753.06
649.10	1720.29
649.29	1714.15
649.48	1738.73
649.67	1755.11
649.86	1757.16
650.05	1771.49
650.23	1740.77
650.42	1679.33
650.61	1798.12
650.80	1644.52
650.99	1781.73
651.18	1718.25
651.36	1765.35
651.55	1650.66
651.74	1714.15
651.93	1712.10
652.12	1744.87
652.31	1683.43
652.49	1724.39
652.68	1665.00
652.87	1798.12
653.06	1701.86
653.25	1767.40
653.44	1624.04
653.62	1773.54
653.81	1755.11
654.00	1714.15
654.19	1763.30
654.38	1888.23
654.56	1744.87
654.75	1634.28
654.94	1755.11
655.13	1751.01
655.32	1720.29
655.51	1710.05
655.69	1677.29
655.88	1800.16
656.07	1673.19
656.26	1736.68
656.45	1687.53
656.63	1642.47
656.82	1775.59
657.01	1767.40
657.20	1695.72
657.38	1718.25
657.57	1691.62
657.76	1673.19
657.95	1734.63
658.14	1714.15
658.32	1660.90
658.51	1689.57
658.70	1800.16
658.89	1673.19
659.08	1783.78
659.26	1787.88
659.45	1630.18
659.64	1746.92
659.83	1718.25
660.01	1898.47
660.20	1699.81
660.39	1849.32
660.58	1599.46
660.76	1748.97
660.95	1648.61
661.14	1691.62
661.33	1585.13
661.51	1697.77
661.70	1689.57
661.89	1734.63
662.08	1658.85
662.26	1648.61
662.45	1617.90
662.64	1845.22
662.83	1767.40
663.01	1630.18
663.20	1665.00
663.39	1798.12
663.58	1710.05
663.76	1695.72
663.95	1755.11
664.14	1634.28
664.32	1636.33
664.51	1708.01
664.70	1626.09
664.89	1728.49
665.07	1667.05
665.26	1755.11
665.45	1642.47
665.64	1644.52
665.82	1730.53
666.01	1849.32
666.20	1699.81
666.38	1832.93
666.57	1791.97
666.76	2150.37
666.95	4450.24
667.13	10153.83
667.32	15329.05
667.51	17680.11
667.69	19011.29
667.88	17682.16
668.07	12369.73
668.25	9336.69
668.44	8069.00
668.63	7268.24
668.81	6703.00
669.00	6178.72
669.19	5709.74
669.38	5164.98
669.56	4503.48
669.75	4007.87
669.94	3360.72
670.12	2914.26
670.31	2588.63
670.50	2330.59
670.68	2123.74
670.87	1877.99
671.06	1849.32
671.24	1773.54
671.43	1751.01
671.62	1703.91
671.80	1683.43
671.99	1783.78
672.18	1708.01
672.36	1771.49
672.55	1644.52
672.74	1685.48
672.92	1681.38
673.11	1738.73
673.29	1648.61
673.48	1734.63
673.67	1699.81
673.85	1806.31
674.04	1634.28
674.23	1710.05
674.41	1845.22
674.60	1609.70
674.79	1624.04
674.97	1720.29
675.16	1808.36
675.34	1769.44
675.53	1673.19
675.72	1759.21
675.90	1783.78
676.09	1683.43
676.28	1697.77
676.46	1673.19
676.65	1730.53
676.83	1728.49
677.02	1714.15
677.21	1695.72
677.39	1761.25
677.58	1656.81
677.77	1708.01
677.95	1630.18
678.14	1630.18
678.32	1697.77
678.51	1656.81
678.70	1857.51
678.88	1675.24
679.07	1720.29
679.25	1695.72
679.44	1658.85
679.63	1603.56
679.81	1744.87
680.00	1781.73
680.18	1763.30
680.37	1804.26
680.55	1714.15
680.74	1621.99
680.93	1626.09
681.11	1687.53
681.30	1599.46
681.48	1718.25
681.67	1648.61
681.85	1703.91
682.04	1677.29
682.23	1708.01
682.41	1681.38
682.60	1642.47
682.78	1714.15
682.97	1708.01
683.15	1705.96
683.34	1726.44
683.53	1787.88
683.71	1714.15
683.90	1832.93
684.08	1777.64
684.27	1693.67
684.45	1722.34
684.64	1740.77
684.82	1738.73
685.01	1685.48
685.19	1685.48
685.38	1843.17
685.57	1669.09
685.75	1699.81
685.94	1740.77
686.12	1699.81
686.31	1685.48
686.49	1830.88
686.68	1626.09
686.86	1742.82
687.05	1697.77
687.23	1828.84
687.42	1679.33
687.60	1585.13
687.79	1736.68
687.97	1857.51
688.16	1820.64
688.34	1675.24
688.53	1646.57
688.71	1742.82
688.90	1693.67
689.08	1705.96
689.27	1576.94
689.45	1787.88
689.64	1640.42
689.82	1665.00
690.01	1724.39
690.19	1742.82
690.38	1771.49
690.56	1783.78
690.75	1669.09
690.93	1542.12
691.12	1669.09
691.30	1681.38
691.49	1683.43
691.67	1705.96
691.86	1859.56
692.04	1708.01
692.23	1648.61
692.41	1724.39
692.60	1787.88
692.78	1714.15
692.97	1685.48
693.15	1685.48
693.34	1742.82
693.52	1746.92
693.71	1669.09
693.89	1656.81
694.08	1634.28
694.26	1779.68
694.44	1744.87
694.63	1732.58
694.81	1632.23
695.00	1722.34
695.18	1722.34
695.37	1824.74
695.55	1656.81
695.74	1665.00
695.92	1701.86
696.10	1736.68
696.29	1638.38
696.47	1677.29
696.66	1640.42
696.84	1693.67
697.03	1675.24
697.21	1849.32
697.40	2291.68
697.58	1681.38
697.76	1593.32
697.95	1613.80
698.13	1705.96
698.32	1701.86
698.50	1753.06
698.68	1714.15
698.87	1669.09
699.05	1718.25
699.24	1656.81
699.42	1595.37
699.61	1748.97
699.79	1736.68
699.97	1742.82
700.16	1611.75
700.34	1599.46
700.53	1613.80
700.71	1738.73
700.89	1751.01
701.08	1644.52
701.26	1677.29
701.45	2142.18
701.63	1640.42
701.81	1708.01
702.00	1681.38
702.18	1714.15
702.37	1652.71
702.55	1710.05
702.73	1724.39
702.92	1705.96
703.10	1742.82
703.28	1642.47
703.47	1642.47
703.65	1796.07
703.84	1753.06
704.02	1753.06
704.20	1791.97
704.39	1714.15
704.57	1689.57
704.75	1755.11
704.94	1753.06
705.12	1800.16
705.30	1787.88
705.49	2260.96
705.67	4401.08
705.86	9398.13
706.04	12519.23
706.22	14423.84
706.41	15277.85
706.59	13825.84
706.77	9693.04
706.96	7344.02
707.14	6530.97
707.32	5906.34
707.51	5629.87
707.69	4853.69
707.87	4235.20
708.06	3475.40
708.24	3045.33
708.42	2412.51
708.61	2297.82
708.79	1857.51
708.97	1865.70
709.16	1869.80
709.34	1751.01
709.52	1785.83
709.71	1730.53
709.89	1656.81
710.07	1644.52
710.26	1648.61
710.44	1697.77
710.62	1697.77
710.80	1722.34
710.99	1769.44
711.17	1767.40
711.35	1665.00
711.54	1650.66
711.72	1777.64
711.90	1720.29
712.09	1685.48
712.27	1701.86
712.45	1775.59
712.63	1665.00
712.82	1726.44
713.00	1675.24
713.18	1724.39
713.37	1777.64
713.55	1726.44
713.73	1701.86
713.91	1697.77
714.10	1665.00
714.28	1714.15
714.46	1621.99
714.65	1710.05
714.83	1701.86
715.01	1759.21
715.19	1630.18
715.38	1654.76
715.56	1753.06
715.74	1691.62
715.92	1648.61
716.11	1787.88
716.29	1669.09
716.47	1742.82
716.65	1652.71
716.84	1683.43
717.02	1814.50
717.20	1636.33
717.38	1732.58
717.57	1755.11
717.75	1718.25
717.93	1630.18
718.11	1753.06
718.30	1609.70
718.48	1724.39
718.66	1728.49
718.84	1703.91
719.03	1728.49
719.21	1648.61
719.39	1810.40
719.57	1781.73
719.75	1736.68
719.94	1665.00
720.12	1613.80
720.30	1679.33
720.48	1699.81
720.67	1689.57
720.85	1759.21
721.03	1626.09
721.21	1585.13
721.39	1810.40
721.58	1683.43
721.76	1722.34
721.94	1720.29
722.12	1685.48
722.30	1763.30
722.49	1726.44
722.67	1769.44
722.85	1732.58
723.03	1601.51
723.21	1683.43
723.40	1720.29
723.58	1755.11
723.76	1802.21
723.94	1757.16
724.12	1736.68
724.30	1775.59
724.49	1710.05
724.67	1689.57
724.85	1787.88
725.03	1615.85
725.21	1712.10
725.40	1798.12
725.58	1621.99
725.76	1794.02
725.94	1740.77
726.12	1626.09
726.30	1705.96
726.49	1697.77
726.67	1767.40
726.85	1648.61
727.03	1738.73
727.21	2115.55
727.39	2869.20
727.57	3702.73
727.76	4118.47
727.94	4435.90
728.12	4321.21
728.30	3649.48
728.48	2936.79
728.66	2740.18
728.84	2449.37
729.03	2291.68
729.21	2154.46
729.39	1945.57
729.57	1857.51
729.75	1810.40
729.93	1882.08
730.11	1746.92
730.30	1701.86
730.48	1701.86
730.66	1716.20
730.84	1748.97
731.02	1769.44
731.20	1658.85
731.38	1748.97
731.56	1585.13
731.74	1662.95
731.93	1673.19
732.11	1789.92
732.29	1710.05
732.47	1730.53
732.65	1683.43
732.83	1859.56
733.01	1716.20
733.19	1677.29
733.37	1726.44
733.56	1724.39
733.74	1619.94
733.92	1755.11
734.10	1757.16
734.28	1769.44
734.46	1599.46
734.64	1626.09
734.82	1656.81
735.00	1685.48
735.18	1740.77
735.36	1677.29
735.54	1771.49
735.73	1722.34
735.91	1742.82
736.09	1738.73
736.27	1693.67
736.45	1730.53
736.63	1654.76
736.81	1720.29
736.99	1740.77
737.17	1732.58
737.35	1691.62
737.53	1759.21
737.71	1683.43
737.89	1755.11
738.07	1722.34
738.25	1658.85
738.43	1624.04
738.61	1640.42
738.80	1638.38
738.98	1615.85
739.16	1685.48
739.34	1744.87
739.52	1738.73
739.70	1671.14
739.88	1757.16
740.06	1785.83
740.24	1605.61
740.42	1771.49
740.60	1601.51
740.78	1624.04
740.96	1626.09
741.14	1683.43
741.32	1738.73
741.50	1630.18
741.68	1841.12
741.86	1753.06
742.04	1689.57
742.22	1634.28
742.40	1705.96
742.58	1753.06
742.76	1705.96
742.94	1820.64
743.12	1656.81
743.30	1636.33
743.48	1732.58
743.66	1640.42
743.84	1722.34
744.02	1630.18
744.20	1634.28
744.38	1652.71
744.56	1632.23
744.74	1775.59
744.92	1708.01
745.10	1771.49
745.28	1781.73
745.46	1791.97
745.64	1693.67
745.82	1794.02
746.00	1685.48
746.18	1693.67
746.36	1691.62
746.54	1703.91
746.72	1751.01
746.90	1699.81
747.08	1800.16
747.26	1667.05
747.44	1765.35
747.62	1722.34
747.80	1634.28
747.98	1787.88
748.15	1628.14
748.33	1814.50
748.51	1691.62
748.69	1720.29
748.87	1626.09
749.05	1650.66
749.23	1730.53
749.41	1781.73
749.59	1755.11
749.77	1777.64
749.95	1636.33
750.13	1646.57
750.31	1683.43
750.49	1716.20
750.67	1732.58
750.85	1771.49
751.03	1677.29
751.20	1861.60
751.38	1716.20
751.56	1646.57
751.74	1697.77
751.92	1734.63
752.10	1624.04
752.28	1722.34
752.46	1609.70
752.64	1640.42
752.82	1712.10
753.00	1714.15
753.18	1730.53
753.35	1665.00
753.53	1671.14
753.71	1591.27
753.89	1742.82
754.07	1705.96
754.25	1761.25
754.43	1701.86
754.61	1687.53
754.79	1736.68
754.97	1691.62
755.14	1789.92
755.32	1626.09
755.50	1673.19
755.68	1679.33
755.86	1624.04
756.04	1632.23
756.22	1671.14
756.40	1783.78
756.57	1894.37
756.75	1703.91
756.93	1675.24
757.11	1820.64
757.29	1613.80
757.47	1669.09
757.65	1595.37
757.82	1585.13
758.00	1650.66
758.18	1630.18
758.36	1658.85
758.54	1810.40
758.72	1648.61
758.90	1742.82
759.07	1738.73
759.25	1705.96
759.43	1712.10
759.61	1603.56
759.79	2162.66
759.97	1763.30
760.15	1734.63
760.32	1722.34
760.50	1728.49
760.68	1710.05
760.86	1710.05
761.04	1763.30
761.22	1789.92
761.39	1652.71
761.57	1705.96
761.75	1730.53
761.93	1740.77
762.11	1703.91
762.28	1683.43
762.46	1609.70
762.64	1732.58
762.82	1591.27
763.00	1734.63
763.18	1751.01
763.35	1632.23
763.53	1708.01
763.71	1712.10
763.89	1775.59
764.07	1669.09
764.24	1648.61
764.42	1761.25
764.60	1665.00
764.78	1691.62
764.96	1791.97
765.13	1783.78
765.31	1611.75
765.49	1724.39
765.67	1673.19
765.84	1640.42
766.02	1677.29
766.20	1662.95
766.38	1660.90
766.56	1746.92
766.73	1761.25
766.91	1724.39
767.09	1740.77
767.27	1734.63
767.44	1628.14
767.62	1658.85
767.80	1712.10
767.98	1683.43
768.15	1640.42
768.33	1775.59
768.51	1726.44
768.69	1697.77
768.87	1677.29
769.04	1671.14
769.22	1753.06
769.40	1705.96
769.58	1808.36
769.75	1722.34
769.93	1794.02
770.11	1677.29
770.28	1615.85
770.46	1681.38
770.64	1689.57
770.82	1595.37
770.99	1626.09
771.17	1738.73
771.35	1677.29
771.53	1705.96
771.70	1738.73
771.88	1705.96
772.06	1716.20
772.23	1671.14
772.41	1732.58
772.59	1705.96
772.77	1656.81
772.94	1669.09
773.12	1689.57
773.30	1730.53
773.47	1724.39
773.65	1615.85
773.83	1804.26
774.01	1689.57
774.18	1574.89
774.36	1697.77
774.54	1634.28
774.71	1724.39
774.89	1677.29
775.07	1601.51
775.24	1683.43
775.42	1679.33
775.60	1796.07
775.78	1599.46
775.95	1722.34
776.13	1607.66
776.31	1564.65
776.48	1689.57
776.66	1789.92
776.84	1658.85
777.01	1654.76
777.19	1665.00
777.37	1611.75
777.54	1783.78
777.72	1775.59
777.90	1673.19
778.07	1677.29
778.25	1843.17
778.43	1802.21
778.60	1642.47
778.78	1779.68
778.96	1691.62
779.13	1628.14
779.31	1742.82
779.49	1697.77
779.66	1742.82
779.84	1673.19
780.01	1624.04
780.19	1615.85
780.37	1828.84
780.54	1746.92
780.72	1605.61
780.90	1660.90
781.07	1724.39
781.25	1677.29
781.43	1710.05
781.60	1687.53
781.78	1763.30
781.95	1742.82
782.13	1714.15
782.31	1683.43
782.48	1626.09
782.66	1732.58
782.83	1806.31
783.01	1763.30
783.19	1656.81
783.36	1710.05
783.54	1589.22
783.72	1689.57
783.89	1716.20
784.07	1722.34
784.24	1691.62
784.42	1744.87
784.60	1718.25
784.77	1634.28
784.95	1570.79
785.12	1665.00
785.30	1689.57
785.47	1638.38
785.65	1617.90
785.83	1714.15
786.00	1691.62
786.18	1751.01
786.35	1718.25
786.53	1634.28
786.71	1816.55
786.88	1695.72
787.06	1689.57
787.23	1667.05
787.41	1724.39
787.58	1697.77
787.76	1683.43
787.94	1689.57
788.11	1652.71
788.29	1642.47
788.46	1591.27
788.64	1583.08
788.81	1611.75
788.99	1695.72
789.16	1652.71
789.34	1650.66
789.52	1605.61
789.69	1591.27
789.87	1652.71
790.04	1679.33
790.22	1722.34
790.39	1816.55
790.57	1697.77
790.74	1673.19
790.92	1734.63
791.09	1593.32
791.27	1671.14
791.44	1822.69
791.62	1683.43
791.79	1667.05
791.97	1656.81
792.15	1898.47
792.32	1714.15
792.50	1796.07
792.67	1773.54
792.85	1765.35
793.02	1687.53
793.20	1640.42
793.37	1624.04
793.55	1708.01
793.72	1628.14
793.90	1718.25
794.07	1619.94
794.25	1708.01
794.42	1685.48
794.60	1742.82
794.77	1648.61
794.95	1751.01
795.12	1761.25
795.30	1634.28
795.47	1546.22
795.65	1892.32
795.82	1697.77
796.00	1703.91
796.17	1701.86
796.34	1714.15
796.52	1730.53
796.69	1816.55
796.87	1691.62
797.04	1714.15
797.22	1781.73
797.39	1640.42
797.57	1716.20
797.74	1718.25
797.92	1687.53
798.09	1654.76
798.27	1763.30
798.44	1642.47
798.62	1675.24
798.79	1708.01
798.96	1785.83
799.14	1683.43
799.31	1841.12
799.49	1662.95
799.66	1662.95
799.84	1660.90
800.01	1662.95
800.19	1712.10
800.36	1589.22
800.53	1738.73
800.71	1718.25
800.88	1785.83
801.06	1621.99
801.23	1650.66
801.41	1630.18
801.58	1675.24
801.75	1658.85
801.93	1791.97
802.10	1755.11
802.28	1703.91
802.45	1662.95
802.63	1730.53
802.80	1791.97
802.97	1689.57
803.15	1656.81
803.32	1689.57
803.50	1632.23
803.67	1697.77
803.84	1611.75
804.02	1677.29
804.19	1677.29
804.37	1611.75
804.54	1640.42
804.71	1712.10
804.89	1759.21
805.06	1640.42
805.24	1605.61
805.41	1681.38
805.58	1642.47
805.76	1794.02
805.93	1683.43
806.10	1806.31
806.28	1665.00
806.45	1728.49
806.63	1654.76
806.80	1695.72
806.97	1732.58
807.15	1732.58
807.32	1685.48
807.49	1685.48
807.67	1648.61
807.84	1763.30
808.01	1611.75
808.19	1789.92
808.36	1816.55
808.54	1587.18
808.71	1665.00
808.88	1685.48
809.06	1718.25
809.23	1808.36
809.40	1617.90
809.58	1798.12
809.75	1662.95
809.92	1650.66
810.10	1818.60
810.27	1738.73
810.44	1740.77
810.62	1679.33
810.79	1732.58
810.96	1667.05
811.14	1615.85
811.31	1722.34
811.48	1742.82
811.66	1628.14
811.83	1763.30
812.00	1724.39
812.18	1679.33
812.35	1783.78
812.52	1716.20
812.69	1646.57
812.87	1611.75
813.04	1656.81
813.21	1685.48
813.39	1677.29
813.56	1718.25
813.73	1839.08
813.91	1669.09
814.08	1744.87
814.25	1671.14
814.42	1636.33
814.60	1675.24
814.77	1712.10
814.94	1726.44
815.12	1755.11
815.29	1701.86
815.46	1728.49
815.63	1667.05
815.81	1681.38
815.98	1642.47
816.15	1679.33
816.33	1759.21
816.50	1718.25
816.67	1660.90
816.84	1685.48
817.02	1556.46
817.19	1632.23
817.36	1724.39
817.53	1736.68
817.71	1617.90
817.88	1779.68
818.05	1730.53
818.22	1734.63
818.40	1777.64
818.57	1701.86
818.74	1775.59
818.91	1701.86
819.09	1718.25
819.26	1718.25
819.43	1611.75
819.60	1644.52
819.78	1746.92
819.95	1730.53
820.12	1652.71
820.29	1818.60
820.47	1656.81
820.64	1697.77
820.81	1652.71
820.98	1605.61
821.15	1720.29
821.33	1691.62
821.50	1603.56
821.67	1787.88
821.84	1644.52
822.02	1734.63
822.19	1716.20
822.36	1628.14
822.53	1636.33
822.70	1660.90
822.88	1712.10
823.05	1763.30
823.22	1718.25
823.39	1763.30
823.56	1677.29
823.74	1861.60
823.91	1648.61
824.08	1650.66
824.25	1591.27
824.42	1773.54
824.60	1697.77
824.77	1724.39
824.94	1681.38
825.11	1648.61
825.28	1632.23
825.45	1673.19
825.63	1640.42
825.80	1728.49
825.97	1781.73
826.14	1720.29
826.31	1624.04
826.48	1718.25
826.66	1591.27
826.83	1710.05
827.00	1716.20
827.17	1648.61
827.34	1781.73
827.51	1611.75
827.69	1669.09
827.86	1654.76
828.03	1740.77
828.20	1730.53
828.37	1599.46
828.54	1714.15
828.71	1691.62
828.89	1798.12
829.06	1730.53
829.23	1791.97
829.40	1714.15
829.57	1644.52
829.74	1708.01
829.91	1583.08
830.09	1587.18
830.26	1746.92
830.43	1810.40
830.60	1697.77
830.77	1726.44
830.94	1773.54
831.11	1755.11
831.28	1681.38
831.46	1763.30
831.63	1650.66
831.80	1648.61
831.97	1621.99
832.14	1654.76
832.31	1763.30
832.48	1693.67
832.65	1765.35
832.82	1755.11
832.99	1656.81
833.17	1701.86
833.34	1796.07
833.51	1714.15
833.68	1603.56
833.85	1738.73
834.02	1634.28
834.19	1669.09
834.36	1638.38
834.53	1697.77
834.70	1763.30
834.87	1740.77
835.04	1693.67
835.22	1669.09
835.39	1681.38
835.56	1603.56
835.73	1648.61
835.90	1685.48
836.07	1615.85
836.24	1667.05
836.41	1638.38
836.58	1607.66
836.75	1759.21
836.92	1712.10
837.09	1681.38
837.26	1773.54
837.43	1660.90
837.60	1665.00
837.77	1671.14
837.94	1771.49
838.12	1744.87
838.29	1728.49
838.46	1634.28
838.63	1716.20
838.80	1787.88
838.97	1757.16
839.14	1701.86
839.31	1660.90
839.48	1697.77
839.65	1740.77
839.82	1753.06
839.99	1687.53
840.16	1667.05
840.33	1693.67
840.50	1685.48
840.67	1708.01
840.84	1587.18
841.01	1748.97
841.18	1642.47
841.35	1695.72
841.52	1812.45
841.69	1802.21
841.86	1699.81
842.03	1720.29
842.20	1740.77
842.37	1613.80
842.54	1765.35
842.71	1683.43
842.88	1642.47
843.05	1712.10
843.22	1714.15
843.39	1769.44
843.56	1681.38
843.73	1689.57
843.90	1748.97
844.07	1615.85
844.24	1742.82
844.41	1742.82
844.58	1660.90
844.75	1699.81
844.92	1697.77
845.09	1738.73
845.26	1626.09
845.43	1685.48
845.60	1701.86
845.77	1769.44
845.94	1726.44
846.10	1740.77
846.27	1642.47
846.44	1593.32
846.61	1716.20
846.78	1763.30
846.95	1746.92
847.12	1699.81
847.29	1755.11
847.46	1652.71
847.63	1712.10
847.80	1671.14
847.97	1751.01
848.14	1853.41
848.31	1744.87
848.48	1681.38
848.65	1701.86
848.82	1683.43
848.98	1765.35
849.15	1624.04
849.32	1730.53
849.49	1718.25
849.66	1671.14
849.83	1669.09
850.00	1716.20
850.17	1703.91
850.34	1689.57
850.51	1693.67
850.68	1673.19
850.85	1769.44
851.01	1748.97
851.18	1619.94
851.35	1697.77
851.52	1683.43
851.69	1816.55
851.86	1630.18
852.03	1681.38
852.20	1705.96
852.37	1703.91
852.53	1605.61
852.70	1654.76
852.87	1669.09
853.04	1718.25
853.21	1669.09
853.38	1710.05
853.55	1734.63
853.72	1789.92
853.89	1654.76
854.05	1630.18
854.22	1648.61
854.39	1687.53
854.56	1681.38
854.73	1748.97
854.90	1626.09
855.07	1726.44
855.23	1658.85
855.40	1658.85
855.57	1662.95
855.74	1644.52
855.91	1877.99
856.08	1642.47
856.25	1601.51
856.41	1691.62
856.58	1730.53
856.75	1677.29
856.92	1662.95
857.09	1728.49
857.26	1626.09
857.42	1673.19
857.59	1744.87
857.76	1724.39
857.93	1716.20
858.10	1755.11
858.27	1640.42
858.43	1648.61
858.60	1718.25
858.77	1681.38
858.94	1675.24
859.11	1759.21
859.27	1621.99
859.44	1744.87
859.61	1804.26
859.78	1650.66
859.95	1667.05
860.12	1681.38
860.28	1857.51
860.45	1804.26
860.62	1697.77
860.79	1691.62
860.95	1699.81
861.12	1693.67
861.29	1683.43
861.46	1679.33
861.63	1681.38
861.79	1624.04
861.96	1644.52
862.13	1636.33
862.30	1683.43
862.47	1665.00
862.63	1648.61
862.80	1775.59
862.97	1796.07
863.14	1667.05
863.30	1675.24
863.47	1732.58
863.64	1771.49
863.81	1726.44
863.97	1742.82
864.14	1669.09
864.31	1656.81
864.48	1671.14
864.65	1730.53
864.81	1734.63
864.98	1804.26
865.15	1746.92
865.32	1759.21
865.48	1796.07
865.65	1767.40
865.82	1710.05
865.98	1730.53
866.15	1722.34
866.32	1615.85
866.49	1685.48
866.65	1767.40
866.82	1624.04
866.99	1726.44
867.16	1650.66
867.32	1609.70
867.49	1693.67
867.66	1636.33
867.83	1751.01
867.99	1619.94
868.16	1589.22
868.33	1656.81
868.49	1708.01
868.66	1697.77
868.83	1701.86
868.99	1730.53
869.16	1685.48
869.33	1763.30
869.50	1703.91
869.66	1644.52
869.83	1708.01
870.00	1658.85
870.16	1767.40
870.33	1751.01
870.50	1701.86
870.66	1746.92
870.83	1861.60
871.00	1665.00
871.17	1656.81
871.33	1701.86
871.50	1644.52
871.67	1687.53
871.83	1712.10
872.00	1837.03
872.17	1720.29
872.33	1816.55
872.50	1830.88
872.67	1685.48
872.83	1697.77
873.00	1806.31
873.17	1693.67
873.33	1718.25
873.50	1783.78
873.67	1609.70
873.83	1693.67
874.00	1685.48
874.16	1816.55
874.33	1761.25
874.50	1691.62
874.66	1681.38
874.83	1632.23
875.00	1730.53
875.16	1849.32
875.33	1730.53
875.50	1562.60
875.66	1648.61
875.83	1697.77
875.99	1763.30
876.16	1673.19
876.33	1589.22
876.49	1634.28
876.66	1677.29
876.83	1646.57
876.99	1597.42
877.16	1724.39
877.32	1660.90
877.49	1693.67
877.66	1714.15
877.82	1794.02
877.99	1789.92
878.15	1742.82
878.32	1755.11
878.49	1675.24
878.65	1648.61
878.82	1804.26
878.98	1660.90
879.15	1667.05
879.32	1755.11
879.48	1697.77
879.65	1583.08
879.81	1636.33
879.98	1710.05
880.15	1650.66
880.31	1701.86
880.48	1630.18
880.64	1714.15
880.81	1748.97
880.97	1712.10
881.14	1753.06
881.31	1652.71
881.47	1820.64
881.64	1683.43
881.80	1619.94
881.97	1716.20
882.13	1802.21
882.30	1628.14
882.47	1650.66
882.63	1677.29
882.80	1697.77
882.96	1665.00
883.13	1789.92
883.29	1687.53
883.46	1761.25
883.62	1812.45
883.79	1689.57
883.95	1777.64
884.12	1738.73
884.29	1722.34
884.45	1724.39
884.62	1695.72
884.78	1636.33
884.95	1773.54
885.11	1646.57
885.28	1742.82
885.44	1708.01
885.61	1777.64
885.77	1724.39
885.94	1728.49
886.10	1701.86
886.27	1742.82
886.43	1751.01
886.60	1841.12
886.76	1654.76
886.93	1632.23
887.09	1660.90
887.26	1687.53
887.42	1798.12
887.59	1722.34
887.75	1808.36
887.92	1734.63
888.08	1771.49
888.25	1740.77
888.41	1634.28
888.58	1662.95
888.74	1605.61
888.91	1685.48
>>>>>End Processed Spectral Data<<<<<
