SpectraSuite Data File
++++++++++++++++++++++++++++++++++++
Date: Mon Jun 06 13:06:37 CEST 2016
User: root
Dark Spectrum Present: No
Reference Spectrum Present: No
Number of Sampled Component Spectra: 1
Spectrometers: USB4C02835
Integration Time (usec): 100000 (USB4C02835)
Spectra Averaged: 1 (USB4C02835)
Boxcar Smoothing: 0 (USB4C02835)
Correct for Electrical Dark: No (USB4C02835)
Strobe/Lamp Enabled: No (USB4C02835)
Correct for Detector Non-linearity: No (USB4C02835)
Correct for Stray Light: No (USB4C02835)
Number of Pixels in Processed Spectrum: 3648
>>>>>Begin Processed Spectral Data<<<<<
177.47	1462.25
177.69	1462.25
177.91	1462.25
178.13	1474.54
178.36	1445.87
178.58	1662.95
178.80	1708.01
179.02	1646.57
179.24	1595.37
179.46	1581.03
179.68	1769.44
179.90	1759.21
180.13	1705.96
180.35	1695.72
180.57	1652.71
180.79	1654.76
181.01	1708.01
181.23	1798.12
181.45	1802.21
181.67	1652.71
181.90	1691.62
182.12	1652.71
182.34	1656.81
182.56	1652.71
182.78	1699.81
183.00	1746.92
183.22	1761.25
183.44	1585.13
183.66	1843.17
183.89	1734.63
184.11	1646.57
184.33	1728.49
184.55	1804.26
184.77	1748.97
184.99	1699.81
185.21	1650.66
185.43	1812.45
185.65	1671.14
185.87	1742.82
186.10	1837.03
186.32	1830.88
186.54	1667.05
186.76	1718.25
186.98	1755.11
187.20	1683.43
187.42	1673.19
187.64	1685.48
187.86	1687.53
188.08	1781.73
188.30	1611.75
188.52	1658.85
188.75	1814.50
188.97	1814.50
189.19	1669.09
189.41	1644.52
189.63	1804.26
189.85	1669.09
190.07	1597.42
190.29	1654.76
190.51	1769.44
190.73	1673.19
190.95	1748.97
191.17	1675.24
191.39	1595.37
191.61	1691.62
191.84	1671.14
192.06	1738.73
192.28	1691.62
192.50	1824.74
192.72	1681.38
192.94	1665.00
193.16	1720.29
193.38	1701.86
193.60	1697.77
193.82	1677.29
194.04	1834.98
194.26	1738.73
194.48	1703.91
194.70	1611.75
194.92	1621.99
195.14	1763.30
195.36	1683.43
195.58	1734.63
195.80	1689.57
196.02	1679.33
196.24	1699.81
196.46	1759.21
196.69	1650.66
196.91	1791.97
197.13	1583.08
197.35	1630.18
197.57	1830.88
197.79	1730.53
198.01	1687.53
198.23	1757.16
198.45	1726.44
198.67	1714.15
198.89	1621.99
199.11	1681.38
199.33	1705.96
199.55	1562.60
199.77	1748.97
199.99	1746.92
200.21	1701.86
200.43	1740.77
200.65	1597.42
200.87	1630.18
201.09	1652.71
201.31	1626.09
201.53	1665.00
201.75	1708.01
201.97	1734.63
202.19	1701.86
202.41	1804.26
202.63	1863.65
202.85	1773.54
203.07	1687.53
203.29	1710.05
203.51	1755.11
203.73	1636.33
203.95	1753.06
204.17	1671.14
204.39	1724.39
204.61	1722.34
204.83	1632.23
205.05	1736.68
205.27	1722.34
205.49	1771.49
205.71	1726.44
205.93	1611.75
206.15	1671.14
206.37	1675.24
206.59	1675.24
206.81	1585.13
207.03	1652.71
207.25	1624.04
207.47	1744.87
207.69	1742.82
207.91	1787.88
208.13	1816.55
208.34	1599.46
208.56	1652.71
208.78	1724.39
209.00	1650.66
209.22	1640.42
209.44	1636.33
209.66	1708.01
209.88	1751.01
210.10	1726.44
210.32	1777.64
210.54	1789.92
210.76	1710.05
210.98	1718.25
211.20	1624.04
211.42	1755.11
211.64	1740.77
211.86	1726.44
212.08	1720.29
212.30	1755.11
212.52	1642.47
212.74	1722.34
212.96	1705.96
213.17	1757.16
213.39	1787.88
213.61	1816.55
213.83	1757.16
214.05	1603.56
214.27	1738.73
214.49	1609.70
214.71	1691.62
214.93	1783.78
215.15	1654.76
215.37	1736.68
215.59	1640.42
215.81	1771.49
216.03	1806.31
216.24	1718.25
216.46	1615.85
216.68	1740.77
216.90	1722.34
217.12	1730.53
217.34	1710.05
217.56	1724.39
217.78	1769.44
218.00	1732.58
218.22	1675.24
218.44	1683.43
218.66	1765.35
218.87	1810.40
219.09	1753.06
219.31	1765.35
219.53	1677.29
219.75	1667.05
219.97	1683.43
220.19	1644.52
220.41	1673.19
220.63	1802.21
220.85	1671.14
221.06	1636.33
221.28	1736.68
221.50	1751.01
221.72	1644.52
221.94	1705.96
222.16	1650.66
222.38	1712.10
222.60	1646.57
222.82	1712.10
223.03	1751.01
223.25	1665.00
223.47	1771.49
223.69	1810.40
223.91	1705.96
224.13	1751.01
224.35	1689.57
224.57	1759.21
224.78	1761.25
225.00	1722.34
225.22	1744.87
225.44	1683.43
225.66	1744.87
225.88	1634.28
226.10	1746.92
226.32	1738.73
226.53	1746.92
226.75	1654.76
226.97	1665.00
227.19	1701.86
227.41	1611.75
227.63	1728.49
227.85	1626.09
228.06	1746.92
228.28	1677.29
228.50	1765.35
228.72	1646.57
228.94	1621.99
229.16	1578.98
229.37	1599.46
229.59	1660.90
229.81	1734.63
230.03	1675.24
230.25	1632.23
230.47	1568.74
230.69	1646.57
230.90	1785.83
231.12	1669.09
231.34	1744.87
231.56	1769.44
231.78	1527.78
232.00	1703.91
232.21	1722.34
232.43	1638.38
232.65	1605.61
232.87	1794.02
233.09	1591.27
233.30	1691.62
233.52	1693.67
233.74	1742.82
233.96	1662.95
234.18	1656.81
234.40	1697.77
234.61	1824.74
234.83	1642.47
235.05	1599.46
235.27	1798.12
235.49	1822.69
235.70	1640.42
235.92	1722.34
236.14	1757.16
236.36	1845.22
236.58	1628.14
236.79	1777.64
237.01	1652.71
237.23	1701.86
237.45	1818.60
237.67	1712.10
237.88	1751.01
238.10	1755.11
238.32	1636.33
238.54	1732.58
238.76	1660.90
238.97	1591.27
239.19	1626.09
239.41	1771.49
239.63	1751.01
239.85	1726.44
240.06	1693.67
240.28	1617.90
240.50	1773.54
240.72	1712.10
240.93	1705.96
241.15	1789.92
241.37	1726.44
241.59	1781.73
241.81	1695.72
242.02	1718.25
242.24	1730.53
242.46	1708.01
242.68	1701.86
242.89	1677.29
243.11	1820.64
243.33	1648.61
243.55	1734.63
243.76	1734.63
243.98	1652.71
244.20	1665.00
244.42	1689.57
244.64	1710.05
244.85	1605.61
245.07	1599.46
245.29	1808.36
245.51	1718.25
245.72	1712.10
245.94	1720.29
246.16	1708.01
246.38	1798.12
246.59	1673.19
246.81	1615.85
247.03	1660.90
247.24	1642.47
247.46	1714.15
247.68	1779.68
247.90	1693.67
248.11	1595.37
248.33	1781.73
248.55	1634.28
248.77	1701.86
248.98	1740.77
249.20	1808.36
249.42	1716.20
249.64	1689.57
249.85	1675.24
250.07	1677.29
250.29	1718.25
250.50	1802.21
250.72	1593.32
250.94	1767.40
251.16	1841.12
251.37	1779.68
251.59	1767.40
251.81	1789.92
252.02	1724.39
252.24	1720.29
252.46	1824.74
252.68	1640.42
252.89	1685.48
253.11	1634.28
253.33	1798.12
253.54	1771.49
253.76	1605.61
253.98	1720.29
254.20	1703.91
254.41	1687.53
254.63	1634.28
254.85	1638.38
255.06	1783.78
255.28	1722.34
255.50	1718.25
255.71	1591.27
255.93	1669.09
256.15	1617.90
256.36	1714.15
256.58	1665.00
256.80	1675.24
257.02	1658.85
257.23	1697.77
257.45	1705.96
257.67	1783.78
257.88	1656.81
258.10	1791.97
258.32	1689.57
258.53	1714.15
258.75	1773.54
258.97	1703.91
259.18	1730.53
259.40	1742.82
259.62	1808.36
259.83	1767.40
260.05	1773.54
260.27	1949.67
260.48	1789.92
260.70	1697.77
260.92	1701.86
261.13	1710.05
261.35	1652.71
261.57	1658.85
261.78	1621.99
262.00	1685.48
262.22	1613.80
262.43	1648.61
262.65	1691.62
262.86	1710.05
263.08	1851.36
263.30	1693.67
263.51	1638.38
263.73	1695.72
263.95	1816.55
264.16	1681.38
264.38	1691.62
264.60	1679.33
264.81	1738.73
265.03	1783.78
265.25	1816.55
265.46	1703.91
265.68	1710.05
265.89	1732.58
266.11	1654.76
266.33	1789.92
266.54	1785.83
266.76	1722.34
266.98	1714.15
267.19	1724.39
267.41	1787.88
267.62	1789.92
267.84	1568.74
268.06	1662.95
268.27	1716.20
268.49	1753.06
268.70	1730.53
268.92	1708.01
269.14	1693.67
269.35	1660.90
269.57	1687.53
269.79	1679.33
270.00	1697.77
270.22	1761.25
270.43	1734.63
270.65	1636.33
270.87	1732.58
271.08	1730.53
271.30	1771.49
271.51	1617.90
271.73	1714.15
271.95	1818.60
272.16	1665.00
272.38	1773.54
272.59	1677.29
272.81	1714.15
273.02	1759.21
273.24	1712.10
273.46	1763.30
273.67	1619.94
273.89	1681.38
274.10	1675.24
274.32	1710.05
274.54	1755.11
274.75	1714.15
274.97	1638.38
275.18	1716.20
275.40	1710.05
275.61	1693.67
275.83	1665.00
276.05	1703.91
276.26	1716.20
276.48	1689.57
276.69	1605.61
276.91	1662.95
277.12	1751.01
277.34	1748.97
277.55	1806.31
277.77	1615.85
277.99	1716.20
278.20	1636.33
278.42	1710.05
278.63	1660.90
278.85	1665.00
279.06	1665.00
279.28	1742.82
279.49	1716.20
279.71	1708.01
279.93	1683.43
280.14	1748.97
280.36	1634.28
280.57	1712.10
280.79	1796.07
281.00	1665.00
281.22	1634.28
281.43	1738.73
281.65	1617.90
281.86	1640.42
282.08	1679.33
282.29	1841.12
282.51	1628.14
282.73	1685.48
282.94	1556.46
283.16	1738.73
283.37	1861.60
283.59	1615.85
283.80	1738.73
284.02	1642.47
284.23	1687.53
284.45	1652.71
284.66	1648.61
284.88	1726.44
285.09	1712.10
285.31	1736.68
285.52	1773.54
285.74	1574.89
285.95	1699.81
286.17	1748.97
286.38	1714.15
286.60	1701.86
286.81	1636.33
287.03	1660.90
287.24	1689.57
287.46	1820.64
287.67	1761.25
287.89	1832.93
288.10	1654.76
288.32	1714.15
288.53	1798.12
288.75	1669.09
288.96	1703.91
289.18	1644.52
289.39	1671.14
289.61	1722.34
289.82	1853.41
290.04	1839.08
290.25	1638.38
290.47	1656.81
290.68	1734.63
290.90	1779.68
291.11	1599.46
291.33	1798.12
291.54	1556.46
291.76	1636.33
291.97	1677.29
292.18	1693.67
292.40	1648.61
292.61	1640.42
292.83	1847.27
293.04	1718.25
293.26	1650.66
293.47	1738.73
293.69	1662.95
293.90	1746.92
294.12	1738.73
294.33	1658.85
294.55	1681.38
294.76	1714.15
294.97	1773.54
295.19	1873.89
295.40	1759.21
295.62	1738.73
295.83	1738.73
296.05	1738.73
296.26	1734.63
296.48	1619.94
296.69	1667.05
296.90	1665.00
297.12	1828.84
297.33	1794.02
297.55	1689.57
297.76	1685.48
297.98	1751.01
298.19	1665.00
298.41	1726.44
298.62	1662.95
298.83	1748.97
299.05	1736.68
299.26	1665.00
299.48	1603.56
299.69	1736.68
299.90	1732.58
300.12	1683.43
300.33	1771.49
300.55	1660.90
300.76	1804.26
300.98	1652.71
301.19	1726.44
301.40	1685.48
301.62	1710.05
301.83	1771.49
302.05	1673.19
302.26	1669.09
302.47	1771.49
302.69	1656.81
302.90	1685.48
303.12	1558.50
303.33	1705.96
303.54	1877.99
303.76	1611.75
303.97	1736.68
304.19	1779.68
304.40	1695.72
304.61	1730.53
304.83	1796.07
305.04	1777.64
305.26	1742.82
305.47	1708.01
305.68	1691.62
305.90	1654.76
306.11	1708.01
306.33	1742.82
306.54	1636.33
306.75	1626.09
306.97	1691.62
307.18	1693.67
307.39	1560.55
307.61	1697.77
307.82	1634.28
308.04	1722.34
308.25	1679.33
308.46	1675.24
308.68	1714.15
308.89	1740.77
309.10	1832.93
309.32	1734.63
309.53	1759.21
309.74	1693.67
309.96	1619.94
310.17	1771.49
310.39	1716.20
310.60	1740.77
310.81	1755.11
311.03	1648.61
311.24	1730.53
311.45	1658.85
311.67	1800.16
311.88	1681.38
312.09	1697.77
312.31	1693.67
312.52	1685.48
312.73	1693.67
312.95	1564.65
313.16	1607.66
313.37	1794.02
313.59	1705.96
313.80	1720.29
314.01	1816.55
314.23	1763.30
314.44	1718.25
314.65	1716.20
314.87	1662.95
315.08	1705.96
315.29	1722.34
315.51	1656.81
315.72	1644.52
315.93	1808.36
316.15	1765.35
316.36	1679.33
316.57	1777.64
316.79	1671.14
317.00	1683.43
317.21	1757.16
317.43	1658.85
317.64	1667.05
317.85	1607.66
318.07	1669.09
318.28	1705.96
318.49	1757.16
318.70	1925.09
318.92	1796.07
319.13	1832.93
319.34	1841.12
319.56	1759.21
319.77	1736.68
319.98	1806.31
320.20	1744.87
320.41	1730.53
320.62	1748.97
320.83	1705.96
321.05	1902.56
321.26	1601.51
321.47	1671.14
321.69	1746.92
321.90	1652.71
322.11	1714.15
322.32	1695.72
322.54	1724.39
322.75	1683.43
322.96	1847.27
323.18	1677.29
323.39	1552.36
323.60	1593.32
323.81	1679.33
324.03	1665.00
324.24	1718.25
324.45	1669.09
324.66	1714.15
324.88	1693.67
325.09	1806.31
325.30	1791.97
325.52	1697.77
325.73	1683.43
325.94	1658.85
326.15	1642.47
326.37	1652.71
326.58	1746.92
326.79	1869.80
327.00	1624.04
327.22	1695.72
327.43	1691.62
327.64	1601.51
327.85	1685.48
328.07	1800.16
328.28	1853.41
328.49	1632.23
328.70	1753.06
328.92	1601.51
329.13	1656.81
329.34	1701.86
329.55	1826.79
329.76	1740.77
329.98	1617.90
330.19	1832.93
330.40	1710.05
330.61	1751.01
330.83	1802.21
331.04	1609.70
331.25	1689.57
331.46	1648.61
331.68	1638.38
331.89	1761.25
332.10	1726.44
332.31	1576.94
332.52	1687.53
332.74	1798.12
332.95	1638.38
333.16	1689.57
333.37	1748.97
333.58	1656.81
333.80	1611.75
334.01	1617.90
334.22	1767.40
334.43	1591.27
334.64	1699.81
334.86	1658.85
335.07	1658.85
335.28	1796.07
335.49	1603.56
335.70	1720.29
335.92	1761.25
336.13	1802.21
336.34	1759.21
336.55	1740.77
336.76	1787.88
336.98	1552.36
337.19	1660.90
337.40	1837.03
337.61	1888.23
337.82	1597.42
338.04	1757.16
338.25	1642.47
338.46	1693.67
338.67	1722.34
338.88	1648.61
339.09	1642.47
339.31	1703.91
339.52	1740.77
339.73	1624.04
339.94	1646.57
340.15	1748.97
340.36	1708.01
340.58	1693.67
340.79	1601.51
341.00	1671.14
341.21	1640.42
341.42	1779.68
341.63	1634.28
341.85	1697.77
342.06	1695.72
342.27	1611.75
342.48	1767.40
342.69	1529.83
342.90	1708.01
343.12	1685.48
343.33	1779.68
343.54	1761.25
343.75	1773.54
343.96	1681.38
344.17	1656.81
344.38	1712.10
344.60	1632.23
344.81	1675.24
345.02	1693.67
345.23	1722.34
345.44	1765.35
345.65	1759.21
345.86	1656.81
346.07	1724.39
346.29	1628.14
346.50	1722.34
346.71	1746.92
346.92	1798.12
347.13	1767.40
347.34	1691.62
347.55	1716.20
347.76	1732.58
347.98	1685.48
348.19	1648.61
348.40	1701.86
348.61	1656.81
348.82	1814.50
349.03	1773.54
349.24	1619.94
349.45	1748.97
349.66	1574.89
349.88	1718.25
350.09	1722.34
350.30	1871.84
350.51	1746.92
350.72	1683.43
350.93	1665.00
351.14	1628.14
351.35	1716.20
351.56	1712.10
351.77	1765.35
351.99	1771.49
352.20	1806.31
352.41	1777.64
352.62	1609.70
352.83	1662.95
353.04	1665.00
353.25	1642.47
353.46	1740.77
353.67	1841.12
353.88	1628.14
354.09	1726.44
354.30	1658.85
354.52	1796.07
354.73	1726.44
354.94	1656.81
355.15	1667.05
355.36	1771.49
355.57	1697.77
355.78	1718.25
355.99	1746.92
356.20	1673.19
356.41	1732.58
356.62	1687.53
356.83	1796.07
357.04	1746.92
357.25	1599.46
357.46	1679.33
357.68	1671.14
357.89	1607.66
358.10	1755.11
358.31	1701.86
358.52	1761.25
358.73	1708.01
358.94	1615.85
359.15	1619.94
359.36	1730.53
359.57	1628.14
359.78	1638.38
359.99	1734.63
360.20	1630.18
360.41	1656.81
360.62	1673.19
360.83	1789.92
361.04	1734.63
361.25	1697.77
361.46	1710.05
361.67	1814.50
361.88	1716.20
362.09	1679.33
362.30	1753.06
362.51	1701.86
362.72	1724.39
362.93	1730.53
363.14	1746.92
363.35	1677.29
363.56	1732.58
363.78	1705.96
363.99	1712.10
364.20	1648.61
364.41	1712.10
364.62	1771.49
364.83	1685.48
365.04	1671.14
365.25	1722.34
365.46	1830.88
365.67	1648.61
365.88	1640.42
366.09	1683.43
366.30	1714.15
366.51	1769.44
366.72	1626.09
366.93	1662.95
367.14	1685.48
367.35	1820.64
367.56	1705.96
367.77	1794.02
367.98	1783.78
368.18	1714.15
368.39	1755.11
368.60	1624.04
368.81	1722.34
369.02	1714.15
369.23	1667.05
369.44	1540.07
369.65	1693.67
369.86	1761.25
370.07	1726.44
370.28	1642.47
370.49	1718.25
370.70	1742.82
370.91	1673.19
371.12	1632.23
371.33	1761.25
371.54	1679.33
371.75	1808.36
371.96	1636.33
372.17	1724.39
372.38	1673.19
372.59	1777.64
372.80	1677.29
373.01	1722.34
373.22	1724.39
373.43	1644.52
373.64	1546.22
373.85	1771.49
374.06	1783.78
374.26	1673.19
374.47	1771.49
374.68	1751.01
374.89	1718.25
375.10	1726.44
375.31	1763.30
375.52	1703.91
375.73	1740.77
375.94	1617.90
376.15	1810.40
376.36	1642.47
376.57	1679.33
376.78	1630.18
376.99	1710.05
377.20	1771.49
377.40	1628.14
377.61	1834.98
377.82	1652.71
378.03	1767.40
378.24	1746.92
378.45	1640.42
378.66	1738.73
378.87	1624.04
379.08	1578.98
379.29	1671.14
379.50	1769.44
379.71	1757.16
379.91	1808.36
380.12	1701.86
380.33	1589.22
380.54	1722.34
380.75	1656.81
380.96	1701.86
381.17	1755.11
381.38	1787.88
381.59	1685.48
381.80	1767.40
382.00	1888.23
382.21	1710.05
382.42	1761.25
382.63	1834.98
382.84	1665.00
383.05	1746.92
383.26	1746.92
383.47	1724.39
383.68	1740.77
383.88	1724.39
384.09	1640.42
384.30	1746.92
384.51	1736.68
384.72	1683.43
384.93	1585.13
385.14	1693.67
385.35	1718.25
385.55	1669.09
385.76	1767.40
385.97	1716.20
386.18	1642.47
386.39	1720.29
386.60	1718.25
386.81	1730.53
387.02	1624.04
387.22	1605.61
387.43	1871.84
387.64	1806.31
387.85	1839.08
388.06	2209.76
388.27	4249.54
388.48	6631.32
388.68	8329.09
388.89	9570.16
389.10	9701.23
389.31	8609.66
389.52	7622.54
389.73	6786.97
389.93	6334.37
390.14	5822.38
390.35	5285.81
390.56	4550.59
390.77	3762.12
390.98	3002.32
391.18	2496.47
391.39	2123.74
391.60	1791.97
391.81	1867.75
392.02	1716.20
392.23	1834.98
392.43	1669.09
392.64	1777.64
392.85	1714.15
393.06	1794.02
393.27	1679.33
393.47	1654.76
393.68	1748.97
393.89	1624.04
394.10	1744.87
394.31	1673.19
394.52	1673.19
394.72	1705.96
394.93	1791.97
395.14	1654.76
395.35	1697.77
395.56	1652.71
395.76	1720.29
395.97	1839.08
396.18	1775.59
396.39	1826.79
396.60	2015.20
396.80	1929.19
397.01	1845.22
397.22	1853.41
397.43	1761.25
397.64	1671.14
397.84	1808.36
398.05	1859.56
398.26	1730.53
398.47	1744.87
398.67	1796.07
398.88	1724.39
399.09	1777.64
399.30	1665.00
399.51	1736.68
399.71	1654.76
399.92	1785.83
400.13	1708.01
400.34	1710.05
400.54	1691.62
400.75	1787.88
400.96	1775.59
401.17	1861.60
401.37	1755.11
401.58	1681.38
401.79	1695.72
402.00	1853.41
402.21	2025.44
402.41	1943.52
402.62	1974.24
402.83	1980.39
403.04	1976.29
403.24	2062.30
403.45	1816.55
403.66	1857.51
403.87	1937.38
404.07	1849.32
404.28	1865.70
404.49	1945.57
404.70	1816.55
404.90	1818.60
405.11	1781.73
405.32	1720.29
405.52	1687.53
405.73	1705.96
405.94	1650.66
406.15	1675.24
406.35	1785.83
406.56	1689.57
406.77	1765.35
406.98	1759.21
407.18	1691.62
407.39	1738.73
407.60	1675.24
407.80	1732.58
408.01	1683.43
408.22	1665.00
408.43	1648.61
408.63	1794.02
408.84	1738.73
409.05	1740.77
409.25	1646.57
409.46	1611.75
409.67	1658.85
409.88	1691.62
410.08	1746.92
410.29	1714.15
410.50	1724.39
410.70	1667.05
410.91	1665.00
411.12	1689.57
411.32	1730.53
411.53	1658.85
411.74	1791.97
411.95	1783.78
412.15	1742.82
412.36	1767.40
412.57	1791.97
412.77	1771.49
412.98	1669.09
413.19	1720.29
413.39	1804.26
413.60	1767.40
413.81	1806.31
414.01	1603.56
414.22	1748.97
414.43	1738.73
414.63	1677.29
414.84	1736.68
415.05	1767.40
415.25	1617.90
415.46	1761.25
415.67	1710.05
415.87	1716.20
416.08	1738.73
416.29	1705.96
416.49	1748.97
416.70	1677.29
416.91	1685.48
417.11	1615.85
417.32	1720.29
417.53	1779.68
417.73	1703.91
417.94	1691.62
418.15	1714.15
418.35	1658.85
418.56	1718.25
418.77	1871.84
418.97	1732.58
419.18	1695.72
419.38	1587.18
419.59	1654.76
419.80	1761.25
420.00	1642.47
420.21	1718.25
420.42	1742.82
420.62	1720.29
420.83	1683.43
421.04	1697.77
421.24	1671.14
421.45	1738.73
421.65	1728.49
421.86	1689.57
422.07	1693.67
422.27	1730.53
422.48	1685.48
422.69	1685.48
422.89	1748.97
423.10	1757.16
423.30	1611.75
423.51	1746.92
423.72	1701.86
423.92	1693.67
424.13	1687.53
424.33	1712.10
424.54	1767.40
424.75	1724.39
424.95	1785.83
425.16	1728.49
425.36	1701.86
425.57	1740.77
425.78	1708.01
425.98	1722.34
426.19	1716.20
426.39	1658.85
426.60	1808.36
426.81	1796.07
427.01	1693.67
427.22	1624.04
427.42	1619.94
427.63	1685.48
427.83	1734.63
428.04	1849.32
428.25	1822.69
428.45	1839.08
428.66	1697.77
428.86	1615.85
429.07	1681.38
429.28	1703.91
429.48	1748.97
429.69	1665.00
429.89	1720.29
430.10	1578.98
430.30	1779.68
430.51	1755.11
430.71	1671.14
430.92	1693.67
431.13	1683.43
431.33	1648.61
431.54	1687.53
431.74	1767.40
431.95	1832.93
432.15	1650.66
432.36	1695.72
432.56	1755.11
432.77	1867.75
432.98	1789.92
433.18	1806.31
433.39	1619.94
433.59	1714.15
433.80	1826.79
434.00	1824.74
434.21	1720.29
434.41	1648.61
434.62	1843.17
434.82	1611.75
435.03	1738.73
435.23	1714.15
435.44	1642.47
435.64	1796.07
435.85	1753.06
436.06	1744.87
436.26	1740.77
436.47	1677.29
436.67	1638.38
436.88	1646.57
437.08	1767.40
437.29	1802.21
437.49	1716.20
437.70	1751.01
437.90	1787.88
438.11	1789.92
438.31	1740.77
438.52	1863.65
438.72	1837.03
438.93	1877.99
439.13	1796.07
439.34	1798.12
439.54	1779.68
439.75	1746.92
439.95	1734.63
440.16	1757.16
440.36	1712.10
440.57	1832.93
440.77	1746.92
440.98	1687.53
441.18	1718.25
441.39	1705.96
441.59	1691.62
441.80	1851.36
442.00	1714.15
442.21	1732.58
442.41	1675.24
442.62	1716.20
442.82	1699.81
443.02	1646.57
443.23	1734.63
443.43	1779.68
443.64	1820.64
443.84	1722.34
444.05	1851.36
444.25	1695.72
444.46	1714.15
444.66	1677.29
444.87	1808.36
445.07	1697.77
445.28	1740.77
445.48	1738.73
445.69	1818.60
445.89	1804.26
446.09	1742.82
446.30	1994.72
446.50	2611.16
446.71	3719.11
446.91	4286.40
447.12	4708.28
447.32	4880.31
447.53	4329.41
447.73	3837.89
447.93	3491.79
448.14	3334.09
448.34	3219.41
448.55	2875.35
448.75	2805.72
448.96	2727.89
449.16	2365.40
449.36	2353.12
449.57	2031.58
449.77	1857.51
449.98	1785.83
450.18	1796.07
450.39	1886.18
450.59	1791.97
450.79	1662.95
451.00	1710.05
451.20	1689.57
451.41	1726.44
451.61	1802.21
451.81	1714.15
452.02	1730.53
452.22	1738.73
452.43	1771.49
452.63	1658.85
452.84	1693.67
453.04	1761.25
453.24	1802.21
453.45	1667.05
453.65	1746.92
453.86	1738.73
454.06	1736.68
454.26	1771.49
454.47	1720.29
454.67	1837.03
454.87	1779.68
455.08	1736.68
455.28	1775.59
455.49	1808.36
455.69	1701.86
455.89	1814.50
456.10	1771.49
456.30	1746.92
456.51	1730.53
456.71	1732.58
456.91	1734.63
457.12	1751.01
457.32	1734.63
457.52	1697.77
457.73	1765.35
457.93	1773.54
458.14	1665.00
458.34	1667.05
458.54	1724.39
458.75	1738.73
458.95	1726.44
459.15	1751.01
459.36	1753.06
459.56	1691.62
459.76	1816.55
459.97	1685.48
460.17	1720.29
460.37	1816.55
460.58	1773.54
460.78	1740.77
460.99	1746.92
461.19	1652.71
461.39	1710.05
461.60	1732.58
461.80	1841.12
462.00	1673.19
462.21	1714.15
462.41	1656.81
462.61	1710.05
462.82	1605.61
463.02	1738.73
463.22	1697.77
463.43	1884.13
463.63	1796.07
463.83	1914.85
464.04	1796.07
464.24	1714.15
464.44	1667.05
464.64	1683.43
464.85	1755.11
465.05	1783.78
465.25	1718.25
465.46	1660.90
465.66	1753.06
465.86	1771.49
466.07	1710.05
466.27	1646.57
466.47	1738.73
466.68	1621.99
466.88	1824.74
467.08	1744.87
467.29	1773.54
467.49	1753.06
467.69	1740.77
467.89	1775.59
468.10	1703.91
468.30	1689.57
468.50	1806.31
468.71	1757.16
468.91	1593.32
469.11	1832.93
469.31	1789.92
469.52	1662.95
469.72	1804.26
469.92	1820.64
470.13	1789.92
470.33	1748.97
470.53	1828.84
470.73	2056.16
470.94	2260.96
471.14	2365.40
471.34	2531.29
471.54	2385.88
471.75	2166.75
471.95	2166.75
472.15	2058.21
472.36	2109.41
472.56	2017.25
472.76	1986.53
472.96	2015.20
473.17	1920.99
473.37	1849.32
473.57	1783.78
473.77	1841.12
473.98	1724.39
474.18	1689.57
474.38	1832.93
474.58	1722.34
474.79	1675.24
474.99	1746.92
475.19	1740.77
475.39	1687.53
475.60	1714.15
475.80	1734.63
476.00	1755.11
476.20	1718.25
476.41	1714.15
476.61	1900.52
476.81	1738.73
477.01	1638.38
477.21	1845.22
477.42	1771.49
477.62	1636.33
477.82	1705.96
478.02	1720.29
478.23	1775.59
478.43	1640.42
478.63	1685.48
478.83	1753.06
479.03	1755.11
479.24	1859.56
479.44	1847.27
479.64	1656.81
479.84	1714.15
480.04	1658.85
480.25	1763.30
480.45	1630.18
480.65	1699.81
480.85	1779.68
481.06	1652.71
481.26	1767.40
481.46	1736.68
481.66	1630.18
481.86	1640.42
482.06	1765.35
482.27	1726.44
482.47	1746.92
482.67	1732.58
482.87	1716.20
483.07	1751.01
483.28	1654.76
483.48	1621.99
483.68	1701.86
483.88	1708.01
484.08	1607.66
484.29	1650.66
484.49	1671.14
484.69	1650.66
484.89	1843.17
485.09	1853.41
485.29	1710.05
485.50	1751.01
485.70	1734.63
485.90	1785.83
486.10	1714.15
486.30	1822.69
486.50	1808.36
486.71	1734.63
486.91	1703.91
487.11	1742.82
487.31	1656.81
487.51	1730.53
487.71	1611.75
487.91	1640.42
488.12	1673.19
488.32	1554.41
488.52	1650.66
488.72	1640.42
488.92	1746.92
489.12	1843.17
489.32	1767.40
489.53	1830.88
489.73	1546.22
489.93	1796.07
490.13	1720.29
490.33	1681.38
490.53	1773.54
490.73	1722.34
490.94	1720.29
491.14	1763.30
491.34	1855.46
491.54	2133.98
491.74	2502.62
491.94	2932.69
492.14	3004.37
492.34	3053.52
492.54	2770.90
492.75	2521.05
492.95	2426.84
493.15	2357.21
493.35	2256.86
493.55	2256.86
493.75	2109.41
493.95	2076.64
494.15	2017.25
494.35	1941.47
494.56	1812.45
494.76	1810.40
494.96	1783.78
495.16	1738.73
495.36	1742.82
495.56	1746.92
495.76	1828.84
495.96	1728.49
496.16	1669.09
496.36	1783.78
496.56	1753.06
496.77	1824.74
496.97	1669.09
497.17	1787.88
497.37	1671.14
497.57	1806.31
497.77	1699.81
497.97	1636.33
498.17	1728.49
498.37	1675.24
498.57	1818.60
498.77	1656.81
498.97	1734.63
499.17	1787.88
499.38	1652.71
499.58	1798.12
499.78	1736.68
499.98	1828.84
500.18	1656.81
500.38	1689.57
500.58	1898.47
500.78	2547.67
500.98	4536.25
501.18	5722.02
501.38	6608.80
501.58	6944.66
501.78	6866.84
501.98	5408.69
502.18	4880.31
502.38	4474.81
502.58	4071.36
502.78	3762.12
502.98	3721.16
503.18	3512.27
503.38	3074.00
503.59	2717.65
503.79	2562.01
503.99	2414.56
504.19	2277.34
504.39	2215.90
504.59	2213.85
504.79	2160.61
504.99	2033.63
505.19	1923.04
505.39	1849.32
505.59	1966.05
505.79	1935.33
505.99	1886.18
506.19	1785.83
506.39	1783.78
506.59	1718.25
506.79	1703.91
506.99	1781.73
507.19	1759.21
507.39	1755.11
507.59	1669.09
507.79	1705.96
507.99	1705.96
508.19	1703.91
508.39	1642.47
508.59	1742.82
508.79	1816.55
508.99	1832.93
509.19	1746.92
509.39	1708.01
509.59	1734.63
509.79	1642.47
509.99	1757.16
510.19	1783.78
510.39	1802.21
510.59	1689.57
510.79	1730.53
510.99	1710.05
511.19	1726.44
511.39	1875.94
511.59	1791.97
511.79	1785.83
511.99	1691.62
512.19	1765.35
512.38	1744.87
512.58	1724.39
512.78	1669.09
512.98	1730.53
513.18	1834.98
513.38	1535.98
513.58	1738.73
513.78	1705.96
513.98	1691.62
514.18	1626.09
514.38	1755.11
514.58	1751.01
514.78	1669.09
514.98	1617.90
515.18	1718.25
515.38	1634.28
515.58	1851.36
515.78	1685.48
515.98	1673.19
516.18	1806.31
516.38	1736.68
516.57	1755.11
516.77	1646.57
516.97	1705.96
517.17	1644.52
517.37	1644.52
517.57	1812.45
517.77	1691.62
517.97	1720.29
518.17	1769.44
518.37	1673.19
518.57	1744.87
518.77	1691.62
518.97	1755.11
519.16	1767.40
519.36	1832.93
519.56	1701.86
519.76	1703.91
519.96	1660.90
520.16	1859.56
520.36	1759.21
520.56	1837.03
520.76	1701.86
520.96	1701.86
521.16	1816.55
521.35	1773.54
521.55	1789.92
521.75	1722.34
521.95	1689.57
522.15	1669.09
522.35	1626.09
522.55	1773.54
522.75	1708.01
522.95	1683.43
523.14	1689.57
523.34	1677.29
523.54	1740.77
523.74	1820.64
523.94	1757.16
524.14	1658.85
524.34	1748.97
524.54	1798.12
524.73	1722.34
524.93	1849.32
525.13	1730.53
525.33	1665.00
525.53	1888.23
525.73	1773.54
525.93	1712.10
526.13	1697.77
526.32	1724.39
526.52	1732.58
526.72	1800.16
526.92	1658.85
527.12	1681.38
527.32	1611.75
527.52	1773.54
527.71	1830.88
527.91	1699.81
528.11	1716.20
528.31	1740.77
528.51	1630.18
528.71	1675.24
528.90	1765.35
529.10	1832.93
529.30	1742.82
529.50	1656.81
529.70	1705.96
529.90	1761.25
530.09	1724.39
530.29	1673.19
530.49	1671.14
530.69	1847.27
530.89	1796.07
531.09	1783.78
531.28	1691.62
531.48	1740.77
531.68	1744.87
531.88	1742.82
532.08	1771.49
532.28	1771.49
532.47	1814.50
532.67	1806.31
532.87	1849.32
533.07	1697.77
533.27	1775.59
533.46	1730.53
533.66	1791.97
533.86	1662.95
534.06	1730.53
534.26	1722.34
534.45	1687.53
534.65	1787.88
534.85	1808.36
535.05	1697.77
535.25	1744.87
535.44	1624.04
535.64	1789.92
535.84	1738.73
536.04	1718.25
536.24	1667.05
536.43	1705.96
536.63	1665.00
536.83	1683.43
537.03	1652.71
537.22	1515.50
537.42	1542.12
537.62	1773.54
537.82	1710.05
538.02	1789.92
538.21	1882.08
538.41	1861.60
538.61	1767.40
538.81	1724.39
539.00	1847.27
539.20	1681.38
539.40	1738.73
539.60	1791.97
539.79	1798.12
539.99	1777.64
540.19	1720.29
540.39	1683.43
540.58	1775.59
540.78	1779.68
540.98	1673.19
541.18	1767.40
541.37	1763.30
541.57	1693.67
541.77	1816.55
541.97	1705.96
542.16	1708.01
542.36	1708.01
542.56	1728.49
542.76	1890.28
542.95	1757.16
543.15	1708.01
543.35	1734.63
543.54	1673.19
543.74	1701.86
543.94	1818.60
544.14	1748.97
544.33	1775.59
544.53	1718.25
544.73	1753.06
544.93	1669.09
545.12	1710.05
545.32	1699.81
545.52	1738.73
545.71	1699.81
545.91	1703.91
546.11	1763.30
546.30	1636.33
546.50	1769.44
546.70	1755.11
546.90	1748.97
547.09	1665.00
547.29	1679.33
547.49	1771.49
547.68	1722.34
547.88	1699.81
548.08	1746.92
548.27	2258.91
548.47	1693.67
548.67	1722.34
548.87	1761.25
549.06	1716.20
549.26	1724.39
549.46	1767.40
549.65	1748.97
549.85	1685.48
550.05	1753.06
550.24	1708.01
550.44	1734.63
550.64	1814.50
550.83	1697.77
551.03	1837.03
551.23	1798.12
551.42	1728.49
551.62	1746.92
551.82	1726.44
552.01	1738.73
552.21	1814.50
552.41	1773.54
552.60	1796.07
552.80	1810.40
553.00	1781.73
553.19	1699.81
553.39	1828.84
553.59	1656.81
553.78	1783.78
553.98	1687.53
554.17	1667.05
554.37	1773.54
554.57	1720.29
554.76	1705.96
554.96	1656.81
555.16	1724.39
555.35	1785.83
555.55	1759.21
555.75	1806.31
555.94	1771.49
556.14	1662.95
556.33	1775.59
556.53	1736.68
556.73	1744.87
556.92	1697.77
557.12	1738.73
557.32	1904.61
557.51	1738.73
557.71	1748.97
557.90	1884.13
558.10	1845.22
558.30	1718.25
558.49	1767.40
558.69	1685.48
558.88	1746.92
559.08	1738.73
559.28	1718.25
559.47	1712.10
559.67	1736.68
559.86	1808.36
560.06	1748.97
560.26	1738.73
560.45	1714.15
560.65	1767.40
560.84	1841.12
561.04	1671.14
561.24	1767.40
561.43	1699.81
561.63	1824.74
561.82	1722.34
562.02	1763.30
562.22	1662.95
562.41	1714.15
562.61	1697.77
562.80	1652.71
563.00	1906.66
563.19	1761.25
563.39	1753.06
563.59	1816.55
563.78	1646.57
563.98	1615.85
564.17	1744.87
564.37	1720.29
564.56	1701.86
564.76	1585.13
564.96	1839.08
565.15	1796.07
565.35	1837.03
565.54	1722.34
565.74	1703.91
565.93	1746.92
566.13	1746.92
566.32	1759.21
566.52	1761.25
566.71	1753.06
566.91	1755.11
567.11	1714.15
567.30	1712.10
567.50	1753.06
567.69	1744.87
567.89	1804.26
568.08	1783.78
568.28	1728.49
568.47	1675.24
568.67	1816.55
568.86	1689.57
569.06	1783.78
569.25	1785.83
569.45	1667.05
569.64	1681.38
569.84	1746.92
570.04	1759.21
570.23	1638.38
570.43	1689.57
570.62	1734.63
570.82	1812.45
571.01	1695.72
571.21	1746.92
571.40	1722.34
571.60	1820.64
571.79	1738.73
571.99	1761.25
572.18	1669.09
572.38	1699.81
572.57	1701.86
572.77	1744.87
572.96	1941.47
573.16	1710.05
573.35	1662.95
573.55	1859.56
573.74	1826.79
573.94	1703.91
574.13	1712.10
574.33	1787.88
574.52	1832.93
574.71	1740.77
574.91	1804.26
575.10	1603.56
575.30	1746.92
575.49	1761.25
575.69	1650.66
575.88	1771.49
576.08	1642.47
576.27	1736.68
576.47	1724.39
576.66	1832.93
576.86	1810.40
577.05	1724.39
577.25	1779.68
577.44	1830.88
577.64	1691.62
577.83	1812.45
578.02	1716.20
578.22	1800.16
578.41	1857.51
578.61	1791.97
578.80	1628.14
579.00	1748.97
579.19	1810.40
579.39	1736.68
579.58	1814.50
579.77	1794.02
579.97	1810.40
580.16	1839.08
580.36	1800.16
580.55	1828.84
580.75	1738.73
580.94	1791.97
581.13	1859.56
581.33	1900.52
581.52	1763.30
581.72	1884.13
581.91	1853.41
582.11	1755.11
582.30	1826.79
582.49	1804.26
582.69	1837.03
582.88	1746.92
583.08	1814.50
583.27	1808.36
583.47	1732.58
583.66	1775.59
583.85	1738.73
584.05	1703.91
584.24	1861.60
584.44	1816.55
584.63	1798.12
584.82	1775.59
585.02	1873.89
585.21	1755.11
585.41	1859.56
585.60	1816.55
585.79	1982.43
585.99	1890.28
586.18	1855.46
586.37	2234.33
586.57	3360.72
586.76	9785.19
586.96	24561.29
587.15	34594.29
587.34	40441.24
587.54	42098.05
587.73	36822.48
587.93	26353.26
588.12	21393.08
588.31	18136.81
588.51	16312.07
588.70	15236.89
588.89	14401.32
589.09	12674.88
589.28	11013.98
589.47	9557.87
589.67	8044.42
589.86	6348.70
590.06	4966.32
590.25	4011.97
590.44	3176.40
590.64	2586.58
590.83	2303.96
591.02	2127.84
591.22	1953.76
591.41	1890.28
591.60	1834.98
591.80	1886.18
591.99	1767.40
592.18	1869.80
592.38	1867.75
592.57	1738.73
592.76	1794.02
592.96	1826.79
593.15	1800.16
593.34	1705.96
593.54	1798.12
593.73	1755.11
593.92	1789.92
594.12	1771.49
594.31	1708.01
594.50	1849.32
594.70	1718.25
594.89	1898.47
595.08	1675.24
595.28	1740.77
595.47	1910.75
595.66	1810.40
595.86	1701.86
596.05	1669.09
596.24	1734.63
596.43	1863.65
596.63	1853.41
596.82	1697.77
597.01	1718.25
597.21	1755.11
597.40	1761.25
597.59	1755.11
597.79	1742.82
597.98	1802.21
598.17	1714.15
598.36	1857.51
598.56	1816.55
598.75	1669.09
598.94	1726.44
599.14	1777.64
599.33	1748.97
599.52	1742.82
599.71	1732.58
599.91	1763.30
600.10	1816.55
600.29	1773.54
600.48	1779.68
600.68	1863.65
600.87	1742.82
601.06	1693.67
601.26	1710.05
601.45	1699.81
601.64	1734.63
601.83	1746.92
602.03	1746.92
602.22	1654.76
602.41	1808.36
602.60	1931.23
602.80	1812.45
602.99	1685.48
603.18	1718.25
603.37	1755.11
603.57	1757.16
603.76	1701.86
603.95	1789.92
604.14	1724.39
604.34	1710.05
604.53	1771.49
604.72	1757.16
604.91	1738.73
605.10	1794.02
605.30	1695.72
605.49	1779.68
605.68	1738.73
605.87	1769.44
606.07	1710.05
606.26	1712.10
606.45	1779.68
606.64	1787.88
606.84	1677.29
607.03	1685.48
607.22	1740.77
607.41	1648.61
607.60	1718.25
607.80	1789.92
607.99	1701.86
608.18	1652.71
608.37	1667.05
608.56	1669.09
608.76	1734.63
608.95	1794.02
609.14	1716.20
609.33	1789.92
609.52	1820.64
609.72	1722.34
609.91	1755.11
610.10	1839.08
610.29	1783.78
610.48	1748.97
610.68	1730.53
610.87	1695.72
611.06	1757.16
611.25	1753.06
611.44	1869.80
611.63	1724.39
611.83	1796.07
612.02	1720.29
612.21	1814.50
612.40	1552.36
612.59	1667.05
612.79	1681.38
612.98	1791.97
613.17	1775.59
613.36	1705.96
613.55	1810.40
613.74	1687.53
613.93	1701.86
614.13	1753.06
614.32	1806.31
614.51	1779.68
614.70	1693.67
614.89	1753.06
615.08	1746.92
615.28	2013.15
615.47	1673.19
615.66	1753.06
615.85	1677.29
616.04	1763.30
616.23	1779.68
616.42	1789.92
616.62	1667.05
616.81	1787.88
617.00	1697.77
617.19	1779.68
617.38	1751.01
617.57	1740.77
617.76	1728.49
617.95	1716.20
618.15	1800.16
618.34	1791.97
618.53	1591.27
618.72	1738.73
618.91	1798.12
619.10	1767.40
619.29	1755.11
619.48	1744.87
619.68	1755.11
619.87	1650.66
620.06	1640.42
620.25	1757.16
620.44	1751.01
620.63	1757.16
620.82	1705.96
621.01	1746.92
621.20	1802.21
621.39	1701.86
621.59	1689.57
621.78	1759.21
621.97	1751.01
622.16	1759.21
622.35	1755.11
622.54	1751.01
622.73	1845.22
622.92	1628.14
623.11	1726.44
623.30	1730.53
623.49	1669.09
623.68	1724.39
623.88	1763.30
624.07	1697.77
624.26	1652.71
624.45	1767.40
624.64	1650.66
624.83	1767.40
625.02	1693.67
625.21	1636.33
625.40	1806.31
625.59	1796.07
625.78	1759.21
625.97	1648.61
626.16	1837.03
626.35	1804.26
626.54	1701.86
626.74	1847.27
626.93	1748.97
627.12	1720.29
627.31	1777.64
627.50	1861.60
627.69	1728.49
627.88	1699.81
628.07	1734.63
628.26	1626.09
628.45	1662.95
628.64	1695.72
628.83	1734.63
629.02	1689.57
629.21	1646.57
629.40	1685.48
629.59	1685.48
629.78	1656.81
629.97	1771.49
630.16	1751.01
630.35	1665.00
630.54	1665.00
630.73	1667.05
630.92	1673.19
631.11	1714.15
631.30	1708.01
631.49	1796.07
631.68	1773.54
631.87	1726.44
632.06	1671.14
632.25	1812.45
632.44	1658.85
632.63	1730.53
632.82	1662.95
633.01	1660.90
633.20	1748.97
633.39	1708.01
633.58	1628.14
633.77	1730.53
633.96	1802.21
634.15	1724.39
634.34	1748.97
634.53	1697.77
634.72	1691.62
634.91	1617.90
635.10	1728.49
635.29	1734.63
635.48	1699.81
635.67	1630.18
635.86	1644.52
636.05	1775.59
636.24	1636.33
636.43	1710.05
636.62	1791.97
636.81	1470.44
637.00	1708.01
637.19	1740.77
637.38	1767.40
637.57	1624.04
637.76	1783.78
637.95	1658.85
638.14	1693.67
638.33	1656.81
638.52	1644.52
638.71	1634.28
638.89	1685.48
639.08	1830.88
639.27	1759.21
639.46	1673.19
639.65	1714.15
639.84	1761.25
640.03	1800.16
640.22	1705.96
640.41	1877.99
640.60	1587.18
640.79	1724.39
640.98	1683.43
641.17	1718.25
641.36	1695.72
641.55	1712.10
641.74	1665.00
641.92	1656.81
642.11	1607.66
642.30	1638.38
642.49	1658.85
642.68	1671.14
642.87	1701.86
643.06	1691.62
643.25	1624.04
643.44	1624.04
643.63	1681.38
643.82	1783.78
644.00	1685.48
644.19	1708.01
644.38	1677.29
644.57	1742.82
644.76	1744.87
644.95	1718.25
645.14	1791.97
645.33	1722.34
645.52	1679.33
645.71	1632.23
645.89	1687.53
646.08	1730.53
646.27	1665.00
646.46	1871.84
646.65	1624.04
646.84	1816.55
647.03	1636.33
647.22	1724.39
647.40	1701.86
647.59	1775.59
647.78	1595.37
647.97	1652.71
648.16	1632.23
648.35	1818.60
648.54	1787.88
648.73	1759.21
648.91	1785.83
649.10	1722.34
649.29	1665.00
649.48	1730.53
649.67	1781.73
649.86	1699.81
650.05	1691.62
650.23	1773.54
650.42	1636.33
650.61	1695.72
650.80	1710.05
650.99	1812.45
651.18	1712.10
651.36	1642.47
651.55	1718.25
651.74	1800.16
651.93	1669.09
652.12	1642.47
652.31	1662.95
652.49	1699.81
652.68	1671.14
652.87	1787.88
653.06	1695.72
653.25	1808.36
653.44	1787.88
653.62	1730.53
653.81	1693.67
654.00	1658.85
654.19	1769.44
654.38	1818.60
654.56	1738.73
654.75	1757.16
654.94	1726.44
655.13	1699.81
655.32	1728.49
655.51	1755.11
655.69	1665.00
655.88	1787.88
656.07	1615.85
656.26	1712.10
656.45	1632.23
656.63	1728.49
656.82	1781.73
657.01	1843.17
657.20	1689.57
657.38	1777.64
657.57	1640.42
657.76	1665.00
657.95	1783.78
658.14	1761.25
658.32	1767.40
658.51	1683.43
658.70	1656.81
658.89	1697.77
659.08	1712.10
659.26	1757.16
659.45	1701.86
659.64	1724.39
659.83	1617.90
660.01	1820.64
660.20	1806.31
660.39	1701.86
660.58	1638.38
660.76	1755.11
660.95	1671.14
661.14	1718.25
661.33	1630.18
661.51	1644.52
661.70	1642.47
661.89	1748.97
662.08	1738.73
662.26	1642.47
662.45	1679.33
662.64	1777.64
662.83	1798.12
663.01	1615.85
663.20	1665.00
663.39	1796.07
663.58	1693.67
663.76	1687.53
663.95	1779.68
664.14	1763.30
664.32	1679.33
664.51	1656.81
664.70	1648.61
664.89	1718.25
665.07	1724.39
665.26	1675.24
665.45	1701.86
665.64	1716.20
665.82	1675.24
666.01	1796.07
666.20	1693.67
666.38	1751.01
666.57	1826.79
666.76	2136.03
666.95	4454.33
667.13	10440.54
667.32	15001.37
667.51	17919.73
667.69	19072.73
667.88	17559.28
668.07	12222.28
668.25	9572.21
668.44	8136.58
668.63	7389.07
668.81	6907.80
669.00	6207.39
669.19	5709.74
669.38	5089.20
669.56	4532.15
669.75	3934.15
669.94	3483.59
670.12	2953.17
670.31	2539.48
670.50	2244.57
670.68	2095.07
670.87	1976.29
671.06	1820.64
671.24	1826.79
671.43	1820.64
671.62	1755.11
671.80	1746.92
671.99	1710.05
672.18	1728.49
672.36	1810.40
672.55	1669.09
672.74	1779.68
672.92	1671.14
673.11	1697.77
673.29	1718.25
673.48	1746.92
673.67	1673.19
673.85	1746.92
674.04	1693.67
674.23	1740.77
674.41	1771.49
674.60	1705.96
674.79	1626.09
674.97	1697.77
675.16	1738.73
675.34	1687.53
675.53	1728.49
675.72	1714.15
675.90	1798.12
676.09	1656.81
676.28	1791.97
676.46	1574.89
676.65	1748.97
676.83	1658.85
677.02	1714.15
677.21	1712.10
677.39	1744.87
677.58	1693.67
677.77	1677.29
677.95	1724.39
678.14	1689.57
678.32	1662.95
678.51	1710.05
678.70	1855.46
678.88	1628.14
679.07	1669.09
679.25	1669.09
679.44	1681.38
679.63	1652.71
679.81	1724.39
680.00	1751.01
680.18	1751.01
680.37	1783.78
680.55	1796.07
680.74	1572.84
680.93	1644.52
681.11	1755.11
681.30	1755.11
681.48	1677.29
681.67	1708.01
681.85	1751.01
682.04	1732.58
682.23	1783.78
682.41	1695.72
682.60	1730.53
682.78	1683.43
682.97	1691.62
683.15	1755.11
683.34	1736.68
683.53	1751.01
683.71	1638.38
683.90	1839.08
684.08	1794.02
684.27	1751.01
684.45	1730.53
684.64	1740.77
684.82	1648.61
685.01	1748.97
685.19	1734.63
685.38	1787.88
685.57	1734.63
685.75	1589.22
685.94	1701.86
686.12	1683.43
686.31	1718.25
686.49	1761.25
686.68	1617.90
686.86	1769.44
687.05	1734.63
687.23	1724.39
687.42	1683.43
687.60	1595.37
687.79	1759.21
687.97	1837.03
688.16	1744.87
688.34	1736.68
688.53	1601.51
688.71	1753.06
688.90	1794.02
689.08	1697.77
689.27	1603.56
689.45	1773.54
689.64	1740.77
689.82	1679.33
690.01	1755.11
690.19	1720.29
690.38	1732.58
690.56	1828.84
690.75	1656.81
690.93	1728.49
691.12	1650.66
691.30	1712.10
691.49	1646.57
691.67	1669.09
691.86	1796.07
692.04	1748.97
692.23	1701.86
692.41	1728.49
692.60	1810.40
692.78	1722.34
692.97	1634.28
693.15	1740.77
693.34	1873.89
693.52	1699.81
693.71	1714.15
693.89	1730.53
694.08	1634.28
694.26	1783.78
694.44	1685.48
694.63	1765.35
694.81	1658.85
695.00	1728.49
695.18	1736.68
695.37	1837.03
695.55	1646.57
695.74	1767.40
695.92	1667.05
696.10	1732.58
696.29	1644.52
696.47	1703.91
696.66	1593.32
696.84	1757.16
697.03	1708.01
697.21	1828.84
697.40	2306.01
697.58	1804.26
697.76	1675.24
697.95	1628.14
698.13	1638.38
698.32	1685.48
698.50	1705.96
698.68	1710.05
698.87	1783.78
699.05	1796.07
699.24	1636.33
699.42	1728.49
699.61	1669.09
699.79	1669.09
699.97	1765.35
700.16	1705.96
700.34	1605.61
700.53	1710.05
700.71	1810.40
700.89	1767.40
701.08	1677.29
701.26	1718.25
701.45	2084.83
701.63	1648.61
701.81	1671.14
702.00	1658.85
702.18	1689.57
702.37	1736.68
702.55	1748.97
702.73	1744.87
702.92	1626.09
703.10	1730.53
703.28	1726.44
703.47	1574.89
703.65	1746.92
703.84	1718.25
704.02	1691.62
704.20	1789.92
704.39	1673.19
704.57	1673.19
704.75	1800.16
704.94	1789.92
705.12	1683.43
705.30	1773.54
705.49	2246.62
705.67	4343.74
705.86	9283.44
706.04	12992.31
706.22	14489.38
706.41	15445.78
706.59	13793.07
706.77	9570.16
706.96	7499.66
707.14	6565.79
707.32	5889.96
707.51	5699.50
707.69	4974.52
707.87	4194.24
708.06	3635.14
708.24	3006.42
708.42	2471.90
708.61	2285.53
708.79	1923.04
708.97	1884.13
709.16	1875.94
709.34	1720.29
709.52	1714.15
709.71	1738.73
709.89	1705.96
710.07	1738.73
710.26	1673.19
710.44	1771.49
710.62	1814.50
710.80	1738.73
710.99	1769.44
711.17	1734.63
711.35	1673.19
711.54	1619.94
711.72	1794.02
711.90	1705.96
712.09	1697.77
712.27	1599.46
712.45	1724.39
712.63	1708.01
712.82	1667.05
713.00	1720.29
713.18	1763.30
713.37	1773.54
713.55	1777.64
713.73	1687.53
713.91	1701.86
714.10	1669.09
714.28	1730.53
714.46	1669.09
714.65	1759.21
714.83	1794.02
715.01	1755.11
715.19	1710.05
715.38	1656.81
715.56	1767.40
715.74	1675.24
715.92	1628.14
716.11	1742.82
716.29	1611.75
716.47	1679.33
716.65	1624.04
716.84	1675.24
717.02	1757.16
717.20	1632.23
717.38	1617.90
717.57	1779.68
717.75	1689.57
717.93	1636.33
718.11	1703.91
718.30	1613.80
718.48	1781.73
718.66	1687.53
718.84	1691.62
719.03	1679.33
719.21	1601.51
719.39	1785.83
719.57	1810.40
719.75	1796.07
719.94	1708.01
720.12	1662.95
720.30	1697.77
720.48	1744.87
720.67	1695.72
720.85	1693.67
721.03	1675.24
721.21	1640.42
721.39	1769.44
721.58	1730.53
721.76	1675.24
721.94	1777.64
722.12	1685.48
722.30	1746.92
722.49	1695.72
722.67	1699.81
722.85	1687.53
723.03	1599.46
723.21	1679.33
723.40	1699.81
723.58	1742.82
723.76	1722.34
723.94	1791.97
724.12	1658.85
724.30	1728.49
724.49	1699.81
724.67	1658.85
724.85	1753.06
725.03	1650.66
725.21	1822.69
725.40	1740.77
725.58	1665.00
725.76	1810.40
725.94	1611.75
726.12	1632.23
726.30	1689.57
726.49	1654.76
726.67	1816.55
726.85	1767.40
727.03	1767.40
727.21	2099.17
727.39	2869.20
727.57	3755.97
727.76	4097.99
727.94	4333.50
728.12	4220.86
728.30	3801.03
728.48	2992.08
728.66	2684.89
728.84	2549.72
729.03	2398.17
729.21	2144.22
729.39	2041.82
729.57	1781.73
729.75	1828.84
729.93	1820.64
730.11	1712.10
730.30	1671.14
730.48	1724.39
730.66	1757.16
730.84	1771.49
731.02	1603.56
731.20	1740.77
731.38	1718.25
731.56	1667.05
731.74	1576.94
731.93	1779.68
732.11	1697.77
732.29	1662.95
732.47	1685.48
732.65	1671.14
732.83	1832.93
733.01	1744.87
733.19	1689.57
733.37	1744.87
733.56	1755.11
733.74	1710.05
733.92	1828.84
734.10	1656.81
734.28	1701.86
734.46	1648.61
734.64	1628.14
734.82	1710.05
735.00	1701.86
735.18	1705.96
735.36	1611.75
735.54	1718.25
735.73	1744.87
735.91	1748.97
736.09	1710.05
736.27	1785.83
736.45	1763.30
736.63	1638.38
736.81	1748.97
736.99	1837.03
737.17	1808.36
737.35	1673.19
737.53	1714.15
737.71	1662.95
737.89	1705.96
738.07	1665.00
738.25	1699.81
738.43	1636.33
738.61	1734.63
738.80	1718.25
738.98	1677.29
739.16	1769.44
739.34	1632.23
739.52	1845.22
739.70	1671.14
739.88	1757.16
740.06	1695.72
740.24	1552.36
740.42	1775.59
740.60	1658.85
740.78	1673.19
740.96	1609.70
741.14	1708.01
741.32	1681.38
741.50	1581.03
741.68	1820.64
741.86	1732.58
742.04	1730.53
742.22	1691.62
742.40	1730.53
742.58	1677.29
742.76	1675.24
742.94	1734.63
743.12	1552.36
743.30	1660.90
743.48	1685.48
743.66	1607.66
743.84	1714.15
744.02	1667.05
744.20	1681.38
744.38	1673.19
744.56	1638.38
744.74	1779.68
744.92	1708.01
745.10	1783.78
745.28	1724.39
745.46	1804.26
745.64	1726.44
745.82	1748.97
746.00	1677.29
746.18	1751.01
746.36	1738.73
746.54	1665.00
746.72	1656.81
746.90	1597.42
747.08	1693.67
747.26	1624.04
747.44	1757.16
747.62	1755.11
747.80	1783.78
747.98	1783.78
748.15	1726.44
748.33	1701.86
748.51	1701.86
748.69	1697.77
748.87	1648.61
749.05	1671.14
749.23	1701.86
749.41	1673.19
749.59	1705.96
749.77	1726.44
749.95	1722.34
750.13	1691.62
750.31	1746.92
750.49	1685.48
750.67	1785.83
750.85	1777.64
751.03	1753.06
751.20	1800.16
751.38	1671.14
751.56	1634.28
751.74	1697.77
751.92	1769.44
752.10	1621.99
752.28	1726.44
752.46	1716.20
752.64	1660.90
752.82	1691.62
753.00	1755.11
753.18	1699.81
753.35	1660.90
753.53	1679.33
753.71	1654.76
753.89	1701.86
754.07	1677.29
754.25	1708.01
754.43	1714.15
754.61	1626.09
754.79	1714.15
754.97	1640.42
755.14	1746.92
755.32	1640.42
755.50	1687.53
755.68	1708.01
755.86	1656.81
756.04	1665.00
756.22	1560.55
756.40	1757.16
756.57	1722.34
756.75	1673.19
756.93	1816.55
757.11	1759.21
757.29	1726.44
757.47	1654.76
757.65	1628.14
757.82	1607.66
758.00	1654.76
758.18	1726.44
758.36	1636.33
758.54	1849.32
758.72	1667.05
758.90	1738.73
759.07	1722.34
759.25	1634.28
759.43	1701.86
759.61	1593.32
759.79	2195.42
759.97	1738.73
760.15	1611.75
760.32	1658.85
760.50	1701.86
760.68	1826.79
760.86	1531.88
761.04	1748.97
761.22	1771.49
761.39	1689.57
761.57	1718.25
761.75	1640.42
761.93	1798.12
762.11	1677.29
762.28	1773.54
762.46	1611.75
762.64	1730.53
762.82	1624.04
763.00	1648.61
763.18	1751.01
763.35	1548.26
763.53	1677.29
763.71	1740.77
763.89	1642.47
764.07	1712.10
764.24	1689.57
764.42	1736.68
764.60	1748.97
764.78	1726.44
764.96	1685.48
765.13	1810.40
765.31	1683.43
765.49	1730.53
765.67	1650.66
765.84	1660.90
766.02	1634.28
766.20	1630.18
766.38	1669.09
766.56	1734.63
766.73	1755.11
766.91	1777.64
767.09	1638.38
767.27	1728.49
767.44	1617.90
767.62	1779.68
767.80	1630.18
767.98	1718.25
768.15	1718.25
768.33	1777.64
768.51	1708.01
768.69	1669.09
768.87	1755.11
769.04	1763.30
769.22	1779.68
769.40	1820.64
769.58	1814.50
769.75	1769.44
769.93	1759.21
770.11	1640.42
770.28	1667.05
770.46	1740.77
770.64	1765.35
770.82	1677.29
770.99	1636.33
771.17	1742.82
771.35	1708.01
771.53	1736.68
771.70	1728.49
771.88	1726.44
772.06	1765.35
772.23	1673.19
772.41	1732.58
772.59	1693.67
772.77	1607.66
772.94	1763.30
773.12	1773.54
773.30	1658.85
773.47	1693.67
773.65	1605.61
773.83	1820.64
774.01	1640.42
774.18	1626.09
774.36	1716.20
774.54	1677.29
774.71	1669.09
774.89	1597.42
775.07	1574.89
775.24	1591.27
775.42	1695.72
775.60	1812.45
775.78	1636.33
775.95	1626.09
776.13	1654.76
776.31	1554.41
776.48	1716.20
776.66	1767.40
776.84	1763.30
777.01	1607.66
777.19	1710.05
777.37	1658.85
777.54	1665.00
777.72	1849.32
777.90	1712.10
778.07	1638.38
778.25	1773.54
778.43	1703.91
778.60	1632.23
778.78	1738.73
778.96	1728.49
779.13	1658.85
779.31	1742.82
779.49	1630.18
779.66	1710.05
779.84	1665.00
780.01	1675.24
780.19	1740.77
780.37	1757.16
780.54	1744.87
780.72	1669.09
780.90	1652.71
781.07	1617.90
781.25	1632.23
781.43	1751.01
781.60	1615.85
781.78	1791.97
781.95	1726.44
782.13	1619.94
782.31	1714.15
782.48	1583.08
782.66	1687.53
782.83	1810.40
783.01	1765.35
783.19	1755.11
783.36	1689.57
783.54	1603.56
783.72	1685.48
783.89	1710.05
784.07	1744.87
784.24	1736.68
784.42	1755.11
784.60	1660.90
784.77	1701.86
784.95	1636.33
785.12	1593.32
785.30	1755.11
785.47	1671.14
785.65	1662.95
785.83	1701.86
786.00	1638.38
786.18	1697.77
786.35	1611.75
786.53	1705.96
786.71	1736.68
786.88	1736.68
787.06	1701.86
787.23	1626.09
787.41	1609.70
787.58	1732.58
787.76	1599.46
787.94	1712.10
788.11	1742.82
788.29	1615.85
788.46	1673.19
788.64	1619.94
788.81	1648.61
788.99	1712.10
789.16	1705.96
789.34	1679.33
789.52	1708.01
789.69	1714.15
789.87	1609.70
790.04	1712.10
790.22	1617.90
790.39	1828.84
790.57	1703.91
790.74	1673.19
790.92	1791.97
791.09	1662.95
791.27	1669.09
791.44	1804.26
791.62	1628.14
791.79	1775.59
791.97	1667.05
792.15	1880.04
792.32	1787.88
792.50	1765.35
792.67	1785.83
792.85	1818.60
793.02	1677.29
793.20	1609.70
793.37	1646.57
793.55	1736.68
793.72	1634.28
793.90	1691.62
794.07	1667.05
794.25	1642.47
794.42	1767.40
794.60	1697.77
794.77	1697.77
794.95	1728.49
795.12	1720.29
795.30	1714.15
795.47	1628.14
795.65	1828.84
795.82	1691.62
796.00	1638.38
796.17	1630.18
796.34	1648.61
796.52	1812.45
796.69	1755.11
796.87	1691.62
797.04	1738.73
797.22	1759.21
797.39	1759.21
797.57	1683.43
797.74	1705.96
797.92	1665.00
798.09	1656.81
798.27	1753.06
798.44	1763.30
798.62	1638.38
798.79	1771.49
798.96	1738.73
799.14	1697.77
799.31	1847.27
799.49	1679.33
799.66	1658.85
799.84	1730.53
800.01	1667.05
800.19	1726.44
800.36	1568.74
800.53	1740.77
800.71	1716.20
800.88	1791.97
801.06	1665.00
801.23	1652.71
801.41	1701.86
801.58	1509.35
801.75	1605.61
801.93	1751.01
802.10	1667.05
802.28	1689.57
802.45	1722.34
802.63	1779.68
802.80	1751.01
802.97	1673.19
803.15	1656.81
803.32	1640.42
803.50	1615.85
803.67	1605.61
803.84	1644.52
804.02	1658.85
804.19	1701.86
804.37	1589.22
804.54	1679.33
804.71	1724.39
804.89	1685.48
805.06	1677.29
805.24	1601.51
805.41	1619.94
805.58	1619.94
805.76	1785.83
805.93	1773.54
806.10	1703.91
806.28	1630.18
806.45	1726.44
806.63	1714.15
806.80	1738.73
806.97	1716.20
807.15	1705.96
807.32	1644.52
807.49	1693.67
807.67	1730.53
807.84	1777.64
808.01	1619.94
808.19	1894.37
808.36	1773.54
808.54	1646.57
808.71	1591.27
808.88	1746.92
809.06	1734.63
809.23	1794.02
809.40	1638.38
809.58	1746.92
809.75	1773.54
809.92	1624.04
810.10	1818.60
810.27	1699.81
810.44	1753.06
810.62	1740.77
810.79	1617.90
810.96	1718.25
811.14	1718.25
811.31	1683.43
811.48	1712.10
811.66	1593.32
811.83	1800.16
812.00	1701.86
812.18	1771.49
812.35	1828.84
812.52	1679.33
812.69	1697.77
812.87	1689.57
813.04	1679.33
813.21	1720.29
813.39	1714.15
813.56	1677.29
813.73	1730.53
813.91	1626.09
814.08	1734.63
814.25	1742.82
814.42	1607.66
814.60	1695.72
814.77	1738.73
814.94	1662.95
815.12	1628.14
815.29	1730.53
815.46	1669.09
815.63	1751.01
815.81	1732.58
815.98	1744.87
816.15	1671.14
816.33	1759.21
816.50	1691.62
816.67	1681.38
816.84	1689.57
817.02	1617.90
817.19	1658.85
817.36	1746.92
817.53	1728.49
817.71	1619.94
817.88	1724.39
818.05	1636.33
818.22	1730.53
818.40	1841.12
818.57	1673.19
818.74	1746.92
818.91	1658.85
819.09	1800.16
819.26	1705.96
819.43	1603.56
819.60	1642.47
819.78	1716.20
819.95	1779.68
820.12	1685.48
820.29	1710.05
820.47	1699.81
820.64	1611.75
820.81	1652.71
820.98	1660.90
821.15	1640.42
821.33	1773.54
821.50	1681.38
821.67	1683.43
821.84	1712.10
822.02	1726.44
822.19	1771.49
822.36	1763.30
822.53	1630.18
822.70	1566.70
822.88	1658.85
823.05	1777.64
823.22	1660.90
823.39	1669.09
823.56	1591.27
823.74	1798.12
823.91	1687.53
824.08	1646.57
824.25	1589.22
824.42	1802.21
824.60	1662.95
824.77	1757.16
824.94	1624.04
825.11	1798.12
825.28	1660.90
825.45	1705.96
825.63	1652.71
825.80	1628.14
825.97	1742.82
826.14	1636.33
826.31	1656.81
826.48	1744.87
826.66	1671.14
826.83	1703.91
827.00	1681.38
827.17	1671.14
827.34	1677.29
827.51	1656.81
827.69	1630.18
827.86	1591.27
828.03	1730.53
828.20	1720.29
828.37	1675.24
828.54	1767.40
828.71	1621.99
828.89	1863.65
829.06	1660.90
829.23	1703.91
829.40	1671.14
829.57	1626.09
829.74	1744.87
829.91	1667.05
830.09	1732.58
830.26	1705.96
830.43	1787.88
830.60	1714.15
830.77	1726.44
830.94	1779.68
831.11	1685.48
831.28	1677.29
831.46	1777.64
831.63	1689.57
831.80	1732.58
831.97	1683.43
832.14	1689.57
832.31	1742.82
832.48	1718.25
832.65	1738.73
832.82	1681.38
832.99	1677.29
833.17	1566.70
833.34	1863.65
833.51	1751.01
833.68	1652.71
833.85	1779.68
834.02	1701.86
834.19	1665.00
834.36	1718.25
834.53	1683.43
834.70	1791.97
834.87	1728.49
835.04	1732.58
835.22	1607.66
835.39	1626.09
835.56	1574.89
835.73	1671.14
835.90	1761.25
836.07	1619.94
836.24	1765.35
836.41	1648.61
836.58	1650.66
836.75	1734.63
836.92	1720.29
837.09	1648.61
837.26	1683.43
837.43	1675.24
837.60	1650.66
837.77	1644.52
837.94	1683.43
838.12	1824.74
838.29	1712.10
838.46	1648.61
838.63	1589.22
838.80	1812.45
838.97	1730.53
839.14	1681.38
839.31	1665.00
839.48	1712.10
839.65	1671.14
839.82	1726.44
839.99	1636.33
840.16	1679.33
840.33	1621.99
840.50	1730.53
840.67	1662.95
840.84	1568.74
841.01	1685.48
841.18	1708.01
841.35	1669.09
841.52	1636.33
841.69	1796.07
841.86	1718.25
842.03	1751.01
842.20	1742.82
842.37	1683.43
842.54	1665.00
842.71	1785.83
842.88	1603.56
843.05	1804.26
843.22	1693.67
843.39	1671.14
843.56	1630.18
843.73	1720.29
843.90	1705.96
844.07	1675.24
844.24	1665.00
844.41	1710.05
844.58	1800.16
844.75	1689.57
844.92	1783.78
845.09	1675.24
845.26	1693.67
845.43	1742.82
845.60	1656.81
845.77	1828.84
845.94	1714.15
846.10	1755.11
846.27	1562.60
846.44	1613.80
846.61	1607.66
846.78	1765.35
846.95	1755.11
847.12	1724.39
847.29	1681.38
847.46	1687.53
847.63	1759.21
847.80	1634.28
847.97	1681.38
848.14	1847.27
848.31	1626.09
848.48	1691.62
848.65	1773.54
848.82	1619.94
848.98	1777.64
849.15	1697.77
849.32	1738.73
849.49	1753.06
849.66	1650.66
849.83	1679.33
850.00	1630.18
850.17	1714.15
850.34	1722.34
850.51	1638.38
850.68	1630.18
850.85	1839.08
851.01	1669.09
851.18	1791.97
851.35	1630.18
851.52	1744.87
851.69	1824.74
851.86	1654.76
852.03	1722.34
852.20	1746.92
852.37	1740.77
852.53	1695.72
852.70	1640.42
852.87	1734.63
853.04	1746.92
853.21	1701.86
853.38	1794.02
853.55	1826.79
853.72	1789.92
853.89	1712.10
854.05	1726.44
854.22	1660.90
854.39	1628.14
854.56	1720.29
854.73	1783.78
854.90	1611.75
855.07	1677.29
855.23	1587.18
855.40	1718.25
855.57	1591.27
855.74	1550.31
855.91	1765.35
856.08	1648.61
856.25	1581.03
856.41	1652.71
856.58	1673.19
856.75	1693.67
856.92	1605.61
857.09	1732.58
857.26	1634.28
857.42	1697.77
857.59	1613.80
857.76	1665.00
857.93	1710.05
858.10	1675.24
858.27	1619.94
858.43	1677.29
858.60	1634.28
858.77	1630.18
858.94	1744.87
859.11	1769.44
859.27	1708.01
859.44	1691.62
859.61	1882.08
859.78	1730.53
859.95	1665.00
860.12	1662.95
860.28	1777.64
860.45	1771.49
860.62	1609.70
860.79	1712.10
860.95	1634.28
861.12	1681.38
861.29	1683.43
861.46	1636.33
861.63	1695.72
861.79	1730.53
861.96	1634.28
862.13	1626.09
862.30	1748.97
862.47	1595.37
862.63	1613.80
862.80	1730.53
862.97	1656.81
863.14	1740.77
863.30	1642.47
863.47	1640.42
863.64	1796.07
863.81	1665.00
863.97	1677.29
864.14	1732.58
864.31	1566.70
864.48	1763.30
864.65	1671.14
864.81	1683.43
864.98	1675.24
865.15	1742.82
865.32	1738.73
865.48	1738.73
865.65	1744.87
865.82	1691.62
865.98	1683.43
866.15	1773.54
866.32	1630.18
866.49	1695.72
866.65	1843.17
866.82	1658.85
866.99	1687.53
867.16	1677.29
867.32	1654.76
867.49	1615.85
867.66	1654.76
867.83	1710.05
867.99	1607.66
868.16	1728.49
868.33	1665.00
868.49	1689.57
868.66	1607.66
868.83	1744.87
868.99	1658.85
869.16	1683.43
869.33	1781.73
869.50	1699.81
869.66	1685.48
869.83	1701.86
870.00	1665.00
870.16	1720.29
870.33	1679.33
870.50	1730.53
870.66	1712.10
870.83	1773.54
871.00	1705.96
871.17	1724.39
871.33	1646.57
871.50	1722.34
871.67	1714.15
871.83	1628.14
872.00	1753.06
872.17	1628.14
872.33	1814.50
872.50	1775.59
872.67	1701.86
872.83	1742.82
873.00	1677.29
873.17	1656.81
873.33	1701.86
873.50	1757.16
873.67	1652.71
873.83	1667.05
874.00	1591.27
874.16	1658.85
874.33	1718.25
874.50	1626.09
874.66	1779.68
874.83	1732.58
875.00	1701.86
875.16	1814.50
875.33	1785.83
875.50	1603.56
875.66	1734.63
875.83	1751.01
875.99	1765.35
876.16	1593.32
876.33	1642.47
876.49	1632.23
876.66	1691.62
876.83	1697.77
876.99	1626.09
877.16	1658.85
877.32	1665.00
877.49	1665.00
877.66	1644.52
877.82	1779.68
877.99	1685.48
878.15	1683.43
878.32	1669.09
878.49	1789.92
878.65	1636.33
878.82	1738.73
878.98	1757.16
879.15	1751.01
879.32	1808.36
879.48	1732.58
879.65	1738.73
879.81	1679.33
879.98	1644.52
880.15	1705.96
880.31	1734.63
880.48	1621.99
880.64	1734.63
880.81	1718.25
880.97	1814.50
881.14	1824.74
881.31	1613.80
881.47	1798.12
881.64	1654.76
881.80	1564.65
881.97	1716.20
882.13	1703.91
882.30	1763.30
882.47	1619.94
882.63	1609.70
882.80	1667.05
882.96	1626.09
883.13	1839.08
883.29	1648.61
883.46	1730.53
883.62	1816.55
883.79	1753.06
883.95	1673.19
884.12	1726.44
884.29	1746.92
884.45	1691.62
884.62	1699.81
884.78	1660.90
884.95	1730.53
885.11	1683.43
885.28	1722.34
885.44	1665.00
885.61	1734.63
885.77	1761.25
885.94	1646.57
886.10	1648.61
886.27	1751.01
886.43	1875.94
886.60	1789.92
886.76	1703.91
886.93	1607.66
887.09	1779.68
887.26	1617.90
887.42	1691.62
887.59	1755.11
887.75	1812.45
887.92	1814.50
888.08	1796.07
888.25	1759.21
888.41	1753.06
888.58	1681.38
888.74	1544.17
888.91	1628.14
>>>>>End Processed Spectral Data<<<<<
