SpectraSuite Data File
++++++++++++++++++++++++++++++++++++
Date: Mon Jun 06 12:54:17 CEST 2016
User: root
Dark Spectrum Present: No
Reference Spectrum Present: No
Number of Sampled Component Spectra: 1
Spectrometers: USB4C02835
Integration Time (usec): 100000 (USB4C02835)
Spectra Averaged: 1 (USB4C02835)
Boxcar Smoothing: 0 (USB4C02835)
Correct for Electrical Dark: No (USB4C02835)
Strobe/Lamp Enabled: No (USB4C02835)
Correct for Detector Non-linearity: No (USB4C02835)
Correct for Stray Light: No (USB4C02835)
Number of Pixels in Processed Spectrum: 3648
>>>>>Begin Processed Spectral Data<<<<<
177.47	1380.33
177.69	1380.33
177.91	1380.33
178.13	1431.53
178.36	1499.11
178.58	1675.24
178.80	1718.25
179.02	1638.38
179.24	1689.57
179.46	1634.28
179.68	1753.06
179.90	1736.68
180.13	1720.29
180.35	1640.42
180.57	1755.11
180.79	1787.88
181.01	1720.29
181.23	1744.87
181.45	1753.06
181.67	1796.07
181.90	1675.24
182.12	1693.67
182.34	1550.31
182.56	1734.63
182.78	1742.82
183.00	1775.59
183.22	1732.58
183.44	1624.04
183.66	1865.70
183.89	1771.49
184.11	1697.77
184.33	1728.49
184.55	1722.34
184.77	1722.34
184.99	1742.82
185.21	1685.48
185.43	1863.65
185.65	1665.00
185.87	1794.02
186.10	1800.16
186.32	1832.93
186.54	1683.43
186.76	1751.01
186.98	1767.40
187.20	1640.42
187.42	1701.86
187.64	1660.90
187.86	1773.54
188.08	1730.53
188.30	1665.00
188.52	1724.39
188.75	1789.92
188.97	1808.36
189.19	1656.81
189.41	1613.80
189.63	1712.10
189.85	1708.01
190.07	1712.10
190.29	1587.18
190.51	1800.16
190.73	1624.04
190.95	1759.21
191.17	1656.81
191.39	1628.14
191.61	1648.61
191.84	1693.67
192.06	1720.29
192.28	1574.89
192.50	1914.85
192.72	1681.38
192.94	1757.16
193.16	1839.08
193.38	1718.25
193.60	1656.81
193.82	1656.81
194.04	1791.97
194.26	1728.49
194.48	1644.52
194.70	1652.71
194.92	1775.59
195.14	1726.44
195.36	1687.53
195.58	1732.58
195.80	1687.53
196.02	1748.97
196.24	1708.01
196.46	1767.40
196.69	1722.34
196.91	1888.23
197.13	1779.68
197.35	1644.52
197.57	1714.15
197.79	1771.49
198.01	1710.05
198.23	1669.09
198.45	1669.09
198.67	1640.42
198.89	1726.44
199.11	1724.39
199.33	1691.62
199.55	1599.46
199.77	1736.68
199.99	1679.33
200.21	1724.39
200.43	1703.91
200.65	1683.43
200.87	1560.55
201.09	1621.99
201.31	1708.01
201.53	1755.11
201.75	1734.63
201.97	1599.46
202.19	1701.86
202.41	1689.57
202.63	1841.12
202.85	1800.16
203.07	1783.78
203.29	1683.43
203.51	1720.29
203.73	1624.04
203.95	1796.07
204.17	1755.11
204.39	1722.34
204.61	1724.39
204.83	1646.57
205.05	1828.84
205.27	1685.48
205.49	1806.31
205.71	1757.16
205.93	1619.94
206.15	1669.09
206.37	1734.63
206.59	1740.77
206.81	1640.42
207.03	1681.38
207.25	1630.18
207.47	1757.16
207.69	1705.96
207.91	1812.45
208.13	1800.16
208.34	1607.66
208.56	1730.53
208.78	1748.97
209.00	1630.18
209.22	1589.22
209.44	1693.67
209.66	1699.81
209.88	1798.12
210.10	1726.44
210.32	1675.24
210.54	1722.34
210.76	1646.57
210.98	1728.49
211.20	1568.74
211.42	1705.96
211.64	1798.12
211.86	1689.57
212.08	1783.78
212.30	1724.39
212.52	1724.39
212.74	1683.43
212.96	1705.96
213.17	1701.86
213.39	1734.63
213.61	1759.21
213.83	1736.68
214.05	1613.80
214.27	1730.53
214.49	1683.43
214.71	1691.62
214.93	1798.12
215.15	1662.95
215.37	1771.49
215.59	1662.95
215.81	1777.64
216.03	1763.30
216.24	1705.96
216.46	1736.68
216.68	1656.81
216.90	1714.15
217.12	1679.33
217.34	1771.49
217.56	1703.91
217.78	1802.21
218.00	1751.01
218.22	1720.29
218.44	1681.38
218.66	1742.82
218.87	1791.97
219.09	1679.33
219.31	1781.73
219.53	1701.86
219.75	1734.63
219.97	1732.58
220.19	1742.82
220.41	1673.19
220.63	1738.73
220.85	1679.33
221.06	1619.94
221.28	1812.45
221.50	1779.68
221.72	1710.05
221.94	1697.77
222.16	1732.58
222.38	1722.34
222.60	1734.63
222.82	1697.77
223.03	1705.96
223.25	1572.84
223.47	1640.42
223.69	1812.45
223.91	1701.86
224.13	1648.61
224.35	1656.81
224.57	1675.24
224.78	1771.49
225.00	1654.76
225.22	1738.73
225.44	1634.28
225.66	1677.29
225.88	1658.85
226.10	1775.59
226.32	1769.44
226.53	1783.78
226.75	1703.91
226.97	1695.72
227.19	1617.90
227.41	1681.38
227.63	1687.53
227.85	1624.04
228.06	1693.67
228.28	1652.71
228.50	1779.68
228.72	1619.94
228.94	1689.57
229.16	1632.23
229.37	1558.50
229.59	1628.14
229.81	1730.53
230.03	1685.48
230.25	1677.29
230.47	1601.51
230.69	1665.00
230.90	1705.96
231.12	1675.24
231.34	1685.48
231.56	1755.11
231.78	1660.90
232.00	1673.19
232.21	1669.09
232.43	1621.99
232.65	1595.37
232.87	1705.96
233.09	1703.91
233.30	1656.81
233.52	1718.25
233.74	1656.81
233.96	1648.61
234.18	1773.54
234.40	1693.67
234.61	1871.84
234.83	1652.71
235.05	1609.70
235.27	1757.16
235.49	1722.34
235.70	1712.10
235.92	1738.73
236.14	1693.67
236.36	1783.78
236.58	1656.81
236.79	1777.64
237.01	1757.16
237.23	1738.73
237.45	1789.92
237.67	1650.66
237.88	1726.44
238.10	1800.16
238.32	1697.77
238.54	1675.24
238.76	1703.91
238.97	1677.29
239.19	1687.53
239.41	1732.58
239.63	1757.16
239.85	1650.66
240.06	1671.14
240.28	1718.25
240.50	1699.81
240.72	1718.25
240.93	1708.01
241.15	1751.01
241.37	1710.05
241.59	1794.02
241.81	1746.92
242.02	1632.23
242.24	1699.81
242.46	1718.25
242.68	1621.99
242.89	1769.44
243.11	1763.30
243.33	1673.19
243.55	1695.72
243.76	1748.97
243.98	1742.82
244.20	1624.04
244.42	1679.33
244.64	1687.53
244.85	1634.28
245.07	1640.42
245.29	1722.34
245.51	1785.83
245.72	1722.34
245.94	1771.49
246.16	1734.63
246.38	1761.25
246.59	1630.18
246.81	1583.08
247.03	1665.00
247.24	1615.85
247.46	1648.61
247.68	1656.81
247.90	1619.94
248.11	1693.67
248.33	1740.77
248.55	1638.38
248.77	1662.95
248.98	1812.45
249.20	1828.84
249.42	1751.01
249.64	1701.86
249.85	1779.68
250.07	1581.03
250.29	1693.67
250.50	1718.25
250.72	1585.13
250.94	1757.16
251.16	1837.03
251.37	1789.92
251.59	1675.24
251.81	1728.49
252.02	1816.55
252.24	1722.34
252.46	1763.30
252.68	1648.61
252.89	1638.38
253.11	1568.74
253.33	1732.58
253.54	1794.02
253.76	1658.85
253.98	1732.58
254.20	1640.42
254.41	1640.42
254.63	1642.47
254.85	1677.29
255.06	1640.42
255.28	1697.77
255.50	1724.39
255.71	1638.38
255.93	1589.22
256.15	1691.62
256.36	1683.43
256.58	1701.86
256.80	1791.97
257.02	1685.48
257.23	1730.53
257.45	1607.66
257.67	1724.39
257.88	1656.81
258.10	1654.76
258.32	1751.01
258.53	1746.92
258.75	1767.40
258.97	1699.81
259.18	1603.56
259.40	1693.67
259.62	1875.94
259.83	1744.87
260.05	1734.63
260.27	1949.67
260.48	1724.39
260.70	1632.23
260.92	1732.58
261.13	1722.34
261.35	1636.33
261.57	1673.19
261.78	1626.09
262.00	1665.00
262.22	1628.14
262.43	1599.46
262.65	1621.99
262.86	1773.54
263.08	1771.49
263.30	1652.71
263.51	1609.70
263.73	1673.19
263.95	1746.92
264.16	1568.74
264.38	1640.42
264.60	1669.09
264.81	1646.57
265.03	1732.58
265.25	1638.38
265.46	1710.05
265.68	1763.30
265.89	1736.68
266.11	1662.95
266.33	1673.19
266.54	1755.11
266.76	1730.53
266.98	1714.15
267.19	1720.29
267.41	1746.92
267.62	1687.53
267.84	1544.17
268.06	1765.35
268.27	1708.01
268.49	1775.59
268.70	1687.53
268.92	1683.43
269.14	1687.53
269.35	1660.90
269.57	1712.10
269.79	1783.78
270.00	1710.05
270.22	1748.97
270.43	1689.57
270.65	1652.71
270.87	1773.54
271.08	1767.40
271.30	1759.21
271.51	1742.82
271.73	1736.68
271.95	1730.53
272.16	1796.07
272.38	1724.39
272.59	1710.05
272.81	1759.21
273.02	1611.75
273.24	1683.43
273.46	1738.73
273.67	1693.67
273.89	1673.19
274.10	1710.05
274.32	1775.59
274.54	1728.49
274.75	1667.05
274.97	1681.38
275.18	1765.35
275.40	1708.01
275.61	1689.57
275.83	1689.57
276.05	1615.85
276.26	1685.48
276.48	1796.07
276.69	1685.48
276.91	1632.23
277.12	1789.92
277.34	1734.63
277.55	1726.44
277.77	1650.66
277.99	1642.47
278.20	1632.23
278.42	1644.52
278.63	1617.90
278.85	1595.37
279.06	1581.03
279.28	1779.68
279.49	1763.30
279.71	1757.16
279.93	1701.86
280.14	1693.67
280.36	1611.75
280.57	1691.62
280.79	1787.88
281.00	1613.80
281.22	1619.94
281.43	1816.55
281.65	1599.46
281.86	1628.14
282.08	1718.25
282.29	1736.68
282.51	1624.04
282.73	1576.94
282.94	1673.19
283.16	1681.38
283.37	1740.77
283.59	1662.95
283.80	1718.25
284.02	1669.09
284.23	1783.78
284.45	1660.90
284.66	1687.53
284.88	1656.81
285.09	1683.43
285.31	1746.92
285.52	1755.11
285.74	1642.47
285.95	1718.25
286.17	1695.72
286.38	1767.40
286.60	1671.14
286.81	1675.24
287.03	1695.72
287.24	1615.85
287.46	1718.25
287.67	1755.11
287.89	1785.83
288.10	1726.44
288.32	1705.96
288.53	1810.40
288.75	1736.68
288.96	1695.72
289.18	1660.90
289.39	1675.24
289.61	1824.74
289.82	1771.49
290.04	1767.40
290.25	1621.99
290.47	1714.15
290.68	1705.96
290.90	1820.64
291.11	1597.42
291.33	1697.77
291.54	1640.42
291.76	1687.53
291.97	1781.73
292.18	1689.57
292.40	1673.19
292.61	1697.77
292.83	1857.51
293.04	1712.10
293.26	1675.24
293.47	1814.50
293.69	1615.85
293.90	1658.85
294.12	1736.68
294.33	1724.39
294.55	1724.39
294.76	1748.97
294.97	1763.30
295.19	1837.03
295.40	1648.61
295.62	1746.92
295.83	1748.97
296.05	1726.44
296.26	1828.84
296.48	1683.43
296.69	1716.20
296.90	1722.34
297.12	1767.40
297.33	1851.36
297.55	1687.53
297.76	1779.68
297.98	1746.92
298.19	1714.15
298.41	1777.64
298.62	1718.25
298.83	1804.26
299.05	1708.01
299.26	1628.14
299.48	1648.61
299.69	1759.21
299.90	1669.09
300.12	1632.23
300.33	1734.63
300.55	1679.33
300.76	1775.59
300.98	1642.47
301.19	1728.49
301.40	1765.35
301.62	1685.48
301.83	1814.50
302.05	1683.43
302.26	1624.04
302.47	1708.01
302.69	1611.75
302.90	1714.15
303.12	1599.46
303.33	1773.54
303.54	1775.59
303.76	1658.85
303.97	1779.68
304.19	1898.47
304.40	1660.90
304.61	1703.91
304.83	1769.44
305.04	1820.64
305.26	1755.11
305.47	1601.51
305.68	1638.38
305.90	1574.89
306.11	1712.10
306.33	1695.72
306.54	1638.38
306.75	1765.35
306.97	1701.86
307.18	1585.13
307.39	1718.25
307.61	1732.58
307.82	1691.62
308.04	1701.86
308.25	1644.52
308.46	1771.49
308.68	1748.97
308.89	1712.10
309.10	1812.45
309.32	1660.90
309.53	1726.44
309.74	1730.53
309.96	1658.85
310.17	1789.92
310.39	1689.57
310.60	1740.77
310.81	1665.00
311.03	1605.61
311.24	1746.92
311.45	1646.57
311.67	1794.02
311.88	1708.01
312.09	1626.09
312.31	1593.32
312.52	1640.42
312.73	1671.14
312.95	1660.90
313.16	1640.42
313.37	1742.82
313.59	1669.09
313.80	1724.39
314.01	1783.78
314.23	1689.57
314.44	1746.92
314.65	1624.04
314.87	1609.70
315.08	1720.29
315.29	1681.38
315.51	1699.81
315.72	1572.84
315.93	1796.07
316.15	1728.49
316.36	1695.72
316.57	1646.57
316.79	1755.11
317.00	1640.42
317.21	1669.09
317.43	1742.82
317.64	1718.25
317.85	1617.90
318.07	1699.81
318.28	1685.48
318.49	1806.31
318.70	1871.84
318.92	1765.35
319.13	1806.31
319.34	1896.42
319.56	1732.58
319.77	1818.60
319.98	1783.78
320.20	1808.36
320.41	1744.87
320.62	1693.67
320.83	1628.14
321.05	1894.37
321.26	1630.18
321.47	1703.91
321.69	1777.64
321.90	1595.37
322.11	1673.19
322.32	1730.53
322.54	1785.83
322.75	1650.66
322.96	1802.21
323.18	1585.13
323.39	1642.47
323.60	1742.82
323.81	1693.67
324.03	1685.48
324.24	1665.00
324.45	1669.09
324.66	1624.04
324.88	1812.45
325.09	1800.16
325.30	1689.57
325.52	1734.63
325.73	1689.57
325.94	1607.66
326.15	1605.61
326.37	1648.61
326.58	1847.27
326.79	1837.03
327.00	1662.95
327.22	1718.25
327.43	1722.34
327.64	1601.51
327.85	1714.15
328.07	1736.68
328.28	1859.56
328.49	1638.38
328.70	1742.82
328.92	1757.16
329.13	1667.05
329.34	1720.29
329.55	1761.25
329.76	1687.53
329.98	1685.48
330.19	1740.77
330.40	1679.33
330.61	1728.49
330.83	1746.92
331.04	1667.05
331.25	1708.01
331.46	1701.86
331.68	1691.62
331.89	1789.92
332.10	1712.10
332.31	1648.61
332.52	1742.82
332.74	1816.55
332.95	1638.38
333.16	1767.40
333.37	1757.16
333.58	1617.90
333.80	1679.33
334.01	1699.81
334.22	1708.01
334.43	1705.96
334.64	1703.91
334.86	1617.90
335.07	1703.91
335.28	1787.88
335.49	1595.37
335.70	1720.29
335.92	1769.44
336.13	1800.16
336.34	1742.82
336.55	1652.71
336.76	1718.25
336.98	1656.81
337.19	1746.92
337.40	1812.45
337.61	1841.12
337.82	1689.57
338.04	1787.88
338.25	1665.00
338.46	1673.19
338.67	1722.34
338.88	1671.14
339.09	1648.61
339.31	1660.90
339.52	1673.19
339.73	1691.62
339.94	1751.01
340.15	1767.40
340.36	1705.96
340.58	1683.43
340.79	1677.29
341.00	1730.53
341.21	1677.29
341.42	1800.16
341.63	1730.53
341.85	1734.63
342.06	1728.49
342.27	1628.14
342.48	1650.66
342.69	1662.95
342.90	1665.00
343.12	1787.88
343.33	1726.44
343.54	1796.07
343.75	1753.06
343.96	1755.11
344.17	1671.14
344.38	1636.33
344.60	1671.14
344.81	1693.67
345.02	1789.92
345.23	1800.16
345.44	1832.93
345.65	1757.16
345.86	1679.33
346.07	1652.71
346.29	1671.14
346.50	1669.09
346.71	1681.38
346.92	1779.68
347.13	1748.97
347.34	1734.63
347.55	1773.54
347.76	1781.73
347.98	1595.37
348.19	1710.05
348.40	1775.59
348.61	1728.49
348.82	1820.64
349.03	1685.48
349.24	1693.67
349.45	1888.23
349.66	1576.94
349.88	1652.71
350.09	1675.24
350.30	1804.26
350.51	1832.93
350.72	1665.00
350.93	1693.67
351.14	1712.10
351.35	1689.57
351.56	1685.48
351.77	1761.25
351.99	1703.91
352.20	1802.21
352.41	1712.10
352.62	1603.56
352.83	1691.62
353.04	1697.77
353.25	1626.09
353.46	1695.72
353.67	1744.87
353.88	1583.08
354.09	1740.77
354.30	1654.76
354.52	1777.64
354.73	1748.97
354.94	1656.81
355.15	1748.97
355.36	1812.45
355.57	1732.58
355.78	1740.77
355.99	1701.86
356.20	1609.70
356.41	1738.73
356.62	1757.16
356.83	1673.19
357.04	1812.45
357.25	1652.71
357.46	1753.06
357.68	1611.75
357.89	1671.14
358.10	1660.90
358.31	1646.57
358.52	1712.10
358.73	1617.90
358.94	1683.43
359.15	1757.16
359.36	1742.82
359.57	1617.90
359.78	1673.19
359.99	1748.97
360.20	1624.04
360.41	1644.52
360.62	1728.49
360.83	1804.26
361.04	1691.62
361.25	1828.84
361.46	1796.07
361.67	1791.97
361.88	1738.73
362.09	1714.15
362.30	1755.11
362.51	1699.81
362.72	1648.61
362.93	1669.09
363.14	1703.91
363.35	1689.57
363.56	1693.67
363.78	1796.07
363.99	1777.64
364.20	1693.67
364.41	1730.53
364.62	1802.21
364.83	1734.63
365.04	1775.59
365.25	1681.38
365.46	1751.01
365.67	1654.76
365.88	1634.28
366.09	1673.19
366.30	1693.67
366.51	1691.62
366.72	1673.19
366.93	1710.05
367.14	1681.38
367.35	1798.12
367.56	1736.68
367.77	1787.88
367.98	1638.38
368.18	1685.48
368.39	1730.53
368.60	1558.50
368.81	1757.16
369.02	1703.91
369.23	1744.87
369.44	1685.48
369.65	1673.19
369.86	1773.54
370.07	1742.82
370.28	1683.43
370.49	1738.73
370.70	1755.11
370.91	1609.70
371.12	1619.94
371.33	1744.87
371.54	1667.05
371.75	1712.10
371.96	1673.19
372.17	1685.48
372.38	1738.73
372.59	1697.77
372.80	1720.29
373.01	1755.11
373.22	1689.57
373.43	1724.39
373.64	1648.61
373.85	1769.44
374.06	1814.50
374.26	1783.78
374.47	1800.16
374.68	1851.36
374.89	1742.82
375.10	1640.42
375.31	1783.78
375.52	1710.05
375.73	1748.97
375.94	1691.62
376.15	1816.55
376.36	1708.01
376.57	1673.19
376.78	1687.53
376.99	1667.05
377.20	1730.53
377.40	1683.43
377.61	1796.07
377.82	1673.19
378.03	1787.88
378.24	1822.69
378.45	1701.86
378.66	1755.11
378.87	1658.85
379.08	1613.80
379.29	1667.05
379.50	1660.90
379.71	1669.09
379.91	1675.24
380.12	1722.34
380.33	1677.29
380.54	1724.39
380.75	1689.57
380.96	1695.72
381.17	1740.77
381.38	1724.39
381.59	1777.64
381.80	1734.63
382.00	1837.03
382.21	1802.21
382.42	1765.35
382.63	1847.27
382.84	1722.34
383.05	1734.63
383.26	1798.12
383.47	1724.39
383.68	1671.14
383.88	1748.97
384.09	1708.01
384.30	1826.79
384.51	1662.95
384.72	1722.34
384.93	1742.82
385.14	1705.96
385.35	1714.15
385.55	1613.80
385.76	1808.36
385.97	1671.14
386.18	1646.57
386.39	1626.09
386.60	1701.86
386.81	1671.14
387.02	1644.52
387.22	1683.43
387.43	1753.06
387.64	1820.64
387.85	1826.79
388.06	2213.85
388.27	4218.82
388.48	6879.13
388.68	8359.81
388.89	9883.50
389.10	9897.83
389.31	8652.67
389.52	7669.64
389.73	6877.08
389.93	6367.13
390.14	5992.36
390.35	5300.14
390.56	4642.75
390.77	3852.23
390.98	3080.14
391.18	2584.54
391.39	2146.27
391.60	1904.61
391.81	1920.99
392.02	1626.09
392.23	1822.69
392.43	1718.25
392.64	1816.55
392.85	1699.81
393.06	1808.36
393.27	1728.49
393.47	1691.62
393.68	1695.72
393.89	1673.19
394.10	1771.49
394.31	1736.68
394.52	1691.62
394.72	1642.47
394.93	1730.53
395.14	1720.29
395.35	1759.21
395.56	1677.29
395.76	1728.49
395.97	1800.16
396.18	1865.70
396.39	1783.78
396.60	2029.54
396.80	1857.51
397.01	1828.84
397.22	1877.99
397.43	1822.69
397.64	1660.90
397.84	1808.36
398.05	1849.32
398.26	1718.25
398.47	1660.90
398.67	1830.88
398.88	1705.96
399.09	1746.92
399.30	1691.62
399.51	1757.16
399.71	1695.72
399.92	1767.40
400.13	1646.57
400.34	1691.62
400.54	1681.38
400.75	1845.22
400.96	1718.25
401.17	1759.21
401.37	1740.77
401.58	1675.24
401.79	1718.25
402.00	1822.69
402.21	1998.82
402.41	1945.57
402.62	1925.09
402.83	2088.93
403.04	1896.42
403.24	2068.45
403.45	1806.31
403.66	1861.60
403.87	1832.93
404.07	1890.28
404.28	1902.56
404.49	1839.08
404.70	1777.64
404.90	1742.82
405.11	1671.14
405.32	1740.77
405.52	1660.90
405.73	1656.81
405.94	1712.10
406.15	1675.24
406.35	1753.06
406.56	1730.53
406.77	1738.73
406.98	1726.44
407.18	1621.99
407.39	1699.81
407.60	1718.25
407.80	1759.21
408.01	1736.68
408.22	1728.49
408.43	1726.44
408.63	1753.06
408.84	1730.53
409.05	1751.01
409.25	1673.19
409.46	1621.99
409.67	1689.57
409.88	1652.71
410.08	1705.96
410.29	1665.00
410.50	1718.25
410.70	1804.26
410.91	1724.39
411.12	1785.83
411.32	1609.70
411.53	1732.58
411.74	1751.01
411.95	1771.49
412.15	1804.26
412.36	1773.54
412.57	1738.73
412.77	1832.93
412.98	1652.71
413.19	1693.67
413.39	1839.08
413.60	1757.16
413.81	1734.63
414.01	1691.62
414.22	1693.67
414.43	1757.16
414.63	1789.92
414.84	1763.30
415.05	1779.68
415.25	1673.19
415.46	1691.62
415.67	1685.48
415.87	1777.64
416.08	1632.23
416.29	1673.19
416.49	1730.53
416.70	1640.42
416.91	1712.10
417.11	1720.29
417.32	1650.66
417.53	1796.07
417.73	1771.49
417.94	1656.81
418.15	1665.00
418.35	1681.38
418.56	1712.10
418.77	1867.75
418.97	1673.19
419.18	1611.75
419.38	1570.79
419.59	1669.09
419.80	1796.07
420.00	1728.49
420.21	1689.57
420.42	1783.78
420.62	1679.33
420.83	1726.44
421.04	1753.06
421.24	1665.00
421.45	1804.26
421.65	1726.44
421.86	1685.48
422.07	1744.87
422.27	1730.53
422.48	1734.63
422.69	1624.04
422.89	1769.44
423.10	1699.81
423.30	1660.90
423.51	1761.25
423.72	1687.53
423.92	1714.15
424.13	1638.38
424.33	1656.81
424.54	1857.51
424.75	1742.82
424.95	1779.68
425.16	1714.15
425.36	1644.52
425.57	1757.16
425.78	1724.39
425.98	1724.39
426.19	1710.05
426.39	1705.96
426.60	1755.11
426.81	1875.94
427.01	1773.54
427.22	1603.56
427.42	1558.50
427.63	1648.61
427.83	1769.44
428.04	1771.49
428.25	1767.40
428.45	1796.07
428.66	1732.58
428.86	1644.52
429.07	1677.29
429.28	1744.87
429.48	1726.44
429.69	1630.18
429.89	1697.77
430.10	1599.46
430.30	1775.59
430.51	1761.25
430.71	1720.29
430.92	1732.58
431.13	1701.86
431.33	1744.87
431.54	1783.78
431.74	1871.84
431.95	1841.12
432.15	1726.44
432.36	1693.67
432.56	1826.79
432.77	1839.08
432.98	1816.55
433.18	1751.01
433.39	1605.61
433.59	1628.14
433.80	1794.02
434.00	1755.11
434.21	1705.96
434.41	1611.75
434.62	1769.44
434.82	1662.95
435.03	1638.38
435.23	1708.01
435.44	1603.56
435.64	1677.29
435.85	1642.47
436.06	1751.01
436.26	1779.68
436.47	1648.61
436.67	1683.43
436.88	1611.75
437.08	1783.78
437.29	1779.68
437.49	1751.01
437.70	1763.30
437.90	1703.91
438.11	1828.84
438.31	1775.59
438.52	1802.21
438.72	1912.80
438.93	1841.12
439.13	1814.50
439.34	1826.79
439.54	1796.07
439.75	1748.97
439.95	1718.25
440.16	1746.92
440.36	1812.45
440.57	1740.77
440.77	1789.92
440.98	1667.05
441.18	1761.25
441.39	1648.61
441.59	1689.57
441.80	1810.40
442.00	1751.01
442.21	1763.30
442.41	1665.00
442.62	1771.49
442.82	1615.85
443.02	1738.73
443.23	1789.92
443.43	1669.09
443.64	1779.68
443.84	1634.28
444.05	1779.68
444.25	1714.15
444.46	1736.68
444.66	1677.29
444.87	1783.78
445.07	1658.85
445.28	1759.21
445.48	1849.32
445.69	1746.92
445.89	1828.84
446.09	1765.35
446.30	1951.71
446.50	2580.44
446.71	3682.25
446.91	4286.40
447.12	4802.49
447.32	4804.53
447.53	4362.17
447.73	3770.31
447.93	3661.77
448.14	3362.76
448.34	3153.87
448.55	2918.36
448.75	2824.15
448.96	2625.50
449.16	2525.15
449.36	2197.47
449.57	2074.59
449.77	1898.47
449.98	1742.82
450.18	1877.99
450.39	1810.40
450.59	1826.79
450.79	1748.97
451.00	1662.95
451.20	1777.64
451.41	1695.72
451.61	1746.92
451.81	1652.71
452.02	1654.76
452.22	1624.04
452.43	1732.58
452.63	1654.76
452.84	1746.92
453.04	1724.39
453.24	1667.05
453.45	1656.81
453.65	1769.44
453.86	1738.73
454.06	1722.34
454.26	1718.25
454.47	1710.05
454.67	1902.56
454.87	1783.78
455.08	1720.29
455.28	1843.17
455.49	1763.30
455.69	1636.33
455.89	1914.85
456.10	1806.31
456.30	1720.29
456.51	1751.01
456.71	1730.53
456.91	1806.31
457.12	1800.16
457.32	1789.92
457.52	1673.19
457.73	1687.53
457.93	1765.35
458.14	1738.73
458.34	1701.86
458.54	1689.57
458.75	1656.81
458.95	1837.03
459.15	1746.92
459.36	1744.87
459.56	1796.07
459.76	1871.84
459.97	1714.15
460.17	1710.05
460.37	1755.11
460.58	1775.59
460.78	1800.16
460.99	1699.81
461.19	1757.16
461.39	1734.63
461.60	1718.25
461.80	1748.97
462.00	1687.53
462.21	1732.58
462.41	1736.68
462.61	1728.49
462.82	1671.14
463.02	1734.63
463.22	1789.92
463.43	1730.53
463.63	1814.50
463.83	1765.35
464.04	1736.68
464.24	1728.49
464.44	1720.29
464.64	1712.10
464.85	1667.05
465.05	1779.68
465.25	1761.25
465.46	1640.42
465.66	1658.85
465.86	1753.06
466.07	1773.54
466.27	1742.82
466.47	1650.66
466.68	1626.09
466.88	1867.75
467.08	1802.21
467.29	1683.43
467.49	1714.15
467.69	1699.81
467.89	1771.49
468.10	1705.96
468.30	1697.77
468.50	1798.12
468.71	1759.21
468.91	1605.61
469.11	1839.08
469.31	1652.71
469.52	1677.29
469.72	1857.51
469.92	1806.31
470.13	1673.19
470.33	1679.33
470.53	1806.31
470.73	2082.78
470.94	2267.10
471.14	2428.89
471.34	2506.71
471.54	2408.41
471.75	2252.77
471.95	2195.42
472.15	2133.98
472.36	2088.93
472.56	2076.64
472.76	2056.16
472.96	2000.87
473.17	1943.52
473.37	1865.70
473.57	1855.46
473.77	1789.92
473.98	1669.09
474.18	1632.23
474.38	1794.02
474.58	1755.11
474.79	1716.20
474.99	1693.67
475.19	1773.54
475.39	1685.48
475.60	1701.86
475.80	1716.20
476.00	1744.87
476.20	1679.33
476.41	1665.00
476.61	1798.12
476.81	1769.44
477.01	1658.85
477.21	1810.40
477.42	1789.92
477.62	1624.04
477.82	1755.11
478.02	1636.33
478.23	1814.50
478.43	1697.77
478.63	1777.64
478.83	1671.14
479.03	1665.00
479.24	1683.43
479.44	1859.56
479.64	1669.09
479.84	1634.28
480.04	1710.05
480.25	1726.44
480.45	1708.01
480.65	1742.82
480.85	1763.30
481.06	1628.14
481.26	1810.40
481.46	1751.01
481.66	1685.48
481.86	1648.61
482.06	1738.73
482.27	1646.57
482.47	1742.82
482.67	1789.92
482.87	1673.19
483.07	1794.02
483.28	1638.38
483.48	1699.81
483.68	1728.49
483.88	1669.09
484.08	1552.36
484.29	1574.89
484.49	1671.14
484.69	1601.51
484.89	1816.55
485.09	1763.30
485.29	1798.12
485.50	1783.78
485.70	1722.34
485.90	1759.21
486.10	1726.44
486.30	1765.35
486.50	1705.96
486.71	1738.73
486.91	1773.54
487.11	1812.45
487.31	1626.09
487.51	1740.77
487.71	1724.39
487.91	1654.76
488.12	1695.72
488.32	1605.61
488.52	1640.42
488.72	1621.99
488.92	1665.00
489.12	1765.35
489.32	1734.63
489.53	1738.73
489.73	1683.43
489.93	1773.54
490.13	1667.05
490.33	1693.67
490.53	1810.40
490.73	1742.82
490.94	1609.70
491.14	1740.77
491.34	1882.08
491.54	2232.29
491.74	2566.10
491.94	2877.40
492.14	3065.81
492.34	3012.56
492.54	2742.23
492.75	2551.77
492.95	2449.37
493.15	2332.64
493.35	2326.49
493.55	2279.39
493.75	2185.18
493.95	2179.04
494.15	2021.35
494.35	1945.57
494.56	1847.27
494.76	1789.92
494.96	1791.97
495.16	1763.30
495.36	1755.11
495.56	1787.88
495.76	1703.91
495.96	1771.49
496.16	1697.77
496.36	1912.80
496.56	1695.72
496.77	1804.26
496.97	1665.00
497.17	1789.92
497.37	1634.28
497.57	1742.82
497.77	1759.21
497.97	1656.81
498.17	1779.68
498.37	1705.96
498.57	1791.97
498.77	1710.05
498.97	1753.06
499.17	1830.88
499.38	1650.66
499.58	1724.39
499.78	1902.56
499.98	1789.92
500.18	1722.34
500.38	1742.82
500.58	1914.85
500.78	2590.68
500.98	4528.06
501.18	5943.21
501.38	6784.92
501.58	7030.68
501.78	6563.74
501.98	5556.14
502.18	4939.70
502.38	4378.56
502.58	4136.90
502.78	3866.56
502.98	3635.14
503.18	3524.55
503.38	3172.30
503.59	2854.87
503.79	2641.88
503.99	2482.14
504.19	2246.62
504.39	2136.03
504.59	2168.80
504.79	2002.91
504.99	2142.18
505.19	1873.89
505.39	1900.52
505.59	1961.95
505.79	1853.41
505.99	1808.36
506.19	1847.27
506.39	1892.32
506.59	1691.62
506.79	1732.58
506.99	1798.12
507.19	1705.96
507.39	1740.77
507.59	1626.09
507.79	1675.24
507.99	1685.48
508.19	1802.21
508.39	1728.49
508.59	1744.87
508.79	1800.16
508.99	1834.98
509.19	1675.24
509.39	1849.32
509.59	1681.38
509.79	1724.39
509.99	1693.67
510.19	1779.68
510.39	1812.45
510.59	1710.05
510.79	1650.66
510.99	1681.38
511.19	1767.40
511.39	1861.60
511.59	1753.06
511.79	1796.07
511.99	1730.53
512.19	1826.79
512.38	1771.49
512.58	1708.01
512.78	1716.20
512.98	1726.44
513.18	1841.12
513.38	1581.03
513.58	1849.32
513.78	1746.92
513.98	1728.49
514.18	1687.53
514.38	1742.82
514.58	1773.54
514.78	1722.34
514.98	1710.05
515.18	1738.73
515.38	1728.49
515.58	1755.11
515.78	1695.72
515.98	1738.73
516.18	1775.59
516.38	1679.33
516.57	1648.61
516.77	1669.09
516.97	1794.02
517.17	1722.34
517.37	1609.70
517.57	1806.31
517.77	1779.68
517.97	1746.92
518.17	1769.44
518.37	1701.86
518.57	1701.86
518.77	1687.53
518.97	1695.72
519.16	1771.49
519.36	1818.60
519.56	1667.05
519.76	1722.34
519.96	1763.30
520.16	1746.92
520.36	1656.81
520.56	1730.53
520.76	1689.57
520.96	1660.90
521.16	1634.28
521.35	1826.79
521.55	1806.31
521.75	1689.57
521.95	1753.06
522.15	1746.92
522.35	1730.53
522.55	1708.01
522.75	1804.26
522.95	1742.82
523.14	1716.20
523.34	1767.40
523.54	1673.19
523.74	1722.34
523.94	1763.30
524.14	1650.66
524.34	1767.40
524.54	1861.60
524.73	1748.97
524.93	1726.44
525.13	1806.31
525.33	1621.99
525.53	1845.22
525.73	1787.88
525.93	1703.91
526.13	1679.33
526.32	1695.72
526.52	1769.44
526.72	1746.92
526.92	1730.53
527.12	1767.40
527.32	1636.33
527.52	1759.21
527.71	1816.55
527.91	1730.53
528.11	1648.61
528.31	1683.43
528.51	1587.18
528.71	1828.84
528.90	1763.30
529.10	1775.59
529.30	1839.08
529.50	1617.90
529.70	1736.68
529.90	1726.44
530.09	1677.29
530.29	1738.73
530.49	1730.53
530.69	1847.27
530.89	1794.02
531.09	1779.68
531.28	1693.67
531.48	1755.11
531.68	1665.00
531.88	1718.25
532.08	1763.30
532.28	1662.95
532.47	1796.07
532.67	1777.64
532.87	1732.58
533.07	1685.48
533.27	1828.84
533.46	1767.40
533.66	1748.97
533.86	1755.11
534.06	1703.91
534.26	1755.11
534.45	1744.87
534.65	1726.44
534.85	1734.63
535.05	1722.34
535.25	1783.78
535.44	1640.42
535.64	1683.43
535.84	1660.90
536.04	1759.21
536.24	1650.66
536.43	1714.15
536.63	1767.40
536.83	1787.88
537.03	1757.16
537.22	1640.42
537.42	1607.66
537.62	1755.11
537.82	1714.15
538.02	1849.32
538.21	1904.61
538.41	1855.46
538.61	1765.35
538.81	1689.57
539.00	1810.40
539.20	1609.70
539.40	1773.54
539.60	1777.64
539.79	1732.58
539.99	1699.81
540.19	1638.38
540.39	1724.39
540.58	1742.82
540.78	1826.79
540.98	1718.25
541.18	1742.82
541.37	1826.79
541.57	1714.15
541.77	1746.92
541.97	1671.14
542.16	1607.66
542.36	1718.25
542.56	1697.77
542.76	1882.08
542.95	1824.74
543.15	1701.86
543.35	1839.08
543.54	1697.77
543.74	1697.77
543.94	1841.12
544.14	1675.24
544.33	1810.40
544.53	1796.07
544.73	1671.14
544.93	1697.77
545.12	1687.53
545.32	1671.14
545.52	1736.68
545.71	1677.29
545.91	1677.29
546.11	1695.72
546.30	1601.51
546.50	1728.49
546.70	1773.54
546.90	1722.34
547.09	1705.96
547.29	1816.55
547.49	1742.82
547.68	1705.96
547.88	1673.19
548.08	1775.59
548.27	2160.61
548.47	1634.28
548.67	1744.87
548.87	1796.07
549.06	1665.00
549.26	1759.21
549.46	1726.44
549.65	1689.57
549.85	1736.68
550.05	1732.58
550.24	1660.90
550.44	1744.87
550.64	1787.88
550.83	1718.25
551.03	1822.69
551.23	1751.01
551.42	1767.40
551.62	1748.97
551.82	1730.53
552.01	1724.39
552.21	1761.25
552.41	1761.25
552.60	1759.21
552.80	1699.81
553.00	1710.05
553.19	1751.01
553.39	1820.64
553.59	1722.34
553.78	1789.92
553.98	1808.36
554.17	1693.67
554.37	1726.44
554.57	1783.78
554.76	1673.19
554.96	1609.70
555.16	1742.82
555.35	1755.11
555.55	1783.78
555.75	1720.29
555.94	1765.35
556.14	1689.57
556.33	1781.73
556.53	1748.97
556.73	1701.86
556.92	1824.74
557.12	1771.49
557.32	1816.55
557.51	1812.45
557.71	1759.21
557.90	1837.03
558.10	1783.78
558.30	1755.11
558.49	1722.34
558.69	1695.72
558.88	1802.21
559.08	1771.49
559.28	1705.96
559.47	1714.15
559.67	1759.21
559.86	1841.12
560.06	1740.77
560.26	1720.29
560.45	1751.01
560.65	1691.62
560.84	1746.92
561.04	1748.97
561.24	1744.87
561.43	1665.00
561.63	1712.10
561.82	1724.39
562.02	1787.88
562.22	1693.67
562.41	1662.95
562.61	1726.44
562.80	1656.81
563.00	1800.16
563.19	1767.40
563.39	1753.06
563.59	1806.31
563.78	1605.61
563.98	1638.38
564.17	1570.79
564.37	1642.47
564.56	1851.36
564.76	1673.19
564.96	1748.97
565.15	1757.16
565.35	1855.46
565.54	1705.96
565.74	1736.68
565.93	1665.00
566.13	1730.53
566.32	1718.25
566.52	1812.45
566.71	1769.44
566.91	1736.68
567.11	1775.59
567.30	1746.92
567.50	1845.22
567.69	1722.34
567.89	1660.90
568.08	1724.39
568.28	1796.07
568.47	1673.19
568.67	1738.73
568.86	1705.96
569.06	1675.24
569.25	1681.38
569.45	1708.01
569.64	1714.15
569.84	1738.73
570.04	1751.01
570.23	1671.14
570.43	1718.25
570.62	1765.35
570.82	1828.84
571.01	1624.04
571.21	1654.76
571.40	1638.38
571.60	1716.20
571.79	1701.86
571.99	1763.30
572.18	1736.68
572.38	1812.45
572.57	1732.58
572.77	1746.92
572.96	1869.80
573.16	1740.77
573.35	1726.44
573.55	1804.26
573.74	1769.44
573.94	1720.29
574.13	1796.07
574.33	1732.58
574.52	1847.27
574.71	1714.15
574.91	1800.16
575.10	1662.95
575.30	1755.11
575.49	1722.34
575.69	1697.77
575.88	1712.10
576.08	1826.79
576.27	1796.07
576.47	1710.05
576.66	1830.88
576.86	1841.12
577.05	1798.12
577.25	1806.31
577.44	1900.52
577.64	1759.21
577.83	1810.40
578.02	1744.87
578.22	1763.30
578.41	1837.03
578.61	1714.15
578.80	1699.81
579.00	1771.49
579.19	1783.78
579.39	1777.64
579.58	1834.98
579.77	1695.72
579.97	1759.21
580.16	1837.03
580.36	1843.17
580.55	1877.99
580.75	1740.77
580.94	1753.06
581.13	1861.60
581.33	1808.36
581.52	1771.49
581.72	1814.50
581.91	1910.75
582.11	1677.29
582.30	1755.11
582.49	1708.01
582.69	1851.36
582.88	1722.34
583.08	1767.40
583.27	1798.12
583.47	1751.01
583.66	1712.10
583.85	1728.49
584.05	1785.83
584.24	1787.88
584.44	1767.40
584.63	1859.56
584.82	1818.60
585.02	1855.46
585.21	1802.21
585.41	1822.69
585.60	1824.74
585.79	1880.04
585.99	1953.76
586.18	1796.07
586.37	2312.16
586.57	3373.00
586.76	10063.72
586.96	24745.61
587.15	34883.05
587.34	40992.14
587.54	42591.61
587.73	36967.88
587.93	26517.10
588.12	22073.01
588.31	18392.81
588.51	16461.57
588.70	15396.63
588.89	14245.67
589.09	12699.45
589.28	11050.84
589.47	9455.47
589.67	7901.06
589.86	6457.25
590.06	4911.03
590.25	3913.67
590.44	3112.91
590.64	2531.29
590.83	2353.12
591.02	2105.31
591.22	1929.19
591.41	1871.84
591.60	1822.69
591.80	1900.52
591.99	1718.25
592.18	1742.82
592.38	1791.97
592.57	1701.86
592.76	1755.11
592.96	1701.86
593.15	1785.83
593.34	1810.40
593.54	1753.06
593.73	1746.92
593.92	1773.54
594.12	1810.40
594.31	1691.62
594.50	1880.04
594.70	1808.36
594.89	1886.18
595.08	1660.90
595.28	1773.54
595.47	1974.24
595.66	1826.79
595.86	1705.96
596.05	1669.09
596.24	1738.73
596.43	1849.32
596.63	1802.21
596.82	1705.96
597.01	1753.06
597.21	1814.50
597.40	1822.69
597.59	1683.43
597.79	1732.58
597.98	1777.64
598.17	1812.45
598.36	1785.83
598.56	1667.05
598.75	1675.24
598.94	1748.97
599.14	1755.11
599.33	1689.57
599.52	1800.16
599.71	1730.53
599.91	1849.32
600.10	1810.40
600.29	1738.73
600.48	1757.16
600.68	1636.33
600.87	1708.01
601.06	1619.94
601.26	1771.49
601.45	1787.88
601.64	1734.63
601.83	1832.93
602.03	1708.01
602.22	1648.61
602.41	1796.07
602.60	1818.60
602.80	1757.16
602.99	1738.73
603.18	1683.43
603.37	1673.19
603.57	1818.60
603.76	1820.64
603.95	1722.34
604.14	1767.40
604.34	1701.86
604.53	1691.62
604.72	1693.67
604.91	1777.64
605.10	1806.31
605.30	1652.71
605.49	1757.16
605.68	1765.35
605.87	1718.25
606.07	1603.56
606.26	1683.43
606.45	1798.12
606.64	1783.78
606.84	1679.33
607.03	1708.01
607.22	1789.92
607.41	1667.05
607.60	1689.57
607.80	1705.96
607.99	1822.69
608.18	1697.77
608.37	1720.29
608.56	1744.87
608.76	1744.87
608.95	1746.92
609.14	1724.39
609.33	1791.97
609.52	1763.30
609.72	1791.97
609.91	1822.69
610.10	1783.78
610.29	1763.30
610.48	1755.11
610.68	1730.53
610.87	1736.68
611.06	1781.73
611.25	1689.57
611.44	1767.40
611.63	1773.54
611.83	1779.68
612.02	1632.23
612.21	1816.55
612.40	1634.28
612.59	1658.85
612.79	1804.26
612.98	1644.52
613.17	1814.50
613.36	1736.68
613.55	1775.59
613.74	1724.39
613.93	1736.68
614.13	1755.11
614.32	1744.87
614.51	1695.72
614.70	1740.77
614.89	1746.92
615.08	1775.59
615.28	2084.83
615.47	1687.53
615.66	1730.53
615.85	1671.14
616.04	1857.51
616.23	1705.96
616.42	1673.19
616.62	1812.45
616.81	1705.96
617.00	1695.72
617.19	1730.53
617.38	1681.38
617.57	1787.88
617.76	1763.30
617.95	1783.78
618.15	1796.07
618.34	1818.60
618.53	1708.01
618.72	1789.92
618.91	1804.26
619.10	1771.49
619.29	1732.58
619.48	1779.68
619.68	1734.63
619.87	1730.53
620.06	1638.38
620.25	1710.05
620.44	1697.77
620.63	1722.34
620.82	1697.77
621.01	1701.86
621.20	1755.11
621.39	1751.01
621.59	1724.39
621.78	1695.72
621.97	1705.96
622.16	1806.31
622.35	1796.07
622.54	1736.68
622.73	1810.40
622.92	1671.14
623.11	1798.12
623.30	1701.86
623.49	1769.44
623.68	1642.47
623.88	1787.88
624.07	1691.62
624.26	1734.63
624.45	1759.21
624.64	1687.53
624.83	1748.97
625.02	1701.86
625.21	1779.68
625.40	1816.55
625.59	1757.16
625.78	1654.76
625.97	1722.34
626.16	1806.31
626.35	1755.11
626.54	1753.06
626.74	1832.93
626.93	1710.05
627.12	1710.05
627.31	1824.74
627.50	1814.50
627.69	1751.01
627.88	1769.44
628.07	1603.56
628.26	1689.57
628.45	1669.09
628.64	1691.62
628.83	1699.81
629.02	1662.95
629.21	1775.59
629.40	1726.44
629.59	1646.57
629.78	1656.81
629.97	1785.83
630.16	1685.48
630.35	1718.25
630.54	1810.40
630.73	1703.91
630.92	1722.34
631.11	1650.66
631.30	1765.35
631.49	1781.73
631.68	1691.62
631.87	1740.77
632.06	1673.19
632.25	1851.36
632.44	1667.05
632.63	1701.86
632.82	1646.57
633.01	1755.11
633.20	1695.72
633.39	1671.14
633.58	1587.18
633.77	1783.78
633.96	1724.39
634.15	1701.86
634.34	1763.30
634.53	1736.68
634.72	1671.14
634.91	1671.14
635.10	1636.33
635.29	1789.92
635.48	1665.00
635.67	1632.23
635.86	1613.80
636.05	1857.51
636.24	1681.38
636.43	1673.19
636.62	1738.73
636.81	1599.46
637.00	1703.91
637.19	1712.10
637.38	1761.25
637.57	1683.43
637.76	1748.97
637.95	1746.92
638.14	1621.99
638.33	1691.62
638.52	1677.29
638.71	1646.57
638.89	1626.09
639.08	1847.27
639.27	1751.01
639.46	1708.01
639.65	1751.01
639.84	1716.20
640.03	1767.40
640.22	1722.34
640.41	1816.55
640.60	1671.14
640.79	1712.10
640.98	1673.19
641.17	1828.84
641.36	1703.91
641.55	1736.68
641.74	1712.10
641.92	1677.29
642.11	1599.46
642.30	1691.62
642.49	1732.58
642.68	1683.43
642.87	1802.21
643.06	1734.63
643.25	1730.53
643.44	1626.09
643.63	1751.01
643.82	1769.44
644.00	1673.19
644.19	1796.07
644.38	1724.39
644.57	1812.45
644.76	1771.49
644.95	1648.61
645.14	1724.39
645.33	1703.91
645.52	1734.63
645.71	1667.05
645.89	1617.90
646.08	1720.29
646.27	1619.94
646.46	1828.84
646.65	1630.18
646.84	1734.63
647.03	1644.52
647.22	1789.92
647.40	1779.68
647.59	1628.14
647.78	1646.57
647.97	1624.04
648.16	1621.99
648.35	1814.50
648.54	1701.86
648.73	1673.19
648.91	1802.21
649.10	1703.91
649.29	1673.19
649.48	1755.11
649.67	1701.86
649.86	1699.81
650.05	1658.85
650.23	1771.49
650.42	1697.77
650.61	1751.01
650.80	1845.22
650.99	1853.41
651.18	1697.77
651.36	1751.01
651.55	1665.00
651.74	1787.88
651.93	1673.19
652.12	1703.91
652.31	1863.65
652.49	1718.25
652.68	1615.85
652.87	1806.31
653.06	1824.74
653.25	1837.03
653.44	1736.68
653.62	1765.35
653.81	1677.29
654.00	1697.77
654.19	1781.73
654.38	1810.40
654.56	1761.25
654.75	1687.53
654.94	1742.82
655.13	1744.87
655.32	1759.21
655.51	1761.25
655.69	1619.94
655.88	1712.10
656.07	1677.29
656.26	1800.16
656.45	1626.09
656.63	1761.25
656.82	1736.68
657.01	1736.68
657.20	1654.76
657.38	1791.97
657.57	1689.57
657.76	1726.44
657.95	1722.34
658.14	1677.29
658.32	1687.53
658.51	1638.38
658.70	1751.01
658.89	1693.67
659.08	1740.77
659.26	1853.41
659.45	1736.68
659.64	1853.41
659.83	1640.42
660.01	1884.13
660.20	1722.34
660.39	1861.60
660.58	1564.65
660.76	1712.10
660.95	1720.29
661.14	1689.57
661.33	1581.03
661.51	1718.25
661.70	1722.34
661.89	1746.92
662.08	1720.29
662.26	1583.08
662.45	1624.04
662.64	1847.27
662.83	1763.30
663.01	1587.18
663.20	1685.48
663.39	1789.92
663.58	1800.16
663.76	1712.10
663.95	1734.63
664.14	1675.24
664.32	1667.05
664.51	1718.25
664.70	1636.33
664.89	1730.53
665.07	1652.71
665.26	1738.73
665.45	1613.80
665.64	1828.84
665.82	1683.43
666.01	1787.88
666.20	1685.48
666.38	1798.12
666.57	1779.68
666.76	2258.91
666.95	4665.27
667.13	10477.41
667.32	15324.95
667.51	18251.50
667.69	19183.32
667.88	18011.89
668.07	12433.22
668.25	9457.52
668.44	8200.07
668.63	7405.46
668.81	6801.30
669.00	6293.41
669.19	5734.31
669.38	5169.07
669.56	4581.31
669.75	3977.16
669.94	3493.83
670.12	2942.93
670.31	2467.80
670.50	2224.09
670.68	2035.68
670.87	1882.08
671.06	1796.07
671.24	1906.66
671.43	1798.12
671.62	1714.15
671.80	1695.72
671.99	1714.15
672.18	1828.84
672.36	1826.79
672.55	1742.82
672.74	1705.96
672.92	1712.10
673.11	1812.45
673.29	1724.39
673.48	1691.62
673.67	1683.43
673.85	1738.73
674.04	1662.95
674.23	1660.90
674.41	1822.69
674.60	1628.14
674.79	1626.09
674.97	1658.85
675.16	1820.64
675.34	1767.40
675.53	1630.18
675.72	1697.77
675.90	1812.45
676.09	1742.82
676.28	1675.24
676.46	1583.08
676.65	1769.44
676.83	1646.57
677.02	1718.25
677.21	1710.05
677.39	1722.34
677.58	1632.23
677.77	1708.01
677.95	1697.77
678.14	1679.33
678.32	1728.49
678.51	1681.38
678.70	1837.03
678.88	1679.33
679.07	1753.06
679.25	1630.18
679.44	1726.44
679.63	1644.52
679.81	1730.53
680.00	1802.21
680.18	1816.55
680.37	1765.35
680.55	1695.72
680.74	1619.94
680.93	1660.90
681.11	1689.57
681.30	1701.86
681.48	1742.82
681.67	1681.38
681.85	1701.86
682.04	1683.43
682.23	1757.16
682.41	1673.19
682.60	1695.72
682.78	1681.38
682.97	1660.90
683.15	1658.85
683.34	1703.91
683.53	1820.64
683.71	1669.09
683.90	1765.35
684.08	1882.08
684.27	1689.57
684.45	1796.07
684.64	1814.50
684.82	1652.71
685.01	1724.39
685.19	1697.77
685.38	1873.89
685.57	1667.05
685.75	1638.38
685.94	1669.09
686.12	1724.39
686.31	1691.62
686.49	1847.27
686.68	1648.61
686.86	1765.35
687.05	1736.68
687.23	1779.68
687.42	1683.43
687.60	1632.23
687.79	1859.56
687.97	1769.44
688.16	1757.16
688.34	1695.72
688.53	1621.99
688.71	1777.64
688.90	1765.35
689.08	1683.43
689.27	1603.56
689.45	1796.07
689.64	1667.05
689.82	1710.05
690.01	1761.25
690.19	1734.63
690.38	1705.96
690.56	1761.25
690.75	1636.33
690.93	1740.77
691.12	1722.34
691.30	1761.25
691.49	1591.27
691.67	1628.14
691.86	1781.73
692.04	1712.10
692.23	1669.09
692.41	1740.77
692.60	1787.88
692.78	1791.97
692.97	1658.85
693.15	1740.77
693.34	1867.75
693.52	1718.25
693.71	1665.00
693.89	1617.90
694.08	1675.24
694.26	1730.53
694.44	1763.30
694.63	1816.55
694.81	1708.01
695.00	1640.42
695.18	1783.78
695.37	1851.36
695.55	1748.97
695.74	1720.29
695.92	1662.95
696.10	1779.68
696.29	1638.38
696.47	1683.43
696.66	1677.29
696.84	1630.18
697.03	1710.05
697.21	1812.45
697.40	2287.58
697.58	1753.06
697.76	1697.77
697.95	1642.47
698.13	1671.14
698.32	1769.44
698.50	1708.01
698.68	1673.19
698.87	1736.68
699.05	1787.88
699.24	1716.20
699.42	1638.38
699.61	1695.72
699.79	1742.82
699.97	1632.23
700.16	1697.77
700.34	1658.85
700.53	1773.54
700.71	1738.73
700.89	1748.97
701.08	1761.25
701.26	1728.49
701.45	2148.32
701.63	1642.47
701.81	1669.09
702.00	1753.06
702.18	1767.40
702.37	1632.23
702.55	1773.54
702.73	1697.77
702.92	1671.14
703.10	1712.10
703.28	1755.11
703.47	1667.05
703.65	1773.54
703.84	1763.30
704.02	1650.66
704.20	1781.73
704.39	1679.33
704.57	1699.81
704.75	1759.21
704.94	1728.49
705.12	1732.58
705.30	1759.21
705.49	2238.43
705.67	4347.84
705.86	9611.12
706.04	12453.70
706.22	14634.78
706.41	15568.66
706.59	14130.98
706.77	9807.72
706.96	7403.41
707.14	6674.33
707.32	6100.90
707.51	5660.59
707.69	5019.57
707.87	4229.06
708.06	3504.07
708.24	2998.23
708.42	2422.75
708.61	2301.92
708.79	1820.64
708.97	1912.80
709.16	1814.50
709.34	1787.88
709.52	1708.01
709.71	1691.62
709.89	1699.81
710.07	1652.71
710.26	1644.52
710.44	1701.86
710.62	1781.73
710.80	1785.83
710.99	1695.72
711.17	1781.73
711.35	1636.33
711.54	1734.63
711.72	1732.58
711.90	1746.92
712.09	1726.44
712.27	1689.57
712.45	1751.01
712.63	1681.38
712.82	1683.43
713.00	1667.05
713.18	1777.64
713.37	1726.44
713.55	1736.68
713.73	1722.34
713.91	1710.05
714.10	1730.53
714.28	1710.05
714.46	1677.29
714.65	1652.71
714.83	1740.77
715.01	1755.11
715.19	1761.25
715.38	1669.09
715.56	1726.44
715.74	1710.05
715.92	1652.71
716.11	1775.59
716.29	1603.56
716.47	1699.81
716.65	1662.95
716.84	1544.17
717.02	1691.62
717.20	1691.62
717.38	1636.33
717.57	1656.81
717.75	1837.03
717.93	1669.09
718.11	1761.25
718.30	1654.76
718.48	1697.77
718.66	1703.91
718.84	1699.81
719.03	1693.67
719.21	1628.14
719.39	1757.16
719.57	1765.35
719.75	1757.16
719.94	1642.47
720.12	1710.05
720.30	1695.72
720.48	1742.82
720.67	1656.81
720.85	1558.50
721.03	1681.38
721.21	1654.76
721.39	1818.60
721.58	1744.87
721.76	1683.43
721.94	1705.96
722.12	1742.82
722.30	1800.16
722.49	1611.75
722.67	1732.58
722.85	1712.10
723.03	1599.46
723.21	1681.38
723.40	1722.34
723.58	1751.01
723.76	1738.73
723.94	1714.15
724.12	1581.03
724.30	1787.88
724.49	1728.49
724.67	1619.94
724.85	1830.88
725.03	1593.32
725.21	1736.68
725.40	1744.87
725.58	1656.81
725.76	1814.50
725.94	1667.05
726.12	1681.38
726.30	1615.85
726.49	1656.81
726.67	1677.29
726.85	1757.16
727.03	1748.97
727.21	2146.27
727.39	2973.65
727.57	3721.16
727.76	4198.34
727.94	4495.29
728.12	4378.56
728.30	3725.26
728.48	2947.03
728.66	2744.28
728.84	2461.66
729.03	2359.26
729.21	2115.55
729.39	2013.15
729.57	1806.31
729.75	1775.59
729.93	1871.84
730.11	1640.42
730.30	1714.15
730.48	1701.86
730.66	1757.16
730.84	1714.15
731.02	1708.01
731.20	1746.92
731.38	1703.91
731.56	1619.94
731.74	1603.56
731.93	1658.85
732.11	1710.05
732.29	1734.63
732.47	1669.09
732.65	1755.11
732.83	1722.34
733.01	1695.72
733.19	1701.86
733.37	1705.96
733.56	1841.12
733.74	1667.05
733.92	1763.30
734.10	1740.77
734.28	1722.34
734.46	1593.32
734.64	1593.32
734.82	1722.34
735.00	1648.61
735.18	1703.91
735.36	1730.53
735.54	1757.16
735.73	1712.10
735.91	1751.01
736.09	1691.62
736.27	1779.68
736.45	1730.53
736.63	1601.51
736.81	1730.53
736.99	1767.40
737.17	1779.68
737.35	1648.61
737.53	1705.96
737.71	1644.52
737.89	1681.38
738.07	1626.09
738.25	1624.04
738.43	1675.24
738.61	1708.01
738.80	1689.57
738.98	1607.66
739.16	1660.90
739.34	1675.24
739.52	1753.06
739.70	1742.82
739.88	1636.33
740.06	1808.36
740.24	1576.94
740.42	1708.01
740.60	1644.52
740.78	1568.74
740.96	1619.94
741.14	1675.24
741.32	1712.10
741.50	1609.70
741.68	1843.17
741.86	1759.21
742.04	1617.90
742.22	1630.18
742.40	1673.19
742.58	1716.20
742.76	1640.42
742.94	1789.92
743.12	1650.66
743.30	1714.15
743.48	1746.92
743.66	1640.42
743.84	1777.64
744.02	1703.91
744.20	1689.57
744.38	1658.85
744.56	1654.76
744.74	1837.03
744.92	1757.16
745.10	1806.31
745.28	1830.88
745.46	1853.41
745.64	1681.38
745.82	1759.21
746.00	1638.38
746.18	1697.77
746.36	1697.77
746.54	1703.91
746.72	1722.34
746.90	1644.52
747.08	1781.73
747.26	1679.33
747.44	1708.01
747.62	1732.58
747.80	1744.87
747.98	1820.64
748.15	1716.20
748.33	1744.87
748.51	1751.01
748.69	1769.44
748.87	1662.95
749.05	1679.33
749.23	1722.34
749.41	1746.92
749.59	1697.77
749.77	1775.59
749.95	1730.53
750.13	1671.14
750.31	1697.77
750.49	1746.92
750.67	1763.30
750.85	1775.59
751.03	1687.53
751.20	1791.97
751.38	1701.86
751.56	1599.46
751.74	1734.63
751.92	1660.90
752.10	1658.85
752.28	1804.26
752.46	1632.23
752.64	1748.97
752.82	1691.62
753.00	1787.88
753.18	1665.00
753.35	1656.81
753.53	1632.23
753.71	1736.68
753.89	1722.34
754.07	1591.27
754.25	1755.11
754.43	1712.10
754.61	1624.04
754.79	1765.35
754.97	1705.96
755.14	1761.25
755.32	1697.77
755.50	1714.15
755.68	1667.05
755.86	1593.32
756.04	1626.09
756.22	1613.80
756.40	1683.43
756.57	1820.64
756.75	1718.25
756.93	1730.53
757.11	1755.11
757.29	1619.94
757.47	1658.85
757.65	1662.95
757.82	1611.75
758.00	1646.57
758.18	1605.61
758.36	1626.09
758.54	1814.50
758.72	1626.09
758.90	1740.77
759.07	1662.95
759.25	1701.86
759.43	1789.92
759.61	1669.09
759.79	2195.42
759.97	1697.77
760.15	1746.92
760.32	1728.49
760.50	1683.43
760.68	1828.84
760.86	1636.33
761.04	1798.12
761.22	1644.52
761.39	1775.59
761.57	1746.92
761.75	1667.05
761.93	1718.25
762.11	1708.01
762.28	1759.21
762.46	1640.42
762.64	1726.44
762.82	1656.81
763.00	1650.66
763.18	1808.36
763.35	1621.99
763.53	1722.34
763.71	1716.20
763.89	1710.05
764.07	1730.53
764.24	1751.01
764.42	1746.92
764.60	1658.85
764.78	1716.20
764.96	1769.44
765.13	1744.87
765.31	1611.75
765.49	1712.10
765.67	1593.32
765.84	1675.24
766.02	1642.47
766.20	1609.70
766.38	1748.97
766.56	1746.92
766.73	1691.62
766.91	1667.05
767.09	1703.91
767.27	1701.86
767.44	1621.99
767.62	1712.10
767.80	1656.81
767.98	1699.81
768.15	1724.39
768.33	1781.73
768.51	1748.97
768.69	1677.29
768.87	1728.49
769.04	1720.29
769.22	1802.21
769.40	1849.32
769.58	1859.56
769.75	1728.49
769.93	1773.54
770.11	1685.48
770.28	1740.77
770.46	1783.78
770.64	1734.63
770.82	1669.09
770.99	1667.05
771.17	1732.58
771.35	1679.33
771.53	1705.96
771.70	1716.20
771.88	1697.77
772.06	1710.05
772.23	1730.53
772.41	1765.35
772.59	1677.29
772.77	1697.77
772.94	1708.01
773.12	1744.87
773.30	1677.29
773.47	1710.05
773.65	1619.94
773.83	1685.48
774.01	1716.20
774.18	1615.85
774.36	1619.94
774.54	1611.75
774.71	1712.10
774.89	1691.62
775.07	1685.48
775.24	1691.62
775.42	1708.01
775.60	1822.69
775.78	1695.72
775.95	1658.85
776.13	1611.75
776.31	1626.09
776.48	1722.34
776.66	1710.05
776.84	1681.38
777.01	1703.91
777.19	1646.57
777.37	1730.53
777.54	1767.40
777.72	1794.02
777.90	1703.91
778.07	1626.09
778.25	1857.51
778.43	1687.53
778.60	1665.00
778.78	1697.77
778.96	1751.01
779.13	1533.93
779.31	1726.44
779.49	1636.33
779.66	1646.57
779.84	1681.38
780.01	1679.33
780.19	1677.29
780.37	1763.30
780.54	1761.25
780.72	1710.05
780.90	1701.86
781.07	1640.42
781.25	1714.15
781.43	1783.78
781.60	1662.95
781.78	1779.68
781.95	1656.81
782.13	1697.77
782.31	1638.38
782.48	1640.42
782.66	1748.97
782.83	1757.16
783.01	1677.29
783.19	1773.54
783.36	1683.43
783.54	1693.67
783.72	1753.06
783.89	1646.57
784.07	1667.05
784.24	1742.82
784.42	1875.94
784.60	1722.34
784.77	1720.29
784.95	1638.38
785.12	1662.95
785.30	1687.53
785.47	1640.42
785.65	1662.95
785.83	1658.85
786.00	1665.00
786.18	1740.77
786.35	1665.00
786.53	1671.14
786.71	1740.77
786.88	1656.81
787.06	1736.68
787.23	1724.39
787.41	1689.57
787.58	1642.47
787.76	1658.85
787.94	1691.62
788.11	1794.02
788.29	1716.20
788.46	1746.92
788.64	1636.33
788.81	1669.09
788.99	1681.38
789.16	1724.39
789.34	1679.33
789.52	1681.38
789.69	1738.73
789.87	1632.23
790.04	1675.24
790.22	1697.77
790.39	1849.32
790.57	1675.24
790.74	1617.90
790.92	1740.77
791.09	1628.14
791.27	1705.96
791.44	1818.60
791.62	1654.76
791.79	1751.01
791.97	1669.09
792.15	1916.90
792.32	1697.77
792.50	1673.19
792.67	1744.87
792.85	1804.26
793.02	1744.87
793.20	1656.81
793.37	1662.95
793.55	1681.38
793.72	1599.46
793.90	1673.19
794.07	1683.43
794.25	1703.91
794.42	1662.95
794.60	1652.71
794.77	1794.02
794.95	1705.96
795.12	1755.11
795.30	1685.48
795.47	1640.42
795.65	1841.12
795.82	1656.81
796.00	1609.70
796.17	1687.53
796.34	1621.99
796.52	1644.52
796.69	1781.73
796.87	1673.19
797.04	1638.38
797.22	1724.39
797.39	1718.25
797.57	1789.92
797.74	1669.09
797.92	1662.95
798.09	1699.81
798.27	1718.25
798.44	1763.30
798.62	1630.18
798.79	1701.86
798.96	1742.82
799.14	1718.25
799.31	1757.16
799.49	1658.85
799.66	1753.06
799.84	1775.59
800.01	1603.56
800.19	1816.55
800.36	1585.13
800.53	1650.66
800.71	1722.34
800.88	1837.03
801.06	1669.09
801.23	1634.28
801.41	1638.38
801.58	1699.81
801.75	1636.33
801.93	1716.20
802.10	1722.34
802.28	1665.00
802.45	1701.86
802.63	1701.86
802.80	1779.68
802.97	1697.77
803.15	1751.01
803.32	1701.86
803.50	1677.29
803.67	1675.24
803.84	1658.85
804.02	1691.62
804.19	1652.71
804.37	1583.08
804.54	1642.47
804.71	1630.18
804.89	1652.71
805.06	1648.61
805.24	1693.67
805.41	1640.42
805.58	1671.14
805.76	1839.08
805.93	1734.63
806.10	1798.12
806.28	1732.58
806.45	1697.77
806.63	1781.73
806.80	1705.96
806.97	1681.38
807.15	1693.67
807.32	1665.00
807.49	1751.01
807.67	1646.57
807.84	1720.29
808.01	1613.80
808.19	1808.36
808.36	1783.78
808.54	1673.19
808.71	1632.23
808.88	1724.39
809.06	1724.39
809.23	1771.49
809.40	1640.42
809.58	1794.02
809.75	1705.96
809.92	1615.85
810.10	1804.26
810.27	1675.24
810.44	1689.57
810.62	1699.81
810.79	1726.44
810.96	1697.77
811.14	1650.66
811.31	1724.39
811.48	1712.10
811.66	1673.19
811.83	1734.63
812.00	1824.74
812.18	1701.86
812.35	1841.12
812.52	1683.43
812.69	1667.05
812.87	1656.81
813.04	1665.00
813.21	1720.29
813.39	1730.53
813.56	1546.22
813.73	1732.58
813.91	1574.89
814.08	1697.77
814.25	1742.82
814.42	1585.13
814.60	1712.10
814.77	1740.77
814.94	1691.62
815.12	1728.49
815.29	1736.68
815.46	1669.09
815.63	1787.88
815.81	1640.42
815.98	1632.23
816.15	1679.33
816.33	1685.48
816.50	1656.81
816.67	1646.57
816.84	1693.67
817.02	1665.00
817.19	1665.00
817.36	1714.15
817.53	1714.15
817.71	1574.89
817.88	1794.02
818.05	1675.24
818.22	1675.24
818.40	1738.73
818.57	1699.81
818.74	1740.77
818.91	1652.71
819.09	1687.53
819.26	1724.39
819.43	1683.43
819.60	1640.42
819.78	1744.87
819.95	1720.29
820.12	1697.77
820.29	1767.40
820.47	1691.62
820.64	1701.86
820.81	1568.74
820.98	1609.70
821.15	1621.99
821.33	1691.62
821.50	1644.52
821.67	1746.92
821.84	1722.34
822.02	1712.10
822.19	1740.77
822.36	1703.91
822.53	1724.39
822.70	1626.09
822.88	1720.29
823.05	1794.02
823.22	1689.57
823.39	1748.97
823.56	1681.38
823.74	1853.41
823.91	1695.72
824.08	1591.27
824.25	1691.62
824.42	1722.34
824.60	1613.80
824.77	1683.43
824.94	1671.14
825.11	1746.92
825.28	1617.90
825.45	1722.34
825.63	1722.34
825.80	1667.05
825.97	1708.01
826.14	1691.62
826.31	1632.23
826.48	1705.96
826.66	1652.71
826.83	1701.86
827.00	1681.38
827.17	1665.00
827.34	1765.35
827.51	1626.09
827.69	1656.81
827.86	1607.66
828.03	1703.91
828.20	1708.01
828.37	1679.33
828.54	1755.11
828.71	1624.04
828.89	1818.60
829.06	1800.16
829.23	1783.78
829.40	1654.76
829.57	1673.19
829.74	1689.57
829.91	1626.09
830.09	1697.77
830.26	1687.53
830.43	1834.98
830.60	1742.82
830.77	1660.90
830.94	1755.11
831.11	1767.40
831.28	1771.49
831.46	1763.30
831.63	1640.42
831.80	1662.95
831.97	1642.47
832.14	1683.43
832.31	1708.01
832.48	1673.19
832.65	1810.40
832.82	1708.01
832.99	1753.06
833.17	1605.61
833.34	1779.68
833.51	1746.92
833.68	1642.47
833.85	1701.86
834.02	1658.85
834.19	1675.24
834.36	1642.47
834.53	1703.91
834.70	1718.25
834.87	1746.92
835.04	1624.04
835.22	1689.57
835.39	1626.09
835.56	1644.52
835.73	1689.57
835.90	1710.05
836.07	1626.09
836.24	1738.73
836.41	1621.99
836.58	1632.23
836.75	1740.77
836.92	1730.53
837.09	1675.24
837.26	1746.92
837.43	1708.01
837.60	1742.82
837.77	1693.67
837.94	1804.26
838.12	1796.07
838.29	1724.39
838.46	1689.57
838.63	1654.76
838.80	1751.01
838.97	1746.92
839.14	1742.82
839.31	1705.96
839.48	1773.54
839.65	1642.47
839.82	1728.49
839.99	1742.82
840.16	1695.72
840.33	1652.71
840.50	1724.39
840.67	1675.24
840.84	1581.03
841.01	1742.82
841.18	1669.09
841.35	1705.96
841.52	1646.57
841.69	1765.35
841.86	1689.57
842.03	1693.67
842.20	1789.92
842.37	1648.61
842.54	1642.47
842.71	1677.29
842.88	1595.37
843.05	1669.09
843.22	1714.15
843.39	1722.34
843.56	1665.00
843.73	1611.75
843.90	1685.48
844.07	1710.05
844.24	1703.91
844.41	1728.49
844.58	1720.29
844.75	1638.38
844.92	1695.72
845.09	1714.15
845.26	1662.95
845.43	1658.85
845.60	1632.23
845.77	1748.97
845.94	1765.35
846.10	1660.90
846.27	1630.18
846.44	1691.62
846.61	1671.14
846.78	1744.87
846.95	1771.49
847.12	1665.00
847.29	1693.67
847.46	1593.32
847.63	1742.82
847.80	1619.94
847.97	1656.81
848.14	1730.53
848.31	1673.19
848.48	1560.55
848.65	1708.01
848.82	1712.10
848.98	1861.60
849.15	1812.45
849.32	1738.73
849.49	1757.16
849.66	1777.64
849.83	1753.06
850.00	1642.47
850.17	1728.49
850.34	1652.71
850.51	1671.14
850.68	1740.77
850.85	1785.83
851.01	1636.33
851.18	1714.15
851.35	1624.04
851.52	1675.24
851.69	1767.40
851.86	1642.47
852.03	1730.53
852.20	1716.20
852.37	1619.94
852.53	1660.90
852.70	1708.01
852.87	1683.43
853.04	1683.43
853.21	1667.05
853.38	1730.53
853.55	1761.25
853.72	1779.68
853.89	1581.03
854.05	1683.43
854.22	1728.49
854.39	1689.57
854.56	1693.67
854.73	1847.27
854.90	1728.49
855.07	1681.38
855.23	1673.19
855.40	1634.28
855.57	1693.67
855.74	1630.18
855.91	1918.95
856.08	1591.27
856.25	1648.61
856.41	1718.25
856.58	1714.15
856.75	1671.14
856.92	1619.94
857.09	1787.88
857.26	1652.71
857.42	1703.91
857.59	1724.39
857.76	1697.77
857.93	1789.92
858.10	1734.63
858.27	1589.22
858.43	1740.77
858.60	1605.61
858.77	1644.52
858.94	1581.03
859.11	1769.44
859.27	1640.42
859.44	1751.01
859.61	1812.45
859.78	1701.86
859.95	1697.77
860.12	1673.19
860.28	1738.73
860.45	1738.73
860.62	1699.81
860.79	1714.15
860.95	1701.86
861.12	1716.20
861.29	1712.10
861.46	1615.85
861.63	1615.85
861.79	1837.03
861.96	1603.56
862.13	1605.61
862.30	1675.24
862.47	1671.14
862.63	1689.57
862.80	1818.60
862.97	1701.86
863.14	1783.78
863.30	1753.06
863.47	1677.29
863.64	1837.03
863.81	1740.77
863.97	1675.24
864.14	1773.54
864.31	1687.53
864.48	1775.59
864.65	1638.38
864.81	1824.74
864.98	1738.73
865.15	1691.62
865.32	1671.14
865.48	1748.97
865.65	1855.46
865.82	1679.33
865.98	1751.01
866.15	1728.49
866.32	1699.81
866.49	1683.43
866.65	1755.11
866.82	1689.57
866.99	1701.86
867.16	1695.72
867.32	1662.95
867.49	1671.14
867.66	1662.95
867.83	1617.90
867.99	1644.52
868.16	1665.00
868.33	1617.90
868.49	1691.62
868.66	1695.72
868.83	1798.12
868.99	1701.86
869.16	1689.57
869.33	1798.12
869.50	1771.49
869.66	1611.75
869.83	1761.25
870.00	1636.33
870.16	1746.92
870.33	1751.01
870.50	1681.38
870.66	1697.77
870.83	1826.79
871.00	1619.94
871.17	1683.43
871.33	1734.63
871.50	1726.44
871.67	1636.33
871.83	1779.68
872.00	1769.44
872.17	1683.43
872.33	1748.97
872.50	1773.54
872.67	1714.15
872.83	1748.97
873.00	1693.67
873.17	1652.71
873.33	1742.82
873.50	1734.63
873.67	1669.09
873.83	1626.09
874.00	1662.95
874.16	1730.53
874.33	1689.57
874.50	1624.04
874.66	1708.01
874.83	1757.16
875.00	1800.16
875.16	1689.57
875.33	1789.92
875.50	1609.70
875.66	1724.39
875.83	1683.43
875.99	1732.58
876.16	1716.20
876.33	1648.61
876.49	1726.44
876.66	1734.63
876.83	1822.69
876.99	1607.66
877.16	1705.96
877.32	1624.04
877.49	1675.24
877.66	1746.92
877.82	1834.98
877.99	1701.86
878.15	1816.55
878.32	1720.29
878.49	1785.83
878.65	1693.67
878.82	1732.58
878.98	1728.49
879.15	1814.50
879.32	1730.53
879.48	1771.49
879.65	1695.72
879.81	1691.62
879.98	1607.66
880.15	1685.48
880.31	1767.40
880.48	1648.61
880.64	1679.33
880.81	1722.34
880.97	1861.60
881.14	1806.31
881.31	1646.57
881.47	1828.84
881.64	1658.85
881.80	1628.14
881.97	1703.91
882.13	1779.68
882.30	1589.22
882.47	1673.19
882.63	1619.94
882.80	1693.67
882.96	1662.95
883.13	1800.16
883.29	1679.33
883.46	1658.85
883.62	1783.78
883.79	1722.34
883.95	1701.86
884.12	1681.38
884.29	1804.26
884.45	1714.15
884.62	1767.40
884.78	1675.24
884.95	1781.73
885.11	1587.18
885.28	1769.44
885.44	1671.14
885.61	1742.82
885.77	1757.16
885.94	1667.05
886.10	1769.44
886.27	1660.90
886.43	1734.63
886.60	1691.62
886.76	1658.85
886.93	1626.09
887.09	1755.11
887.26	1652.71
887.42	1738.73
887.59	1775.59
887.75	1789.92
887.92	1734.63
888.08	1740.77
888.25	1761.25
888.41	1681.38
888.58	1757.16
888.74	1642.47
888.91	1677.29
>>>>>End Processed Spectral Data<<<<<
