SpectraSuite Data File
++++++++++++++++++++++++++++++++++++
Date: Mon Jun 06 12:38:17 CEST 2016
User: root
Dark Spectrum Present: No
Reference Spectrum Present: No
Number of Sampled Component Spectra: 1
Spectrometers: USB4C02835
Integration Time (usec): 100000 (USB4C02835)
Spectra Averaged: 1 (USB4C02835)
Boxcar Smoothing: 0 (USB4C02835)
Correct for Electrical Dark: No (USB4C02835)
Strobe/Lamp Enabled: No (USB4C02835)
Correct for Detector Non-linearity: No (USB4C02835)
Correct for Stray Light: No (USB4C02835)
Number of Pixels in Processed Spectrum: 3648
>>>>>Begin Processed Spectral Data<<<<<
177.47	1435.63
177.69	1435.63
177.91	1435.63
178.13	1486.83
178.36	1490.92
178.58	1603.56
178.80	1660.90
179.02	1642.47
179.24	1613.80
179.46	1681.38
179.68	1767.40
179.90	1705.96
180.13	1650.66
180.35	1681.38
180.57	1677.29
180.79	1742.82
181.01	1642.47
181.23	1759.21
181.45	1650.66
181.67	1687.53
181.90	1794.02
182.12	1699.81
182.34	1640.42
182.56	1710.05
182.78	1701.86
183.00	1671.14
183.22	1724.39
183.44	1564.65
183.66	1824.74
183.89	1800.16
184.11	1748.97
184.33	1738.73
184.55	1773.54
184.77	1759.21
184.99	1744.87
185.21	1617.90
185.43	1798.12
185.65	1746.92
185.87	1722.34
186.10	1861.60
186.32	1843.17
186.54	1824.74
186.76	1736.68
186.98	1716.20
187.20	1697.77
187.42	1681.38
187.64	1738.73
187.86	1703.91
188.08	1751.01
188.30	1738.73
188.52	1613.80
188.75	1794.02
188.97	1787.88
189.19	1615.85
189.41	1621.99
189.63	1755.11
189.85	1718.25
190.07	1603.56
190.29	1585.13
190.51	1699.81
190.73	1615.85
190.95	1714.15
191.17	1693.67
191.39	1658.85
191.61	1667.05
191.84	1617.90
192.06	1722.34
192.28	1587.18
192.50	1914.85
192.72	1726.44
192.94	1773.54
193.16	1798.12
193.38	1705.96
193.60	1673.19
193.82	1695.72
194.04	1732.58
194.26	1746.92
194.48	1732.58
194.70	1720.29
194.92	1638.38
195.14	1789.92
195.36	1703.91
195.58	1751.01
195.80	1757.16
196.02	1628.14
196.24	1662.95
196.46	1718.25
196.69	1701.86
196.91	1886.18
197.13	1675.24
197.35	1683.43
197.57	1714.15
197.79	1675.24
198.01	1736.68
198.23	1837.03
198.45	1642.47
198.67	1636.33
198.89	1626.09
199.11	1736.68
199.33	1624.04
199.55	1568.74
199.77	1646.57
199.99	1669.09
200.21	1626.09
200.43	1757.16
200.65	1593.32
200.87	1570.79
201.09	1687.53
201.31	1685.48
201.53	1804.26
201.75	1693.67
201.97	1697.77
202.19	1671.14
202.41	1773.54
202.63	1816.55
202.85	1710.05
203.07	1671.14
203.29	1609.70
203.51	1617.90
203.73	1656.81
203.95	1832.93
204.17	1677.29
204.39	1716.20
204.61	1720.29
204.83	1699.81
205.05	1765.35
205.27	1763.30
205.49	1920.99
205.71	1710.05
205.93	1681.38
206.15	1705.96
206.37	1697.77
206.59	1624.04
206.81	1609.70
207.03	1667.05
207.25	1593.32
207.47	1761.25
207.69	1685.48
207.91	1781.73
208.13	1810.40
208.34	1712.10
208.56	1583.08
208.78	1746.92
209.00	1638.38
209.22	1703.91
209.44	1779.68
209.66	1658.85
209.88	1595.37
210.10	1642.47
210.32	1656.81
210.54	1800.16
210.76	1720.29
210.98	1716.20
211.20	1607.66
211.42	1740.77
211.64	1751.01
211.86	1779.68
212.08	1681.38
212.30	1697.77
212.52	1642.47
212.74	1724.39
212.96	1667.05
213.17	1771.49
213.39	1757.16
213.61	1812.45
213.83	1783.78
214.05	1591.27
214.27	1753.06
214.49	1710.05
214.71	1648.61
214.93	1892.32
215.15	1806.31
215.37	1753.06
215.59	1642.47
215.81	1724.39
216.03	1837.03
216.24	1783.78
216.46	1701.86
216.68	1718.25
216.90	1765.35
217.12	1746.92
217.34	1718.25
217.56	1669.09
217.78	1810.40
218.00	1710.05
218.22	1671.14
218.44	1740.77
218.66	1683.43
218.87	1808.36
219.09	1658.85
219.31	1695.72
219.53	1724.39
219.75	1681.38
219.97	1648.61
220.19	1685.48
220.41	1679.33
220.63	1718.25
220.85	1763.30
221.06	1658.85
221.28	1791.97
221.50	1742.82
221.72	1681.38
221.94	1716.20
222.16	1705.96
222.38	1746.92
222.60	1767.40
222.82	1681.38
223.03	1718.25
223.25	1660.90
223.47	1720.29
223.69	1912.80
223.91	1722.34
224.13	1665.00
224.35	1650.66
224.57	1740.77
224.78	1710.05
225.00	1597.42
225.22	1609.70
225.44	1708.01
225.66	1656.81
225.88	1624.04
226.10	1744.87
226.32	1763.30
226.53	1738.73
226.75	1669.09
226.97	1603.56
227.19	1685.48
227.41	1669.09
227.63	1681.38
227.85	1642.47
228.06	1656.81
228.28	1675.24
228.50	1701.86
228.72	1720.29
228.94	1585.13
229.16	1556.46
229.37	1662.95
229.59	1624.04
229.81	1710.05
230.03	1675.24
230.25	1632.23
230.47	1673.19
230.69	1640.42
230.90	1771.49
231.12	1685.48
231.34	1726.44
231.56	1703.91
231.78	1648.61
232.00	1630.18
232.21	1695.72
232.43	1673.19
232.65	1583.08
232.87	1667.05
233.09	1640.42
233.30	1605.61
233.52	1755.11
233.74	1611.75
233.96	1746.92
234.18	1701.86
234.40	1632.23
234.61	1875.94
234.83	1638.38
235.05	1728.49
235.27	1781.73
235.49	1775.59
235.70	1769.44
235.92	1753.06
236.14	1720.29
236.36	1843.17
236.58	1595.37
236.79	1695.72
237.01	1701.86
237.23	1681.38
237.45	1828.84
237.67	1609.70
237.88	1728.49
238.10	1796.07
238.32	1718.25
238.54	1675.24
238.76	1626.09
238.97	1636.33
239.19	1671.14
239.41	1773.54
239.63	1808.36
239.85	1681.38
240.06	1732.58
240.28	1716.20
240.50	1748.97
240.72	1701.86
240.93	1667.05
241.15	1785.83
241.37	1716.20
241.59	1724.39
241.81	1724.39
242.02	1607.66
242.24	1708.01
242.46	1726.44
242.68	1636.33
242.89	1767.40
243.11	1763.30
243.33	1718.25
243.55	1689.57
243.76	1742.82
243.98	1718.25
244.20	1724.39
244.42	1691.62
244.64	1726.44
244.85	1607.66
245.07	1576.94
245.29	1744.87
245.51	1650.66
245.72	1671.14
245.94	1791.97
246.16	1638.38
246.38	1734.63
246.59	1654.76
246.81	1699.81
247.03	1669.09
247.24	1665.00
247.46	1753.06
247.68	1701.86
247.90	1650.66
248.11	1665.00
248.33	1691.62
248.55	1748.97
248.77	1726.44
248.98	1703.91
249.20	1736.68
249.42	1693.67
249.64	1689.57
249.85	1665.00
250.07	1665.00
250.29	1693.67
250.50	1609.70
250.72	1708.01
250.94	1685.48
251.16	1787.88
251.37	1830.88
251.59	1730.53
251.81	1746.92
252.02	1773.54
252.24	1701.86
252.46	1779.68
252.68	1617.90
252.89	1708.01
253.11	1640.42
253.33	1828.84
253.54	1728.49
253.76	1583.08
253.98	1656.81
254.20	1724.39
254.41	1605.61
254.63	1662.95
254.85	1560.55
255.06	1648.61
255.28	1716.20
255.50	1689.57
255.71	1654.76
255.93	1644.52
256.15	1699.81
256.36	1779.68
256.58	1667.05
256.80	1763.30
257.02	1744.87
257.23	1673.19
257.45	1701.86
257.67	1775.59
257.88	1675.24
258.10	1724.39
258.32	1687.53
258.53	1705.96
258.75	1734.63
258.97	1662.95
259.18	1716.20
259.40	1755.11
259.62	1779.68
259.83	1736.68
260.05	1724.39
260.27	2017.25
260.48	1785.83
260.70	1634.28
260.92	1677.29
261.13	1722.34
261.35	1687.53
261.57	1695.72
261.78	1626.09
262.00	1716.20
262.22	1703.91
262.43	1603.56
262.65	1710.05
262.86	1689.57
263.08	1904.61
263.30	1705.96
263.51	1603.56
263.73	1605.61
263.95	1779.68
264.16	1675.24
264.38	1621.99
264.60	1718.25
264.81	1605.61
265.03	1828.84
265.25	1806.31
265.46	1697.77
265.68	1748.97
265.89	1708.01
266.11	1669.09
266.33	1808.36
266.54	1796.07
266.76	1724.39
266.98	1791.97
267.19	1724.39
267.41	1742.82
267.62	1660.90
267.84	1687.53
268.06	1773.54
268.27	1734.63
268.49	1791.97
268.70	1744.87
268.92	1701.86
269.14	1634.28
269.35	1644.52
269.57	1693.67
269.79	1759.21
270.00	1722.34
270.22	1718.25
270.43	1603.56
270.65	1671.14
270.87	1681.38
271.08	1738.73
271.30	1615.85
271.51	1687.53
271.73	1738.73
271.95	1716.20
272.16	1714.15
272.38	1693.67
272.59	1656.81
272.81	1650.66
273.02	1785.83
273.24	1806.31
273.46	1769.44
273.67	1632.23
273.89	1665.00
274.10	1667.05
274.32	1806.31
274.54	1736.68
274.75	1703.91
274.97	1656.81
275.18	1687.53
275.40	1746.92
275.61	1746.92
275.83	1667.05
276.05	1628.14
276.26	1675.24
276.48	1701.86
276.69	1718.25
276.91	1603.56
277.12	1794.02
277.34	1800.16
277.55	1746.92
277.77	1769.44
277.99	1642.47
278.20	1675.24
278.42	1708.01
278.63	1658.85
278.85	1669.09
279.06	1714.15
279.28	1783.78
279.49	1753.06
279.71	1732.58
279.93	1681.38
280.14	1681.38
280.36	1671.14
280.57	1828.84
280.79	1718.25
281.00	1671.14
281.22	1675.24
281.43	1822.69
281.65	1593.32
281.86	1644.52
282.08	1703.91
282.29	1732.58
282.51	1513.45
282.73	1650.66
282.94	1667.05
283.16	1742.82
283.37	1775.59
283.59	1611.75
283.80	1751.01
284.02	1701.86
284.23	1677.29
284.45	1718.25
284.66	1624.04
284.88	1609.70
285.09	1712.10
285.31	1730.53
285.52	1720.29
285.74	1665.00
285.95	1669.09
286.17	1617.90
286.38	1771.49
286.60	1640.42
286.81	1722.34
287.03	1714.15
287.24	1779.68
287.46	1710.05
287.67	1648.61
287.89	1812.45
288.10	1699.81
288.32	1751.01
288.53	1777.64
288.75	1718.25
288.96	1685.48
289.18	1701.86
289.39	1714.15
289.61	1775.59
289.82	1761.25
290.04	1785.83
290.25	1665.00
290.47	1695.72
290.68	1615.85
290.90	1814.50
291.11	1568.74
291.33	1751.01
291.54	1685.48
291.76	1609.70
291.97	1759.21
292.18	1703.91
292.40	1708.01
292.61	1656.81
292.83	1839.08
293.04	1712.10
293.26	1671.14
293.47	1751.01
293.69	1644.52
293.90	1683.43
294.12	1761.25
294.33	1718.25
294.55	1675.24
294.76	1761.25
294.97	1732.58
295.19	1837.03
295.40	1748.97
295.62	1642.47
295.83	1726.44
296.05	1648.61
296.26	1761.25
296.48	1673.19
296.69	1714.15
296.90	1763.30
297.12	1703.91
297.33	1810.40
297.55	1765.35
297.76	1759.21
297.98	1736.68
298.19	1783.78
298.41	1681.38
298.62	1578.98
298.83	1746.92
299.05	1734.63
299.26	1615.85
299.48	1669.09
299.69	1724.39
299.90	1691.62
300.12	1662.95
300.33	1767.40
300.55	1693.67
300.76	1710.05
300.98	1624.04
301.19	1689.57
301.40	1638.38
301.62	1689.57
301.83	1728.49
302.05	1734.63
302.26	1660.90
302.47	1697.77
302.69	1660.90
302.90	1617.90
303.12	1566.70
303.33	1699.81
303.54	1773.54
303.76	1665.00
303.97	1667.05
304.19	1785.83
304.40	1621.99
304.61	1746.92
304.83	1810.40
305.04	1759.21
305.26	1724.39
305.47	1658.85
305.68	1646.57
305.90	1681.38
306.11	1701.86
306.33	1728.49
306.54	1683.43
306.75	1558.50
306.97	1628.14
307.18	1667.05
307.39	1630.18
307.61	1726.44
307.82	1630.18
308.04	1785.83
308.25	1642.47
308.46	1681.38
308.68	1644.52
308.89	1761.25
309.10	1816.55
309.32	1714.15
309.53	1699.81
309.74	1689.57
309.96	1732.58
310.17	1746.92
310.39	1699.81
310.60	1732.58
310.81	1710.05
311.03	1636.33
311.24	1677.29
311.45	1708.01
311.67	1748.97
311.88	1751.01
312.09	1683.43
312.31	1611.75
312.52	1648.61
312.73	1691.62
312.95	1617.90
313.16	1665.00
313.37	1726.44
313.59	1753.06
313.80	1783.78
314.01	1785.83
314.23	1636.33
314.44	1705.96
314.65	1583.08
314.87	1650.66
315.08	1673.19
315.29	1689.57
315.51	1634.28
315.72	1705.96
315.93	1828.84
316.15	1722.34
316.36	1638.38
316.57	1685.48
316.79	1708.01
317.00	1615.85
317.21	1722.34
317.43	1656.81
317.64	1675.24
317.85	1617.90
318.07	1665.00
318.28	1718.25
318.49	1855.46
318.70	1873.89
318.92	1812.45
319.13	1841.12
319.34	1880.04
319.56	1808.36
319.77	1808.36
319.98	1775.59
320.20	1802.21
320.41	1767.40
320.62	1712.10
320.83	1771.49
321.05	1830.88
321.26	1757.16
321.47	1699.81
321.69	1800.16
321.90	1646.57
322.11	1689.57
322.32	1683.43
322.54	1748.97
322.75	1644.52
322.96	1806.31
323.18	1683.43
323.39	1533.93
323.60	1656.81
323.81	1740.77
324.03	1566.70
324.24	1693.67
324.45	1701.86
324.66	1658.85
324.88	1744.87
325.09	1837.03
325.30	1726.44
325.52	1720.29
325.73	1759.21
325.94	1603.56
326.15	1583.08
326.37	1687.53
326.58	1685.48
326.79	1773.54
327.00	1691.62
327.22	1734.63
327.43	1667.05
327.64	1605.61
327.85	1710.05
328.07	1710.05
328.28	1806.31
328.49	1626.09
328.70	1658.85
328.92	1726.44
329.13	1714.15
329.34	1740.77
329.55	1791.97
329.76	1748.97
329.98	1714.15
330.19	1755.11
330.40	1693.67
330.61	1703.91
330.83	1751.01
331.04	1673.19
331.25	1679.33
331.46	1718.25
331.68	1636.33
331.89	1724.39
332.10	1714.15
332.31	1585.13
332.52	1613.80
332.74	1796.07
332.95	1724.39
333.16	1695.72
333.37	1724.39
333.58	1783.78
333.80	1685.48
334.01	1609.70
334.22	1722.34
334.43	1630.18
334.64	1726.44
334.86	1617.90
335.07	1677.29
335.28	1800.16
335.49	1636.33
335.70	1646.57
335.92	1765.35
336.13	1796.07
336.34	1710.05
336.55	1710.05
336.76	1683.43
336.98	1628.14
337.19	1660.90
337.40	1789.92
337.61	1845.22
337.82	1665.00
338.04	1773.54
338.25	1560.55
338.46	1642.47
338.67	1654.76
338.88	1646.57
339.09	1589.22
339.31	1681.38
339.52	1638.38
339.73	1636.33
339.94	1720.29
340.15	1822.69
340.36	1636.33
340.58	1693.67
340.79	1628.14
341.00	1667.05
341.21	1691.62
341.42	1755.11
341.63	1634.28
341.85	1726.44
342.06	1681.38
342.27	1615.85
342.48	1767.40
342.69	1648.61
342.90	1679.33
343.12	1798.12
343.33	1632.23
343.54	1683.43
343.75	1757.16
343.96	1669.09
344.17	1677.29
344.38	1638.38
344.60	1646.57
344.81	1675.24
345.02	1619.94
345.23	1802.21
345.44	1845.22
345.65	1697.77
345.86	1708.01
346.07	1669.09
346.29	1730.53
346.50	1710.05
346.71	1773.54
346.92	1724.39
347.13	1777.64
347.34	1708.01
347.55	1687.53
347.76	1753.06
347.98	1550.31
348.19	1646.57
348.40	1753.06
348.61	1683.43
348.82	1734.63
349.03	1701.86
349.24	1669.09
349.45	1755.11
349.66	1597.42
349.88	1669.09
350.09	1660.90
350.30	1763.30
350.51	1732.58
350.72	1656.81
350.93	1732.58
351.14	1677.29
351.35	1714.15
351.56	1679.33
351.77	1724.39
351.99	1728.49
352.20	1837.03
352.41	1675.24
352.62	1636.33
352.83	1679.33
353.04	1699.81
353.25	1705.96
353.46	1769.44
353.67	1724.39
353.88	1576.94
354.09	1689.57
354.30	1712.10
354.52	1693.67
354.73	1708.01
354.94	1624.04
355.15	1716.20
355.36	1761.25
355.57	1609.70
355.78	1634.28
355.99	1634.28
356.20	1646.57
356.41	1814.50
356.62	1701.86
356.83	1654.76
357.04	1701.86
357.25	1605.61
357.46	1609.70
357.68	1615.85
357.89	1699.81
358.10	1699.81
358.31	1658.85
358.52	1609.70
358.73	1574.89
358.94	1601.51
359.15	1548.26
359.36	1759.21
359.57	1705.96
359.78	1644.52
359.99	1712.10
360.20	1701.86
360.41	1640.42
360.62	1644.52
360.83	1730.53
361.04	1755.11
361.25	1761.25
361.46	1791.97
361.67	1697.77
361.88	1734.63
362.09	1765.35
362.30	1732.58
362.51	1683.43
362.72	1687.53
362.93	1757.16
363.14	1648.61
363.35	1763.30
363.56	1656.81
363.78	1738.73
363.99	1791.97
364.20	1669.09
364.41	1703.91
364.62	1845.22
364.83	1730.53
365.04	1701.86
365.25	1654.76
365.46	1789.92
365.67	1675.24
365.88	1665.00
366.09	1730.53
366.30	1667.05
366.51	1802.21
366.72	1636.33
366.93	1695.72
367.14	1751.01
367.35	1722.34
367.56	1650.66
367.77	1777.64
367.98	1746.92
368.18	1720.29
368.39	1746.92
368.60	1656.81
368.81	1728.49
369.02	1755.11
369.23	1687.53
369.44	1632.23
369.65	1634.28
369.86	1761.25
370.07	1701.86
370.28	1652.71
370.49	1736.68
370.70	1736.68
370.91	1669.09
371.12	1646.57
371.33	1712.10
371.54	1656.81
371.75	1808.36
371.96	1599.46
372.17	1693.67
372.38	1744.87
372.59	1818.60
372.80	1683.43
373.01	1683.43
373.22	1703.91
373.43	1705.96
373.64	1640.42
373.85	1742.82
374.06	1779.68
374.26	1755.11
374.47	1712.10
374.68	1808.36
374.89	1701.86
375.10	1705.96
375.31	1767.40
375.52	1654.76
375.73	1773.54
375.94	1652.71
376.15	1796.07
376.36	1652.71
376.57	1697.77
376.78	1583.08
376.99	1656.81
377.20	1728.49
377.40	1615.85
377.61	1828.84
377.82	1685.48
378.03	1789.92
378.24	1685.48
378.45	1710.05
378.66	1648.61
378.87	1585.13
379.08	1589.22
379.29	1697.77
379.50	1753.06
379.71	1673.19
379.91	1738.73
380.12	1687.53
380.33	1679.33
380.54	1681.38
380.75	1708.01
380.96	1652.71
381.17	1712.10
381.38	1810.40
381.59	1716.20
381.80	1767.40
382.00	1800.16
382.21	1765.35
382.42	1748.97
382.63	1800.16
382.84	1751.01
383.05	1812.45
383.26	1734.63
383.47	1712.10
383.68	1759.21
383.88	1773.54
384.09	1708.01
384.30	1761.25
384.51	1699.81
384.72	1648.61
384.93	1609.70
385.14	1683.43
385.35	1777.64
385.55	1587.18
385.76	1765.35
385.97	1720.29
386.18	1597.42
386.39	1714.15
386.60	1714.15
386.81	1767.40
387.02	1626.09
387.22	1689.57
387.43	1769.44
387.64	1822.69
387.85	1847.27
388.06	2258.91
388.27	4198.34
388.48	6889.37
388.68	8265.60
388.89	9764.72
389.10	9934.70
389.31	8419.20
389.52	7686.03
389.73	6703.00
389.93	6344.61
390.14	5916.58
390.35	5337.01
390.56	4528.06
390.77	3723.21
390.98	3078.10
391.18	2621.40
391.39	2119.65
391.60	1783.78
391.81	1779.68
392.02	1734.63
392.23	1794.02
392.43	1769.44
392.64	1759.21
392.85	1748.97
393.06	1814.50
393.27	1722.34
393.47	1689.57
393.68	1689.57
393.89	1738.73
394.10	1869.80
394.31	1718.25
394.52	1691.62
394.72	1617.90
394.93	1804.26
395.14	1593.32
395.35	1798.12
395.56	1671.14
395.76	1695.72
395.97	1824.74
396.18	1904.61
396.39	1851.36
396.60	2015.20
396.80	1839.08
397.01	1857.51
397.22	1851.36
397.43	1849.32
397.64	1814.50
397.84	1722.34
398.05	1861.60
398.26	1755.11
398.47	1724.39
398.67	1781.73
398.88	1779.68
399.09	1724.39
399.30	1689.57
399.51	1738.73
399.71	1644.52
399.92	1699.81
400.13	1714.15
400.34	1695.72
400.54	1714.15
400.75	1765.35
400.96	1679.33
401.17	1814.50
401.37	1730.53
401.58	1687.53
401.79	1740.77
402.00	1890.28
402.21	1998.82
402.41	1941.47
402.62	2045.92
402.83	1976.29
403.04	1920.99
403.24	2115.55
403.45	1785.83
403.66	1933.28
403.87	1871.84
404.07	1941.47
404.28	1894.37
404.49	1880.04
404.70	1740.77
404.90	1730.53
405.11	1736.68
405.32	1699.81
405.52	1687.53
405.73	1583.08
405.94	1607.66
406.15	1703.91
406.35	1673.19
406.56	1779.68
406.77	1705.96
406.98	1718.25
407.18	1691.62
407.39	1794.02
407.60	1683.43
407.80	1685.48
408.01	1699.81
408.22	1777.64
408.43	1650.66
408.63	1746.92
408.84	1744.87
409.05	1820.64
409.25	1642.47
409.46	1726.44
409.67	1652.71
409.88	1671.14
410.08	1759.21
410.29	1732.58
410.50	1732.58
410.70	1714.15
410.91	1599.46
411.12	1679.33
411.32	1724.39
411.53	1665.00
411.74	1769.44
411.95	1783.78
412.15	1685.48
412.36	1783.78
412.57	1808.36
412.77	1802.21
412.98	1761.25
413.19	1648.61
413.39	1748.97
413.60	1767.40
413.81	1726.44
414.01	1759.21
414.22	1671.14
414.43	1808.36
414.63	1701.86
414.84	1679.33
415.05	1714.15
415.25	1583.08
415.46	1787.88
415.67	1624.04
415.87	1693.67
416.08	1732.58
416.29	1701.86
416.49	1781.73
416.70	1646.57
416.91	1683.43
417.11	1701.86
417.32	1669.09
417.53	1734.63
417.73	1689.57
417.94	1669.09
418.15	1761.25
418.35	1638.38
418.56	1714.15
418.77	1773.54
418.97	1726.44
419.18	1640.42
419.38	1540.07
419.59	1662.95
419.80	1800.16
420.00	1609.70
420.21	1656.81
420.42	1775.59
420.62	1732.58
420.83	1667.05
421.04	1675.24
421.24	1671.14
421.45	1740.77
421.65	1701.86
421.86	1689.57
422.07	1761.25
422.27	1812.45
422.48	1710.05
422.69	1681.38
422.89	1679.33
423.10	1689.57
423.30	1677.29
423.51	1730.53
423.72	1697.77
423.92	1722.34
424.13	1611.75
424.33	1789.92
424.54	1705.96
424.75	1681.38
424.95	1810.40
425.16	1779.68
425.36	1583.08
425.57	1693.67
425.78	1675.24
425.98	1748.97
426.19	1660.90
426.39	1599.46
426.60	1603.56
426.81	1789.92
427.01	1722.34
427.22	1650.66
427.42	1636.33
427.63	1654.76
427.83	1765.35
428.04	1877.99
428.25	1791.97
428.45	1802.21
428.66	1757.16
428.86	1736.68
429.07	1771.49
429.28	1740.77
429.48	1677.29
429.69	1705.96
429.89	1685.48
430.10	1667.05
430.30	1697.77
430.51	1742.82
430.71	1638.38
430.92	1681.38
431.13	1718.25
431.33	1703.91
431.54	1710.05
431.74	1705.96
431.95	1834.98
432.15	1617.90
432.36	1697.77
432.56	1724.39
432.77	1812.45
432.98	1798.12
433.18	1763.30
433.39	1697.77
433.59	1718.25
433.80	1806.31
434.00	1892.32
434.21	1615.85
434.41	1660.90
434.62	1834.98
434.82	1712.10
435.03	1644.52
435.23	1691.62
435.44	1589.22
435.64	1687.53
435.85	1736.68
436.06	1720.29
436.26	1783.78
436.47	1726.44
436.67	1611.75
436.88	1708.01
437.08	1787.88
437.29	1798.12
437.49	1755.11
437.70	1773.54
437.90	1718.25
438.11	1869.80
438.31	1753.06
438.52	1855.46
438.72	1841.12
438.93	1808.36
439.13	1763.30
439.34	1824.74
439.54	1814.50
439.75	1812.45
439.95	1812.45
440.16	1662.95
440.36	1779.68
440.57	1773.54
440.77	1775.59
440.98	1738.73
441.18	1732.58
441.39	1677.29
441.59	1679.33
441.80	1779.68
442.00	1699.81
442.21	1816.55
442.41	1705.96
442.62	1875.94
442.82	1617.90
443.02	1718.25
443.23	1714.15
443.43	1759.21
443.64	1755.11
443.84	1681.38
444.05	1796.07
444.25	1642.47
444.46	1712.10
444.66	1720.29
444.87	1828.84
445.07	1658.85
445.28	1667.05
445.48	1832.93
445.69	1716.20
445.89	1877.99
446.09	1767.40
446.30	2025.44
446.50	2650.07
446.71	3841.99
446.91	4294.59
447.12	4700.09
447.32	4868.02
447.53	4173.76
447.73	3893.19
447.93	3526.60
448.14	3248.08
448.34	3188.69
448.55	2949.08
448.75	2877.40
448.96	2711.51
449.16	2467.80
449.36	2336.73
449.57	2041.82
449.77	1927.14
449.98	1796.07
450.18	1816.55
450.39	1755.11
450.59	1753.06
450.79	1716.20
451.00	1687.53
451.20	1800.16
451.41	1642.47
451.61	1675.24
451.81	1791.97
452.02	1683.43
452.22	1728.49
452.43	1654.76
452.63	1650.66
452.84	1677.29
453.04	1757.16
453.24	1822.69
453.45	1732.58
453.65	1818.60
453.86	1744.87
454.06	1767.40
454.26	1675.24
454.47	1695.72
454.67	1796.07
454.87	1839.08
455.08	1728.49
455.28	1767.40
455.49	1775.59
455.69	1769.44
455.89	1832.93
456.10	1789.92
456.30	1726.44
456.51	1685.48
456.71	1722.34
456.91	1816.55
457.12	1712.10
457.32	1753.06
457.52	1718.25
457.73	1763.30
457.93	1789.92
458.14	1695.72
458.34	1671.14
458.54	1671.14
458.75	1726.44
458.95	1759.21
459.15	1714.15
459.36	1728.49
459.56	1812.45
459.76	1847.27
459.97	1781.73
460.17	1710.05
460.37	1791.97
460.58	1783.78
460.78	1781.73
460.99	1769.44
461.19	1787.88
461.39	1697.77
461.60	1775.59
461.80	1718.25
462.00	1677.29
462.21	1712.10
462.41	1691.62
462.61	1689.57
462.82	1685.48
463.02	1824.74
463.22	1757.16
463.43	1722.34
463.63	1730.53
463.83	1746.92
464.04	1773.54
464.24	1687.53
464.44	1615.85
464.64	1724.39
464.85	1687.53
465.05	1781.73
465.25	1677.29
465.46	1712.10
465.66	1744.87
465.86	1753.06
466.07	1693.67
466.27	1734.63
466.47	1662.95
466.68	1603.56
466.88	1843.17
467.08	1773.54
467.29	1748.97
467.49	1769.44
467.69	1705.96
467.89	1722.34
468.10	1722.34
468.30	1775.59
468.50	1746.92
468.71	1742.82
468.91	1621.99
469.11	1832.93
469.31	1787.88
469.52	1693.67
469.72	1757.16
469.92	1834.98
470.13	1726.44
470.33	1718.25
470.53	1789.92
470.73	2080.74
470.94	2312.16
471.14	2295.77
471.34	2600.92
471.54	2439.13
471.75	2150.37
471.95	2086.88
472.15	2090.98
472.36	2033.63
472.56	2035.68
472.76	1980.39
472.96	2011.11
473.17	1978.34
473.37	1892.32
473.57	1808.36
473.77	1861.60
473.98	1732.58
474.18	1681.38
474.38	1925.09
474.58	1765.35
474.79	1650.66
474.99	1732.58
475.19	1652.71
475.39	1714.15
475.60	1726.44
475.80	1794.02
476.00	1744.87
476.20	1710.05
476.41	1775.59
476.61	1837.03
476.81	1763.30
477.01	1656.81
477.21	1861.60
477.42	1779.68
477.62	1710.05
477.82	1736.68
478.02	1638.38
478.23	1755.11
478.43	1638.38
478.63	1677.29
478.83	1730.53
479.03	1738.73
479.24	1748.97
479.44	1894.37
479.64	1615.85
479.84	1634.28
480.04	1673.19
480.25	1722.34
480.45	1705.96
480.65	1617.90
480.85	1822.69
481.06	1671.14
481.26	1677.29
481.46	1722.34
481.66	1697.77
481.86	1683.43
482.06	1785.83
482.27	1652.71
482.47	1701.86
482.67	1693.67
482.87	1695.72
483.07	1742.82
483.28	1648.61
483.48	1691.62
483.68	1671.14
483.88	1609.70
484.08	1550.31
484.29	1658.85
484.49	1710.05
484.69	1658.85
484.89	1746.92
485.09	1808.36
485.29	1660.90
485.50	1732.58
485.70	1683.43
485.90	1779.68
486.10	1761.25
486.30	1804.26
486.50	1734.63
486.71	1769.44
486.91	1751.01
487.11	1787.88
487.31	1611.75
487.51	1748.97
487.71	1703.91
487.91	1734.63
488.12	1685.48
488.32	1628.14
488.52	1632.23
488.72	1611.75
488.92	1763.30
489.12	1851.36
489.32	1738.73
489.53	1738.73
489.73	1665.00
489.93	1855.46
490.13	1673.19
490.33	1548.26
490.53	1753.06
490.73	1812.45
490.94	1644.52
491.14	1787.88
491.34	1839.08
491.54	2099.17
491.74	2625.50
491.94	2965.46
492.14	3067.86
492.34	3014.61
492.54	2691.03
492.75	2543.58
492.95	2422.75
493.15	2283.49
493.35	2285.53
493.55	2306.01
493.75	2162.66
493.95	2099.17
494.15	2017.25
494.35	1927.14
494.56	1845.22
494.76	1748.97
494.96	1787.88
495.16	1834.98
495.36	1675.24
495.56	1689.57
495.76	1722.34
495.96	1689.57
496.16	1691.62
496.36	1820.64
496.56	1685.48
496.77	1751.01
496.97	1730.53
497.17	1837.03
497.37	1626.09
497.57	1740.77
497.77	1773.54
497.97	1689.57
498.17	1716.20
498.37	1724.39
498.57	1734.63
498.77	1687.53
498.97	1759.21
499.17	1818.60
499.38	1757.16
499.58	1742.82
499.78	1818.60
499.98	1824.74
500.18	1683.43
500.38	1667.05
500.58	1912.80
500.78	2564.06
500.98	4544.44
501.18	5801.90
501.38	6733.72
501.58	7161.75
501.78	6614.94
501.98	5564.33
502.18	4900.79
502.38	4491.20
502.58	4083.65
502.78	3827.65
502.98	3610.57
503.18	3375.05
503.38	3176.40
503.59	2824.15
503.79	2637.78
503.99	2480.09
504.19	2281.44
504.39	2293.72
504.59	2230.24
504.79	2150.37
504.99	2062.30
505.19	1904.61
505.39	1894.37
505.59	2041.82
505.79	1945.57
505.99	1869.80
506.19	1832.93
506.39	1845.22
506.59	1748.97
506.79	1732.58
506.99	1834.98
507.19	1726.44
507.39	1722.34
507.59	1699.81
507.79	1609.70
507.99	1714.15
508.19	1716.20
508.39	1658.85
508.59	1726.44
508.79	1855.46
508.99	1828.84
509.19	1662.95
509.39	1759.21
509.59	1675.24
509.79	1701.86
509.99	1751.01
510.19	1773.54
510.39	1730.53
510.59	1771.49
510.79	1699.81
510.99	1658.85
511.19	1667.05
511.39	1783.78
511.59	1798.12
511.79	1738.73
511.99	1683.43
512.19	1798.12
512.38	1732.58
512.58	1660.90
512.78	1738.73
512.98	1779.68
513.18	1791.97
513.38	1640.42
513.58	1794.02
513.78	1675.24
513.98	1744.87
514.18	1757.16
514.38	1646.57
514.58	1796.07
514.78	1714.15
514.98	1708.01
515.18	1712.10
515.38	1607.66
515.58	1877.99
515.78	1695.72
515.98	1763.30
516.18	1794.02
516.38	1765.35
516.57	1767.40
516.77	1730.53
516.97	1843.17
517.17	1699.81
517.37	1681.38
517.57	1759.21
517.77	1726.44
517.97	1755.11
518.17	1796.07
518.37	1630.18
518.57	1701.86
518.77	1746.92
518.97	1722.34
519.16	1728.49
519.36	1785.83
519.56	1652.71
519.76	1708.01
519.96	1660.90
520.16	1802.21
520.36	1648.61
520.56	1804.26
520.76	1734.63
520.96	1718.25
521.16	1765.35
521.35	1718.25
521.55	1798.12
521.75	1705.96
521.95	1683.43
522.15	1726.44
522.35	1632.23
522.55	1665.00
522.75	1785.83
522.95	1824.74
523.14	1691.62
523.34	1736.68
523.54	1761.25
523.74	1839.08
523.94	1746.92
524.14	1671.14
524.34	1785.83
524.54	1837.03
524.73	1787.88
524.93	1816.55
525.13	1718.25
525.33	1632.23
525.53	1847.27
525.73	1804.26
525.93	1744.87
526.13	1630.18
526.32	1730.53
526.52	1730.53
526.72	1710.05
526.92	1658.85
527.12	1705.96
527.32	1632.23
527.52	1703.91
527.71	1740.77
527.91	1757.16
528.11	1617.90
528.31	1650.66
528.51	1669.09
528.71	1806.31
528.90	1771.49
529.10	1849.32
529.30	1843.17
529.50	1552.36
529.70	1767.40
529.90	1714.15
530.09	1701.86
530.29	1691.62
530.49	1660.90
530.69	1755.11
530.89	1759.21
531.09	1810.40
531.28	1705.96
531.48	1781.73
531.68	1742.82
531.88	1714.15
532.08	1775.59
532.28	1658.85
532.47	1834.98
532.67	1804.26
532.87	1718.25
533.07	1744.87
533.27	1759.21
533.46	1734.63
533.66	1769.44
533.86	1689.57
534.06	1691.62
534.26	1808.36
534.45	1695.72
534.65	1800.16
534.85	1728.49
535.05	1714.15
535.25	1775.59
535.44	1716.20
535.64	1830.88
535.84	1718.25
536.04	1742.82
536.24	1705.96
536.43	1640.42
536.63	1789.92
536.83	1669.09
537.03	1728.49
537.22	1566.70
537.42	1691.62
537.62	1814.50
537.82	1703.91
538.02	1834.98
538.21	1755.11
538.41	1920.99
538.61	1753.06
538.81	1685.48
539.00	1714.15
539.20	1730.53
539.40	1669.09
539.60	1787.88
539.79	1736.68
539.99	1718.25
540.19	1708.01
540.39	1767.40
540.58	1746.92
540.78	1736.68
540.98	1843.17
541.18	1812.45
541.37	1746.92
541.57	1800.16
541.77	1806.31
541.97	1703.91
542.16	1646.57
542.36	1736.68
542.56	1724.39
542.76	1828.84
542.95	1718.25
543.15	1718.25
543.35	1787.88
543.54	1576.94
543.74	1718.25
543.94	1789.92
544.14	1712.10
544.33	1773.54
544.53	1722.34
544.73	1732.58
544.93	1759.21
545.12	1748.97
545.32	1781.73
545.52	1693.67
545.71	1730.53
545.91	1687.53
546.11	1734.63
546.30	1640.42
546.50	1726.44
546.70	1751.01
546.90	1703.91
547.09	1730.53
547.29	1748.97
547.49	1759.21
547.68	1681.38
547.88	1697.77
548.08	1830.88
548.27	2103.26
548.47	1656.81
548.67	1755.11
548.87	1744.87
549.06	1642.47
549.26	1689.57
549.46	1748.97
549.65	1710.05
549.85	1800.16
550.05	1746.92
550.24	1736.68
550.44	1701.86
550.64	1763.30
550.83	1753.06
551.03	1796.07
551.23	1791.97
551.42	1810.40
551.62	1738.73
551.82	1751.01
552.01	1744.87
552.21	1816.55
552.41	1722.34
552.60	1839.08
552.80	1718.25
553.00	1751.01
553.19	1730.53
553.39	1767.40
553.59	1671.14
553.78	1787.88
553.98	1738.73
554.17	1671.14
554.37	1789.92
554.57	1740.77
554.76	1658.85
554.96	1681.38
555.16	1744.87
555.35	1751.01
555.55	1740.77
555.75	1697.77
555.94	1775.59
556.14	1669.09
556.33	1763.30
556.53	1697.77
556.73	1632.23
556.92	1753.06
557.12	1693.67
557.32	1853.41
557.51	1832.93
557.71	1791.97
557.90	1810.40
558.10	1734.63
558.30	1681.38
558.49	1748.97
558.69	1722.34
558.88	1667.05
559.08	1665.00
559.28	1640.42
559.47	1845.22
559.67	1734.63
559.86	1730.53
560.06	1734.63
560.26	1736.68
560.45	1763.30
560.65	1820.64
560.84	1787.88
561.04	1705.96
561.24	1722.34
561.43	1660.90
561.63	1777.64
561.82	1759.21
562.02	1810.40
562.22	1697.77
562.41	1730.53
562.61	1681.38
562.80	1705.96
563.00	1888.23
563.19	1804.26
563.39	1726.44
563.59	1716.20
563.78	1632.23
563.98	1650.66
564.17	1730.53
564.37	1703.91
564.56	1738.73
564.76	1656.81
564.96	1783.78
565.15	1851.36
565.35	1851.36
565.54	1701.86
565.74	1775.59
565.93	1732.58
566.13	1775.59
566.32	1710.05
566.52	1820.64
566.71	1703.91
566.91	1810.40
567.11	1697.77
567.30	1714.15
567.50	1861.60
567.69	1751.01
567.89	1757.16
568.08	1673.19
568.28	1857.51
568.47	1677.29
568.67	1767.40
568.86	1617.90
569.06	1816.55
569.25	1683.43
569.45	1660.90
569.64	1652.71
569.84	1681.38
570.04	1740.77
570.23	1693.67
570.43	1708.01
570.62	1755.11
570.82	1822.69
571.01	1646.57
571.21	1677.29
571.40	1746.92
571.60	1755.11
571.79	1740.77
571.99	1748.97
572.18	1652.71
572.38	1728.49
572.57	1734.63
572.77	1808.36
572.96	1781.73
573.16	1794.02
573.35	1724.39
573.55	1796.07
573.74	1742.82
573.94	1708.01
574.13	1652.71
574.33	1834.98
574.52	1867.75
574.71	1716.20
574.91	1822.69
575.10	1654.76
575.30	1681.38
575.49	1665.00
575.69	1611.75
575.88	1753.06
576.08	1687.53
576.27	1851.36
576.47	1728.49
576.66	1751.01
576.86	1820.64
577.05	1662.95
577.25	1771.49
577.44	1853.41
577.64	1710.05
577.83	1769.44
578.02	1671.14
578.22	1855.46
578.41	1933.28
578.61	1744.87
578.80	1648.61
579.00	1820.64
579.19	1822.69
579.39	1845.22
579.58	1898.47
579.77	1796.07
579.97	1839.08
580.16	1748.97
580.36	1781.73
580.55	1767.40
580.75	1771.49
580.94	1773.54
581.13	1863.65
581.33	1871.84
581.52	1669.09
581.72	1875.94
581.91	1880.04
582.11	1734.63
582.30	1806.31
582.49	1740.77
582.69	1826.79
582.88	1791.97
583.08	1730.53
583.27	1796.07
583.47	1757.16
583.66	1757.16
583.85	1681.38
584.05	1689.57
584.24	1751.01
584.44	1859.56
584.63	1849.32
584.82	1804.26
585.02	1796.07
585.21	1824.74
585.41	1832.93
585.60	1812.45
585.79	1857.51
585.99	1912.80
586.18	1943.52
586.37	2197.47
586.57	3375.05
586.76	10209.12
586.96	24757.89
587.15	35005.93
587.34	40852.88
587.54	42540.41
587.73	36871.63
587.93	26599.02
588.12	21700.28
588.31	18296.55
588.51	16580.36
588.70	15273.75
588.89	14126.89
589.09	12834.62
589.28	11091.80
589.47	9451.38
589.67	8150.92
589.86	6363.04
590.06	4947.89
590.25	4011.97
590.44	3149.78
590.64	2533.34
590.83	2318.30
591.02	2072.54
591.22	1890.28
591.41	1875.94
591.60	1830.88
591.80	1931.23
591.99	1767.40
592.18	1796.07
592.38	1869.80
592.57	1791.97
592.76	1791.97
592.96	1822.69
593.15	1667.05
593.34	1890.28
593.54	1755.11
593.73	1824.74
593.92	1800.16
594.12	1789.92
594.31	1724.39
594.50	1822.69
594.70	1810.40
594.89	1869.80
595.08	1677.29
595.28	1714.15
595.47	1925.09
595.66	1753.06
595.86	1662.95
596.05	1771.49
596.24	1734.63
596.43	1775.59
596.63	1734.63
596.82	1746.92
597.01	1802.21
597.21	1853.41
597.40	1789.92
597.59	1730.53
597.79	1769.44
597.98	1720.29
598.17	1744.87
598.36	1681.38
598.56	1791.97
598.75	1685.48
598.94	1742.82
599.14	1763.30
599.33	1699.81
599.52	1777.64
599.71	1771.49
599.91	1814.50
600.10	1761.25
600.29	1742.82
600.48	1748.97
600.68	1740.77
600.87	1705.96
601.06	1652.71
601.26	1781.73
601.45	1751.01
601.64	1677.29
601.83	1779.68
602.03	1751.01
602.22	1660.90
602.41	1734.63
602.60	1832.93
602.80	1730.53
602.99	1714.15
603.18	1738.73
603.37	1730.53
603.57	1800.16
603.76	1746.92
603.95	1794.02
604.14	1728.49
604.34	1656.81
604.53	1710.05
604.72	1744.87
604.91	1726.44
605.10	1714.15
605.30	1648.61
605.49	1826.79
605.68	1789.92
605.87	1734.63
606.07	1722.34
606.26	1769.44
606.45	1740.77
606.64	1740.77
606.84	1669.09
607.03	1708.01
607.22	1759.21
607.41	1636.33
607.60	1720.29
607.80	1703.91
607.99	1755.11
608.18	1716.20
608.37	1726.44
608.56	1685.48
608.76	1796.07
608.95	1861.60
609.14	1705.96
609.33	1789.92
609.52	1724.39
609.72	1679.33
609.91	1853.41
610.10	1710.05
610.29	1785.83
610.48	1691.62
610.68	1714.15
610.87	1660.90
611.06	1722.34
611.25	1656.81
611.44	1755.11
611.63	1683.43
611.83	1900.52
612.02	1613.80
612.21	1744.87
612.40	1601.51
612.59	1609.70
612.79	1705.96
612.98	1742.82
613.17	1789.92
613.36	1763.30
613.55	1791.97
613.74	1636.33
613.93	1683.43
614.13	1673.19
614.32	1771.49
614.51	1734.63
614.70	1652.71
614.89	1648.61
615.08	1703.91
615.28	2031.58
615.47	1669.09
615.66	1746.92
615.85	1638.38
616.04	1814.50
616.23	1642.47
616.42	1667.05
616.62	1755.11
616.81	1789.92
617.00	1718.25
617.19	1738.73
617.38	1742.82
617.57	1677.29
617.76	1724.39
617.95	1755.11
618.15	1738.73
618.34	1796.07
618.53	1628.14
618.72	1757.16
618.91	1806.31
619.10	1873.89
619.29	1740.77
619.48	1722.34
619.68	1679.33
619.87	1738.73
620.06	1658.85
620.25	1746.92
620.44	1720.29
620.63	1746.92
620.82	1826.79
621.01	1748.97
621.20	1697.77
621.39	1701.86
621.59	1755.11
621.78	1724.39
621.97	1685.48
622.16	1765.35
622.35	1783.78
622.54	1703.91
622.73	1751.01
622.92	1611.75
623.11	1779.68
623.30	1734.63
623.49	1699.81
623.68	1681.38
623.88	1810.40
624.07	1697.77
624.26	1734.63
624.45	1730.53
624.64	1736.68
624.83	1697.77
625.02	1658.85
625.21	1738.73
625.40	1669.09
625.59	1787.88
625.78	1728.49
625.97	1814.50
626.16	1787.88
626.35	1746.92
626.54	1771.49
626.74	1765.35
626.93	1710.05
627.12	1753.06
627.31	1751.01
627.50	1779.68
627.69	1779.68
627.88	1714.15
628.07	1640.42
628.26	1619.94
628.45	1673.19
628.64	1669.09
628.83	1744.87
629.02	1654.76
629.21	1728.49
629.40	1783.78
629.59	1630.18
629.78	1671.14
629.97	1781.73
630.16	1759.21
630.35	1636.33
630.54	1720.29
630.73	1630.18
630.92	1740.77
631.11	1599.46
631.30	1675.24
631.49	1656.81
631.68	1667.05
631.87	1714.15
632.06	1611.75
632.25	1904.61
632.44	1705.96
632.63	1767.40
632.82	1675.24
633.01	1640.42
633.20	1722.34
633.39	1673.19
633.58	1601.51
633.77	1765.35
633.96	1710.05
634.15	1773.54
634.34	1693.67
634.53	1732.58
634.72	1632.23
634.91	1697.77
635.10	1697.77
635.29	1771.49
635.48	1689.57
635.67	1669.09
635.86	1634.28
636.05	1744.87
636.24	1699.81
636.43	1708.01
636.62	1773.54
636.81	1662.95
637.00	1644.52
637.19	1785.83
637.38	1689.57
637.57	1638.38
637.76	1732.58
637.95	1683.43
638.14	1628.14
638.33	1683.43
638.52	1726.44
638.71	1626.09
638.89	1523.69
639.08	1818.60
639.27	1751.01
639.46	1736.68
639.65	1738.73
639.84	1744.87
640.03	1742.82
640.22	1673.19
640.41	1849.32
640.60	1628.14
640.79	1765.35
640.98	1753.06
641.17	1724.39
641.36	1691.62
641.55	1775.59
641.74	1652.71
641.92	1648.61
642.11	1628.14
642.30	1744.87
642.49	1708.01
642.68	1665.00
642.87	1761.25
643.06	1726.44
643.25	1685.48
643.44	1632.23
643.63	1652.71
643.82	1771.49
644.00	1671.14
644.19	1736.68
644.38	1714.15
644.57	1681.38
644.76	1769.44
644.95	1720.29
645.14	1728.49
645.33	1691.62
645.52	1701.86
645.71	1607.66
645.89	1716.20
646.08	1718.25
646.27	1712.10
646.46	1722.34
646.65	1638.38
646.84	1796.07
647.03	1607.66
647.22	1759.21
647.40	1638.38
647.59	1650.66
647.78	1660.90
647.97	1701.86
648.16	1734.63
648.35	1830.88
648.54	1695.72
648.73	1710.05
648.91	1681.38
649.10	1738.73
649.29	1716.20
649.48	1769.44
649.67	1693.67
649.86	1703.91
650.05	1708.01
650.23	1779.68
650.42	1619.94
650.61	1714.15
650.80	1748.97
650.99	1796.07
651.18	1822.69
651.36	1767.40
651.55	1660.90
651.74	1796.07
651.93	1662.95
652.12	1697.77
652.31	1818.60
652.49	1757.16
652.68	1701.86
652.87	1755.11
653.06	1675.24
653.25	1814.50
653.44	1716.20
653.62	1783.78
653.81	1732.58
654.00	1726.44
654.19	1742.82
654.38	1753.06
654.56	1755.11
654.75	1773.54
654.94	1791.97
655.13	1714.15
655.32	1712.10
655.51	1740.77
655.69	1697.77
655.88	1767.40
656.07	1644.52
656.26	1730.53
656.45	1671.14
656.63	1652.71
656.82	1761.25
657.01	1816.55
657.20	1738.73
657.38	1763.30
657.57	1736.68
657.76	1609.70
657.95	1744.87
658.14	1652.71
658.32	1720.29
658.51	1597.42
658.70	1740.77
658.89	1773.54
659.08	1736.68
659.26	1822.69
659.45	1660.90
659.64	1730.53
659.83	1683.43
660.01	1920.99
660.20	1691.62
660.39	1775.59
660.58	1615.85
660.76	1816.55
660.95	1587.18
661.14	1699.81
661.33	1615.85
661.51	1824.74
661.70	1697.77
661.89	1796.07
662.08	1755.11
662.26	1675.24
662.45	1724.39
662.64	1839.08
662.83	1773.54
663.01	1665.00
663.20	1765.35
663.39	1800.16
663.58	1720.29
663.76	1746.92
663.95	1753.06
664.14	1683.43
664.32	1681.38
664.51	1658.85
664.70	1560.55
664.89	1751.01
665.07	1570.79
665.26	1757.16
665.45	1595.37
665.64	1714.15
665.82	1796.07
666.01	1726.44
666.20	1654.76
666.38	1873.89
666.57	1884.13
666.76	2154.46
666.95	4517.82
667.13	10669.92
667.32	15591.19
667.51	17817.33
667.69	19402.46
667.88	17807.09
668.07	12308.29
668.25	9643.88
668.44	8179.59
668.63	7382.93
668.81	6803.35
669.00	6309.79
669.19	5844.90
669.38	5185.46
669.56	4526.01
669.75	3952.58
669.94	3387.34
670.12	2875.35
670.31	2521.05
670.50	2152.42
670.68	2117.60
670.87	1847.27
671.06	1736.68
671.24	1843.17
671.43	1824.74
671.62	1714.15
671.80	1669.09
671.99	1708.01
672.18	1720.29
672.36	1767.40
672.55	1771.49
672.74	1771.49
672.92	1693.67
673.11	1724.39
673.29	1693.67
673.48	1779.68
673.67	1701.86
673.85	1736.68
674.04	1646.57
674.23	1710.05
674.41	1804.26
674.60	1699.81
674.79	1619.94
674.97	1714.15
675.16	1701.86
675.34	1693.67
675.53	1675.24
675.72	1746.92
675.90	1869.80
676.09	1716.20
676.28	1734.63
676.46	1628.14
676.65	1738.73
676.83	1656.81
677.02	1712.10
677.21	1712.10
677.39	1732.58
677.58	1665.00
677.77	1624.04
677.95	1738.73
678.14	1658.85
678.32	1759.21
678.51	1712.10
678.70	1857.51
678.88	1718.25
679.07	1691.62
679.25	1703.91
679.44	1671.14
679.63	1587.18
679.81	1691.62
680.00	1777.64
680.18	1693.67
680.37	1712.10
680.55	1798.12
680.74	1677.29
680.93	1591.27
681.11	1818.60
681.30	1677.29
681.48	1660.90
681.67	1726.44
681.85	1734.63
682.04	1636.33
682.23	1789.92
682.41	1765.35
682.60	1726.44
682.78	1689.57
682.97	1689.57
683.15	1683.43
683.34	1691.62
683.53	1853.41
683.71	1677.29
683.90	1726.44
684.08	1816.55
684.27	1638.38
684.45	1767.40
684.64	1789.92
684.82	1724.39
685.01	1798.12
685.19	1720.29
685.38	1810.40
685.57	1654.76
685.75	1671.14
685.94	1675.24
686.12	1720.29
686.31	1771.49
686.49	1847.27
686.68	1628.14
686.86	1769.44
687.05	1675.24
687.23	1755.11
687.42	1677.29
687.60	1613.80
687.79	1710.05
687.97	1791.97
688.16	1808.36
688.34	1734.63
688.53	1583.08
688.71	1804.26
688.90	1775.59
689.08	1687.53
689.27	1597.42
689.45	1693.67
689.64	1748.97
689.82	1720.29
690.01	1759.21
690.19	1773.54
690.38	1726.44
690.56	1742.82
690.75	1681.38
690.93	1591.27
691.12	1693.67
691.30	1656.81
691.49	1718.25
691.67	1751.01
691.86	1804.26
692.04	1628.14
692.23	1683.43
692.41	1720.29
692.60	1857.51
692.78	1755.11
692.97	1677.29
693.15	1736.68
693.34	1820.64
693.52	1732.58
693.71	1607.66
693.89	1720.29
694.08	1632.23
694.26	1708.01
694.44	1763.30
694.63	1683.43
694.81	1609.70
695.00	1683.43
695.18	1734.63
695.37	1863.65
695.55	1734.63
695.74	1562.60
695.92	1638.38
696.10	1718.25
696.29	1689.57
696.47	1693.67
696.66	1576.94
696.84	1695.72
697.03	1679.33
697.21	1802.21
697.40	2281.44
697.58	1761.25
697.76	1667.05
697.95	1675.24
698.13	1609.70
698.32	1611.75
698.50	1761.25
698.68	1753.06
698.87	1724.39
699.05	1808.36
699.24	1755.11
699.42	1656.81
699.61	1734.63
699.79	1753.06
699.97	1574.89
700.16	1656.81
700.34	1640.42
700.53	1683.43
700.71	1761.25
700.89	1710.05
701.08	1652.71
701.26	1714.15
701.45	2107.36
701.63	1667.05
701.81	1687.53
702.00	1656.81
702.18	1701.86
702.37	1720.29
702.55	1734.63
702.73	1781.73
702.92	1611.75
703.10	1769.44
703.28	1640.42
703.47	1693.67
703.65	1705.96
703.84	1734.63
704.02	1677.29
704.20	1767.40
704.39	1617.90
704.57	1726.44
704.75	1681.38
704.94	1789.92
705.12	1705.96
705.30	1796.07
705.49	2260.96
705.67	4513.72
705.86	9310.07
706.04	12930.87
706.22	14587.68
706.41	15501.08
706.59	14090.02
706.77	9582.45
706.96	7219.09
707.14	6635.42
707.32	5984.16
707.51	5642.15
707.69	4970.42
707.87	4241.34
708.06	3608.52
708.24	2928.60
708.42	2494.43
708.61	2269.15
708.79	1886.18
708.97	1857.51
709.16	1849.32
709.34	1826.79
709.52	1652.71
709.71	1675.24
709.89	1798.12
710.07	1697.77
710.26	1634.28
710.44	1697.77
710.62	1787.88
710.80	1779.68
710.99	1816.55
711.17	1736.68
711.35	1708.01
711.54	1708.01
711.72	1722.34
711.90	1673.19
712.09	1697.77
712.27	1703.91
712.45	1748.97
712.63	1708.01
712.82	1722.34
713.00	1675.24
713.18	1767.40
713.37	1755.11
713.55	1753.06
713.73	1705.96
713.91	1742.82
714.10	1630.18
714.28	1695.72
714.46	1779.68
714.65	1714.15
714.83	1798.12
715.01	1669.09
715.19	1675.24
715.38	1687.53
715.56	1730.53
715.74	1617.90
715.92	1640.42
716.11	1769.44
716.29	1570.79
716.47	1742.82
716.65	1732.58
716.84	1644.52
717.02	1777.64
717.20	1658.85
717.38	1607.66
717.57	1734.63
717.75	1665.00
717.93	1619.94
718.11	1755.11
718.30	1611.75
718.48	1734.63
718.66	1738.73
718.84	1783.78
719.03	1757.16
719.21	1609.70
719.39	1802.21
719.57	1736.68
719.75	1779.68
719.94	1681.38
720.12	1775.59
720.30	1699.81
720.48	1730.53
720.67	1673.19
720.85	1687.53
721.03	1699.81
721.21	1619.94
721.39	1814.50
721.58	1779.68
721.76	1626.09
721.94	1740.77
722.12	1695.72
722.30	1710.05
722.49	1646.57
722.67	1734.63
722.85	1755.11
723.03	1578.98
723.21	1656.81
723.40	1681.38
723.58	1779.68
723.76	1667.05
723.94	1732.58
724.12	1693.67
724.30	1718.25
724.49	1724.39
724.67	1583.08
724.85	1689.57
725.03	1683.43
725.21	1787.88
725.40	1800.16
725.58	1671.14
725.76	1783.78
725.94	1665.00
726.12	1640.42
726.30	1636.33
726.49	1748.97
726.67	1656.81
726.85	1705.96
727.03	1714.15
727.21	2138.08
727.39	2934.74
727.57	3721.16
727.76	4177.86
727.94	4462.52
728.12	4423.61
728.30	3700.68
728.48	2979.79
728.66	2731.99
728.84	2486.23
729.03	2289.63
729.21	2158.56
729.39	2019.30
729.57	1826.79
729.75	1781.73
729.93	1871.84
730.11	1693.67
730.30	1753.06
730.48	1736.68
730.66	1785.83
730.84	1703.91
731.02	1728.49
731.20	1683.43
731.38	1687.53
731.56	1609.70
731.74	1617.90
731.93	1777.64
732.11	1726.44
732.29	1665.00
732.47	1755.11
732.65	1673.19
732.83	1812.45
733.01	1693.67
733.19	1626.09
733.37	1832.93
733.56	1746.92
733.74	1669.09
733.92	1789.92
734.10	1740.77
734.28	1837.03
734.46	1587.18
734.64	1705.96
734.82	1699.81
735.00	1628.14
735.18	1669.09
735.36	1710.05
735.54	1673.19
735.73	1744.87
735.91	1726.44
736.09	1785.83
736.27	1695.72
736.45	1705.96
736.63	1693.67
736.81	1718.25
736.99	1669.09
737.17	1828.84
737.35	1685.48
737.53	1667.05
737.71	1671.14
737.89	1722.34
738.07	1640.42
738.25	1652.71
738.43	1585.13
738.61	1630.18
738.80	1593.32
738.98	1681.38
739.16	1720.29
739.34	1720.29
739.52	1755.11
739.70	1658.85
739.88	1742.82
740.06	1808.36
740.24	1503.21
740.42	1746.92
740.60	1624.04
740.78	1699.81
740.96	1669.09
741.14	1675.24
741.32	1726.44
741.50	1578.98
741.68	1845.22
741.86	1761.25
742.04	1667.05
742.22	1662.95
742.40	1705.96
742.58	1703.91
742.76	1593.32
742.94	1734.63
743.12	1640.42
743.30	1691.62
743.48	1728.49
743.66	1597.42
743.84	1712.10
744.02	1693.67
744.20	1685.48
744.38	1650.66
744.56	1712.10
744.74	1828.84
744.92	1671.14
745.10	1822.69
745.28	1771.49
745.46	1791.97
745.64	1759.21
745.82	1794.02
746.00	1665.00
746.18	1734.63
746.36	1681.38
746.54	1722.34
746.72	1675.24
746.90	1656.81
747.08	1718.25
747.26	1662.95
747.44	1712.10
747.62	1695.72
747.80	1734.63
747.98	1716.20
748.15	1691.62
748.33	1832.93
748.51	1685.48
748.69	1701.86
748.87	1677.29
749.05	1667.05
749.23	1687.53
749.41	1671.14
749.59	1683.43
749.77	1722.34
749.95	1660.90
750.13	1611.75
750.31	1636.33
750.49	1730.53
750.67	1789.92
750.85	1832.93
751.03	1728.49
751.20	1798.12
751.38	1628.14
751.56	1681.38
751.74	1693.67
751.92	1687.53
752.10	1638.38
752.28	1736.68
752.46	1640.42
752.64	1705.96
752.82	1669.09
753.00	1834.98
753.18	1669.09
753.35	1679.33
753.53	1681.38
753.71	1665.00
753.89	1796.07
754.07	1658.85
754.25	1732.58
754.43	1722.34
754.61	1589.22
754.79	1693.67
754.97	1644.52
755.14	1738.73
755.32	1619.94
755.50	1724.39
755.68	1628.14
755.86	1685.48
756.04	1646.57
756.22	1640.42
756.40	1722.34
756.57	1777.64
756.75	1628.14
756.93	1785.83
757.11	1806.31
757.29	1648.61
757.47	1687.53
757.65	1550.31
757.82	1546.22
758.00	1583.08
758.18	1619.94
758.36	1675.24
758.54	1867.75
758.72	1646.57
758.90	1779.68
759.07	1667.05
759.25	1699.81
759.43	1794.02
759.61	1648.61
759.79	2129.89
759.97	1699.81
760.15	1656.81
760.32	1691.62
760.50	1714.15
760.68	1773.54
760.86	1619.94
761.04	1837.03
761.22	1736.68
761.39	1722.34
761.57	1726.44
761.75	1685.48
761.93	1722.34
762.11	1728.49
762.28	1781.73
762.46	1615.85
762.64	1767.40
762.82	1607.66
763.00	1738.73
763.18	1798.12
763.35	1712.10
763.53	1771.49
763.71	1714.15
763.89	1716.20
764.07	1671.14
764.24	1697.77
764.42	1705.96
764.60	1650.66
764.78	1775.59
764.96	1751.01
765.13	1746.92
765.31	1687.53
765.49	1787.88
765.67	1607.66
765.84	1648.61
766.02	1673.19
766.20	1611.75
766.38	1728.49
766.56	1759.21
766.73	1746.92
766.91	1728.49
767.09	1732.58
767.27	1710.05
767.44	1652.71
767.62	1740.77
767.80	1753.06
767.98	1583.08
768.15	1656.81
768.33	1675.24
768.51	1730.53
768.69	1753.06
768.87	1769.44
769.04	1679.33
769.22	1904.61
769.40	1787.88
769.58	1861.60
769.75	1714.15
769.93	1748.97
770.11	1714.15
770.28	1697.77
770.46	1716.20
770.64	1800.16
770.82	1617.90
770.99	1703.91
771.17	1695.72
771.35	1656.81
771.53	1660.90
771.70	1662.95
771.88	1626.09
772.06	1660.90
772.23	1644.52
772.41	1781.73
772.59	1744.87
772.77	1648.61
772.94	1681.38
773.12	1726.44
773.30	1652.71
773.47	1714.15
773.65	1669.09
773.83	1773.54
774.01	1693.67
774.18	1658.85
774.36	1718.25
774.54	1632.23
774.71	1722.34
774.89	1648.61
775.07	1632.23
775.24	1740.77
775.42	1665.00
775.60	1761.25
775.78	1679.33
775.95	1636.33
776.13	1681.38
776.31	1550.31
776.48	1671.14
776.66	1796.07
776.84	1744.87
777.01	1681.38
777.19	1650.66
777.37	1718.25
777.54	1730.53
777.72	1791.97
777.90	1712.10
778.07	1648.61
778.25	1920.99
778.43	1703.91
778.60	1638.38
778.78	1779.68
778.96	1769.44
779.13	1714.15
779.31	1775.59
779.49	1652.71
779.66	1759.21
779.84	1638.38
780.01	1710.05
780.19	1660.90
780.37	1769.44
780.54	1734.63
780.72	1703.91
780.90	1689.57
781.07	1742.82
781.25	1683.43
781.43	1771.49
781.60	1656.81
781.78	1808.36
781.95	1669.09
782.13	1691.62
782.31	1751.01
782.48	1591.27
782.66	1720.29
782.83	1826.79
783.01	1726.44
783.19	1796.07
783.36	1693.67
783.54	1605.61
783.72	1722.34
783.89	1595.37
784.07	1701.86
784.24	1724.39
784.42	1783.78
784.60	1677.29
784.77	1685.48
784.95	1593.32
785.12	1667.05
785.30	1705.96
785.47	1619.94
785.65	1599.46
785.83	1726.44
786.00	1605.61
786.18	1701.86
786.35	1667.05
786.53	1648.61
786.71	1710.05
786.88	1755.11
787.06	1669.09
787.23	1675.24
787.41	1648.61
787.58	1695.72
787.76	1662.95
787.94	1708.01
788.11	1708.01
788.29	1703.91
788.46	1630.18
788.64	1697.77
788.81	1695.72
788.99	1650.66
789.16	1632.23
789.34	1714.15
789.52	1746.92
789.69	1652.71
789.87	1624.04
790.04	1566.70
790.22	1626.09
790.39	1763.30
790.57	1615.85
790.74	1656.81
790.92	1763.30
791.09	1595.37
791.27	1654.76
791.44	1753.06
791.62	1681.38
791.79	1767.40
791.97	1665.00
792.15	1828.84
792.32	1812.45
792.50	1683.43
792.67	1767.40
792.85	1847.27
793.02	1701.86
793.20	1763.30
793.37	1562.60
793.55	1671.14
793.72	1607.66
793.90	1796.07
794.07	1609.70
794.25	1624.04
794.42	1658.85
794.60	1632.23
794.77	1703.91
794.95	1751.01
795.12	1681.38
795.30	1720.29
795.47	1665.00
795.65	1808.36
795.82	1691.62
796.00	1642.47
796.17	1667.05
796.34	1646.57
796.52	1722.34
796.69	1697.77
796.87	1767.40
797.04	1705.96
797.22	1685.48
797.39	1755.11
797.57	1740.77
797.74	1708.01
797.92	1693.67
798.09	1689.57
798.27	1746.92
798.44	1632.23
798.62	1656.81
798.79	1716.20
798.96	1726.44
799.14	1658.85
799.31	1798.12
799.49	1667.05
799.66	1679.33
799.84	1701.86
800.01	1607.66
800.19	1669.09
800.36	1576.94
800.53	1722.34
800.71	1718.25
800.88	1796.07
801.06	1660.90
801.23	1585.13
801.41	1701.86
801.58	1757.16
801.75	1683.43
801.93	1636.33
802.10	1806.31
802.28	1722.34
802.45	1626.09
802.63	1722.34
802.80	1808.36
802.97	1720.29
803.15	1677.29
803.32	1714.15
803.50	1675.24
803.67	1626.09
803.84	1646.57
804.02	1769.44
804.19	1603.56
804.37	1628.14
804.54	1640.42
804.71	1718.25
804.89	1701.86
805.06	1681.38
805.24	1609.70
805.41	1626.09
805.58	1697.77
805.76	1871.84
805.93	1609.70
806.10	1830.88
806.28	1773.54
806.45	1751.01
806.63	1677.29
806.80	1771.49
806.97	1640.42
807.15	1720.29
807.32	1607.66
807.49	1667.05
807.67	1603.56
807.84	1724.39
808.01	1593.32
808.19	1800.16
808.36	1699.81
808.54	1640.42
808.71	1646.57
808.88	1730.53
809.06	1708.01
809.23	1789.92
809.40	1720.29
809.58	1771.49
809.75	1648.61
809.92	1585.13
810.10	1781.73
810.27	1748.97
810.44	1671.14
810.62	1734.63
810.79	1767.40
810.96	1736.68
811.14	1642.47
811.31	1689.57
811.48	1755.11
811.66	1683.43
811.83	1753.06
812.00	1783.78
812.18	1718.25
812.35	1914.85
812.52	1681.38
812.69	1609.70
812.87	1771.49
813.04	1626.09
813.21	1718.25
813.39	1740.77
813.56	1640.42
813.73	1722.34
813.91	1591.27
814.08	1642.47
814.25	1738.73
814.42	1632.23
814.60	1675.24
814.77	1724.39
814.94	1691.62
815.12	1703.91
815.29	1802.21
815.46	1714.15
815.63	1761.25
815.81	1650.66
815.98	1714.15
816.15	1628.14
816.33	1660.90
816.50	1638.38
816.67	1712.10
816.84	1738.73
817.02	1685.48
817.19	1681.38
817.36	1665.00
817.53	1755.11
817.71	1710.05
817.88	1820.64
818.05	1628.14
818.22	1722.34
818.40	1830.88
818.57	1626.09
818.74	1748.97
818.91	1665.00
819.09	1738.73
819.26	1824.74
819.43	1646.57
819.60	1652.71
819.78	1652.71
819.95	1800.16
820.12	1673.19
820.29	1691.62
820.47	1771.49
820.64	1677.29
820.81	1595.37
820.98	1630.18
821.15	1714.15
821.33	1708.01
821.50	1617.90
821.67	1738.73
821.84	1634.28
822.02	1763.30
822.19	1728.49
822.36	1691.62
822.53	1716.20
822.70	1605.61
822.88	1673.19
823.05	1742.82
823.22	1679.33
823.39	1712.10
823.56	1652.71
823.74	1794.02
823.91	1638.38
824.08	1617.90
824.25	1701.86
824.42	1761.25
824.60	1585.13
824.77	1714.15
824.94	1718.25
825.11	1705.96
825.28	1560.55
825.45	1736.68
825.63	1751.01
825.80	1689.57
825.97	1775.59
826.14	1693.67
826.31	1615.85
826.48	1691.62
826.66	1701.86
826.83	1681.38
827.00	1753.06
827.17	1603.56
827.34	1710.05
827.51	1673.19
827.69	1744.87
827.86	1583.08
828.03	1716.20
828.20	1712.10
828.37	1726.44
828.54	1716.20
828.71	1628.14
828.89	1812.45
829.06	1683.43
829.23	1744.87
829.40	1687.53
829.57	1658.85
829.74	1744.87
829.91	1656.81
830.09	1642.47
830.26	1804.26
830.43	1761.25
830.60	1695.72
830.77	1679.33
830.94	1761.25
831.11	1744.87
831.28	1726.44
831.46	1660.90
831.63	1667.05
831.80	1771.49
831.97	1728.49
832.14	1697.77
832.31	1806.31
832.48	1746.92
832.65	1787.88
832.82	1724.39
832.99	1806.31
833.17	1681.38
833.34	1726.44
833.51	1708.01
833.68	1609.70
833.85	1728.49
834.02	1607.66
834.19	1669.09
834.36	1630.18
834.53	1773.54
834.70	1751.01
834.87	1662.95
835.04	1683.43
835.22	1679.33
835.39	1667.05
835.56	1581.03
835.73	1691.62
835.90	1779.68
836.07	1705.96
836.24	1765.35
836.41	1673.19
836.58	1648.61
836.75	1746.92
836.92	1734.63
837.09	1673.19
837.26	1730.53
837.43	1705.96
837.60	1656.81
837.77	1615.85
837.94	1789.92
838.12	1830.88
838.29	1744.87
838.46	1628.14
838.63	1636.33
838.80	1705.96
838.97	1744.87
839.14	1652.71
839.31	1687.53
839.48	1765.35
839.65	1636.33
839.82	1730.53
839.99	1703.91
840.16	1671.14
840.33	1683.43
840.50	1679.33
840.67	1646.57
840.84	1552.36
841.01	1708.01
841.18	1601.51
841.35	1681.38
841.52	1701.86
841.69	1763.30
841.86	1714.15
842.03	1667.05
842.20	1742.82
842.37	1720.29
842.54	1660.90
842.71	1742.82
842.88	1626.09
843.05	1705.96
843.22	1642.47
843.39	1654.76
843.56	1732.58
843.73	1730.53
843.90	1681.38
844.07	1703.91
844.24	1738.73
844.41	1787.88
844.58	1638.38
844.75	1742.82
844.92	1724.39
845.09	1710.05
845.26	1593.32
845.43	1708.01
845.60	1708.01
845.77	1773.54
845.94	1724.39
846.10	1699.81
846.27	1736.68
846.44	1607.66
846.61	1716.20
846.78	1673.19
846.95	1740.77
847.12	1632.23
847.29	1687.53
847.46	1665.00
847.63	1703.91
847.80	1609.70
847.97	1732.58
848.14	1789.92
848.31	1732.58
848.48	1697.77
848.65	1703.91
848.82	1671.14
848.98	1841.12
849.15	1751.01
849.32	1744.87
849.49	1691.62
849.66	1718.25
849.83	1652.71
850.00	1581.03
850.17	1734.63
850.34	1687.53
850.51	1624.04
850.68	1642.47
850.85	1779.68
851.01	1701.86
851.18	1703.91
851.35	1669.09
851.52	1761.25
851.69	1734.63
851.86	1609.70
852.03	1734.63
852.20	1730.53
852.37	1716.20
852.53	1558.50
852.70	1697.77
852.87	1701.86
853.04	1800.16
853.21	1638.38
853.38	1818.60
853.55	1708.01
853.72	1738.73
853.89	1558.50
854.05	1654.76
854.22	1667.05
854.39	1708.01
854.56	1660.90
854.73	1734.63
854.90	1613.80
855.07	1697.77
855.23	1687.53
855.40	1638.38
855.57	1703.91
855.74	1538.02
855.91	1898.47
856.08	1677.29
856.25	1589.22
856.41	1673.19
856.58	1736.68
856.75	1665.00
856.92	1642.47
857.09	1716.20
857.26	1636.33
857.42	1705.96
857.59	1755.11
857.76	1669.09
857.93	1730.53
858.10	1681.38
858.27	1738.73
858.43	1665.00
858.60	1634.28
858.77	1648.61
858.94	1638.38
859.11	1683.43
859.27	1601.51
859.44	1691.62
859.61	1820.64
859.78	1708.01
859.95	1621.99
860.12	1630.18
860.28	1732.58
860.45	1736.68
860.62	1638.38
860.79	1736.68
860.95	1685.48
861.12	1673.19
861.29	1609.70
861.46	1613.80
861.63	1705.96
861.79	1691.62
861.96	1642.47
862.13	1722.34
862.30	1783.78
862.47	1548.26
862.63	1656.81
862.80	1748.97
862.97	1742.82
863.14	1826.79
863.30	1757.16
863.47	1640.42
863.64	1755.11
863.81	1681.38
863.97	1640.42
864.14	1675.24
864.31	1673.19
864.48	1708.01
864.65	1624.04
864.81	1755.11
864.98	1724.39
865.15	1681.38
865.32	1783.78
865.48	1785.83
865.65	1742.82
865.82	1662.95
865.98	1734.63
866.15	1785.83
866.32	1708.01
866.49	1740.77
866.65	1757.16
866.82	1740.77
866.99	1744.87
867.16	1665.00
867.32	1710.05
867.49	1673.19
867.66	1691.62
867.83	1681.38
867.99	1662.95
868.16	1673.19
868.33	1660.90
868.49	1714.15
868.66	1665.00
868.83	1681.38
868.99	1644.52
869.16	1708.01
869.33	1751.01
869.50	1759.21
869.66	1695.72
869.83	1718.25
870.00	1578.98
870.16	1732.58
870.33	1636.33
870.50	1710.05
870.66	1667.05
870.83	1773.54
871.00	1642.47
871.17	1699.81
871.33	1710.05
871.50	1744.87
871.67	1744.87
871.83	1673.19
872.00	1810.40
872.17	1642.47
872.33	1779.68
872.50	1705.96
872.67	1597.42
872.83	1652.71
873.00	1740.77
873.17	1660.90
873.33	1701.86
873.50	1726.44
873.67	1658.85
873.83	1617.90
874.00	1742.82
874.16	1755.11
874.33	1769.44
874.50	1566.70
874.66	1732.58
874.83	1652.71
875.00	1746.92
875.16	1705.96
875.33	1753.06
875.50	1611.75
875.66	1648.61
875.83	1753.06
875.99	1796.07
876.16	1667.05
876.33	1587.18
876.49	1732.58
876.66	1771.49
876.83	1660.90
876.99	1613.80
877.16	1720.29
877.32	1718.25
877.49	1660.90
877.66	1781.73
877.82	1789.92
877.99	1662.95
878.15	1761.25
878.32	1660.90
878.49	1689.57
878.65	1693.67
878.82	1736.68
878.98	1617.90
879.15	1701.86
879.32	1710.05
879.48	1734.63
879.65	1703.91
879.81	1648.61
879.98	1675.24
880.15	1738.73
880.31	1685.48
880.48	1595.37
880.64	1769.44
880.81	1761.25
880.97	1845.22
881.14	1759.21
881.31	1632.23
881.47	1800.16
881.64	1681.38
881.80	1550.31
881.97	1710.05
882.13	1740.77
882.30	1599.46
882.47	1687.53
882.63	1679.33
882.80	1705.96
882.96	1628.14
883.13	1734.63
883.29	1708.01
883.46	1736.68
883.62	1791.97
883.79	1705.96
883.95	1757.16
884.12	1656.81
884.29	1738.73
884.45	1591.27
884.62	1738.73
884.78	1687.53
884.95	1746.92
885.11	1759.21
885.28	1677.29
885.44	1665.00
885.61	1757.16
885.77	1843.17
885.94	1708.01
886.10	1632.23
886.27	1665.00
886.43	1802.21
886.60	1673.19
886.76	1673.19
886.93	1595.37
887.09	1728.49
887.26	1638.38
887.42	1675.24
887.59	1812.45
887.75	1789.92
887.92	1755.11
888.08	1748.97
888.25	1857.51
888.41	1748.97
888.58	1681.38
888.74	1650.66
888.91	1607.66
>>>>>End Processed Spectral Data<<<<<
