SpectraSuite Data File
++++++++++++++++++++++++++++++++++++
Date: Mon Jun 06 13:24:37 CEST 2016
User: root
Dark Spectrum Present: No
Reference Spectrum Present: No
Number of Sampled Component Spectra: 1
Spectrometers: USB4C02835
Integration Time (usec): 100000 (USB4C02835)
Spectra Averaged: 1 (USB4C02835)
Boxcar Smoothing: 0 (USB4C02835)
Correct for Electrical Dark: No (USB4C02835)
Strobe/Lamp Enabled: No (USB4C02835)
Correct for Detector Non-linearity: No (USB4C02835)
Correct for Stray Light: No (USB4C02835)
Number of Pixels in Processed Spectrum: 3648
>>>>>Begin Processed Spectral Data<<<<<
177.47	1464.30
177.69	1464.30
177.91	1464.30
178.13	1472.49
178.36	1458.15
178.58	1683.43
178.80	1701.86
179.02	1621.99
179.24	1615.85
179.46	1708.01
179.68	1757.16
179.90	1683.43
180.13	1691.62
180.35	1644.52
180.57	1775.59
180.79	1767.40
181.01	1656.81
181.23	1736.68
181.45	1830.88
181.67	1701.86
181.90	1777.64
182.12	1689.57
182.34	1751.01
182.56	1763.30
182.78	1757.16
183.00	1617.90
183.22	1697.77
183.44	1650.66
183.66	1816.55
183.89	1837.03
184.11	1648.61
184.33	1765.35
184.55	1720.29
184.77	1685.48
184.99	1705.96
185.21	1581.03
185.43	1814.50
185.65	1636.33
185.87	1736.68
186.10	1761.25
186.32	1902.56
186.54	1695.72
186.76	1742.82
186.98	1738.73
187.20	1691.62
187.42	1751.01
187.64	1773.54
187.86	1697.77
188.08	1800.16
188.30	1769.44
188.52	1636.33
188.75	1742.82
188.97	1791.97
189.19	1644.52
189.41	1718.25
189.63	1722.34
189.85	1642.47
190.07	1628.14
190.29	1640.42
190.51	1701.86
190.73	1634.28
190.95	1746.92
191.17	1710.05
191.39	1624.04
191.61	1701.86
191.84	1640.42
192.06	1705.96
192.28	1611.75
192.50	1900.52
192.72	1691.62
192.94	1675.24
193.16	1738.73
193.38	1636.33
193.60	1607.66
193.82	1703.91
194.04	1744.87
194.26	1624.04
194.48	1716.20
194.70	1710.05
194.92	1681.38
195.14	1726.44
195.36	1673.19
195.58	1669.09
195.80	1734.63
196.02	1718.25
196.24	1648.61
196.46	1720.29
196.69	1648.61
196.91	1830.88
197.13	1701.86
197.35	1705.96
197.57	1726.44
197.79	1734.63
198.01	1716.20
198.23	1640.42
198.45	1630.18
198.67	1689.57
198.89	1677.29
199.11	1695.72
199.33	1683.43
199.55	1617.90
199.77	1687.53
199.99	1730.53
200.21	1652.71
200.43	1675.24
200.65	1613.80
200.87	1611.75
201.09	1665.00
201.31	1673.19
201.53	1716.20
201.75	1767.40
201.97	1675.24
202.19	1705.96
202.41	1742.82
202.63	1773.54
202.85	1730.53
203.07	1652.71
203.29	1708.01
203.51	1609.70
203.73	1646.57
203.95	1906.66
204.17	1710.05
204.39	1714.15
204.61	1714.15
204.83	1656.81
205.05	1671.14
205.27	1755.11
205.49	1794.02
205.71	1671.14
205.93	1671.14
206.15	1675.24
206.37	1701.86
206.59	1679.33
206.81	1611.75
207.03	1648.61
207.25	1638.38
207.47	1734.63
207.69	1708.01
207.91	1787.88
208.13	1734.63
208.34	1708.01
208.56	1628.14
208.78	1738.73
209.00	1638.38
209.22	1667.05
209.44	1626.09
209.66	1669.09
209.88	1683.43
210.10	1673.19
210.32	1726.44
210.54	1755.11
210.76	1714.15
210.98	1732.58
211.20	1624.04
211.42	1701.86
211.64	1832.93
211.86	1724.39
212.08	1720.29
212.30	1718.25
212.52	1662.95
212.74	1685.48
212.96	1607.66
213.17	1751.01
213.39	1708.01
213.61	1726.44
213.83	1773.54
214.05	1621.99
214.27	1794.02
214.49	1718.25
214.71	1738.73
214.93	1685.48
215.15	1722.34
215.37	1740.77
215.59	1638.38
215.81	1775.59
216.03	1683.43
216.24	1632.23
216.46	1667.05
216.68	1665.00
216.90	1796.07
217.12	1722.34
217.34	1683.43
217.56	1716.20
217.78	1789.92
218.00	1759.21
218.22	1728.49
218.44	1718.25
218.66	1697.77
218.87	1763.30
219.09	1697.77
219.31	1687.53
219.53	1640.42
219.75	1710.05
219.97	1677.29
220.19	1755.11
220.41	1701.86
220.63	1724.39
220.85	1757.16
221.06	1646.57
221.28	1826.79
221.50	1712.10
221.72	1642.47
221.94	1714.15
222.16	1619.94
222.38	1728.49
222.60	1820.64
222.82	1652.71
223.03	1722.34
223.25	1621.99
223.47	1732.58
223.69	1779.68
223.91	1767.40
224.13	1738.73
224.35	1681.38
224.57	1773.54
224.78	1642.47
225.00	1574.89
225.22	1660.90
225.44	1708.01
225.66	1767.40
225.88	1609.70
226.10	1742.82
226.32	1732.58
226.53	1771.49
226.75	1683.43
226.97	1703.91
227.19	1691.62
227.41	1683.43
227.63	1648.61
227.85	1593.32
228.06	1681.38
228.28	1701.86
228.50	1769.44
228.72	1714.15
228.94	1662.95
229.16	1656.81
229.37	1665.00
229.59	1703.91
229.81	1798.12
230.03	1650.66
230.25	1652.71
230.47	1597.42
230.69	1628.14
230.90	1751.01
231.12	1617.90
231.34	1710.05
231.56	1703.91
231.78	1638.38
232.00	1767.40
232.21	1671.14
232.43	1701.86
232.65	1613.80
232.87	1703.91
233.09	1699.81
233.30	1656.81
233.52	1753.06
233.74	1691.62
233.96	1681.38
234.18	1738.73
234.40	1642.47
234.61	1824.74
234.83	1611.75
235.05	1634.28
235.27	1796.07
235.49	1759.21
235.70	1730.53
235.92	1763.30
236.14	1673.19
236.36	1834.98
236.58	1617.90
236.79	1718.25
237.01	1699.81
237.23	1697.77
237.45	1851.36
237.67	1644.52
237.88	1683.43
238.10	1773.54
238.32	1656.81
238.54	1699.81
238.76	1730.53
238.97	1669.09
239.19	1665.00
239.41	1726.44
239.63	1794.02
239.85	1646.57
240.06	1683.43
240.28	1611.75
240.50	1751.01
240.72	1730.53
240.93	1642.47
241.15	1755.11
241.37	1660.90
241.59	1744.87
241.81	1691.62
242.02	1693.67
242.24	1683.43
242.46	1681.38
242.68	1599.46
242.89	1695.72
243.11	1738.73
243.33	1626.09
243.55	1648.61
243.76	1751.01
243.98	1705.96
244.20	1632.23
244.42	1697.77
244.64	1697.77
244.85	1636.33
245.07	1615.85
245.29	1693.67
245.51	1705.96
245.72	1665.00
245.94	1791.97
246.16	1771.49
246.38	1724.39
246.59	1691.62
246.81	1656.81
247.03	1673.19
247.24	1605.61
247.46	1619.94
247.68	1734.63
247.90	1722.34
248.11	1656.81
248.33	1734.63
248.55	1714.15
248.77	1710.05
248.98	1748.97
249.20	1755.11
249.42	1734.63
249.64	1734.63
249.85	1691.62
250.07	1660.90
250.29	1753.06
250.50	1726.44
250.72	1595.37
250.94	1697.77
251.16	1767.40
251.37	1730.53
251.59	1691.62
251.81	1708.01
252.02	1691.62
252.24	1613.80
252.46	1734.63
252.68	1685.48
252.89	1738.73
253.11	1697.77
253.33	1882.08
253.54	1722.34
253.76	1634.28
253.98	1619.94
254.20	1669.09
254.41	1626.09
254.63	1687.53
254.85	1665.00
255.06	1660.90
255.28	1740.77
255.50	1710.05
255.71	1601.51
255.93	1585.13
256.15	1640.42
256.36	1701.86
256.58	1656.81
256.80	1763.30
257.02	1703.91
257.23	1665.00
257.45	1667.05
257.67	1751.01
257.88	1710.05
258.10	1767.40
258.32	1705.96
258.53	1718.25
258.75	1777.64
258.97	1640.42
259.18	1761.25
259.40	1667.05
259.62	1765.35
259.83	1746.92
260.05	1771.49
260.27	2000.87
260.48	1744.87
260.70	1632.23
260.92	1665.00
261.13	1742.82
261.35	1718.25
261.57	1730.53
261.78	1611.75
262.00	1566.70
262.22	1808.36
262.43	1669.09
262.65	1644.52
262.86	1638.38
263.08	1832.93
263.30	1705.96
263.51	1597.42
263.73	1640.42
263.95	1804.26
264.16	1654.76
264.38	1636.33
264.60	1728.49
264.81	1519.59
265.03	1734.63
265.25	1652.71
265.46	1736.68
265.68	1757.16
265.89	1789.92
266.11	1693.67
266.33	1693.67
266.54	1837.03
266.76	1703.91
266.98	1683.43
267.19	1779.68
267.41	1726.44
267.62	1705.96
267.84	1605.61
268.06	1708.01
268.27	1621.99
268.49	1779.68
268.70	1789.92
268.92	1669.09
269.14	1660.90
269.35	1609.70
269.57	1685.48
269.79	1775.59
270.00	1693.67
270.22	1755.11
270.43	1689.57
270.65	1578.98
270.87	1613.80
271.08	1794.02
271.30	1732.58
271.51	1724.39
271.73	1708.01
271.95	1757.16
272.16	1736.68
272.38	1728.49
272.59	1683.43
272.81	1710.05
273.02	1679.33
273.24	1822.69
273.46	1710.05
273.67	1687.53
273.89	1705.96
274.10	1658.85
274.32	1710.05
274.54	1689.57
274.75	1652.71
274.97	1681.38
275.18	1699.81
275.40	1751.01
275.61	1708.01
275.83	1722.34
276.05	1615.85
276.26	1669.09
276.48	1681.38
276.69	1703.91
276.91	1658.85
277.12	1740.77
277.34	1718.25
277.55	1710.05
277.77	1665.00
277.99	1744.87
278.20	1687.53
278.42	1587.18
278.63	1665.00
278.85	1681.38
279.06	1667.05
279.28	1751.01
279.49	1769.44
279.71	1730.53
279.93	1699.81
280.14	1753.06
280.36	1683.43
280.57	1669.09
280.79	1785.83
281.00	1589.22
281.22	1634.28
281.43	1787.88
281.65	1603.56
281.86	1665.00
282.08	1685.48
282.29	1804.26
282.51	1566.70
282.73	1652.71
282.94	1583.08
283.16	1740.77
283.37	1759.21
283.59	1759.21
283.80	1632.23
284.02	1689.57
284.23	1753.06
284.45	1765.35
284.66	1654.76
284.88	1644.52
285.09	1712.10
285.31	1755.11
285.52	1697.77
285.74	1671.14
285.95	1708.01
286.17	1771.49
286.38	1812.45
286.60	1607.66
286.81	1650.66
287.03	1638.38
287.24	1669.09
287.46	1714.15
287.67	1691.62
287.89	1853.41
288.10	1656.81
288.32	1660.90
288.53	1751.01
288.75	1722.34
288.96	1759.21
289.18	1626.09
289.39	1771.49
289.61	1710.05
289.82	1771.49
290.04	1802.21
290.25	1617.90
290.47	1718.25
290.68	1667.05
290.90	1703.91
291.11	1587.18
291.33	1703.91
291.54	1673.19
291.76	1587.18
291.97	1716.20
292.18	1738.73
292.40	1712.10
292.61	1533.93
292.83	1796.07
293.04	1773.54
293.26	1728.49
293.47	1603.56
293.69	1593.32
293.90	1652.71
294.12	1777.64
294.33	1724.39
294.55	1681.38
294.76	1689.57
294.97	1791.97
295.19	1779.68
295.40	1736.68
295.62	1765.35
295.83	1759.21
296.05	1724.39
296.26	1722.34
296.48	1689.57
296.69	1681.38
296.90	1628.14
297.12	1669.09
297.33	1767.40
297.55	1753.06
297.76	1744.87
297.98	1738.73
298.19	1667.05
298.41	1722.34
298.62	1628.14
298.83	1781.73
299.05	1779.68
299.26	1697.77
299.48	1562.60
299.69	1732.58
299.90	1748.97
300.12	1669.09
300.33	1673.19
300.55	1787.88
300.76	1716.20
300.98	1669.09
301.19	1814.50
301.40	1662.95
301.62	1619.94
301.83	1726.44
302.05	1632.23
302.26	1695.72
302.47	1722.34
302.69	1630.18
302.90	1679.33
303.12	1615.85
303.33	1763.30
303.54	1845.22
303.76	1642.47
303.97	1787.88
304.19	1800.16
304.40	1677.29
304.61	1720.29
304.83	1771.49
305.04	1773.54
305.26	1677.29
305.47	1673.19
305.68	1683.43
305.90	1595.37
306.11	1714.15
306.33	1621.99
306.54	1697.77
306.75	1681.38
306.97	1601.51
307.18	1644.52
307.39	1708.01
307.61	1779.68
307.82	1636.33
308.04	1660.90
308.25	1662.95
308.46	1685.48
308.68	1687.53
308.89	1660.90
309.10	1794.02
309.32	1714.15
309.53	1667.05
309.74	1738.73
309.96	1654.76
310.17	1751.01
310.39	1673.19
310.60	1699.81
310.81	1673.19
311.03	1548.26
311.24	1738.73
311.45	1783.78
311.67	1892.32
311.88	1634.28
312.09	1671.14
312.31	1779.68
312.52	1667.05
312.73	1691.62
312.95	1656.81
313.16	1587.18
313.37	1818.60
313.59	1628.14
313.80	1730.53
314.01	1785.83
314.23	1626.09
314.44	1738.73
314.65	1613.80
314.87	1691.62
315.08	1632.23
315.29	1705.96
315.51	1638.38
315.72	1685.48
315.93	1828.84
316.15	1779.68
316.36	1695.72
316.57	1673.19
316.79	1761.25
317.00	1722.34
317.21	1720.29
317.43	1724.39
317.64	1675.24
317.85	1632.23
318.07	1660.90
318.28	1640.42
318.49	1712.10
318.70	1918.95
318.92	1800.16
319.13	1781.73
319.34	1912.80
319.56	1789.92
319.77	1791.97
319.98	1773.54
320.20	1716.20
320.41	1787.88
320.62	1720.29
320.83	1669.09
321.05	1818.60
321.26	1748.97
321.47	1722.34
321.69	1769.44
321.90	1675.24
322.11	1714.15
322.32	1654.76
322.54	1777.64
322.75	1650.66
322.96	1818.60
323.18	1619.94
323.39	1572.84
323.60	1646.57
323.81	1757.16
324.03	1677.29
324.24	1744.87
324.45	1763.30
324.66	1632.23
324.88	1730.53
325.09	1810.40
325.30	1689.57
325.52	1755.11
325.73	1683.43
325.94	1697.77
326.15	1605.61
326.37	1667.05
326.58	1673.19
326.79	1798.12
327.00	1677.29
327.22	1693.67
327.43	1644.52
327.64	1714.15
327.85	1744.87
328.07	1718.25
328.28	1738.73
328.49	1710.05
328.70	1640.42
328.92	1648.61
329.13	1736.68
329.34	1669.09
329.55	1767.40
329.76	1718.25
329.98	1705.96
330.19	1773.54
330.40	1798.12
330.61	1734.63
330.83	1783.78
331.04	1665.00
331.25	1695.72
331.46	1656.81
331.68	1638.38
331.89	1789.92
332.10	1691.62
332.31	1669.09
332.52	1730.53
332.74	1738.73
332.95	1578.98
333.16	1787.88
333.37	1783.78
333.58	1654.76
333.80	1697.77
334.01	1601.51
334.22	1687.53
334.43	1705.96
334.64	1726.44
334.86	1656.81
335.07	1646.57
335.28	1775.59
335.49	1595.37
335.70	1759.21
335.92	1826.79
336.13	1785.83
336.34	1714.15
336.55	1753.06
336.76	1703.91
336.98	1578.98
337.19	1701.86
337.40	1779.68
337.61	1802.21
337.82	1656.81
338.04	1705.96
338.25	1597.42
338.46	1718.25
338.67	1710.05
338.88	1554.41
339.09	1681.38
339.31	1628.14
339.52	1634.28
339.73	1761.25
339.94	1701.86
340.15	1742.82
340.36	1634.28
340.58	1712.10
340.79	1607.66
341.00	1724.39
341.21	1570.79
341.42	1812.45
341.63	1691.62
341.85	1681.38
342.06	1697.77
342.27	1578.98
342.48	1714.15
342.69	1648.61
342.90	1703.91
343.12	1679.33
343.33	1705.96
343.54	1712.10
343.75	1796.07
343.96	1757.16
344.17	1665.00
344.38	1687.53
344.60	1621.99
344.81	1681.38
345.02	1705.96
345.23	1714.15
345.44	1763.30
345.65	1769.44
345.86	1679.33
346.07	1667.05
346.29	1693.67
346.50	1769.44
346.71	1701.86
346.92	1826.79
347.13	1755.11
347.34	1683.43
347.55	1689.57
347.76	1699.81
347.98	1636.33
348.19	1648.61
348.40	1800.16
348.61	1701.86
348.82	1748.97
349.03	1695.72
349.24	1687.53
349.45	1783.78
349.66	1599.46
349.88	1632.23
350.09	1675.24
350.30	1773.54
350.51	1734.63
350.72	1738.73
350.93	1671.14
351.14	1681.38
351.35	1677.29
351.56	1732.58
351.77	1675.24
351.99	1771.49
352.20	1820.64
352.41	1773.54
352.62	1544.17
352.83	1714.15
353.04	1691.62
353.25	1642.47
353.46	1808.36
353.67	1742.82
353.88	1619.94
354.09	1662.95
354.30	1673.19
354.52	1796.07
354.73	1650.66
354.94	1763.30
355.15	1779.68
355.36	1800.16
355.57	1673.19
355.78	1769.44
355.99	1662.95
356.20	1660.90
356.41	1660.90
356.62	1732.58
356.83	1763.30
357.04	1781.73
357.25	1576.94
357.46	1658.85
357.68	1617.90
357.89	1665.00
358.10	1718.25
358.31	1679.33
358.52	1724.39
358.73	1574.89
358.94	1632.23
359.15	1615.85
359.36	1783.78
359.57	1703.91
359.78	1628.14
359.99	1621.99
360.20	1640.42
360.41	1710.05
360.62	1677.29
360.83	1718.25
361.04	1734.63
361.25	1732.58
361.46	1712.10
361.67	1744.87
361.88	1734.63
362.09	1796.07
362.30	1718.25
362.51	1603.56
362.72	1699.81
362.93	1769.44
363.14	1699.81
363.35	1679.33
363.56	1609.70
363.78	1650.66
363.99	1789.92
364.20	1783.78
364.41	1726.44
364.62	1800.16
364.83	1683.43
365.04	1642.47
365.25	1718.25
365.46	1814.50
365.67	1607.66
365.88	1667.05
366.09	1732.58
366.30	1695.72
366.51	1685.48
366.72	1660.90
366.93	1730.53
367.14	1667.05
367.35	1734.63
367.56	1626.09
367.77	1802.21
367.98	1685.48
368.18	1724.39
368.39	1734.63
368.60	1617.90
368.81	1681.38
369.02	1617.90
369.23	1648.61
369.44	1656.81
369.65	1677.29
369.86	1699.81
370.07	1718.25
370.28	1656.81
370.49	1689.57
370.70	1673.19
370.91	1691.62
371.12	1642.47
371.33	1812.45
371.54	1632.23
371.75	1898.47
371.96	1576.94
372.17	1718.25
372.38	1685.48
372.59	1828.84
372.80	1626.09
373.01	1640.42
373.22	1646.57
373.43	1695.72
373.64	1648.61
373.85	1732.58
374.06	1759.21
374.26	1804.26
374.47	1675.24
374.68	1699.81
374.89	1712.10
375.10	1652.71
375.31	1855.46
375.52	1695.72
375.73	1669.09
375.94	1634.28
376.15	1832.93
376.36	1714.15
376.57	1613.80
376.78	1691.62
376.99	1826.79
377.20	1767.40
377.40	1658.85
377.61	1765.35
377.82	1617.90
378.03	1802.21
378.24	1732.58
378.45	1740.77
378.66	1658.85
378.87	1652.71
379.08	1634.28
379.29	1634.28
379.50	1757.16
379.71	1697.77
379.91	1767.40
380.12	1708.01
380.33	1675.24
380.54	1642.47
380.75	1708.01
380.96	1738.73
381.17	1691.62
381.38	1746.92
381.59	1724.39
381.80	1759.21
382.00	1816.55
382.21	1703.91
382.42	1738.73
382.63	1837.03
382.84	1697.77
383.05	1753.06
383.26	1832.93
383.47	1761.25
383.68	1765.35
383.88	1742.82
384.09	1710.05
384.30	1796.07
384.51	1789.92
384.72	1658.85
384.93	1642.47
385.14	1748.97
385.35	1769.44
385.55	1609.70
385.76	1695.72
385.97	1742.82
386.18	1615.85
386.39	1681.38
386.60	1726.44
386.81	1734.63
387.02	1624.04
387.22	1712.10
387.43	1757.16
387.64	1771.49
387.85	1859.56
388.06	2246.62
388.27	4171.71
388.48	6768.54
388.68	8218.50
388.89	9629.55
389.10	9795.43
389.31	8501.12
389.52	7649.16
389.73	6715.29
389.93	6254.50
390.14	5818.28
390.35	5199.79
390.56	4556.73
390.77	3782.60
390.98	2994.13
391.18	2451.42
391.39	2090.98
391.60	1894.37
391.81	1826.79
392.02	1730.53
392.23	1771.49
392.43	1728.49
392.64	1779.68
392.85	1642.47
393.06	1837.03
393.27	1642.47
393.47	1673.19
393.68	1738.73
393.89	1603.56
394.10	1767.40
394.31	1695.72
394.52	1646.57
394.72	1671.14
394.93	1769.44
395.14	1701.86
395.35	1740.77
395.56	1675.24
395.76	1693.67
395.97	1765.35
396.18	1802.21
396.39	1824.74
396.60	1990.63
396.80	1943.52
397.01	1822.69
397.22	1824.74
397.43	1839.08
397.64	1662.95
397.84	1755.11
398.05	1916.90
398.26	1728.49
398.47	1810.40
398.67	1757.16
398.88	1738.73
399.09	1794.02
399.30	1673.19
399.51	1738.73
399.71	1613.80
399.92	1665.00
400.13	1789.92
400.34	1689.57
400.54	1597.42
400.75	1820.64
400.96	1705.96
401.17	1816.55
401.37	1775.59
401.58	1734.63
401.79	1767.40
402.00	1873.89
402.21	2015.20
402.41	1904.61
402.62	1945.57
402.83	2029.54
403.04	2060.26
403.24	2129.89
403.45	1826.79
403.66	1955.81
403.87	1849.32
404.07	1914.85
404.28	1902.56
404.49	1841.12
404.70	1746.92
404.90	1771.49
405.11	1759.21
405.32	1726.44
405.52	1765.35
405.73	1662.95
405.94	1679.33
406.15	1771.49
406.35	1777.64
406.56	1705.96
406.77	1656.81
406.98	1734.63
407.18	1667.05
407.39	1830.88
407.60	1710.05
407.80	1732.58
408.01	1609.70
408.22	1712.10
408.43	1710.05
408.63	1699.81
408.84	1730.53
409.05	1730.53
409.25	1656.81
409.46	1677.29
409.67	1681.38
409.88	1638.38
410.08	1710.05
410.29	1718.25
410.50	1697.77
410.70	1781.73
410.91	1656.81
411.12	1652.71
411.32	1748.97
411.53	1652.71
411.74	1824.74
411.95	1753.06
412.15	1773.54
412.36	1738.73
412.57	1734.63
412.77	1812.45
412.98	1740.77
413.19	1705.96
413.39	1781.73
413.60	1730.53
413.81	1769.44
414.01	1763.30
414.22	1734.63
414.43	1714.15
414.63	1734.63
414.84	1716.20
415.05	1681.38
415.25	1652.71
415.46	1685.48
415.67	1640.42
415.87	1751.01
416.08	1718.25
416.29	1691.62
416.49	1683.43
416.70	1728.49
416.91	1605.61
417.11	1697.77
417.32	1740.77
417.53	1804.26
417.73	1724.39
417.94	1626.09
418.15	1722.34
418.35	1658.85
418.56	1660.90
418.77	1751.01
418.97	1722.34
419.18	1656.81
419.38	1599.46
419.59	1695.72
419.80	1800.16
420.00	1665.00
420.21	1714.15
420.42	1841.12
420.62	1716.20
420.83	1644.52
421.04	1730.53
421.24	1636.33
421.45	1796.07
421.65	1783.78
421.86	1697.77
422.07	1734.63
422.27	1738.73
422.48	1681.38
422.69	1693.67
422.89	1720.29
423.10	1652.71
423.30	1607.66
423.51	1724.39
423.72	1744.87
423.92	1738.73
424.13	1632.23
424.33	1767.40
424.54	1665.00
424.75	1705.96
424.95	1744.87
425.16	1662.95
425.36	1724.39
425.57	1806.31
425.78	1746.92
425.98	1765.35
426.19	1615.85
426.39	1714.15
426.60	1699.81
426.81	1791.97
427.01	1728.49
427.22	1660.90
427.42	1574.89
427.63	1640.42
427.83	1708.01
428.04	1861.60
428.25	1751.01
428.45	1761.25
428.66	1826.79
428.86	1654.76
429.07	1689.57
429.28	1761.25
429.48	1597.42
429.69	1675.24
429.89	1787.88
430.10	1624.04
430.30	1689.57
430.51	1724.39
430.71	1689.57
430.92	1638.38
431.13	1669.09
431.33	1632.23
431.54	1605.61
431.74	1789.92
431.95	1779.68
432.15	1644.52
432.36	1687.53
432.56	1753.06
432.77	1777.64
432.98	1816.55
433.18	1697.77
433.39	1712.10
433.59	1691.62
433.80	1867.75
434.00	1857.51
434.21	1701.86
434.41	1644.52
434.62	1826.79
434.82	1626.09
435.03	1656.81
435.23	1800.16
435.44	1533.93
435.64	1718.25
435.85	1765.35
436.06	1742.82
436.26	1796.07
436.47	1693.67
436.67	1669.09
436.88	1705.96
437.08	1703.91
437.29	1802.21
437.49	1787.88
437.70	1820.64
437.90	1724.39
438.11	1890.28
438.31	1791.97
438.52	1861.60
438.72	1834.98
438.93	1896.42
439.13	1791.97
439.34	1832.93
439.54	1728.49
439.75	1785.83
439.95	1837.03
440.16	1613.80
440.36	1699.81
440.57	1751.01
440.77	1722.34
440.98	1769.44
441.18	1740.77
441.39	1689.57
441.59	1628.14
441.80	1851.36
442.00	1669.09
442.21	1837.03
442.41	1640.42
442.62	1812.45
442.82	1705.96
443.02	1740.77
443.23	1798.12
443.43	1628.14
443.64	1808.36
443.84	1701.86
444.05	1714.15
444.25	1757.16
444.46	1708.01
444.66	1710.05
444.87	1841.12
445.07	1644.52
445.28	1712.10
445.48	1855.46
445.69	1738.73
445.89	1806.31
446.09	1722.34
446.30	2011.11
446.50	2662.36
446.71	3733.45
446.91	4263.87
447.12	4755.38
447.32	4829.11
447.53	4319.17
447.73	3885.00
447.93	3479.50
448.14	3278.80
448.34	3137.49
448.55	2897.88
448.75	2865.11
448.96	2785.24
449.16	2373.60
449.36	2336.73
449.57	2058.21
449.77	1920.99
449.98	1757.16
450.18	1841.12
450.39	1746.92
450.59	1798.12
450.79	1742.82
451.00	1714.15
451.20	1718.25
451.41	1724.39
451.61	1818.60
451.81	1708.01
452.02	1669.09
452.22	1710.05
452.43	1708.01
452.63	1697.77
452.84	1740.77
453.04	1691.62
453.24	1746.92
453.45	1726.44
453.65	1736.68
453.86	1722.34
454.06	1718.25
454.26	1693.67
454.47	1675.24
454.67	1804.26
454.87	1675.24
455.08	1724.39
455.28	1861.60
455.49	1746.92
455.69	1697.77
455.89	1959.91
456.10	1757.16
456.30	1734.63
456.51	1740.77
456.71	1765.35
456.91	1710.05
457.12	1738.73
457.32	1757.16
457.52	1683.43
457.73	1830.88
457.93	1708.01
458.14	1804.26
458.34	1724.39
458.54	1732.58
458.75	1667.05
458.95	1710.05
459.15	1710.05
459.36	1757.16
459.56	1746.92
459.76	1869.80
459.97	1730.53
460.17	1693.67
460.37	1853.41
460.58	1685.48
460.78	1691.62
460.99	1669.09
461.19	1742.82
461.39	1720.29
461.60	1724.39
461.80	1785.83
462.00	1652.71
462.21	1712.10
462.41	1589.22
462.61	1685.48
462.82	1638.38
463.02	1705.96
463.22	1759.21
463.43	1734.63
463.63	1763.30
463.83	1847.27
464.04	1763.30
464.24	1804.26
464.44	1681.38
464.64	1689.57
464.85	1767.40
465.05	1748.97
465.25	1687.53
465.46	1617.90
465.66	1705.96
465.86	1791.97
466.07	1740.77
466.27	1695.72
466.47	1601.51
466.68	1566.70
466.88	1871.84
467.08	1693.67
467.29	1689.57
467.49	1767.40
467.69	1746.92
467.89	1767.40
468.10	1714.15
468.30	1703.91
468.50	1744.87
468.71	1791.97
468.91	1685.48
469.11	1839.08
469.31	1679.33
469.52	1640.42
469.72	1804.26
469.92	1886.18
470.13	1697.77
470.33	1695.72
470.53	1859.56
470.73	2136.03
470.94	2361.31
471.14	2336.73
471.34	2549.72
471.54	2322.40
471.75	2154.46
471.95	2115.55
472.15	2107.36
472.36	2103.26
472.56	2043.87
472.76	2074.59
472.96	1902.56
473.17	1918.95
473.37	1826.79
473.57	1832.93
473.77	1771.49
473.98	1761.25
474.18	1701.86
474.38	1873.89
474.58	1728.49
474.79	1734.63
474.99	1755.11
475.19	1730.53
475.39	1658.85
475.60	1714.15
475.80	1734.63
476.00	1751.01
476.20	1751.01
476.41	1708.01
476.61	1773.54
476.81	1710.05
477.01	1656.81
477.21	1818.60
477.42	1845.22
477.62	1660.90
477.82	1746.92
478.02	1779.68
478.23	1681.38
478.43	1630.18
478.63	1722.34
478.83	1732.58
479.03	1607.66
479.24	1822.69
479.44	1839.08
479.64	1673.19
479.84	1617.90
480.04	1712.10
480.25	1775.59
480.45	1632.23
480.65	1787.88
480.85	1857.51
481.06	1677.29
481.26	1730.53
481.46	1656.81
481.66	1693.67
481.86	1710.05
482.06	1718.25
482.27	1683.43
482.47	1714.15
482.67	1636.33
482.87	1728.49
483.07	1857.51
483.28	1699.81
483.48	1689.57
483.68	1624.04
483.88	1599.46
484.08	1574.89
484.29	1656.81
484.49	1669.09
484.69	1613.80
484.89	1861.60
485.09	1736.68
485.29	1705.96
485.50	1705.96
485.70	1753.06
485.90	1839.08
486.10	1638.38
486.30	1689.57
486.50	1781.73
486.71	1783.78
486.91	1759.21
487.11	1736.68
487.31	1712.10
487.51	1687.53
487.71	1660.90
487.91	1648.61
488.12	1695.72
488.32	1578.98
488.52	1660.90
488.72	1697.77
488.92	1720.29
489.12	1714.15
489.32	1746.92
489.53	1718.25
489.73	1689.57
489.93	1787.88
490.13	1662.95
490.33	1621.99
490.53	1705.96
490.73	1726.44
490.94	1634.28
491.14	1834.98
491.34	1869.80
491.54	2164.70
491.74	2519.00
491.94	2897.88
492.14	2981.84
492.34	2987.99
492.54	2744.28
492.75	2541.53
492.95	2324.44
493.15	2328.54
493.35	2279.39
493.55	2275.29
493.75	2131.94
493.95	2131.94
494.15	1984.48
494.35	1888.23
494.56	1865.70
494.76	1726.44
494.96	1812.45
495.16	1781.73
495.36	1718.25
495.56	1753.06
495.76	1693.67
495.96	1785.83
496.16	1646.57
496.36	1828.84
496.56	1763.30
496.77	1726.44
496.97	1746.92
497.17	1777.64
497.37	1691.62
497.57	1705.96
497.77	1693.67
497.97	1720.29
498.17	1748.97
498.37	1740.77
498.57	1763.30
498.77	1671.14
498.97	1744.87
499.17	1755.11
499.38	1785.83
499.58	1791.97
499.78	1812.45
499.98	1863.65
500.18	1816.55
500.38	1705.96
500.58	1890.28
500.78	2523.10
500.98	4505.53
501.18	5674.92
501.38	6723.48
501.58	6956.95
501.78	6440.86
501.98	5453.74
502.18	4861.88
502.38	4257.73
502.58	4097.99
502.78	3823.56
502.98	3667.91
503.18	3454.92
503.38	3203.02
503.59	2897.88
503.79	2672.60
503.99	2488.28
504.19	2283.49
504.39	2224.09
504.59	2193.37
504.79	2183.13
504.99	2033.63
505.19	1804.26
505.39	1920.99
505.59	2009.06
505.79	1923.04
505.99	1914.85
506.19	1736.68
506.39	1869.80
506.59	1753.06
506.79	1675.24
506.99	1789.92
507.19	1818.60
507.39	1839.08
507.59	1665.00
507.79	1652.71
507.99	1701.86
508.19	1751.01
508.39	1652.71
508.59	1748.97
508.79	1865.70
508.99	1767.40
509.19	1677.29
509.39	1724.39
509.59	1710.05
509.79	1695.72
509.99	1748.97
510.19	1789.92
510.39	1775.59
510.59	1722.34
510.79	1667.05
510.99	1593.32
511.19	1708.01
511.39	1855.46
511.59	1812.45
511.79	1785.83
511.99	1691.62
512.19	1757.16
512.38	1722.34
512.58	1691.62
512.78	1730.53
512.98	1740.77
513.18	1908.71
513.38	1718.25
513.58	1726.44
513.78	1654.76
513.98	1656.81
514.18	1626.09
514.38	1699.81
514.58	1730.53
514.78	1703.91
514.98	1652.71
515.18	1693.67
515.38	1607.66
515.58	1892.32
515.78	1673.19
515.98	1726.44
516.18	1847.27
516.38	1726.44
516.57	1734.63
516.77	1740.77
516.97	1722.34
517.17	1648.61
517.37	1630.18
517.57	1763.30
517.77	1671.14
517.97	1710.05
518.17	1732.58
518.37	1628.14
518.57	1683.43
518.77	1712.10
518.97	1718.25
519.16	1763.30
519.36	1791.97
519.56	1640.42
519.76	1703.91
519.96	1679.33
520.16	1841.12
520.36	1667.05
520.56	1839.08
520.76	1658.85
520.96	1738.73
521.16	1732.58
521.35	1820.64
521.55	1763.30
521.75	1669.09
521.95	1736.68
522.15	1718.25
522.35	1665.00
522.55	1714.15
522.75	1779.68
522.95	1755.11
523.14	1789.92
523.34	1800.16
523.54	1755.11
523.74	1812.45
523.94	1730.53
524.14	1644.52
524.34	1777.64
524.54	1705.96
524.73	1718.25
524.93	1806.31
525.13	1708.01
525.33	1562.60
525.53	1918.95
525.73	1748.97
525.93	1738.73
526.13	1812.45
526.32	1769.44
526.52	1738.73
526.72	1748.97
526.92	1757.16
527.12	1746.92
527.32	1705.96
527.52	1724.39
527.71	1808.36
527.91	1783.78
528.11	1728.49
528.31	1767.40
528.51	1648.61
528.71	1742.82
528.90	1710.05
529.10	1785.83
529.30	1853.41
529.50	1529.83
529.70	1779.68
529.90	1648.61
530.09	1794.02
530.29	1736.68
530.49	1677.29
530.69	1800.16
530.89	1763.30
531.09	1748.97
531.28	1703.91
531.48	1834.98
531.68	1763.30
531.88	1748.97
532.08	1662.95
532.28	1722.34
532.47	1826.79
532.67	1902.56
532.87	1775.59
533.07	1748.97
533.27	1689.57
533.46	1742.82
533.66	1732.58
533.86	1656.81
534.06	1744.87
534.26	1714.15
534.45	1726.44
534.65	1753.06
534.85	1734.63
535.05	1734.63
535.25	1722.34
535.44	1724.39
535.64	1771.49
535.84	1722.34
536.04	1673.19
536.24	1736.68
536.43	1654.76
536.63	1849.32
536.83	1705.96
537.03	1751.01
537.22	1689.57
537.42	1576.94
537.62	1734.63
537.82	1689.57
538.02	1697.77
538.21	1920.99
538.41	1890.28
538.61	1718.25
538.81	1728.49
539.00	1779.68
539.20	1621.99
539.40	1675.24
539.60	1763.30
539.79	1791.97
539.99	1660.90
540.19	1695.72
540.39	1734.63
540.58	1779.68
540.78	1824.74
540.98	1677.29
541.18	1765.35
541.37	1767.40
541.57	1701.86
541.77	1730.53
541.97	1710.05
542.16	1621.99
542.36	1720.29
542.56	1728.49
542.76	1804.26
542.95	1789.92
543.15	1775.59
543.35	1710.05
543.54	1681.38
543.74	1673.19
543.94	1804.26
544.14	1718.25
544.33	1834.98
544.53	1675.24
544.73	1751.01
544.93	1695.72
545.12	1701.86
545.32	1746.92
545.52	1675.24
545.71	1701.86
545.91	1673.19
546.11	1697.77
546.30	1685.48
546.50	1720.29
546.70	1726.44
546.90	1665.00
547.09	1646.57
547.29	1757.16
547.49	1695.72
547.68	1765.35
547.88	1671.14
548.08	1796.07
548.27	2146.27
548.47	1642.47
548.67	1671.14
548.87	1775.59
549.06	1648.61
549.26	1757.16
549.46	1722.34
549.65	1650.66
549.85	1734.63
550.05	1787.88
550.24	1665.00
550.44	1746.92
550.64	1712.10
550.83	1701.86
551.03	1765.35
551.23	1771.49
551.42	1785.83
551.62	1679.33
551.82	1755.11
552.01	1685.48
552.21	1796.07
552.41	1701.86
552.60	1812.45
552.80	1736.68
553.00	1689.57
553.19	1763.30
553.39	1832.93
553.59	1634.28
553.78	1767.40
553.98	1705.96
554.17	1626.09
554.37	1767.40
554.57	1806.31
554.76	1648.61
554.96	1656.81
555.16	1757.16
555.35	1763.30
555.55	1734.63
555.75	1697.77
555.94	1812.45
556.14	1681.38
556.33	1757.16
556.53	1761.25
556.73	1673.19
556.92	1744.87
557.12	1783.78
557.32	1787.88
557.51	1753.06
557.71	1800.16
557.90	1808.36
558.10	1808.36
558.30	1728.49
558.49	1732.58
558.69	1732.58
558.88	1830.88
559.08	1724.39
559.28	1630.18
559.47	1687.53
559.67	1814.50
559.86	1808.36
560.06	1810.40
560.26	1679.33
560.45	1718.25
560.65	1787.88
560.84	1824.74
561.04	1740.77
561.24	1798.12
561.43	1689.57
561.63	1800.16
561.82	1748.97
562.02	1767.40
562.22	1628.14
562.41	1726.44
562.61	1708.01
562.80	1689.57
563.00	1810.40
563.19	1757.16
563.39	1777.64
563.59	1779.68
563.78	1624.04
563.98	1689.57
564.17	1718.25
564.37	1710.05
564.56	1722.34
564.76	1779.68
564.96	1738.73
565.15	1757.16
565.35	1806.31
565.54	1658.85
565.74	1755.11
565.93	1697.77
566.13	1720.29
566.32	1814.50
566.52	1806.31
566.71	1763.30
566.91	1812.45
567.11	1673.19
567.30	1701.86
567.50	1787.88
567.69	1763.30
567.89	1798.12
568.08	1736.68
568.28	1681.38
568.47	1728.49
568.67	1755.11
568.86	1697.77
569.06	1820.64
569.25	1701.86
569.45	1654.76
569.64	1689.57
569.84	1800.16
570.04	1785.83
570.23	1781.73
570.43	1720.29
570.62	1720.29
570.82	1947.62
571.01	1617.90
571.21	1718.25
571.40	1732.58
571.60	1697.77
571.79	1781.73
571.99	1744.87
572.18	1718.25
572.38	1689.57
572.57	1781.73
572.77	1759.21
572.96	1824.74
573.16	1746.92
573.35	1667.05
573.55	1830.88
573.74	1757.16
573.94	1687.53
574.13	1732.58
574.33	1841.12
574.52	1804.26
574.71	1765.35
574.91	1712.10
575.10	1677.29
575.30	1810.40
575.49	1669.09
575.69	1703.91
575.88	1798.12
576.08	1699.81
576.27	1855.46
576.47	1701.86
576.66	1853.41
576.86	1751.01
577.05	1701.86
577.25	1808.36
577.44	1740.77
577.64	1708.01
577.83	1816.55
578.02	1708.01
578.22	1828.84
578.41	1843.17
578.61	1697.77
578.80	1626.09
579.00	1740.77
579.19	1804.26
579.39	1767.40
579.58	1806.31
579.77	1755.11
579.97	1783.78
580.16	1796.07
580.36	1755.11
580.55	1914.85
580.75	1808.36
580.94	1816.55
581.13	1822.69
581.33	1857.51
581.52	1726.44
581.72	1826.79
581.91	1783.78
582.11	1746.92
582.30	1791.97
582.49	1761.25
582.69	1902.56
582.88	1763.30
583.08	1705.96
583.27	1767.40
583.47	1771.49
583.66	1763.30
583.85	1605.61
584.05	1710.05
584.24	1777.64
584.44	1748.97
584.63	1771.49
584.82	1796.07
585.02	1738.73
585.21	1804.26
585.41	1877.99
585.60	1804.26
585.79	1980.39
585.99	1949.67
586.18	1945.57
586.37	2232.29
586.57	3473.36
586.76	9809.77
586.96	24176.27
587.15	34328.05
587.34	40158.62
587.54	42333.56
587.73	36781.52
587.93	26396.27
588.12	21468.86
588.31	18304.74
588.51	16316.17
588.70	15187.74
588.89	14223.14
589.09	12805.95
589.28	11075.42
589.47	9473.90
589.67	7935.88
589.86	6281.12
590.06	4878.26
590.25	3962.82
590.44	3139.54
590.64	2639.83
590.83	2242.53
591.02	2064.35
591.22	1988.58
591.41	1890.28
591.60	1920.99
591.80	1949.67
591.99	1701.86
592.18	1802.21
592.38	1787.88
592.57	1787.88
592.76	1738.73
592.96	1818.60
593.15	1767.40
593.34	1839.08
593.54	1744.87
593.73	1761.25
593.92	1761.25
594.12	1777.64
594.31	1751.01
594.50	1791.97
594.70	1834.98
594.89	1814.50
595.08	1695.72
595.28	1818.60
595.47	1925.09
595.66	1734.63
595.86	1683.43
596.05	1652.71
596.24	1685.48
596.43	1869.80
596.63	1802.21
596.82	1728.49
597.01	1734.63
597.21	1808.36
597.40	1804.26
597.59	1759.21
597.79	1726.44
597.98	1724.39
598.17	1751.01
598.36	1748.97
598.56	1736.68
598.75	1650.66
598.94	1765.35
599.14	1708.01
599.33	1775.59
599.52	1720.29
599.71	1736.68
599.91	1761.25
600.10	1794.02
600.29	1753.06
600.48	1769.44
600.68	1708.01
600.87	1746.92
601.06	1681.38
601.26	1738.73
601.45	1763.30
601.64	1701.86
601.83	1816.55
602.03	1701.86
602.22	1638.38
602.41	1818.60
602.60	1884.13
602.80	1845.22
602.99	1677.29
603.18	1671.14
603.37	1744.87
603.57	1708.01
603.76	1787.88
603.95	1755.11
604.14	1722.34
604.34	1665.00
604.53	1695.72
604.72	1746.92
604.91	1791.97
605.10	1853.41
605.30	1662.95
605.49	1927.14
605.68	1732.58
605.87	1714.15
606.07	1652.71
606.26	1687.53
606.45	1746.92
606.64	1791.97
606.84	1767.40
607.03	1726.44
607.22	1796.07
607.41	1701.86
607.60	1751.01
607.80	1767.40
607.99	1693.67
608.18	1800.16
608.37	1755.11
608.56	1681.38
608.76	1779.68
608.95	1847.27
609.14	1714.15
609.33	1757.16
609.52	1773.54
609.72	1744.87
609.91	1789.92
610.10	1691.62
610.29	1798.12
610.48	1744.87
610.68	1695.72
610.87	1751.01
611.06	1730.53
611.25	1650.66
611.44	1781.73
611.63	1722.34
611.83	1820.64
612.02	1599.46
612.21	1781.73
612.40	1665.00
612.59	1718.25
612.79	1630.18
612.98	1714.15
613.17	1877.99
613.36	1748.97
613.55	1837.03
613.74	1677.29
613.93	1681.38
614.13	1720.29
614.32	1705.96
614.51	1814.50
614.70	1689.57
614.89	1714.15
615.08	1736.68
615.28	2093.02
615.47	1617.90
615.66	1751.01
615.85	1761.25
616.04	1826.79
616.23	1773.54
616.42	1675.24
616.62	1736.68
616.81	1761.25
617.00	1667.05
617.19	1857.51
617.38	1705.96
617.57	1773.54
617.76	1656.81
617.95	1771.49
618.15	1753.06
618.34	1820.64
618.53	1642.47
618.72	1796.07
618.91	1710.05
619.10	1812.45
619.29	1722.34
619.48	1718.25
619.68	1665.00
619.87	1671.14
620.06	1697.77
620.25	1683.43
620.44	1697.77
620.63	1718.25
620.82	1687.53
621.01	1667.05
621.20	1691.62
621.39	1724.39
621.59	1748.97
621.78	1667.05
621.97	1757.16
622.16	1697.77
622.35	1722.34
622.54	1746.92
622.73	1824.74
622.92	1665.00
623.11	1834.98
623.30	1748.97
623.49	1761.25
623.68	1669.09
623.88	1765.35
624.07	1779.68
624.26	1748.97
624.45	1730.53
624.64	1753.06
624.83	1732.58
625.02	1718.25
625.21	1781.73
625.40	1771.49
625.59	1779.68
625.78	1677.29
625.97	1746.92
626.16	1816.55
626.35	1806.31
626.54	1681.38
626.74	1822.69
626.93	1660.90
627.12	1738.73
627.31	1718.25
627.50	1759.21
627.69	1714.15
627.88	1679.33
628.07	1730.53
628.26	1673.19
628.45	1748.97
628.64	1679.33
628.83	1683.43
629.02	1695.72
629.21	1785.83
629.40	1658.85
629.59	1693.67
629.78	1716.20
629.97	1767.40
630.16	1757.16
630.35	1669.09
630.54	1708.01
630.73	1712.10
630.92	1746.92
631.11	1607.66
631.30	1740.77
631.49	1726.44
631.68	1728.49
631.87	1740.77
632.06	1626.09
632.25	1904.61
632.44	1701.86
632.63	1687.53
632.82	1703.91
633.01	1660.90
633.20	1724.39
633.39	1722.34
633.58	1644.52
633.77	1771.49
633.96	1738.73
634.15	1845.22
634.34	1728.49
634.53	1765.35
634.72	1714.15
634.91	1632.23
635.10	1785.83
635.29	1761.25
635.48	1673.19
635.67	1718.25
635.86	1677.29
636.05	1757.16
636.24	1708.01
636.43	1769.44
636.62	1781.73
636.81	1630.18
637.00	1632.23
637.19	1734.63
637.38	1718.25
637.57	1638.38
637.76	1771.49
637.95	1789.92
638.14	1736.68
638.33	1705.96
638.52	1703.91
638.71	1642.47
638.89	1660.90
639.08	1841.12
639.27	1710.05
639.46	1736.68
639.65	1744.87
639.84	1701.86
640.03	1738.73
640.22	1701.86
640.41	1748.97
640.60	1722.34
640.79	1697.77
640.98	1708.01
641.17	1755.11
641.36	1714.15
641.55	1681.38
641.74	1687.53
641.92	1656.81
642.11	1671.14
642.30	1656.81
642.49	1689.57
642.68	1648.61
642.87	1691.62
643.06	1753.06
643.25	1708.01
643.44	1697.77
643.63	1677.29
643.82	1716.20
644.00	1714.15
644.19	1703.91
644.38	1609.70
644.57	1763.30
644.76	1740.77
644.95	1722.34
645.14	1757.16
645.33	1691.62
645.52	1687.53
645.71	1705.96
645.89	1673.19
646.08	1699.81
646.27	1693.67
646.46	1841.12
646.65	1634.28
646.84	1738.73
647.03	1679.33
647.22	1822.69
647.40	1726.44
647.59	1722.34
647.78	1630.18
647.97	1689.57
648.16	1640.42
648.35	1845.22
648.54	1849.32
648.73	1759.21
648.91	1740.77
649.10	1736.68
649.29	1689.57
649.48	1677.29
649.67	1685.48
649.86	1744.87
650.05	1673.19
650.23	1740.77
650.42	1671.14
650.61	1724.39
650.80	1650.66
650.99	1855.46
651.18	1773.54
651.36	1746.92
651.55	1712.10
651.74	1763.30
651.93	1712.10
652.12	1673.19
652.31	1689.57
652.49	1736.68
652.68	1742.82
652.87	1791.97
653.06	1669.09
653.25	1806.31
653.44	1718.25
653.62	1751.01
653.81	1738.73
654.00	1771.49
654.19	1765.35
654.38	1830.88
654.56	1726.44
654.75	1701.86
654.94	1742.82
655.13	1677.29
655.32	1652.71
655.51	1751.01
655.69	1648.61
655.88	1734.63
656.07	1638.38
656.26	1779.68
656.45	1585.13
656.63	1751.01
656.82	1708.01
657.01	1767.40
657.20	1632.23
657.38	1851.36
657.57	1624.04
657.76	1683.43
657.95	1669.09
658.14	1695.72
658.32	1689.57
658.51	1548.26
658.70	1689.57
658.89	1714.15
659.08	1714.15
659.26	1734.63
659.45	1662.95
659.64	1673.19
659.83	1650.66
660.01	1890.28
660.20	1765.35
660.39	1785.83
660.58	1552.36
660.76	1759.21
660.95	1714.15
661.14	1710.05
661.33	1691.62
661.51	1677.29
661.70	1648.61
661.89	1730.53
662.08	1705.96
662.26	1648.61
662.45	1677.29
662.64	1892.32
662.83	1810.40
663.01	1714.15
663.20	1691.62
663.39	1808.36
663.58	1685.48
663.76	1701.86
663.95	1746.92
664.14	1701.86
664.32	1730.53
664.51	1695.72
664.70	1585.13
664.89	1736.68
665.07	1650.66
665.26	1845.22
665.45	1615.85
665.64	1726.44
665.82	1712.10
666.01	1726.44
666.20	1658.85
666.38	1816.55
666.57	1822.69
666.76	2152.42
666.95	4351.93
667.13	10241.89
667.32	14855.97
667.51	17913.58
667.69	18896.61
667.88	17456.89
668.07	12224.33
668.25	9357.17
668.44	7972.74
668.63	7319.44
668.81	6805.40
669.00	6195.11
669.19	5670.83
669.38	5013.43
669.56	4515.77
669.75	3985.35
669.94	3506.12
670.12	2977.75
670.31	2432.99
670.50	2226.14
670.68	2058.21
670.87	1894.37
671.06	1906.66
671.24	1781.73
671.43	1787.88
671.62	1748.97
671.80	1714.15
671.99	1726.44
672.18	1683.43
672.36	1783.78
672.55	1718.25
672.74	1755.11
672.92	1789.92
673.11	1751.01
673.29	1642.47
673.48	1796.07
673.67	1716.20
673.85	1746.92
674.04	1695.72
674.23	1710.05
674.41	1789.92
674.60	1628.14
674.79	1595.37
674.97	1691.62
675.16	1787.88
675.34	1820.64
675.53	1669.09
675.72	1728.49
675.90	1736.68
676.09	1669.09
676.28	1695.72
676.46	1667.05
676.65	1710.05
676.83	1705.96
677.02	1724.39
677.21	1689.57
677.39	1724.39
677.58	1601.51
677.77	1667.05
677.95	1689.57
678.14	1736.68
678.32	1691.62
678.51	1652.71
678.70	1910.75
678.88	1720.29
679.07	1744.87
679.25	1693.67
679.44	1726.44
679.63	1689.57
679.81	1726.44
680.00	1814.50
680.18	1757.16
680.37	1853.41
680.55	1701.86
680.74	1656.81
680.93	1705.96
681.11	1710.05
681.30	1722.34
681.48	1775.59
681.67	1699.81
681.85	1675.24
682.04	1597.42
682.23	1652.71
682.41	1763.30
682.60	1710.05
682.78	1802.21
682.97	1726.44
683.15	1740.77
683.34	1695.72
683.53	1771.49
683.71	1630.18
683.90	1800.16
684.08	1767.40
684.27	1761.25
684.45	1683.43
684.64	1828.84
684.82	1669.09
685.01	1738.73
685.19	1708.01
685.38	1802.21
685.57	1697.77
685.75	1669.09
685.94	1652.71
686.12	1658.85
686.31	1714.15
686.49	1796.07
686.68	1609.70
686.86	1687.53
687.05	1714.15
687.23	1746.92
687.42	1681.38
687.60	1652.71
687.79	1748.97
687.97	1703.91
688.16	1746.92
688.34	1771.49
688.53	1652.71
688.71	1660.90
688.90	1746.92
689.08	1689.57
689.27	1583.08
689.45	1781.73
689.64	1658.85
689.82	1681.38
690.01	1775.59
690.19	1738.73
690.38	1675.24
690.56	1839.08
690.75	1748.97
690.93	1646.57
691.12	1726.44
691.30	1677.29
691.49	1687.53
691.67	1714.15
691.86	1871.84
692.04	1685.48
692.23	1759.21
692.41	1751.01
692.60	1814.50
692.78	1732.58
692.97	1675.24
693.15	1769.44
693.34	1826.79
693.52	1794.02
693.71	1662.95
693.89	1675.24
694.08	1636.33
694.26	1789.92
694.44	1730.53
694.63	1765.35
694.81	1669.09
695.00	1685.48
695.18	1695.72
695.37	1740.77
695.55	1767.40
695.74	1726.44
695.92	1574.89
696.10	1751.01
696.29	1615.85
696.47	1613.80
696.66	1640.42
696.84	1644.52
697.03	1710.05
697.21	1837.03
697.40	2310.11
697.58	1798.12
697.76	1669.09
697.95	1722.34
698.13	1652.71
698.32	1714.15
698.50	1656.81
698.68	1730.53
698.87	1722.34
699.05	1771.49
699.24	1724.39
699.42	1695.72
699.61	1636.33
699.79	1732.58
699.97	1789.92
700.16	1636.33
700.34	1701.86
700.53	1669.09
700.71	1746.92
700.89	1718.25
701.08	1687.53
701.26	1748.97
701.45	2021.35
701.63	1679.33
701.81	1712.10
702.00	1669.09
702.18	1671.14
702.37	1697.77
702.55	1746.92
702.73	1683.43
702.92	1621.99
703.10	1724.39
703.28	1689.57
703.47	1665.00
703.65	1785.83
703.84	1814.50
704.02	1689.57
704.20	1841.12
704.39	1722.34
704.57	1681.38
704.75	1820.64
704.94	1716.20
705.12	1746.92
705.30	1814.50
705.49	2234.33
705.67	4429.76
705.86	9471.86
706.04	12566.34
706.22	14221.10
706.41	15263.51
706.59	14124.84
706.77	9623.41
706.96	7452.56
707.14	6502.30
707.32	6047.65
707.51	5506.99
707.69	4966.32
707.87	4253.63
708.06	3536.84
708.24	3020.75
708.42	2494.43
708.61	2318.30
708.79	1923.04
708.97	1933.28
709.16	1837.03
709.34	1769.44
709.52	1656.81
709.71	1755.11
709.89	1748.97
710.07	1646.57
710.26	1665.00
710.44	1673.19
710.62	1732.58
710.80	1800.16
710.99	1826.79
711.17	1757.16
711.35	1681.38
711.54	1613.80
711.72	1765.35
711.90	1728.49
712.09	1677.29
712.27	1650.66
712.45	1753.06
712.63	1689.57
712.82	1681.38
713.00	1626.09
713.18	1742.82
713.37	1769.44
713.55	1671.14
713.73	1812.45
713.91	1714.15
714.10	1722.34
714.28	1615.85
714.46	1740.77
714.65	1701.86
714.83	1652.71
715.01	1773.54
715.19	1601.51
715.38	1613.80
715.56	1746.92
715.74	1703.91
715.92	1665.00
716.11	1802.21
716.29	1613.80
716.47	1679.33
716.65	1701.86
716.84	1630.18
717.02	1710.05
717.20	1609.70
717.38	1685.48
717.57	1705.96
717.75	1650.66
717.93	1742.82
718.11	1681.38
718.30	1677.29
718.48	1705.96
718.66	1718.25
718.84	1681.38
719.03	1681.38
719.21	1632.23
719.39	1767.40
719.57	1761.25
719.75	1734.63
719.94	1689.57
720.12	1761.25
720.30	1685.48
720.48	1839.08
720.67	1744.87
720.85	1642.47
721.03	1671.14
721.21	1675.24
721.39	1757.16
721.58	1763.30
721.76	1677.29
721.94	1748.97
722.12	1701.86
722.30	1748.97
722.49	1740.77
722.67	1720.29
722.85	1646.57
723.03	1654.76
723.21	1640.42
723.40	1652.71
723.58	1775.59
723.76	1634.28
723.94	1794.02
724.12	1658.85
724.30	1806.31
724.49	1685.48
724.67	1652.71
724.85	1777.64
725.03	1605.61
725.21	1767.40
725.40	1769.44
725.58	1621.99
725.76	1763.30
725.94	1687.53
726.12	1695.72
726.30	1716.20
726.49	1730.53
726.67	1671.14
726.85	1656.81
727.03	1814.50
727.21	2129.89
727.39	2914.26
727.57	3844.04
727.76	4263.87
727.94	4444.09
728.12	4335.55
728.30	3772.36
728.48	2977.75
728.66	2703.32
728.84	2471.90
729.03	2283.49
729.21	2201.57
729.39	2033.63
729.57	1787.88
729.75	1820.64
729.93	1796.07
730.11	1759.21
730.30	1683.43
730.48	1708.01
730.66	1804.26
730.84	1710.05
731.02	1746.92
731.20	1652.71
731.38	1662.95
731.56	1648.61
731.74	1550.31
731.93	1652.71
732.11	1673.19
732.29	1656.81
732.47	1777.64
732.65	1689.57
732.83	1773.54
733.01	1755.11
733.19	1646.57
733.37	1761.25
733.56	1730.53
733.74	1619.94
733.92	1781.73
734.10	1708.01
734.28	1724.39
734.46	1613.80
734.64	1636.33
734.82	1736.68
735.00	1583.08
735.18	1667.05
735.36	1789.92
735.54	1771.49
735.73	1679.33
735.91	1740.77
736.09	1806.31
736.27	1796.07
736.45	1744.87
736.63	1591.27
736.81	1710.05
736.99	1753.06
737.17	1773.54
737.35	1751.01
737.53	1658.85
737.71	1695.72
737.89	1718.25
738.07	1679.33
738.25	1656.81
738.43	1533.93
738.61	1714.15
738.80	1669.09
738.98	1705.96
739.16	1626.09
739.34	1632.23
739.52	1740.77
739.70	1693.67
739.88	1734.63
740.06	1859.56
740.24	1589.22
740.42	1699.81
740.60	1605.61
740.78	1665.00
740.96	1535.98
741.14	1671.14
741.32	1755.11
741.50	1677.29
741.68	1787.88
741.86	1767.40
742.04	1550.31
742.22	1710.05
742.40	1658.85
742.58	1720.29
742.76	1591.27
742.94	1761.25
743.12	1613.80
743.30	1705.96
743.48	1714.15
743.66	1699.81
743.84	1738.73
744.02	1621.99
744.20	1708.01
744.38	1701.86
744.56	1607.66
744.74	1730.53
744.92	1775.59
745.10	1818.60
745.28	1744.87
745.46	1697.77
745.64	1703.91
745.82	1689.57
746.00	1662.95
746.18	1742.82
746.36	1646.57
746.54	1660.90
746.72	1617.90
746.90	1644.52
747.08	1783.78
747.26	1673.19
747.44	1636.33
747.62	1683.43
747.80	1685.48
747.98	1763.30
748.15	1621.99
748.33	1791.97
748.51	1699.81
748.69	1787.88
748.87	1572.84
749.05	1542.12
749.23	1632.23
749.41	1738.73
749.59	1693.67
749.77	1794.02
749.95	1712.10
750.13	1640.42
750.31	1765.35
750.49	1636.33
750.67	1808.36
750.85	1771.49
751.03	1677.29
751.20	1839.08
751.38	1714.15
751.56	1673.19
751.74	1761.25
751.92	1736.68
752.10	1658.85
752.28	1742.82
752.46	1660.90
752.64	1691.62
752.82	1738.73
753.00	1798.12
753.18	1699.81
753.35	1656.81
753.53	1703.91
753.71	1697.77
753.89	1716.20
754.07	1665.00
754.25	1763.30
754.43	1656.81
754.61	1689.57
754.79	1677.29
754.97	1730.53
755.14	1812.45
755.32	1640.42
755.50	1681.38
755.68	1695.72
755.86	1656.81
756.04	1675.24
756.22	1589.22
756.40	1699.81
756.57	1738.73
756.75	1677.29
756.93	1810.40
757.11	1773.54
757.29	1665.00
757.47	1673.19
757.65	1587.18
757.82	1621.99
758.00	1601.51
758.18	1658.85
758.36	1697.77
758.54	1730.53
758.72	1619.94
758.90	1728.49
759.07	1781.73
759.25	1615.85
759.43	1755.11
759.61	1718.25
759.79	2158.56
759.97	1757.16
760.15	1660.90
760.32	1665.00
760.50	1683.43
760.68	1794.02
760.86	1578.98
761.04	1742.82
761.22	1714.15
761.39	1765.35
761.57	1763.30
761.75	1779.68
761.93	1718.25
762.11	1675.24
762.28	1703.91
762.46	1587.18
762.64	1808.36
762.82	1624.04
763.00	1654.76
763.18	1794.02
763.35	1675.24
763.53	1705.96
763.71	1751.01
763.89	1714.15
764.07	1757.16
764.24	1746.92
764.42	1599.46
764.60	1611.75
764.78	1769.44
764.96	1751.01
765.13	1744.87
765.31	1681.38
765.49	1789.92
765.67	1644.52
765.84	1673.19
766.02	1708.01
766.20	1552.36
766.38	1802.21
766.56	1705.96
766.73	1800.16
766.91	1710.05
767.09	1677.29
767.27	1693.67
767.44	1609.70
767.62	1710.05
767.80	1636.33
767.98	1701.86
768.15	1751.01
768.33	1779.68
768.51	1751.01
768.69	1636.33
768.87	1703.91
769.04	1773.54
769.22	1785.83
769.40	1787.88
769.58	1847.27
769.75	1675.24
769.93	1837.03
770.11	1650.66
770.28	1697.77
770.46	1728.49
770.64	1609.70
770.82	1730.53
770.99	1665.00
771.17	1687.53
771.35	1646.57
771.53	1724.39
771.70	1681.38
771.88	1656.81
772.06	1642.47
772.23	1636.33
772.41	1718.25
772.59	1673.19
772.77	1691.62
772.94	1722.34
773.12	1701.86
773.30	1607.66
773.47	1714.15
773.65	1656.81
773.83	1890.28
774.01	1753.06
774.18	1708.01
774.36	1724.39
774.54	1658.85
774.71	1720.29
774.89	1693.67
775.07	1673.19
775.24	1691.62
775.42	1652.71
775.60	1746.92
775.78	1640.42
775.95	1615.85
776.13	1624.04
776.31	1583.08
776.48	1697.77
776.66	1759.21
776.84	1660.90
777.01	1728.49
777.19	1634.28
777.37	1730.53
777.54	1728.49
777.72	1785.83
777.90	1773.54
778.07	1705.96
778.25	1802.21
778.43	1718.25
778.60	1650.66
778.78	1740.77
778.96	1736.68
779.13	1675.24
779.31	1808.36
779.49	1597.42
779.66	1673.19
779.84	1716.20
780.01	1689.57
780.19	1619.94
780.37	1681.38
780.54	1705.96
780.72	1685.48
780.90	1734.63
781.07	1722.34
781.25	1626.09
781.43	1755.11
781.60	1685.48
781.78	1779.68
781.95	1699.81
782.13	1662.95
782.31	1759.21
782.48	1640.42
782.66	1710.05
782.83	1789.92
783.01	1720.29
783.19	1621.99
783.36	1665.00
783.54	1648.61
783.72	1773.54
783.89	1658.85
784.07	1640.42
784.24	1683.43
784.42	1757.16
784.60	1695.72
784.77	1681.38
784.95	1558.50
785.12	1677.29
785.30	1634.28
785.47	1593.32
785.65	1648.61
785.83	1628.14
786.00	1673.19
786.18	1714.15
786.35	1648.61
786.53	1675.24
786.71	1687.53
786.88	1685.48
787.06	1740.77
787.23	1724.39
787.41	1667.05
787.58	1714.15
787.76	1705.96
787.94	1746.92
788.11	1701.86
788.29	1681.38
788.46	1697.77
788.64	1617.90
788.81	1662.95
788.99	1681.38
789.16	1677.29
789.34	1652.71
789.52	1542.12
789.69	1695.72
789.87	1601.51
790.04	1607.66
790.22	1718.25
790.39	1861.60
790.57	1599.46
790.74	1720.29
790.92	1693.67
791.09	1671.14
791.27	1744.87
791.44	1716.20
791.62	1732.58
791.79	1783.78
791.97	1599.46
792.15	1906.66
792.32	1726.44
792.50	1732.58
792.67	1802.21
792.85	1656.81
793.02	1642.47
793.20	1724.39
793.37	1652.71
793.55	1720.29
793.72	1652.71
793.90	1757.16
794.07	1669.09
794.25	1665.00
794.42	1677.29
794.60	1744.87
794.77	1718.25
794.95	1726.44
795.12	1728.49
795.30	1609.70
795.47	1593.32
795.65	1830.88
795.82	1689.57
796.00	1595.37
796.17	1732.58
796.34	1630.18
796.52	1701.86
796.69	1720.29
796.87	1775.59
797.04	1665.00
797.22	1763.30
797.39	1751.01
797.57	1695.72
797.74	1806.31
797.92	1665.00
798.09	1685.48
798.27	1763.30
798.44	1689.57
798.62	1720.29
798.79	1712.10
798.96	1619.94
799.14	1738.73
799.31	1972.19
799.49	1628.14
799.66	1740.77
799.84	1744.87
800.01	1636.33
800.19	1671.14
800.36	1613.80
800.53	1714.15
800.71	1720.29
800.88	1771.49
801.06	1650.66
801.23	1714.15
801.41	1646.57
801.58	1632.23
801.75	1619.94
801.93	1732.58
802.10	1753.06
802.28	1644.52
802.45	1685.48
802.63	1718.25
802.80	1767.40
802.97	1681.38
803.15	1714.15
803.32	1675.24
803.50	1626.09
803.67	1624.04
803.84	1693.67
804.02	1746.92
804.19	1613.80
804.37	1583.08
804.54	1611.75
804.71	1673.19
804.89	1642.47
805.06	1609.70
805.24	1689.57
805.41	1591.27
805.58	1699.81
805.76	1820.64
805.93	1703.91
806.10	1783.78
806.28	1720.29
806.45	1742.82
806.63	1673.19
806.80	1652.71
806.97	1783.78
807.15	1703.91
807.32	1734.63
807.49	1769.44
807.67	1685.48
807.84	1701.86
808.01	1593.32
808.19	1839.08
808.36	1787.88
808.54	1718.25
808.71	1669.09
808.88	1687.53
809.06	1689.57
809.23	1716.20
809.40	1660.90
809.58	1761.25
809.75	1611.75
809.92	1615.85
810.10	1808.36
810.27	1675.24
810.44	1697.77
810.62	1783.78
810.79	1703.91
810.96	1589.22
811.14	1624.04
811.31	1683.43
811.48	1765.35
811.66	1742.82
811.83	1769.44
812.00	1687.53
812.18	1654.76
812.35	1845.22
812.52	1703.91
812.69	1673.19
812.87	1679.33
813.04	1673.19
813.21	1671.14
813.39	1671.14
813.56	1638.38
813.73	1720.29
813.91	1595.37
814.08	1738.73
814.25	1771.49
814.42	1632.23
814.60	1710.05
814.77	1695.72
814.94	1693.67
815.12	1624.04
815.29	1689.57
815.46	1615.85
815.63	1708.01
815.81	1687.53
815.98	1677.29
816.15	1658.85
816.33	1615.85
816.50	1683.43
816.67	1679.33
816.84	1748.97
817.02	1667.05
817.19	1677.29
817.36	1675.24
817.53	1705.96
817.71	1626.09
817.88	1763.30
818.05	1669.09
818.22	1798.12
818.40	1779.68
818.57	1689.57
818.74	1699.81
818.91	1736.68
819.09	1804.26
819.26	1779.68
819.43	1677.29
819.60	1662.95
819.78	1705.96
819.95	1789.92
820.12	1738.73
820.29	1673.19
820.47	1720.29
820.64	1605.61
820.81	1683.43
820.98	1701.86
821.15	1671.14
821.33	1689.57
821.50	1634.28
821.67	1701.86
821.84	1689.57
822.02	1681.38
822.19	1757.16
822.36	1607.66
822.53	1765.35
822.70	1671.14
822.88	1662.95
823.05	1712.10
823.22	1714.15
823.39	1746.92
823.56	1669.09
823.74	1798.12
823.91	1656.81
824.08	1636.33
824.25	1648.61
824.42	1775.59
824.60	1667.05
824.77	1714.15
824.94	1628.14
825.11	1708.01
825.28	1636.33
825.45	1656.81
825.63	1662.95
825.80	1667.05
825.97	1710.05
826.14	1628.14
826.31	1597.42
826.48	1660.90
826.66	1613.80
826.83	1695.72
827.00	1726.44
827.17	1705.96
827.34	1665.00
827.51	1667.05
827.69	1710.05
827.86	1542.12
828.03	1746.92
828.20	1767.40
828.37	1626.09
828.54	1695.72
828.71	1671.14
828.89	1769.44
829.06	1732.58
829.23	1753.06
829.40	1656.81
829.57	1675.24
829.74	1783.78
829.91	1665.00
830.09	1617.90
830.26	1773.54
830.43	1767.40
830.60	1630.18
830.77	1816.55
830.94	1695.72
831.11	1726.44
831.28	1730.53
831.46	1744.87
831.63	1660.90
831.80	1779.68
831.97	1753.06
832.14	1615.85
832.31	1716.20
832.48	1728.49
832.65	1783.78
832.82	1693.67
832.99	1722.34
833.17	1644.52
833.34	1794.02
833.51	1804.26
833.68	1548.26
833.85	1716.20
834.02	1658.85
834.19	1654.76
834.36	1662.95
834.53	1740.77
834.70	1748.97
834.87	1705.96
835.04	1714.15
835.22	1630.18
835.39	1675.24
835.56	1667.05
835.73	1662.95
835.90	1734.63
836.07	1662.95
836.24	1726.44
836.41	1634.28
836.58	1677.29
836.75	1734.63
836.92	1695.72
837.09	1654.76
837.26	1734.63
837.43	1708.01
837.60	1708.01
837.77	1691.62
837.94	1730.53
838.12	1746.92
838.29	1673.19
838.46	1660.90
838.63	1613.80
838.80	1814.50
838.97	1748.97
839.14	1677.29
839.31	1705.96
839.48	1769.44
839.65	1677.29
839.82	1708.01
839.99	1705.96
840.16	1656.81
840.33	1611.75
840.50	1695.72
840.67	1646.57
840.84	1628.14
841.01	1755.11
841.18	1665.00
841.35	1722.34
841.52	1738.73
841.69	1787.88
841.86	1757.16
842.03	1691.62
842.20	1767.40
842.37	1714.15
842.54	1648.61
842.71	1675.24
842.88	1642.47
843.05	1779.68
843.22	1701.86
843.39	1771.49
843.56	1624.04
843.73	1687.53
843.90	1740.77
844.07	1718.25
844.24	1716.20
844.41	1689.57
844.58	1695.72
844.75	1781.73
844.92	1708.01
845.09	1660.90
845.26	1679.33
845.43	1755.11
845.60	1757.16
845.77	1742.82
845.94	1667.05
846.10	1720.29
846.27	1624.04
846.44	1605.61
846.61	1634.28
846.78	1734.63
846.95	1728.49
847.12	1689.57
847.29	1705.96
847.46	1583.08
847.63	1683.43
847.80	1624.04
847.97	1662.95
848.14	1853.41
848.31	1695.72
848.48	1621.99
848.65	1744.87
848.82	1644.52
848.98	1773.54
849.15	1726.44
849.32	1712.10
849.49	1798.12
849.66	1689.57
849.83	1677.29
850.00	1652.71
850.17	1710.05
850.34	1654.76
850.51	1705.96
850.68	1632.23
850.85	1855.46
851.01	1722.34
851.18	1734.63
851.35	1667.05
851.52	1724.39
851.69	1724.39
851.86	1650.66
852.03	1628.14
852.20	1787.88
852.37	1726.44
852.53	1652.71
852.70	1619.94
852.87	1736.68
853.04	1789.92
853.21	1701.86
853.38	1798.12
853.55	1769.44
853.72	1789.92
853.89	1646.57
854.05	1626.09
854.22	1654.76
854.39	1691.62
854.56	1742.82
854.73	1714.15
854.90	1646.57
855.07	1671.14
855.23	1667.05
855.40	1626.09
855.57	1681.38
855.74	1595.37
855.91	1859.56
856.08	1648.61
856.25	1644.52
856.41	1662.95
856.58	1656.81
856.75	1734.63
856.92	1587.18
857.09	1683.43
857.26	1591.27
857.42	1705.96
857.59	1710.05
857.76	1689.57
857.93	1665.00
858.10	1738.73
858.27	1703.91
858.43	1658.85
858.60	1669.09
858.77	1638.38
858.94	1640.42
859.11	1720.29
859.27	1621.99
859.44	1673.19
859.61	1773.54
859.78	1718.25
859.95	1681.38
860.12	1724.39
860.28	1687.53
860.45	1773.54
860.62	1650.66
860.79	1716.20
860.95	1720.29
861.12	1658.85
861.29	1667.05
861.46	1626.09
861.63	1642.47
861.79	1669.09
861.96	1669.09
862.13	1683.43
862.30	1785.83
862.47	1632.23
862.63	1589.22
862.80	1806.31
862.97	1751.01
863.14	1617.90
863.30	1748.97
863.47	1562.60
863.64	1783.78
863.81	1730.53
863.97	1755.11
864.14	1755.11
864.31	1646.57
864.48	1757.16
864.65	1658.85
864.81	1789.92
864.98	1794.02
865.15	1734.63
865.32	1726.44
865.48	1767.40
865.65	1843.17
865.82	1667.05
865.98	1740.77
866.15	1769.44
866.32	1681.38
866.49	1767.40
866.65	1791.97
866.82	1634.28
866.99	1710.05
867.16	1714.15
867.32	1689.57
867.49	1626.09
867.66	1671.14
867.83	1679.33
867.99	1488.87
868.16	1650.66
868.33	1671.14
868.49	1693.67
868.66	1687.53
868.83	1703.91
868.99	1703.91
869.16	1652.71
869.33	1779.68
869.50	1734.63
869.66	1701.86
869.83	1669.09
870.00	1613.80
870.16	1726.44
870.33	1701.86
870.50	1718.25
870.66	1652.71
870.83	1765.35
871.00	1716.20
871.17	1718.25
871.33	1748.97
871.50	1677.29
871.67	1789.92
871.83	1667.05
872.00	1740.77
872.17	1583.08
872.33	1779.68
872.50	1767.40
872.67	1697.77
872.83	1763.30
873.00	1730.53
873.17	1634.28
873.33	1771.49
873.50	1701.86
873.67	1589.22
873.83	1650.66
874.00	1636.33
874.16	1738.73
874.33	1757.16
874.50	1589.22
874.66	1712.10
874.83	1701.86
875.00	1812.45
875.16	1720.29
875.33	1753.06
875.50	1570.79
875.66	1654.76
875.83	1753.06
875.99	1738.73
876.16	1699.81
876.33	1619.94
876.49	1781.73
876.66	1755.11
876.83	1701.86
876.99	1583.08
877.16	1703.91
877.32	1742.82
877.49	1599.46
877.66	1730.53
877.82	1730.53
877.99	1720.29
878.15	1699.81
878.32	1689.57
878.49	1675.24
878.65	1656.81
878.82	1798.12
878.98	1677.29
879.15	1773.54
879.32	1808.36
879.48	1646.57
879.65	1656.81
879.81	1687.53
879.98	1613.80
880.15	1595.37
880.31	1695.72
880.48	1660.90
880.64	1740.77
880.81	1728.49
880.97	1710.05
881.14	1705.96
881.31	1679.33
881.47	1837.03
881.64	1708.01
881.80	1648.61
881.97	1708.01
882.13	1705.96
882.30	1662.95
882.47	1624.04
882.63	1691.62
882.80	1609.70
882.96	1675.24
883.13	1740.77
883.29	1642.47
883.46	1791.97
883.62	1742.82
883.79	1695.72
883.95	1767.40
884.12	1687.53
884.29	1765.35
884.45	1624.04
884.62	1773.54
884.78	1603.56
884.95	1734.63
885.11	1687.53
885.28	1746.92
885.44	1691.62
885.61	1730.53
885.77	1730.53
885.94	1730.53
886.10	1728.49
886.27	1701.86
886.43	1759.21
886.60	1748.97
886.76	1650.66
886.93	1632.23
887.09	1732.58
887.26	1574.89
887.42	1767.40
887.59	1697.77
887.75	1863.65
887.92	1697.77
888.08	1746.92
888.25	1818.60
888.41	1654.76
888.58	1665.00
888.74	1673.19
888.91	1679.33
>>>>>End Processed Spectral Data<<<<<
