SpectraSuite Data File
++++++++++++++++++++++++++++++++++++
Date: Mon Jun 06 13:41:37 CEST 2016
User: root
Dark Spectrum Present: No
Reference Spectrum Present: No
Number of Sampled Component Spectra: 1
Spectrometers: USB4C02835
Integration Time (usec): 100000 (USB4C02835)
Spectra Averaged: 1 (USB4C02835)
Boxcar Smoothing: 0 (USB4C02835)
Correct for Electrical Dark: No (USB4C02835)
Strobe/Lamp Enabled: No (USB4C02835)
Correct for Detector Non-linearity: No (USB4C02835)
Correct for Stray Light: No (USB4C02835)
Number of Pixels in Processed Spectrum: 3648
>>>>>Begin Processed Spectral Data<<<<<
177.47	1406.95
177.69	1406.95
177.91	1406.95
178.13	1443.82
178.36	1460.20
178.58	1595.37
178.80	1703.91
179.02	1638.38
179.24	1650.66
179.46	1640.42
179.68	1738.73
179.90	1673.19
180.13	1658.85
180.35	1720.29
180.57	1671.14
180.79	1726.44
181.01	1656.81
181.23	1744.87
181.45	1812.45
181.67	1689.57
181.90	1708.01
182.12	1638.38
182.34	1667.05
182.56	1693.67
182.78	1726.44
183.00	1708.01
183.22	1775.59
183.44	1619.94
183.66	1855.46
183.89	1789.92
184.11	1599.46
184.33	1716.20
184.55	1722.34
184.77	1681.38
184.99	1652.71
185.21	1642.47
185.43	1830.88
185.65	1656.81
185.87	1689.57
186.10	1834.98
186.32	1789.92
186.54	1710.05
186.76	1789.92
186.98	1722.34
187.20	1671.14
187.42	1628.14
187.64	1710.05
187.86	1630.18
188.08	1763.30
188.30	1722.34
188.52	1673.19
188.75	1748.97
188.97	1832.93
189.19	1660.90
189.41	1701.86
189.63	1685.48
189.85	1671.14
190.07	1636.33
190.29	1597.42
190.51	1769.44
190.73	1613.80
190.95	1746.92
191.17	1712.10
191.39	1595.37
191.61	1605.61
191.84	1681.38
192.06	1722.34
192.28	1636.33
192.50	1849.32
192.72	1755.11
192.94	1628.14
193.16	1734.63
193.38	1699.81
193.60	1708.01
193.82	1703.91
194.04	1759.21
194.26	1695.72
194.48	1777.64
194.70	1697.77
194.92	1673.19
195.14	1787.88
195.36	1687.53
195.58	1609.70
195.80	1619.94
196.02	1662.95
196.24	1701.86
196.46	1753.06
196.69	1624.04
196.91	1839.08
197.13	1617.90
197.35	1693.67
197.57	1775.59
197.79	1648.61
198.01	1712.10
198.23	1728.49
198.45	1712.10
198.67	1710.05
198.89	1742.82
199.11	1697.77
199.33	1650.66
199.55	1554.41
199.77	1630.18
199.99	1746.92
200.21	1691.62
200.43	1724.39
200.65	1654.76
200.87	1609.70
201.09	1683.43
201.31	1753.06
201.53	1722.34
201.75	1658.85
201.97	1652.71
202.19	1759.21
202.41	1789.92
202.63	1738.73
202.85	1673.19
203.07	1658.85
203.29	1652.71
203.51	1712.10
203.73	1658.85
203.95	1832.93
204.17	1703.91
204.39	1824.74
204.61	1673.19
204.83	1718.25
205.05	1744.87
205.27	1714.15
205.49	1785.83
205.71	1626.09
205.93	1650.66
206.15	1691.62
206.37	1726.44
206.59	1679.33
206.81	1621.99
207.03	1613.80
207.25	1621.99
207.47	1753.06
207.69	1681.38
207.91	1779.68
208.13	1728.49
208.34	1640.42
208.56	1613.80
208.78	1720.29
209.00	1742.82
209.22	1687.53
209.44	1691.62
209.66	1621.99
209.88	1640.42
210.10	1634.28
210.32	1619.94
210.54	1771.49
210.76	1699.81
210.98	1705.96
211.20	1593.32
211.42	1701.86
211.64	1791.97
211.86	1767.40
212.08	1701.86
212.30	1718.25
212.52	1628.14
212.74	1673.19
212.96	1705.96
213.17	1755.11
213.39	1734.63
213.61	1720.29
213.83	1660.90
214.05	1644.52
214.27	1734.63
214.49	1642.47
214.71	1636.33
214.93	1683.43
215.15	1751.01
215.37	1681.38
215.59	1669.09
215.81	1744.87
216.03	1787.88
216.24	1658.85
216.46	1685.48
216.68	1705.96
216.90	1755.11
217.12	1695.72
217.34	1732.58
217.56	1728.49
217.78	1771.49
218.00	1714.15
218.22	1671.14
218.44	1720.29
218.66	1742.82
218.87	1796.07
219.09	1640.42
219.31	1658.85
219.53	1789.92
219.75	1695.72
219.97	1765.35
220.19	1773.54
220.41	1687.53
220.63	1800.16
220.85	1730.53
221.06	1624.04
221.28	1726.44
221.50	1751.01
221.72	1685.48
221.94	1685.48
222.16	1638.38
222.38	1732.58
222.60	1744.87
222.82	1587.18
223.03	1703.91
223.25	1703.91
223.47	1734.63
223.69	1765.35
223.91	1697.77
224.13	1673.19
224.35	1673.19
224.57	1808.36
224.78	1718.25
225.00	1591.27
225.22	1748.97
225.44	1662.95
225.66	1730.53
225.88	1652.71
226.10	1730.53
226.32	1648.61
226.53	1773.54
226.75	1667.05
226.97	1689.57
227.19	1689.57
227.41	1632.23
227.63	1630.18
227.85	1574.89
228.06	1757.16
228.28	1742.82
228.50	1763.30
228.72	1665.00
228.94	1660.90
229.16	1605.61
229.37	1587.18
229.59	1624.04
229.81	1802.21
230.03	1644.52
230.25	1624.04
230.47	1656.81
230.69	1626.09
230.90	1779.68
231.12	1574.89
231.34	1734.63
231.56	1658.85
231.78	1669.09
232.00	1695.72
232.21	1714.15
232.43	1613.80
232.65	1574.89
232.87	1718.25
233.09	1607.66
233.30	1685.48
233.52	1765.35
233.74	1695.72
233.96	1675.24
234.18	1710.05
234.40	1617.90
234.61	1763.30
234.83	1632.23
235.05	1634.28
235.27	1910.75
235.49	1769.44
235.70	1699.81
235.92	1820.64
236.14	1652.71
236.36	1796.07
236.58	1638.38
236.79	1765.35
237.01	1773.54
237.23	1701.86
237.45	1804.26
237.67	1658.85
237.88	1726.44
238.10	1800.16
238.32	1689.57
238.54	1650.66
238.76	1691.62
238.97	1708.01
239.19	1728.49
239.41	1699.81
239.63	1767.40
239.85	1712.10
240.06	1652.71
240.28	1576.94
240.50	1742.82
240.72	1689.57
240.93	1693.67
241.15	1773.54
241.37	1689.57
241.59	1751.01
241.81	1779.68
242.02	1710.05
242.24	1722.34
242.46	1644.52
242.68	1769.44
242.89	1742.82
243.11	1703.91
243.33	1757.16
243.55	1736.68
243.76	1722.34
243.98	1705.96
244.20	1740.77
244.42	1679.33
244.64	1691.62
244.85	1628.14
245.07	1615.85
245.29	1697.77
245.51	1619.94
245.72	1703.91
245.94	1763.30
246.16	1673.19
246.38	1710.05
246.59	1632.23
246.81	1777.64
247.03	1574.89
247.24	1681.38
247.46	1710.05
247.68	1755.11
247.90	1695.72
248.11	1691.62
248.33	1785.83
248.55	1681.38
248.77	1730.53
248.98	1816.55
249.20	1722.34
249.42	1736.68
249.64	1695.72
249.85	1718.25
250.07	1591.27
250.29	1693.67
250.50	1656.81
250.72	1617.90
250.94	1761.25
251.16	1822.69
251.37	1759.21
251.59	1701.86
251.81	1763.30
252.02	1748.97
252.24	1597.42
252.46	1816.55
252.68	1628.14
252.89	1738.73
253.11	1615.85
253.33	1751.01
253.54	1828.84
253.76	1589.22
253.98	1685.48
254.20	1687.53
254.41	1626.09
254.63	1744.87
254.85	1677.29
255.06	1689.57
255.28	1761.25
255.50	1691.62
255.71	1716.20
255.93	1667.05
256.15	1724.39
256.36	1738.73
256.58	1634.28
256.80	1765.35
257.02	1656.81
257.23	1701.86
257.45	1746.92
257.67	1708.01
257.88	1640.42
258.10	1695.72
258.32	1742.82
258.53	1695.72
258.75	1800.16
258.97	1632.23
259.18	1753.06
259.40	1718.25
259.62	1834.98
259.83	1742.82
260.05	1738.73
260.27	1943.52
260.48	1748.97
260.70	1644.52
260.92	1683.43
261.13	1787.88
261.35	1656.81
261.57	1746.92
261.78	1683.43
262.00	1638.38
262.22	1748.97
262.43	1654.76
262.65	1685.48
262.86	1673.19
263.08	1755.11
263.30	1708.01
263.51	1683.43
263.73	1685.48
263.95	1806.31
264.16	1724.39
264.38	1621.99
264.60	1779.68
264.81	1689.57
265.03	1794.02
265.25	1724.39
265.46	1718.25
265.68	1724.39
265.89	1738.73
266.11	1585.13
266.33	1730.53
266.54	1755.11
266.76	1746.92
266.98	1714.15
267.19	1755.11
267.41	1796.07
267.62	1642.47
267.84	1585.13
268.06	1691.62
268.27	1665.00
268.49	1716.20
268.70	1738.73
268.92	1634.28
269.14	1611.75
269.35	1552.36
269.57	1669.09
269.79	1732.58
270.00	1710.05
270.22	1763.30
270.43	1691.62
270.65	1583.08
270.87	1740.77
271.08	1697.77
271.30	1718.25
271.51	1685.48
271.73	1738.73
271.95	1828.84
272.16	1765.35
272.38	1714.15
272.59	1624.04
272.81	1728.49
273.02	1675.24
273.24	1761.25
273.46	1740.77
273.67	1660.90
273.89	1718.25
274.10	1632.23
274.32	1716.20
274.54	1683.43
274.75	1753.06
274.97	1732.58
275.18	1746.92
275.40	1683.43
275.61	1765.35
275.83	1658.85
276.05	1656.81
276.26	1662.95
276.48	1755.11
276.69	1636.33
276.91	1626.09
277.12	1730.53
277.34	1734.63
277.55	1753.06
277.77	1691.62
277.99	1681.38
278.20	1589.22
278.42	1640.42
278.63	1660.90
278.85	1658.85
279.06	1640.42
279.28	1703.91
279.49	1716.20
279.71	1828.84
279.93	1687.53
280.14	1675.24
280.36	1640.42
280.57	1730.53
280.79	1738.73
281.00	1681.38
281.22	1581.03
281.43	1751.01
281.65	1554.41
281.86	1746.92
282.08	1734.63
282.29	1806.31
282.51	1609.70
282.73	1710.05
282.94	1513.45
283.16	1748.97
283.37	1714.15
283.59	1605.61
283.80	1685.48
284.02	1624.04
284.23	1662.95
284.45	1634.28
284.66	1626.09
284.88	1708.01
285.09	1667.05
285.31	1712.10
285.52	1701.86
285.74	1578.98
285.95	1695.72
286.17	1656.81
286.38	1701.86
286.60	1691.62
286.81	1644.52
287.03	1699.81
287.24	1701.86
287.46	1701.86
287.67	1759.21
287.89	1781.73
288.10	1660.90
288.32	1681.38
288.53	1744.87
288.75	1689.57
288.96	1710.05
289.18	1673.19
289.39	1665.00
289.61	1791.97
289.82	1830.88
290.04	1798.12
290.25	1669.09
290.47	1697.77
290.68	1662.95
290.90	1691.62
291.11	1650.66
291.33	1759.21
291.54	1710.05
291.76	1699.81
291.97	1695.72
292.18	1646.57
292.40	1677.29
292.61	1626.09
292.83	1832.93
293.04	1720.29
293.26	1755.11
293.47	1650.66
293.69	1656.81
293.90	1665.00
294.12	1705.96
294.33	1611.75
294.55	1763.30
294.76	1789.92
294.97	1767.40
295.19	1843.17
295.40	1624.04
295.62	1755.11
295.83	1779.68
296.05	1689.57
296.26	1710.05
296.48	1634.28
296.69	1681.38
296.90	1679.33
297.12	1701.86
297.33	1712.10
297.55	1705.96
297.76	1746.92
297.98	1708.01
298.19	1712.10
298.41	1665.00
298.62	1640.42
298.83	1861.60
299.05	1710.05
299.26	1646.57
299.48	1728.49
299.69	1736.68
299.90	1708.01
300.12	1691.62
300.33	1765.35
300.55	1685.48
300.76	1671.14
300.98	1697.77
301.19	1759.21
301.40	1685.48
301.62	1652.71
301.83	1730.53
302.05	1681.38
302.26	1726.44
302.47	1724.39
302.69	1603.56
302.90	1691.62
303.12	1652.71
303.33	1732.58
303.54	1871.84
303.76	1638.38
303.97	1753.06
304.19	1785.83
304.40	1710.05
304.61	1699.81
304.83	1751.01
305.04	1767.40
305.26	1734.63
305.47	1624.04
305.68	1646.57
305.90	1646.57
306.11	1789.92
306.33	1660.90
306.54	1660.90
306.75	1669.09
306.97	1656.81
307.18	1644.52
307.39	1691.62
307.61	1662.95
307.82	1716.20
308.04	1742.82
308.25	1736.68
308.46	1755.11
308.68	1693.67
308.89	1687.53
309.10	1734.63
309.32	1695.72
309.53	1708.01
309.74	1677.29
309.96	1591.27
310.17	1802.21
310.39	1693.67
310.60	1740.77
310.81	1685.48
311.03	1667.05
311.24	1712.10
311.45	1732.58
311.67	1841.12
311.88	1751.01
312.09	1714.15
312.31	1726.44
312.52	1675.24
312.73	1685.48
312.95	1755.11
313.16	1697.77
313.37	1748.97
313.59	1755.11
313.80	1763.30
314.01	1789.92
314.23	1722.34
314.44	1615.85
314.65	1689.57
314.87	1658.85
315.08	1705.96
315.29	1724.39
315.51	1650.66
315.72	1691.62
315.93	1814.50
316.15	1798.12
316.36	1632.23
316.57	1730.53
316.79	1742.82
317.00	1665.00
317.21	1720.29
317.43	1683.43
317.64	1734.63
317.85	1699.81
318.07	1603.56
318.28	1724.39
318.49	1785.83
318.70	1914.85
318.92	1800.16
319.13	1865.70
319.34	1918.95
319.56	1841.12
319.77	1783.78
319.98	1757.16
320.20	1759.21
320.41	1705.96
320.62	1769.44
320.83	1648.61
321.05	1814.50
321.26	1740.77
321.47	1652.71
321.69	1771.49
321.90	1658.85
322.11	1685.48
322.32	1746.92
322.54	1808.36
322.75	1693.67
322.96	1771.49
323.18	1609.70
323.39	1689.57
323.60	1615.85
323.81	1757.16
324.03	1751.01
324.24	1681.38
324.45	1705.96
324.66	1648.61
324.88	1738.73
325.09	1746.92
325.30	1746.92
325.52	1789.92
325.73	1685.48
325.94	1628.14
326.15	1574.89
326.37	1626.09
326.58	1751.01
326.79	1755.11
327.00	1624.04
327.22	1710.05
327.43	1687.53
327.64	1630.18
327.85	1724.39
328.07	1742.82
328.28	1775.59
328.49	1685.48
328.70	1601.51
328.92	1673.19
329.13	1675.24
329.34	1683.43
329.55	1789.92
329.76	1714.15
329.98	1681.38
330.19	1806.31
330.40	1800.16
330.61	1720.29
330.83	1738.73
331.04	1675.24
331.25	1669.09
331.46	1632.23
331.68	1665.00
331.89	1802.21
332.10	1691.62
332.31	1665.00
332.52	1722.34
332.74	1861.60
332.95	1665.00
333.16	1726.44
333.37	1744.87
333.58	1636.33
333.80	1695.72
334.01	1650.66
334.22	1644.52
334.43	1701.86
334.64	1699.81
334.86	1601.51
335.07	1634.28
335.28	1730.53
335.49	1689.57
335.70	1744.87
335.92	1775.59
336.13	1843.17
336.34	1671.14
336.55	1652.71
336.76	1658.85
336.98	1626.09
337.19	1734.63
337.40	1796.07
337.61	1839.08
337.82	1722.34
338.04	1763.30
338.25	1609.70
338.46	1730.53
338.67	1628.14
338.88	1689.57
339.09	1624.04
339.31	1734.63
339.52	1601.51
339.73	1523.69
339.94	1734.63
340.15	1714.15
340.36	1693.67
340.58	1751.01
340.79	1662.95
341.00	1724.39
341.21	1669.09
341.42	1837.03
341.63	1687.53
341.85	1763.30
342.06	1671.14
342.27	1628.14
342.48	1693.67
342.69	1611.75
342.90	1697.77
343.12	1779.68
343.33	1665.00
343.54	1722.34
343.75	1802.21
343.96	1783.78
344.17	1701.86
344.38	1677.29
344.60	1624.04
344.81	1689.57
345.02	1681.38
345.23	1724.39
345.44	1763.30
345.65	1705.96
345.86	1699.81
346.07	1755.11
346.29	1726.44
346.50	1662.95
346.71	1673.19
346.92	1796.07
347.13	1763.30
347.34	1673.19
347.55	1730.53
347.76	1675.24
347.98	1603.56
348.19	1665.00
348.40	1748.97
348.61	1675.24
348.82	1765.35
349.03	1804.26
349.24	1665.00
349.45	1800.16
349.66	1587.18
349.88	1665.00
350.09	1646.57
350.30	1730.53
350.51	1826.79
350.72	1675.24
350.93	1708.01
351.14	1683.43
351.35	1742.82
351.56	1699.81
351.77	1730.53
351.99	1697.77
352.20	1744.87
352.41	1738.73
352.62	1603.56
352.83	1636.33
353.04	1689.57
353.25	1697.77
353.46	1804.26
353.67	1771.49
353.88	1572.84
354.09	1767.40
354.30	1685.48
354.52	1710.05
354.73	1605.61
354.94	1728.49
355.15	1685.48
355.36	1765.35
355.57	1615.85
355.78	1619.94
355.99	1648.61
356.20	1705.96
356.41	1789.92
356.62	1804.26
356.83	1673.19
357.04	1781.73
357.25	1658.85
357.46	1701.86
357.68	1519.59
357.89	1658.85
358.10	1679.33
358.31	1656.81
358.52	1712.10
358.73	1667.05
358.94	1689.57
359.15	1691.62
359.36	1740.77
359.57	1726.44
359.78	1710.05
359.99	1822.69
360.20	1630.18
360.41	1665.00
360.62	1705.96
360.83	1624.04
361.04	1736.68
361.25	1689.57
361.46	1779.68
361.67	1697.77
361.88	1710.05
362.09	1775.59
362.30	1677.29
362.51	1703.91
362.72	1697.77
362.93	1798.12
363.14	1755.11
363.35	1720.29
363.56	1689.57
363.78	1740.77
363.99	1730.53
364.20	1781.73
364.41	1712.10
364.62	1818.60
364.83	1730.53
365.04	1710.05
365.25	1677.29
365.46	1828.84
365.67	1673.19
365.88	1613.80
366.09	1701.86
366.30	1693.67
366.51	1619.94
366.72	1675.24
366.93	1665.00
367.14	1734.63
367.35	1798.12
367.56	1695.72
367.77	1841.12
367.98	1671.14
368.18	1724.39
368.39	1775.59
368.60	1751.01
368.81	1744.87
369.02	1791.97
369.23	1605.61
369.44	1619.94
369.65	1642.47
369.86	1730.53
370.07	1724.39
370.28	1734.63
370.49	1746.92
370.70	1724.39
370.91	1619.94
371.12	1665.00
371.33	1740.77
371.54	1638.38
371.75	1796.07
371.96	1613.80
372.17	1675.24
372.38	1767.40
372.59	1726.44
372.80	1626.09
373.01	1695.72
373.22	1761.25
373.43	1701.86
373.64	1630.18
373.85	1783.78
374.06	1738.73
374.26	1783.78
374.47	1777.64
374.68	1744.87
374.89	1662.95
375.10	1669.09
375.31	1802.21
375.52	1728.49
375.73	1699.81
375.94	1689.57
376.15	1816.55
376.36	1654.76
376.57	1617.90
376.78	1650.66
376.99	1716.20
377.20	1751.01
377.40	1646.57
377.61	1787.88
377.82	1636.33
378.03	1822.69
378.24	1775.59
378.45	1751.01
378.66	1761.25
378.87	1595.37
379.08	1628.14
379.29	1615.85
379.50	1769.44
379.71	1650.66
379.91	1810.40
380.12	1701.86
380.33	1722.34
380.54	1667.05
380.75	1628.14
380.96	1687.53
381.17	1720.29
381.38	1683.43
381.59	1765.35
381.80	1726.44
382.00	1796.07
382.21	1667.05
382.42	1832.93
382.63	1920.99
382.84	1865.70
383.05	1751.01
383.26	1771.49
383.47	1703.91
383.68	1724.39
383.88	1763.30
384.09	1789.92
384.30	1812.45
384.51	1730.53
384.72	1681.38
384.93	1607.66
385.14	1681.38
385.35	1667.05
385.55	1617.90
385.76	1746.92
385.97	1624.04
386.18	1638.38
386.39	1650.66
386.60	1634.28
386.81	1669.09
387.02	1648.61
387.22	1624.04
387.43	1730.53
387.64	1755.11
387.85	1884.13
388.06	2226.14
388.27	4276.16
388.48	6856.60
388.68	8314.75
388.89	9842.54
389.10	9992.04
389.31	8626.04
389.52	7778.19
389.73	6748.06
389.93	6465.44
390.14	5834.66
390.35	5273.52
390.56	4634.55
390.77	3788.74
390.98	3078.10
391.18	2523.10
391.39	2068.45
391.60	1865.70
391.81	1828.84
392.02	1699.81
392.23	1849.32
392.43	1710.05
392.64	1798.12
392.85	1683.43
393.06	1767.40
393.27	1738.73
393.47	1638.38
393.68	1763.30
393.89	1638.38
394.10	1751.01
394.31	1755.11
394.52	1677.29
394.72	1673.19
394.93	1791.97
395.14	1665.00
395.35	1730.53
395.56	1662.95
395.76	1767.40
395.97	1753.06
396.18	1818.60
396.39	1814.50
396.60	2090.98
396.80	1871.84
397.01	1767.40
397.22	1767.40
397.43	1814.50
397.64	1767.40
397.84	1771.49
398.05	1851.36
398.26	1722.34
398.47	1748.97
398.67	1699.81
398.88	1820.64
399.09	1746.92
399.30	1615.85
399.51	1777.64
399.71	1687.53
399.92	1775.59
400.13	1691.62
400.34	1683.43
400.54	1703.91
400.75	1757.16
400.96	1710.05
401.17	1822.69
401.37	1654.76
401.58	1673.19
401.79	1759.21
402.00	1853.41
402.21	1980.39
402.41	1961.95
402.62	1964.00
402.83	2025.44
403.04	1949.67
403.24	2027.49
403.45	1865.70
403.66	1902.56
403.87	1867.75
404.07	1920.99
404.28	1916.90
404.49	1904.61
404.70	1746.92
404.90	1791.97
405.11	1740.77
405.32	1740.77
405.52	1654.76
405.73	1667.05
405.94	1679.33
406.15	1767.40
406.35	1734.63
406.56	1730.53
406.77	1722.34
406.98	1738.73
407.18	1652.71
407.39	1796.07
407.60	1728.49
407.80	1755.11
408.01	1660.90
408.22	1712.10
408.43	1716.20
408.63	1724.39
408.84	1695.72
409.05	1751.01
409.25	1720.29
409.46	1630.18
409.67	1636.33
409.88	1677.29
410.08	1718.25
410.29	1646.57
410.50	1759.21
410.70	1767.40
410.91	1583.08
411.12	1675.24
411.32	1689.57
411.53	1636.33
411.74	1759.21
411.95	1742.82
412.15	1730.53
412.36	1710.05
412.57	1759.21
412.77	1765.35
412.98	1703.91
413.19	1730.53
413.39	1759.21
413.60	1771.49
413.81	1777.64
414.01	1746.92
414.22	1730.53
414.43	1679.33
414.63	1691.62
414.84	1710.05
415.05	1701.86
415.25	1617.90
415.46	1742.82
415.67	1667.05
415.87	1687.53
416.08	1722.34
416.29	1681.38
416.49	1755.11
416.70	1693.67
416.91	1662.95
417.11	1652.71
417.32	1716.20
417.53	1742.82
417.73	1757.16
417.94	1712.10
418.15	1656.81
418.35	1699.81
418.56	1701.86
418.77	1812.45
418.97	1708.01
419.18	1712.10
419.38	1542.12
419.59	1712.10
419.80	1787.88
420.00	1662.95
420.21	1732.58
420.42	1789.92
420.62	1742.82
420.83	1617.90
421.04	1699.81
421.24	1671.14
421.45	1716.20
421.65	1710.05
421.86	1708.01
422.07	1802.21
422.27	1736.68
422.48	1630.18
422.69	1675.24
422.89	1677.29
423.10	1673.19
423.30	1662.95
423.51	1712.10
423.72	1687.53
423.92	1742.82
424.13	1591.27
424.33	1677.29
424.54	1791.97
424.75	1726.44
424.95	1777.64
425.16	1738.73
425.36	1720.29
425.57	1828.84
425.78	1771.49
425.98	1722.34
426.19	1716.20
426.39	1566.70
426.60	1734.63
426.81	1826.79
427.01	1740.77
427.22	1685.48
427.42	1648.61
427.63	1677.29
427.83	1693.67
428.04	1802.21
428.25	1734.63
428.45	1728.49
428.66	1724.39
428.86	1693.67
429.07	1669.09
429.28	1693.67
429.48	1638.38
429.69	1681.38
429.89	1730.53
430.10	1726.44
430.30	1763.30
430.51	1718.25
430.71	1644.52
430.92	1699.81
431.13	1652.71
431.33	1755.11
431.54	1777.64
431.74	1804.26
431.95	1812.45
432.15	1751.01
432.36	1769.44
432.56	1712.10
432.77	1730.53
432.98	1753.06
433.18	1683.43
433.39	1732.58
433.59	1673.19
433.80	1834.98
434.00	1814.50
434.21	1681.38
434.41	1683.43
434.62	1923.04
434.82	1708.01
435.03	1654.76
435.23	1744.87
435.44	1621.99
435.64	1673.19
435.85	1722.34
436.06	1769.44
436.26	1714.15
436.47	1728.49
436.67	1742.82
436.88	1697.77
437.08	1777.64
437.29	1834.98
437.49	1724.39
437.70	1789.92
437.90	1681.38
438.11	1931.23
438.31	1771.49
438.52	1886.18
438.72	1841.12
438.93	1923.04
439.13	1828.84
439.34	1884.13
439.54	1730.53
439.75	1812.45
439.95	1736.68
440.16	1716.20
440.36	1746.92
440.57	1814.50
440.77	1710.05
440.98	1720.29
441.18	1800.16
441.39	1724.39
441.59	1720.29
441.80	1804.26
442.00	1697.77
442.21	1800.16
442.41	1683.43
442.62	1763.30
442.82	1697.77
443.02	1718.25
443.23	1736.68
443.43	1671.14
443.64	1748.97
443.84	1662.95
444.05	1732.58
444.25	1691.62
444.46	1673.19
444.66	1716.20
444.87	1796.07
445.07	1626.09
445.28	1714.15
445.48	1828.84
445.69	1830.88
445.89	1834.98
446.09	1777.64
446.30	1968.10
446.50	2641.88
446.71	3782.60
446.91	4405.18
447.12	4818.87
447.32	4925.36
447.53	4241.34
447.73	3776.45
447.93	3542.99
448.14	3334.09
448.34	3278.80
448.55	2904.02
448.75	2865.11
448.96	2676.70
449.16	2365.40
449.36	2344.92
449.57	2109.41
449.77	1906.66
449.98	1812.45
450.18	1808.36
450.39	1796.07
450.59	1781.73
450.79	1742.82
451.00	1681.38
451.20	1787.88
451.41	1693.67
451.61	1732.58
451.81	1701.86
452.02	1738.73
452.22	1726.44
452.43	1656.81
452.63	1699.81
452.84	1738.73
453.04	1673.19
453.24	1765.35
453.45	1671.14
453.65	1646.57
453.86	1773.54
454.06	1748.97
454.26	1710.05
454.47	1675.24
454.67	1843.17
454.87	1689.57
455.08	1742.82
455.28	1824.74
455.49	1773.54
455.69	1644.52
455.89	1830.88
456.10	1802.21
456.30	1689.57
456.51	1781.73
456.71	1697.77
456.91	1753.06
457.12	1724.39
457.32	1730.53
457.52	1652.71
457.73	1689.57
457.93	1763.30
458.14	1732.58
458.34	1632.23
458.54	1691.62
458.75	1705.96
458.95	1820.64
459.15	1726.44
459.36	1681.38
459.56	1757.16
459.76	1892.32
459.97	1744.87
460.17	1728.49
460.37	1820.64
460.58	1689.57
460.78	1832.93
460.99	1681.38
461.19	1744.87
461.39	1714.15
461.60	1722.34
461.80	1759.21
462.00	1671.14
462.21	1695.72
462.41	1624.04
462.61	1689.57
462.82	1599.46
463.02	1734.63
463.22	1734.63
463.43	1708.01
463.63	1730.53
463.83	1837.03
464.04	1734.63
464.24	1757.16
464.44	1675.24
464.64	1724.39
464.85	1740.77
465.05	1742.82
465.25	1738.73
465.46	1656.81
465.66	1779.68
465.86	1765.35
466.07	1746.92
466.27	1699.81
466.47	1650.66
466.68	1609.70
466.88	1869.80
467.08	1720.29
467.29	1769.44
467.49	1798.12
467.69	1771.49
467.89	1697.77
468.10	1699.81
468.30	1753.06
468.50	1763.30
468.71	1787.88
468.91	1581.03
469.11	1816.55
469.31	1726.44
469.52	1679.33
469.72	1787.88
469.92	1742.82
470.13	1763.30
470.33	1742.82
470.53	1800.16
470.73	2095.07
470.94	2232.29
471.14	2346.97
471.34	2512.86
471.54	2379.74
471.75	2217.95
471.95	2109.41
472.15	2095.07
472.36	2064.35
472.56	2070.50
472.76	2041.82
472.96	1994.72
473.17	1867.75
473.37	1828.84
473.57	1738.73
473.77	1744.87
473.98	1732.58
474.18	1648.61
474.38	1959.91
474.58	1701.86
474.79	1679.33
474.99	1705.96
475.19	1765.35
475.39	1693.67
475.60	1695.72
475.80	1697.77
476.00	1662.95
476.20	1673.19
476.41	1683.43
476.61	1820.64
476.81	1789.92
477.01	1624.04
477.21	1834.98
477.42	1791.97
477.62	1667.05
477.82	1834.98
478.02	1677.29
478.23	1683.43
478.43	1665.00
478.63	1679.33
478.83	1789.92
479.03	1677.29
479.24	1794.02
479.44	1851.36
479.64	1658.85
479.84	1667.05
480.04	1636.33
480.25	1755.11
480.45	1693.67
480.65	1662.95
480.85	1832.93
481.06	1652.71
481.26	1681.38
481.46	1705.96
481.66	1716.20
481.86	1683.43
482.06	1740.77
482.27	1730.53
482.47	1605.61
482.67	1732.58
482.87	1714.15
483.07	1800.16
483.28	1679.33
483.48	1693.67
483.68	1695.72
483.88	1611.75
484.08	1589.22
484.29	1669.09
484.49	1718.25
484.69	1642.47
484.89	1746.92
485.09	1779.68
485.29	1771.49
485.50	1787.88
485.70	1761.25
485.90	1888.23
486.10	1712.10
486.30	1732.58
486.50	1751.01
486.71	1794.02
486.91	1767.40
487.11	1738.73
487.31	1695.72
487.51	1658.85
487.71	1646.57
487.91	1603.56
488.12	1675.24
488.32	1642.47
488.52	1667.05
488.72	1611.75
488.92	1769.44
489.12	1781.73
489.32	1787.88
489.53	1710.05
489.73	1615.85
489.93	1818.60
490.13	1771.49
490.33	1615.85
490.53	1724.39
490.73	1742.82
490.94	1611.75
491.14	1781.73
491.34	1783.78
491.54	2078.69
491.74	2525.15
491.94	2926.55
492.14	2969.55
492.34	3035.09
492.54	2727.89
492.75	2531.29
492.95	2484.19
493.15	2308.06
493.35	2293.72
493.55	2244.57
493.75	2117.60
493.95	2105.31
494.15	2007.01
494.35	1959.91
494.56	1861.60
494.76	1783.78
494.96	1783.78
495.16	1781.73
495.36	1705.96
495.56	1722.34
495.76	1748.97
495.96	1689.57
496.16	1718.25
496.36	1796.07
496.56	1740.77
496.77	1718.25
496.97	1648.61
497.17	1798.12
497.37	1716.20
497.57	1708.01
497.77	1742.82
497.97	1656.81
498.17	1724.39
498.37	1665.00
498.57	1757.16
498.77	1755.11
498.97	1746.92
499.17	1855.46
499.38	1726.44
499.58	1822.69
499.78	1812.45
499.98	1830.88
500.18	1689.57
500.38	1728.49
500.58	1871.84
500.78	2635.74
500.98	4585.40
501.18	5961.64
501.38	6778.78
501.58	7354.26
501.78	6780.82
501.98	5519.28
502.18	5021.62
502.38	4540.35
502.58	4073.41
502.78	3854.28
502.98	3629.00
503.18	3418.06
503.38	3213.26
503.59	2867.16
503.79	2605.02
503.99	2447.32
504.19	2211.81
504.39	2263.01
504.59	2129.89
504.79	2105.31
504.99	2033.63
505.19	1869.80
505.39	1961.95
505.59	1920.99
505.79	1890.28
505.99	1849.32
506.19	1775.59
506.39	1863.65
506.59	1708.01
506.79	1732.58
506.99	1857.51
507.19	1763.30
507.39	1708.01
507.59	1669.09
507.79	1638.38
507.99	1634.28
508.19	1697.77
508.39	1724.39
508.59	1718.25
508.79	1755.11
508.99	1892.32
509.19	1695.72
509.39	1837.03
509.59	1734.63
509.79	1708.01
509.99	1697.77
510.19	1736.68
510.39	1757.16
510.59	1763.30
510.79	1677.29
510.99	1740.77
511.19	1822.69
511.39	1798.12
511.59	1806.31
511.79	1710.05
511.99	1675.24
512.19	1791.97
512.38	1763.30
512.58	1697.77
512.78	1734.63
512.98	1722.34
513.18	1859.56
513.38	1542.12
513.58	1849.32
513.78	1640.42
513.98	1708.01
514.18	1632.23
514.38	1626.09
514.58	1730.53
514.78	1720.29
514.98	1656.81
515.18	1675.24
515.38	1685.48
515.58	1865.70
515.78	1755.11
515.98	1705.96
516.18	1740.77
516.38	1761.25
516.57	1660.90
516.77	1701.86
516.97	1796.07
517.17	1685.48
517.37	1601.51
517.57	1740.77
517.77	1755.11
517.97	1671.14
518.17	1738.73
518.37	1632.23
518.57	1628.14
518.77	1740.77
518.97	1697.77
519.16	1751.01
519.36	1724.39
519.56	1703.91
519.76	1693.67
519.96	1751.01
520.16	1806.31
520.36	1708.01
520.56	1738.73
520.76	1763.30
520.96	1689.57
521.16	1804.26
521.35	1810.40
521.55	1802.21
521.75	1744.87
521.95	1716.20
522.15	1800.16
522.35	1671.14
522.55	1695.72
522.75	1880.04
522.95	1757.16
523.14	1689.57
523.34	1757.16
523.54	1740.77
523.74	1779.68
523.94	1806.31
524.14	1705.96
524.34	1738.73
524.54	1828.84
524.73	1673.19
524.93	1716.20
525.13	1724.39
525.33	1656.81
525.53	1847.27
525.73	1728.49
525.93	1712.10
526.13	1783.78
526.32	1656.81
526.52	1808.36
526.72	1808.36
526.92	1712.10
527.12	1722.34
527.32	1615.85
527.52	1742.82
527.71	1755.11
527.91	1724.39
528.11	1746.92
528.31	1730.53
528.51	1654.76
528.71	1753.06
528.90	1732.58
529.10	1738.73
529.30	1867.75
529.50	1650.66
529.70	1759.21
529.90	1675.24
530.09	1779.68
530.29	1652.71
530.49	1728.49
530.69	1800.16
530.89	1771.49
531.09	1763.30
531.28	1730.53
531.48	1773.54
531.68	1697.77
531.88	1746.92
532.08	1712.10
532.28	1732.58
532.47	1761.25
532.67	1724.39
532.87	1781.73
533.07	1615.85
533.27	1748.97
533.46	1824.74
533.66	1689.57
533.86	1667.05
534.06	1714.15
534.26	1732.58
534.45	1732.58
534.65	1746.92
534.85	1765.35
535.05	1724.39
535.25	1808.36
535.44	1658.85
535.64	1837.03
535.84	1714.15
536.04	1746.92
536.24	1703.91
536.43	1746.92
536.63	1812.45
536.83	1693.67
537.03	1724.39
537.22	1644.52
537.42	1632.23
537.62	1736.68
537.82	1732.58
538.02	1822.69
538.21	1736.68
538.41	1886.18
538.61	1732.58
538.81	1695.72
539.00	1738.73
539.20	1744.87
539.40	1642.47
539.60	1816.55
539.79	1746.92
539.99	1730.53
540.19	1644.52
540.39	1740.77
540.58	1755.11
540.78	1736.68
540.98	1662.95
541.18	1710.05
541.37	1767.40
541.57	1662.95
541.77	1714.15
541.97	1691.62
542.16	1691.62
542.36	1726.44
542.56	1787.88
542.76	1845.22
542.95	1714.15
543.15	1746.92
543.35	1718.25
543.54	1671.14
543.74	1671.14
543.94	1769.44
544.14	1673.19
544.33	1716.20
544.53	1646.57
544.73	1699.81
544.93	1697.77
545.12	1763.30
545.32	1705.96
545.52	1695.72
545.71	1695.72
545.91	1728.49
546.11	1701.86
546.30	1724.39
546.50	1665.00
546.70	1769.44
546.90	1740.77
547.09	1703.91
547.29	1730.53
547.49	1804.26
547.68	1742.82
547.88	1718.25
548.08	1728.49
548.27	2160.61
548.47	1701.86
548.67	1648.61
548.87	1853.41
549.06	1708.01
549.26	1796.07
549.46	1771.49
549.65	1710.05
549.85	1710.05
550.05	1748.97
550.24	1640.42
550.44	1789.92
550.64	1703.91
550.83	1804.26
551.03	1802.21
551.23	1794.02
551.42	1744.87
551.62	1673.19
551.82	1775.59
552.01	1699.81
552.21	1824.74
552.41	1650.66
552.60	1845.22
552.80	1812.45
553.00	1677.29
553.19	1763.30
553.39	1816.55
553.59	1726.44
553.78	1783.78
553.98	1759.21
554.17	1652.71
554.37	1728.49
554.57	1783.78
554.76	1630.18
554.96	1681.38
555.16	1619.94
555.35	1755.11
555.55	1728.49
555.75	1759.21
555.94	1796.07
556.14	1654.76
556.33	1751.01
556.53	1710.05
556.73	1806.31
556.92	1746.92
557.12	1828.84
557.32	1769.44
557.51	1920.99
557.71	1804.26
557.90	1820.64
558.10	1755.11
558.30	1665.00
558.49	1738.73
558.69	1767.40
558.88	1720.29
559.08	1683.43
559.28	1720.29
559.47	1765.35
559.67	1769.44
559.86	1839.08
560.06	1763.30
560.26	1740.77
560.45	1722.34
560.65	1705.96
560.84	1791.97
561.04	1714.15
561.24	1785.83
561.43	1617.90
561.63	1828.84
561.82	1746.92
562.02	1775.59
562.22	1669.09
562.41	1701.86
562.61	1720.29
562.80	1685.48
563.00	1806.31
563.19	1759.21
563.39	1720.29
563.59	1781.73
563.78	1638.38
563.98	1673.19
564.17	1624.04
564.37	1656.81
564.56	1730.53
564.76	1689.57
564.96	1822.69
565.15	1791.97
565.35	1871.84
565.54	1740.77
565.74	1791.97
565.93	1744.87
566.13	1736.68
566.32	1785.83
566.52	1820.64
566.71	1787.88
566.91	1781.73
567.11	1732.58
567.30	1787.88
567.50	1763.30
567.69	1802.21
567.89	1734.63
568.08	1667.05
568.28	1716.20
568.47	1675.24
568.67	1775.59
568.86	1730.53
569.06	1812.45
569.25	1771.49
569.45	1679.33
569.64	1685.48
569.84	1718.25
570.04	1804.26
570.23	1681.38
570.43	1728.49
570.62	1691.62
570.82	1861.60
571.01	1654.76
571.21	1787.88
571.40	1636.33
571.60	1812.45
571.79	1761.25
571.99	1769.44
572.18	1679.33
572.38	1759.21
572.57	1720.29
572.77	1738.73
572.96	1859.56
573.16	1789.92
573.35	1722.34
573.55	1765.35
573.74	1726.44
573.94	1716.20
574.13	1689.57
574.33	1734.63
574.52	1779.68
574.71	1705.96
574.91	1761.25
575.10	1669.09
575.30	1732.58
575.49	1718.25
575.69	1705.96
575.88	1753.06
576.08	1763.30
576.27	1822.69
576.47	1748.97
576.66	1826.79
576.86	1810.40
577.05	1705.96
577.25	1701.86
577.44	1820.64
577.64	1689.57
577.83	1787.88
578.02	1728.49
578.22	1822.69
578.41	1781.73
578.61	1744.87
578.80	1679.33
579.00	1802.21
579.19	1673.19
579.39	1869.80
579.58	1794.02
579.77	1779.68
579.97	1830.88
580.16	1837.03
580.36	1755.11
580.55	1755.11
580.75	1695.72
580.94	1746.92
581.13	1847.27
581.33	1892.32
581.52	1703.91
581.72	1808.36
581.91	1806.31
582.11	1660.90
582.30	1802.21
582.49	1765.35
582.69	1816.55
582.88	1757.16
583.08	1755.11
583.27	1740.77
583.47	1816.55
583.66	1689.57
583.85	1716.20
584.05	1730.53
584.24	1716.20
584.44	1730.53
584.63	1851.36
584.82	1832.93
585.02	1841.12
585.21	1744.87
585.41	1863.65
585.60	1935.33
585.79	1990.63
585.99	1863.65
586.18	1914.85
586.37	2166.75
586.57	3356.62
586.76	10123.11
586.96	24790.66
587.15	35362.28
587.34	41850.24
587.54	43326.83
587.73	37174.73
587.93	26799.72
588.12	22089.39
588.31	18765.54
588.51	16865.02
588.70	15402.77
588.89	14421.80
589.09	12920.63
589.28	11278.16
589.47	9715.56
589.67	8124.29
589.86	6455.20
590.06	4992.95
590.25	3936.20
590.44	3088.34
590.64	2672.60
590.83	2185.18
591.02	2117.60
591.22	2019.30
591.41	1927.14
591.60	1798.12
591.80	1974.24
591.99	1769.44
592.18	1794.02
592.38	1890.28
592.57	1785.83
592.76	1722.34
592.96	1765.35
593.15	1779.68
593.34	1849.32
593.54	1724.39
593.73	1839.08
593.92	1775.59
594.12	1759.21
594.31	1705.96
594.50	1871.84
594.70	1798.12
594.89	1861.60
595.08	1617.90
595.28	1714.15
595.47	1886.18
595.66	1812.45
595.86	1634.28
596.05	1763.30
596.24	1718.25
596.43	1839.08
596.63	1822.69
596.82	1763.30
597.01	1708.01
597.21	1877.99
597.40	1693.67
597.59	1769.44
597.79	1689.57
597.98	1800.16
598.17	1753.06
598.36	1689.57
598.56	1753.06
598.75	1699.81
598.94	1773.54
599.14	1724.39
599.33	1746.92
599.52	1779.68
599.71	1757.16
599.91	1810.40
600.10	1746.92
600.29	1830.88
600.48	1757.16
600.68	1751.01
600.87	1763.30
601.06	1742.82
601.26	1746.92
601.45	1771.49
601.64	1693.67
601.83	1800.16
602.03	1710.05
602.22	1738.73
602.41	1789.92
602.60	1839.08
602.80	1800.16
602.99	1847.27
603.18	1751.01
603.37	1779.68
603.57	1720.29
603.76	1779.68
603.95	1767.40
604.14	1626.09
604.34	1667.05
604.53	1636.33
604.72	1728.49
604.91	1777.64
605.10	1724.39
605.30	1771.49
605.49	1841.12
605.68	1812.45
605.87	1724.39
606.07	1656.81
606.26	1718.25
606.45	1787.88
606.64	1720.29
606.84	1650.66
607.03	1636.33
607.22	1794.02
607.41	1648.61
607.60	1761.25
607.80	1785.83
607.99	1667.05
608.18	1636.33
608.37	1722.34
608.56	1708.01
608.76	1816.55
608.95	1849.32
609.14	1697.77
609.33	1773.54
609.52	1777.64
609.72	1714.15
609.91	1738.73
610.10	1658.85
610.29	1839.08
610.48	1726.44
610.68	1789.92
610.87	1681.38
611.06	1730.53
611.25	1644.52
611.44	1703.91
611.63	1693.67
611.83	1875.94
612.02	1642.47
612.21	1773.54
612.40	1716.20
612.59	1701.86
612.79	1638.38
612.98	1708.01
613.17	1877.99
613.36	1724.39
613.55	1802.21
613.74	1658.85
613.93	1693.67
614.13	1685.48
614.32	1765.35
614.51	1755.11
614.70	1691.62
614.89	1712.10
615.08	1697.77
615.28	2037.73
615.47	1617.90
615.66	1675.24
615.85	1712.10
616.04	1886.18
616.23	1687.53
616.42	1673.19
616.62	1667.05
616.81	1761.25
617.00	1691.62
617.19	1732.58
617.38	1701.86
617.57	1791.97
617.76	1753.06
617.95	1763.30
618.15	1746.92
618.34	1779.68
618.53	1701.86
618.72	1841.12
618.91	1849.32
619.10	1855.46
619.29	1773.54
619.48	1654.76
619.68	1714.15
619.87	1701.86
620.06	1658.85
620.25	1783.78
620.44	1667.05
620.63	1771.49
620.82	1681.38
621.01	1683.43
621.20	1720.29
621.39	1730.53
621.59	1705.96
621.78	1685.48
621.97	1773.54
622.16	1726.44
622.35	1755.11
622.54	1810.40
622.73	1875.94
622.92	1671.14
623.11	1779.68
623.30	1708.01
623.49	1748.97
623.68	1708.01
623.88	1808.36
624.07	1699.81
624.26	1791.97
624.45	1710.05
624.64	1697.77
624.83	1839.08
625.02	1673.19
625.21	1751.01
625.40	1695.72
625.59	1787.88
625.78	1773.54
625.97	1783.78
626.16	1740.77
626.35	1753.06
626.54	1736.68
626.74	1761.25
626.93	1632.23
627.12	1779.68
627.31	1753.06
627.50	1812.45
627.69	1755.11
627.88	1683.43
628.07	1720.29
628.26	1636.33
628.45	1630.18
628.64	1685.48
628.83	1740.77
629.02	1722.34
629.21	1763.30
629.40	1738.73
629.59	1669.09
629.78	1685.48
629.97	1695.72
630.16	1712.10
630.35	1710.05
630.54	1669.09
630.73	1716.20
630.92	1673.19
631.11	1716.20
631.30	1697.77
631.49	1755.11
631.68	1740.77
631.87	1738.73
632.06	1646.57
632.25	1808.36
632.44	1753.06
632.63	1712.10
632.82	1695.72
633.01	1718.25
633.20	1767.40
633.39	1626.09
633.58	1628.14
633.77	1761.25
633.96	1705.96
634.15	1673.19
634.34	1769.44
634.53	1716.20
634.72	1746.92
634.91	1599.46
635.10	1791.97
635.29	1763.30
635.48	1759.21
635.67	1650.66
635.86	1708.01
636.05	1798.12
636.24	1753.06
636.43	1746.92
636.62	1820.64
636.81	1576.94
637.00	1802.21
637.19	1804.26
637.38	1767.40
637.57	1646.57
637.76	1675.24
637.95	1773.54
638.14	1667.05
638.33	1712.10
638.52	1724.39
638.71	1632.23
638.89	1689.57
639.08	1814.50
639.27	1753.06
639.46	1751.01
639.65	1824.74
639.84	1753.06
640.03	1791.97
640.22	1685.48
640.41	1841.12
640.60	1634.28
640.79	1718.25
640.98	1683.43
641.17	1730.53
641.36	1755.11
641.55	1710.05
641.74	1644.52
641.92	1701.86
642.11	1570.79
642.30	1689.57
642.49	1751.01
642.68	1671.14
642.87	1708.01
643.06	1753.06
643.25	1691.62
643.44	1705.96
643.63	1779.68
643.82	1763.30
644.00	1587.18
644.19	1679.33
644.38	1708.01
644.57	1777.64
644.76	1705.96
644.95	1714.15
645.14	1648.61
645.33	1757.16
645.52	1718.25
645.71	1660.90
645.89	1595.37
646.08	1691.62
646.27	1687.53
646.46	1873.89
646.65	1636.33
646.84	1665.00
647.03	1675.24
647.22	1748.97
647.40	1724.39
647.59	1697.77
647.78	1599.46
647.97	1677.29
648.16	1644.52
648.35	1871.84
648.54	1785.83
648.73	1728.49
648.91	1716.20
649.10	1798.12
649.29	1667.05
649.48	1710.05
649.67	1732.58
649.86	1726.44
650.05	1632.23
650.23	1798.12
650.42	1587.18
650.61	1773.54
650.80	1685.48
650.99	1894.37
651.18	1771.49
651.36	1824.74
651.55	1621.99
651.74	1753.06
651.93	1722.34
652.12	1730.53
652.31	1789.92
652.49	1681.38
652.68	1675.24
652.87	1820.64
653.06	1675.24
653.25	1716.20
653.44	1697.77
653.62	1822.69
653.81	1775.59
654.00	1730.53
654.19	1816.55
654.38	1818.60
654.56	1761.25
654.75	1695.72
654.94	1708.01
655.13	1705.96
655.32	1751.01
655.51	1818.60
655.69	1648.61
655.88	1689.57
656.07	1716.20
656.26	1751.01
656.45	1609.70
656.63	1714.15
656.82	1736.68
657.01	1816.55
657.20	1669.09
657.38	1779.68
657.57	1710.05
657.76	1665.00
657.95	1765.35
658.14	1802.21
658.32	1757.16
658.51	1615.85
658.70	1742.82
658.89	1722.34
659.08	1798.12
659.26	1773.54
659.45	1562.60
659.64	1660.90
659.83	1724.39
660.01	1875.94
660.20	1726.44
660.39	1789.92
660.58	1636.33
660.76	1791.97
660.95	1615.85
661.14	1601.51
661.33	1701.86
661.51	1710.05
661.70	1595.37
661.89	1755.11
662.08	1681.38
662.26	1683.43
662.45	1658.85
662.64	1816.55
662.83	1722.34
663.01	1630.18
663.20	1665.00
663.39	1845.22
663.58	1720.29
663.76	1753.06
663.95	1781.73
664.14	1619.94
664.32	1693.67
664.51	1687.53
664.70	1611.75
664.89	1701.86
665.07	1689.57
665.26	1722.34
665.45	1658.85
665.64	1789.92
665.82	1708.01
666.01	1730.53
666.20	1677.29
666.38	1791.97
666.57	1779.68
666.76	2168.80
666.95	4407.23
667.13	10637.15
667.32	15492.88
667.51	18138.86
667.69	19644.12
667.88	17733.36
668.07	12685.12
668.25	9627.50
668.44	8349.57
668.63	7587.72
668.81	6766.49
669.00	6244.26
669.19	5679.02
669.38	5185.46
669.56	4646.84
669.75	3968.96
669.94	3407.82
670.12	2865.11
670.31	2541.53
670.50	2228.19
670.68	2086.88
670.87	1959.91
671.06	1857.51
671.24	1779.68
671.43	1902.56
671.62	1755.11
671.80	1683.43
671.99	1796.07
672.18	1746.92
672.36	1691.62
672.55	1800.16
672.74	1679.33
672.92	1648.61
673.11	1701.86
673.29	1681.38
673.48	1800.16
673.67	1718.25
673.85	1808.36
674.04	1660.90
674.23	1771.49
674.41	1763.30
674.60	1660.90
674.79	1568.74
674.97	1632.23
675.16	1820.64
675.34	1738.73
675.53	1656.81
675.72	1738.73
675.90	1746.92
676.09	1722.34
676.28	1687.53
676.46	1712.10
676.65	1796.07
676.83	1640.42
677.02	1679.33
677.21	1687.53
677.39	1671.14
677.58	1679.33
677.77	1685.48
677.95	1724.39
678.14	1634.28
678.32	1705.96
678.51	1652.71
678.70	1812.45
678.88	1673.19
679.07	1710.05
679.25	1697.77
679.44	1730.53
679.63	1656.81
679.81	1699.81
680.00	1853.41
680.18	1761.25
680.37	1828.84
680.55	1683.43
680.74	1605.61
680.93	1714.15
681.11	1804.26
681.30	1757.16
681.48	1794.02
681.67	1699.81
681.85	1693.67
682.04	1656.81
682.23	1742.82
682.41	1697.77
682.60	1699.81
682.78	1665.00
682.97	1636.33
683.15	1728.49
683.34	1726.44
683.53	1812.45
683.71	1615.85
683.90	1742.82
684.08	1812.45
684.27	1775.59
684.45	1765.35
684.64	1794.02
684.82	1671.14
685.01	1722.34
685.19	1626.09
685.38	1765.35
685.57	1771.49
685.75	1658.85
685.94	1718.25
686.12	1689.57
686.31	1722.34
686.49	1787.88
686.68	1656.81
686.86	1718.25
687.05	1738.73
687.23	1828.84
687.42	1689.57
687.60	1630.18
687.79	1738.73
687.97	1763.30
688.16	1794.02
688.34	1783.78
688.53	1687.53
688.71	1755.11
688.90	1705.96
689.08	1681.38
689.27	1658.85
689.45	1834.98
689.64	1673.19
689.82	1722.34
690.01	1691.62
690.19	1787.88
690.38	1710.05
690.56	1763.30
690.75	1638.38
690.93	1746.92
691.12	1662.95
691.30	1712.10
691.49	1667.05
691.67	1726.44
691.86	1800.16
692.04	1644.52
692.23	1687.53
692.41	1769.44
692.60	1832.93
692.78	1826.79
692.97	1693.67
693.15	1716.20
693.34	1767.40
693.52	1730.53
693.71	1736.68
693.89	1673.19
694.08	1636.33
694.26	1693.67
694.44	1748.97
694.63	1742.82
694.81	1611.75
695.00	1636.33
695.18	1787.88
695.37	1892.32
695.55	1724.39
695.74	1718.25
695.92	1703.91
696.10	1681.38
696.29	1683.43
696.47	1619.94
696.66	1583.08
696.84	1636.33
697.03	1603.56
697.21	1845.22
697.40	2316.25
697.58	1689.57
697.76	1703.91
697.95	1648.61
698.13	1599.46
698.32	1683.43
698.50	1705.96
698.68	1648.61
698.87	1712.10
699.05	1738.73
699.24	1671.14
699.42	1681.38
699.61	1681.38
699.79	1599.46
699.97	1703.91
700.16	1726.44
700.34	1687.53
700.53	1652.71
700.71	1800.16
700.89	1746.92
701.08	1734.63
701.26	1667.05
701.45	2088.93
701.63	1656.81
701.81	1677.29
702.00	1638.38
702.18	1665.00
702.37	1710.05
702.55	1695.72
702.73	1742.82
702.92	1599.46
703.10	1757.16
703.28	1695.72
703.47	1701.86
703.65	1779.68
703.84	1789.92
704.02	1677.29
704.20	1830.88
704.39	1677.29
704.57	1757.16
704.75	1738.73
704.94	1736.68
705.12	1791.97
705.30	1720.29
705.49	2207.71
705.67	4394.94
705.86	9549.68
706.04	12906.30
706.22	14685.98
706.41	15701.78
706.59	14010.15
706.77	9850.73
706.96	7499.66
707.14	6711.19
707.32	6029.22
707.51	5588.91
707.69	5158.83
707.87	4218.82
708.06	3606.47
708.24	3008.47
708.42	2441.18
708.61	2232.29
708.79	1912.80
708.97	1843.17
709.16	1808.36
709.34	1746.92
709.52	1716.20
709.71	1699.81
709.89	1710.05
710.07	1763.30
710.26	1691.62
710.44	1734.63
710.62	1794.02
710.80	1673.19
710.99	1699.81
711.17	1687.53
711.35	1665.00
711.54	1705.96
711.72	1767.40
711.90	1714.15
712.09	1757.16
712.27	1630.18
712.45	1738.73
712.63	1619.94
712.82	1763.30
713.00	1646.57
713.18	1687.53
713.37	1800.16
713.55	1789.92
713.73	1699.81
713.91	1738.73
714.10	1726.44
714.28	1628.14
714.46	1773.54
714.65	1703.91
714.83	1724.39
715.01	1632.23
715.19	1783.78
715.38	1658.85
715.56	1781.73
715.74	1658.85
715.92	1673.19
716.11	1746.92
716.29	1589.22
716.47	1724.39
716.65	1677.29
716.84	1603.56
717.02	1794.02
717.20	1665.00
717.38	1681.38
717.57	1740.77
717.75	1708.01
717.93	1607.66
718.11	1652.71
718.30	1611.75
718.48	1730.53
718.66	1804.26
718.84	1687.53
719.03	1689.57
719.21	1648.61
719.39	1783.78
719.57	1697.77
719.75	1765.35
719.94	1646.57
720.12	1607.66
720.30	1755.11
720.48	1751.01
720.67	1716.20
720.85	1644.52
721.03	1716.20
721.21	1665.00
721.39	1814.50
721.58	1777.64
721.76	1658.85
721.94	1689.57
722.12	1755.11
722.30	1753.06
722.49	1617.90
722.67	1681.38
722.85	1634.28
723.03	1656.81
723.21	1714.15
723.40	1718.25
723.58	1736.68
723.76	1671.14
723.94	1767.40
724.12	1699.81
724.30	1722.34
724.49	1777.64
724.67	1712.10
724.85	1746.92
725.03	1581.03
725.21	1712.10
725.40	1771.49
725.58	1603.56
725.76	1740.77
725.94	1748.97
726.12	1677.29
726.30	1767.40
726.49	1708.01
726.67	1646.57
726.85	1693.67
727.03	1800.16
727.21	2129.89
727.39	2901.97
727.57	3889.09
727.76	4188.10
727.94	4476.86
728.12	4292.54
728.30	3786.69
728.48	2996.18
728.66	2654.17
728.84	2514.91
729.03	2353.12
729.21	2002.91
729.39	1964.00
729.57	1769.44
729.75	1800.16
729.93	1845.22
730.11	1683.43
730.30	1658.85
730.48	1720.29
730.66	1785.83
730.84	1771.49
731.02	1779.68
731.20	1689.57
731.38	1720.29
731.56	1650.66
731.74	1679.33
731.93	1714.15
732.11	1697.77
732.29	1769.44
732.47	1736.68
732.65	1775.59
732.83	1746.92
733.01	1665.00
733.19	1640.42
733.37	1755.11
733.56	1781.73
733.74	1693.67
733.92	1802.21
734.10	1646.57
734.28	1656.81
734.46	1621.99
734.64	1714.15
734.82	1681.38
735.00	1593.32
735.18	1681.38
735.36	1665.00
735.54	1708.01
735.73	1714.15
735.91	1689.57
736.09	1789.92
736.27	1697.77
736.45	1742.82
736.63	1535.98
736.81	1665.00
736.99	1742.82
737.17	1738.73
737.35	1689.57
737.53	1685.48
737.71	1640.42
737.89	1796.07
738.07	1636.33
738.25	1658.85
738.43	1669.09
738.61	1603.56
738.80	1652.71
738.98	1650.66
739.16	1699.81
739.34	1638.38
739.52	1685.48
739.70	1779.68
739.88	1732.58
740.06	1748.97
740.24	1587.18
740.42	1783.78
740.60	1679.33
740.78	1671.14
740.96	1593.32
741.14	1646.57
741.32	1726.44
741.50	1630.18
741.68	1818.60
741.86	1755.11
742.04	1626.09
742.22	1611.75
742.40	1701.86
742.58	1746.92
742.76	1656.81
742.94	1759.21
743.12	1650.66
743.30	1744.87
743.48	1730.53
743.66	1630.18
743.84	1730.53
744.02	1732.58
744.20	1712.10
744.38	1654.76
744.56	1650.66
744.74	1771.49
744.92	1757.16
745.10	1791.97
745.28	1691.62
745.46	1757.16
745.64	1699.81
745.82	1755.11
746.00	1701.86
746.18	1701.86
746.36	1613.80
746.54	1705.96
746.72	1667.05
746.90	1652.71
747.08	1759.21
747.26	1691.62
747.44	1802.21
747.62	1730.53
747.80	1720.29
747.98	1679.33
748.15	1662.95
748.33	1724.39
748.51	1783.78
748.69	1738.73
748.87	1703.91
749.05	1675.24
749.23	1714.15
749.41	1683.43
749.59	1660.90
749.77	1738.73
749.95	1681.38
750.13	1640.42
750.31	1730.53
750.49	1654.76
750.67	1771.49
750.85	1738.73
751.03	1763.30
751.20	1769.44
751.38	1714.15
751.56	1683.43
751.74	1669.09
751.92	1736.68
752.10	1626.09
752.28	1693.67
752.46	1718.25
752.64	1699.81
752.82	1697.77
753.00	1755.11
753.18	1681.38
753.35	1791.97
753.53	1685.48
753.71	1728.49
753.89	1757.16
754.07	1798.12
754.25	1759.21
754.43	1658.85
754.61	1628.14
754.79	1751.01
754.97	1710.05
755.14	1726.44
755.32	1656.81
755.50	1720.29
755.68	1765.35
755.86	1640.42
756.04	1642.47
756.22	1628.14
756.40	1714.15
756.57	1820.64
756.75	1648.61
756.93	1767.40
757.11	1812.45
757.29	1660.90
757.47	1632.23
757.65	1650.66
757.82	1509.35
758.00	1710.05
758.18	1665.00
758.36	1654.76
758.54	1736.68
758.72	1583.08
758.90	1755.11
759.07	1697.77
759.25	1656.81
759.43	1722.34
759.61	1615.85
759.79	2265.05
759.97	1796.07
760.15	1621.99
760.32	1712.10
760.50	1734.63
760.68	1814.50
760.86	1601.51
761.04	1789.92
761.22	1712.10
761.39	1685.48
761.57	1783.78
761.75	1685.48
761.93	1755.11
762.11	1658.85
762.28	1722.34
762.46	1660.90
762.64	1757.16
762.82	1640.42
763.00	1699.81
763.18	1779.68
763.35	1621.99
763.53	1736.68
763.71	1671.14
763.89	1714.15
764.07	1687.53
764.24	1699.81
764.42	1673.19
764.60	1669.09
764.78	1656.81
764.96	1761.25
765.13	1724.39
765.31	1710.05
765.49	1791.97
765.67	1646.57
765.84	1662.95
766.02	1742.82
766.20	1556.46
766.38	1722.34
766.56	1681.38
766.73	1744.87
766.91	1693.67
767.09	1697.77
767.27	1720.29
767.44	1591.27
767.62	1724.39
767.80	1714.15
767.98	1732.58
768.15	1648.61
768.33	1714.15
768.51	1789.92
768.69	1761.25
768.87	1757.16
769.04	1683.43
769.22	1935.33
769.40	1855.46
769.58	1834.98
769.75	1624.04
769.93	1738.73
770.11	1673.19
770.28	1632.23
770.46	1697.77
770.64	1806.31
770.82	1648.61
770.99	1587.18
771.17	1703.91
771.35	1687.53
771.53	1697.77
771.70	1687.53
771.88	1699.81
772.06	1675.24
772.23	1675.24
772.41	1740.77
772.59	1630.18
772.77	1656.81
772.94	1732.58
773.12	1705.96
773.30	1669.09
773.47	1714.15
773.65	1679.33
773.83	1779.68
774.01	1589.22
774.18	1607.66
774.36	1687.53
774.54	1648.61
774.71	1656.81
774.89	1599.46
775.07	1712.10
775.24	1665.00
775.42	1732.58
775.60	1837.03
775.78	1615.85
775.95	1656.81
776.13	1544.17
776.31	1599.46
776.48	1720.29
776.66	1734.63
776.84	1621.99
777.01	1642.47
777.19	1675.24
777.37	1708.01
777.54	1773.54
777.72	1841.12
777.90	1761.25
778.07	1628.14
778.25	1894.37
778.43	1802.21
778.60	1759.21
778.78	1751.01
778.96	1726.44
779.13	1572.84
779.31	1740.77
779.49	1748.97
779.66	1757.16
779.84	1578.98
780.01	1658.85
780.19	1560.55
780.37	1761.25
780.54	1755.11
780.72	1683.43
780.90	1683.43
781.07	1636.33
781.25	1681.38
781.43	1841.12
781.60	1701.86
781.78	1802.21
781.95	1691.62
782.13	1656.81
782.31	1736.68
782.48	1544.17
782.66	1638.38
782.83	1775.59
783.01	1644.52
783.19	1761.25
783.36	1634.28
783.54	1648.61
783.72	1738.73
783.89	1714.15
784.07	1656.81
784.24	1763.30
784.42	1744.87
784.60	1671.14
784.77	1724.39
784.95	1566.70
785.12	1665.00
785.30	1687.53
785.47	1642.47
785.65	1683.43
785.83	1732.58
786.00	1693.67
786.18	1644.52
786.35	1615.85
786.53	1617.90
786.71	1806.31
786.88	1681.38
787.06	1681.38
787.23	1710.05
787.41	1693.67
787.58	1656.81
787.76	1689.57
787.94	1673.19
788.11	1665.00
788.29	1621.99
788.46	1611.75
788.64	1732.58
788.81	1705.96
788.99	1603.56
789.16	1685.48
789.34	1679.33
789.52	1644.52
789.69	1640.42
789.87	1595.37
790.04	1710.05
790.22	1755.11
790.39	1775.59
790.57	1591.27
790.74	1685.48
790.92	1689.57
791.09	1613.80
791.27	1730.53
791.44	1740.77
791.62	1703.91
791.79	1703.91
791.97	1679.33
792.15	1886.18
792.32	1751.01
792.50	1806.31
792.67	1804.26
792.85	1812.45
793.02	1777.64
793.20	1624.04
793.37	1597.42
793.55	1640.42
793.72	1607.66
793.90	1783.78
794.07	1634.28
794.25	1658.85
794.42	1710.05
794.60	1720.29
794.77	1718.25
794.95	1779.68
795.12	1708.01
795.30	1624.04
795.47	1603.56
795.65	1912.80
795.82	1779.68
796.00	1675.24
796.17	1697.77
796.34	1650.66
796.52	1675.24
796.69	1785.83
796.87	1751.01
797.04	1687.53
797.22	1783.78
797.39	1763.30
797.57	1730.53
797.74	1775.59
797.92	1697.77
798.09	1708.01
798.27	1691.62
798.44	1734.63
798.62	1722.34
798.79	1675.24
798.96	1759.21
799.14	1685.48
799.31	1783.78
799.49	1714.15
799.66	1662.95
799.84	1689.57
800.01	1574.89
800.19	1802.21
800.36	1679.33
800.53	1734.63
800.71	1724.39
800.88	1832.93
801.06	1736.68
801.23	1738.73
801.41	1724.39
801.58	1626.09
801.75	1626.09
801.93	1705.96
802.10	1740.77
802.28	1656.81
802.45	1660.90
802.63	1708.01
802.80	1755.11
802.97	1708.01
803.15	1599.46
803.32	1673.19
803.50	1648.61
803.67	1632.23
803.84	1658.85
804.02	1718.25
804.19	1658.85
804.37	1572.84
804.54	1675.24
804.71	1689.57
804.89	1755.11
805.06	1701.86
805.24	1689.57
805.41	1734.63
805.58	1685.48
805.76	1800.16
805.93	1667.05
806.10	1791.97
806.28	1734.63
806.45	1789.92
806.63	1662.95
806.80	1738.73
806.97	1658.85
807.15	1751.01
807.32	1742.82
807.49	1658.85
807.67	1660.90
807.84	1779.68
808.01	1632.23
808.19	1822.69
808.36	1877.99
808.54	1673.19
808.71	1675.24
808.88	1640.42
809.06	1763.30
809.23	1779.68
809.40	1646.57
809.58	1779.68
809.75	1679.33
809.92	1589.22
810.10	1822.69
810.27	1728.49
810.44	1697.77
810.62	1796.07
810.79	1777.64
810.96	1644.52
811.14	1654.76
811.31	1667.05
811.48	1687.53
811.66	1644.52
811.83	1771.49
812.00	1718.25
812.18	1722.34
812.35	1789.92
812.52	1609.70
812.69	1701.86
812.87	1779.68
813.04	1624.04
813.21	1646.57
813.39	1701.86
813.56	1681.38
813.73	1759.21
813.91	1648.61
814.08	1689.57
814.25	1716.20
814.42	1609.70
814.60	1730.53
814.77	1673.19
814.94	1601.51
815.12	1632.23
815.29	1740.77
815.46	1671.14
815.63	1716.20
815.81	1662.95
815.98	1673.19
816.15	1730.53
816.33	1705.96
816.50	1669.09
816.67	1601.51
816.84	1634.28
817.02	1677.29
817.19	1652.71
817.36	1724.39
817.53	1716.20
817.71	1624.04
817.88	1712.10
818.05	1757.16
818.22	1642.47
818.40	1738.73
818.57	1708.01
818.74	1662.95
818.91	1710.05
819.09	1685.48
819.26	1722.34
819.43	1683.43
819.60	1669.09
819.78	1708.01
819.95	1755.11
820.12	1599.46
820.29	1771.49
820.47	1779.68
820.64	1732.58
820.81	1619.94
820.98	1689.57
821.15	1724.39
821.33	1673.19
821.50	1654.76
821.67	1675.24
821.84	1755.11
822.02	1681.38
822.19	1755.11
822.36	1693.67
822.53	1660.90
822.70	1601.51
822.88	1648.61
823.05	1763.30
823.22	1718.25
823.39	1779.68
823.56	1691.62
823.74	1757.16
823.91	1681.38
824.08	1665.00
824.25	1681.38
824.42	1787.88
824.60	1599.46
824.77	1753.06
824.94	1626.09
825.11	1751.01
825.28	1646.57
825.45	1755.11
825.63	1656.81
825.80	1642.47
825.97	1714.15
826.14	1697.77
826.31	1619.94
826.48	1755.11
826.66	1603.56
826.83	1611.75
827.00	1644.52
827.17	1648.61
827.34	1736.68
827.51	1617.90
827.69	1648.61
827.86	1640.42
828.03	1708.01
828.20	1656.81
828.37	1665.00
828.54	1830.88
828.71	1583.08
828.89	1724.39
829.06	1730.53
829.23	1671.14
829.40	1632.23
829.57	1632.23
829.74	1689.57
829.91	1673.19
830.09	1658.85
830.26	1693.67
830.43	1734.63
830.60	1710.05
830.77	1689.57
830.94	1742.82
831.11	1703.91
831.28	1693.67
831.46	1794.02
831.63	1753.06
831.80	1804.26
831.97	1615.85
832.14	1648.61
832.31	1708.01
832.48	1769.44
832.65	1787.88
832.82	1667.05
832.99	1730.53
833.17	1591.27
833.34	1869.80
833.51	1783.78
833.68	1560.55
833.85	1720.29
834.02	1652.71
834.19	1576.94
834.36	1591.27
834.53	1685.48
834.70	1822.69
834.87	1705.96
835.04	1718.25
835.22	1660.90
835.39	1658.85
835.56	1574.89
835.73	1642.47
835.90	1773.54
836.07	1689.57
836.24	1679.33
836.41	1658.85
836.58	1679.33
836.75	1751.01
836.92	1679.33
837.09	1699.81
837.26	1710.05
837.43	1734.63
837.60	1689.57
837.77	1683.43
837.94	1671.14
838.12	1755.11
838.29	1714.15
838.46	1630.18
838.63	1599.46
838.80	1769.44
838.97	1763.30
839.14	1746.92
839.31	1724.39
839.48	1634.28
839.65	1652.71
839.82	1710.05
839.99	1640.42
840.16	1656.81
840.33	1689.57
840.50	1726.44
840.67	1599.46
840.84	1576.94
841.01	1714.15
841.18	1652.71
841.35	1773.54
841.52	1748.97
841.69	1806.31
841.86	1779.68
842.03	1630.18
842.20	1744.87
842.37	1665.00
842.54	1730.53
842.71	1630.18
842.88	1585.13
843.05	1755.11
843.22	1697.77
843.39	1710.05
843.56	1667.05
843.73	1697.77
843.90	1716.20
844.07	1746.92
844.24	1748.97
844.41	1695.72
844.58	1773.54
844.75	1685.48
844.92	1718.25
845.09	1658.85
845.26	1718.25
845.43	1710.05
845.60	1726.44
845.77	1767.40
845.94	1736.68
846.10	1767.40
846.27	1624.04
846.44	1599.46
846.61	1574.89
846.78	1660.90
846.95	1789.92
847.12	1734.63
847.29	1697.77
847.46	1626.09
847.63	1746.92
847.80	1652.71
847.97	1587.18
848.14	1816.55
848.31	1710.05
848.48	1609.70
848.65	1628.14
848.82	1689.57
848.98	1808.36
849.15	1640.42
849.32	1849.32
849.49	1730.53
849.66	1626.09
849.83	1712.10
850.00	1689.57
850.17	1734.63
850.34	1650.66
850.51	1621.99
850.68	1693.67
850.85	1855.46
851.01	1671.14
851.18	1718.25
851.35	1644.52
851.52	1761.25
851.69	1779.68
851.86	1615.85
852.03	1644.52
852.20	1748.97
852.37	1771.49
852.53	1576.94
852.70	1800.16
852.87	1687.53
853.04	1699.81
853.21	1689.57
853.38	1718.25
853.55	1775.59
853.72	1789.92
853.89	1615.85
854.05	1599.46
854.22	1718.25
854.39	1697.77
854.56	1669.09
854.73	1718.25
854.90	1644.52
855.07	1742.82
855.23	1675.24
855.40	1652.71
855.57	1681.38
855.74	1607.66
855.91	1857.51
856.08	1648.61
856.25	1669.09
856.41	1656.81
856.58	1675.24
856.75	1687.53
856.92	1646.57
857.09	1730.53
857.26	1652.71
857.42	1652.71
857.59	1773.54
857.76	1732.58
857.93	1730.53
858.10	1703.91
858.27	1662.95
858.43	1720.29
858.60	1669.09
858.77	1509.35
858.94	1759.21
859.11	1654.76
859.27	1740.77
859.44	1695.72
859.61	1796.07
859.78	1720.29
859.95	1722.34
860.12	1712.10
860.28	1773.54
860.45	1796.07
860.62	1708.01
860.79	1671.14
860.95	1712.10
861.12	1671.14
861.29	1648.61
861.46	1628.14
861.63	1636.33
861.79	1648.61
861.96	1662.95
862.13	1626.09
862.30	1718.25
862.47	1656.81
862.63	1644.52
862.80	1740.77
862.97	1691.62
863.14	1722.34
863.30	1732.58
863.47	1710.05
863.64	1695.72
863.81	1689.57
863.97	1667.05
864.14	1699.81
864.31	1650.66
864.48	1687.53
864.65	1626.09
864.81	1714.15
864.98	1724.39
865.15	1722.34
865.32	1740.77
865.48	1691.62
865.65	1691.62
865.82	1617.90
865.98	1769.44
866.15	1718.25
866.32	1744.87
866.49	1691.62
866.65	1742.82
866.82	1624.04
866.99	1687.53
867.16	1669.09
867.32	1626.09
867.49	1744.87
867.66	1695.72
867.83	1652.71
867.99	1591.27
868.16	1675.24
868.33	1644.52
868.49	1708.01
868.66	1634.28
868.83	1710.05
868.99	1738.73
869.16	1738.73
869.33	1787.88
869.50	1763.30
869.66	1697.77
869.83	1769.44
870.00	1640.42
870.16	1730.53
870.33	1669.09
870.50	1697.77
870.66	1708.01
870.83	1853.41
871.00	1638.38
871.17	1763.30
871.33	1720.29
871.50	1634.28
871.67	1683.43
871.83	1603.56
872.00	1863.65
872.17	1658.85
872.33	1773.54
872.50	1826.79
872.67	1693.67
872.83	1656.81
873.00	1685.48
873.17	1621.99
873.33	1708.01
873.50	1732.58
873.67	1632.23
873.83	1626.09
874.00	1665.00
874.16	1769.44
874.33	1581.03
874.50	1634.28
874.66	1687.53
874.83	1667.05
875.00	1728.49
875.16	1742.82
875.33	1724.39
875.50	1593.32
875.66	1691.62
875.83	1714.15
875.99	1722.34
876.16	1644.52
876.33	1603.56
876.49	1673.19
876.66	1679.33
876.83	1667.05
876.99	1648.61
877.16	1662.95
877.32	1609.70
877.49	1730.53
877.66	1714.15
877.82	1791.97
877.99	1728.49
878.15	1814.50
878.32	1667.05
878.49	1738.73
878.65	1761.25
878.82	1771.49
878.98	1695.72
879.15	1705.96
879.32	1716.20
879.48	1703.91
879.65	1595.37
879.81	1585.13
879.98	1665.00
880.15	1642.47
880.31	1718.25
880.48	1581.03
880.64	1714.15
880.81	1722.34
880.97	1824.74
881.14	1744.87
881.31	1617.90
881.47	1857.51
881.64	1746.92
881.80	1611.75
881.97	1732.58
882.13	1689.57
882.30	1599.46
882.47	1626.09
882.63	1710.05
882.80	1624.04
882.96	1640.42
883.13	1767.40
883.29	1650.66
883.46	1691.62
883.62	1806.31
883.79	1669.09
883.95	1710.05
884.12	1767.40
884.29	1705.96
884.45	1738.73
884.62	1730.53
884.78	1613.80
884.95	1765.35
885.11	1626.09
885.28	1718.25
885.44	1638.38
885.61	1632.23
885.77	1740.77
885.94	1777.64
886.10	1695.72
886.27	1734.63
886.43	1779.68
886.60	1710.05
886.76	1748.97
886.93	1636.33
887.09	1679.33
887.26	1621.99
887.42	1697.77
887.59	1755.11
887.75	1755.11
887.92	1701.86
888.08	1744.87
888.25	1806.31
888.41	1697.77
888.58	1652.71
888.74	1701.86
888.91	1656.81
>>>>>End Processed Spectral Data<<<<<
