SpectraSuite Data File
++++++++++++++++++++++++++++++++++++
Date: Mon Jun 06 16:46:57 CEST 2016
User: root
Dark Spectrum Present: No
Reference Spectrum Present: No
Number of Sampled Component Spectra: 1
Spectrometers: USB4C02835
Integration Time (usec): 100000 (USB4C02835)
Spectra Averaged: 1 (USB4C02835)
Boxcar Smoothing: 0 (USB4C02835)
Correct for Electrical Dark: No (USB4C02835)
Strobe/Lamp Enabled: No (USB4C02835)
Correct for Detector Non-linearity: No (USB4C02835)
Correct for Stray Light: No (USB4C02835)
Number of Pixels in Processed Spectrum: 3648
>>>>>Begin Processed Spectral Data<<<<<
177.47	1478.63
177.69	1478.63
177.91	1478.63
178.13	1413.10
178.36	1474.54
178.58	1621.99
178.80	1734.63
179.02	1642.47
179.24	1646.57
179.46	1734.63
179.68	1728.49
179.90	1693.67
180.13	1730.53
180.35	1693.67
180.57	1673.19
180.79	1742.82
181.01	1730.53
181.23	1755.11
181.45	1775.59
181.67	1779.68
181.90	1791.97
182.12	1720.29
182.34	1695.72
182.56	1759.21
182.78	1730.53
183.00	1714.15
183.22	1765.35
183.44	1574.89
183.66	1845.22
183.89	1832.93
184.11	1718.25
184.33	1718.25
184.55	1804.26
184.77	1746.92
184.99	1751.01
185.21	1609.70
185.43	1771.49
185.65	1732.58
185.87	1683.43
186.10	1898.47
186.32	1863.65
186.54	1671.14
186.76	1705.96
186.98	1673.19
187.20	1658.85
187.42	1689.57
187.64	1765.35
187.86	1665.00
188.08	1779.68
188.30	1658.85
188.52	1632.23
188.75	1789.92
188.97	1816.55
189.19	1675.24
189.41	1697.77
189.63	1699.81
189.85	1685.48
190.07	1613.80
190.29	1638.38
190.51	1675.24
190.73	1605.61
190.95	1826.79
191.17	1671.14
191.39	1601.51
191.61	1595.37
191.84	1718.25
192.06	1746.92
192.28	1665.00
192.50	1863.65
192.72	1751.01
192.94	1773.54
193.16	1791.97
193.38	1742.82
193.60	1626.09
193.82	1732.58
194.04	1740.77
194.26	1677.29
194.48	1726.44
194.70	1644.52
194.92	1648.61
195.14	1728.49
195.36	1718.25
195.58	1779.68
195.80	1621.99
196.02	1679.33
196.24	1667.05
196.46	1775.59
196.69	1736.68
196.91	1837.03
197.13	1712.10
197.35	1648.61
197.57	1783.78
197.79	1761.25
198.01	1771.49
198.23	1714.15
198.45	1796.07
198.67	1658.85
198.89	1642.47
199.11	1708.01
199.33	1671.14
199.55	1583.08
199.77	1773.54
199.99	1748.97
200.21	1681.38
200.43	1751.01
200.65	1734.63
200.87	1572.84
201.09	1710.05
201.31	1689.57
201.53	1753.06
201.75	1642.47
201.97	1673.19
202.19	1732.58
202.41	1824.74
202.63	1826.79
202.85	1656.81
203.07	1767.40
203.29	1677.29
203.51	1617.90
203.73	1665.00
203.95	1904.61
204.17	1753.06
204.39	1746.92
204.61	1701.86
204.83	1679.33
205.05	1773.54
205.27	1746.92
205.49	1748.97
205.71	1656.81
205.93	1634.28
206.15	1691.62
206.37	1787.88
206.59	1789.92
206.81	1705.96
207.03	1624.04
207.25	1626.09
207.47	1753.06
207.69	1685.48
207.91	1779.68
208.13	1775.59
208.34	1697.77
208.56	1695.72
208.78	1703.91
209.00	1671.14
209.22	1751.01
209.44	1763.30
209.66	1624.04
209.88	1757.16
210.10	1617.90
210.32	1732.58
210.54	1744.87
210.76	1636.33
210.98	1732.58
211.20	1505.26
211.42	1759.21
211.64	1814.50
211.86	1652.71
212.08	1826.79
212.30	1765.35
212.52	1679.33
212.74	1714.15
212.96	1732.58
213.17	1775.59
213.39	1722.34
213.61	1818.60
213.83	1759.21
214.05	1705.96
214.27	1773.54
214.49	1665.00
214.71	1724.39
214.93	1787.88
215.15	1673.19
215.37	1687.53
215.59	1656.81
215.81	1738.73
216.03	1720.29
216.24	1722.34
216.46	1669.09
216.68	1697.77
216.90	1791.97
217.12	1783.78
217.34	1648.61
217.56	1710.05
217.78	1822.69
218.00	1763.30
218.22	1781.73
218.44	1791.97
218.66	1681.38
218.87	1796.07
219.09	1615.85
219.31	1699.81
219.53	1648.61
219.75	1669.09
219.97	1701.86
220.19	1773.54
220.41	1769.44
220.63	1773.54
220.85	1773.54
221.06	1662.95
221.28	1843.17
221.50	1773.54
221.72	1699.81
221.94	1687.53
222.16	1736.68
222.38	1746.92
222.60	1705.96
222.82	1677.29
223.03	1744.87
223.25	1671.14
223.47	1685.48
223.69	1796.07
223.91	1859.56
224.13	1701.86
224.35	1708.01
224.57	1777.64
224.78	1712.10
225.00	1722.34
225.22	1716.20
225.44	1673.19
225.66	1755.11
225.88	1691.62
226.10	1740.77
226.32	1734.63
226.53	1877.99
226.75	1673.19
226.97	1687.53
227.19	1724.39
227.41	1689.57
227.63	1703.91
227.85	1542.12
228.06	1660.90
228.28	1818.60
228.50	1822.69
228.72	1648.61
228.94	1697.77
229.16	1699.81
229.37	1646.57
229.59	1710.05
229.81	1841.12
230.03	1691.62
230.25	1703.91
230.47	1689.57
230.69	1593.32
230.90	1785.83
231.12	1677.29
231.34	1632.23
231.56	1726.44
231.78	1679.33
232.00	1724.39
232.21	1693.67
232.43	1683.43
232.65	1626.09
232.87	1691.62
233.09	1667.05
233.30	1628.14
233.52	1771.49
233.74	1712.10
233.96	1697.77
234.18	1728.49
234.40	1718.25
234.61	1816.55
234.83	1570.79
235.05	1683.43
235.27	1853.41
235.49	1796.07
235.70	1667.05
235.92	1841.12
236.14	1716.20
236.36	1857.51
236.58	1632.23
236.79	1724.39
237.01	1689.57
237.23	1738.73
237.45	1861.60
237.67	1701.86
237.88	1734.63
238.10	1894.37
238.32	1703.91
238.54	1693.67
238.76	1658.85
238.97	1650.66
239.19	1656.81
239.41	1724.39
239.63	1755.11
239.85	1689.57
240.06	1744.87
240.28	1763.30
240.50	1767.40
240.72	1806.31
240.93	1746.92
241.15	1681.38
241.37	1726.44
241.59	1865.70
241.81	1673.19
242.02	1724.39
242.24	1724.39
242.46	1738.73
242.68	1705.96
242.89	1748.97
243.11	1730.53
243.33	1697.77
243.55	1734.63
243.76	1722.34
243.98	1658.85
244.20	1728.49
244.42	1705.96
244.64	1777.64
244.85	1656.81
245.07	1695.72
245.29	1736.68
245.51	1714.15
245.72	1794.02
245.94	1751.01
246.16	1691.62
246.38	1720.29
246.59	1669.09
246.81	1642.47
247.03	1634.28
247.24	1615.85
247.46	1642.47
247.68	1634.28
247.90	1665.00
248.11	1673.19
248.33	1783.78
248.55	1703.91
248.77	1693.67
248.98	1755.11
249.20	1751.01
249.42	1783.78
249.64	1705.96
249.85	1732.58
250.07	1691.62
250.29	1773.54
250.50	1769.44
250.72	1656.81
250.94	1736.68
251.16	1789.92
251.37	1755.11
251.59	1708.01
251.81	1742.82
252.02	1724.39
252.24	1671.14
252.46	1787.88
252.68	1679.33
252.89	1636.33
253.11	1574.89
253.33	1732.58
253.54	1806.31
253.76	1705.96
253.98	1744.87
254.20	1673.19
254.41	1671.14
254.63	1697.77
254.85	1601.51
255.06	1726.44
255.28	1697.77
255.50	1660.90
255.71	1681.38
255.93	1642.47
256.15	1656.81
256.36	1751.01
256.58	1724.39
256.80	1650.66
257.02	1699.81
257.23	1667.05
257.45	1732.58
257.67	1705.96
257.88	1685.48
258.10	1740.77
258.32	1730.53
258.53	1705.96
258.75	1736.68
258.97	1699.81
259.18	1673.19
259.40	1763.30
259.62	1818.60
259.83	1753.06
260.05	1849.32
260.27	1941.47
260.48	1777.64
260.70	1705.96
260.92	1753.06
261.13	1607.66
261.35	1667.05
261.57	1679.33
261.78	1656.81
262.00	1730.53
262.22	1720.29
262.43	1650.66
262.65	1662.95
262.86	1673.19
263.08	1822.69
263.30	1720.29
263.51	1578.98
263.73	1685.48
263.95	1849.32
264.16	1660.90
264.38	1626.09
264.60	1804.26
264.81	1634.28
265.03	1759.21
265.25	1730.53
265.46	1695.72
265.68	1779.68
265.89	1675.24
266.11	1607.66
266.33	1748.97
266.54	1751.01
266.76	1708.01
266.98	1740.77
267.19	1744.87
267.41	1748.97
267.62	1642.47
267.84	1679.33
268.06	1691.62
268.27	1757.16
268.49	1773.54
268.70	1798.12
268.92	1755.11
269.14	1695.72
269.35	1626.09
269.57	1728.49
269.79	1767.40
270.00	1665.00
270.22	1816.55
270.43	1685.48
270.65	1626.09
270.87	1646.57
271.08	1765.35
271.30	1683.43
271.51	1689.57
271.73	1714.15
271.95	1877.99
272.16	1771.49
272.38	1734.63
272.59	1703.91
272.81	1734.63
273.02	1765.35
273.24	1753.06
273.46	1773.54
273.67	1599.46
273.89	1628.14
274.10	1673.19
274.32	1753.06
274.54	1742.82
274.75	1730.53
274.97	1640.42
275.18	1771.49
275.40	1742.82
275.61	1755.11
275.83	1632.23
276.05	1710.05
276.26	1705.96
276.48	1710.05
276.69	1691.62
276.91	1681.38
277.12	1767.40
277.34	1697.77
277.55	1705.96
277.77	1714.15
277.99	1687.53
278.20	1675.24
278.42	1681.38
278.63	1636.33
278.85	1634.28
279.06	1658.85
279.28	1685.48
279.49	1826.79
279.71	1722.34
279.93	1724.39
280.14	1687.53
280.36	1669.09
280.57	1777.64
280.79	1757.16
281.00	1644.52
281.22	1624.04
281.43	1783.78
281.65	1615.85
281.86	1720.29
282.08	1720.29
282.29	1873.89
282.51	1710.05
282.73	1599.46
282.94	1583.08
283.16	1718.25
283.37	1798.12
283.59	1697.77
283.80	1679.33
284.02	1677.29
284.23	1783.78
284.45	1722.34
284.66	1656.81
284.88	1675.24
285.09	1726.44
285.31	1716.20
285.52	1738.73
285.74	1624.04
285.95	1816.55
286.17	1775.59
286.38	1703.91
286.60	1662.95
286.81	1658.85
287.03	1763.30
287.24	1654.76
287.46	1701.86
287.67	1701.86
287.89	1818.60
288.10	1767.40
288.32	1728.49
288.53	1875.94
288.75	1708.01
288.96	1708.01
289.18	1638.38
289.39	1720.29
289.61	1681.38
289.82	1808.36
290.04	1787.88
290.25	1679.33
290.47	1746.92
290.68	1695.72
290.90	1789.92
291.11	1677.29
291.33	1810.40
291.54	1640.42
291.76	1722.34
291.97	1755.11
292.18	1746.92
292.40	1652.71
292.61	1638.38
292.83	1882.08
293.04	1718.25
293.26	1695.72
293.47	1675.24
293.69	1665.00
293.90	1757.16
294.12	1767.40
294.33	1673.19
294.55	1695.72
294.76	1763.30
294.97	1828.84
295.19	1847.27
295.40	1697.77
295.62	1730.53
295.83	1763.30
296.05	1705.96
296.26	1785.83
296.48	1572.84
296.69	1730.53
296.90	1714.15
297.12	1814.50
297.33	1757.16
297.55	1687.53
297.76	1771.49
297.98	1796.07
298.19	1646.57
298.41	1720.29
298.62	1603.56
298.83	1806.31
299.05	1695.72
299.26	1730.53
299.48	1673.19
299.69	1728.49
299.90	1751.01
300.12	1673.19
300.33	1736.68
300.55	1773.54
300.76	1771.49
300.98	1632.23
301.19	1708.01
301.40	1699.81
301.62	1718.25
301.83	1732.58
302.05	1705.96
302.26	1703.91
302.47	1736.68
302.69	1667.05
302.90	1693.67
303.12	1574.89
303.33	1818.60
303.54	1832.93
303.76	1708.01
303.97	1658.85
304.19	1886.18
304.40	1628.14
304.61	1708.01
304.83	1871.84
305.04	1734.63
305.26	1808.36
305.47	1607.66
305.68	1728.49
305.90	1640.42
306.11	1763.30
306.33	1628.14
306.54	1791.97
306.75	1689.57
306.97	1656.81
307.18	1695.72
307.39	1699.81
307.61	1812.45
307.82	1705.96
308.04	1744.87
308.25	1730.53
308.46	1757.16
308.68	1693.67
308.89	1697.77
309.10	1800.16
309.32	1701.86
309.53	1742.82
309.74	1740.77
309.96	1642.47
310.17	1755.11
310.39	1732.58
310.60	1800.16
310.81	1728.49
311.03	1628.14
311.24	1765.35
311.45	1826.79
311.67	1759.21
311.88	1648.61
312.09	1746.92
312.31	1640.42
312.52	1658.85
312.73	1708.01
312.95	1675.24
313.16	1665.00
313.37	1724.39
313.59	1832.93
313.80	1748.97
314.01	1779.68
314.23	1708.01
314.44	1718.25
314.65	1587.18
314.87	1753.06
315.08	1689.57
315.29	1652.71
315.51	1646.57
315.72	1599.46
315.93	1746.92
316.15	1820.64
316.36	1691.62
316.57	1689.57
316.79	1826.79
317.00	1679.33
317.21	1798.12
317.43	1712.10
317.64	1705.96
317.85	1714.15
318.07	1671.14
318.28	1685.48
318.49	1820.64
318.70	1951.71
318.92	1800.16
319.13	1841.12
319.34	1880.04
319.56	1828.84
319.77	1685.48
319.98	1777.64
320.20	1785.83
320.41	1730.53
320.62	1746.92
320.83	1699.81
321.05	1841.12
321.26	1724.39
321.47	1781.73
321.69	1769.44
321.90	1617.90
322.11	1718.25
322.32	1710.05
322.54	1828.84
322.75	1775.59
322.96	1830.88
323.18	1720.29
323.39	1624.04
323.60	1669.09
323.81	1759.21
324.03	1689.57
324.24	1755.11
324.45	1677.29
324.66	1677.29
324.88	1806.31
325.09	1863.65
325.30	1656.81
325.52	1759.21
325.73	1695.72
325.94	1652.71
326.15	1656.81
326.37	1689.57
326.58	1759.21
326.79	1775.59
327.00	1654.76
327.22	1787.88
327.43	1730.53
327.64	1642.47
327.85	1748.97
328.07	1675.24
328.28	1824.74
328.49	1642.47
328.70	1732.58
328.92	1724.39
329.13	1701.86
329.34	1767.40
329.55	1824.74
329.76	1705.96
329.98	1675.24
330.19	1705.96
330.40	1738.73
330.61	1738.73
330.83	1714.15
331.04	1667.05
331.25	1781.73
331.46	1726.44
331.68	1671.14
331.89	1755.11
332.10	1710.05
332.31	1654.76
332.52	1722.34
332.74	1839.08
332.95	1626.09
333.16	1746.92
333.37	1728.49
333.58	1673.19
333.80	1662.95
334.01	1740.77
334.22	1744.87
334.43	1687.53
334.64	1648.61
334.86	1646.57
335.07	1640.42
335.28	1800.16
335.49	1638.38
335.70	1640.42
335.92	1765.35
336.13	1877.99
336.34	1787.88
336.55	1669.09
336.76	1869.80
336.98	1574.89
337.19	1658.85
337.40	1812.45
337.61	1816.55
337.82	1644.52
338.04	1787.88
338.25	1607.66
338.46	1708.01
338.67	1695.72
338.88	1705.96
339.09	1648.61
339.31	1675.24
339.52	1640.42
339.73	1626.09
339.94	1724.39
340.15	1667.05
340.36	1656.81
340.58	1765.35
340.79	1673.19
341.00	1800.16
341.21	1574.89
341.42	1867.75
341.63	1705.96
341.85	1767.40
342.06	1753.06
342.27	1646.57
342.48	1724.39
342.69	1759.21
342.90	1673.19
343.12	1742.82
343.33	1605.61
343.54	1742.82
343.75	1787.88
343.96	1722.34
344.17	1669.09
344.38	1775.59
344.60	1658.85
344.81	1716.20
345.02	1685.48
345.23	1748.97
345.44	1742.82
345.65	1708.01
345.86	1726.44
346.07	1703.91
346.29	1681.38
346.50	1703.91
346.71	1769.44
346.92	1779.68
347.13	1837.03
347.34	1716.20
347.55	1738.73
347.76	1648.61
347.98	1656.81
348.19	1681.38
348.40	1732.58
348.61	1654.76
348.82	1765.35
349.03	1789.92
349.24	1626.09
349.45	1820.64
349.66	1558.50
349.88	1755.11
350.09	1632.23
350.30	1822.69
350.51	1832.93
350.72	1714.15
350.93	1746.92
351.14	1636.33
351.35	1730.53
351.56	1728.49
351.77	1732.58
351.99	1726.44
352.20	1859.56
352.41	1791.97
352.62	1587.18
352.83	1650.66
353.04	1726.44
353.25	1763.30
353.46	1746.92
353.67	1716.20
353.88	1581.03
354.09	1703.91
354.30	1757.16
354.52	1705.96
354.73	1587.18
354.94	1697.77
355.15	1742.82
355.36	1820.64
355.57	1654.76
355.78	1722.34
355.99	1615.85
356.20	1615.85
356.41	1781.73
356.62	1781.73
356.83	1751.01
357.04	1814.50
357.25	1632.23
357.46	1732.58
357.68	1720.29
357.89	1683.43
358.10	1740.77
358.31	1710.05
358.52	1763.30
358.73	1619.94
358.94	1732.58
359.15	1665.00
359.36	1669.09
359.57	1679.33
359.78	1677.29
359.99	1701.86
360.20	1570.79
360.41	1738.73
360.62	1693.67
360.83	1703.91
361.04	1667.05
361.25	1734.63
361.46	1830.88
361.67	1705.96
361.88	1746.92
362.09	1732.58
362.30	1734.63
362.51	1685.48
362.72	1703.91
362.93	1744.87
363.14	1824.74
363.35	1746.92
363.56	1710.05
363.78	1748.97
363.99	1738.73
364.20	1708.01
364.41	1777.64
364.62	1785.83
364.83	1685.48
365.04	1722.34
365.25	1734.63
365.46	1837.03
365.67	1638.38
365.88	1689.57
366.09	1656.81
366.30	1699.81
366.51	1804.26
366.72	1734.63
366.93	1699.81
367.14	1748.97
367.35	1839.08
367.56	1785.83
367.77	1841.12
367.98	1751.01
368.18	1748.97
368.39	1724.39
368.60	1703.91
368.81	1720.29
369.02	1714.15
369.23	1712.10
369.44	1634.28
369.65	1751.01
369.86	1714.15
370.07	1728.49
370.28	1652.71
370.49	1783.78
370.70	1765.35
370.91	1716.20
371.12	1591.27
371.33	1771.49
371.54	1691.62
371.75	1783.78
371.96	1572.84
372.17	1734.63
372.38	1724.39
372.59	1716.20
372.80	1671.14
373.01	1650.66
373.22	1755.11
373.43	1665.00
373.64	1654.76
373.85	1775.59
374.06	1857.51
374.26	1779.68
374.47	1683.43
374.68	1804.26
374.89	1708.01
375.10	1681.38
375.31	1736.68
375.52	1746.92
375.73	1667.05
375.94	1669.09
376.15	1710.05
376.36	1634.28
376.57	1591.27
376.78	1728.49
376.99	1740.77
377.20	1822.69
377.40	1714.15
377.61	1884.13
377.82	1636.33
378.03	1808.36
378.24	1730.53
378.45	1755.11
378.66	1689.57
378.87	1640.42
379.08	1693.67
379.29	1597.42
379.50	1859.56
379.71	1736.68
379.91	1712.10
380.12	1587.18
380.33	1716.20
380.54	1720.29
380.75	1650.66
380.96	1640.42
381.17	1820.64
381.38	1679.33
381.59	1740.77
381.80	1724.39
382.00	1841.12
382.21	1722.34
382.42	1837.03
382.63	1820.64
382.84	1716.20
383.05	1816.55
383.26	1796.07
383.47	1755.11
383.68	1708.01
383.88	1759.21
384.09	1693.67
384.30	1822.69
384.51	1697.77
384.72	1658.85
384.93	1683.43
385.14	1787.88
385.35	1785.83
385.55	1650.66
385.76	1734.63
385.97	1712.10
386.18	1624.04
386.39	1697.77
386.60	1675.24
386.81	1736.68
387.02	1699.81
387.22	1665.00
387.43	1773.54
387.64	1796.07
387.85	1869.80
388.06	2244.57
388.27	4306.88
388.48	6827.93
388.68	8337.28
388.89	9674.60
389.10	9822.06
389.31	8574.85
389.52	7729.03
389.73	6862.74
389.93	6342.56
390.14	5906.34
390.35	5218.22
390.56	4550.59
390.77	3745.73
390.98	3094.48
391.18	2568.15
391.39	2099.17
391.60	1781.73
391.81	1898.47
392.02	1753.06
392.23	1845.22
392.43	1834.98
392.64	1753.06
392.85	1691.62
393.06	1767.40
393.27	1779.68
393.47	1640.42
393.68	1781.73
393.89	1626.09
394.10	1759.21
394.31	1712.10
394.52	1578.98
394.72	1658.85
394.93	1818.60
395.14	1726.44
395.35	1640.42
395.56	1675.24
395.76	1746.92
395.97	1828.84
396.18	1800.16
396.39	1910.75
396.60	1992.67
396.80	1918.95
397.01	1865.70
397.22	1871.84
397.43	1882.08
397.64	1751.01
397.84	1906.66
398.05	1869.80
398.26	1726.44
398.47	1767.40
398.67	1777.64
398.88	1773.54
399.09	1783.78
399.30	1744.87
399.51	1771.49
399.71	1675.24
399.92	1724.39
400.13	1765.35
400.34	1691.62
400.54	1730.53
400.75	1779.68
400.96	1783.78
401.17	1781.73
401.37	1730.53
401.58	1714.15
401.79	1708.01
402.00	1888.23
402.21	2000.87
402.41	1959.91
402.62	2009.06
402.83	2019.30
403.04	1984.48
403.24	2090.98
403.45	1877.99
403.66	1896.42
403.87	1880.04
404.07	1828.84
404.28	1912.80
404.49	1861.60
404.70	1783.78
404.90	1824.74
405.11	1787.88
405.32	1761.25
405.52	1689.57
405.73	1601.51
405.94	1708.01
406.15	1734.63
406.35	1695.72
406.56	1759.21
406.77	1771.49
406.98	1724.39
407.18	1744.87
407.39	1753.06
407.60	1757.16
407.80	1693.67
408.01	1609.70
408.22	1738.73
408.43	1632.23
408.63	1681.38
408.84	1681.38
409.05	1806.31
409.25	1658.85
409.46	1683.43
409.67	1615.85
409.88	1800.16
410.08	1744.87
410.29	1730.53
410.50	1732.58
410.70	1667.05
410.91	1691.62
411.12	1693.67
411.32	1734.63
411.53	1673.19
411.74	1808.36
411.95	1822.69
412.15	1763.30
412.36	1796.07
412.57	1818.60
412.77	1857.51
412.98	1728.49
413.19	1742.82
413.39	1697.77
413.60	1744.87
413.81	1796.07
414.01	1697.77
414.22	1769.44
414.43	1834.98
414.63	1775.59
414.84	1812.45
415.05	1726.44
415.25	1656.81
415.46	1789.92
415.67	1720.29
415.87	1697.77
416.08	1791.97
416.29	1699.81
416.49	1708.01
416.70	1724.39
416.91	1685.48
417.11	1787.88
417.32	1746.92
417.53	1742.82
417.73	1705.96
417.94	1701.86
418.15	1732.58
418.35	1796.07
418.56	1734.63
418.77	1900.52
418.97	1689.57
419.18	1832.93
419.38	1564.65
419.59	1697.77
419.80	1910.75
420.00	1691.62
420.21	1726.44
420.42	1824.74
420.62	1708.01
420.83	1710.05
421.04	1658.85
421.24	1681.38
421.45	1718.25
421.65	1728.49
421.86	1673.19
422.07	1685.48
422.27	1755.11
422.48	1769.44
422.69	1675.24
422.89	1722.34
423.10	1738.73
423.30	1665.00
423.51	1654.76
423.72	1685.48
423.92	1716.20
424.13	1685.48
424.33	1746.92
424.54	1732.58
424.75	1728.49
424.95	1798.12
425.16	1761.25
425.36	1689.57
425.57	1800.16
425.78	1759.21
425.98	1748.97
426.19	1718.25
426.39	1605.61
426.60	1740.77
426.81	1890.28
427.01	1699.81
427.22	1656.81
427.42	1576.94
427.63	1632.23
427.83	1621.99
428.04	1791.97
428.25	1810.40
428.45	1767.40
428.66	1857.51
428.86	1705.96
429.07	1685.48
429.28	1708.01
429.48	1695.72
429.69	1665.00
429.89	1714.15
430.10	1730.53
430.30	1748.97
430.51	1773.54
430.71	1685.48
430.92	1646.57
431.13	1753.06
431.33	1787.88
431.54	1728.49
431.74	1804.26
431.95	1865.70
432.15	1656.81
432.36	1730.53
432.56	1771.49
432.77	1779.68
432.98	1777.64
433.18	1765.35
433.39	1734.63
433.59	1708.01
433.80	1742.82
434.00	1849.32
434.21	1636.33
434.41	1689.57
434.62	1859.56
434.82	1665.00
435.03	1695.72
435.23	1734.63
435.44	1640.42
435.64	1746.92
435.85	1656.81
436.06	1824.74
436.26	1755.11
436.47	1742.82
436.67	1761.25
436.88	1697.77
437.08	1724.39
437.29	1751.01
437.49	1658.85
437.70	1816.55
437.90	1718.25
438.11	1865.70
438.31	1757.16
438.52	1839.08
438.72	1861.60
438.93	1941.47
439.13	1785.83
439.34	1851.36
439.54	1716.20
439.75	1812.45
439.95	1828.84
440.16	1648.61
440.36	1814.50
440.57	1814.50
440.77	1742.82
440.98	1701.86
441.18	1767.40
441.39	1693.67
441.59	1679.33
441.80	1789.92
442.00	1742.82
442.21	1847.27
442.41	1689.57
442.62	1843.17
442.82	1701.86
443.02	1800.16
443.23	1742.82
443.43	1740.77
443.64	1896.42
443.84	1642.47
444.05	1767.40
444.25	1783.78
444.46	1662.95
444.66	1755.11
444.87	1810.40
445.07	1691.62
445.28	1724.39
445.48	1765.35
445.69	1804.26
445.89	1959.91
446.09	1753.06
446.30	2019.30
446.50	2691.03
446.71	3620.81
446.91	4339.65
447.12	4814.77
447.32	4753.34
447.53	4429.76
447.73	3913.67
447.93	3540.94
448.14	3354.57
448.34	3262.41
448.55	2914.26
448.75	2879.44
448.96	2670.55
449.16	2353.12
449.36	2310.11
449.57	2078.69
449.77	1970.15
449.98	1726.44
450.18	1851.36
450.39	1769.44
450.59	1765.35
450.79	1789.92
451.00	1746.92
451.20	1779.68
451.41	1652.71
451.61	1720.29
451.81	1763.30
452.02	1699.81
452.22	1708.01
452.43	1714.15
452.63	1691.62
452.84	1763.30
453.04	1767.40
453.24	1761.25
453.45	1650.66
453.65	1734.63
453.86	1722.34
454.06	1769.44
454.26	1751.01
454.47	1683.43
454.67	1892.32
454.87	1824.74
455.08	1748.97
455.28	1798.12
455.49	1820.64
455.69	1738.73
455.89	1861.60
456.10	1830.88
456.30	1779.68
456.51	1808.36
456.71	1734.63
456.91	1732.58
457.12	1716.20
457.32	1656.81
457.52	1714.15
457.73	1736.68
457.93	1841.12
458.14	1728.49
458.34	1656.81
458.54	1652.71
458.75	1732.58
458.95	1839.08
459.15	1724.39
459.36	1775.59
459.56	1824.74
459.76	1863.65
459.97	1720.29
460.17	1714.15
460.37	1755.11
460.58	1677.29
460.78	1785.83
460.99	1757.16
461.19	1740.77
461.39	1708.01
461.60	1812.45
461.80	1796.07
462.00	1681.38
462.21	1691.62
462.41	1695.72
462.61	1720.29
462.82	1667.05
463.02	1804.26
463.22	1710.05
463.43	1837.03
463.63	1734.63
463.83	1818.60
464.04	1753.06
464.24	1730.53
464.44	1638.38
464.64	1736.68
464.85	1804.26
465.05	1820.64
465.25	1755.11
465.46	1724.39
465.66	1714.15
465.86	1775.59
466.07	1667.05
466.27	1693.67
466.47	1689.57
466.68	1740.77
466.88	1849.32
467.08	1708.01
467.29	1781.73
467.49	1765.35
467.69	1767.40
467.89	1667.05
468.10	1769.44
468.30	1755.11
468.50	1845.22
468.71	1804.26
468.91	1669.09
469.11	1855.46
469.31	1691.62
469.52	1677.29
469.72	1845.22
469.92	1857.51
470.13	1705.96
470.33	1726.44
470.53	1896.42
470.73	2043.87
470.94	2281.44
471.14	2306.01
471.34	2582.49
471.54	2414.56
471.75	2246.62
471.95	2176.99
472.15	2205.66
472.36	2062.30
472.56	2054.11
472.76	1964.00
472.96	2013.15
473.17	1906.66
473.37	1849.32
473.57	1802.21
473.77	1845.22
473.98	1740.77
474.18	1718.25
474.38	1914.85
474.58	1742.82
474.79	1679.33
474.99	1740.77
475.19	1765.35
475.39	1701.86
475.60	1832.93
475.80	1761.25
476.00	1701.86
476.20	1675.24
476.41	1800.16
476.61	1839.08
476.81	1775.59
477.01	1712.10
477.21	1964.00
477.42	1908.71
477.62	1701.86
477.82	1818.60
478.02	1734.63
478.23	1812.45
478.43	1673.19
478.63	1705.96
478.83	1775.59
479.03	1677.29
479.24	1806.31
479.44	1810.40
479.64	1644.52
479.84	1640.42
480.04	1630.18
480.25	1789.92
480.45	1730.53
480.65	1744.87
480.85	1896.42
481.06	1732.58
481.26	1748.97
481.46	1708.01
481.66	1753.06
481.86	1660.90
482.06	1738.73
482.27	1673.19
482.47	1656.81
482.67	1714.15
482.87	1734.63
483.07	1748.97
483.28	1755.11
483.48	1632.23
483.68	1669.09
483.88	1609.70
484.08	1587.18
484.29	1681.38
484.49	1765.35
484.69	1652.71
484.89	1839.08
485.09	1697.77
485.29	1699.81
485.50	1720.29
485.70	1689.57
485.90	1755.11
486.10	1753.06
486.30	1730.53
486.50	1841.12
486.71	1730.53
486.91	1779.68
487.11	1656.81
487.31	1701.86
487.51	1783.78
487.71	1675.24
487.91	1658.85
488.12	1626.09
488.32	1630.18
488.52	1728.49
488.72	1667.05
488.92	1677.29
489.12	1763.30
489.32	1773.54
489.53	1767.40
489.73	1720.29
489.93	1812.45
490.13	1703.91
490.33	1654.76
490.53	1699.81
490.73	1791.97
490.94	1648.61
491.14	1759.21
491.34	1904.61
491.54	2158.56
491.74	2598.87
491.94	2871.25
492.14	3106.77
492.34	3028.95
492.54	2799.57
492.75	2551.77
492.95	2387.93
493.15	2316.25
493.35	2371.55
493.55	2260.96
493.75	2113.50
493.95	2166.75
494.15	2039.78
494.35	1855.46
494.56	1828.84
494.76	1837.03
494.96	1906.66
495.16	1802.21
495.36	1675.24
495.56	1755.11
495.76	1753.06
495.96	1726.44
496.16	1662.95
496.36	1787.88
496.56	1714.15
496.77	1665.00
496.97	1708.01
497.17	1791.97
497.37	1644.52
497.57	1665.00
497.77	1751.01
497.97	1656.81
498.17	1722.34
498.37	1611.75
498.57	1757.16
498.77	1767.40
498.97	1773.54
499.17	1714.15
499.38	1714.15
499.58	1724.39
499.78	1759.21
499.98	1834.98
500.18	1683.43
500.38	1796.07
500.58	1896.42
500.78	2607.06
500.98	4622.27
501.18	5939.11
501.38	6854.55
501.58	7251.86
501.78	6766.49
501.98	5597.10
502.18	5054.39
502.38	4695.99
502.58	4091.84
502.78	3837.89
502.98	3721.16
503.18	3534.79
503.38	3080.14
503.59	2891.73
503.79	2664.41
503.99	2549.72
504.19	2164.70
504.39	2299.87
504.59	2185.18
504.79	2105.31
504.99	2045.92
505.19	1920.99
505.39	1851.36
505.59	1994.72
505.79	1933.28
505.99	1863.65
506.19	1794.02
506.39	1855.46
506.59	1794.02
506.79	1753.06
506.99	1775.59
507.19	1763.30
507.39	1783.78
507.59	1687.53
507.79	1669.09
507.99	1624.04
508.19	1855.46
508.39	1720.29
508.59	1785.83
508.79	1853.41
508.99	1884.13
509.19	1642.47
509.39	1751.01
509.59	1705.96
509.79	1673.19
509.99	1804.26
510.19	1779.68
510.39	1796.07
510.59	1730.53
510.79	1761.25
510.99	1636.33
511.19	1724.39
511.39	1820.64
511.59	1828.84
511.79	1810.40
511.99	1791.97
512.19	1828.84
512.38	1798.12
512.58	1693.67
512.78	1796.07
512.98	1779.68
513.18	1816.55
513.38	1585.13
513.58	1787.88
513.78	1726.44
513.98	1730.53
514.18	1763.30
514.38	1722.34
514.58	1656.81
514.78	1624.04
514.98	1654.76
515.18	1779.68
515.38	1605.61
515.58	1912.80
515.78	1746.92
515.98	1701.86
516.18	1808.36
516.38	1695.72
516.57	1804.26
516.77	1705.96
516.97	1722.34
517.17	1703.91
517.37	1640.42
517.57	1791.97
517.77	1751.01
517.97	1652.71
518.17	1677.29
518.37	1748.97
518.57	1677.29
518.77	1685.48
518.97	1765.35
519.16	1757.16
519.36	1736.68
519.56	1677.29
519.76	1693.67
519.96	1726.44
520.16	1779.68
520.36	1804.26
520.56	1798.12
520.76	1703.91
520.96	1724.39
521.16	1755.11
521.35	1804.26
521.55	1859.56
521.75	1748.97
521.95	1697.77
522.15	1763.30
522.35	1652.71
522.55	1654.76
522.75	1714.15
522.95	1685.48
523.14	1699.81
523.34	1847.27
523.54	1767.40
523.74	1767.40
523.94	1730.53
524.14	1630.18
524.34	1767.40
524.54	1822.69
524.73	1718.25
524.93	1796.07
525.13	1787.88
525.33	1611.75
525.53	1834.98
525.73	1781.73
525.93	1703.91
526.13	1753.06
526.32	1724.39
526.52	1708.01
526.72	1853.41
526.92	1751.01
527.12	1806.31
527.32	1587.18
527.52	1738.73
527.71	1740.77
527.91	1734.63
528.11	1738.73
528.31	1775.59
528.51	1740.77
528.71	1794.02
528.90	1746.92
529.10	1812.45
529.30	1839.08
529.50	1662.95
529.70	1779.68
529.90	1640.42
530.09	1767.40
530.29	1714.15
530.49	1705.96
530.69	1824.74
530.89	1775.59
531.09	1828.84
531.28	1699.81
531.48	1888.23
531.68	1730.53
531.88	1705.96
532.08	1812.45
532.28	1677.29
532.47	1753.06
532.67	1804.26
532.87	1808.36
533.07	1685.48
533.27	1847.27
533.46	1716.20
533.66	1796.07
533.86	1740.77
534.06	1734.63
534.26	1763.30
534.45	1699.81
534.65	1751.01
534.85	1701.86
535.05	1652.71
535.25	1796.07
535.44	1624.04
535.64	1763.30
535.84	1718.25
536.04	1771.49
536.24	1681.38
536.43	1708.01
536.63	1767.40
536.83	1683.43
537.03	1791.97
537.22	1568.74
537.42	1621.99
537.62	1773.54
537.82	1798.12
538.02	1779.68
538.21	1796.07
538.41	1933.28
538.61	1800.16
538.81	1746.92
539.00	1861.60
539.20	1703.91
539.40	1763.30
539.60	1746.92
539.79	1732.58
539.99	1775.59
540.19	1691.62
540.39	1775.59
540.58	1753.06
540.78	1751.01
540.98	1699.81
541.18	1820.64
541.37	1767.40
541.57	1708.01
541.77	1730.53
541.97	1626.09
542.16	1798.12
542.36	1716.20
542.56	1751.01
542.76	1847.27
542.95	1808.36
543.15	1839.08
543.35	1765.35
543.54	1662.95
543.74	1742.82
543.94	1863.65
544.14	1587.18
544.33	1806.31
544.53	1722.34
544.73	1791.97
544.93	1708.01
545.12	1744.87
545.32	1757.16
545.52	1769.44
545.71	1699.81
545.91	1726.44
546.11	1667.05
546.30	1683.43
546.50	1748.97
546.70	1738.73
546.90	1798.12
547.09	1648.61
547.29	1736.68
547.49	1763.30
547.68	1746.92
547.88	1736.68
548.08	1748.97
548.27	2226.14
548.47	1675.24
548.67	1783.78
548.87	1755.11
549.06	1722.34
549.26	1769.44
549.46	1751.01
549.65	1697.77
549.85	1701.86
550.05	1826.79
550.24	1701.86
550.44	1740.77
550.64	1746.92
550.83	1779.68
551.03	1779.68
551.23	1732.58
551.42	1761.25
551.62	1691.62
551.82	1718.25
552.01	1720.29
552.21	1789.92
552.41	1689.57
552.60	1769.44
552.80	1730.53
553.00	1685.48
553.19	1718.25
553.39	1845.22
553.59	1652.71
553.78	1841.12
553.98	1746.92
554.17	1744.87
554.37	1783.78
554.57	1812.45
554.76	1730.53
554.96	1681.38
555.16	1763.30
555.35	1775.59
555.55	1708.01
555.75	1738.73
555.94	1722.34
556.14	1650.66
556.33	1775.59
556.53	1693.67
556.73	1736.68
556.92	1748.97
557.12	1863.65
557.32	1806.31
557.51	1839.08
557.71	1783.78
557.90	1855.46
558.10	1783.78
558.30	1755.11
558.49	1738.73
558.69	1820.64
558.88	1669.09
559.08	1787.88
559.28	1726.44
559.47	1714.15
559.67	1763.30
559.86	1875.94
560.06	1697.77
560.26	1701.86
560.45	1814.50
560.65	1806.31
560.84	1796.07
561.04	1677.29
561.24	1777.64
561.43	1710.05
561.63	1785.83
561.82	1716.20
562.02	1789.92
562.22	1724.39
562.41	1697.77
562.61	1724.39
562.80	1757.16
563.00	1812.45
563.19	1796.07
563.39	1806.31
563.59	1730.53
563.78	1705.96
563.98	1671.14
564.17	1693.67
564.37	1628.14
564.56	1757.16
564.76	1656.81
564.96	1769.44
565.15	1765.35
565.35	1877.99
565.54	1710.05
565.74	1783.78
565.93	1789.92
566.13	1714.15
566.32	1818.60
566.52	1755.11
566.71	1636.33
566.91	1818.60
567.11	1753.06
567.30	1667.05
567.50	1816.55
567.69	1763.30
567.89	1783.78
568.08	1710.05
568.28	1665.00
568.47	1652.71
568.67	1781.73
568.86	1681.38
569.06	1771.49
569.25	1742.82
569.45	1763.30
569.64	1648.61
569.84	1732.58
570.04	1757.16
570.23	1701.86
570.43	1705.96
570.62	1812.45
570.82	1857.51
571.01	1632.23
571.21	1714.15
571.40	1724.39
571.60	1714.15
571.79	1796.07
571.99	1828.84
572.18	1689.57
572.38	1746.92
572.57	1779.68
572.77	1779.68
572.96	1861.60
573.16	1714.15
573.35	1804.26
573.55	1884.13
573.74	1820.64
573.94	1673.19
574.13	1757.16
574.33	1730.53
574.52	1759.21
574.71	1746.92
574.91	1859.56
575.10	1660.90
575.30	1742.82
575.49	1714.15
575.69	1755.11
575.88	1802.21
576.08	1767.40
576.27	1726.44
576.47	1767.40
576.66	1818.60
576.86	1775.59
577.05	1802.21
577.25	1789.92
577.44	1886.18
577.64	1796.07
577.83	1796.07
578.02	1746.92
578.22	1824.74
578.41	1808.36
578.61	1765.35
578.80	1703.91
579.00	1746.92
579.19	1710.05
579.39	1806.31
579.58	1853.41
579.77	1732.58
579.97	1794.02
580.16	1896.42
580.36	1724.39
580.55	1796.07
580.75	1736.68
580.94	1724.39
581.13	1843.17
581.33	1871.84
581.52	1775.59
581.72	1853.41
581.91	1783.78
582.11	1746.92
582.30	1794.02
582.49	1822.69
582.69	1804.26
582.88	1787.88
583.08	1732.58
583.27	1871.84
583.47	1779.68
583.66	1718.25
583.85	1703.91
584.05	1718.25
584.24	1763.30
584.44	1787.88
584.63	1910.75
584.82	1834.98
585.02	1871.84
585.21	1837.03
585.41	1843.17
585.60	1796.07
585.79	1972.19
585.99	1933.28
586.18	1933.28
586.37	2265.05
586.57	3360.72
586.76	9754.48
586.96	24546.95
587.15	34280.95
587.34	40226.20
587.54	42511.74
587.73	37068.23
587.93	26257.01
588.12	21534.39
588.31	18372.33
588.51	16523.01
588.70	15367.96
588.89	14096.17
589.09	12601.15
589.28	11026.26
589.47	9336.69
589.67	8013.70
589.86	6496.16
590.06	5001.14
590.25	3837.89
590.44	3090.38
590.64	2607.06
590.83	2283.49
591.02	2107.36
591.22	1980.39
591.41	1937.38
591.60	1822.69
591.80	1972.19
591.99	1751.01
592.18	1785.83
592.38	1863.65
592.57	1757.16
592.76	1701.86
592.96	1734.63
593.15	1744.87
593.34	1843.17
593.54	1769.44
593.73	1806.31
593.92	1783.78
594.12	1746.92
594.31	1699.81
594.50	1810.40
594.70	1818.60
594.89	1916.90
595.08	1691.62
595.28	1826.79
595.47	1974.24
595.66	1812.45
595.86	1787.88
596.05	1755.11
596.24	1650.66
596.43	1822.69
596.63	1865.70
596.82	1753.06
597.01	1832.93
597.21	1847.27
597.40	1794.02
597.59	1779.68
597.79	1804.26
597.98	1746.92
598.17	1789.92
598.36	1781.73
598.56	1808.36
598.75	1665.00
598.94	1736.68
599.14	1822.69
599.33	1687.53
599.52	1855.46
599.71	1802.21
599.91	1773.54
600.10	1777.64
600.29	1761.25
600.48	1812.45
600.68	1767.40
600.87	1767.40
601.06	1759.21
601.26	1755.11
601.45	1748.97
601.64	1753.06
601.83	1896.42
602.03	1703.91
602.22	1681.38
602.41	1810.40
602.60	1945.57
602.80	1722.34
602.99	1736.68
603.18	1730.53
603.37	1748.97
603.57	1712.10
603.76	1853.41
603.95	1824.74
604.14	1779.68
604.34	1662.95
604.53	1777.64
604.72	1699.81
604.91	1892.32
605.10	1843.17
605.30	1656.81
605.49	1837.03
605.68	1810.40
605.87	1726.44
606.07	1691.62
606.26	1681.38
606.45	1730.53
606.64	1791.97
606.84	1724.39
607.03	1740.77
607.22	1787.88
607.41	1767.40
607.60	1722.34
607.80	1822.69
607.99	1742.82
608.18	1714.15
608.37	1794.02
608.56	1685.48
608.76	1726.44
608.95	1873.89
609.14	1685.48
609.33	1837.03
609.52	1703.91
609.72	1771.49
609.91	1744.87
610.10	1759.21
610.29	1931.23
610.48	1687.53
610.68	1753.06
610.87	1753.06
611.06	1787.88
611.25	1718.25
611.44	1746.92
611.63	1693.67
611.83	1689.57
612.02	1697.77
612.21	1742.82
612.40	1665.00
612.59	1665.00
612.79	1699.81
612.98	1701.86
613.17	1796.07
613.36	1757.16
613.55	1812.45
613.74	1708.01
613.93	1761.25
614.13	1665.00
614.32	1710.05
614.51	1763.30
614.70	1732.58
614.89	1748.97
615.08	1730.53
615.28	2076.64
615.47	1667.05
615.66	1730.53
615.85	1775.59
616.04	1894.37
616.23	1673.19
616.42	1728.49
616.62	1746.92
616.81	1755.11
617.00	1712.10
617.19	1861.60
617.38	1683.43
617.57	1781.73
617.76	1746.92
617.95	1740.77
618.15	1744.87
618.34	1818.60
618.53	1615.85
618.72	1798.12
618.91	1812.45
619.10	1746.92
619.29	1726.44
619.48	1689.57
619.68	1738.73
619.87	1728.49
620.06	1667.05
620.25	1849.32
620.44	1673.19
620.63	1683.43
620.82	1730.53
621.01	1759.21
621.20	1773.54
621.39	1740.77
621.59	1703.91
621.78	1679.33
621.97	1751.01
622.16	1773.54
622.35	1775.59
622.54	1755.11
622.73	1886.18
622.92	1583.08
623.11	1767.40
623.30	1687.53
623.49	1769.44
623.68	1714.15
623.88	1781.73
624.07	1665.00
624.26	1738.73
624.45	1720.29
624.64	1701.86
624.83	1718.25
625.02	1763.30
625.21	1728.49
625.40	1689.57
625.59	1822.69
625.78	1785.83
625.97	1841.12
626.16	1751.01
626.35	1744.87
626.54	1660.90
626.74	1783.78
626.93	1697.77
627.12	1724.39
627.31	1791.97
627.50	1783.78
627.69	1802.21
627.88	1757.16
628.07	1632.23
628.26	1628.14
628.45	1757.16
628.64	1689.57
628.83	1738.73
629.02	1720.29
629.21	1740.77
629.40	1726.44
629.59	1693.67
629.78	1615.85
629.97	1701.86
630.16	1753.06
630.35	1654.76
630.54	1740.77
630.73	1755.11
630.92	1693.67
631.11	1697.77
631.30	1695.72
631.49	1816.55
631.68	1708.01
631.87	1742.82
632.06	1667.05
632.25	1890.28
632.44	1765.35
632.63	1746.92
632.82	1630.18
633.01	1697.77
633.20	1765.35
633.39	1734.63
633.58	1648.61
633.77	1697.77
633.96	1777.64
634.15	1775.59
634.34	1757.16
634.53	1759.21
634.72	1689.57
634.91	1630.18
635.10	1779.68
635.29	1701.86
635.48	1728.49
635.67	1701.86
635.86	1712.10
636.05	1763.30
636.24	1726.44
636.43	1728.49
636.62	1845.22
636.81	1544.17
637.00	1665.00
637.19	1759.21
637.38	1730.53
637.57	1705.96
637.76	1767.40
637.95	1712.10
638.14	1648.61
638.33	1761.25
638.52	1681.38
638.71	1660.90
638.89	1591.27
639.08	1910.75
639.27	1759.21
639.46	1693.67
639.65	1828.84
639.84	1761.25
640.03	1818.60
640.22	1771.49
640.41	1849.32
640.60	1693.67
640.79	1726.44
640.98	1726.44
641.17	1810.40
641.36	1734.63
641.55	1820.64
641.74	1699.81
641.92	1630.18
642.11	1697.77
642.30	1771.49
642.49	1681.38
642.68	1689.57
642.87	1787.88
643.06	1708.01
643.25	1771.49
643.44	1630.18
643.63	1687.53
643.82	1771.49
644.00	1658.85
644.19	1665.00
644.38	1689.57
644.57	1718.25
644.76	1791.97
644.95	1730.53
645.14	1718.25
645.33	1716.20
645.52	1710.05
645.71	1656.81
645.89	1599.46
646.08	1755.11
646.27	1730.53
646.46	1920.99
646.65	1722.34
646.84	1740.77
647.03	1720.29
647.22	1757.16
647.40	1742.82
647.59	1726.44
647.78	1650.66
647.97	1718.25
648.16	1658.85
648.35	1820.64
648.54	1828.84
648.73	1689.57
648.91	1769.44
649.10	1726.44
649.29	1742.82
649.48	1781.73
649.67	1769.44
649.86	1753.06
650.05	1630.18
650.23	1822.69
650.42	1644.52
650.61	1798.12
650.80	1734.63
650.99	1855.46
651.18	1828.84
651.36	1818.60
651.55	1634.28
651.74	1787.88
651.93	1748.97
652.12	1734.63
652.31	1732.58
652.49	1746.92
652.68	1720.29
652.87	1787.88
653.06	1767.40
653.25	1826.79
653.44	1757.16
653.62	1814.50
653.81	1689.57
654.00	1656.81
654.19	1724.39
654.38	1806.31
654.56	1746.92
654.75	1730.53
654.94	1699.81
655.13	1746.92
655.32	1759.21
655.51	1705.96
655.69	1744.87
655.88	1765.35
656.07	1626.09
656.26	1726.44
656.45	1679.33
656.63	1738.73
656.82	1685.48
657.01	1738.73
657.20	1671.14
657.38	1789.92
657.57	1757.16
657.76	1632.23
657.95	1710.05
658.14	1712.10
658.32	1748.97
658.51	1665.00
658.70	1744.87
658.89	1742.82
659.08	1677.29
659.26	1834.98
659.45	1587.18
659.64	1734.63
659.83	1662.95
660.01	1959.91
660.20	1742.82
660.39	1810.40
660.58	1574.89
660.76	1771.49
660.95	1576.94
661.14	1673.19
661.33	1669.09
661.51	1751.01
661.70	1708.01
661.89	1779.68
662.08	1728.49
662.26	1748.97
662.45	1601.51
662.64	1800.16
662.83	1814.50
663.01	1665.00
663.20	1736.68
663.39	1845.22
663.58	1718.25
663.76	1806.31
663.95	1804.26
664.14	1675.24
664.32	1726.44
664.51	1748.97
664.70	1619.94
664.89	1665.00
665.07	1685.48
665.26	1761.25
665.45	1644.52
665.64	1773.54
665.82	1800.16
666.01	1769.44
666.20	1615.85
666.38	1830.88
666.57	1785.83
666.76	2222.05
666.95	4474.81
667.13	10379.11
667.32	15566.61
667.51	18204.39
667.69	19267.29
667.88	18040.56
668.07	12470.08
668.25	9576.30
668.44	8198.02
668.63	7432.08
668.81	6963.09
669.00	6291.36
669.19	5750.70
669.38	5146.55
669.56	4769.72
669.75	4005.83
669.94	3442.64
670.12	2918.36
670.31	2471.90
670.50	2297.82
670.68	2099.17
670.87	2002.91
671.06	1804.26
671.24	1740.77
671.43	1920.99
671.62	1771.49
671.80	1746.92
671.99	1710.05
672.18	1798.12
672.36	1802.21
672.55	1808.36
672.74	1673.19
672.92	1689.57
673.11	1796.07
673.29	1679.33
673.48	1714.15
673.67	1763.30
673.85	1751.01
674.04	1746.92
674.23	1751.01
674.41	1767.40
674.60	1687.53
674.79	1644.52
674.97	1736.68
675.16	1703.91
675.34	1828.84
675.53	1675.24
675.72	1771.49
675.90	1873.89
676.09	1757.16
676.28	1751.01
676.46	1669.09
676.65	1806.31
676.83	1621.99
677.02	1740.77
677.21	1701.86
677.39	1720.29
677.58	1677.29
677.77	1751.01
677.95	1687.53
678.14	1646.57
678.32	1640.42
678.51	1638.38
678.70	1826.79
678.88	1648.61
679.07	1857.51
679.25	1677.29
679.44	1697.77
679.63	1611.75
679.81	1710.05
680.00	1781.73
680.18	1837.03
680.37	1761.25
680.55	1777.64
680.74	1671.14
680.93	1742.82
681.11	1697.77
681.30	1689.57
681.48	1714.15
681.67	1697.77
681.85	1746.92
682.04	1724.39
682.23	1773.54
682.41	1710.05
682.60	1603.56
682.78	1742.82
682.97	1695.72
683.15	1710.05
683.34	1714.15
683.53	1804.26
683.71	1665.00
683.90	1830.88
684.08	1771.49
684.27	1703.91
684.45	1794.02
684.64	1886.18
684.82	1695.72
685.01	1769.44
685.19	1669.09
685.38	1880.04
685.57	1765.35
685.75	1738.73
685.94	1716.20
686.12	1722.34
686.31	1669.09
686.49	1802.21
686.68	1632.23
686.86	1779.68
687.05	1794.02
687.23	1798.12
687.42	1734.63
687.60	1705.96
687.79	1724.39
687.97	1875.94
688.16	1787.88
688.34	1810.40
688.53	1562.60
688.71	1701.86
688.90	1734.63
689.08	1701.86
689.27	1619.94
689.45	1714.15
689.64	1800.16
689.82	1753.06
690.01	1736.68
690.19	1734.63
690.38	1683.43
690.56	1771.49
690.75	1687.53
690.93	1710.05
691.12	1677.29
691.30	1681.38
691.49	1654.76
691.67	1652.71
691.86	1755.11
692.04	1714.15
692.23	1697.77
692.41	1769.44
692.60	1812.45
692.78	1769.44
692.97	1716.20
693.15	1804.26
693.34	1843.17
693.52	1800.16
693.71	1693.67
693.89	1732.58
694.08	1689.57
694.26	1796.07
694.44	1759.21
694.63	1705.96
694.81	1654.76
695.00	1648.61
695.18	1757.16
695.37	1845.22
695.55	1746.92
695.74	1681.38
695.92	1667.05
696.10	1736.68
696.29	1658.85
696.47	1652.71
696.66	1675.24
696.84	1712.10
697.03	1730.53
697.21	1791.97
697.40	2363.36
697.58	1765.35
697.76	1703.91
697.95	1730.53
698.13	1669.09
698.32	1591.27
698.50	1767.40
698.68	1796.07
698.87	1855.46
699.05	1867.75
699.24	1720.29
699.42	1656.81
699.61	1730.53
699.79	1800.16
699.97	1712.10
700.16	1677.29
700.34	1677.29
700.53	1718.25
700.71	1761.25
700.89	1681.38
701.08	1701.86
701.26	1710.05
701.45	2140.13
701.63	1652.71
701.81	1693.67
702.00	1744.87
702.18	1669.09
702.37	1714.15
702.55	1665.00
702.73	1722.34
702.92	1634.28
703.10	1767.40
703.28	1705.96
703.47	1634.28
703.65	1761.25
703.84	1726.44
704.02	1734.63
704.20	1837.03
704.39	1644.52
704.57	1640.42
704.75	1804.26
704.94	1781.73
705.12	1710.05
705.30	1775.59
705.49	2236.38
705.67	4298.69
705.86	9533.29
706.04	12562.24
706.22	14546.72
706.41	15501.08
706.59	13797.17
706.77	9615.21
706.96	7403.41
707.14	6606.75
707.32	6008.74
707.51	5713.83
707.69	4915.12
707.87	4263.87
708.06	3479.50
708.24	3039.19
708.42	2475.99
708.61	2293.72
708.79	1955.81
708.97	1851.36
709.16	1843.17
709.34	1808.36
709.52	1791.97
709.71	1681.38
709.89	1730.53
710.07	1656.81
710.26	1675.24
710.44	1740.77
710.62	1806.31
710.80	1660.90
710.99	1777.64
711.17	1802.21
711.35	1687.53
711.54	1665.00
711.72	1789.92
711.90	1738.73
712.09	1730.53
712.27	1675.24
712.45	1730.53
712.63	1662.95
712.82	1730.53
713.00	1787.88
713.18	1761.25
713.37	1800.16
713.55	1820.64
713.73	1691.62
713.91	1699.81
714.10	1669.09
714.28	1683.43
714.46	1757.16
714.65	1767.40
714.83	1746.92
715.01	1769.44
715.19	1710.05
715.38	1718.25
715.56	1705.96
715.74	1720.29
715.92	1693.67
716.11	1806.31
716.29	1652.71
716.47	1759.21
716.65	1695.72
716.84	1671.14
717.02	1753.06
717.20	1587.18
717.38	1701.86
717.57	1746.92
717.75	1656.81
717.93	1710.05
718.11	1730.53
718.30	1701.86
718.48	1736.68
718.66	1742.82
718.84	1699.81
719.03	1689.57
719.21	1751.01
719.39	1775.59
719.57	1779.68
719.75	1755.11
719.94	1654.76
720.12	1730.53
720.30	1767.40
720.48	1767.40
720.67	1648.61
720.85	1654.76
721.03	1693.67
721.21	1621.99
721.39	1808.36
721.58	1665.00
721.76	1781.73
721.94	1730.53
722.12	1767.40
722.30	1853.41
722.49	1732.58
722.67	1691.62
722.85	1726.44
723.03	1603.56
723.21	1714.15
723.40	1673.19
723.58	1779.68
723.76	1736.68
723.94	1806.31
724.12	1730.53
724.30	1789.92
724.49	1759.21
724.67	1644.52
724.85	1722.34
725.03	1523.69
725.21	1703.91
725.40	1806.31
725.58	1658.85
725.76	1710.05
725.94	1802.21
726.12	1658.85
726.30	1669.09
726.49	1746.92
726.67	1695.72
726.85	1652.71
727.03	1734.63
727.21	2146.27
727.39	3016.66
727.57	3901.38
727.76	4263.87
727.94	4437.95
728.12	4327.36
728.30	3729.35
728.48	3002.32
728.66	2723.80
728.84	2537.43
729.03	2303.96
729.21	2226.14
729.39	1972.19
729.57	1970.15
729.75	1771.49
729.93	1849.32
730.11	1683.43
730.30	1644.52
730.48	1703.91
730.66	1791.97
730.84	1705.96
731.02	1705.96
731.20	1665.00
731.38	1728.49
731.56	1658.85
731.74	1624.04
731.93	1718.25
732.11	1675.24
732.29	1660.90
732.47	1746.92
732.65	1771.49
732.83	1765.35
733.01	1828.84
733.19	1634.28
733.37	1775.59
733.56	1740.77
733.74	1730.53
733.92	1775.59
734.10	1726.44
734.28	1779.68
734.46	1626.09
734.64	1675.24
734.82	1726.44
735.00	1716.20
735.18	1703.91
735.36	1712.10
735.54	1710.05
735.73	1742.82
735.91	1777.64
736.09	1710.05
736.27	1755.11
736.45	1736.68
736.63	1626.09
736.81	1656.81
736.99	1740.77
737.17	1787.88
737.35	1705.96
737.53	1751.01
737.71	1759.21
737.89	1771.49
738.07	1628.14
738.25	1699.81
738.43	1605.61
738.61	1683.43
738.80	1613.80
738.98	1652.71
739.16	1658.85
739.34	1671.14
739.52	1798.12
739.70	1705.96
739.88	1791.97
740.06	1783.78
740.24	1656.81
740.42	1800.16
740.60	1658.85
740.78	1699.81
740.96	1654.76
741.14	1726.44
741.32	1669.09
741.50	1648.61
741.68	1789.92
741.86	1751.01
742.04	1597.42
742.22	1558.50
742.40	1665.00
742.58	1781.73
742.76	1665.00
742.94	1781.73
743.12	1624.04
743.30	1677.29
743.48	1734.63
743.66	1720.29
743.84	1640.42
744.02	1746.92
744.20	1669.09
744.38	1662.95
744.56	1705.96
744.74	1794.02
744.92	1724.39
745.10	1826.79
745.28	1785.83
745.46	1832.93
745.64	1720.29
745.82	1765.35
746.00	1757.16
746.18	1726.44
746.36	1677.29
746.54	1669.09
746.72	1679.33
746.90	1593.32
747.08	1755.11
747.26	1716.20
747.44	1812.45
747.62	1734.63
747.80	1781.73
747.98	1728.49
748.15	1705.96
748.33	1773.54
748.51	1798.12
748.69	1724.39
748.87	1656.81
749.05	1718.25
749.23	1638.38
749.41	1746.92
749.59	1683.43
749.77	1798.12
749.95	1685.48
750.13	1685.48
750.31	1742.82
750.49	1671.14
750.67	1714.15
750.85	1826.79
751.03	1685.48
751.20	1812.45
751.38	1714.15
751.56	1718.25
751.74	1644.52
751.92	1712.10
752.10	1644.52
752.28	1800.16
752.46	1617.90
752.64	1675.24
752.82	1773.54
753.00	1781.73
753.18	1775.59
753.35	1667.05
753.53	1691.62
753.71	1687.53
753.89	1800.16
754.07	1708.01
754.25	1769.44
754.43	1630.18
754.61	1679.33
754.79	1753.06
754.97	1685.48
755.14	1681.38
755.32	1542.12
755.50	1753.06
755.68	1730.53
755.86	1714.15
756.04	1714.15
756.22	1583.08
756.40	1757.16
756.57	1841.12
756.75	1742.82
756.93	1808.36
757.11	1710.05
757.29	1665.00
757.47	1734.63
757.65	1636.33
757.82	1560.55
758.00	1662.95
758.18	1665.00
758.36	1669.09
758.54	1810.40
758.72	1654.76
758.90	1759.21
759.07	1693.67
759.25	1660.90
759.43	1748.97
759.61	1671.14
759.79	2197.47
759.97	1734.63
760.15	1673.19
760.32	1689.57
760.50	1730.53
760.68	1789.92
760.86	1685.48
761.04	1767.40
761.22	1720.29
761.39	1718.25
761.57	1703.91
761.75	1746.92
761.93	1720.29
762.11	1691.62
762.28	1716.20
762.46	1675.24
762.64	1710.05
762.82	1642.47
763.00	1710.05
763.18	1734.63
763.35	1589.22
763.53	1740.77
763.71	1785.83
763.89	1816.55
764.07	1701.86
764.24	1722.34
764.42	1783.78
764.60	1740.77
764.78	1722.34
764.96	1806.31
765.13	1773.54
765.31	1710.05
765.49	1724.39
765.67	1701.86
765.84	1732.58
766.02	1695.72
766.20	1662.95
766.38	1669.09
766.56	1722.34
766.73	1689.57
766.91	1693.67
767.09	1697.77
767.27	1761.25
767.44	1673.19
767.62	1753.06
767.80	1726.44
767.98	1693.67
768.15	1722.34
768.33	1765.35
768.51	1757.16
768.69	1751.01
768.87	1757.16
769.04	1712.10
769.22	1910.75
769.40	1832.93
769.58	1912.80
769.75	1789.92
769.93	1689.57
770.11	1722.34
770.28	1624.04
770.46	1693.67
770.64	1837.03
770.82	1697.77
770.99	1746.92
771.17	1728.49
771.35	1652.71
771.53	1726.44
771.70	1644.52
771.88	1687.53
772.06	1708.01
772.23	1722.34
772.41	1714.15
772.59	1732.58
772.77	1611.75
772.94	1773.54
773.12	1748.97
773.30	1669.09
773.47	1738.73
773.65	1705.96
773.83	1812.45
774.01	1783.78
774.18	1642.47
774.36	1738.73
774.54	1665.00
774.71	1759.21
774.89	1628.14
775.07	1628.14
775.24	1695.72
775.42	1726.44
775.60	1845.22
775.78	1714.15
775.95	1654.76
776.13	1656.81
776.31	1648.61
776.48	1714.15
776.66	1853.41
776.84	1665.00
777.01	1701.86
777.19	1753.06
777.37	1671.14
777.54	1734.63
777.72	1882.08
777.90	1742.82
778.07	1701.86
778.25	1877.99
778.43	1769.44
778.60	1669.09
778.78	1744.87
778.96	1775.59
779.13	1681.38
779.31	1765.35
779.49	1691.62
779.66	1789.92
779.84	1736.68
780.01	1648.61
780.19	1607.66
780.37	1779.68
780.54	1742.82
780.72	1675.24
780.90	1677.29
781.07	1705.96
781.25	1691.62
781.43	1781.73
781.60	1755.11
781.78	1765.35
781.95	1732.58
782.13	1574.89
782.31	1718.25
782.48	1624.04
782.66	1742.82
782.83	1828.84
783.01	1722.34
783.19	1724.39
783.36	1697.77
783.54	1644.52
783.72	1746.92
783.89	1693.67
784.07	1708.01
784.24	1773.54
784.42	1787.88
784.60	1761.25
784.77	1773.54
784.95	1667.05
785.12	1724.39
785.30	1738.73
785.47	1767.40
785.65	1671.14
785.83	1816.55
786.00	1710.05
786.18	1734.63
786.35	1632.23
786.53	1681.38
786.71	1773.54
786.88	1673.19
787.06	1652.71
787.23	1665.00
787.41	1601.51
787.58	1730.53
787.76	1654.76
787.94	1748.97
788.11	1720.29
788.29	1634.28
788.46	1693.67
788.64	1619.94
788.81	1714.15
788.99	1642.47
789.16	1632.23
789.34	1722.34
789.52	1632.23
789.69	1642.47
789.87	1683.43
790.04	1681.38
790.22	1728.49
790.39	1806.31
790.57	1658.85
790.74	1626.09
790.92	1703.91
791.09	1634.28
791.27	1677.29
791.44	1800.16
791.62	1701.86
791.79	1701.86
791.97	1724.39
792.15	1882.08
792.32	1732.58
792.50	1796.07
792.67	1746.92
792.85	1755.11
793.02	1740.77
793.20	1734.63
793.37	1669.09
793.55	1732.58
793.72	1615.85
793.90	1716.20
794.07	1603.56
794.25	1628.14
794.42	1685.48
794.60	1675.24
794.77	1789.92
794.95	1726.44
795.12	1718.25
795.30	1701.86
795.47	1613.80
795.65	1865.70
795.82	1753.06
796.00	1699.81
796.17	1710.05
796.34	1646.57
796.52	1730.53
796.69	1789.92
796.87	1787.88
797.04	1753.06
797.22	1730.53
797.39	1667.05
797.57	1794.02
797.74	1718.25
797.92	1765.35
798.09	1683.43
798.27	1689.57
798.44	1810.40
798.62	1679.33
798.79	1624.04
798.96	1753.06
799.14	1644.52
799.31	1857.51
799.49	1708.01
799.66	1769.44
799.84	1691.62
800.01	1665.00
800.19	1720.29
800.36	1581.03
800.53	1693.67
800.71	1765.35
800.88	1765.35
801.06	1722.34
801.23	1755.11
801.41	1710.05
801.58	1691.62
801.75	1673.19
801.93	1722.34
802.10	1757.16
802.28	1638.38
802.45	1570.79
802.63	1730.53
802.80	1765.35
802.97	1718.25
803.15	1759.21
803.32	1716.20
803.50	1613.80
803.67	1691.62
803.84	1632.23
804.02	1710.05
804.19	1712.10
804.37	1665.00
804.54	1665.00
804.71	1757.16
804.89	1640.42
805.06	1691.62
805.24	1583.08
805.41	1626.09
805.58	1658.85
805.76	1869.80
805.93	1720.29
806.10	1746.92
806.28	1738.73
806.45	1763.30
806.63	1732.58
806.80	1718.25
806.97	1732.58
807.15	1724.39
807.32	1705.96
807.49	1712.10
807.67	1650.66
807.84	1685.48
808.01	1654.76
808.19	1787.88
808.36	1839.08
808.54	1634.28
808.71	1701.86
808.88	1646.57
809.06	1691.62
809.23	1794.02
809.40	1652.71
809.58	1775.59
809.75	1642.47
809.92	1646.57
810.10	1882.08
810.27	1779.68
810.44	1744.87
810.62	1744.87
810.79	1751.01
810.96	1675.24
811.14	1619.94
811.31	1693.67
811.48	1761.25
811.66	1716.20
811.83	1724.39
812.00	1701.86
812.18	1695.72
812.35	1804.26
812.52	1654.76
812.69	1728.49
812.87	1646.57
813.04	1607.66
813.21	1665.00
813.39	1699.81
813.56	1626.09
813.73	1726.44
813.91	1626.09
814.08	1730.53
814.25	1783.78
814.42	1611.75
814.60	1681.38
814.77	1691.62
814.94	1697.77
815.12	1681.38
815.29	1757.16
815.46	1722.34
815.63	1726.44
815.81	1708.01
815.98	1638.38
816.15	1681.38
816.33	1763.30
816.50	1675.24
816.67	1673.19
816.84	1722.34
817.02	1697.77
817.19	1763.30
817.36	1691.62
817.53	1763.30
817.71	1656.81
817.88	1791.97
818.05	1726.44
818.22	1677.29
818.40	1875.94
818.57	1640.42
818.74	1693.67
818.91	1701.86
819.09	1751.01
819.26	1685.48
819.43	1675.24
819.60	1712.10
819.78	1787.88
819.95	1812.45
820.12	1621.99
820.29	1861.60
820.47	1800.16
820.64	1648.61
820.81	1603.56
820.98	1658.85
821.15	1683.43
821.33	1757.16
821.50	1624.04
821.67	1798.12
821.84	1718.25
822.02	1681.38
822.19	1726.44
822.36	1685.48
822.53	1722.34
822.70	1673.19
822.88	1748.97
823.05	1765.35
823.22	1677.29
823.39	1755.11
823.56	1720.29
823.74	1824.74
823.91	1701.86
824.08	1669.09
824.25	1673.19
824.42	1771.49
824.60	1646.57
824.77	1730.53
824.94	1656.81
825.11	1734.63
825.28	1658.85
825.45	1740.77
825.63	1763.30
825.80	1605.61
825.97	1691.62
826.14	1722.34
826.31	1611.75
826.48	1718.25
826.66	1673.19
826.83	1648.61
827.00	1708.01
827.17	1673.19
827.34	1658.85
827.51	1673.19
827.69	1687.53
827.86	1687.53
828.03	1687.53
828.20	1710.05
828.37	1658.85
828.54	1716.20
828.71	1669.09
828.89	1843.17
829.06	1726.44
829.23	1726.44
829.40	1660.90
829.57	1728.49
829.74	1746.92
829.91	1656.81
830.09	1640.42
830.26	1712.10
830.43	1695.72
830.60	1695.72
830.77	1781.73
830.94	1783.78
831.11	1794.02
831.28	1673.19
831.46	1791.97
831.63	1621.99
831.80	1806.31
831.97	1689.57
832.14	1708.01
832.31	1757.16
832.48	1697.77
832.65	1730.53
832.82	1746.92
832.99	1703.91
833.17	1710.05
833.34	1765.35
833.51	1763.30
833.68	1599.46
833.85	1808.36
834.02	1662.95
834.19	1656.81
834.36	1646.57
834.53	1701.86
834.70	1785.83
834.87	1746.92
835.04	1771.49
835.22	1646.57
835.39	1718.25
835.56	1591.27
835.73	1716.20
835.90	1808.36
836.07	1581.03
836.24	1753.06
836.41	1757.16
836.58	1662.95
836.75	1691.62
836.92	1726.44
837.09	1673.19
837.26	1753.06
837.43	1738.73
837.60	1769.44
837.77	1685.48
837.94	1705.96
838.12	1804.26
838.29	1730.53
838.46	1673.19
838.63	1648.61
838.80	1789.92
838.97	1757.16
839.14	1705.96
839.31	1693.67
839.48	1755.11
839.65	1714.15
839.82	1775.59
839.99	1703.91
840.16	1730.53
840.33	1685.48
840.50	1740.77
840.67	1695.72
840.84	1607.66
841.01	1703.91
841.18	1654.76
841.35	1658.85
841.52	1742.82
841.69	1785.83
841.86	1693.67
842.03	1683.43
842.20	1691.62
842.37	1740.77
842.54	1671.14
842.71	1716.20
842.88	1656.81
843.05	1738.73
843.22	1759.21
843.39	1681.38
843.56	1677.29
843.73	1701.86
843.90	1746.92
844.07	1662.95
844.24	1765.35
844.41	1701.86
844.58	1705.96
844.75	1726.44
844.92	1755.11
845.09	1697.77
845.26	1787.88
845.43	1734.63
845.60	1671.14
845.77	1773.54
845.94	1746.92
846.10	1808.36
846.27	1679.33
846.44	1632.23
846.61	1699.81
846.78	1658.85
846.95	1816.55
847.12	1669.09
847.29	1673.19
847.46	1675.24
847.63	1656.81
847.80	1654.76
847.97	1644.52
848.14	1818.60
848.31	1658.85
848.48	1687.53
848.65	1699.81
848.82	1712.10
848.98	1818.60
849.15	1730.53
849.32	1742.82
849.49	1710.05
849.66	1687.53
849.83	1722.34
850.00	1658.85
850.17	1755.11
850.34	1755.11
850.51	1599.46
850.68	1683.43
850.85	1810.40
851.01	1685.48
851.18	1783.78
851.35	1654.76
851.52	1736.68
851.69	1753.06
851.86	1665.00
852.03	1728.49
852.20	1759.21
852.37	1794.02
852.53	1609.70
852.70	1669.09
852.87	1726.44
853.04	1777.64
853.21	1658.85
853.38	1771.49
853.55	1730.53
853.72	1824.74
853.89	1621.99
854.05	1597.42
854.22	1660.90
854.39	1697.77
854.56	1761.25
854.73	1765.35
854.90	1636.33
855.07	1726.44
855.23	1699.81
855.40	1687.53
855.57	1716.20
855.74	1560.55
855.91	1841.12
856.08	1615.85
856.25	1591.27
856.41	1712.10
856.58	1708.01
856.75	1619.94
856.92	1662.95
857.09	1775.59
857.26	1652.71
857.42	1681.38
857.59	1763.30
857.76	1712.10
857.93	1689.57
858.10	1712.10
858.27	1626.09
858.43	1675.24
858.60	1748.97
858.77	1624.04
858.94	1720.29
859.11	1726.44
859.27	1708.01
859.44	1734.63
859.61	1751.01
859.78	1763.30
859.95	1712.10
860.12	1605.61
860.28	1804.26
860.45	1767.40
860.62	1718.25
860.79	1759.21
860.95	1699.81
861.12	1697.77
861.29	1656.81
861.46	1720.29
861.63	1699.81
861.79	1722.34
861.96	1722.34
862.13	1714.15
862.30	1738.73
862.47	1708.01
862.63	1648.61
862.80	1796.07
862.97	1708.01
863.14	1740.77
863.30	1744.87
863.47	1652.71
863.64	1779.68
863.81	1675.24
863.97	1665.00
864.14	1740.77
864.31	1728.49
864.48	1693.67
864.65	1730.53
864.81	1738.73
864.98	1744.87
865.15	1695.72
865.32	1736.68
865.48	1779.68
865.65	1726.44
865.82	1660.90
865.98	1777.64
866.15	1775.59
866.32	1640.42
866.49	1710.05
866.65	1714.15
866.82	1654.76
866.99	1658.85
867.16	1714.15
867.32	1685.48
867.49	1675.24
867.66	1662.95
867.83	1671.14
867.99	1626.09
868.16	1755.11
868.33	1681.38
868.49	1736.68
868.66	1634.28
868.83	1724.39
868.99	1697.77
869.16	1691.62
869.33	1800.16
869.50	1757.16
869.66	1769.44
869.83	1726.44
870.00	1593.32
870.16	1722.34
870.33	1724.39
870.50	1781.73
870.66	1746.92
870.83	1804.26
871.00	1689.57
871.17	1746.92
871.33	1746.92
871.50	1804.26
871.67	1744.87
871.83	1595.37
872.00	1804.26
872.17	1689.57
872.33	1826.79
872.50	1718.25
872.67	1634.28
872.83	1755.11
873.00	1677.29
873.17	1685.48
873.33	1722.34
873.50	1724.39
873.67	1675.24
873.83	1642.47
874.00	1671.14
874.16	1787.88
874.33	1665.00
874.50	1636.33
874.66	1785.83
874.83	1716.20
875.00	1681.38
875.16	1787.88
875.33	1769.44
875.50	1609.70
875.66	1558.50
875.83	1787.88
875.99	1726.44
876.16	1652.71
876.33	1701.86
876.49	1677.29
876.66	1705.96
876.83	1720.29
876.99	1626.09
877.16	1671.14
877.32	1712.10
877.49	1714.15
877.66	1669.09
877.82	1796.07
877.99	1685.48
878.15	1787.88
878.32	1691.62
878.49	1724.39
878.65	1675.24
878.82	1740.77
878.98	1695.72
879.15	1755.11
879.32	1736.68
879.48	1746.92
879.65	1791.97
879.81	1654.76
879.98	1636.33
880.15	1619.94
880.31	1771.49
880.48	1611.75
880.64	1767.40
880.81	1701.86
880.97	1816.55
881.14	1814.50
881.31	1605.61
881.47	1837.03
881.64	1679.33
881.80	1632.23
881.97	1785.83
882.13	1769.44
882.30	1626.09
882.47	1675.24
882.63	1644.52
882.80	1681.38
882.96	1714.15
883.13	1775.59
883.29	1679.33
883.46	1701.86
883.62	1816.55
883.79	1665.00
883.95	1789.92
884.12	1761.25
884.29	1730.53
884.45	1675.24
884.62	1753.06
884.78	1632.23
884.95	1753.06
885.11	1679.33
885.28	1808.36
885.44	1751.01
885.61	1742.82
885.77	1685.48
885.94	1718.25
886.10	1681.38
886.27	1773.54
886.43	1771.49
886.60	1785.83
886.76	1658.85
886.93	1603.56
887.09	1757.16
887.26	1671.14
887.42	1654.76
887.59	1818.60
887.75	1873.89
887.92	1763.30
888.08	1703.91
888.25	1818.60
888.41	1746.92
888.58	1685.48
888.74	1660.90
888.91	1658.85
>>>>>End Processed Spectral Data<<<<<
