SpectraSuite Data File
++++++++++++++++++++++++++++++++++++
Date: Mon Jun 06 12:52:57 CEST 2016
User: root
Dark Spectrum Present: No
Reference Spectrum Present: No
Number of Sampled Component Spectra: 1
Spectrometers: USB4C02835
Integration Time (usec): 100000 (USB4C02835)
Spectra Averaged: 1 (USB4C02835)
Boxcar Smoothing: 0 (USB4C02835)
Correct for Electrical Dark: No (USB4C02835)
Strobe/Lamp Enabled: No (USB4C02835)
Correct for Detector Non-linearity: No (USB4C02835)
Correct for Stray Light: No (USB4C02835)
Number of Pixels in Processed Spectrum: 3648
>>>>>Begin Processed Spectral Data<<<<<
177.47	1447.91
177.69	1447.91
177.91	1447.91
178.13	1486.83
178.36	1396.71
178.58	1681.38
178.80	1691.62
179.02	1662.95
179.24	1640.42
179.46	1720.29
179.68	1796.07
179.90	1566.70
180.13	1730.53
180.35	1636.33
180.57	1673.19
180.79	1787.88
181.01	1564.65
181.23	1802.21
181.45	1796.07
181.67	1724.39
181.90	1787.88
182.12	1574.89
182.34	1679.33
182.56	1765.35
182.78	1759.21
183.00	1624.04
183.22	1689.57
183.44	1611.75
183.66	1863.65
183.89	1806.31
184.11	1716.20
184.33	1755.11
184.55	1751.01
184.77	1716.20
184.99	1740.77
185.21	1652.71
185.43	1851.36
185.65	1675.24
185.87	1652.71
186.10	1832.93
186.32	1830.88
186.54	1744.87
186.76	1716.20
186.98	1701.86
187.20	1697.77
187.42	1675.24
187.64	1691.62
187.86	1777.64
188.08	1744.87
188.30	1669.09
188.52	1708.01
188.75	1734.63
188.97	1767.40
189.19	1685.48
189.41	1679.33
189.63	1662.95
189.85	1689.57
190.07	1699.81
190.29	1658.85
190.51	1705.96
190.73	1697.77
190.95	1742.82
191.17	1691.62
191.39	1619.94
191.61	1677.29
191.84	1660.90
192.06	1695.72
192.28	1701.86
192.50	1824.74
192.72	1724.39
192.94	1650.66
193.16	1716.20
193.38	1714.15
193.60	1646.57
193.82	1675.24
194.04	1724.39
194.26	1744.87
194.48	1701.86
194.70	1691.62
194.92	1716.20
195.14	1746.92
195.36	1611.75
195.58	1708.01
195.80	1732.58
196.02	1601.51
196.24	1656.81
196.46	1736.68
196.69	1679.33
196.91	1839.08
197.13	1597.42
197.35	1699.81
197.57	1765.35
197.79	1759.21
198.01	1744.87
198.23	1714.15
198.45	1703.91
198.67	1638.38
198.89	1712.10
199.11	1708.01
199.33	1628.14
199.55	1613.80
199.77	1640.42
199.99	1703.91
200.21	1652.71
200.43	1720.29
200.65	1677.29
200.87	1656.81
201.09	1724.39
201.31	1714.15
201.53	1703.91
201.75	1755.11
201.97	1728.49
202.19	1658.85
202.41	1673.19
202.63	1880.04
202.85	1812.45
203.07	1671.14
203.29	1746.92
203.51	1662.95
203.73	1636.33
203.95	1904.61
204.17	1763.30
204.39	1724.39
204.61	1677.29
204.83	1699.81
205.05	1777.64
205.27	1767.40
205.49	1763.30
205.71	1681.38
205.93	1574.89
206.15	1697.77
206.37	1675.24
206.59	1728.49
206.81	1615.85
207.03	1628.14
207.25	1597.42
207.47	1742.82
207.69	1767.40
207.91	1820.64
208.13	1734.63
208.34	1660.90
208.56	1730.53
208.78	1728.49
209.00	1677.29
209.22	1665.00
209.44	1656.81
209.66	1679.33
209.88	1675.24
210.10	1755.11
210.32	1722.34
210.54	1777.64
210.76	1757.16
210.98	1746.92
211.20	1570.79
211.42	1669.09
211.64	1726.44
211.86	1755.11
212.08	1746.92
212.30	1675.24
212.52	1652.71
212.74	1671.14
212.96	1705.96
213.17	1728.49
213.39	1718.25
213.61	1822.69
213.83	1648.61
214.05	1634.28
214.27	1728.49
214.49	1628.14
214.71	1699.81
214.93	1708.01
215.15	1650.66
215.37	1701.86
215.59	1621.99
215.81	1783.78
216.03	1804.26
216.24	1710.05
216.46	1691.62
216.68	1734.63
216.90	1746.92
217.12	1624.04
217.34	1654.76
217.56	1755.11
217.78	1777.64
218.00	1705.96
218.22	1769.44
218.44	1695.72
218.66	1767.40
218.87	1822.69
219.09	1658.85
219.31	1689.57
219.53	1755.11
219.75	1746.92
219.97	1693.67
220.19	1699.81
220.41	1679.33
220.63	1753.06
220.85	1689.57
221.06	1681.38
221.28	1796.07
221.50	1689.57
221.72	1662.95
221.94	1738.73
222.16	1624.04
222.38	1714.15
222.60	1697.77
222.82	1699.81
223.03	1767.40
223.25	1630.18
223.47	1734.63
223.69	1834.98
223.91	1794.02
224.13	1656.81
224.35	1640.42
224.57	1771.49
224.78	1708.01
225.00	1615.85
225.22	1689.57
225.44	1675.24
225.66	1763.30
225.88	1701.86
226.10	1736.68
226.32	1751.01
226.53	1808.36
226.75	1628.14
226.97	1689.57
227.19	1744.87
227.41	1613.80
227.63	1667.05
227.85	1634.28
228.06	1779.68
228.28	1718.25
228.50	1767.40
228.72	1599.46
228.94	1705.96
229.16	1578.98
229.37	1646.57
229.59	1636.33
229.81	1777.64
230.03	1671.14
230.25	1658.85
230.47	1632.23
230.69	1599.46
230.90	1687.53
231.12	1634.28
231.34	1705.96
231.56	1724.39
231.78	1613.80
232.00	1777.64
232.21	1701.86
232.43	1652.71
232.65	1603.56
232.87	1771.49
233.09	1628.14
233.30	1652.71
233.52	1761.25
233.74	1724.39
233.96	1718.25
234.18	1748.97
234.40	1716.20
234.61	1759.21
234.83	1628.14
235.05	1650.66
235.27	1738.73
235.49	1740.77
235.70	1796.07
235.92	1738.73
236.14	1667.05
236.36	1828.84
236.58	1630.18
236.79	1751.01
237.01	1716.20
237.23	1677.29
237.45	1759.21
237.67	1673.19
237.88	1675.24
238.10	1816.55
238.32	1648.61
238.54	1656.81
238.76	1714.15
238.97	1669.09
239.19	1712.10
239.41	1728.49
239.63	1822.69
239.85	1673.19
240.06	1734.63
240.28	1738.73
240.50	1775.59
240.72	1746.92
240.93	1757.16
241.15	1779.68
241.37	1693.67
241.59	1787.88
241.81	1742.82
242.02	1722.34
242.24	1769.44
242.46	1720.29
242.68	1730.53
242.89	1722.34
243.11	1753.06
243.33	1693.67
243.55	1722.34
243.76	1722.34
243.98	1630.18
244.20	1730.53
244.42	1755.11
244.64	1730.53
244.85	1683.43
245.07	1652.71
245.29	1726.44
245.51	1681.38
245.72	1744.87
245.94	1724.39
246.16	1744.87
246.38	1724.39
246.59	1642.47
246.81	1675.24
247.03	1644.52
247.24	1646.57
247.46	1726.44
247.68	1648.61
247.90	1675.24
248.11	1701.86
248.33	1777.64
248.55	1662.95
248.77	1687.53
248.98	1802.21
249.20	1781.73
249.42	1675.24
249.64	1791.97
249.85	1652.71
250.07	1671.14
250.29	1677.29
250.50	1820.64
250.72	1587.18
250.94	1736.68
251.16	1808.36
251.37	1783.78
251.59	1705.96
251.81	1742.82
252.02	1736.68
252.24	1714.15
252.46	1849.32
252.68	1681.38
252.89	1632.23
253.11	1566.70
253.33	1757.16
253.54	1787.88
253.76	1617.90
253.98	1650.66
254.20	1710.05
254.41	1624.04
254.63	1689.57
254.85	1615.85
255.06	1755.11
255.28	1759.21
255.50	1632.23
255.71	1654.76
255.93	1550.31
256.15	1683.43
256.36	1669.09
256.58	1667.05
256.80	1779.68
257.02	1697.77
257.23	1681.38
257.45	1697.77
257.67	1732.58
257.88	1646.57
258.10	1705.96
258.32	1689.57
258.53	1730.53
258.75	1804.26
258.97	1603.56
259.18	1730.53
259.40	1650.66
259.62	1779.68
259.83	1781.73
260.05	1708.01
260.27	2009.06
260.48	1742.82
260.70	1673.19
260.92	1742.82
261.13	1726.44
261.35	1677.29
261.57	1728.49
261.78	1601.51
262.00	1656.81
262.22	1816.55
262.43	1634.28
262.65	1718.25
262.86	1691.62
263.08	1742.82
263.30	1726.44
263.51	1583.08
263.73	1673.19
263.95	1845.22
264.16	1585.13
264.38	1662.95
264.60	1755.11
264.81	1669.09
265.03	1736.68
265.25	1755.11
265.46	1673.19
265.68	1763.30
265.89	1724.39
266.11	1626.09
266.33	1783.78
266.54	1751.01
266.76	1738.73
266.98	1708.01
267.19	1730.53
267.41	1736.68
267.62	1718.25
267.84	1599.46
268.06	1681.38
268.27	1726.44
268.49	1710.05
268.70	1744.87
268.92	1693.67
269.14	1617.90
269.35	1650.66
269.57	1646.57
269.79	1744.87
270.00	1626.09
270.22	1748.97
270.43	1710.05
270.65	1658.85
270.87	1693.67
271.08	1697.77
271.30	1738.73
271.51	1599.46
271.73	1779.68
271.95	1783.78
272.16	1656.81
272.38	1726.44
272.59	1681.38
272.81	1691.62
273.02	1703.91
273.24	1746.92
273.46	1708.01
273.67	1615.85
273.89	1628.14
274.10	1644.52
274.32	1761.25
274.54	1669.09
274.75	1740.77
274.97	1726.44
275.18	1677.29
275.40	1779.68
275.61	1701.86
275.83	1708.01
276.05	1585.13
276.26	1699.81
276.48	1777.64
276.69	1685.48
276.91	1640.42
277.12	1830.88
277.34	1755.11
277.55	1816.55
277.77	1644.52
277.99	1636.33
278.20	1669.09
278.42	1644.52
278.63	1648.61
278.85	1736.68
279.06	1638.38
279.28	1744.87
279.49	1785.83
279.71	1816.55
279.93	1701.86
280.14	1658.85
280.36	1658.85
280.57	1710.05
280.79	1658.85
281.00	1636.33
281.22	1744.87
281.43	1703.91
281.65	1538.02
281.86	1640.42
282.08	1710.05
282.29	1812.45
282.51	1564.65
282.73	1603.56
282.94	1621.99
283.16	1720.29
283.37	1828.84
283.59	1771.49
283.80	1705.96
284.02	1689.57
284.23	1761.25
284.45	1742.82
284.66	1568.74
284.88	1701.86
285.09	1748.97
285.31	1751.01
285.52	1681.38
285.74	1607.66
285.95	1742.82
286.17	1726.44
286.38	1691.62
286.60	1630.18
286.81	1624.04
287.03	1677.29
287.24	1665.00
287.46	1658.85
287.67	1679.33
287.89	1783.78
288.10	1763.30
288.32	1697.77
288.53	1699.81
288.75	1624.04
288.96	1775.59
289.18	1757.16
289.39	1705.96
289.61	1771.49
289.82	1714.15
290.04	1714.15
290.25	1611.75
290.47	1640.42
290.68	1665.00
290.90	1826.79
291.11	1652.71
291.33	1740.77
291.54	1679.33
291.76	1626.09
291.97	1681.38
292.18	1652.71
292.40	1677.29
292.61	1658.85
292.83	1808.36
293.04	1746.92
293.26	1662.95
293.47	1669.09
293.69	1613.80
293.90	1714.15
294.12	1746.92
294.33	1644.52
294.55	1656.81
294.76	1705.96
294.97	1759.21
295.19	1736.68
295.40	1712.10
295.62	1746.92
295.83	1755.11
296.05	1626.09
296.26	1773.54
296.48	1632.23
296.69	1714.15
296.90	1718.25
297.12	1757.16
297.33	1738.73
297.55	1787.88
297.76	1699.81
297.98	1791.97
298.19	1716.20
298.41	1761.25
298.62	1591.27
298.83	1755.11
299.05	1746.92
299.26	1630.18
299.48	1626.09
299.69	1763.30
299.90	1681.38
300.12	1611.75
300.33	1716.20
300.55	1691.62
300.76	1687.53
300.98	1660.90
301.19	1720.29
301.40	1755.11
301.62	1708.01
301.83	1779.68
302.05	1732.58
302.26	1652.71
302.47	1669.09
302.69	1662.95
302.90	1652.71
303.12	1619.94
303.33	1763.30
303.54	1779.68
303.76	1699.81
303.97	1689.57
304.19	1783.78
304.40	1615.85
304.61	1757.16
304.83	1712.10
305.04	1759.21
305.26	1761.25
305.47	1691.62
305.68	1734.63
305.90	1667.05
306.11	1773.54
306.33	1714.15
306.54	1730.53
306.75	1613.80
306.97	1628.14
307.18	1669.09
307.39	1662.95
307.61	1781.73
307.82	1691.62
308.04	1716.20
308.25	1689.57
308.46	1767.40
308.68	1728.49
308.89	1787.88
309.10	1703.91
309.32	1697.77
309.53	1796.07
309.74	1691.62
309.96	1652.71
310.17	1746.92
310.39	1665.00
310.60	1714.15
310.81	1701.86
311.03	1650.66
311.24	1779.68
311.45	1673.19
311.67	1812.45
311.88	1718.25
312.09	1642.47
312.31	1634.28
312.52	1720.29
312.73	1710.05
312.95	1576.94
313.16	1632.23
313.37	1789.92
313.59	1675.24
313.80	1738.73
314.01	1884.13
314.23	1679.33
314.44	1621.99
314.65	1591.27
314.87	1605.61
315.08	1628.14
315.29	1734.63
315.51	1677.29
315.72	1648.61
315.93	1755.11
316.15	1726.44
316.36	1632.23
316.57	1708.01
316.79	1810.40
317.00	1646.57
317.21	1710.05
317.43	1669.09
317.64	1742.82
317.85	1665.00
318.07	1697.77
318.28	1701.86
318.49	1828.84
318.70	1916.90
318.92	1865.70
319.13	1834.98
319.34	1806.31
319.56	1734.63
319.77	1781.73
319.98	1757.16
320.20	1773.54
320.41	1779.68
320.62	1732.58
320.83	1665.00
321.05	1779.68
321.26	1755.11
321.47	1724.39
321.69	1843.17
321.90	1642.47
322.11	1695.72
322.32	1757.16
322.54	1779.68
322.75	1665.00
322.96	1822.69
323.18	1673.19
323.39	1613.80
323.60	1599.46
323.81	1724.39
324.03	1734.63
324.24	1667.05
324.45	1722.34
324.66	1658.85
324.88	1701.86
325.09	1785.83
325.30	1703.91
325.52	1738.73
325.73	1671.14
325.94	1648.61
326.15	1626.09
326.37	1619.94
326.58	1779.68
326.79	1746.92
327.00	1603.56
327.22	1681.38
327.43	1691.62
327.64	1699.81
327.85	1675.24
328.07	1746.92
328.28	1904.61
328.49	1738.73
328.70	1644.52
328.92	1703.91
329.13	1642.47
329.34	1771.49
329.55	1822.69
329.76	1763.30
329.98	1708.01
330.19	1726.44
330.40	1748.97
330.61	1718.25
330.83	1748.97
331.04	1599.46
331.25	1777.64
331.46	1654.76
331.68	1673.19
331.89	1822.69
332.10	1734.63
332.31	1640.42
332.52	1693.67
332.74	1746.92
332.95	1550.31
333.16	1712.10
333.37	1697.77
333.58	1626.09
333.80	1787.88
334.01	1652.71
334.22	1660.90
334.43	1677.29
334.64	1693.67
334.86	1544.17
335.07	1650.66
335.28	1689.57
335.49	1656.81
335.70	1693.67
335.92	1703.91
336.13	1898.47
336.34	1759.21
336.55	1722.34
336.76	1738.73
336.98	1576.94
337.19	1693.67
337.40	1753.06
337.61	1851.36
337.82	1683.43
338.04	1767.40
338.25	1648.61
338.46	1644.52
338.67	1652.71
338.88	1607.66
339.09	1650.66
339.31	1730.53
339.52	1640.42
339.73	1615.85
339.94	1746.92
340.15	1822.69
340.36	1648.61
340.58	1705.96
340.79	1722.34
341.00	1724.39
341.21	1638.38
341.42	1853.41
341.63	1738.73
341.85	1744.87
342.06	1718.25
342.27	1654.76
342.48	1708.01
342.69	1662.95
342.90	1705.96
343.12	1656.81
343.33	1705.96
343.54	1724.39
343.75	1720.29
343.96	1685.48
344.17	1632.23
344.38	1697.77
344.60	1714.15
344.81	1705.96
345.02	1710.05
345.23	1789.92
345.44	1773.54
345.65	1630.18
345.86	1708.01
346.07	1650.66
346.29	1689.57
346.50	1703.91
346.71	1722.34
346.92	1720.29
347.13	1834.98
347.34	1636.33
347.55	1714.15
347.76	1716.20
347.98	1593.32
348.19	1693.67
348.40	1863.65
348.61	1667.05
348.82	1798.12
349.03	1689.57
349.24	1679.33
349.45	1865.70
349.66	1617.90
349.88	1654.76
350.09	1738.73
350.30	1718.25
350.51	1705.96
350.72	1677.29
350.93	1671.14
351.14	1667.05
351.35	1759.21
351.56	1632.23
351.77	1632.23
351.99	1671.14
352.20	1742.82
352.41	1708.01
352.62	1583.08
352.83	1689.57
353.04	1695.72
353.25	1732.58
353.46	1804.26
353.67	1761.25
353.88	1587.18
354.09	1728.49
354.30	1652.71
354.52	1759.21
354.73	1708.01
354.94	1730.53
355.15	1693.67
355.36	1755.11
355.57	1669.09
355.78	1740.77
355.99	1656.81
356.20	1652.71
356.41	1777.64
356.62	1667.05
356.83	1710.05
357.04	1779.68
357.25	1529.83
357.46	1685.48
357.68	1626.09
357.89	1685.48
358.10	1693.67
358.31	1677.29
358.52	1699.81
358.73	1611.75
358.94	1644.52
359.15	1640.42
359.36	1730.53
359.57	1724.39
359.78	1671.14
359.99	1689.57
360.20	1652.71
360.41	1675.24
360.62	1726.44
360.83	1722.34
361.04	1779.68
361.25	1755.11
361.46	1845.22
361.67	1673.19
361.88	1789.92
362.09	1746.92
362.30	1740.77
362.51	1677.29
362.72	1763.30
362.93	1791.97
363.14	1650.66
363.35	1658.85
363.56	1654.76
363.78	1708.01
363.99	1748.97
364.20	1617.90
364.41	1796.07
364.62	1783.78
364.83	1701.86
365.04	1671.14
365.25	1656.81
365.46	1826.79
365.67	1673.19
365.88	1595.37
366.09	1710.05
366.30	1708.01
366.51	1708.01
366.72	1527.78
366.93	1617.90
367.14	1681.38
367.35	1814.50
367.56	1728.49
367.77	1757.16
367.98	1724.39
368.18	1714.15
368.39	1691.62
368.60	1689.57
368.81	1773.54
369.02	1775.59
369.23	1724.39
369.44	1591.27
369.65	1660.90
369.86	1669.09
370.07	1662.95
370.28	1665.00
370.49	1662.95
370.70	1740.77
370.91	1681.38
371.12	1624.04
371.33	1746.92
371.54	1642.47
371.75	1742.82
371.96	1585.13
372.17	1597.42
372.38	1748.97
372.59	1705.96
372.80	1699.81
373.01	1683.43
373.22	1724.39
373.43	1716.20
373.64	1624.04
373.85	1714.15
374.06	1837.03
374.26	1740.77
374.47	1662.95
374.68	1869.80
374.89	1734.63
375.10	1675.24
375.31	1701.86
375.52	1699.81
375.73	1724.39
375.94	1646.57
376.15	1810.40
376.36	1673.19
376.57	1658.85
376.78	1673.19
376.99	1691.62
377.20	1791.97
377.40	1677.29
377.61	1794.02
377.82	1628.14
378.03	1775.59
378.24	1705.96
378.45	1712.10
378.66	1628.14
378.87	1669.09
379.08	1607.66
379.29	1652.71
379.50	1783.78
379.71	1681.38
379.91	1767.40
380.12	1660.90
380.33	1699.81
380.54	1712.10
380.75	1779.68
380.96	1701.86
381.17	1757.16
381.38	1757.16
381.59	1751.01
381.80	1701.86
382.00	1779.68
382.21	1656.81
382.42	1857.51
382.63	1886.18
382.84	1748.97
383.05	1738.73
383.26	1802.21
383.47	1738.73
383.68	1720.29
383.88	1755.11
384.09	1691.62
384.30	1869.80
384.51	1730.53
384.72	1667.05
384.93	1597.42
385.14	1611.75
385.35	1779.68
385.55	1685.48
385.76	1742.82
385.97	1693.67
386.18	1652.71
386.39	1656.81
386.60	1667.05
386.81	1716.20
387.02	1724.39
387.22	1675.24
387.43	1746.92
387.64	1841.12
387.85	1830.88
388.06	2166.75
388.27	4302.78
388.48	6883.22
388.68	8302.47
388.89	9877.35
389.10	10151.78
389.31	8810.36
389.52	7780.23
389.73	6809.50
389.93	6328.22
390.14	5775.27
390.35	5406.64
390.56	4458.43
390.77	3901.38
390.98	3067.86
391.18	2617.30
391.39	2185.18
391.60	1910.75
391.81	1845.22
392.02	1710.05
392.23	1839.08
392.43	1708.01
392.64	1736.68
392.85	1714.15
393.06	1728.49
393.27	1677.29
393.47	1644.52
393.68	1732.58
393.89	1703.91
394.10	1773.54
394.31	1677.29
394.52	1599.46
394.72	1671.14
394.93	1828.84
395.14	1648.61
395.35	1785.83
395.56	1660.90
395.76	1697.77
395.97	1861.60
396.18	1843.17
396.39	1804.26
396.60	2058.21
396.80	1949.67
397.01	1802.21
397.22	1787.88
397.43	1890.28
397.64	1689.57
397.84	1771.49
398.05	1841.12
398.26	1761.25
398.47	1746.92
398.67	1910.75
398.88	1724.39
399.09	1763.30
399.30	1701.86
399.51	1689.57
399.71	1648.61
399.92	1681.38
400.13	1751.01
400.34	1689.57
400.54	1677.29
400.75	1787.88
400.96	1724.39
401.17	1767.40
401.37	1738.73
401.58	1624.04
401.79	1703.91
402.00	1908.71
402.21	2011.11
402.41	1992.67
402.62	1947.62
402.83	2076.64
403.04	1982.43
403.24	2121.70
403.45	1822.69
403.66	1939.43
403.87	1867.75
404.07	1865.70
404.28	1880.04
404.49	1853.41
404.70	1837.03
404.90	1736.68
405.11	1810.40
405.32	1753.06
405.52	1681.38
405.73	1632.23
405.94	1687.53
406.15	1710.05
406.35	1701.86
406.56	1804.26
406.77	1714.15
406.98	1689.57
407.18	1683.43
407.39	1714.15
407.60	1757.16
407.80	1726.44
408.01	1671.14
408.22	1777.64
408.43	1728.49
408.63	1748.97
408.84	1736.68
409.05	1812.45
409.25	1662.95
409.46	1779.68
409.67	1652.71
409.88	1738.73
410.08	1705.96
410.29	1679.33
410.50	1767.40
410.70	1712.10
410.91	1685.48
411.12	1769.44
411.32	1740.77
411.53	1634.28
411.74	1753.06
411.95	1779.68
412.15	1794.02
412.36	1826.79
412.57	1710.05
412.77	1742.82
412.98	1746.92
413.19	1656.81
413.39	1742.82
413.60	1765.35
413.81	1865.70
414.01	1640.42
414.22	1849.32
414.43	1675.24
414.63	1660.90
414.84	1738.73
415.05	1708.01
415.25	1644.52
415.46	1763.30
415.67	1685.48
415.87	1761.25
416.08	1718.25
416.29	1728.49
416.49	1689.57
416.70	1636.33
416.91	1646.57
417.11	1740.77
417.32	1814.50
417.53	1785.83
417.73	1652.71
417.94	1703.91
418.15	1746.92
418.35	1746.92
418.56	1781.73
418.77	1875.94
418.97	1642.47
419.18	1687.53
419.38	1570.79
419.59	1693.67
419.80	1830.88
420.00	1687.53
420.21	1701.86
420.42	1765.35
420.62	1675.24
420.83	1603.56
421.04	1673.19
421.24	1654.76
421.45	1757.16
421.65	1796.07
421.86	1673.19
422.07	1710.05
422.27	1691.62
422.48	1775.59
422.69	1576.94
422.89	1683.43
423.10	1761.25
423.30	1652.71
423.51	1751.01
423.72	1744.87
423.92	1722.34
424.13	1621.99
424.33	1681.38
424.54	1748.97
424.75	1705.96
424.95	1787.88
425.16	1736.68
425.36	1693.67
425.57	1767.40
425.78	1875.94
425.98	1798.12
426.19	1689.57
426.39	1697.77
426.60	1748.97
426.81	1816.55
427.01	1746.92
427.22	1669.09
427.42	1644.52
427.63	1630.18
427.83	1877.99
428.04	1804.26
428.25	1732.58
428.45	1738.73
428.66	1779.68
428.86	1705.96
429.07	1726.44
429.28	1724.39
429.48	1609.70
429.69	1673.19
429.89	1662.95
430.10	1611.75
430.30	1744.87
430.51	1755.11
430.71	1628.14
430.92	1699.81
431.13	1687.53
431.33	1714.15
431.54	1681.38
431.74	1783.78
431.95	1810.40
432.15	1652.71
432.36	1689.57
432.56	1648.61
432.77	1818.60
432.98	1783.78
433.18	1703.91
433.39	1679.33
433.59	1761.25
433.80	1812.45
434.00	1785.83
434.21	1771.49
434.41	1611.75
434.62	1886.18
434.82	1691.62
435.03	1658.85
435.23	1761.25
435.44	1554.41
435.64	1632.23
435.85	1742.82
436.06	1761.25
436.26	1779.68
436.47	1724.39
436.67	1652.71
436.88	1660.90
437.08	1712.10
437.29	1802.21
437.49	1767.40
437.70	1738.73
437.90	1755.11
438.11	1769.44
438.31	1759.21
438.52	1882.08
438.72	1845.22
438.93	1875.94
439.13	1771.49
439.34	1882.08
439.54	1761.25
439.75	1697.77
439.95	1812.45
440.16	1712.10
440.36	1812.45
440.57	1798.12
440.77	1751.01
440.98	1759.21
441.18	1710.05
441.39	1695.72
441.59	1673.19
441.80	1841.12
442.00	1730.53
442.21	1908.71
442.41	1732.58
442.62	1736.68
442.82	1599.46
443.02	1671.14
443.23	1722.34
443.43	1689.57
443.64	1740.77
443.84	1757.16
444.05	1755.11
444.25	1716.20
444.46	1748.97
444.66	1740.77
444.87	1763.30
445.07	1658.85
445.28	1679.33
445.48	1738.73
445.69	1800.16
445.89	1804.26
446.09	1775.59
446.30	1990.63
446.50	2754.52
446.71	3745.73
446.91	4401.08
447.12	4749.24
447.32	4868.02
447.53	4413.37
447.73	3844.04
447.93	3510.22
448.14	3321.81
448.34	3309.52
448.55	2953.17
448.75	2828.24
448.96	2746.33
449.16	2437.08
449.36	2189.28
449.57	1964.00
449.77	1939.43
449.98	1720.29
450.18	1783.78
450.39	1830.88
450.59	1775.59
450.79	1765.35
451.00	1767.40
451.20	1785.83
451.41	1701.86
451.61	1779.68
451.81	1732.58
452.02	1705.96
452.22	1714.15
452.43	1669.09
452.63	1662.95
452.84	1744.87
453.04	1658.85
453.24	1773.54
453.45	1656.81
453.65	1693.67
453.86	1746.92
454.06	1693.67
454.26	1714.15
454.47	1697.77
454.67	1757.16
454.87	1730.53
455.08	1757.16
455.28	1882.08
455.49	1769.44
455.69	1722.34
455.89	1853.41
456.10	1751.01
456.30	1736.68
456.51	1728.49
456.71	1724.39
456.91	1787.88
457.12	1679.33
457.32	1773.54
457.52	1640.42
457.73	1761.25
457.93	1816.55
458.14	1691.62
458.34	1671.14
458.54	1708.01
458.75	1619.94
458.95	1769.44
459.15	1724.39
459.36	1806.31
459.56	1783.78
459.76	1818.60
459.97	1681.38
460.17	1773.54
460.37	1705.96
460.58	1771.49
460.78	1771.49
460.99	1642.47
461.19	1763.30
461.39	1746.92
461.60	1720.29
461.80	1783.78
462.00	1667.05
462.21	1687.53
462.41	1607.66
462.61	1701.86
462.82	1665.00
463.02	1757.16
463.22	1677.29
463.43	1783.78
463.63	1654.76
463.83	1742.82
464.04	1798.12
464.24	1681.38
464.44	1656.81
464.64	1705.96
464.85	1808.36
465.05	1759.21
465.25	1773.54
465.46	1626.09
465.66	1734.63
465.86	1789.92
466.07	1773.54
466.27	1746.92
466.47	1572.84
466.68	1617.90
466.88	1781.73
467.08	1755.11
467.29	1794.02
467.49	1794.02
467.69	1689.57
467.89	1769.44
468.10	1759.21
468.30	1705.96
468.50	1722.34
468.71	1740.77
468.91	1607.66
469.11	1849.32
469.31	1775.59
469.52	1646.57
469.72	1783.78
469.92	1877.99
470.13	1693.67
470.33	1738.73
470.53	1751.01
470.73	2115.55
470.94	2308.06
471.14	2263.01
471.34	2447.32
471.54	2445.27
471.75	2189.28
471.95	2125.79
472.15	1984.48
472.36	2183.13
472.56	2043.87
472.76	2041.82
472.96	2007.01
473.17	2000.87
473.37	1933.28
473.57	1785.83
473.77	1785.83
473.98	1693.67
474.18	1751.01
474.38	1929.19
474.58	1734.63
474.79	1644.52
474.99	1789.92
475.19	1765.35
475.39	1646.57
475.60	1695.72
475.80	1728.49
476.00	1724.39
476.20	1642.47
476.41	1669.09
476.61	1830.88
476.81	1730.53
477.01	1685.48
477.21	1810.40
477.42	1718.25
477.62	1644.52
477.82	1828.84
478.02	1624.04
478.23	1710.05
478.43	1650.66
478.63	1701.86
478.83	1689.57
479.03	1572.84
479.24	1771.49
479.44	1808.36
479.64	1656.81
479.84	1675.24
480.04	1636.33
480.25	1699.81
480.45	1695.72
480.65	1691.62
480.85	1744.87
481.06	1673.19
481.26	1751.01
481.46	1728.49
481.66	1783.78
481.86	1667.05
482.06	1796.07
482.27	1722.34
482.47	1669.09
482.67	1697.77
482.87	1753.06
483.07	1814.50
483.28	1693.67
483.48	1658.85
483.68	1720.29
483.88	1650.66
484.08	1533.93
484.29	1597.42
484.49	1748.97
484.69	1660.90
484.89	1757.16
485.09	1791.97
485.29	1779.68
485.50	1658.85
485.70	1705.96
485.90	1755.11
486.10	1748.97
486.30	1757.16
486.50	1771.49
486.71	1791.97
486.91	1767.40
487.11	1773.54
487.31	1646.57
487.51	1697.77
487.71	1675.24
487.91	1648.61
488.12	1658.85
488.32	1628.14
488.52	1703.91
488.72	1605.61
488.92	1732.58
489.12	1837.03
489.32	1789.92
489.53	1806.31
489.73	1656.81
489.93	1787.88
490.13	1619.94
490.33	1652.71
490.53	1744.87
490.73	1777.64
490.94	1632.23
491.14	1738.73
491.34	1794.02
491.54	2037.73
491.74	2516.95
491.94	2957.27
492.14	3026.90
492.34	3033.04
492.54	2846.68
492.75	2422.75
492.95	2392.03
493.15	2451.42
493.35	2271.20
493.55	2213.85
493.75	2174.94
493.95	2058.21
494.15	2058.21
494.35	1972.19
494.56	1814.50
494.76	1783.78
494.96	1845.22
495.16	1796.07
495.36	1705.96
495.56	1787.88
495.76	1705.96
495.96	1671.14
496.16	1736.68
496.36	1828.84
496.56	1714.15
496.77	1759.21
496.97	1665.00
497.17	1728.49
497.37	1644.52
497.57	1753.06
497.77	1726.44
497.97	1558.50
498.17	1751.01
498.37	1640.42
498.57	1714.15
498.77	1687.53
498.97	1767.40
499.17	1775.59
499.38	1730.53
499.58	1763.30
499.78	1845.22
499.98	1798.12
500.18	1689.57
500.38	1671.14
500.58	1877.99
500.78	2582.49
500.98	4628.41
501.18	5959.59
501.38	6856.60
501.58	7268.24
501.78	6723.48
501.98	5527.47
502.18	4954.04
502.38	4491.20
502.58	4186.05
502.78	3743.69
502.98	3758.02
503.18	3491.79
503.38	3205.07
503.59	2852.82
503.79	2648.02
503.99	2451.42
504.19	2246.62
504.39	2199.52
504.59	2209.76
504.79	2131.94
504.99	2080.74
505.19	1937.38
505.39	1818.60
505.59	1986.53
505.79	1890.28
505.99	1845.22
506.19	1855.46
506.39	1806.31
506.59	1732.58
506.79	1767.40
506.99	1789.92
507.19	1785.83
507.39	1808.36
507.59	1708.01
507.79	1724.39
507.99	1705.96
508.19	1601.51
508.39	1753.06
508.59	1710.05
508.79	1822.69
508.99	1834.98
509.19	1654.76
509.39	1783.78
509.59	1691.62
509.79	1683.43
509.99	1675.24
510.19	1812.45
510.39	1816.55
510.59	1710.05
510.79	1726.44
510.99	1744.87
511.19	1732.58
511.39	1814.50
511.59	1705.96
511.79	1796.07
511.99	1714.15
512.19	1822.69
512.38	1814.50
512.58	1763.30
512.78	1728.49
512.98	1798.12
513.18	1771.49
513.38	1685.48
513.58	1771.49
513.78	1667.05
513.98	1720.29
514.18	1738.73
514.38	1746.92
514.58	1718.25
514.78	1767.40
514.98	1697.77
515.18	1751.01
515.38	1599.46
515.58	1814.50
515.78	1730.53
515.98	1738.73
516.18	1697.77
516.38	1765.35
516.57	1697.77
516.77	1599.46
516.97	1736.68
517.17	1644.52
517.37	1691.62
517.57	1748.97
517.77	1701.86
517.97	1683.43
518.17	1759.21
518.37	1656.81
518.57	1611.75
518.77	1757.16
518.97	1697.77
519.16	1798.12
519.36	1796.07
519.56	1697.77
519.76	1650.66
519.96	1673.19
520.16	1822.69
520.36	1755.11
520.56	1798.12
520.76	1662.95
520.96	1734.63
521.16	1767.40
521.35	1800.16
521.55	1736.68
521.75	1689.57
521.95	1708.01
522.15	1581.03
522.35	1675.24
522.55	1673.19
522.75	1771.49
522.95	1646.57
523.14	1656.81
523.34	1781.73
523.54	1751.01
523.74	1802.21
523.94	1726.44
524.14	1624.04
524.34	1746.92
524.54	1822.69
524.73	1718.25
524.93	1787.88
525.13	1689.57
525.33	1634.28
525.53	1820.64
525.73	1722.34
525.93	1763.30
526.13	1658.85
526.32	1761.25
526.52	1824.74
526.72	1841.12
526.92	1728.49
527.12	1755.11
527.32	1660.90
527.52	1783.78
527.71	1677.29
527.91	1802.21
528.11	1722.34
528.31	1775.59
528.51	1624.04
528.71	1716.20
528.90	1771.49
529.10	1748.97
529.30	1812.45
529.50	1619.94
529.70	1708.01
529.90	1748.97
530.09	1710.05
530.29	1662.95
530.49	1671.14
530.69	1859.56
530.89	1748.97
531.09	1708.01
531.28	1679.33
531.48	1824.74
531.68	1671.14
531.88	1732.58
532.08	1773.54
532.28	1730.53
532.47	1781.73
532.67	1728.49
532.87	1695.72
533.07	1673.19
533.27	1789.92
533.46	1710.05
533.66	1746.92
533.86	1714.15
534.06	1712.10
534.26	1699.81
534.45	1746.92
534.65	1800.16
534.85	1703.91
535.05	1734.63
535.25	1728.49
535.44	1636.33
535.64	1810.40
535.84	1689.57
536.04	1667.05
536.24	1708.01
536.43	1732.58
536.63	1783.78
536.83	1742.82
537.03	1744.87
537.22	1701.86
537.42	1665.00
537.62	1712.10
537.82	1697.77
538.02	1824.74
538.21	1740.77
538.41	1824.74
538.61	1781.73
538.81	1636.33
539.00	1751.01
539.20	1617.90
539.40	1689.57
539.60	1734.63
539.79	1769.44
539.99	1808.36
540.19	1652.71
540.39	1767.40
540.58	1724.39
540.78	1855.46
540.98	1783.78
541.18	1718.25
541.37	1724.39
541.57	1701.86
541.77	1755.11
541.97	1726.44
542.16	1572.84
542.36	1718.25
542.56	1785.83
542.76	1902.56
542.95	1804.26
543.15	1787.88
543.35	1787.88
543.54	1708.01
543.74	1714.15
543.94	1796.07
544.14	1740.77
544.33	1841.12
544.53	1718.25
544.73	1689.57
544.93	1779.68
545.12	1703.91
545.32	1730.53
545.52	1687.53
545.71	1677.29
545.91	1697.77
546.11	1703.91
546.30	1624.04
546.50	1693.67
546.70	1734.63
546.90	1734.63
547.09	1671.14
547.29	1724.39
547.49	1757.16
547.68	1712.10
547.88	1660.90
548.08	1798.12
548.27	2152.42
548.47	1732.58
548.67	1732.58
548.87	1773.54
549.06	1628.14
549.26	1722.34
549.46	1699.81
549.65	1712.10
549.85	1808.36
550.05	1851.36
550.24	1652.71
550.44	1681.38
550.64	1740.77
550.83	1732.58
551.03	1794.02
551.23	1730.53
551.42	1726.44
551.62	1763.30
551.82	1779.68
552.01	1771.49
552.21	1791.97
552.41	1732.58
552.60	1777.64
552.80	1775.59
553.00	1728.49
553.19	1722.34
553.39	1849.32
553.59	1607.66
553.78	1738.73
553.98	1789.92
554.17	1654.76
554.37	1724.39
554.57	1740.77
554.76	1673.19
554.96	1705.96
555.16	1720.29
555.35	1665.00
555.55	1757.16
555.75	1710.05
555.94	1730.53
556.14	1603.56
556.33	1724.39
556.53	1656.81
556.73	1798.12
556.92	1726.44
557.12	1841.12
557.32	1824.74
557.51	1779.68
557.71	1789.92
557.90	1742.82
558.10	1791.97
558.30	1812.45
558.49	1734.63
558.69	1695.72
558.88	1775.59
559.08	1740.77
559.28	1730.53
559.47	1656.81
559.67	1738.73
559.86	1855.46
560.06	1796.07
560.26	1826.79
560.45	1736.68
560.65	1734.63
560.84	1728.49
561.04	1730.53
561.24	1794.02
561.43	1695.72
561.63	1744.87
561.82	1693.67
562.02	1746.92
562.22	1656.81
562.41	1720.29
562.61	1722.34
562.80	1701.86
563.00	1949.67
563.19	1699.81
563.39	1687.53
563.59	1740.77
563.78	1697.77
563.98	1603.56
564.17	1701.86
564.37	1730.53
564.56	1742.82
564.76	1662.95
564.96	1853.41
565.15	1759.21
565.35	1912.80
565.54	1716.20
565.74	1763.30
565.93	1738.73
566.13	1765.35
566.32	1714.15
566.52	1773.54
566.71	1724.39
566.91	1753.06
567.11	1763.30
567.30	1669.09
567.50	1781.73
567.69	1783.78
567.89	1730.53
568.08	1660.90
568.28	1773.54
568.47	1677.29
568.67	1781.73
568.86	1648.61
569.06	1783.78
569.25	1714.15
569.45	1728.49
569.64	1689.57
569.84	1763.30
570.04	1718.25
570.23	1736.68
570.43	1757.16
570.62	1720.29
570.82	1822.69
571.01	1632.23
571.21	1691.62
571.40	1648.61
571.60	1771.49
571.79	1695.72
571.99	1789.92
572.18	1726.44
572.38	1816.55
572.57	1695.72
572.77	1787.88
572.96	1880.04
573.16	1787.88
573.35	1650.66
573.55	1867.75
573.74	1828.84
573.94	1746.92
574.13	1724.39
574.33	1814.50
574.52	1705.96
574.71	1738.73
574.91	1718.25
575.10	1695.72
575.30	1724.39
575.49	1634.28
575.69	1662.95
575.88	1732.58
576.08	1712.10
576.27	1771.49
576.47	1763.30
576.66	1869.80
576.86	1695.72
577.05	1814.50
577.25	1751.01
577.44	1863.65
577.64	1746.92
577.83	1828.84
578.02	1716.20
578.22	1769.44
578.41	1834.98
578.61	1630.18
578.80	1689.57
579.00	1800.16
579.19	1728.49
579.39	1816.55
579.58	1834.98
579.77	1761.25
579.97	1816.55
580.16	1843.17
580.36	1847.27
580.55	1863.65
580.75	1849.32
580.94	1775.59
581.13	1771.49
581.33	1824.74
581.52	1787.88
581.72	1863.65
581.91	1798.12
582.11	1761.25
582.30	1787.88
582.49	1724.39
582.69	1843.17
582.88	1769.44
583.08	1742.82
583.27	1771.49
583.47	1785.83
583.66	1722.34
583.85	1685.48
584.05	1746.92
584.24	1742.82
584.44	1783.78
584.63	1804.26
584.82	1814.50
585.02	1822.69
585.21	1824.74
585.41	1818.60
585.60	1839.08
585.79	1877.99
585.99	1880.04
586.18	1810.40
586.37	2179.04
586.57	3461.07
586.76	10221.41
586.96	25462.40
587.15	35513.83
587.34	41313.67
587.54	42962.29
587.73	37879.23
587.93	27324.00
588.12	21825.20
588.31	18779.87
588.51	16779.01
588.70	15421.20
588.89	14429.99
589.09	12826.43
589.28	11294.55
589.47	9607.02
589.67	8163.20
589.86	6659.99
590.06	4939.70
590.25	3913.67
590.44	3157.97
590.64	2697.17
590.83	2246.62
591.02	2035.68
591.22	1992.67
591.41	1902.56
591.60	1824.74
591.80	1966.05
591.99	1806.31
592.18	1724.39
592.38	1806.31
592.57	1710.05
592.76	1753.06
592.96	1822.69
593.15	1757.16
593.34	1785.83
593.54	1755.11
593.73	1824.74
593.92	1720.29
594.12	1712.10
594.31	1712.10
594.50	1839.08
594.70	1822.69
594.89	1877.99
595.08	1691.62
595.28	1910.75
595.47	1925.09
595.66	1765.35
595.86	1632.23
596.05	1667.05
596.24	1722.34
596.43	1822.69
596.63	1818.60
596.82	1798.12
597.01	1759.21
597.21	1828.84
597.40	1787.88
597.59	1728.49
597.79	1720.29
597.98	1720.29
598.17	1763.30
598.36	1755.11
598.56	1759.21
598.75	1724.39
598.94	1691.62
599.14	1791.97
599.33	1693.67
599.52	1839.08
599.71	1783.78
599.91	1812.45
600.10	1751.01
600.29	1710.05
600.48	1787.88
600.68	1757.16
600.87	1783.78
601.06	1730.53
601.26	1685.48
601.45	1761.25
601.64	1767.40
601.83	1808.36
602.03	1693.67
602.22	1638.38
602.41	1734.63
602.60	1861.60
602.80	1830.88
602.99	1779.68
603.18	1712.10
603.37	1775.59
603.57	1763.30
603.76	1785.83
603.95	1740.77
604.14	1640.42
604.34	1691.62
604.53	1695.72
604.72	1716.20
604.91	1791.97
605.10	1787.88
605.30	1726.44
605.49	1877.99
605.68	1744.87
605.87	1787.88
606.07	1742.82
606.26	1785.83
606.45	1802.21
606.64	1591.27
606.84	1638.38
607.03	1714.15
607.22	1779.68
607.41	1656.81
607.60	1732.58
607.80	1697.77
607.99	1714.15
608.18	1736.68
608.37	1724.39
608.56	1650.66
608.76	1814.50
608.95	1845.22
609.14	1705.96
609.33	1728.49
609.52	1789.92
609.72	1736.68
609.91	1794.02
610.10	1789.92
610.29	1834.98
610.48	1800.16
610.68	1724.39
610.87	1728.49
611.06	1779.68
611.25	1738.73
611.44	1822.69
611.63	1757.16
611.83	1845.22
612.02	1660.90
612.21	1771.49
612.40	1652.71
612.59	1658.85
612.79	1615.85
612.98	1699.81
613.17	1820.64
613.36	1738.73
613.55	1767.40
613.74	1658.85
613.93	1703.91
614.13	1708.01
614.32	1757.16
614.51	1779.68
614.70	1652.71
614.89	1644.52
615.08	1748.97
615.28	2050.02
615.47	1642.47
615.66	1701.86
615.85	1720.29
616.04	1857.51
616.23	1687.53
616.42	1693.67
616.62	1675.24
616.81	1763.30
617.00	1775.59
617.19	1683.43
617.38	1742.82
617.57	1759.21
617.76	1771.49
617.95	1781.73
618.15	1839.08
618.34	1785.83
618.53	1675.24
618.72	1748.97
618.91	1806.31
619.10	1794.02
619.29	1732.58
619.48	1689.57
619.68	1626.09
619.87	1701.86
620.06	1662.95
620.25	1794.02
620.44	1763.30
620.63	1765.35
620.82	1720.29
621.01	1736.68
621.20	1638.38
621.39	1748.97
621.59	1794.02
621.78	1697.77
621.97	1736.68
622.16	1712.10
622.35	1753.06
622.54	1785.83
622.73	1785.83
622.92	1630.18
623.11	1785.83
623.30	1675.24
623.49	1722.34
623.68	1656.81
623.88	1693.67
624.07	1751.01
624.26	1751.01
624.45	1718.25
624.64	1705.96
624.83	1769.44
625.02	1751.01
625.21	1689.57
625.40	1744.87
625.59	1746.92
625.78	1660.90
625.97	1783.78
626.16	1773.54
626.35	1720.29
626.54	1740.77
626.74	1804.26
626.93	1675.24
627.12	1722.34
627.31	1834.98
627.50	1736.68
627.69	1734.63
627.88	1671.14
628.07	1677.29
628.26	1683.43
628.45	1673.19
628.64	1628.14
628.83	1742.82
629.02	1753.06
629.21	1736.68
629.40	1738.73
629.59	1665.00
629.78	1732.58
629.97	1693.67
630.16	1751.01
630.35	1697.77
630.54	1781.73
630.73	1626.09
630.92	1777.64
631.11	1679.33
631.30	1619.94
631.49	1734.63
631.68	1714.15
631.87	1697.77
632.06	1691.62
632.25	1859.56
632.44	1759.21
632.63	1718.25
632.82	1685.48
633.01	1656.81
633.20	1732.58
633.39	1667.05
633.58	1556.46
633.77	1644.52
633.96	1701.86
634.15	1779.68
634.34	1703.91
634.53	1742.82
634.72	1650.66
634.91	1681.38
635.10	1775.59
635.29	1740.77
635.48	1753.06
635.67	1701.86
635.86	1626.09
636.05	1789.92
636.24	1691.62
636.43	1660.90
636.62	1712.10
636.81	1607.66
637.00	1742.82
637.19	1726.44
637.38	1787.88
637.57	1654.76
637.76	1748.97
637.95	1738.73
638.14	1726.44
638.33	1718.25
638.52	1708.01
638.71	1654.76
638.89	1632.23
639.08	1861.60
639.27	1742.82
639.46	1630.18
639.65	1744.87
639.84	1767.40
640.03	1787.88
640.22	1716.20
640.41	1824.74
640.60	1591.27
640.79	1701.86
640.98	1736.68
641.17	1773.54
641.36	1697.77
641.55	1798.12
641.74	1671.14
641.92	1628.14
642.11	1671.14
642.30	1619.94
642.49	1652.71
642.68	1615.85
642.87	1658.85
643.06	1730.53
643.25	1636.33
643.44	1626.09
643.63	1798.12
643.82	1746.92
644.00	1648.61
644.19	1763.30
644.38	1621.99
644.57	1787.88
644.76	1695.72
644.95	1783.78
645.14	1695.72
645.33	1685.48
645.52	1701.86
645.71	1656.81
645.89	1648.61
646.08	1677.29
646.27	1652.71
646.46	1832.93
646.65	1609.70
646.84	1728.49
647.03	1738.73
647.22	1812.45
647.40	1759.21
647.59	1648.61
647.78	1611.75
647.97	1685.48
648.16	1705.96
648.35	1791.97
648.54	1775.59
648.73	1720.29
648.91	1773.54
649.10	1753.06
649.29	1730.53
649.48	1634.28
649.67	1724.39
649.86	1769.44
650.05	1712.10
650.23	1769.44
650.42	1601.51
650.61	1802.21
650.80	1736.68
650.99	1910.75
651.18	1736.68
651.36	1759.21
651.55	1724.39
651.74	1697.77
651.93	1589.22
652.12	1685.48
652.31	1679.33
652.49	1654.76
652.68	1732.58
652.87	1853.41
653.06	1689.57
653.25	1779.68
653.44	1660.90
653.62	1781.73
653.81	1611.75
654.00	1673.19
654.19	1767.40
654.38	1810.40
654.56	1605.61
654.75	1705.96
654.94	1794.02
655.13	1724.39
655.32	1685.48
655.51	1779.68
655.69	1560.55
655.88	1718.25
656.07	1650.66
656.26	1763.30
656.45	1615.85
656.63	1742.82
656.82	1742.82
657.01	1820.64
657.20	1665.00
657.38	1806.31
657.57	1636.33
657.76	1607.66
657.95	1777.64
658.14	1701.86
658.32	1677.29
658.51	1677.29
658.70	1798.12
658.89	1736.68
659.08	1722.34
659.26	1738.73
659.45	1710.05
659.64	1746.92
659.83	1673.19
660.01	1976.29
660.20	1767.40
660.39	1722.34
660.58	1583.08
660.76	1705.96
660.95	1679.33
661.14	1765.35
661.33	1642.47
661.51	1626.09
661.70	1585.13
661.89	1763.30
662.08	1591.27
662.26	1642.47
662.45	1689.57
662.64	1751.01
662.83	1812.45
663.01	1611.75
663.20	1796.07
663.39	1753.06
663.58	1675.24
663.76	1699.81
663.95	1765.35
664.14	1675.24
664.32	1701.86
664.51	1611.75
664.70	1681.38
664.89	1742.82
665.07	1632.23
665.26	1751.01
665.45	1714.15
665.64	1734.63
665.82	1740.77
666.01	1769.44
666.20	1718.25
666.38	1800.16
666.57	1783.78
666.76	2170.85
666.95	4659.13
667.13	10757.98
667.32	15662.86
667.51	18374.38
667.69	19517.14
667.88	18009.84
668.07	12664.64
668.25	9738.09
668.44	8431.49
668.63	7405.46
668.81	6942.61
669.00	6315.94
669.19	5672.87
669.38	5179.31
669.56	4679.61
669.75	3960.77
669.94	3368.91
670.12	2969.55
670.31	2576.34
670.50	2346.97
670.68	2054.11
670.87	1953.76
671.06	1785.83
671.24	1839.08
671.43	1890.28
671.62	1753.06
671.80	1720.29
671.99	1742.82
672.18	1720.29
672.36	1712.10
672.55	1744.87
672.74	1728.49
672.92	1748.97
673.11	1746.92
673.29	1687.53
673.48	1728.49
673.67	1757.16
673.85	1753.06
674.04	1701.86
674.23	1695.72
674.41	1806.31
674.60	1712.10
674.79	1601.51
674.97	1779.68
675.16	1804.26
675.34	1673.19
675.53	1679.33
675.72	1728.49
675.90	1896.42
676.09	1703.91
676.28	1593.32
676.46	1626.09
676.65	1785.83
676.83	1716.20
677.02	1767.40
677.21	1689.57
677.39	1703.91
677.58	1601.51
677.77	1728.49
677.95	1718.25
678.14	1759.21
678.32	1665.00
678.51	1658.85
678.70	1789.92
678.88	1667.05
679.07	1687.53
679.25	1722.34
679.44	1708.01
679.63	1652.71
679.81	1628.14
680.00	1736.68
680.18	1773.54
680.37	1695.72
680.55	1744.87
680.74	1656.81
680.93	1634.28
681.11	1693.67
681.30	1722.34
681.48	1791.97
681.67	1683.43
681.85	1685.48
682.04	1630.18
682.23	1806.31
682.41	1753.06
682.60	1632.23
682.78	1658.85
682.97	1652.71
683.15	1705.96
683.34	1703.91
683.53	1728.49
683.71	1632.23
683.90	1779.68
684.08	1779.68
684.27	1722.34
684.45	1736.68
684.64	1738.73
684.82	1607.66
685.01	1665.00
685.19	1718.25
685.38	1755.11
685.57	1755.11
685.75	1712.10
685.94	1665.00
686.12	1689.57
686.31	1632.23
686.49	1785.83
686.68	1621.99
686.86	1714.15
687.05	1693.67
687.23	1691.62
687.42	1712.10
687.60	1621.99
687.79	1746.92
687.97	1789.92
688.16	1753.06
688.34	1744.87
688.53	1599.46
688.71	1714.15
688.90	1761.25
689.08	1656.81
689.27	1619.94
689.45	1810.40
689.64	1699.81
689.82	1761.25
690.01	1712.10
690.19	1730.53
690.38	1769.44
690.56	1816.55
690.75	1662.95
690.93	1781.73
691.12	1621.99
691.30	1728.49
691.49	1697.77
691.67	1609.70
691.86	1804.26
692.04	1710.05
692.23	1652.71
692.41	1568.74
692.60	1779.68
692.78	1773.54
692.97	1722.34
693.15	1710.05
693.34	1873.89
693.52	1742.82
693.71	1699.81
693.89	1675.24
694.08	1615.85
694.26	1796.07
694.44	1810.40
694.63	1724.39
694.81	1660.90
695.00	1619.94
695.18	1791.97
695.37	1880.04
695.55	1720.29
695.74	1675.24
695.92	1738.73
696.10	1675.24
696.29	1726.44
696.47	1626.09
696.66	1603.56
696.84	1671.14
697.03	1695.72
697.21	1791.97
697.40	2295.77
697.58	1796.07
697.76	1660.90
697.95	1685.48
698.13	1662.95
698.32	1628.14
698.50	1671.14
698.68	1734.63
698.87	1761.25
699.05	1787.88
699.24	1687.53
699.42	1710.05
699.61	1681.38
699.79	1705.96
699.97	1794.02
700.16	1712.10
700.34	1662.95
700.53	1652.71
700.71	1755.11
700.89	1755.11
701.08	1681.38
701.26	1759.21
701.45	2060.26
701.63	1673.19
701.81	1689.57
702.00	1654.76
702.18	1695.72
702.37	1693.67
702.55	1697.77
702.73	1673.19
702.92	1611.75
703.10	1806.31
703.28	1748.97
703.47	1660.90
703.65	1798.12
703.84	1798.12
704.02	1611.75
704.20	1800.16
704.39	1654.76
704.57	1665.00
704.75	1759.21
704.94	1791.97
705.12	1691.62
705.30	1828.84
705.49	2222.05
705.67	4532.15
705.86	9785.19
706.04	12965.69
706.22	14870.30
706.41	15822.61
706.59	14262.05
706.77	9856.87
706.96	7526.29
707.14	6877.08
707.32	6076.32
707.51	5797.80
707.69	4933.56
707.87	4282.30
708.06	3694.54
708.24	2916.31
708.42	2445.27
708.61	2263.01
708.79	1920.99
708.97	1828.84
709.16	1816.55
709.34	1779.68
709.52	1636.33
709.71	1681.38
709.89	1716.20
710.07	1708.01
710.26	1628.14
710.44	1701.86
710.62	1718.25
710.80	1771.49
710.99	1728.49
711.17	1744.87
711.35	1695.72
711.54	1685.48
711.72	1746.92
711.90	1775.59
712.09	1812.45
712.27	1626.09
712.45	1779.68
712.63	1685.48
712.82	1693.67
713.00	1732.58
713.18	1689.57
713.37	1767.40
713.55	1734.63
713.73	1677.29
713.91	1798.12
714.10	1652.71
714.28	1679.33
714.46	1746.92
714.65	1742.82
714.83	1742.82
715.01	1724.39
715.19	1755.11
715.38	1660.90
715.56	1765.35
715.74	1628.14
715.92	1654.76
716.11	1779.68
716.29	1697.77
716.47	1685.48
716.65	1648.61
716.84	1673.19
717.02	1726.44
717.20	1578.98
717.38	1701.86
717.57	1689.57
717.75	1675.24
717.93	1617.90
718.11	1738.73
718.30	1570.79
718.48	1665.00
718.66	1816.55
718.84	1789.92
719.03	1775.59
719.21	1624.04
719.39	1765.35
719.57	1699.81
719.75	1798.12
719.94	1710.05
720.12	1607.66
720.30	1759.21
720.48	1771.49
720.67	1632.23
720.85	1626.09
721.03	1689.57
721.21	1617.90
721.39	1804.26
721.58	1728.49
721.76	1660.90
721.94	1705.96
722.12	1761.25
722.30	1722.34
722.49	1621.99
722.67	1710.05
722.85	1697.77
723.03	1613.80
723.21	1619.94
723.40	1712.10
723.58	1775.59
723.76	1802.21
723.94	1746.92
724.12	1675.24
724.30	1816.55
724.49	1791.97
724.67	1724.39
724.85	1773.54
725.03	1720.29
725.21	1685.48
725.40	1765.35
725.58	1617.90
725.76	1761.25
725.94	1759.21
726.12	1636.33
726.30	1695.72
726.49	1697.77
726.67	1708.01
726.85	1724.39
727.03	1783.78
727.21	2078.69
727.39	2899.92
727.57	3895.24
727.76	4169.66
727.94	4593.59
728.12	4370.37
728.30	3676.10
728.48	2930.64
728.66	2785.24
728.84	2510.81
729.03	2353.12
729.21	2197.47
729.39	2021.35
729.57	1892.32
729.75	1791.97
729.93	1880.04
730.11	1785.83
730.30	1644.52
730.48	1751.01
730.66	1853.41
730.84	1710.05
731.02	1732.58
731.20	1654.76
731.38	1796.07
731.56	1607.66
731.74	1603.56
731.93	1785.83
732.11	1677.29
732.29	1665.00
732.47	1753.06
732.65	1810.40
732.83	1687.53
733.01	1673.19
733.19	1679.33
733.37	1728.49
733.56	1777.64
733.74	1712.10
733.92	1716.20
734.10	1789.92
734.28	1705.96
734.46	1630.18
734.64	1656.81
734.82	1677.29
735.00	1685.48
735.18	1673.19
735.36	1638.38
735.54	1681.38
735.73	1771.49
735.91	1734.63
736.09	1773.54
736.27	1765.35
736.45	1742.82
736.63	1648.61
736.81	1636.33
736.99	1726.44
737.17	1771.49
737.35	1634.28
737.53	1720.29
737.71	1689.57
737.89	1773.54
738.07	1605.61
738.25	1605.61
738.43	1603.56
738.61	1675.24
738.80	1677.29
738.98	1640.42
739.16	1685.48
739.34	1638.38
739.52	1802.21
739.70	1755.11
739.88	1738.73
740.06	1765.35
740.24	1630.18
740.42	1701.86
740.60	1583.08
740.78	1634.28
740.96	1611.75
741.14	1675.24
741.32	1665.00
741.50	1640.42
741.68	1832.93
741.86	1783.78
742.04	1644.52
742.22	1689.57
742.40	1705.96
742.58	1714.15
742.76	1687.53
742.94	1781.73
743.12	1562.60
743.30	1714.15
743.48	1718.25
743.66	1697.77
743.84	1691.62
744.02	1669.09
744.20	1667.05
744.38	1708.01
744.56	1665.00
744.74	1755.11
744.92	1705.96
745.10	1820.64
745.28	1755.11
745.46	1843.17
745.64	1648.61
745.82	1751.01
746.00	1685.48
746.18	1669.09
746.36	1540.07
746.54	1724.39
746.72	1667.05
746.90	1644.52
747.08	1726.44
747.26	1642.47
747.44	1777.64
747.62	1744.87
747.80	1697.77
747.98	1732.58
748.15	1658.85
748.33	1857.51
748.51	1738.73
748.69	1814.50
748.87	1667.05
749.05	1687.53
749.23	1697.77
749.41	1744.87
749.59	1695.72
749.77	1705.96
749.95	1699.81
750.13	1730.53
750.31	1703.91
750.49	1693.67
750.67	1712.10
750.85	1742.82
751.03	1779.68
751.20	1902.56
751.38	1685.48
751.56	1710.05
751.74	1718.25
751.92	1693.67
752.10	1681.38
752.28	1806.31
752.46	1665.00
752.64	1646.57
752.82	1738.73
753.00	1820.64
753.18	1705.96
753.35	1708.01
753.53	1644.52
753.71	1640.42
753.89	1734.63
754.07	1693.67
754.25	1722.34
754.43	1687.53
754.61	1640.42
754.79	1753.06
754.97	1679.33
755.14	1798.12
755.32	1607.66
755.50	1777.64
755.68	1685.48
755.86	1636.33
756.04	1671.14
756.22	1675.24
756.40	1824.74
756.57	1814.50
756.75	1699.81
756.93	1771.49
757.11	1685.48
757.29	1656.81
757.47	1591.27
757.65	1605.61
757.82	1601.51
758.00	1697.77
758.18	1705.96
758.36	1728.49
758.54	1720.29
758.72	1632.23
758.90	1771.49
759.07	1669.09
759.25	1595.37
759.43	1687.53
759.61	1640.42
759.79	2160.61
759.97	1748.97
760.15	1644.52
760.32	1693.67
760.50	1740.77
760.68	1869.80
760.86	1634.28
761.04	1771.49
761.22	1689.57
761.39	1669.09
761.57	1718.25
761.75	1656.81
761.93	1714.15
762.11	1687.53
762.28	1656.81
762.46	1568.74
762.64	1796.07
762.82	1705.96
763.00	1716.20
763.18	1748.97
763.35	1652.71
763.53	1746.92
763.71	1695.72
763.89	1724.39
764.07	1665.00
764.24	1708.01
764.42	1722.34
764.60	1656.81
764.78	1701.86
764.96	1699.81
765.13	1728.49
765.31	1726.44
765.49	1724.39
765.67	1650.66
765.84	1675.24
766.02	1656.81
766.20	1634.28
766.38	1697.77
766.56	1828.84
766.73	1794.02
766.91	1736.68
767.09	1705.96
767.27	1730.53
767.44	1697.77
767.62	1779.68
767.80	1718.25
767.98	1677.29
768.15	1669.09
768.33	1742.82
768.51	1730.53
768.69	1812.45
768.87	1755.11
769.04	1652.71
769.22	1861.60
769.40	1880.04
769.58	1845.22
769.75	1681.38
769.93	1796.07
770.11	1681.38
770.28	1650.66
770.46	1683.43
770.64	1632.23
770.82	1660.90
770.99	1761.25
771.17	1687.53
771.35	1693.67
771.53	1603.56
771.70	1724.39
771.88	1734.63
772.06	1675.24
772.23	1671.14
772.41	1669.09
772.59	1728.49
772.77	1691.62
772.94	1677.29
773.12	1699.81
773.30	1771.49
773.47	1703.91
773.65	1646.57
773.83	1779.68
774.01	1701.86
774.18	1615.85
774.36	1665.00
774.54	1626.09
774.71	1697.77
774.89	1601.51
775.07	1609.70
775.24	1611.75
775.42	1640.42
775.60	1728.49
775.78	1656.81
775.95	1658.85
776.13	1585.13
776.31	1591.27
776.48	1687.53
776.66	1789.92
776.84	1689.57
777.01	1693.67
777.19	1611.75
777.37	1691.62
777.54	1773.54
777.72	1767.40
777.90	1681.38
778.07	1687.53
778.25	1875.94
778.43	1722.34
778.60	1665.00
778.78	1732.58
778.96	1720.29
779.13	1578.98
779.31	1767.40
779.49	1748.97
779.66	1677.29
779.84	1736.68
780.01	1658.85
780.19	1705.96
780.37	1791.97
780.54	1759.21
780.72	1624.04
780.90	1611.75
781.07	1681.38
781.25	1718.25
781.43	1738.73
781.60	1699.81
781.78	1802.21
781.95	1681.38
782.13	1662.95
782.31	1685.48
782.48	1621.99
782.66	1716.20
782.83	1816.55
783.01	1705.96
783.19	1720.29
783.36	1703.91
783.54	1708.01
783.72	1748.97
783.89	1697.77
784.07	1658.85
784.24	1716.20
784.42	1806.31
784.60	1703.91
784.77	1714.15
784.95	1613.80
785.12	1697.77
785.30	1796.07
785.47	1550.31
785.65	1710.05
785.83	1636.33
786.00	1613.80
786.18	1738.73
786.35	1630.18
786.53	1675.24
786.71	1800.16
786.88	1681.38
787.06	1685.48
787.23	1708.01
787.41	1609.70
787.58	1669.09
787.76	1624.04
787.94	1695.72
788.11	1708.01
788.29	1581.03
788.46	1656.81
788.64	1581.03
788.81	1667.05
788.99	1640.42
789.16	1673.19
789.34	1708.01
789.52	1652.71
789.69	1683.43
789.87	1581.03
790.04	1665.00
790.22	1703.91
790.39	1818.60
790.57	1624.04
790.74	1673.19
790.92	1789.92
791.09	1640.42
791.27	1681.38
791.44	1775.59
791.62	1667.05
791.79	1806.31
791.97	1726.44
792.15	1900.52
792.32	1677.29
792.50	1779.68
792.67	1697.77
792.85	1798.12
793.02	1746.92
793.20	1638.38
793.37	1609.70
793.55	1652.71
793.72	1642.47
793.90	1677.29
794.07	1703.91
794.25	1665.00
794.42	1714.15
794.60	1728.49
794.77	1695.72
794.95	1736.68
795.12	1753.06
795.30	1742.82
795.47	1533.93
795.65	1890.28
795.82	1742.82
796.00	1669.09
796.17	1753.06
796.34	1677.29
796.52	1656.81
796.69	1665.00
796.87	1771.49
797.04	1755.11
797.22	1802.21
797.39	1759.21
797.57	1675.24
797.74	1671.14
797.92	1697.77
798.09	1652.71
798.27	1755.11
798.44	1751.01
798.62	1628.14
798.79	1697.77
798.96	1785.83
799.14	1673.19
799.31	1796.07
799.49	1710.05
799.66	1662.95
799.84	1607.66
800.01	1576.94
800.19	1681.38
800.36	1595.37
800.53	1691.62
800.71	1708.01
800.88	1759.21
801.06	1724.39
801.23	1705.96
801.41	1705.96
801.58	1640.42
801.75	1783.78
801.93	1691.62
802.10	1701.86
802.28	1710.05
802.45	1673.19
802.63	1763.30
802.80	1744.87
802.97	1632.23
803.15	1687.53
803.32	1658.85
803.50	1613.80
803.67	1624.04
803.84	1658.85
804.02	1667.05
804.19	1697.77
804.37	1599.46
804.54	1564.65
804.71	1697.77
804.89	1683.43
805.06	1742.82
805.24	1673.19
805.41	1687.53
805.58	1669.09
805.76	1798.12
805.93	1687.53
806.10	1689.57
806.28	1740.77
806.45	1730.53
806.63	1675.24
806.80	1728.49
806.97	1705.96
807.15	1681.38
807.32	1693.67
807.49	1742.82
807.67	1656.81
807.84	1732.58
808.01	1603.56
808.19	1757.16
808.36	1722.34
808.54	1665.00
808.71	1609.70
808.88	1726.44
809.06	1787.88
809.23	1822.69
809.40	1634.28
809.58	1695.72
809.75	1777.64
809.92	1642.47
810.10	1834.98
810.27	1675.24
810.44	1726.44
810.62	1744.87
810.79	1675.24
810.96	1628.14
811.14	1712.10
811.31	1757.16
811.48	1732.58
811.66	1699.81
811.83	1693.67
812.00	1679.33
812.18	1742.82
812.35	1882.08
812.52	1632.23
812.69	1665.00
812.87	1742.82
813.04	1699.81
813.21	1687.53
813.39	1581.03
813.56	1679.33
813.73	1773.54
813.91	1619.94
814.08	1683.43
814.25	1693.67
814.42	1636.33
814.60	1699.81
814.77	1685.48
814.94	1726.44
815.12	1656.81
815.29	1828.84
815.46	1701.86
815.63	1722.34
815.81	1638.38
815.98	1665.00
816.15	1716.20
816.33	1677.29
816.50	1708.01
816.67	1665.00
816.84	1646.57
817.02	1660.90
817.19	1587.18
817.36	1689.57
817.53	1689.57
817.71	1675.24
817.88	1787.88
818.05	1675.24
818.22	1695.72
818.40	1857.51
818.57	1669.09
818.74	1728.49
818.91	1675.24
819.09	1759.21
819.26	1746.92
819.43	1665.00
819.60	1609.70
819.78	1679.33
819.95	1718.25
820.12	1621.99
820.29	1701.86
820.47	1677.29
820.64	1681.38
820.81	1617.90
820.98	1624.04
821.15	1597.42
821.33	1746.92
821.50	1628.14
821.67	1755.11
821.84	1705.96
822.02	1730.53
822.19	1730.53
822.36	1660.90
822.53	1626.09
822.70	1722.34
822.88	1636.33
823.05	1826.79
823.22	1648.61
823.39	1677.29
823.56	1636.33
823.74	1816.55
823.91	1628.14
824.08	1609.70
824.25	1673.19
824.42	1744.87
824.60	1644.52
824.77	1701.86
824.94	1656.81
825.11	1751.01
825.28	1628.14
825.45	1710.05
825.63	1613.80
825.80	1619.94
825.97	1716.20
826.14	1705.96
826.31	1660.90
826.48	1724.39
826.66	1714.15
826.83	1693.67
827.00	1779.68
827.17	1642.47
827.34	1646.57
827.51	1660.90
827.69	1726.44
827.86	1656.81
828.03	1703.91
828.20	1722.34
828.37	1634.28
828.54	1744.87
828.71	1679.33
828.89	1834.98
829.06	1712.10
829.23	1808.36
829.40	1613.80
829.57	1654.76
829.74	1751.01
829.91	1677.29
830.09	1703.91
830.26	1730.53
830.43	1812.45
830.60	1789.92
830.77	1787.88
830.94	1769.44
831.11	1755.11
831.28	1662.95
831.46	1742.82
831.63	1640.42
831.80	1710.05
831.97	1609.70
832.14	1677.29
832.31	1734.63
832.48	1681.38
832.65	1705.96
832.82	1705.96
832.99	1757.16
833.17	1636.33
833.34	1849.32
833.51	1753.06
833.68	1601.51
833.85	1744.87
834.02	1634.28
834.19	1667.05
834.36	1662.95
834.53	1734.63
834.70	1708.01
834.87	1769.44
835.04	1708.01
835.22	1648.61
835.39	1746.92
835.56	1652.71
835.73	1716.20
835.90	1773.54
836.07	1693.67
836.24	1681.38
836.41	1638.38
836.58	1693.67
836.75	1734.63
836.92	1703.91
837.09	1673.19
837.26	1834.98
837.43	1667.05
837.60	1724.39
837.77	1691.62
837.94	1773.54
838.12	1714.15
838.29	1677.29
838.46	1611.75
838.63	1591.27
838.80	1761.25
838.97	1759.21
839.14	1757.16
839.31	1671.14
839.48	1669.09
839.65	1681.38
839.82	1794.02
839.99	1662.95
840.16	1716.20
840.33	1656.81
840.50	1757.16
840.67	1689.57
840.84	1624.04
841.01	1656.81
841.18	1599.46
841.35	1687.53
841.52	1699.81
841.69	1914.85
841.86	1726.44
842.03	1703.91
842.20	1718.25
842.37	1726.44
842.54	1683.43
842.71	1744.87
842.88	1656.81
843.05	1783.78
843.22	1701.86
843.39	1722.34
843.56	1791.97
843.73	1714.15
843.90	1748.97
844.07	1687.53
844.24	1740.77
844.41	1697.77
844.58	1705.96
844.75	1693.67
844.92	1732.58
845.09	1705.96
845.26	1673.19
845.43	1746.92
845.60	1683.43
845.77	1683.43
845.94	1697.77
846.10	1701.86
846.27	1593.32
846.44	1667.05
846.61	1642.47
846.78	1683.43
846.95	1798.12
847.12	1667.05
847.29	1734.63
847.46	1652.71
847.63	1716.20
847.80	1675.24
847.97	1679.33
848.14	1808.36
848.31	1708.01
848.48	1673.19
848.65	1673.19
848.82	1587.18
848.98	1904.61
849.15	1804.26
849.32	1699.81
849.49	1703.91
849.66	1648.61
849.83	1728.49
850.00	1634.28
850.17	1679.33
850.34	1636.33
850.51	1654.76
850.68	1626.09
850.85	1834.98
851.01	1689.57
851.18	1705.96
851.35	1705.96
851.52	1671.14
851.69	1812.45
851.86	1599.46
852.03	1728.49
852.20	1654.76
852.37	1685.48
852.53	1581.03
852.70	1683.43
852.87	1712.10
853.04	1679.33
853.21	1681.38
853.38	1757.16
853.55	1775.59
853.72	1783.78
853.89	1660.90
854.05	1693.67
854.22	1710.05
854.39	1697.77
854.56	1734.63
854.73	1751.01
854.90	1679.33
855.07	1671.14
855.23	1644.52
855.40	1626.09
855.57	1730.53
855.74	1540.07
855.91	1791.97
856.08	1615.85
856.25	1693.67
856.41	1705.96
856.58	1669.09
856.75	1742.82
856.92	1677.29
857.09	1804.26
857.26	1665.00
857.42	1705.96
857.59	1703.91
857.76	1601.51
857.93	1665.00
858.10	1757.16
858.27	1646.57
858.43	1691.62
858.60	1611.75
858.77	1648.61
858.94	1712.10
859.11	1789.92
859.27	1570.79
859.44	1669.09
859.61	1806.31
859.78	1724.39
859.95	1695.72
860.12	1638.38
860.28	1763.30
860.45	1710.05
860.62	1621.99
860.79	1730.53
860.95	1746.92
861.12	1712.10
861.29	1685.48
861.46	1542.12
861.63	1712.10
861.79	1673.19
861.96	1652.71
862.13	1687.53
862.30	1746.92
862.47	1624.04
862.63	1730.53
862.80	1767.40
862.97	1693.67
863.14	1644.52
863.30	1726.44
863.47	1634.28
863.64	1722.34
863.81	1806.31
863.97	1728.49
864.14	1748.97
864.31	1669.09
864.48	1722.34
864.65	1675.24
864.81	1742.82
864.98	1751.01
865.15	1744.87
865.32	1748.97
865.48	1730.53
865.65	1785.83
865.82	1609.70
865.98	1746.92
866.15	1742.82
866.32	1720.29
866.49	1701.86
866.65	1810.40
866.82	1650.66
866.99	1685.48
867.16	1576.94
867.32	1708.01
867.49	1681.38
867.66	1726.44
867.83	1722.34
867.99	1585.13
868.16	1673.19
868.33	1558.50
868.49	1742.82
868.66	1640.42
868.83	1738.73
868.99	1621.99
869.16	1726.44
869.33	1748.97
869.50	1722.34
869.66	1748.97
869.83	1748.97
870.00	1611.75
870.16	1730.53
870.33	1716.20
870.50	1679.33
870.66	1699.81
870.83	1787.88
871.00	1693.67
871.17	1730.53
871.33	1736.68
871.50	1601.51
871.67	1714.15
871.83	1705.96
872.00	1828.84
872.17	1697.77
872.33	1843.17
872.50	1619.94
872.67	1671.14
872.83	1626.09
873.00	1767.40
873.17	1628.14
873.33	1767.40
873.50	1710.05
873.67	1611.75
873.83	1642.47
874.00	1740.77
874.16	1724.39
874.33	1714.15
874.50	1568.74
874.66	1777.64
874.83	1693.67
875.00	1767.40
875.16	1783.78
875.33	1763.30
875.50	1568.74
875.66	1624.04
875.83	1650.66
875.99	1703.91
876.16	1583.08
876.33	1607.66
876.49	1726.44
876.66	1763.30
876.83	1581.03
876.99	1583.08
877.16	1728.49
877.32	1748.97
877.49	1589.22
877.66	1716.20
877.82	1757.16
877.99	1705.96
878.15	1757.16
878.32	1714.15
878.49	1675.24
878.65	1642.47
878.82	1763.30
878.98	1697.77
879.15	1734.63
879.32	1765.35
879.48	1667.05
879.65	1695.72
879.81	1740.77
879.98	1652.71
880.15	1685.48
880.31	1734.63
880.48	1701.86
880.64	1763.30
880.81	1703.91
880.97	1730.53
881.14	1771.49
881.31	1628.14
881.47	1806.31
881.64	1667.05
881.80	1585.13
881.97	1710.05
882.13	1679.33
882.30	1621.99
882.47	1665.00
882.63	1613.80
882.80	1621.99
882.96	1626.09
883.13	1738.73
883.29	1775.59
883.46	1658.85
883.62	1847.27
883.79	1705.96
883.95	1765.35
884.12	1677.29
884.29	1757.16
884.45	1710.05
884.62	1783.78
884.78	1646.57
884.95	1757.16
885.11	1675.24
885.28	1716.20
885.44	1630.18
885.61	1736.68
885.77	1734.63
885.94	1703.91
886.10	1613.80
886.27	1748.97
886.43	1822.69
886.60	1751.01
886.76	1632.23
886.93	1642.47
887.09	1685.48
887.26	1644.52
887.42	1726.44
887.59	1708.01
887.75	1794.02
887.92	1796.07
888.08	1708.01
888.25	1804.26
888.41	1699.81
888.58	1777.64
888.74	1683.43
888.91	1736.68
>>>>>End Processed Spectral Data<<<<<
