SpectraSuite Data File
++++++++++++++++++++++++++++++++++++
Date: Mon Jun 06 17:41:17 CEST 2016
User: root
Dark Spectrum Present: No
Reference Spectrum Present: No
Number of Sampled Component Spectra: 1
Spectrometers: USB4C02835
Integration Time (usec): 100000 (USB4C02835)
Spectra Averaged: 1 (USB4C02835)
Boxcar Smoothing: 0 (USB4C02835)
Correct for Electrical Dark: No (USB4C02835)
Strobe/Lamp Enabled: No (USB4C02835)
Correct for Detector Non-linearity: No (USB4C02835)
Correct for Stray Light: No (USB4C02835)
Number of Pixels in Processed Spectrum: 3648
>>>>>Begin Processed Spectral Data<<<<<
177.47	1464.30
177.69	1464.30
177.91	1464.30
178.13	1431.53
178.36	1495.02
178.58	1687.53
178.80	1738.73
179.02	1583.08
179.24	1615.85
179.46	1800.16
179.68	1806.31
179.90	1699.81
180.13	1726.44
180.35	1693.67
180.57	1644.52
180.79	1689.57
181.01	1724.39
181.23	1765.35
181.45	1738.73
181.67	1763.30
181.90	1800.16
182.12	1673.19
182.34	1685.48
182.56	1732.58
182.78	1720.29
183.00	1753.06
183.22	1820.64
183.44	1621.99
183.66	1914.85
183.89	1820.64
184.11	1712.10
184.33	1740.77
184.55	1812.45
184.77	1781.73
184.99	1751.01
185.21	1732.58
185.43	1869.80
185.65	1652.71
185.87	1673.19
186.10	1898.47
186.32	1843.17
186.54	1701.86
186.76	1701.86
186.98	1740.77
187.20	1761.25
187.42	1720.29
187.64	1736.68
187.86	1748.97
188.08	1767.40
188.30	1769.44
188.52	1767.40
188.75	1751.01
188.97	1843.17
189.19	1722.34
189.41	1601.51
189.63	1742.82
189.85	1624.04
190.07	1644.52
190.29	1640.42
190.51	1818.60
190.73	1597.42
190.95	1814.50
191.17	1675.24
191.39	1644.52
191.61	1724.39
191.84	1748.97
192.06	1755.11
192.28	1687.53
192.50	1877.99
192.72	1691.62
192.94	1669.09
193.16	1710.05
193.38	1759.21
193.60	1650.66
193.82	1699.81
194.04	1722.34
194.26	1789.92
194.48	1751.01
194.70	1683.43
194.92	1679.33
195.14	1777.64
195.36	1802.21
195.58	1746.92
195.80	1753.06
196.02	1607.66
196.24	1724.39
196.46	1740.77
196.69	1630.18
196.91	1898.47
197.13	1744.87
197.35	1693.67
197.57	1861.60
197.79	1820.64
198.01	1783.78
198.23	1779.68
198.45	1654.76
198.67	1595.37
198.89	1708.01
199.11	1716.20
199.33	1644.52
199.55	1564.65
199.77	1759.21
199.99	1734.63
200.21	1738.73
200.43	1800.16
200.65	1683.43
200.87	1607.66
201.09	1679.33
201.31	1675.24
201.53	1808.36
201.75	1742.82
201.97	1667.05
202.19	1660.90
202.41	1728.49
202.63	1816.55
202.85	1820.64
203.07	1767.40
203.29	1708.01
203.51	1699.81
203.73	1685.48
203.95	1892.32
204.17	1787.88
204.39	1751.01
204.61	1746.92
204.83	1779.68
205.05	1732.58
205.27	1839.08
205.49	1794.02
205.71	1705.96
205.93	1585.13
206.15	1640.42
206.37	1742.82
206.59	1697.77
206.81	1646.57
207.03	1691.62
207.25	1617.90
207.47	1697.77
207.69	1695.72
207.91	1816.55
208.13	1740.77
208.34	1701.86
208.56	1644.52
208.78	1714.15
209.00	1662.95
209.22	1800.16
209.44	1619.94
209.66	1757.16
209.88	1753.06
210.10	1710.05
210.32	1703.91
210.54	1781.73
210.76	1689.57
210.98	1759.21
211.20	1587.18
211.42	1740.77
211.64	1769.44
211.86	1701.86
212.08	1761.25
212.30	1693.67
212.52	1751.01
212.74	1761.25
212.96	1697.77
213.17	1722.34
213.39	1773.54
213.61	1849.32
213.83	1802.21
214.05	1701.86
214.27	1812.45
214.49	1648.61
214.71	1703.91
214.93	1794.02
215.15	1691.62
215.37	1775.59
215.59	1695.72
215.81	1753.06
216.03	1773.54
216.24	1677.29
216.46	1730.53
216.68	1742.82
216.90	1804.26
217.12	1771.49
217.34	1716.20
217.56	1765.35
217.78	1734.63
218.00	1757.16
218.22	1638.38
218.44	1703.91
218.66	1738.73
218.87	1859.56
219.09	1697.77
219.31	1748.97
219.53	1744.87
219.75	1734.63
219.97	1716.20
220.19	1800.16
220.41	1718.25
220.63	1861.60
220.85	1769.44
221.06	1671.14
221.28	1837.03
221.50	1794.02
221.72	1718.25
221.94	1701.86
222.16	1720.29
222.38	1773.54
222.60	1753.06
222.82	1740.77
223.03	1789.92
223.25	1607.66
223.47	1769.44
223.69	1773.54
223.91	1841.12
224.13	1671.14
224.35	1710.05
224.57	1771.49
224.78	1748.97
225.00	1591.27
225.22	1683.43
225.44	1665.00
225.66	1718.25
225.88	1671.14
226.10	1673.19
226.32	1691.62
226.53	1830.88
226.75	1687.53
226.97	1734.63
227.19	1677.29
227.41	1712.10
227.63	1677.29
227.85	1593.32
228.06	1837.03
228.28	1710.05
228.50	1757.16
228.72	1693.67
228.94	1744.87
229.16	1677.29
229.37	1630.18
229.59	1710.05
229.81	1783.78
230.03	1593.32
230.25	1574.89
230.47	1644.52
230.69	1665.00
230.90	1652.71
231.12	1681.38
231.34	1763.30
231.56	1832.93
231.78	1603.56
232.00	1738.73
232.21	1746.92
232.43	1697.77
232.65	1603.56
232.87	1740.77
233.09	1683.43
233.30	1781.73
233.52	1767.40
233.74	1742.82
233.96	1701.86
234.18	1746.92
234.40	1812.45
234.61	1920.99
234.83	1656.81
235.05	1624.04
235.27	1812.45
235.49	1861.60
235.70	1732.58
235.92	1761.25
236.14	1736.68
236.36	1798.12
236.58	1658.85
236.79	1685.48
237.01	1753.06
237.23	1728.49
237.45	1796.07
237.67	1691.62
237.88	1726.44
238.10	1751.01
238.32	1640.42
238.54	1665.00
238.76	1658.85
238.97	1718.25
239.19	1736.68
239.41	1789.92
239.63	1738.73
239.85	1726.44
240.06	1644.52
240.28	1640.42
240.50	1775.59
240.72	1787.88
240.93	1726.44
241.15	1855.46
241.37	1669.09
241.59	1787.88
241.81	1751.01
242.02	1619.94
242.24	1789.92
242.46	1783.78
242.68	1662.95
242.89	1734.63
243.11	1751.01
243.33	1673.19
243.55	1744.87
243.76	1830.88
243.98	1638.38
244.20	1636.33
244.42	1705.96
244.64	1781.73
244.85	1669.09
245.07	1648.61
245.29	1738.73
245.51	1673.19
245.72	1691.62
245.94	1849.32
246.16	1726.44
246.38	1759.21
246.59	1677.29
246.81	1673.19
247.03	1691.62
247.24	1619.94
247.46	1687.53
247.68	1724.39
247.90	1646.57
248.11	1703.91
248.33	1742.82
248.55	1710.05
248.77	1683.43
248.98	1779.68
249.20	1765.35
249.42	1759.21
249.64	1695.72
249.85	1759.21
250.07	1679.33
250.29	1708.01
250.50	1781.73
250.72	1683.43
250.94	1738.73
251.16	1837.03
251.37	1720.29
251.59	1697.77
251.81	1767.40
252.02	1800.16
252.24	1681.38
252.46	1791.97
252.68	1644.52
252.89	1734.63
253.11	1597.42
253.33	1800.16
253.54	1718.25
253.76	1681.38
253.98	1697.77
254.20	1718.25
254.41	1728.49
254.63	1716.20
254.85	1671.14
255.06	1775.59
255.28	1820.64
255.50	1730.53
255.71	1595.37
255.93	1677.29
256.15	1785.83
256.36	1699.81
256.58	1628.14
256.80	1730.53
257.02	1712.10
257.23	1744.87
257.45	1746.92
257.67	1779.68
257.88	1665.00
258.10	1777.64
258.32	1728.49
258.53	1746.92
258.75	1763.30
258.97	1708.01
259.18	1732.58
259.40	1738.73
259.62	1834.98
259.83	1794.02
260.05	1771.49
260.27	2025.44
260.48	1714.15
260.70	1697.77
260.92	1748.97
261.13	1710.05
261.35	1765.35
261.57	1720.29
261.78	1679.33
262.00	1650.66
262.22	1716.20
262.43	1654.76
262.65	1701.86
262.86	1757.16
263.08	1843.17
263.30	1705.96
263.51	1652.71
263.73	1701.86
263.95	1757.16
264.16	1628.14
264.38	1703.91
264.60	1753.06
264.81	1763.30
265.03	1734.63
265.25	1783.78
265.46	1665.00
265.68	1814.50
265.89	1753.06
266.11	1648.61
266.33	1757.16
266.54	1806.31
266.76	1783.78
266.98	1761.25
267.19	1808.36
267.41	1853.41
267.62	1726.44
267.84	1609.70
268.06	1744.87
268.27	1730.53
268.49	1728.49
268.70	1726.44
268.92	1806.31
269.14	1681.38
269.35	1673.19
269.57	1722.34
269.79	1775.59
270.00	1753.06
270.22	1896.42
270.43	1638.38
270.65	1595.37
270.87	1746.92
271.08	1808.36
271.30	1732.58
271.51	1822.69
271.73	1761.25
271.95	1851.36
272.16	1732.58
272.38	1751.01
272.59	1660.90
272.81	1697.77
273.02	1728.49
273.24	1705.96
273.46	1783.78
273.67	1679.33
273.89	1714.15
274.10	1652.71
274.32	1800.16
274.54	1683.43
274.75	1773.54
274.97	1738.73
275.18	1775.59
275.40	1789.92
275.61	1728.49
275.83	1746.92
276.05	1689.57
276.26	1732.58
276.48	1681.38
276.69	1730.53
276.91	1761.25
277.12	1798.12
277.34	1746.92
277.55	1808.36
277.77	1714.15
277.99	1753.06
278.20	1644.52
278.42	1671.14
278.63	1552.36
278.85	1665.00
279.06	1652.71
279.28	1748.97
279.49	1681.38
279.71	1691.62
279.93	1703.91
280.14	1685.48
280.36	1708.01
280.57	1765.35
280.79	1732.58
281.00	1640.42
281.22	1705.96
281.43	1785.83
281.65	1558.50
281.86	1679.33
282.08	1806.31
282.29	1847.27
282.51	1634.28
282.73	1617.90
282.94	1685.48
283.16	1791.97
283.37	1791.97
283.59	1818.60
283.80	1714.15
284.02	1753.06
284.23	1773.54
284.45	1710.05
284.66	1705.96
284.88	1638.38
285.09	1802.21
285.31	1781.73
285.52	1798.12
285.74	1687.53
285.95	1808.36
286.17	1699.81
286.38	1787.88
286.60	1730.53
286.81	1712.10
287.03	1644.52
287.24	1722.34
287.46	1699.81
287.67	1673.19
287.89	1851.36
288.10	1763.30
288.32	1644.52
288.53	1812.45
288.75	1787.88
288.96	1724.39
289.18	1703.91
289.39	1699.81
289.61	1746.92
289.82	1855.46
290.04	1861.60
290.25	1673.19
290.47	1742.82
290.68	1748.97
290.90	1695.72
291.11	1671.14
291.33	1763.30
291.54	1667.05
291.76	1746.92
291.97	1755.11
292.18	1677.29
292.40	1705.96
292.61	1791.97
292.83	1877.99
293.04	1695.72
293.26	1734.63
293.47	1667.05
293.69	1730.53
293.90	1724.39
294.12	1863.65
294.33	1734.63
294.55	1669.09
294.76	1763.30
294.97	1880.04
295.19	1787.88
295.40	1679.33
295.62	1853.41
295.83	1775.59
296.05	1642.47
296.26	1804.26
296.48	1689.57
296.69	1677.29
296.90	1798.12
297.12	1757.16
297.33	1796.07
297.55	1773.54
297.76	1761.25
297.98	1734.63
298.19	1755.11
298.41	1751.01
298.62	1626.09
298.83	1791.97
299.05	1728.49
299.26	1724.39
299.48	1716.20
299.69	1769.44
299.90	1695.72
300.12	1724.39
300.33	1785.83
300.55	1681.38
300.76	1751.01
300.98	1642.47
301.19	1757.16
301.40	1656.81
301.62	1732.58
301.83	1818.60
302.05	1791.97
302.26	1773.54
302.47	1718.25
302.69	1669.09
302.90	1746.92
303.12	1568.74
303.33	1746.92
303.54	1877.99
303.76	1738.73
303.97	1759.21
304.19	1800.16
304.40	1652.71
304.61	1755.11
304.83	1826.79
305.04	1828.84
305.26	1716.20
305.47	1683.43
305.68	1771.49
305.90	1615.85
306.11	1775.59
306.33	1710.05
306.54	1783.78
306.75	1665.00
306.97	1648.61
307.18	1738.73
307.39	1597.42
307.61	1708.01
307.82	1644.52
308.04	1751.01
308.25	1683.43
308.46	1738.73
308.68	1798.12
308.89	1685.48
309.10	1806.31
309.32	1683.43
309.53	1703.91
309.74	1669.09
309.96	1714.15
310.17	1816.55
310.39	1636.33
310.60	1714.15
310.81	1693.67
311.03	1689.57
311.24	1699.81
311.45	1755.11
311.67	1810.40
311.88	1705.96
312.09	1648.61
312.31	1673.19
312.52	1732.58
312.73	1705.96
312.95	1671.14
313.16	1646.57
313.37	1822.69
313.59	1738.73
313.80	1771.49
314.01	1853.41
314.23	1699.81
314.44	1712.10
314.65	1665.00
314.87	1681.38
315.08	1685.48
315.29	1751.01
315.51	1703.91
315.72	1660.90
315.93	1849.32
316.15	1761.25
316.36	1716.20
316.57	1818.60
316.79	1726.44
317.00	1705.96
317.21	1789.92
317.43	1685.48
317.64	1714.15
317.85	1708.01
318.07	1683.43
318.28	1773.54
318.49	1839.08
318.70	1994.72
318.92	1810.40
319.13	1812.45
319.34	1927.14
319.56	1798.12
319.77	1857.51
319.98	1730.53
320.20	1802.21
320.41	1785.83
320.62	1761.25
320.83	1587.18
321.05	1912.80
321.26	1734.63
321.47	1755.11
321.69	1814.50
321.90	1671.14
322.11	1740.77
322.32	1775.59
322.54	1791.97
322.75	1740.77
322.96	1884.13
323.18	1650.66
323.39	1689.57
323.60	1638.38
323.81	1777.64
324.03	1679.33
324.24	1785.83
324.45	1703.91
324.66	1628.14
324.88	1853.41
325.09	1843.17
325.30	1777.64
325.52	1761.25
325.73	1781.73
325.94	1701.86
326.15	1652.71
326.37	1685.48
326.58	1742.82
326.79	1781.73
327.00	1626.09
327.22	1759.21
327.43	1695.72
327.64	1642.47
327.85	1765.35
328.07	1699.81
328.28	1837.03
328.49	1695.72
328.70	1710.05
328.92	1734.63
329.13	1673.19
329.34	1820.64
329.55	1843.17
329.76	1820.64
329.98	1697.77
330.19	1705.96
330.40	1757.16
330.61	1716.20
330.83	1800.16
331.04	1748.97
331.25	1769.44
331.46	1691.62
331.68	1634.28
331.89	1740.77
332.10	1781.73
332.31	1642.47
332.52	1669.09
332.74	1820.64
332.95	1689.57
333.16	1683.43
333.37	1732.58
333.58	1673.19
333.80	1818.60
334.01	1609.70
334.22	1681.38
334.43	1658.85
334.64	1697.77
334.86	1576.94
335.07	1642.47
335.28	1826.79
335.49	1648.61
335.70	1791.97
335.92	1738.73
336.13	1796.07
336.34	1755.11
336.55	1777.64
336.76	1820.64
336.98	1574.89
337.19	1646.57
337.40	1810.40
337.61	1839.08
337.82	1667.05
338.04	1755.11
338.25	1673.19
338.46	1656.81
338.67	1673.19
338.88	1769.44
339.09	1699.81
339.31	1624.04
339.52	1656.81
339.73	1681.38
339.94	1742.82
340.15	1744.87
340.36	1728.49
340.58	1691.62
340.79	1662.95
341.00	1724.39
341.21	1595.37
341.42	1857.51
341.63	1730.53
341.85	1775.59
342.06	1710.05
342.27	1699.81
342.48	1685.48
342.69	1724.39
342.90	1800.16
343.12	1646.57
343.33	1675.24
343.54	1773.54
343.75	1763.30
343.96	1634.28
344.17	1744.87
344.38	1753.06
344.60	1667.05
344.81	1714.15
345.02	1734.63
345.23	1714.15
345.44	1804.26
345.65	1781.73
345.86	1806.31
346.07	1701.86
346.29	1673.19
346.50	1751.01
346.71	1753.06
346.92	1812.45
347.13	1853.41
347.34	1701.86
347.55	1703.91
347.76	1720.29
347.98	1572.84
348.19	1722.34
348.40	1746.92
348.61	1693.67
348.82	1859.56
349.03	1783.78
349.24	1705.96
349.45	1828.84
349.66	1640.42
349.88	1701.86
350.09	1687.53
350.30	1759.21
350.51	1746.92
350.72	1787.88
350.93	1781.73
351.14	1656.81
351.35	1847.27
351.56	1742.82
351.77	1746.92
351.99	1736.68
352.20	1806.31
352.41	1763.30
352.62	1642.47
352.83	1724.39
353.04	1753.06
353.25	1679.33
353.46	1791.97
353.67	1869.80
353.88	1669.09
354.09	1720.29
354.30	1728.49
354.52	1693.67
354.73	1689.57
354.94	1640.42
355.15	1693.67
355.36	1884.13
355.57	1753.06
355.78	1748.97
355.99	1685.48
356.20	1689.57
356.41	1791.97
356.62	1730.53
356.83	1746.92
357.04	1791.97
357.25	1619.94
357.46	1644.52
357.68	1705.96
357.89	1675.24
358.10	1785.83
358.31	1738.73
358.52	1679.33
358.73	1669.09
358.94	1703.91
359.15	1705.96
359.36	1695.72
359.57	1720.29
359.78	1724.39
359.99	1843.17
360.20	1695.72
360.41	1708.01
360.62	1751.01
360.83	1755.11
361.04	1683.43
361.25	1728.49
361.46	1816.55
361.67	1822.69
361.88	1738.73
362.09	1837.03
362.30	1722.34
362.51	1708.01
362.72	1691.62
362.93	1771.49
363.14	1753.06
363.35	1761.25
363.56	1697.77
363.78	1765.35
363.99	1775.59
364.20	1816.55
364.41	1679.33
364.62	1808.36
364.83	1740.77
365.04	1662.95
365.25	1744.87
365.46	1875.94
365.67	1685.48
365.88	1669.09
366.09	1746.92
366.30	1718.25
366.51	1730.53
366.72	1710.05
366.93	1697.77
367.14	1726.44
367.35	1791.97
367.56	1679.33
367.77	1851.36
367.98	1665.00
368.18	1726.44
368.39	1748.97
368.60	1632.23
368.81	1716.20
369.02	1701.86
369.23	1730.53
369.44	1667.05
369.65	1687.53
369.86	1732.58
370.07	1804.26
370.28	1621.99
370.49	1695.72
370.70	1769.44
370.91	1644.52
371.12	1697.77
371.33	1757.16
371.54	1701.86
371.75	1851.36
371.96	1601.51
372.17	1779.68
372.38	1783.78
372.59	1746.92
372.80	1646.57
373.01	1742.82
373.22	1800.16
373.43	1693.67
373.64	1716.20
373.85	1843.17
374.06	1775.59
374.26	1738.73
374.47	1740.77
374.68	1763.30
374.89	1683.43
375.10	1763.30
375.31	1843.17
375.52	1732.58
375.73	1722.34
375.94	1708.01
376.15	1802.21
376.36	1665.00
376.57	1648.61
376.78	1718.25
376.99	1705.96
377.20	1794.02
377.40	1763.30
377.61	1832.93
377.82	1648.61
378.03	1746.92
378.24	1742.82
378.45	1746.92
378.66	1632.23
378.87	1578.98
379.08	1654.76
379.29	1687.53
379.50	1783.78
379.71	1796.07
379.91	1742.82
380.12	1722.34
380.33	1685.48
380.54	1718.25
380.75	1677.29
380.96	1681.38
381.17	1841.12
381.38	1746.92
381.59	1773.54
381.80	1755.11
382.00	1832.93
382.21	1779.68
382.42	1871.84
382.63	1906.66
382.84	1781.73
383.05	1822.69
383.26	1857.51
383.47	1697.77
383.68	1824.74
383.88	1755.11
384.09	1687.53
384.30	1845.22
384.51	1710.05
384.72	1658.85
384.93	1671.14
385.14	1724.39
385.35	1761.25
385.55	1646.57
385.76	1798.12
385.97	1716.20
386.18	1611.75
386.39	1683.43
386.60	1646.57
386.81	1736.68
387.02	1705.96
387.22	1689.57
387.43	1830.88
387.64	1763.30
387.85	1957.86
388.06	2279.39
388.27	4229.06
388.48	6664.09
388.68	8236.93
388.89	9514.86
389.10	9854.83
389.31	8531.84
389.52	7776.14
389.73	6764.44
389.93	6315.94
390.14	5875.62
390.35	5244.85
390.56	4661.18
390.77	3925.96
390.98	3090.38
391.18	2439.13
391.39	2123.74
391.60	1820.64
391.81	1877.99
392.02	1763.30
392.23	1865.70
392.43	1730.53
392.64	1849.32
392.85	1773.54
393.06	1839.08
393.27	1710.05
393.47	1720.29
393.68	1730.53
393.89	1734.63
394.10	1820.64
394.31	1570.79
394.52	1658.85
394.72	1689.57
394.93	1794.02
395.14	1636.33
395.35	1773.54
395.56	1718.25
395.76	1755.11
395.97	1812.45
396.18	1869.80
396.39	1814.50
396.60	2023.39
396.80	1847.27
397.01	1935.33
397.22	1861.60
397.43	1832.93
397.64	1841.12
397.84	1834.98
398.05	1890.28
398.26	1779.68
398.47	1865.70
398.67	1822.69
398.88	1695.72
399.09	1777.64
399.30	1742.82
399.51	1726.44
399.71	1652.71
399.92	1636.33
400.13	1812.45
400.34	1738.73
400.54	1636.33
400.75	1802.21
400.96	1771.49
401.17	1894.37
401.37	1730.53
401.58	1705.96
401.79	1771.49
402.00	1847.27
402.21	2004.96
402.41	1908.71
402.62	1980.39
402.83	2111.46
403.04	2017.25
403.24	2160.61
403.45	1855.46
403.66	1927.14
403.87	1996.77
404.07	1896.42
404.28	1945.57
404.49	1871.84
404.70	1796.07
404.90	1873.89
405.11	1796.07
405.32	1712.10
405.52	1742.82
405.73	1695.72
405.94	1708.01
406.15	1810.40
406.35	1773.54
406.56	1773.54
406.77	1710.05
406.98	1738.73
407.18	1710.05
407.39	1834.98
407.60	1638.38
407.80	1761.25
408.01	1658.85
408.22	1751.01
408.43	1701.86
408.63	1796.07
408.84	1753.06
409.05	1837.03
409.25	1601.51
409.46	1654.76
409.67	1728.49
409.88	1683.43
410.08	1656.81
410.29	1722.34
410.50	1722.34
410.70	1740.77
410.91	1658.85
411.12	1695.72
411.32	1734.63
411.53	1712.10
411.74	1781.73
411.95	1886.18
412.15	1763.30
412.36	1798.12
412.57	1730.53
412.77	1822.69
412.98	1832.93
413.19	1744.87
413.39	1785.83
413.60	1742.82
413.81	1834.98
414.01	1679.33
414.22	1783.78
414.43	1794.02
414.63	1771.49
414.84	1806.31
415.05	1744.87
415.25	1685.48
415.46	1796.07
415.67	1710.05
415.87	1673.19
416.08	1724.39
416.29	1724.39
416.49	1777.64
416.70	1626.09
416.91	1740.77
417.11	1722.34
417.32	1751.01
417.53	1710.05
417.73	1714.15
417.94	1658.85
418.15	1771.49
418.35	1701.86
418.56	1685.48
418.77	1871.84
418.97	1787.88
419.18	1683.43
419.38	1591.27
419.59	1708.01
419.80	1773.54
420.00	1712.10
420.21	1746.92
420.42	1834.98
420.62	1705.96
420.83	1681.38
421.04	1738.73
421.24	1773.54
421.45	1753.06
421.65	1746.92
421.86	1787.88
422.07	1814.50
422.27	1695.72
422.48	1699.81
422.69	1673.19
422.89	1703.91
423.10	1740.77
423.30	1718.25
423.51	1736.68
423.72	1757.16
423.92	1742.82
424.13	1660.90
424.33	1681.38
424.54	1816.55
424.75	1755.11
424.95	1875.94
425.16	1789.92
425.36	1685.48
425.57	1677.29
425.78	1789.92
425.98	1806.31
426.19	1654.76
426.39	1710.05
426.60	1710.05
426.81	1775.59
427.01	1693.67
427.22	1681.38
427.42	1662.95
427.63	1671.14
427.83	1736.68
428.04	1783.78
428.25	1824.74
428.45	1751.01
428.66	1828.84
428.86	1695.72
429.07	1681.38
429.28	1708.01
429.48	1748.97
429.69	1701.86
429.89	1779.68
430.10	1681.38
430.30	1761.25
430.51	1763.30
430.71	1710.05
430.92	1699.81
431.13	1683.43
431.33	1828.84
431.54	1748.97
431.74	1820.64
431.95	1902.56
432.15	1689.57
432.36	1742.82
432.56	1751.01
432.77	1800.16
432.98	1845.22
433.18	1732.58
433.39	1746.92
433.59	1683.43
433.80	1763.30
434.00	1863.65
434.21	1726.44
434.41	1736.68
434.62	1892.32
434.82	1621.99
435.03	1677.29
435.23	1685.48
435.44	1607.66
435.64	1746.92
435.85	1820.64
436.06	1804.26
436.26	1826.79
436.47	1628.14
436.67	1726.44
436.88	1757.16
437.08	1710.05
437.29	1812.45
437.49	1736.68
437.70	1734.63
437.90	1730.53
438.11	1775.59
438.31	1816.55
438.52	1884.13
438.72	1931.23
438.93	1918.95
439.13	1871.84
439.34	1800.16
439.54	1656.81
439.75	1759.21
439.95	1837.03
440.16	1681.38
440.36	1769.44
440.57	1746.92
440.77	1806.31
440.98	1710.05
441.18	1718.25
441.39	1710.05
441.59	1716.20
441.80	1888.23
442.00	1771.49
442.21	1787.88
442.41	1673.19
442.62	1763.30
442.82	1644.52
443.02	1796.07
443.23	1841.12
443.43	1695.72
443.64	1748.97
443.84	1697.77
444.05	1830.88
444.25	1671.14
444.46	1734.63
444.66	1800.16
444.87	1783.78
445.07	1644.52
445.28	1755.11
445.48	1789.92
445.69	1763.30
445.89	1937.38
446.09	1716.20
446.30	2099.17
446.50	2672.60
446.71	3710.92
446.91	4364.22
447.12	4761.53
447.32	4900.79
447.53	4530.11
447.73	3952.58
447.93	3592.14
448.14	3456.97
448.34	3168.21
448.55	2955.22
448.75	2881.49
448.96	2703.32
449.16	2422.75
449.36	2136.03
449.57	2082.78
449.77	1890.28
449.98	1746.92
450.18	1802.21
450.39	1783.78
450.59	1773.54
450.79	1816.55
451.00	1685.48
451.20	1814.50
451.41	1712.10
451.61	1796.07
451.81	1765.35
452.02	1716.20
452.22	1681.38
452.43	1705.96
452.63	1763.30
452.84	1781.73
453.04	1691.62
453.24	1763.30
453.45	1787.88
453.65	1667.05
453.86	1705.96
454.06	1703.91
454.26	1787.88
454.47	1746.92
454.67	1843.17
454.87	1785.83
455.08	1777.64
455.28	1894.37
455.49	1748.97
455.69	1746.92
455.89	1855.46
456.10	1794.02
456.30	1681.38
456.51	1777.64
456.71	1855.46
456.91	1779.68
457.12	1771.49
457.32	1783.78
457.52	1683.43
457.73	1804.26
457.93	1818.60
458.14	1710.05
458.34	1667.05
458.54	1716.20
458.75	1701.86
458.95	1804.26
459.15	1767.40
459.36	1677.29
459.56	1820.64
459.76	1796.07
459.97	1759.21
460.17	1789.92
460.37	1818.60
460.58	1763.30
460.78	1818.60
460.99	1728.49
461.19	1732.58
461.39	1701.86
461.60	1765.35
461.80	1757.16
462.00	1720.29
462.21	1697.77
462.41	1697.77
462.61	1675.24
462.82	1658.85
463.02	1785.83
463.22	1761.25
463.43	1798.12
463.63	1728.49
463.83	1759.21
464.04	1765.35
464.24	1796.07
464.44	1648.61
464.64	1769.44
464.85	1744.87
465.05	1814.50
465.25	1695.72
465.46	1759.21
465.66	1830.88
465.86	1775.59
466.07	1730.53
466.27	1771.49
466.47	1611.75
466.68	1699.81
466.88	1847.27
467.08	1808.36
467.29	1757.16
467.49	1652.71
467.69	1736.68
467.89	1724.39
468.10	1755.11
468.30	1779.68
468.50	1857.51
468.71	1767.40
468.91	1697.77
469.11	1804.26
469.31	1767.40
469.52	1720.29
469.72	1814.50
469.92	1875.94
470.13	1722.34
470.33	1708.01
470.53	1822.69
470.73	2078.69
470.94	2230.24
471.14	2377.69
471.34	2568.15
471.54	2469.85
471.75	2365.40
471.95	2181.09
472.15	2095.07
472.36	2039.78
472.56	2150.37
472.76	2029.54
472.96	2045.92
473.17	1875.94
473.37	1976.29
473.57	1820.64
473.77	1888.23
473.98	1736.68
474.18	1660.90
474.38	1980.39
474.58	1783.78
474.79	1609.70
474.99	1779.68
475.19	1757.16
475.39	1689.57
475.60	1730.53
475.80	1724.39
476.00	1687.53
476.20	1728.49
476.41	1662.95
476.61	1830.88
476.81	1789.92
477.01	1679.33
477.21	1861.60
477.42	1900.52
477.62	1695.72
477.82	1753.06
478.02	1746.92
478.23	1800.16
478.43	1656.81
478.63	1689.57
478.83	1748.97
479.03	1656.81
479.24	1816.55
479.44	1935.33
479.64	1611.75
479.84	1607.66
480.04	1660.90
480.25	1759.21
480.45	1714.15
480.65	1773.54
480.85	1822.69
481.06	1722.34
481.26	1783.78
481.46	1785.83
481.66	1818.60
481.86	1679.33
482.06	1830.88
482.27	1679.33
482.47	1691.62
482.67	1820.64
482.87	1734.63
483.07	1843.17
483.28	1755.11
483.48	1599.46
483.68	1748.97
483.88	1609.70
484.08	1544.17
484.29	1730.53
484.49	1720.29
484.69	1667.05
484.89	1847.27
485.09	1781.73
485.29	1781.73
485.50	1759.21
485.70	1746.92
485.90	1742.82
486.10	1804.26
486.30	1730.53
486.50	1867.75
486.71	1785.83
486.91	1845.22
487.11	1789.92
487.31	1634.28
487.51	1763.30
487.71	1626.09
487.91	1662.95
488.12	1671.14
488.32	1568.74
488.52	1767.40
488.72	1640.42
488.92	1730.53
489.12	1787.88
489.32	1759.21
489.53	1771.49
489.73	1613.80
489.93	1779.68
490.13	1665.00
490.33	1673.19
490.53	1769.44
490.73	1816.55
490.94	1646.57
491.14	1796.07
491.34	1781.73
491.54	2123.74
491.74	2500.57
491.94	2936.79
492.14	3082.19
492.34	3151.82
492.54	2719.70
492.75	2547.67
492.95	2508.76
493.15	2355.16
493.35	2349.02
493.55	2228.19
493.75	2107.36
493.95	2170.85
494.15	1988.58
494.35	1957.86
494.56	1834.98
494.76	1853.41
494.96	1761.25
495.16	1783.78
495.36	1755.11
495.56	1722.34
495.76	1722.34
495.96	1703.91
496.16	1748.97
496.36	1814.50
496.56	1736.68
496.77	1755.11
496.97	1746.92
497.17	1718.25
497.37	1703.91
497.57	1728.49
497.77	1759.21
497.97	1626.09
498.17	1748.97
498.37	1701.86
498.57	1791.97
498.77	1753.06
498.97	1701.86
499.17	1828.84
499.38	1722.34
499.58	1834.98
499.78	1847.27
499.98	1849.32
500.18	1710.05
500.38	1695.72
500.58	1918.95
500.78	2652.12
500.98	4585.40
501.18	5883.81
501.38	6983.57
501.58	7131.03
501.78	6766.49
501.98	5734.31
502.18	5263.28
502.38	4476.86
502.58	4083.65
502.78	3798.98
502.98	3624.90
503.18	3512.27
503.38	3307.47
503.59	2811.86
503.79	2654.17
503.99	2541.53
504.19	2328.54
504.39	2220.00
504.59	2191.33
504.79	2123.74
504.99	2191.33
505.19	1945.57
505.39	1853.41
505.59	1982.43
505.79	1871.84
505.99	1927.14
506.19	1773.54
506.39	1816.55
506.59	1777.64
506.79	1785.83
506.99	1783.78
507.19	1736.68
507.39	1769.44
507.59	1683.43
507.79	1685.48
507.99	1671.14
508.19	1732.58
508.39	1732.58
508.59	1724.39
508.79	1869.80
508.99	1875.94
509.19	1699.81
509.39	1767.40
509.59	1718.25
509.79	1660.90
509.99	1771.49
510.19	1748.97
510.39	1818.60
510.59	1697.77
510.79	1730.53
510.99	1724.39
511.19	1783.78
511.39	1851.36
511.59	1775.59
511.79	1800.16
511.99	1675.24
512.19	1865.70
512.38	1738.73
512.58	1624.04
512.78	1753.06
512.98	1796.07
513.18	1777.64
513.38	1667.05
513.58	1849.32
513.78	1708.01
513.98	1732.58
514.18	1791.97
514.38	1734.63
514.58	1765.35
514.78	1714.15
514.98	1646.57
515.18	1798.12
515.38	1689.57
515.58	1935.33
515.78	1791.97
515.98	1742.82
516.18	1810.40
516.38	1726.44
516.57	1734.63
516.77	1728.49
516.97	1773.54
517.17	1720.29
517.37	1630.18
517.57	1820.64
517.77	1718.25
517.97	1703.91
518.17	1814.50
518.37	1689.57
518.57	1624.04
518.77	1816.55
518.97	1720.29
519.16	1810.40
519.36	1847.27
519.56	1759.21
519.76	1740.77
519.96	1771.49
520.16	1880.04
520.36	1734.63
520.56	1773.54
520.76	1656.81
520.96	1800.16
521.16	1837.03
521.35	1814.50
521.55	1880.04
521.75	1728.49
521.95	1748.97
522.15	1679.33
522.35	1691.62
522.55	1820.64
522.75	1814.50
522.95	1781.73
523.14	1738.73
523.34	1742.82
523.54	1718.25
523.74	1826.79
523.94	1812.45
524.14	1705.96
524.34	1791.97
524.54	1839.08
524.73	1703.91
524.93	1810.40
525.13	1718.25
525.33	1669.09
525.53	1875.94
525.73	1771.49
525.93	1742.82
526.13	1681.38
526.32	1796.07
526.52	1902.56
526.72	1820.64
526.92	1742.82
527.12	1677.29
527.32	1630.18
527.52	1826.79
527.71	1757.16
527.91	1724.39
528.11	1681.38
528.31	1740.77
528.51	1744.87
528.71	1855.46
528.90	1800.16
529.10	1861.60
529.30	1869.80
529.50	1716.20
529.70	1783.78
529.90	1740.77
530.09	1710.05
530.29	1669.09
530.49	1734.63
530.69	1955.81
530.89	1832.93
531.09	1837.03
531.28	1652.71
531.48	1818.60
531.68	1779.68
531.88	1804.26
532.08	1806.31
532.28	1738.73
532.47	1697.77
532.67	1781.73
532.87	1765.35
533.07	1746.92
533.27	1748.97
533.46	1808.36
533.66	1875.94
533.86	1738.73
534.06	1701.86
534.26	1732.58
534.45	1767.40
534.65	1818.60
534.85	1703.91
535.05	1685.48
535.25	1777.64
535.44	1736.68
535.64	1789.92
535.84	1757.16
536.04	1748.97
536.24	1730.53
536.43	1755.11
536.63	1722.34
536.83	1644.52
537.03	1703.91
537.22	1628.14
537.42	1687.53
537.62	1816.55
537.82	1746.92
538.02	1798.12
538.21	1802.21
538.41	1945.57
538.61	1775.59
538.81	1683.43
539.00	1847.27
539.20	1697.77
539.40	1687.53
539.60	1789.92
539.79	1763.30
539.99	1753.06
540.19	1714.15
540.39	1662.95
540.58	1769.44
540.78	1851.36
540.98	1767.40
541.18	1796.07
541.37	1812.45
541.57	1783.78
541.77	1759.21
541.97	1753.06
542.16	1712.10
542.36	1693.67
542.56	1800.16
542.76	1896.42
542.95	1773.54
543.15	1769.44
543.35	1771.49
543.54	1726.44
543.74	1712.10
543.94	1779.68
544.14	1691.62
544.33	1886.18
544.53	1728.49
544.73	1769.44
544.93	1712.10
545.12	1736.68
545.32	1757.16
545.52	1701.86
545.71	1691.62
545.91	1712.10
546.11	1771.49
546.30	1650.66
546.50	1746.92
546.70	1800.16
546.90	1832.93
547.09	1662.95
547.29	1677.29
547.49	1796.07
547.68	1742.82
547.88	1742.82
548.08	1808.36
548.27	2258.91
548.47	1761.25
548.67	1728.49
548.87	1759.21
549.06	1769.44
549.26	1710.05
549.46	1773.54
549.65	1671.14
549.85	1726.44
550.05	1787.88
550.24	1669.09
550.44	1748.97
550.64	1746.92
550.83	1656.81
551.03	1826.79
551.23	1800.16
551.42	1728.49
551.62	1679.33
551.82	1781.73
552.01	1742.82
552.21	1828.84
552.41	1798.12
552.60	1826.79
552.80	1804.26
553.00	1685.48
553.19	1798.12
553.39	1863.65
553.59	1636.33
553.78	1828.84
553.98	1796.07
554.17	1697.77
554.37	1763.30
554.57	1761.25
554.76	1691.62
554.96	1755.11
555.16	1699.81
555.35	1789.92
555.55	1773.54
555.75	1748.97
555.94	1767.40
556.14	1669.09
556.33	1804.26
556.53	1742.82
556.73	1781.73
556.92	1787.88
557.12	1783.78
557.32	1941.47
557.51	1839.08
557.71	1722.34
557.90	1761.25
558.10	1837.03
558.30	1652.71
558.49	1734.63
558.69	1748.97
558.88	1804.26
559.08	1767.40
559.28	1769.44
559.47	1630.18
559.67	1761.25
559.86	1785.83
560.06	1751.01
560.26	1767.40
560.45	1794.02
560.65	1740.77
560.84	1875.94
561.04	1689.57
561.24	1798.12
561.43	1740.77
561.63	1877.99
561.82	1787.88
562.02	1802.21
562.22	1632.23
562.41	1714.15
562.61	1718.25
562.80	1726.44
563.00	1916.90
563.19	1736.68
563.39	1804.26
563.59	1787.88
563.78	1726.44
563.98	1701.86
564.17	1687.53
564.37	1667.05
564.56	1767.40
564.76	1681.38
564.96	1808.36
565.15	1787.88
565.35	1929.19
565.54	1757.16
565.74	1845.22
565.93	1781.73
566.13	1742.82
566.32	1789.92
566.52	1796.07
566.71	1812.45
566.91	1808.36
567.11	1751.01
567.30	1628.14
567.50	1781.73
567.69	1757.16
567.89	1701.86
568.08	1691.62
568.28	1814.50
568.47	1705.96
568.67	1744.87
568.86	1732.58
569.06	1834.98
569.25	1748.97
569.45	1638.38
569.64	1746.92
569.84	1783.78
570.04	1781.73
570.23	1716.20
570.43	1732.58
570.62	1732.58
570.82	1779.68
571.01	1665.00
571.21	1779.68
571.40	1673.19
571.60	1800.16
571.79	1812.45
571.99	1816.55
572.18	1683.43
572.38	1796.07
572.57	1753.06
572.77	1855.46
572.96	1888.23
573.16	1748.97
573.35	1783.78
573.55	1779.68
573.74	1802.21
573.94	1720.29
574.13	1710.05
574.33	1730.53
574.52	1859.56
574.71	1736.68
574.91	1794.02
575.10	1638.38
575.30	1785.83
575.49	1658.85
575.69	1755.11
575.88	1730.53
576.08	1718.25
576.27	1855.46
576.47	1755.11
576.66	1894.37
576.86	1830.88
577.05	1746.92
577.25	1857.51
577.44	1771.49
577.64	1787.88
577.83	1796.07
578.02	1738.73
578.22	1832.93
578.41	1906.66
578.61	1738.73
578.80	1677.29
579.00	1794.02
579.19	1740.77
579.39	1789.92
579.58	1888.23
579.77	1794.02
579.97	1867.75
580.16	1871.84
580.36	1824.74
580.55	1826.79
580.75	1742.82
580.94	1740.77
581.13	1937.38
581.33	1847.27
581.52	1753.06
581.72	1955.81
581.91	1832.93
582.11	1730.53
582.30	1845.22
582.49	1814.50
582.69	1877.99
582.88	1763.30
583.08	1822.69
583.27	1779.68
583.47	1789.92
583.66	1708.01
583.85	1705.96
584.05	1660.90
584.24	1832.93
584.44	1810.40
584.63	1824.74
584.82	1875.94
585.02	1841.12
585.21	1900.52
585.41	1773.54
585.60	1863.65
585.79	1982.43
585.99	1984.48
586.18	1886.18
586.37	2179.04
586.57	3499.98
586.76	9903.98
586.96	24764.04
587.15	34586.10
587.34	40385.94
587.54	41876.86
587.73	36832.72
587.93	26455.66
588.12	21376.70
588.31	18224.87
588.51	16211.72
588.70	15288.09
588.89	13997.87
589.09	12615.49
589.28	11024.22
589.47	9348.98
589.67	7935.88
589.86	6299.55
590.06	4839.35
590.25	3909.57
590.44	3084.24
590.64	2590.68
590.83	2295.77
591.02	2125.79
591.22	1900.52
591.41	1886.18
591.60	1867.75
591.80	1951.71
591.99	1748.97
592.18	1802.21
592.38	1869.80
592.57	1779.68
592.76	1824.74
592.96	1857.51
593.15	1785.83
593.34	1765.35
593.54	1759.21
593.73	1773.54
593.92	1808.36
594.12	1814.50
594.31	1740.77
594.50	1812.45
594.70	1904.61
594.89	1896.42
595.08	1665.00
595.28	1861.60
595.47	1888.23
595.66	1906.66
595.86	1712.10
596.05	1691.62
596.24	1789.92
596.43	1826.79
596.63	1837.03
596.82	1847.27
597.01	1763.30
597.21	1808.36
597.40	1697.77
597.59	1853.41
597.79	1746.92
597.98	1812.45
598.17	1787.88
598.36	1757.16
598.56	1751.01
598.75	1753.06
598.94	1779.68
599.14	1742.82
599.33	1677.29
599.52	1832.93
599.71	1785.83
599.91	1781.73
600.10	1845.22
600.29	1820.64
600.48	1824.74
600.68	1775.59
600.87	1773.54
601.06	1742.82
601.26	1763.30
601.45	1761.25
601.64	1744.87
601.83	1787.88
602.03	1781.73
602.22	1708.01
602.41	1843.17
602.60	1791.97
602.80	1757.16
602.99	1767.40
603.18	1697.77
603.37	1714.15
603.57	1808.36
603.76	1859.56
603.95	1816.55
604.14	1724.39
604.34	1677.29
604.53	1740.77
604.72	1818.60
604.91	1765.35
605.10	1851.36
605.30	1681.38
605.49	1822.69
605.68	1738.73
605.87	1769.44
606.07	1710.05
606.26	1820.64
606.45	1753.06
606.64	1675.24
606.84	1775.59
607.03	1710.05
607.22	1757.16
607.41	1683.43
607.60	1652.71
607.80	1808.36
607.99	1720.29
608.18	1738.73
608.37	1740.77
608.56	1726.44
608.76	1869.80
608.95	1853.41
609.14	1800.16
609.33	1800.16
609.52	1855.46
609.72	1802.21
609.91	1804.26
610.10	1689.57
610.29	1863.65
610.48	1759.21
610.68	1728.49
610.87	1769.44
611.06	1773.54
611.25	1773.54
611.44	1757.16
611.63	1761.25
611.83	1847.27
612.02	1591.27
612.21	1812.45
612.40	1578.98
612.59	1701.86
612.79	1581.03
612.98	1724.39
613.17	1830.88
613.36	1738.73
613.55	1871.84
613.74	1638.38
613.93	1667.05
614.13	1675.24
614.32	1742.82
614.51	1720.29
614.70	1748.97
614.89	1730.53
615.08	1843.17
615.28	2086.88
615.47	1669.09
615.66	1722.34
615.85	1763.30
616.04	1816.55
616.23	1697.77
616.42	1738.73
616.62	1724.39
616.81	1808.36
617.00	1695.72
617.19	1783.78
617.38	1652.71
617.57	1765.35
617.76	1791.97
617.95	1804.26
618.15	1814.50
618.34	1822.69
618.53	1769.44
618.72	1789.92
618.91	1880.04
619.10	1822.69
619.29	1705.96
619.48	1753.06
619.68	1624.04
619.87	1748.97
620.06	1710.05
620.25	1767.40
620.44	1736.68
620.63	1742.82
620.82	1771.49
621.01	1744.87
621.20	1800.16
621.39	1753.06
621.59	1816.55
621.78	1726.44
621.97	1787.88
622.16	1796.07
622.35	1714.15
622.54	1773.54
622.73	1757.16
622.92	1791.97
623.11	1759.21
623.30	1744.87
623.49	1751.01
623.68	1718.25
623.88	1855.46
624.07	1816.55
624.26	1744.87
624.45	1751.01
624.64	1714.15
624.83	1851.36
625.02	1755.11
625.21	1730.53
625.40	1828.84
625.59	1767.40
625.78	1703.91
625.97	1832.93
626.16	1824.74
626.35	1796.07
626.54	1722.34
626.74	1828.84
626.93	1751.01
627.12	1697.77
627.31	1794.02
627.50	1759.21
627.69	1767.40
627.88	1671.14
628.07	1708.01
628.26	1669.09
628.45	1703.91
628.64	1673.19
628.83	1708.01
629.02	1722.34
629.21	1800.16
629.40	1718.25
629.59	1636.33
629.78	1697.77
629.97	1708.01
630.16	1757.16
630.35	1669.09
630.54	1740.77
630.73	1789.92
630.92	1767.40
631.11	1685.48
631.30	1783.78
631.49	1738.73
631.68	1736.68
631.87	1755.11
632.06	1648.61
632.25	1877.99
632.44	1771.49
632.63	1693.67
632.82	1708.01
633.01	1681.38
633.20	1689.57
633.39	1732.58
633.58	1628.14
633.77	1662.95
633.96	1738.73
634.15	1751.01
634.34	1777.64
634.53	1677.29
634.72	1740.77
634.91	1665.00
635.10	1720.29
635.29	1748.97
635.48	1732.58
635.67	1665.00
635.86	1652.71
636.05	1824.74
636.24	1755.11
636.43	1755.11
636.62	1789.92
636.81	1615.85
637.00	1718.25
637.19	1820.64
637.38	1763.30
637.57	1763.30
637.76	1628.14
637.95	1740.77
638.14	1665.00
638.33	1794.02
638.52	1755.11
638.71	1619.94
638.89	1689.57
639.08	1976.29
639.27	1800.16
639.46	1744.87
639.65	1814.50
639.84	1830.88
640.03	1841.12
640.22	1679.33
640.41	1814.50
640.60	1681.38
640.79	1748.97
640.98	1804.26
641.17	1783.78
641.36	1746.92
641.55	1724.39
641.74	1656.81
641.92	1640.42
642.11	1624.04
642.30	1761.25
642.49	1662.95
642.68	1652.71
642.87	1849.32
643.06	1748.97
643.25	1748.97
643.44	1730.53
643.63	1716.20
643.82	1789.92
644.00	1769.44
644.19	1748.97
644.38	1728.49
644.57	1714.15
644.76	1746.92
644.95	1724.39
645.14	1755.11
645.33	1697.77
645.52	1744.87
645.71	1656.81
645.89	1642.47
646.08	1724.39
646.27	1724.39
646.46	1871.84
646.65	1665.00
646.84	1757.16
647.03	1748.97
647.22	1826.79
647.40	1775.59
647.59	1662.95
647.78	1660.90
647.97	1730.53
648.16	1728.49
648.35	1869.80
648.54	1734.63
648.73	1703.91
648.91	1798.12
649.10	1685.48
649.29	1626.09
649.48	1796.07
649.67	1755.11
649.86	1697.77
650.05	1712.10
650.23	1734.63
650.42	1699.81
650.61	1748.97
650.80	1781.73
650.99	1886.18
651.18	1824.74
651.36	1779.68
651.55	1710.05
651.74	1820.64
651.93	1736.68
652.12	1765.35
652.31	1710.05
652.49	1685.48
652.68	1716.20
652.87	1828.84
653.06	1738.73
653.25	1816.55
653.44	1697.77
653.62	1767.40
653.81	1769.44
654.00	1779.68
654.19	1765.35
654.38	1822.69
654.56	1734.63
654.75	1763.30
654.94	1841.12
655.13	1781.73
655.32	1697.77
655.51	1732.58
655.69	1669.09
655.88	1796.07
656.07	1652.71
656.26	1800.16
656.45	1712.10
656.63	1816.55
656.82	1687.53
657.01	1828.84
657.20	1773.54
657.38	1855.46
657.57	1765.35
657.76	1593.32
657.95	1767.40
658.14	1691.62
658.32	1779.68
658.51	1621.99
658.70	1753.06
658.89	1796.07
659.08	1724.39
659.26	1753.06
659.45	1636.33
659.64	1814.50
659.83	1642.47
660.01	1867.75
660.20	1722.34
660.39	1826.79
660.58	1665.00
660.76	1832.93
660.95	1677.29
661.14	1753.06
661.33	1607.66
661.51	1720.29
661.70	1757.16
661.89	1759.21
662.08	1748.97
662.26	1757.16
662.45	1640.42
662.64	1814.50
662.83	1769.44
663.01	1652.71
663.20	1685.48
663.39	1820.64
663.58	1642.47
663.76	1791.97
663.95	1777.64
664.14	1667.05
664.32	1669.09
664.51	1638.38
664.70	1648.61
664.89	1783.78
665.07	1718.25
665.26	1779.68
665.45	1652.71
665.64	1804.26
665.82	1730.53
666.01	1853.41
666.20	1726.44
666.38	1796.07
666.57	1798.12
666.76	2164.70
666.95	4695.99
667.13	10631.01
667.32	15611.67
667.51	18151.15
667.69	19384.02
667.88	17786.61
668.07	12447.55
668.25	9674.60
668.44	8001.41
668.63	7468.94
668.81	6879.13
669.00	6268.83
669.19	5662.63
669.38	5121.97
669.56	4605.88
669.75	4034.50
669.94	3416.01
670.12	2928.60
670.31	2543.58
670.50	2236.38
670.68	2037.73
670.87	1996.77
671.06	1779.68
671.24	1812.45
671.43	1857.51
671.62	1712.10
671.80	1677.29
671.99	1710.05
672.18	1732.58
672.36	1767.40
672.55	1755.11
672.74	1748.97
672.92	1767.40
673.11	1806.31
673.29	1656.81
673.48	1796.07
673.67	1638.38
673.85	1814.50
674.04	1677.29
674.23	1720.29
674.41	1841.12
674.60	1736.68
674.79	1613.80
674.97	1699.81
675.16	1830.88
675.34	1812.45
675.53	1699.81
675.72	1824.74
675.90	1832.93
676.09	1624.04
676.28	1714.15
676.46	1689.57
676.65	1724.39
676.83	1636.33
677.02	1744.87
677.21	1781.73
677.39	1748.97
677.58	1665.00
677.77	1722.34
677.95	1671.14
678.14	1746.92
678.32	1787.88
678.51	1646.57
678.70	1845.22
678.88	1748.97
679.07	1708.01
679.25	1738.73
679.44	1710.05
679.63	1644.52
679.81	1708.01
680.00	1834.98
680.18	1726.44
680.37	1812.45
680.55	1794.02
680.74	1667.05
680.93	1597.42
681.11	1765.35
681.30	1699.81
681.48	1785.83
681.67	1705.96
681.85	1761.25
682.04	1665.00
682.23	1724.39
682.41	1759.21
682.60	1642.47
682.78	1763.30
682.97	1662.95
683.15	1777.64
683.34	1714.15
683.53	1880.04
683.71	1638.38
683.90	1859.56
684.08	1916.90
684.27	1748.97
684.45	1671.14
684.64	1800.16
684.82	1675.24
685.01	1755.11
685.19	1740.77
685.38	1834.98
685.57	1699.81
685.75	1673.19
685.94	1730.53
686.12	1724.39
686.31	1712.10
686.49	1816.55
686.68	1703.91
686.86	1765.35
687.05	1701.86
687.23	1796.07
687.42	1748.97
687.60	1665.00
687.79	1812.45
687.97	1771.49
688.16	1785.83
688.34	1843.17
688.53	1566.70
688.71	1769.44
688.90	1794.02
689.08	1708.01
689.27	1677.29
689.45	1767.40
689.64	1791.97
689.82	1751.01
690.01	1730.53
690.19	1746.92
690.38	1763.30
690.56	1771.49
690.75	1714.15
690.93	1746.92
691.12	1708.01
691.30	1705.96
691.49	1726.44
691.67	1691.62
691.86	1857.51
692.04	1722.34
692.23	1722.34
692.41	1648.61
692.60	1783.78
692.78	1718.25
692.97	1718.25
693.15	1787.88
693.34	1800.16
693.52	1722.34
693.71	1652.71
693.89	1685.48
694.08	1632.23
694.26	1771.49
694.44	1796.07
694.63	1689.57
694.81	1654.76
695.00	1708.01
695.18	1759.21
695.37	1832.93
695.55	1755.11
695.74	1691.62
695.92	1732.58
696.10	1728.49
696.29	1646.57
696.47	1677.29
696.66	1720.29
696.84	1681.38
697.03	1732.58
697.21	1828.84
697.40	2338.78
697.58	1726.44
697.76	1726.44
697.95	1656.81
698.13	1626.09
698.32	1665.00
698.50	1722.34
698.68	1796.07
698.87	1703.91
699.05	1847.27
699.24	1720.29
699.42	1644.52
699.61	1763.30
699.79	1779.68
699.97	1701.86
700.16	1646.57
700.34	1714.15
700.53	1701.86
700.71	1800.16
700.89	1771.49
701.08	1748.97
701.26	1753.06
701.45	2084.83
701.63	1689.57
701.81	1679.33
702.00	1728.49
702.18	1720.29
702.37	1648.61
702.55	1785.83
702.73	1765.35
702.92	1669.09
703.10	1718.25
703.28	1673.19
703.47	1732.58
703.65	1771.49
703.84	1728.49
704.02	1691.62
704.20	1816.55
704.39	1679.33
704.57	1683.43
704.75	1798.12
704.94	1785.83
705.12	1714.15
705.30	1804.26
705.49	2271.20
705.67	4540.35
705.86	9514.86
706.04	12683.07
706.22	14524.19
706.41	15386.39
706.59	13498.16
706.77	9527.15
706.96	7448.46
707.14	6608.80
707.32	5926.82
707.51	5461.93
707.69	4999.09
707.87	4237.25
708.06	3577.80
708.24	2983.89
708.42	2437.08
708.61	2299.87
708.79	1916.90
708.97	1863.65
709.16	1843.17
709.34	1820.64
709.52	1710.05
709.71	1742.82
709.89	1812.45
710.07	1648.61
710.26	1740.77
710.44	1718.25
710.62	1738.73
710.80	1716.20
710.99	1751.01
711.17	1808.36
711.35	1679.33
711.54	1751.01
711.72	1732.58
711.90	1689.57
712.09	1744.87
712.27	1681.38
712.45	1785.83
712.63	1771.49
712.82	1757.16
713.00	1736.68
713.18	1775.59
713.37	1783.78
713.55	1728.49
713.73	1751.01
713.91	1720.29
714.10	1636.33
714.28	1675.24
714.46	1773.54
714.65	1712.10
714.83	1755.11
715.01	1736.68
715.19	1734.63
715.38	1662.95
715.56	1742.82
715.74	1705.96
715.92	1691.62
716.11	1798.12
716.29	1613.80
716.47	1751.01
716.65	1648.61
716.84	1609.70
717.02	1837.03
717.20	1609.70
717.38	1646.57
717.57	1783.78
717.75	1650.66
717.93	1734.63
718.11	1777.64
718.30	1642.47
718.48	1781.73
718.66	1744.87
718.84	1794.02
719.03	1705.96
719.21	1628.14
719.39	1763.30
719.57	1718.25
719.75	1742.82
719.94	1724.39
720.12	1660.90
720.30	1689.57
720.48	1730.53
720.67	1652.71
720.85	1693.67
721.03	1673.19
721.21	1691.62
721.39	1742.82
721.58	1718.25
721.76	1740.77
721.94	1773.54
722.12	1734.63
722.30	1791.97
722.49	1646.57
722.67	1765.35
722.85	1726.44
723.03	1662.95
723.21	1640.42
723.40	1746.92
723.58	1736.68
723.76	1802.21
723.94	1746.92
724.12	1734.63
724.30	1867.75
724.49	1728.49
724.67	1624.04
724.85	1763.30
725.03	1658.85
725.21	1769.44
725.40	1751.01
725.58	1650.66
725.76	1828.84
725.94	1734.63
726.12	1642.47
726.30	1751.01
726.49	1718.25
726.67	1722.34
726.85	1738.73
727.03	1828.84
727.21	2263.01
727.39	3057.62
727.57	3919.81
727.76	4265.92
727.94	4548.54
728.12	4304.83
728.30	3706.82
728.48	3039.19
728.66	2701.27
728.84	2572.25
729.03	2312.16
729.21	2140.13
729.39	2043.87
729.57	1855.46
729.75	1843.17
729.93	1902.56
730.11	1705.96
730.30	1693.67
730.48	1767.40
730.66	1804.26
730.84	1742.82
731.02	1718.25
731.20	1669.09
731.38	1716.20
731.56	1656.81
731.74	1640.42
731.93	1681.38
732.11	1720.29
732.29	1677.29
732.47	1736.68
732.65	1783.78
732.83	1853.41
733.01	1828.84
733.19	1603.56
733.37	1746.92
733.56	1699.81
733.74	1687.53
733.92	1765.35
734.10	1701.86
734.28	1753.06
734.46	1597.42
734.64	1679.33
734.82	1740.77
735.00	1724.39
735.18	1685.48
735.36	1740.77
735.54	1732.58
735.73	1708.01
735.91	1775.59
736.09	1769.44
736.27	1714.15
736.45	1669.09
736.63	1550.31
736.81	1691.62
736.99	1798.12
737.17	1882.08
737.35	1683.43
737.53	1714.15
737.71	1779.68
737.89	1849.32
738.07	1757.16
738.25	1728.49
738.43	1607.66
738.61	1701.86
738.80	1585.13
738.98	1681.38
739.16	1710.05
739.34	1769.44
739.52	1845.22
739.70	1751.01
739.88	1742.82
740.06	1759.21
740.24	1572.84
740.42	1734.63
740.60	1560.55
740.78	1669.09
740.96	1619.94
741.14	1595.37
741.32	1732.58
741.50	1611.75
741.68	1888.23
741.86	1834.98
742.04	1644.52
742.22	1699.81
742.40	1712.10
742.58	1712.10
742.76	1746.92
742.94	1810.40
743.12	1695.72
743.30	1740.77
743.48	1777.64
743.66	1642.47
743.84	1714.15
744.02	1654.76
744.20	1730.53
744.38	1667.05
744.56	1687.53
744.74	1789.92
744.92	1740.77
745.10	1761.25
745.28	1796.07
745.46	1847.27
745.64	1734.63
745.82	1884.13
746.00	1714.15
746.18	1671.14
746.36	1665.00
746.54	1714.15
746.72	1740.77
746.90	1789.92
747.08	1708.01
747.26	1734.63
747.44	1773.54
747.62	1783.78
747.80	1771.49
747.98	1769.44
748.15	1736.68
748.33	1875.94
748.51	1720.29
748.69	1781.73
748.87	1681.38
749.05	1730.53
749.23	1638.38
749.41	1736.68
749.59	1697.77
749.77	1736.68
749.95	1654.76
750.13	1742.82
750.31	1763.30
750.49	1822.69
750.67	1771.49
750.85	1830.88
751.03	1687.53
751.20	1808.36
751.38	1767.40
751.56	1609.70
751.74	1683.43
751.92	1660.90
752.10	1646.57
752.28	1824.74
752.46	1714.15
752.64	1693.67
752.82	1718.25
753.00	1822.69
753.18	1697.77
753.35	1689.57
753.53	1794.02
753.71	1632.23
753.89	1841.12
754.07	1699.81
754.25	1767.40
754.43	1751.01
754.61	1687.53
754.79	1705.96
754.97	1687.53
755.14	1746.92
755.32	1650.66
755.50	1667.05
755.68	1697.77
755.86	1665.00
756.04	1689.57
756.22	1619.94
756.40	1736.68
756.57	1818.60
756.75	1738.73
756.93	1832.93
757.11	1732.58
757.29	1689.57
757.47	1728.49
757.65	1646.57
757.82	1562.60
758.00	1640.42
758.18	1665.00
758.36	1626.09
758.54	1849.32
758.72	1544.17
758.90	1771.49
759.07	1722.34
759.25	1703.91
759.43	1785.83
759.61	1656.81
759.79	2279.39
759.97	1832.93
760.15	1685.48
760.32	1763.30
760.50	1722.34
760.68	1888.23
760.86	1611.75
761.04	1753.06
761.22	1734.63
761.39	1728.49
761.57	1652.71
761.75	1744.87
761.93	1746.92
762.11	1665.00
762.28	1742.82
762.46	1699.81
762.64	1822.69
762.82	1687.53
763.00	1761.25
763.18	1744.87
763.35	1673.19
763.53	1685.48
763.71	1687.53
763.89	1681.38
764.07	1730.53
764.24	1624.04
764.42	1732.58
764.60	1640.42
764.78	1716.20
764.96	1759.21
765.13	1744.87
765.31	1732.58
765.49	1802.21
765.67	1685.48
765.84	1669.09
766.02	1636.33
766.20	1624.04
766.38	1683.43
766.56	1783.78
766.73	1789.92
766.91	1708.01
767.09	1689.57
767.27	1769.44
767.44	1662.95
767.62	1677.29
767.80	1714.15
767.98	1708.01
768.15	1755.11
768.33	1734.63
768.51	1779.68
768.69	1658.85
768.87	1730.53
769.04	1748.97
769.22	1873.89
769.40	1777.64
769.58	1896.42
769.75	1726.44
769.93	1791.97
770.11	1728.49
770.28	1624.04
770.46	1726.44
770.64	1697.77
770.82	1751.01
770.99	1699.81
771.17	1744.87
771.35	1718.25
771.53	1746.92
771.70	1751.01
771.88	1812.45
772.06	1787.88
772.23	1785.83
772.41	1751.01
772.59	1671.14
772.77	1642.47
772.94	1648.61
773.12	1787.88
773.30	1722.34
773.47	1697.77
773.65	1697.77
773.83	1785.83
774.01	1724.39
774.18	1644.52
774.36	1748.97
774.54	1724.39
774.71	1652.71
774.89	1607.66
775.07	1701.86
775.24	1593.32
775.42	1693.67
775.60	1783.78
775.78	1712.10
775.95	1640.42
776.13	1585.13
776.31	1525.74
776.48	1804.26
776.66	1763.30
776.84	1685.48
777.01	1658.85
777.19	1757.16
777.37	1697.77
777.54	1757.16
777.72	1841.12
777.90	1757.16
778.07	1619.94
778.25	1853.41
778.43	1839.08
778.60	1734.63
778.78	1767.40
778.96	1779.68
779.13	1703.91
779.31	1812.45
779.49	1621.99
779.66	1714.15
779.84	1734.63
780.01	1763.30
780.19	1679.33
780.37	1796.07
780.54	1734.63
780.72	1787.88
780.90	1742.82
781.07	1689.57
781.25	1705.96
781.43	1814.50
781.60	1665.00
781.78	1789.92
781.95	1679.33
782.13	1736.68
782.31	1765.35
782.48	1683.43
782.66	1755.11
782.83	1855.46
783.01	1765.35
783.19	1755.11
783.36	1730.53
783.54	1691.62
783.72	1777.64
783.89	1699.81
784.07	1734.63
784.24	1640.42
784.42	1787.88
784.60	1742.82
784.77	1763.30
784.95	1695.72
785.12	1691.62
785.30	1689.57
785.47	1775.59
785.65	1734.63
785.83	1646.57
786.00	1716.20
786.18	1753.06
786.35	1703.91
786.53	1687.53
786.71	1751.01
786.88	1826.79
787.06	1759.21
787.23	1667.05
787.41	1708.01
787.58	1761.25
787.76	1720.29
787.94	1759.21
788.11	1656.81
788.29	1634.28
788.46	1693.67
788.64	1648.61
788.81	1732.58
788.99	1714.15
789.16	1665.00
789.34	1753.06
789.52	1595.37
789.69	1658.85
789.87	1583.08
790.04	1705.96
790.22	1748.97
790.39	1808.36
790.57	1687.53
790.74	1712.10
790.92	1806.31
791.09	1609.70
791.27	1697.77
791.44	1775.59
791.62	1718.25
791.79	1730.53
791.97	1681.38
792.15	1849.32
792.32	1722.34
792.50	1734.63
792.67	1845.22
792.85	1759.21
793.02	1748.97
793.20	1751.01
793.37	1615.85
793.55	1703.91
793.72	1679.33
793.90	1716.20
794.07	1638.38
794.25	1667.05
794.42	1722.34
794.60	1728.49
794.77	1779.68
794.95	1798.12
795.12	1783.78
795.30	1736.68
795.47	1619.94
795.65	1935.33
795.82	1693.67
796.00	1613.80
796.17	1701.86
796.34	1705.96
796.52	1708.01
796.69	1746.92
796.87	1759.21
797.04	1804.26
797.22	1769.44
797.39	1669.09
797.57	1775.59
797.74	1779.68
797.92	1746.92
798.09	1787.88
798.27	1775.59
798.44	1773.54
798.62	1691.62
798.79	1724.39
798.96	1763.30
799.14	1679.33
799.31	1916.90
799.49	1667.05
799.66	1652.71
799.84	1728.49
800.01	1619.94
800.19	1775.59
800.36	1714.15
800.53	1755.11
800.71	1748.97
800.88	1798.12
801.06	1746.92
801.23	1642.47
801.41	1708.01
801.58	1675.24
801.75	1640.42
801.93	1695.72
802.10	1841.12
802.28	1712.10
802.45	1744.87
802.63	1744.87
802.80	1841.12
802.97	1714.15
803.15	1685.48
803.32	1632.23
803.50	1751.01
803.67	1751.01
803.84	1648.61
804.02	1716.20
804.19	1718.25
804.37	1603.56
804.54	1660.90
804.71	1656.81
804.89	1759.21
805.06	1746.92
805.24	1708.01
805.41	1634.28
805.58	1708.01
805.76	1759.21
805.93	1644.52
806.10	1834.98
806.28	1771.49
806.45	1726.44
806.63	1798.12
806.80	1726.44
806.97	1687.53
807.15	1716.20
807.32	1736.68
807.49	1720.29
807.67	1679.33
807.84	1804.26
808.01	1662.95
808.19	1761.25
808.36	1843.17
808.54	1681.38
808.71	1740.77
808.88	1714.15
809.06	1740.77
809.23	1771.49
809.40	1720.29
809.58	1751.01
809.75	1777.64
809.92	1685.48
810.10	1798.12
810.27	1755.11
810.44	1734.63
810.62	1800.16
810.79	1662.95
810.96	1693.67
811.14	1722.34
811.31	1708.01
811.48	1761.25
811.66	1718.25
811.83	1818.60
812.00	1701.86
812.18	1679.33
812.35	1834.98
812.52	1687.53
812.69	1748.97
812.87	1753.06
813.04	1642.47
813.21	1650.66
813.39	1779.68
813.56	1638.38
813.73	1753.06
813.91	1656.81
814.08	1763.30
814.25	1744.87
814.42	1660.90
814.60	1675.24
814.77	1771.49
814.94	1738.73
815.12	1687.53
815.29	1753.06
815.46	1665.00
815.63	1753.06
815.81	1705.96
815.98	1662.95
816.15	1802.21
816.33	1720.29
816.50	1677.29
816.67	1683.43
816.84	1652.71
817.02	1624.04
817.19	1611.75
817.36	1718.25
817.53	1726.44
817.71	1716.20
817.88	1843.17
818.05	1671.14
818.22	1665.00
818.40	1826.79
818.57	1796.07
818.74	1689.57
818.91	1701.86
819.09	1822.69
819.26	1734.63
819.43	1728.49
819.60	1665.00
819.78	1730.53
819.95	1818.60
820.12	1607.66
820.29	1757.16
820.47	1771.49
820.64	1712.10
820.81	1683.43
820.98	1730.53
821.15	1687.53
821.33	1789.92
821.50	1611.75
821.67	1730.53
821.84	1632.23
822.02	1751.01
822.19	1804.26
822.36	1705.96
822.53	1773.54
822.70	1660.90
822.88	1675.24
823.05	1736.68
823.22	1718.25
823.39	1765.35
823.56	1761.25
823.74	1837.03
823.91	1615.85
824.08	1669.09
824.25	1636.33
824.42	1771.49
824.60	1609.70
824.77	1658.85
824.94	1734.63
825.11	1630.18
825.28	1681.38
825.45	1746.92
825.63	1746.92
825.80	1681.38
825.97	1718.25
826.14	1710.05
826.31	1673.19
826.48	1822.69
826.66	1701.86
826.83	1744.87
827.00	1671.14
827.17	1697.77
827.34	1716.20
827.51	1679.33
827.69	1656.81
827.86	1710.05
828.03	1796.07
828.20	1724.39
828.37	1687.53
828.54	1730.53
828.71	1652.71
828.89	1820.64
829.06	1751.01
829.23	1757.16
829.40	1699.81
829.57	1742.82
829.74	1771.49
829.91	1660.90
830.09	1656.81
830.26	1693.67
830.43	1800.16
830.60	1644.52
830.77	1755.11
830.94	1816.55
831.11	1777.64
831.28	1677.29
831.46	1751.01
831.63	1730.53
831.80	1673.19
831.97	1632.23
832.14	1660.90
832.31	1734.63
832.48	1771.49
832.65	1736.68
832.82	1771.49
832.99	1771.49
833.17	1685.48
833.34	1808.36
833.51	1806.31
833.68	1611.75
833.85	1783.78
834.02	1648.61
834.19	1613.80
834.36	1675.24
834.53	1730.53
834.70	1845.22
834.87	1730.53
835.04	1765.35
835.22	1665.00
835.39	1740.77
835.56	1691.62
835.73	1689.57
835.90	1714.15
836.07	1683.43
836.24	1804.26
836.41	1697.77
836.58	1601.51
836.75	1767.40
836.92	1775.59
837.09	1658.85
837.26	1722.34
837.43	1673.19
837.60	1724.39
837.77	1654.76
837.94	1773.54
838.12	1751.01
838.29	1712.10
838.46	1714.15
838.63	1624.04
838.80	1783.78
838.97	1804.26
839.14	1710.05
839.31	1720.29
839.48	1767.40
839.65	1697.77
839.82	1798.12
839.99	1767.40
840.16	1734.63
840.33	1697.77
840.50	1720.29
840.67	1685.48
840.84	1619.94
841.01	1712.10
841.18	1734.63
841.35	1683.43
841.52	1695.72
841.69	1861.60
841.86	1763.30
842.03	1695.72
842.20	1789.92
842.37	1697.77
842.54	1697.77
842.71	1712.10
842.88	1654.76
843.05	1818.60
843.22	1755.11
843.39	1732.58
843.56	1632.23
843.73	1714.15
843.90	1644.52
844.07	1681.38
844.24	1751.01
844.41	1759.21
844.58	1693.67
844.75	1673.19
844.92	1712.10
845.09	1710.05
845.26	1705.96
845.43	1757.16
845.60	1781.73
845.77	1796.07
845.94	1681.38
846.10	1814.50
846.27	1591.27
846.44	1738.73
846.61	1662.95
846.78	1736.68
846.95	1830.88
847.12	1679.33
847.29	1697.77
847.46	1654.76
847.63	1699.81
847.80	1671.14
847.97	1742.82
848.14	1869.80
848.31	1708.01
848.48	1691.62
848.65	1722.34
848.82	1714.15
848.98	1806.31
849.15	1814.50
849.32	1806.31
849.49	1773.54
849.66	1728.49
849.83	1660.90
850.00	1638.38
850.17	1746.92
850.34	1751.01
850.51	1683.43
850.68	1730.53
850.85	1794.02
851.01	1652.71
851.18	1765.35
851.35	1716.20
851.52	1757.16
851.69	1742.82
851.86	1673.19
852.03	1742.82
852.20	1814.50
852.37	1675.24
852.53	1640.42
852.70	1667.05
852.87	1695.72
853.04	1808.36
853.21	1718.25
853.38	1841.12
853.55	1765.35
853.72	1798.12
853.89	1669.09
854.05	1732.58
854.22	1748.97
854.39	1712.10
854.56	1746.92
854.73	1787.88
854.90	1675.24
855.07	1726.44
855.23	1697.77
855.40	1677.29
855.57	1703.91
855.74	1621.99
855.91	1937.38
856.08	1718.25
856.25	1587.18
856.41	1757.16
856.58	1712.10
856.75	1636.33
856.92	1624.04
857.09	1720.29
857.26	1621.99
857.42	1603.56
857.59	1736.68
857.76	1755.11
857.93	1691.62
858.10	1691.62
858.27	1714.15
858.43	1675.24
858.60	1634.28
858.77	1675.24
858.94	1671.14
859.11	1710.05
859.27	1665.00
859.44	1726.44
859.61	1865.70
859.78	1787.88
859.95	1769.44
860.12	1658.85
860.28	1808.36
860.45	1830.88
860.62	1675.24
860.79	1751.01
860.95	1691.62
861.12	1714.15
861.29	1744.87
861.46	1712.10
861.63	1632.23
861.79	1689.57
861.96	1621.99
862.13	1609.70
862.30	1732.58
862.47	1679.33
862.63	1667.05
862.80	1759.21
862.97	1744.87
863.14	1724.39
863.30	1662.95
863.47	1705.96
863.64	1851.36
863.81	1705.96
863.97	1675.24
864.14	1708.01
864.31	1773.54
864.48	1757.16
864.65	1697.77
864.81	1716.20
864.98	1675.24
865.15	1738.73
865.32	1705.96
865.48	1740.77
865.65	1796.07
865.82	1587.18
865.98	1718.25
866.15	1751.01
866.32	1652.71
866.49	1708.01
866.65	1726.44
866.82	1660.90
866.99	1712.10
867.16	1671.14
867.32	1687.53
867.49	1714.15
867.66	1665.00
867.83	1665.00
867.99	1578.98
868.16	1712.10
868.33	1710.05
868.49	1765.35
868.66	1798.12
868.83	1738.73
868.99	1775.59
869.16	1771.49
869.33	1751.01
869.50	1802.21
869.66	1783.78
869.83	1695.72
870.00	1671.14
870.16	1722.34
870.33	1730.53
870.50	1777.64
870.66	1691.62
870.83	1812.45
871.00	1761.25
871.17	1814.50
871.33	1765.35
871.50	1693.67
871.67	1710.05
871.83	1710.05
872.00	1839.08
872.17	1701.86
872.33	1859.56
872.50	1818.60
872.67	1742.82
872.83	1712.10
873.00	1755.11
873.17	1693.67
873.33	1767.40
873.50	1769.44
873.67	1632.23
873.83	1624.04
874.00	1675.24
874.16	1761.25
874.33	1720.29
874.50	1632.23
874.66	1759.21
874.83	1775.59
875.00	1748.97
875.16	1843.17
875.33	1773.54
875.50	1609.70
875.66	1703.91
875.83	1783.78
875.99	1824.74
876.16	1693.67
876.33	1624.04
876.49	1818.60
876.66	1761.25
876.83	1759.21
876.99	1638.38
877.16	1730.53
877.32	1695.72
877.49	1705.96
877.66	1763.30
877.82	1775.59
877.99	1689.57
878.15	1828.84
878.32	1755.11
878.49	1718.25
878.65	1728.49
878.82	1791.97
878.98	1718.25
879.15	1740.77
879.32	1771.49
879.48	1755.11
879.65	1742.82
879.81	1787.88
879.98	1777.64
880.15	1691.62
880.31	1800.16
880.48	1677.29
880.64	1767.40
880.81	1818.60
880.97	1802.21
881.14	1771.49
881.31	1640.42
881.47	1814.50
881.64	1693.67
881.80	1626.09
881.97	1751.01
882.13	1691.62
882.30	1628.14
882.47	1771.49
882.63	1658.85
882.80	1691.62
882.96	1681.38
883.13	1791.97
883.29	1699.81
883.46	1742.82
883.62	1802.21
883.79	1746.92
883.95	1761.25
884.12	1660.90
884.29	1744.87
884.45	1746.92
884.62	1683.43
884.78	1689.57
884.95	1783.78
885.11	1638.38
885.28	1718.25
885.44	1654.76
885.61	1849.32
885.77	1726.44
885.94	1796.07
886.10	1753.06
886.27	1722.34
886.43	1751.01
886.60	1687.53
886.76	1710.05
886.93	1675.24
887.09	1794.02
887.26	1644.52
887.42	1730.53
887.59	1746.92
887.75	1839.08
887.92	1789.92
888.08	1785.83
888.25	1804.26
888.41	1763.30
888.58	1787.88
888.74	1714.15
888.91	1685.48
>>>>>End Processed Spectral Data<<<<<
