SpectraSuite Data File
++++++++++++++++++++++++++++++++++++
Date: Mon Jun 06 17:42:37 CEST 2016
User: root
Dark Spectrum Present: No
Reference Spectrum Present: No
Number of Sampled Component Spectra: 1
Spectrometers: USB4C02835
Integration Time (usec): 100000 (USB4C02835)
Spectra Averaged: 1 (USB4C02835)
Boxcar Smoothing: 0 (USB4C02835)
Correct for Electrical Dark: No (USB4C02835)
Strobe/Lamp Enabled: No (USB4C02835)
Correct for Detector Non-linearity: No (USB4C02835)
Correct for Stray Light: No (USB4C02835)
Number of Pixels in Processed Spectrum: 3648
>>>>>Begin Processed Spectral Data<<<<<
177.47	1501.16
177.69	1501.16
177.91	1501.16
178.13	1501.16
178.36	1464.30
178.58	1705.96
178.80	1724.39
179.02	1603.56
179.24	1689.57
179.46	1699.81
179.68	1738.73
179.90	1703.91
180.13	1708.01
180.35	1697.77
180.57	1646.57
180.79	1783.78
181.01	1665.00
181.23	1824.74
181.45	1787.88
181.67	1769.44
181.90	1779.68
182.12	1755.11
182.34	1675.24
182.56	1777.64
182.78	1662.95
183.00	1726.44
183.22	1667.05
183.44	1578.98
183.66	1855.46
183.89	1761.25
184.11	1697.77
184.33	1708.01
184.55	1779.68
184.77	1812.45
184.99	1763.30
185.21	1716.20
185.43	1839.08
185.65	1697.77
185.87	1677.29
186.10	1804.26
186.32	1880.04
186.54	1703.91
186.76	1763.30
186.98	1763.30
187.20	1683.43
187.42	1708.01
187.64	1697.77
187.86	1755.11
188.08	1746.92
188.30	1671.14
188.52	1697.77
188.75	1808.36
188.97	1820.64
189.19	1683.43
189.41	1693.67
189.63	1714.15
189.85	1730.53
190.07	1624.04
190.29	1683.43
190.51	1779.68
190.73	1599.46
190.95	1789.92
191.17	1726.44
191.39	1621.99
191.61	1667.05
191.84	1693.67
192.06	1748.97
192.28	1640.42
192.50	1877.99
192.72	1701.86
192.94	1693.67
193.16	1775.59
193.38	1746.92
193.60	1667.05
193.82	1677.29
194.04	1820.64
194.26	1675.24
194.48	1718.25
194.70	1693.67
194.92	1652.71
195.14	1771.49
195.36	1671.14
195.58	1685.48
195.80	1748.97
196.02	1640.42
196.24	1714.15
196.46	1718.25
196.69	1595.37
196.91	1896.42
197.13	1665.00
197.35	1675.24
197.57	1771.49
197.79	1765.35
198.01	1759.21
198.23	1755.11
198.45	1724.39
198.67	1712.10
198.89	1724.39
199.11	1701.86
199.33	1701.86
199.55	1570.79
199.77	1718.25
199.99	1753.06
200.21	1779.68
200.43	1714.15
200.65	1644.52
200.87	1619.94
201.09	1722.34
201.31	1681.38
201.53	1773.54
201.75	1765.35
201.97	1732.58
202.19	1757.16
202.41	1779.68
202.63	1839.08
202.85	1689.57
203.07	1759.21
203.29	1773.54
203.51	1681.38
203.73	1736.68
203.95	1890.28
204.17	1800.16
204.39	1730.53
204.61	1728.49
204.83	1693.67
205.05	1806.31
205.27	1738.73
205.49	1742.82
205.71	1656.81
205.93	1636.33
206.15	1595.37
206.37	1763.30
206.59	1740.77
206.81	1677.29
207.03	1665.00
207.25	1689.57
207.47	1800.16
207.69	1701.86
207.91	1804.26
208.13	1779.68
208.34	1734.63
208.56	1697.77
208.78	1681.38
209.00	1751.01
209.22	1675.24
209.44	1695.72
209.66	1714.15
209.88	1691.62
210.10	1765.35
210.32	1695.72
210.54	1822.69
210.76	1660.90
210.98	1736.68
211.20	1652.71
211.42	1738.73
211.64	1765.35
211.86	1722.34
212.08	1830.88
212.30	1681.38
212.52	1667.05
212.74	1761.25
212.96	1691.62
213.17	1714.15
213.39	1748.97
213.61	1748.97
213.83	1847.27
214.05	1669.09
214.27	1810.40
214.49	1722.34
214.71	1671.14
214.93	1806.31
215.15	1705.96
215.37	1757.16
215.59	1632.23
215.81	1773.54
216.03	1806.31
216.24	1636.33
216.46	1673.19
216.68	1757.16
216.90	1773.54
217.12	1841.12
217.34	1691.62
217.56	1728.49
217.78	1742.82
218.00	1742.82
218.22	1714.15
218.44	1746.92
218.66	1826.79
218.87	1814.50
219.09	1650.66
219.31	1705.96
219.53	1687.53
219.75	1687.53
219.97	1695.72
220.19	1722.34
220.41	1712.10
220.63	1738.73
220.85	1736.68
221.06	1738.73
221.28	1755.11
221.50	1761.25
221.72	1759.21
221.94	1732.58
222.16	1755.11
222.38	1761.25
222.60	1785.83
222.82	1724.39
223.03	1728.49
223.25	1693.67
223.47	1800.16
223.69	1794.02
223.91	1806.31
224.13	1771.49
224.35	1730.53
224.57	1710.05
224.78	1730.53
225.00	1609.70
225.22	1710.05
225.44	1722.34
225.66	1734.63
225.88	1712.10
226.10	1769.44
226.32	1738.73
226.53	1853.41
226.75	1724.39
226.97	1705.96
227.19	1714.15
227.41	1640.42
227.63	1712.10
227.85	1599.46
228.06	1755.11
228.28	1652.71
228.50	1767.40
228.72	1703.91
228.94	1722.34
229.16	1591.27
229.37	1628.14
229.59	1689.57
229.81	1830.88
230.03	1667.05
230.25	1652.71
230.47	1621.99
230.69	1710.05
230.90	1724.39
231.12	1714.15
231.34	1730.53
231.56	1757.16
231.78	1693.67
232.00	1732.58
232.21	1773.54
232.43	1769.44
232.65	1609.70
232.87	1830.88
233.09	1701.86
233.30	1712.10
233.52	1869.80
233.74	1732.58
233.96	1667.05
234.18	1751.01
234.40	1624.04
234.61	1800.16
234.83	1619.94
235.05	1677.29
235.27	1785.83
235.49	1738.73
235.70	1691.62
235.92	1794.02
236.14	1693.67
236.36	1845.22
236.58	1771.49
236.79	1791.97
237.01	1769.44
237.23	1742.82
237.45	1818.60
237.67	1619.94
237.88	1753.06
238.10	1830.88
238.32	1712.10
238.54	1746.92
238.76	1787.88
238.97	1621.99
239.19	1781.73
239.41	1800.16
239.63	1748.97
239.85	1683.43
240.06	1677.29
240.28	1685.48
240.50	1808.36
240.72	1628.14
240.93	1767.40
241.15	1773.54
241.37	1673.19
241.59	1742.82
241.81	1738.73
242.02	1697.77
242.24	1781.73
242.46	1722.34
242.68	1673.19
242.89	1787.88
243.11	1728.49
243.33	1677.29
243.55	1665.00
243.76	1822.69
243.98	1734.63
244.20	1699.81
244.42	1703.91
244.64	1652.71
244.85	1732.58
245.07	1714.15
245.29	1714.15
245.51	1757.16
245.72	1689.57
245.94	1804.26
246.16	1726.44
246.38	1783.78
246.59	1679.33
246.81	1665.00
247.03	1710.05
247.24	1656.81
247.46	1697.77
247.68	1681.38
247.90	1701.86
248.11	1679.33
248.33	1830.88
248.55	1714.15
248.77	1671.14
248.98	1724.39
249.20	1806.31
249.42	1695.72
249.64	1769.44
249.85	1687.53
250.07	1624.04
250.29	1662.95
250.50	1761.25
250.72	1632.23
250.94	1697.77
251.16	1851.36
251.37	1771.49
251.59	1697.77
251.81	1781.73
252.02	1765.35
252.24	1781.73
252.46	1777.64
252.68	1705.96
252.89	1693.67
253.11	1677.29
253.33	1890.28
253.54	1742.82
253.76	1675.24
253.98	1736.68
254.20	1710.05
254.41	1714.15
254.63	1763.30
254.85	1726.44
255.06	1681.38
255.28	1689.57
255.50	1671.14
255.71	1708.01
255.93	1640.42
256.15	1695.72
256.36	1806.31
256.58	1703.91
256.80	1738.73
257.02	1699.81
257.23	1705.96
257.45	1714.15
257.67	1722.34
257.88	1677.29
258.10	1708.01
258.32	1691.62
258.53	1738.73
258.75	1796.07
258.97	1665.00
259.18	1701.86
259.40	1710.05
259.62	1857.51
259.83	1781.73
260.05	1798.12
260.27	1980.39
260.48	1773.54
260.70	1681.38
260.92	1730.53
261.13	1697.77
261.35	1785.83
261.57	1689.57
261.78	1626.09
262.00	1722.34
262.22	1736.68
262.43	1718.25
262.65	1710.05
262.86	1738.73
263.08	1834.98
263.30	1734.63
263.51	1691.62
263.73	1656.81
263.95	1783.78
264.16	1640.42
264.38	1699.81
264.60	1753.06
264.81	1691.62
265.03	1779.68
265.25	1757.16
265.46	1716.20
265.68	1779.68
265.89	1769.44
266.11	1701.86
266.33	1681.38
266.54	1800.16
266.76	1804.26
266.98	1781.73
267.19	1834.98
267.41	1796.07
267.62	1679.33
267.84	1632.23
268.06	1730.53
268.27	1728.49
268.49	1736.68
268.70	1697.77
268.92	1748.97
269.14	1665.00
269.35	1669.09
269.57	1828.84
269.79	1908.71
270.00	1640.42
270.22	1869.80
270.43	1609.70
270.65	1585.13
270.87	1675.24
271.08	1771.49
271.30	1779.68
271.51	1687.53
271.73	1773.54
271.95	1804.26
272.16	1738.73
272.38	1726.44
272.59	1708.01
272.81	1665.00
273.02	1791.97
273.24	1669.09
273.46	1777.64
273.67	1804.26
273.89	1632.23
274.10	1689.57
274.32	1771.49
274.54	1759.21
274.75	1714.15
274.97	1675.24
275.18	1746.92
275.40	1767.40
275.61	1701.86
275.83	1716.20
276.05	1718.25
276.26	1730.53
276.48	1724.39
276.69	1751.01
276.91	1705.96
277.12	1755.11
277.34	1828.84
277.55	1820.64
277.77	1728.49
277.99	1601.51
278.20	1673.19
278.42	1703.91
278.63	1726.44
278.85	1679.33
279.06	1660.90
279.28	1699.81
279.49	1746.92
279.71	1882.08
279.93	1681.38
280.14	1669.09
280.36	1722.34
280.57	1714.15
280.79	1744.87
281.00	1683.43
281.22	1685.48
281.43	1734.63
281.65	1613.80
281.86	1636.33
282.08	1763.30
282.29	1873.89
282.51	1634.28
282.73	1667.05
282.94	1646.57
283.16	1789.92
283.37	1761.25
283.59	1757.16
283.80	1767.40
284.02	1720.29
284.23	1771.49
284.45	1740.77
284.66	1701.86
284.88	1693.67
285.09	1740.77
285.31	1761.25
285.52	1732.58
285.74	1619.94
285.95	1812.45
286.17	1738.73
286.38	1742.82
286.60	1628.14
286.81	1683.43
287.03	1705.96
287.24	1656.81
287.46	1767.40
287.67	1703.91
287.89	1810.40
288.10	1644.52
288.32	1732.58
288.53	1742.82
288.75	1843.17
288.96	1734.63
289.18	1712.10
289.39	1679.33
289.61	1800.16
289.82	1857.51
290.04	1830.88
290.25	1685.48
290.47	1728.49
290.68	1665.00
290.90	1777.64
291.11	1714.15
291.33	1789.92
291.54	1597.42
291.76	1677.29
291.97	1748.97
292.18	1699.81
292.40	1787.88
292.61	1613.80
292.83	1826.79
293.04	1701.86
293.26	1689.57
293.47	1730.53
293.69	1642.47
293.90	1703.91
294.12	1798.12
294.33	1748.97
294.55	1703.91
294.76	1802.21
294.97	1757.16
295.19	1875.94
295.40	1687.53
295.62	1691.62
295.83	1798.12
296.05	1665.00
296.26	1744.87
296.48	1634.28
296.69	1675.24
296.90	1701.86
297.12	1755.11
297.33	1779.68
297.55	1771.49
297.76	1736.68
297.98	1759.21
298.19	1744.87
298.41	1734.63
298.62	1736.68
298.83	1804.26
299.05	1710.05
299.26	1716.20
299.48	1665.00
299.69	1763.30
299.90	1691.62
300.12	1679.33
300.33	1738.73
300.55	1718.25
300.76	1767.40
300.98	1615.85
301.19	1763.30
301.40	1699.81
301.62	1781.73
301.83	1812.45
302.05	1712.10
302.26	1701.86
302.47	1820.64
302.69	1644.52
302.90	1789.92
303.12	1636.33
303.33	1748.97
303.54	1781.73
303.76	1775.59
303.97	1816.55
304.19	1744.87
304.40	1675.24
304.61	1736.68
304.83	1863.65
305.04	1728.49
305.26	1732.58
305.47	1675.24
305.68	1724.39
305.90	1650.66
306.11	1785.83
306.33	1736.68
306.54	1640.42
306.75	1697.77
306.97	1626.09
307.18	1673.19
307.39	1632.23
307.61	1798.12
307.82	1695.72
308.04	1710.05
308.25	1673.19
308.46	1714.15
308.68	1714.15
308.89	1828.84
309.10	1808.36
309.32	1685.48
309.53	1753.06
309.74	1734.63
309.96	1665.00
310.17	1755.11
310.39	1699.81
310.60	1789.92
310.81	1748.97
311.03	1652.71
311.24	1740.77
311.45	1685.48
311.67	1892.32
311.88	1744.87
312.09	1757.16
312.31	1738.73
312.52	1724.39
312.73	1708.01
312.95	1658.85
313.16	1689.57
313.37	1867.75
313.59	1812.45
313.80	1687.53
314.01	1814.50
314.23	1697.77
314.44	1730.53
314.65	1611.75
314.87	1673.19
315.08	1675.24
315.29	1751.01
315.51	1660.90
315.72	1601.51
315.93	1787.88
316.15	1814.50
316.36	1742.82
316.57	1726.44
316.79	1734.63
317.00	1628.14
317.21	1695.72
317.43	1665.00
317.64	1667.05
317.85	1708.01
318.07	1710.05
318.28	1738.73
318.49	1824.74
318.70	1976.29
318.92	1865.70
319.13	1814.50
319.34	1896.42
319.56	1816.55
319.77	1712.10
319.98	1802.21
320.20	1720.29
320.41	1794.02
320.62	1746.92
320.83	1648.61
321.05	1849.32
321.26	1757.16
321.47	1714.15
321.69	1773.54
321.90	1601.51
322.11	1724.39
322.32	1724.39
322.54	1845.22
322.75	1640.42
322.96	1861.60
323.18	1654.76
323.39	1619.94
323.60	1646.57
323.81	1759.21
324.03	1705.96
324.24	1705.96
324.45	1736.68
324.66	1677.29
324.88	1785.83
325.09	1804.26
325.30	1691.62
325.52	1718.25
325.73	1689.57
325.94	1746.92
326.15	1595.37
326.37	1716.20
326.58	1734.63
326.79	1871.84
327.00	1619.94
327.22	1755.11
327.43	1699.81
327.64	1662.95
327.85	1775.59
328.07	1794.02
328.28	1939.43
328.49	1648.61
328.70	1671.14
328.92	1708.01
329.13	1761.25
329.34	1771.49
329.55	1812.45
329.76	1746.92
329.98	1640.42
330.19	1804.26
330.40	1787.88
330.61	1736.68
330.83	1775.59
331.04	1642.47
331.25	1744.87
331.46	1683.43
331.68	1640.42
331.89	1771.49
332.10	1730.53
332.31	1689.57
332.52	1671.14
332.74	1779.68
332.95	1675.24
333.16	1634.28
333.37	1746.92
333.58	1642.47
333.80	1716.20
334.01	1607.66
334.22	1695.72
334.43	1660.90
334.64	1705.96
334.86	1671.14
335.07	1626.09
335.28	1763.30
335.49	1615.85
335.70	1822.69
335.92	1740.77
336.13	1884.13
336.34	1814.50
336.55	1765.35
336.76	1705.96
336.98	1654.76
337.19	1718.25
337.40	1843.17
337.61	1802.21
337.82	1724.39
338.04	1832.93
338.25	1636.33
338.46	1703.91
338.67	1755.11
338.88	1683.43
339.09	1724.39
339.31	1710.05
339.52	1730.53
339.73	1675.24
339.94	1751.01
340.15	1759.21
340.36	1724.39
340.58	1726.44
340.79	1722.34
341.00	1767.40
341.21	1650.66
341.42	1777.64
341.63	1673.19
341.85	1808.36
342.06	1695.72
342.27	1599.46
342.48	1796.07
342.69	1736.68
342.90	1759.21
343.12	1798.12
343.33	1681.38
343.54	1681.38
343.75	1779.68
343.96	1701.86
344.17	1652.71
344.38	1626.09
344.60	1687.53
344.81	1705.96
345.02	1703.91
345.23	1796.07
345.44	1789.92
345.65	1738.73
345.86	1789.92
346.07	1742.82
346.29	1685.48
346.50	1734.63
346.71	1796.07
346.92	1808.36
347.13	1826.79
347.34	1693.67
347.55	1705.96
347.76	1738.73
347.98	1699.81
348.19	1769.44
348.40	1812.45
348.61	1662.95
348.82	1806.31
349.03	1763.30
349.24	1644.52
349.45	1806.31
349.66	1691.62
349.88	1748.97
350.09	1650.66
350.30	1820.64
350.51	1814.50
350.72	1777.64
350.93	1767.40
351.14	1679.33
351.35	1763.30
351.56	1724.39
351.77	1726.44
351.99	1689.57
352.20	1828.84
352.41	1791.97
352.62	1568.74
352.83	1671.14
353.04	1705.96
353.25	1732.58
353.46	1710.05
353.67	1865.70
353.88	1611.75
354.09	1763.30
354.30	1779.68
354.52	1755.11
354.73	1726.44
354.94	1710.05
355.15	1705.96
355.36	1753.06
355.57	1648.61
355.78	1724.39
355.99	1613.80
356.20	1734.63
356.41	1834.98
356.62	1685.48
356.83	1734.63
357.04	1832.93
357.25	1660.90
357.46	1646.57
357.68	1638.38
357.89	1665.00
358.10	1728.49
358.31	1738.73
358.52	1697.77
358.73	1683.43
358.94	1689.57
359.15	1695.72
359.36	1718.25
359.57	1697.77
359.78	1689.57
359.99	1761.25
360.20	1644.52
360.41	1665.00
360.62	1779.68
360.83	1753.06
361.04	1701.86
361.25	1693.67
361.46	1802.21
361.67	1699.81
361.88	1732.58
362.09	1728.49
362.30	1814.50
362.51	1652.71
362.72	1779.68
362.93	1812.45
363.14	1732.58
363.35	1691.62
363.56	1716.20
363.78	1839.08
363.99	1759.21
364.20	1685.48
364.41	1787.88
364.62	1900.52
364.83	1761.25
365.04	1652.71
365.25	1714.15
365.46	1834.98
365.67	1679.33
365.88	1732.58
366.09	1697.77
366.30	1597.42
366.51	1714.15
366.72	1621.99
366.93	1738.73
367.14	1726.44
367.35	1769.44
367.56	1734.63
367.77	1761.25
367.98	1808.36
368.18	1714.15
368.39	1763.30
368.60	1689.57
368.81	1726.44
369.02	1742.82
369.23	1714.15
369.44	1626.09
369.65	1746.92
369.86	1730.53
370.07	1716.20
370.28	1705.96
370.49	1714.15
370.70	1697.77
370.91	1636.33
371.12	1599.46
371.33	1843.17
371.54	1681.38
371.75	1806.31
371.96	1740.77
372.17	1759.21
372.38	1748.97
372.59	1765.35
372.80	1775.59
373.01	1734.63
373.22	1732.58
373.43	1693.67
373.64	1681.38
373.85	1761.25
374.06	1787.88
374.26	1761.25
374.47	1712.10
374.68	1857.51
374.89	1730.53
375.10	1677.29
375.31	1804.26
375.52	1675.24
375.73	1775.59
375.94	1669.09
376.15	1808.36
376.36	1771.49
376.57	1677.29
376.78	1751.01
376.99	1744.87
377.20	1775.59
377.40	1693.67
377.61	1912.80
377.82	1685.48
378.03	1806.31
378.24	1765.35
378.45	1630.18
378.66	1785.83
378.87	1570.79
379.08	1716.20
379.29	1701.86
379.50	1832.93
379.71	1708.01
379.91	1789.92
380.12	1687.53
380.33	1804.26
380.54	1695.72
380.75	1689.57
380.96	1742.82
381.17	1779.68
381.38	1720.29
381.59	1796.07
381.80	1724.39
382.00	1783.78
382.21	1796.07
382.42	1845.22
382.63	1908.71
382.84	1765.35
383.05	1777.64
383.26	1746.92
383.47	1726.44
383.68	1738.73
383.88	1734.63
384.09	1773.54
384.30	1861.60
384.51	1755.11
384.72	1697.77
384.93	1624.04
385.14	1685.48
385.35	1810.40
385.55	1714.15
385.76	1720.29
385.97	1738.73
386.18	1687.53
386.39	1671.14
386.60	1699.81
386.81	1691.62
387.02	1714.15
387.22	1703.91
387.43	1804.26
387.64	1755.11
387.85	1900.52
388.06	2228.19
388.27	4124.61
388.48	6563.74
388.68	8181.64
388.89	9617.26
389.10	10028.90
389.31	8697.72
389.52	7737.23
389.73	6780.82
389.93	6320.03
390.14	5703.59
390.35	5148.59
390.56	4607.93
390.77	3841.99
390.98	3033.04
391.18	2516.95
391.39	2160.61
391.60	1859.56
391.81	1853.41
392.02	1794.02
392.23	1834.98
392.43	1728.49
392.64	1851.36
392.85	1689.57
393.06	1843.17
393.27	1820.64
393.47	1693.67
393.68	1699.81
393.89	1675.24
394.10	1820.64
394.31	1654.76
394.52	1722.34
394.72	1712.10
394.93	1796.07
395.14	1662.95
395.35	1775.59
395.56	1695.72
395.76	1779.68
395.97	1781.73
396.18	1705.96
396.39	1880.04
396.60	2068.45
396.80	1941.47
397.01	1796.07
397.22	1804.26
397.43	1898.47
397.64	1724.39
397.84	1818.60
398.05	1968.10
398.26	1740.77
398.47	1890.28
398.67	1837.03
398.88	1757.16
399.09	1708.01
399.30	1738.73
399.51	1763.30
399.71	1648.61
399.92	1748.97
400.13	1777.64
400.34	1759.21
400.54	1753.06
400.75	1845.22
400.96	1708.01
401.17	1841.12
401.37	1794.02
401.58	1744.87
401.79	1734.63
402.00	1834.98
402.21	1931.23
402.41	1953.76
402.62	2033.63
402.83	2121.70
403.04	2025.44
403.24	2070.50
403.45	1853.41
403.66	1939.43
403.87	1861.60
404.07	1865.70
404.28	1925.09
404.49	1781.73
404.70	1802.21
404.90	1732.58
405.11	1830.88
405.32	1757.16
405.52	1677.29
405.73	1632.23
405.94	1755.11
406.15	1658.85
406.35	1812.45
406.56	1757.16
406.77	1703.91
406.98	1734.63
407.18	1671.14
407.39	1845.22
407.60	1710.05
407.80	1714.15
408.01	1695.72
408.22	1751.01
408.43	1724.39
408.63	1767.40
408.84	1716.20
409.05	1832.93
409.25	1705.96
409.46	1689.57
409.67	1759.21
409.88	1654.76
410.08	1824.74
410.29	1560.55
410.50	1757.16
410.70	1839.08
410.91	1681.38
411.12	1748.97
411.32	1728.49
411.53	1724.39
411.74	1839.08
411.95	1789.92
412.15	1787.88
412.36	1781.73
412.57	1757.16
412.77	1796.07
412.98	1734.63
413.19	1712.10
413.39	1800.16
413.60	1691.62
413.81	1781.73
414.01	1697.77
414.22	1724.39
414.43	1712.10
414.63	1708.01
414.84	1775.59
415.05	1712.10
415.25	1769.44
415.46	1865.70
415.67	1714.15
415.87	1730.53
416.08	1757.16
416.29	1767.40
416.49	1843.17
416.70	1665.00
416.91	1722.34
417.11	1744.87
417.32	1816.55
417.53	1781.73
417.73	1832.93
417.94	1712.10
418.15	1697.77
418.35	1763.30
418.56	1677.29
418.77	1896.42
418.97	1785.83
419.18	1638.38
419.38	1609.70
419.59	1753.06
419.80	1802.21
420.00	1718.25
420.21	1675.24
420.42	1757.16
420.62	1798.12
420.83	1730.53
421.04	1722.34
421.24	1761.25
421.45	1763.30
421.65	1751.01
421.86	1660.90
422.07	1779.68
422.27	1818.60
422.48	1740.77
422.69	1658.85
422.89	1769.44
423.10	1751.01
423.30	1665.00
423.51	1697.77
423.72	1662.95
423.92	1806.31
424.13	1705.96
424.33	1728.49
424.54	1705.96
424.75	1769.44
424.95	1853.41
425.16	1691.62
425.36	1751.01
425.57	1789.92
425.78	1753.06
425.98	1789.92
426.19	1738.73
426.39	1669.09
426.60	1830.88
426.81	1865.70
427.01	1718.25
427.22	1685.48
427.42	1617.90
427.63	1677.29
427.83	1755.11
428.04	1810.40
428.25	1812.45
428.45	1777.64
428.66	1748.97
428.86	1634.28
429.07	1701.86
429.28	1742.82
429.48	1710.05
429.69	1624.04
429.89	1748.97
430.10	1679.33
430.30	1748.97
430.51	1777.64
430.71	1783.78
430.92	1787.88
431.13	1705.96
431.33	1796.07
431.54	1718.25
431.74	1812.45
431.95	1843.17
432.15	1660.90
432.36	1810.40
432.56	1781.73
432.77	1947.62
432.98	1796.07
433.18	1746.92
433.39	1742.82
433.59	1785.83
433.80	1826.79
434.00	1851.36
434.21	1685.48
434.41	1640.42
434.62	1884.13
434.82	1683.43
435.03	1722.34
435.23	1800.16
435.44	1669.09
435.64	1759.21
435.85	1734.63
436.06	1812.45
436.26	1824.74
436.47	1658.85
436.67	1638.38
436.88	1660.90
437.08	1765.35
437.29	1757.16
437.49	1718.25
437.70	1779.68
437.90	1763.30
438.11	1888.23
438.31	1822.69
438.52	1886.18
438.72	1898.47
438.93	1910.75
439.13	1877.99
439.34	1808.36
439.54	1681.38
439.75	1818.60
439.95	1820.64
440.16	1685.48
440.36	1748.97
440.57	1775.59
440.77	1773.54
440.98	1744.87
441.18	1751.01
441.39	1757.16
441.59	1779.68
441.80	1804.26
442.00	1720.29
442.21	1849.32
442.41	1679.33
442.62	1785.83
442.82	1718.25
443.02	1722.34
443.23	1708.01
443.43	1748.97
443.64	1794.02
443.84	1697.77
444.05	1869.80
444.25	1753.06
444.46	1789.92
444.66	1628.14
444.87	1847.27
445.07	1687.53
445.28	1738.73
445.48	1822.69
445.69	1771.49
445.89	1886.18
446.09	1851.36
446.30	2047.97
446.50	2701.27
446.71	3686.34
446.91	4210.62
447.12	4687.80
447.32	4941.75
447.53	4356.03
447.73	3940.29
447.93	3561.42
448.14	3336.14
448.34	3250.13
448.55	2904.02
448.75	2850.77
448.96	2682.84
449.16	2447.32
449.36	2375.64
449.57	2035.68
449.77	1970.15
449.98	1847.27
450.18	1888.23
450.39	1824.74
450.59	1877.99
450.79	1703.91
451.00	1761.25
451.20	1703.91
451.41	1818.60
451.61	1800.16
451.81	1710.05
452.02	1740.77
452.22	1718.25
452.43	1757.16
452.63	1681.38
452.84	1746.92
453.04	1757.16
453.24	1777.64
453.45	1656.81
453.65	1726.44
453.86	1759.21
454.06	1777.64
454.26	1757.16
454.47	1744.87
454.67	1826.79
454.87	1716.20
455.08	1705.96
455.28	1894.37
455.49	1828.84
455.69	1744.87
455.89	1902.56
456.10	1812.45
456.30	1693.67
456.51	1837.03
456.71	1736.68
456.91	1841.12
457.12	1757.16
457.32	1771.49
457.52	1699.81
457.73	1816.55
457.93	1837.03
458.14	1693.67
458.34	1677.29
458.54	1720.29
458.75	1769.44
458.95	1808.36
459.15	1857.51
459.36	1851.36
459.56	1769.44
459.76	1890.28
459.97	1837.03
460.17	1847.27
460.37	1734.63
460.58	1718.25
460.78	1812.45
460.99	1712.10
461.19	1722.34
461.39	1740.77
461.60	1714.15
461.80	1753.06
462.00	1654.76
462.21	1800.16
462.41	1710.05
462.61	1671.14
462.82	1738.73
463.02	1701.86
463.22	1701.86
463.43	1839.08
463.63	1787.88
463.83	1826.79
464.04	1728.49
464.24	1748.97
464.44	1624.04
464.64	1763.30
464.85	1812.45
465.05	1800.16
465.25	1726.44
465.46	1748.97
465.66	1798.12
465.86	1808.36
466.07	1757.16
466.27	1769.44
466.47	1730.53
466.68	1613.80
466.88	1728.49
467.08	1742.82
467.29	1810.40
467.49	1773.54
467.69	1787.88
467.89	1751.01
468.10	1738.73
468.30	1755.11
468.50	1839.08
468.71	1789.92
468.91	1660.90
469.11	1851.36
469.31	1738.73
469.52	1728.49
469.72	1853.41
469.92	1896.42
470.13	1855.46
470.33	1761.25
470.53	1914.85
470.73	2117.60
470.94	2398.17
471.14	2451.42
471.34	2539.48
471.54	2363.36
471.75	2256.86
471.95	2213.85
472.15	2103.26
472.36	2125.79
472.56	2066.40
472.76	2009.06
472.96	2050.02
473.17	1961.95
473.37	1984.48
473.57	1755.11
473.77	1798.12
473.98	1804.26
474.18	1714.15
474.38	1929.19
474.58	1681.38
474.79	1746.92
474.99	1775.59
475.19	1763.30
475.39	1687.53
475.60	1767.40
475.80	1763.30
476.00	1716.20
476.20	1720.29
476.41	1726.44
476.61	1816.55
476.81	1683.43
477.01	1693.67
477.21	1777.64
477.42	1781.73
477.62	1695.72
477.82	1810.40
478.02	1701.86
478.23	1806.31
478.43	1640.42
478.63	1710.05
478.83	1761.25
479.03	1771.49
479.24	1820.64
479.44	1892.32
479.64	1703.91
479.84	1648.61
480.04	1642.47
480.25	1798.12
480.45	1650.66
480.65	1658.85
480.85	1765.35
481.06	1667.05
481.26	1800.16
481.46	1740.77
481.66	1722.34
481.86	1656.81
482.06	1826.79
482.27	1730.53
482.47	1730.53
482.67	1777.64
482.87	1712.10
483.07	1781.73
483.28	1681.38
483.48	1636.33
483.68	1705.96
483.88	1683.43
484.08	1660.90
484.29	1626.09
484.49	1730.53
484.69	1665.00
484.89	1841.12
485.09	1828.84
485.29	1806.31
485.50	1710.05
485.70	1677.29
485.90	1830.88
486.10	1777.64
486.30	1804.26
486.50	1730.53
486.71	1808.36
486.91	1748.97
487.11	1871.84
487.31	1652.71
487.51	1742.82
487.71	1851.36
487.91	1671.14
488.12	1689.57
488.32	1587.18
488.52	1689.57
488.72	1619.94
488.92	1697.77
489.12	1802.21
489.32	1787.88
489.53	1757.16
489.73	1685.48
489.93	1888.23
490.13	1605.61
490.33	1624.04
490.53	1746.92
490.73	1791.97
490.94	1648.61
491.14	1718.25
491.34	1716.20
491.54	2121.70
491.74	2564.06
491.94	2908.12
492.14	3030.99
492.34	3016.66
492.54	2775.00
492.75	2586.58
492.95	2516.95
493.15	2246.62
493.35	2263.01
493.55	2254.81
493.75	2078.69
493.95	2164.70
494.15	2082.78
494.35	1939.43
494.56	1826.79
494.76	1738.73
494.96	1798.12
495.16	1744.87
495.36	1722.34
495.56	1773.54
495.76	1736.68
495.96	1781.73
496.16	1621.99
496.36	1849.32
496.56	1800.16
496.77	1722.34
496.97	1753.06
497.17	1898.47
497.37	1714.15
497.57	1753.06
497.77	1714.15
497.97	1710.05
498.17	1726.44
498.37	1791.97
498.57	1777.64
498.77	1720.29
498.97	1781.73
499.17	1867.75
499.38	1673.19
499.58	1779.68
499.78	1906.66
499.98	1800.16
500.18	1773.54
500.38	1714.15
500.58	1914.85
500.78	2584.54
500.98	4478.91
501.18	5863.33
501.38	6809.50
501.58	6995.86
501.78	6545.31
501.98	5572.52
502.18	5040.05
502.38	4437.95
502.58	4181.95
502.78	3839.94
502.98	3633.10
503.18	3397.58
503.38	3190.74
503.59	2861.01
503.79	2701.27
503.99	2488.28
504.19	2367.45
504.39	2176.99
504.59	2195.42
504.79	2142.18
504.99	2111.46
505.19	1955.81
505.39	1888.23
505.59	1947.62
505.79	1961.95
505.99	1906.66
506.19	1800.16
506.39	1894.37
506.59	1787.88
506.79	1738.73
506.99	1869.80
507.19	1787.88
507.39	1724.39
507.59	1701.86
507.79	1746.92
507.99	1658.85
508.19	1861.60
508.39	1748.97
508.59	1755.11
508.79	1845.22
508.99	1832.93
509.19	1746.92
509.39	1771.49
509.59	1720.29
509.79	1748.97
509.99	1665.00
510.19	1830.88
510.39	1808.36
510.59	1755.11
510.79	1665.00
510.99	1665.00
511.19	1732.58
511.39	1851.36
511.59	1814.50
511.79	1824.74
511.99	1691.62
512.19	1820.64
512.38	1814.50
512.58	1724.39
512.78	1775.59
512.98	1845.22
513.18	1767.40
513.38	1671.14
513.58	1828.84
513.78	1785.83
513.98	1816.55
514.18	1689.57
514.38	1740.77
514.58	1669.09
514.78	1720.29
514.98	1716.20
515.18	1751.01
515.38	1677.29
515.58	1781.73
515.78	1763.30
515.98	1802.21
516.18	1765.35
516.38	1804.26
516.57	1718.25
516.77	1753.06
516.97	1796.07
517.17	1728.49
517.37	1681.38
517.57	1798.12
517.77	1816.55
517.97	1660.90
518.17	1814.50
518.37	1656.81
518.57	1787.88
518.77	1775.59
518.97	1767.40
519.16	1771.49
519.36	1810.40
519.56	1744.87
519.76	1769.44
519.96	1738.73
520.16	1877.99
520.36	1656.81
520.56	1806.31
520.76	1675.24
520.96	1783.78
521.16	1767.40
521.35	1783.78
521.55	1822.69
521.75	1771.49
521.95	1687.53
522.15	1742.82
522.35	1607.66
522.55	1665.00
522.75	1826.79
522.95	1742.82
523.14	1650.66
523.34	1775.59
523.54	1771.49
523.74	1775.59
523.94	1824.74
524.14	1613.80
524.34	1703.91
524.54	1837.03
524.73	1683.43
524.93	1800.16
525.13	1755.11
525.33	1578.98
525.53	1910.75
525.73	1757.16
525.93	1775.59
526.13	1712.10
526.32	1771.49
526.52	1810.40
526.72	1910.75
526.92	1794.02
527.12	1730.53
527.32	1576.94
527.52	1722.34
527.71	1804.26
527.91	1708.01
528.11	1693.67
528.31	1796.07
528.51	1748.97
528.71	1822.69
528.90	1759.21
529.10	1781.73
529.30	1794.02
529.50	1628.14
529.70	1697.77
529.90	1839.08
530.09	1767.40
530.29	1728.49
530.49	1701.86
530.69	1886.18
530.89	1802.21
531.09	1802.21
531.28	1691.62
531.48	1812.45
531.68	1738.73
531.88	1824.74
532.08	1857.51
532.28	1761.25
532.47	1910.75
532.67	1740.77
532.87	1755.11
533.07	1783.78
533.27	1767.40
533.46	1796.07
533.66	1746.92
533.86	1753.06
534.06	1753.06
534.26	1765.35
534.45	1765.35
534.65	1759.21
534.85	1751.01
535.05	1806.31
535.25	1810.40
535.44	1757.16
535.64	1789.92
535.84	1701.86
536.04	1767.40
536.24	1746.92
536.43	1779.68
536.63	1789.92
536.83	1734.63
537.03	1775.59
537.22	1626.09
537.42	1722.34
537.62	1765.35
537.82	1695.72
538.02	1800.16
538.21	1818.60
538.41	1875.94
538.61	1890.28
538.81	1734.63
539.00	1787.88
539.20	1646.57
539.40	1763.30
539.60	1802.21
539.79	1791.97
539.99	1789.92
540.19	1730.53
540.39	1736.68
540.58	1791.97
540.78	1816.55
540.98	1757.16
541.18	1828.84
541.37	1787.88
541.57	1759.21
541.77	1714.15
541.97	1677.29
542.16	1640.42
542.36	1734.63
542.56	1724.39
542.76	1804.26
542.95	1798.12
543.15	1691.62
543.35	1812.45
543.54	1705.96
543.74	1724.39
543.94	1810.40
544.14	1728.49
544.33	1783.78
544.53	1886.18
544.73	1705.96
544.93	1687.53
545.12	1720.29
545.32	1744.87
545.52	1728.49
545.71	1697.77
545.91	1660.90
546.11	1796.07
546.30	1718.25
546.50	1665.00
546.70	1775.59
546.90	1740.77
547.09	1597.42
547.29	1734.63
547.49	1841.12
547.68	1773.54
547.88	1712.10
548.08	1738.73
548.27	2154.46
548.47	1812.45
548.67	1753.06
548.87	1796.07
549.06	1736.68
549.26	1787.88
549.46	1730.53
549.65	1730.53
549.85	1781.73
550.05	1771.49
550.24	1697.77
550.44	1736.68
550.64	1808.36
550.83	1781.73
551.03	1830.88
551.23	1816.55
551.42	1791.97
551.62	1812.45
551.82	1810.40
552.01	1824.74
552.21	1869.80
552.41	1740.77
552.60	1855.46
552.80	1794.02
553.00	1685.48
553.19	1787.88
553.39	1867.75
553.59	1675.24
553.78	1738.73
553.98	1775.59
554.17	1683.43
554.37	1802.21
554.57	1857.51
554.76	1640.42
554.96	1753.06
555.16	1777.64
555.35	1734.63
555.55	1775.59
555.75	1751.01
555.94	1779.68
556.14	1693.67
556.33	1769.44
556.53	1798.12
556.73	1720.29
556.92	1794.02
557.12	1904.61
557.32	1837.03
557.51	1814.50
557.71	1859.56
557.90	1800.16
558.10	1955.81
558.30	1718.25
558.49	1730.53
558.69	1710.05
558.88	1810.40
559.08	1787.88
559.28	1808.36
559.47	1671.14
559.67	1751.01
559.86	1810.40
560.06	1748.97
560.26	1773.54
560.45	1724.39
560.65	1830.88
560.84	1884.13
561.04	1648.61
561.24	1816.55
561.43	1748.97
561.63	1820.64
561.82	1804.26
562.02	1728.49
562.22	1705.96
562.41	1693.67
562.61	1775.59
562.80	1740.77
563.00	1943.52
563.19	1802.21
563.39	1806.31
563.59	1810.40
563.78	1693.67
563.98	1691.62
564.17	1714.15
564.37	1671.14
564.56	1763.30
564.76	1720.29
564.96	1834.98
565.15	1769.44
565.35	1916.90
565.54	1720.29
565.74	1845.22
565.93	1773.54
566.13	1753.06
566.32	1794.02
566.52	1837.03
566.71	1712.10
566.91	1744.87
567.11	1693.67
567.30	1673.19
567.50	1837.03
567.69	1771.49
567.89	1787.88
568.08	1738.73
568.28	1798.12
568.47	1705.96
568.67	1771.49
568.86	1708.01
569.06	1769.44
569.25	1755.11
569.45	1677.29
569.64	1710.05
569.84	1757.16
570.04	1800.16
570.23	1710.05
570.43	1759.21
570.62	1708.01
570.82	1849.32
571.01	1669.09
571.21	1658.85
571.40	1679.33
571.60	1855.46
571.79	1800.16
571.99	1828.84
572.18	1734.63
572.38	1677.29
572.57	1708.01
572.77	1779.68
572.96	1877.99
573.16	1722.34
573.35	1755.11
573.55	1804.26
573.74	1812.45
573.94	1757.16
574.13	1689.57
574.33	1767.40
574.52	1925.09
574.71	1722.34
574.91	1798.12
575.10	1675.24
575.30	1791.97
575.49	1673.19
575.69	1722.34
575.88	1789.92
576.08	1791.97
576.27	1828.84
576.47	1679.33
576.66	1816.55
576.86	1820.64
577.05	1742.82
577.25	1937.38
577.44	1863.65
577.64	1740.77
577.83	1845.22
578.02	1751.01
578.22	1828.84
578.41	1818.60
578.61	1783.78
578.80	1740.77
579.00	1746.92
579.19	1787.88
579.39	1818.60
579.58	1787.88
579.77	1714.15
579.97	1861.60
580.16	1853.41
580.36	1845.22
580.55	1820.64
580.75	1828.84
580.94	1828.84
581.13	1875.94
581.33	1816.55
581.52	1796.07
581.72	1853.41
581.91	1861.60
582.11	1751.01
582.30	1859.56
582.49	1787.88
582.69	1873.89
582.88	1740.77
583.08	1814.50
583.27	1886.18
583.47	1753.06
583.66	1798.12
583.85	1722.34
584.05	1761.25
584.24	1841.12
584.44	1808.36
584.63	1771.49
584.82	1863.65
585.02	1789.92
585.21	1869.80
585.41	1845.22
585.60	1880.04
585.79	1832.93
585.99	1832.93
586.18	1918.95
586.37	2170.85
586.57	3450.83
586.76	10192.74
586.96	24417.93
587.15	34088.44
587.34	40263.07
587.54	42014.08
587.73	36271.57
587.93	26009.20
588.12	21393.08
588.31	18089.71
588.51	16070.41
588.70	14960.41
588.89	14010.15
589.09	12441.41
589.28	10897.24
589.47	9408.37
589.67	7817.10
589.86	6401.95
590.06	4917.17
590.25	3889.09
590.44	3114.96
590.64	2688.98
590.83	2238.43
591.02	2045.92
591.22	1955.81
591.41	1865.70
591.60	1861.60
591.80	1943.52
591.99	1746.92
592.18	1781.73
592.38	1834.98
592.57	1839.08
592.76	1662.95
592.96	1755.11
593.15	1800.16
593.34	1804.26
593.54	1699.81
593.73	1761.25
593.92	1814.50
594.12	1732.58
594.31	1748.97
594.50	1822.69
594.70	1812.45
594.89	1837.03
595.08	1718.25
595.28	1781.73
595.47	1986.53
595.66	1849.32
595.86	1722.34
596.05	1806.31
596.24	1777.64
596.43	1910.75
596.63	1820.64
596.82	1798.12
597.01	1771.49
597.21	1898.47
597.40	1767.40
597.59	1779.68
597.79	1671.14
597.98	1787.88
598.17	1808.36
598.36	1781.73
598.56	1794.02
598.75	1720.29
598.94	1787.88
599.14	1806.31
599.33	1730.53
599.52	1865.70
599.71	1724.39
599.91	1816.55
600.10	1861.60
600.29	1787.88
600.48	1771.49
600.68	1757.16
600.87	1812.45
601.06	1718.25
601.26	1742.82
601.45	1851.36
601.64	1724.39
601.83	1796.07
602.03	1685.48
602.22	1656.81
602.41	1869.80
602.60	1830.88
602.80	1791.97
602.99	1779.68
603.18	1667.05
603.37	1804.26
603.57	1798.12
603.76	1808.36
603.95	1804.26
604.14	1777.64
604.34	1740.77
604.53	1775.59
604.72	1738.73
604.91	1798.12
605.10	1789.92
605.30	1769.44
605.49	1869.80
605.68	1738.73
605.87	1843.17
606.07	1703.91
606.26	1775.59
606.45	1853.41
606.64	1744.87
606.84	1740.77
607.03	1720.29
607.22	1794.02
607.41	1685.48
607.60	1718.25
607.80	1744.87
607.99	1783.78
608.18	1722.34
608.37	1724.39
608.56	1705.96
608.76	1806.31
608.95	1951.71
609.14	1802.21
609.33	1734.63
609.52	1822.69
609.72	1796.07
609.91	1871.84
610.10	1783.78
610.29	1828.84
610.48	1779.68
610.68	1736.68
610.87	1783.78
611.06	1849.32
611.25	1777.64
611.44	1796.07
611.63	1667.05
611.83	1765.35
612.02	1708.01
612.21	1804.26
612.40	1662.95
612.59	1662.95
612.79	1730.53
612.98	1710.05
613.17	1832.93
613.36	1714.15
613.55	1765.35
613.74	1677.29
613.93	1683.43
614.13	1746.92
614.32	1734.63
614.51	1732.58
614.70	1734.63
614.89	1699.81
615.08	1742.82
615.28	2111.46
615.47	1673.19
615.66	1742.82
615.85	1730.53
616.04	1931.23
616.23	1736.68
616.42	1787.88
616.62	1769.44
616.81	1736.68
617.00	1693.67
617.19	1783.78
617.38	1720.29
617.57	1757.16
617.76	1761.25
617.95	1722.34
618.15	1755.11
618.34	1849.32
618.53	1775.59
618.72	1767.40
618.91	1845.22
619.10	1865.70
619.29	1767.40
619.48	1718.25
619.68	1730.53
619.87	1736.68
620.06	1681.38
620.25	1824.74
620.44	1734.63
620.63	1722.34
620.82	1767.40
621.01	1767.40
621.20	1712.10
621.39	1804.26
621.59	1757.16
621.78	1775.59
621.97	1732.58
622.16	1775.59
622.35	1730.53
622.54	1757.16
622.73	1832.93
622.92	1691.62
623.11	1757.16
623.30	1703.91
623.49	1761.25
623.68	1683.43
623.88	1804.26
624.07	1755.11
624.26	1740.77
624.45	1763.30
624.64	1748.97
624.83	1726.44
625.02	1732.58
625.21	1669.09
625.40	1832.93
625.59	1775.59
625.78	1742.82
625.97	1767.40
626.16	1738.73
626.35	1730.53
626.54	1722.34
626.74	1886.18
626.93	1697.77
627.12	1736.68
627.31	1712.10
627.50	1736.68
627.69	1810.40
627.88	1781.73
628.07	1712.10
628.26	1671.14
628.45	1679.33
628.64	1675.24
628.83	1755.11
629.02	1648.61
629.21	1730.53
629.40	1697.77
629.59	1701.86
629.78	1665.00
629.97	1834.98
630.16	1710.05
630.35	1630.18
630.54	1818.60
630.73	1714.15
630.92	1736.68
631.11	1632.23
631.30	1824.74
631.49	1759.21
631.68	1755.11
631.87	1751.01
632.06	1699.81
632.25	1916.90
632.44	1773.54
632.63	1765.35
632.82	1718.25
633.01	1695.72
633.20	1753.06
633.39	1673.19
633.58	1636.33
633.77	1820.64
633.96	1722.34
634.15	1822.69
634.34	1787.88
634.53	1746.92
634.72	1746.92
634.91	1689.57
635.10	1830.88
635.29	1736.68
635.48	1744.87
635.67	1753.06
635.86	1726.44
636.05	1777.64
636.24	1720.29
636.43	1734.63
636.62	1830.88
636.81	1601.51
637.00	1753.06
637.19	1804.26
637.38	1740.77
637.57	1662.95
637.76	1685.48
637.95	1775.59
638.14	1642.47
638.33	1574.89
638.52	1730.53
638.71	1675.24
638.89	1595.37
639.08	1890.28
639.27	1746.92
639.46	1675.24
639.65	1886.18
639.84	1742.82
640.03	1820.64
640.22	1640.42
640.41	1861.60
640.60	1685.48
640.79	1765.35
640.98	1685.48
641.17	1798.12
641.36	1648.61
641.55	1796.07
641.74	1658.85
641.92	1691.62
642.11	1697.77
642.30	1767.40
642.49	1607.66
642.68	1687.53
642.87	1751.01
643.06	1763.30
643.25	1658.85
643.44	1669.09
643.63	1789.92
643.82	1777.64
644.00	1648.61
644.19	1753.06
644.38	1585.13
644.57	1699.81
644.76	1771.49
644.95	1812.45
645.14	1794.02
645.33	1728.49
645.52	1783.78
645.71	1697.77
645.89	1710.05
646.08	1650.66
646.27	1693.67
646.46	1849.32
646.65	1691.62
646.84	1708.01
647.03	1736.68
647.22	1871.84
647.40	1748.97
647.59	1665.00
647.78	1665.00
647.97	1681.38
648.16	1722.34
648.35	1787.88
648.54	1787.88
648.73	1771.49
648.91	1796.07
649.10	1652.71
649.29	1681.38
649.48	1685.48
649.67	1701.86
649.86	1763.30
650.05	1687.53
650.23	1781.73
650.42	1689.57
650.61	1730.53
650.80	1783.78
650.99	1847.27
651.18	1751.01
651.36	1757.16
651.55	1693.67
651.74	1814.50
651.93	1701.86
652.12	1673.19
652.31	1755.11
652.49	1779.68
652.68	1757.16
652.87	1800.16
653.06	1779.68
653.25	1791.97
653.44	1802.21
653.62	1804.26
653.81	1738.73
654.00	1708.01
654.19	1734.63
654.38	1888.23
654.56	1742.82
654.75	1656.81
654.94	1787.88
655.13	1751.01
655.32	1675.24
655.51	1759.21
655.69	1759.21
655.88	1763.30
656.07	1724.39
656.26	1744.87
656.45	1677.29
656.63	1816.55
656.82	1714.15
657.01	1839.08
657.20	1642.47
657.38	1925.09
657.57	1665.00
657.76	1722.34
657.95	1800.16
658.14	1712.10
658.32	1730.53
658.51	1681.38
658.70	1765.35
658.89	1742.82
659.08	1712.10
659.26	1767.40
659.45	1675.24
659.64	1771.49
659.83	1677.29
660.01	1902.56
660.20	1726.44
660.39	1791.97
660.58	1644.52
660.76	1796.07
660.95	1624.04
661.14	1775.59
661.33	1677.29
661.51	1673.19
661.70	1675.24
661.89	1767.40
662.08	1695.72
662.26	1720.29
662.45	1681.38
662.64	1832.93
662.83	1828.84
663.01	1662.95
663.20	1669.09
663.39	1781.73
663.58	1665.00
663.76	1695.72
663.95	1777.64
664.14	1691.62
664.32	1757.16
664.51	1671.14
664.70	1679.33
664.89	1748.97
665.07	1703.91
665.26	1810.40
665.45	1673.19
665.64	1779.68
665.82	1757.16
666.01	1787.88
666.20	1718.25
666.38	1779.68
666.57	1886.18
666.76	2234.33
666.95	4745.14
667.13	10731.36
667.32	15298.33
667.51	18081.52
667.69	19267.29
667.88	17473.27
668.07	12238.66
668.25	9572.21
668.44	8112.00
668.63	7305.10
668.81	6866.84
669.00	6145.95
669.19	5642.15
669.38	5109.68
669.56	4523.96
669.75	3913.67
669.94	3440.59
670.12	2885.59
670.31	2512.86
670.50	2322.40
670.68	2136.03
670.87	1982.43
671.06	1871.84
671.24	1771.49
671.43	1888.23
671.62	1771.49
671.80	1779.68
671.99	1839.08
672.18	1697.77
672.36	1796.07
672.55	1853.41
672.74	1796.07
672.92	1765.35
673.11	1767.40
673.29	1665.00
673.48	1779.68
673.67	1738.73
673.85	1796.07
674.04	1746.92
674.23	1691.62
674.41	1806.31
674.60	1679.33
674.79	1708.01
674.97	1642.47
675.16	1738.73
675.34	1804.26
675.53	1740.77
675.72	1779.68
675.90	1832.93
676.09	1757.16
676.28	1708.01
676.46	1581.03
676.65	1736.68
676.83	1714.15
677.02	1746.92
677.21	1691.62
677.39	1761.25
677.58	1689.57
677.77	1708.01
677.95	1683.43
678.14	1603.56
678.32	1769.44
678.51	1683.43
678.70	1841.12
678.88	1767.40
679.07	1724.39
679.25	1708.01
679.44	1671.14
679.63	1667.05
679.81	1822.69
680.00	1681.38
680.18	1804.26
680.37	1796.07
680.55	1775.59
680.74	1624.04
680.93	1578.98
681.11	1732.58
681.30	1685.48
681.48	1720.29
681.67	1724.39
681.85	1781.73
682.04	1662.95
682.23	1822.69
682.41	1697.77
682.60	1742.82
682.78	1650.66
682.97	1638.38
683.15	1765.35
683.34	1689.57
683.53	1785.83
683.71	1665.00
683.90	1822.69
684.08	1802.21
684.27	1714.15
684.45	1759.21
684.64	1738.73
684.82	1683.43
685.01	1705.96
685.19	1722.34
685.38	1896.42
685.57	1716.20
685.75	1673.19
685.94	1730.53
686.12	1683.43
686.31	1675.24
686.49	1779.68
686.68	1650.66
686.86	1796.07
687.05	1742.82
687.23	1804.26
687.42	1740.77
687.60	1585.13
687.79	1693.67
687.97	1751.01
688.16	1812.45
688.34	1812.45
688.53	1630.18
688.71	1703.91
688.90	1794.02
689.08	1679.33
689.27	1648.61
689.45	1824.74
689.64	1773.54
689.82	1705.96
690.01	1820.64
690.19	1763.30
690.38	1708.01
690.56	1775.59
690.75	1687.53
690.93	1771.49
691.12	1718.25
691.30	1751.01
691.49	1779.68
691.67	1701.86
691.86	1808.36
692.04	1695.72
692.23	1693.67
692.41	1708.01
692.60	1824.74
692.78	1787.88
692.97	1703.91
693.15	1746.92
693.34	1783.78
693.52	1722.34
693.71	1677.29
693.89	1687.53
694.08	1636.33
694.26	1701.86
694.44	1755.11
694.63	1769.44
694.81	1728.49
695.00	1628.14
695.18	1851.36
695.37	1845.22
695.55	1673.19
695.74	1716.20
695.92	1683.43
696.10	1822.69
696.29	1699.81
696.47	1669.09
696.66	1609.70
696.84	1755.11
697.03	1773.54
697.21	1828.84
697.40	2287.58
697.58	1771.49
697.76	1767.40
697.95	1708.01
698.13	1658.85
698.32	1718.25
698.50	1736.68
698.68	1728.49
698.87	1742.82
699.05	1796.07
699.24	1722.34
699.42	1765.35
699.61	1771.49
699.79	1732.58
699.97	1734.63
700.16	1697.77
700.34	1634.28
700.53	1759.21
700.71	1837.03
700.89	1738.73
701.08	1705.96
701.26	1753.06
701.45	2144.22
701.63	1667.05
701.81	1712.10
702.00	1714.15
702.18	1716.20
702.37	1662.95
702.55	1634.28
702.73	1701.86
702.92	1638.38
703.10	1701.86
703.28	1689.57
703.47	1667.05
703.65	1771.49
703.84	1744.87
704.02	1683.43
704.20	1818.60
704.39	1636.33
704.57	1710.05
704.75	1804.26
704.94	1804.26
705.12	1697.77
705.30	1804.26
705.49	2297.82
705.67	4478.91
705.86	9324.40
706.04	12592.96
706.22	14389.03
706.41	15019.80
706.59	13522.74
706.77	9246.58
706.96	7182.23
707.14	6498.20
707.32	6055.84
707.51	5472.17
707.69	4825.01
707.87	4220.86
708.06	3467.21
708.24	2971.60
708.42	2459.61
708.61	2267.10
708.79	1935.33
708.97	1839.08
709.16	1798.12
709.34	1865.70
709.52	1789.92
709.71	1771.49
709.89	1824.74
710.07	1712.10
710.26	1697.77
710.44	1751.01
710.62	1789.92
710.80	1667.05
710.99	1794.02
711.17	1814.50
711.35	1619.94
711.54	1794.02
711.72	1806.31
711.90	1810.40
712.09	1767.40
712.27	1705.96
712.45	1699.81
712.63	1728.49
712.82	1685.48
713.00	1667.05
713.18	1755.11
713.37	1742.82
713.55	1789.92
713.73	1665.00
713.91	1705.96
714.10	1720.29
714.28	1656.81
714.46	1779.68
714.65	1771.49
714.83	1701.86
715.01	1736.68
715.19	1789.92
715.38	1701.86
715.56	1728.49
715.74	1660.90
715.92	1658.85
716.11	1736.68
716.29	1617.90
716.47	1705.96
716.65	1775.59
716.84	1581.03
717.02	1820.64
717.20	1642.47
717.38	1710.05
717.57	1724.39
717.75	1779.68
717.93	1691.62
718.11	1746.92
718.30	1722.34
718.48	1787.88
718.66	1820.64
718.84	1822.69
719.03	1701.86
719.21	1634.28
719.39	1800.16
719.57	1708.01
719.75	1751.01
719.94	1640.42
720.12	1689.57
720.30	1767.40
720.48	1767.40
720.67	1636.33
720.85	1634.28
721.03	1738.73
721.21	1673.19
721.39	1787.88
721.58	1755.11
721.76	1773.54
721.94	1855.46
722.12	1708.01
722.30	1816.55
722.49	1714.15
722.67	1732.58
722.85	1746.92
723.03	1615.85
723.21	1734.63
723.40	1791.97
723.58	1767.40
723.76	1748.97
723.94	1777.64
724.12	1677.29
724.30	1755.11
724.49	1748.97
724.67	1699.81
724.85	1875.94
725.03	1675.24
725.21	1712.10
725.40	1820.64
725.58	1751.01
725.76	1818.60
725.94	1773.54
726.12	1632.23
726.30	1820.64
726.49	1742.82
726.67	1613.80
726.85	1748.97
727.03	1810.40
727.21	2222.05
727.39	2899.92
727.57	3841.99
727.76	4255.68
727.94	4458.43
728.12	4384.70
728.30	3561.42
728.48	2996.18
728.66	2701.27
728.84	2623.45
729.03	2355.16
729.21	2189.28
729.39	1920.99
729.57	1892.32
729.75	1783.78
729.93	1800.16
730.11	1814.50
730.30	1751.01
730.48	1724.39
730.66	1853.41
730.84	1757.16
731.02	1744.87
731.20	1722.34
731.38	1734.63
731.56	1714.15
731.74	1669.09
731.93	1744.87
732.11	1703.91
732.29	1697.77
732.47	1703.91
732.65	1779.68
732.83	1757.16
733.01	1730.53
733.19	1703.91
733.37	1800.16
733.56	1716.20
733.74	1722.34
733.92	1837.03
734.10	1667.05
734.28	1746.92
734.46	1595.37
734.64	1705.96
734.82	1701.86
735.00	1615.85
735.18	1726.44
735.36	1777.64
735.54	1699.81
735.73	1779.68
735.91	1708.01
736.09	1843.17
736.27	1761.25
736.45	1746.92
736.63	1671.14
736.81	1806.31
736.99	1771.49
737.17	1857.51
737.35	1675.24
737.53	1691.62
737.71	1681.38
737.89	1814.50
738.07	1638.38
738.25	1685.48
738.43	1644.52
738.61	1720.29
738.80	1665.00
738.98	1656.81
739.16	1705.96
739.34	1650.66
739.52	1855.46
739.70	1718.25
739.88	1843.17
740.06	1738.73
740.24	1615.85
740.42	1767.40
740.60	1609.70
740.78	1683.43
740.96	1650.66
741.14	1665.00
741.32	1728.49
741.50	1665.00
741.68	1902.56
741.86	1871.84
742.04	1581.03
742.22	1689.57
742.40	1650.66
742.58	1730.53
742.76	1673.19
742.94	1769.44
743.12	1652.71
743.30	1757.16
743.48	1734.63
743.66	1660.90
743.84	1751.01
744.02	1697.77
744.20	1722.34
744.38	1685.48
744.56	1740.77
744.74	1806.31
744.92	1718.25
745.10	1777.64
745.28	1755.11
745.46	1796.07
745.64	1718.25
745.82	1767.40
746.00	1720.29
746.18	1683.43
746.36	1656.81
746.54	1732.58
746.72	1796.07
746.90	1673.19
747.08	1763.30
747.26	1714.15
747.44	1722.34
747.62	1751.01
747.80	1730.53
747.98	1832.93
748.15	1660.90
748.33	1843.17
748.51	1724.39
748.69	1728.49
748.87	1644.52
749.05	1708.01
749.23	1775.59
749.41	1736.68
749.59	1757.16
749.77	1751.01
749.95	1703.91
750.13	1662.95
750.31	1751.01
750.49	1722.34
750.67	1779.68
750.85	1816.55
751.03	1789.92
751.20	1900.52
751.38	1757.16
751.56	1701.86
751.74	1783.78
751.92	1650.66
752.10	1669.09
752.28	1777.64
752.46	1691.62
752.64	1654.76
752.82	1677.29
753.00	1755.11
753.18	1681.38
753.35	1624.04
753.53	1656.81
753.71	1673.19
753.89	1789.92
754.07	1726.44
754.25	1802.21
754.43	1718.25
754.61	1705.96
754.79	1738.73
754.97	1693.67
755.14	1847.27
755.32	1718.25
755.50	1763.30
755.68	1732.58
755.86	1626.09
756.04	1699.81
756.22	1677.29
756.40	1775.59
756.57	1847.27
756.75	1650.66
756.93	1832.93
757.11	1728.49
757.29	1601.51
757.47	1650.66
757.65	1695.72
757.82	1558.50
758.00	1603.56
758.18	1667.05
758.36	1722.34
758.54	1859.56
758.72	1632.23
758.90	1820.64
759.07	1703.91
759.25	1691.62
759.43	1722.34
759.61	1628.14
759.79	2248.67
759.97	1806.31
760.15	1720.29
760.32	1755.11
760.50	1667.05
760.68	1814.50
760.86	1650.66
761.04	1791.97
761.22	1732.58
761.39	1703.91
761.57	1660.90
761.75	1699.81
761.93	1798.12
762.11	1726.44
762.28	1697.77
762.46	1701.86
762.64	1806.31
762.82	1671.14
763.00	1742.82
763.18	1845.22
763.35	1595.37
763.53	1724.39
763.71	1679.33
763.89	1742.82
764.07	1732.58
764.24	1738.73
764.42	1738.73
764.60	1673.19
764.78	1738.73
764.96	1746.92
765.13	1726.44
765.31	1669.09
765.49	1740.77
765.67	1693.67
765.84	1759.21
766.02	1640.42
766.20	1751.01
766.38	1841.12
766.56	1746.92
766.73	1695.72
766.91	1601.51
767.09	1806.31
767.27	1791.97
767.44	1685.48
767.62	1773.54
767.80	1656.81
767.98	1630.18
768.15	1722.34
768.33	1736.68
768.51	1832.93
768.69	1722.34
768.87	1761.25
769.04	1732.58
769.22	1859.56
769.40	1863.65
769.58	1943.52
769.75	1714.15
769.93	1726.44
770.11	1638.38
770.28	1685.48
770.46	1763.30
770.64	1736.68
770.82	1691.62
770.99	1724.39
771.17	1701.86
771.35	1773.54
771.53	1699.81
771.70	1648.61
771.88	1757.16
772.06	1675.24
772.23	1730.53
772.41	1705.96
772.59	1712.10
772.77	1710.05
772.94	1681.38
773.12	1759.21
773.30	1722.34
773.47	1726.44
773.65	1755.11
773.83	1779.68
774.01	1689.57
774.18	1603.56
774.36	1798.12
774.54	1638.38
774.71	1697.77
774.89	1587.18
775.07	1710.05
775.24	1755.11
775.42	1626.09
775.60	1806.31
775.78	1619.94
775.95	1701.86
776.13	1675.24
776.31	1581.03
776.48	1689.57
776.66	1820.64
776.84	1736.68
777.01	1642.47
777.19	1714.15
777.37	1648.61
777.54	1810.40
777.72	1816.55
777.90	1777.64
778.07	1710.05
778.25	1830.88
778.43	1775.59
778.60	1724.39
778.78	1779.68
778.96	1796.07
779.13	1615.85
779.31	1824.74
779.49	1689.57
779.66	1757.16
779.84	1753.06
780.01	1755.11
780.19	1656.81
780.37	1769.44
780.54	1701.86
780.72	1617.90
780.90	1701.86
781.07	1632.23
781.25	1738.73
781.43	1806.31
781.60	1748.97
781.78	1744.87
781.95	1701.86
782.13	1644.52
782.31	1697.77
782.48	1640.42
782.66	1722.34
782.83	1800.16
783.01	1724.39
783.19	1798.12
783.36	1587.18
783.54	1648.61
783.72	1814.50
783.89	1675.24
784.07	1640.42
784.24	1718.25
784.42	1765.35
784.60	1783.78
784.77	1718.25
784.95	1576.94
785.12	1689.57
785.30	1695.72
785.47	1652.71
785.65	1632.23
785.83	1679.33
786.00	1662.95
786.18	1742.82
786.35	1677.29
786.53	1685.48
786.71	1759.21
786.88	1744.87
787.06	1681.38
787.23	1701.86
787.41	1675.24
787.58	1712.10
787.76	1714.15
787.94	1705.96
788.11	1718.25
788.29	1589.22
788.46	1671.14
788.64	1742.82
788.81	1621.99
788.99	1632.23
789.16	1617.90
789.34	1740.77
789.52	1701.86
789.69	1677.29
789.87	1673.19
790.04	1718.25
790.22	1724.39
790.39	1777.64
790.57	1593.32
790.74	1720.29
790.92	1806.31
791.09	1660.90
791.27	1734.63
791.44	1759.21
791.62	1689.57
791.79	1785.83
791.97	1746.92
792.15	1861.60
792.32	1710.05
792.50	1742.82
792.67	1857.51
792.85	1796.07
793.02	1748.97
793.20	1738.73
793.37	1611.75
793.55	1763.30
793.72	1757.16
793.90	1740.77
794.07	1687.53
794.25	1662.95
794.42	1656.81
794.60	1718.25
794.77	1718.25
794.95	1769.44
795.12	1765.35
795.30	1832.93
795.47	1650.66
795.65	1912.80
795.82	1765.35
796.00	1646.57
796.17	1742.82
796.34	1695.72
796.52	1708.01
796.69	1757.16
796.87	1746.92
797.04	1716.20
797.22	1734.63
797.39	1751.01
797.57	1710.05
797.74	1740.77
797.92	1693.67
798.09	1699.81
798.27	1826.79
798.44	1757.16
798.62	1693.67
798.79	1742.82
798.96	1646.57
799.14	1691.62
799.31	1900.52
799.49	1769.44
799.66	1640.42
799.84	1787.88
800.01	1685.48
800.19	1767.40
800.36	1660.90
800.53	1724.39
800.71	1783.78
800.88	1746.92
801.06	1658.85
801.23	1638.38
801.41	1685.48
801.58	1617.90
801.75	1660.90
801.93	1785.83
802.10	1740.77
802.28	1730.53
802.45	1669.09
802.63	1798.12
802.80	1791.97
802.97	1742.82
803.15	1679.33
803.32	1665.00
803.50	1703.91
803.67	1595.37
803.84	1724.39
804.02	1697.77
804.19	1697.77
804.37	1538.02
804.54	1722.34
804.71	1671.14
804.89	1681.38
805.06	1665.00
805.24	1660.90
805.41	1757.16
805.58	1740.77
805.76	1763.30
805.93	1763.30
806.10	1849.32
806.28	1800.16
806.45	1763.30
806.63	1769.44
806.80	1773.54
806.97	1712.10
807.15	1650.66
807.32	1761.25
807.49	1738.73
807.67	1712.10
807.84	1693.67
808.01	1634.28
808.19	1896.42
808.36	1763.30
808.54	1681.38
808.71	1665.00
808.88	1730.53
809.06	1826.79
809.23	1769.44
809.40	1705.96
809.58	1763.30
809.75	1705.96
809.92	1714.15
810.10	1886.18
810.27	1654.76
810.44	1769.44
810.62	1773.54
810.79	1714.15
810.96	1632.23
811.14	1716.20
811.31	1720.29
811.48	1769.44
811.66	1748.97
811.83	1796.07
812.00	1738.73
812.18	1673.19
812.35	1857.51
812.52	1753.06
812.69	1687.53
812.87	1683.43
813.04	1667.05
813.21	1705.96
813.39	1712.10
813.56	1679.33
813.73	1742.82
813.91	1640.42
814.08	1697.77
814.25	1687.53
814.42	1656.81
814.60	1697.77
814.77	1746.92
814.94	1669.09
815.12	1726.44
815.29	1845.22
815.46	1718.25
815.63	1771.49
815.81	1712.10
815.98	1658.85
816.15	1728.49
816.33	1740.77
816.50	1644.52
816.67	1726.44
816.84	1648.61
817.02	1677.29
817.19	1759.21
817.36	1701.86
817.53	1808.36
817.71	1677.29
817.88	1736.68
818.05	1722.34
818.22	1773.54
818.40	1781.73
818.57	1734.63
818.74	1781.73
818.91	1677.29
819.09	1724.39
819.26	1753.06
819.43	1712.10
819.60	1640.42
819.78	1769.44
819.95	1732.58
820.12	1734.63
820.29	1789.92
820.47	1806.31
820.64	1665.00
820.81	1701.86
820.98	1697.77
821.15	1724.39
821.33	1740.77
821.50	1595.37
821.67	1718.25
821.84	1615.85
822.02	1802.21
822.19	1728.49
822.36	1667.05
822.53	1736.68
822.70	1665.00
822.88	1703.91
823.05	1810.40
823.22	1781.73
823.39	1783.78
823.56	1691.62
823.74	1880.04
823.91	1681.38
824.08	1656.81
824.25	1630.18
824.42	1767.40
824.60	1642.47
824.77	1767.40
824.94	1621.99
825.11	1705.96
825.28	1648.61
825.45	1773.54
825.63	1708.01
825.80	1626.09
825.97	1742.82
826.14	1748.97
826.31	1699.81
826.48	1644.52
826.66	1646.57
826.83	1689.57
827.00	1720.29
827.17	1626.09
827.34	1699.81
827.51	1671.14
827.69	1624.04
827.86	1626.09
828.03	1671.14
828.20	1705.96
828.37	1665.00
828.54	1722.34
828.71	1660.90
828.89	1791.97
829.06	1751.01
829.23	1787.88
829.40	1679.33
829.57	1656.81
829.74	1779.68
829.91	1710.05
830.09	1728.49
830.26	1710.05
830.43	1736.68
830.60	1673.19
830.77	1781.73
830.94	1703.91
831.11	1738.73
831.28	1677.29
831.46	1759.21
831.63	1761.25
831.80	1775.59
831.97	1695.72
832.14	1695.72
832.31	1740.77
832.48	1757.16
832.65	1798.12
832.82	1714.15
832.99	1757.16
833.17	1660.90
833.34	1863.65
833.51	1740.77
833.68	1656.81
833.85	1769.44
834.02	1648.61
834.19	1630.18
834.36	1751.01
834.53	1751.01
834.70	1765.35
834.87	1794.02
835.04	1787.88
835.22	1630.18
835.39	1714.15
835.56	1589.22
835.73	1679.33
835.90	1716.20
836.07	1673.19
836.24	1767.40
836.41	1650.66
836.58	1652.71
836.75	1828.84
836.92	1771.49
837.09	1720.29
837.26	1763.30
837.43	1742.82
837.60	1726.44
837.77	1728.49
837.94	1687.53
838.12	1718.25
838.29	1781.73
838.46	1607.66
838.63	1689.57
838.80	1845.22
838.97	1767.40
839.14	1624.04
839.31	1687.53
839.48	1779.68
839.65	1695.72
839.82	1804.26
839.99	1716.20
840.16	1675.24
840.33	1652.71
840.50	1748.97
840.67	1658.85
840.84	1574.89
841.01	1796.07
841.18	1681.38
841.35	1708.01
841.52	1769.44
841.69	1804.26
841.86	1724.39
842.03	1671.14
842.20	1734.63
842.37	1753.06
842.54	1730.53
842.71	1660.90
842.88	1667.05
843.05	1822.69
843.22	1677.29
843.39	1746.92
843.56	1734.63
843.73	1751.01
843.90	1806.31
844.07	1710.05
844.24	1785.83
844.41	1765.35
844.58	1791.97
844.75	1802.21
844.92	1748.97
845.09	1734.63
845.26	1667.05
845.43	1722.34
845.60	1628.14
845.77	1814.50
845.94	1742.82
846.10	1800.16
846.27	1609.70
846.44	1689.57
846.61	1660.90
846.78	1746.92
846.95	1742.82
847.12	1744.87
847.29	1757.16
847.46	1648.61
847.63	1785.83
847.80	1699.81
847.97	1751.01
848.14	1832.93
848.31	1656.81
848.48	1650.66
848.65	1730.53
848.82	1791.97
848.98	1863.65
849.15	1773.54
849.32	1847.27
849.49	1736.68
849.66	1728.49
849.83	1656.81
850.00	1705.96
850.17	1796.07
850.34	1697.77
850.51	1619.94
850.68	1724.39
850.85	1832.93
851.01	1812.45
851.18	1716.20
851.35	1712.10
851.52	1775.59
851.69	1796.07
851.86	1634.28
852.03	1648.61
852.20	1744.87
852.37	1767.40
852.53	1630.18
852.70	1748.97
852.87	1654.76
853.04	1697.77
853.21	1800.16
853.38	1767.40
853.55	1740.77
853.72	1775.59
853.89	1693.67
854.05	1722.34
854.22	1667.05
854.39	1714.15
854.56	1734.63
854.73	1794.02
854.90	1667.05
855.07	1753.06
855.23	1640.42
855.40	1753.06
855.57	1697.77
855.74	1583.08
855.91	1906.66
856.08	1605.61
856.25	1675.24
856.41	1703.91
856.58	1636.33
856.75	1632.23
856.92	1617.90
857.09	1728.49
857.26	1642.47
857.42	1710.05
857.59	1732.58
857.76	1759.21
857.93	1722.34
858.10	1767.40
858.27	1697.77
858.43	1671.14
858.60	1669.09
858.77	1656.81
858.94	1677.29
859.11	1740.77
859.27	1730.53
859.44	1708.01
859.61	1789.92
859.78	1757.16
859.95	1722.34
860.12	1714.15
860.28	1855.46
860.45	1843.17
860.62	1624.04
860.79	1705.96
860.95	1759.21
861.12	1644.52
861.29	1681.38
861.46	1724.39
861.63	1738.73
861.79	1677.29
861.96	1671.14
862.13	1640.42
862.30	1777.64
862.47	1675.24
862.63	1695.72
862.80	1720.29
862.97	1751.01
863.14	1691.62
863.30	1726.44
863.47	1671.14
863.64	1787.88
863.81	1699.81
863.97	1640.42
864.14	1761.25
864.31	1769.44
864.48	1763.30
864.65	1746.92
864.81	1724.39
864.98	1771.49
865.15	1769.44
865.32	1789.92
865.48	1839.08
865.65	1751.01
865.82	1701.86
865.98	1742.82
866.15	1763.30
866.32	1683.43
866.49	1701.86
866.65	1689.57
866.82	1638.38
866.99	1699.81
867.16	1708.01
867.32	1695.72
867.49	1697.77
867.66	1685.48
867.83	1689.57
867.99	1630.18
868.16	1726.44
868.33	1634.28
868.49	1718.25
868.66	1683.43
868.83	1751.01
868.99	1783.78
869.16	1673.19
869.33	1753.06
869.50	1763.30
869.66	1783.78
869.83	1734.63
870.00	1658.85
870.16	1816.55
870.33	1683.43
870.50	1767.40
870.66	1826.79
870.83	1861.60
871.00	1703.91
871.17	1785.83
871.33	1753.06
871.50	1687.53
871.67	1683.43
871.83	1673.19
872.00	1738.73
872.17	1673.19
872.33	1759.21
872.50	1791.97
872.67	1640.42
872.83	1738.73
873.00	1736.68
873.17	1796.07
873.33	1765.35
873.50	1798.12
873.67	1701.86
873.83	1619.94
874.00	1734.63
874.16	1755.11
874.33	1738.73
874.50	1701.86
874.66	1724.39
874.83	1677.29
875.00	1765.35
875.16	1761.25
875.33	1740.77
875.50	1642.47
875.66	1701.86
875.83	1693.67
875.99	1736.68
876.16	1681.38
876.33	1712.10
876.49	1665.00
876.66	1662.95
876.83	1783.78
876.99	1609.70
877.16	1705.96
877.32	1685.48
877.49	1646.57
877.66	1681.38
877.82	1800.16
877.99	1814.50
878.15	1734.63
878.32	1693.67
878.49	1724.39
878.65	1687.53
878.82	1724.39
878.98	1736.68
879.15	1710.05
879.32	1718.25
879.48	1777.64
879.65	1669.09
879.81	1648.61
879.98	1681.38
880.15	1667.05
880.31	1775.59
880.48	1683.43
880.64	1824.74
880.81	1763.30
880.97	1814.50
881.14	1755.11
881.31	1654.76
881.47	1834.98
881.64	1699.81
881.80	1667.05
881.97	1712.10
882.13	1777.64
882.30	1689.57
882.47	1636.33
882.63	1699.81
882.80	1722.34
882.96	1765.35
883.13	1810.40
883.29	1720.29
883.46	1681.38
883.62	1781.73
883.79	1691.62
883.95	1775.59
884.12	1718.25
884.29	1755.11
884.45	1757.16
884.62	1765.35
884.78	1736.68
884.95	1808.36
885.11	1714.15
885.28	1718.25
885.44	1751.01
885.61	1746.92
885.77	1789.92
885.94	1734.63
886.10	1736.68
886.27	1746.92
886.43	1773.54
886.60	1822.69
886.76	1656.81
886.93	1662.95
887.09	1728.49
887.26	1605.61
887.42	1722.34
887.59	1775.59
887.75	1882.08
887.92	1746.92
888.08	1759.21
888.25	1781.73
888.41	1710.05
888.58	1738.73
888.74	1693.67
888.91	1714.15
>>>>>End Processed Spectral Data<<<<<
