SpectraSuite Data File
++++++++++++++++++++++++++++++++++++
Date: Mon Jun 06 13:21:37 CEST 2016
User: root
Dark Spectrum Present: No
Reference Spectrum Present: No
Number of Sampled Component Spectra: 1
Spectrometers: USB4C02835
Integration Time (usec): 100000 (USB4C02835)
Spectra Averaged: 1 (USB4C02835)
Boxcar Smoothing: 0 (USB4C02835)
Correct for Electrical Dark: No (USB4C02835)
Strobe/Lamp Enabled: No (USB4C02835)
Correct for Detector Non-linearity: No (USB4C02835)
Correct for Stray Light: No (USB4C02835)
Number of Pixels in Processed Spectrum: 3648
>>>>>Begin Processed Spectral Data<<<<<
177.47	1423.34
177.69	1423.34
177.91	1423.34
178.13	1456.11
178.36	1501.16
178.58	1611.75
178.80	1845.22
179.02	1613.80
179.24	1634.28
179.46	1669.09
179.68	1751.01
179.90	1757.16
180.13	1628.14
180.35	1621.99
180.57	1632.23
180.79	1746.92
181.01	1658.85
181.23	1683.43
181.45	1775.59
181.67	1720.29
181.90	1734.63
182.12	1656.81
182.34	1689.57
182.56	1701.86
182.78	1701.86
183.00	1658.85
183.22	1722.34
183.44	1535.98
183.66	1791.97
183.89	1769.44
184.11	1710.05
184.33	1712.10
184.55	1705.96
184.77	1673.19
184.99	1732.58
185.21	1703.91
185.43	1828.84
185.65	1665.00
185.87	1650.66
186.10	1791.97
186.32	1812.45
186.54	1718.25
186.76	1724.39
186.98	1677.29
187.20	1677.29
187.42	1605.61
187.64	1722.34
187.86	1697.77
188.08	1683.43
188.30	1781.73
188.52	1650.66
188.75	1751.01
188.97	1746.92
189.19	1621.99
189.41	1740.77
189.63	1697.77
189.85	1624.04
190.07	1601.51
190.29	1650.66
190.51	1734.63
190.73	1597.42
190.95	1781.73
191.17	1689.57
191.39	1662.95
191.61	1708.01
191.84	1652.71
192.06	1712.10
192.28	1562.60
192.50	1779.68
192.72	1753.06
192.94	1710.05
193.16	1757.16
193.38	1748.97
193.60	1621.99
193.82	1708.01
194.04	1697.77
194.26	1734.63
194.48	1718.25
194.70	1675.24
194.92	1636.33
195.14	1775.59
195.36	1654.76
195.58	1744.87
195.80	1736.68
196.02	1611.75
196.24	1689.57
196.46	1691.62
196.69	1609.70
196.91	1865.70
197.13	1638.38
197.35	1650.66
197.57	1802.21
197.79	1769.44
198.01	1681.38
198.23	1773.54
198.45	1671.14
198.67	1648.61
198.89	1685.48
199.11	1701.86
199.33	1693.67
199.55	1515.50
199.77	1730.53
199.99	1705.96
200.21	1673.19
200.43	1646.57
200.65	1669.09
200.87	1544.17
201.09	1697.77
201.31	1689.57
201.53	1761.25
201.75	1693.67
201.97	1757.16
202.19	1746.92
202.41	1779.68
202.63	1806.31
202.85	1691.62
203.07	1693.67
203.29	1738.73
203.51	1609.70
203.73	1621.99
203.95	1920.99
204.17	1718.25
204.39	1669.09
204.61	1660.90
204.83	1662.95
205.05	1730.53
205.27	1763.30
205.49	1845.22
205.71	1695.72
205.93	1603.56
206.15	1718.25
206.37	1724.39
206.59	1667.05
206.81	1640.42
207.03	1648.61
207.25	1687.53
207.47	1773.54
207.69	1648.61
207.91	1734.63
208.13	1685.48
208.34	1605.61
208.56	1611.75
208.78	1654.76
209.00	1607.66
209.22	1665.00
209.44	1667.05
209.66	1699.81
209.88	1683.43
210.10	1667.05
210.32	1675.24
210.54	1746.92
210.76	1697.77
210.98	1755.11
211.20	1570.79
211.42	1738.73
211.64	1699.81
211.86	1673.19
212.08	1689.57
212.30	1699.81
212.52	1662.95
212.74	1671.14
212.96	1720.29
213.17	1726.44
213.39	1722.34
213.61	1738.73
213.83	1769.44
214.05	1646.57
214.27	1775.59
214.49	1615.85
214.71	1609.70
214.93	1771.49
215.15	1703.91
215.37	1816.55
215.59	1660.90
215.81	1726.44
216.03	1755.11
216.24	1722.34
216.46	1658.85
216.68	1687.53
216.90	1693.67
217.12	1716.20
217.34	1730.53
217.56	1708.01
217.78	1699.81
218.00	1779.68
218.22	1691.62
218.44	1701.86
218.66	1771.49
218.87	1722.34
219.09	1691.62
219.31	1748.97
219.53	1710.05
219.75	1683.43
219.97	1652.71
220.19	1726.44
220.41	1736.68
220.63	1787.88
220.85	1683.43
221.06	1783.78
221.28	1791.97
221.50	1808.36
221.72	1705.96
221.94	1701.86
222.16	1669.09
222.38	1730.53
222.60	1665.00
222.82	1695.72
223.03	1763.30
223.25	1626.09
223.47	1785.83
223.69	1798.12
223.91	1654.76
224.13	1710.05
224.35	1738.73
224.57	1742.82
224.78	1730.53
225.00	1624.04
225.22	1699.81
225.44	1642.47
225.66	1732.58
225.88	1697.77
226.10	1728.49
226.32	1703.91
226.53	1773.54
226.75	1718.25
226.97	1693.67
227.19	1693.67
227.41	1632.23
227.63	1703.91
227.85	1542.12
228.06	1718.25
228.28	1763.30
228.50	1710.05
228.72	1652.71
228.94	1701.86
229.16	1632.23
229.37	1665.00
229.59	1656.81
229.81	1740.77
230.03	1681.38
230.25	1525.74
230.47	1683.43
230.69	1595.37
230.90	1718.25
231.12	1681.38
231.34	1691.62
231.56	1763.30
231.78	1648.61
232.00	1699.81
232.21	1681.38
232.43	1677.29
232.65	1560.55
232.87	1669.09
233.09	1607.66
233.30	1648.61
233.52	1720.29
233.74	1619.94
233.96	1677.29
234.18	1665.00
234.40	1644.52
234.61	1800.16
234.83	1515.50
235.05	1615.85
235.27	1818.60
235.49	1736.68
235.70	1716.20
235.92	1791.97
236.14	1665.00
236.36	1861.60
236.58	1540.07
236.79	1730.53
237.01	1665.00
237.23	1685.48
237.45	1767.40
237.67	1691.62
237.88	1738.73
238.10	1781.73
238.32	1693.67
238.54	1650.66
238.76	1599.46
238.97	1685.48
239.19	1640.42
239.41	1777.64
239.63	1751.01
239.85	1630.18
240.06	1677.29
240.28	1699.81
240.50	1724.39
240.72	1716.20
240.93	1705.96
241.15	1847.27
241.37	1714.15
241.59	1724.39
241.81	1611.75
242.02	1722.34
242.24	1738.73
242.46	1697.77
242.68	1677.29
242.89	1658.85
243.11	1810.40
243.33	1658.85
243.55	1669.09
243.76	1763.30
243.98	1595.37
244.20	1697.77
244.42	1708.01
244.64	1667.05
244.85	1603.56
245.07	1621.99
245.29	1712.10
245.51	1783.78
245.72	1681.38
245.94	1705.96
246.16	1740.77
246.38	1722.34
246.59	1662.95
246.81	1673.19
247.03	1589.22
247.24	1560.55
247.46	1714.15
247.68	1738.73
247.90	1718.25
248.11	1687.53
248.33	1675.24
248.55	1714.15
248.77	1673.19
248.98	1820.64
249.20	1722.34
249.42	1740.77
249.64	1675.24
249.85	1734.63
250.07	1705.96
250.29	1734.63
250.50	1785.83
250.72	1683.43
250.94	1787.88
251.16	1861.60
251.37	1775.59
251.59	1748.97
251.81	1714.15
252.02	1775.59
252.24	1660.90
252.46	1796.07
252.68	1679.33
252.89	1624.04
253.11	1581.03
253.33	1812.45
253.54	1759.21
253.76	1578.98
253.98	1722.34
254.20	1732.58
254.41	1669.09
254.63	1665.00
254.85	1665.00
255.06	1742.82
255.28	1771.49
255.50	1708.01
255.71	1656.81
255.93	1581.03
256.15	1757.16
256.36	1708.01
256.58	1648.61
256.80	1730.53
257.02	1662.95
257.23	1685.48
257.45	1687.53
257.67	1759.21
257.88	1697.77
258.10	1701.86
258.32	1748.97
258.53	1712.10
258.75	1796.07
258.97	1665.00
259.18	1738.73
259.40	1691.62
259.62	1851.36
259.83	1800.16
260.05	1726.44
260.27	2033.63
260.48	1767.40
260.70	1650.66
260.92	1736.68
261.13	1718.25
261.35	1744.87
261.57	1767.40
261.78	1599.46
262.00	1628.14
262.22	1744.87
262.43	1710.05
262.65	1675.24
262.86	1679.33
263.08	1834.98
263.30	1685.48
263.51	1615.85
263.73	1589.22
263.95	1816.55
264.16	1624.04
264.38	1683.43
264.60	1667.05
264.81	1654.76
265.03	1656.81
265.25	1665.00
265.46	1691.62
265.68	1689.57
265.89	1716.20
266.11	1552.36
266.33	1730.53
266.54	1697.77
266.76	1769.44
266.98	1662.95
267.19	1763.30
267.41	1734.63
267.62	1726.44
267.84	1636.33
268.06	1650.66
268.27	1646.57
268.49	1810.40
268.70	1705.96
268.92	1640.42
269.14	1695.72
269.35	1595.37
269.57	1740.77
269.79	1693.67
270.00	1732.58
270.22	1781.73
270.43	1677.29
270.65	1589.22
270.87	1734.63
271.08	1726.44
271.30	1728.49
271.51	1658.85
271.73	1701.86
271.95	1787.88
272.16	1777.64
272.38	1691.62
272.59	1662.95
272.81	1769.44
273.02	1685.48
273.24	1718.25
273.46	1769.44
273.67	1632.23
273.89	1638.38
274.10	1689.57
274.32	1736.68
274.54	1740.77
274.75	1662.95
274.97	1648.61
275.18	1693.67
275.40	1708.01
275.61	1681.38
275.83	1673.19
276.05	1656.81
276.26	1687.53
276.48	1665.00
276.69	1677.29
276.91	1636.33
277.12	1677.29
277.34	1755.11
277.55	1812.45
277.77	1687.53
277.99	1685.48
278.20	1708.01
278.42	1640.42
278.63	1642.47
278.85	1710.05
279.06	1640.42
279.28	1746.92
279.49	1818.60
279.71	1660.90
279.93	1687.53
280.14	1708.01
280.36	1644.52
280.57	1693.67
280.79	1744.87
281.00	1667.05
281.22	1695.72
281.43	1746.92
281.65	1646.57
281.86	1687.53
282.08	1740.77
282.29	1771.49
282.51	1632.23
282.73	1669.09
282.94	1603.56
283.16	1679.33
283.37	1802.21
283.59	1732.58
283.80	1681.38
284.02	1626.09
284.23	1687.53
284.45	1626.09
284.66	1599.46
284.88	1640.42
285.09	1662.95
285.31	1644.52
285.52	1656.81
285.74	1560.55
285.95	1765.35
286.17	1677.29
286.38	1748.97
286.60	1597.42
286.81	1697.77
287.03	1679.33
287.24	1681.38
287.46	1689.57
287.67	1740.77
287.89	1783.78
288.10	1691.62
288.32	1673.19
288.53	1763.30
288.75	1767.40
288.96	1632.23
289.18	1642.47
289.39	1701.86
289.61	1722.34
289.82	1841.12
290.04	1804.26
290.25	1691.62
290.47	1732.58
290.68	1624.04
290.90	1722.34
291.11	1646.57
291.33	1724.39
291.54	1701.86
291.76	1681.38
291.97	1699.81
292.18	1693.67
292.40	1654.76
292.61	1656.81
292.83	1798.12
293.04	1794.02
293.26	1673.19
293.47	1730.53
293.69	1634.28
293.90	1665.00
294.12	1757.16
294.33	1671.14
294.55	1652.71
294.76	1679.33
294.97	1716.20
295.19	1849.32
295.40	1712.10
295.62	1718.25
295.83	1783.78
296.05	1665.00
296.26	1683.43
296.48	1595.37
296.69	1642.47
296.90	1740.77
297.12	1730.53
297.33	1771.49
297.55	1722.34
297.76	1779.68
297.98	1783.78
298.19	1722.34
298.41	1703.91
298.62	1642.47
298.83	1781.73
299.05	1679.33
299.26	1662.95
299.48	1646.57
299.69	1763.30
299.90	1687.53
300.12	1665.00
300.33	1722.34
300.55	1685.48
300.76	1718.25
300.98	1697.77
301.19	1748.97
301.40	1726.44
301.62	1615.85
301.83	1691.62
302.05	1703.91
302.26	1683.43
302.47	1775.59
302.69	1669.09
302.90	1712.10
303.12	1578.98
303.33	1757.16
303.54	1845.22
303.76	1650.66
303.97	1761.25
304.19	1800.16
304.40	1654.76
304.61	1603.56
304.83	1753.06
305.04	1779.68
305.26	1732.58
305.47	1667.05
305.68	1751.01
305.90	1615.85
306.11	1716.20
306.33	1660.90
306.54	1648.61
306.75	1642.47
306.97	1574.89
307.18	1630.18
307.39	1636.33
307.61	1759.21
307.82	1734.63
308.04	1740.77
308.25	1611.75
308.46	1769.44
308.68	1714.15
308.89	1812.45
309.10	1791.97
309.32	1734.63
309.53	1636.33
309.74	1716.20
309.96	1673.19
310.17	1744.87
310.39	1673.19
310.60	1714.15
310.81	1734.63
311.03	1613.80
311.24	1763.30
311.45	1658.85
311.67	1767.40
311.88	1716.20
312.09	1638.38
312.31	1638.38
312.52	1755.11
312.73	1722.34
312.95	1615.85
313.16	1730.53
313.37	1785.83
313.59	1751.01
313.80	1740.77
314.01	1796.07
314.23	1693.67
314.44	1632.23
314.65	1617.90
314.87	1691.62
315.08	1640.42
315.29	1689.57
315.51	1660.90
315.72	1576.94
315.93	1841.12
316.15	1763.30
316.36	1748.97
316.57	1714.15
316.79	1699.81
317.00	1681.38
317.21	1726.44
317.43	1642.47
317.64	1763.30
317.85	1626.09
318.07	1669.09
318.28	1738.73
318.49	1746.92
318.70	1892.32
318.92	1959.91
319.13	1818.60
319.34	1806.31
319.56	1810.40
319.77	1791.97
319.98	1742.82
320.20	1839.08
320.41	1738.73
320.62	1796.07
320.83	1693.67
321.05	1849.32
321.26	1675.24
321.47	1765.35
321.69	1730.53
321.90	1607.66
322.11	1751.01
322.32	1677.29
322.54	1794.02
322.75	1722.34
322.96	1830.88
323.18	1611.75
323.39	1552.36
323.60	1640.42
323.81	1751.01
324.03	1726.44
324.24	1689.57
324.45	1716.20
324.66	1738.73
324.88	1726.44
325.09	1765.35
325.30	1673.19
325.52	1714.15
325.73	1716.20
325.94	1628.14
326.15	1607.66
326.37	1611.75
326.58	1716.20
326.79	1804.26
327.00	1603.56
327.22	1773.54
327.43	1681.38
327.64	1621.99
327.85	1736.68
328.07	1665.00
328.28	1748.97
328.49	1689.57
328.70	1687.53
328.92	1773.54
329.13	1722.34
329.34	1732.58
329.55	1820.64
329.76	1773.54
329.98	1630.18
330.19	1806.31
330.40	1718.25
330.61	1714.15
330.83	1636.33
331.04	1648.61
331.25	1714.15
331.46	1720.29
331.68	1679.33
331.89	1787.88
332.10	1714.15
332.31	1652.71
332.52	1652.71
332.74	1722.34
332.95	1665.00
333.16	1716.20
333.37	1826.79
333.58	1716.20
333.80	1738.73
334.01	1619.94
334.22	1650.66
334.43	1624.04
334.64	1644.52
334.86	1628.14
335.07	1687.53
335.28	1789.92
335.49	1611.75
335.70	1773.54
335.92	1814.50
336.13	1863.65
336.34	1757.16
336.55	1703.91
336.76	1699.81
336.98	1595.37
337.19	1683.43
337.40	1724.39
337.61	1890.28
337.82	1626.09
338.04	1794.02
338.25	1615.85
338.46	1630.18
338.67	1646.57
338.88	1646.57
339.09	1675.24
339.31	1638.38
339.52	1550.31
339.73	1673.19
339.94	1705.96
340.15	1701.86
340.36	1671.14
340.58	1650.66
340.79	1656.81
341.00	1753.06
341.21	1611.75
341.42	1724.39
341.63	1603.56
341.85	1716.20
342.06	1662.95
342.27	1656.81
342.48	1755.11
342.69	1648.61
342.90	1683.43
343.12	1701.86
343.33	1730.53
343.54	1693.67
343.75	1841.12
343.96	1677.29
344.17	1607.66
344.38	1730.53
344.60	1658.85
344.81	1595.37
345.02	1701.86
345.23	1759.21
345.44	1814.50
345.65	1693.67
345.86	1689.57
346.07	1701.86
346.29	1634.28
346.50	1748.97
346.71	1726.44
346.92	1730.53
347.13	1837.03
347.34	1644.52
347.55	1708.01
347.76	1701.86
347.98	1538.02
348.19	1669.09
348.40	1779.68
348.61	1701.86
348.82	1722.34
349.03	1765.35
349.24	1746.92
349.45	1794.02
349.66	1619.94
349.88	1630.18
350.09	1605.61
350.30	1757.16
350.51	1785.83
350.72	1687.53
350.93	1679.33
351.14	1687.53
351.35	1708.01
351.56	1738.73
351.77	1726.44
351.99	1671.14
352.20	1839.08
352.41	1650.66
352.62	1566.70
352.83	1716.20
353.04	1638.38
353.25	1730.53
353.46	1712.10
353.67	1828.84
353.88	1624.04
354.09	1728.49
354.30	1667.05
354.52	1783.78
354.73	1708.01
354.94	1718.25
355.15	1677.29
355.36	1822.69
355.57	1732.58
355.78	1705.96
355.99	1742.82
356.20	1671.14
356.41	1699.81
356.62	1714.15
356.83	1626.09
357.04	1787.88
357.25	1648.61
357.46	1630.18
357.68	1628.14
357.89	1556.46
358.10	1730.53
358.31	1650.66
358.52	1714.15
358.73	1564.65
358.94	1650.66
359.15	1601.51
359.36	1732.58
359.57	1654.76
359.78	1656.81
359.99	1681.38
360.20	1636.33
360.41	1744.87
360.62	1738.73
360.83	1742.82
361.04	1771.49
361.25	1722.34
361.46	1804.26
361.67	1728.49
361.88	1742.82
362.09	1787.88
362.30	1667.05
362.51	1691.62
362.72	1705.96
362.93	1761.25
363.14	1798.12
363.35	1773.54
363.56	1697.77
363.78	1710.05
363.99	1808.36
364.20	1572.84
364.41	1726.44
364.62	1880.04
364.83	1705.96
365.04	1701.86
365.25	1689.57
365.46	1869.80
365.67	1675.24
365.88	1636.33
366.09	1779.68
366.30	1738.73
366.51	1779.68
366.72	1671.14
366.93	1738.73
367.14	1748.97
367.35	1771.49
367.56	1687.53
367.77	1765.35
367.98	1626.09
368.18	1685.48
368.39	1660.90
368.60	1667.05
368.81	1773.54
369.02	1724.39
369.23	1599.46
369.44	1615.85
369.65	1652.71
369.86	1691.62
370.07	1759.21
370.28	1574.89
370.49	1691.62
370.70	1642.47
370.91	1609.70
371.12	1718.25
371.33	1767.40
371.54	1691.62
371.75	1789.92
371.96	1521.64
372.17	1585.13
372.38	1642.47
372.59	1642.47
372.80	1746.92
373.01	1746.92
373.22	1701.86
373.43	1710.05
373.64	1669.09
373.85	1736.68
374.06	1830.88
374.26	1748.97
374.47	1691.62
374.68	1826.79
374.89	1683.43
375.10	1738.73
375.31	1775.59
375.52	1669.09
375.73	1726.44
375.94	1677.29
376.15	1804.26
376.36	1630.18
376.57	1712.10
376.78	1701.86
376.99	1591.27
377.20	1757.16
377.40	1777.64
377.61	1765.35
377.82	1609.70
378.03	1789.92
378.24	1734.63
378.45	1722.34
378.66	1714.15
378.87	1662.95
379.08	1675.24
379.29	1689.57
379.50	1691.62
379.71	1697.77
379.91	1781.73
380.12	1671.14
380.33	1744.87
380.54	1665.00
380.75	1705.96
380.96	1648.61
381.17	1736.68
381.38	1742.82
381.59	1771.49
381.80	1730.53
382.00	1847.27
382.21	1767.40
382.42	1757.16
382.63	1867.75
382.84	1757.16
383.05	1808.36
383.26	1794.02
383.47	1716.20
383.68	1748.97
383.88	1712.10
384.09	1773.54
384.30	1873.89
384.51	1722.34
384.72	1656.81
384.93	1697.77
385.14	1689.57
385.35	1767.40
385.55	1601.51
385.76	1806.31
385.97	1765.35
386.18	1599.46
386.39	1724.39
386.60	1660.90
386.81	1687.53
387.02	1648.61
387.22	1609.70
387.43	1755.11
387.64	1738.73
387.85	1894.37
388.06	2164.70
388.27	4267.97
388.48	6838.17
388.68	8384.38
388.89	9697.13
389.10	9936.74
389.31	8642.43
389.52	7409.55
389.73	6815.64
389.93	6244.26
390.14	5877.67
390.35	5310.38
390.56	4618.17
390.77	3815.37
390.98	3057.62
391.18	2443.23
391.39	2158.56
391.60	1873.89
391.81	1800.16
392.02	1669.09
392.23	1822.69
392.43	1734.63
392.64	1841.12
392.85	1783.78
393.06	1740.77
393.27	1695.72
393.47	1660.90
393.68	1703.91
393.89	1650.66
394.10	1783.78
394.31	1681.38
394.52	1644.52
394.72	1701.86
394.93	1714.15
395.14	1636.33
395.35	1728.49
395.56	1701.86
395.76	1748.97
395.97	1832.93
396.18	1900.52
396.39	1787.88
396.60	2082.78
396.80	1847.27
397.01	1810.40
397.22	1777.64
397.43	1814.50
397.64	1812.45
397.84	1736.68
398.05	1877.99
398.26	1697.77
398.47	1763.30
398.67	1736.68
398.88	1677.29
399.09	1685.48
399.30	1697.77
399.51	1742.82
399.71	1691.62
399.92	1679.33
400.13	1691.62
400.34	1644.52
400.54	1703.91
400.75	1703.91
400.96	1697.77
401.17	1820.64
401.37	1789.92
401.58	1734.63
401.79	1757.16
402.00	1867.75
402.21	2004.96
402.41	1957.86
402.62	2037.73
402.83	2045.92
403.04	2027.49
403.24	2045.92
403.45	1806.31
403.66	1877.99
403.87	1892.32
404.07	1902.56
404.28	1951.71
404.49	1882.08
404.70	1783.78
404.90	1773.54
405.11	1742.82
405.32	1781.73
405.52	1693.67
405.73	1665.00
405.94	1650.66
406.15	1673.19
406.35	1712.10
406.56	1755.11
406.77	1746.92
406.98	1771.49
407.18	1591.27
407.39	1724.39
407.60	1675.24
407.80	1720.29
408.01	1697.77
408.22	1710.05
408.43	1683.43
408.63	1728.49
408.84	1787.88
409.05	1705.96
409.25	1617.90
409.46	1638.38
409.67	1687.53
409.88	1705.96
410.08	1748.97
410.29	1705.96
410.50	1691.62
410.70	1816.55
410.91	1648.61
411.12	1689.57
411.32	1642.47
411.53	1669.09
411.74	1769.44
411.95	1816.55
412.15	1736.68
412.36	1802.21
412.57	1679.33
412.77	1806.31
412.98	1703.91
413.19	1697.77
413.39	1767.40
413.60	1716.20
413.81	1769.44
414.01	1679.33
414.22	1716.20
414.43	1798.12
414.63	1705.96
414.84	1771.49
415.05	1699.81
415.25	1699.81
415.46	1726.44
415.67	1665.00
415.87	1677.29
416.08	1720.29
416.29	1669.09
416.49	1738.73
416.70	1703.91
416.91	1615.85
417.11	1726.44
417.32	1712.10
417.53	1714.15
417.73	1708.01
417.94	1695.72
418.15	1693.67
418.35	1722.34
418.56	1740.77
418.77	1841.12
418.97	1697.77
419.18	1697.77
419.38	1640.42
419.59	1699.81
419.80	1738.73
420.00	1730.53
420.21	1763.30
420.42	1769.44
420.62	1728.49
420.83	1632.23
421.04	1593.32
421.24	1777.64
421.45	1757.16
421.65	1798.12
421.86	1718.25
422.07	1736.68
422.27	1724.39
422.48	1789.92
422.69	1642.47
422.89	1673.19
423.10	1716.20
423.30	1660.90
423.51	1679.33
423.72	1724.39
423.92	1738.73
424.13	1652.71
424.33	1675.24
424.54	1771.49
424.75	1685.48
424.95	1785.83
425.16	1794.02
425.36	1677.29
425.57	1695.72
425.78	1652.71
425.98	1755.11
426.19	1689.57
426.39	1685.48
426.60	1787.88
426.81	1802.21
427.01	1748.97
427.22	1650.66
427.42	1650.66
427.63	1677.29
427.83	1808.36
428.04	1816.55
428.25	1832.93
428.45	1798.12
428.66	1736.68
428.86	1681.38
429.07	1671.14
429.28	1734.63
429.48	1712.10
429.69	1671.14
429.89	1748.97
430.10	1626.09
430.30	1740.77
430.51	1720.29
430.71	1716.20
430.92	1673.19
431.13	1632.23
431.33	1789.92
431.54	1775.59
431.74	1732.58
431.95	1755.11
432.15	1605.61
432.36	1759.21
432.56	1802.21
432.77	1859.56
432.98	1853.41
433.18	1710.05
433.39	1703.91
433.59	1767.40
433.80	1798.12
434.00	1847.27
434.21	1605.61
434.41	1642.47
434.62	1826.79
434.82	1708.01
435.03	1665.00
435.23	1779.68
435.44	1572.84
435.64	1732.58
435.85	1740.77
436.06	1695.72
436.26	1804.26
436.47	1701.86
436.67	1640.42
436.88	1669.09
437.08	1740.77
437.29	1882.08
437.49	1705.96
437.70	1695.72
437.90	1705.96
438.11	1820.64
438.31	1808.36
438.52	1834.98
438.72	1861.60
438.93	1939.43
439.13	1765.35
439.34	1796.07
439.54	1697.77
439.75	1810.40
439.95	1773.54
440.16	1732.58
440.36	1646.57
440.57	1753.06
440.77	1777.64
440.98	1746.92
441.18	1714.15
441.39	1685.48
441.59	1642.47
441.80	1814.50
442.00	1689.57
442.21	1771.49
442.41	1652.71
442.62	1679.33
442.82	1748.97
443.02	1738.73
443.23	1759.21
443.43	1779.68
443.64	1818.60
443.84	1677.29
444.05	1837.03
444.25	1687.53
444.46	1689.57
444.66	1746.92
444.87	1818.60
445.07	1669.09
445.28	1773.54
445.48	1839.08
445.69	1767.40
445.89	1920.99
446.09	1724.39
446.30	2047.97
446.50	2645.98
446.71	3768.26
446.91	4292.54
447.12	4863.93
447.32	4884.41
447.53	4444.09
447.73	3882.95
447.93	3438.54
448.14	3352.52
448.34	3164.11
448.55	2901.97
448.75	2768.85
448.96	2799.57
449.16	2461.66
449.36	2236.38
449.57	2019.30
449.77	1859.56
449.98	1796.07
450.18	1785.83
450.39	1822.69
450.59	1804.26
450.79	1791.97
451.00	1724.39
451.20	1794.02
451.41	1669.09
451.61	1751.01
451.81	1718.25
452.02	1699.81
452.22	1626.09
452.43	1742.82
452.63	1705.96
452.84	1701.86
453.04	1751.01
453.24	1736.68
453.45	1701.86
453.65	1748.97
453.86	1820.64
454.06	1689.57
454.26	1703.91
454.47	1712.10
454.67	1779.68
454.87	1787.88
455.08	1742.82
455.28	1781.73
455.49	1703.91
455.69	1673.19
455.89	1787.88
456.10	1757.16
456.30	1658.85
456.51	1769.44
456.71	1763.30
456.91	1720.29
457.12	1814.50
457.32	1736.68
457.52	1714.15
457.73	1748.97
457.93	1683.43
458.14	1712.10
458.34	1636.33
458.54	1714.15
458.75	1734.63
458.95	1757.16
459.15	1753.06
459.36	1771.49
459.56	1800.16
459.76	1867.75
459.97	1759.21
460.17	1751.01
460.37	1759.21
460.58	1646.57
460.78	1779.68
460.99	1669.09
461.19	1777.64
461.39	1755.11
461.60	1708.01
461.80	1787.88
462.00	1722.34
462.21	1671.14
462.41	1703.91
462.61	1708.01
462.82	1615.85
463.02	1771.49
463.22	1703.91
463.43	1779.68
463.63	1689.57
463.83	1794.02
464.04	1800.16
464.24	1744.87
464.44	1656.81
464.64	1691.62
464.85	1730.53
465.05	1779.68
465.25	1732.58
465.46	1662.95
465.66	1794.02
465.86	1742.82
466.07	1746.92
466.27	1708.01
466.47	1724.39
466.68	1644.52
466.88	1779.68
467.08	1757.16
467.29	1755.11
467.49	1777.64
467.69	1712.10
467.89	1722.34
468.10	1736.68
468.30	1734.63
468.50	1736.68
468.71	1644.52
468.91	1595.37
469.11	1810.40
469.31	1738.73
469.52	1689.57
469.72	1732.58
469.92	1849.32
470.13	1724.39
470.33	1804.26
470.53	1808.36
470.73	2131.94
470.94	2314.20
471.14	2320.35
471.34	2570.20
471.54	2437.08
471.75	2256.86
471.95	2160.61
472.15	2062.30
472.36	2111.46
472.56	2025.44
472.76	2029.54
472.96	1998.82
473.17	1968.10
473.37	1832.93
473.57	1769.44
473.77	1783.78
473.98	1755.11
474.18	1683.43
474.38	1877.99
474.58	1677.29
474.79	1662.95
474.99	1779.68
475.19	1794.02
475.39	1710.05
475.60	1744.87
475.80	1724.39
476.00	1652.71
476.20	1695.72
476.41	1648.61
476.61	1748.97
476.81	1800.16
477.01	1595.37
477.21	1837.03
477.42	1757.16
477.62	1691.62
477.82	1701.86
478.02	1732.58
478.23	1669.09
478.43	1777.64
478.63	1740.77
478.83	1783.78
479.03	1679.33
479.24	1728.49
479.44	1869.80
479.64	1654.76
479.84	1605.61
480.04	1662.95
480.25	1751.01
480.45	1761.25
480.65	1656.81
480.85	1806.31
481.06	1679.33
481.26	1689.57
481.46	1712.10
481.66	1763.30
481.86	1708.01
482.06	1728.49
482.27	1708.01
482.47	1665.00
482.67	1808.36
482.87	1660.90
483.07	1789.92
483.28	1693.67
483.48	1630.18
483.68	1701.86
483.88	1652.71
484.08	1513.45
484.29	1724.39
484.49	1701.86
484.69	1593.32
484.89	1701.86
485.09	1796.07
485.29	1681.38
485.50	1730.53
485.70	1710.05
485.90	1814.50
486.10	1763.30
486.30	1732.58
486.50	1814.50
486.71	1734.63
486.91	1851.36
487.11	1834.98
487.31	1636.33
487.51	1738.73
487.71	1671.14
487.91	1693.67
488.12	1658.85
488.32	1601.51
488.52	1626.09
488.72	1628.14
488.92	1789.92
489.12	1773.54
489.32	1818.60
489.53	1722.34
489.73	1591.27
489.93	1855.46
490.13	1632.23
490.33	1638.38
490.53	1714.15
490.73	1789.92
490.94	1683.43
491.14	1779.68
491.34	1810.40
491.54	2179.04
491.74	2592.73
491.94	2912.21
492.14	2957.27
492.34	2877.40
492.54	2762.71
492.75	2461.66
492.95	2408.41
493.15	2361.31
493.35	2211.81
493.55	2174.94
493.75	2164.70
493.95	2060.26
494.15	2064.35
494.35	1955.81
494.56	1814.50
494.76	1769.44
494.96	1771.49
495.16	1705.96
495.36	1728.49
495.56	1716.20
495.76	1753.06
495.96	1736.68
496.16	1665.00
496.36	1976.29
496.56	1783.78
496.77	1769.44
496.97	1697.77
497.17	1863.65
497.37	1681.38
497.57	1722.34
497.77	1642.47
497.97	1624.04
498.17	1724.39
498.37	1705.96
498.57	1796.07
498.77	1671.14
498.97	1765.35
499.17	1830.88
499.38	1740.77
499.58	1822.69
499.78	1757.16
499.98	1839.08
500.18	1660.90
500.38	1697.77
500.58	1910.75
500.78	2533.34
500.98	4396.99
501.18	5867.43
501.38	6836.12
501.58	7241.62
501.78	6746.01
501.98	5599.15
502.18	5033.91
502.38	4403.13
502.58	4261.82
502.78	3848.13
502.98	3698.63
503.18	3526.60
503.38	3205.07
503.59	2908.12
503.79	2645.98
503.99	2494.43
504.19	2373.60
504.39	2236.38
504.59	2095.07
504.79	2086.88
504.99	2033.63
505.19	1894.37
505.39	1865.70
505.59	1941.47
505.79	1847.27
505.99	1853.41
506.19	1820.64
506.39	1828.84
506.59	1773.54
506.79	1669.09
506.99	1746.92
507.19	1781.73
507.39	1824.74
507.59	1738.73
507.79	1695.72
507.99	1662.95
508.19	1765.35
508.39	1714.15
508.59	1687.53
508.79	1761.25
508.99	1810.40
509.19	1734.63
509.39	1779.68
509.59	1804.26
509.79	1734.63
509.99	1710.05
510.19	1781.73
510.39	1789.92
510.59	1720.29
510.79	1689.57
510.99	1699.81
511.19	1705.96
511.39	1769.44
511.59	1765.35
511.79	1779.68
511.99	1734.63
512.19	1794.02
512.38	1714.15
512.58	1787.88
512.78	1759.21
512.98	1841.12
513.18	1830.88
513.38	1585.13
513.58	1720.29
513.78	1761.25
513.98	1734.63
514.18	1662.95
514.38	1699.81
514.58	1724.39
514.78	1640.42
514.98	1654.76
515.18	1757.16
515.38	1708.01
515.58	1859.56
515.78	1779.68
515.98	1791.97
516.18	1746.92
516.38	1748.97
516.57	1748.97
516.77	1681.38
516.97	1738.73
517.17	1658.85
517.37	1572.84
517.57	1837.03
517.77	1603.56
517.97	1718.25
518.17	1738.73
518.37	1628.14
518.57	1701.86
518.77	1767.40
518.97	1714.15
519.16	1773.54
519.36	1834.98
519.56	1751.01
519.76	1759.21
519.96	1732.58
520.16	1802.21
520.36	1751.01
520.56	1816.55
520.76	1650.66
520.96	1701.86
521.16	1867.75
521.35	1832.93
521.55	1757.16
521.75	1775.59
521.95	1757.16
522.15	1759.21
522.35	1650.66
522.55	1699.81
522.75	1804.26
522.95	1738.73
523.14	1708.01
523.34	1697.77
523.54	1734.63
523.74	1845.22
523.94	1767.40
524.14	1730.53
524.34	1800.16
524.54	1828.84
524.73	1726.44
524.93	1777.64
525.13	1738.73
525.33	1685.48
525.53	1839.08
525.73	1794.02
525.93	1718.25
526.13	1673.19
526.32	1708.01
526.52	1800.16
526.72	1837.03
526.92	1746.92
527.12	1767.40
527.32	1652.71
527.52	1703.91
527.71	1834.98
527.91	1765.35
528.11	1673.19
528.31	1722.34
528.51	1677.29
528.71	1783.78
528.90	1777.64
529.10	1699.81
529.30	1818.60
529.50	1621.99
529.70	1738.73
529.90	1716.20
530.09	1705.96
530.29	1646.57
530.49	1630.18
530.69	1902.56
530.89	1722.34
531.09	1712.10
531.28	1697.77
531.48	1742.82
531.68	1675.24
531.88	1769.44
532.08	1800.16
532.28	1609.70
532.47	1779.68
532.67	1742.82
532.87	1722.34
533.07	1724.39
533.27	1783.78
533.46	1742.82
533.66	1761.25
533.86	1781.73
534.06	1703.91
534.26	1763.30
534.45	1662.95
534.65	1751.01
534.85	1779.68
535.05	1740.77
535.25	1777.64
535.44	1708.01
535.64	1804.26
535.84	1757.16
536.04	1761.25
536.24	1759.21
536.43	1746.92
536.63	1812.45
536.83	1703.91
537.03	1720.29
537.22	1619.94
537.42	1705.96
537.62	1755.11
537.82	1703.91
538.02	1861.60
538.21	1822.69
538.41	1927.14
538.61	1763.30
538.81	1665.00
539.00	1789.92
539.20	1681.38
539.40	1699.81
539.60	1832.93
539.79	1771.49
539.99	1705.96
540.19	1726.44
540.39	1783.78
540.58	1789.92
540.78	1771.49
540.98	1785.83
541.18	1755.11
541.37	1785.83
541.57	1753.06
541.77	1734.63
541.97	1648.61
542.16	1656.81
542.36	1716.20
542.56	1742.82
542.76	1865.70
542.95	1685.48
543.15	1734.63
543.35	1753.06
543.54	1705.96
543.74	1722.34
543.94	1851.36
544.14	1705.96
544.33	1740.77
544.53	1693.67
544.73	1689.57
544.93	1689.57
545.12	1720.29
545.32	1701.86
545.52	1697.77
545.71	1626.09
545.91	1681.38
546.11	1787.88
546.30	1728.49
546.50	1804.26
546.70	1763.30
546.90	1746.92
547.09	1609.70
547.29	1687.53
547.49	1781.73
547.68	1691.62
547.88	1669.09
548.08	1691.62
548.27	2197.47
548.47	1689.57
548.67	1693.67
548.87	1716.20
549.06	1681.38
549.26	1746.92
549.46	1646.57
549.65	1724.39
549.85	1853.41
550.05	1814.50
550.24	1665.00
550.44	1734.63
550.64	1759.21
550.83	1738.73
551.03	1810.40
551.23	1732.58
551.42	1812.45
551.62	1742.82
551.82	1734.63
552.01	1806.31
552.21	1816.55
552.41	1669.09
552.60	1798.12
552.80	1669.09
553.00	1660.90
553.19	1798.12
553.39	1787.88
553.59	1650.66
553.78	1757.16
553.98	1804.26
554.17	1607.66
554.37	1699.81
554.57	1828.84
554.76	1669.09
554.96	1796.07
555.16	1757.16
555.35	1656.81
555.55	1763.30
555.75	1783.78
555.94	1753.06
556.14	1689.57
556.33	1738.73
556.53	1710.05
556.73	1744.87
556.92	1753.06
557.12	1847.27
557.32	1869.80
557.51	1914.85
557.71	1785.83
557.90	1877.99
558.10	1826.79
558.30	1728.49
558.49	1675.24
558.69	1720.29
558.88	1761.25
559.08	1785.83
559.28	1640.42
559.47	1751.01
559.67	1812.45
559.86	1877.99
560.06	1775.59
560.26	1753.06
560.45	1767.40
560.65	1765.35
560.84	1732.58
561.04	1736.68
561.24	1773.54
561.43	1675.24
561.63	1830.88
561.82	1759.21
562.02	1701.86
562.22	1665.00
562.41	1630.18
562.61	1708.01
562.80	1695.72
563.00	1880.04
563.19	1767.40
563.39	1767.40
563.59	1787.88
563.78	1636.33
563.98	1603.56
564.17	1722.34
564.37	1681.38
564.56	1798.12
564.76	1691.62
564.96	1867.75
565.15	1722.34
565.35	1886.18
565.54	1714.15
565.74	1736.68
565.93	1808.36
566.13	1746.92
566.32	1769.44
566.52	1761.25
566.71	1708.01
566.91	1746.92
567.11	1742.82
567.30	1667.05
567.50	1822.69
567.69	1701.86
567.89	1722.34
568.08	1669.09
568.28	1806.31
568.47	1675.24
568.67	1730.53
568.86	1730.53
569.06	1748.97
569.25	1720.29
569.45	1697.77
569.64	1710.05
569.84	1767.40
570.04	1742.82
570.23	1675.24
570.43	1730.53
570.62	1732.58
570.82	1902.56
571.01	1687.53
571.21	1738.73
571.40	1630.18
571.60	1724.39
571.79	1806.31
571.99	1824.74
572.18	1681.38
572.38	1763.30
572.57	1724.39
572.77	1736.68
572.96	1863.65
573.16	1824.74
573.35	1728.49
573.55	1800.16
573.74	1775.59
573.94	1712.10
574.13	1634.28
574.33	1804.26
574.52	1779.68
574.71	1773.54
574.91	1763.30
575.10	1665.00
575.30	1734.63
575.49	1740.77
575.69	1689.57
575.88	1714.15
576.08	1746.92
576.27	1779.68
576.47	1744.87
576.66	1869.80
576.86	1802.21
577.05	1753.06
577.25	1748.97
577.44	1853.41
577.64	1693.67
577.83	1789.92
578.02	1748.97
578.22	1814.50
578.41	1808.36
578.61	1685.48
578.80	1644.52
579.00	1826.79
579.19	1665.00
579.39	1767.40
579.58	1773.54
579.77	1779.68
579.97	1814.50
580.16	1816.55
580.36	1775.59
580.55	1820.64
580.75	1837.03
580.94	1755.11
581.13	1888.23
581.33	1828.84
581.52	1732.58
581.72	1847.27
581.91	1832.93
582.11	1667.05
582.30	1746.92
582.49	1763.30
582.69	1877.99
582.88	1791.97
583.08	1748.97
583.27	1802.21
583.47	1665.00
583.66	1691.62
583.85	1714.15
584.05	1734.63
584.24	1804.26
584.44	1794.02
584.63	1796.07
584.82	1820.64
585.02	1785.83
585.21	1837.03
585.41	1738.73
585.60	1869.80
585.79	1953.76
585.99	1863.65
586.18	1857.51
586.37	2176.99
586.57	3358.67
586.76	9965.42
586.96	24448.65
587.15	34799.08
587.34	40965.52
587.54	42605.94
587.73	36941.26
587.93	26687.08
588.12	21810.87
588.31	18435.81
588.51	16578.31
588.70	15333.14
588.89	14184.23
589.09	12863.29
589.28	11218.77
589.47	9539.44
589.67	8118.15
589.86	6530.97
590.06	5085.11
590.25	4022.21
590.44	3133.39
590.64	2557.91
590.83	2252.77
591.02	2101.22
591.22	1877.99
591.41	1970.15
591.60	1869.80
591.80	1818.60
591.99	1712.10
592.18	1841.12
592.38	1910.75
592.57	1699.81
592.76	1736.68
592.96	1740.77
593.15	1757.16
593.34	1808.36
593.54	1767.40
593.73	1785.83
593.92	1824.74
594.12	1800.16
594.31	1800.16
594.50	1804.26
594.70	1810.40
594.89	1904.61
595.08	1630.18
595.28	1761.25
595.47	1951.71
595.66	1755.11
595.86	1697.77
596.05	1679.33
596.24	1656.81
596.43	1767.40
596.63	1869.80
596.82	1675.24
597.01	1685.48
597.21	1820.64
597.40	1748.97
597.59	1796.07
597.79	1796.07
597.98	1789.92
598.17	1736.68
598.36	1718.25
598.56	1845.22
598.75	1691.62
598.94	1794.02
599.14	1830.88
599.33	1681.38
599.52	1730.53
599.71	1812.45
599.91	1744.87
600.10	1626.09
600.29	1796.07
600.48	1824.74
600.68	1701.86
600.87	1783.78
601.06	1746.92
601.26	1738.73
601.45	1746.92
601.64	1728.49
601.83	1800.16
602.03	1783.78
602.22	1669.09
602.41	1804.26
602.60	1904.61
602.80	1808.36
602.99	1730.53
603.18	1748.97
603.37	1728.49
603.57	1736.68
603.76	1767.40
603.95	1765.35
604.14	1736.68
604.34	1699.81
604.53	1714.15
604.72	1759.21
604.91	1779.68
605.10	1771.49
605.30	1638.38
605.49	1810.40
605.68	1738.73
605.87	1832.93
606.07	1716.20
606.26	1732.58
606.45	1771.49
606.64	1759.21
606.84	1738.73
607.03	1679.33
607.22	1748.97
607.41	1722.34
607.60	1669.09
607.80	1802.21
607.99	1728.49
608.18	1736.68
608.37	1697.77
608.56	1701.86
608.76	1794.02
608.95	1816.55
609.14	1722.34
609.33	1798.12
609.52	1771.49
609.72	1701.86
609.91	1791.97
610.10	1722.34
610.29	1830.88
610.48	1730.53
610.68	1828.84
610.87	1681.38
611.06	1722.34
611.25	1765.35
611.44	1839.08
611.63	1705.96
611.83	1802.21
612.02	1554.41
612.21	1759.21
612.40	1642.47
612.59	1699.81
612.79	1624.04
612.98	1759.21
613.17	1777.64
613.36	1732.58
613.55	1871.84
613.74	1714.15
613.93	1748.97
614.13	1755.11
614.32	1789.92
614.51	1810.40
614.70	1710.05
614.89	1681.38
615.08	1775.59
615.28	2090.98
615.47	1656.81
615.66	1757.16
615.85	1636.33
616.04	1861.60
616.23	1630.18
616.42	1722.34
616.62	1738.73
616.81	1757.16
617.00	1742.82
617.19	1794.02
617.38	1673.19
617.57	1685.48
617.76	1787.88
617.95	1763.30
618.15	1789.92
618.34	1851.36
618.53	1648.61
618.72	1773.54
618.91	1802.21
619.10	1886.18
619.29	1773.54
619.48	1755.11
619.68	1658.85
619.87	1689.57
620.06	1636.33
620.25	1746.92
620.44	1740.77
620.63	1642.47
620.82	1744.87
621.01	1724.39
621.20	1646.57
621.39	1728.49
621.59	1775.59
621.78	1675.24
621.97	1687.53
622.16	1759.21
622.35	1800.16
622.54	1740.77
622.73	1734.63
622.92	1669.09
623.11	1800.16
623.30	1738.73
623.49	1726.44
623.68	1662.95
623.88	1787.88
624.07	1665.00
624.26	1769.44
624.45	1662.95
624.64	1765.35
624.83	1763.30
625.02	1697.77
625.21	1710.05
625.40	1665.00
625.59	1789.92
625.78	1697.77
625.97	1763.30
626.16	1753.06
626.35	1783.78
626.54	1716.20
626.74	1816.55
626.93	1660.90
627.12	1665.00
627.31	1660.90
627.50	1701.86
627.69	1794.02
627.88	1656.81
628.07	1716.20
628.26	1665.00
628.45	1636.33
628.64	1691.62
628.83	1718.25
629.02	1632.23
629.21	1687.53
629.40	1736.68
629.59	1630.18
629.78	1718.25
629.97	1740.77
630.16	1683.43
630.35	1662.95
630.54	1685.48
630.73	1648.61
630.92	1636.33
631.11	1636.33
631.30	1703.91
631.49	1732.58
631.68	1701.86
631.87	1619.94
632.06	1578.98
632.25	1796.07
632.44	1705.96
632.63	1683.43
632.82	1638.38
633.01	1708.01
633.20	1701.86
633.39	1636.33
633.58	1677.29
633.77	1753.06
633.96	1683.43
634.15	1658.85
634.34	1785.83
634.53	1742.82
634.72	1693.67
634.91	1728.49
635.10	1736.68
635.29	1689.57
635.48	1755.11
635.67	1646.57
635.86	1607.66
636.05	1798.12
636.24	1757.16
636.43	1662.95
636.62	1787.88
636.81	1599.46
637.00	1722.34
637.19	1683.43
637.38	1687.53
637.57	1714.15
637.76	1736.68
637.95	1642.47
638.14	1757.16
638.33	1789.92
638.52	1742.82
638.71	1507.30
638.89	1638.38
639.08	1859.56
639.27	1757.16
639.46	1650.66
639.65	1796.07
639.84	1675.24
640.03	1771.49
640.22	1728.49
640.41	1855.46
640.60	1681.38
640.79	1658.85
640.98	1730.53
641.17	1775.59
641.36	1705.96
641.55	1730.53
641.74	1742.82
641.92	1640.42
642.11	1599.46
642.30	1665.00
642.49	1718.25
642.68	1665.00
642.87	1693.67
643.06	1728.49
643.25	1691.62
643.44	1708.01
643.63	1755.11
643.82	1742.82
644.00	1654.76
644.19	1744.87
644.38	1660.90
644.57	1763.30
644.76	1705.96
644.95	1746.92
645.14	1736.68
645.33	1634.28
645.52	1712.10
645.71	1615.85
645.89	1720.29
646.08	1656.81
646.27	1654.76
646.46	1791.97
646.65	1540.07
646.84	1685.48
647.03	1632.23
647.22	1726.44
647.40	1748.97
647.59	1748.97
647.78	1603.56
647.97	1673.19
648.16	1710.05
648.35	1798.12
648.54	1834.98
648.73	1677.29
648.91	1740.77
649.10	1765.35
649.29	1710.05
649.48	1753.06
649.67	1806.31
649.86	1693.67
650.05	1642.47
650.23	1800.16
650.42	1685.48
650.61	1728.49
650.80	1712.10
650.99	1830.88
651.18	1722.34
651.36	1697.77
651.55	1718.25
651.74	1841.12
651.93	1695.72
652.12	1722.34
652.31	1726.44
652.49	1716.20
652.68	1712.10
652.87	1675.24
653.06	1648.61
653.25	1781.73
653.44	1726.44
653.62	1742.82
653.81	1708.01
654.00	1687.53
654.19	1679.33
654.38	1851.36
654.56	1695.72
654.75	1728.49
654.94	1757.16
655.13	1734.63
655.32	1675.24
655.51	1738.73
655.69	1738.73
655.88	1746.92
656.07	1621.99
656.26	1761.25
656.45	1660.90
656.63	1705.96
656.82	1753.06
657.01	1820.64
657.20	1673.19
657.38	1794.02
657.57	1644.52
657.76	1621.99
657.95	1734.63
658.14	1632.23
658.32	1728.49
658.51	1685.48
658.70	1669.09
658.89	1718.25
659.08	1691.62
659.26	1855.46
659.45	1660.90
659.64	1738.73
659.83	1685.48
660.01	1912.80
660.20	1787.88
660.39	1775.59
660.58	1648.61
660.76	1775.59
660.95	1626.09
661.14	1755.11
661.33	1716.20
661.51	1705.96
661.70	1779.68
661.89	1763.30
662.08	1644.52
662.26	1671.14
662.45	1667.05
662.64	1820.64
662.83	1824.74
663.01	1667.05
663.20	1654.76
663.39	1822.69
663.58	1705.96
663.76	1744.87
663.95	1693.67
664.14	1624.04
664.32	1722.34
664.51	1677.29
664.70	1650.66
664.89	1722.34
665.07	1628.14
665.26	1736.68
665.45	1566.70
665.64	1759.21
665.82	1705.96
666.01	1753.06
666.20	1699.81
666.38	1826.79
666.57	1736.68
666.76	2117.60
666.95	4444.09
667.13	10430.30
667.32	15111.96
667.51	18130.67
667.69	19232.47
667.88	17802.99
668.07	12498.75
668.25	9596.78
668.44	8054.66
668.63	7487.37
668.81	6834.07
669.00	6326.18
669.19	5791.66
669.38	5068.72
669.56	4661.18
669.75	4038.59
669.94	3442.64
670.12	2756.57
670.31	2615.26
670.50	2201.57
670.68	2064.35
670.87	1910.75
671.06	1826.79
671.24	1734.63
671.43	1834.98
671.62	1742.82
671.80	1695.72
671.99	1746.92
672.18	1751.01
672.36	1759.21
672.55	1714.15
672.74	1796.07
672.92	1710.05
673.11	1765.35
673.29	1656.81
673.48	1718.25
673.67	1724.39
673.85	1800.16
674.04	1697.77
674.23	1773.54
674.41	1800.16
674.60	1695.72
674.79	1656.81
674.97	1714.15
675.16	1720.29
675.34	1779.68
675.53	1699.81
675.72	1724.39
675.90	1791.97
676.09	1693.67
676.28	1708.01
676.46	1566.70
676.65	1742.82
676.83	1656.81
677.02	1742.82
677.21	1753.06
677.39	1744.87
677.58	1648.61
677.77	1646.57
677.95	1734.63
678.14	1677.29
678.32	1720.29
678.51	1591.27
678.70	1781.73
678.88	1644.52
679.07	1691.62
679.25	1738.73
679.44	1738.73
679.63	1644.52
679.81	1736.68
680.00	1730.53
680.18	1742.82
680.37	1800.16
680.55	1771.49
680.74	1585.13
680.93	1517.54
681.11	1767.40
681.30	1669.09
681.48	1732.58
681.67	1599.46
681.85	1734.63
682.04	1716.20
682.23	1732.58
682.41	1720.29
682.60	1689.57
682.78	1621.99
682.97	1677.29
683.15	1705.96
683.34	1695.72
683.53	1708.01
683.71	1581.03
683.90	1744.87
684.08	1746.92
684.27	1685.48
684.45	1679.33
684.64	1812.45
684.82	1658.85
685.01	1695.72
685.19	1701.86
685.38	1816.55
685.57	1669.09
685.75	1675.24
685.94	1724.39
686.12	1669.09
686.31	1671.14
686.49	1765.35
686.68	1621.99
686.86	1673.19
687.05	1652.71
687.23	1734.63
687.42	1687.53
687.60	1570.79
687.79	1744.87
687.97	1812.45
688.16	1757.16
688.34	1775.59
688.53	1599.46
688.71	1718.25
688.90	1691.62
689.08	1617.90
689.27	1640.42
689.45	1712.10
689.64	1703.91
689.82	1732.58
690.01	1660.90
690.19	1716.20
690.38	1681.38
690.56	1720.29
690.75	1578.98
690.93	1695.72
691.12	1681.38
691.30	1626.09
691.49	1722.34
691.67	1722.34
691.86	1832.93
692.04	1718.25
692.23	1681.38
692.41	1675.24
692.60	1849.32
692.78	1759.21
692.97	1710.05
693.15	1679.33
693.34	1751.01
693.52	1769.44
693.71	1673.19
693.89	1669.09
694.08	1607.66
694.26	1748.97
694.44	1708.01
694.63	1712.10
694.81	1675.24
695.00	1734.63
695.18	1748.97
695.37	1812.45
695.55	1703.91
695.74	1724.39
695.92	1677.29
696.10	1740.77
696.29	1632.23
696.47	1675.24
696.66	1689.57
696.84	1693.67
697.03	1626.09
697.21	1767.40
697.40	2295.77
697.58	1794.02
697.76	1615.85
697.95	1615.85
698.13	1640.42
698.32	1671.14
698.50	1722.34
698.68	1683.43
698.87	1763.30
699.05	1761.25
699.24	1642.47
699.42	1671.14
699.61	1744.87
699.79	1675.24
699.97	1773.54
700.16	1624.04
700.34	1691.62
700.53	1689.57
700.71	1781.73
700.89	1837.03
701.08	1683.43
701.26	1714.15
701.45	2107.36
701.63	1669.09
701.81	1687.53
702.00	1642.47
702.18	1775.59
702.37	1679.33
702.55	1746.92
702.73	1677.29
702.92	1665.00
703.10	1699.81
703.28	1691.62
703.47	1667.05
703.65	1787.88
703.84	1767.40
704.02	1718.25
704.20	1759.21
704.39	1660.90
704.57	1624.04
704.75	1722.34
704.94	1755.11
705.12	1755.11
705.30	1830.88
705.49	2217.95
705.67	4378.56
705.86	9494.38
706.04	12562.24
706.22	14444.32
706.41	15312.66
706.59	14047.02
706.77	9801.58
706.96	7397.26
707.14	6510.49
707.32	6010.79
707.51	5621.67
707.69	4941.75
707.87	4292.54
708.06	3512.27
708.24	2951.12
708.42	2435.03
708.61	2236.38
708.79	1947.62
708.97	1884.13
709.16	1730.53
709.34	1701.86
709.52	1656.81
709.71	1708.01
709.89	1697.77
710.07	1703.91
710.26	1652.71
710.44	1697.77
710.62	1736.68
710.80	1767.40
710.99	1742.82
711.17	1755.11
711.35	1699.81
711.54	1742.82
711.72	1740.77
711.90	1654.76
712.09	1681.38
712.27	1677.29
712.45	1728.49
712.63	1640.42
712.82	1744.87
713.00	1742.82
713.18	1685.48
713.37	1740.77
713.55	1693.67
713.73	1724.39
713.91	1787.88
714.10	1718.25
714.28	1673.19
714.46	1738.73
714.65	1746.92
714.83	1701.86
715.01	1763.30
715.19	1767.40
715.38	1658.85
715.56	1671.14
715.74	1662.95
715.92	1679.33
716.11	1787.88
716.29	1621.99
716.47	1624.04
716.65	1689.57
716.84	1558.50
717.02	1769.44
717.20	1560.55
717.38	1683.43
717.57	1675.24
717.75	1720.29
717.93	1642.47
718.11	1697.77
718.30	1667.05
718.48	1662.95
718.66	1648.61
718.84	1757.16
719.03	1679.33
719.21	1628.14
719.39	1812.45
719.57	1746.92
719.75	1744.87
719.94	1654.76
720.12	1718.25
720.30	1740.77
720.48	1767.40
720.67	1628.14
720.85	1609.70
721.03	1654.76
721.21	1683.43
721.39	1701.86
721.58	1710.05
721.76	1642.47
721.94	1646.57
722.12	1742.82
722.30	1740.77
722.49	1697.77
722.67	1693.67
722.85	1673.19
723.03	1628.14
723.21	1667.05
723.40	1699.81
723.58	1765.35
723.76	1691.62
723.94	1738.73
724.12	1748.97
724.30	1822.69
724.49	1746.92
724.67	1564.65
724.85	1779.68
725.03	1587.18
725.21	1781.73
725.40	1787.88
725.58	1744.87
725.76	1728.49
725.94	1806.31
726.12	1585.13
726.30	1609.70
726.49	1740.77
726.67	1632.23
726.85	1689.57
727.03	1771.49
727.21	2078.69
727.39	2985.94
727.57	3778.50
727.76	4046.79
727.94	4433.85
728.12	4386.75
728.30	3633.10
728.48	2975.70
728.66	2805.72
728.84	2613.21
729.03	2297.82
729.21	2166.75
729.39	1961.95
729.57	1839.08
729.75	1775.59
729.93	1822.69
730.11	1751.01
730.30	1646.57
730.48	1648.61
730.66	1777.64
730.84	1769.44
731.02	1738.73
731.20	1701.86
731.38	1648.61
731.56	1705.96
731.74	1689.57
731.93	1759.21
732.11	1738.73
732.29	1646.57
732.47	1691.62
732.65	1730.53
732.83	1773.54
733.01	1832.93
733.19	1675.24
733.37	1732.58
733.56	1708.01
733.74	1673.19
733.92	1734.63
734.10	1673.19
734.28	1785.83
734.46	1525.74
734.64	1621.99
734.82	1705.96
735.00	1697.77
735.18	1644.52
735.36	1679.33
735.54	1624.04
735.73	1697.77
735.91	1822.69
736.09	1705.96
736.27	1634.28
736.45	1773.54
736.63	1656.81
736.81	1740.77
736.99	1753.06
737.17	1746.92
737.35	1652.71
737.53	1716.20
737.71	1705.96
737.89	1775.59
738.07	1669.09
738.25	1650.66
738.43	1656.81
738.61	1640.42
738.80	1556.46
738.98	1650.66
739.16	1691.62
739.34	1560.55
739.52	1775.59
739.70	1632.23
739.88	1714.15
740.06	1794.02
740.24	1601.51
740.42	1753.06
740.60	1705.96
740.78	1628.14
740.96	1675.24
741.14	1679.33
741.32	1695.72
741.50	1636.33
741.68	1873.89
741.86	1826.79
742.04	1660.90
742.22	1699.81
742.40	1705.96
742.58	1615.85
742.76	1660.90
742.94	1689.57
743.12	1587.18
743.30	1712.10
743.48	1714.15
743.66	1673.19
743.84	1716.20
744.02	1744.87
744.20	1673.19
744.38	1720.29
744.56	1665.00
744.74	1849.32
744.92	1718.25
745.10	1804.26
745.28	1787.88
745.46	1736.68
745.64	1658.85
745.82	1779.68
746.00	1619.94
746.18	1728.49
746.36	1689.57
746.54	1691.62
746.72	1660.90
746.90	1671.14
747.08	1734.63
747.26	1695.72
747.44	1673.19
747.62	1638.38
747.80	1744.87
747.98	1783.78
748.15	1720.29
748.33	1816.55
748.51	1658.85
748.69	1751.01
748.87	1724.39
749.05	1730.53
749.23	1720.29
749.41	1718.25
749.59	1742.82
749.77	1683.43
749.95	1728.49
750.13	1642.47
750.31	1654.76
750.49	1660.90
750.67	1701.86
750.85	1771.49
751.03	1759.21
751.20	1832.93
751.38	1665.00
751.56	1656.81
751.74	1710.05
751.92	1662.95
752.10	1607.66
752.28	1701.86
752.46	1759.21
752.64	1660.90
752.82	1710.05
753.00	1679.33
753.18	1611.75
753.35	1621.99
753.53	1677.29
753.71	1652.71
753.89	1837.03
754.07	1652.71
754.25	1746.92
754.43	1744.87
754.61	1581.03
754.79	1693.67
754.97	1693.67
755.14	1722.34
755.32	1626.09
755.50	1755.11
755.68	1673.19
755.86	1679.33
756.04	1648.61
756.22	1650.66
756.40	1720.29
756.57	1751.01
756.75	1765.35
756.93	1675.24
757.11	1767.40
757.29	1615.85
757.47	1621.99
757.65	1605.61
757.82	1597.42
758.00	1683.43
758.18	1630.18
758.36	1595.37
758.54	1755.11
758.72	1646.57
758.90	1744.87
759.07	1703.91
759.25	1615.85
759.43	1740.77
759.61	1632.23
759.79	2283.49
759.97	1708.01
760.15	1613.80
760.32	1660.90
760.50	1722.34
760.68	1734.63
760.86	1665.00
761.04	1804.26
761.22	1748.97
761.39	1708.01
761.57	1632.23
761.75	1671.14
761.93	1683.43
762.11	1669.09
762.28	1658.85
762.46	1667.05
762.64	1728.49
762.82	1628.14
763.00	1685.48
763.18	1791.97
763.35	1632.23
763.53	1732.58
763.71	1689.57
763.89	1740.77
764.07	1718.25
764.24	1701.86
764.42	1757.16
764.60	1683.43
764.78	1677.29
764.96	1716.20
765.13	1773.54
765.31	1751.01
765.49	1759.21
765.67	1621.99
765.84	1660.90
766.02	1574.89
766.20	1640.42
766.38	1650.66
766.56	1738.73
766.73	1759.21
766.91	1652.71
767.09	1732.58
767.27	1734.63
767.44	1646.57
767.62	1738.73
767.80	1675.24
767.98	1681.38
768.15	1675.24
768.33	1820.64
768.51	1771.49
768.69	1763.30
768.87	1732.58
769.04	1730.53
769.22	1818.60
769.40	1751.01
769.58	1910.75
769.75	1755.11
769.93	1753.06
770.11	1726.44
770.28	1730.53
770.46	1650.66
770.64	1681.38
770.82	1660.90
770.99	1714.15
771.17	1718.25
771.35	1615.85
771.53	1646.57
771.70	1726.44
771.88	1630.18
772.06	1683.43
772.23	1722.34
772.41	1767.40
772.59	1683.43
772.77	1787.88
772.94	1681.38
773.12	1757.16
773.30	1689.57
773.47	1703.91
773.65	1654.76
773.83	1822.69
774.01	1687.53
774.18	1662.95
774.36	1732.58
774.54	1660.90
774.71	1701.86
774.89	1621.99
775.07	1568.74
775.24	1693.67
775.42	1660.90
775.60	1834.98
775.78	1611.75
775.95	1667.05
776.13	1603.56
776.31	1533.93
776.48	1726.44
776.66	1779.68
776.84	1748.97
777.01	1624.04
777.19	1652.71
777.37	1703.91
777.54	1734.63
777.72	1781.73
777.90	1665.00
778.07	1650.66
778.25	1830.88
778.43	1791.97
778.60	1656.81
778.78	1783.78
778.96	1751.01
779.13	1644.52
779.31	1656.81
779.49	1708.01
779.66	1712.10
779.84	1689.57
780.01	1624.04
780.19	1681.38
780.37	1791.97
780.54	1669.09
780.72	1640.42
780.90	1738.73
781.07	1775.59
781.25	1652.71
781.43	1742.82
781.60	1738.73
781.78	1755.11
781.95	1726.44
782.13	1708.01
782.31	1753.06
782.48	1687.53
782.66	1710.05
782.83	1812.45
783.01	1695.72
783.19	1773.54
783.36	1724.39
783.54	1568.74
783.72	1796.07
783.89	1699.81
784.07	1665.00
784.24	1796.07
784.42	1861.60
784.60	1705.96
784.77	1765.35
784.95	1679.33
785.12	1611.75
785.30	1714.15
785.47	1703.91
785.65	1611.75
785.83	1736.68
786.00	1597.42
786.18	1687.53
786.35	1595.37
786.53	1642.47
786.71	1763.30
786.88	1718.25
787.06	1658.85
787.23	1716.20
787.41	1679.33
787.58	1701.86
787.76	1583.08
787.94	1667.05
788.11	1574.89
788.29	1687.53
788.46	1642.47
788.64	1570.79
788.81	1644.52
788.99	1722.34
789.16	1673.19
789.34	1710.05
789.52	1712.10
789.69	1646.57
789.87	1593.32
790.04	1687.53
790.22	1650.66
790.39	1800.16
790.57	1617.90
790.74	1697.77
790.92	1679.33
791.09	1603.56
791.27	1640.42
791.44	1751.01
791.62	1658.85
791.79	1726.44
791.97	1652.71
792.15	1884.13
792.32	1794.02
792.50	1675.24
792.67	1742.82
792.85	1775.59
793.02	1687.53
793.20	1683.43
793.37	1669.09
793.55	1730.53
793.72	1642.47
793.90	1755.11
794.07	1583.08
794.25	1574.89
794.42	1630.18
794.60	1683.43
794.77	1697.77
794.95	1818.60
795.12	1695.72
795.30	1662.95
795.47	1624.04
795.65	1855.46
795.82	1726.44
796.00	1597.42
796.17	1652.71
796.34	1619.94
796.52	1677.29
796.69	1736.68
796.87	1718.25
797.04	1632.23
797.22	1748.97
797.39	1683.43
797.57	1658.85
797.74	1761.25
797.92	1699.81
798.09	1652.71
798.27	1777.64
798.44	1697.77
798.62	1652.71
798.79	1718.25
798.96	1673.19
799.14	1621.99
799.31	1847.27
799.49	1740.77
799.66	1597.42
799.84	1667.05
800.01	1671.14
800.19	1724.39
800.36	1718.25
800.53	1718.25
800.71	1701.86
800.88	1853.41
801.06	1669.09
801.23	1640.42
801.41	1613.80
801.58	1697.77
801.75	1705.96
801.93	1787.88
802.10	1658.85
802.28	1685.48
802.45	1652.71
802.63	1730.53
802.80	1783.78
802.97	1673.19
803.15	1705.96
803.32	1693.67
803.50	1685.48
803.67	1609.70
803.84	1636.33
804.02	1673.19
804.19	1703.91
804.37	1583.08
804.54	1695.72
804.71	1615.85
804.89	1769.44
805.06	1636.33
805.24	1617.90
805.41	1705.96
805.58	1640.42
805.76	1789.92
805.93	1673.19
806.10	1796.07
806.28	1757.16
806.45	1710.05
806.63	1718.25
806.80	1787.88
806.97	1705.96
807.15	1642.47
807.32	1697.77
807.49	1640.42
807.67	1621.99
807.84	1748.97
808.01	1671.14
808.19	1791.97
808.36	1826.79
808.54	1652.71
808.71	1693.67
808.88	1757.16
809.06	1697.77
809.23	1734.63
809.40	1712.10
809.58	1781.73
809.75	1669.09
809.92	1628.14
810.10	1767.40
810.27	1673.19
810.44	1726.44
810.62	1675.24
810.79	1665.00
810.96	1689.57
811.14	1710.05
811.31	1734.63
811.48	1662.95
811.66	1724.39
811.83	1738.73
812.00	1638.38
812.18	1742.82
812.35	1804.26
812.52	1691.62
812.69	1689.57
812.87	1675.24
813.04	1634.28
813.21	1687.53
813.39	1669.09
813.56	1648.61
813.73	1681.38
813.91	1589.22
814.08	1626.09
814.25	1695.72
814.42	1607.66
814.60	1728.49
814.77	1671.14
814.94	1701.86
815.12	1687.53
815.29	1808.36
815.46	1675.24
815.63	1734.63
815.81	1691.62
815.98	1597.42
816.15	1699.81
816.33	1673.19
816.50	1742.82
816.67	1703.91
816.84	1738.73
817.02	1626.09
817.19	1691.62
817.36	1642.47
817.53	1755.11
817.71	1654.76
817.88	1726.44
818.05	1697.77
818.22	1665.00
818.40	1783.78
818.57	1673.19
818.74	1665.00
818.91	1681.38
819.09	1730.53
819.26	1708.01
819.43	1703.91
819.60	1667.05
819.78	1675.24
819.95	1783.78
820.12	1576.94
820.29	1744.87
820.47	1705.96
820.64	1632.23
820.81	1671.14
820.98	1662.95
821.15	1609.70
821.33	1718.25
821.50	1712.10
821.67	1763.30
821.84	1669.09
822.02	1769.44
822.19	1736.68
822.36	1628.14
822.53	1669.09
822.70	1656.81
822.88	1732.58
823.05	1822.69
823.22	1701.86
823.39	1724.39
823.56	1671.14
823.74	1837.03
823.91	1578.98
824.08	1640.42
824.25	1634.28
824.42	1816.55
824.60	1562.60
824.77	1781.73
824.94	1701.86
825.11	1755.11
825.28	1593.32
825.45	1734.63
825.63	1689.57
825.80	1673.19
825.97	1810.40
826.14	1689.57
826.31	1632.23
826.48	1769.44
826.66	1691.62
826.83	1718.25
827.00	1654.76
827.17	1656.81
827.34	1667.05
827.51	1669.09
827.69	1687.53
827.86	1617.90
828.03	1665.00
828.20	1693.67
828.37	1650.66
828.54	1730.53
828.71	1613.80
828.89	1837.03
829.06	1697.77
829.23	1771.49
829.40	1597.42
829.57	1656.81
829.74	1767.40
829.91	1705.96
830.09	1681.38
830.26	1697.77
830.43	1769.44
830.60	1738.73
830.77	1763.30
830.94	1812.45
831.11	1675.24
831.28	1628.14
831.46	1726.44
831.63	1607.66
831.80	1736.68
831.97	1656.81
832.14	1669.09
832.31	1693.67
832.48	1726.44
832.65	1677.29
832.82	1738.73
832.99	1708.01
833.17	1714.15
833.34	1789.92
833.51	1742.82
833.68	1638.38
833.85	1816.55
834.02	1626.09
834.19	1640.42
834.36	1730.53
834.53	1644.52
834.70	1791.97
834.87	1734.63
835.04	1685.48
835.22	1638.38
835.39	1728.49
835.56	1658.85
835.73	1712.10
835.90	1746.92
836.07	1591.27
836.24	1732.58
836.41	1624.04
836.58	1636.33
836.75	1701.86
836.92	1720.29
837.09	1675.24
837.26	1757.16
837.43	1640.42
837.60	1724.39
837.77	1675.24
837.94	1685.48
838.12	1806.31
838.29	1710.05
838.46	1642.47
838.63	1605.61
838.80	1730.53
838.97	1771.49
839.14	1691.62
839.31	1669.09
839.48	1746.92
839.65	1615.85
839.82	1757.16
839.99	1703.91
840.16	1722.34
840.33	1658.85
840.50	1734.63
840.67	1667.05
840.84	1587.18
841.01	1757.16
841.18	1617.90
841.35	1730.53
841.52	1773.54
841.69	1867.75
841.86	1738.73
842.03	1671.14
842.20	1742.82
842.37	1681.38
842.54	1607.66
842.71	1710.05
842.88	1581.03
843.05	1722.34
843.22	1679.33
843.39	1658.85
843.56	1734.63
843.73	1746.92
843.90	1621.99
844.07	1710.05
844.24	1730.53
844.41	1779.68
844.58	1777.64
844.75	1730.53
844.92	1732.58
845.09	1671.14
845.26	1642.47
845.43	1681.38
845.60	1703.91
845.77	1802.21
845.94	1648.61
846.10	1703.91
846.27	1576.94
846.44	1550.31
846.61	1585.13
846.78	1753.06
846.95	1771.49
847.12	1665.00
847.29	1630.18
847.46	1634.28
847.63	1720.29
847.80	1689.57
847.97	1658.85
848.14	1757.16
848.31	1611.75
848.48	1632.23
848.65	1714.15
848.82	1648.61
848.98	1826.79
849.15	1779.68
849.32	1703.91
849.49	1781.73
849.66	1689.57
849.83	1722.34
850.00	1611.75
850.17	1660.90
850.34	1640.42
850.51	1669.09
850.68	1740.77
850.85	1861.60
851.01	1765.35
851.18	1732.58
851.35	1701.86
851.52	1736.68
851.69	1769.44
851.86	1648.61
852.03	1644.52
852.20	1722.34
852.37	1734.63
852.53	1619.94
852.70	1722.34
852.87	1621.99
853.04	1740.77
853.21	1736.68
853.38	1781.73
853.55	1734.63
853.72	1748.97
853.89	1673.19
854.05	1675.24
854.22	1716.20
854.39	1603.56
854.56	1705.96
854.73	1763.30
854.90	1714.15
855.07	1675.24
855.23	1679.33
855.40	1689.57
855.57	1765.35
855.74	1613.80
855.91	1925.09
856.08	1628.14
856.25	1640.42
856.41	1601.51
856.58	1624.04
856.75	1720.29
856.92	1607.66
857.09	1767.40
857.26	1632.23
857.42	1689.57
857.59	1671.14
857.76	1724.39
857.93	1740.77
858.10	1775.59
858.27	1583.08
858.43	1705.96
858.60	1656.81
858.77	1624.04
858.94	1665.00
859.11	1697.77
859.27	1697.77
859.44	1691.62
859.61	1796.07
859.78	1677.29
859.95	1642.47
860.12	1677.29
860.28	1714.15
860.45	1837.03
860.62	1730.53
860.79	1617.90
860.95	1705.96
861.12	1712.10
861.29	1648.61
861.46	1677.29
861.63	1718.25
861.79	1718.25
861.96	1605.61
862.13	1640.42
862.30	1759.21
862.47	1589.22
862.63	1656.81
862.80	1798.12
862.97	1751.01
863.14	1697.77
863.30	1699.81
863.47	1656.81
863.64	1746.92
863.81	1779.68
863.97	1726.44
864.14	1777.64
864.31	1722.34
864.48	1722.34
864.65	1701.86
864.81	1701.86
864.98	1736.68
865.15	1722.34
865.32	1757.16
865.48	1695.72
865.65	1781.73
865.82	1615.85
865.98	1699.81
866.15	1714.15
866.32	1656.81
866.49	1607.66
866.65	1732.58
866.82	1607.66
866.99	1728.49
867.16	1642.47
867.32	1708.01
867.49	1689.57
867.66	1624.04
867.83	1695.72
867.99	1613.80
868.16	1687.53
868.33	1609.70
868.49	1736.68
868.66	1710.05
868.83	1693.67
868.99	1732.58
869.16	1740.77
869.33	1810.40
869.50	1718.25
869.66	1681.38
869.83	1603.56
870.00	1626.09
870.16	1714.15
870.33	1671.14
870.50	1781.73
870.66	1644.52
870.83	1783.78
871.00	1691.62
871.17	1648.61
871.33	1775.59
871.50	1615.85
871.67	1730.53
871.83	1685.48
872.00	1775.59
872.17	1609.70
872.33	1822.69
872.50	1740.77
872.67	1693.67
872.83	1628.14
873.00	1697.77
873.17	1632.23
873.33	1753.06
873.50	1789.92
873.67	1632.23
873.83	1656.81
874.00	1744.87
874.16	1708.01
874.33	1671.14
874.50	1650.66
874.66	1724.39
874.83	1673.19
875.00	1730.53
875.16	1759.21
875.33	1816.55
875.50	1570.79
875.66	1652.71
875.83	1634.28
875.99	1650.66
876.16	1671.14
876.33	1632.23
876.49	1697.77
876.66	1660.90
876.83	1667.05
876.99	1699.81
877.16	1738.73
877.32	1691.62
877.49	1665.00
877.66	1720.29
877.82	1800.16
877.99	1722.34
878.15	1771.49
878.32	1691.62
878.49	1728.49
878.65	1689.57
878.82	1746.92
878.98	1687.53
879.15	1746.92
879.32	1771.49
879.48	1667.05
879.65	1585.13
879.81	1734.63
879.98	1632.23
880.15	1652.71
880.31	1695.72
880.48	1681.38
880.64	1673.19
880.81	1787.88
880.97	1755.11
881.14	1705.96
881.31	1658.85
881.47	1845.22
881.64	1736.68
881.80	1650.66
881.97	1783.78
882.13	1796.07
882.30	1712.10
882.47	1599.46
882.63	1665.00
882.80	1730.53
882.96	1597.42
883.13	1789.92
883.29	1673.19
883.46	1685.48
883.62	1787.88
883.79	1648.61
883.95	1812.45
884.12	1761.25
884.29	1767.40
884.45	1736.68
884.62	1783.78
884.78	1644.52
884.95	1730.53
885.11	1578.98
885.28	1734.63
885.44	1640.42
885.61	1724.39
885.77	1759.21
885.94	1738.73
886.10	1669.09
886.27	1687.53
886.43	1843.17
886.60	1798.12
886.76	1638.38
886.93	1669.09
887.09	1783.78
887.26	1632.23
887.42	1665.00
887.59	1775.59
887.75	1834.98
887.92	1755.11
888.08	1806.31
888.25	1697.77
888.41	1804.26
888.58	1658.85
888.74	1683.43
888.91	1689.57
>>>>>End Processed Spectral Data<<<<<
