SpectraSuite Data File
++++++++++++++++++++++++++++++++++++
Date: Mon Jun 06 14:21:57 CEST 2016
User: root
Dark Spectrum Present: No
Reference Spectrum Present: No
Number of Sampled Component Spectra: 1
Spectrometers: USB4C02835
Integration Time (usec): 100000 (USB4C02835)
Spectra Averaged: 1 (USB4C02835)
Boxcar Smoothing: 0 (USB4C02835)
Correct for Electrical Dark: No (USB4C02835)
Strobe/Lamp Enabled: No (USB4C02835)
Correct for Detector Non-linearity: No (USB4C02835)
Correct for Stray Light: No (USB4C02835)
Number of Pixels in Processed Spectrum: 3648
>>>>>Begin Processed Spectral Data<<<<<
177.47	1470.44
177.69	1470.44
177.91	1470.44
178.13	1480.68
178.36	1445.87
178.58	1695.72
178.80	1685.48
179.02	1669.09
179.24	1701.86
179.46	1693.67
179.68	1814.50
179.90	1619.94
180.13	1765.35
180.35	1644.52
180.57	1712.10
180.79	1765.35
181.01	1726.44
181.23	1757.16
181.45	1759.21
181.67	1667.05
181.90	1710.05
182.12	1648.61
182.34	1665.00
182.56	1681.38
182.78	1746.92
183.00	1697.77
183.22	1726.44
183.44	1613.80
183.66	1837.03
183.89	1785.83
184.11	1716.20
184.33	1685.48
184.55	1789.92
184.77	1660.90
184.99	1640.42
185.21	1714.15
185.43	1816.55
185.65	1701.86
185.87	1595.37
186.10	1841.12
186.32	1800.16
186.54	1730.53
186.76	1705.96
186.98	1712.10
187.20	1777.64
187.42	1652.71
187.64	1787.88
187.86	1677.29
188.08	1759.21
188.30	1705.96
188.52	1718.25
188.75	1851.36
188.97	1777.64
189.19	1710.05
189.41	1673.19
189.63	1703.91
189.85	1689.57
190.07	1562.60
190.29	1683.43
190.51	1642.47
190.73	1660.90
190.95	1779.68
191.17	1697.77
191.39	1619.94
191.61	1773.54
191.84	1650.66
192.06	1656.81
192.28	1617.90
192.50	1886.18
192.72	1683.43
192.94	1677.29
193.16	1718.25
193.38	1728.49
193.60	1685.48
193.82	1708.01
194.04	1777.64
194.26	1691.62
194.48	1705.96
194.70	1626.09
194.92	1710.05
195.14	1726.44
195.36	1693.67
195.58	1757.16
195.80	1683.43
196.02	1642.47
196.24	1701.86
196.46	1710.05
196.69	1710.05
196.91	1820.64
197.13	1703.91
197.35	1654.76
197.57	1732.58
197.79	1701.86
198.01	1740.77
198.23	1804.26
198.45	1783.78
198.67	1650.66
198.89	1710.05
199.11	1761.25
199.33	1718.25
199.55	1574.89
199.77	1701.86
199.99	1789.92
200.21	1675.24
200.43	1775.59
200.65	1615.85
200.87	1554.41
201.09	1615.85
201.31	1722.34
201.53	1796.07
201.75	1806.31
201.97	1665.00
202.19	1738.73
202.41	1763.30
202.63	1822.69
202.85	1720.29
203.07	1685.48
203.29	1720.29
203.51	1642.47
203.73	1632.23
203.95	1804.26
204.17	1718.25
204.39	1761.25
204.61	1710.05
204.83	1714.15
205.05	1695.72
205.27	1767.40
205.49	1812.45
205.71	1710.05
205.93	1607.66
206.15	1767.40
206.37	1701.86
206.59	1699.81
206.81	1568.74
207.03	1617.90
207.25	1615.85
207.47	1845.22
207.69	1615.85
207.91	1828.84
208.13	1744.87
208.34	1628.14
208.56	1699.81
208.78	1761.25
209.00	1683.43
209.22	1679.33
209.44	1665.00
209.66	1669.09
209.88	1730.53
210.10	1671.14
210.32	1617.90
210.54	1785.83
210.76	1665.00
210.98	1712.10
211.20	1640.42
211.42	1728.49
211.64	1773.54
211.86	1777.64
212.08	1691.62
212.30	1722.34
212.52	1714.15
212.74	1701.86
212.96	1712.10
213.17	1822.69
213.39	1710.05
213.61	1742.82
213.83	1591.27
214.05	1705.96
214.27	1742.82
214.49	1648.61
214.71	1638.38
214.93	1853.41
215.15	1636.33
215.37	1765.35
215.59	1652.71
215.81	1681.38
216.03	1738.73
216.24	1730.53
216.46	1751.01
216.68	1699.81
216.90	1769.44
217.12	1820.64
217.34	1736.68
217.56	1798.12
217.78	1728.49
218.00	1705.96
218.22	1687.53
218.44	1830.88
218.66	1757.16
218.87	1753.06
219.09	1665.00
219.31	1685.48
219.53	1730.53
219.75	1667.05
219.97	1648.61
220.19	1697.77
220.41	1757.16
220.63	1779.68
220.85	1734.63
221.06	1658.85
221.28	1736.68
221.50	1732.58
221.72	1665.00
221.94	1669.09
222.16	1744.87
222.38	1757.16
222.60	1691.62
222.82	1683.43
223.03	1769.44
223.25	1607.66
223.47	1806.31
223.69	1828.84
223.91	1679.33
224.13	1708.01
224.35	1710.05
224.57	1724.39
224.78	1744.87
225.00	1685.48
225.22	1708.01
225.44	1714.15
225.66	1726.44
225.88	1673.19
226.10	1822.69
226.32	1691.62
226.53	1718.25
226.75	1626.09
226.97	1701.86
227.19	1714.15
227.41	1595.37
227.63	1685.48
227.85	1611.75
228.06	1697.77
228.28	1726.44
228.50	1728.49
228.72	1619.94
228.94	1718.25
229.16	1611.75
229.37	1636.33
229.59	1669.09
229.81	1830.88
230.03	1708.01
230.25	1591.27
230.47	1642.47
230.69	1644.52
230.90	1685.48
231.12	1642.47
231.34	1658.85
231.56	1791.97
231.78	1646.57
232.00	1701.86
232.21	1832.93
232.43	1675.24
232.65	1607.66
232.87	1646.57
233.09	1621.99
233.30	1646.57
233.52	1656.81
233.74	1673.19
233.96	1675.24
234.18	1728.49
234.40	1746.92
234.61	1855.46
234.83	1675.24
235.05	1658.85
235.27	1828.84
235.49	1785.83
235.70	1701.86
235.92	1822.69
236.14	1742.82
236.36	1746.92
236.58	1640.42
236.79	1806.31
237.01	1722.34
237.23	1701.86
237.45	1853.41
237.67	1662.95
237.88	1718.25
238.10	1834.98
238.32	1595.37
238.54	1656.81
238.76	1642.47
238.97	1603.56
239.19	1642.47
239.41	1675.24
239.63	1759.21
239.85	1679.33
240.06	1718.25
240.28	1658.85
240.50	1820.64
240.72	1765.35
240.93	1755.11
241.15	1775.59
241.37	1738.73
241.59	1761.25
241.81	1658.85
242.02	1732.58
242.24	1732.58
242.46	1714.15
242.68	1693.67
242.89	1648.61
243.11	1724.39
243.33	1732.58
243.55	1689.57
243.76	1736.68
243.98	1632.23
244.20	1697.77
244.42	1683.43
244.64	1658.85
244.85	1640.42
245.07	1710.05
245.29	1710.05
245.51	1669.09
245.72	1742.82
245.94	1740.77
246.16	1726.44
246.38	1755.11
246.59	1638.38
246.81	1685.48
247.03	1689.57
247.24	1710.05
247.46	1703.91
247.68	1697.77
247.90	1689.57
248.11	1693.67
248.33	1796.07
248.55	1800.16
248.77	1683.43
248.98	1740.77
249.20	1757.16
249.42	1757.16
249.64	1714.15
249.85	1718.25
250.07	1662.95
250.29	1718.25
250.50	1732.58
250.72	1642.47
250.94	1763.30
251.16	1761.25
251.37	1722.34
251.59	1775.59
251.81	1789.92
252.02	1732.58
252.24	1669.09
252.46	1794.02
252.68	1703.91
252.89	1695.72
253.11	1642.47
253.33	1765.35
253.54	1834.98
253.76	1576.94
253.98	1783.78
254.20	1656.81
254.41	1648.61
254.63	1621.99
254.85	1714.15
255.06	1724.39
255.28	1722.34
255.50	1658.85
255.71	1689.57
255.93	1640.42
256.15	1648.61
256.36	1748.97
256.58	1648.61
256.80	1718.25
257.02	1636.33
257.23	1669.09
257.45	1734.63
257.67	1845.22
257.88	1669.09
258.10	1689.57
258.32	1708.01
258.53	1652.71
258.75	1753.06
258.97	1771.49
259.18	1671.14
259.40	1675.24
259.62	1832.93
259.83	1806.31
260.05	1755.11
260.27	1953.76
260.48	1779.68
260.70	1619.94
260.92	1714.15
261.13	1691.62
261.35	1718.25
261.57	1695.72
261.78	1650.66
262.00	1632.23
262.22	1720.29
262.43	1611.75
262.65	1689.57
262.86	1644.52
263.08	1796.07
263.30	1654.76
263.51	1624.04
263.73	1599.46
263.95	1728.49
264.16	1636.33
264.38	1687.53
264.60	1730.53
264.81	1728.49
265.03	1722.34
265.25	1738.73
265.46	1673.19
265.68	1681.38
265.89	1759.21
266.11	1685.48
266.33	1767.40
266.54	1755.11
266.76	1708.01
266.98	1656.81
267.19	1728.49
267.41	1716.20
267.62	1611.75
267.84	1634.28
268.06	1699.81
268.27	1742.82
268.49	1796.07
268.70	1689.57
268.92	1667.05
269.14	1699.81
269.35	1591.27
269.57	1724.39
269.79	1773.54
270.00	1710.05
270.22	1755.11
270.43	1671.14
270.65	1574.89
270.87	1710.05
271.08	1695.72
271.30	1773.54
271.51	1705.96
271.73	1683.43
271.95	1767.40
272.16	1742.82
272.38	1685.48
272.59	1714.15
272.81	1730.53
273.02	1644.52
273.24	1705.96
273.46	1718.25
273.67	1656.81
273.89	1671.14
274.10	1679.33
274.32	1656.81
274.54	1722.34
274.75	1701.86
274.97	1683.43
275.18	1751.01
275.40	1673.19
275.61	1712.10
275.83	1714.15
276.05	1583.08
276.26	1681.38
276.48	1734.63
276.69	1736.68
276.91	1632.23
277.12	1769.44
277.34	1673.19
277.55	1736.68
277.77	1738.73
277.99	1710.05
278.20	1611.75
278.42	1673.19
278.63	1705.96
278.85	1648.61
279.06	1626.09
279.28	1701.86
279.49	1724.39
279.71	1685.48
279.93	1734.63
280.14	1714.15
280.36	1656.81
280.57	1720.29
280.79	1826.79
281.00	1601.51
281.22	1720.29
281.43	1808.36
281.65	1570.79
281.86	1658.85
282.08	1740.77
282.29	1802.21
282.51	1662.95
282.73	1591.27
282.94	1636.33
283.16	1650.66
283.37	1800.16
283.59	1675.24
283.80	1748.97
284.02	1667.05
284.23	1712.10
284.45	1667.05
284.66	1656.81
284.88	1734.63
285.09	1665.00
285.31	1712.10
285.52	1699.81
285.74	1662.95
285.95	1802.21
286.17	1773.54
286.38	1763.30
286.60	1587.18
286.81	1673.19
287.03	1681.38
287.24	1697.77
287.46	1746.92
287.67	1728.49
287.89	1779.68
288.10	1714.15
288.32	1648.61
288.53	1800.16
288.75	1736.68
288.96	1761.25
289.18	1665.00
289.39	1738.73
289.61	1703.91
289.82	1841.12
290.04	1691.62
290.25	1640.42
290.47	1691.62
290.68	1720.29
290.90	1744.87
291.11	1597.42
291.33	1703.91
291.54	1665.00
291.76	1708.01
291.97	1734.63
292.18	1738.73
292.40	1671.14
292.61	1689.57
292.83	1853.41
293.04	1705.96
293.26	1675.24
293.47	1769.44
293.69	1605.61
293.90	1726.44
294.12	1755.11
294.33	1759.21
294.55	1673.19
294.76	1734.63
294.97	1767.40
295.19	1871.84
295.40	1714.15
295.62	1699.81
295.83	1671.14
296.05	1673.19
296.26	1671.14
296.48	1671.14
296.69	1673.19
296.90	1757.16
297.12	1779.68
297.33	1814.50
297.55	1697.77
297.76	1691.62
297.98	1808.36
298.19	1763.30
298.41	1667.05
298.62	1705.96
298.83	1730.53
299.05	1740.77
299.26	1716.20
299.48	1722.34
299.69	1785.83
299.90	1658.85
300.12	1669.09
300.33	1775.59
300.55	1697.77
300.76	1759.21
300.98	1724.39
301.19	1771.49
301.40	1703.91
301.62	1693.67
301.83	1722.34
302.05	1677.29
302.26	1673.19
302.47	1744.87
302.69	1662.95
302.90	1705.96
303.12	1585.13
303.33	1820.64
303.54	1791.97
303.76	1746.92
303.97	1660.90
304.19	1753.06
304.40	1599.46
304.61	1742.82
304.83	1843.17
305.04	1751.01
305.26	1671.14
305.47	1730.53
305.68	1585.13
305.90	1621.99
306.11	1759.21
306.33	1732.58
306.54	1656.81
306.75	1585.13
306.97	1619.94
307.18	1644.52
307.39	1712.10
307.61	1710.05
307.82	1767.40
308.04	1753.06
308.25	1595.37
308.46	1687.53
308.68	1714.15
308.89	1722.34
309.10	1777.64
309.32	1710.05
309.53	1660.90
309.74	1726.44
309.96	1679.33
310.17	1722.34
310.39	1595.37
310.60	1759.21
310.81	1714.15
311.03	1691.62
311.24	1710.05
311.45	1716.20
311.67	1789.92
311.88	1673.19
312.09	1599.46
312.31	1689.57
312.52	1714.15
312.73	1683.43
312.95	1681.38
313.16	1634.28
313.37	1826.79
313.59	1662.95
313.80	1714.15
314.01	1810.40
314.23	1652.71
314.44	1660.90
314.65	1665.00
314.87	1650.66
315.08	1710.05
315.29	1648.61
315.51	1683.43
315.72	1597.42
315.93	1759.21
316.15	1708.01
316.36	1691.62
316.57	1757.16
316.79	1701.86
317.00	1720.29
317.21	1705.96
317.43	1650.66
317.64	1722.34
317.85	1630.18
318.07	1648.61
318.28	1785.83
318.49	1769.44
318.70	1882.08
318.92	1787.88
319.13	1898.47
319.34	1902.56
319.56	1695.72
319.77	1761.25
319.98	1759.21
320.20	1726.44
320.41	1779.68
320.62	1724.39
320.83	1671.14
321.05	1794.02
321.26	1773.54
321.47	1677.29
321.69	1789.92
321.90	1556.46
322.11	1712.10
322.32	1646.57
322.54	1755.11
322.75	1738.73
322.96	1853.41
323.18	1636.33
323.39	1574.89
323.60	1662.95
323.81	1718.25
324.03	1617.90
324.24	1763.30
324.45	1730.53
324.66	1673.19
324.88	1736.68
325.09	1763.30
325.30	1730.53
325.52	1685.48
325.73	1794.02
325.94	1617.90
326.15	1656.81
326.37	1720.29
326.58	1755.11
326.79	1783.78
327.00	1583.08
327.22	1726.44
327.43	1744.87
327.64	1597.42
327.85	1675.24
328.07	1748.97
328.28	1814.50
328.49	1689.57
328.70	1697.77
328.92	1656.81
329.13	1718.25
329.34	1699.81
329.55	1900.52
329.76	1751.01
329.98	1710.05
330.19	1830.88
330.40	1757.16
330.61	1689.57
330.83	1724.39
331.04	1685.48
331.25	1654.76
331.46	1705.96
331.68	1632.23
331.89	1679.33
332.10	1722.34
332.31	1718.25
332.52	1697.77
332.74	1783.78
332.95	1687.53
333.16	1722.34
333.37	1781.73
333.58	1654.76
333.80	1724.39
334.01	1599.46
334.22	1699.81
334.43	1662.95
334.64	1611.75
334.86	1673.19
335.07	1685.48
335.28	1820.64
335.49	1648.61
335.70	1755.11
335.92	1660.90
336.13	1822.69
336.34	1660.90
336.55	1660.90
336.76	1759.21
336.98	1644.52
337.19	1759.21
337.40	1804.26
337.61	1910.75
337.82	1730.53
338.04	1763.30
338.25	1648.61
338.46	1695.72
338.67	1708.01
338.88	1613.80
339.09	1497.07
339.31	1628.14
339.52	1652.71
339.73	1681.38
339.94	1710.05
340.15	1763.30
340.36	1669.09
340.58	1775.59
340.79	1667.05
341.00	1732.58
341.21	1621.99
341.42	1822.69
341.63	1665.00
341.85	1779.68
342.06	1716.20
342.27	1652.71
342.48	1748.97
342.69	1611.75
342.90	1742.82
343.12	1660.90
343.33	1646.57
343.54	1681.38
343.75	1751.01
343.96	1679.33
344.17	1671.14
344.38	1685.48
344.60	1705.96
344.81	1687.53
345.02	1681.38
345.23	1837.03
345.44	1779.68
345.65	1800.16
345.86	1685.48
346.07	1640.42
346.29	1718.25
346.50	1714.15
346.71	1779.68
346.92	1736.68
347.13	1816.55
347.34	1695.72
347.55	1751.01
347.76	1816.55
347.98	1583.08
348.19	1722.34
348.40	1738.73
348.61	1722.34
348.82	1845.22
349.03	1742.82
349.24	1665.00
349.45	1728.49
349.66	1624.04
349.88	1718.25
350.09	1638.38
350.30	1710.05
350.51	1708.01
350.72	1738.73
350.93	1746.92
351.14	1728.49
351.35	1687.53
351.56	1679.33
351.77	1648.61
351.99	1697.77
352.20	1783.78
352.41	1734.63
352.62	1628.14
352.83	1705.96
353.04	1648.61
353.25	1703.91
353.46	1665.00
353.67	1763.30
353.88	1665.00
354.09	1722.34
354.30	1730.53
354.52	1677.29
354.73	1718.25
354.94	1691.62
355.15	1689.57
355.36	1775.59
355.57	1609.70
355.78	1738.73
355.99	1615.85
356.20	1671.14
356.41	1738.73
356.62	1705.96
356.83	1734.63
357.04	1769.44
357.25	1662.95
357.46	1632.23
357.68	1691.62
357.89	1662.95
358.10	1708.01
358.31	1695.72
358.52	1705.96
358.73	1566.70
358.94	1669.09
359.15	1669.09
359.36	1734.63
359.57	1681.38
359.78	1720.29
359.99	1679.33
360.20	1656.81
360.41	1724.39
360.62	1769.44
360.83	1742.82
361.04	1746.92
361.25	1767.40
361.46	1781.73
361.67	1701.86
361.88	1730.53
362.09	1722.34
362.30	1722.34
362.51	1632.23
362.72	1624.04
362.93	1802.21
363.14	1658.85
363.35	1669.09
363.56	1642.47
363.78	1728.49
363.99	1757.16
364.20	1665.00
364.41	1765.35
364.62	1834.98
364.83	1716.20
365.04	1665.00
365.25	1710.05
365.46	1853.41
365.67	1624.04
365.88	1630.18
366.09	1615.85
366.30	1650.66
366.51	1730.53
366.72	1701.86
366.93	1685.48
367.14	1669.09
367.35	1779.68
367.56	1718.25
367.77	1753.06
367.98	1705.96
368.18	1724.39
368.39	1701.86
368.60	1638.38
368.81	1710.05
369.02	1687.53
369.23	1726.44
369.44	1617.90
369.65	1722.34
369.86	1773.54
370.07	1740.77
370.28	1652.71
370.49	1718.25
370.70	1753.06
370.91	1703.91
371.12	1699.81
371.33	1757.16
371.54	1755.11
371.75	1691.62
371.96	1613.80
372.17	1742.82
372.38	1695.72
372.59	1681.38
372.80	1720.29
373.01	1652.71
373.22	1718.25
373.43	1634.28
373.64	1671.14
373.85	1781.73
374.06	1808.36
374.26	1746.92
374.47	1656.81
374.68	1789.92
374.89	1697.77
375.10	1716.20
375.31	1742.82
375.52	1767.40
375.73	1656.81
375.94	1683.43
376.15	1781.73
376.36	1712.10
376.57	1697.77
376.78	1693.67
376.99	1757.16
377.20	1787.88
377.40	1624.04
377.61	1812.45
377.82	1740.77
378.03	1757.16
378.24	1665.00
378.45	1722.34
378.66	1697.77
378.87	1538.02
379.08	1665.00
379.29	1685.48
379.50	1728.49
379.71	1718.25
379.91	1697.77
380.12	1708.01
380.33	1730.53
380.54	1648.61
380.75	1705.96
380.96	1652.71
381.17	1771.49
381.38	1734.63
381.59	1667.05
381.80	1722.34
382.00	1845.22
382.21	1677.29
382.42	1841.12
382.63	1832.93
382.84	1769.44
383.05	1720.29
383.26	1781.73
383.47	1660.90
383.68	1718.25
383.88	1705.96
384.09	1665.00
384.30	1779.68
384.51	1728.49
384.72	1689.57
384.93	1591.27
385.14	1751.01
385.35	1800.16
385.55	1712.10
385.76	1744.87
385.97	1759.21
386.18	1654.76
386.39	1597.42
386.60	1726.44
386.81	1695.72
387.02	1636.33
387.22	1642.47
387.43	1705.96
387.64	1736.68
387.85	1816.55
388.06	2125.79
388.27	4296.64
388.48	6907.80
388.68	8275.84
388.89	9699.18
389.10	10073.96
389.31	8558.46
389.52	7622.54
389.73	6721.43
389.93	6301.60
390.14	5820.33
390.35	5318.57
390.56	4638.65
390.77	3770.31
390.98	3076.05
391.18	2588.63
391.39	2111.46
391.60	1853.41
391.81	1839.08
392.02	1744.87
392.23	1859.56
392.43	1722.34
392.64	1773.54
392.85	1755.11
393.06	1812.45
393.27	1730.53
393.47	1626.09
393.68	1742.82
393.89	1644.52
394.10	1722.34
394.31	1701.86
394.52	1624.04
394.72	1628.14
394.93	1736.68
395.14	1630.18
395.35	1732.58
395.56	1691.62
395.76	1781.73
395.97	1734.63
396.18	1824.74
396.39	1806.31
396.60	2025.44
396.80	1925.09
397.01	1853.41
397.22	1789.92
397.43	1746.92
397.64	1763.30
397.84	1785.83
398.05	1843.17
398.26	1755.11
398.47	1761.25
398.67	1755.11
398.88	1716.20
399.09	1783.78
399.30	1632.23
399.51	1832.93
399.71	1712.10
399.92	1693.67
400.13	1722.34
400.34	1665.00
400.54	1712.10
400.75	1781.73
400.96	1726.44
401.17	1787.88
401.37	1769.44
401.58	1689.57
401.79	1732.58
402.00	1826.79
402.21	2068.45
402.41	1957.86
402.62	2052.06
402.83	2039.78
403.04	1976.29
403.24	2142.18
403.45	1851.36
403.66	1896.42
403.87	1910.75
404.07	1869.80
404.28	1939.43
404.49	1882.08
404.70	1839.08
404.90	1724.39
405.11	1689.57
405.32	1730.53
405.52	1621.99
405.73	1685.48
405.94	1636.33
406.15	1802.21
406.35	1748.97
406.56	1837.03
406.77	1681.38
406.98	1667.05
407.18	1665.00
407.39	1789.92
407.60	1652.71
407.80	1789.92
408.01	1621.99
408.22	1703.91
408.43	1746.92
408.63	1720.29
408.84	1775.59
409.05	1734.63
409.25	1728.49
409.46	1691.62
409.67	1644.52
409.88	1685.48
410.08	1734.63
410.29	1624.04
410.50	1732.58
410.70	1628.14
410.91	1710.05
411.12	1761.25
411.32	1681.38
411.53	1718.25
411.74	1816.55
411.95	1779.68
412.15	1773.54
412.36	1839.08
412.57	1779.68
412.77	1794.02
412.98	1751.01
413.19	1652.71
413.39	1720.29
413.60	1697.77
413.81	1791.97
414.01	1730.53
414.22	1730.53
414.43	1796.07
414.63	1619.94
414.84	1742.82
415.05	1710.05
415.25	1722.34
415.46	1834.98
415.67	1619.94
415.87	1652.71
416.08	1648.61
416.29	1736.68
416.49	1693.67
416.70	1726.44
416.91	1701.86
417.11	1675.24
417.32	1781.73
417.53	1783.78
417.73	1759.21
417.94	1728.49
418.15	1732.58
418.35	1654.76
418.56	1779.68
418.77	1896.42
418.97	1685.48
419.18	1671.14
419.38	1574.89
419.59	1701.86
419.80	1767.40
420.00	1626.09
420.21	1712.10
420.42	1773.54
420.62	1765.35
420.83	1693.67
421.04	1703.91
421.24	1677.29
421.45	1751.01
421.65	1720.29
421.86	1755.11
422.07	1673.19
422.27	1697.77
422.48	1726.44
422.69	1624.04
422.89	1751.01
423.10	1662.95
423.30	1660.90
423.51	1705.96
423.72	1693.67
423.92	1695.72
424.13	1634.28
424.33	1771.49
424.54	1722.34
424.75	1685.48
424.95	1806.31
425.16	1757.16
425.36	1621.99
425.57	1841.12
425.78	1808.36
425.98	1734.63
426.19	1693.67
426.39	1662.95
426.60	1671.14
426.81	1771.49
427.01	1679.33
427.22	1683.43
427.42	1560.55
427.63	1714.15
427.83	1783.78
428.04	1822.69
428.25	1781.73
428.45	1816.55
428.66	1720.29
428.86	1714.15
429.07	1722.34
429.28	1671.14
429.48	1701.86
429.69	1691.62
429.89	1640.42
430.10	1552.36
430.30	1751.01
430.51	1755.11
430.71	1673.19
430.92	1724.39
431.13	1681.38
431.33	1769.44
431.54	1724.39
431.74	1845.22
431.95	1824.74
432.15	1671.14
432.36	1769.44
432.56	1650.66
432.77	1808.36
432.98	1820.64
433.18	1619.94
433.39	1679.33
433.59	1714.15
433.80	1796.07
434.00	1859.56
434.21	1755.11
434.41	1705.96
434.62	1810.40
434.82	1615.85
435.03	1699.81
435.23	1626.09
435.44	1607.66
435.64	1695.72
435.85	1656.81
436.06	1732.58
436.26	1769.44
436.47	1669.09
436.67	1718.25
436.88	1773.54
437.08	1728.49
437.29	1822.69
437.49	1779.68
437.70	1705.96
437.90	1748.97
438.11	1812.45
438.31	1732.58
438.52	1834.98
438.72	1902.56
438.93	1947.62
439.13	1791.97
439.34	1841.12
439.54	1767.40
439.75	1853.41
439.95	1712.10
440.16	1660.90
440.36	1630.18
440.57	1759.21
440.77	1693.67
440.98	1728.49
441.18	1765.35
441.39	1703.91
441.59	1761.25
441.80	1841.12
442.00	1689.57
442.21	1808.36
442.41	1628.14
442.62	1687.53
442.82	1562.60
443.02	1687.53
443.23	1753.06
443.43	1650.66
443.64	1814.50
443.84	1722.34
444.05	1791.97
444.25	1685.48
444.46	1703.91
444.66	1665.00
444.87	1857.51
445.07	1667.05
445.28	1746.92
445.48	1822.69
445.69	1845.22
445.89	1914.85
446.09	1751.01
446.30	2050.02
446.50	2674.65
446.71	3590.09
446.91	4351.93
447.12	4845.49
447.32	4929.46
447.53	4392.89
447.73	4050.88
447.93	3549.13
448.14	3200.98
448.34	3207.12
448.55	2887.64
448.75	2928.60
448.96	2643.93
449.16	2441.18
449.36	2297.82
449.57	1994.72
449.77	1959.91
449.98	1759.21
450.18	1859.56
450.39	1781.73
450.59	1753.06
450.79	1751.01
451.00	1705.96
451.20	1748.97
451.41	1738.73
451.61	1814.50
451.81	1718.25
452.02	1757.16
452.22	1732.58
452.43	1669.09
452.63	1763.30
452.84	1689.57
453.04	1683.43
453.24	1726.44
453.45	1779.68
453.65	1701.86
453.86	1763.30
454.06	1783.78
454.26	1765.35
454.47	1724.39
454.67	1806.31
454.87	1761.25
455.08	1734.63
455.28	1810.40
455.49	1763.30
455.69	1683.43
455.89	1857.51
456.10	1802.21
456.30	1718.25
456.51	1708.01
456.71	1759.21
456.91	1746.92
457.12	1775.59
457.32	1683.43
457.52	1644.52
457.73	1816.55
457.93	1796.07
458.14	1673.19
458.34	1693.67
458.54	1638.38
458.75	1689.57
458.95	1808.36
459.15	1777.64
459.36	1759.21
459.56	1771.49
459.76	1791.97
459.97	1708.01
460.17	1740.77
460.37	1769.44
460.58	1687.53
460.78	1710.05
460.99	1722.34
461.19	1740.77
461.39	1683.43
461.60	1673.19
461.80	1802.21
462.00	1662.95
462.21	1669.09
462.41	1654.76
462.61	1734.63
462.82	1609.70
463.02	1773.54
463.22	1738.73
463.43	1783.78
463.63	1730.53
463.83	1802.21
464.04	1714.15
464.24	1757.16
464.44	1736.68
464.64	1732.58
464.85	1804.26
465.05	1755.11
465.25	1710.05
465.46	1673.19
465.66	1740.77
465.86	1755.11
466.07	1763.30
466.27	1718.25
466.47	1681.38
466.68	1644.52
466.88	1755.11
467.08	1738.73
467.29	1859.56
467.49	1744.87
467.69	1693.67
467.89	1779.68
468.10	1695.72
468.30	1734.63
468.50	1736.68
468.71	1712.10
468.91	1640.42
469.11	1834.98
469.31	1687.53
469.52	1703.91
469.72	1802.21
469.92	1863.65
470.13	1714.15
470.33	1691.62
470.53	1849.32
470.73	2144.22
470.94	2297.82
471.14	2375.64
471.34	2562.01
471.54	2361.31
471.75	2256.86
471.95	2099.17
472.15	2140.13
472.36	2131.94
472.56	2031.58
472.76	2064.35
472.96	2019.30
473.17	2023.39
473.37	1920.99
473.57	1773.54
473.77	1857.51
473.98	1722.34
474.18	1708.01
474.38	1851.36
474.58	1714.15
474.79	1636.33
474.99	1724.39
475.19	1746.92
475.39	1708.01
475.60	1697.77
475.80	1757.16
476.00	1611.75
476.20	1699.81
476.41	1789.92
476.61	1824.74
476.81	1755.11
477.01	1662.95
477.21	1812.45
477.42	1804.26
477.62	1724.39
477.82	1728.49
478.02	1640.42
478.23	1785.83
478.43	1642.47
478.63	1699.81
478.83	1636.33
479.03	1630.18
479.24	1822.69
479.44	1849.32
479.64	1679.33
479.84	1572.84
480.04	1742.82
480.25	1732.58
480.45	1634.28
480.65	1710.05
480.85	1861.60
481.06	1687.53
481.26	1738.73
481.46	1603.56
481.66	1755.11
481.86	1787.88
482.06	1775.59
482.27	1710.05
482.47	1687.53
482.67	1796.07
482.87	1685.48
483.07	1798.12
483.28	1679.33
483.48	1705.96
483.68	1785.83
483.88	1693.67
484.08	1570.79
484.29	1675.24
484.49	1716.20
484.69	1665.00
484.89	1767.40
485.09	1843.17
485.29	1722.34
485.50	1773.54
485.70	1742.82
485.90	1751.01
486.10	1771.49
486.30	1714.15
486.50	1773.54
486.71	1771.49
486.91	1769.44
487.11	1812.45
487.31	1654.76
487.51	1724.39
487.71	1697.77
487.91	1701.86
488.12	1697.77
488.32	1599.46
488.52	1791.97
488.72	1607.66
488.92	1722.34
489.12	1787.88
489.32	1828.84
489.53	1814.50
489.73	1632.23
489.93	1785.83
490.13	1654.76
490.33	1669.09
490.53	1665.00
490.73	1775.59
490.94	1683.43
491.14	1763.30
491.34	1861.60
491.54	2160.61
491.74	2664.41
491.94	2850.77
492.14	3080.14
492.34	3092.43
492.54	2762.71
492.75	2545.63
492.95	2437.08
493.15	2320.35
493.35	2281.44
493.55	2234.33
493.75	2117.60
493.95	2156.51
494.15	2037.73
494.35	1929.19
494.56	1851.36
494.76	1751.01
494.96	1841.12
495.16	1775.59
495.36	1724.39
495.56	1769.44
495.76	1662.95
495.96	1685.48
496.16	1689.57
496.36	1898.47
496.56	1734.63
496.77	1716.20
496.97	1714.15
497.17	1824.74
497.37	1673.19
497.57	1755.11
497.77	1798.12
497.97	1589.22
498.17	1742.82
498.37	1699.81
498.57	1726.44
498.77	1708.01
498.97	1775.59
499.17	1816.55
499.38	1701.86
499.58	1808.36
499.78	1796.07
499.98	1812.45
500.18	1722.34
500.38	1697.77
500.58	1828.84
500.78	2572.25
500.98	4614.07
501.18	5748.65
501.38	6934.42
501.58	7317.39
501.78	6809.50
501.98	5703.59
502.18	4906.93
502.38	4437.95
502.58	4095.94
502.78	3901.38
502.98	3579.85
503.18	3432.40
503.38	3045.33
503.59	2734.04
503.79	2703.32
503.99	2535.39
504.19	2328.54
504.39	2199.52
504.59	2154.46
504.79	2140.13
504.99	2009.06
505.19	1927.14
505.39	1814.50
505.59	1920.99
505.79	1880.04
505.99	1920.99
506.19	1837.03
506.39	1845.22
506.59	1708.01
506.79	1746.92
506.99	1773.54
507.19	1736.68
507.39	1671.14
507.59	1689.57
507.79	1644.52
507.99	1687.53
508.19	1794.02
508.39	1789.92
508.59	1701.86
508.79	1781.73
508.99	1769.44
509.19	1638.38
509.39	1665.00
509.59	1746.92
509.79	1646.57
509.99	1755.11
510.19	1783.78
510.39	1769.44
510.59	1722.34
510.79	1742.82
510.99	1626.09
511.19	1767.40
511.39	1814.50
511.59	1783.78
511.79	1863.65
511.99	1697.77
512.19	1785.83
512.38	1767.40
512.58	1656.81
512.78	1759.21
512.98	1812.45
513.18	1798.12
513.38	1685.48
513.58	1794.02
513.78	1718.25
513.98	1693.67
514.18	1685.48
514.38	1755.11
514.58	1761.25
514.78	1619.94
514.98	1648.61
515.18	1718.25
515.38	1691.62
515.58	1796.07
515.78	1734.63
515.98	1695.72
516.18	1814.50
516.38	1699.81
516.57	1714.15
516.77	1675.24
516.97	1640.42
517.17	1699.81
517.37	1669.09
517.57	1808.36
517.77	1632.23
517.97	1681.38
518.17	1759.21
518.37	1675.24
518.57	1757.16
518.77	1708.01
518.97	1708.01
519.16	1732.58
519.36	1775.59
519.56	1697.77
519.76	1726.44
519.96	1775.59
520.16	1773.54
520.36	1642.47
520.56	1832.93
520.76	1646.57
520.96	1693.67
521.16	1757.16
521.35	1828.84
521.55	1814.50
521.75	1746.92
521.95	1708.01
522.15	1695.72
522.35	1734.63
522.55	1697.77
522.75	1771.49
522.95	1720.29
523.14	1724.39
523.34	1822.69
523.54	1773.54
523.74	1775.59
523.94	1781.73
524.14	1693.67
524.34	1710.05
524.54	1767.40
524.73	1779.68
524.93	1773.54
525.13	1714.15
525.33	1593.32
525.53	1869.80
525.73	1718.25
525.93	1714.15
526.13	1714.15
526.32	1712.10
526.52	1740.77
526.72	1755.11
526.92	1785.83
527.12	1703.91
527.32	1650.66
527.52	1703.91
527.71	1724.39
527.91	1730.53
528.11	1691.62
528.31	1714.15
528.51	1730.53
528.71	1775.59
528.90	1810.40
529.10	1775.59
529.30	1775.59
529.50	1609.70
529.70	1738.73
529.90	1740.77
530.09	1736.68
530.29	1607.66
530.49	1755.11
530.69	1914.85
530.89	1667.05
531.09	1902.56
531.28	1724.39
531.48	1798.12
531.68	1798.12
531.88	1806.31
532.08	1730.53
532.28	1689.57
532.47	1720.29
532.67	1701.86
532.87	1695.72
533.07	1740.77
533.27	1748.97
533.46	1763.30
533.66	1759.21
533.86	1687.53
534.06	1738.73
534.26	1691.62
534.45	1703.91
534.65	1757.16
534.85	1738.73
535.05	1724.39
535.25	1742.82
535.44	1605.61
535.64	1804.26
535.84	1669.09
536.04	1691.62
536.24	1722.34
536.43	1683.43
536.63	1701.86
536.83	1722.34
537.03	1714.15
537.22	1662.95
537.42	1589.22
537.62	1763.30
537.82	1730.53
538.02	1783.78
538.21	1802.21
538.41	1853.41
538.61	1746.92
538.81	1703.91
539.00	1798.12
539.20	1732.58
539.40	1671.14
539.60	1736.68
539.79	1769.44
539.99	1757.16
540.19	1722.34
540.39	1734.63
540.58	1759.21
540.78	1804.26
540.98	1738.73
541.18	1802.21
541.37	1769.44
541.57	1742.82
541.77	1656.81
541.97	1660.90
542.16	1681.38
542.36	1726.44
542.56	1734.63
542.76	1869.80
542.95	1769.44
543.15	1791.97
543.35	1738.73
543.54	1650.66
543.74	1703.91
543.94	1828.84
544.14	1685.48
544.33	1755.11
544.53	1810.40
544.73	1714.15
544.93	1685.48
545.12	1765.35
545.32	1701.86
545.52	1705.96
545.71	1648.61
545.91	1738.73
546.11	1742.82
546.30	1699.81
546.50	1681.38
546.70	1738.73
546.90	1724.39
547.09	1665.00
547.29	1714.15
547.49	1738.73
547.68	1685.48
547.88	1730.53
548.08	1791.97
548.27	2148.32
548.47	1761.25
548.67	1695.72
548.87	1757.16
549.06	1701.86
549.26	1763.30
549.46	1730.53
549.65	1703.91
549.85	1644.52
550.05	1851.36
550.24	1640.42
550.44	1675.24
550.64	1773.54
550.83	1695.72
551.03	1738.73
551.23	1822.69
551.42	1783.78
551.62	1757.16
551.82	1777.64
552.01	1722.34
552.21	1806.31
552.41	1748.97
552.60	1867.75
552.80	1783.78
553.00	1693.67
553.19	1751.01
553.39	1853.41
553.59	1675.24
553.78	1791.97
553.98	1779.68
554.17	1714.15
554.37	1794.02
554.57	1742.82
554.76	1679.33
554.96	1718.25
555.16	1728.49
555.35	1722.34
555.55	1773.54
555.75	1800.16
555.94	1755.11
556.14	1640.42
556.33	1804.26
556.53	1742.82
556.73	1755.11
556.92	1769.44
557.12	1789.92
557.32	1843.17
557.51	1783.78
557.71	1863.65
557.90	1765.35
558.10	1716.20
558.30	1708.01
558.49	1699.81
558.69	1714.15
558.88	1744.87
559.08	1820.64
559.28	1734.63
559.47	1771.49
559.67	1748.97
559.86	1888.23
560.06	1804.26
560.26	1798.12
560.45	1736.68
560.65	1738.73
560.84	1816.55
561.04	1640.42
561.24	1734.63
561.43	1681.38
561.63	1853.41
561.82	1703.91
562.02	1763.30
562.22	1671.14
562.41	1681.38
562.61	1730.53
562.80	1691.62
563.00	1902.56
563.19	1849.32
563.39	1789.92
563.59	1791.97
563.78	1755.11
563.98	1658.85
564.17	1718.25
564.37	1572.84
564.56	1865.70
564.76	1673.19
564.96	1779.68
565.15	1740.77
565.35	1779.68
565.54	1697.77
565.74	1837.03
565.93	1744.87
566.13	1716.20
566.32	1708.01
566.52	1787.88
566.71	1767.40
566.91	1804.26
567.11	1701.86
567.30	1626.09
567.50	1812.45
567.69	1755.11
567.89	1722.34
568.08	1685.48
568.28	1822.69
568.47	1722.34
568.67	1818.60
568.86	1710.05
569.06	1912.80
569.25	1748.97
569.45	1646.57
569.64	1697.77
569.84	1675.24
570.04	1730.53
570.23	1738.73
570.43	1732.58
570.62	1796.07
570.82	1873.89
571.01	1679.33
571.21	1720.29
571.40	1736.68
571.60	1757.16
571.79	1699.81
571.99	1834.98
572.18	1640.42
572.38	1773.54
572.57	1777.64
572.77	1763.30
572.96	1802.21
573.16	1722.34
573.35	1716.20
573.55	1722.34
573.74	1738.73
573.94	1734.63
574.13	1703.91
574.33	1806.31
574.52	1800.16
574.71	1665.00
574.91	1720.29
575.10	1648.61
575.30	1744.87
575.49	1691.62
575.69	1621.99
575.88	1800.16
576.08	1658.85
576.27	1794.02
576.47	1712.10
576.66	1816.55
576.86	1810.40
577.05	1746.92
577.25	1794.02
577.44	1794.02
577.64	1718.25
577.83	1771.49
578.02	1724.39
578.22	1781.73
578.41	1865.70
578.61	1730.53
578.80	1665.00
579.00	1818.60
579.19	1703.91
579.39	1767.40
579.58	1798.12
579.77	1718.25
579.97	1839.08
580.16	1861.60
580.36	1841.12
580.55	1816.55
580.75	1738.73
580.94	1769.44
581.13	1832.93
581.33	1849.32
581.52	1691.62
581.72	1828.84
581.91	1820.64
582.11	1724.39
582.30	1822.69
582.49	1726.44
582.69	1834.98
582.88	1796.07
583.08	1679.33
583.27	1834.98
583.47	1757.16
583.66	1742.82
583.85	1742.82
584.05	1773.54
584.24	1775.59
584.44	1685.48
584.63	1763.30
584.82	1832.93
585.02	1802.21
585.21	1839.08
585.41	1767.40
585.60	1755.11
585.79	1918.95
585.99	1931.23
586.18	1920.99
586.37	2222.05
586.57	3311.57
586.76	9908.07
586.96	24929.92
587.15	34647.54
587.34	40842.64
587.54	42861.94
587.73	36945.36
587.93	26834.53
588.12	22013.62
588.31	18468.58
588.51	16389.89
588.70	15271.70
588.89	14335.78
589.09	12707.65
589.28	11108.18
589.47	9496.43
589.67	8087.43
589.86	6545.31
590.06	4974.52
590.25	4016.07
590.44	3114.96
590.64	2613.21
590.83	2226.14
591.02	2160.61
591.22	1892.32
591.41	1918.95
591.60	1810.40
591.80	1974.24
591.99	1753.06
592.18	1773.54
592.38	1837.03
592.57	1765.35
592.76	1824.74
592.96	1787.88
593.15	1746.92
593.34	1843.17
593.54	1781.73
593.73	1728.49
593.92	1857.51
594.12	1718.25
594.31	1701.86
594.50	1853.41
594.70	1814.50
594.89	1902.56
595.08	1652.71
595.28	1794.02
595.47	1949.67
595.66	1742.82
595.86	1689.57
596.05	1681.38
596.24	1716.20
596.43	1837.03
596.63	1789.92
596.82	1714.15
597.01	1796.07
597.21	1738.73
597.40	1763.30
597.59	1820.64
597.79	1705.96
597.98	1673.19
598.17	1708.01
598.36	1695.72
598.56	1843.17
598.75	1730.53
598.94	1783.78
599.14	1716.20
599.33	1714.15
599.52	1767.40
599.71	1746.92
599.91	1736.68
600.10	1796.07
600.29	1691.62
600.48	1705.96
600.68	1800.16
600.87	1796.07
601.06	1699.81
601.26	1759.21
601.45	1830.88
601.64	1751.01
601.83	1787.88
602.03	1673.19
602.22	1624.04
602.41	1785.83
602.60	1933.28
602.80	1834.98
602.99	1705.96
603.18	1691.62
603.37	1796.07
603.57	1718.25
603.76	1816.55
603.95	1783.78
604.14	1738.73
604.34	1734.63
604.53	1761.25
604.72	1798.12
604.91	1806.31
605.10	1837.03
605.30	1720.29
605.49	1869.80
605.68	1757.16
605.87	1849.32
606.07	1650.66
606.26	1724.39
606.45	1806.31
606.64	1806.31
606.84	1671.14
607.03	1697.77
607.22	1779.68
607.41	1646.57
607.60	1701.86
607.80	1777.64
607.99	1783.78
608.18	1775.59
608.37	1738.73
608.56	1683.43
608.76	1814.50
608.95	1814.50
609.14	1730.53
609.33	1773.54
609.52	1832.93
609.72	1736.68
609.91	1800.16
610.10	1722.34
610.29	1851.36
610.48	1791.97
610.68	1761.25
610.87	1722.34
611.06	1720.29
611.25	1763.30
611.44	1873.89
611.63	1796.07
611.83	1726.44
612.02	1644.52
612.21	1791.97
612.40	1675.24
612.59	1656.81
612.79	1734.63
612.98	1738.73
613.17	1753.06
613.36	1718.25
613.55	1828.84
613.74	1658.85
613.93	1691.62
614.13	1685.48
614.32	1681.38
614.51	1763.30
614.70	1677.29
614.89	1726.44
615.08	1767.40
615.28	1984.48
615.47	1677.29
615.66	1714.15
615.85	1671.14
616.04	1789.92
616.23	1701.86
616.42	1767.40
616.62	1785.83
616.81	1783.78
617.00	1646.57
617.19	1816.55
617.38	1753.06
617.57	1755.11
617.76	1781.73
617.95	1712.10
618.15	1734.63
618.34	1849.32
618.53	1646.57
618.72	1796.07
618.91	1753.06
619.10	1880.04
619.29	1662.95
619.48	1738.73
619.68	1701.86
619.87	1730.53
620.06	1734.63
620.25	1773.54
620.44	1714.15
620.63	1722.34
620.82	1746.92
621.01	1746.92
621.20	1714.15
621.39	1796.07
621.59	1712.10
621.78	1746.92
621.97	1703.91
622.16	1820.64
622.35	1742.82
622.54	1767.40
622.73	1798.12
622.92	1624.04
623.11	1740.77
623.30	1685.48
623.49	1699.81
623.68	1718.25
623.88	1837.03
624.07	1685.48
624.26	1789.92
624.45	1724.39
624.64	1681.38
624.83	1744.87
625.02	1705.96
625.21	1730.53
625.40	1822.69
625.59	1763.30
625.78	1744.87
625.97	1812.45
626.16	1855.46
626.35	1736.68
626.54	1697.77
626.74	1728.49
626.93	1710.05
627.12	1738.73
627.31	1755.11
627.50	1798.12
627.69	1783.78
627.88	1697.77
628.07	1763.30
628.26	1681.38
628.45	1677.29
628.64	1578.98
628.83	1683.43
629.02	1658.85
629.21	1642.47
629.40	1742.82
629.59	1720.29
629.78	1761.25
629.97	1834.98
630.16	1683.43
630.35	1697.77
630.54	1677.29
630.73	1671.14
630.92	1777.64
631.11	1675.24
631.30	1656.81
631.49	1767.40
631.68	1763.30
631.87	1767.40
632.06	1632.23
632.25	1841.12
632.44	1689.57
632.63	1732.58
632.82	1697.77
633.01	1609.70
633.20	1648.61
633.39	1607.66
633.58	1619.94
633.77	1806.31
633.96	1761.25
634.15	1796.07
634.34	1763.30
634.53	1796.07
634.72	1759.21
634.91	1667.05
635.10	1783.78
635.29	1746.92
635.48	1769.44
635.67	1658.85
635.86	1736.68
636.05	1746.92
636.24	1728.49
636.43	1740.77
636.62	1728.49
636.81	1675.24
637.00	1816.55
637.19	1724.39
637.38	1703.91
637.57	1578.98
637.76	1638.38
637.95	1718.25
638.14	1673.19
638.33	1753.06
638.52	1804.26
638.71	1730.53
638.89	1630.18
639.08	1816.55
639.27	1748.97
639.46	1755.11
639.65	1787.88
639.84	1783.78
640.03	1769.44
640.22	1703.91
640.41	1818.60
640.60	1648.61
640.79	1757.16
640.98	1617.90
641.17	1791.97
641.36	1726.44
641.55	1751.01
641.74	1683.43
641.92	1720.29
642.11	1679.33
642.30	1822.69
642.49	1734.63
642.68	1755.11
642.87	1744.87
643.06	1771.49
643.25	1638.38
643.44	1578.98
643.63	1656.81
643.82	1746.92
644.00	1748.97
644.19	1710.05
644.38	1673.19
644.57	1746.92
644.76	1742.82
644.95	1656.81
645.14	1794.02
645.33	1695.72
645.52	1693.67
645.71	1669.09
645.89	1609.70
646.08	1755.11
646.27	1703.91
646.46	1824.74
646.65	1587.18
646.84	1607.66
647.03	1630.18
647.22	1730.53
647.40	1714.15
647.59	1689.57
647.78	1599.46
647.97	1730.53
648.16	1751.01
648.35	1787.88
648.54	1837.03
648.73	1714.15
648.91	1806.31
649.10	1677.29
649.29	1726.44
649.48	1751.01
649.67	1734.63
649.86	1744.87
650.05	1703.91
650.23	1738.73
650.42	1660.90
650.61	1794.02
650.80	1777.64
650.99	1859.56
651.18	1730.53
651.36	1763.30
651.55	1634.28
651.74	1718.25
651.93	1638.38
652.12	1691.62
652.31	1656.81
652.49	1710.05
652.68	1677.29
652.87	1775.59
653.06	1755.11
653.25	1849.32
653.44	1699.81
653.62	1787.88
653.81	1720.29
654.00	1771.49
654.19	1738.73
654.38	1830.88
654.56	1732.58
654.75	1722.34
654.94	1705.96
655.13	1820.64
655.32	1662.95
655.51	1728.49
655.69	1744.87
655.88	1806.31
656.07	1667.05
656.26	1703.91
656.45	1619.94
656.63	1767.40
656.82	1701.86
657.01	1720.29
657.20	1619.94
657.38	1779.68
657.57	1689.57
657.76	1648.61
657.95	1705.96
658.14	1646.57
658.32	1724.39
658.51	1624.04
658.70	1798.12
658.89	1789.92
659.08	1759.21
659.26	1757.16
659.45	1591.27
659.64	1845.22
659.83	1658.85
660.01	1873.89
660.20	1732.58
660.39	1843.17
660.58	1660.90
660.76	1738.73
660.95	1611.75
661.14	1765.35
661.33	1636.33
661.51	1673.19
661.70	1701.86
661.89	1757.16
662.08	1677.29
662.26	1677.29
662.45	1658.85
662.64	1834.98
662.83	1794.02
663.01	1675.24
663.20	1701.86
663.39	1845.22
663.58	1599.46
663.76	1650.66
663.95	1734.63
664.14	1728.49
664.32	1732.58
664.51	1697.77
664.70	1626.09
664.89	1714.15
665.07	1601.51
665.26	1789.92
665.45	1695.72
665.64	1748.97
665.82	1744.87
666.01	1791.97
666.20	1673.19
666.38	1763.30
666.57	1771.49
666.76	2176.99
666.95	4421.56
667.13	10504.03
667.32	15388.44
667.51	18071.28
667.69	19408.60
667.88	17809.14
668.07	12431.17
668.25	9650.03
668.44	8169.35
668.63	7477.13
668.81	6756.25
669.00	6393.76
669.19	5869.48
669.38	5179.31
669.56	4730.81
669.75	3889.09
669.94	3385.29
670.12	2959.31
670.31	2488.28
670.50	2269.15
670.68	2062.30
670.87	1886.18
671.06	1816.55
671.24	1820.64
671.43	1857.51
671.62	1746.92
671.80	1763.30
671.99	1779.68
672.18	1697.77
672.36	1699.81
672.55	1685.48
672.74	1701.86
672.92	1722.34
673.11	1771.49
673.29	1677.29
673.48	1740.77
673.67	1691.62
673.85	1746.92
674.04	1693.67
674.23	1724.39
674.41	1779.68
674.60	1597.42
674.79	1589.22
674.97	1734.63
675.16	1720.29
675.34	1744.87
675.53	1665.00
675.72	1816.55
675.90	1738.73
676.09	1626.09
676.28	1677.29
676.46	1609.70
676.65	1746.92
676.83	1650.66
677.02	1787.88
677.21	1759.21
677.39	1736.68
677.58	1665.00
677.77	1667.05
677.95	1634.28
678.14	1726.44
678.32	1732.58
678.51	1630.18
678.70	1898.47
678.88	1654.76
679.07	1685.48
679.25	1714.15
679.44	1763.30
679.63	1646.57
679.81	1742.82
680.00	1812.45
680.18	1740.77
680.37	1712.10
680.55	1716.20
680.74	1626.09
680.93	1636.33
681.11	1710.05
681.30	1736.68
681.48	1673.19
681.67	1677.29
681.85	1693.67
682.04	1636.33
682.23	1757.16
682.41	1705.96
682.60	1724.39
682.78	1742.82
682.97	1689.57
683.15	1746.92
683.34	1763.30
683.53	1765.35
683.71	1640.42
683.90	1869.80
684.08	1724.39
684.27	1738.73
684.45	1744.87
684.64	1746.92
684.82	1705.96
685.01	1789.92
685.19	1662.95
685.38	1781.73
685.57	1720.29
685.75	1660.90
685.94	1634.28
686.12	1667.05
686.31	1798.12
686.49	1789.92
686.68	1599.46
686.86	1734.63
687.05	1724.39
687.23	1828.84
687.42	1671.14
687.60	1593.32
687.79	1679.33
687.97	1794.02
688.16	1796.07
688.34	1822.69
688.53	1554.41
688.71	1767.40
688.90	1753.06
689.08	1673.19
689.27	1609.70
689.45	1820.64
689.64	1755.11
689.82	1697.77
690.01	1695.72
690.19	1697.77
690.38	1732.58
690.56	1775.59
690.75	1621.99
690.93	1665.00
691.12	1753.06
691.30	1701.86
691.49	1679.33
691.67	1652.71
691.86	1806.31
692.04	1675.24
692.23	1695.72
692.41	1675.24
692.60	1802.21
692.78	1763.30
692.97	1667.05
693.15	1771.49
693.34	1806.31
693.52	1695.72
693.71	1593.32
693.89	1642.47
694.08	1568.74
694.26	1865.70
694.44	1787.88
694.63	1738.73
694.81	1615.85
695.00	1712.10
695.18	1834.98
695.37	1767.40
695.55	1705.96
695.74	1683.43
695.92	1630.18
696.10	1779.68
696.29	1624.04
696.47	1599.46
696.66	1630.18
696.84	1630.18
697.03	1716.20
697.21	1894.37
697.40	2285.53
697.58	1814.50
697.76	1724.39
697.95	1593.32
698.13	1697.77
698.32	1662.95
698.50	1697.77
698.68	1800.16
698.87	1691.62
699.05	1748.97
699.24	1689.57
699.42	1652.71
699.61	1681.38
699.79	1826.79
699.97	1681.38
700.16	1611.75
700.34	1665.00
700.53	1765.35
700.71	1755.11
700.89	1718.25
701.08	1662.95
701.26	1722.34
701.45	2039.78
701.63	1677.29
701.81	1648.61
702.00	1607.66
702.18	1728.49
702.37	1720.29
702.55	1673.19
702.73	1732.58
702.92	1632.23
703.10	1718.25
703.28	1730.53
703.47	1665.00
703.65	1771.49
703.84	1761.25
704.02	1689.57
704.20	1738.73
704.39	1658.85
704.57	1656.81
704.75	1714.15
704.94	1736.68
705.12	1771.49
705.30	1744.87
705.49	2248.67
705.67	4356.03
705.86	9482.10
706.04	12640.06
706.22	14946.08
706.41	15773.46
706.59	13840.17
706.77	9678.70
706.96	7427.98
707.14	6827.93
707.32	6291.36
707.51	5640.11
707.69	5007.28
707.87	4267.97
708.06	3483.59
708.24	2932.69
708.42	2459.61
708.61	2232.29
708.79	1886.18
708.97	1861.60
709.16	1892.32
709.34	1755.11
709.52	1773.54
709.71	1746.92
709.89	1785.83
710.07	1591.27
710.26	1654.76
710.44	1669.09
710.62	1761.25
710.80	1652.71
710.99	1724.39
711.17	1859.56
711.35	1681.38
711.54	1681.38
711.72	1775.59
711.90	1734.63
712.09	1701.86
712.27	1652.71
712.45	1734.63
712.63	1638.38
712.82	1759.21
713.00	1689.57
713.18	1681.38
713.37	1787.88
713.55	1691.62
713.73	1796.07
713.91	1718.25
714.10	1669.09
714.28	1746.92
714.46	1746.92
714.65	1714.15
714.83	1677.29
715.01	1701.86
715.19	1728.49
715.38	1646.57
715.56	1742.82
715.74	1679.33
715.92	1740.77
716.11	1818.60
716.29	1628.14
716.47	1718.25
716.65	1693.67
716.84	1671.14
717.02	1804.26
717.20	1578.98
717.38	1720.29
717.57	1736.68
717.75	1642.47
717.93	1626.09
718.11	1751.01
718.30	1673.19
718.48	1710.05
718.66	1771.49
718.84	1714.15
719.03	1722.34
719.21	1646.57
719.39	1794.02
719.57	1751.01
719.75	1742.82
719.94	1613.80
720.12	1708.01
720.30	1697.77
720.48	1746.92
720.67	1652.71
720.85	1681.38
721.03	1654.76
721.21	1609.70
721.39	1787.88
721.58	1812.45
721.76	1726.44
721.94	1748.97
722.12	1734.63
722.30	1796.07
722.49	1712.10
722.67	1751.01
722.85	1779.68
723.03	1605.61
723.21	1632.23
723.40	1687.53
723.58	1802.21
723.76	1839.08
723.94	1779.68
724.12	1701.86
724.30	1730.53
724.49	1722.34
724.67	1746.92
724.85	1714.15
725.03	1650.66
725.21	1734.63
725.40	1740.77
725.58	1691.62
725.76	1697.77
725.94	1769.44
726.12	1630.18
726.30	1695.72
726.49	1759.21
726.67	1705.96
726.85	1685.48
727.03	1798.12
727.21	2097.12
727.39	2928.60
727.57	3944.39
727.76	4227.01
727.94	4515.77
728.12	4401.08
728.30	3696.58
728.48	3131.34
728.66	2789.33
728.84	2508.76
729.03	2275.29
729.21	2189.28
729.39	2015.20
729.57	1761.25
729.75	1824.74
729.93	1781.73
730.11	1718.25
730.30	1695.72
730.48	1671.14
730.66	1781.73
730.84	1730.53
731.02	1722.34
731.20	1652.71
731.38	1681.38
731.56	1679.33
731.74	1708.01
731.93	1748.97
732.11	1751.01
732.29	1728.49
732.47	1730.53
732.65	1685.48
732.83	1816.55
733.01	1681.38
733.19	1685.48
733.37	1720.29
733.56	1763.30
733.74	1781.73
733.92	1763.30
734.10	1609.70
734.28	1736.68
734.46	1581.03
734.64	1640.42
734.82	1697.77
735.00	1703.91
735.18	1714.15
735.36	1769.44
735.54	1665.00
735.73	1748.97
735.91	1751.01
736.09	1771.49
736.27	1697.77
736.45	1675.24
736.63	1591.27
736.81	1615.85
736.99	1757.16
737.17	1769.44
737.35	1712.10
737.53	1724.39
737.71	1689.57
737.89	1728.49
738.07	1650.66
738.25	1628.14
738.43	1560.55
738.61	1679.33
738.80	1615.85
738.98	1628.14
739.16	1708.01
739.34	1642.47
739.52	1753.06
739.70	1662.95
739.88	1824.74
740.06	1765.35
740.24	1648.61
740.42	1791.97
740.60	1660.90
740.78	1665.00
740.96	1589.22
741.14	1724.39
741.32	1679.33
741.50	1689.57
741.68	1775.59
741.86	1736.68
742.04	1535.98
742.22	1615.85
742.40	1722.34
742.58	1781.73
742.76	1566.70
742.94	1767.40
743.12	1605.61
743.30	1591.27
743.48	1697.77
743.66	1615.85
743.84	1677.29
744.02	1673.19
744.20	1665.00
744.38	1611.75
744.56	1628.14
744.74	1783.78
744.92	1679.33
745.10	1763.30
745.28	1800.16
745.46	1677.29
745.64	1687.53
745.82	1736.68
746.00	1644.52
746.18	1720.29
746.36	1660.90
746.54	1724.39
746.72	1632.23
746.90	1677.29
747.08	1724.39
747.26	1656.81
747.44	1779.68
747.62	1732.58
747.80	1677.29
747.98	1683.43
748.15	1634.28
748.33	1787.88
748.51	1613.80
748.69	1693.67
748.87	1646.57
749.05	1634.28
749.23	1679.33
749.41	1773.54
749.59	1656.81
749.77	1736.68
749.95	1691.62
750.13	1691.62
750.31	1613.80
750.49	1697.77
750.67	1812.45
750.85	1773.54
751.03	1755.11
751.20	1763.30
751.38	1687.53
751.56	1728.49
751.74	1691.62
751.92	1632.23
752.10	1578.98
752.28	1787.88
752.46	1665.00
752.64	1665.00
752.82	1726.44
753.00	1767.40
753.18	1718.25
753.35	1669.09
753.53	1685.48
753.71	1626.09
753.89	1642.47
754.07	1607.66
754.25	1812.45
754.43	1714.15
754.61	1716.20
754.79	1820.64
754.97	1697.77
755.14	1806.31
755.32	1675.24
755.50	1630.18
755.68	1701.86
755.86	1640.42
756.04	1689.57
756.22	1695.72
756.40	1757.16
756.57	1740.77
756.75	1656.81
756.93	1787.88
757.11	1708.01
757.29	1628.14
757.47	1648.61
757.65	1615.85
757.82	1550.31
758.00	1658.85
758.18	1759.21
758.36	1656.81
758.54	1777.64
758.72	1656.81
758.90	1773.54
759.07	1693.67
759.25	1603.56
759.43	1728.49
759.61	1744.87
759.79	2150.37
759.97	1771.49
760.15	1685.48
760.32	1710.05
760.50	1744.87
760.68	1822.69
760.86	1677.29
761.04	1751.01
761.22	1734.63
761.39	1699.81
761.57	1775.59
761.75	1720.29
761.93	1730.53
762.11	1665.00
762.28	1712.10
762.46	1673.19
762.64	1687.53
762.82	1646.57
763.00	1660.90
763.18	1781.73
763.35	1667.05
763.53	1714.15
763.71	1650.66
763.89	1658.85
764.07	1746.92
764.24	1636.33
764.42	1699.81
764.60	1665.00
764.78	1699.81
764.96	1724.39
765.13	1697.77
765.31	1740.77
765.49	1720.29
765.67	1624.04
765.84	1699.81
766.02	1679.33
766.20	1626.09
766.38	1716.20
766.56	1763.30
766.73	1751.01
766.91	1746.92
767.09	1660.90
767.27	1753.06
767.44	1691.62
767.62	1822.69
767.80	1722.34
767.98	1697.77
768.15	1685.48
768.33	1722.34
768.51	1769.44
768.69	1748.97
768.87	1779.68
769.04	1671.14
769.22	1837.03
769.40	1857.51
769.58	1828.84
769.75	1740.77
769.93	1800.16
770.11	1755.11
770.28	1595.37
770.46	1765.35
770.64	1773.54
770.82	1652.71
770.99	1783.78
771.17	1712.10
771.35	1716.20
771.53	1652.71
771.70	1667.05
771.88	1718.25
772.06	1673.19
772.23	1628.14
772.41	1732.58
772.59	1697.77
772.77	1607.66
772.94	1652.71
773.12	1738.73
773.30	1681.38
773.47	1732.58
773.65	1636.33
773.83	1855.46
774.01	1744.87
774.18	1611.75
774.36	1671.14
774.54	1654.76
774.71	1734.63
774.89	1621.99
775.07	1689.57
775.24	1705.96
775.42	1650.66
775.60	1796.07
775.78	1638.38
775.95	1650.66
776.13	1691.62
776.31	1615.85
776.48	1681.38
776.66	1724.39
776.84	1761.25
777.01	1691.62
777.19	1667.05
777.37	1656.81
777.54	1683.43
777.72	1781.73
777.90	1746.92
778.07	1699.81
778.25	1896.42
778.43	1767.40
778.60	1710.05
778.78	1730.53
778.96	1789.92
779.13	1648.61
779.31	1726.44
779.49	1710.05
779.66	1615.85
779.84	1730.53
780.01	1652.71
780.19	1726.44
780.37	1728.49
780.54	1798.12
780.72	1722.34
780.90	1665.00
781.07	1683.43
781.25	1730.53
781.43	1730.53
781.60	1701.86
781.78	1759.21
781.95	1730.53
782.13	1695.72
782.31	1609.70
782.48	1595.37
782.66	1761.25
782.83	1783.78
783.01	1691.62
783.19	1724.39
783.36	1779.68
783.54	1708.01
783.72	1746.92
783.89	1667.05
784.07	1712.10
784.24	1800.16
784.42	1796.07
784.60	1726.44
784.77	1697.77
784.95	1538.02
785.12	1722.34
785.30	1724.39
785.47	1718.25
785.65	1691.62
785.83	1730.53
786.00	1638.38
786.18	1789.92
786.35	1681.38
786.53	1720.29
786.71	1755.11
786.88	1757.16
787.06	1665.00
787.23	1626.09
787.41	1673.19
787.58	1742.82
787.76	1572.84
787.94	1603.56
788.11	1703.91
788.29	1681.38
788.46	1683.43
788.64	1611.75
788.81	1665.00
788.99	1652.71
789.16	1681.38
789.34	1681.38
789.52	1615.85
789.69	1691.62
789.87	1605.61
790.04	1701.86
790.22	1765.35
790.39	1843.17
790.57	1630.18
790.74	1699.81
790.92	1738.73
791.09	1599.46
791.27	1726.44
791.44	1816.55
791.62	1724.39
791.79	1748.97
791.97	1665.00
792.15	1941.47
792.32	1705.96
792.50	1755.11
792.67	1748.97
792.85	1685.48
793.02	1738.73
793.20	1697.77
793.37	1597.42
793.55	1685.48
793.72	1644.52
793.90	1683.43
794.07	1599.46
794.25	1660.90
794.42	1742.82
794.60	1681.38
794.77	1701.86
794.95	1724.39
795.12	1755.11
795.30	1683.43
795.47	1581.03
795.65	1822.69
795.82	1761.25
796.00	1650.66
796.17	1734.63
796.34	1697.77
796.52	1748.97
796.69	1681.38
796.87	1781.73
797.04	1775.59
797.22	1722.34
797.39	1693.67
797.57	1740.77
797.74	1665.00
797.92	1755.11
798.09	1632.23
798.27	1728.49
798.44	1730.53
798.62	1626.09
798.79	1701.86
798.96	1761.25
799.14	1640.42
799.31	1931.23
799.49	1685.48
799.66	1697.77
799.84	1683.43
800.01	1667.05
800.19	1654.76
800.36	1605.61
800.53	1646.57
800.71	1720.29
800.88	1812.45
801.06	1624.04
801.23	1605.61
801.41	1675.24
801.58	1675.24
801.75	1665.00
801.93	1732.58
802.10	1677.29
802.28	1609.70
802.45	1615.85
802.63	1683.43
802.80	1757.16
802.97	1714.15
803.15	1695.72
803.32	1718.25
803.50	1656.81
803.67	1691.62
803.84	1621.99
804.02	1738.73
804.19	1626.09
804.37	1538.02
804.54	1642.47
804.71	1691.62
804.89	1669.09
805.06	1667.05
805.24	1636.33
805.41	1615.85
805.58	1679.33
805.76	1882.08
805.93	1699.81
806.10	1714.15
806.28	1765.35
806.45	1740.77
806.63	1662.95
806.80	1671.14
806.97	1724.39
807.15	1740.77
807.32	1681.38
807.49	1724.39
807.67	1693.67
807.84	1791.97
808.01	1644.52
808.19	1765.35
808.36	1748.97
808.54	1671.14
808.71	1665.00
808.88	1673.19
809.06	1738.73
809.23	1818.60
809.40	1710.05
809.58	1759.21
809.75	1710.05
809.92	1685.48
810.10	1875.94
810.27	1734.63
810.44	1763.30
810.62	1755.11
810.79	1675.24
810.96	1621.99
811.14	1593.32
811.31	1794.02
811.48	1648.61
811.66	1652.71
811.83	1740.77
812.00	1746.92
812.18	1710.05
812.35	1759.21
812.52	1710.05
812.69	1714.15
812.87	1699.81
813.04	1640.42
813.21	1652.71
813.39	1708.01
813.56	1679.33
813.73	1730.53
813.91	1591.27
814.08	1734.63
814.25	1681.38
814.42	1593.32
814.60	1689.57
814.77	1701.86
814.94	1650.66
815.12	1728.49
815.29	1771.49
815.46	1724.39
815.63	1779.68
815.81	1689.57
815.98	1697.77
816.15	1644.52
816.33	1753.06
816.50	1667.05
816.67	1701.86
816.84	1724.39
817.02	1626.09
817.19	1718.25
817.36	1646.57
817.53	1730.53
817.71	1652.71
817.88	1736.68
818.05	1689.57
818.22	1624.04
818.40	1804.26
818.57	1738.73
818.74	1685.48
818.91	1712.10
819.09	1669.09
819.26	1728.49
819.43	1714.15
819.60	1648.61
819.78	1703.91
819.95	1755.11
820.12	1617.90
820.29	1810.40
820.47	1726.44
820.64	1677.29
820.81	1630.18
820.98	1605.61
821.15	1675.24
821.33	1681.38
821.50	1578.98
821.67	1744.87
821.84	1667.05
822.02	1726.44
822.19	1716.20
822.36	1681.38
822.53	1726.44
822.70	1566.70
822.88	1789.92
823.05	1849.32
823.22	1714.15
823.39	1691.62
823.56	1751.01
823.74	1789.92
823.91	1640.42
824.08	1607.66
824.25	1640.42
824.42	1748.97
824.60	1642.47
824.77	1714.15
824.94	1677.29
825.11	1734.63
825.28	1630.18
825.45	1640.42
825.63	1697.77
825.80	1628.14
825.97	1783.78
826.14	1675.24
826.31	1589.22
826.48	1695.72
826.66	1685.48
826.83	1642.47
827.00	1761.25
827.17	1671.14
827.34	1634.28
827.51	1658.85
827.69	1746.92
827.86	1624.04
828.03	1650.66
828.20	1701.86
828.37	1613.80
828.54	1736.68
828.71	1642.47
828.89	1818.60
829.06	1767.40
829.23	1869.80
829.40	1687.53
829.57	1601.51
829.74	1716.20
829.91	1693.67
830.09	1601.51
830.26	1693.67
830.43	1751.01
830.60	1675.24
830.77	1705.96
830.94	1691.62
831.11	1765.35
831.28	1699.81
831.46	1802.21
831.63	1722.34
831.80	1751.01
831.97	1646.57
832.14	1628.14
832.31	1667.05
832.48	1660.90
832.65	1726.44
832.82	1740.77
832.99	1687.53
833.17	1728.49
833.34	1701.86
833.51	1710.05
833.68	1656.81
833.85	1712.10
834.02	1603.56
834.19	1656.81
834.36	1681.38
834.53	1662.95
834.70	1820.64
834.87	1808.36
835.04	1660.90
835.22	1636.33
835.39	1685.48
835.56	1654.76
835.73	1632.23
835.90	1757.16
836.07	1621.99
836.24	1746.92
836.41	1677.29
836.58	1689.57
836.75	1724.39
836.92	1755.11
837.09	1716.20
837.26	1654.76
837.43	1665.00
837.60	1765.35
837.77	1683.43
837.94	1679.33
838.12	1720.29
838.29	1654.76
838.46	1667.05
838.63	1652.71
838.80	1712.10
838.97	1681.38
839.14	1693.67
839.31	1738.73
839.48	1751.01
839.65	1710.05
839.82	1783.78
839.99	1662.95
840.16	1736.68
840.33	1701.86
840.50	1708.01
840.67	1728.49
840.84	1595.37
841.01	1691.62
841.18	1703.91
841.35	1656.81
841.52	1708.01
841.69	1726.44
841.86	1722.34
842.03	1644.52
842.20	1652.71
842.37	1697.77
842.54	1695.72
842.71	1730.53
842.88	1660.90
843.05	1720.29
843.22	1669.09
843.39	1705.96
843.56	1609.70
843.73	1722.34
843.90	1800.16
844.07	1638.38
844.24	1701.86
844.41	1681.38
844.58	1697.77
844.75	1718.25
844.92	1730.53
845.09	1744.87
845.26	1685.48
845.43	1753.06
845.60	1634.28
845.77	1746.92
845.94	1699.81
846.10	1724.39
846.27	1605.61
846.44	1638.38
846.61	1660.90
846.78	1730.53
846.95	1755.11
847.12	1697.77
847.29	1718.25
847.46	1695.72
847.63	1818.60
847.80	1687.53
847.97	1648.61
848.14	1851.36
848.31	1683.43
848.48	1662.95
848.65	1783.78
848.82	1703.91
848.98	1820.64
849.15	1720.29
849.32	1808.36
849.49	1775.59
849.66	1697.77
849.83	1783.78
850.00	1652.71
850.17	1671.14
850.34	1705.96
850.51	1671.14
850.68	1611.75
850.85	1794.02
851.01	1705.96
851.18	1787.88
851.35	1685.48
851.52	1712.10
851.69	1775.59
851.86	1591.27
852.03	1611.75
852.20	1787.88
852.37	1689.57
852.53	1599.46
852.70	1716.20
852.87	1652.71
853.04	1728.49
853.21	1581.03
853.38	1728.49
853.55	1777.64
853.72	1687.53
853.89	1638.38
854.05	1710.05
854.22	1648.61
854.39	1695.72
854.56	1736.68
854.73	1806.31
854.90	1660.90
855.07	1648.61
855.23	1636.33
855.40	1693.67
855.57	1699.81
855.74	1566.70
855.91	1853.41
856.08	1665.00
856.25	1564.65
856.41	1642.47
856.58	1703.91
856.75	1693.67
856.92	1736.68
857.09	1765.35
857.26	1591.27
857.42	1683.43
857.59	1738.73
857.76	1681.38
857.93	1683.43
858.10	1669.09
858.27	1671.14
858.43	1669.09
858.60	1648.61
858.77	1654.76
858.94	1648.61
859.11	1636.33
859.27	1665.00
859.44	1683.43
859.61	1755.11
859.78	1751.01
859.95	1638.38
860.12	1681.38
860.28	1779.68
860.45	1703.91
860.62	1638.38
860.79	1689.57
860.95	1671.14
861.12	1681.38
861.29	1712.10
861.46	1683.43
861.63	1628.14
861.79	1759.21
861.96	1591.27
862.13	1720.29
862.30	1673.19
862.47	1576.94
862.63	1570.79
862.80	1724.39
862.97	1751.01
863.14	1728.49
863.30	1732.58
863.47	1626.09
863.64	1683.43
863.81	1742.82
863.97	1730.53
864.14	1691.62
864.31	1628.14
864.48	1658.85
864.65	1673.19
864.81	1839.08
864.98	1761.25
865.15	1697.77
865.32	1748.97
865.48	1742.82
865.65	1773.54
865.82	1656.81
865.98	1708.01
866.15	1804.26
866.32	1681.38
866.49	1701.86
866.65	1789.92
866.82	1605.61
866.99	1791.97
867.16	1748.97
867.32	1679.33
867.49	1730.53
867.66	1697.77
867.83	1746.92
867.99	1591.27
868.16	1644.52
868.33	1628.14
868.49	1714.15
868.66	1658.85
868.83	1748.97
868.99	1675.24
869.16	1794.02
869.33	1777.64
869.50	1751.01
869.66	1677.29
869.83	1673.19
870.00	1640.42
870.16	1769.44
870.33	1712.10
870.50	1722.34
870.66	1748.97
870.83	1775.59
871.00	1703.91
871.17	1738.73
871.33	1771.49
871.50	1699.81
871.67	1691.62
871.83	1687.53
872.00	1841.12
872.17	1705.96
872.33	1865.70
872.50	1652.71
872.67	1738.73
872.83	1650.66
873.00	1703.91
873.17	1705.96
873.33	1693.67
873.50	1753.06
873.67	1748.97
873.83	1667.05
874.00	1718.25
874.16	1789.92
874.33	1703.91
874.50	1607.66
874.66	1689.57
874.83	1652.71
875.00	1751.01
875.16	1814.50
875.33	1730.53
875.50	1621.99
875.66	1669.09
875.83	1718.25
875.99	1738.73
876.16	1738.73
876.33	1615.85
876.49	1695.72
876.66	1716.20
876.83	1716.20
876.99	1626.09
877.16	1691.62
877.32	1683.43
877.49	1669.09
877.66	1691.62
877.82	1779.68
877.99	1703.91
878.15	1753.06
878.32	1755.11
878.49	1656.81
878.65	1691.62
878.82	1787.88
878.98	1669.09
879.15	1746.92
879.32	1757.16
879.48	1771.49
879.65	1662.95
879.81	1673.19
879.98	1648.61
880.15	1783.78
880.31	1730.53
880.48	1675.24
880.64	1781.73
880.81	1695.72
880.97	1796.07
881.14	1701.86
881.31	1662.95
881.47	1798.12
881.64	1646.57
881.80	1583.08
881.97	1736.68
882.13	1697.77
882.30	1712.10
882.47	1738.73
882.63	1656.81
882.80	1634.28
882.96	1705.96
883.13	1757.16
883.29	1689.57
883.46	1753.06
883.62	1789.92
883.79	1730.53
883.95	1701.86
884.12	1683.43
884.29	1777.64
884.45	1677.29
884.62	1785.83
884.78	1621.99
884.95	1837.03
885.11	1662.95
885.28	1730.53
885.44	1732.58
885.61	1642.47
885.77	1849.32
885.94	1789.92
886.10	1701.86
886.27	1660.90
886.43	1726.44
886.60	1722.34
886.76	1644.52
886.93	1652.71
887.09	1740.77
887.26	1695.72
887.42	1656.81
887.59	1783.78
887.75	1822.69
887.92	1863.65
888.08	1751.01
888.25	1822.69
888.41	1660.90
888.58	1748.97
888.74	1648.61
888.91	1662.95
>>>>>End Processed Spectral Data<<<<<
