SpectraSuite Data File
++++++++++++++++++++++++++++++++++++
Date: Mon Jun 06 16:11:17 CEST 2016
User: root
Dark Spectrum Present: No
Reference Spectrum Present: No
Number of Sampled Component Spectra: 1
Spectrometers: USB4C02835
Integration Time (usec): 100000 (USB4C02835)
Spectra Averaged: 1 (USB4C02835)
Boxcar Smoothing: 0 (USB4C02835)
Correct for Electrical Dark: No (USB4C02835)
Strobe/Lamp Enabled: No (USB4C02835)
Correct for Detector Non-linearity: No (USB4C02835)
Correct for Stray Light: No (USB4C02835)
Number of Pixels in Processed Spectrum: 3648
>>>>>Begin Processed Spectral Data<<<<<
177.47	1452.01
177.69	1452.01
177.91	1452.01
178.13	1505.26
178.36	1468.39
178.58	1656.81
178.80	1697.77
179.02	1621.99
179.24	1736.68
179.46	1662.95
179.68	1679.33
179.90	1708.01
180.13	1712.10
180.35	1675.24
180.57	1650.66
180.79	1740.77
181.01	1685.48
181.23	1769.44
181.45	1775.59
181.67	1705.96
181.90	1722.34
182.12	1785.83
182.34	1624.04
182.56	1732.58
182.78	1732.58
183.00	1728.49
183.22	1720.29
183.44	1576.94
183.66	1900.52
183.89	1742.82
184.11	1732.58
184.33	1689.57
184.55	1808.36
184.77	1748.97
184.99	1746.92
185.21	1667.05
185.43	1865.70
185.65	1734.63
185.87	1742.82
186.10	1826.79
186.32	1853.41
186.54	1648.61
186.76	1687.53
186.98	1726.44
187.20	1693.67
187.42	1726.44
187.64	1742.82
187.86	1734.63
188.08	1716.20
188.30	1720.29
188.52	1710.05
188.75	1697.77
188.97	1734.63
189.19	1724.39
189.41	1689.57
189.63	1730.53
189.85	1804.26
190.07	1662.95
190.29	1648.61
190.51	1679.33
190.73	1591.27
190.95	1826.79
191.17	1746.92
191.39	1691.62
191.61	1652.71
191.84	1652.71
192.06	1712.10
192.28	1636.33
192.50	1886.18
192.72	1738.73
192.94	1705.96
193.16	1697.77
193.38	1728.49
193.60	1617.90
193.82	1677.29
194.04	1794.02
194.26	1724.39
194.48	1683.43
194.70	1650.66
194.92	1624.04
195.14	1822.69
195.36	1695.72
195.58	1695.72
195.80	1730.53
196.02	1656.81
196.24	1681.38
196.46	1697.77
196.69	1595.37
196.91	1826.79
197.13	1615.85
197.35	1638.38
197.57	1759.21
197.79	1701.86
198.01	1693.67
198.23	1710.05
198.45	1849.32
198.67	1722.34
198.89	1738.73
199.11	1740.77
199.33	1660.90
199.55	1642.47
199.77	1771.49
199.99	1787.88
200.21	1794.02
200.43	1716.20
200.65	1646.57
200.87	1675.24
201.09	1716.20
201.31	1665.00
201.53	1816.55
201.75	1718.25
201.97	1673.19
202.19	1693.67
202.41	1800.16
202.63	1812.45
202.85	1775.59
203.07	1660.90
203.29	1675.24
203.51	1650.66
203.73	1683.43
203.95	1863.65
204.17	1775.59
204.39	1779.68
204.61	1779.68
204.83	1683.43
205.05	1738.73
205.27	1751.01
205.49	1832.93
205.71	1701.86
205.93	1650.66
206.15	1710.05
206.37	1761.25
206.59	1687.53
206.81	1679.33
207.03	1652.71
207.25	1712.10
207.47	1802.21
207.69	1650.66
207.91	1791.97
208.13	1804.26
208.34	1675.24
208.56	1683.43
208.78	1765.35
209.00	1677.29
209.22	1699.81
209.44	1728.49
209.66	1636.33
209.88	1728.49
210.10	1699.81
210.32	1763.30
210.54	1861.60
210.76	1726.44
210.98	1783.78
211.20	1597.42
211.42	1632.23
211.64	1775.59
211.86	1705.96
212.08	1734.63
212.30	1671.14
212.52	1730.53
212.74	1767.40
212.96	1722.34
213.17	1748.97
213.39	1734.63
213.61	1845.22
213.83	1789.92
214.05	1626.09
214.27	1800.16
214.49	1730.53
214.71	1677.29
214.93	1714.15
215.15	1677.29
215.37	1794.02
215.59	1693.67
215.81	1695.72
216.03	1806.31
216.24	1720.29
216.46	1656.81
216.68	1726.44
216.90	1703.91
217.12	1753.06
217.34	1812.45
217.56	1761.25
217.78	1777.64
218.00	1806.31
218.22	1775.59
218.44	1728.49
218.66	1636.33
218.87	1841.12
219.09	1732.58
219.31	1800.16
219.53	1751.01
219.75	1613.80
219.97	1718.25
220.19	1714.15
220.41	1669.09
220.63	1761.25
220.85	1791.97
221.06	1708.01
221.28	1769.44
221.50	1746.92
221.72	1755.11
221.94	1730.53
222.16	1724.39
222.38	1755.11
222.60	1804.26
222.82	1736.68
223.03	1722.34
223.25	1726.44
223.47	1738.73
223.69	1822.69
223.91	1806.31
224.13	1710.05
224.35	1691.62
224.57	1777.64
224.78	1755.11
225.00	1636.33
225.22	1769.44
225.44	1740.77
225.66	1714.15
225.88	1703.91
226.10	1837.03
226.32	1755.11
226.53	1828.84
226.75	1652.71
226.97	1679.33
227.19	1787.88
227.41	1681.38
227.63	1710.05
227.85	1640.42
228.06	1730.53
228.28	1730.53
228.50	1718.25
228.72	1681.38
228.94	1732.58
229.16	1714.15
229.37	1656.81
229.59	1687.53
229.81	1849.32
230.03	1740.77
230.25	1624.04
230.47	1630.18
230.69	1669.09
230.90	1779.68
231.12	1781.73
231.34	1736.68
231.56	1744.87
231.78	1689.57
232.00	1724.39
232.21	1685.48
232.43	1822.69
232.65	1644.52
232.87	1701.86
233.09	1701.86
233.30	1648.61
233.52	1779.68
233.74	1665.00
233.96	1626.09
234.18	1738.73
234.40	1718.25
234.61	1818.60
234.83	1624.04
235.05	1679.33
235.27	1849.32
235.49	1779.68
235.70	1705.96
235.92	1767.40
236.14	1767.40
236.36	1873.89
236.58	1722.34
236.79	1748.97
237.01	1578.98
237.23	1662.95
237.45	1808.36
237.67	1716.20
237.88	1720.29
238.10	1863.65
238.32	1712.10
238.54	1701.86
238.76	1736.68
238.97	1660.90
239.19	1673.19
239.41	1748.97
239.63	1814.50
239.85	1703.91
240.06	1693.67
240.28	1734.63
240.50	1773.54
240.72	1773.54
240.93	1695.72
241.15	1781.73
241.37	1630.18
241.59	1845.22
241.81	1669.09
242.02	1722.34
242.24	1781.73
242.46	1753.06
242.68	1734.63
242.89	1705.96
243.11	1785.83
243.33	1755.11
243.55	1763.30
243.76	1742.82
243.98	1675.24
244.20	1804.26
244.42	1712.10
244.64	1742.82
244.85	1695.72
245.07	1734.63
245.29	1708.01
245.51	1742.82
245.72	1714.15
245.94	1710.05
246.16	1730.53
246.38	1720.29
246.59	1716.20
246.81	1658.85
247.03	1779.68
247.24	1617.90
247.46	1673.19
247.68	1775.59
247.90	1765.35
248.11	1699.81
248.33	1744.87
248.55	1775.59
248.77	1720.29
248.98	1783.78
249.20	1822.69
249.42	1716.20
249.64	1808.36
249.85	1699.81
250.07	1689.57
250.29	1742.82
250.50	1746.92
250.72	1730.53
250.94	1687.53
251.16	1775.59
251.37	1753.06
251.59	1773.54
251.81	1830.88
252.02	1791.97
252.24	1673.19
252.46	1822.69
252.68	1648.61
252.89	1626.09
253.11	1648.61
253.33	1796.07
253.54	1708.01
253.76	1644.52
253.98	1675.24
254.20	1742.82
254.41	1660.90
254.63	1720.29
254.85	1658.85
255.06	1740.77
255.28	1685.48
255.50	1611.75
255.71	1667.05
255.93	1665.00
256.15	1742.82
256.36	1761.25
256.58	1644.52
256.80	1759.21
257.02	1720.29
257.23	1740.77
257.45	1689.57
257.67	1718.25
257.88	1648.61
258.10	1763.30
258.32	1726.44
258.53	1699.81
258.75	1834.98
258.97	1689.57
259.18	1730.53
259.40	1691.62
259.62	1808.36
259.83	1894.37
260.05	1720.29
260.27	1994.72
260.48	1789.92
260.70	1673.19
260.92	1738.73
261.13	1738.73
261.35	1716.20
261.57	1724.39
261.78	1662.95
262.00	1671.14
262.22	1726.44
262.43	1660.90
262.65	1681.38
262.86	1697.77
263.08	1851.36
263.30	1746.92
263.51	1636.33
263.73	1691.62
263.95	1820.64
264.16	1683.43
264.38	1611.75
264.60	1683.43
264.81	1617.90
265.03	1818.60
265.25	1691.62
265.46	1738.73
265.68	1851.36
265.89	1746.92
266.11	1640.42
266.33	1798.12
266.54	1761.25
266.76	1736.68
266.98	1705.96
267.19	1798.12
267.41	1818.60
267.62	1683.43
267.84	1613.80
268.06	1787.88
268.27	1667.05
268.49	1771.49
268.70	1736.68
268.92	1763.30
269.14	1703.91
269.35	1638.38
269.57	1650.66
269.79	1769.44
270.00	1738.73
270.22	1794.02
270.43	1740.77
270.65	1581.03
270.87	1738.73
271.08	1789.92
271.30	1718.25
271.51	1714.15
271.73	1773.54
271.95	1791.97
272.16	1730.53
272.38	1763.30
272.59	1738.73
272.81	1677.29
273.02	1724.39
273.24	1779.68
273.46	1802.21
273.67	1656.81
273.89	1751.01
274.10	1667.05
274.32	1839.08
274.54	1761.25
274.75	1691.62
274.97	1615.85
275.18	1744.87
275.40	1767.40
275.61	1714.15
275.83	1699.81
276.05	1644.52
276.26	1675.24
276.48	1714.15
276.69	1728.49
276.91	1619.94
277.12	1757.16
277.34	1726.44
277.55	1781.73
277.77	1740.77
277.99	1671.14
278.20	1662.95
278.42	1648.61
278.63	1705.96
278.85	1599.46
279.06	1660.90
279.28	1703.91
279.49	1837.03
279.71	1726.44
279.93	1710.05
280.14	1732.58
280.36	1665.00
280.57	1744.87
280.79	1777.64
281.00	1665.00
281.22	1679.33
281.43	1798.12
281.65	1603.56
281.86	1693.67
282.08	1808.36
282.29	1787.88
282.51	1642.47
282.73	1701.86
282.94	1615.85
283.16	1802.21
283.37	1800.16
283.59	1785.83
283.80	1734.63
284.02	1701.86
284.23	1736.68
284.45	1701.86
284.66	1718.25
284.88	1710.05
285.09	1759.21
285.31	1748.97
285.52	1736.68
285.74	1675.24
285.95	1734.63
286.17	1732.58
286.38	1712.10
286.60	1697.77
286.81	1617.90
287.03	1685.48
287.24	1703.91
287.46	1773.54
287.67	1652.71
287.89	1894.37
288.10	1699.81
288.32	1712.10
288.53	1667.05
288.75	1722.34
288.96	1712.10
289.18	1638.38
289.39	1714.15
289.61	1841.12
289.82	1785.83
290.04	1820.64
290.25	1716.20
290.47	1775.59
290.68	1753.06
290.90	1830.88
291.11	1603.56
291.33	1736.68
291.54	1648.61
291.76	1697.77
291.97	1697.77
292.18	1802.21
292.40	1697.77
292.61	1656.81
292.83	1894.37
293.04	1757.16
293.26	1673.19
293.47	1798.12
293.69	1673.19
293.90	1751.01
294.12	1767.40
294.33	1691.62
294.55	1689.57
294.76	1759.21
294.97	1779.68
295.19	1849.32
295.40	1597.42
295.62	1669.09
295.83	1728.49
296.05	1634.28
296.26	1744.87
296.48	1628.14
296.69	1687.53
296.90	1718.25
297.12	1751.01
297.33	1744.87
297.55	1734.63
297.76	1769.44
297.98	1716.20
298.19	1695.72
298.41	1730.53
298.62	1609.70
298.83	1783.78
299.05	1751.01
299.26	1699.81
299.48	1695.72
299.69	1783.78
299.90	1722.34
300.12	1671.14
300.33	1824.74
300.55	1697.77
300.76	1742.82
300.98	1675.24
301.19	1730.53
301.40	1701.86
301.62	1687.53
301.83	1679.33
302.05	1675.24
302.26	1742.82
302.47	1779.68
302.69	1695.72
302.90	1716.20
303.12	1638.38
303.33	1771.49
303.54	1843.17
303.76	1669.09
303.97	1763.30
304.19	1806.31
304.40	1683.43
304.61	1751.01
304.83	1804.26
305.04	1787.88
305.26	1802.21
305.47	1650.66
305.68	1796.07
305.90	1658.85
306.11	1787.88
306.33	1681.38
306.54	1640.42
306.75	1714.15
306.97	1605.61
307.18	1724.39
307.39	1669.09
307.61	1738.73
307.82	1691.62
308.04	1757.16
308.25	1652.71
308.46	1660.90
308.68	1660.90
308.89	1667.05
309.10	1718.25
309.32	1679.33
309.53	1679.33
309.74	1736.68
309.96	1710.05
310.17	1791.97
310.39	1673.19
310.60	1773.54
310.81	1681.38
311.03	1705.96
311.24	1708.01
311.45	1740.77
311.67	1775.59
311.88	1746.92
312.09	1652.71
312.31	1691.62
312.52	1738.73
312.73	1720.29
312.95	1617.90
313.16	1720.29
313.37	1812.45
313.59	1722.34
313.80	1697.77
314.01	1783.78
314.23	1722.34
314.44	1665.00
314.65	1701.86
314.87	1632.23
315.08	1744.87
315.29	1646.57
315.51	1677.29
315.72	1613.80
315.93	1904.61
316.15	1732.58
316.36	1677.29
316.57	1783.78
316.79	1775.59
317.00	1656.81
317.21	1669.09
317.43	1742.82
317.64	1650.66
317.85	1708.01
318.07	1644.52
318.28	1730.53
318.49	1785.83
318.70	1916.90
318.92	1806.31
319.13	1822.69
319.34	1886.18
319.56	1822.69
319.77	1832.93
319.98	1820.64
320.20	1763.30
320.41	1794.02
320.62	1791.97
320.83	1660.90
321.05	1896.42
321.26	1746.92
321.47	1734.63
321.69	1767.40
321.90	1601.51
322.11	1703.91
322.32	1748.97
322.54	1740.77
322.75	1671.14
322.96	1826.79
323.18	1710.05
323.39	1542.12
323.60	1665.00
323.81	1736.68
324.03	1660.90
324.24	1730.53
324.45	1722.34
324.66	1699.81
324.88	1720.29
325.09	1839.08
325.30	1740.77
325.52	1720.29
325.73	1669.09
325.94	1662.95
326.15	1638.38
326.37	1609.70
326.58	1787.88
326.79	1869.80
327.00	1638.38
327.22	1701.86
327.43	1708.01
327.64	1693.67
327.85	1806.31
328.07	1699.81
328.28	1757.16
328.49	1705.96
328.70	1640.42
328.92	1746.92
329.13	1695.72
329.34	1716.20
329.55	1779.68
329.76	1726.44
329.98	1695.72
330.19	1765.35
330.40	1742.82
330.61	1759.21
330.83	1769.44
331.04	1683.43
331.25	1722.34
331.46	1667.05
331.68	1628.14
331.89	1736.68
332.10	1744.87
332.31	1652.71
332.52	1673.19
332.74	1783.78
332.95	1630.18
333.16	1722.34
333.37	1816.55
333.58	1685.48
333.80	1683.43
334.01	1583.08
334.22	1679.33
334.43	1693.67
334.64	1679.33
334.86	1613.80
335.07	1710.05
335.28	1730.53
335.49	1564.65
335.70	1796.07
335.92	1701.86
336.13	1824.74
336.34	1734.63
336.55	1673.19
336.76	1710.05
336.98	1607.66
337.19	1787.88
337.40	1810.40
337.61	1755.11
337.82	1673.19
338.04	1818.60
338.25	1646.57
338.46	1650.66
338.67	1789.92
338.88	1662.95
339.09	1632.23
339.31	1689.57
339.52	1689.57
339.73	1691.62
339.94	1673.19
340.15	1779.68
340.36	1673.19
340.58	1742.82
340.79	1677.29
341.00	1783.78
341.21	1705.96
341.42	1785.83
341.63	1671.14
341.85	1738.73
342.06	1742.82
342.27	1595.37
342.48	1759.21
342.69	1669.09
342.90	1681.38
343.12	1742.82
343.33	1765.35
343.54	1714.15
343.75	1787.88
343.96	1671.14
344.17	1581.03
344.38	1798.12
344.60	1626.09
344.81	1697.77
345.02	1775.59
345.23	1740.77
345.44	1794.02
345.65	1759.21
345.86	1714.15
346.07	1695.72
346.29	1679.33
346.50	1783.78
346.71	1716.20
346.92	1775.59
347.13	1779.68
347.34	1740.77
347.55	1699.81
347.76	1689.57
347.98	1591.27
348.19	1697.77
348.40	1734.63
348.61	1669.09
348.82	1804.26
349.03	1806.31
349.24	1675.24
349.45	1781.73
349.66	1544.17
349.88	1753.06
350.09	1685.48
350.30	1845.22
350.51	1794.02
350.72	1839.08
350.93	1753.06
351.14	1665.00
351.35	1673.19
351.56	1755.11
351.77	1798.12
351.99	1712.10
352.20	1757.16
352.41	1796.07
352.62	1615.85
352.83	1697.77
353.04	1720.29
353.25	1714.15
353.46	1814.50
353.67	1767.40
353.88	1613.80
354.09	1718.25
354.30	1726.44
354.52	1798.12
354.73	1693.67
354.94	1675.24
355.15	1734.63
355.36	1777.64
355.57	1619.94
355.78	1759.21
355.99	1626.09
356.20	1712.10
356.41	1732.58
356.62	1722.34
356.83	1730.53
357.04	1759.21
357.25	1652.71
357.46	1644.52
357.68	1632.23
357.89	1679.33
358.10	1765.35
358.31	1722.34
358.52	1714.15
358.73	1671.14
358.94	1701.86
359.15	1677.29
359.36	1693.67
359.57	1679.33
359.78	1742.82
359.99	1765.35
360.20	1671.14
360.41	1759.21
360.62	1703.91
360.83	1722.34
361.04	1734.63
361.25	1769.44
361.46	1767.40
361.67	1740.77
361.88	1728.49
362.09	1767.40
362.30	1716.20
362.51	1683.43
362.72	1751.01
362.93	1710.05
363.14	1732.58
363.35	1728.49
363.56	1621.99
363.78	1857.51
363.99	1822.69
364.20	1689.57
364.41	1789.92
364.62	1761.25
364.83	1722.34
365.04	1681.38
365.25	1734.63
365.46	1898.47
365.67	1611.75
365.88	1652.71
366.09	1683.43
366.30	1708.01
366.51	1656.81
366.72	1603.56
366.93	1693.67
367.14	1763.30
367.35	1806.31
367.56	1726.44
367.77	1785.83
367.98	1742.82
368.18	1755.11
368.39	1767.40
368.60	1689.57
368.81	1814.50
369.02	1746.92
369.23	1710.05
369.44	1572.84
369.65	1744.87
369.86	1765.35
370.07	1755.11
370.28	1603.56
370.49	1716.20
370.70	1753.06
370.91	1636.33
371.12	1630.18
371.33	1757.16
371.54	1605.61
371.75	1839.08
371.96	1548.26
372.17	1705.96
372.38	1679.33
372.59	1738.73
372.80	1783.78
373.01	1621.99
373.22	1714.15
373.43	1726.44
373.64	1701.86
373.85	1804.26
374.06	1906.66
374.26	1763.30
374.47	1734.63
374.68	1847.27
374.89	1710.05
375.10	1730.53
375.31	1710.05
375.52	1777.64
375.73	1708.01
375.94	1628.14
376.15	1822.69
376.36	1617.90
376.57	1603.56
376.78	1669.09
376.99	1726.44
377.20	1787.88
377.40	1712.10
377.61	1834.98
377.82	1665.00
378.03	1837.03
378.24	1671.14
378.45	1691.62
378.66	1771.49
378.87	1587.18
379.08	1634.28
379.29	1712.10
379.50	1753.06
379.71	1703.91
379.91	1818.60
380.12	1703.91
380.33	1722.34
380.54	1800.16
380.75	1677.29
380.96	1683.43
381.17	1783.78
381.38	1746.92
381.59	1708.01
381.80	1755.11
382.00	1873.89
382.21	1771.49
382.42	1804.26
382.63	1918.95
382.84	1818.60
383.05	1748.97
383.26	1746.92
383.47	1751.01
383.68	1806.31
383.88	1777.64
384.09	1798.12
384.30	1832.93
384.51	1751.01
384.72	1691.62
384.93	1640.42
385.14	1800.16
385.35	1771.49
385.55	1646.57
385.76	1746.92
385.97	1691.62
386.18	1636.33
386.39	1722.34
386.60	1730.53
386.81	1724.39
387.02	1671.14
387.22	1636.33
387.43	1748.97
387.64	1806.31
387.85	1945.57
388.06	2220.00
388.27	4093.89
388.48	6723.48
388.68	8298.37
388.89	9615.21
389.10	9752.43
389.31	8572.80
389.52	7591.82
389.73	6748.06
389.93	6211.49
390.14	5900.20
390.35	5289.90
390.56	4640.70
390.77	3801.03
390.98	3065.81
391.18	2543.58
391.39	2111.46
391.60	1796.07
391.81	1859.56
392.02	1759.21
392.23	1898.47
392.43	1665.00
392.64	1904.61
392.85	1720.29
393.06	1861.60
393.27	1740.77
393.47	1748.97
393.68	1708.01
393.89	1703.91
394.10	1781.73
394.31	1710.05
394.52	1656.81
394.72	1742.82
394.93	1765.35
395.14	1746.92
395.35	1781.73
395.56	1699.81
395.76	1708.01
395.97	1767.40
396.18	1894.37
396.39	1808.36
396.60	1964.00
396.80	1925.09
397.01	1908.71
397.22	1806.31
397.43	1877.99
397.64	1691.62
397.84	1834.98
398.05	1804.26
398.26	1708.01
398.47	1869.80
398.67	1779.68
398.88	1796.07
399.09	1730.53
399.30	1662.95
399.51	1773.54
399.71	1624.04
399.92	1732.58
400.13	1775.59
400.34	1720.29
400.54	1740.77
400.75	1826.79
400.96	1730.53
401.17	1796.07
401.37	1773.54
401.58	1769.44
401.79	1767.40
402.00	1843.17
402.21	1990.63
402.41	1927.14
402.62	1994.72
402.83	2035.68
403.04	1947.62
403.24	2099.17
403.45	1843.17
403.66	1910.75
403.87	1902.56
404.07	1918.95
404.28	1882.08
404.49	1877.99
404.70	1787.88
404.90	1763.30
405.11	1822.69
405.32	1726.44
405.52	1646.57
405.73	1701.86
405.94	1642.47
406.15	1757.16
406.35	1816.55
406.56	1746.92
406.77	1742.82
406.98	1710.05
407.18	1705.96
407.39	1826.79
407.60	1595.37
407.80	1718.25
408.01	1689.57
408.22	1765.35
408.43	1720.29
408.63	1755.11
408.84	1822.69
409.05	1738.73
409.25	1634.28
409.46	1705.96
409.67	1689.57
409.88	1712.10
410.08	1738.73
410.29	1685.48
410.50	1740.77
410.70	1791.97
410.91	1636.33
411.12	1787.88
411.32	1673.19
411.53	1652.71
411.74	1759.21
411.95	1834.98
412.15	1847.27
412.36	1789.92
412.57	1787.88
412.77	1839.08
412.98	1628.14
413.19	1771.49
413.39	1824.74
413.60	1847.27
413.81	1841.12
414.01	1705.96
414.22	1839.08
414.43	1796.07
414.63	1683.43
414.84	1787.88
415.05	1677.29
415.25	1669.09
415.46	1763.30
415.67	1689.57
415.87	1798.12
416.08	1687.53
416.29	1767.40
416.49	1728.49
416.70	1748.97
416.91	1722.34
417.11	1691.62
417.32	1726.44
417.53	1753.06
417.73	1677.29
417.94	1730.53
418.15	1765.35
418.35	1697.77
418.56	1732.58
418.77	1806.31
418.97	1650.66
419.18	1800.16
419.38	1603.56
419.59	1687.53
419.80	1791.97
420.00	1732.58
420.21	1681.38
420.42	1804.26
420.62	1736.68
420.83	1757.16
421.04	1701.86
421.24	1644.52
421.45	1779.68
421.65	1722.34
421.86	1683.43
422.07	1824.74
422.27	1763.30
422.48	1740.77
422.69	1587.18
422.89	1703.91
423.10	1673.19
423.30	1697.77
423.51	1755.11
423.72	1746.92
423.92	1767.40
424.13	1699.81
424.33	1757.16
424.54	1830.88
424.75	1777.64
424.95	1865.70
425.16	1789.92
425.36	1777.64
425.57	1775.59
425.78	1716.20
425.98	1775.59
426.19	1705.96
426.39	1728.49
426.60	1751.01
426.81	1720.29
427.01	1728.49
427.22	1626.09
427.42	1689.57
427.63	1765.35
427.83	1839.08
428.04	1798.12
428.25	1773.54
428.45	1830.88
428.66	1761.25
428.86	1767.40
429.07	1767.40
429.28	1617.90
429.48	1660.90
429.69	1708.01
429.89	1714.15
430.10	1724.39
430.30	1736.68
430.51	1796.07
430.71	1730.53
430.92	1689.57
431.13	1712.10
431.33	1718.25
431.54	1767.40
431.74	1816.55
431.95	1714.15
432.15	1683.43
432.36	1783.78
432.56	1771.49
432.77	1900.52
432.98	1906.66
433.18	1773.54
433.39	1693.67
433.59	1675.24
433.80	1779.68
434.00	1877.99
434.21	1638.38
434.41	1609.70
434.62	1828.84
434.82	1630.18
435.03	1687.53
435.23	1652.71
435.44	1595.37
435.64	1755.11
435.85	1755.11
436.06	1769.44
436.26	1781.73
436.47	1701.86
436.67	1621.99
436.88	1667.05
437.08	1794.02
437.29	1859.56
437.49	1753.06
437.70	1798.12
437.90	1748.97
438.11	1851.36
438.31	1763.30
438.52	1830.88
438.72	1845.22
438.93	1902.56
439.13	1828.84
439.34	1853.41
439.54	1703.91
439.75	1912.80
439.95	1726.44
440.16	1703.91
440.36	1777.64
440.57	1861.60
440.77	1777.64
440.98	1759.21
441.18	1769.44
441.39	1718.25
441.59	1638.38
441.80	1800.16
442.00	1800.16
442.21	1791.97
442.41	1691.62
442.62	1804.26
442.82	1777.64
443.02	1730.53
443.23	1685.48
443.43	1775.59
443.64	1892.32
443.84	1748.97
444.05	1867.75
444.25	1771.49
444.46	1742.82
444.66	1759.21
444.87	1783.78
445.07	1656.81
445.28	1763.30
445.48	1847.27
445.69	1726.44
445.89	1892.32
446.09	1765.35
446.30	2066.40
446.50	2631.64
446.71	3682.25
446.91	4319.17
447.12	4863.93
447.32	4857.78
447.53	4374.46
447.73	3903.43
447.93	3475.40
448.14	3295.18
448.34	3145.68
448.55	2932.69
448.75	2832.34
448.96	2691.03
449.16	2408.41
449.36	2365.40
449.57	2103.26
449.77	1898.47
449.98	1779.68
450.18	1910.75
450.39	1804.26
450.59	1738.73
450.79	1736.68
451.00	1673.19
451.20	1757.16
451.41	1732.58
451.61	1818.60
451.81	1732.58
452.02	1755.11
452.22	1681.38
452.43	1689.57
452.63	1675.24
452.84	1783.78
453.04	1771.49
453.24	1826.79
453.45	1732.58
453.65	1691.62
453.86	1769.44
454.06	1724.39
454.26	1718.25
454.47	1673.19
454.67	1796.07
454.87	1794.02
455.08	1728.49
455.28	1816.55
455.49	1759.21
455.69	1722.34
455.89	1961.95
456.10	1880.04
456.30	1798.12
456.51	1863.65
456.71	1832.93
456.91	1767.40
457.12	1794.02
457.32	1755.11
457.52	1755.11
457.73	1746.92
457.93	1740.77
458.14	1662.95
458.34	1624.04
458.54	1705.96
458.75	1720.29
458.95	1812.45
459.15	1697.77
459.36	1755.11
459.56	1751.01
459.76	1826.79
459.97	1812.45
460.17	1708.01
460.37	1783.78
460.58	1824.74
460.78	1812.45
460.99	1695.72
461.19	1675.24
461.39	1695.72
461.60	1734.63
461.80	1755.11
462.00	1697.77
462.21	1736.68
462.41	1683.43
462.61	1769.44
462.82	1583.08
463.02	1720.29
463.22	1667.05
463.43	1785.83
463.63	1822.69
463.83	1751.01
464.04	1812.45
464.24	1759.21
464.44	1617.90
464.64	1757.16
464.85	1724.39
465.05	1853.41
465.25	1654.76
465.46	1738.73
465.66	1820.64
465.86	1779.68
466.07	1714.15
466.27	1716.20
466.47	1646.57
466.68	1693.67
466.88	1757.16
467.08	1734.63
467.29	1816.55
467.49	1748.97
467.69	1740.77
467.89	1740.77
468.10	1673.19
468.30	1730.53
468.50	1787.88
468.71	1839.08
468.91	1652.71
469.11	1865.70
469.31	1732.58
469.52	1660.90
469.72	1806.31
469.92	1843.17
470.13	1667.05
470.33	1816.55
470.53	1818.60
470.73	2095.07
470.94	2443.23
471.14	2338.78
471.34	2504.67
471.54	2363.36
471.75	2269.15
471.95	2084.83
472.15	2058.21
472.36	2050.02
472.56	2041.82
472.76	2013.15
472.96	1986.53
473.17	1976.29
473.37	1912.80
473.57	1775.59
473.77	1861.60
473.98	1798.12
474.18	1761.25
474.38	1855.46
474.58	1687.53
474.79	1771.49
474.99	1787.88
475.19	1718.25
475.39	1662.95
475.60	1738.73
475.80	1771.49
476.00	1802.21
476.20	1650.66
476.41	1728.49
476.61	1861.60
476.81	1794.02
477.01	1681.38
477.21	1851.36
477.42	1882.08
477.62	1593.32
477.82	1746.92
478.02	1695.72
478.23	1800.16
478.43	1722.34
478.63	1769.44
478.83	1730.53
479.03	1732.58
479.24	1798.12
479.44	1857.51
479.64	1718.25
479.84	1624.04
480.04	1679.33
480.25	1767.40
480.45	1675.24
480.65	1738.73
480.85	1810.40
481.06	1683.43
481.26	1679.33
481.46	1789.92
481.66	1691.62
481.86	1675.24
482.06	1765.35
482.27	1714.15
482.47	1728.49
482.67	1673.19
482.87	1746.92
483.07	1732.58
483.28	1716.20
483.48	1724.39
483.68	1705.96
483.88	1695.72
484.08	1595.37
484.29	1703.91
484.49	1763.30
484.69	1660.90
484.89	1773.54
485.09	1783.78
485.29	1812.45
485.50	1785.83
485.70	1730.53
485.90	1796.07
486.10	1794.02
486.30	1732.58
486.50	1771.49
486.71	1779.68
486.91	1794.02
487.11	1765.35
487.31	1675.24
487.51	1701.86
487.71	1685.48
487.91	1632.23
488.12	1722.34
488.32	1630.18
488.52	1673.19
488.72	1681.38
488.92	1685.48
489.12	1785.83
489.32	1761.25
489.53	1689.57
489.73	1650.66
489.93	1820.64
490.13	1734.63
490.33	1636.33
490.53	1689.57
490.73	1830.88
490.94	1679.33
491.14	1796.07
491.34	1808.36
491.54	2129.89
491.74	2525.15
491.94	2848.72
492.14	2990.03
492.34	2934.74
492.54	2723.80
492.75	2537.43
492.95	2455.51
493.15	2275.29
493.35	2320.35
493.55	2254.81
493.75	2213.85
493.95	2174.94
494.15	1992.67
494.35	1904.61
494.56	1832.93
494.76	1771.49
494.96	1837.03
495.16	1740.77
495.36	1746.92
495.56	1738.73
495.76	1697.77
495.96	1708.01
496.16	1658.85
496.36	1851.36
496.56	1728.49
496.77	1796.07
496.97	1726.44
497.17	1800.16
497.37	1597.42
497.57	1751.01
497.77	1738.73
497.97	1638.38
498.17	1753.06
498.37	1710.05
498.57	1785.83
498.77	1728.49
498.97	1796.07
499.17	1843.17
499.38	1716.20
499.58	1771.49
499.78	1832.93
499.98	1796.07
500.18	1777.64
500.38	1687.53
500.58	1843.17
500.78	2643.93
500.98	4497.34
501.18	5836.71
501.38	6823.83
501.58	7153.55
501.78	6711.19
501.98	5623.72
502.18	4990.90
502.38	4487.10
502.58	4022.21
502.78	3758.02
502.98	3598.28
503.18	3542.99
503.38	3174.35
503.59	2897.88
503.79	2686.94
503.99	2457.56
504.19	2213.85
504.39	2209.76
504.59	2113.50
504.79	2168.80
504.99	2023.39
505.19	1929.19
505.39	1900.52
505.59	1994.72
505.79	1916.90
505.99	1869.80
506.19	1812.45
506.39	1855.46
506.59	1724.39
506.79	1753.06
506.99	1804.26
507.19	1785.83
507.39	1779.68
507.59	1720.29
507.79	1654.76
507.99	1648.61
508.19	1755.11
508.39	1732.58
508.59	1685.48
508.79	1804.26
508.99	1949.67
509.19	1728.49
509.39	1880.04
509.59	1767.40
509.79	1728.49
509.99	1787.88
510.19	1824.74
510.39	1779.68
510.59	1718.25
510.79	1701.86
510.99	1726.44
511.19	1791.97
511.39	1839.08
511.59	1843.17
511.79	1769.44
511.99	1791.97
512.19	1744.87
512.38	1816.55
512.58	1804.26
512.78	1730.53
512.98	1767.40
513.18	1720.29
513.38	1656.81
513.58	1763.30
513.78	1804.26
513.98	1781.73
514.18	1730.53
514.38	1683.43
514.58	1785.83
514.78	1701.86
514.98	1718.25
515.18	1767.40
515.38	1677.29
515.58	1871.84
515.78	1763.30
515.98	1804.26
516.18	1726.44
516.38	1695.72
516.57	1744.87
516.77	1697.77
516.97	1804.26
517.17	1736.68
517.37	1644.52
517.57	1802.21
517.77	1724.39
517.97	1783.78
518.17	1714.15
518.37	1665.00
518.57	1722.34
518.77	1742.82
518.97	1767.40
519.16	1701.86
519.36	1779.68
519.56	1642.47
519.76	1785.83
519.96	1753.06
520.16	1837.03
520.36	1755.11
520.56	1957.86
520.76	1742.82
520.96	1708.01
521.16	1744.87
521.35	1751.01
521.55	1771.49
521.75	1736.68
521.95	1685.48
522.15	1738.73
522.35	1705.96
522.55	1777.64
522.75	1800.16
522.95	1718.25
523.14	1726.44
523.34	1773.54
523.54	1703.91
523.74	1820.64
523.94	1722.34
524.14	1693.67
524.34	1779.68
524.54	1779.68
524.73	1681.38
524.93	1783.78
525.13	1691.62
525.33	1757.16
525.53	1877.99
525.73	1826.79
525.93	1636.33
526.13	1685.48
526.32	1738.73
526.52	1734.63
526.72	1816.55
526.92	1697.77
527.12	1703.91
527.32	1742.82
527.52	1748.97
527.71	1726.44
527.91	1722.34
528.11	1755.11
528.31	1789.92
528.51	1761.25
528.71	1732.58
528.90	1804.26
529.10	1834.98
529.30	1810.40
529.50	1646.57
529.70	1738.73
529.90	1738.73
530.09	1748.97
530.29	1691.62
530.49	1748.97
530.69	1880.04
530.89	1722.34
531.09	1771.49
531.28	1775.59
531.48	1837.03
531.68	1769.44
531.88	1773.54
532.08	1734.63
532.28	1726.44
532.47	1765.35
532.67	1849.32
532.87	1812.45
533.07	1783.78
533.27	1738.73
533.46	1816.55
533.66	1755.11
533.86	1730.53
534.06	1736.68
534.26	1751.01
534.45	1703.91
534.65	1839.08
534.85	1736.68
535.05	1720.29
535.25	1753.06
535.44	1724.39
535.64	1820.64
535.84	1718.25
536.04	1632.23
536.24	1796.07
536.43	1691.62
536.63	1771.49
536.83	1755.11
537.03	1808.36
537.22	1642.47
537.42	1699.81
537.62	1724.39
537.82	1685.48
538.02	1775.59
538.21	1779.68
538.41	1875.94
538.61	1837.03
538.81	1685.48
539.00	1816.55
539.20	1656.81
539.40	1701.86
539.60	1798.12
539.79	1746.92
539.99	1701.86
540.19	1695.72
540.39	1744.87
540.58	1789.92
540.78	1765.35
540.98	1828.84
541.18	1742.82
541.37	1783.78
541.57	1718.25
541.77	1695.72
541.97	1726.44
542.16	1736.68
542.36	1759.21
542.56	1763.30
542.76	1877.99
542.95	1804.26
543.15	1738.73
543.35	1802.21
543.54	1677.29
543.74	1722.34
543.94	1808.36
544.14	1742.82
544.33	1751.01
544.53	1732.58
544.73	1736.68
544.93	1738.73
545.12	1759.21
545.32	1716.20
545.52	1744.87
545.71	1646.57
545.91	1732.58
546.11	1796.07
546.30	1669.09
546.50	1714.15
546.70	1789.92
546.90	1759.21
547.09	1695.72
547.29	1763.30
547.49	1779.68
547.68	1779.68
547.88	1634.28
548.08	1800.16
548.27	2246.62
548.47	1705.96
548.67	1697.77
548.87	1785.83
549.06	1652.71
549.26	1691.62
549.46	1748.97
549.65	1710.05
549.85	1808.36
550.05	1779.68
550.24	1619.94
550.44	1781.73
550.64	1746.92
550.83	1730.53
551.03	1800.16
551.23	1886.18
551.42	1734.63
551.62	1777.64
551.82	1761.25
552.01	1785.83
552.21	1777.64
552.41	1775.59
552.60	1861.60
552.80	1732.58
553.00	1681.38
553.19	1767.40
553.39	1779.68
553.59	1673.19
553.78	1812.45
553.98	1746.92
554.17	1669.09
554.37	1779.68
554.57	1734.63
554.76	1673.19
554.96	1691.62
555.16	1755.11
555.35	1732.58
555.55	1746.92
555.75	1734.63
555.94	1849.32
556.14	1595.37
556.33	1773.54
556.53	1714.15
556.73	1775.59
556.92	1810.40
557.12	1816.55
557.32	1892.32
557.51	1839.08
557.71	1757.16
557.90	1873.89
558.10	1820.64
558.30	1714.15
558.49	1757.16
558.69	1773.54
558.88	1744.87
559.08	1755.11
559.28	1705.96
559.47	1822.69
559.67	1738.73
559.86	1863.65
560.06	1802.21
560.26	1808.36
560.45	1785.83
560.65	1771.49
560.84	1849.32
561.04	1691.62
561.24	1775.59
561.43	1710.05
561.63	1806.31
561.82	1779.68
562.02	1763.30
562.22	1705.96
562.41	1699.81
562.61	1746.92
562.80	1675.24
563.00	1902.56
563.19	1759.21
563.39	1812.45
563.59	1781.73
563.78	1785.83
563.98	1695.72
564.17	1753.06
564.37	1732.58
564.56	1791.97
564.76	1748.97
564.96	1771.49
565.15	1789.92
565.35	1927.14
565.54	1712.10
565.74	1763.30
565.93	1740.77
566.13	1767.40
566.32	1812.45
566.52	1804.26
566.71	1757.16
566.91	1787.88
567.11	1714.15
567.30	1681.38
567.50	1734.63
567.69	1779.68
567.89	1667.05
568.08	1740.77
568.28	1773.54
568.47	1652.71
568.67	1822.69
568.86	1746.92
569.06	1816.55
569.25	1732.58
569.45	1730.53
569.64	1734.63
569.84	1736.68
570.04	1822.69
570.23	1718.25
570.43	1757.16
570.62	1781.73
570.82	1781.73
571.01	1716.20
571.21	1695.72
571.40	1701.86
571.60	1853.41
571.79	1798.12
571.99	1812.45
572.18	1652.71
572.38	1738.73
572.57	1714.15
572.77	1712.10
572.96	1947.62
573.16	1714.15
573.35	1730.53
573.55	1859.56
573.74	1828.84
573.94	1712.10
574.13	1785.83
574.33	1843.17
574.52	1882.08
574.71	1710.05
574.91	1794.02
575.10	1683.43
575.30	1722.34
575.49	1724.39
575.69	1736.68
575.88	1783.78
576.08	1660.90
576.27	1820.64
576.47	1712.10
576.66	1822.69
576.86	1912.80
577.05	1718.25
577.25	1888.23
577.44	1845.22
577.64	1697.77
577.83	1863.65
578.02	1765.35
578.22	1896.42
578.41	1894.37
578.61	1640.42
578.80	1656.81
579.00	1804.26
579.19	1806.31
579.39	1763.30
579.58	1834.98
579.77	1816.55
579.97	1783.78
580.16	1800.16
580.36	1857.51
580.55	1845.22
580.75	1744.87
580.94	1763.30
581.13	1814.50
581.33	1853.41
581.52	1837.03
581.72	1865.70
581.91	1873.89
582.11	1755.11
582.30	1767.40
582.49	1693.67
582.69	1830.88
582.88	1839.08
583.08	1763.30
583.27	1882.08
583.47	1771.49
583.66	1734.63
583.85	1806.31
584.05	1748.97
584.24	1720.29
584.44	1712.10
584.63	1916.90
584.82	1830.88
585.02	1783.78
585.21	1855.46
585.41	1798.12
585.60	1816.55
585.79	1923.04
585.99	1986.53
586.18	1824.74
586.37	2224.09
586.57	3508.17
586.76	9969.51
586.96	24299.15
587.15	34237.94
587.34	40054.17
587.54	41915.78
587.73	36627.92
587.93	26080.88
588.12	21440.18
588.31	18015.98
588.51	16176.91
588.70	14917.40
588.89	13971.24
589.09	12412.74
589.28	11040.60
589.47	9371.50
589.67	7765.90
589.86	6428.57
590.06	4997.04
590.25	3823.56
590.44	2992.08
590.64	2516.95
590.83	2232.29
591.02	2129.89
591.22	1978.34
591.41	1959.91
591.60	1857.51
591.80	1988.58
591.99	1789.92
592.18	1818.60
592.38	1845.22
592.57	1794.02
592.76	1794.02
592.96	1775.59
593.15	1699.81
593.34	1820.64
593.54	1781.73
593.73	1812.45
593.92	1886.18
594.12	1812.45
594.31	1785.83
594.50	1814.50
594.70	1828.84
594.89	1923.04
595.08	1689.57
595.28	1718.25
595.47	1943.52
595.66	1763.30
595.86	1681.38
596.05	1779.68
596.24	1783.78
596.43	1847.27
596.63	1898.47
596.82	1857.51
597.01	1775.59
597.21	1822.69
597.40	1732.58
597.59	1736.68
597.79	1771.49
597.98	1808.36
598.17	1730.53
598.36	1708.01
598.56	1765.35
598.75	1632.23
598.94	1781.73
599.14	1769.44
599.33	1748.97
599.52	1839.08
599.71	1765.35
599.91	1832.93
600.10	1740.77
600.29	1718.25
600.48	1816.55
600.68	1757.16
600.87	1746.92
601.06	1738.73
601.26	1708.01
601.45	1726.44
601.64	1722.34
601.83	1816.55
602.03	1738.73
602.22	1705.96
602.41	1826.79
602.60	1746.92
602.80	1738.73
602.99	1732.58
603.18	1722.34
603.37	1853.41
603.57	1851.36
603.76	1765.35
603.95	1791.97
604.14	1687.53
604.34	1742.82
604.53	1773.54
604.72	1789.92
604.91	1736.68
605.10	1796.07
605.30	1691.62
605.49	1898.47
605.68	1830.88
605.87	1845.22
606.07	1757.16
606.26	1671.14
606.45	1794.02
606.64	1740.77
606.84	1642.47
607.03	1796.07
607.22	1769.44
607.41	1732.58
607.60	1705.96
607.80	1834.98
607.99	1632.23
608.18	1789.92
608.37	1685.48
608.56	1667.05
608.76	1753.06
608.95	1912.80
609.14	1746.92
609.33	1771.49
609.52	1771.49
609.72	1761.25
609.91	1751.01
610.10	1712.10
610.29	1822.69
610.48	1773.54
610.68	1742.82
610.87	1697.77
611.06	1722.34
611.25	1761.25
611.44	1853.41
611.63	1648.61
611.83	1882.08
612.02	1632.23
612.21	1861.60
612.40	1638.38
612.59	1722.34
612.79	1591.27
612.98	1763.30
613.17	1753.06
613.36	1806.31
613.55	1837.03
613.74	1748.97
613.93	1703.91
614.13	1748.97
614.32	1722.34
614.51	1765.35
614.70	1671.14
614.89	1791.97
615.08	1769.44
615.28	2146.27
615.47	1720.29
615.66	1738.73
615.85	1765.35
616.04	1794.02
616.23	1689.57
616.42	1632.23
616.62	1689.57
616.81	1724.39
617.00	1691.62
617.19	1791.97
617.38	1746.92
617.57	1689.57
617.76	1800.16
617.95	1824.74
618.15	1794.02
618.34	1857.51
618.53	1640.42
618.72	1822.69
618.91	1822.69
619.10	1837.03
619.29	1718.25
619.48	1814.50
619.68	1718.25
619.87	1748.97
620.06	1695.72
620.25	1736.68
620.44	1710.05
620.63	1728.49
620.82	1783.78
621.01	1718.25
621.20	1787.88
621.39	1826.79
621.59	1796.07
621.78	1767.40
621.97	1744.87
622.16	1789.92
622.35	1742.82
622.54	1773.54
622.73	1810.40
622.92	1621.99
623.11	1769.44
623.30	1748.97
623.49	1718.25
623.68	1646.57
623.88	1785.83
624.07	1734.63
624.26	1734.63
624.45	1753.06
624.64	1673.19
624.83	1714.15
625.02	1734.63
625.21	1787.88
625.40	1734.63
625.59	1730.53
625.78	1732.58
625.97	1837.03
626.16	1806.31
626.35	1802.21
626.54	1781.73
626.74	1822.69
626.93	1724.39
627.12	1683.43
627.31	1818.60
627.50	1789.92
627.69	1812.45
627.88	1677.29
628.07	1679.33
628.26	1634.28
628.45	1701.86
628.64	1675.24
628.83	1794.02
629.02	1697.77
629.21	1646.57
629.40	1810.40
629.59	1587.18
629.78	1703.91
629.97	1718.25
630.16	1804.26
630.35	1673.19
630.54	1751.01
630.73	1677.29
630.92	1742.82
631.11	1703.91
631.30	1716.20
631.49	1796.07
631.68	1830.88
631.87	1767.40
632.06	1669.09
632.25	1857.51
632.44	1765.35
632.63	1718.25
632.82	1716.20
633.01	1644.52
633.20	1724.39
633.39	1689.57
633.58	1607.66
633.77	1746.92
633.96	1751.01
634.15	1785.83
634.34	1853.41
634.53	1687.53
634.72	1708.01
634.91	1656.81
635.10	1796.07
635.29	1796.07
635.48	1689.57
635.67	1648.61
635.86	1652.71
636.05	1855.46
636.24	1736.68
636.43	1763.30
636.62	1791.97
636.81	1585.13
637.00	1712.10
637.19	1757.16
637.38	1746.92
637.57	1669.09
637.76	1759.21
637.95	1722.34
638.14	1634.28
638.33	1771.49
638.52	1652.71
638.71	1693.67
638.89	1685.48
639.08	1841.12
639.27	1697.77
639.46	1654.76
639.65	1812.45
639.84	1697.77
640.03	1837.03
640.22	1705.96
640.41	1769.44
640.60	1667.05
640.79	1740.77
640.98	1712.10
641.17	1814.50
641.36	1693.67
641.55	1791.97
641.74	1726.44
641.92	1730.53
642.11	1642.47
642.30	1691.62
642.49	1687.53
642.68	1722.34
642.87	1742.82
643.06	1697.77
643.25	1699.81
643.44	1716.20
643.63	1779.68
643.82	1738.73
644.00	1669.09
644.19	1701.86
644.38	1566.70
644.57	1687.53
644.76	1791.97
644.95	1705.96
645.14	1789.92
645.33	1812.45
645.52	1738.73
645.71	1652.71
645.89	1652.71
646.08	1730.53
646.27	1685.48
646.46	1918.95
646.65	1689.57
646.84	1705.96
647.03	1695.72
647.22	1800.16
647.40	1767.40
647.59	1800.16
647.78	1677.29
647.97	1718.25
648.16	1779.68
648.35	1875.94
648.54	1789.92
648.73	1679.33
648.91	1828.84
649.10	1779.68
649.29	1665.00
649.48	1705.96
649.67	1771.49
649.86	1818.60
650.05	1601.51
650.23	1771.49
650.42	1716.20
650.61	1697.77
650.80	1746.92
650.99	1867.75
651.18	1763.30
651.36	1689.57
651.55	1691.62
651.74	1759.21
651.93	1695.72
652.12	1665.00
652.31	1632.23
652.49	1789.92
652.68	1742.82
652.87	1695.72
653.06	1673.19
653.25	1845.22
653.44	1742.82
653.62	1769.44
653.81	1751.01
654.00	1751.01
654.19	1806.31
654.38	1853.41
654.56	1763.30
654.75	1744.87
654.94	1759.21
655.13	1732.58
655.32	1806.31
655.51	1691.62
655.69	1689.57
655.88	1746.92
656.07	1626.09
656.26	1730.53
656.45	1632.23
656.63	1716.20
656.82	1761.25
657.01	1828.84
657.20	1767.40
657.38	1738.73
657.57	1730.53
657.76	1624.04
657.95	1791.97
658.14	1722.34
658.32	1742.82
658.51	1644.52
658.70	1646.57
658.89	1800.16
659.08	1720.29
659.26	1808.36
659.45	1695.72
659.64	1828.84
659.83	1597.42
660.01	1925.09
660.20	1767.40
660.39	1837.03
660.58	1574.89
660.76	1755.11
660.95	1656.81
661.14	1746.92
661.33	1716.20
661.51	1652.71
661.70	1757.16
661.89	1775.59
662.08	1712.10
662.26	1654.76
662.45	1701.86
662.64	1804.26
662.83	1802.21
663.01	1646.57
663.20	1697.77
663.39	1861.60
663.58	1697.77
663.76	1732.58
663.95	1781.73
664.14	1740.77
664.32	1722.34
664.51	1718.25
664.70	1636.33
664.89	1787.88
665.07	1638.38
665.26	1816.55
665.45	1714.15
665.64	1830.88
665.82	1753.06
666.01	1736.68
666.20	1628.14
666.38	1777.64
666.57	1810.40
666.76	2238.43
666.95	4634.55
667.13	10547.04
667.32	15105.82
667.51	17927.92
667.69	18800.35
667.88	17671.92
668.07	12326.72
668.25	9482.10
668.44	8234.88
668.63	7325.58
668.81	6852.50
669.00	6223.78
669.19	5584.81
669.38	5078.96
669.56	4442.04
669.75	3928.00
669.94	3323.85
670.12	2881.49
670.31	2600.92
670.50	2236.38
670.68	2054.11
670.87	1976.29
671.06	1791.97
671.24	1826.79
671.43	1849.32
671.62	1779.68
671.80	1658.85
671.99	1783.78
672.18	1773.54
672.36	1767.40
672.55	1751.01
672.74	1759.21
672.92	1701.86
673.11	1742.82
673.29	1691.62
673.48	1765.35
673.67	1730.53
673.85	1853.41
674.04	1732.58
674.23	1810.40
674.41	1820.64
674.60	1708.01
674.79	1597.42
674.97	1689.57
675.16	1789.92
675.34	1759.21
675.53	1734.63
675.72	1765.35
675.90	1910.75
676.09	1722.34
676.28	1720.29
676.46	1603.56
676.65	1771.49
676.83	1767.40
677.02	1787.88
677.21	1722.34
677.39	1724.39
677.58	1722.34
677.77	1744.87
677.95	1783.78
678.14	1775.59
678.32	1710.05
678.51	1646.57
678.70	1849.32
678.88	1746.92
679.07	1767.40
679.25	1757.16
679.44	1708.01
679.63	1595.37
679.81	1699.81
680.00	1763.30
680.18	1751.01
680.37	1841.12
680.55	1777.64
680.74	1691.62
680.93	1652.71
681.11	1722.34
681.30	1726.44
681.48	1720.29
681.67	1673.19
681.85	1734.63
682.04	1624.04
682.23	1738.73
682.41	1697.77
682.60	1628.14
682.78	1736.68
682.97	1656.81
683.15	1691.62
683.34	1755.11
683.53	1779.68
683.71	1673.19
683.90	1804.26
684.08	1826.79
684.27	1730.53
684.45	1755.11
684.64	1779.68
684.82	1681.38
685.01	1734.63
685.19	1791.97
685.38	1757.16
685.57	1736.68
685.75	1710.05
685.94	1652.71
686.12	1701.86
686.31	1621.99
686.49	1855.46
686.68	1642.47
686.86	1767.40
687.05	1693.67
687.23	1841.12
687.42	1650.66
687.60	1654.76
687.79	1746.92
687.97	1806.31
688.16	1853.41
688.34	1761.25
688.53	1566.70
688.71	1796.07
688.90	1753.06
689.08	1677.29
689.27	1615.85
689.45	1751.01
689.64	1753.06
689.82	1730.53
690.01	1787.88
690.19	1753.06
690.38	1746.92
690.56	1822.69
690.75	1740.77
690.93	1708.01
691.12	1689.57
691.30	1759.21
691.49	1656.81
691.67	1722.34
691.86	1796.07
692.04	1689.57
692.23	1726.44
692.41	1691.62
692.60	1769.44
692.78	1685.48
692.97	1669.09
693.15	1765.35
693.34	1787.88
693.52	1740.77
693.71	1742.82
693.89	1671.14
694.08	1689.57
694.26	1794.02
694.44	1779.68
694.63	1761.25
694.81	1671.14
695.00	1681.38
695.18	1714.15
695.37	1834.98
695.55	1638.38
695.74	1742.82
695.92	1759.21
696.10	1765.35
696.29	1703.91
696.47	1773.54
696.66	1599.46
696.84	1675.24
697.03	1677.29
697.21	1828.84
697.40	2381.79
697.58	1746.92
697.76	1736.68
697.95	1624.04
698.13	1609.70
698.32	1742.82
698.50	1742.82
698.68	1738.73
698.87	1720.29
699.05	1826.79
699.24	1679.33
699.42	1628.14
699.61	1755.11
699.79	1740.77
699.97	1710.05
700.16	1583.08
700.34	1642.47
700.53	1771.49
700.71	1910.75
700.89	1808.36
701.08	1722.34
701.26	1746.92
701.45	2195.42
701.63	1667.05
701.81	1708.01
702.00	1648.61
702.18	1732.58
702.37	1746.92
702.55	1800.16
702.73	1775.59
702.92	1634.28
703.10	1816.55
703.28	1726.44
703.47	1636.33
703.65	1849.32
703.84	1783.78
704.02	1691.62
704.20	1767.40
704.39	1644.52
704.57	1755.11
704.75	1773.54
704.94	1845.22
705.12	1722.34
705.30	1738.73
705.49	2236.38
705.67	4421.56
705.86	9461.62
706.04	12549.95
706.22	14278.44
706.41	15296.28
706.59	13432.63
706.77	9484.14
706.96	7475.09
707.14	6516.64
707.32	5840.81
707.51	5543.85
707.69	4857.78
707.87	4261.82
708.06	3454.92
708.24	2983.89
708.42	2363.36
708.61	2201.57
708.79	2029.54
708.97	1808.36
709.16	1785.83
709.34	1791.97
709.52	1755.11
709.71	1826.79
709.89	1800.16
710.07	1673.19
710.26	1703.91
710.44	1718.25
710.62	1828.84
710.80	1705.96
710.99	1818.60
711.17	1781.73
711.35	1646.57
711.54	1746.92
711.72	1773.54
711.90	1779.68
712.09	1685.48
712.27	1687.53
712.45	1779.68
712.63	1687.53
712.82	1691.62
713.00	1732.58
713.18	1755.11
713.37	1773.54
713.55	1767.40
713.73	1732.58
713.91	1695.72
714.10	1746.92
714.28	1681.38
714.46	1775.59
714.65	1726.44
714.83	1689.57
715.01	1740.77
715.19	1697.77
715.38	1701.86
715.56	1724.39
715.74	1665.00
715.92	1601.51
716.11	1796.07
716.29	1640.42
716.47	1794.02
716.65	1710.05
716.84	1656.81
717.02	1853.41
717.20	1628.14
717.38	1687.53
717.57	1757.16
717.75	1714.15
717.93	1683.43
718.11	1689.57
718.30	1693.67
718.48	1685.48
718.66	1687.53
718.84	1757.16
719.03	1685.48
719.21	1658.85
719.39	1785.83
719.57	1755.11
719.75	1767.40
719.94	1660.90
720.12	1636.33
720.30	1708.01
720.48	1751.01
720.67	1615.85
720.85	1662.95
721.03	1740.77
721.21	1710.05
721.39	1673.19
721.58	1761.25
721.76	1710.05
721.94	1693.67
722.12	1728.49
722.30	1800.16
722.49	1697.77
722.67	1763.30
722.85	1779.68
723.03	1683.43
723.21	1699.81
723.40	1718.25
723.58	1828.84
723.76	1701.86
723.94	1761.25
724.12	1791.97
724.30	1757.16
724.49	1722.34
724.67	1658.85
724.85	1748.97
725.03	1642.47
725.21	1728.49
725.40	1761.25
725.58	1763.30
725.76	1771.49
725.94	1783.78
726.12	1640.42
726.30	1722.34
726.49	1679.33
726.67	1728.49
726.85	1765.35
727.03	1806.31
727.21	2176.99
727.39	2979.79
727.57	3887.04
727.76	4147.14
727.94	4440.00
728.12	4343.74
728.30	3680.20
728.48	2996.18
728.66	2711.51
728.84	2627.54
729.03	2303.96
729.21	2174.94
729.39	2017.25
729.57	1914.85
729.75	1812.45
729.93	1820.64
730.11	1746.92
730.30	1728.49
730.48	1685.48
730.66	1775.59
730.84	1701.86
731.02	1718.25
731.20	1675.24
731.38	1679.33
731.56	1671.14
731.74	1708.01
731.93	1787.88
732.11	1712.10
732.29	1773.54
732.47	1759.21
732.65	1726.44
732.83	1794.02
733.01	1714.15
733.19	1662.95
733.37	1746.92
733.56	1740.77
733.74	1746.92
733.92	1775.59
734.10	1742.82
734.28	1691.62
734.46	1656.81
734.64	1796.07
734.82	1716.20
735.00	1755.11
735.18	1683.43
735.36	1705.96
735.54	1687.53
735.73	1695.72
735.91	1693.67
736.09	1693.67
736.27	1689.57
736.45	1748.97
736.63	1621.99
736.81	1693.67
736.99	1822.69
737.17	1882.08
737.35	1652.71
737.53	1742.82
737.71	1761.25
737.89	1787.88
738.07	1691.62
738.25	1650.66
738.43	1587.18
738.61	1669.09
738.80	1687.53
738.98	1654.76
739.16	1751.01
739.34	1718.25
739.52	1771.49
739.70	1607.66
739.88	1669.09
740.06	1759.21
740.24	1542.12
740.42	1773.54
740.60	1677.29
740.78	1654.76
740.96	1570.79
741.14	1740.77
741.32	1724.39
741.50	1636.33
741.68	1851.36
741.86	1744.87
742.04	1691.62
742.22	1638.38
742.40	1718.25
742.58	1759.21
742.76	1658.85
742.94	1757.16
743.12	1662.95
743.30	1822.69
743.48	1746.92
743.66	1669.09
743.84	1722.34
744.02	1761.25
744.20	1753.06
744.38	1638.38
744.56	1617.90
744.74	1794.02
744.92	1689.57
745.10	1787.88
745.28	1789.92
745.46	1757.16
745.64	1677.29
745.82	1822.69
746.00	1705.96
746.18	1761.25
746.36	1642.47
746.54	1734.63
746.72	1746.92
746.90	1683.43
747.08	1826.79
747.26	1796.07
747.44	1736.68
747.62	1751.01
747.80	1732.58
747.98	1742.82
748.15	1683.43
748.33	1841.12
748.51	1658.85
748.69	1685.48
748.87	1689.57
749.05	1675.24
749.23	1708.01
749.41	1724.39
749.59	1804.26
749.77	1730.53
749.95	1771.49
750.13	1671.14
750.31	1802.21
750.49	1722.34
750.67	1779.68
750.85	1812.45
751.03	1691.62
751.20	1791.97
751.38	1695.72
751.56	1689.57
751.74	1703.91
751.92	1662.95
752.10	1634.28
752.28	1816.55
752.46	1654.76
752.64	1665.00
752.82	1673.19
753.00	1828.84
753.18	1656.81
753.35	1714.15
753.53	1683.43
753.71	1746.92
753.89	1728.49
754.07	1734.63
754.25	1755.11
754.43	1757.16
754.61	1617.90
754.79	1716.20
754.97	1718.25
755.14	1869.80
755.32	1630.18
755.50	1656.81
755.68	1689.57
755.86	1679.33
756.04	1748.97
756.22	1613.80
756.40	1765.35
756.57	1753.06
756.75	1710.05
756.93	1789.92
757.11	1787.88
757.29	1624.04
757.47	1681.38
757.65	1626.09
757.82	1548.26
758.00	1734.63
758.18	1705.96
758.36	1693.67
758.54	1753.06
758.72	1619.94
758.90	1820.64
759.07	1722.34
759.25	1644.52
759.43	1722.34
759.61	1681.38
759.79	2252.77
759.97	1755.11
760.15	1724.39
760.32	1730.53
760.50	1718.25
760.68	1841.12
760.86	1683.43
761.04	1759.21
761.22	1771.49
761.39	1742.82
761.57	1818.60
761.75	1744.87
761.93	1708.01
762.11	1789.92
762.28	1722.34
762.46	1660.90
762.64	1759.21
762.82	1673.19
763.00	1710.05
763.18	1722.34
763.35	1611.75
763.53	1789.92
763.71	1710.05
763.89	1767.40
764.07	1665.00
764.24	1673.19
764.42	1798.12
764.60	1744.87
764.78	1675.24
764.96	1824.74
765.13	1837.03
765.31	1802.21
765.49	1812.45
765.67	1605.61
765.84	1687.53
766.02	1669.09
766.20	1599.46
766.38	1728.49
766.56	1675.24
766.73	1765.35
766.91	1630.18
767.09	1738.73
767.27	1748.97
767.44	1701.86
767.62	1779.68
767.80	1716.20
767.98	1683.43
768.15	1693.67
768.33	1775.59
768.51	1777.64
768.69	1742.82
768.87	1742.82
769.04	1677.29
769.22	1906.66
769.40	1761.25
769.58	1875.94
769.75	1703.91
769.93	1787.88
770.11	1763.30
770.28	1628.14
770.46	1742.82
770.64	1724.39
770.82	1710.05
770.99	1669.09
771.17	1763.30
771.35	1744.87
771.53	1716.20
771.70	1673.19
771.88	1705.96
772.06	1744.87
772.23	1675.24
772.41	1789.92
772.59	1695.72
772.77	1638.38
772.94	1665.00
773.12	1738.73
773.30	1691.62
773.47	1708.01
773.65	1644.52
773.83	1791.97
774.01	1730.53
774.18	1607.66
774.36	1689.57
774.54	1642.47
774.71	1714.15
774.89	1642.47
775.07	1646.57
775.24	1703.91
775.42	1574.89
775.60	1789.92
775.78	1595.37
775.95	1644.52
776.13	1644.52
776.31	1679.33
776.48	1740.77
776.66	1734.63
776.84	1665.00
777.01	1681.38
777.19	1617.90
777.37	1689.57
777.54	1742.82
777.72	1800.16
777.90	1773.54
778.07	1648.61
778.25	1900.52
778.43	1791.97
778.60	1615.85
778.78	1705.96
778.96	1812.45
779.13	1685.48
779.31	1748.97
779.49	1662.95
779.66	1730.53
779.84	1738.73
780.01	1701.86
780.19	1742.82
780.37	1759.21
780.54	1716.20
780.72	1640.42
780.90	1677.29
781.07	1744.87
781.25	1681.38
781.43	1810.40
781.60	1673.19
781.78	1767.40
781.95	1724.39
782.13	1621.99
782.31	1665.00
782.48	1556.46
782.66	1755.11
782.83	1843.17
783.01	1703.91
783.19	1730.53
783.36	1705.96
783.54	1753.06
783.72	1691.62
783.89	1746.92
784.07	1691.62
784.24	1738.73
784.42	1816.55
784.60	1783.78
784.77	1781.73
784.95	1630.18
785.12	1728.49
785.30	1789.92
785.47	1722.34
785.65	1607.66
785.83	1722.34
786.00	1724.39
786.18	1802.21
786.35	1607.66
786.53	1705.96
786.71	1738.73
786.88	1675.24
787.06	1800.16
787.23	1734.63
787.41	1679.33
787.58	1730.53
787.76	1677.29
787.94	1796.07
788.11	1730.53
788.29	1656.81
788.46	1734.63
788.64	1617.90
788.81	1652.71
788.99	1720.29
789.16	1562.60
789.34	1656.81
789.52	1675.24
789.69	1751.01
789.87	1576.94
790.04	1689.57
790.22	1656.81
790.39	1791.97
790.57	1601.51
790.74	1654.76
790.92	1738.73
791.09	1673.19
791.27	1720.29
791.44	1734.63
791.62	1742.82
791.79	1751.01
791.97	1746.92
792.15	1966.05
792.32	1791.97
792.50	1708.01
792.67	1791.97
792.85	1765.35
793.02	1744.87
793.20	1660.90
793.37	1617.90
793.55	1617.90
793.72	1640.42
793.90	1671.14
794.07	1677.29
794.25	1642.47
794.42	1777.64
794.60	1683.43
794.77	1722.34
794.95	1810.40
795.12	1718.25
795.30	1656.81
795.47	1652.71
795.65	1828.84
795.82	1656.81
796.00	1691.62
796.17	1742.82
796.34	1673.19
796.52	1691.62
796.69	1787.88
796.87	1755.11
797.04	1753.06
797.22	1701.86
797.39	1738.73
797.57	1724.39
797.74	1710.05
797.92	1681.38
798.09	1681.38
798.27	1849.32
798.44	1775.59
798.62	1710.05
798.79	1652.71
798.96	1759.21
799.14	1677.29
799.31	1810.40
799.49	1705.96
799.66	1677.29
799.84	1757.16
800.01	1671.14
800.19	1748.97
800.36	1558.50
800.53	1669.09
800.71	1689.57
800.88	1845.22
801.06	1613.80
801.23	1703.91
801.41	1701.86
801.58	1714.15
801.75	1681.38
801.93	1728.49
802.10	1744.87
802.28	1607.66
802.45	1701.86
802.63	1775.59
802.80	1841.12
802.97	1718.25
803.15	1726.44
803.32	1640.42
803.50	1595.37
803.67	1662.95
803.84	1644.52
804.02	1683.43
804.19	1640.42
804.37	1578.98
804.54	1718.25
804.71	1705.96
804.89	1693.67
805.06	1710.05
805.24	1607.66
805.41	1656.81
805.58	1617.90
805.76	1826.79
805.93	1708.01
806.10	1798.12
806.28	1775.59
806.45	1712.10
806.63	1726.44
806.80	1667.05
806.97	1771.49
807.15	1796.07
807.32	1761.25
807.49	1718.25
807.67	1705.96
807.84	1791.97
808.01	1681.38
808.19	1812.45
808.36	1781.73
808.54	1669.09
808.71	1642.47
808.88	1810.40
809.06	1783.78
809.23	1814.50
809.40	1646.57
809.58	1798.12
809.75	1628.14
809.92	1695.72
810.10	1869.80
810.27	1728.49
810.44	1718.25
810.62	1703.91
810.79	1705.96
810.96	1687.53
811.14	1677.29
811.31	1679.33
811.48	1783.78
811.66	1656.81
811.83	1812.45
812.00	1751.01
812.18	1771.49
812.35	1832.93
812.52	1693.67
812.69	1705.96
812.87	1746.92
813.04	1695.72
813.21	1730.53
813.39	1708.01
813.56	1646.57
813.73	1689.57
813.91	1681.38
814.08	1689.57
814.25	1710.05
814.42	1656.81
814.60	1753.06
814.77	1679.33
814.94	1746.92
815.12	1740.77
815.29	1714.15
815.46	1583.08
815.63	1730.53
815.81	1640.42
815.98	1634.28
816.15	1728.49
816.33	1667.05
816.50	1648.61
816.67	1695.72
816.84	1726.44
817.02	1679.33
817.19	1648.61
817.36	1652.71
817.53	1697.77
817.71	1673.19
817.88	1834.98
818.05	1718.25
818.22	1728.49
818.40	1834.98
818.57	1669.09
818.74	1693.67
818.91	1695.72
819.09	1751.01
819.26	1677.29
819.43	1738.73
819.60	1697.77
819.78	1757.16
819.95	1732.58
820.12	1644.52
820.29	1849.32
820.47	1761.25
820.64	1642.47
820.81	1642.47
820.98	1699.81
821.15	1671.14
821.33	1724.39
821.50	1640.42
821.67	1734.63
821.84	1669.09
822.02	1673.19
822.19	1791.97
822.36	1675.24
822.53	1748.97
822.70	1648.61
822.88	1677.29
823.05	1830.88
823.22	1722.34
823.39	1763.30
823.56	1771.49
823.74	1769.44
823.91	1665.00
824.08	1660.90
824.25	1683.43
824.42	1830.88
824.60	1642.47
824.77	1724.39
824.94	1636.33
825.11	1771.49
825.28	1585.13
825.45	1773.54
825.63	1718.25
825.80	1599.46
825.97	1771.49
826.14	1775.59
826.31	1599.46
826.48	1738.73
826.66	1685.48
826.83	1683.43
827.00	1660.90
827.17	1697.77
827.34	1728.49
827.51	1675.24
827.69	1677.29
827.86	1646.57
828.03	1708.01
828.20	1714.15
828.37	1642.47
828.54	1734.63
828.71	1685.48
828.89	1832.93
829.06	1689.57
829.23	1755.11
829.40	1705.96
829.57	1660.90
829.74	1810.40
829.91	1640.42
830.09	1699.81
830.26	1718.25
830.43	1775.59
830.60	1712.10
830.77	1771.49
830.94	1775.59
831.11	1720.29
831.28	1654.76
831.46	1783.78
831.63	1734.63
831.80	1775.59
831.97	1697.77
832.14	1683.43
832.31	1787.88
832.48	1697.77
832.65	1841.12
832.82	1720.29
832.99	1640.42
833.17	1677.29
833.34	1796.07
833.51	1748.97
833.68	1607.66
833.85	1748.97
834.02	1660.90
834.19	1689.57
834.36	1656.81
834.53	1763.30
834.70	1818.60
834.87	1726.44
835.04	1720.29
835.22	1644.52
835.39	1671.14
835.56	1615.85
835.73	1683.43
835.90	1734.63
836.07	1628.14
836.24	1757.16
836.41	1693.67
836.58	1714.15
836.75	1771.49
836.92	1802.21
837.09	1730.53
837.26	1716.20
837.43	1695.72
837.60	1720.29
837.77	1716.20
837.94	1748.97
838.12	1753.06
838.29	1671.14
838.46	1589.22
838.63	1679.33
838.80	1771.49
838.97	1804.26
839.14	1763.30
839.31	1697.77
839.48	1714.15
839.65	1783.78
839.82	1689.57
839.99	1789.92
840.16	1777.64
840.33	1636.33
840.50	1675.24
840.67	1660.90
840.84	1538.02
841.01	1767.40
841.18	1724.39
841.35	1683.43
841.52	1705.96
841.69	1810.40
841.86	1708.01
842.03	1748.97
842.20	1802.21
842.37	1751.01
842.54	1689.57
842.71	1789.92
842.88	1665.00
843.05	1812.45
843.22	1730.53
843.39	1740.77
843.56	1701.86
843.73	1796.07
843.90	1755.11
844.07	1726.44
844.24	1724.39
844.41	1804.26
844.58	1675.24
844.75	1689.57
844.92	1742.82
845.09	1675.24
845.26	1716.20
845.43	1748.97
845.60	1679.33
845.77	1771.49
845.94	1689.57
846.10	1779.68
846.27	1652.71
846.44	1652.71
846.61	1683.43
846.78	1718.25
846.95	1769.44
847.12	1732.58
847.29	1705.96
847.46	1695.72
847.63	1785.83
847.80	1646.57
847.97	1710.05
848.14	1918.95
848.31	1761.25
848.48	1634.28
848.65	1755.11
848.82	1701.86
848.98	1789.92
849.15	1771.49
849.32	1814.50
849.49	1720.29
849.66	1724.39
849.83	1701.86
850.00	1613.80
850.17	1791.97
850.34	1814.50
850.51	1697.77
850.68	1695.72
850.85	1976.29
851.01	1673.19
851.18	1744.87
851.35	1650.66
851.52	1712.10
851.69	1806.31
851.86	1669.09
852.03	1669.09
852.20	1726.44
852.37	1634.28
852.53	1560.55
852.70	1724.39
852.87	1677.29
853.04	1753.06
853.21	1687.53
853.38	1796.07
853.55	1761.25
853.72	1802.21
853.89	1681.38
854.05	1689.57
854.22	1705.96
854.39	1705.96
854.56	1822.69
854.73	1689.57
854.90	1634.28
855.07	1675.24
855.23	1660.90
855.40	1734.63
855.57	1628.14
855.74	1595.37
855.91	1855.46
856.08	1591.27
856.25	1712.10
856.41	1693.67
856.58	1632.23
856.75	1728.49
856.92	1650.66
857.09	1751.01
857.26	1689.57
857.42	1748.97
857.59	1689.57
857.76	1695.72
857.93	1710.05
858.10	1665.00
858.27	1644.52
858.43	1744.87
858.60	1693.67
858.77	1626.09
858.94	1673.19
859.11	1826.79
859.27	1763.30
859.44	1648.61
859.61	1845.22
859.78	1794.02
859.95	1712.10
860.12	1644.52
860.28	1869.80
860.45	1818.60
860.62	1748.97
860.79	1738.73
860.95	1714.15
861.12	1636.33
861.29	1734.63
861.46	1601.51
861.63	1728.49
861.79	1705.96
861.96	1697.77
862.13	1662.95
862.30	1812.45
862.47	1632.23
862.63	1615.85
862.80	1732.58
862.97	1755.11
863.14	1798.12
863.30	1755.11
863.47	1636.33
863.64	1763.30
863.81	1763.30
863.97	1695.72
864.14	1724.39
864.31	1734.63
864.48	1718.25
864.65	1695.72
864.81	1742.82
864.98	1697.77
865.15	1767.40
865.32	1732.58
865.48	1724.39
865.65	1744.87
865.82	1691.62
865.98	1689.57
866.15	1824.74
866.32	1798.12
866.49	1660.90
866.65	1736.68
866.82	1697.77
866.99	1724.39
867.16	1773.54
867.32	1746.92
867.49	1718.25
867.66	1648.61
867.83	1689.57
867.99	1701.86
868.16	1728.49
868.33	1615.85
868.49	1617.90
868.66	1650.66
868.83	1740.77
868.99	1693.67
869.16	1691.62
869.33	1820.64
869.50	1810.40
869.66	1652.71
869.83	1718.25
870.00	1632.23
870.16	1726.44
870.33	1671.14
870.50	1708.01
870.66	1705.96
870.83	1816.55
871.00	1726.44
871.17	1767.40
871.33	1763.30
871.50	1677.29
871.67	1689.57
871.83	1642.47
872.00	1808.36
872.17	1654.76
872.33	1812.45
872.50	1730.53
872.67	1701.86
872.83	1761.25
873.00	1757.16
873.17	1718.25
873.33	1654.76
873.50	1738.73
873.67	1619.94
873.83	1673.19
874.00	1748.97
874.16	1699.81
874.33	1650.66
874.50	1652.71
874.66	1808.36
874.83	1769.44
875.00	1726.44
875.16	1771.49
875.33	1779.68
875.50	1599.46
875.66	1689.57
875.83	1712.10
875.99	1763.30
876.16	1738.73
876.33	1689.57
876.49	1681.38
876.66	1773.54
876.83	1681.38
876.99	1619.94
877.16	1734.63
877.32	1646.57
877.49	1718.25
877.66	1722.34
877.82	1863.65
877.99	1753.06
878.15	1742.82
878.32	1773.54
878.49	1746.92
878.65	1701.86
878.82	1796.07
878.98	1640.42
879.15	1765.35
879.32	1769.44
879.48	1716.20
879.65	1697.77
879.81	1701.86
879.98	1689.57
880.15	1665.00
880.31	1777.64
880.48	1722.34
880.64	1820.64
880.81	1691.62
880.97	1726.44
881.14	1748.97
881.31	1718.25
881.47	1886.18
881.64	1720.29
881.80	1599.46
881.97	1724.39
882.13	1779.68
882.30	1753.06
882.47	1654.76
882.63	1669.09
882.80	1636.33
882.96	1710.05
883.13	1775.59
883.29	1736.68
883.46	1779.68
883.62	1841.12
883.79	1730.53
883.95	1738.73
884.12	1751.01
884.29	1775.59
884.45	1732.58
884.62	1783.78
884.78	1630.18
884.95	1763.30
885.11	1667.05
885.28	1783.78
885.44	1718.25
885.61	1785.83
885.77	1777.64
885.94	1685.48
886.10	1763.30
886.27	1753.06
886.43	1845.22
886.60	1798.12
886.76	1662.95
886.93	1667.05
887.09	1671.14
887.26	1638.38
887.42	1691.62
887.59	1779.68
887.75	1798.12
887.92	1791.97
888.08	1734.63
888.25	1832.93
888.41	1744.87
888.58	1789.92
888.74	1660.90
888.91	1763.30
>>>>>End Processed Spectral Data<<<<<
