SpectraSuite Data File
++++++++++++++++++++++++++++++++++++
Date: Mon Jun 06 16:54:17 CEST 2016
User: root
Dark Spectrum Present: No
Reference Spectrum Present: No
Number of Sampled Component Spectra: 1
Spectrometers: USB4C02835
Integration Time (usec): 100000 (USB4C02835)
Spectra Averaged: 1 (USB4C02835)
Boxcar Smoothing: 0 (USB4C02835)
Correct for Electrical Dark: No (USB4C02835)
Strobe/Lamp Enabled: No (USB4C02835)
Correct for Detector Non-linearity: No (USB4C02835)
Correct for Stray Light: No (USB4C02835)
Number of Pixels in Processed Spectrum: 3648
>>>>>Begin Processed Spectral Data<<<<<
177.47	1386.47
177.69	1386.47
177.91	1386.47
178.13	1505.26
178.36	1460.20
178.58	1697.77
178.80	1751.01
179.02	1595.37
179.24	1605.61
179.46	1714.15
179.68	1712.10
179.90	1665.00
180.13	1656.81
180.35	1636.33
180.57	1691.62
180.79	1763.30
181.01	1722.34
181.23	1724.39
181.45	1816.55
181.67	1720.29
181.90	1669.09
182.12	1675.24
182.34	1648.61
182.56	1679.33
182.78	1699.81
183.00	1712.10
183.22	1798.12
183.44	1662.95
183.66	1816.55
183.89	1785.83
184.11	1728.49
184.33	1640.42
184.55	1839.08
184.77	1763.30
184.99	1648.61
185.21	1714.15
185.43	1785.83
185.65	1720.29
185.87	1755.11
186.10	1902.56
186.32	1789.92
186.54	1814.50
186.76	1681.38
186.98	1804.26
187.20	1675.24
187.42	1644.52
187.64	1728.49
187.86	1683.43
188.08	1806.31
188.30	1624.04
188.52	1691.62
188.75	1705.96
188.97	1705.96
189.19	1642.47
189.41	1716.20
189.63	1765.35
189.85	1667.05
190.07	1607.66
190.29	1607.66
190.51	1718.25
190.73	1673.19
190.95	1769.44
191.17	1675.24
191.39	1646.57
191.61	1726.44
191.84	1691.62
192.06	1705.96
192.28	1617.90
192.50	1863.65
192.72	1720.29
192.94	1734.63
193.16	1738.73
193.38	1732.58
193.60	1632.23
193.82	1662.95
194.04	1699.81
194.26	1726.44
194.48	1685.48
194.70	1662.95
194.92	1677.29
195.14	1755.11
195.36	1753.06
195.58	1638.38
195.80	1724.39
196.02	1615.85
196.24	1660.90
196.46	1751.01
196.69	1683.43
196.91	1900.52
197.13	1705.96
197.35	1654.76
197.57	1765.35
197.79	1722.34
198.01	1730.53
198.23	1734.63
198.45	1728.49
198.67	1693.67
198.89	1701.86
199.11	1767.40
199.33	1697.77
199.55	1683.43
199.77	1751.01
199.99	1789.92
200.21	1710.05
200.43	1755.11
200.65	1656.81
200.87	1585.13
201.09	1738.73
201.31	1603.56
201.53	1763.30
201.75	1738.73
201.97	1705.96
202.19	1705.96
202.41	1755.11
202.63	1853.41
202.85	1748.97
203.07	1736.68
203.29	1708.01
203.51	1568.74
203.73	1722.34
203.95	1777.64
204.17	1712.10
204.39	1744.87
204.61	1757.16
204.83	1716.20
205.05	1802.21
205.27	1675.24
205.49	1841.12
205.71	1724.39
205.93	1615.85
206.15	1656.81
206.37	1748.97
206.59	1751.01
206.81	1654.76
207.03	1685.48
207.25	1726.44
207.47	1757.16
207.69	1755.11
207.91	1759.21
208.13	1740.77
208.34	1597.42
208.56	1636.33
208.78	1701.86
209.00	1665.00
209.22	1671.14
209.44	1705.96
209.66	1687.53
209.88	1669.09
210.10	1683.43
210.32	1693.67
210.54	1779.68
210.76	1626.09
210.98	1781.73
211.20	1640.42
211.42	1724.39
211.64	1699.81
211.86	1757.16
212.08	1738.73
212.30	1656.81
212.52	1716.20
212.74	1656.81
212.96	1746.92
213.17	1714.15
213.39	1705.96
213.61	1748.97
213.83	1765.35
214.05	1624.04
214.27	1824.74
214.49	1705.96
214.71	1634.28
214.93	1746.92
215.15	1671.14
215.37	1732.58
215.59	1671.14
215.81	1705.96
216.03	1771.49
216.24	1730.53
216.46	1699.81
216.68	1683.43
216.90	1785.83
217.12	1755.11
217.34	1773.54
217.56	1757.16
217.78	1798.12
218.00	1791.97
218.22	1695.72
218.44	1779.68
218.66	1796.07
218.87	1744.87
219.09	1714.15
219.31	1636.33
219.53	1736.68
219.75	1722.34
219.97	1740.77
220.19	1687.53
220.41	1636.33
220.63	1755.11
220.85	1726.44
221.06	1621.99
221.28	1767.40
221.50	1601.51
221.72	1708.01
221.94	1724.39
222.16	1703.91
222.38	1763.30
222.60	1724.39
222.82	1699.81
223.03	1687.53
223.25	1691.62
223.47	1761.25
223.69	1787.88
223.91	1773.54
224.13	1714.15
224.35	1640.42
224.57	1791.97
224.78	1757.16
225.00	1757.16
225.22	1732.58
225.44	1771.49
225.66	1722.34
225.88	1751.01
226.10	1767.40
226.32	1716.20
226.53	1775.59
226.75	1732.58
226.97	1689.57
227.19	1738.73
227.41	1687.53
227.63	1640.42
227.85	1587.18
228.06	1759.21
228.28	1687.53
228.50	1703.91
228.72	1695.72
228.94	1724.39
229.16	1585.13
229.37	1642.47
229.59	1689.57
229.81	1710.05
230.03	1650.66
230.25	1607.66
230.47	1634.28
230.69	1595.37
230.90	1843.17
231.12	1714.15
231.34	1638.38
231.56	1822.69
231.78	1650.66
232.00	1708.01
232.21	1673.19
232.43	1730.53
232.65	1576.94
232.87	1753.06
233.09	1685.48
233.30	1759.21
233.52	1753.06
233.74	1689.57
233.96	1722.34
234.18	1759.21
234.40	1685.48
234.61	1753.06
234.83	1732.58
235.05	1665.00
235.27	1783.78
235.49	1765.35
235.70	1740.77
235.92	1751.01
236.14	1728.49
236.36	1902.56
236.58	1603.56
236.79	1796.07
237.01	1736.68
237.23	1753.06
237.45	1740.77
237.67	1677.29
237.88	1781.73
238.10	1703.91
238.32	1710.05
238.54	1751.01
238.76	1681.38
238.97	1652.71
239.19	1718.25
239.41	1693.67
239.63	1742.82
239.85	1667.05
240.06	1701.86
240.28	1705.96
240.50	1714.15
240.72	1724.39
240.93	1654.76
241.15	1705.96
241.37	1603.56
241.59	1787.88
241.81	1632.23
242.02	1673.19
242.24	1761.25
242.46	1806.31
242.68	1601.51
242.89	1699.81
243.11	1759.21
243.33	1730.53
243.55	1712.10
243.76	1763.30
243.98	1679.33
244.20	1712.10
244.42	1724.39
244.64	1665.00
244.85	1662.95
245.07	1685.48
245.29	1724.39
245.51	1648.61
245.72	1714.15
245.94	1757.16
246.16	1783.78
246.38	1738.73
246.59	1701.86
246.81	1755.11
247.03	1665.00
247.24	1646.57
247.46	1744.87
247.68	1701.86
247.90	1769.44
248.11	1656.81
248.33	1767.40
248.55	1693.67
248.77	1722.34
248.98	1738.73
249.20	1775.59
249.42	1738.73
249.64	1716.20
249.85	1753.06
250.07	1734.63
250.29	1757.16
250.50	1824.74
250.72	1578.98
250.94	1687.53
251.16	1800.16
251.37	1726.44
251.59	1722.34
251.81	1748.97
252.02	1769.44
252.24	1646.57
252.46	1769.44
252.68	1705.96
252.89	1665.00
253.11	1601.51
253.33	1785.83
253.54	1779.68
253.76	1632.23
253.98	1669.09
254.20	1761.25
254.41	1632.23
254.63	1673.19
254.85	1607.66
255.06	1662.95
255.28	1701.86
255.50	1767.40
255.71	1617.90
255.93	1648.61
256.15	1755.11
256.36	1685.48
256.58	1662.95
256.80	1802.21
257.02	1685.48
257.23	1644.52
257.45	1638.38
257.67	1738.73
257.88	1710.05
258.10	1751.01
258.32	1671.14
258.53	1777.64
258.75	1789.92
258.97	1722.34
259.18	1658.85
259.40	1681.38
259.62	1769.44
259.83	1769.44
260.05	1712.10
260.27	1984.48
260.48	1710.05
260.70	1699.81
260.92	1679.33
261.13	1728.49
261.35	1634.28
261.57	1708.01
261.78	1591.27
262.00	1722.34
262.22	1697.77
262.43	1654.76
262.65	1712.10
262.86	1712.10
263.08	1841.12
263.30	1705.96
263.51	1689.57
263.73	1677.29
263.95	1787.88
264.16	1675.24
264.38	1626.09
264.60	1744.87
264.81	1677.29
265.03	1714.15
265.25	1738.73
265.46	1703.91
265.68	1781.73
265.89	1685.48
266.11	1550.31
266.33	1732.58
266.54	1740.77
266.76	1718.25
266.98	1763.30
267.19	1812.45
267.41	1691.62
267.62	1660.90
267.84	1656.81
268.06	1742.82
268.27	1722.34
268.49	1742.82
268.70	1800.16
268.92	1675.24
269.14	1671.14
269.35	1675.24
269.57	1660.90
269.79	1783.78
270.00	1703.91
270.22	1703.91
270.43	1599.46
270.65	1570.79
270.87	1744.87
271.08	1710.05
271.30	1748.97
271.51	1624.04
271.73	1757.16
271.95	1724.39
272.16	1757.16
272.38	1730.53
272.59	1728.49
272.81	1673.19
273.02	1779.68
273.24	1726.44
273.46	1748.97
273.67	1642.47
273.89	1624.04
274.10	1699.81
274.32	1779.68
274.54	1697.77
274.75	1732.58
274.97	1697.77
275.18	1806.31
275.40	1677.29
275.61	1677.29
275.83	1701.86
276.05	1656.81
276.26	1548.26
276.48	1732.58
276.69	1642.47
276.91	1640.42
277.12	1781.73
277.34	1742.82
277.55	1685.48
277.77	1714.15
277.99	1665.00
278.20	1654.76
278.42	1714.15
278.63	1603.56
278.85	1677.29
279.06	1607.66
279.28	1738.73
279.49	1761.25
279.71	1677.29
279.93	1646.57
280.14	1779.68
280.36	1662.95
280.57	1740.77
280.79	1765.35
281.00	1730.53
281.22	1683.43
281.43	1832.93
281.65	1568.74
281.86	1656.81
282.08	1748.97
282.29	1814.50
282.51	1632.23
282.73	1611.75
282.94	1603.56
283.16	1722.34
283.37	1761.25
283.59	1673.19
283.80	1794.02
284.02	1722.34
284.23	1765.35
284.45	1691.62
284.66	1675.24
284.88	1767.40
285.09	1740.77
285.31	1744.87
285.52	1773.54
285.74	1611.75
285.95	1761.25
286.17	1714.15
286.38	1832.93
286.60	1759.21
286.81	1697.77
287.03	1708.01
287.24	1683.43
287.46	1708.01
287.67	1683.43
287.89	1888.23
288.10	1787.88
288.32	1757.16
288.53	1783.78
288.75	1757.16
288.96	1734.63
289.18	1677.29
289.39	1759.21
289.61	1806.31
289.82	1857.51
290.04	1806.31
290.25	1746.92
290.47	1703.91
290.68	1755.11
290.90	1796.07
291.11	1632.23
291.33	1753.06
291.54	1665.00
291.76	1660.90
291.97	1736.68
292.18	1746.92
292.40	1710.05
292.61	1726.44
292.83	1877.99
293.04	1759.21
293.26	1654.76
293.47	1755.11
293.69	1628.14
293.90	1714.15
294.12	1751.01
294.33	1716.20
294.55	1697.77
294.76	1720.29
294.97	1744.87
295.19	1791.97
295.40	1636.33
295.62	1677.29
295.83	1816.55
296.05	1667.05
296.26	1728.49
296.48	1691.62
296.69	1617.90
296.90	1724.39
297.12	1783.78
297.33	1753.06
297.55	1708.01
297.76	1732.58
297.98	1726.44
298.19	1693.67
298.41	1681.38
298.62	1658.85
298.83	1738.73
299.05	1718.25
299.26	1621.99
299.48	1615.85
299.69	1779.68
299.90	1757.16
300.12	1708.01
300.33	1763.30
300.55	1726.44
300.76	1742.82
300.98	1570.79
301.19	1738.73
301.40	1716.20
301.62	1748.97
301.83	1710.05
302.05	1796.07
302.26	1728.49
302.47	1714.15
302.69	1662.95
302.90	1673.19
303.12	1640.42
303.33	1779.68
303.54	1767.40
303.76	1732.58
303.97	1710.05
304.19	1871.84
304.40	1714.15
304.61	1767.40
304.83	1703.91
305.04	1779.68
305.26	1669.09
305.47	1699.81
305.68	1755.11
305.90	1679.33
306.11	1705.96
306.33	1658.85
306.54	1705.96
306.75	1716.20
306.97	1646.57
307.18	1603.56
307.39	1722.34
307.61	1671.14
307.82	1667.05
308.04	1699.81
308.25	1744.87
308.46	1773.54
308.68	1697.77
308.89	1767.40
309.10	1789.92
309.32	1800.16
309.53	1703.91
309.74	1712.10
309.96	1732.58
310.17	1806.31
310.39	1720.29
310.60	1744.87
310.81	1708.01
311.03	1656.81
311.24	1759.21
311.45	1681.38
311.67	1859.56
311.88	1728.49
312.09	1689.57
312.31	1732.58
312.52	1701.86
312.73	1632.23
312.95	1728.49
313.16	1718.25
313.37	1841.12
313.59	1697.77
313.80	1724.39
314.01	1742.82
314.23	1636.33
314.44	1652.71
314.65	1683.43
314.87	1744.87
315.08	1648.61
315.29	1624.04
315.51	1587.18
315.72	1624.04
315.93	1865.70
316.15	1808.36
316.36	1691.62
316.57	1744.87
316.79	1814.50
317.00	1691.62
317.21	1687.53
317.43	1591.27
317.64	1714.15
317.85	1665.00
318.07	1634.28
318.28	1708.01
318.49	1834.98
318.70	1849.32
318.92	1796.07
319.13	1810.40
319.34	1814.50
319.56	1742.82
319.77	1812.45
319.98	1781.73
320.20	1777.64
320.41	1724.39
320.62	1755.11
320.83	1574.89
321.05	1888.23
321.26	1730.53
321.47	1736.68
321.69	1724.39
321.90	1703.91
322.11	1689.57
322.32	1703.91
322.54	1820.64
322.75	1705.96
322.96	1798.12
323.18	1617.90
323.39	1617.90
323.60	1718.25
323.81	1742.82
324.03	1695.72
324.24	1767.40
324.45	1710.05
324.66	1701.86
324.88	1714.15
325.09	1845.22
325.30	1638.38
325.52	1699.81
325.73	1681.38
325.94	1617.90
326.15	1640.42
326.37	1626.09
326.58	1796.07
326.79	1753.06
327.00	1697.77
327.22	1781.73
327.43	1740.77
327.64	1656.81
327.85	1751.01
328.07	1740.77
328.28	1830.88
328.49	1734.63
328.70	1712.10
328.92	1751.01
329.13	1687.53
329.34	1656.81
329.55	1789.92
329.76	1732.58
329.98	1691.62
330.19	1775.59
330.40	1753.06
330.61	1697.77
330.83	1748.97
331.04	1585.13
331.25	1650.66
331.46	1630.18
331.68	1615.85
331.89	1808.36
332.10	1712.10
332.31	1599.46
332.52	1662.95
332.74	1773.54
332.95	1624.04
333.16	1710.05
333.37	1794.02
333.58	1667.05
333.80	1738.73
334.01	1634.28
334.22	1687.53
334.43	1568.74
334.64	1693.67
334.86	1591.27
335.07	1726.44
335.28	1767.40
335.49	1628.14
335.70	1636.33
335.92	1789.92
336.13	1834.98
336.34	1763.30
336.55	1755.11
336.76	1722.34
336.98	1708.01
337.19	1669.09
337.40	1865.70
337.61	1814.50
337.82	1697.77
338.04	1746.92
338.25	1585.13
338.46	1724.39
338.67	1691.62
338.88	1636.33
339.09	1697.77
339.31	1671.14
339.52	1609.70
339.73	1624.04
339.94	1685.48
340.15	1751.01
340.36	1662.95
340.58	1699.81
340.79	1634.28
341.00	1763.30
341.21	1734.63
341.42	1839.08
341.63	1675.24
341.85	1724.39
342.06	1812.45
342.27	1652.71
342.48	1699.81
342.69	1617.90
342.90	1701.86
343.12	1689.57
343.33	1677.29
343.54	1730.53
343.75	1853.41
343.96	1640.42
344.17	1605.61
344.38	1654.76
344.60	1697.77
344.81	1665.00
345.02	1708.01
345.23	1724.39
345.44	1742.82
345.65	1769.44
345.86	1777.64
346.07	1695.72
346.29	1720.29
346.50	1683.43
346.71	1689.57
346.92	1738.73
347.13	1865.70
347.34	1732.58
347.55	1658.85
347.76	1712.10
347.98	1636.33
348.19	1652.71
348.40	1800.16
348.61	1677.29
348.82	1830.88
349.03	1746.92
349.24	1585.13
349.45	1826.79
349.66	1617.90
349.88	1685.48
350.09	1675.24
350.30	1785.83
350.51	1746.92
350.72	1769.44
350.93	1730.53
351.14	1669.09
351.35	1753.06
351.56	1738.73
351.77	1722.34
351.99	1791.97
352.20	1767.40
352.41	1820.64
352.62	1628.14
352.83	1710.05
353.04	1642.47
353.25	1654.76
353.46	1765.35
353.67	1712.10
353.88	1617.90
354.09	1740.77
354.30	1730.53
354.52	1728.49
354.73	1656.81
354.94	1689.57
355.15	1804.26
355.36	1843.17
355.57	1662.95
355.78	1742.82
355.99	1603.56
356.20	1705.96
356.41	1828.84
356.62	1660.90
356.83	1779.68
357.04	1763.30
357.25	1568.74
357.46	1607.66
357.68	1658.85
357.89	1648.61
358.10	1742.82
358.31	1632.23
358.52	1656.81
358.73	1601.51
358.94	1656.81
359.15	1787.88
359.36	1705.96
359.57	1720.29
359.78	1665.00
359.99	1800.16
360.20	1636.33
360.41	1679.33
360.62	1785.83
360.83	1705.96
361.04	1705.96
361.25	1824.74
361.46	1779.68
361.67	1730.53
361.88	1697.77
362.09	1787.88
362.30	1738.73
362.51	1697.77
362.72	1712.10
362.93	1675.24
363.14	1720.29
363.35	1716.20
363.56	1669.09
363.78	1812.45
363.99	1675.24
364.20	1722.34
364.41	1781.73
364.62	1834.98
364.83	1693.67
365.04	1765.35
365.25	1703.91
365.46	1859.56
365.67	1693.67
365.88	1595.37
366.09	1693.67
366.30	1650.66
366.51	1724.39
366.72	1636.33
366.93	1728.49
367.14	1673.19
367.35	1748.97
367.56	1626.09
367.77	1834.98
367.98	1722.34
368.18	1751.01
368.39	1730.53
368.60	1654.76
368.81	1693.67
369.02	1658.85
369.23	1724.39
369.44	1624.04
369.65	1738.73
369.86	1763.30
370.07	1736.68
370.28	1705.96
370.49	1755.11
370.70	1656.81
370.91	1642.47
371.12	1660.90
371.33	1763.30
371.54	1626.09
371.75	1806.31
371.96	1644.52
372.17	1736.68
372.38	1662.95
372.59	1765.35
372.80	1681.38
373.01	1681.38
373.22	1681.38
373.43	1695.72
373.64	1685.48
373.85	1734.63
374.06	1798.12
374.26	1742.82
374.47	1714.15
374.68	1740.77
374.89	1691.62
375.10	1734.63
375.31	1673.19
375.52	1730.53
375.73	1722.34
375.94	1665.00
376.15	1746.92
376.36	1669.09
376.57	1677.29
376.78	1683.43
376.99	1703.91
377.20	1841.12
377.40	1615.85
377.61	1826.79
377.82	1716.20
378.03	1681.38
378.24	1732.58
378.45	1726.44
378.66	1720.29
378.87	1531.88
379.08	1607.66
379.29	1656.81
379.50	1728.49
379.71	1699.81
379.91	1738.73
380.12	1665.00
380.33	1751.01
380.54	1675.24
380.75	1642.47
380.96	1724.39
381.17	1783.78
381.38	1673.19
381.59	1771.49
381.80	1693.67
382.00	1890.28
382.21	1714.15
382.42	1824.74
382.63	1910.75
382.84	1755.11
383.05	1740.77
383.26	1853.41
383.47	1785.83
383.68	1804.26
383.88	1710.05
384.09	1667.05
384.30	1779.68
384.51	1728.49
384.72	1679.33
384.93	1660.90
385.14	1689.57
385.35	1685.48
385.55	1660.90
385.76	1724.39
385.97	1683.43
386.18	1621.99
386.39	1738.73
386.60	1675.24
386.81	1789.92
387.02	1660.90
387.22	1705.96
387.43	1742.82
387.64	1843.17
387.85	1892.32
388.06	2195.42
388.27	4194.24
388.48	6764.44
388.68	8013.70
388.89	9586.54
389.10	9953.13
389.31	8599.42
389.52	7565.20
389.73	6664.09
389.93	6338.46
390.14	5840.81
390.35	5183.41
390.56	4675.51
390.77	3852.23
390.98	2994.13
391.18	2600.92
391.39	2152.42
391.60	1849.32
391.81	1832.93
392.02	1724.39
392.23	1853.41
392.43	1716.20
392.64	1847.27
392.85	1789.92
393.06	1783.78
393.27	1712.10
393.47	1767.40
393.68	1718.25
393.89	1699.81
394.10	1753.06
394.31	1697.77
394.52	1720.29
394.72	1671.14
394.93	1783.78
395.14	1669.09
395.35	1730.53
395.56	1705.96
395.76	1654.76
395.97	1841.12
396.18	1814.50
396.39	1812.45
396.60	2119.65
396.80	1896.42
397.01	1822.69
397.22	1787.88
397.43	1925.09
397.64	1693.67
397.84	1861.60
398.05	1785.83
398.26	1804.26
398.47	1759.21
398.67	1783.78
398.88	1718.25
399.09	1712.10
399.30	1695.72
399.51	1675.24
399.71	1630.18
399.92	1689.57
400.13	1734.63
400.34	1658.85
400.54	1656.81
400.75	1832.93
400.96	1757.16
401.17	1787.88
401.37	1777.64
401.58	1654.76
401.79	1697.77
402.00	1871.84
402.21	2107.36
402.41	1945.57
402.62	2019.30
402.83	2017.25
403.04	1957.86
403.24	2027.49
403.45	1769.44
403.66	1900.52
403.87	1820.64
404.07	1902.56
404.28	1865.70
404.49	1808.36
404.70	1804.26
404.90	1767.40
405.11	1695.72
405.32	1746.92
405.52	1722.34
405.73	1693.67
405.94	1665.00
406.15	1681.38
406.35	1755.11
406.56	1667.05
406.77	1763.30
406.98	1728.49
407.18	1642.47
407.39	1837.03
407.60	1626.09
407.80	1710.05
408.01	1591.27
408.22	1755.11
408.43	1703.91
408.63	1728.49
408.84	1712.10
409.05	1738.73
409.25	1722.34
409.46	1716.20
409.67	1640.42
409.88	1650.66
410.08	1781.73
410.29	1724.39
410.50	1767.40
410.70	1755.11
410.91	1642.47
411.12	1671.14
411.32	1746.92
411.53	1701.86
411.74	1775.59
411.95	1738.73
412.15	1755.11
412.36	1837.03
412.57	1701.86
412.77	1787.88
412.98	1730.53
413.19	1691.62
413.39	1746.92
413.60	1785.83
413.81	1820.64
414.01	1656.81
414.22	1779.68
414.43	1716.20
414.63	1720.29
414.84	1740.77
415.05	1796.07
415.25	1724.39
415.46	1701.86
415.67	1595.37
415.87	1716.20
416.08	1755.11
416.29	1777.64
416.49	1767.40
416.70	1685.48
416.91	1708.01
417.11	1736.68
417.32	1740.77
417.53	1789.92
417.73	1695.72
417.94	1693.67
418.15	1710.05
418.35	1779.68
418.56	1681.38
418.77	1853.41
418.97	1613.80
419.18	1705.96
419.38	1667.05
419.59	1742.82
419.80	1804.26
420.00	1714.15
420.21	1665.00
420.42	1753.06
420.62	1714.15
420.83	1683.43
421.04	1712.10
421.24	1736.68
421.45	1681.38
421.65	1689.57
421.86	1740.77
422.07	1773.54
422.27	1675.24
422.48	1722.34
422.69	1654.76
422.89	1781.73
423.10	1693.67
423.30	1632.23
423.51	1759.21
423.72	1812.45
423.92	1785.83
424.13	1683.43
424.33	1773.54
424.54	1765.35
424.75	1800.16
424.95	1849.32
425.16	1806.31
425.36	1705.96
425.57	1806.31
425.78	1734.63
425.98	1796.07
426.19	1605.61
426.39	1611.75
426.60	1761.25
426.81	1843.17
427.01	1648.61
427.22	1650.66
427.42	1605.61
427.63	1691.62
427.83	1724.39
428.04	1757.16
428.25	1832.93
428.45	1783.78
428.66	1791.97
428.86	1726.44
429.07	1646.57
429.28	1716.20
429.48	1746.92
429.69	1685.48
429.89	1730.53
430.10	1693.67
430.30	1781.73
430.51	1710.05
430.71	1712.10
430.92	1734.63
431.13	1599.46
431.33	1693.67
431.54	1781.73
431.74	1865.70
431.95	1765.35
432.15	1644.52
432.36	1767.40
432.56	1832.93
432.77	1746.92
432.98	1794.02
433.18	1753.06
433.39	1771.49
433.59	1697.77
433.80	1783.78
434.00	1824.74
434.21	1699.81
434.41	1640.42
434.62	1822.69
434.82	1738.73
435.03	1617.90
435.23	1734.63
435.44	1667.05
435.64	1710.05
435.85	1771.49
436.06	1791.97
436.26	1742.82
436.47	1753.06
436.67	1675.24
436.88	1789.92
437.08	1730.53
437.29	1826.79
437.49	1804.26
437.70	1826.79
437.90	1773.54
438.11	1755.11
438.31	1751.01
438.52	1910.75
438.72	1834.98
438.93	1888.23
439.13	1787.88
439.34	1814.50
439.54	1759.21
439.75	1845.22
439.95	1705.96
440.16	1759.21
440.36	1796.07
440.57	1744.87
440.77	1757.16
440.98	1763.30
441.18	1734.63
441.39	1716.20
441.59	1642.47
441.80	1789.92
442.00	1687.53
442.21	1814.50
442.41	1681.38
442.62	1851.36
442.82	1648.61
443.02	1691.62
443.23	1845.22
443.43	1769.44
443.64	1796.07
443.84	1736.68
444.05	1769.44
444.25	1783.78
444.46	1689.57
444.66	1767.40
444.87	1812.45
445.07	1699.81
445.28	1730.53
445.48	1828.84
445.69	1781.73
445.89	2019.30
446.09	1718.25
446.30	2004.96
446.50	2658.26
446.71	3676.10
446.91	4298.69
447.12	4771.77
447.32	4915.12
447.53	4317.12
447.73	3878.85
447.93	3532.75
448.14	3323.85
448.34	3229.65
448.55	2953.17
448.75	2832.34
448.96	2693.08
449.16	2377.69
449.36	2308.06
449.57	2031.58
449.77	1945.57
449.98	1818.60
450.18	1810.40
450.39	1843.17
450.59	1894.37
450.79	1726.44
451.00	1779.68
451.20	1751.01
451.41	1746.92
451.61	1773.54
451.81	1828.84
452.02	1720.29
452.22	1726.44
452.43	1691.62
452.63	1656.81
452.84	1689.57
453.04	1742.82
453.24	1757.16
453.45	1673.19
453.65	1755.11
453.86	1875.94
454.06	1794.02
454.26	1708.01
454.47	1759.21
454.67	1845.22
454.87	1718.25
455.08	1701.86
455.28	1847.27
455.49	1755.11
455.69	1640.42
455.89	1869.80
456.10	1857.51
456.30	1718.25
456.51	1785.83
456.71	1779.68
456.91	1806.31
457.12	1757.16
457.32	1798.12
457.52	1695.72
457.73	1730.53
457.93	1708.01
458.14	1662.95
458.34	1656.81
458.54	1736.68
458.75	1728.49
458.95	1890.28
459.15	1769.44
459.36	1701.86
459.56	1783.78
459.76	1882.08
459.97	1828.84
460.17	1742.82
460.37	1697.77
460.58	1730.53
460.78	1730.53
460.99	1720.29
461.19	1757.16
461.39	1646.57
461.60	1726.44
461.80	1695.72
462.00	1773.54
462.21	1703.91
462.41	1740.77
462.61	1685.48
462.82	1609.70
463.02	1775.59
463.22	1732.58
463.43	1794.02
463.63	1699.81
463.83	1849.32
464.04	1798.12
464.24	1777.64
464.44	1685.48
464.64	1665.00
464.85	1781.73
465.05	1746.92
465.25	1802.21
465.46	1667.05
465.66	1820.64
465.86	1779.68
466.07	1740.77
466.27	1783.78
466.47	1642.47
466.68	1658.85
466.88	1791.97
467.08	1742.82
467.29	1734.63
467.49	1832.93
467.69	1763.30
467.89	1779.68
468.10	1732.58
468.30	1765.35
468.50	1738.73
468.71	1759.21
468.91	1626.09
469.11	1773.54
469.31	1722.34
469.52	1662.95
469.72	1720.29
469.92	1890.28
470.13	1728.49
470.33	1779.68
470.53	1849.32
470.73	2088.93
470.94	2301.92
471.14	2381.79
471.34	2619.35
471.54	2385.88
471.75	2215.90
471.95	2170.85
472.15	2123.74
472.36	2078.69
472.56	2029.54
472.76	2023.39
472.96	1939.43
473.17	1896.42
473.37	1959.91
473.57	1775.59
473.77	1877.99
473.98	1775.59
474.18	1732.58
474.38	1918.95
474.58	1646.57
474.79	1744.87
474.99	1740.77
475.19	1751.01
475.39	1687.53
475.60	1753.06
475.80	1734.63
476.00	1736.68
476.20	1662.95
476.41	1722.34
476.61	1941.47
476.81	1779.68
477.01	1767.40
477.21	1939.43
477.42	1728.49
477.62	1673.19
477.82	1775.59
478.02	1767.40
478.23	1773.54
478.43	1640.42
478.63	1681.38
478.83	1695.72
479.03	1701.86
479.24	1828.84
479.44	1824.74
479.64	1703.91
479.84	1632.23
480.04	1683.43
480.25	1769.44
480.45	1665.00
480.65	1714.15
480.85	1771.49
481.06	1660.90
481.26	1730.53
481.46	1839.08
481.66	1820.64
481.86	1710.05
482.06	1779.68
482.27	1771.49
482.47	1675.24
482.67	1759.21
482.87	1677.29
483.07	1816.55
483.28	1703.91
483.48	1665.00
483.68	1699.81
483.88	1703.91
484.08	1626.09
484.29	1636.33
484.49	1726.44
484.69	1650.66
484.89	1791.97
485.09	1755.11
485.29	1787.88
485.50	1779.68
485.70	1771.49
485.90	1822.69
486.10	1804.26
486.30	1783.78
486.50	1779.68
486.71	1746.92
486.91	1740.77
487.11	1798.12
487.31	1677.29
487.51	1751.01
487.71	1669.09
487.91	1703.91
488.12	1685.48
488.32	1550.31
488.52	1705.96
488.72	1617.90
488.92	1714.15
489.12	1789.92
489.32	1787.88
489.53	1796.07
489.73	1650.66
489.93	1902.56
490.13	1673.19
490.33	1714.15
490.53	1753.06
490.73	1765.35
490.94	1710.05
491.14	1726.44
491.34	1808.36
491.54	2244.57
491.74	2639.83
491.94	2918.36
492.14	2975.70
492.34	3065.81
492.54	2828.24
492.75	2500.57
492.95	2459.61
493.15	2289.63
493.35	2314.20
493.55	2238.43
493.75	2150.37
493.95	2107.36
494.15	2082.78
494.35	1920.99
494.56	1910.75
494.76	1705.96
494.96	1828.84
495.16	1787.88
495.36	1757.16
495.56	1691.62
495.76	1677.29
495.96	1673.19
496.16	1746.92
496.36	1857.51
496.56	1738.73
496.77	1726.44
496.97	1740.77
497.17	1767.40
497.37	1630.18
497.57	1726.44
497.77	1716.20
497.97	1710.05
498.17	1695.72
498.37	1738.73
498.57	1697.77
498.77	1656.81
498.97	1748.97
499.17	1855.46
499.38	1736.68
499.58	1806.31
499.78	1775.59
499.98	1812.45
500.18	1712.10
500.38	1697.77
500.58	1845.22
500.78	2611.16
500.98	4669.37
501.18	5918.63
501.38	6733.72
501.58	7227.28
501.78	6614.94
501.98	5676.97
502.18	5029.81
502.38	4341.69
502.58	4116.42
502.78	3706.82
502.98	3708.87
503.18	3411.92
503.38	3166.16
503.59	2811.86
503.79	2635.74
503.99	2529.24
504.19	2383.84
504.39	2222.05
504.59	2205.66
504.79	2158.56
504.99	2117.60
505.19	1900.52
505.39	1906.66
505.59	1918.95
505.79	1920.99
505.99	1890.28
506.19	1779.68
506.39	1927.14
506.59	1732.58
506.79	1832.93
506.99	1775.59
507.19	1857.51
507.39	1716.20
507.59	1667.05
507.79	1718.25
507.99	1681.38
508.19	1740.77
508.39	1591.27
508.59	1837.03
508.79	1845.22
508.99	1873.89
509.19	1775.59
509.39	1730.53
509.59	1730.53
509.79	1738.73
509.99	1753.06
510.19	1761.25
510.39	1822.69
510.59	1705.96
510.79	1757.16
510.99	1734.63
511.19	1755.11
511.39	1775.59
511.59	1746.92
511.79	1810.40
511.99	1822.69
512.19	1820.64
512.38	1730.53
512.58	1708.01
512.78	1789.92
512.98	1746.92
513.18	1824.74
513.38	1685.48
513.58	1812.45
513.78	1708.01
513.98	1718.25
514.18	1769.44
514.38	1753.06
514.58	1736.68
514.78	1732.58
514.98	1654.76
515.18	1775.59
515.38	1648.61
515.58	1853.41
515.78	1669.09
515.98	1738.73
516.18	1765.35
516.38	1783.78
516.57	1708.01
516.77	1757.16
516.97	1781.73
517.17	1652.71
517.37	1671.14
517.57	1877.99
517.77	1804.26
517.97	1787.88
518.17	1755.11
518.37	1712.10
518.57	1656.81
518.77	1779.68
518.97	1662.95
519.16	1779.68
519.36	1816.55
519.56	1699.81
519.76	1769.44
519.96	1718.25
520.16	1763.30
520.36	1703.91
520.56	1843.17
520.76	1652.71
520.96	1714.15
521.16	1730.53
521.35	1824.74
521.55	1830.88
521.75	1769.44
521.95	1736.68
522.15	1703.91
522.35	1677.29
522.55	1697.77
522.75	1822.69
522.95	1705.96
523.14	1644.52
523.34	1771.49
523.54	1689.57
523.74	1761.25
523.94	1708.01
524.14	1636.33
524.34	1708.01
524.54	1820.64
524.73	1693.67
524.93	1761.25
525.13	1798.12
525.33	1742.82
525.53	1796.07
525.73	1867.75
525.93	1712.10
526.13	1718.25
526.32	1708.01
526.52	1763.30
526.72	1783.78
526.92	1740.77
527.12	1705.96
527.32	1671.14
527.52	1691.62
527.71	1818.60
527.91	1783.78
528.11	1687.53
528.31	1757.16
528.51	1636.33
528.71	1785.83
528.90	1787.88
529.10	1755.11
529.30	1773.54
529.50	1566.70
529.70	1716.20
529.90	1636.33
530.09	1810.40
530.29	1705.96
530.49	1697.77
530.69	1828.84
530.89	1746.92
531.09	1791.97
531.28	1673.19
531.48	1816.55
531.68	1716.20
531.88	1667.05
532.08	1775.59
532.28	1726.44
532.47	1824.74
532.67	1806.31
532.87	1724.39
533.07	1748.97
533.27	1800.16
533.46	1755.11
533.66	1759.21
533.86	1701.86
534.06	1648.61
534.26	1679.33
534.45	1722.34
534.65	1789.92
534.85	1722.34
535.05	1703.91
535.25	1744.87
535.44	1675.24
535.64	1757.16
535.84	1710.05
536.04	1755.11
536.24	1763.30
536.43	1716.20
536.63	1755.11
536.83	1771.49
537.03	1718.25
537.22	1650.66
537.42	1593.32
537.62	1796.07
537.82	1697.77
538.02	1810.40
538.21	1853.41
538.41	1918.95
538.61	1732.58
538.81	1658.85
539.00	1812.45
539.20	1665.00
539.40	1691.62
539.60	1781.73
539.79	1765.35
539.99	1687.53
540.19	1724.39
540.39	1806.31
540.58	1671.14
540.78	1726.44
540.98	1767.40
541.18	1753.06
541.37	1828.84
541.57	1697.77
541.77	1771.49
541.97	1681.38
542.16	1673.19
542.36	1683.43
542.56	1660.90
542.76	1824.74
542.95	1783.78
543.15	1683.43
543.35	1718.25
543.54	1708.01
543.74	1681.38
543.94	1777.64
544.14	1652.71
544.33	1773.54
544.53	1777.64
544.73	1748.97
544.93	1699.81
545.12	1804.26
545.32	1804.26
545.52	1660.90
545.71	1728.49
545.91	1753.06
546.11	1697.77
546.30	1648.61
546.50	1730.53
546.70	1763.30
546.90	1714.15
547.09	1648.61
547.29	1726.44
547.49	1748.97
547.68	1755.11
547.88	1738.73
548.08	1820.64
548.27	2164.70
548.47	1732.58
548.67	1705.96
548.87	1830.88
549.06	1697.77
549.26	1773.54
549.46	1771.49
549.65	1656.81
549.85	1720.29
550.05	1812.45
550.24	1642.47
550.44	1734.63
550.64	1701.86
550.83	1800.16
551.03	1777.64
551.23	1781.73
551.42	1832.93
551.62	1755.11
551.82	1757.16
552.01	1689.57
552.21	1869.80
552.41	1796.07
552.60	1828.84
552.80	1736.68
553.00	1716.20
553.19	1787.88
553.39	1804.26
553.59	1710.05
553.78	1804.26
553.98	1773.54
554.17	1689.57
554.37	1708.01
554.57	1738.73
554.76	1710.05
554.96	1669.09
555.16	1736.68
555.35	1728.49
555.55	1746.92
555.75	1726.44
555.94	1875.94
556.14	1667.05
556.33	1763.30
556.53	1753.06
556.73	1685.48
556.92	1763.30
557.12	1814.50
557.32	1931.23
557.51	1820.64
557.71	1828.84
557.90	1703.91
558.10	1732.58
558.30	1751.01
558.49	1679.33
558.69	1757.16
558.88	1769.44
559.08	1742.82
559.28	1787.88
559.47	1804.26
559.67	1769.44
559.86	1863.65
560.06	1748.97
560.26	1726.44
560.45	1800.16
560.65	1728.49
560.84	1816.55
561.04	1695.72
561.24	1814.50
561.43	1638.38
561.63	1861.60
561.82	1783.78
562.02	1787.88
562.22	1761.25
562.41	1615.85
562.61	1734.63
562.80	1769.44
563.00	1828.84
563.19	1718.25
563.39	1775.59
563.59	1781.73
563.78	1689.57
563.98	1601.51
564.17	1738.73
564.37	1687.53
564.56	1753.06
564.76	1734.63
564.96	1822.69
565.15	1742.82
565.35	1794.02
565.54	1751.01
565.74	1787.88
565.93	1720.29
566.13	1736.68
566.32	1751.01
566.52	1798.12
566.71	1746.92
566.91	1755.11
567.11	1693.67
567.30	1800.16
567.50	1800.16
567.69	1744.87
567.89	1843.17
568.08	1730.53
568.28	1804.26
568.47	1697.77
568.67	1789.92
568.86	1751.01
569.06	1800.16
569.25	1712.10
569.45	1654.76
569.64	1738.73
569.84	1738.73
570.04	1806.31
570.23	1746.92
570.43	1726.44
570.62	1722.34
570.82	1779.68
571.01	1626.09
571.21	1642.47
571.40	1636.33
571.60	1722.34
571.79	1738.73
571.99	1751.01
572.18	1660.90
572.38	1667.05
572.57	1710.05
572.77	1769.44
572.96	1828.84
573.16	1722.34
573.35	1687.53
573.55	1818.60
573.74	1773.54
573.94	1683.43
574.13	1855.46
574.33	1822.69
574.52	1730.53
574.71	1691.62
574.91	1722.34
575.10	1718.25
575.30	1732.58
575.49	1730.53
575.69	1716.20
575.88	1783.78
576.08	1726.44
576.27	1787.88
576.47	1728.49
576.66	1828.84
576.86	1834.98
577.05	1746.92
577.25	1824.74
577.44	1849.32
577.64	1677.29
577.83	1804.26
578.02	1744.87
578.22	1798.12
578.41	1865.70
578.61	1662.95
578.80	1705.96
579.00	1755.11
579.19	1699.81
579.39	1814.50
579.58	1794.02
579.77	1751.01
579.97	1865.70
580.16	1796.07
580.36	1904.61
580.55	1837.03
580.75	1808.36
580.94	1693.67
581.13	1890.28
581.33	1814.50
581.52	1847.27
581.72	1839.08
581.91	1847.27
582.11	1828.84
582.30	1841.12
582.49	1830.88
582.69	1810.40
582.88	1748.97
583.08	1779.68
583.27	1851.36
583.47	1759.21
583.66	1673.19
583.85	1640.42
584.05	1705.96
584.24	1781.73
584.44	1761.25
584.63	1857.51
584.82	1804.26
585.02	1783.78
585.21	1830.88
585.41	1794.02
585.60	1832.93
585.79	1959.91
585.99	1943.52
586.18	1892.32
586.37	2107.36
586.57	3321.81
586.76	9787.24
586.96	24565.39
587.15	34280.95
587.34	40643.99
587.54	42335.61
587.73	36271.57
587.93	26691.18
588.12	21737.14
588.31	18321.13
588.51	16350.98
588.70	15269.66
588.89	14251.81
589.09	12574.53
589.28	11032.41
589.47	9523.05
589.67	8046.47
589.86	6524.83
590.06	4898.74
590.25	3928.00
590.44	3106.77
590.64	2615.26
590.83	2232.29
591.02	2088.93
591.22	1929.19
591.41	1912.80
591.60	1816.55
591.80	1918.95
591.99	1732.58
592.18	1820.64
592.38	1779.68
592.57	1718.25
592.76	1710.05
592.96	1769.44
593.15	1789.92
593.34	1744.87
593.54	1761.25
593.73	1812.45
593.92	1824.74
594.12	1773.54
594.31	1810.40
594.50	1843.17
594.70	1763.30
594.89	1828.84
595.08	1636.33
595.28	1761.25
595.47	1894.37
595.66	1822.69
595.86	1597.42
596.05	1730.53
596.24	1759.21
596.43	1810.40
596.63	1787.88
596.82	1738.73
597.01	1679.33
597.21	1785.83
597.40	1777.64
597.59	1701.86
597.79	1751.01
597.98	1785.83
598.17	1781.73
598.36	1708.01
598.56	1779.68
598.75	1722.34
598.94	1802.21
599.14	1796.07
599.33	1705.96
599.52	1810.40
599.71	1769.44
599.91	1810.40
600.10	1751.01
600.29	1767.40
600.48	1857.51
600.68	1722.34
600.87	1652.71
601.06	1724.39
601.26	1761.25
601.45	1742.82
601.64	1708.01
601.83	1791.97
602.03	1673.19
602.22	1640.42
602.41	1755.11
602.60	1925.09
602.80	1822.69
602.99	1771.49
603.18	1761.25
603.37	1740.77
603.57	1740.77
603.76	1751.01
603.95	1796.07
604.14	1705.96
604.34	1710.05
604.53	1689.57
604.72	1728.49
604.91	1789.92
605.10	1837.03
605.30	1691.62
605.49	1779.68
605.68	1751.01
605.87	1812.45
606.07	1710.05
606.26	1755.11
606.45	1732.58
606.64	1718.25
606.84	1667.05
607.03	1800.16
607.22	1841.12
607.41	1619.94
607.60	1699.81
607.80	1726.44
607.99	1667.05
608.18	1794.02
608.37	1794.02
608.56	1738.73
608.76	1808.36
608.95	1865.70
609.14	1828.84
609.33	1763.30
609.52	1812.45
609.72	1660.90
609.91	1755.11
610.10	1751.01
610.29	1804.26
610.48	1710.05
610.68	1759.21
610.87	1669.09
611.06	1757.16
611.25	1779.68
611.44	1839.08
611.63	1714.15
611.83	1781.73
612.02	1671.14
612.21	1861.60
612.40	1665.00
612.59	1759.21
612.79	1683.43
612.98	1708.01
613.17	1884.13
613.36	1701.86
613.55	1738.73
613.74	1697.77
613.93	1757.16
614.13	1730.53
614.32	1847.27
614.51	1789.92
614.70	1720.29
614.89	1734.63
615.08	1777.64
615.28	2035.68
615.47	1640.42
615.66	1746.92
615.85	1734.63
616.04	1812.45
616.23	1660.90
616.42	1753.06
616.62	1705.96
616.81	1808.36
617.00	1615.85
617.19	1826.79
617.38	1646.57
617.57	1689.57
617.76	1742.82
617.95	1781.73
618.15	1691.62
618.34	1814.50
618.53	1718.25
618.72	1808.36
618.91	1861.60
619.10	1845.22
619.29	1724.39
619.48	1771.49
619.68	1656.81
619.87	1761.25
620.06	1671.14
620.25	1763.30
620.44	1757.16
620.63	1691.62
620.82	1679.33
621.01	1757.16
621.20	1679.33
621.39	1640.42
621.59	1724.39
621.78	1662.95
621.97	1628.14
622.16	1783.78
622.35	1738.73
622.54	1796.07
622.73	1767.40
622.92	1675.24
623.11	1734.63
623.30	1695.72
623.49	1800.16
623.68	1708.01
623.88	1746.92
624.07	1718.25
624.26	1646.57
624.45	1828.84
624.64	1650.66
624.83	1689.57
625.02	1718.25
625.21	1763.30
625.40	1697.77
625.59	1802.21
625.78	1714.15
625.97	1767.40
626.16	1808.36
626.35	1693.67
626.54	1687.53
626.74	1740.77
626.93	1603.56
627.12	1697.77
627.31	1765.35
627.50	1769.44
627.69	1783.78
627.88	1757.16
628.07	1697.77
628.26	1697.77
628.45	1626.09
628.64	1671.14
628.83	1712.10
629.02	1697.77
629.21	1748.97
629.40	1751.01
629.59	1636.33
629.78	1699.81
629.97	1701.86
630.16	1689.57
630.35	1730.53
630.54	1773.54
630.73	1697.77
630.92	1748.97
631.11	1671.14
631.30	1789.92
631.49	1771.49
631.68	1798.12
631.87	1787.88
632.06	1595.37
632.25	1755.11
632.44	1712.10
632.63	1624.04
632.82	1648.61
633.01	1619.94
633.20	1656.81
633.39	1720.29
633.58	1673.19
633.77	1726.44
633.96	1794.02
634.15	1773.54
634.34	1763.30
634.53	1718.25
634.72	1710.05
634.91	1722.34
635.10	1755.11
635.29	1710.05
635.48	1779.68
635.67	1683.43
635.86	1699.81
636.05	1759.21
636.24	1708.01
636.43	1656.81
636.62	1746.92
636.81	1568.74
637.00	1689.57
637.19	1765.35
637.38	1638.38
637.57	1665.00
637.76	1689.57
637.95	1742.82
638.14	1695.72
638.33	1724.39
638.52	1753.06
638.71	1654.76
638.89	1648.61
639.08	1843.17
639.27	1775.59
639.46	1689.57
639.65	1861.60
639.84	1769.44
640.03	1759.21
640.22	1650.66
640.41	1845.22
640.60	1669.09
640.79	1767.40
640.98	1669.09
641.17	1818.60
641.36	1740.77
641.55	1783.78
641.74	1638.38
641.92	1714.15
642.11	1669.09
642.30	1726.44
642.49	1712.10
642.68	1615.85
642.87	1728.49
643.06	1800.16
643.25	1667.05
643.44	1624.04
643.63	1691.62
643.82	1783.78
644.00	1691.62
644.19	1726.44
644.38	1644.52
644.57	1703.91
644.76	1802.21
644.95	1736.68
645.14	1646.57
645.33	1765.35
645.52	1701.86
645.71	1665.00
645.89	1599.46
646.08	1804.26
646.27	1646.57
646.46	1787.88
646.65	1650.66
646.84	1751.01
647.03	1697.77
647.22	1832.93
647.40	1730.53
647.59	1728.49
647.78	1621.99
647.97	1587.18
648.16	1665.00
648.35	1796.07
648.54	1777.64
648.73	1695.72
648.91	1812.45
649.10	1691.62
649.29	1697.77
649.48	1726.44
649.67	1746.92
649.86	1755.11
650.05	1619.94
650.23	1761.25
650.42	1644.52
650.61	1755.11
650.80	1744.87
650.99	1863.65
651.18	1804.26
651.36	1806.31
651.55	1738.73
651.74	1716.20
651.93	1632.23
652.12	1734.63
652.31	1728.49
652.49	1693.67
652.68	1624.04
652.87	1759.21
653.06	1718.25
653.25	1730.53
653.44	1712.10
653.62	1804.26
653.81	1687.53
654.00	1724.39
654.19	1775.59
654.38	1882.08
654.56	1667.05
654.75	1693.67
654.94	1712.10
655.13	1714.15
655.32	1675.24
655.51	1734.63
655.69	1746.92
655.88	1732.58
656.07	1624.04
656.26	1775.59
656.45	1624.04
656.63	1699.81
656.82	1705.96
657.01	1773.54
657.20	1736.68
657.38	1798.12
657.57	1650.66
657.76	1640.42
657.95	1738.73
658.14	1720.29
658.32	1757.16
658.51	1705.96
658.70	1710.05
658.89	1732.58
659.08	1710.05
659.26	1816.55
659.45	1689.57
659.64	1724.39
659.83	1613.80
660.01	1861.60
660.20	1716.20
660.39	1861.60
660.58	1632.23
660.76	1763.30
660.95	1705.96
661.14	1781.73
661.33	1644.52
661.51	1693.67
661.70	1746.92
661.89	1771.49
662.08	1724.39
662.26	1632.23
662.45	1691.62
662.64	1791.97
662.83	1744.87
663.01	1662.95
663.20	1720.29
663.39	1804.26
663.58	1728.49
663.76	1740.77
663.95	1787.88
664.14	1621.99
664.32	1777.64
664.51	1624.04
664.70	1581.03
664.89	1746.92
665.07	1720.29
665.26	1779.68
665.45	1652.71
665.64	1796.07
665.82	1736.68
666.01	1755.11
666.20	1609.70
666.38	1800.16
666.57	1824.74
666.76	2181.09
666.95	4536.25
667.13	10426.21
667.32	15259.42
667.51	17968.88
667.69	19244.76
667.88	17821.42
668.07	12402.50
668.25	9369.46
668.44	8163.20
668.63	7358.35
668.81	6838.17
669.00	6313.89
669.19	5949.35
669.38	5115.83
669.56	4597.69
669.75	4032.45
669.94	3471.31
670.12	2912.21
670.31	2527.19
670.50	2340.83
670.68	2082.78
670.87	1927.14
671.06	1787.88
671.24	1806.31
671.43	1847.27
671.62	1742.82
671.80	1716.20
671.99	1726.44
672.18	1789.92
672.36	1796.07
672.55	1718.25
672.74	1675.24
672.92	1648.61
673.11	1699.81
673.29	1603.56
673.48	1755.11
673.67	1644.52
673.85	1806.31
674.04	1701.86
674.23	1673.19
674.41	1820.64
674.60	1732.58
674.79	1687.53
674.97	1642.47
675.16	1689.57
675.34	1763.30
675.53	1703.91
675.72	1675.24
675.90	1757.16
676.09	1695.72
676.28	1748.97
676.46	1677.29
676.65	1759.21
676.83	1638.38
677.02	1728.49
677.21	1796.07
677.39	1728.49
677.58	1689.57
677.77	1730.53
677.95	1742.82
678.14	1779.68
678.32	1648.61
678.51	1703.91
678.70	1806.31
678.88	1656.81
679.07	1744.87
679.25	1736.68
679.44	1656.81
679.63	1607.66
679.81	1748.97
680.00	1816.55
680.18	1689.57
680.37	1765.35
680.55	1697.77
680.74	1585.13
680.93	1603.56
681.11	1734.63
681.30	1720.29
681.48	1783.78
681.67	1681.38
681.85	1683.43
682.04	1613.80
682.23	1863.65
682.41	1736.68
682.60	1687.53
682.78	1669.09
682.97	1609.70
683.15	1746.92
683.34	1687.53
683.53	1751.01
683.71	1638.38
683.90	1839.08
684.08	1728.49
684.27	1712.10
684.45	1679.33
684.64	1765.35
684.82	1683.43
685.01	1773.54
685.19	1695.72
685.38	1757.16
685.57	1656.81
685.75	1675.24
685.94	1716.20
686.12	1628.14
686.31	1574.89
686.49	1875.94
686.68	1634.28
686.86	1716.20
687.05	1755.11
687.23	1814.50
687.42	1714.15
687.60	1638.38
687.79	1796.07
687.97	1837.03
688.16	1728.49
688.34	1806.31
688.53	1615.85
688.71	1699.81
688.90	1775.59
689.08	1777.64
689.27	1658.85
689.45	1714.15
689.64	1761.25
689.82	1726.44
690.01	1791.97
690.19	1699.81
690.38	1695.72
690.56	1738.73
690.75	1724.39
690.93	1685.48
691.12	1662.95
691.30	1734.63
691.49	1632.23
691.67	1699.81
691.86	1820.64
692.04	1658.85
692.23	1671.14
692.41	1644.52
692.60	1839.08
692.78	1718.25
692.97	1660.90
693.15	1724.39
693.34	1816.55
693.52	1755.11
693.71	1705.96
693.89	1718.25
694.08	1652.71
694.26	1703.91
694.44	1769.44
694.63	1759.21
694.81	1615.85
695.00	1658.85
695.18	1791.97
695.37	1781.73
695.55	1753.06
695.74	1677.29
695.92	1740.77
696.10	1830.88
696.29	1689.57
696.47	1701.86
696.66	1593.32
696.84	1632.23
697.03	1691.62
697.21	1869.80
697.40	2283.49
697.58	1824.74
697.76	1662.95
697.95	1601.51
698.13	1701.86
698.32	1671.14
698.50	1681.38
698.68	1703.91
698.87	1685.48
699.05	1761.25
699.24	1720.29
699.42	1675.24
699.61	1710.05
699.79	1681.38
699.97	1763.30
700.16	1646.57
700.34	1624.04
700.53	1695.72
700.71	1826.79
700.89	1771.49
701.08	1765.35
701.26	1732.58
701.45	2099.17
701.63	1687.53
701.81	1710.05
702.00	1636.33
702.18	1714.15
702.37	1671.14
702.55	1710.05
702.73	1667.05
702.92	1640.42
703.10	1763.30
703.28	1757.16
703.47	1632.23
703.65	1791.97
703.84	1701.86
704.02	1726.44
704.20	1839.08
704.39	1583.08
704.57	1740.77
704.75	1724.39
704.94	1769.44
705.12	1740.77
705.30	1775.59
705.49	2299.87
705.67	4413.37
705.86	9447.28
706.04	12719.93
706.22	14286.63
706.41	15435.54
706.59	13872.94
706.77	9506.67
706.96	7331.73
707.14	6602.65
707.32	5980.07
707.51	5531.56
707.69	4868.02
707.87	4163.52
708.06	3522.51
708.24	3022.80
708.42	2428.89
708.61	2246.62
708.79	1916.90
708.97	1920.99
709.16	1867.75
709.34	1779.68
709.52	1761.25
709.71	1718.25
709.89	1748.97
710.07	1656.81
710.26	1597.42
710.44	1691.62
710.62	1736.68
710.80	1708.01
710.99	1783.78
711.17	1783.78
711.35	1667.05
711.54	1689.57
711.72	1708.01
711.90	1718.25
712.09	1687.53
712.27	1658.85
712.45	1705.96
712.63	1632.23
712.82	1761.25
713.00	1687.53
713.18	1665.00
713.37	1791.97
713.55	1847.27
713.73	1748.97
713.91	1673.19
714.10	1697.77
714.28	1624.04
714.46	1804.26
714.65	1748.97
714.83	1714.15
715.01	1697.77
715.19	1650.66
715.38	1660.90
715.56	1691.62
715.74	1656.81
715.92	1638.38
716.11	1751.01
716.29	1640.42
716.47	1662.95
716.65	1779.68
716.84	1681.38
717.02	1683.43
717.20	1568.74
717.38	1726.44
717.57	1646.57
717.75	1701.86
717.93	1667.05
718.11	1748.97
718.30	1646.57
718.48	1822.69
718.66	1708.01
718.84	1742.82
719.03	1724.39
719.21	1673.19
719.39	1751.01
719.57	1714.15
719.75	1767.40
719.94	1667.05
720.12	1726.44
720.30	1712.10
720.48	1701.86
720.67	1681.38
720.85	1548.26
721.03	1644.52
721.21	1671.14
721.39	1765.35
721.58	1753.06
721.76	1689.57
721.94	1738.73
722.12	1761.25
722.30	1812.45
722.49	1718.25
722.67	1714.15
722.85	1761.25
723.03	1675.24
723.21	1656.81
723.40	1712.10
723.58	1791.97
723.76	1681.38
723.94	1890.28
724.12	1742.82
724.30	1662.95
724.49	1740.77
724.67	1626.09
724.85	1822.69
725.03	1593.32
725.21	1751.01
725.40	1806.31
725.58	1710.05
725.76	1761.25
725.94	1710.05
726.12	1730.53
726.30	1771.49
726.49	1705.96
726.67	1740.77
726.85	1705.96
727.03	1740.77
727.21	2058.21
727.39	2885.59
727.57	3872.71
727.76	4290.49
727.94	4437.95
728.12	4487.10
728.30	3665.86
728.48	2938.84
728.66	2731.99
728.84	2547.67
729.03	2291.68
729.21	2258.91
729.39	2000.87
729.57	1873.89
729.75	1839.08
729.93	1808.36
730.11	1728.49
730.30	1669.09
730.48	1648.61
730.66	1808.36
730.84	1783.78
731.02	1751.01
731.20	1669.09
731.38	1755.11
731.56	1613.80
731.74	1646.57
731.93	1740.77
732.11	1650.66
732.29	1671.14
732.47	1773.54
732.65	1744.87
732.83	1748.97
733.01	1703.91
733.19	1701.86
733.37	1773.54
733.56	1728.49
733.74	1677.29
733.92	1736.68
734.10	1804.26
734.28	1693.67
734.46	1640.42
734.64	1650.66
734.82	1761.25
735.00	1716.20
735.18	1675.24
735.36	1722.34
735.54	1720.29
735.73	1732.58
735.91	1654.76
736.09	1810.40
736.27	1753.06
736.45	1787.88
736.63	1667.05
736.81	1681.38
736.99	1738.73
737.17	1687.53
737.35	1736.68
737.53	1689.57
737.71	1722.34
737.89	1779.68
738.07	1683.43
738.25	1681.38
738.43	1585.13
738.61	1644.52
738.80	1648.61
738.98	1640.42
739.16	1599.46
739.34	1632.23
739.52	1859.56
739.70	1712.10
739.88	1695.72
740.06	1773.54
740.24	1642.47
740.42	1736.68
740.60	1609.70
740.78	1683.43
740.96	1603.56
741.14	1697.77
741.32	1697.77
741.50	1583.08
741.68	1820.64
741.86	1779.68
742.04	1615.85
742.22	1640.42
742.40	1701.86
742.58	1685.48
742.76	1718.25
742.94	1787.88
743.12	1708.01
743.30	1789.92
743.48	1740.77
743.66	1660.90
743.84	1755.11
744.02	1736.68
744.20	1757.16
744.38	1662.95
744.56	1650.66
744.74	1804.26
744.92	1687.53
745.10	1716.20
745.28	1732.58
745.46	1814.50
745.64	1656.81
745.82	1683.43
746.00	1755.11
746.18	1775.59
746.36	1683.43
746.54	1736.68
746.72	1681.38
746.90	1621.99
747.08	1818.60
747.26	1626.09
747.44	1767.40
747.62	1755.11
747.80	1812.45
747.98	1720.29
748.15	1710.05
748.33	1837.03
748.51	1701.86
748.69	1771.49
748.87	1695.72
749.05	1740.77
749.23	1683.43
749.41	1779.68
749.59	1658.85
749.77	1726.44
749.95	1658.85
750.13	1656.81
750.31	1726.44
750.49	1693.67
750.67	1802.21
750.85	1757.16
751.03	1746.92
751.20	1771.49
751.38	1712.10
751.56	1716.20
751.74	1656.81
751.92	1730.53
752.10	1656.81
752.28	1695.72
752.46	1675.24
752.64	1671.14
752.82	1708.01
753.00	1822.69
753.18	1619.94
753.35	1652.71
753.53	1746.92
753.71	1746.92
753.89	1744.87
754.07	1722.34
754.25	1691.62
754.43	1701.86
754.61	1642.47
754.79	1695.72
754.97	1695.72
755.14	1761.25
755.32	1648.61
755.50	1755.11
755.68	1720.29
755.86	1697.77
756.04	1689.57
756.22	1628.14
756.40	1730.53
756.57	1826.79
756.75	1697.77
756.93	1779.68
757.11	1794.02
757.29	1644.52
757.47	1599.46
757.65	1619.94
757.82	1568.74
758.00	1611.75
758.18	1675.24
758.36	1648.61
758.54	1783.78
758.72	1650.66
758.90	1785.83
759.07	1738.73
759.25	1675.24
759.43	1695.72
759.61	1660.90
759.79	2158.56
759.97	1683.43
760.15	1683.43
760.32	1650.66
760.50	1714.15
760.68	1812.45
760.86	1607.66
761.04	1777.64
761.22	1728.49
761.39	1767.40
761.57	1759.21
761.75	1656.81
761.93	1781.73
762.11	1718.25
762.28	1667.05
762.46	1652.71
762.64	1761.25
762.82	1699.81
763.00	1677.29
763.18	1775.59
763.35	1595.37
763.53	1826.79
763.71	1722.34
763.89	1732.58
764.07	1773.54
764.24	1734.63
764.42	1746.92
764.60	1675.24
764.78	1718.25
764.96	1724.39
765.13	1730.53
765.31	1701.86
765.49	1744.87
765.67	1644.52
765.84	1654.76
766.02	1673.19
766.20	1601.51
766.38	1687.53
766.56	1703.91
766.73	1789.92
766.91	1726.44
767.09	1714.15
767.27	1796.07
767.44	1716.20
767.62	1714.15
767.80	1712.10
767.98	1669.09
768.15	1640.42
768.33	1689.57
768.51	1736.68
768.69	1742.82
768.87	1755.11
769.04	1732.58
769.22	1777.64
769.40	1830.88
769.58	1910.75
769.75	1763.30
769.93	1837.03
770.11	1654.76
770.28	1701.86
770.46	1714.15
770.64	1755.11
770.82	1660.90
770.99	1753.06
771.17	1746.92
771.35	1695.72
771.53	1665.00
771.70	1695.72
771.88	1744.87
772.06	1705.96
772.23	1695.72
772.41	1746.92
772.59	1734.63
772.77	1624.04
772.94	1730.53
773.12	1673.19
773.30	1726.44
773.47	1755.11
773.65	1640.42
773.83	1796.07
774.01	1665.00
774.18	1603.56
774.36	1734.63
774.54	1701.86
774.71	1730.53
774.89	1701.86
775.07	1562.60
775.24	1703.91
775.42	1656.81
775.60	1742.82
775.78	1619.94
775.95	1712.10
776.13	1599.46
776.31	1542.12
776.48	1697.77
776.66	1667.05
776.84	1691.62
777.01	1710.05
777.19	1630.18
777.37	1728.49
777.54	1703.91
777.72	1853.41
777.90	1718.25
778.07	1654.76
778.25	1902.56
778.43	1708.01
778.60	1685.48
778.78	1781.73
778.96	1763.30
779.13	1656.81
779.31	1724.39
779.49	1632.23
779.66	1699.81
779.84	1701.86
780.01	1634.28
780.19	1646.57
780.37	1816.55
780.54	1652.71
780.72	1691.62
780.90	1634.28
781.07	1724.39
781.25	1695.72
781.43	1724.39
781.60	1726.44
781.78	1728.49
781.95	1730.53
782.13	1693.67
782.31	1722.34
782.48	1712.10
782.66	1658.85
782.83	1763.30
783.01	1708.01
783.19	1759.21
783.36	1675.24
783.54	1646.57
783.72	1775.59
783.89	1673.19
784.07	1710.05
784.24	1697.77
784.42	1759.21
784.60	1689.57
784.77	1726.44
784.95	1595.37
785.12	1644.52
785.30	1751.01
785.47	1660.90
785.65	1646.57
785.83	1701.86
786.00	1703.91
786.18	1699.81
786.35	1583.08
786.53	1677.29
786.71	1763.30
786.88	1710.05
787.06	1757.16
787.23	1755.11
787.41	1574.89
787.58	1675.24
787.76	1636.33
787.94	1691.62
788.11	1742.82
788.29	1615.85
788.46	1691.62
788.64	1662.95
788.81	1585.13
788.99	1665.00
789.16	1658.85
789.34	1689.57
789.52	1689.57
789.69	1654.76
789.87	1564.65
790.04	1648.61
790.22	1701.86
790.39	1800.16
790.57	1628.14
790.74	1691.62
790.92	1812.45
791.09	1626.09
791.27	1695.72
791.44	1769.44
791.62	1773.54
791.79	1748.97
791.97	1771.49
792.15	1902.56
792.32	1755.11
792.50	1751.01
792.67	1767.40
792.85	1714.15
793.02	1705.96
793.20	1644.52
793.37	1585.13
793.55	1624.04
793.72	1638.38
793.90	1701.86
794.07	1636.33
794.25	1665.00
794.42	1699.81
794.60	1716.20
794.77	1734.63
794.95	1720.29
795.12	1771.49
795.30	1708.01
795.47	1669.09
795.65	1871.84
795.82	1783.78
796.00	1615.85
796.17	1660.90
796.34	1677.29
796.52	1728.49
796.69	1759.21
796.87	1724.39
797.04	1773.54
797.22	1738.73
797.39	1716.20
797.57	1744.87
797.74	1755.11
797.92	1714.15
798.09	1665.00
798.27	1751.01
798.44	1697.77
798.62	1710.05
798.79	1710.05
798.96	1701.86
799.14	1691.62
799.31	1857.51
799.49	1701.86
799.66	1644.52
799.84	1710.05
800.01	1609.70
800.19	1673.19
800.36	1589.22
800.53	1660.90
800.71	1705.96
800.88	1783.78
801.06	1667.05
801.23	1736.68
801.41	1710.05
801.58	1755.11
801.75	1669.09
801.93	1722.34
802.10	1722.34
802.28	1714.15
802.45	1591.27
802.63	1830.88
802.80	1755.11
802.97	1767.40
803.15	1701.86
803.32	1740.77
803.50	1654.76
803.67	1658.85
803.84	1734.63
804.02	1667.05
804.19	1716.20
804.37	1538.02
804.54	1673.19
804.71	1693.67
804.89	1681.38
805.06	1599.46
805.24	1634.28
805.41	1665.00
805.58	1644.52
805.76	1877.99
805.93	1748.97
806.10	1691.62
806.28	1728.49
806.45	1710.05
806.63	1744.87
806.80	1671.14
806.97	1730.53
807.15	1701.86
807.32	1705.96
807.49	1675.24
807.67	1615.85
807.84	1656.81
808.01	1644.52
808.19	1890.28
808.36	1918.95
808.54	1697.77
808.71	1626.09
808.88	1718.25
809.06	1726.44
809.23	1796.07
809.40	1689.57
809.58	1816.55
809.75	1677.29
809.92	1630.18
810.10	1794.02
810.27	1726.44
810.44	1695.72
810.62	1769.44
810.79	1800.16
810.96	1746.92
811.14	1654.76
811.31	1642.47
811.48	1771.49
811.66	1718.25
811.83	1687.53
812.00	1802.21
812.18	1720.29
812.35	1791.97
812.52	1673.19
812.69	1658.85
812.87	1642.47
813.04	1673.19
813.21	1736.68
813.39	1601.51
813.56	1656.81
813.73	1710.05
813.91	1595.37
814.08	1675.24
814.25	1746.92
814.42	1648.61
814.60	1665.00
814.77	1685.48
814.94	1742.82
815.12	1699.81
815.29	1765.35
815.46	1640.42
815.63	1648.61
815.81	1771.49
815.98	1660.90
816.15	1710.05
816.33	1689.57
816.50	1638.38
816.67	1683.43
816.84	1701.86
817.02	1660.90
817.19	1773.54
817.36	1648.61
817.53	1802.21
817.71	1593.32
817.88	1738.73
818.05	1644.52
818.22	1738.73
818.40	1816.55
818.57	1601.51
818.74	1673.19
818.91	1665.00
819.09	1642.47
819.26	1708.01
819.43	1675.24
819.60	1570.79
819.78	1712.10
819.95	1810.40
820.12	1640.42
820.29	1740.77
820.47	1767.40
820.64	1677.29
820.81	1619.94
820.98	1630.18
821.15	1732.58
821.33	1816.55
821.50	1634.28
821.67	1787.88
821.84	1683.43
822.02	1740.77
822.19	1701.86
822.36	1660.90
822.53	1669.09
822.70	1656.81
822.88	1667.05
823.05	1736.68
823.22	1767.40
823.39	1667.05
823.56	1734.63
823.74	1820.64
823.91	1685.48
824.08	1677.29
824.25	1615.85
824.42	1746.92
824.60	1640.42
824.77	1777.64
824.94	1722.34
825.11	1736.68
825.28	1630.18
825.45	1675.24
825.63	1693.67
825.80	1624.04
825.97	1669.09
826.14	1677.29
826.31	1677.29
826.48	1759.21
826.66	1658.85
826.83	1660.90
827.00	1722.34
827.17	1632.23
827.34	1679.33
827.51	1695.72
827.69	1673.19
827.86	1630.18
828.03	1662.95
828.20	1708.01
828.37	1671.14
828.54	1609.70
828.71	1734.63
828.89	1820.64
829.06	1685.48
829.23	1826.79
829.40	1689.57
829.57	1701.86
829.74	1689.57
829.91	1617.90
830.09	1669.09
830.26	1757.16
830.43	1785.83
830.60	1648.61
830.77	1789.92
830.94	1824.74
831.11	1798.12
831.28	1671.14
831.46	1755.11
831.63	1775.59
831.80	1759.21
831.97	1656.81
832.14	1695.72
832.31	1732.58
832.48	1683.43
832.65	1738.73
832.82	1724.39
832.99	1757.16
833.17	1722.34
833.34	1771.49
833.51	1773.54
833.68	1626.09
833.85	1701.86
834.02	1628.14
834.19	1703.91
834.36	1648.61
834.53	1724.39
834.70	1738.73
834.87	1699.81
835.04	1699.81
835.22	1708.01
835.39	1687.53
835.56	1724.39
835.73	1697.77
835.90	1763.30
836.07	1665.00
836.24	1757.16
836.41	1638.38
836.58	1689.57
836.75	1748.97
836.92	1708.01
837.09	1720.29
837.26	1773.54
837.43	1724.39
837.60	1771.49
837.77	1708.01
837.94	1687.53
838.12	1746.92
838.29	1794.02
838.46	1531.88
838.63	1699.81
838.80	1722.34
838.97	1794.02
839.14	1718.25
839.31	1710.05
839.48	1771.49
839.65	1677.29
839.82	1791.97
839.99	1806.31
840.16	1693.67
840.33	1685.48
840.50	1667.05
840.67	1669.09
840.84	1605.61
841.01	1691.62
841.18	1642.47
841.35	1705.96
841.52	1730.53
841.69	1800.16
841.86	1748.97
842.03	1665.00
842.20	1708.01
842.37	1720.29
842.54	1767.40
842.71	1703.91
842.88	1595.37
843.05	1701.86
843.22	1751.01
843.39	1769.44
843.56	1638.38
843.73	1685.48
843.90	1708.01
844.07	1728.49
844.24	1757.16
844.41	1757.16
844.58	1712.10
844.75	1697.77
844.92	1781.73
845.09	1654.76
845.26	1652.71
845.43	1751.01
845.60	1708.01
845.77	1767.40
845.94	1681.38
846.10	1730.53
846.27	1550.31
846.44	1669.09
846.61	1609.70
846.78	1748.97
846.95	1701.86
847.12	1740.77
847.29	1767.40
847.46	1791.97
847.63	1755.11
847.80	1679.33
847.97	1705.96
848.14	1806.31
848.31	1712.10
848.48	1687.53
848.65	1720.29
848.82	1601.51
848.98	1839.08
849.15	1746.92
849.32	1744.87
849.49	1832.93
849.66	1708.01
849.83	1669.09
850.00	1613.80
850.17	1765.35
850.34	1728.49
850.51	1669.09
850.68	1716.20
850.85	1781.73
851.01	1718.25
851.18	1689.57
851.35	1615.85
851.52	1710.05
851.69	1837.03
851.86	1656.81
852.03	1675.24
852.20	1804.26
852.37	1742.82
852.53	1570.79
852.70	1757.16
852.87	1673.19
853.04	1759.21
853.21	1720.29
853.38	1714.15
853.55	1775.59
853.72	1695.72
853.89	1687.53
854.05	1693.67
854.22	1746.92
854.39	1640.42
854.56	1736.68
854.73	1824.74
854.90	1591.27
855.07	1783.78
855.23	1675.24
855.40	1755.11
855.57	1728.49
855.74	1593.32
855.91	1900.52
856.08	1630.18
856.25	1607.66
856.41	1679.33
856.58	1667.05
856.75	1722.34
856.92	1705.96
857.09	1769.44
857.26	1624.04
857.42	1599.46
857.59	1789.92
857.76	1675.24
857.93	1681.38
858.10	1738.73
858.27	1560.55
858.43	1771.49
858.60	1673.19
858.77	1568.74
858.94	1720.29
859.11	1722.34
859.27	1734.63
859.44	1646.57
859.61	1773.54
859.78	1742.82
859.95	1705.96
860.12	1642.47
860.28	1785.83
860.45	1820.64
860.62	1656.81
860.79	1658.85
860.95	1767.40
861.12	1675.24
861.29	1697.77
861.46	1681.38
861.63	1699.81
861.79	1734.63
861.96	1695.72
862.13	1695.72
862.30	1781.73
862.47	1665.00
862.63	1685.48
862.80	1755.11
862.97	1716.20
863.14	1777.64
863.30	1689.57
863.47	1685.48
863.64	1783.78
863.81	1765.35
863.97	1677.29
864.14	1734.63
864.31	1683.43
864.48	1701.86
864.65	1665.00
864.81	1683.43
864.98	1689.57
865.15	1751.01
865.32	1783.78
865.48	1796.07
865.65	1761.25
865.82	1703.91
865.98	1601.51
866.15	1830.88
866.32	1705.96
866.49	1689.57
866.65	1759.21
866.82	1665.00
866.99	1675.24
867.16	1615.85
867.32	1677.29
867.49	1689.57
867.66	1767.40
867.83	1609.70
867.99	1638.38
868.16	1718.25
868.33	1685.48
868.49	1669.09
868.66	1656.81
868.83	1736.68
868.99	1703.91
869.16	1646.57
869.33	1728.49
869.50	1779.68
869.66	1724.39
869.83	1636.33
870.00	1667.05
870.16	1740.77
870.33	1724.39
870.50	1708.01
870.66	1640.42
870.83	1794.02
871.00	1744.87
871.17	1773.54
871.33	1757.16
871.50	1714.15
871.67	1759.21
871.83	1687.53
872.00	1857.51
872.17	1660.90
872.33	1773.54
872.50	1794.02
872.67	1724.39
872.83	1738.73
873.00	1677.29
873.17	1777.64
873.33	1714.15
873.50	1796.07
873.67	1648.61
873.83	1630.18
874.00	1755.11
874.16	1789.92
874.33	1681.38
874.50	1701.86
874.66	1728.49
874.83	1708.01
875.00	1705.96
875.16	1783.78
875.33	1757.16
875.50	1640.42
875.66	1640.42
875.83	1703.91
875.99	1736.68
876.16	1699.81
876.33	1636.33
876.49	1658.85
876.66	1720.29
876.83	1642.47
876.99	1660.90
877.16	1785.83
877.32	1720.29
877.49	1744.87
877.66	1701.86
877.82	1810.40
877.99	1761.25
878.15	1769.44
878.32	1728.49
878.49	1624.04
878.65	1724.39
878.82	1812.45
878.98	1746.92
879.15	1746.92
879.32	1767.40
879.48	1748.97
879.65	1607.66
879.81	1669.09
879.98	1656.81
880.15	1638.38
880.31	1693.67
880.48	1656.81
880.64	1714.15
880.81	1800.16
880.97	1837.03
881.14	1800.16
881.31	1648.61
881.47	1869.80
881.64	1708.01
881.80	1558.50
881.97	1687.53
882.13	1800.16
882.30	1642.47
882.47	1716.20
882.63	1613.80
882.80	1683.43
882.96	1656.81
883.13	1751.01
883.29	1720.29
883.46	1777.64
883.62	1775.59
883.79	1673.19
883.95	1794.02
884.12	1658.85
884.29	1736.68
884.45	1642.47
884.62	1767.40
884.78	1636.33
884.95	1722.34
885.11	1609.70
885.28	1685.48
885.44	1638.38
885.61	1751.01
885.77	1804.26
885.94	1755.11
886.10	1718.25
886.27	1697.77
886.43	1779.68
886.60	1746.92
886.76	1648.61
886.93	1544.17
887.09	1757.16
887.26	1607.66
887.42	1703.91
887.59	1726.44
887.75	1773.54
887.92	1771.49
888.08	1830.88
888.25	1781.73
888.41	1732.58
888.58	1726.44
888.74	1703.91
888.91	1656.81
>>>>>End Processed Spectral Data<<<<<
