SpectraSuite Data File
++++++++++++++++++++++++++++++++++++
Date: Mon Jun 06 16:34:57 CEST 2016
User: root
Dark Spectrum Present: No
Reference Spectrum Present: No
Number of Sampled Component Spectra: 1
Spectrometers: USB4C02835
Integration Time (usec): 100000 (USB4C02835)
Spectra Averaged: 1 (USB4C02835)
Boxcar Smoothing: 0 (USB4C02835)
Correct for Electrical Dark: No (USB4C02835)
Strobe/Lamp Enabled: No (USB4C02835)
Correct for Detector Non-linearity: No (USB4C02835)
Correct for Stray Light: No (USB4C02835)
Number of Pixels in Processed Spectrum: 3648
>>>>>Begin Processed Spectral Data<<<<<
177.47	1460.20
177.69	1460.20
177.91	1460.20
178.13	1452.01
178.36	1542.12
178.58	1636.33
178.80	1761.25
179.02	1605.61
179.24	1685.48
179.46	1634.28
179.68	1748.97
179.90	1679.33
180.13	1738.73
180.35	1691.62
180.57	1697.77
180.79	1779.68
181.01	1650.66
181.23	1771.49
181.45	1708.01
181.67	1667.05
181.90	1732.58
182.12	1677.29
182.34	1615.85
182.56	1746.92
182.78	1767.40
183.00	1695.72
183.22	1802.21
183.44	1607.66
183.66	1873.89
183.89	1800.16
184.11	1611.75
184.33	1726.44
184.55	1720.29
184.77	1738.73
184.99	1718.25
185.21	1720.29
185.43	1798.12
185.65	1671.14
185.87	1710.05
186.10	1794.02
186.32	1759.21
186.54	1687.53
186.76	1732.58
186.98	1800.16
187.20	1697.77
187.42	1642.47
187.64	1726.44
187.86	1789.92
188.08	1832.93
188.30	1603.56
188.52	1669.09
188.75	1724.39
188.97	1820.64
189.19	1628.14
189.41	1705.96
189.63	1687.53
189.85	1667.05
190.07	1630.18
190.29	1585.13
190.51	1796.07
190.73	1628.14
190.95	1843.17
191.17	1730.53
191.39	1583.08
191.61	1722.34
191.84	1744.87
192.06	1744.87
192.28	1628.14
192.50	1947.62
192.72	1718.25
192.94	1736.68
193.16	1734.63
193.38	1789.92
193.60	1710.05
193.82	1705.96
194.04	1757.16
194.26	1671.14
194.48	1730.53
194.70	1644.52
194.92	1679.33
195.14	1804.26
195.36	1687.53
195.58	1755.11
195.80	1693.67
196.02	1699.81
196.24	1634.28
196.46	1699.81
196.69	1716.20
196.91	1837.03
197.13	1718.25
197.35	1726.44
197.57	1853.41
197.79	1736.68
198.01	1722.34
198.23	1730.53
198.45	1763.30
198.67	1677.29
198.89	1724.39
199.11	1718.25
199.33	1632.23
199.55	1621.99
199.77	1765.35
199.99	1763.30
200.21	1685.48
200.43	1742.82
200.65	1677.29
200.87	1617.90
201.09	1685.48
201.31	1687.53
201.53	1802.21
201.75	1738.73
201.97	1671.14
202.19	1734.63
202.41	1681.38
202.63	1802.21
202.85	1773.54
203.07	1730.53
203.29	1673.19
203.51	1693.67
203.73	1624.04
203.95	1865.70
204.17	1689.57
204.39	1644.52
204.61	1619.94
204.83	1626.09
205.05	1757.16
205.27	1755.11
205.49	1773.54
205.71	1660.90
205.93	1566.70
206.15	1722.34
206.37	1742.82
206.59	1691.62
206.81	1611.75
207.03	1613.80
207.25	1640.42
207.47	1738.73
207.69	1652.71
207.91	1665.00
208.13	1783.78
208.34	1675.24
208.56	1681.38
208.78	1773.54
209.00	1781.73
209.22	1718.25
209.44	1691.62
209.66	1628.14
209.88	1730.53
210.10	1658.85
210.32	1662.95
210.54	1787.88
210.76	1732.58
210.98	1699.81
211.20	1538.02
211.42	1703.91
211.64	1740.77
211.86	1722.34
212.08	1722.34
212.30	1787.88
212.52	1728.49
212.74	1734.63
212.96	1746.92
213.17	1751.01
213.39	1751.01
213.61	1761.25
213.83	1718.25
214.05	1695.72
214.27	1814.50
214.49	1593.32
214.71	1689.57
214.93	1767.40
215.15	1746.92
215.37	1753.06
215.59	1626.09
215.81	1779.68
216.03	1773.54
216.24	1777.64
216.46	1726.44
216.68	1673.19
216.90	1775.59
217.12	1820.64
217.34	1710.05
217.56	1714.15
217.78	1906.66
218.00	1773.54
218.22	1742.82
218.44	1689.57
218.66	1796.07
218.87	1683.43
219.09	1697.77
219.31	1753.06
219.53	1703.91
219.75	1632.23
219.97	1724.39
220.19	1665.00
220.41	1738.73
220.63	1785.83
220.85	1759.21
221.06	1667.05
221.28	1759.21
221.50	1748.97
221.72	1746.92
221.94	1689.57
222.16	1724.39
222.38	1728.49
222.60	1751.01
222.82	1748.97
223.03	1751.01
223.25	1697.77
223.47	1732.58
223.69	1820.64
223.91	1798.12
224.13	1626.09
224.35	1665.00
224.57	1779.68
224.78	1681.38
225.00	1738.73
225.22	1705.96
225.44	1738.73
225.66	1761.25
225.88	1697.77
226.10	1818.60
226.32	1673.19
226.53	1748.97
226.75	1683.43
226.97	1695.72
227.19	1761.25
227.41	1751.01
227.63	1705.96
227.85	1703.91
228.06	1665.00
228.28	1720.29
228.50	1740.77
228.72	1677.29
228.94	1644.52
229.16	1624.04
229.37	1595.37
229.59	1699.81
229.81	1796.07
230.03	1656.81
230.25	1667.05
230.47	1587.18
230.69	1630.18
230.90	1716.20
231.12	1689.57
231.34	1693.67
231.56	1777.64
231.78	1669.09
232.00	1697.77
232.21	1669.09
232.43	1708.01
232.65	1689.57
232.87	1714.15
233.09	1695.72
233.30	1677.29
233.52	1738.73
233.74	1691.62
233.96	1718.25
234.18	1757.16
234.40	1681.38
234.61	1806.31
234.83	1650.66
235.05	1701.86
235.27	1810.40
235.49	1796.07
235.70	1722.34
235.92	1796.07
236.14	1763.30
236.36	1834.98
236.58	1628.14
236.79	1773.54
237.01	1677.29
237.23	1656.81
237.45	1886.18
237.67	1669.09
237.88	1716.20
238.10	1822.69
238.32	1613.80
238.54	1781.73
238.76	1710.05
238.97	1679.33
239.19	1708.01
239.41	1791.97
239.63	1804.26
239.85	1726.44
240.06	1730.53
240.28	1718.25
240.50	1724.39
240.72	1667.05
240.93	1611.75
241.15	1742.82
241.37	1695.72
241.59	1808.36
241.81	1734.63
242.02	1755.11
242.24	1720.29
242.46	1789.92
242.68	1681.38
242.89	1669.09
243.11	1800.16
243.33	1656.81
243.55	1746.92
243.76	1738.73
243.98	1718.25
244.20	1757.16
244.42	1748.97
244.64	1671.14
244.85	1646.57
245.07	1687.53
245.29	1765.35
245.51	1767.40
245.72	1748.97
245.94	1800.16
246.16	1761.25
246.38	1751.01
246.59	1638.38
246.81	1689.57
247.03	1660.90
247.24	1583.08
247.46	1621.99
247.68	1728.49
247.90	1699.81
248.11	1662.95
248.33	1736.68
248.55	1736.68
248.77	1701.86
248.98	1789.92
249.20	1800.16
249.42	1705.96
249.64	1771.49
249.85	1728.49
250.07	1621.99
250.29	1734.63
250.50	1695.72
250.72	1667.05
250.94	1697.77
251.16	1759.21
251.37	1826.79
251.59	1755.11
251.81	1724.39
252.02	1789.92
252.24	1785.83
252.46	1763.30
252.68	1660.90
252.89	1650.66
253.11	1644.52
253.33	1820.64
253.54	1763.30
253.76	1665.00
253.98	1683.43
254.20	1708.01
254.41	1701.86
254.63	1685.48
254.85	1687.53
255.06	1646.57
255.28	1714.15
255.50	1732.58
255.71	1744.87
255.93	1570.79
256.15	1714.15
256.36	1718.25
256.58	1722.34
256.80	1744.87
257.02	1693.67
257.23	1693.67
257.45	1753.06
257.67	1714.15
257.88	1681.38
258.10	1677.29
258.32	1660.90
258.53	1701.86
258.75	1746.92
258.97	1628.14
259.18	1669.09
259.40	1730.53
259.62	1787.88
259.83	1734.63
260.05	1705.96
260.27	1988.58
260.48	1781.73
260.70	1611.75
260.92	1720.29
261.13	1726.44
261.35	1767.40
261.57	1718.25
261.78	1607.66
262.00	1685.48
262.22	1755.11
262.43	1636.33
262.65	1730.53
262.86	1693.67
263.08	1851.36
263.30	1785.83
263.51	1599.46
263.73	1734.63
263.95	1726.44
264.16	1714.15
264.38	1652.71
264.60	1800.16
264.81	1677.29
265.03	1705.96
265.25	1738.73
265.46	1632.23
265.68	1726.44
265.89	1691.62
266.11	1693.67
266.33	1685.48
266.54	1837.03
266.76	1677.29
266.98	1746.92
267.19	1787.88
267.41	1796.07
267.62	1673.19
267.84	1583.08
268.06	1738.73
268.27	1771.49
268.49	1785.83
268.70	1779.68
268.92	1687.53
269.14	1683.43
269.35	1609.70
269.57	1738.73
269.79	1757.16
270.00	1683.43
270.22	1732.58
270.43	1681.38
270.65	1626.09
270.87	1787.88
271.08	1740.77
271.30	1794.02
271.51	1714.15
271.73	1712.10
271.95	1779.68
272.16	1726.44
272.38	1708.01
272.59	1724.39
272.81	1720.29
273.02	1804.26
273.24	1796.07
273.46	1712.10
273.67	1701.86
273.89	1599.46
274.10	1710.05
274.32	1691.62
274.54	1701.86
274.75	1769.44
274.97	1673.19
275.18	1853.41
275.40	1804.26
275.61	1710.05
275.83	1759.21
276.05	1607.66
276.26	1640.42
276.48	1705.96
276.69	1697.77
276.91	1710.05
277.12	1796.07
277.34	1765.35
277.55	1798.12
277.77	1714.15
277.99	1701.86
278.20	1673.19
278.42	1699.81
278.63	1658.85
278.85	1720.29
279.06	1572.84
279.28	1728.49
279.49	1804.26
279.71	1800.16
279.93	1638.38
280.14	1705.96
280.36	1693.67
280.57	1826.79
280.79	1738.73
281.00	1695.72
281.22	1656.81
281.43	1777.64
281.65	1593.32
281.86	1681.38
282.08	1806.31
282.29	1794.02
282.51	1665.00
282.73	1660.90
282.94	1617.90
283.16	1748.97
283.37	1843.17
283.59	1660.90
283.80	1771.49
284.02	1689.57
284.23	1767.40
284.45	1699.81
284.66	1683.43
284.88	1712.10
285.09	1804.26
285.31	1740.77
285.52	1759.21
285.74	1681.38
285.95	1720.29
286.17	1705.96
286.38	1794.02
286.60	1650.66
286.81	1759.21
287.03	1689.57
287.24	1710.05
287.46	1658.85
287.67	1767.40
287.89	1761.25
288.10	1662.95
288.32	1726.44
288.53	1800.16
288.75	1685.48
288.96	1730.53
289.18	1697.77
289.39	1742.82
289.61	1708.01
289.82	1759.21
290.04	1804.26
290.25	1595.37
290.47	1646.57
290.68	1763.30
290.90	1724.39
291.11	1705.96
291.33	1787.88
291.54	1646.57
291.76	1595.37
291.97	1804.26
292.18	1722.34
292.40	1662.95
292.61	1667.05
292.83	1837.03
293.04	1759.21
293.26	1693.67
293.47	1740.77
293.69	1609.70
293.90	1660.90
294.12	1777.64
294.33	1714.15
294.55	1656.81
294.76	1787.88
294.97	1808.36
295.19	1849.32
295.40	1701.86
295.62	1771.49
295.83	1730.53
296.05	1656.81
296.26	1765.35
296.48	1632.23
296.69	1701.86
296.90	1689.57
297.12	1710.05
297.33	1810.40
297.55	1679.33
297.76	1751.01
297.98	1791.97
298.19	1705.96
298.41	1589.22
298.62	1673.19
298.83	1791.97
299.05	1722.34
299.26	1650.66
299.48	1687.53
299.69	1687.53
299.90	1716.20
300.12	1693.67
300.33	1675.24
300.55	1728.49
300.76	1714.15
300.98	1693.67
301.19	1746.92
301.40	1718.25
301.62	1675.24
301.83	1712.10
302.05	1746.92
302.26	1701.86
302.47	1767.40
302.69	1673.19
302.90	1751.01
303.12	1601.51
303.33	1724.39
303.54	1808.36
303.76	1701.86
303.97	1806.31
304.19	1816.55
304.40	1673.19
304.61	1820.64
304.83	1761.25
305.04	1753.06
305.26	1751.01
305.47	1646.57
305.68	1675.24
305.90	1665.00
306.11	1820.64
306.33	1646.57
306.54	1761.25
306.75	1722.34
306.97	1609.70
307.18	1744.87
307.39	1656.81
307.61	1771.49
307.82	1619.94
308.04	1730.53
308.25	1667.05
308.46	1685.48
308.68	1730.53
308.89	1740.77
309.10	1800.16
309.32	1705.96
309.53	1734.63
309.74	1722.34
309.96	1568.74
310.17	1804.26
310.39	1640.42
310.60	1789.92
310.81	1712.10
311.03	1603.56
311.24	1765.35
311.45	1710.05
311.67	1763.30
311.88	1689.57
312.09	1660.90
312.31	1591.27
312.52	1722.34
312.73	1695.72
312.95	1691.62
313.16	1669.09
313.37	1816.55
313.59	1730.53
313.80	1734.63
314.01	1757.16
314.23	1691.62
314.44	1593.32
314.65	1656.81
314.87	1687.53
315.08	1714.15
315.29	1697.77
315.51	1552.36
315.72	1626.09
315.93	1761.25
316.15	1759.21
316.36	1636.33
316.57	1736.68
316.79	1708.01
317.00	1687.53
317.21	1724.39
317.43	1660.90
317.64	1662.95
317.85	1640.42
318.07	1685.48
318.28	1800.16
318.49	1791.97
318.70	1941.47
318.92	1828.84
319.13	1767.40
319.34	1896.42
319.56	1798.12
319.77	1771.49
319.98	1800.16
320.20	1744.87
320.41	1759.21
320.62	1736.68
320.83	1650.66
321.05	1857.51
321.26	1624.04
321.47	1794.02
321.69	1753.06
321.90	1617.90
322.11	1732.58
322.32	1779.68
322.54	1789.92
322.75	1798.12
322.96	1880.04
323.18	1650.66
323.39	1560.55
323.60	1675.24
323.81	1716.20
324.03	1714.15
324.24	1746.92
324.45	1718.25
324.66	1738.73
324.88	1763.30
325.09	1779.68
325.30	1660.90
325.52	1640.42
325.73	1757.16
325.94	1716.20
326.15	1591.27
326.37	1693.67
326.58	1753.06
326.79	1822.69
327.00	1671.14
327.22	1685.48
327.43	1728.49
327.64	1636.33
327.85	1730.53
328.07	1779.68
328.28	1837.03
328.49	1691.62
328.70	1669.09
328.92	1718.25
329.13	1755.11
329.34	1759.21
329.55	1771.49
329.76	1820.64
329.98	1648.61
330.19	1757.16
330.40	1726.44
330.61	1746.92
330.83	1826.79
331.04	1689.57
331.25	1714.15
331.46	1695.72
331.68	1669.09
331.89	1794.02
332.10	1695.72
332.31	1701.86
332.52	1712.10
332.74	1808.36
332.95	1587.18
333.16	1595.37
333.37	1734.63
333.58	1718.25
333.80	1769.44
334.01	1578.98
334.22	1703.91
334.43	1665.00
334.64	1679.33
334.86	1658.85
335.07	1699.81
335.28	1818.60
335.49	1640.42
335.70	1675.24
335.92	1796.07
336.13	1843.17
336.34	1718.25
336.55	1708.01
336.76	1746.92
336.98	1632.23
337.19	1730.53
337.40	1800.16
337.61	1882.08
337.82	1636.33
338.04	1765.35
338.25	1665.00
338.46	1714.15
338.67	1687.53
338.88	1683.43
339.09	1669.09
339.31	1665.00
339.52	1667.05
339.73	1726.44
339.94	1705.96
340.15	1847.27
340.36	1640.42
340.58	1720.29
340.79	1640.42
341.00	1746.92
341.21	1755.11
341.42	1824.74
341.63	1720.29
341.85	1734.63
342.06	1728.49
342.27	1636.33
342.48	1722.34
342.69	1656.81
342.90	1753.06
343.12	1802.21
343.33	1683.43
343.54	1798.12
343.75	1781.73
343.96	1689.57
344.17	1640.42
344.38	1734.63
344.60	1658.85
344.81	1566.70
345.02	1628.14
345.23	1818.60
345.44	1796.07
345.65	1796.07
345.86	1705.96
346.07	1650.66
346.29	1656.81
346.50	1744.87
346.71	1710.05
346.92	1712.10
347.13	1816.55
347.34	1621.99
347.55	1785.83
347.76	1718.25
347.98	1697.77
348.19	1708.01
348.40	1785.83
348.61	1675.24
348.82	1798.12
349.03	1796.07
349.24	1648.61
349.45	1796.07
349.66	1648.61
349.88	1736.68
350.09	1773.54
350.30	1722.34
350.51	1738.73
350.72	1703.91
350.93	1740.77
351.14	1705.96
351.35	1748.97
351.56	1701.86
351.77	1740.77
351.99	1724.39
352.20	1808.36
352.41	1787.88
352.62	1697.77
352.83	1730.53
353.04	1621.99
353.25	1724.39
353.46	1744.87
353.67	1728.49
353.88	1609.70
354.09	1742.82
354.30	1662.95
354.52	1753.06
354.73	1677.29
354.94	1626.09
355.15	1738.73
355.36	1820.64
355.57	1689.57
355.78	1810.40
355.99	1624.04
356.20	1673.19
356.41	1839.08
356.62	1763.30
356.83	1824.74
357.04	1687.53
357.25	1634.28
357.46	1671.14
357.68	1714.15
357.89	1740.77
358.10	1689.57
358.31	1738.73
358.52	1742.82
358.73	1646.57
358.94	1681.38
359.15	1691.62
359.36	1775.59
359.57	1740.77
359.78	1671.14
359.99	1748.97
360.20	1681.38
360.41	1681.38
360.62	1722.34
360.83	1681.38
361.04	1751.01
361.25	1744.87
361.46	1712.10
361.67	1708.01
361.88	1787.88
362.09	1693.67
362.30	1667.05
362.51	1679.33
362.72	1724.39
362.93	1748.97
363.14	1681.38
363.35	1720.29
363.56	1654.76
363.78	1822.69
363.99	1820.64
364.20	1691.62
364.41	1710.05
364.62	1771.49
364.83	1726.44
365.04	1705.96
365.25	1751.01
365.46	1816.55
365.67	1732.58
365.88	1636.33
366.09	1689.57
366.30	1683.43
366.51	1736.68
366.72	1689.57
366.93	1738.73
367.14	1767.40
367.35	1849.32
367.56	1759.21
367.77	1771.49
367.98	1728.49
368.18	1689.57
368.39	1753.06
368.60	1607.66
368.81	1705.96
369.02	1753.06
369.23	1697.77
369.44	1642.47
369.65	1679.33
369.86	1724.39
370.07	1748.97
370.28	1638.38
370.49	1677.29
370.70	1771.49
370.91	1724.39
371.12	1607.66
371.33	1791.97
371.54	1683.43
371.75	1853.41
371.96	1603.56
372.17	1773.54
372.38	1779.68
372.59	1730.53
372.80	1675.24
373.01	1693.67
373.22	1689.57
373.43	1714.15
373.64	1665.00
373.85	1812.45
374.06	1802.21
374.26	1738.73
374.47	1728.49
374.68	1712.10
374.89	1804.26
375.10	1679.33
375.31	1771.49
375.52	1689.57
375.73	1699.81
375.94	1638.38
376.15	1804.26
376.36	1730.53
376.57	1636.33
376.78	1718.25
376.99	1656.81
377.20	1783.78
377.40	1665.00
377.61	1734.63
377.82	1693.67
378.03	1783.78
378.24	1705.96
378.45	1740.77
378.66	1761.25
378.87	1609.70
379.08	1669.09
379.29	1669.09
379.50	1728.49
379.71	1714.15
379.91	1796.07
380.12	1669.09
380.33	1648.61
380.54	1687.53
380.75	1613.80
380.96	1634.28
381.17	1779.68
381.38	1728.49
381.59	1769.44
381.80	1816.55
382.00	1853.41
382.21	1701.86
382.42	1871.84
382.63	1937.38
382.84	1796.07
383.05	1757.16
383.26	1773.54
383.47	1724.39
383.68	1705.96
383.88	1699.81
384.09	1769.44
384.30	1802.21
384.51	1726.44
384.72	1648.61
384.93	1677.29
385.14	1730.53
385.35	1763.30
385.55	1650.66
385.76	1755.11
385.97	1732.58
386.18	1638.38
386.39	1624.04
386.60	1763.30
386.81	1714.15
387.02	1679.33
387.22	1662.95
387.43	1771.49
387.64	1794.02
387.85	1914.85
388.06	2193.37
388.27	4251.58
388.48	6817.69
388.68	8376.19
388.89	9637.74
389.10	9742.19
389.31	8513.41
389.52	7620.49
389.73	6649.75
389.93	6270.88
390.14	5765.03
390.35	5201.84
390.56	4667.32
390.77	3868.61
390.98	2901.97
391.18	2504.67
391.39	2250.72
391.60	1800.16
391.81	1744.87
392.02	1744.87
392.23	1814.50
392.43	1777.64
392.64	1771.49
392.85	1730.53
393.06	1818.60
393.27	1740.77
393.47	1718.25
393.68	1712.10
393.89	1767.40
394.10	1753.06
394.31	1742.82
394.52	1640.42
394.72	1710.05
394.93	1796.07
395.14	1646.57
395.35	1757.16
395.56	1646.57
395.76	1705.96
395.97	1705.96
396.18	1808.36
396.39	1900.52
396.60	2050.02
396.80	1820.64
397.01	1834.98
397.22	1802.21
397.43	1853.41
397.64	1763.30
397.84	1804.26
398.05	1873.89
398.26	1724.39
398.47	1839.08
398.67	1837.03
398.88	1726.44
399.09	1812.45
399.30	1689.57
399.51	1732.58
399.71	1605.61
399.92	1607.66
400.13	1718.25
400.34	1728.49
400.54	1638.38
400.75	1804.26
400.96	1728.49
401.17	1845.22
401.37	1748.97
401.58	1667.05
401.79	1718.25
402.00	1884.13
402.21	2013.15
402.41	1945.57
402.62	1984.48
402.83	2058.21
403.04	1984.48
403.24	2078.69
403.45	1871.84
403.66	1945.57
403.87	1839.08
404.07	1955.81
404.28	1959.91
404.49	1820.64
404.70	1726.44
404.90	1740.77
405.11	1777.64
405.32	1722.34
405.52	1613.80
405.73	1669.09
405.94	1691.62
406.15	1644.52
406.35	1673.19
406.56	1804.26
406.77	1791.97
406.98	1712.10
407.18	1572.84
407.39	1767.40
407.60	1687.53
407.80	1695.72
408.01	1667.05
408.22	1701.86
408.43	1677.29
408.63	1714.15
408.84	1773.54
409.05	1775.59
409.25	1648.61
409.46	1640.42
409.67	1683.43
409.88	1738.73
410.08	1763.30
410.29	1679.33
410.50	1738.73
410.70	1685.48
410.91	1685.48
411.12	1679.33
411.32	1791.97
411.53	1632.23
411.74	1781.73
411.95	1712.10
412.15	1724.39
412.36	1794.02
412.57	1785.83
412.77	1816.55
412.98	1662.95
413.19	1650.66
413.39	1787.88
413.60	1775.59
413.81	1859.56
414.01	1658.85
414.22	1732.58
414.43	1748.97
414.63	1632.23
414.84	1751.01
415.05	1703.91
415.25	1699.81
415.46	1841.12
415.67	1730.53
415.87	1800.16
416.08	1705.96
416.29	1728.49
416.49	1740.77
416.70	1695.72
416.91	1671.14
417.11	1763.30
417.32	1787.88
417.53	1759.21
417.73	1748.97
417.94	1693.67
418.15	1732.58
418.35	1689.57
418.56	1728.49
418.77	1828.84
418.97	1574.89
419.18	1777.64
419.38	1656.81
419.59	1718.25
419.80	1837.03
420.00	1689.57
420.21	1722.34
420.42	1783.78
420.62	1689.57
420.83	1648.61
421.04	1718.25
421.24	1681.38
421.45	1802.21
421.65	1671.14
421.86	1695.72
422.07	1748.97
422.27	1693.67
422.48	1759.21
422.69	1642.47
422.89	1751.01
423.10	1730.53
423.30	1593.32
423.51	1798.12
423.72	1828.84
423.92	1796.07
424.13	1751.01
424.33	1720.29
424.54	1771.49
424.75	1683.43
424.95	1841.12
425.16	1705.96
425.36	1728.49
425.57	1804.26
425.78	1714.15
425.98	1804.26
426.19	1675.24
426.39	1644.52
426.60	1708.01
426.81	1855.46
427.01	1656.81
427.22	1738.73
427.42	1613.80
427.63	1660.90
427.83	1726.44
428.04	1828.84
428.25	1789.92
428.45	1689.57
428.66	1806.31
428.86	1724.39
429.07	1744.87
429.28	1730.53
429.48	1710.05
429.69	1740.77
429.89	1718.25
430.10	1626.09
430.30	1748.97
430.51	1789.92
430.71	1716.20
430.92	1736.68
431.13	1705.96
431.33	1798.12
431.54	1755.11
431.74	1798.12
431.95	1730.53
432.15	1699.81
432.36	1746.92
432.56	1728.49
432.77	1808.36
432.98	1863.65
433.18	1701.86
433.39	1732.58
433.59	1654.76
433.80	1812.45
434.00	1888.23
434.21	1699.81
434.41	1675.24
434.62	1822.69
434.82	1673.19
435.03	1689.57
435.23	1779.68
435.44	1591.27
435.64	1742.82
435.85	1734.63
436.06	1734.63
436.26	1800.16
436.47	1720.29
436.67	1621.99
436.88	1730.53
437.08	1677.29
437.29	1834.98
437.49	1781.73
437.70	1791.97
437.90	1710.05
438.11	1904.61
438.31	1818.60
438.52	1849.32
438.72	1859.56
438.93	1925.09
439.13	1730.53
439.34	1810.40
439.54	1789.92
439.75	1810.40
439.95	1816.55
440.16	1695.72
440.36	1773.54
440.57	1849.32
440.77	1761.25
440.98	1697.77
441.18	1705.96
441.39	1714.15
441.59	1691.62
441.80	1877.99
442.00	1710.05
442.21	1789.92
442.41	1697.77
442.62	1738.73
442.82	1748.97
443.02	1712.10
443.23	1781.73
443.43	1693.67
443.64	1791.97
443.84	1738.73
444.05	1789.92
444.25	1675.24
444.46	1734.63
444.66	1738.73
444.87	1824.74
445.07	1613.80
445.28	1726.44
445.48	1804.26
445.69	1763.30
445.89	1894.37
446.09	1757.16
446.30	1994.72
446.50	2625.50
446.71	3725.26
446.91	4376.51
447.12	4906.93
447.32	4798.39
447.53	4366.27
447.73	3852.23
447.93	3456.97
448.14	3256.27
448.34	3221.45
448.55	2906.07
448.75	2893.78
448.96	2688.98
449.16	2375.64
449.36	2281.44
449.57	2045.92
449.77	1896.42
449.98	1779.68
450.18	1789.92
450.39	1857.51
450.59	1697.77
450.79	1718.25
451.00	1724.39
451.20	1806.31
451.41	1789.92
451.61	1753.06
451.81	1779.68
452.02	1843.17
452.22	1722.34
452.43	1769.44
452.63	1712.10
452.84	1748.97
453.04	1771.49
453.24	1814.50
453.45	1710.05
453.65	1675.24
453.86	1800.16
454.06	1757.16
454.26	1779.68
454.47	1777.64
454.67	1759.21
454.87	1865.70
455.08	1726.44
455.28	1837.03
455.49	1798.12
455.69	1624.04
455.89	1869.80
456.10	1787.88
456.30	1740.77
456.51	1753.06
456.71	1744.87
456.91	1783.78
457.12	1693.67
457.32	1783.78
457.52	1597.42
457.73	1839.08
457.93	1755.11
458.14	1724.39
458.34	1626.09
458.54	1665.00
458.75	1757.16
458.95	1849.32
459.15	1759.21
459.36	1761.25
459.56	1773.54
459.76	1808.36
459.97	1673.19
460.17	1771.49
460.37	1773.54
460.58	1800.16
460.78	1705.96
460.99	1669.09
461.19	1755.11
461.39	1701.86
461.60	1740.77
461.80	1742.82
462.00	1673.19
462.21	1734.63
462.41	1804.26
462.61	1728.49
462.82	1660.90
463.02	1787.88
463.22	1732.58
463.43	1816.55
463.63	1703.91
463.83	1787.88
464.04	1785.83
464.24	1697.77
464.44	1708.01
464.64	1734.63
464.85	1703.91
465.05	1816.55
465.25	1695.72
465.46	1728.49
465.66	1781.73
465.86	1705.96
466.07	1720.29
466.27	1730.53
466.47	1613.80
466.68	1593.32
466.88	1884.13
467.08	1765.35
467.29	1744.87
467.49	1755.11
467.69	1767.40
467.89	1791.97
468.10	1783.78
468.30	1781.73
468.50	1855.46
468.71	1753.06
468.91	1665.00
469.11	1798.12
469.31	1730.53
469.52	1724.39
469.72	1900.52
469.92	1834.98
470.13	1701.86
470.33	1791.97
470.53	1847.27
470.73	2111.46
470.94	2287.58
471.14	2299.87
471.34	2480.09
471.54	2443.23
471.75	2226.14
471.95	2162.66
472.15	2123.74
472.36	2033.63
472.56	2099.17
472.76	1978.34
472.96	2019.30
473.17	2025.44
473.37	1953.76
473.57	1738.73
473.77	1828.84
473.98	1783.78
474.18	1712.10
474.38	1920.99
474.58	1689.57
474.79	1708.01
474.99	1789.92
475.19	1718.25
475.39	1681.38
475.60	1759.21
475.80	1769.44
476.00	1730.53
476.20	1689.57
476.41	1677.29
476.61	1810.40
476.81	1812.45
477.01	1642.47
477.21	1855.46
477.42	1839.08
477.62	1716.20
477.82	1699.81
478.02	1740.77
478.23	1740.77
478.43	1652.71
478.63	1736.68
478.83	1665.00
479.03	1726.44
479.24	1841.12
479.44	1816.55
479.64	1722.34
479.84	1665.00
480.04	1722.34
480.25	1753.06
480.45	1693.67
480.65	1656.81
480.85	1822.69
481.06	1638.38
481.26	1757.16
481.46	1726.44
481.66	1730.53
481.86	1646.57
482.06	1794.02
482.27	1728.49
482.47	1679.33
482.67	1742.82
482.87	1701.86
483.07	1767.40
483.28	1634.28
483.48	1671.14
483.68	1648.61
483.88	1691.62
484.08	1611.75
484.29	1699.81
484.49	1748.97
484.69	1619.94
484.89	1837.03
485.09	1798.12
485.29	1730.53
485.50	1677.29
485.70	1652.71
485.90	1882.08
486.10	1681.38
486.30	1800.16
486.50	1787.88
486.71	1728.49
486.91	1753.06
487.11	1742.82
487.31	1589.22
487.51	1810.40
487.71	1628.14
487.91	1603.56
488.12	1632.23
488.32	1611.75
488.52	1742.82
488.72	1640.42
488.92	1767.40
489.12	1812.45
489.32	1828.84
489.53	1722.34
489.73	1660.90
489.93	1767.40
490.13	1748.97
490.33	1677.29
490.53	1693.67
490.73	1902.56
490.94	1673.19
491.14	1759.21
491.34	1871.84
491.54	2119.65
491.74	2580.44
491.94	2848.72
492.14	3039.19
492.34	3094.48
492.54	2731.99
492.75	2533.34
492.95	2570.20
493.15	2316.25
493.35	2303.96
493.55	2172.89
493.75	2103.26
493.95	2076.64
494.15	1988.58
494.35	1865.70
494.56	1845.22
494.76	1732.58
494.96	1824.74
495.16	1763.30
495.36	1757.16
495.56	1761.25
495.76	1814.50
495.96	1681.38
496.16	1736.68
496.36	1857.51
496.56	1798.12
496.77	1740.77
496.97	1720.29
497.17	1834.98
497.37	1683.43
497.57	1794.02
497.77	1689.57
497.97	1650.66
498.17	1712.10
498.37	1712.10
498.57	1826.79
498.77	1710.05
498.97	1806.31
499.17	1941.47
499.38	1722.34
499.58	1650.66
499.78	1767.40
499.98	1847.27
500.18	1734.63
500.38	1714.15
500.58	1980.39
500.78	2633.69
500.98	4532.15
501.18	5801.90
501.38	6840.22
501.58	7247.76
501.78	6449.05
501.98	5615.53
502.18	4958.13
502.38	4534.20
502.58	4095.94
502.78	3751.88
502.98	3729.35
503.18	3491.79
503.38	3155.92
503.59	2848.72
503.79	2639.83
503.99	2490.33
504.19	2303.96
504.39	2181.09
504.59	2228.19
504.79	2215.90
504.99	2021.35
505.19	1978.34
505.39	1904.61
505.59	1992.67
505.79	1957.86
505.99	1787.88
506.19	1794.02
506.39	1880.04
506.59	1789.92
506.79	1744.87
506.99	1871.84
507.19	1802.21
507.39	1806.31
507.59	1777.64
507.79	1718.25
507.99	1705.96
508.19	1761.25
508.39	1675.24
508.59	1701.86
508.79	1804.26
508.99	1839.08
509.19	1753.06
509.39	1773.54
509.59	1789.92
509.79	1724.39
509.99	1767.40
510.19	1839.08
510.39	1767.40
510.59	1652.71
510.79	1787.88
510.99	1595.37
511.19	1773.54
511.39	1800.16
511.59	1814.50
511.79	1820.64
511.99	1820.64
512.19	1816.55
512.38	1705.96
512.58	1687.53
512.78	1695.72
512.98	1773.54
513.18	1882.08
513.38	1710.05
513.58	1794.02
513.78	1771.49
513.98	1710.05
514.18	1722.34
514.38	1683.43
514.58	1757.16
514.78	1761.25
514.98	1705.96
515.18	1726.44
515.38	1687.53
515.58	1882.08
515.78	1722.34
515.98	1724.39
516.18	1753.06
516.38	1800.16
516.57	1667.05
516.77	1718.25
516.97	1794.02
517.17	1728.49
517.37	1642.47
517.57	1716.20
517.77	1724.39
517.97	1685.48
518.17	1771.49
518.37	1730.53
518.57	1763.30
518.77	1685.48
518.97	1736.68
519.16	1755.11
519.36	1763.30
519.56	1683.43
519.76	1656.81
519.96	1726.44
520.16	1826.79
520.36	1726.44
520.56	1787.88
520.76	1777.64
520.96	1734.63
521.16	1828.84
521.35	1798.12
521.55	1834.98
521.75	1746.92
521.95	1736.68
522.15	1695.72
522.35	1710.05
522.55	1742.82
522.75	1845.22
522.95	1744.87
523.14	1626.09
523.34	1755.11
523.54	1701.86
523.74	1724.39
523.94	1699.81
524.14	1681.38
524.34	1720.29
524.54	1832.93
524.73	1675.24
524.93	1847.27
525.13	1740.77
525.33	1648.61
525.53	1847.27
525.73	1765.35
525.93	1712.10
526.13	1689.57
526.32	1740.77
526.52	1798.12
526.72	1800.16
526.92	1757.16
527.12	1794.02
527.32	1724.39
527.52	1798.12
527.71	1775.59
527.91	1775.59
528.11	1646.57
528.31	1697.77
528.51	1691.62
528.71	1722.34
528.90	1775.59
529.10	1830.88
529.30	1841.12
529.50	1654.76
529.70	1732.58
529.90	1716.20
530.09	1746.92
530.29	1642.47
530.49	1677.29
530.69	1951.71
530.89	1730.53
531.09	1783.78
531.28	1722.34
531.48	1765.35
531.68	1689.57
531.88	1744.87
532.08	1748.97
532.28	1708.01
532.47	1787.88
532.67	1773.54
532.87	1763.30
533.07	1697.77
533.27	1843.17
533.46	1834.98
533.66	1757.16
533.86	1738.73
534.06	1734.63
534.26	1740.77
534.45	1718.25
534.65	1748.97
534.85	1697.77
535.05	1730.53
535.25	1812.45
535.44	1669.09
535.64	1816.55
535.84	1755.11
536.04	1689.57
536.24	1673.19
536.43	1677.29
536.63	1773.54
536.83	1691.62
537.03	1720.29
537.22	1695.72
537.42	1642.47
537.62	1783.78
537.82	1781.73
538.02	1820.64
538.21	1873.89
538.41	1953.76
538.61	1732.58
538.81	1689.57
539.00	1771.49
539.20	1683.43
539.40	1681.38
539.60	1734.63
539.79	1830.88
539.99	1787.88
540.19	1779.68
540.39	1689.57
540.58	1746.92
540.78	1667.05
540.98	1716.20
541.18	1732.58
541.37	1843.17
541.57	1757.16
541.77	1714.15
541.97	1705.96
542.16	1712.10
542.36	1691.62
542.56	1806.31
542.76	1845.22
542.95	1769.44
543.15	1765.35
543.35	1699.81
543.54	1736.68
543.74	1734.63
543.94	1761.25
544.14	1677.29
544.33	1798.12
544.53	1726.44
544.73	1763.30
544.93	1681.38
545.12	1685.48
545.32	1767.40
545.52	1753.06
545.71	1640.42
545.91	1722.34
546.11	1785.83
546.30	1710.05
546.50	1683.43
546.70	1804.26
546.90	1775.59
547.09	1654.76
547.29	1759.21
547.49	1796.07
547.68	1730.53
547.88	1708.01
548.08	1728.49
548.27	2183.13
548.47	1683.43
548.67	1662.95
548.87	1798.12
549.06	1757.16
549.26	1800.16
549.46	1714.15
549.65	1742.82
549.85	1802.21
550.05	1794.02
550.24	1691.62
550.44	1742.82
550.64	1667.05
550.83	1658.85
551.03	1812.45
551.23	1773.54
551.42	1761.25
551.62	1746.92
551.82	1775.59
552.01	1722.34
552.21	1777.64
552.41	1775.59
552.60	1765.35
552.80	1710.05
553.00	1705.96
553.19	1742.82
553.39	1849.32
553.59	1695.72
553.78	1738.73
553.98	1820.64
554.17	1636.33
554.37	1761.25
554.57	1804.26
554.76	1699.81
554.96	1624.04
555.16	1675.24
555.35	1751.01
555.55	1787.88
555.75	1748.97
555.94	1822.69
556.14	1634.28
556.33	1746.92
556.53	1746.92
556.73	1787.88
556.92	1781.73
557.12	1826.79
557.32	1783.78
557.51	1783.78
557.71	1800.16
557.90	1726.44
558.10	1789.92
558.30	1798.12
558.49	1744.87
558.69	1771.49
558.88	1751.01
559.08	1699.81
559.28	1820.64
559.47	1685.48
559.67	1822.69
559.86	1855.46
560.06	1789.92
560.26	1634.28
560.45	1728.49
560.65	1697.77
560.84	1757.16
561.04	1693.67
561.24	1814.50
561.43	1675.24
561.63	1865.70
561.82	1771.49
562.02	1736.68
562.22	1718.25
562.41	1714.15
562.61	1738.73
562.80	1748.97
563.00	1822.69
563.19	1773.54
563.39	1794.02
563.59	1720.29
563.78	1697.77
563.98	1695.72
564.17	1736.68
564.37	1640.42
564.56	1781.73
564.76	1671.14
564.96	1826.79
565.15	1800.16
565.35	1918.95
565.54	1716.20
565.74	1808.36
565.93	1722.34
566.13	1724.39
566.32	1775.59
566.52	1753.06
566.71	1716.20
566.91	1763.30
567.11	1755.11
567.30	1701.86
567.50	1716.20
567.69	1685.48
567.89	1755.11
568.08	1757.16
568.28	1787.88
568.47	1740.77
568.67	1771.49
568.86	1734.63
569.06	1855.46
569.25	1763.30
569.45	1697.77
569.64	1734.63
569.84	1705.96
570.04	1728.49
570.23	1748.97
570.43	1667.05
570.62	1708.01
570.82	1781.73
571.01	1687.53
571.21	1720.29
571.40	1699.81
571.60	1789.92
571.79	1777.64
571.99	1705.96
572.18	1701.86
572.38	1798.12
572.57	1689.57
572.77	1765.35
572.96	1896.42
573.16	1736.68
573.35	1753.06
573.55	1783.78
573.74	1804.26
573.94	1736.68
574.13	1820.64
574.33	1906.66
574.52	1804.26
574.71	1742.82
574.91	1703.91
575.10	1693.67
575.30	1736.68
575.49	1716.20
575.69	1734.63
575.88	1701.86
576.08	1738.73
576.27	1818.60
576.47	1736.68
576.66	1806.31
576.86	1845.22
577.05	1675.24
577.25	1816.55
577.44	1916.90
577.64	1757.16
577.83	1802.21
578.02	1667.05
578.22	1769.44
578.41	1822.69
578.61	1732.58
578.80	1693.67
579.00	1791.97
579.19	1806.31
579.39	1857.51
579.58	1808.36
579.77	1806.31
579.97	1730.53
580.16	1832.93
580.36	1787.88
580.55	1828.84
580.75	1810.40
580.94	1828.84
581.13	1851.36
581.33	1882.08
581.52	1685.48
581.72	1828.84
581.91	1853.41
582.11	1783.78
582.30	1886.18
582.49	1806.31
582.69	1804.26
582.88	1820.64
583.08	1779.68
583.27	1837.03
583.47	1763.30
583.66	1806.31
583.85	1712.10
584.05	1722.34
584.24	1767.40
584.44	1783.78
584.63	1880.04
584.82	1785.83
585.02	1931.23
585.21	1828.84
585.41	1800.16
585.60	1812.45
585.79	1941.47
585.99	2017.25
586.18	2002.91
586.37	2193.37
586.57	3309.52
586.76	9787.24
586.96	24204.94
587.15	34340.34
587.34	40232.35
587.54	42128.77
587.73	36761.04
587.93	26168.94
588.12	21335.74
588.31	18253.55
588.51	16211.72
588.70	15044.38
588.89	14264.10
589.09	12580.67
589.28	11155.29
589.47	9408.37
589.67	8054.66
589.86	6434.72
590.06	4931.51
590.25	3891.14
590.44	3149.78
590.64	2617.30
590.83	2381.79
591.02	2043.87
591.22	1943.52
591.41	1873.89
591.60	1857.51
591.80	1920.99
591.99	1640.42
592.18	1746.92
592.38	1865.70
592.57	1781.73
592.76	1812.45
592.96	1877.99
593.15	1775.59
593.34	1822.69
593.54	1800.16
593.73	1828.84
593.92	1802.21
594.12	1771.49
594.31	1683.43
594.50	1810.40
594.70	1789.92
594.89	1849.32
595.08	1699.81
595.28	1837.03
595.47	2013.15
595.66	1728.49
595.86	1751.01
596.05	1740.77
596.24	1683.43
596.43	1839.08
596.63	1828.84
596.82	1783.78
597.01	1755.11
597.21	1845.22
597.40	1849.32
597.59	1714.15
597.79	1755.11
597.98	1757.16
598.17	1820.64
598.36	1787.88
598.56	1789.92
598.75	1679.33
598.94	1718.25
599.14	1710.05
599.33	1755.11
599.52	1755.11
599.71	1849.32
599.91	1763.30
600.10	1781.73
600.29	1785.83
600.48	1761.25
600.68	1787.88
600.87	1808.36
601.06	1677.29
601.26	1779.68
601.45	1779.68
601.64	1763.30
601.83	1839.08
602.03	1748.97
602.22	1665.00
602.41	1849.32
602.60	1896.42
602.80	1761.25
602.99	1796.07
603.18	1660.90
603.37	1759.21
603.57	1757.16
603.76	1783.78
603.95	1781.73
604.14	1777.64
604.34	1679.33
604.53	1751.01
604.72	1771.49
604.91	1791.97
605.10	1791.97
605.30	1648.61
605.49	1810.40
605.68	1773.54
605.87	1826.79
606.07	1773.54
606.26	1789.92
606.45	1755.11
606.64	1855.46
606.84	1777.64
607.03	1775.59
607.22	1828.84
607.41	1669.09
607.60	1687.53
607.80	1757.16
607.99	1689.57
608.18	1746.92
608.37	1718.25
608.56	1728.49
608.76	1777.64
608.95	1845.22
609.14	1736.68
609.33	1796.07
609.52	1789.92
609.72	1726.44
609.91	1820.64
610.10	1669.09
610.29	1837.03
610.48	1730.53
610.68	1753.06
610.87	1759.21
611.06	1738.73
611.25	1724.39
611.44	1779.68
611.63	1716.20
611.83	1816.55
612.02	1587.18
612.21	1898.47
612.40	1673.19
612.59	1652.71
612.79	1667.05
612.98	1816.55
613.17	1894.37
613.36	1746.92
613.55	1808.36
613.74	1755.11
613.93	1720.29
614.13	1728.49
614.32	1744.87
614.51	1746.92
614.70	1724.39
614.89	1695.72
615.08	1740.77
615.28	2082.78
615.47	1697.77
615.66	1818.60
615.85	1753.06
616.04	1812.45
616.23	1695.72
616.42	1683.43
616.62	1771.49
616.81	1781.73
617.00	1763.30
617.19	1806.31
617.38	1767.40
617.57	1730.53
617.76	1738.73
617.95	1744.87
618.15	1714.15
618.34	1794.02
618.53	1701.86
618.72	1791.97
618.91	1763.30
619.10	1857.51
619.29	1753.06
619.48	1773.54
619.68	1667.05
619.87	1685.48
620.06	1642.47
620.25	1759.21
620.44	1726.44
620.63	1712.10
620.82	1759.21
621.01	1783.78
621.20	1734.63
621.39	1812.45
621.59	1708.01
621.78	1742.82
621.97	1705.96
622.16	1779.68
622.35	1740.77
622.54	1783.78
622.73	1769.44
622.92	1652.71
623.11	1851.36
623.30	1671.14
623.49	1726.44
623.68	1765.35
623.88	1816.55
624.07	1742.82
624.26	1718.25
624.45	1783.78
624.64	1738.73
624.83	1798.12
625.02	1738.73
625.21	1693.67
625.40	1740.77
625.59	1820.64
625.78	1751.01
625.97	1771.49
626.16	1757.16
626.35	1796.07
626.54	1705.96
626.74	1730.53
626.93	1710.05
627.12	1673.19
627.31	1771.49
627.50	1806.31
627.69	1744.87
627.88	1650.66
628.07	1777.64
628.26	1656.81
628.45	1714.15
628.64	1640.42
628.83	1648.61
629.02	1689.57
629.21	1726.44
629.40	1689.57
629.59	1685.48
629.78	1669.09
629.97	1691.62
630.16	1757.16
630.35	1726.44
630.54	1763.30
630.73	1681.38
630.92	1759.21
631.11	1708.01
631.30	1689.57
631.49	1796.07
631.68	1755.11
631.87	1777.64
632.06	1632.23
632.25	1865.70
632.44	1673.19
632.63	1742.82
632.82	1716.20
633.01	1720.29
633.20	1742.82
633.39	1652.71
633.58	1712.10
633.77	1712.10
633.96	1714.15
634.15	1710.05
634.34	1777.64
634.53	1748.97
634.72	1701.86
634.91	1671.14
635.10	1832.93
635.29	1773.54
635.48	1675.24
635.67	1632.23
635.86	1669.09
636.05	1787.88
636.24	1730.53
636.43	1789.92
636.62	1724.39
636.81	1570.79
637.00	1748.97
637.19	1726.44
637.38	1812.45
637.57	1652.71
637.76	1662.95
637.95	1759.21
638.14	1689.57
638.33	1652.71
638.52	1699.81
638.71	1669.09
638.89	1656.81
639.08	1920.99
639.27	1755.11
639.46	1710.05
639.65	1794.02
639.84	1724.39
640.03	1802.21
640.22	1728.49
640.41	1837.03
640.60	1710.05
640.79	1763.30
640.98	1644.52
641.17	1855.46
641.36	1763.30
641.55	1810.40
641.74	1607.66
641.92	1642.47
642.11	1687.53
642.30	1673.19
642.49	1611.75
642.68	1744.87
642.87	1761.25
643.06	1796.07
643.25	1701.86
643.44	1658.85
643.63	1740.77
643.82	1787.88
644.00	1685.48
644.19	1714.15
644.38	1611.75
644.57	1820.64
644.76	1728.49
644.95	1628.14
645.14	1679.33
645.33	1787.88
645.52	1757.16
645.71	1675.24
645.89	1648.61
646.08	1669.09
646.27	1652.71
646.46	1873.89
646.65	1665.00
646.84	1767.40
647.03	1574.89
647.22	1806.31
647.40	1732.58
647.59	1703.91
647.78	1640.42
647.97	1644.52
648.16	1662.95
648.35	1837.03
648.54	1783.78
648.73	1783.78
648.91	1738.73
649.10	1773.54
649.29	1656.81
649.48	1734.63
649.67	1722.34
649.86	1730.53
650.05	1683.43
650.23	1812.45
650.42	1636.33
650.61	1695.72
650.80	1767.40
650.99	1839.08
651.18	1751.01
651.36	1771.49
651.55	1665.00
651.74	1796.07
651.93	1685.48
652.12	1755.11
652.31	1779.68
652.49	1681.38
652.68	1697.77
652.87	1814.50
653.06	1755.11
653.25	1834.98
653.44	1720.29
653.62	1779.68
653.81	1650.66
654.00	1705.96
654.19	1781.73
654.38	1818.60
654.56	1791.97
654.75	1687.53
654.94	1814.50
655.13	1771.49
655.32	1734.63
655.51	1775.59
655.69	1708.01
655.88	1730.53
656.07	1640.42
656.26	1730.53
656.45	1662.95
656.63	1714.15
656.82	1830.88
657.01	1816.55
657.20	1710.05
657.38	1832.93
657.57	1695.72
657.76	1634.28
657.95	1777.64
658.14	1624.04
658.32	1714.15
658.51	1624.04
658.70	1773.54
658.89	1697.77
659.08	1716.20
659.26	1802.21
659.45	1624.04
659.64	1740.77
659.83	1736.68
660.01	1845.22
660.20	1681.38
660.39	1773.54
660.58	1677.29
660.76	1765.35
660.95	1652.71
661.14	1755.11
661.33	1613.80
661.51	1697.77
661.70	1693.67
661.89	1767.40
662.08	1746.92
662.26	1654.76
662.45	1642.47
662.64	1794.02
662.83	1820.64
663.01	1675.24
663.20	1642.47
663.39	1847.27
663.58	1771.49
663.76	1789.92
663.95	1738.73
664.14	1712.10
664.32	1761.25
664.51	1662.95
664.70	1626.09
664.89	1746.92
665.07	1677.29
665.26	1732.58
665.45	1705.96
665.64	1806.31
665.82	1720.29
666.01	1818.60
666.20	1732.58
666.38	1853.41
666.57	1816.55
666.76	2254.81
666.95	4573.11
667.13	10434.40
667.32	15386.39
667.51	17981.17
667.69	19119.84
667.88	17784.56
668.07	12494.66
668.25	9594.73
668.44	8081.28
668.63	7319.44
668.81	6893.46
669.00	6360.99
669.19	5662.63
669.38	5142.45
669.56	4556.73
669.75	3952.58
669.94	3383.24
670.12	2885.59
670.31	2531.29
670.50	2320.35
670.68	2107.36
670.87	1937.38
671.06	1826.79
671.24	1763.30
671.43	1798.12
671.62	1755.11
671.80	1705.96
671.99	1738.73
672.18	1691.62
672.36	1771.49
672.55	1822.69
672.74	1683.43
672.92	1691.62
673.11	1800.16
673.29	1699.81
673.48	1767.40
673.67	1665.00
673.85	1843.17
674.04	1755.11
674.23	1744.87
674.41	1845.22
674.60	1757.16
674.79	1638.38
674.97	1667.05
675.16	1769.44
675.34	1746.92
675.53	1636.33
675.72	1773.54
675.90	1798.12
676.09	1712.10
676.28	1777.64
676.46	1652.71
676.65	1718.25
676.83	1724.39
677.02	1714.15
677.21	1736.68
677.39	1777.64
677.58	1662.95
677.77	1740.77
677.95	1742.82
678.14	1736.68
678.32	1734.63
678.51	1703.91
678.70	1769.44
678.88	1656.81
679.07	1751.01
679.25	1759.21
679.44	1787.88
679.63	1675.24
679.81	1787.88
680.00	1724.39
680.18	1738.73
680.37	1822.69
680.55	1718.25
680.74	1656.81
680.93	1644.52
681.11	1732.58
681.30	1757.16
681.48	1718.25
681.67	1763.30
681.85	1701.86
682.04	1734.63
682.23	1738.73
682.41	1705.96
682.60	1656.81
682.78	1673.19
682.97	1679.33
683.15	1755.11
683.34	1742.82
683.53	1800.16
683.71	1652.71
683.90	1744.87
684.08	1787.88
684.27	1718.25
684.45	1744.87
684.64	1828.84
684.82	1658.85
685.01	1710.05
685.19	1755.11
685.38	1796.07
685.57	1681.38
685.75	1615.85
685.94	1665.00
686.12	1701.86
686.31	1726.44
686.49	1820.64
686.68	1667.05
686.86	1667.05
687.05	1646.57
687.23	1814.50
687.42	1689.57
687.60	1689.57
687.79	1757.16
687.97	1787.88
688.16	1785.83
688.34	1796.07
688.53	1626.09
688.71	1738.73
688.90	1841.12
689.08	1626.09
689.27	1642.47
689.45	1783.78
689.64	1728.49
689.82	1730.53
690.01	1794.02
690.19	1755.11
690.38	1685.48
690.56	1830.88
690.75	1662.95
690.93	1667.05
691.12	1652.71
691.30	1742.82
691.49	1710.05
691.67	1748.97
691.86	1839.08
692.04	1716.20
692.23	1701.86
692.41	1708.01
692.60	1826.79
692.78	1736.68
692.97	1730.53
693.15	1783.78
693.34	1820.64
693.52	1763.30
693.71	1656.81
693.89	1626.09
694.08	1628.14
694.26	1755.11
694.44	1724.39
694.63	1744.87
694.81	1624.04
695.00	1679.33
695.18	1755.11
695.37	1855.46
695.55	1834.98
695.74	1699.81
695.92	1697.77
696.10	1779.68
696.29	1697.77
696.47	1732.58
696.66	1583.08
696.84	1683.43
697.03	1703.91
697.21	1845.22
697.40	2293.72
697.58	1886.18
697.76	1675.24
697.95	1705.96
698.13	1701.86
698.32	1677.29
698.50	1857.51
698.68	1744.87
698.87	1691.62
699.05	1806.31
699.24	1673.19
699.42	1665.00
699.61	1708.01
699.79	1697.77
699.97	1699.81
700.16	1632.23
700.34	1601.51
700.53	1718.25
700.71	1841.12
700.89	1794.02
701.08	1693.67
701.26	1689.57
701.45	2140.13
701.63	1681.38
701.81	1746.92
702.00	1675.24
702.18	1751.01
702.37	1671.14
702.55	1781.73
702.73	1685.48
702.92	1660.90
703.10	1724.39
703.28	1724.39
703.47	1624.04
703.65	1794.02
703.84	1732.58
704.02	1691.62
704.20	1746.92
704.39	1771.49
704.57	1759.21
704.75	1769.44
704.94	1769.44
705.12	1832.93
705.30	1798.12
705.49	2193.37
705.67	4296.64
705.86	9529.20
706.04	12640.06
706.22	14501.67
706.41	15331.09
706.59	13715.25
706.77	9484.14
706.96	7309.20
707.14	6664.09
707.32	5918.63
707.51	5599.15
707.69	4892.60
707.87	4097.99
708.06	3620.81
708.24	2961.36
708.42	2445.27
708.61	2316.25
708.79	1890.28
708.97	1861.60
709.16	1871.84
709.34	1751.01
709.52	1734.63
709.71	1742.82
709.89	1673.19
710.07	1691.62
710.26	1644.52
710.44	1708.01
710.62	1755.11
710.80	1636.33
710.99	1794.02
711.17	1677.29
711.35	1673.19
711.54	1720.29
711.72	1773.54
711.90	1755.11
712.09	1777.64
712.27	1628.14
712.45	1763.30
712.63	1660.90
712.82	1726.44
713.00	1724.39
713.18	1759.21
713.37	1726.44
713.55	1714.15
713.73	1712.10
713.91	1767.40
714.10	1708.01
714.28	1726.44
714.46	1798.12
714.65	1728.49
714.83	1787.88
715.01	1718.25
715.19	1726.44
715.38	1681.38
715.56	1798.12
715.74	1732.58
715.92	1640.42
716.11	1810.40
716.29	1621.99
716.47	1681.38
716.65	1718.25
716.84	1656.81
717.02	1789.92
717.20	1613.80
717.38	1662.95
717.57	1626.09
717.75	1740.77
717.93	1669.09
718.11	1685.48
718.30	1648.61
718.48	1744.87
718.66	1771.49
718.84	1794.02
719.03	1710.05
719.21	1593.32
719.39	1822.69
719.57	1748.97
719.75	1814.50
719.94	1665.00
720.12	1732.58
720.30	1726.44
720.48	1714.15
720.67	1619.94
720.85	1570.79
721.03	1732.58
721.21	1640.42
721.39	1714.15
721.58	1695.72
721.76	1718.25
721.94	1767.40
722.12	1699.81
722.30	1808.36
722.49	1667.05
722.67	1701.86
722.85	1724.39
723.03	1597.42
723.21	1687.53
723.40	1789.92
723.58	1796.07
723.76	1699.81
723.94	1814.50
724.12	1767.40
724.30	1675.24
724.49	1783.78
724.67	1648.61
724.85	1820.64
725.03	1695.72
725.21	1757.16
725.40	1789.92
725.58	1660.90
725.76	1804.26
725.94	1720.29
726.12	1662.95
726.30	1722.34
726.49	1757.16
726.67	1683.43
726.85	1763.30
727.03	1798.12
727.21	2172.89
727.39	2797.53
727.57	3864.52
727.76	4351.93
727.94	4366.27
728.12	4409.28
728.30	3575.75
728.48	2979.79
728.66	2752.47
728.84	2492.38
729.03	2328.54
729.21	2095.07
729.39	2023.39
729.57	1865.70
729.75	1839.08
729.93	1886.18
730.11	1757.16
730.30	1773.54
730.48	1691.62
730.66	1810.40
730.84	1771.49
731.02	1699.81
731.20	1761.25
731.38	1740.77
731.56	1642.47
731.74	1671.14
731.93	1675.24
732.11	1736.68
732.29	1722.34
732.47	1759.21
732.65	1757.16
732.83	1820.64
733.01	1810.40
733.19	1669.09
733.37	1746.92
733.56	1701.86
733.74	1722.34
733.92	1771.49
734.10	1753.06
734.28	1779.68
734.46	1699.81
734.64	1710.05
734.82	1685.48
735.00	1765.35
735.18	1730.53
735.36	1744.87
735.54	1738.73
735.73	1720.29
735.91	1753.06
736.09	1753.06
736.27	1732.58
736.45	1744.87
736.63	1576.94
736.81	1712.10
736.99	1726.44
737.17	1765.35
737.35	1689.57
737.53	1757.16
737.71	1699.81
737.89	1828.84
738.07	1718.25
738.25	1726.44
738.43	1695.72
738.61	1697.77
738.80	1675.24
738.98	1615.85
739.16	1685.48
739.34	1755.11
739.52	1855.46
739.70	1710.05
739.88	1748.97
740.06	1783.78
740.24	1599.46
740.42	1761.25
740.60	1687.53
740.78	1689.57
740.96	1632.23
741.14	1705.96
741.32	1740.77
741.50	1656.81
741.68	1845.22
741.86	1748.97
742.04	1609.70
742.22	1617.90
742.40	1705.96
742.58	1730.53
742.76	1685.48
742.94	1806.31
743.12	1656.81
743.30	1675.24
743.48	1734.63
743.66	1665.00
743.84	1734.63
744.02	1613.80
744.20	1665.00
744.38	1669.09
744.56	1767.40
744.74	1875.94
744.92	1665.00
745.10	1794.02
745.28	1787.88
745.46	1775.59
745.64	1705.96
745.82	1765.35
746.00	1738.73
746.18	1779.68
746.36	1626.09
746.54	1724.39
746.72	1650.66
746.90	1726.44
747.08	1779.68
747.26	1687.53
747.44	1703.91
747.62	1744.87
747.80	1667.05
747.98	1867.75
748.15	1665.00
748.33	1773.54
748.51	1724.39
748.69	1712.10
748.87	1691.62
749.05	1669.09
749.23	1800.16
749.41	1812.45
749.59	1652.71
749.77	1695.72
749.95	1646.57
750.13	1675.24
750.31	1716.20
750.49	1675.24
750.67	1771.49
750.85	1832.93
751.03	1687.53
751.20	1767.40
751.38	1640.42
751.56	1728.49
751.74	1767.40
751.92	1769.44
752.10	1642.47
752.28	1755.11
752.46	1650.66
752.64	1710.05
752.82	1677.29
753.00	1734.63
753.18	1636.33
753.35	1652.71
753.53	1693.67
753.71	1705.96
753.89	1697.77
754.07	1689.57
754.25	1798.12
754.43	1712.10
754.61	1691.62
754.79	1744.87
754.97	1654.76
755.14	1787.88
755.32	1728.49
755.50	1726.44
755.68	1732.58
755.86	1593.32
756.04	1624.04
756.22	1658.85
756.40	1738.73
756.57	1877.99
756.75	1744.87
756.93	1822.69
757.11	1740.77
757.29	1689.57
757.47	1705.96
757.65	1652.71
757.82	1603.56
758.00	1669.09
758.18	1669.09
758.36	1605.61
758.54	1794.02
758.72	1646.57
758.90	1853.41
759.07	1755.11
759.25	1595.37
759.43	1722.34
759.61	1654.76
759.79	2213.85
759.97	1785.83
760.15	1644.52
760.32	1736.68
760.50	1685.48
760.68	1771.49
760.86	1718.25
761.04	1744.87
761.22	1746.92
761.39	1740.77
761.57	1763.30
761.75	1738.73
761.93	1705.96
762.11	1669.09
762.28	1675.24
762.46	1675.24
762.64	1783.78
762.82	1656.81
763.00	1714.15
763.18	1839.08
763.35	1687.53
763.53	1722.34
763.71	1734.63
763.89	1714.15
764.07	1736.68
764.24	1705.96
764.42	1771.49
764.60	1673.19
764.78	1669.09
764.96	1748.97
765.13	1710.05
765.31	1658.85
765.49	1759.21
765.67	1599.46
765.84	1693.67
766.02	1638.38
766.20	1548.26
766.38	1755.11
766.56	1812.45
766.73	1789.92
766.91	1718.25
767.09	1662.95
767.27	1783.78
767.44	1665.00
767.62	1693.67
767.80	1701.86
767.98	1771.49
768.15	1689.57
768.33	1804.26
768.51	1738.73
768.69	1781.73
768.87	1697.77
769.04	1593.32
769.22	1888.23
769.40	1794.02
769.58	1888.23
769.75	1791.97
769.93	1724.39
770.11	1767.40
770.28	1701.86
770.46	1736.68
770.64	1718.25
770.82	1708.01
770.99	1681.38
771.17	1708.01
771.35	1693.67
771.53	1730.53
771.70	1714.15
771.88	1777.64
772.06	1718.25
772.23	1712.10
772.41	1705.96
772.59	1753.06
772.77	1691.62
772.94	1689.57
773.12	1734.63
773.30	1677.29
773.47	1685.48
773.65	1656.81
773.83	1748.97
774.01	1699.81
774.18	1576.94
774.36	1685.48
774.54	1542.12
774.71	1757.16
774.89	1603.56
775.07	1714.15
775.24	1640.42
775.42	1699.81
775.60	1730.53
775.78	1634.28
775.95	1642.47
776.13	1669.09
776.31	1605.61
776.48	1701.86
776.66	1755.11
776.84	1693.67
777.01	1726.44
777.19	1658.85
777.37	1675.24
777.54	1748.97
777.72	1853.41
777.90	1654.76
778.07	1693.67
778.25	1931.23
778.43	1771.49
778.60	1679.33
778.78	1787.88
778.96	1759.21
779.13	1669.09
779.31	1789.92
779.49	1710.05
779.66	1722.34
779.84	1685.48
780.01	1648.61
780.19	1605.61
780.37	1804.26
780.54	1777.64
780.72	1621.99
780.90	1724.39
781.07	1662.95
781.25	1624.04
781.43	1830.88
781.60	1720.29
781.78	1828.84
781.95	1650.66
782.13	1634.28
782.31	1615.85
782.48	1603.56
782.66	1681.38
782.83	1794.02
783.01	1769.44
783.19	1759.21
783.36	1667.05
783.54	1636.33
783.72	1740.77
783.89	1671.14
784.07	1677.29
784.24	1757.16
784.42	1785.83
784.60	1755.11
784.77	1724.39
784.95	1667.05
785.12	1603.56
785.30	1662.95
785.47	1677.29
785.65	1644.52
785.83	1732.58
786.00	1742.82
786.18	1654.76
786.35	1658.85
786.53	1650.66
786.71	1699.81
786.88	1732.58
787.06	1732.58
787.23	1669.09
787.41	1695.72
787.58	1656.81
787.76	1683.43
787.94	1693.67
788.11	1617.90
788.29	1665.00
788.46	1673.19
788.64	1656.81
788.81	1636.33
788.99	1755.11
789.16	1634.28
789.34	1677.29
789.52	1726.44
789.69	1675.24
789.87	1671.14
790.04	1683.43
790.22	1751.01
790.39	1742.82
790.57	1669.09
790.74	1677.29
790.92	1722.34
791.09	1572.84
791.27	1767.40
791.44	1716.20
791.62	1681.38
791.79	1791.97
791.97	1658.85
792.15	1857.51
792.32	1705.96
792.50	1761.25
792.67	1804.26
792.85	1830.88
793.02	1712.10
793.20	1703.91
793.37	1634.28
793.55	1773.54
793.72	1611.75
793.90	1773.54
794.07	1601.51
794.25	1718.25
794.42	1736.68
794.60	1755.11
794.77	1716.20
794.95	1705.96
795.12	1710.05
795.30	1673.19
795.47	1624.04
795.65	1804.26
795.82	1730.53
796.00	1701.86
796.17	1722.34
796.34	1648.61
796.52	1701.86
796.69	1755.11
796.87	1716.20
797.04	1708.01
797.22	1767.40
797.39	1773.54
797.57	1796.07
797.74	1732.58
797.92	1701.86
798.09	1648.61
798.27	1759.21
798.44	1687.53
798.62	1669.09
798.79	1699.81
798.96	1722.34
799.14	1705.96
799.31	1777.64
799.49	1738.73
799.66	1652.71
799.84	1683.43
800.01	1611.75
800.19	1662.95
800.36	1597.42
800.53	1640.42
800.71	1748.97
800.88	1787.88
801.06	1640.42
801.23	1710.05
801.41	1648.61
801.58	1667.05
801.75	1710.05
801.93	1701.86
802.10	1810.40
802.28	1753.06
802.45	1742.82
802.63	1708.01
802.80	1808.36
802.97	1732.58
803.15	1712.10
803.32	1673.19
803.50	1710.05
803.67	1701.86
803.84	1609.70
804.02	1724.39
804.19	1687.53
804.37	1599.46
804.54	1705.96
804.71	1720.29
804.89	1744.87
805.06	1714.15
805.24	1691.62
805.41	1599.46
805.58	1718.25
805.76	1804.26
805.93	1624.04
806.10	1748.97
806.28	1718.25
806.45	1689.57
806.63	1703.91
806.80	1730.53
806.97	1746.92
807.15	1757.16
807.32	1675.24
807.49	1763.30
807.67	1640.42
807.84	1742.82
808.01	1566.70
808.19	1771.49
808.36	1779.68
808.54	1708.01
808.71	1722.34
808.88	1658.85
809.06	1669.09
809.23	1755.11
809.40	1677.29
809.58	1751.01
809.75	1689.57
809.92	1644.52
810.10	1888.23
810.27	1675.24
810.44	1757.16
810.62	1767.40
810.79	1755.11
810.96	1677.29
811.14	1673.19
811.31	1675.24
811.48	1716.20
811.66	1626.09
811.83	1824.74
812.00	1812.45
812.18	1703.91
812.35	1791.97
812.52	1673.19
812.69	1611.75
812.87	1728.49
813.04	1738.73
813.21	1699.81
813.39	1714.15
813.56	1671.14
813.73	1804.26
813.91	1615.85
814.08	1701.86
814.25	1701.86
814.42	1636.33
814.60	1740.77
814.77	1652.71
814.94	1703.91
815.12	1705.96
815.29	1794.02
815.46	1697.77
815.63	1726.44
815.81	1646.57
815.98	1679.33
816.15	1673.19
816.33	1720.29
816.50	1714.15
816.67	1687.53
816.84	1681.38
817.02	1611.75
817.19	1677.29
817.36	1710.05
817.53	1771.49
817.71	1605.61
817.88	1769.44
818.05	1656.81
818.22	1679.33
818.40	1843.17
818.57	1738.73
818.74	1679.33
818.91	1650.66
819.09	1751.01
819.26	1728.49
819.43	1710.05
819.60	1695.72
819.78	1710.05
819.95	1804.26
820.12	1617.90
820.29	1718.25
820.47	1716.20
820.64	1640.42
820.81	1597.42
820.98	1665.00
821.15	1732.58
821.33	1822.69
821.50	1603.56
821.67	1751.01
821.84	1669.09
822.02	1755.11
822.19	1771.49
822.36	1673.19
822.53	1667.05
822.70	1685.48
822.88	1701.86
823.05	1718.25
823.22	1619.94
823.39	1669.09
823.56	1714.15
823.74	1777.64
823.91	1695.72
824.08	1673.19
824.25	1681.38
824.42	1818.60
824.60	1744.87
824.77	1761.25
824.94	1708.01
825.11	1656.81
825.28	1669.09
825.45	1701.86
825.63	1689.57
825.80	1669.09
825.97	1722.34
826.14	1740.77
826.31	1601.51
826.48	1765.35
826.66	1677.29
826.83	1646.57
827.00	1699.81
827.17	1648.61
827.34	1681.38
827.51	1677.29
827.69	1650.66
827.86	1574.89
828.03	1624.04
828.20	1701.86
828.37	1679.33
828.54	1763.30
828.71	1712.10
828.89	1746.92
829.06	1691.62
829.23	1818.60
829.40	1699.81
829.57	1654.76
829.74	1712.10
829.91	1656.81
830.09	1640.42
830.26	1712.10
830.43	1812.45
830.60	1667.05
830.77	1740.77
830.94	1703.91
831.11	1765.35
831.28	1683.43
831.46	1736.68
831.63	1779.68
831.80	1826.79
831.97	1646.57
832.14	1742.82
832.31	1718.25
832.48	1718.25
832.65	1751.01
832.82	1724.39
832.99	1779.68
833.17	1681.38
833.34	1681.38
833.51	1744.87
833.68	1566.70
833.85	1675.24
834.02	1708.01
834.19	1730.53
834.36	1669.09
834.53	1753.06
834.70	1816.55
834.87	1691.62
835.04	1683.43
835.22	1656.81
835.39	1673.19
835.56	1628.14
835.73	1677.29
835.90	1783.78
836.07	1675.24
836.24	1722.34
836.41	1613.80
836.58	1634.28
836.75	1753.06
836.92	1697.77
837.09	1636.33
837.26	1789.92
837.43	1703.91
837.60	1748.97
837.77	1630.18
837.94	1738.73
838.12	1796.07
838.29	1665.00
838.46	1679.33
838.63	1683.43
838.80	1726.44
838.97	1769.44
839.14	1693.67
839.31	1689.57
839.48	1685.48
839.65	1613.80
839.82	1783.78
839.99	1720.29
840.16	1691.62
840.33	1683.43
840.50	1708.01
840.67	1718.25
840.84	1669.09
841.01	1689.57
841.18	1652.71
841.35	1689.57
841.52	1724.39
841.69	1816.55
841.86	1687.53
842.03	1699.81
842.20	1806.31
842.37	1720.29
842.54	1607.66
842.71	1716.20
842.88	1607.66
843.05	1697.77
843.22	1652.71
843.39	1738.73
843.56	1648.61
843.73	1746.92
843.90	1734.63
844.07	1740.77
844.24	1734.63
844.41	1804.26
844.58	1667.05
844.75	1738.73
844.92	1732.58
845.09	1693.67
845.26	1681.38
845.43	1695.72
845.60	1738.73
845.77	1802.21
845.94	1718.25
846.10	1789.92
846.27	1611.75
846.44	1650.66
846.61	1650.66
846.78	1687.53
846.95	1705.96
847.12	1710.05
847.29	1712.10
847.46	1601.51
847.63	1781.73
847.80	1779.68
847.97	1714.15
848.14	1787.88
848.31	1638.38
848.48	1611.75
848.65	1722.34
848.82	1675.24
848.98	1837.03
849.15	1820.64
849.32	1767.40
849.49	1767.40
849.66	1679.33
849.83	1730.53
850.00	1669.09
850.17	1765.35
850.34	1656.81
850.51	1736.68
850.68	1742.82
850.85	1820.64
851.01	1724.39
851.18	1689.57
851.35	1658.85
851.52	1781.73
851.69	1810.40
851.86	1578.98
852.03	1705.96
852.20	1697.77
852.37	1689.57
852.53	1685.48
852.70	1732.58
852.87	1716.20
853.04	1710.05
853.21	1687.53
853.38	1724.39
853.55	1759.21
853.72	1765.35
853.89	1675.24
854.05	1656.81
854.22	1660.90
854.39	1695.72
854.56	1660.90
854.73	1716.20
854.90	1687.53
855.07	1679.33
855.23	1669.09
855.40	1712.10
855.57	1722.34
855.74	1601.51
855.91	1859.56
856.08	1640.42
856.25	1617.90
856.41	1783.78
856.58	1671.14
856.75	1673.19
856.92	1568.74
857.09	1771.49
857.26	1679.33
857.42	1722.34
857.59	1742.82
857.76	1714.15
857.93	1675.24
858.10	1775.59
858.27	1677.29
858.43	1689.57
858.60	1714.15
858.77	1632.23
858.94	1677.29
859.11	1839.08
859.27	1630.18
859.44	1757.16
859.61	1791.97
859.78	1726.44
859.95	1753.06
860.12	1685.48
860.28	1800.16
860.45	1777.64
860.62	1712.10
860.79	1740.77
860.95	1636.33
861.12	1699.81
861.29	1667.05
861.46	1691.62
861.63	1671.14
861.79	1724.39
861.96	1677.29
862.13	1601.51
862.30	1794.02
862.47	1705.96
862.63	1685.48
862.80	1775.59
862.97	1834.98
863.14	1765.35
863.30	1777.64
863.47	1689.57
863.64	1851.36
863.81	1677.29
863.97	1689.57
864.14	1748.97
864.31	1703.91
864.48	1724.39
864.65	1693.67
864.81	1804.26
864.98	1724.39
865.15	1716.20
865.32	1773.54
865.48	1765.35
865.65	1820.64
865.82	1705.96
865.98	1699.81
866.15	1767.40
866.32	1644.52
866.49	1748.97
866.65	1769.44
866.82	1667.05
866.99	1738.73
867.16	1697.77
867.32	1693.67
867.49	1714.15
867.66	1708.01
867.83	1628.14
867.99	1632.23
868.16	1656.81
868.33	1669.09
868.49	1658.85
868.66	1665.00
868.83	1685.48
868.99	1689.57
869.16	1705.96
869.33	1783.78
869.50	1746.92
869.66	1650.66
869.83	1695.72
870.00	1638.38
870.16	1693.67
870.33	1734.63
870.50	1728.49
870.66	1734.63
870.83	1814.50
871.00	1726.44
871.17	1675.24
871.33	1669.09
871.50	1648.61
871.67	1662.95
871.83	1683.43
872.00	1828.84
872.17	1658.85
872.33	1767.40
872.50	1777.64
872.67	1669.09
872.83	1691.62
873.00	1746.92
873.17	1755.11
873.33	1701.86
873.50	1681.38
873.67	1650.66
873.83	1628.14
874.00	1765.35
874.16	1726.44
874.33	1720.29
874.50	1650.66
874.66	1712.10
874.83	1675.24
875.00	1785.83
875.16	1742.82
875.33	1734.63
875.50	1548.26
875.66	1636.33
875.83	1691.62
875.99	1689.57
876.16	1656.81
876.33	1665.00
876.49	1720.29
876.66	1679.33
876.83	1722.34
876.99	1640.42
877.16	1714.15
877.32	1675.24
877.49	1648.61
877.66	1712.10
877.82	1710.05
877.99	1759.21
878.15	1789.92
878.32	1808.36
878.49	1796.07
878.65	1644.52
878.82	1818.60
878.98	1652.71
879.15	1839.08
879.32	1828.84
879.48	1695.72
879.65	1761.25
879.81	1712.10
879.98	1669.09
880.15	1669.09
880.31	1763.30
880.48	1673.19
880.64	1777.64
880.81	1769.44
880.97	1757.16
881.14	1783.78
881.31	1644.52
881.47	1873.89
881.64	1765.35
881.80	1591.27
881.97	1757.16
882.13	1814.50
882.30	1656.81
882.47	1685.48
882.63	1613.80
882.80	1685.48
882.96	1716.20
883.13	1853.41
883.29	1701.86
883.46	1708.01
883.62	1826.79
883.79	1697.77
883.95	1773.54
884.12	1755.11
884.29	1744.87
884.45	1689.57
884.62	1720.29
884.78	1673.19
884.95	1828.84
885.11	1665.00
885.28	1802.21
885.44	1660.90
885.61	1761.25
885.77	1787.88
885.94	1722.34
886.10	1718.25
886.27	1742.82
886.43	1810.40
886.60	1746.92
886.76	1751.01
886.93	1732.58
887.09	1679.33
887.26	1615.85
887.42	1712.10
887.59	1730.53
887.75	1818.60
887.92	1720.29
888.08	1746.92
888.25	1755.11
888.41	1734.63
888.58	1773.54
888.74	1613.80
888.91	1656.81
>>>>>End Processed Spectral Data<<<<<
