SpectraSuite Data File
++++++++++++++++++++++++++++++++++++
Date: Mon Jun 06 13:21:17 CEST 2016
User: root
Dark Spectrum Present: No
Reference Spectrum Present: No
Number of Sampled Component Spectra: 1
Spectrometers: USB4C02835
Integration Time (usec): 100000 (USB4C02835)
Spectra Averaged: 1 (USB4C02835)
Boxcar Smoothing: 0 (USB4C02835)
Correct for Electrical Dark: No (USB4C02835)
Strobe/Lamp Enabled: No (USB4C02835)
Correct for Detector Non-linearity: No (USB4C02835)
Correct for Stray Light: No (USB4C02835)
Number of Pixels in Processed Spectrum: 3648
>>>>>Begin Processed Spectral Data<<<<<
177.47	1427.43
177.69	1427.43
177.91	1427.43
178.13	1513.45
178.36	1411.05
178.58	1658.85
178.80	1714.15
179.02	1671.14
179.24	1712.10
179.46	1656.81
179.68	1703.91
179.90	1726.44
180.13	1710.05
180.35	1673.19
180.57	1732.58
180.79	1734.63
181.01	1642.47
181.23	1720.29
181.45	1814.50
181.67	1714.15
181.90	1697.77
182.12	1546.22
182.34	1673.19
182.56	1775.59
182.78	1722.34
183.00	1689.57
183.22	1763.30
183.44	1576.94
183.66	1894.37
183.89	1765.35
184.11	1697.77
184.33	1705.96
184.55	1771.49
184.77	1804.26
184.99	1681.38
185.21	1613.80
185.43	1843.17
185.65	1617.90
185.87	1724.39
186.10	1755.11
186.32	1843.17
186.54	1685.48
186.76	1808.36
186.98	1720.29
187.20	1714.15
187.42	1677.29
187.64	1671.14
187.86	1677.29
188.08	1734.63
188.30	1656.81
188.52	1712.10
188.75	1744.87
188.97	1773.54
189.19	1691.62
189.41	1740.77
189.63	1671.14
189.85	1675.24
190.07	1619.94
190.29	1615.85
190.51	1697.77
190.73	1550.31
190.95	1806.31
191.17	1699.81
191.39	1615.85
191.61	1648.61
191.84	1648.61
192.06	1662.95
192.28	1619.94
192.50	1806.31
192.72	1701.86
192.94	1720.29
193.16	1722.34
193.38	1738.73
193.60	1621.99
193.82	1763.30
194.04	1773.54
194.26	1671.14
194.48	1679.33
194.70	1705.96
194.92	1650.66
195.14	1671.14
195.36	1648.61
195.58	1587.18
195.80	1730.53
196.02	1583.08
196.24	1671.14
196.46	1730.53
196.69	1687.53
196.91	1855.46
197.13	1710.05
197.35	1677.29
197.57	1822.69
197.79	1742.82
198.01	1687.53
198.23	1773.54
198.45	1714.15
198.67	1808.36
198.89	1746.92
199.11	1718.25
199.33	1667.05
199.55	1597.42
199.77	1705.96
199.99	1732.58
200.21	1634.28
200.43	1701.86
200.65	1607.66
200.87	1624.04
201.09	1689.57
201.31	1761.25
201.53	1708.01
201.75	1685.48
201.97	1732.58
202.19	1675.24
202.41	1738.73
202.63	1779.68
202.85	1650.66
203.07	1691.62
203.29	1632.23
203.51	1671.14
203.73	1640.42
203.95	1882.08
204.17	1738.73
204.39	1648.61
204.61	1650.66
204.83	1656.81
205.05	1705.96
205.27	1740.77
205.49	1804.26
205.71	1738.73
205.93	1665.00
206.15	1728.49
206.37	1675.24
206.59	1697.77
206.81	1638.38
207.03	1656.81
207.25	1626.09
207.47	1695.72
207.69	1658.85
207.91	1796.07
208.13	1787.88
208.34	1640.42
208.56	1621.99
208.78	1734.63
209.00	1695.72
209.22	1634.28
209.44	1615.85
209.66	1687.53
209.88	1705.96
210.10	1611.75
210.32	1685.48
210.54	1724.39
210.76	1673.19
210.98	1751.01
211.20	1601.51
211.42	1726.44
211.64	1785.83
211.86	1667.05
212.08	1693.67
212.30	1767.40
212.52	1683.43
212.74	1722.34
212.96	1683.43
213.17	1730.53
213.39	1742.82
213.61	1753.06
213.83	1773.54
214.05	1714.15
214.27	1816.55
214.49	1656.81
214.71	1656.81
214.93	1806.31
215.15	1679.33
215.37	1716.20
215.59	1599.46
215.81	1746.92
216.03	1802.21
216.24	1648.61
216.46	1677.29
216.68	1734.63
216.90	1759.21
217.12	1812.45
217.34	1675.24
217.56	1689.57
217.78	1820.64
218.00	1656.81
218.22	1683.43
218.44	1710.05
218.66	1757.16
218.87	1798.12
219.09	1603.56
219.31	1632.23
219.53	1624.04
219.75	1611.75
219.97	1710.05
220.19	1769.44
220.41	1734.63
220.63	1771.49
220.85	1728.49
221.06	1714.15
221.28	1769.44
221.50	1714.15
221.72	1599.46
221.94	1730.53
222.16	1720.29
222.38	1791.97
222.60	1679.33
222.82	1689.57
223.03	1751.01
223.25	1619.94
223.47	1802.21
223.69	1740.77
223.91	1728.49
224.13	1767.40
224.35	1699.81
224.57	1716.20
224.78	1703.91
225.00	1705.96
225.22	1689.57
225.44	1751.01
225.66	1767.40
225.88	1697.77
226.10	1740.77
226.32	1722.34
226.53	1810.40
226.75	1642.47
226.97	1701.86
227.19	1710.05
227.41	1640.42
227.63	1671.14
227.85	1681.38
228.06	1712.10
228.28	1726.44
228.50	1722.34
228.72	1525.74
228.94	1732.58
229.16	1597.42
229.37	1634.28
229.59	1662.95
229.81	1720.29
230.03	1716.20
230.25	1599.46
230.47	1656.81
230.69	1564.65
230.90	1660.90
231.12	1665.00
231.34	1740.77
231.56	1767.40
231.78	1599.46
232.00	1636.33
232.21	1697.77
232.43	1701.86
232.65	1556.46
232.87	1697.77
233.09	1734.63
233.30	1609.70
233.52	1734.63
233.74	1681.38
233.96	1732.58
234.18	1654.76
234.40	1681.38
234.61	1904.61
234.83	1681.38
235.05	1615.85
235.27	1912.80
235.49	1767.40
235.70	1722.34
235.92	1763.30
236.14	1675.24
236.36	1816.55
236.58	1628.14
236.79	1761.25
237.01	1662.95
237.23	1644.52
237.45	1798.12
237.67	1703.91
237.88	1673.19
238.10	1804.26
238.32	1636.33
238.54	1638.38
238.76	1769.44
238.97	1705.96
239.19	1669.09
239.41	1693.67
239.63	1777.64
239.85	1654.76
240.06	1724.39
240.28	1708.01
240.50	1746.92
240.72	1765.35
240.93	1734.63
241.15	1736.68
241.37	1660.90
241.59	1742.82
241.81	1738.73
242.02	1708.01
242.24	1716.20
242.46	1746.92
242.68	1611.75
242.89	1761.25
243.11	1742.82
243.33	1730.53
243.55	1695.72
243.76	1798.12
243.98	1630.18
244.20	1730.53
244.42	1677.29
244.64	1697.77
244.85	1650.66
245.07	1681.38
245.29	1761.25
245.51	1777.64
245.72	1726.44
245.94	1765.35
246.16	1697.77
246.38	1751.01
246.59	1601.51
246.81	1685.48
247.03	1617.90
247.24	1611.75
247.46	1660.90
247.68	1683.43
247.90	1652.71
248.11	1609.70
248.33	1730.53
248.55	1710.05
248.77	1726.44
248.98	1773.54
249.20	1757.16
249.42	1736.68
249.64	1669.09
249.85	1712.10
250.07	1621.99
250.29	1648.61
250.50	1679.33
250.72	1636.33
250.94	1777.64
251.16	1822.69
251.37	1652.71
251.59	1734.63
251.81	1710.05
252.02	1746.92
252.24	1742.82
252.46	1804.26
252.68	1763.30
252.89	1701.86
253.11	1640.42
253.33	1822.69
253.54	1755.11
253.76	1642.47
253.98	1773.54
254.20	1677.29
254.41	1681.38
254.63	1685.48
254.85	1554.41
255.06	1746.92
255.28	1730.53
255.50	1669.09
255.71	1689.57
255.93	1583.08
256.15	1681.38
256.36	1710.05
256.58	1632.23
256.80	1720.29
257.02	1699.81
257.23	1708.01
257.45	1683.43
257.67	1757.16
257.88	1677.29
258.10	1716.20
258.32	1740.77
258.53	1718.25
258.75	1767.40
258.97	1593.32
259.18	1726.44
259.40	1720.29
259.62	1785.83
259.83	1812.45
260.05	1705.96
260.27	1968.10
260.48	1769.44
260.70	1636.33
260.92	1665.00
261.13	1626.09
261.35	1650.66
261.57	1734.63
261.78	1628.14
262.00	1662.95
262.22	1689.57
262.43	1658.85
262.65	1652.71
262.86	1720.29
263.08	1869.80
263.30	1683.43
263.51	1656.81
263.73	1675.24
263.95	1730.53
264.16	1644.52
264.38	1640.42
264.60	1720.29
264.81	1734.63
265.03	1708.01
265.25	1757.16
265.46	1679.33
265.68	1705.96
265.89	1724.39
266.11	1593.32
266.33	1636.33
266.54	1722.34
266.76	1730.53
266.98	1650.66
267.19	1794.02
267.41	1720.29
267.62	1656.81
267.84	1634.28
268.06	1753.06
268.27	1714.15
268.49	1712.10
268.70	1767.40
268.92	1697.77
269.14	1603.56
269.35	1585.13
269.57	1689.57
269.79	1738.73
270.00	1681.38
270.22	1716.20
270.43	1673.19
270.65	1538.02
270.87	1718.25
271.08	1687.53
271.30	1744.87
271.51	1677.29
271.73	1789.92
271.95	1808.36
272.16	1816.55
272.38	1701.86
272.59	1665.00
272.81	1726.44
273.02	1654.76
273.24	1771.49
273.46	1820.64
273.67	1650.66
273.89	1644.52
274.10	1640.42
274.32	1730.53
274.54	1705.96
274.75	1785.83
274.97	1640.42
275.18	1759.21
275.40	1691.62
275.61	1679.33
275.83	1681.38
276.05	1634.28
276.26	1746.92
276.48	1742.82
276.69	1716.20
276.91	1669.09
277.12	1794.02
277.34	1718.25
277.55	1751.01
277.77	1705.96
277.99	1638.38
278.20	1667.05
278.42	1650.66
278.63	1615.85
278.85	1656.81
279.06	1665.00
279.28	1730.53
279.49	1800.16
279.71	1695.72
279.93	1712.10
280.14	1671.14
280.36	1630.18
280.57	1789.92
280.79	1744.87
281.00	1701.86
281.22	1671.14
281.43	1845.22
281.65	1597.42
281.86	1624.04
282.08	1681.38
282.29	1839.08
282.51	1650.66
282.73	1589.22
282.94	1617.90
283.16	1779.68
283.37	1753.06
283.59	1703.91
283.80	1683.43
284.02	1693.67
284.23	1693.67
284.45	1654.76
284.66	1624.04
284.88	1689.57
285.09	1681.38
285.31	1742.82
285.52	1677.29
285.74	1695.72
285.95	1675.24
286.17	1705.96
286.38	1714.15
286.60	1687.53
286.81	1621.99
287.03	1740.77
287.24	1669.09
287.46	1746.92
287.67	1728.49
287.89	1816.55
288.10	1650.66
288.32	1738.73
288.53	1755.11
288.75	1685.48
288.96	1763.30
289.18	1675.24
289.39	1624.04
289.61	1740.77
289.82	1828.84
290.04	1822.69
290.25	1624.04
290.47	1714.15
290.68	1695.72
290.90	1800.16
291.11	1685.48
291.33	1675.24
291.54	1593.32
291.76	1687.53
291.97	1646.57
292.18	1787.88
292.40	1652.71
292.61	1671.14
292.83	1873.89
293.04	1710.05
293.26	1730.53
293.47	1701.86
293.69	1576.94
293.90	1638.38
294.12	1800.16
294.33	1671.14
294.55	1718.25
294.76	1757.16
294.97	1724.39
295.19	1832.93
295.40	1673.19
295.62	1705.96
295.83	1769.44
296.05	1611.75
296.26	1761.25
296.48	1669.09
296.69	1652.71
296.90	1730.53
297.12	1742.82
297.33	1669.09
297.55	1720.29
297.76	1671.14
297.98	1716.20
298.19	1740.77
298.41	1658.85
298.62	1652.71
298.83	1847.27
299.05	1738.73
299.26	1697.77
299.48	1671.14
299.69	1755.11
299.90	1656.81
300.12	1673.19
300.33	1779.68
300.55	1679.33
300.76	1775.59
300.98	1675.24
301.19	1736.68
301.40	1644.52
301.62	1744.87
301.83	1771.49
302.05	1665.00
302.26	1744.87
302.47	1683.43
302.69	1675.24
302.90	1718.25
303.12	1548.26
303.33	1693.67
303.54	1859.56
303.76	1705.96
303.97	1710.05
304.19	1742.82
304.40	1662.95
304.61	1771.49
304.83	1742.82
305.04	1789.92
305.26	1740.77
305.47	1624.04
305.68	1722.34
305.90	1634.28
306.11	1691.62
306.33	1662.95
306.54	1656.81
306.75	1658.85
306.97	1716.20
307.18	1736.68
307.39	1769.44
307.61	1748.97
307.82	1677.29
308.04	1779.68
308.25	1718.25
308.46	1787.88
308.68	1638.38
308.89	1746.92
309.10	1796.07
309.32	1687.53
309.53	1669.09
309.74	1712.10
309.96	1679.33
310.17	1839.08
310.39	1607.66
310.60	1710.05
310.81	1716.20
311.03	1619.94
311.24	1685.48
311.45	1693.67
311.67	1769.44
311.88	1757.16
312.09	1689.57
312.31	1656.81
312.52	1652.71
312.73	1689.57
312.95	1628.14
313.16	1619.94
313.37	1714.15
313.59	1804.26
313.80	1781.73
314.01	1777.64
314.23	1683.43
314.44	1640.42
314.65	1626.09
314.87	1630.18
315.08	1624.04
315.29	1652.71
315.51	1695.72
315.72	1593.32
315.93	1771.49
316.15	1699.81
316.36	1650.66
316.57	1763.30
316.79	1720.29
317.00	1699.81
317.21	1744.87
317.43	1699.81
317.64	1734.63
317.85	1652.71
318.07	1675.24
318.28	1689.57
318.49	1808.36
318.70	1855.46
318.92	1785.83
319.13	1781.73
319.34	1908.71
319.56	1777.64
319.77	1810.40
319.98	1765.35
320.20	1714.15
320.41	1724.39
320.62	1710.05
320.83	1636.33
321.05	1869.80
321.26	1683.43
321.47	1665.00
321.69	1683.43
321.90	1710.05
322.11	1699.81
322.32	1726.44
322.54	1722.34
322.75	1730.53
322.96	1785.83
323.18	1597.42
323.39	1626.09
323.60	1703.91
323.81	1742.82
324.03	1714.15
324.24	1705.96
324.45	1738.73
324.66	1693.67
324.88	1771.49
325.09	1734.63
325.30	1730.53
325.52	1638.38
325.73	1748.97
325.94	1628.14
326.15	1636.33
326.37	1652.71
326.58	1718.25
326.79	1794.02
327.00	1683.43
327.22	1738.73
327.43	1693.67
327.64	1617.90
327.85	1644.52
328.07	1718.25
328.28	1804.26
328.49	1634.28
328.70	1712.10
328.92	1712.10
329.13	1763.30
329.34	1734.63
329.55	1806.31
329.76	1730.53
329.98	1718.25
330.19	1716.20
330.40	1755.11
330.61	1705.96
330.83	1693.67
331.04	1691.62
331.25	1742.82
331.46	1679.33
331.68	1626.09
331.89	1763.30
332.10	1746.92
332.31	1675.24
332.52	1671.14
332.74	1714.15
332.95	1705.96
333.16	1687.53
333.37	1701.86
333.58	1660.90
333.80	1802.21
334.01	1583.08
334.22	1757.16
334.43	1591.27
334.64	1710.05
334.86	1644.52
335.07	1675.24
335.28	1798.12
335.49	1626.09
335.70	1716.20
335.92	1748.97
336.13	1841.12
336.34	1785.83
336.55	1751.01
336.76	1738.73
336.98	1589.22
337.19	1673.19
337.40	1730.53
337.61	1865.70
337.82	1691.62
338.04	1732.58
338.25	1517.54
338.46	1714.15
338.67	1609.70
338.88	1710.05
339.09	1746.92
339.31	1669.09
339.52	1599.46
339.73	1609.70
339.94	1720.29
340.15	1624.04
340.36	1730.53
340.58	1669.09
340.79	1685.48
341.00	1710.05
341.21	1595.37
341.42	1732.58
341.63	1624.04
341.85	1820.64
342.06	1708.01
342.27	1699.81
342.48	1789.92
342.69	1597.42
342.90	1632.23
343.12	1757.16
343.33	1632.23
343.54	1794.02
343.75	1783.78
343.96	1658.85
344.17	1658.85
344.38	1693.67
344.60	1656.81
344.81	1583.08
345.02	1681.38
345.23	1746.92
345.44	1773.54
345.65	1621.99
345.86	1691.62
346.07	1730.53
346.29	1568.74
346.50	1695.72
346.71	1716.20
346.92	1785.83
347.13	1783.78
347.34	1722.34
347.55	1675.24
347.76	1775.59
347.98	1675.24
348.19	1697.77
348.40	1845.22
348.61	1675.24
348.82	1767.40
349.03	1724.39
349.24	1607.66
349.45	1841.12
349.66	1560.55
349.88	1724.39
350.09	1699.81
350.30	1740.77
350.51	1718.25
350.72	1748.97
350.93	1722.34
351.14	1695.72
351.35	1699.81
351.56	1734.63
351.77	1771.49
351.99	1662.95
352.20	1806.31
352.41	1769.44
352.62	1531.88
352.83	1710.05
353.04	1693.67
353.25	1689.57
353.46	1757.16
353.67	1767.40
353.88	1525.74
354.09	1693.67
354.30	1697.77
354.52	1669.09
354.73	1718.25
354.94	1675.24
355.15	1710.05
355.36	1791.97
355.57	1691.62
355.78	1734.63
355.99	1710.05
356.20	1718.25
356.41	1695.72
356.62	1701.86
356.83	1683.43
357.04	1800.16
357.25	1617.90
357.46	1712.10
357.68	1570.79
357.89	1722.34
358.10	1705.96
358.31	1718.25
358.52	1753.06
358.73	1636.33
358.94	1724.39
359.15	1671.14
359.36	1716.20
359.57	1710.05
359.78	1712.10
359.99	1687.53
360.20	1601.51
360.41	1683.43
360.62	1775.59
360.83	1763.30
361.04	1744.87
361.25	1728.49
361.46	1746.92
361.67	1685.48
361.88	1773.54
362.09	1748.97
362.30	1705.96
362.51	1656.81
362.72	1773.54
362.93	1726.44
363.14	1687.53
363.35	1703.91
363.56	1673.19
363.78	1658.85
363.99	1710.05
364.20	1599.46
364.41	1740.77
364.62	1839.08
364.83	1656.81
365.04	1658.85
365.25	1736.68
365.46	1857.51
365.67	1675.24
365.88	1660.90
366.09	1619.94
366.30	1667.05
366.51	1691.62
366.72	1621.99
366.93	1746.92
367.14	1693.67
367.35	1761.25
367.56	1695.72
367.77	1800.16
367.98	1791.97
368.18	1748.97
368.39	1683.43
368.60	1601.51
368.81	1736.68
369.02	1665.00
369.23	1730.53
369.44	1624.04
369.65	1658.85
369.86	1697.77
370.07	1798.12
370.28	1689.57
370.49	1761.25
370.70	1660.90
370.91	1669.09
371.12	1646.57
371.33	1734.63
371.54	1660.90
371.75	1777.64
371.96	1533.93
372.17	1673.19
372.38	1615.85
372.59	1771.49
372.80	1728.49
373.01	1712.10
373.22	1576.94
373.43	1644.52
373.64	1681.38
373.85	1742.82
374.06	1767.40
374.26	1714.15
374.47	1742.82
374.68	1757.16
374.89	1710.05
375.10	1619.94
375.31	1708.01
375.52	1753.06
375.73	1681.38
375.94	1683.43
376.15	1751.01
376.36	1626.09
376.57	1669.09
376.78	1691.62
376.99	1789.92
377.20	1783.78
377.40	1642.47
377.61	1816.55
377.82	1599.46
378.03	1841.12
378.24	1777.64
378.45	1701.86
378.66	1673.19
378.87	1550.31
379.08	1681.38
379.29	1677.29
379.50	1740.77
379.71	1679.33
379.91	1738.73
380.12	1722.34
380.33	1697.77
380.54	1722.34
380.75	1652.71
380.96	1640.42
381.17	1744.87
381.38	1679.33
381.59	1732.58
381.80	1697.77
382.00	1867.75
382.21	1789.92
382.42	1798.12
382.63	1914.85
382.84	1689.57
383.05	1710.05
383.26	1812.45
383.47	1705.96
383.68	1738.73
383.88	1755.11
384.09	1714.15
384.30	1751.01
384.51	1769.44
384.72	1669.09
384.93	1744.87
385.14	1734.63
385.35	1783.78
385.55	1609.70
385.76	1783.78
385.97	1671.14
386.18	1574.89
386.39	1691.62
386.60	1695.72
386.81	1681.38
387.02	1708.01
387.22	1699.81
387.43	1779.68
387.64	1773.54
387.85	1869.80
388.06	2179.04
388.27	4267.97
388.48	6610.84
388.68	8099.72
388.89	9453.42
389.10	9588.59
389.31	8564.61
389.52	7634.83
389.73	6549.40
389.93	6109.09
390.14	5750.70
390.35	5146.55
390.56	4542.39
390.77	3762.12
390.98	3024.85
391.18	2469.85
391.39	2103.26
391.60	1920.99
391.81	1787.88
392.02	1728.49
392.23	1851.36
392.43	1701.86
392.64	1779.68
392.85	1667.05
393.06	1863.65
393.27	1720.29
393.47	1658.85
393.68	1681.38
393.89	1675.24
394.10	1789.92
394.31	1628.14
394.52	1675.24
394.72	1691.62
394.93	1820.64
395.14	1687.53
395.35	1748.97
395.56	1642.47
395.76	1714.15
395.97	1658.85
396.18	1826.79
396.39	1837.03
396.60	2011.11
396.80	1820.64
397.01	1783.78
397.22	1781.73
397.43	1794.02
397.64	1730.53
397.84	1755.11
398.05	1791.97
398.26	1718.25
398.47	1779.68
398.67	1726.44
398.88	1781.73
399.09	1773.54
399.30	1619.94
399.51	1755.11
399.71	1681.38
399.92	1701.86
400.13	1724.39
400.34	1695.72
400.54	1804.26
400.75	1775.59
400.96	1785.83
401.17	1826.79
401.37	1843.17
401.58	1722.34
401.79	1703.91
402.00	1937.38
402.21	1937.38
402.41	1906.66
402.62	2002.91
402.83	1998.82
403.04	2029.54
403.24	2031.58
403.45	1861.60
403.66	1877.99
403.87	1873.89
404.07	1843.17
404.28	1929.19
404.49	1886.18
404.70	1697.77
404.90	1740.77
405.11	1736.68
405.32	1699.81
405.52	1636.33
405.73	1716.20
405.94	1628.14
406.15	1734.63
406.35	1783.78
406.56	1779.68
406.77	1738.73
406.98	1771.49
407.18	1671.14
407.39	1814.50
407.60	1650.66
407.80	1714.15
408.01	1730.53
408.22	1685.48
408.43	1718.25
408.63	1642.47
408.84	1796.07
409.05	1738.73
409.25	1695.72
409.46	1671.14
409.67	1691.62
409.88	1640.42
410.08	1648.61
410.29	1685.48
410.50	1849.32
410.70	1771.49
410.91	1656.81
411.12	1701.86
411.32	1703.91
411.53	1679.33
411.74	1849.32
411.95	1726.44
412.15	1703.91
412.36	1787.88
412.57	1734.63
412.77	1773.54
412.98	1665.00
413.19	1703.91
413.39	1728.49
413.60	1783.78
413.81	1789.92
414.01	1720.29
414.22	1640.42
414.43	1794.02
414.63	1753.06
414.84	1769.44
415.05	1699.81
415.25	1638.38
415.46	1759.21
415.67	1673.19
415.87	1728.49
416.08	1703.91
416.29	1621.99
416.49	1656.81
416.70	1644.52
416.91	1685.48
417.11	1734.63
417.32	1783.78
417.53	1800.16
417.73	1789.92
417.94	1716.20
418.15	1689.57
418.35	1652.71
418.56	1665.00
418.77	1791.97
418.97	1746.92
419.18	1650.66
419.38	1556.46
419.59	1695.72
419.80	1908.71
420.00	1646.57
420.21	1800.16
420.42	1841.12
420.62	1734.63
420.83	1648.61
421.04	1728.49
421.24	1687.53
421.45	1746.92
421.65	1662.95
421.86	1673.19
422.07	1791.97
422.27	1699.81
422.48	1683.43
422.69	1673.19
422.89	1662.95
423.10	1722.34
423.30	1685.48
423.51	1656.81
423.72	1722.34
423.92	1763.30
424.13	1617.90
424.33	1718.25
424.54	1683.43
424.75	1742.82
424.95	1802.21
425.16	1701.86
425.36	1726.44
425.57	1724.39
425.78	1783.78
425.98	1734.63
426.19	1654.76
426.39	1679.33
426.60	1763.30
426.81	1767.40
427.01	1642.47
427.22	1675.24
427.42	1624.04
427.63	1701.86
427.83	1761.25
428.04	1794.02
428.25	1800.16
428.45	1744.87
428.66	1800.16
428.86	1687.53
429.07	1738.73
429.28	1724.39
429.48	1705.96
429.69	1652.71
429.89	1769.44
430.10	1603.56
430.30	1730.53
430.51	1789.92
430.71	1658.85
430.92	1734.63
431.13	1662.95
431.33	1738.73
431.54	1746.92
431.74	1822.69
431.95	1832.93
432.15	1677.29
432.36	1697.77
432.56	1763.30
432.77	1798.12
432.98	1828.84
433.18	1718.25
433.39	1734.63
433.59	1646.57
433.80	1787.88
434.00	1834.98
434.21	1656.81
434.41	1693.67
434.62	1841.12
434.82	1634.28
435.03	1599.46
435.23	1710.05
435.44	1550.31
435.64	1781.73
435.85	1673.19
436.06	1779.68
436.26	1771.49
436.47	1703.91
436.67	1677.29
436.88	1701.86
437.08	1787.88
437.29	1865.70
437.49	1691.62
437.70	1744.87
437.90	1697.77
438.11	1890.28
438.31	1757.16
438.52	1896.42
438.72	1804.26
438.93	1863.65
439.13	1812.45
439.34	1744.87
439.54	1771.49
439.75	1798.12
439.95	1918.95
440.16	1689.57
440.36	1736.68
440.57	1753.06
440.77	1751.01
440.98	1689.57
441.18	1753.06
441.39	1671.14
441.59	1679.33
441.80	1902.56
442.00	1738.73
442.21	1730.53
442.41	1597.42
442.62	1802.21
442.82	1624.04
443.02	1695.72
443.23	1681.38
443.43	1748.97
443.64	1740.77
443.84	1660.90
444.05	1746.92
444.25	1734.63
444.46	1740.77
444.66	1748.97
444.87	1818.60
445.07	1628.14
445.28	1689.57
445.48	1783.78
445.69	1742.82
445.89	1814.50
446.09	1755.11
446.30	1994.72
446.50	2584.54
446.71	3723.21
446.91	4339.65
447.12	4573.11
447.32	4728.76
447.53	4302.78
447.73	3923.91
447.93	3502.03
448.14	3295.18
448.34	3192.78
448.55	2891.73
448.75	2797.53
448.96	2670.55
449.16	2349.02
449.36	2299.87
449.57	2072.54
449.77	1871.84
449.98	1800.16
450.18	1755.11
450.39	1804.26
450.59	1785.83
450.79	1675.24
451.00	1654.76
451.20	1720.29
451.41	1677.29
451.61	1837.03
451.81	1742.82
452.02	1656.81
452.22	1632.23
452.43	1695.72
452.63	1691.62
452.84	1697.77
453.04	1720.29
453.24	1851.36
453.45	1648.61
453.65	1810.40
453.86	1789.92
454.06	1822.69
454.26	1658.85
454.47	1656.81
454.67	1779.68
454.87	1697.77
455.08	1667.05
455.28	1796.07
455.49	1714.15
455.69	1640.42
455.89	1845.22
456.10	1742.82
456.30	1656.81
456.51	1816.55
456.71	1687.53
456.91	1808.36
457.12	1773.54
457.32	1777.64
457.52	1710.05
457.73	1746.92
457.93	1753.06
458.14	1708.01
458.34	1644.52
458.54	1675.24
458.75	1712.10
458.95	1789.92
459.15	1789.92
459.36	1787.88
459.56	1783.78
459.76	1789.92
459.97	1796.07
460.17	1716.20
460.37	1843.17
460.58	1753.06
460.78	1679.33
460.99	1736.68
461.19	1730.53
461.39	1699.81
461.60	1714.15
461.80	1820.64
462.00	1607.66
462.21	1765.35
462.41	1724.39
462.61	1673.19
462.82	1652.71
463.02	1748.97
463.22	1744.87
463.43	1798.12
463.63	1736.68
463.83	1767.40
464.04	1767.40
464.24	1708.01
464.44	1683.43
464.64	1675.24
464.85	1775.59
465.05	1726.44
465.25	1787.88
465.46	1732.58
465.66	1804.26
465.86	1798.12
466.07	1652.71
466.27	1716.20
466.47	1638.38
466.68	1617.90
466.88	1832.93
467.08	1761.25
467.29	1693.67
467.49	1777.64
467.69	1691.62
467.89	1818.60
468.10	1691.62
468.30	1761.25
468.50	1820.64
468.71	1701.86
468.91	1677.29
469.11	1818.60
469.31	1765.35
469.52	1656.81
469.72	1828.84
469.92	1859.56
470.13	1781.73
470.33	1781.73
470.53	1861.60
470.73	2115.55
470.94	2254.81
471.14	2377.69
471.34	2500.57
471.54	2369.50
471.75	2211.81
471.95	2201.57
472.15	2054.11
472.36	2109.41
472.56	2117.60
472.76	2037.73
472.96	1986.53
473.17	1970.15
473.37	1892.32
473.57	1738.73
473.77	1761.25
473.98	1816.55
474.18	1728.49
474.38	1865.70
474.58	1763.30
474.79	1716.20
474.99	1791.97
475.19	1802.21
475.39	1796.07
475.60	1679.33
475.80	1767.40
476.00	1751.01
476.20	1613.80
476.41	1691.62
476.61	1820.64
476.81	1804.26
477.01	1744.87
477.21	1886.18
477.42	1718.25
477.62	1693.67
477.82	1724.39
478.02	1714.15
478.23	1716.20
478.43	1710.05
478.63	1714.15
478.83	1662.95
479.03	1673.19
479.24	1869.80
479.44	1830.88
479.64	1628.14
479.84	1679.33
480.04	1658.85
480.25	1798.12
480.45	1712.10
480.65	1642.47
480.85	1785.83
481.06	1673.19
481.26	1701.86
481.46	1771.49
481.66	1703.91
481.86	1611.75
482.06	1714.15
482.27	1642.47
482.47	1742.82
482.67	1708.01
482.87	1728.49
483.07	1802.21
483.28	1714.15
483.48	1624.04
483.68	1632.23
483.88	1712.10
484.08	1599.46
484.29	1619.94
484.49	1662.95
484.69	1667.05
484.89	1763.30
485.09	1718.25
485.29	1720.29
485.50	1736.68
485.70	1669.09
485.90	1765.35
486.10	1736.68
486.30	1746.92
486.50	1857.51
486.71	1691.62
486.91	1703.91
487.11	1779.68
487.31	1675.24
487.51	1738.73
487.71	1675.24
487.91	1642.47
488.12	1675.24
488.32	1607.66
488.52	1650.66
488.72	1568.74
488.92	1708.01
489.12	1740.77
489.32	1820.64
489.53	1763.30
489.73	1632.23
489.93	1808.36
490.13	1568.74
490.33	1529.83
490.53	1759.21
490.73	1757.16
490.94	1662.95
491.14	1841.12
491.34	1845.22
491.54	2107.36
491.74	2508.76
491.94	2887.64
492.14	2965.46
492.34	3076.05
492.54	2746.33
492.75	2527.19
492.95	2451.42
493.15	2230.24
493.35	2287.58
493.55	2248.67
493.75	2127.84
493.95	2119.65
494.15	2027.49
494.35	1880.04
494.56	1867.75
494.76	1814.50
494.96	1800.16
495.16	1763.30
495.36	1683.43
495.56	1787.88
495.76	1744.87
495.96	1716.20
496.16	1734.63
496.36	1806.31
496.56	1667.05
496.77	1751.01
496.97	1683.43
497.17	1802.21
497.37	1660.90
497.57	1832.93
497.77	1708.01
497.97	1685.48
498.17	1681.38
498.37	1757.16
498.57	1777.64
498.77	1722.34
498.97	1746.92
499.17	1812.45
499.38	1742.82
499.58	1755.11
499.78	1773.54
499.98	1804.26
500.18	1665.00
500.38	1728.49
500.58	1923.04
500.78	2572.25
500.98	4491.20
501.18	5748.65
501.38	6586.27
501.58	7118.74
501.78	6522.78
501.98	5396.40
502.18	4974.52
502.38	4331.45
502.58	4192.19
502.78	3872.71
502.98	3530.70
503.18	3471.31
503.38	3110.86
503.59	2832.34
503.79	2566.10
503.99	2387.93
504.19	2273.25
504.39	2211.81
504.59	2129.89
504.79	2064.35
504.99	1992.67
505.19	1871.84
505.39	1900.52
505.59	1974.24
505.79	1796.07
505.99	1834.98
506.19	1775.59
506.39	1847.27
506.59	1712.10
506.79	1785.83
506.99	1781.73
507.19	1763.30
507.39	1761.25
507.59	1720.29
507.79	1761.25
507.99	1755.11
508.19	1740.77
508.39	1722.34
508.59	1746.92
508.79	1789.92
508.99	1904.61
509.19	1673.19
509.39	1761.25
509.59	1734.63
509.79	1673.19
509.99	1781.73
510.19	1769.44
510.39	1742.82
510.59	1722.34
510.79	1669.09
510.99	1654.76
511.19	1822.69
511.39	1851.36
511.59	1775.59
511.79	1802.21
511.99	1738.73
512.19	1845.22
512.38	1740.77
512.58	1746.92
512.78	1763.30
512.98	1810.40
513.18	1824.74
513.38	1691.62
513.58	1705.96
513.78	1718.25
513.98	1693.67
514.18	1726.44
514.38	1701.86
514.58	1763.30
514.78	1665.00
514.98	1665.00
515.18	1769.44
515.38	1683.43
515.58	1863.65
515.78	1675.24
515.98	1726.44
516.18	1781.73
516.38	1802.21
516.57	1718.25
516.77	1728.49
516.97	1751.01
517.17	1708.01
517.37	1597.42
517.57	1798.12
517.77	1728.49
517.97	1650.66
518.17	1761.25
518.37	1628.14
518.57	1667.05
518.77	1656.81
518.97	1658.85
519.16	1718.25
519.36	1814.50
519.56	1695.72
519.76	1652.71
519.96	1681.38
520.16	1865.70
520.36	1677.29
520.56	1824.74
520.76	1675.24
520.96	1742.82
521.16	1701.86
521.35	1779.68
521.55	1794.02
521.75	1677.29
521.95	1755.11
522.15	1705.96
522.35	1673.19
522.55	1611.75
522.75	1789.92
522.95	1726.44
523.14	1621.99
523.34	1751.01
523.54	1642.47
523.74	1705.96
523.94	1722.34
524.14	1656.81
524.34	1755.11
524.54	1853.41
524.73	1755.11
524.93	1701.86
525.13	1759.21
525.33	1685.48
525.53	1904.61
525.73	1802.21
525.93	1718.25
526.13	1695.72
526.32	1765.35
526.52	1789.92
526.72	1671.14
526.92	1683.43
527.12	1683.43
527.32	1648.61
527.52	1734.63
527.71	1744.87
527.91	1736.68
528.11	1724.39
528.31	1730.53
528.51	1703.91
528.71	1705.96
528.90	1673.19
529.10	1820.64
529.30	1837.03
529.50	1638.38
529.70	1718.25
529.90	1687.53
530.09	1673.19
530.29	1699.81
530.49	1697.77
530.69	1826.79
530.89	1687.53
531.09	1828.84
531.28	1685.48
531.48	1757.16
531.68	1714.15
531.88	1714.15
532.08	1761.25
532.28	1697.77
532.47	1816.55
532.67	1740.77
532.87	1679.33
533.07	1634.28
533.27	1769.44
533.46	1775.59
533.66	1724.39
533.86	1681.38
534.06	1710.05
534.26	1740.77
534.45	1671.14
534.65	1781.73
534.85	1673.19
535.05	1654.76
535.25	1787.88
535.44	1640.42
535.64	1759.21
535.84	1673.19
536.04	1736.68
536.24	1722.34
536.43	1710.05
536.63	1755.11
536.83	1699.81
537.03	1775.59
537.22	1632.23
537.42	1615.85
537.62	1705.96
537.82	1746.92
538.02	1779.68
538.21	1822.69
538.41	1925.09
538.61	1746.92
538.81	1765.35
539.00	1708.01
539.20	1726.44
539.40	1746.92
539.60	1669.09
539.79	1699.81
539.99	1671.14
540.19	1619.94
540.39	1681.38
540.58	1703.91
540.78	1808.36
540.98	1722.34
541.18	1779.68
541.37	1767.40
541.57	1740.77
541.77	1695.72
541.97	1673.19
542.16	1642.47
542.36	1705.96
542.56	1787.88
542.76	1837.03
542.95	1787.88
543.15	1718.25
543.35	1691.62
543.54	1656.81
543.74	1767.40
543.94	1794.02
544.14	1693.67
544.33	1851.36
544.53	1714.15
544.73	1673.19
544.93	1697.77
545.12	1693.67
545.32	1687.53
545.52	1783.78
545.71	1695.72
545.91	1683.43
546.11	1732.58
546.30	1708.01
546.50	1730.53
546.70	1673.19
546.90	1697.77
547.09	1636.33
547.29	1751.01
547.49	1765.35
547.68	1738.73
547.88	1644.52
548.08	1777.64
548.27	2131.94
548.47	1716.20
548.67	1697.77
548.87	1775.59
549.06	1650.66
549.26	1771.49
549.46	1708.01
549.65	1765.35
549.85	1755.11
550.05	1767.40
550.24	1611.75
550.44	1722.34
550.64	1755.11
550.83	1665.00
551.03	1812.45
551.23	1796.07
551.42	1726.44
551.62	1665.00
551.82	1685.48
552.01	1794.02
552.21	1775.59
552.41	1773.54
552.60	1832.93
552.80	1779.68
553.00	1718.25
553.19	1691.62
553.39	1773.54
553.59	1607.66
553.78	1755.11
553.98	1787.88
554.17	1628.14
554.37	1671.14
554.57	1779.68
554.76	1728.49
554.96	1677.29
555.16	1740.77
555.35	1769.44
555.55	1773.54
555.75	1732.58
555.94	1783.78
556.14	1626.09
556.33	1824.74
556.53	1714.15
556.73	1720.29
556.92	1794.02
557.12	1816.55
557.32	1830.88
557.51	1777.64
557.71	1806.31
557.90	1796.07
558.10	1800.16
558.30	1691.62
558.49	1740.77
558.69	1714.15
558.88	1830.88
559.08	1734.63
559.28	1746.92
559.47	1742.82
559.67	1837.03
559.86	1816.55
560.06	1757.16
560.26	1677.29
560.45	1822.69
560.65	1652.71
560.84	1767.40
561.04	1677.29
561.24	1742.82
561.43	1691.62
561.63	1818.60
561.82	1808.36
562.02	1839.08
562.22	1650.66
562.41	1697.77
562.61	1654.76
562.80	1665.00
563.00	1935.33
563.19	1859.56
563.39	1710.05
563.59	1796.07
563.78	1703.91
563.98	1734.63
564.17	1648.61
564.37	1677.29
564.56	1794.02
564.76	1738.73
564.96	1812.45
565.15	1802.21
565.35	1875.94
565.54	1689.57
565.74	1738.73
565.93	1644.52
566.13	1769.44
566.32	1744.87
566.52	1763.30
566.71	1705.96
566.91	1808.36
567.11	1732.58
567.30	1703.91
567.50	1794.02
567.69	1705.96
567.89	1755.11
568.08	1626.09
568.28	1755.11
568.47	1675.24
568.67	1804.26
568.86	1689.57
569.06	1865.70
569.25	1746.92
569.45	1652.71
569.64	1763.30
569.84	1789.92
570.04	1738.73
570.23	1642.47
570.43	1718.25
570.62	1689.57
570.82	1875.94
571.01	1652.71
571.21	1722.34
571.40	1730.53
571.60	1794.02
571.79	1789.92
571.99	1736.68
572.18	1718.25
572.38	1818.60
572.57	1736.68
572.77	1751.01
572.96	1804.26
573.16	1691.62
573.35	1775.59
573.55	1773.54
573.74	1798.12
573.94	1732.58
574.13	1697.77
574.33	1812.45
574.52	1810.40
574.71	1656.81
574.91	1822.69
575.10	1671.14
575.30	1658.85
575.49	1714.15
575.69	1658.85
575.88	1660.90
576.08	1763.30
576.27	1783.78
576.47	1730.53
576.66	1818.60
576.86	1779.68
577.05	1759.21
577.25	1728.49
577.44	1871.84
577.64	1761.25
577.83	1740.77
578.02	1753.06
578.22	1787.88
578.41	1824.74
578.61	1708.01
578.80	1691.62
579.00	1705.96
579.19	1714.15
579.39	1789.92
579.58	1759.21
579.77	1697.77
579.97	1824.74
580.16	1789.92
580.36	1755.11
580.55	1814.50
580.75	1822.69
580.94	1798.12
581.13	1857.51
581.33	1896.42
581.52	1787.88
581.72	1845.22
581.91	1820.64
582.11	1773.54
582.30	1736.68
582.49	1794.02
582.69	1812.45
582.88	1771.49
583.08	1791.97
583.27	1726.44
583.47	1744.87
583.66	1740.77
583.85	1693.67
584.05	1800.16
584.24	1818.60
584.44	1839.08
584.63	1843.17
584.82	1794.02
585.02	1832.93
585.21	1839.08
585.41	1794.02
585.60	1816.55
585.79	1918.95
585.99	1933.28
586.18	1880.04
586.37	2189.28
586.57	3280.85
586.76	9684.84
586.96	24120.98
587.15	34016.76
587.34	39671.20
587.54	41424.26
587.73	36568.53
587.93	26476.14
588.12	21302.97
588.31	18034.41
588.51	16068.36
588.70	15134.49
588.89	14028.59
589.09	12525.38
589.28	10813.28
589.47	9361.27
589.67	7901.06
589.86	6465.44
590.06	5099.44
590.25	3897.28
590.44	3153.87
590.64	2598.87
590.83	2279.39
591.02	2097.12
591.22	1927.14
591.41	1906.66
591.60	1753.06
591.80	1935.33
591.99	1765.35
592.18	1730.53
592.38	1865.70
592.57	1656.81
592.76	1748.97
592.96	1705.96
593.15	1714.15
593.34	1789.92
593.54	1695.72
593.73	1830.88
593.92	1740.77
594.12	1773.54
594.31	1755.11
594.50	1794.02
594.70	1761.25
594.89	1912.80
595.08	1656.81
595.28	1804.26
595.47	1941.47
595.66	1789.92
595.86	1744.87
596.05	1746.92
596.24	1730.53
596.43	1824.74
596.63	1834.98
596.82	1742.82
597.01	1679.33
597.21	1806.31
597.40	1771.49
597.59	1701.86
597.79	1710.05
597.98	1785.83
598.17	1773.54
598.36	1794.02
598.56	1730.53
598.75	1665.00
598.94	1693.67
599.14	1746.92
599.33	1748.97
599.52	1757.16
599.71	1769.44
599.91	1818.60
600.10	1810.40
600.29	1806.31
600.48	1726.44
600.68	1730.53
600.87	1716.20
601.06	1648.61
601.26	1695.72
601.45	1769.44
601.64	1691.62
601.83	1781.73
602.03	1773.54
602.22	1714.15
602.41	1746.92
602.60	1849.32
602.80	1779.68
602.99	1714.15
603.18	1771.49
603.37	1736.68
603.57	1716.20
603.76	1785.83
603.95	1687.53
604.14	1712.10
604.34	1607.66
604.53	1665.00
604.72	1783.78
604.91	1738.73
605.10	1656.81
605.30	1677.29
605.49	1822.69
605.68	1708.01
605.87	1781.73
606.07	1736.68
606.26	1720.29
606.45	1787.88
606.64	1736.68
606.84	1718.25
607.03	1771.49
607.22	1808.36
607.41	1708.01
607.60	1665.00
607.80	1830.88
607.99	1679.33
608.18	1771.49
608.37	1732.58
608.56	1662.95
608.76	1734.63
608.95	1851.36
609.14	1773.54
609.33	1751.01
609.52	1798.12
609.72	1742.82
609.91	1742.82
610.10	1804.26
610.29	1834.98
610.48	1767.40
610.68	1695.72
610.87	1710.05
611.06	1744.87
611.25	1689.57
611.44	1783.78
611.63	1714.15
611.83	1761.25
612.02	1710.05
612.21	1812.45
612.40	1626.09
612.59	1624.04
612.79	1665.00
612.98	1789.92
613.17	1849.32
613.36	1619.94
613.55	1787.88
613.74	1699.81
613.93	1673.19
614.13	1656.81
614.32	1769.44
614.51	1730.53
614.70	1759.21
614.89	1712.10
615.08	1730.53
615.28	2033.63
615.47	1642.47
615.66	1722.34
615.85	1779.68
616.04	1785.83
616.23	1705.96
616.42	1693.67
616.62	1800.16
616.81	1726.44
617.00	1658.85
617.19	1783.78
617.38	1746.92
617.57	1798.12
617.76	1847.27
617.95	1691.62
618.15	1783.78
618.34	1802.21
618.53	1660.90
618.72	1773.54
618.91	1843.17
619.10	1800.16
619.29	1654.76
619.48	1740.77
619.68	1630.18
619.87	1736.68
620.06	1656.81
620.25	1730.53
620.44	1652.71
620.63	1746.92
620.82	1742.82
621.01	1691.62
621.20	1699.81
621.39	1744.87
621.59	1804.26
621.78	1736.68
621.97	1734.63
622.16	1763.30
622.35	1781.73
622.54	1787.88
622.73	1701.86
622.92	1615.85
623.11	1705.96
623.30	1693.67
623.49	1779.68
623.68	1632.23
623.88	1744.87
624.07	1650.66
624.26	1812.45
624.45	1740.77
624.64	1732.58
624.83	1703.91
625.02	1722.34
625.21	1728.49
625.40	1681.38
625.59	1847.27
625.78	1665.00
625.97	1796.07
626.16	1660.90
626.35	1748.97
626.54	1689.57
626.74	1757.16
626.93	1726.44
627.12	1697.77
627.31	1769.44
627.50	1757.16
627.69	1765.35
627.88	1652.71
628.07	1699.81
628.26	1581.03
628.45	1632.23
628.64	1748.97
628.83	1722.34
629.02	1669.09
629.21	1724.39
629.40	1665.00
629.59	1640.42
629.78	1669.09
629.97	1734.63
630.16	1755.11
630.35	1730.53
630.54	1675.24
630.73	1656.81
630.92	1669.09
631.11	1734.63
631.30	1814.50
631.49	1755.11
631.68	1757.16
631.87	1763.30
632.06	1646.57
632.25	1834.98
632.44	1710.05
632.63	1755.11
632.82	1722.34
633.01	1671.14
633.20	1662.95
633.39	1693.67
633.58	1617.90
633.77	1777.64
633.96	1816.55
634.15	1708.01
634.34	1726.44
634.53	1732.58
634.72	1712.10
634.91	1642.47
635.10	1644.52
635.29	1705.96
635.48	1787.88
635.67	1673.19
635.86	1658.85
636.05	1810.40
636.24	1660.90
636.43	1691.62
636.62	1720.29
636.81	1583.08
637.00	1771.49
637.19	1818.60
637.38	1714.15
637.57	1662.95
637.76	1673.19
637.95	1775.59
638.14	1683.43
638.33	1669.09
638.52	1765.35
638.71	1665.00
638.89	1619.94
639.08	1822.69
639.27	1775.59
639.46	1757.16
639.65	1759.21
639.84	1718.25
640.03	1763.30
640.22	1767.40
640.41	1820.64
640.60	1683.43
640.79	1726.44
640.98	1734.63
641.17	1734.63
641.36	1736.68
641.55	1687.53
641.74	1722.34
641.92	1730.53
642.11	1611.75
642.30	1710.05
642.49	1730.53
642.68	1673.19
642.87	1712.10
643.06	1771.49
643.25	1685.48
643.44	1589.22
643.63	1705.96
643.82	1714.15
644.00	1656.81
644.19	1763.30
644.38	1683.43
644.57	1798.12
644.76	1767.40
644.95	1738.73
645.14	1697.77
645.33	1722.34
645.52	1728.49
645.71	1675.24
645.89	1634.28
646.08	1671.14
646.27	1685.48
646.46	1812.45
646.65	1576.94
646.84	1740.77
647.03	1714.15
647.22	1845.22
647.40	1755.11
647.59	1667.05
647.78	1642.47
647.97	1644.52
648.16	1607.66
648.35	1714.15
648.54	1834.98
648.73	1730.53
648.91	1800.16
649.10	1718.25
649.29	1654.76
649.48	1718.25
649.67	1804.26
649.86	1701.86
650.05	1681.38
650.23	1808.36
650.42	1581.03
650.61	1740.77
650.80	1701.86
650.99	1765.35
651.18	1744.87
651.36	1740.77
651.55	1681.38
651.74	1800.16
651.93	1642.47
652.12	1761.25
652.31	1673.19
652.49	1708.01
652.68	1669.09
652.87	1767.40
653.06	1689.57
653.25	1763.30
653.44	1728.49
653.62	1773.54
653.81	1683.43
654.00	1628.14
654.19	1740.77
654.38	1814.50
654.56	1728.49
654.75	1718.25
654.94	1767.40
655.13	1681.38
655.32	1785.83
655.51	1773.54
655.69	1644.52
655.88	1683.43
656.07	1691.62
656.26	1804.26
656.45	1603.56
656.63	1636.33
656.82	1710.05
657.01	1757.16
657.20	1744.87
657.38	1761.25
657.57	1685.48
657.76	1619.94
657.95	1791.97
658.14	1671.14
658.32	1734.63
658.51	1669.09
658.70	1732.58
658.89	1765.35
659.08	1697.77
659.26	1732.58
659.45	1683.43
659.64	1736.68
659.83	1642.47
660.01	1986.53
660.20	1712.10
660.39	1824.74
660.58	1617.90
660.76	1789.92
660.95	1677.29
661.14	1757.16
661.33	1640.42
661.51	1732.58
661.70	1656.81
661.89	1841.12
662.08	1728.49
662.26	1703.91
662.45	1652.71
662.64	1796.07
662.83	1777.64
663.01	1677.29
663.20	1669.09
663.39	1806.31
663.58	1667.05
663.76	1695.72
663.95	1783.78
664.14	1710.05
664.32	1683.43
664.51	1644.52
664.70	1617.90
664.89	1744.87
665.07	1605.61
665.26	1746.92
665.45	1626.09
665.64	1757.16
665.82	1677.29
666.01	1779.68
666.20	1677.29
666.38	1800.16
666.57	1800.16
666.76	2207.71
666.95	4423.61
667.13	10129.25
667.32	14851.87
667.51	17592.05
667.69	18763.49
667.88	17413.88
668.07	12066.63
668.25	9398.13
668.44	7933.83
668.63	7104.40
668.81	6664.09
669.00	6201.25
669.19	5527.47
669.38	5052.34
669.56	4528.06
669.75	4016.07
669.94	3495.88
670.12	2883.54
670.31	2527.19
670.50	2238.43
670.68	2197.47
670.87	1904.61
671.06	1859.56
671.24	1818.60
671.43	1818.60
671.62	1767.40
671.80	1699.81
671.99	1732.58
672.18	1751.01
672.36	1804.26
672.55	1757.16
672.74	1732.58
672.92	1648.61
673.11	1765.35
673.29	1667.05
673.48	1714.15
673.67	1667.05
673.85	1837.03
674.04	1705.96
674.23	1718.25
674.41	1814.50
674.60	1632.23
674.79	1675.24
674.97	1681.38
675.16	1751.01
675.34	1789.92
675.53	1658.85
675.72	1734.63
675.90	1814.50
676.09	1675.24
676.28	1636.33
676.46	1667.05
676.65	1767.40
676.83	1687.53
677.02	1714.15
677.21	1730.53
677.39	1697.77
677.58	1656.81
677.77	1658.85
677.95	1738.73
678.14	1654.76
678.32	1544.17
678.51	1691.62
678.70	1841.12
678.88	1669.09
679.07	1730.53
679.25	1718.25
679.44	1660.90
679.63	1560.55
679.81	1665.00
680.00	1732.58
680.18	1785.83
680.37	1736.68
680.55	1701.86
680.74	1624.04
680.93	1591.27
681.11	1646.57
681.30	1665.00
681.48	1791.97
681.67	1642.47
681.85	1665.00
682.04	1683.43
682.23	1841.12
682.41	1724.39
682.60	1691.62
682.78	1691.62
682.97	1630.18
683.15	1755.11
683.34	1671.14
683.53	1810.40
683.71	1677.29
683.90	1730.53
684.08	1814.50
684.27	1630.18
684.45	1755.11
684.64	1894.37
684.82	1689.57
685.01	1679.33
685.19	1660.90
685.38	1804.26
685.57	1632.23
685.75	1675.24
685.94	1642.47
686.12	1660.90
686.31	1701.86
686.49	1730.53
686.68	1665.00
686.86	1771.49
687.05	1646.57
687.23	1828.84
687.42	1712.10
687.60	1658.85
687.79	1724.39
687.97	1755.11
688.16	1767.40
688.34	1783.78
688.53	1675.24
688.71	1689.57
688.90	1759.21
689.08	1626.09
689.27	1679.33
689.45	1804.26
689.64	1822.69
689.82	1691.62
690.01	1693.67
690.19	1728.49
690.38	1722.34
690.56	1771.49
690.75	1599.46
690.93	1669.09
691.12	1673.19
691.30	1687.53
691.49	1640.42
691.67	1660.90
691.86	1755.11
692.04	1646.57
692.23	1603.56
692.41	1656.81
692.60	1777.64
692.78	1718.25
692.97	1587.18
693.15	1775.59
693.34	1785.83
693.52	1812.45
693.71	1701.86
693.89	1654.76
694.08	1650.66
694.26	1656.81
694.44	1757.16
694.63	1763.30
694.81	1636.33
695.00	1656.81
695.18	1789.92
695.37	1802.21
695.55	1699.81
695.74	1746.92
695.92	1726.44
696.10	1804.26
696.29	1701.86
696.47	1720.29
696.66	1685.48
696.84	1708.01
697.03	1701.86
697.21	1826.79
697.40	2306.01
697.58	1859.56
697.76	1617.90
697.95	1703.91
698.13	1697.77
698.32	1691.62
698.50	1673.19
698.68	1679.33
698.87	1722.34
699.05	1867.75
699.24	1699.81
699.42	1660.90
699.61	1753.06
699.79	1742.82
699.97	1736.68
700.16	1640.42
700.34	1705.96
700.53	1669.09
700.71	1781.73
700.89	1859.56
701.08	1730.53
701.26	1785.83
701.45	2172.89
701.63	1595.37
701.81	1630.18
702.00	1667.05
702.18	1669.09
702.37	1658.85
702.55	1757.16
702.73	1677.29
702.92	1677.29
703.10	1785.83
703.28	1716.20
703.47	1644.52
703.65	1742.82
703.84	1783.78
704.02	1705.96
704.20	1708.01
704.39	1662.95
704.57	1679.33
704.75	1757.16
704.94	1796.07
705.12	1701.86
705.30	1742.82
705.49	2287.58
705.67	4360.13
705.86	9252.72
706.04	12359.49
706.22	14235.43
706.41	15200.02
706.59	13780.78
706.77	9641.84
706.96	7358.35
707.14	6457.25
707.32	5953.45
707.51	5543.85
707.69	4900.79
707.87	4110.27
708.06	3577.80
708.24	2983.89
708.42	2432.99
708.61	2189.28
708.79	1937.38
708.97	1812.45
709.16	1777.64
709.34	1843.17
709.52	1734.63
709.71	1718.25
709.89	1753.06
710.07	1591.27
710.26	1667.05
710.44	1763.30
710.62	1763.30
710.80	1662.95
710.99	1804.26
711.17	1779.68
711.35	1724.39
711.54	1705.96
711.72	1751.01
711.90	1744.87
712.09	1708.01
712.27	1722.34
712.45	1738.73
712.63	1628.14
712.82	1781.73
713.00	1746.92
713.18	1724.39
713.37	1759.21
713.55	1814.50
713.73	1701.86
713.91	1740.77
714.10	1675.24
714.28	1724.39
714.46	1722.34
714.65	1677.29
714.83	1759.21
715.01	1689.57
715.19	1705.96
715.38	1656.81
715.56	1740.77
715.74	1691.62
715.92	1685.48
716.11	1789.92
716.29	1638.38
716.47	1683.43
716.65	1656.81
716.84	1687.53
717.02	1730.53
717.20	1597.42
717.38	1677.29
717.57	1748.97
717.75	1742.82
717.93	1748.97
718.11	1646.57
718.30	1589.22
718.48	1738.73
718.66	1751.01
718.84	1763.30
719.03	1699.81
719.21	1599.46
719.39	1814.50
719.57	1775.59
719.75	1730.53
719.94	1689.57
720.12	1677.29
720.30	1677.29
720.48	1669.09
720.67	1753.06
720.85	1693.67
721.03	1699.81
721.21	1728.49
721.39	1732.58
721.58	1710.05
721.76	1701.86
721.94	1662.95
722.12	1736.68
722.30	1716.20
722.49	1697.77
722.67	1611.75
722.85	1765.35
723.03	1619.94
723.21	1634.28
723.40	1697.77
723.58	1746.92
723.76	1662.95
723.94	1763.30
724.12	1716.20
724.30	1720.29
724.49	1812.45
724.67	1640.42
724.85	1763.30
725.03	1593.32
725.21	1765.35
725.40	1791.97
725.58	1646.57
725.76	1685.48
725.94	1726.44
726.12	1611.75
726.30	1703.91
726.49	1646.57
726.67	1718.25
726.85	1724.39
727.03	1732.58
727.21	2129.89
727.39	2861.01
727.57	3725.26
727.76	3991.49
727.94	4335.55
728.12	4290.49
728.30	3639.24
728.48	2887.64
728.66	2703.32
728.84	2613.21
729.03	2367.45
729.21	2170.85
729.39	1929.19
729.57	1875.94
729.75	1800.16
729.93	1867.75
730.11	1699.81
730.30	1761.25
730.48	1740.77
730.66	1834.98
730.84	1736.68
731.02	1761.25
731.20	1757.16
731.38	1804.26
731.56	1699.81
731.74	1619.94
731.93	1660.90
732.11	1658.85
732.29	1683.43
732.47	1763.30
732.65	1708.01
732.83	1810.40
733.01	1662.95
733.19	1671.14
733.37	1667.05
733.56	1667.05
733.74	1718.25
733.92	1728.49
734.10	1714.15
734.28	1761.25
734.46	1558.50
734.64	1689.57
734.82	1746.92
735.00	1617.90
735.18	1675.24
735.36	1736.68
735.54	1736.68
735.73	1730.53
735.91	1689.57
736.09	1724.39
736.27	1652.71
736.45	1763.30
736.63	1658.85
736.81	1679.33
736.99	1724.39
737.17	1728.49
737.35	1628.14
737.53	1736.68
737.71	1724.39
737.89	1783.78
738.07	1673.19
738.25	1644.52
738.43	1685.48
738.61	1730.53
738.80	1636.33
738.98	1673.19
739.16	1669.09
739.34	1642.47
739.52	1796.07
739.70	1650.66
739.88	1732.58
740.06	1812.45
740.24	1589.22
740.42	1740.77
740.60	1597.42
740.78	1626.09
740.96	1605.61
741.14	1654.76
741.32	1755.11
741.50	1660.90
741.68	1851.36
741.86	1759.21
742.04	1583.08
742.22	1599.46
742.40	1740.77
742.58	1699.81
742.76	1697.77
742.94	1699.81
743.12	1630.18
743.30	1751.01
743.48	1787.88
743.66	1628.14
743.84	1738.73
744.02	1685.48
744.20	1685.48
744.38	1617.90
744.56	1626.09
744.74	1726.44
744.92	1742.82
745.10	1796.07
745.28	1779.68
745.46	1816.55
745.64	1742.82
745.82	1814.50
746.00	1673.19
746.18	1730.53
746.36	1636.33
746.54	1730.53
746.72	1673.19
746.90	1576.94
747.08	1714.15
747.26	1689.57
747.44	1773.54
747.62	1742.82
747.80	1685.48
747.98	1773.54
748.15	1714.15
748.33	1775.59
748.51	1720.29
748.69	1681.38
748.87	1675.24
749.05	1728.49
749.23	1759.21
749.41	1730.53
749.59	1683.43
749.77	1732.58
749.95	1648.61
750.13	1611.75
750.31	1746.92
750.49	1671.14
750.67	1671.14
750.85	1830.88
751.03	1708.01
751.20	1830.88
751.38	1689.57
751.56	1658.85
751.74	1665.00
751.92	1714.15
752.10	1621.99
752.28	1720.29
752.46	1644.52
752.64	1710.05
752.82	1665.00
753.00	1691.62
753.18	1716.20
753.35	1705.96
753.53	1726.44
753.71	1714.15
753.89	1724.39
754.07	1689.57
754.25	1755.11
754.43	1720.29
754.61	1644.52
754.79	1761.25
754.97	1732.58
755.14	1757.16
755.32	1656.81
755.50	1685.48
755.68	1624.04
755.86	1712.10
756.04	1701.86
756.22	1644.52
756.40	1652.71
756.57	1824.74
756.75	1652.71
756.93	1812.45
757.11	1796.07
757.29	1689.57
757.47	1740.77
757.65	1566.70
757.82	1613.80
758.00	1656.81
758.18	1712.10
758.36	1738.73
758.54	1877.99
758.72	1615.85
758.90	1720.29
759.07	1708.01
759.25	1648.61
759.43	1669.09
759.61	1705.96
759.79	2170.85
759.97	1732.58
760.15	1705.96
760.32	1656.81
760.50	1675.24
760.68	1787.88
760.86	1638.38
761.04	1798.12
761.22	1732.58
761.39	1677.29
761.57	1730.53
761.75	1734.63
761.93	1705.96
762.11	1742.82
762.28	1732.58
762.46	1738.73
762.64	1789.92
762.82	1624.04
763.00	1687.53
763.18	1814.50
763.35	1560.55
763.53	1755.11
763.71	1605.61
763.89	1734.63
764.07	1777.64
764.24	1665.00
764.42	1746.92
764.60	1751.01
764.78	1736.68
764.96	1718.25
765.13	1773.54
765.31	1662.95
765.49	1748.97
765.67	1703.91
765.84	1683.43
766.02	1650.66
766.20	1617.90
766.38	1738.73
766.56	1751.01
766.73	1712.10
766.91	1689.57
767.09	1736.68
767.27	1773.54
767.44	1656.81
767.62	1732.58
767.80	1685.48
767.98	1669.09
768.15	1648.61
768.33	1742.82
768.51	1787.88
768.69	1734.63
768.87	1746.92
769.04	1615.85
769.22	1843.17
769.40	1802.21
769.58	1779.68
769.75	1751.01
769.93	1804.26
770.11	1720.29
770.28	1658.85
770.46	1673.19
770.64	1630.18
770.82	1675.24
770.99	1658.85
771.17	1751.01
771.35	1705.96
771.53	1677.29
771.70	1640.42
771.88	1705.96
772.06	1652.71
772.23	1708.01
772.41	1722.34
772.59	1636.33
772.77	1650.66
772.94	1746.92
773.12	1759.21
773.30	1677.29
773.47	1718.25
773.65	1658.85
773.83	1759.21
774.01	1648.61
774.18	1626.09
774.36	1718.25
774.54	1632.23
774.71	1677.29
774.89	1681.38
775.07	1712.10
775.24	1658.85
775.42	1640.42
775.60	1820.64
775.78	1650.66
775.95	1681.38
776.13	1644.52
776.31	1574.89
776.48	1746.92
776.66	1746.92
776.84	1730.53
777.01	1638.38
777.19	1669.09
777.37	1644.52
777.54	1712.10
777.72	1800.16
777.90	1720.29
778.07	1642.47
778.25	1832.93
778.43	1779.68
778.60	1695.72
778.78	1685.48
778.96	1724.39
779.13	1648.61
779.31	1755.11
779.49	1685.48
779.66	1771.49
779.84	1708.01
780.01	1685.48
780.19	1525.74
780.37	1814.50
780.54	1716.20
780.72	1644.52
780.90	1648.61
781.07	1710.05
781.25	1632.23
781.43	1763.30
781.60	1630.18
781.78	1791.97
781.95	1646.57
782.13	1632.23
782.31	1695.72
782.48	1605.61
782.66	1673.19
782.83	1765.35
783.01	1662.95
783.19	1761.25
783.36	1722.34
783.54	1652.71
783.72	1779.68
783.89	1679.33
784.07	1777.64
784.24	1677.29
784.42	1687.53
784.60	1751.01
784.77	1742.82
784.95	1621.99
785.12	1646.57
785.30	1634.28
785.47	1611.75
785.65	1658.85
785.83	1699.81
786.00	1638.38
786.18	1636.33
786.35	1675.24
786.53	1656.81
786.71	1728.49
786.88	1730.53
787.06	1701.86
787.23	1769.44
787.41	1621.99
787.58	1751.01
787.76	1730.53
787.94	1757.16
788.11	1732.58
788.29	1636.33
788.46	1705.96
788.64	1619.94
788.81	1603.56
788.99	1646.57
789.16	1675.24
789.34	1712.10
789.52	1658.85
789.69	1609.70
789.87	1538.02
790.04	1710.05
790.22	1734.63
790.39	1757.16
790.57	1720.29
790.74	1583.08
790.92	1820.64
791.09	1701.86
791.27	1744.87
791.44	1697.77
791.62	1667.05
791.79	1675.24
791.97	1691.62
792.15	1986.53
792.32	1697.77
792.50	1740.77
792.67	1767.40
792.85	1738.73
793.02	1679.33
793.20	1708.01
793.37	1644.52
793.55	1681.38
793.72	1665.00
793.90	1718.25
794.07	1722.34
794.25	1687.53
794.42	1681.38
794.60	1681.38
794.77	1753.06
794.95	1746.92
795.12	1703.91
795.30	1658.85
795.47	1646.57
795.65	1822.69
795.82	1746.92
796.00	1632.23
796.17	1767.40
796.34	1652.71
796.52	1714.15
796.69	1675.24
796.87	1734.63
797.04	1656.81
797.22	1722.34
797.39	1656.81
797.57	1718.25
797.74	1662.95
797.92	1705.96
798.09	1626.09
798.27	1757.16
798.44	1703.91
798.62	1615.85
798.79	1665.00
798.96	1726.44
799.14	1685.48
799.31	1830.88
799.49	1660.90
799.66	1712.10
799.84	1769.44
800.01	1640.42
800.19	1599.46
800.36	1558.50
800.53	1740.77
800.71	1777.64
800.88	1761.25
801.06	1693.67
801.23	1605.61
801.41	1683.43
801.58	1685.48
801.75	1660.90
801.93	1701.86
802.10	1677.29
802.28	1724.39
802.45	1730.53
802.63	1783.78
802.80	1828.84
802.97	1691.62
803.15	1671.14
803.32	1640.42
803.50	1650.66
803.67	1628.14
803.84	1613.80
804.02	1708.01
804.19	1693.67
804.37	1548.26
804.54	1654.76
804.71	1726.44
804.89	1667.05
805.06	1675.24
805.24	1632.23
805.41	1617.90
805.58	1685.48
805.76	1767.40
805.93	1714.15
806.10	1746.92
806.28	1705.96
806.45	1662.95
806.63	1755.11
806.80	1726.44
806.97	1781.73
807.15	1654.76
807.32	1636.33
807.49	1730.53
807.67	1634.28
807.84	1607.66
808.01	1562.60
808.19	1875.94
808.36	1798.12
808.54	1673.19
808.71	1630.18
808.88	1718.25
809.06	1675.24
809.23	1787.88
809.40	1683.43
809.58	1689.57
809.75	1646.57
809.92	1669.09
810.10	1816.55
810.27	1640.42
810.44	1691.62
810.62	1710.05
810.79	1775.59
810.96	1677.29
811.14	1642.47
811.31	1753.06
811.48	1665.00
811.66	1626.09
811.83	1794.02
812.00	1718.25
812.18	1689.57
812.35	1734.63
812.52	1626.09
812.69	1714.15
812.87	1746.92
813.04	1621.99
813.21	1683.43
813.39	1744.87
813.56	1630.18
813.73	1802.21
813.91	1603.56
814.08	1759.21
814.25	1765.35
814.42	1673.19
814.60	1585.13
814.77	1697.77
814.94	1759.21
815.12	1742.82
815.29	1740.77
815.46	1603.56
815.63	1673.19
815.81	1685.48
815.98	1667.05
816.15	1724.39
816.33	1716.20
816.50	1660.90
816.67	1630.18
816.84	1732.58
817.02	1628.14
817.19	1732.58
817.36	1734.63
817.53	1673.19
817.71	1673.19
817.88	1744.87
818.05	1736.68
818.22	1748.97
818.40	1847.27
818.57	1714.15
818.74	1689.57
818.91	1730.53
819.09	1714.15
819.26	1722.34
819.43	1658.85
819.60	1689.57
819.78	1724.39
819.95	1777.64
820.12	1665.00
820.29	1757.16
820.47	1753.06
820.64	1669.09
820.81	1675.24
820.98	1630.18
821.15	1720.29
821.33	1691.62
821.50	1638.38
821.67	1693.67
821.84	1632.23
822.02	1753.06
822.19	1751.01
822.36	1691.62
822.53	1746.92
822.70	1665.00
822.88	1617.90
823.05	1789.92
823.22	1652.71
823.39	1708.01
823.56	1677.29
823.74	1886.18
823.91	1652.71
824.08	1628.14
824.25	1699.81
824.42	1751.01
824.60	1632.23
824.77	1779.68
824.94	1718.25
825.11	1746.92
825.28	1632.23
825.45	1685.48
825.63	1650.66
825.80	1597.42
825.97	1763.30
826.14	1703.91
826.31	1595.37
826.48	1671.14
826.66	1650.66
826.83	1734.63
827.00	1771.49
827.17	1718.25
827.34	1728.49
827.51	1669.09
827.69	1689.57
827.86	1624.04
828.03	1671.14
828.20	1701.86
828.37	1603.56
828.54	1740.77
828.71	1718.25
828.89	1781.73
829.06	1652.71
829.23	1736.68
829.40	1685.48
829.57	1708.01
829.74	1687.53
829.91	1669.09
830.09	1609.70
830.26	1705.96
830.43	1830.88
830.60	1765.35
830.77	1671.14
830.94	1781.73
831.11	1712.10
831.28	1675.24
831.46	1734.63
831.63	1683.43
831.80	1736.68
831.97	1564.65
832.14	1687.53
832.31	1744.87
832.48	1673.19
832.65	1757.16
832.82	1683.43
832.99	1736.68
833.17	1621.99
833.34	1787.88
833.51	1679.33
833.68	1513.45
833.85	1757.16
834.02	1693.67
834.19	1574.89
834.36	1652.71
834.53	1677.29
834.70	1755.11
834.87	1687.53
835.04	1656.81
835.22	1656.81
835.39	1738.73
835.56	1587.18
835.73	1665.00
835.90	1746.92
836.07	1601.51
836.24	1798.12
836.41	1677.29
836.58	1611.75
836.75	1619.94
836.92	1734.63
837.09	1652.71
837.26	1716.20
837.43	1728.49
837.60	1701.86
837.77	1714.15
837.94	1769.44
838.12	1806.31
838.29	1732.58
838.46	1621.99
838.63	1628.14
838.80	1753.06
838.97	1777.64
839.14	1681.38
839.31	1732.58
839.48	1779.68
839.65	1691.62
839.82	1771.49
839.99	1675.24
840.16	1701.86
840.33	1675.24
840.50	1650.66
840.67	1701.86
840.84	1611.75
841.01	1763.30
841.18	1634.28
841.35	1667.05
841.52	1773.54
841.69	1769.44
841.86	1693.67
842.03	1640.42
842.20	1769.44
842.37	1699.81
842.54	1685.48
842.71	1742.82
842.88	1671.14
843.05	1689.57
843.22	1662.95
843.39	1742.82
843.56	1726.44
843.73	1675.24
843.90	1658.85
844.07	1753.06
844.24	1716.20
844.41	1736.68
844.58	1681.38
844.75	1654.76
844.92	1665.00
845.09	1634.28
845.26	1605.61
845.43	1689.57
845.60	1632.23
845.77	1705.96
845.94	1730.53
846.10	1775.59
846.27	1626.09
846.44	1554.41
846.61	1607.66
846.78	1689.57
846.95	1765.35
847.12	1658.85
847.29	1701.86
847.46	1626.09
847.63	1662.95
847.80	1662.95
847.97	1726.44
848.14	1794.02
848.31	1671.14
848.48	1662.95
848.65	1791.97
848.82	1714.15
848.98	1871.84
849.15	1665.00
849.32	1763.30
849.49	1781.73
849.66	1738.73
849.83	1669.09
850.00	1607.66
850.17	1708.01
850.34	1685.48
850.51	1781.73
850.68	1677.29
850.85	1796.07
851.01	1699.81
851.18	1738.73
851.35	1697.77
851.52	1740.77
851.69	1697.77
851.86	1583.08
852.03	1673.19
852.20	1808.36
852.37	1675.24
852.53	1574.89
852.70	1691.62
852.87	1746.92
853.04	1730.53
853.21	1697.77
853.38	1744.87
853.55	1748.97
853.72	1806.31
853.89	1636.33
854.05	1646.57
854.22	1644.52
854.39	1654.76
854.56	1712.10
854.73	1771.49
854.90	1681.38
855.07	1658.85
855.23	1656.81
855.40	1665.00
855.57	1751.01
855.74	1607.66
855.91	1871.84
856.08	1650.66
856.25	1665.00
856.41	1658.85
856.58	1685.48
856.75	1765.35
856.92	1599.46
857.09	1724.39
857.26	1552.36
857.42	1691.62
857.59	1693.67
857.76	1632.23
857.93	1669.09
858.10	1701.86
858.27	1638.38
858.43	1716.20
858.60	1644.52
858.77	1720.29
858.94	1708.01
859.11	1810.40
859.27	1656.81
859.44	1728.49
859.61	1812.45
859.78	1689.57
859.95	1660.90
860.12	1677.29
860.28	1748.97
860.45	1685.48
860.62	1677.29
860.79	1675.24
860.95	1656.81
861.12	1679.33
861.29	1581.03
861.46	1710.05
861.63	1685.48
861.79	1671.14
861.96	1705.96
862.13	1671.14
862.30	1755.11
862.47	1699.81
862.63	1675.24
862.80	1687.53
862.97	1761.25
863.14	1677.29
863.30	1728.49
863.47	1648.61
863.64	1773.54
863.81	1767.40
863.97	1619.94
864.14	1699.81
864.31	1685.48
864.48	1693.67
864.65	1736.68
864.81	1775.59
864.98	1740.77
865.15	1734.63
865.32	1734.63
865.48	1822.69
865.65	1689.57
865.82	1703.91
865.98	1697.77
866.15	1718.25
866.32	1638.38
866.49	1720.29
866.65	1787.88
866.82	1648.61
866.99	1685.48
867.16	1603.56
867.32	1675.24
867.49	1665.00
867.66	1685.48
867.83	1708.01
867.99	1697.77
868.16	1662.95
868.33	1648.61
868.49	1712.10
868.66	1619.94
868.83	1714.15
868.99	1699.81
869.16	1673.19
869.33	1787.88
869.50	1816.55
869.66	1738.73
869.83	1687.53
870.00	1675.24
870.16	1767.40
870.33	1716.20
870.50	1746.92
870.66	1634.28
870.83	1779.68
871.00	1646.57
871.17	1683.43
871.33	1718.25
871.50	1660.90
871.67	1701.86
871.83	1660.90
872.00	1728.49
872.17	1679.33
872.33	1781.73
872.50	1763.30
872.67	1615.85
872.83	1650.66
873.00	1708.01
873.17	1667.05
873.33	1734.63
873.50	1665.00
873.67	1644.52
873.83	1644.52
874.00	1652.71
874.16	1765.35
874.33	1716.20
874.50	1740.77
874.66	1665.00
874.83	1689.57
875.00	1703.91
875.16	1775.59
875.33	1814.50
875.50	1642.47
875.66	1712.10
875.83	1685.48
875.99	1777.64
876.16	1746.92
876.33	1658.85
876.49	1654.76
876.66	1787.88
876.83	1654.76
876.99	1597.42
877.16	1718.25
877.32	1689.57
877.49	1675.24
877.66	1683.43
877.82	1773.54
877.99	1712.10
878.15	1697.77
878.32	1675.24
878.49	1677.29
878.65	1734.63
878.82	1656.81
878.98	1630.18
879.15	1669.09
879.32	1761.25
879.48	1705.96
879.65	1632.23
879.81	1628.14
879.98	1634.28
880.15	1654.76
880.31	1742.82
880.48	1665.00
880.64	1701.86
880.81	1771.49
880.97	1828.84
881.14	1751.01
881.31	1630.18
881.47	1820.64
881.64	1687.53
881.80	1718.25
881.97	1705.96
882.13	1744.87
882.30	1611.75
882.47	1667.05
882.63	1617.90
882.80	1683.43
882.96	1714.15
883.13	1697.77
883.29	1685.48
883.46	1738.73
883.62	1708.01
883.79	1673.19
883.95	1671.14
884.12	1710.05
884.29	1712.10
884.45	1724.39
884.62	1773.54
884.78	1650.66
884.95	1812.45
885.11	1677.29
885.28	1669.09
885.44	1675.24
885.61	1665.00
885.77	1787.88
885.94	1701.86
886.10	1687.53
886.27	1738.73
886.43	1771.49
886.60	1779.68
886.76	1722.34
886.93	1603.56
887.09	1753.06
887.26	1654.76
887.42	1740.77
887.59	1716.20
887.75	1826.79
887.92	1773.54
888.08	1693.67
888.25	1781.73
888.41	1667.05
888.58	1765.35
888.74	1669.09
888.91	1667.05
>>>>>End Processed Spectral Data<<<<<
