SpectraSuite Data File
++++++++++++++++++++++++++++++++++++
Date: Mon Jun 06 16:05:57 CEST 2016
User: root
Dark Spectrum Present: No
Reference Spectrum Present: No
Number of Sampled Component Spectra: 1
Spectrometers: USB4C02835
Integration Time (usec): 100000 (USB4C02835)
Spectra Averaged: 1 (USB4C02835)
Boxcar Smoothing: 0 (USB4C02835)
Correct for Electrical Dark: No (USB4C02835)
Strobe/Lamp Enabled: No (USB4C02835)
Correct for Detector Non-linearity: No (USB4C02835)
Correct for Stray Light: No (USB4C02835)
Number of Pixels in Processed Spectrum: 3648
>>>>>Begin Processed Spectral Data<<<<<
177.47	1447.91
177.69	1447.91
177.91	1447.91
178.13	1486.83
178.36	1492.97
178.58	1636.33
178.80	1732.58
179.02	1570.79
179.24	1697.77
179.46	1736.68
179.68	1708.01
179.90	1728.49
180.13	1779.68
180.35	1689.57
180.57	1734.63
180.79	1769.44
181.01	1728.49
181.23	1703.91
181.45	1824.74
181.67	1808.36
181.90	1765.35
182.12	1712.10
182.34	1640.42
182.56	1738.73
182.78	1796.07
183.00	1685.48
183.22	1755.11
183.44	1646.57
183.66	1875.94
183.89	1816.55
184.11	1710.05
184.33	1665.00
184.55	1726.44
184.77	1810.40
184.99	1748.97
185.21	1695.72
185.43	1773.54
185.65	1640.42
185.87	1763.30
186.10	1804.26
186.32	1873.89
186.54	1732.58
186.76	1796.07
186.98	1777.64
187.20	1689.57
187.42	1685.48
187.64	1699.81
187.86	1763.30
188.08	1726.44
188.30	1691.62
188.52	1722.34
188.75	1767.40
188.97	1804.26
189.19	1642.47
189.41	1746.92
189.63	1718.25
189.85	1751.01
190.07	1658.85
190.29	1699.81
190.51	1777.64
190.73	1628.14
190.95	1839.08
191.17	1740.77
191.39	1624.04
191.61	1699.81
191.84	1685.48
192.06	1728.49
192.28	1626.09
192.50	1894.37
192.72	1757.16
192.94	1648.61
193.16	1806.31
193.38	1687.53
193.60	1634.28
193.82	1732.58
194.04	1761.25
194.26	1767.40
194.48	1699.81
194.70	1593.32
194.92	1658.85
195.14	1773.54
195.36	1658.85
195.58	1714.15
195.80	1624.04
196.02	1710.05
196.24	1738.73
196.46	1773.54
196.69	1726.44
196.91	1826.79
197.13	1671.14
197.35	1675.24
197.57	1816.55
197.79	1712.10
198.01	1701.86
198.23	1796.07
198.45	1642.47
198.67	1734.63
198.89	1714.15
199.11	1785.83
199.33	1646.57
199.55	1538.02
199.77	1693.67
199.99	1787.88
200.21	1728.49
200.43	1816.55
200.65	1660.90
200.87	1552.36
201.09	1757.16
201.31	1757.16
201.53	1714.15
201.75	1716.20
201.97	1673.19
202.19	1714.15
202.41	1769.44
202.63	1826.79
202.85	1748.97
203.07	1724.39
203.29	1691.62
203.51	1636.33
203.73	1683.43
203.95	1945.57
204.17	1757.16
204.39	1785.83
204.61	1642.47
204.83	1695.72
205.05	1761.25
205.27	1779.68
205.49	1798.12
205.71	1689.57
205.93	1621.99
206.15	1644.52
206.37	1738.73
206.59	1705.96
206.81	1646.57
207.03	1638.38
207.25	1722.34
207.47	1683.43
207.69	1632.23
207.91	1779.68
208.13	1763.30
208.34	1691.62
208.56	1728.49
208.78	1697.77
209.00	1660.90
209.22	1609.70
209.44	1734.63
209.66	1673.19
209.88	1757.16
210.10	1679.33
210.32	1636.33
210.54	1820.64
210.76	1687.53
210.98	1771.49
211.20	1677.29
211.42	1734.63
211.64	1773.54
211.86	1685.48
212.08	1720.29
212.30	1814.50
212.52	1720.29
212.74	1720.29
212.96	1683.43
213.17	1720.29
213.39	1796.07
213.61	1806.31
213.83	1742.82
214.05	1593.32
214.27	1744.87
214.49	1619.94
214.71	1679.33
214.93	1787.88
215.15	1738.73
215.37	1767.40
215.59	1656.81
215.81	1734.63
216.03	1820.64
216.24	1671.14
216.46	1779.68
216.68	1751.01
216.90	1746.92
217.12	1759.21
217.34	1759.21
217.56	1691.62
217.78	1794.02
218.00	1810.40
218.22	1726.44
218.44	1779.68
218.66	1732.58
218.87	1757.16
219.09	1705.96
219.31	1759.21
219.53	1755.11
219.75	1730.53
219.97	1751.01
220.19	1724.39
220.41	1699.81
220.63	1837.03
220.85	1832.93
221.06	1681.38
221.28	1841.12
221.50	1648.61
221.72	1708.01
221.94	1773.54
222.16	1701.86
222.38	1781.73
222.60	1650.66
222.82	1660.90
223.03	1730.53
223.25	1716.20
223.47	1746.92
223.69	1794.02
223.91	1753.06
224.13	1656.81
224.35	1759.21
224.57	1744.87
224.78	1705.96
225.00	1665.00
225.22	1624.04
225.44	1671.14
225.66	1822.69
225.88	1677.29
226.10	1693.67
226.32	1736.68
226.53	1726.44
226.75	1716.20
226.97	1693.67
227.19	1665.00
227.41	1701.86
227.63	1681.38
227.85	1556.46
228.06	1691.62
228.28	1691.62
228.50	1744.87
228.72	1671.14
228.94	1708.01
229.16	1617.90
229.37	1671.14
229.59	1691.62
229.81	1837.03
230.03	1726.44
230.25	1636.33
230.47	1660.90
230.69	1587.18
230.90	1763.30
231.12	1650.66
231.34	1742.82
231.56	1775.59
231.78	1599.46
232.00	1755.11
232.21	1652.71
232.43	1654.76
232.65	1652.71
232.87	1720.29
233.09	1681.38
233.30	1712.10
233.52	1714.15
233.74	1683.43
233.96	1667.05
234.18	1640.42
234.40	1724.39
234.61	1910.75
234.83	1658.85
235.05	1634.28
235.27	1875.94
235.49	1839.08
235.70	1718.25
235.92	1796.07
236.14	1789.92
236.36	1851.36
236.58	1617.90
236.79	1798.12
237.01	1718.25
237.23	1699.81
237.45	1746.92
237.67	1689.57
237.88	1669.09
238.10	1761.25
238.32	1703.91
238.54	1746.92
238.76	1738.73
238.97	1681.38
239.19	1714.15
239.41	1796.07
239.63	1759.21
239.85	1740.77
240.06	1775.59
240.28	1697.77
240.50	1816.55
240.72	1689.57
240.93	1679.33
241.15	1789.92
241.37	1656.81
241.59	1808.36
241.81	1695.72
242.02	1714.15
242.24	1716.20
242.46	1681.38
242.68	1691.62
242.89	1816.55
243.11	1771.49
243.33	1705.96
243.55	1812.45
243.76	1705.96
243.98	1671.14
244.20	1697.77
244.42	1685.48
244.64	1744.87
244.85	1640.42
245.07	1738.73
245.29	1728.49
245.51	1738.73
245.72	1781.73
245.94	1828.84
246.16	1738.73
246.38	1724.39
246.59	1701.86
246.81	1658.85
247.03	1687.53
247.24	1621.99
247.46	1701.86
247.68	1677.29
247.90	1646.57
248.11	1658.85
248.33	1755.11
248.55	1722.34
248.77	1685.48
248.98	1783.78
249.20	1808.36
249.42	1714.15
249.64	1759.21
249.85	1710.05
250.07	1685.48
250.29	1800.16
250.50	1746.92
250.72	1648.61
250.94	1755.11
251.16	1763.30
251.37	1769.44
251.59	1697.77
251.81	1708.01
252.02	1812.45
252.24	1693.67
252.46	1812.45
252.68	1654.76
252.89	1669.09
253.11	1605.61
253.33	1810.40
253.54	1734.63
253.76	1650.66
253.98	1736.68
254.20	1705.96
254.41	1665.00
254.63	1693.67
254.85	1683.43
255.06	1714.15
255.28	1705.96
255.50	1775.59
255.71	1687.53
255.93	1607.66
256.15	1728.49
256.36	1740.77
256.58	1734.63
256.80	1722.34
257.02	1662.95
257.23	1726.44
257.45	1708.01
257.67	1734.63
257.88	1740.77
258.10	1820.64
258.32	1695.72
258.53	1732.58
258.75	1777.64
258.97	1650.66
259.18	1654.76
259.40	1695.72
259.62	1820.64
259.83	1746.92
260.05	1740.77
260.27	1910.75
260.48	1765.35
260.70	1652.71
260.92	1755.11
261.13	1656.81
261.35	1810.40
261.57	1728.49
261.78	1665.00
262.00	1708.01
262.22	1695.72
262.43	1683.43
262.65	1669.09
262.86	1683.43
263.08	1777.64
263.30	1732.58
263.51	1589.22
263.73	1720.29
263.95	1753.06
264.16	1685.48
264.38	1681.38
264.60	1714.15
264.81	1710.05
265.03	1753.06
265.25	1722.34
265.46	1714.15
265.68	1734.63
265.89	1781.73
266.11	1611.75
266.33	1730.53
266.54	1755.11
266.76	1722.34
266.98	1708.01
267.19	1732.58
267.41	1701.86
267.62	1724.39
267.84	1601.51
268.06	1726.44
268.27	1716.20
268.49	1798.12
268.70	1773.54
268.92	1673.19
269.14	1701.86
269.35	1642.47
269.57	1691.62
269.79	1699.81
270.00	1660.90
270.22	1734.63
270.43	1705.96
270.65	1619.94
270.87	1791.97
271.08	1773.54
271.30	1728.49
271.51	1738.73
271.73	1781.73
271.95	1824.74
272.16	1722.34
272.38	1665.00
272.59	1669.09
272.81	1755.11
273.02	1736.68
273.24	1705.96
273.46	1697.77
273.67	1679.33
273.89	1718.25
274.10	1683.43
274.32	1834.98
274.54	1705.96
274.75	1748.97
274.97	1705.96
275.18	1726.44
275.40	1746.92
275.61	1699.81
275.83	1687.53
276.05	1675.24
276.26	1714.15
276.48	1755.11
276.69	1599.46
276.91	1685.48
277.12	1755.11
277.34	1673.19
277.55	1804.26
277.77	1667.05
277.99	1728.49
278.20	1679.33
278.42	1601.51
278.63	1619.94
278.85	1681.38
279.06	1695.72
279.28	1742.82
279.49	1773.54
279.71	1665.00
279.93	1724.39
280.14	1658.85
280.36	1683.43
280.57	1708.01
280.79	1812.45
281.00	1638.38
281.22	1665.00
281.43	1781.73
281.65	1601.51
281.86	1708.01
282.08	1746.92
282.29	1779.68
282.51	1621.99
282.73	1619.94
282.94	1617.90
283.16	1818.60
283.37	1789.92
283.59	1710.05
283.80	1755.11
284.02	1712.10
284.23	1785.83
284.45	1728.49
284.66	1607.66
284.88	1691.62
285.09	1755.11
285.31	1738.73
285.52	1753.06
285.74	1644.52
285.95	1832.93
286.17	1771.49
286.38	1816.55
286.60	1691.62
286.81	1662.95
287.03	1746.92
287.24	1718.25
287.46	1722.34
287.67	1761.25
287.89	1834.98
288.10	1751.01
288.32	1726.44
288.53	1753.06
288.75	1740.77
288.96	1757.16
289.18	1669.09
289.39	1714.15
289.61	1740.77
289.82	1855.46
290.04	1824.74
290.25	1703.91
290.47	1777.64
290.68	1724.39
290.90	1832.93
291.11	1636.33
291.33	1767.40
291.54	1685.48
291.76	1738.73
291.97	1730.53
292.18	1736.68
292.40	1654.76
292.61	1697.77
292.83	1855.46
293.04	1730.53
293.26	1681.38
293.47	1609.70
293.69	1572.84
293.90	1695.72
294.12	1843.17
294.33	1675.24
294.55	1683.43
294.76	1822.69
294.97	1726.44
295.19	1804.26
295.40	1744.87
295.62	1767.40
295.83	1724.39
296.05	1660.90
296.26	1746.92
296.48	1660.90
296.69	1642.47
296.90	1669.09
297.12	1708.01
297.33	1728.49
297.55	1695.72
297.76	1691.62
297.98	1808.36
298.19	1705.96
298.41	1740.77
298.62	1701.86
298.83	1794.02
299.05	1781.73
299.26	1720.29
299.48	1689.57
299.69	1716.20
299.90	1738.73
300.12	1697.77
300.33	1812.45
300.55	1667.05
300.76	1695.72
300.98	1636.33
301.19	1734.63
301.40	1705.96
301.62	1746.92
301.83	1765.35
302.05	1798.12
302.26	1691.62
302.47	1730.53
302.69	1638.38
302.90	1683.43
303.12	1542.12
303.33	1779.68
303.54	1802.21
303.76	1652.71
303.97	1722.34
304.19	1789.92
304.40	1693.67
304.61	1740.77
304.83	1861.60
305.04	1794.02
305.26	1757.16
305.47	1705.96
305.68	1705.96
305.90	1697.77
306.11	1662.95
306.33	1777.64
306.54	1701.86
306.75	1617.90
306.97	1589.22
307.18	1619.94
307.39	1695.72
307.61	1789.92
307.82	1712.10
308.04	1742.82
308.25	1662.95
308.46	1802.21
308.68	1701.86
308.89	1705.96
309.10	1826.79
309.32	1701.86
309.53	1710.05
309.74	1689.57
309.96	1720.29
310.17	1791.97
310.39	1671.14
310.60	1712.10
310.81	1714.15
311.03	1609.70
311.24	1732.58
311.45	1681.38
311.67	1816.55
311.88	1683.43
312.09	1644.52
312.31	1746.92
312.52	1673.19
312.73	1650.66
312.95	1587.18
313.16	1679.33
313.37	1785.83
313.59	1714.15
313.80	1730.53
314.01	1798.12
314.23	1736.68
314.44	1648.61
314.65	1597.42
314.87	1679.33
315.08	1697.77
315.29	1699.81
315.51	1691.62
315.72	1669.09
315.93	1861.60
316.15	1767.40
316.36	1705.96
316.57	1658.85
316.79	1763.30
317.00	1691.62
317.21	1767.40
317.43	1705.96
317.64	1746.92
317.85	1624.04
318.07	1701.86
318.28	1669.09
318.49	1834.98
318.70	1986.53
318.92	1896.42
319.13	1820.64
319.34	1920.99
319.56	1820.64
319.77	1861.60
319.98	1767.40
320.20	1769.44
320.41	1705.96
320.62	1738.73
320.83	1658.85
321.05	1783.78
321.26	1783.78
321.47	1759.21
321.69	1789.92
321.90	1669.09
322.11	1679.33
322.32	1716.20
322.54	1820.64
322.75	1595.37
322.96	1880.04
323.18	1646.57
323.39	1644.52
323.60	1689.57
323.81	1769.44
324.03	1705.96
324.24	1693.67
324.45	1710.05
324.66	1757.16
324.88	1818.60
325.09	1783.78
325.30	1728.49
325.52	1763.30
325.73	1822.69
325.94	1677.29
326.15	1656.81
326.37	1691.62
326.58	1753.06
326.79	1808.36
327.00	1693.67
327.22	1667.05
327.43	1683.43
327.64	1718.25
327.85	1755.11
328.07	1771.49
328.28	1837.03
328.49	1675.24
328.70	1740.77
328.92	1714.15
329.13	1683.43
329.34	1767.40
329.55	1849.32
329.76	1744.87
329.98	1699.81
330.19	1740.77
330.40	1736.68
330.61	1787.88
330.83	1714.15
331.04	1685.48
331.25	1650.66
331.46	1703.91
331.68	1636.33
331.89	1718.25
332.10	1671.14
332.31	1591.27
332.52	1701.86
332.74	1742.82
332.95	1578.98
333.16	1732.58
333.37	1722.34
333.58	1667.05
333.80	1675.24
334.01	1654.76
334.22	1742.82
334.43	1691.62
334.64	1718.25
334.86	1619.94
335.07	1619.94
335.28	1800.16
335.49	1677.29
335.70	1765.35
335.92	1742.82
336.13	1804.26
336.34	1767.40
336.55	1691.62
336.76	1767.40
336.98	1648.61
337.19	1681.38
337.40	1800.16
337.61	1853.41
337.82	1691.62
338.04	1818.60
338.25	1665.00
338.46	1705.96
338.67	1613.80
338.88	1660.90
339.09	1701.86
339.31	1708.01
339.52	1669.09
339.73	1646.57
339.94	1662.95
340.15	1748.97
340.36	1693.67
340.58	1763.30
340.79	1638.38
341.00	1761.25
341.21	1665.00
341.42	1791.97
341.63	1736.68
341.85	1812.45
342.06	1763.30
342.27	1714.15
342.48	1826.79
342.69	1601.51
342.90	1652.71
343.12	1675.24
343.33	1636.33
343.54	1826.79
343.75	1828.84
343.96	1740.77
344.17	1720.29
344.38	1742.82
344.60	1650.66
344.81	1568.74
345.02	1673.19
345.23	1755.11
345.44	1847.27
345.65	1867.75
345.86	1785.83
346.07	1675.24
346.29	1716.20
346.50	1724.39
346.71	1746.92
346.92	1800.16
347.13	1863.65
347.34	1755.11
347.55	1703.91
347.76	1746.92
347.98	1656.81
348.19	1650.66
348.40	1894.37
348.61	1636.33
348.82	1757.16
349.03	1783.78
349.24	1644.52
349.45	1882.08
349.66	1669.09
349.88	1673.19
350.09	1683.43
350.30	1751.01
350.51	1736.68
350.72	1777.64
350.93	1781.73
351.14	1667.05
351.35	1714.15
351.56	1736.68
351.77	1761.25
351.99	1687.53
352.20	1804.26
352.41	1783.78
352.62	1609.70
352.83	1746.92
353.04	1763.30
353.25	1705.96
353.46	1757.16
353.67	1789.92
353.88	1595.37
354.09	1714.15
354.30	1771.49
354.52	1769.44
354.73	1689.57
354.94	1652.71
355.15	1783.78
355.36	1781.73
355.57	1712.10
355.78	1646.57
355.99	1734.63
356.20	1658.85
356.41	1816.55
356.62	1699.81
356.83	1748.97
357.04	1710.05
357.25	1648.61
357.46	1681.38
357.68	1640.42
357.89	1716.20
358.10	1708.01
358.31	1687.53
358.52	1748.97
358.73	1619.94
358.94	1650.66
359.15	1636.33
359.36	1761.25
359.57	1693.67
359.78	1691.62
359.99	1732.58
360.20	1650.66
360.41	1701.86
360.62	1720.29
360.83	1703.91
361.04	1744.87
361.25	1636.33
361.46	1808.36
361.67	1769.44
361.88	1779.68
362.09	1677.29
362.30	1763.30
362.51	1777.64
362.72	1671.14
362.93	1703.91
363.14	1738.73
363.35	1785.83
363.56	1654.76
363.78	1785.83
363.99	1746.92
364.20	1675.24
364.41	1714.15
364.62	1824.74
364.83	1675.24
365.04	1744.87
365.25	1724.39
365.46	1855.46
365.67	1609.70
365.88	1705.96
366.09	1718.25
366.30	1681.38
366.51	1695.72
366.72	1609.70
366.93	1726.44
367.14	1757.16
367.35	1830.88
367.56	1689.57
367.77	1777.64
367.98	1710.05
368.18	1742.82
368.39	1738.73
368.60	1636.33
368.81	1812.45
369.02	1703.91
369.23	1683.43
369.44	1646.57
369.65	1648.61
369.86	1701.86
370.07	1839.08
370.28	1650.66
370.49	1832.93
370.70	1718.25
370.91	1726.44
371.12	1656.81
371.33	1714.15
371.54	1669.09
371.75	1787.88
371.96	1685.48
372.17	1714.15
372.38	1734.63
372.59	1755.11
372.80	1689.57
373.01	1693.67
373.22	1775.59
373.43	1718.25
373.64	1605.61
373.85	1794.02
374.06	1791.97
374.26	1701.86
374.47	1710.05
374.68	1812.45
374.89	1712.10
375.10	1671.14
375.31	1718.25
375.52	1738.73
375.73	1738.73
375.94	1638.38
376.15	1837.03
376.36	1644.52
376.57	1718.25
376.78	1757.16
376.99	1701.86
377.20	1759.21
377.40	1738.73
377.61	1802.21
377.82	1595.37
378.03	1763.30
378.24	1755.11
378.45	1697.77
378.66	1751.01
378.87	1613.80
379.08	1628.14
379.29	1677.29
379.50	1853.41
379.71	1697.77
379.91	1765.35
380.12	1658.85
380.33	1726.44
380.54	1763.30
380.75	1699.81
380.96	1738.73
381.17	1779.68
381.38	1759.21
381.59	1765.35
381.80	1775.59
382.00	1791.97
382.21	1767.40
382.42	1822.69
382.63	1865.70
382.84	1839.08
383.05	1710.05
383.26	1804.26
383.47	1814.50
383.68	1738.73
383.88	1746.92
384.09	1681.38
384.30	1761.25
384.51	1773.54
384.72	1644.52
384.93	1652.71
385.14	1779.68
385.35	1802.21
385.55	1638.38
385.76	1755.11
385.97	1665.00
386.18	1695.72
386.39	1689.57
386.60	1705.96
386.81	1673.19
387.02	1675.24
387.22	1771.49
387.43	1812.45
387.64	1701.86
387.85	1918.95
388.06	2252.77
388.27	4091.84
388.48	6711.19
388.68	8091.52
388.89	9480.05
389.10	9674.60
389.31	8574.85
389.52	7593.87
389.73	6625.18
389.93	6156.19
390.14	5894.05
390.35	5091.25
390.56	4736.95
390.77	3712.97
390.98	3010.51
391.18	2510.81
391.39	2140.13
391.60	1923.04
391.81	1828.84
392.02	1699.81
392.23	1804.26
392.43	1701.86
392.64	1849.32
392.85	1638.38
393.06	1867.75
393.27	1693.67
393.47	1742.82
393.68	1695.72
393.89	1650.66
394.10	1816.55
394.31	1662.95
394.52	1685.48
394.72	1724.39
394.93	1910.75
395.14	1581.03
395.35	1767.40
395.56	1705.96
395.76	1675.24
395.97	1789.92
396.18	1865.70
396.39	1869.80
396.60	2025.44
396.80	1896.42
397.01	1796.07
397.22	1773.54
397.43	1869.80
397.64	1755.11
397.84	1769.44
398.05	1808.36
398.26	1755.11
398.47	1714.15
398.67	1824.74
398.88	1779.68
399.09	1730.53
399.30	1687.53
399.51	1751.01
399.71	1712.10
399.92	1765.35
400.13	1787.88
400.34	1701.86
400.54	1794.02
400.75	1787.88
400.96	1712.10
401.17	1759.21
401.37	1738.73
401.58	1759.21
401.79	1652.71
402.00	1789.92
402.21	2037.73
402.41	1972.19
402.62	1937.38
402.83	2000.87
403.04	2029.54
403.24	2050.02
403.45	1908.71
403.66	1880.04
403.87	1877.99
404.07	1918.95
404.28	1914.85
404.49	1867.75
404.70	1773.54
404.90	1712.10
405.11	1703.91
405.32	1810.40
405.52	1705.96
405.73	1662.95
405.94	1705.96
406.15	1726.44
406.35	1759.21
406.56	1783.78
406.77	1720.29
406.98	1718.25
407.18	1728.49
407.39	1783.78
407.60	1695.72
407.80	1726.44
408.01	1646.57
408.22	1755.11
408.43	1677.29
408.63	1724.39
408.84	1695.72
409.05	1777.64
409.25	1652.71
409.46	1665.00
409.67	1693.67
409.88	1626.09
410.08	1720.29
410.29	1714.15
410.50	1753.06
410.70	1685.48
410.91	1589.22
411.12	1812.45
411.32	1736.68
411.53	1714.15
411.74	1816.55
411.95	1775.59
412.15	1783.78
412.36	1751.01
412.57	1724.39
412.77	1806.31
412.98	1738.73
413.19	1718.25
413.39	1718.25
413.60	1810.40
413.81	1818.60
414.01	1585.13
414.22	1738.73
414.43	1757.16
414.63	1769.44
414.84	1742.82
415.05	1746.92
415.25	1681.38
415.46	1699.81
415.67	1699.81
415.87	1773.54
416.08	1714.15
416.29	1689.57
416.49	1732.58
416.70	1720.29
416.91	1697.77
417.11	1722.34
417.32	1767.40
417.53	1810.40
417.73	1744.87
417.94	1691.62
418.15	1738.73
418.35	1718.25
418.56	1779.68
418.77	1841.12
418.97	1759.21
419.18	1673.19
419.38	1476.59
419.59	1761.25
419.80	1832.93
420.00	1712.10
420.21	1751.01
420.42	1837.03
420.62	1701.86
420.83	1724.39
421.04	1656.81
421.24	1746.92
421.45	1708.01
421.65	1693.67
421.86	1644.52
422.07	1703.91
422.27	1697.77
422.48	1773.54
422.69	1720.29
422.89	1697.77
423.10	1701.86
423.30	1675.24
423.51	1701.86
423.72	1685.48
423.92	1804.26
424.13	1705.96
424.33	1757.16
424.54	1826.79
424.75	1777.64
424.95	1796.07
425.16	1710.05
425.36	1671.14
425.57	1734.63
425.78	1732.58
425.98	1763.30
426.19	1732.58
426.39	1726.44
426.60	1728.49
426.81	1867.75
427.01	1634.28
427.22	1691.62
427.42	1644.52
427.63	1693.67
427.83	1775.59
428.04	1849.32
428.25	1865.70
428.45	1759.21
428.66	1748.97
428.86	1687.53
429.07	1644.52
429.28	1775.59
429.48	1669.09
429.69	1734.63
429.89	1761.25
430.10	1644.52
430.30	1781.73
430.51	1748.97
430.71	1699.81
430.92	1722.34
431.13	1611.75
431.33	1779.68
431.54	1785.83
431.74	1810.40
431.95	1837.03
432.15	1691.62
432.36	1724.39
432.56	1783.78
432.77	1775.59
432.98	1826.79
433.18	1800.16
433.39	1757.16
433.59	1695.72
433.80	1896.42
434.00	1847.27
434.21	1642.47
434.41	1703.91
434.62	1812.45
434.82	1660.90
435.03	1667.05
435.23	1632.23
435.44	1605.61
435.64	1759.21
435.85	1748.97
436.06	1724.39
436.26	1783.78
436.47	1730.53
436.67	1656.81
436.88	1720.29
437.08	1810.40
437.29	1748.97
437.49	1716.20
437.70	1822.69
437.90	1763.30
438.11	1863.65
438.31	1785.83
438.52	1937.38
438.72	1851.36
438.93	1916.90
439.13	1853.41
439.34	1906.66
439.54	1732.58
439.75	1863.65
439.95	1757.16
440.16	1708.01
440.36	1804.26
440.57	1767.40
440.77	1763.30
440.98	1771.49
441.18	1808.36
441.39	1734.63
441.59	1665.00
441.80	1824.74
442.00	1757.16
442.21	1890.28
442.41	1642.47
442.62	1738.73
442.82	1683.43
443.02	1755.11
443.23	1740.77
443.43	1777.64
443.64	1806.31
443.84	1748.97
444.05	1841.12
444.25	1718.25
444.46	1691.62
444.66	1675.24
444.87	1775.59
445.07	1640.42
445.28	1765.35
445.48	1791.97
445.69	1843.17
445.89	1931.23
446.09	1787.88
446.30	2011.11
446.50	2574.30
446.71	3723.21
446.91	4218.82
447.12	4726.71
447.32	4835.25
447.53	4263.87
447.73	3911.62
447.93	3553.23
448.14	3315.66
448.34	3252.17
448.55	3014.61
448.75	2856.92
448.96	2725.85
449.16	2422.75
449.36	2254.81
449.57	2039.78
449.77	1939.43
449.98	1746.92
450.18	1839.08
450.39	1746.92
450.59	1804.26
450.79	1818.60
451.00	1748.97
451.20	1794.02
451.41	1658.85
451.61	1689.57
451.81	1720.29
452.02	1703.91
452.22	1738.73
452.43	1771.49
452.63	1687.53
452.84	1765.35
453.04	1726.44
453.24	1740.77
453.45	1640.42
453.65	1730.53
453.86	1746.92
454.06	1789.92
454.26	1777.64
454.47	1699.81
454.67	1943.52
454.87	1787.88
455.08	1673.19
455.28	1828.84
455.49	1798.12
455.69	1732.58
455.89	1871.84
456.10	1744.87
456.30	1781.73
456.51	1787.88
456.71	1773.54
456.91	1765.35
457.12	1740.77
457.32	1828.84
457.52	1697.77
457.73	1830.88
457.93	1830.88
458.14	1736.68
458.34	1689.57
458.54	1716.20
458.75	1775.59
458.95	1796.07
459.15	1839.08
459.36	1775.59
459.56	1783.78
459.76	1834.98
459.97	1712.10
460.17	1746.92
460.37	1853.41
460.58	1730.53
460.78	1839.08
460.99	1632.23
461.19	1708.01
461.39	1726.44
461.60	1734.63
461.80	1728.49
462.00	1660.90
462.21	1771.49
462.41	1708.01
462.61	1628.14
462.82	1746.92
463.02	1751.01
463.22	1748.97
463.43	1816.55
463.63	1722.34
463.83	1820.64
464.04	1791.97
464.24	1701.86
464.44	1679.33
464.64	1761.25
464.85	1826.79
465.05	1728.49
465.25	1744.87
465.46	1695.72
465.66	1783.78
465.86	1830.88
466.07	1722.34
466.27	1650.66
466.47	1675.24
466.68	1675.24
466.88	1794.02
467.08	1816.55
467.29	1783.78
467.49	1740.77
467.69	1650.66
467.89	1677.29
468.10	1742.82
468.30	1789.92
468.50	1810.40
468.71	1837.03
468.91	1714.15
469.11	1880.04
469.31	1759.21
469.52	1675.24
469.72	1873.89
469.92	1859.56
470.13	1769.44
470.33	1740.77
470.53	1738.73
470.73	2123.74
470.94	2326.49
471.14	2330.59
471.34	2482.14
471.54	2467.80
471.75	2275.29
471.95	2123.74
472.15	2074.59
472.36	2133.98
472.56	2078.69
472.76	2111.46
472.96	1945.57
473.17	1998.82
473.37	2011.11
473.57	1791.97
473.77	1753.06
473.98	1818.60
474.18	1720.29
474.38	1957.86
474.58	1740.77
474.79	1617.90
474.99	1794.02
475.19	1728.49
475.39	1689.57
475.60	1703.91
475.80	1767.40
476.00	1789.92
476.20	1726.44
476.41	1771.49
476.61	1890.28
476.81	1808.36
477.01	1669.09
477.21	1871.84
477.42	1791.97
477.62	1685.48
477.82	1724.39
478.02	1683.43
478.23	1681.38
478.43	1660.90
478.63	1732.58
478.83	1724.39
479.03	1687.53
479.24	1802.21
479.44	1804.26
479.64	1769.44
479.84	1599.46
480.04	1679.33
480.25	1828.84
480.45	1685.48
480.65	1716.20
480.85	1822.69
481.06	1705.96
481.26	1746.92
481.46	1820.64
481.66	1701.86
481.86	1748.97
482.06	1796.07
482.27	1734.63
482.47	1699.81
482.67	1757.16
482.87	1722.34
483.07	1806.31
483.28	1708.01
483.48	1712.10
483.68	1658.85
483.88	1667.05
484.08	1632.23
484.29	1648.61
484.49	1785.83
484.69	1724.39
484.89	1892.32
485.09	1744.87
485.29	1763.30
485.50	1763.30
485.70	1710.05
485.90	1779.68
486.10	1726.44
486.30	1757.16
486.50	1761.25
486.71	1769.44
486.91	1798.12
487.11	1798.12
487.31	1632.23
487.51	1781.73
487.71	1703.91
487.91	1671.14
488.12	1685.48
488.32	1640.42
488.52	1744.87
488.72	1665.00
488.92	1712.10
489.12	1787.88
489.32	1751.01
489.53	1773.54
489.73	1701.86
489.93	1775.59
490.13	1746.92
490.33	1693.67
490.53	1734.63
490.73	1855.46
490.94	1644.52
491.14	1828.84
491.34	1806.31
491.54	2121.70
491.74	2508.76
491.94	2940.88
492.14	2979.79
492.34	2891.73
492.54	2693.08
492.75	2508.76
492.95	2430.94
493.15	2332.64
493.35	2244.57
493.55	2260.96
493.75	2140.13
493.95	2166.75
494.15	2052.06
494.35	1908.71
494.56	1824.74
494.76	1806.31
494.96	1789.92
495.16	1867.75
495.36	1796.07
495.56	1771.49
495.76	1832.93
495.96	1705.96
496.16	1763.30
496.36	1855.46
496.56	1689.57
496.77	1730.53
496.97	1738.73
497.17	1810.40
497.37	1675.24
497.57	1751.01
497.77	1738.73
497.97	1640.42
498.17	1712.10
498.37	1785.83
498.57	1724.39
498.77	1753.06
498.97	1851.36
499.17	1789.92
499.38	1697.77
499.58	1769.44
499.78	1843.17
499.98	1853.41
500.18	1701.86
500.38	1712.10
500.58	1896.42
500.78	2623.45
500.98	4493.24
501.18	5918.63
501.38	6729.63
501.58	6971.29
501.78	6680.47
501.98	5392.30
502.18	5005.24
502.38	4360.13
502.58	4104.13
502.78	3866.56
502.98	3719.11
503.18	3334.09
503.38	3231.69
503.59	2840.53
503.79	2574.30
503.99	2437.08
504.19	2283.49
504.39	2207.71
504.59	2260.96
504.79	2189.28
504.99	2037.73
505.19	1880.04
505.39	1867.75
505.59	1961.95
505.79	1841.12
505.99	1855.46
506.19	1791.97
506.39	1918.95
506.59	1796.07
506.79	1734.63
506.99	1812.45
507.19	1783.78
507.39	1820.64
507.59	1640.42
507.79	1724.39
507.99	1671.14
508.19	1763.30
508.39	1728.49
508.59	1669.09
508.79	1859.56
508.99	1869.80
509.19	1699.81
509.39	1742.82
509.59	1677.29
509.79	1687.53
509.99	1800.16
510.19	1761.25
510.39	1802.21
510.59	1855.46
510.79	1699.81
510.99	1665.00
511.19	1720.29
511.39	1888.23
511.59	1781.73
511.79	1845.22
511.99	1748.97
512.19	1867.75
512.38	1773.54
512.58	1697.77
512.78	1734.63
512.98	1789.92
513.18	1892.32
513.38	1710.05
513.58	1767.40
513.78	1705.96
513.98	1777.64
514.18	1781.73
514.38	1699.81
514.58	1712.10
514.78	1714.15
514.98	1695.72
515.18	1705.96
515.38	1726.44
515.58	1851.36
515.78	1769.44
515.98	1753.06
516.18	1757.16
516.38	1757.16
516.57	1732.58
516.77	1736.68
516.97	1773.54
517.17	1765.35
517.37	1662.95
517.57	1757.16
517.77	1751.01
517.97	1695.72
518.17	1738.73
518.37	1685.48
518.57	1796.07
518.77	1673.19
518.97	1683.43
519.16	1789.92
519.36	1902.56
519.56	1779.68
519.76	1798.12
519.96	1746.92
520.16	1865.70
520.36	1699.81
520.56	1820.64
520.76	1759.21
520.96	1720.29
521.16	1812.45
521.35	1834.98
521.55	1857.51
521.75	1757.16
521.95	1701.86
522.15	1695.72
522.35	1675.24
522.55	1728.49
522.75	1734.63
522.95	1687.53
523.14	1638.38
523.34	1744.87
523.54	1763.30
523.74	1802.21
523.94	1751.01
524.14	1519.59
524.34	1738.73
524.54	1820.64
524.73	1748.97
524.93	1812.45
525.13	1738.73
525.33	1634.28
525.53	1929.19
525.73	1834.98
525.93	1806.31
526.13	1773.54
526.32	1701.86
526.52	1857.51
526.72	1757.16
526.92	1720.29
527.12	1742.82
527.32	1671.14
527.52	1712.10
527.71	1814.50
527.91	1724.39
528.11	1779.68
528.31	1746.92
528.51	1656.81
528.71	1730.53
528.90	1755.11
529.10	1869.80
529.30	1855.46
529.50	1585.13
529.70	1785.83
529.90	1757.16
530.09	1818.60
530.29	1701.86
530.49	1759.21
530.69	1968.10
530.89	1832.93
531.09	1751.01
531.28	1677.29
531.48	1783.78
531.68	1775.59
531.88	1734.63
532.08	1722.34
532.28	1773.54
532.47	1822.69
532.67	1718.25
532.87	1742.82
533.07	1693.67
533.27	1785.83
533.46	1794.02
533.66	1703.91
533.86	1746.92
534.06	1730.53
534.26	1734.63
534.45	1771.49
534.65	1757.16
534.85	1662.95
535.05	1701.86
535.25	1791.97
535.44	1640.42
535.64	1703.91
535.84	1757.16
536.04	1716.20
536.24	1634.28
536.43	1730.53
536.63	1779.68
536.83	1777.64
537.03	1705.96
537.22	1621.99
537.42	1714.15
537.62	1740.77
537.82	1720.29
538.02	1845.22
538.21	1861.60
538.41	1918.95
538.61	1869.80
538.81	1728.49
539.00	1794.02
539.20	1699.81
539.40	1730.53
539.60	1742.82
539.79	1777.64
539.99	1722.34
540.19	1693.67
540.39	1712.10
540.58	1767.40
540.78	1787.88
540.98	1781.73
541.18	1781.73
541.37	1734.63
541.57	1769.44
541.77	1755.11
541.97	1681.38
542.16	1732.58
542.36	1699.81
542.56	1769.44
542.76	1896.42
542.95	1800.16
543.15	1798.12
543.35	1810.40
543.54	1689.57
543.74	1740.77
543.94	1841.12
544.14	1714.15
544.33	1789.92
544.53	1697.77
544.73	1734.63
544.93	1759.21
545.12	1734.63
545.32	1748.97
545.52	1755.11
545.71	1669.09
545.91	1767.40
546.11	1701.86
546.30	1621.99
546.50	1644.52
546.70	1796.07
546.90	1726.44
547.09	1619.94
547.29	1730.53
547.49	1763.30
547.68	1759.21
547.88	1665.00
548.08	1785.83
548.27	2226.14
548.47	1671.14
548.67	1734.63
548.87	1751.01
549.06	1732.58
549.26	1773.54
549.46	1701.86
549.65	1716.20
549.85	1740.77
550.05	1820.64
550.24	1685.48
550.44	1693.67
550.64	1769.44
550.83	1746.92
551.03	1802.21
551.23	1877.99
551.42	1804.26
551.62	1738.73
551.82	1738.73
552.01	1716.20
552.21	1818.60
552.41	1748.97
552.60	1820.64
552.80	1783.78
553.00	1738.73
553.19	1839.08
553.39	1880.04
553.59	1660.90
553.78	1812.45
553.98	1724.39
554.17	1736.68
554.37	1816.55
554.57	1796.07
554.76	1683.43
554.96	1636.33
555.16	1742.82
555.35	1748.97
555.55	1755.11
555.75	1761.25
555.94	1798.12
556.14	1632.23
556.33	1783.78
556.53	1789.92
556.73	1744.87
556.92	1802.21
557.12	1806.31
557.32	1853.41
557.51	1775.59
557.71	1814.50
557.90	1877.99
558.10	1814.50
558.30	1755.11
558.49	1675.24
558.69	1730.53
558.88	1746.92
559.08	1701.86
559.28	1738.73
559.47	1728.49
559.67	1892.32
559.86	1894.37
560.06	1677.29
560.26	1789.92
560.45	1814.50
560.65	1722.34
560.84	1839.08
561.04	1712.10
561.24	1781.73
561.43	1687.53
561.63	1855.46
561.82	1724.39
562.02	1718.25
562.22	1744.87
562.41	1669.09
562.61	1708.01
562.80	1691.62
563.00	1904.61
563.19	1744.87
563.39	1789.92
563.59	1859.56
563.78	1671.14
563.98	1673.19
564.17	1746.92
564.37	1615.85
564.56	1722.34
564.76	1738.73
564.96	1816.55
565.15	1779.68
565.35	1902.56
565.54	1708.01
565.74	1800.16
565.93	1796.07
566.13	1701.86
566.32	1734.63
566.52	1675.24
566.71	1740.77
566.91	1748.97
567.11	1714.15
567.30	1722.34
567.50	1794.02
567.69	1755.11
567.89	1820.64
568.08	1724.39
568.28	1708.01
568.47	1738.73
568.67	1791.97
568.86	1732.58
569.06	1847.27
569.25	1751.01
569.45	1708.01
569.64	1800.16
569.84	1708.01
570.04	1816.55
570.23	1738.73
570.43	1779.68
570.62	1777.64
570.82	1814.50
571.01	1671.14
571.21	1681.38
571.40	1732.58
571.60	1800.16
571.79	1771.49
571.99	1751.01
572.18	1669.09
572.38	1779.68
572.57	1779.68
572.77	1753.06
572.96	1884.13
573.16	1740.77
573.35	1710.05
573.55	1804.26
573.74	1859.56
573.94	1718.25
574.13	1673.19
574.33	1751.01
574.52	1787.88
574.71	1783.78
574.91	1810.40
575.10	1734.63
575.30	1757.16
575.49	1753.06
575.69	1708.01
575.88	1841.12
576.08	1736.68
576.27	1767.40
576.47	1730.53
576.66	1877.99
576.86	1814.50
577.05	1775.59
577.25	1775.59
577.44	1947.62
577.64	1791.97
577.83	1755.11
578.02	1769.44
578.22	1806.31
578.41	1859.56
578.61	1667.05
578.80	1697.77
579.00	1806.31
579.19	1742.82
579.39	1804.26
579.58	1808.36
579.77	1724.39
579.97	1841.12
580.16	1826.79
580.36	1861.60
580.55	1875.94
580.75	1820.64
580.94	1697.77
581.13	1828.84
581.33	1861.60
581.52	1742.82
581.72	1800.16
581.91	1869.80
582.11	1669.09
582.30	1791.97
582.49	1767.40
582.69	1851.36
582.88	1888.23
583.08	1734.63
583.27	1777.64
583.47	1826.79
583.66	1642.47
583.85	1724.39
584.05	1902.56
584.24	1685.48
584.44	1767.40
584.63	1832.93
584.82	1847.27
585.02	1849.32
585.21	1802.21
585.41	1863.65
585.60	1816.55
585.79	1931.23
585.99	1961.95
586.18	1882.08
586.37	2150.37
586.57	3336.14
586.76	9674.60
586.96	24544.91
587.15	34125.30
587.34	39925.15
587.54	41723.27
587.73	35984.86
587.93	25757.30
588.12	21380.79
588.31	18163.43
588.51	16049.93
588.70	14972.70
588.89	13756.21
589.09	12476.23
589.28	10927.96
589.47	9287.54
589.67	7858.06
589.86	6236.06
590.06	4884.41
590.25	3829.70
590.44	3049.43
590.64	2598.87
590.83	2297.82
591.02	2127.84
591.22	1908.71
591.41	1814.50
591.60	1880.04
591.80	1937.38
591.99	1689.57
592.18	1789.92
592.38	1906.66
592.57	1779.68
592.76	1757.16
592.96	1812.45
593.15	1779.68
593.34	1808.36
593.54	1783.78
593.73	1857.51
593.92	1767.40
594.12	1748.97
594.31	1759.21
594.50	1865.70
594.70	1849.32
594.89	1927.14
595.08	1642.47
595.28	1781.73
595.47	1923.04
595.66	1828.84
595.86	1726.44
596.05	1781.73
596.24	1755.11
596.43	1902.56
596.63	1855.46
596.82	1712.10
597.01	1789.92
597.21	1830.88
597.40	1710.05
597.59	1785.83
597.79	1710.05
597.98	1794.02
598.17	1722.34
598.36	1800.16
598.56	1755.11
598.75	1718.25
598.94	1746.92
599.14	1718.25
599.33	1662.95
599.52	1783.78
599.71	1753.06
599.91	1804.26
600.10	1775.59
600.29	1712.10
600.48	1720.29
600.68	1771.49
600.87	1744.87
601.06	1695.72
601.26	1777.64
601.45	1843.17
601.64	1726.44
601.83	1867.75
602.03	1740.77
602.22	1681.38
602.41	1802.21
602.60	1873.89
602.80	1785.83
602.99	1710.05
603.18	1726.44
603.37	1781.73
603.57	1693.67
603.76	1794.02
603.95	1755.11
604.14	1755.11
604.34	1726.44
604.53	1810.40
604.72	1732.58
604.91	1837.03
605.10	1783.78
605.30	1722.34
605.49	1826.79
605.68	1771.49
605.87	1763.30
606.07	1755.11
606.26	1640.42
606.45	1769.44
606.64	1738.73
606.84	1705.96
607.03	1767.40
607.22	1789.92
607.41	1673.19
607.60	1736.68
607.80	1851.36
607.99	1732.58
608.18	1763.30
608.37	1777.64
608.56	1708.01
608.76	1796.07
608.95	1779.68
609.14	1781.73
609.33	1757.16
609.52	1796.07
609.72	1775.59
609.91	1757.16
610.10	1693.67
610.29	1832.93
610.48	1834.98
610.68	1832.93
610.87	1759.21
611.06	1746.92
611.25	1687.53
611.44	1767.40
611.63	1726.44
611.83	1773.54
612.02	1689.57
612.21	1937.38
612.40	1644.52
612.59	1695.72
612.79	1755.11
612.98	1742.82
613.17	1832.93
613.36	1714.15
613.55	1841.12
613.74	1667.05
613.93	1708.01
614.13	1779.68
614.32	1759.21
614.51	1740.77
614.70	1716.20
614.89	1662.95
615.08	1761.25
615.28	2080.74
615.47	1712.10
615.66	1773.54
615.85	1681.38
616.04	1806.31
616.23	1683.43
616.42	1697.77
616.62	1755.11
616.81	1751.01
617.00	1718.25
617.19	1832.93
617.38	1703.91
617.57	1720.29
617.76	1701.86
617.95	1796.07
618.15	1753.06
618.34	1851.36
618.53	1634.28
618.72	1806.31
618.91	1794.02
619.10	1839.08
619.29	1722.34
619.48	1740.77
619.68	1742.82
619.87	1767.40
620.06	1671.14
620.25	1773.54
620.44	1728.49
620.63	1785.83
620.82	1755.11
621.01	1777.64
621.20	1710.05
621.39	1802.21
621.59	1738.73
621.78	1734.63
621.97	1714.15
622.16	1796.07
622.35	1796.07
622.54	1751.01
622.73	1800.16
622.92	1636.33
623.11	1767.40
623.30	1681.38
623.49	1771.49
623.68	1681.38
623.88	1806.31
624.07	1779.68
624.26	1769.44
624.45	1730.53
624.64	1761.25
624.83	1791.97
625.02	1675.24
625.21	1728.49
625.40	1669.09
625.59	1843.17
625.78	1755.11
625.97	1730.53
626.16	1779.68
626.35	1806.31
626.54	1714.15
626.74	1841.12
626.93	1748.97
627.12	1746.92
627.31	1767.40
627.50	1736.68
627.69	1779.68
627.88	1665.00
628.07	1656.81
628.26	1646.57
628.45	1632.23
628.64	1771.49
628.83	1710.05
629.02	1626.09
629.21	1728.49
629.40	1718.25
629.59	1648.61
629.78	1761.25
629.97	1712.10
630.16	1691.62
630.35	1726.44
630.54	1740.77
630.73	1712.10
630.92	1732.58
631.11	1716.20
631.30	1656.81
631.49	1779.68
631.68	1746.92
631.87	1761.25
632.06	1642.47
632.25	1826.79
632.44	1761.25
632.63	1726.44
632.82	1724.39
633.01	1654.76
633.20	1667.05
633.39	1691.62
633.58	1595.37
633.77	1671.14
633.96	1820.64
634.15	1806.31
634.34	1791.97
634.53	1722.34
634.72	1716.20
634.91	1652.71
635.10	1732.58
635.29	1769.44
635.48	1677.29
635.67	1720.29
635.86	1640.42
636.05	1763.30
636.24	1654.76
636.43	1710.05
636.62	1773.54
636.81	1566.70
637.00	1718.25
637.19	1755.11
637.38	1722.34
637.57	1683.43
637.76	1734.63
637.95	1765.35
638.14	1615.85
638.33	1701.86
638.52	1722.34
638.71	1677.29
638.89	1591.27
639.08	1843.17
639.27	1763.30
639.46	1677.29
639.65	1732.58
639.84	1716.20
640.03	1837.03
640.22	1697.77
640.41	1834.98
640.60	1687.53
640.79	1697.77
640.98	1712.10
641.17	1789.92
641.36	1855.46
641.55	1740.77
641.74	1687.53
641.92	1705.96
642.11	1669.09
642.30	1753.06
642.49	1720.29
642.68	1705.96
642.87	1742.82
643.06	1757.16
643.25	1681.38
643.44	1771.49
643.63	1675.24
643.82	1820.64
644.00	1656.81
644.19	1763.30
644.38	1660.90
644.57	1697.77
644.76	1763.30
644.95	1710.05
645.14	1669.09
645.33	1746.92
645.52	1738.73
645.71	1642.47
645.89	1744.87
646.08	1755.11
646.27	1714.15
646.46	1798.12
646.65	1607.66
646.84	1685.48
647.03	1724.39
647.22	1781.73
647.40	1726.44
647.59	1628.14
647.78	1665.00
647.97	1675.24
648.16	1656.81
648.35	1767.40
648.54	1802.21
648.73	1693.67
648.91	1800.16
649.10	1716.20
649.29	1746.92
649.48	1767.40
649.67	1742.82
649.86	1689.57
650.05	1695.72
650.23	1791.97
650.42	1652.71
650.61	1644.52
650.80	1734.63
650.99	1914.85
651.18	1714.15
651.36	1779.68
651.55	1800.16
651.74	1841.12
651.93	1671.14
652.12	1667.05
652.31	1779.68
652.49	1710.05
652.68	1677.29
652.87	1777.64
653.06	1755.11
653.25	1839.08
653.44	1644.52
653.62	1830.88
653.81	1771.49
654.00	1740.77
654.19	1804.26
654.38	1918.95
654.56	1748.97
654.75	1697.77
654.94	1757.16
655.13	1765.35
655.32	1773.54
655.51	1738.73
655.69	1759.21
655.88	1767.40
656.07	1665.00
656.26	1716.20
656.45	1607.66
656.63	1724.39
656.82	1736.68
657.01	1679.33
657.20	1742.82
657.38	1730.53
657.57	1802.21
657.76	1615.85
657.95	1744.87
658.14	1665.00
658.32	1697.77
658.51	1669.09
658.70	1781.73
658.89	1796.07
659.08	1722.34
659.26	1857.51
659.45	1695.72
659.64	1798.12
659.83	1615.85
660.01	1859.56
660.20	1824.74
660.39	1839.08
660.58	1609.70
660.76	1777.64
660.95	1658.85
661.14	1769.44
661.33	1611.75
661.51	1738.73
661.70	1605.61
661.89	1734.63
662.08	1722.34
662.26	1652.71
662.45	1656.81
662.64	1820.64
662.83	1761.25
663.01	1705.96
663.20	1695.72
663.39	1855.46
663.58	1652.71
663.76	1728.49
663.95	1796.07
664.14	1671.14
664.32	1673.19
664.51	1673.19
664.70	1611.75
664.89	1763.30
665.07	1691.62
665.26	1753.06
665.45	1730.53
665.64	1853.41
665.82	1751.01
666.01	1794.02
666.20	1667.05
666.38	1814.50
666.57	1832.93
666.76	2207.71
666.95	4612.03
667.13	10438.50
667.32	15152.92
667.51	17991.41
667.69	19111.64
667.88	17508.08
668.07	12240.71
668.25	9439.09
668.44	8040.33
668.63	7354.26
668.81	6770.58
669.00	6268.83
669.19	5644.20
669.38	5097.39
669.56	4466.62
669.75	3909.57
669.94	3397.58
670.12	2871.25
670.31	2508.76
670.50	2236.38
670.68	2111.46
670.87	1914.85
671.06	1806.31
671.24	1787.88
671.43	1808.36
671.62	1814.50
671.80	1771.49
671.99	1796.07
672.18	1732.58
672.36	1855.46
672.55	1746.92
672.74	1769.44
672.92	1791.97
673.11	1708.01
673.29	1638.38
673.48	1761.25
673.67	1708.01
673.85	1822.69
674.04	1665.00
674.23	1730.53
674.41	1814.50
674.60	1646.57
674.79	1699.81
674.97	1675.24
675.16	1748.97
675.34	1693.67
675.53	1640.42
675.72	1820.64
675.90	1828.84
676.09	1742.82
676.28	1699.81
676.46	1550.31
676.65	1736.68
676.83	1634.28
677.02	1699.81
677.21	1787.88
677.39	1755.11
677.58	1705.96
677.77	1701.86
677.95	1689.57
678.14	1714.15
678.32	1728.49
678.51	1712.10
678.70	1855.46
678.88	1632.23
679.07	1710.05
679.25	1701.86
679.44	1718.25
679.63	1701.86
679.81	1701.86
680.00	1708.01
680.18	1748.97
680.37	1832.93
680.55	1851.36
680.74	1632.23
680.93	1642.47
681.11	1763.30
681.30	1718.25
681.48	1656.81
681.67	1751.01
681.85	1708.01
682.04	1712.10
682.23	1759.21
682.41	1740.77
682.60	1673.19
682.78	1716.20
682.97	1681.38
683.15	1689.57
683.34	1730.53
683.53	1822.69
683.71	1689.57
683.90	1814.50
684.08	1898.47
684.27	1624.04
684.45	1796.07
684.64	1808.36
684.82	1677.29
685.01	1712.10
685.19	1728.49
685.38	1734.63
685.57	1751.01
685.75	1638.38
685.94	1732.58
686.12	1693.67
686.31	1755.11
686.49	1789.92
686.68	1624.04
686.86	1755.11
687.05	1689.57
687.23	1820.64
687.42	1693.67
687.60	1683.43
687.79	1736.68
687.97	1804.26
688.16	1773.54
688.34	1808.36
688.53	1675.24
688.71	1689.57
688.90	1736.68
689.08	1761.25
689.27	1689.57
689.45	1757.16
689.64	1703.91
689.82	1703.91
690.01	1794.02
690.19	1763.30
690.38	1695.72
690.56	1802.21
690.75	1589.22
690.93	1769.44
691.12	1699.81
691.30	1746.92
691.49	1730.53
691.67	1738.73
691.86	1800.16
692.04	1695.72
692.23	1675.24
692.41	1677.29
692.60	1894.37
692.78	1816.55
692.97	1716.20
693.15	1699.81
693.34	1767.40
693.52	1806.31
693.71	1720.29
693.89	1708.01
694.08	1615.85
694.26	1722.34
694.44	1791.97
694.63	1781.73
694.81	1595.37
695.00	1673.19
695.18	1800.16
695.37	1834.98
695.55	1738.73
695.74	1654.76
695.92	1697.77
696.10	1777.64
696.29	1660.90
696.47	1701.86
696.66	1673.19
696.84	1665.00
697.03	1689.57
697.21	1802.21
697.40	2336.73
697.58	1767.40
697.76	1732.58
697.95	1669.09
698.13	1683.43
698.32	1591.27
698.50	1730.53
698.68	1730.53
698.87	1785.83
699.05	1853.41
699.24	1714.15
699.42	1656.81
699.61	1726.44
699.79	1705.96
699.97	1734.63
700.16	1615.85
700.34	1773.54
700.53	1701.86
700.71	1777.64
700.89	1759.21
701.08	1687.53
701.26	1775.59
701.45	2054.11
701.63	1714.15
701.81	1689.57
702.00	1652.71
702.18	1722.34
702.37	1714.15
702.55	1695.72
702.73	1658.85
702.92	1642.47
703.10	1716.20
703.28	1705.96
703.47	1615.85
703.65	1851.36
703.84	1824.74
704.02	1652.71
704.20	1730.53
704.39	1632.23
704.57	1697.77
704.75	1761.25
704.94	1726.44
705.12	1746.92
705.30	1798.12
705.49	2287.58
705.67	4440.00
705.86	9287.54
706.04	12584.77
706.22	14464.80
706.41	15152.92
706.59	13555.51
706.77	9498.48
706.96	7276.43
707.14	6643.61
707.32	5865.38
707.51	5519.28
707.69	4775.86
707.87	4138.94
708.06	3440.59
708.24	2938.84
708.42	2418.65
708.61	2256.86
708.79	2013.15
708.97	1804.26
709.16	1920.99
709.34	1742.82
709.52	1781.73
709.71	1746.92
709.89	1730.53
710.07	1662.95
710.26	1619.94
710.44	1701.86
710.62	1763.30
710.80	1740.77
710.99	1779.68
711.17	1802.21
711.35	1669.09
711.54	1693.67
711.72	1769.44
711.90	1773.54
712.09	1738.73
712.27	1652.71
712.45	1726.44
712.63	1697.77
712.82	1724.39
713.00	1718.25
713.18	1781.73
713.37	1716.20
713.55	1765.35
713.73	1753.06
713.91	1685.48
714.10	1708.01
714.28	1714.15
714.46	1730.53
714.65	1785.83
714.83	1710.05
715.01	1730.53
715.19	1781.73
715.38	1716.20
715.56	1763.30
715.74	1667.05
715.92	1615.85
716.11	1845.22
716.29	1615.85
716.47	1695.72
716.65	1660.90
716.84	1654.76
717.02	1779.68
717.20	1654.76
717.38	1642.47
717.57	1806.31
717.75	1748.97
717.93	1669.09
718.11	1779.68
718.30	1677.29
718.48	1763.30
718.66	1761.25
718.84	1804.26
719.03	1730.53
719.21	1648.61
719.39	1812.45
719.57	1648.61
719.75	1744.87
719.94	1720.29
720.12	1712.10
720.30	1777.64
720.48	1767.40
720.67	1685.48
720.85	1656.81
721.03	1722.34
721.21	1677.29
721.39	1804.26
721.58	1767.40
721.76	1703.91
721.94	1773.54
722.12	1685.48
722.30	1839.08
722.49	1722.34
722.67	1765.35
722.85	1740.77
723.03	1665.00
723.21	1712.10
723.40	1673.19
723.58	1802.21
723.76	1740.77
723.94	1705.96
724.12	1738.73
724.30	1769.44
724.49	1773.54
724.67	1677.29
724.85	1777.64
725.03	1640.42
725.21	1718.25
725.40	1710.05
725.58	1720.29
725.76	1740.77
725.94	1744.87
726.12	1648.61
726.30	1667.05
726.49	1699.81
726.67	1757.16
726.85	1814.50
727.03	1775.59
727.21	2213.85
727.39	3006.42
727.57	3743.69
727.76	4241.34
727.94	4523.96
728.12	4331.45
728.30	3692.49
728.48	3000.27
728.66	2815.96
728.84	2613.21
729.03	2160.61
729.21	2197.47
729.39	1976.29
729.57	1873.89
729.75	1738.73
729.93	1828.84
730.11	1673.19
730.30	1716.20
730.48	1730.53
730.66	1775.59
730.84	1802.21
731.02	1646.57
731.20	1679.33
731.38	1660.90
731.56	1734.63
731.74	1722.34
731.93	1746.92
732.11	1705.96
732.29	1642.47
732.47	1695.72
732.65	1738.73
732.83	1751.01
733.01	1769.44
733.19	1716.20
733.37	1759.21
733.56	1755.11
733.74	1724.39
733.92	1769.44
734.10	1718.25
734.28	1802.21
734.46	1638.38
734.64	1695.72
734.82	1667.05
735.00	1701.86
735.18	1736.68
735.36	1771.49
735.54	1732.58
735.73	1681.38
735.91	1728.49
736.09	1718.25
736.27	1697.77
736.45	1787.88
736.63	1705.96
736.81	1746.92
736.99	1734.63
737.17	1773.54
737.35	1621.99
737.53	1730.53
737.71	1642.47
737.89	1796.07
738.07	1693.67
738.25	1665.00
738.43	1601.51
738.61	1658.85
738.80	1673.19
738.98	1660.90
739.16	1689.57
739.34	1652.71
739.52	1767.40
739.70	1753.06
739.88	1810.40
740.06	1744.87
740.24	1624.04
740.42	1742.82
740.60	1685.48
740.78	1671.14
740.96	1581.03
741.14	1685.48
741.32	1744.87
741.50	1650.66
741.68	1900.52
741.86	1798.12
742.04	1685.48
742.22	1658.85
742.40	1767.40
742.58	1798.12
742.76	1660.90
742.94	1732.58
743.12	1648.61
743.30	1730.53
743.48	1710.05
743.66	1626.09
743.84	1732.58
744.02	1720.29
744.20	1691.62
744.38	1685.48
744.56	1693.67
744.74	1810.40
744.92	1683.43
745.10	1869.80
745.28	1740.77
745.46	1765.35
745.64	1732.58
745.82	1796.07
746.00	1708.01
746.18	1673.19
746.36	1673.19
746.54	1736.68
746.72	1701.86
746.90	1714.15
747.08	1771.49
747.26	1720.29
747.44	1759.21
747.62	1798.12
747.80	1724.39
747.98	1689.57
748.15	1791.97
748.33	1804.26
748.51	1699.81
748.69	1712.10
748.87	1654.76
749.05	1667.05
749.23	1710.05
749.41	1767.40
749.59	1652.71
749.77	1763.30
749.95	1693.67
750.13	1679.33
750.31	1804.26
750.49	1665.00
750.67	1730.53
750.85	1832.93
751.03	1738.73
751.20	1802.21
751.38	1693.67
751.56	1683.43
751.74	1755.11
751.92	1708.01
752.10	1626.09
752.28	1765.35
752.46	1681.38
752.64	1714.15
752.82	1712.10
753.00	1771.49
753.18	1720.29
753.35	1685.48
753.53	1652.71
753.71	1626.09
753.89	1755.11
754.07	1765.35
754.25	1763.30
754.43	1751.01
754.61	1660.90
754.79	1710.05
754.97	1818.60
755.14	1820.64
755.32	1665.00
755.50	1667.05
755.68	1781.73
755.86	1693.67
756.04	1665.00
756.22	1658.85
756.40	1716.20
756.57	1871.84
756.75	1695.72
756.93	1810.40
757.11	1693.67
757.29	1615.85
757.47	1714.15
757.65	1738.73
757.82	1636.33
758.00	1689.57
758.18	1746.92
758.36	1685.48
758.54	1753.06
758.72	1697.77
758.90	1816.55
759.07	1693.67
759.25	1683.43
759.43	1714.15
759.61	1673.19
759.79	2303.96
759.97	1751.01
760.15	1703.91
760.32	1628.14
760.50	1662.95
760.68	1789.92
760.86	1665.00
761.04	1789.92
761.22	1724.39
761.39	1832.93
761.57	1724.39
761.75	1693.67
761.93	1804.26
762.11	1703.91
762.28	1783.78
762.46	1665.00
762.64	1755.11
762.82	1705.96
763.00	1726.44
763.18	1724.39
763.35	1697.77
763.53	1691.62
763.71	1748.97
763.89	1681.38
764.07	1675.24
764.24	1699.81
764.42	1779.68
764.60	1722.34
764.78	1796.07
764.96	1724.39
765.13	1796.07
765.31	1675.24
765.49	1724.39
765.67	1646.57
765.84	1673.19
766.02	1697.77
766.20	1607.66
766.38	1722.34
766.56	1804.26
766.73	1806.31
766.91	1769.44
767.09	1787.88
767.27	1740.77
767.44	1644.52
767.62	1791.97
767.80	1720.29
767.98	1675.24
768.15	1716.20
768.33	1775.59
768.51	1753.06
768.69	1804.26
768.87	1757.16
769.04	1705.96
769.22	1886.18
769.40	1742.82
769.58	1869.80
769.75	1820.64
769.93	1800.16
770.11	1703.91
770.28	1658.85
770.46	1693.67
770.64	1734.63
770.82	1640.42
770.99	1689.57
771.17	1689.57
771.35	1681.38
771.53	1769.44
771.70	1652.71
771.88	1687.53
772.06	1671.14
772.23	1763.30
772.41	1753.06
772.59	1697.77
772.77	1658.85
772.94	1667.05
773.12	1787.88
773.30	1728.49
773.47	1785.83
773.65	1687.53
773.83	1845.22
774.01	1724.39
774.18	1609.70
774.36	1687.53
774.54	1636.33
774.71	1767.40
774.89	1599.46
775.07	1669.09
775.24	1679.33
775.42	1683.43
775.60	1873.89
775.78	1816.55
775.95	1634.28
776.13	1605.61
776.31	1568.74
776.48	1730.53
776.66	1755.11
776.84	1687.53
777.01	1683.43
777.19	1660.90
777.37	1693.67
777.54	1800.16
777.72	1837.03
777.90	1734.63
778.07	1697.77
778.25	1869.80
778.43	1779.68
778.60	1646.57
778.78	1812.45
778.96	1816.55
779.13	1640.42
779.31	1751.01
779.49	1689.57
779.66	1796.07
779.84	1740.77
780.01	1650.66
780.19	1624.04
780.37	1796.07
780.54	1736.68
780.72	1671.14
780.90	1671.14
781.07	1773.54
781.25	1671.14
781.43	1744.87
781.60	1736.68
781.78	1800.16
781.95	1757.16
782.13	1685.48
782.31	1695.72
782.48	1583.08
782.66	1699.81
782.83	1837.03
783.01	1763.30
783.19	1853.41
783.36	1714.15
783.54	1630.18
783.72	1697.77
783.89	1677.29
784.07	1732.58
784.24	1658.85
784.42	1830.88
784.60	1742.82
784.77	1771.49
784.95	1603.56
785.12	1603.56
785.30	1728.49
785.47	1675.24
785.65	1720.29
785.83	1691.62
786.00	1761.25
786.18	1716.20
786.35	1681.38
786.53	1720.29
786.71	1722.34
786.88	1687.53
787.06	1687.53
787.23	1689.57
787.41	1695.72
787.58	1662.95
787.76	1714.15
787.94	1726.44
788.11	1710.05
788.29	1658.85
788.46	1667.05
788.64	1642.47
788.81	1718.25
788.99	1740.77
789.16	1660.90
789.34	1720.29
789.52	1724.39
789.69	1656.81
789.87	1568.74
790.04	1660.90
790.22	1687.53
790.39	1826.79
790.57	1656.81
790.74	1740.77
790.92	1728.49
791.09	1613.80
791.27	1748.97
791.44	1810.40
791.62	1746.92
791.79	1712.10
791.97	1665.00
792.15	1902.56
792.32	1708.01
792.50	1734.63
792.67	1785.83
792.85	1785.83
793.02	1695.72
793.20	1615.85
793.37	1662.95
793.55	1714.15
793.72	1644.52
793.90	1685.48
794.07	1718.25
794.25	1646.57
794.42	1652.71
794.60	1736.68
794.77	1673.19
794.95	1787.88
795.12	1753.06
795.30	1652.71
795.47	1658.85
795.65	1941.47
795.82	1726.44
796.00	1677.29
796.17	1730.53
796.34	1656.81
796.52	1740.77
796.69	1742.82
796.87	1722.34
797.04	1765.35
797.22	1812.45
797.39	1712.10
797.57	1771.49
797.74	1775.59
797.92	1732.58
798.09	1714.15
798.27	1683.43
798.44	1751.01
798.62	1708.01
798.79	1761.25
798.96	1701.86
799.14	1703.91
799.31	1830.88
799.49	1681.38
799.66	1652.71
799.84	1769.44
800.01	1671.14
800.19	1744.87
800.36	1607.66
800.53	1751.01
800.71	1730.53
800.88	1808.36
801.06	1710.05
801.23	1708.01
801.41	1701.86
801.58	1669.09
801.75	1636.33
801.93	1689.57
802.10	1771.49
802.28	1708.01
802.45	1675.24
802.63	1759.21
802.80	1822.69
802.97	1746.92
803.15	1667.05
803.32	1761.25
803.50	1683.43
803.67	1683.43
803.84	1673.19
804.02	1783.78
804.19	1710.05
804.37	1587.18
804.54	1644.52
804.71	1765.35
804.89	1738.73
805.06	1644.52
805.24	1658.85
805.41	1656.81
805.58	1660.90
805.76	1916.90
805.93	1695.72
806.10	1863.65
806.28	1677.29
806.45	1748.97
806.63	1751.01
806.80	1724.39
806.97	1681.38
807.15	1671.14
807.32	1742.82
807.49	1730.53
807.67	1675.24
807.84	1708.01
808.01	1642.47
808.19	1794.02
808.36	1906.66
808.54	1677.29
808.71	1699.81
808.88	1775.59
809.06	1681.38
809.23	1882.08
809.40	1609.70
809.58	1746.92
809.75	1765.35
809.92	1626.09
810.10	1826.79
810.27	1742.82
810.44	1759.21
810.62	1787.88
810.79	1763.30
810.96	1609.70
811.14	1667.05
811.31	1712.10
811.48	1748.97
811.66	1607.66
811.83	1751.01
812.00	1697.77
812.18	1755.11
812.35	1861.60
812.52	1615.85
812.69	1646.57
812.87	1730.53
813.04	1652.71
813.21	1767.40
813.39	1656.81
813.56	1667.05
813.73	1773.54
813.91	1648.61
814.08	1597.42
814.25	1724.39
814.42	1630.18
814.60	1722.34
814.77	1648.61
814.94	1777.64
815.12	1673.19
815.29	1820.64
815.46	1660.90
815.63	1755.11
815.81	1677.29
815.98	1701.86
816.15	1753.06
816.33	1771.49
816.50	1679.33
816.67	1755.11
816.84	1822.69
817.02	1646.57
817.19	1646.57
817.36	1728.49
817.53	1740.77
817.71	1671.14
817.88	1736.68
818.05	1660.90
818.22	1660.90
818.40	1847.27
818.57	1732.58
818.74	1765.35
818.91	1732.58
819.09	1689.57
819.26	1757.16
819.43	1718.25
819.60	1654.76
819.78	1777.64
819.95	1761.25
820.12	1529.83
820.29	1853.41
820.47	1726.44
820.64	1718.25
820.81	1665.00
820.98	1683.43
821.15	1718.25
821.33	1753.06
821.50	1587.18
821.67	1777.64
821.84	1642.47
822.02	1701.86
822.19	1798.12
822.36	1619.94
822.53	1738.73
822.70	1646.57
822.88	1716.20
823.05	1869.80
823.22	1740.77
823.39	1812.45
823.56	1712.10
823.74	1839.08
823.91	1699.81
824.08	1691.62
824.25	1644.52
824.42	1789.92
824.60	1660.90
824.77	1722.34
824.94	1724.39
825.11	1785.83
825.28	1703.91
825.45	1771.49
825.63	1710.05
825.80	1695.72
825.97	1820.64
826.14	1685.48
826.31	1644.52
826.48	1863.65
826.66	1638.38
826.83	1703.91
827.00	1773.54
827.17	1605.61
827.34	1712.10
827.51	1665.00
827.69	1755.11
827.86	1703.91
828.03	1683.43
828.20	1705.96
828.37	1656.81
828.54	1714.15
828.71	1572.84
828.89	1796.07
829.06	1753.06
829.23	1771.49
829.40	1660.90
829.57	1701.86
829.74	1767.40
829.91	1708.01
830.09	1648.61
830.26	1730.53
830.43	1828.84
830.60	1689.57
830.77	1716.20
830.94	1843.17
831.11	1777.64
831.28	1769.44
831.46	1796.07
831.63	1685.48
831.80	1677.29
831.97	1660.90
832.14	1685.48
832.31	1775.59
832.48	1744.87
832.65	1810.40
832.82	1714.15
832.99	1748.97
833.17	1632.23
833.34	1779.68
833.51	1755.11
833.68	1648.61
833.85	1748.97
834.02	1632.23
834.19	1654.76
834.36	1714.15
834.53	1697.77
834.70	1789.92
834.87	1808.36
835.04	1796.07
835.22	1730.53
835.39	1673.19
835.56	1578.98
835.73	1652.71
835.90	1726.44
836.07	1640.42
836.24	1841.12
836.41	1677.29
836.58	1572.84
836.75	1783.78
836.92	1722.34
837.09	1681.38
837.26	1667.05
837.43	1757.16
837.60	1667.05
837.77	1681.38
837.94	1787.88
838.12	1732.58
838.29	1734.63
838.46	1603.56
838.63	1705.96
838.80	1820.64
838.97	1773.54
839.14	1710.05
839.31	1695.72
839.48	1763.30
839.65	1650.66
839.82	1660.90
839.99	1697.77
840.16	1791.97
840.33	1716.20
840.50	1728.49
840.67	1708.01
840.84	1599.46
841.01	1710.05
841.18	1697.77
841.35	1628.14
841.52	1765.35
841.69	1796.07
841.86	1771.49
842.03	1691.62
842.20	1804.26
842.37	1726.44
842.54	1734.63
842.71	1675.24
842.88	1607.66
843.05	1812.45
843.22	1777.64
843.39	1755.11
843.56	1738.73
843.73	1703.91
843.90	1708.01
844.07	1665.00
844.24	1759.21
844.41	1699.81
844.58	1765.35
844.75	1703.91
844.92	1777.64
845.09	1720.29
845.26	1671.14
845.43	1769.44
845.60	1732.58
845.77	1753.06
845.94	1759.21
846.10	1794.02
846.27	1654.76
846.44	1630.18
846.61	1554.41
846.78	1705.96
846.95	1781.73
847.12	1728.49
847.29	1703.91
847.46	1665.00
847.63	1720.29
847.80	1642.47
847.97	1714.15
848.14	1859.56
848.31	1665.00
848.48	1621.99
848.65	1763.30
848.82	1695.72
848.98	1857.51
849.15	1710.05
849.32	1761.25
849.49	1687.53
849.66	1615.85
849.83	1716.20
850.00	1624.04
850.17	1769.44
850.34	1669.09
850.51	1669.09
850.68	1722.34
850.85	1869.80
851.01	1628.14
851.18	1787.88
851.35	1660.90
851.52	1687.53
851.69	1755.11
851.86	1648.61
852.03	1687.53
852.20	1742.82
852.37	1693.67
852.53	1595.37
852.70	1687.53
852.87	1769.44
853.04	1839.08
853.21	1783.78
853.38	1871.84
853.55	1730.53
853.72	1738.73
853.89	1701.86
854.05	1611.75
854.22	1644.52
854.39	1728.49
854.56	1785.83
854.73	1746.92
854.90	1675.24
855.07	1716.20
855.23	1648.61
855.40	1662.95
855.57	1697.77
855.74	1640.42
855.91	1902.56
856.08	1705.96
856.25	1652.71
856.41	1689.57
856.58	1695.72
856.75	1740.77
856.92	1599.46
857.09	1789.92
857.26	1576.94
857.42	1730.53
857.59	1712.10
857.76	1738.73
857.93	1812.45
858.10	1806.31
858.27	1628.14
858.43	1728.49
858.60	1617.90
858.77	1656.81
858.94	1621.99
859.11	1763.30
859.27	1773.54
859.44	1740.77
859.61	1826.79
859.78	1722.34
859.95	1632.23
860.12	1673.19
860.28	1800.16
860.45	1830.88
860.62	1718.25
860.79	1716.20
860.95	1675.24
861.12	1714.15
861.29	1751.01
861.46	1673.19
861.63	1671.14
861.79	1714.15
861.96	1656.81
862.13	1648.61
862.30	1779.68
862.47	1558.50
862.63	1703.91
862.80	1746.92
862.97	1748.97
863.14	1703.91
863.30	1714.15
863.47	1716.20
863.64	1859.56
863.81	1748.97
863.97	1644.52
864.14	1738.73
864.31	1716.20
864.48	1673.19
864.65	1656.81
864.81	1779.68
864.98	1746.92
865.15	1769.44
865.32	1859.56
865.48	1791.97
865.65	1808.36
865.82	1703.91
865.98	1718.25
866.15	1798.12
866.32	1665.00
866.49	1640.42
866.65	1742.82
866.82	1677.29
866.99	1675.24
867.16	1679.33
867.32	1656.81
867.49	1746.92
867.66	1744.87
867.83	1699.81
867.99	1658.85
868.16	1673.19
868.33	1710.05
868.49	1730.53
868.66	1648.61
868.83	1695.72
868.99	1697.77
869.16	1611.75
869.33	1769.44
869.50	1820.64
869.66	1736.68
869.83	1734.63
870.00	1636.33
870.16	1794.02
870.33	1705.96
870.50	1748.97
870.66	1685.48
870.83	1806.31
871.00	1726.44
871.17	1728.49
871.33	1767.40
871.50	1662.95
871.67	1701.86
871.83	1593.32
872.00	1847.27
872.17	1660.90
872.33	1791.97
872.50	1771.49
872.67	1687.53
872.83	1738.73
873.00	1714.15
873.17	1716.20
873.33	1761.25
873.50	1791.97
873.67	1718.25
873.83	1640.42
874.00	1744.87
874.16	1779.68
874.33	1779.68
874.50	1597.42
874.66	1665.00
874.83	1748.97
875.00	1689.57
875.16	1736.68
875.33	1710.05
875.50	1554.41
875.66	1611.75
875.83	1751.01
875.99	1808.36
876.16	1691.62
876.33	1716.20
876.49	1683.43
876.66	1767.40
876.83	1755.11
876.99	1677.29
877.16	1746.92
877.32	1652.71
877.49	1714.15
877.66	1708.01
877.82	1767.40
877.99	1751.01
878.15	1740.77
878.32	1720.29
878.49	1699.81
878.65	1689.57
878.82	1724.39
878.98	1648.61
879.15	1746.92
879.32	1761.25
879.48	1722.34
879.65	1722.34
879.81	1708.01
879.98	1701.86
880.15	1677.29
880.31	1820.64
880.48	1656.81
880.64	1779.68
880.81	1705.96
880.97	1789.92
881.14	1765.35
881.31	1689.57
881.47	1857.51
881.64	1728.49
881.80	1595.37
881.97	1693.67
882.13	1796.07
882.30	1615.85
882.47	1798.12
882.63	1720.29
882.80	1634.28
882.96	1689.57
883.13	1746.92
883.29	1636.33
883.46	1753.06
883.62	1853.41
883.79	1751.01
883.95	1773.54
884.12	1722.34
884.29	1783.78
884.45	1712.10
884.62	1740.77
884.78	1583.08
884.95	1683.43
885.11	1683.43
885.28	1759.21
885.44	1728.49
885.61	1677.29
885.77	1763.30
885.94	1714.15
886.10	1689.57
886.27	1660.90
886.43	1751.01
886.60	1720.29
886.76	1734.63
886.93	1619.94
887.09	1722.34
887.26	1638.38
887.42	1753.06
887.59	1716.20
887.75	1888.23
887.92	1845.22
888.08	1759.21
888.25	1806.31
888.41	1759.21
888.58	1642.47
888.74	1648.61
888.91	1656.81
>>>>>End Processed Spectral Data<<<<<
