SpectraSuite Data File
++++++++++++++++++++++++++++++++++++
Date: Mon Jun 06 17:35:57 CEST 2016
User: root
Dark Spectrum Present: No
Reference Spectrum Present: No
Number of Sampled Component Spectra: 1
Spectrometers: USB4C02835
Integration Time (usec): 100000 (USB4C02835)
Spectra Averaged: 1 (USB4C02835)
Boxcar Smoothing: 0 (USB4C02835)
Correct for Electrical Dark: No (USB4C02835)
Strobe/Lamp Enabled: No (USB4C02835)
Correct for Detector Non-linearity: No (USB4C02835)
Correct for Stray Light: No (USB4C02835)
Number of Pixels in Processed Spectrum: 3648
>>>>>Begin Processed Spectral Data<<<<<
177.47	1484.78
177.69	1484.78
177.91	1484.78
178.13	1492.97
178.36	1513.45
178.58	1722.34
178.80	1779.68
179.02	1593.32
179.24	1634.28
179.46	1730.53
179.68	1746.92
179.90	1732.58
180.13	1710.05
180.35	1638.38
180.57	1746.92
180.79	1724.39
181.01	1718.25
181.23	1759.21
181.45	1880.04
181.67	1783.78
181.90	1853.41
182.12	1693.67
182.34	1644.52
182.56	1746.92
182.78	1644.52
183.00	1705.96
183.22	1738.73
183.44	1673.19
183.66	1847.27
183.89	1746.92
184.11	1740.77
184.33	1751.01
184.55	1804.26
184.77	1771.49
184.99	1773.54
185.21	1720.29
185.43	1746.92
185.65	1677.29
185.87	1689.57
186.10	1798.12
186.32	1814.50
186.54	1675.24
186.76	1763.30
186.98	1730.53
187.20	1722.34
187.42	1640.42
187.64	1722.34
187.86	1761.25
188.08	1699.81
188.30	1722.34
188.52	1748.97
188.75	1742.82
188.97	1791.97
189.19	1679.33
189.41	1687.53
189.63	1767.40
189.85	1724.39
190.07	1609.70
190.29	1660.90
190.51	1806.31
190.73	1650.66
190.95	1834.98
191.17	1720.29
191.39	1626.09
191.61	1644.52
191.84	1683.43
192.06	1791.97
192.28	1613.80
192.50	1820.64
192.72	1734.63
192.94	1658.85
193.16	1810.40
193.38	1697.77
193.60	1726.44
193.82	1714.15
194.04	1804.26
194.26	1755.11
194.48	1712.10
194.70	1652.71
194.92	1611.75
195.14	1791.97
195.36	1718.25
195.58	1708.01
195.80	1726.44
196.02	1718.25
196.24	1763.30
196.46	1730.53
196.69	1705.96
196.91	1837.03
197.13	1716.20
197.35	1693.67
197.57	1798.12
197.79	1724.39
198.01	1673.19
198.23	1775.59
198.45	1757.16
198.67	1652.71
198.89	1734.63
199.11	1783.78
199.33	1634.28
199.55	1560.55
199.77	1669.09
199.99	1769.44
200.21	1697.77
200.43	1742.82
200.65	1624.04
200.87	1585.13
201.09	1763.30
201.31	1767.40
201.53	1751.01
201.75	1652.71
201.97	1755.11
202.19	1730.53
202.41	1708.01
202.63	1818.60
202.85	1673.19
203.07	1705.96
203.29	1726.44
203.51	1615.85
203.73	1699.81
203.95	1832.93
204.17	1759.21
204.39	1769.44
204.61	1691.62
204.83	1695.72
205.05	1857.51
205.27	1753.06
205.49	1828.84
205.71	1748.97
205.93	1634.28
206.15	1656.81
206.37	1742.82
206.59	1742.82
206.81	1611.75
207.03	1673.19
207.25	1654.76
207.47	1724.39
207.69	1771.49
207.91	1691.62
208.13	1734.63
208.34	1626.09
208.56	1652.71
208.78	1779.68
209.00	1669.09
209.22	1736.68
209.44	1767.40
209.66	1744.87
209.88	1718.25
210.10	1683.43
210.32	1744.87
210.54	1779.68
210.76	1640.42
210.98	1814.50
211.20	1599.46
211.42	1742.82
211.64	1744.87
211.86	1697.77
212.08	1767.40
212.30	1681.38
212.52	1693.67
212.74	1730.53
212.96	1689.57
213.17	1734.63
213.39	1648.61
213.61	1769.44
213.83	1767.40
214.05	1660.90
214.27	1705.96
214.49	1640.42
214.71	1681.38
214.93	1755.11
215.15	1675.24
215.37	1718.25
215.59	1708.01
215.81	1746.92
216.03	1816.55
216.24	1769.44
216.46	1753.06
216.68	1742.82
216.90	1777.64
217.12	1822.69
217.34	1798.12
217.56	1708.01
217.78	1806.31
218.00	1728.49
218.22	1734.63
218.44	1783.78
218.66	1689.57
218.87	1845.22
219.09	1769.44
219.31	1632.23
219.53	1708.01
219.75	1691.62
219.97	1720.29
220.19	1734.63
220.41	1748.97
220.63	1765.35
220.85	1753.06
221.06	1691.62
221.28	1816.55
221.50	1748.97
221.72	1718.25
221.94	1671.14
222.16	1656.81
222.38	1753.06
222.60	1796.07
222.82	1660.90
223.03	1748.97
223.25	1640.42
223.47	1646.57
223.69	1781.73
223.91	1773.54
224.13	1716.20
224.35	1787.88
224.57	1810.40
224.78	1703.91
225.00	1644.52
225.22	1693.67
225.44	1736.68
225.66	1722.34
225.88	1701.86
226.10	1744.87
226.32	1779.68
226.53	1796.07
226.75	1681.38
226.97	1710.05
227.19	1708.01
227.41	1728.49
227.63	1699.81
227.85	1699.81
228.06	1746.92
228.28	1746.92
228.50	1775.59
228.72	1603.56
228.94	1632.23
229.16	1624.04
229.37	1634.28
229.59	1662.95
229.81	1802.21
230.03	1699.81
230.25	1654.76
230.47	1630.18
230.69	1564.65
230.90	1804.26
231.12	1683.43
231.34	1783.78
231.56	1744.87
231.78	1714.15
232.00	1712.10
232.21	1755.11
232.43	1638.38
232.65	1658.85
232.87	1708.01
233.09	1687.53
233.30	1671.14
233.52	1748.97
233.74	1640.42
233.96	1701.86
234.18	1767.40
234.40	1665.00
234.61	1830.88
234.83	1626.09
235.05	1566.70
235.27	1800.16
235.49	1837.03
235.70	1712.10
235.92	1773.54
236.14	1781.73
236.36	1839.08
236.58	1613.80
236.79	1773.54
237.01	1730.53
237.23	1714.15
237.45	1828.84
237.67	1640.42
237.88	1681.38
238.10	1865.70
238.32	1634.28
238.54	1740.77
238.76	1689.57
238.97	1701.86
239.19	1609.70
239.41	1765.35
239.63	1740.77
239.85	1669.09
240.06	1667.05
240.28	1712.10
240.50	1734.63
240.72	1769.44
240.93	1689.57
241.15	1761.25
241.37	1726.44
241.59	1714.15
241.81	1705.96
242.02	1669.09
242.24	1689.57
242.46	1789.92
242.68	1658.85
242.89	1773.54
243.11	1820.64
243.33	1765.35
243.55	1722.34
243.76	1751.01
243.98	1613.80
244.20	1753.06
244.42	1724.39
244.64	1742.82
244.85	1679.33
245.07	1675.24
245.29	1783.78
245.51	1712.10
245.72	1679.33
245.94	1712.10
246.16	1763.30
246.38	1736.68
246.59	1652.71
246.81	1703.91
247.03	1777.64
247.24	1632.23
247.46	1693.67
247.68	1732.58
247.90	1673.19
248.11	1695.72
248.33	1751.01
248.55	1736.68
248.77	1763.30
248.98	1738.73
249.20	1837.03
249.42	1732.58
249.64	1771.49
249.85	1722.34
250.07	1650.66
250.29	1757.16
250.50	1767.40
250.72	1607.66
250.94	1808.36
251.16	1826.79
251.37	1800.16
251.59	1730.53
251.81	1679.33
252.02	1767.40
252.24	1671.14
252.46	1789.92
252.68	1667.05
252.89	1667.05
253.11	1619.94
253.33	1849.32
253.54	1763.30
253.76	1677.29
253.98	1628.14
254.20	1683.43
254.41	1595.37
254.63	1765.35
254.85	1632.23
255.06	1699.81
255.28	1769.44
255.50	1617.90
255.71	1683.43
255.93	1638.38
256.15	1773.54
256.36	1716.20
256.58	1665.00
256.80	1771.49
257.02	1689.57
257.23	1703.91
257.45	1773.54
257.67	1740.77
257.88	1677.29
258.10	1742.82
258.32	1652.71
258.53	1714.15
258.75	1810.40
258.97	1669.09
259.18	1718.25
259.40	1716.20
259.62	1777.64
259.83	1779.68
260.05	1783.78
260.27	2000.87
260.48	1886.18
260.70	1619.94
260.92	1714.15
261.13	1710.05
261.35	1794.02
261.57	1742.82
261.78	1607.66
262.00	1669.09
262.22	1732.58
262.43	1665.00
262.65	1734.63
262.86	1726.44
263.08	1859.56
263.30	1718.25
263.51	1607.66
263.73	1648.61
263.95	1763.30
264.16	1660.90
264.38	1611.75
264.60	1761.25
264.81	1697.77
265.03	1802.21
265.25	1806.31
265.46	1769.44
265.68	1785.83
265.89	1720.29
266.11	1693.67
266.33	1730.53
266.54	1765.35
266.76	1800.16
266.98	1761.25
267.19	1796.07
267.41	1732.58
267.62	1681.38
267.84	1591.27
268.06	1791.97
268.27	1630.18
268.49	1765.35
268.70	1783.78
268.92	1738.73
269.14	1656.81
269.35	1578.98
269.57	1673.19
269.79	1746.92
270.00	1691.62
270.22	1820.64
270.43	1658.85
270.65	1593.32
270.87	1773.54
271.08	1744.87
271.30	1705.96
271.51	1720.29
271.73	1693.67
271.95	1798.12
272.16	1730.53
272.38	1789.92
272.59	1689.57
272.81	1736.68
273.02	1728.49
273.24	1724.39
273.46	1779.68
273.67	1617.90
273.89	1708.01
274.10	1708.01
274.32	1816.55
274.54	1779.68
274.75	1730.53
274.97	1689.57
275.18	1783.78
275.40	1689.57
275.61	1703.91
275.83	1708.01
276.05	1642.47
276.26	1689.57
276.48	1685.48
276.69	1691.62
276.91	1708.01
277.12	1705.96
277.34	1814.50
277.55	1767.40
277.77	1724.39
277.99	1718.25
278.20	1648.61
278.42	1660.90
278.63	1658.85
278.85	1646.57
279.06	1656.81
279.28	1746.92
279.49	1734.63
279.71	1712.10
279.93	1742.82
280.14	1763.30
280.36	1660.90
280.57	1763.30
280.79	1748.97
281.00	1667.05
281.22	1601.51
281.43	1787.88
281.65	1544.17
281.86	1656.81
282.08	1714.15
282.29	1818.60
282.51	1589.22
282.73	1691.62
282.94	1597.42
283.16	1732.58
283.37	1800.16
283.59	1716.20
283.80	1712.10
284.02	1730.53
284.23	1744.87
284.45	1677.29
284.66	1638.38
284.88	1730.53
285.09	1757.16
285.31	1800.16
285.52	1763.30
285.74	1544.17
285.95	1849.32
286.17	1714.15
286.38	1716.20
286.60	1640.42
286.81	1685.48
287.03	1730.53
287.24	1695.72
287.46	1767.40
287.67	1732.58
287.89	1837.03
288.10	1716.20
288.32	1767.40
288.53	1777.64
288.75	1796.07
288.96	1744.87
289.18	1667.05
289.39	1660.90
289.61	1787.88
289.82	1820.64
290.04	1830.88
290.25	1640.42
290.47	1742.82
290.68	1695.72
290.90	1806.31
291.11	1648.61
291.33	1757.16
291.54	1677.29
291.76	1738.73
291.97	1669.09
292.18	1763.30
292.40	1679.33
292.61	1726.44
292.83	1812.45
293.04	1777.64
293.26	1728.49
293.47	1634.28
293.69	1701.86
293.90	1701.86
294.12	1769.44
294.33	1708.01
294.55	1679.33
294.76	1773.54
294.97	1804.26
295.19	1841.12
295.40	1617.90
295.62	1781.73
295.83	1759.21
296.05	1662.95
296.26	1794.02
296.48	1738.73
296.69	1736.68
296.90	1699.81
297.12	1757.16
297.33	1746.92
297.55	1716.20
297.76	1791.97
297.98	1800.16
298.19	1740.77
298.41	1734.63
298.62	1679.33
298.83	1871.84
299.05	1726.44
299.26	1638.38
299.48	1648.61
299.69	1662.95
299.90	1779.68
300.12	1718.25
300.33	1812.45
300.55	1691.62
300.76	1761.25
300.98	1628.14
301.19	1769.44
301.40	1644.52
301.62	1708.01
301.83	1746.92
302.05	1761.25
302.26	1724.39
302.47	1736.68
302.69	1540.07
302.90	1644.52
303.12	1576.94
303.33	1791.97
303.54	1820.64
303.76	1759.21
303.97	1757.16
304.19	1845.22
304.40	1691.62
304.61	1691.62
304.83	1814.50
305.04	1796.07
305.26	1730.53
305.47	1679.33
305.68	1755.11
305.90	1665.00
306.11	1861.60
306.33	1742.82
306.54	1675.24
306.75	1765.35
306.97	1675.24
307.18	1693.67
307.39	1619.94
307.61	1751.01
307.82	1640.42
308.04	1685.48
308.25	1665.00
308.46	1791.97
308.68	1724.39
308.89	1767.40
309.10	1753.06
309.32	1765.35
309.53	1689.57
309.74	1773.54
309.96	1755.11
310.17	1771.49
310.39	1697.77
310.60	1765.35
310.81	1726.44
311.03	1691.62
311.24	1753.06
311.45	1767.40
311.67	1785.83
311.88	1687.53
312.09	1736.68
312.31	1718.25
312.52	1738.73
312.73	1726.44
312.95	1652.71
313.16	1726.44
313.37	1785.83
313.59	1783.78
313.80	1740.77
314.01	1789.92
314.23	1667.05
314.44	1718.25
314.65	1693.67
314.87	1685.48
315.08	1675.24
315.29	1691.62
315.51	1652.71
315.72	1671.14
315.93	1810.40
316.15	1828.84
316.36	1673.19
316.57	1624.04
316.79	1753.06
317.00	1675.24
317.21	1771.49
317.43	1730.53
317.64	1689.57
317.85	1748.97
318.07	1656.81
318.28	1712.10
318.49	1837.03
318.70	1945.57
318.92	1861.60
319.13	1804.26
319.34	1839.08
319.56	1837.03
319.77	1785.83
319.98	1812.45
320.20	1804.26
320.41	1763.30
320.62	1796.07
320.83	1626.09
321.05	1818.60
321.26	1755.11
321.47	1689.57
321.69	1828.84
321.90	1656.81
322.11	1685.48
322.32	1685.48
322.54	1789.92
322.75	1753.06
322.96	1742.82
323.18	1652.71
323.39	1595.37
323.60	1669.09
323.81	1697.77
324.03	1697.77
324.24	1732.58
324.45	1705.96
324.66	1714.15
324.88	1808.36
325.09	1779.68
325.30	1783.78
325.52	1742.82
325.73	1744.87
325.94	1759.21
326.15	1554.41
326.37	1742.82
326.58	1808.36
326.79	1837.03
327.00	1669.09
327.22	1765.35
327.43	1630.18
327.64	1673.19
327.85	1757.16
328.07	1732.58
328.28	1806.31
328.49	1687.53
328.70	1775.59
328.92	1697.77
329.13	1683.43
329.34	1695.72
329.55	1800.16
329.76	1767.40
329.98	1720.29
330.19	1804.26
330.40	1785.83
330.61	1773.54
330.83	1742.82
331.04	1705.96
331.25	1726.44
331.46	1621.99
331.68	1697.77
331.89	1814.50
332.10	1662.95
332.31	1644.52
332.52	1699.81
332.74	1808.36
332.95	1687.53
333.16	1722.34
333.37	1787.88
333.58	1699.81
333.80	1697.77
334.01	1656.81
334.22	1712.10
334.43	1691.62
334.64	1751.01
334.86	1636.33
335.07	1683.43
335.28	1808.36
335.49	1611.75
335.70	1755.11
335.92	1822.69
336.13	1845.22
336.34	1769.44
336.55	1718.25
336.76	1712.10
336.98	1615.85
337.19	1742.82
337.40	1839.08
337.61	1861.60
337.82	1714.15
338.04	1734.63
338.25	1656.81
338.46	1701.86
338.67	1783.78
338.88	1683.43
339.09	1603.56
339.31	1687.53
339.52	1685.48
339.73	1648.61
339.94	1667.05
340.15	1734.63
340.36	1644.52
340.58	1726.44
340.79	1724.39
341.00	1753.06
341.21	1630.18
341.42	1826.79
341.63	1662.95
341.85	1738.73
342.06	1683.43
342.27	1697.77
342.48	1710.05
342.69	1726.44
342.90	1726.44
343.12	1755.11
343.33	1642.47
343.54	1791.97
343.75	1783.78
343.96	1740.77
344.17	1613.80
344.38	1730.53
344.60	1658.85
344.81	1642.47
345.02	1732.58
345.23	1773.54
345.44	1802.21
345.65	1728.49
345.86	1755.11
346.07	1667.05
346.29	1740.77
346.50	1718.25
346.71	1695.72
346.92	1757.16
347.13	1873.89
347.34	1693.67
347.55	1773.54
347.76	1806.31
347.98	1587.18
348.19	1628.14
348.40	1767.40
348.61	1748.97
348.82	1861.60
349.03	1824.74
349.24	1716.20
349.45	1849.32
349.66	1638.38
349.88	1705.96
350.09	1703.91
350.30	1841.12
350.51	1812.45
350.72	1787.88
350.93	1689.57
351.14	1650.66
351.35	1722.34
351.56	1724.39
351.77	1650.66
351.99	1687.53
352.20	1804.26
352.41	1759.21
352.62	1558.50
352.83	1734.63
353.04	1648.61
353.25	1679.33
353.46	1798.12
353.67	1718.25
353.88	1597.42
354.09	1779.68
354.30	1742.82
354.52	1785.83
354.73	1699.81
354.94	1724.39
355.15	1683.43
355.36	1781.73
355.57	1626.09
355.78	1781.73
355.99	1683.43
356.20	1705.96
356.41	1798.12
356.62	1701.86
356.83	1679.33
357.04	1814.50
357.25	1632.23
357.46	1718.25
357.68	1624.04
357.89	1681.38
358.10	1714.15
358.31	1767.40
358.52	1779.68
358.73	1693.67
358.94	1681.38
359.15	1619.94
359.36	1759.21
359.57	1740.77
359.78	1775.59
359.99	1648.61
360.20	1708.01
360.41	1751.01
360.62	1675.24
360.83	1759.21
361.04	1695.72
361.25	1751.01
361.46	1783.78
361.67	1791.97
361.88	1751.01
362.09	1751.01
362.30	1746.92
362.51	1652.71
362.72	1679.33
362.93	1781.73
363.14	1722.34
363.35	1673.19
363.56	1669.09
363.78	1761.25
363.99	1794.02
364.20	1677.29
364.41	1714.15
364.62	1863.65
364.83	1738.73
365.04	1808.36
365.25	1730.53
365.46	1873.89
365.67	1609.70
365.88	1640.42
366.09	1699.81
366.30	1679.33
366.51	1732.58
366.72	1632.23
366.93	1654.76
367.14	1771.49
367.35	1701.86
367.56	1718.25
367.77	1810.40
367.98	1738.73
368.18	1710.05
368.39	1820.64
368.60	1714.15
368.81	1802.21
369.02	1679.33
369.23	1695.72
369.44	1658.85
369.65	1681.38
369.86	1783.78
370.07	1726.44
370.28	1742.82
370.49	1708.01
370.70	1859.56
370.91	1619.94
371.12	1589.22
371.33	1789.92
371.54	1716.20
371.75	1812.45
371.96	1648.61
372.17	1734.63
372.38	1685.48
372.59	1732.58
372.80	1673.19
373.01	1677.29
373.22	1699.81
373.43	1722.34
373.64	1689.57
373.85	1804.26
374.06	1812.45
374.26	1724.39
374.47	1763.30
374.68	1734.63
374.89	1738.73
375.10	1632.23
375.31	1814.50
375.52	1675.24
375.73	1699.81
375.94	1621.99
376.15	1796.07
376.36	1699.81
376.57	1703.91
376.78	1699.81
376.99	1767.40
377.20	1826.79
377.40	1642.47
377.61	1789.92
377.82	1693.67
378.03	1794.02
378.24	1796.07
378.45	1734.63
378.66	1687.53
378.87	1628.14
379.08	1626.09
379.29	1662.95
379.50	1742.82
379.71	1656.81
379.91	1783.78
380.12	1705.96
380.33	1736.68
380.54	1714.15
380.75	1800.16
380.96	1673.19
381.17	1810.40
381.38	1769.44
381.59	1695.72
381.80	1716.20
382.00	1841.12
382.21	1740.77
382.42	1880.04
382.63	1931.23
382.84	1779.68
383.05	1728.49
383.26	1824.74
383.47	1794.02
383.68	1783.78
383.88	1742.82
384.09	1675.24
384.30	1812.45
384.51	1763.30
384.72	1650.66
384.93	1665.00
385.14	1781.73
385.35	1834.98
385.55	1626.09
385.76	1845.22
385.97	1757.16
386.18	1681.38
386.39	1710.05
386.60	1687.53
386.81	1722.34
387.02	1763.30
387.22	1683.43
387.43	1767.40
387.64	1720.29
387.85	1849.32
388.06	2199.52
388.27	4153.28
388.48	6627.23
388.68	8023.94
388.89	9500.53
389.10	9650.03
389.31	8660.86
389.52	7487.37
389.73	6713.24
389.93	6174.63
390.14	5816.23
390.35	5226.42
390.56	4638.65
390.77	3731.40
390.98	3033.04
391.18	2596.82
391.39	2103.26
391.60	1888.23
391.81	1841.12
392.02	1769.44
392.23	1935.33
392.43	1705.96
392.64	1896.42
392.85	1791.97
393.06	1832.93
393.27	1724.39
393.47	1669.09
393.68	1796.07
393.89	1658.85
394.10	1853.41
394.31	1742.82
394.52	1658.85
394.72	1681.38
394.93	1845.22
395.14	1732.58
395.35	1771.49
395.56	1753.06
395.76	1746.92
395.97	1814.50
396.18	1851.36
396.39	1816.55
396.60	1990.63
396.80	1849.32
397.01	1916.90
397.22	1832.93
397.43	1845.22
397.64	1693.67
397.84	1814.50
398.05	1902.56
398.26	1796.07
398.47	1804.26
398.67	1652.71
398.88	1767.40
399.09	1714.15
399.30	1662.95
399.51	1824.74
399.71	1673.19
399.92	1724.39
400.13	1755.11
400.34	1738.73
400.54	1681.38
400.75	1826.79
400.96	1683.43
401.17	1869.80
401.37	1724.39
401.58	1667.05
401.79	1730.53
402.00	1914.85
402.21	2070.50
402.41	1998.82
402.62	1927.14
402.83	2017.25
403.04	2000.87
403.24	2070.50
403.45	1888.23
403.66	2052.06
403.87	1839.08
404.07	1912.80
404.28	1988.58
404.49	1849.32
404.70	1755.11
404.90	1830.88
405.11	1806.31
405.32	1816.55
405.52	1671.14
405.73	1648.61
405.94	1626.09
406.15	1687.53
406.35	1732.58
406.56	1822.69
406.77	1746.92
406.98	1738.73
407.18	1632.23
407.39	1810.40
407.60	1693.67
407.80	1738.73
408.01	1644.52
408.22	1734.63
408.43	1730.53
408.63	1708.01
408.84	1812.45
409.05	1759.21
409.25	1697.77
409.46	1722.34
409.67	1687.53
409.88	1638.38
410.08	1769.44
410.29	1679.33
410.50	1800.16
410.70	1738.73
410.91	1636.33
411.12	1722.34
411.32	1710.05
411.53	1716.20
411.74	1824.74
411.95	1824.74
412.15	1824.74
412.36	1804.26
412.57	1837.03
412.77	1796.07
412.98	1722.34
413.19	1722.34
413.39	1708.01
413.60	1814.50
413.81	1847.27
414.01	1724.39
414.22	1734.63
414.43	1755.11
414.63	1679.33
414.84	1810.40
415.05	1697.77
415.25	1605.61
415.46	1761.25
415.67	1720.29
415.87	1781.73
416.08	1681.38
416.29	1746.92
416.49	1796.07
416.70	1712.10
416.91	1640.42
417.11	1746.92
417.32	1800.16
417.53	1761.25
417.73	1708.01
417.94	1679.33
418.15	1736.68
418.35	1714.15
418.56	1771.49
418.77	1851.36
418.97	1642.47
419.18	1683.43
419.38	1617.90
419.59	1771.49
419.80	1830.88
420.00	1667.05
420.21	1712.10
420.42	1742.82
420.62	1787.88
420.83	1656.81
421.04	1742.82
421.24	1738.73
421.45	1804.26
421.65	1802.21
421.86	1673.19
422.07	1748.97
422.27	1818.60
422.48	1781.73
422.69	1726.44
422.89	1695.72
423.10	1728.49
423.30	1644.52
423.51	1773.54
423.72	1732.58
423.92	1748.97
424.13	1701.86
424.33	1703.91
424.54	1812.45
424.75	1679.33
424.95	1746.92
425.16	1812.45
425.36	1724.39
425.57	1736.68
425.78	1746.92
425.98	1724.39
426.19	1685.48
426.39	1675.24
426.60	1722.34
426.81	1701.86
427.01	1759.21
427.22	1681.38
427.42	1652.71
427.63	1726.44
427.83	1771.49
428.04	1796.07
428.25	1857.51
428.45	1808.36
428.66	1767.40
428.86	1699.81
429.07	1628.14
429.28	1705.96
429.48	1710.05
429.69	1630.18
429.89	1677.29
430.10	1591.27
430.30	1761.25
430.51	1828.84
430.71	1724.39
430.92	1748.97
431.13	1697.77
431.33	1781.73
431.54	1734.63
431.74	1808.36
431.95	1837.03
432.15	1652.71
432.36	1742.82
432.56	1736.68
432.77	1834.98
432.98	1837.03
433.18	1742.82
433.39	1779.68
433.59	1667.05
433.80	1802.21
434.00	1939.43
434.21	1730.53
434.41	1683.43
434.62	1920.99
434.82	1648.61
435.03	1650.66
435.23	1751.01
435.44	1648.61
435.64	1875.94
435.85	1755.11
436.06	1843.17
436.26	1787.88
436.47	1695.72
436.67	1685.48
436.88	1722.34
437.08	1720.29
437.29	1824.74
437.49	1748.97
437.70	1796.07
437.90	1785.83
438.11	1837.03
438.31	1779.68
438.52	1927.14
438.72	1865.70
438.93	1914.85
439.13	1783.78
439.34	1859.56
439.54	1708.01
439.75	1814.50
439.95	1759.21
440.16	1738.73
440.36	1822.69
440.57	1759.21
440.77	1814.50
440.98	1685.48
441.18	1753.06
441.39	1734.63
441.59	1705.96
441.80	1796.07
442.00	1701.86
442.21	1787.88
442.41	1628.14
442.62	1812.45
442.82	1744.87
443.02	1798.12
443.23	1757.16
443.43	1775.59
443.64	1804.26
443.84	1695.72
444.05	1802.21
444.25	1757.16
444.46	1714.15
444.66	1804.26
444.87	1834.98
445.07	1701.86
445.28	1748.97
445.48	1703.91
445.69	1771.49
445.89	1908.71
446.09	1777.64
446.30	2039.78
446.50	2645.98
446.71	3729.35
446.91	4313.02
447.12	4759.48
447.32	4794.29
447.53	4374.46
447.73	3925.96
447.93	3583.95
448.14	3289.04
448.34	3295.18
448.55	2914.26
448.75	2750.42
448.96	2760.66
449.16	2418.65
449.36	2271.20
449.57	2031.58
449.77	1955.81
449.98	1755.11
450.18	1847.27
450.39	1839.08
450.59	1761.25
450.79	1748.97
451.00	1720.29
451.20	1837.03
451.41	1730.53
451.61	1783.78
451.81	1736.68
452.02	1716.20
452.22	1730.53
452.43	1726.44
452.63	1761.25
452.84	1796.07
453.04	1724.39
453.24	1736.68
453.45	1693.67
453.65	1744.87
453.86	1798.12
454.06	1802.21
454.26	1828.84
454.47	1654.76
454.67	1841.12
454.87	1832.93
455.08	1773.54
455.28	1808.36
455.49	1808.36
455.69	1718.25
455.89	1900.52
456.10	1832.93
456.30	1753.06
456.51	1763.30
456.71	1748.97
456.91	1765.35
457.12	1736.68
457.32	1781.73
457.52	1708.01
457.73	1787.88
457.93	1748.97
458.14	1759.21
458.34	1691.62
458.54	1802.21
458.75	1716.20
458.95	1769.44
459.15	1716.20
459.36	1779.68
459.56	1773.54
459.76	1951.71
459.97	1771.49
460.17	1738.73
460.37	1802.21
460.58	1759.21
460.78	1732.58
460.99	1675.24
461.19	1785.83
461.39	1732.58
461.60	1736.68
461.80	1779.68
462.00	1667.05
462.21	1806.31
462.41	1673.19
462.61	1724.39
462.82	1601.51
463.02	1730.53
463.22	1740.77
463.43	1863.65
463.63	1718.25
463.83	1785.83
464.04	1806.31
464.24	1746.92
464.44	1693.67
464.64	1728.49
464.85	1765.35
465.05	1763.30
465.25	1720.29
465.46	1714.15
465.66	1763.30
465.86	1812.45
466.07	1824.74
466.27	1785.83
466.47	1636.33
466.68	1683.43
466.88	1777.64
467.08	1751.01
467.29	1837.03
467.49	1732.58
467.69	1787.88
467.89	1751.01
468.10	1755.11
468.30	1652.71
468.50	1810.40
468.71	1757.16
468.91	1636.33
469.11	1875.94
469.31	1677.29
469.52	1689.57
469.72	1828.84
469.92	1884.13
470.13	1734.63
470.33	1763.30
470.53	1873.89
470.73	2076.64
470.94	2320.35
471.14	2324.44
471.34	2473.95
471.54	2447.32
471.75	2316.25
471.95	2142.18
472.15	2140.13
472.36	2117.60
472.56	2125.79
472.76	2133.98
472.96	1978.34
473.17	1927.14
473.37	1933.28
473.57	1814.50
473.77	1808.36
473.98	1785.83
474.18	1765.35
474.38	1920.99
474.58	1697.77
474.79	1757.16
474.99	1751.01
475.19	1722.34
475.39	1669.09
475.60	1800.16
475.80	1705.96
476.00	1734.63
476.20	1712.10
476.41	1861.60
476.61	1900.52
476.81	1826.79
477.01	1708.01
477.21	1914.85
477.42	1789.92
477.62	1677.29
477.82	1806.31
478.02	1685.48
478.23	1869.80
478.43	1695.72
478.63	1689.57
478.83	1740.77
479.03	1755.11
479.24	1845.22
479.44	1834.98
479.64	1695.72
479.84	1574.89
480.04	1695.72
480.25	1734.63
480.45	1751.01
480.65	1712.10
480.85	1818.60
481.06	1705.96
481.26	1751.01
481.46	1755.11
481.66	1742.82
481.86	1658.85
482.06	1744.87
482.27	1755.11
482.47	1675.24
482.67	1751.01
482.87	1763.30
483.07	1732.58
483.28	1691.62
483.48	1765.35
483.68	1658.85
483.88	1656.81
484.08	1699.81
484.29	1732.58
484.49	1710.05
484.69	1632.23
484.89	1841.12
485.09	1816.55
485.29	1859.56
485.50	1746.92
485.70	1705.96
485.90	1767.40
486.10	1755.11
486.30	1753.06
486.50	1789.92
486.71	1763.30
486.91	1781.73
487.11	1884.13
487.31	1665.00
487.51	1742.82
487.71	1697.77
487.91	1671.14
488.12	1724.39
488.32	1624.04
488.52	1751.01
488.72	1656.81
488.92	1798.12
489.12	1832.93
489.32	1759.21
489.53	1767.40
489.73	1697.77
489.93	1820.64
490.13	1744.87
490.33	1656.81
490.53	1773.54
490.73	1826.79
490.94	1621.99
491.14	1781.73
491.34	1857.51
491.54	2142.18
491.74	2521.05
491.94	2885.59
492.14	2959.31
492.34	3024.85
492.54	2738.13
492.75	2533.34
492.95	2521.05
493.15	2281.44
493.35	2316.25
493.55	2263.01
493.75	2131.94
493.95	2185.18
494.15	2037.73
494.35	1986.53
494.56	1877.99
494.76	1822.69
494.96	1757.16
495.16	1814.50
495.36	1710.05
495.56	1804.26
495.76	1730.53
495.96	1724.39
496.16	1665.00
496.36	1859.56
496.56	1765.35
496.77	1777.64
496.97	1804.26
497.17	1802.21
497.37	1644.52
497.57	1791.97
497.77	1816.55
497.97	1726.44
498.17	1693.67
498.37	1765.35
498.57	1812.45
498.77	1691.62
498.97	1796.07
499.17	1859.56
499.38	1656.81
499.58	1814.50
499.78	1828.84
499.98	1812.45
500.18	1763.30
500.38	1826.79
500.58	1880.04
500.78	2541.53
500.98	4526.01
501.18	5779.37
501.38	6780.82
501.58	7063.44
501.78	6717.34
501.98	5570.48
502.18	4972.47
502.38	4532.15
502.58	4143.04
502.78	3815.37
502.98	3631.05
503.18	3368.91
503.38	3153.87
503.59	2768.85
503.79	2764.76
503.99	2428.89
504.19	2310.11
504.39	2226.14
504.59	2187.23
504.79	2160.61
504.99	2064.35
505.19	1935.33
505.39	1923.04
505.59	2033.63
505.79	1951.71
505.99	1849.32
506.19	1867.75
506.39	1972.19
506.59	1744.87
506.79	1759.21
506.99	1785.83
507.19	1771.49
507.39	1845.22
507.59	1699.81
507.79	1742.82
507.99	1632.23
508.19	1763.30
508.39	1789.92
508.59	1673.19
508.79	1732.58
508.99	1828.84
509.19	1720.29
509.39	1820.64
509.59	1705.96
509.79	1740.77
509.99	1798.12
510.19	1826.79
510.39	1738.73
510.59	1822.69
510.79	1744.87
510.99	1654.76
511.19	1804.26
511.39	1865.70
511.59	1839.08
511.79	1847.27
511.99	1769.44
512.19	1857.51
512.38	1744.87
512.58	1742.82
512.78	1761.25
512.98	1773.54
513.18	1886.18
513.38	1650.66
513.58	1771.49
513.78	1748.97
513.98	1751.01
514.18	1724.39
514.38	1775.59
514.58	1773.54
514.78	1720.29
514.98	1681.38
515.18	1695.72
515.38	1701.86
515.58	1834.98
515.78	1710.05
515.98	1779.68
516.18	1830.88
516.38	1740.77
516.57	1701.86
516.77	1720.29
516.97	1753.06
517.17	1767.40
517.37	1624.04
517.57	1755.11
517.77	1716.20
517.97	1691.62
518.17	1828.84
518.37	1722.34
518.57	1656.81
518.77	1753.06
518.97	1667.05
519.16	1853.41
519.36	1798.12
519.56	1675.24
519.76	1718.25
519.96	1781.73
520.16	1812.45
520.36	1660.90
520.56	1779.68
520.76	1783.78
520.96	1701.86
521.16	1834.98
521.35	1810.40
521.55	1894.37
521.75	1693.67
521.95	1673.19
522.15	1679.33
522.35	1683.43
522.55	1734.63
522.75	1841.12
522.95	1722.34
523.14	1742.82
523.34	1767.40
523.54	1708.01
523.74	1826.79
523.94	1732.58
524.14	1646.57
524.34	1787.88
524.54	1771.49
524.73	1708.01
524.93	1726.44
525.13	1773.54
525.33	1681.38
525.53	1865.70
525.73	1757.16
525.93	1748.97
526.13	1687.53
526.32	1746.92
526.52	1775.59
526.72	1794.02
526.92	1763.30
527.12	1710.05
527.32	1691.62
527.52	1718.25
527.71	1798.12
527.91	1779.68
528.11	1757.16
528.31	1767.40
528.51	1710.05
528.71	1789.92
528.90	1720.29
529.10	1834.98
529.30	1863.65
529.50	1640.42
529.70	1605.61
529.90	1714.15
530.09	1759.21
530.29	1712.10
530.49	1679.33
530.69	1869.80
530.89	1789.92
531.09	1855.46
531.28	1796.07
531.48	1828.84
531.68	1722.34
531.88	1796.07
532.08	1763.30
532.28	1718.25
532.47	1763.30
532.67	1863.65
532.87	1789.92
533.07	1763.30
533.27	1806.31
533.46	1822.69
533.66	1730.53
533.86	1701.86
534.06	1697.77
534.26	1746.92
534.45	1644.52
534.65	1787.88
534.85	1744.87
535.05	1714.15
535.25	1873.89
535.44	1730.53
535.64	1804.26
535.84	1738.73
536.04	1638.38
536.24	1640.42
536.43	1669.09
536.63	1726.44
536.83	1720.29
537.03	1724.39
537.22	1615.85
537.42	1624.04
537.62	1787.88
537.82	1730.53
538.02	1857.51
538.21	1847.27
538.41	1902.56
538.61	1812.45
538.81	1714.15
539.00	1832.93
539.20	1656.81
539.40	1744.87
539.60	1742.82
539.79	1828.84
539.99	1689.57
540.19	1697.77
540.39	1718.25
540.58	1761.25
540.78	1818.60
540.98	1720.29
541.18	1822.69
541.37	1863.65
541.57	1800.16
541.77	1824.74
541.97	1701.86
542.16	1697.77
542.36	1728.49
542.56	1736.68
542.76	1871.84
542.95	1814.50
543.15	1763.30
543.35	1814.50
543.54	1681.38
543.74	1746.92
543.94	1806.31
544.14	1720.29
544.33	1703.91
544.53	1746.92
544.73	1685.48
544.93	1738.73
545.12	1787.88
545.32	1796.07
545.52	1777.64
545.71	1675.24
545.91	1705.96
546.11	1726.44
546.30	1665.00
546.50	1775.59
546.70	1816.55
546.90	1767.40
547.09	1679.33
547.29	1751.01
547.49	1865.70
547.68	1736.68
547.88	1718.25
548.08	1814.50
548.27	2189.28
548.47	1675.24
548.67	1718.25
548.87	1828.84
549.06	1767.40
549.26	1839.08
549.46	1783.78
549.65	1677.29
549.85	1732.58
550.05	1779.68
550.24	1658.85
550.44	1761.25
550.64	1751.01
550.83	1755.11
551.03	1775.59
551.23	1849.32
551.42	1841.12
551.62	1718.25
551.82	1724.39
552.01	1757.16
552.21	1697.77
552.41	1775.59
552.60	1820.64
552.80	1746.92
553.00	1759.21
553.19	1742.82
553.39	1796.07
553.59	1705.96
553.78	1769.44
553.98	1699.81
554.17	1716.20
554.37	1763.30
554.57	1816.55
554.76	1689.57
554.96	1746.92
555.16	1800.16
555.35	1714.15
555.55	1822.69
555.75	1851.36
555.94	1816.55
556.14	1687.53
556.33	1783.78
556.53	1732.58
556.73	1755.11
556.92	1779.68
557.12	1914.85
557.32	1822.69
557.51	1845.22
557.71	1818.60
557.90	1834.98
558.10	1851.36
558.30	1720.29
558.49	1757.16
558.69	1714.15
558.88	1781.73
559.08	1701.86
559.28	1779.68
559.47	1779.68
559.67	1804.26
559.86	1875.94
560.06	1808.36
560.26	1779.68
560.45	1806.31
560.65	1712.10
560.84	1824.74
561.04	1726.44
561.24	1771.49
561.43	1650.66
561.63	1783.78
561.82	1779.68
562.02	1808.36
562.22	1748.97
562.41	1703.91
562.61	1742.82
562.80	1751.01
563.00	1863.65
563.19	1765.35
563.39	1771.49
563.59	1800.16
563.78	1632.23
563.98	1701.86
564.17	1755.11
564.37	1648.61
564.56	1722.34
564.76	1691.62
564.96	1755.11
565.15	1783.78
565.35	1974.24
565.54	1763.30
565.74	1839.08
565.93	1767.40
566.13	1791.97
566.32	1779.68
566.52	1714.15
566.71	1734.63
566.91	1769.44
567.11	1812.45
567.30	1755.11
567.50	1839.08
567.69	1736.68
567.89	1703.91
568.08	1714.15
568.28	1810.40
568.47	1746.92
568.67	1771.49
568.86	1718.25
569.06	1773.54
569.25	1769.44
569.45	1652.71
569.64	1732.58
569.84	1763.30
570.04	1773.54
570.23	1769.44
570.43	1720.29
570.62	1812.45
570.82	1867.75
571.01	1665.00
571.21	1693.67
571.40	1660.90
571.60	1822.69
571.79	1859.56
571.99	1757.16
572.18	1724.39
572.38	1828.84
572.57	1806.31
572.77	1804.26
572.96	1892.32
573.16	1785.83
573.35	1720.29
573.55	1781.73
573.74	1769.44
573.94	1712.10
574.13	1794.02
574.33	1771.49
574.52	1744.87
574.71	1843.17
574.91	1779.68
575.10	1679.33
575.30	1798.12
575.49	1724.39
575.69	1753.06
575.88	1794.02
576.08	1755.11
576.27	1837.03
576.47	1738.73
576.66	1777.64
576.86	1759.21
577.05	1763.30
577.25	1781.73
577.44	1826.79
577.64	1712.10
577.83	1834.98
578.02	1656.81
578.22	1875.94
578.41	1834.98
578.61	1730.53
578.80	1691.62
579.00	1722.34
579.19	1751.01
579.39	1796.07
579.58	1904.61
579.77	1806.31
579.97	1841.12
580.16	1753.06
580.36	1818.60
580.55	1869.80
580.75	1796.07
580.94	1783.78
581.13	1912.80
581.33	1902.56
581.52	1837.03
581.72	1886.18
581.91	1763.30
582.11	1796.07
582.30	1849.32
582.49	1767.40
582.69	1865.70
582.88	1863.65
583.08	1910.75
583.27	1849.32
583.47	1730.53
583.66	1732.58
583.85	1742.82
584.05	1769.44
584.24	1906.66
584.44	1851.36
584.63	1845.22
584.82	1898.47
585.02	1814.50
585.21	1814.50
585.41	1892.32
585.60	1820.64
585.79	1898.47
585.99	1894.37
586.18	1918.95
586.37	2183.13
586.57	3426.25
586.76	9826.15
586.96	24426.12
587.15	34227.70
587.34	39722.40
587.54	41512.33
587.73	35853.79
587.93	26033.78
588.12	21198.52
588.31	18132.72
588.51	16117.51
588.70	14997.28
588.89	13827.88
589.09	12316.48
589.28	11067.22
589.47	9179.00
589.67	7825.29
589.86	6514.59
590.06	4925.36
590.25	3823.56
590.44	3094.48
590.64	2564.06
590.83	2252.77
591.02	2117.60
591.22	1953.76
591.41	1877.99
591.60	1843.17
591.80	2004.96
591.99	1824.74
592.18	1812.45
592.38	1845.22
592.57	1804.26
592.76	1859.56
592.96	1775.59
593.15	1806.31
593.34	1808.36
593.54	1720.29
593.73	1832.93
593.92	1785.83
594.12	1820.64
594.31	1751.01
594.50	1843.17
594.70	1800.16
594.89	1937.38
595.08	1722.34
595.28	1822.69
595.47	1951.71
595.66	1824.74
595.86	1712.10
596.05	1802.21
596.24	1785.83
596.43	1865.70
596.63	1873.89
596.82	1716.20
597.01	1724.39
597.21	1849.32
597.40	1783.78
597.59	1765.35
597.79	1699.81
597.98	1830.88
598.17	1724.39
598.36	1759.21
598.56	1710.05
598.75	1716.20
598.94	1746.92
599.14	1806.31
599.33	1669.09
599.52	1779.68
599.71	1791.97
599.91	1839.08
600.10	1783.78
600.29	1796.07
600.48	1775.59
600.68	1804.26
600.87	1791.97
601.06	1761.25
601.26	1767.40
601.45	1787.88
601.64	1726.44
601.83	1837.03
602.03	1724.39
602.22	1669.09
602.41	1814.50
602.60	1843.17
602.80	1771.49
602.99	1832.93
603.18	1685.48
603.37	1802.21
603.57	1718.25
603.76	1855.46
603.95	1796.07
604.14	1738.73
604.34	1771.49
604.53	1738.73
604.72	1779.68
604.91	1812.45
605.10	1779.68
605.30	1728.49
605.49	1888.23
605.68	1767.40
605.87	1804.26
606.07	1689.57
606.26	1705.96
606.45	1767.40
606.64	1775.59
606.84	1679.33
607.03	1726.44
607.22	1775.59
607.41	1679.33
607.60	1720.29
607.80	1830.88
607.99	1710.05
608.18	1689.57
608.37	1781.73
608.56	1769.44
608.76	1736.68
608.95	1824.74
609.14	1722.34
609.33	1863.65
609.52	1894.37
609.72	1738.73
609.91	1808.36
610.10	1714.15
610.29	1871.84
610.48	1794.02
610.68	1751.01
610.87	1677.29
611.06	1802.21
611.25	1705.96
611.44	1857.51
611.63	1675.24
611.83	1755.11
612.02	1701.86
612.21	1777.64
612.40	1687.53
612.59	1714.15
612.79	1718.25
612.98	1804.26
613.17	1834.98
613.36	1708.01
613.55	1810.40
613.74	1710.05
613.93	1714.15
614.13	1816.55
614.32	1736.68
614.51	1718.25
614.70	1652.71
614.89	1765.35
615.08	1650.66
615.28	2164.70
615.47	1634.28
615.66	1730.53
615.85	1695.72
616.04	1779.68
616.23	1703.91
616.42	1736.68
616.62	1757.16
616.81	1804.26
617.00	1744.87
617.19	1781.73
617.38	1650.66
617.57	1765.35
617.76	1779.68
617.95	1869.80
618.15	1806.31
618.34	1865.70
618.53	1744.87
618.72	1826.79
618.91	1843.17
619.10	1837.03
619.29	1769.44
619.48	1716.20
619.68	1685.48
619.87	1765.35
620.06	1716.20
620.25	1791.97
620.44	1720.29
620.63	1753.06
620.82	1693.67
621.01	1738.73
621.20	1703.91
621.39	1751.01
621.59	1769.44
621.78	1724.39
621.97	1675.24
622.16	1794.02
622.35	1755.11
622.54	1718.25
622.73	1808.36
622.92	1636.33
623.11	1765.35
623.30	1783.78
623.49	1765.35
623.68	1648.61
623.88	1730.53
624.07	1699.81
624.26	1722.34
624.45	1753.06
624.64	1751.01
624.83	1728.49
625.02	1744.87
625.21	1701.86
625.40	1720.29
625.59	1796.07
625.78	1773.54
625.97	1841.12
626.16	1710.05
626.35	1783.78
626.54	1712.10
626.74	1894.37
626.93	1640.42
627.12	1738.73
627.31	1761.25
627.50	1814.50
627.69	1710.05
627.88	1689.57
628.07	1669.09
628.26	1662.95
628.45	1740.77
628.64	1710.05
628.83	1800.16
629.02	1689.57
629.21	1785.83
629.40	1695.72
629.59	1683.43
629.78	1738.73
629.97	1683.43
630.16	1802.21
630.35	1759.21
630.54	1714.15
630.73	1699.81
630.92	1671.14
631.11	1703.91
631.30	1722.34
631.49	1777.64
631.68	1708.01
631.87	1789.92
632.06	1662.95
632.25	1877.99
632.44	1765.35
632.63	1722.34
632.82	1718.25
633.01	1658.85
633.20	1730.53
633.39	1679.33
633.58	1656.81
633.77	1791.97
633.96	1720.29
634.15	1777.64
634.34	1773.54
634.53	1773.54
634.72	1705.96
634.91	1621.99
635.10	1732.58
635.29	1738.73
635.48	1779.68
635.67	1677.29
635.86	1705.96
636.05	1777.64
636.24	1779.68
636.43	1742.82
636.62	1820.64
636.81	1617.90
637.00	1736.68
637.19	1763.30
637.38	1685.48
637.57	1710.05
637.76	1697.77
637.95	1763.30
638.14	1673.19
638.33	1716.20
638.52	1675.24
638.71	1578.98
638.89	1619.94
639.08	1837.03
639.27	1796.07
639.46	1710.05
639.65	1802.21
639.84	1794.02
640.03	1832.93
640.22	1779.68
640.41	1869.80
640.60	1611.75
640.79	1710.05
640.98	1669.09
641.17	1742.82
641.36	1796.07
641.55	1765.35
641.74	1644.52
641.92	1691.62
642.11	1718.25
642.30	1775.59
642.49	1693.67
642.68	1726.44
642.87	1769.44
643.06	1744.87
643.25	1681.38
643.44	1599.46
643.63	1722.34
643.82	1718.25
644.00	1730.53
644.19	1722.34
644.38	1703.91
644.57	1730.53
644.76	1755.11
644.95	1730.53
645.14	1740.77
645.33	1796.07
645.52	1734.63
645.71	1644.52
645.89	1712.10
646.08	1671.14
646.27	1734.63
646.46	1916.90
646.65	1640.42
646.84	1687.53
647.03	1662.95
647.22	1910.75
647.40	1841.12
647.59	1673.19
647.78	1632.23
647.97	1644.52
648.16	1691.62
648.35	1861.60
648.54	1759.21
648.73	1656.81
648.91	1779.68
649.10	1789.92
649.29	1714.15
649.48	1753.06
649.67	1693.67
649.86	1765.35
650.05	1658.85
650.23	1830.88
650.42	1632.23
650.61	1820.64
650.80	1794.02
650.99	1816.55
651.18	1826.79
651.36	1785.83
651.55	1675.24
651.74	1781.73
651.93	1677.29
652.12	1771.49
652.31	1703.91
652.49	1705.96
652.68	1710.05
652.87	1849.32
653.06	1730.53
653.25	1824.74
653.44	1761.25
653.62	1710.05
653.81	1691.62
654.00	1779.68
654.19	1777.64
654.38	1845.22
654.56	1865.70
654.75	1710.05
654.94	1759.21
655.13	1738.73
655.32	1691.62
655.51	1689.57
655.69	1687.53
655.88	1767.40
656.07	1718.25
656.26	1710.05
656.45	1660.90
656.63	1746.92
656.82	1712.10
657.01	1867.75
657.20	1644.52
657.38	1804.26
657.57	1691.62
657.76	1660.90
657.95	1902.56
658.14	1665.00
658.32	1740.77
658.51	1574.89
658.70	1785.83
658.89	1783.78
659.08	1771.49
659.26	1812.45
659.45	1660.90
659.64	1753.06
659.83	1675.24
660.01	1923.04
660.20	1697.77
660.39	1761.25
660.58	1654.76
660.76	1724.39
660.95	1726.44
661.14	1820.64
661.33	1681.38
661.51	1789.92
661.70	1638.38
661.89	1814.50
662.08	1744.87
662.26	1665.00
662.45	1736.68
662.64	1855.46
662.83	1798.12
663.01	1703.91
663.20	1683.43
663.39	1894.37
663.58	1748.97
663.76	1779.68
663.95	1800.16
664.14	1677.29
664.32	1769.44
664.51	1687.53
664.70	1595.37
664.89	1691.62
665.07	1628.14
665.26	1736.68
665.45	1691.62
665.64	1814.50
665.82	1759.21
666.01	1867.75
666.20	1683.43
666.38	1832.93
666.57	1853.41
666.76	2217.95
666.95	4622.27
667.13	10551.14
667.32	15267.61
667.51	17932.01
667.69	19130.08
667.88	17594.10
668.07	12207.94
668.25	9428.85
668.44	8073.09
668.63	7348.11
668.81	6801.30
669.00	6231.97
669.19	5676.97
669.38	5121.97
669.56	4472.76
669.75	3903.43
669.94	3452.88
670.12	2906.07
670.31	2484.19
670.50	2230.24
670.68	2004.96
670.87	1945.57
671.06	1832.93
671.24	1728.49
671.43	1882.08
671.62	1794.02
671.80	1693.67
671.99	1757.16
672.18	1685.48
672.36	1763.30
672.55	1787.88
672.74	1646.57
672.92	1705.96
673.11	1744.87
673.29	1687.53
673.48	1767.40
673.67	1755.11
673.85	1738.73
674.04	1703.91
674.23	1691.62
674.41	1877.99
674.60	1667.05
674.79	1638.38
674.97	1753.06
675.16	1841.12
675.34	1832.93
675.53	1701.86
675.72	1789.92
675.90	1834.98
676.09	1691.62
676.28	1777.64
676.46	1695.72
676.65	1728.49
676.83	1689.57
677.02	1748.97
677.21	1665.00
677.39	1763.30
677.58	1718.25
677.77	1669.09
677.95	1611.75
678.14	1648.61
678.32	1726.44
678.51	1687.53
678.70	1775.59
678.88	1722.34
679.07	1697.77
679.25	1681.38
679.44	1742.82
679.63	1783.78
679.81	1755.11
680.00	1851.36
680.18	1826.79
680.37	1789.92
680.55	1761.25
680.74	1626.09
680.93	1617.90
681.11	1763.30
681.30	1767.40
681.48	1802.21
681.67	1775.59
681.85	1720.29
682.04	1669.09
682.23	1742.82
682.41	1714.15
682.60	1671.14
682.78	1716.20
682.97	1679.33
683.15	1773.54
683.34	1673.19
683.53	1814.50
683.71	1615.85
683.90	1738.73
684.08	1765.35
684.27	1724.39
684.45	1763.30
684.64	1765.35
684.82	1710.05
685.01	1757.16
685.19	1728.49
685.38	1751.01
685.57	1744.87
685.75	1718.25
685.94	1730.53
686.12	1638.38
686.31	1677.29
686.49	1886.18
686.68	1673.19
686.86	1816.55
687.05	1716.20
687.23	1839.08
687.42	1681.38
687.60	1660.90
687.79	1843.17
687.97	1753.06
688.16	1728.49
688.34	1708.01
688.53	1613.80
688.71	1763.30
688.90	1796.07
689.08	1685.48
689.27	1660.90
689.45	1759.21
689.64	1705.96
689.82	1724.39
690.01	1759.21
690.19	1724.39
690.38	1685.48
690.56	1888.23
690.75	1677.29
690.93	1763.30
691.12	1658.85
691.30	1677.29
691.49	1730.53
691.67	1787.88
691.86	1853.41
692.04	1726.44
692.23	1689.57
692.41	1722.34
692.60	1867.75
692.78	1757.16
692.97	1726.44
693.15	1734.63
693.34	1834.98
693.52	1781.73
693.71	1671.14
693.89	1654.76
694.08	1615.85
694.26	1800.16
694.44	1769.44
694.63	1769.44
694.81	1628.14
695.00	1718.25
695.18	1730.53
695.37	1847.27
695.55	1703.91
695.74	1736.68
695.92	1679.33
696.10	1812.45
696.29	1636.33
696.47	1710.05
696.66	1650.66
696.84	1724.39
697.03	1710.05
697.21	1773.54
697.40	2375.64
697.58	1771.49
697.76	1736.68
697.95	1701.86
698.13	1626.09
698.32	1669.09
698.50	1662.95
698.68	1722.34
698.87	1699.81
699.05	1828.84
699.24	1726.44
699.42	1734.63
699.61	1738.73
699.79	1714.15
699.97	1720.29
700.16	1613.80
700.34	1705.96
700.53	1794.02
700.71	1814.50
700.89	1740.77
701.08	1800.16
701.26	1800.16
701.45	2121.70
701.63	1763.30
701.81	1748.97
702.00	1642.47
702.18	1714.15
702.37	1640.42
702.55	1800.16
702.73	1720.29
702.92	1624.04
703.10	1802.21
703.28	1691.62
703.47	1640.42
703.65	1830.88
703.84	1751.01
704.02	1759.21
704.20	1779.68
704.39	1638.38
704.57	1673.19
704.75	1767.40
704.94	1705.96
705.12	1783.78
705.30	1810.40
705.49	2293.72
705.67	4575.16
705.86	9428.85
706.04	12527.42
706.22	14303.01
706.41	15257.37
706.59	13334.32
706.77	9340.79
706.96	7190.42
707.14	6434.72
707.32	5834.66
707.51	5449.64
707.69	4880.31
707.87	4206.53
708.06	3553.23
708.24	2881.49
708.42	2361.31
708.61	2295.77
708.79	1863.65
708.97	1880.04
709.16	1867.75
709.34	1847.27
709.52	1728.49
709.71	1740.77
709.89	1712.10
710.07	1660.90
710.26	1738.73
710.44	1755.11
710.62	1697.77
710.80	1660.90
710.99	1851.36
711.17	1779.68
711.35	1634.28
711.54	1644.52
711.72	1828.84
711.90	1779.68
712.09	1740.77
712.27	1718.25
712.45	1765.35
712.63	1775.59
712.82	1636.33
713.00	1742.82
713.18	1771.49
713.37	1810.40
713.55	1804.26
713.73	1773.54
713.91	1796.07
714.10	1697.77
714.28	1673.19
714.46	1781.73
714.65	1650.66
714.83	1679.33
715.01	1761.25
715.19	1736.68
715.38	1685.48
715.56	1751.01
715.74	1726.44
715.92	1644.52
716.11	1806.31
716.29	1658.85
716.47	1742.82
716.65	1703.91
716.84	1597.42
717.02	1789.92
717.20	1621.99
717.38	1716.20
717.57	1703.91
717.75	1804.26
717.93	1667.05
718.11	1796.07
718.30	1718.25
718.48	1685.48
718.66	1744.87
718.84	1765.35
719.03	1734.63
719.21	1642.47
719.39	1869.80
719.57	1763.30
719.75	1820.64
719.94	1687.53
720.12	1714.15
720.30	1732.58
720.48	1779.68
720.67	1691.62
720.85	1667.05
721.03	1652.71
721.21	1660.90
721.39	1775.59
721.58	1773.54
721.76	1757.16
721.94	1740.77
722.12	1769.44
722.30	1755.11
722.49	1679.33
722.67	1759.21
722.85	1787.88
723.03	1689.57
723.21	1751.01
723.40	1689.57
723.58	1726.44
723.76	1736.68
723.94	1787.88
724.12	1662.95
724.30	1730.53
724.49	1802.21
724.67	1640.42
724.85	1773.54
725.03	1617.90
725.21	1771.49
725.40	1779.68
725.58	1693.67
725.76	1708.01
725.94	1705.96
726.12	1695.72
726.30	1724.39
726.49	1732.58
726.67	1755.11
726.85	1734.63
727.03	1773.54
727.21	2093.02
727.39	2990.03
727.57	3952.58
727.76	4323.26
727.94	4341.69
728.12	4327.36
728.30	3598.28
728.48	3012.56
728.66	2713.56
728.84	2539.48
729.03	2346.97
729.21	2119.65
729.39	2035.68
729.57	1888.23
729.75	1861.60
729.93	1867.75
730.11	1726.44
730.30	1800.16
730.48	1724.39
730.66	1824.74
730.84	1763.30
731.02	1746.92
731.20	1677.29
731.38	1751.01
731.56	1615.85
731.74	1638.38
731.93	1775.59
732.11	1734.63
732.29	1699.81
732.47	1820.64
732.65	1701.86
732.83	1726.44
733.01	1712.10
733.19	1744.87
733.37	1726.44
733.56	1757.16
733.74	1640.42
733.92	1847.27
734.10	1720.29
734.28	1781.73
734.46	1654.76
734.64	1638.38
734.82	1681.38
735.00	1695.72
735.18	1689.57
735.36	1650.66
735.54	1736.68
735.73	1708.01
735.91	1802.21
736.09	1748.97
736.27	1722.34
736.45	1767.40
736.63	1605.61
736.81	1710.05
736.99	1767.40
737.17	1753.06
737.35	1708.01
737.53	1800.16
737.71	1720.29
737.89	1810.40
738.07	1613.80
738.25	1722.34
738.43	1630.18
738.61	1730.53
738.80	1630.18
738.98	1693.67
739.16	1658.85
739.34	1699.81
739.52	1777.64
739.70	1701.86
739.88	1751.01
740.06	1777.64
740.24	1589.22
740.42	1820.64
740.60	1615.85
740.78	1646.57
740.96	1591.27
741.14	1656.81
741.32	1708.01
741.50	1560.55
741.68	1861.60
741.86	1783.78
742.04	1685.48
742.22	1714.15
742.40	1699.81
742.58	1765.35
742.76	1742.82
742.94	1712.10
743.12	1607.66
743.30	1718.25
743.48	1730.53
743.66	1736.68
743.84	1687.53
744.02	1718.25
744.20	1734.63
744.38	1638.38
744.56	1773.54
744.74	1859.56
744.92	1787.88
745.10	1773.54
745.28	1804.26
745.46	1826.79
745.64	1701.86
745.82	1841.12
746.00	1689.57
746.18	1759.21
746.36	1720.29
746.54	1791.97
746.72	1734.63
746.90	1718.25
747.08	1820.64
747.26	1718.25
747.44	1716.20
747.62	1726.44
747.80	1779.68
747.98	1783.78
748.15	1800.16
748.33	1779.68
748.51	1724.39
748.69	1822.69
748.87	1753.06
749.05	1660.90
749.23	1648.61
749.41	1783.78
749.59	1687.53
749.77	1787.88
749.95	1724.39
750.13	1617.90
750.31	1716.20
750.49	1755.11
750.67	1830.88
750.85	1871.84
751.03	1757.16
751.20	1742.82
751.38	1660.90
751.56	1740.77
751.74	1769.44
751.92	1730.53
752.10	1656.81
752.28	1798.12
752.46	1621.99
752.64	1695.72
752.82	1662.95
753.00	1779.68
753.18	1671.14
753.35	1699.81
753.53	1691.62
753.71	1695.72
753.89	1783.78
754.07	1728.49
754.25	1806.31
754.43	1800.16
754.61	1695.72
754.79	1699.81
754.97	1771.49
755.14	1779.68
755.32	1740.77
755.50	1730.53
755.68	1683.43
755.86	1638.38
756.04	1740.77
756.22	1695.72
756.40	1773.54
756.57	1822.69
756.75	1667.05
756.93	1755.11
757.11	1716.20
757.29	1689.57
757.47	1677.29
757.65	1681.38
757.82	1603.56
758.00	1691.62
758.18	1662.95
758.36	1675.24
758.54	1765.35
758.72	1640.42
758.90	1834.98
759.07	1763.30
759.25	1675.24
759.43	1755.11
759.61	1675.24
759.79	2176.99
759.97	1761.25
760.15	1701.86
760.32	1697.77
760.50	1789.92
760.68	1839.08
760.86	1708.01
761.04	1728.49
761.22	1773.54
761.39	1738.73
761.57	1734.63
761.75	1681.38
761.93	1755.11
762.11	1710.05
762.28	1730.53
762.46	1665.00
762.64	1851.36
762.82	1624.04
763.00	1759.21
763.18	1814.50
763.35	1587.18
763.53	1767.40
763.71	1775.59
763.89	1705.96
764.07	1748.97
764.24	1677.29
764.42	1798.12
764.60	1642.47
764.78	1775.59
764.96	1671.14
765.13	1796.07
765.31	1646.57
765.49	1767.40
765.67	1695.72
765.84	1662.95
766.02	1681.38
766.20	1656.81
766.38	1763.30
766.56	1767.40
766.73	1708.01
766.91	1775.59
767.09	1771.49
767.27	1761.25
767.44	1667.05
767.62	1771.49
767.80	1724.39
767.98	1703.91
768.15	1722.34
768.33	1734.63
768.51	1802.21
768.69	1783.78
768.87	1765.35
769.04	1671.14
769.22	1898.47
769.40	1849.32
769.58	1853.41
769.75	1751.01
769.93	1787.88
770.11	1652.71
770.28	1734.63
770.46	1708.01
770.64	1714.15
770.82	1705.96
770.99	1769.44
771.17	1802.21
771.35	1652.71
771.53	1648.61
771.70	1689.57
771.88	1693.67
772.06	1804.26
772.23	1763.30
772.41	1710.05
772.59	1746.92
772.77	1675.24
772.94	1683.43
773.12	1685.48
773.30	1669.09
773.47	1755.11
773.65	1712.10
773.83	1847.27
774.01	1734.63
774.18	1685.48
774.36	1636.33
774.54	1644.52
774.71	1736.68
774.89	1648.61
775.07	1607.66
775.24	1699.81
775.42	1708.01
775.60	1804.26
775.78	1679.33
775.95	1662.95
776.13	1691.62
776.31	1640.42
776.48	1652.71
776.66	1744.87
776.84	1683.43
777.01	1736.68
777.19	1632.23
777.37	1691.62
777.54	1763.30
777.72	1849.32
777.90	1738.73
778.07	1673.19
778.25	1908.71
778.43	1802.21
778.60	1740.77
778.78	1779.68
778.96	1794.02
779.13	1722.34
779.31	1882.08
779.49	1654.76
779.66	1755.11
779.84	1683.43
780.01	1753.06
780.19	1710.05
780.37	1775.59
780.54	1742.82
780.72	1671.14
780.90	1701.86
781.07	1716.20
781.25	1673.19
781.43	1677.29
781.60	1648.61
781.78	1773.54
781.95	1779.68
782.13	1628.14
782.31	1730.53
782.48	1613.80
782.66	1771.49
782.83	1767.40
783.01	1742.82
783.19	1705.96
783.36	1662.95
783.54	1626.09
783.72	1759.21
783.89	1767.40
784.07	1710.05
784.24	1728.49
784.42	1781.73
784.60	1755.11
784.77	1734.63
784.95	1617.90
785.12	1652.71
785.30	1794.02
785.47	1699.81
785.65	1718.25
785.83	1740.77
786.00	1650.66
786.18	1673.19
786.35	1669.09
786.53	1644.52
786.71	1826.79
786.88	1753.06
787.06	1710.05
787.23	1730.53
787.41	1724.39
787.58	1738.73
787.76	1679.33
787.94	1697.77
788.11	1671.14
788.29	1714.15
788.46	1589.22
788.64	1683.43
788.81	1671.14
788.99	1669.09
789.16	1724.39
789.34	1654.76
789.52	1665.00
789.69	1654.76
789.87	1601.51
790.04	1718.25
790.22	1753.06
790.39	1886.18
790.57	1644.52
790.74	1675.24
790.92	1779.68
791.09	1617.90
791.27	1732.58
791.44	1816.55
791.62	1681.38
791.79	1740.77
791.97	1720.29
792.15	1861.60
792.32	1791.97
792.50	1763.30
792.67	1832.93
792.85	1746.92
793.02	1638.38
793.20	1642.47
793.37	1667.05
793.55	1728.49
793.72	1753.06
793.90	1748.97
794.07	1685.48
794.25	1675.24
794.42	1677.29
794.60	1744.87
794.77	1714.15
794.95	1732.58
795.12	1787.88
795.30	1726.44
795.47	1638.38
795.65	1908.71
795.82	1708.01
796.00	1660.90
796.17	1787.88
796.34	1638.38
796.52	1746.92
796.69	1757.16
796.87	1751.01
797.04	1732.58
797.22	1832.93
797.39	1759.21
797.57	1726.44
797.74	1681.38
797.92	1650.66
798.09	1697.77
798.27	1746.92
798.44	1796.07
798.62	1642.47
798.79	1724.39
798.96	1724.39
799.14	1710.05
799.31	1898.47
799.49	1773.54
799.66	1652.71
799.84	1771.49
800.01	1654.76
800.19	1722.34
800.36	1578.98
800.53	1724.39
800.71	1724.39
800.88	1763.30
801.06	1656.81
801.23	1701.86
801.41	1712.10
801.58	1634.28
801.75	1656.81
801.93	1732.58
802.10	1742.82
802.28	1701.86
802.45	1679.33
802.63	1697.77
802.80	1785.83
802.97	1675.24
803.15	1789.92
803.32	1683.43
803.50	1650.66
803.67	1732.58
803.84	1615.85
804.02	1675.24
804.19	1787.88
804.37	1650.66
804.54	1660.90
804.71	1740.77
804.89	1732.58
805.06	1695.72
805.24	1587.18
805.41	1624.04
805.58	1697.77
805.76	1800.16
805.93	1732.58
806.10	1800.16
806.28	1736.68
806.45	1753.06
806.63	1740.77
806.80	1769.44
806.97	1619.94
807.15	1726.44
807.32	1746.92
807.49	1714.15
807.67	1628.14
807.84	1697.77
808.01	1687.53
808.19	1863.65
808.36	1877.99
808.54	1734.63
808.71	1677.29
808.88	1810.40
809.06	1767.40
809.23	1777.64
809.40	1673.19
809.58	1822.69
809.75	1693.67
809.92	1634.28
810.10	1796.07
810.27	1728.49
810.44	1736.68
810.62	1738.73
810.79	1683.43
810.96	1636.33
811.14	1687.53
811.31	1730.53
811.48	1712.10
811.66	1695.72
811.83	1771.49
812.00	1699.81
812.18	1716.20
812.35	1804.26
812.52	1644.52
812.69	1626.09
812.87	1681.38
813.04	1589.22
813.21	1624.04
813.39	1658.85
813.56	1669.09
813.73	1837.03
813.91	1595.37
814.08	1687.53
814.25	1695.72
814.42	1650.66
814.60	1687.53
814.77	1679.33
814.94	1769.44
815.12	1685.48
815.29	1804.26
815.46	1665.00
815.63	1732.58
815.81	1685.48
815.98	1728.49
816.15	1609.70
816.33	1751.01
816.50	1726.44
816.67	1624.04
816.84	1722.34
817.02	1722.34
817.19	1665.00
817.36	1734.63
817.53	1806.31
817.71	1679.33
817.88	1681.38
818.05	1714.15
818.22	1669.09
818.40	1812.45
818.57	1607.66
818.74	1800.16
818.91	1685.48
819.09	1695.72
819.26	1810.40
819.43	1781.73
819.60	1693.67
819.78	1728.49
819.95	1828.84
820.12	1712.10
820.29	1785.83
820.47	1796.07
820.64	1689.57
820.81	1665.00
820.98	1660.90
821.15	1705.96
821.33	1796.07
821.50	1712.10
821.67	1718.25
821.84	1671.14
822.02	1783.78
822.19	1794.02
822.36	1667.05
822.53	1693.67
822.70	1648.61
822.88	1730.53
823.05	1701.86
823.22	1703.91
823.39	1812.45
823.56	1775.59
823.74	1763.30
823.91	1617.90
824.08	1667.05
824.25	1671.14
824.42	1816.55
824.60	1677.29
824.77	1683.43
824.94	1738.73
825.11	1757.16
825.28	1701.86
825.45	1728.49
825.63	1761.25
825.80	1667.05
825.97	1736.68
826.14	1763.30
826.31	1601.51
826.48	1746.92
826.66	1687.53
826.83	1638.38
827.00	1775.59
827.17	1638.38
827.34	1681.38
827.51	1759.21
827.69	1716.20
827.86	1624.04
828.03	1703.91
828.20	1724.39
828.37	1767.40
828.54	1718.25
828.71	1679.33
828.89	1755.11
829.06	1738.73
829.23	1800.16
829.40	1687.53
829.57	1673.19
829.74	1742.82
829.91	1697.77
830.09	1718.25
830.26	1738.73
830.43	1816.55
830.60	1742.82
830.77	1779.68
830.94	1781.73
831.11	1814.50
831.28	1685.48
831.46	1808.36
831.63	1732.58
831.80	1800.16
831.97	1628.14
832.14	1703.91
832.31	1736.68
832.48	1703.91
832.65	1791.97
832.82	1738.73
832.99	1710.05
833.17	1644.52
833.34	1812.45
833.51	1703.91
833.68	1630.18
833.85	1759.21
834.02	1679.33
834.19	1628.14
834.36	1593.32
834.53	1714.15
834.70	1798.12
834.87	1796.07
835.04	1761.25
835.22	1624.04
835.39	1634.28
835.56	1624.04
835.73	1624.04
835.90	1818.60
836.07	1630.18
836.24	1812.45
836.41	1697.77
836.58	1667.05
836.75	1705.96
836.92	1744.87
837.09	1710.05
837.26	1779.68
837.43	1609.70
837.60	1667.05
837.77	1695.72
837.94	1734.63
838.12	1740.77
838.29	1738.73
838.46	1634.28
838.63	1675.24
838.80	1730.53
838.97	1771.49
839.14	1701.86
839.31	1755.11
839.48	1662.95
839.65	1687.53
839.82	1751.01
839.99	1732.58
840.16	1689.57
840.33	1730.53
840.50	1662.95
840.67	1634.28
840.84	1568.74
841.01	1748.97
841.18	1736.68
841.35	1671.14
841.52	1798.12
841.69	1789.92
841.86	1660.90
842.03	1646.57
842.20	1751.01
842.37	1665.00
842.54	1699.81
842.71	1767.40
842.88	1605.61
843.05	1732.58
843.22	1708.01
843.39	1757.16
843.56	1697.77
843.73	1740.77
843.90	1769.44
844.07	1691.62
844.24	1755.11
844.41	1755.11
844.58	1761.25
844.75	1720.29
844.92	1681.38
845.09	1742.82
845.26	1689.57
845.43	1724.39
845.60	1703.91
845.77	1757.16
845.94	1744.87
846.10	1712.10
846.27	1658.85
846.44	1671.14
846.61	1689.57
846.78	1710.05
846.95	1796.07
847.12	1669.09
847.29	1705.96
847.46	1693.67
847.63	1777.64
847.80	1734.63
847.97	1667.05
848.14	1869.80
848.31	1728.49
848.48	1615.85
848.65	1701.86
848.82	1705.96
848.98	1812.45
849.15	1800.16
849.32	1753.06
849.49	1751.01
849.66	1744.87
849.83	1724.39
850.00	1634.28
850.17	1746.92
850.34	1642.47
850.51	1642.47
850.68	1710.05
850.85	1853.41
851.01	1695.72
851.18	1726.44
851.35	1714.15
851.52	1751.01
851.69	1796.07
851.86	1624.04
852.03	1775.59
852.20	1763.30
852.37	1660.90
852.53	1578.98
852.70	1759.21
852.87	1771.49
853.04	1697.77
853.21	1669.09
853.38	1761.25
853.55	1734.63
853.72	1738.73
853.89	1640.42
854.05	1673.19
854.22	1634.28
854.39	1689.57
854.56	1775.59
854.73	1781.73
854.90	1648.61
855.07	1736.68
855.23	1632.23
855.40	1705.96
855.57	1669.09
855.74	1603.56
855.91	1871.84
856.08	1681.38
856.25	1648.61
856.41	1621.99
856.58	1605.61
856.75	1742.82
856.92	1691.62
857.09	1710.05
857.26	1609.70
857.42	1761.25
857.59	1689.57
857.76	1687.53
857.93	1734.63
858.10	1636.33
858.27	1632.23
858.43	1714.15
858.60	1718.25
858.77	1617.90
858.94	1773.54
859.11	1794.02
859.27	1589.22
859.44	1695.72
859.61	1834.98
859.78	1755.11
859.95	1769.44
860.12	1662.95
860.28	1767.40
860.45	1863.65
860.62	1669.09
860.79	1773.54
860.95	1718.25
861.12	1619.94
861.29	1644.52
861.46	1624.04
861.63	1699.81
861.79	1765.35
861.96	1734.63
862.13	1640.42
862.30	1755.11
862.47	1710.05
862.63	1634.28
862.80	1712.10
862.97	1714.15
863.14	1771.49
863.30	1761.25
863.47	1685.48
863.64	1783.78
863.81	1681.38
863.97	1705.96
864.14	1720.29
864.31	1714.15
864.48	1763.30
864.65	1738.73
864.81	1810.40
864.98	1740.77
865.15	1781.73
865.32	1687.53
865.48	1787.88
865.65	1828.84
865.82	1697.77
865.98	1763.30
866.15	1841.12
866.32	1652.71
866.49	1677.29
866.65	1843.17
866.82	1722.34
866.99	1724.39
867.16	1691.62
867.32	1650.66
867.49	1796.07
867.66	1683.43
867.83	1744.87
867.99	1583.08
868.16	1685.48
868.33	1628.14
868.49	1701.86
868.66	1783.78
868.83	1744.87
868.99	1681.38
869.16	1677.29
869.33	1753.06
869.50	1755.11
869.66	1693.67
869.83	1728.49
870.00	1654.76
870.16	1787.88
870.33	1734.63
870.50	1726.44
870.66	1691.62
870.83	1826.79
871.00	1736.68
871.17	1687.53
871.33	1771.49
871.50	1689.57
871.67	1615.85
871.83	1701.86
872.00	1830.88
872.17	1730.53
872.33	1812.45
872.50	1798.12
872.67	1675.24
872.83	1722.34
873.00	1662.95
873.17	1628.14
873.33	1753.06
873.50	1748.97
873.67	1644.52
873.83	1736.68
874.00	1658.85
874.16	1722.34
874.33	1669.09
874.50	1624.04
874.66	1712.10
874.83	1689.57
875.00	1726.44
875.16	1728.49
875.33	1796.07
875.50	1626.09
875.66	1621.99
875.83	1757.16
875.99	1787.88
876.16	1689.57
876.33	1626.09
876.49	1687.53
876.66	1738.73
876.83	1636.33
876.99	1585.13
877.16	1755.11
877.32	1726.44
877.49	1669.09
877.66	1787.88
877.82	1791.97
877.99	1738.73
878.15	1761.25
878.32	1705.96
878.49	1689.57
878.65	1699.81
878.82	1771.49
878.98	1730.53
879.15	1781.73
879.32	1748.97
879.48	1740.77
879.65	1683.43
879.81	1708.01
879.98	1699.81
880.15	1675.24
880.31	1796.07
880.48	1619.94
880.64	1771.49
880.81	1794.02
880.97	1875.94
881.14	1740.77
881.31	1613.80
881.47	1853.41
881.64	1718.25
881.80	1724.39
881.97	1789.92
882.13	1748.97
882.30	1660.90
882.47	1724.39
882.63	1603.56
882.80	1714.15
882.96	1675.24
883.13	1847.27
883.29	1744.87
883.46	1767.40
883.62	1785.83
883.79	1736.68
883.95	1701.86
884.12	1675.24
884.29	1732.58
884.45	1720.29
884.62	1714.15
884.78	1699.81
884.95	1837.03
885.11	1603.56
885.28	1648.61
885.44	1683.43
885.61	1728.49
885.77	1853.41
885.94	1744.87
886.10	1767.40
886.27	1718.25
886.43	1814.50
886.60	1744.87
886.76	1617.90
886.93	1624.04
887.09	1652.71
887.26	1638.38
887.42	1697.77
887.59	1828.84
887.75	1882.08
887.92	1798.12
888.08	1769.44
888.25	1708.01
888.41	1720.29
888.58	1740.77
888.74	1642.47
888.91	1673.19
>>>>>End Processed Spectral Data<<<<<
