SpectraSuite Data File
++++++++++++++++++++++++++++++++++++
Date: Mon Jun 06 16:39:57 CEST 2016
User: root
Dark Spectrum Present: No
Reference Spectrum Present: No
Number of Sampled Component Spectra: 1
Spectrometers: USB4C02835
Integration Time (usec): 100000 (USB4C02835)
Spectra Averaged: 1 (USB4C02835)
Boxcar Smoothing: 0 (USB4C02835)
Correct for Electrical Dark: No (USB4C02835)
Strobe/Lamp Enabled: No (USB4C02835)
Correct for Detector Non-linearity: No (USB4C02835)
Correct for Stray Light: No (USB4C02835)
Number of Pixels in Processed Spectrum: 3648
>>>>>Begin Processed Spectral Data<<<<<
177.47	1468.39
177.69	1468.39
177.91	1468.39
178.13	1470.44
178.36	1511.40
178.58	1644.52
178.80	1673.19
179.02	1607.66
179.24	1693.67
179.46	1683.43
179.68	1853.41
179.90	1691.62
180.13	1748.97
180.35	1677.29
180.57	1736.68
180.79	1708.01
181.01	1708.01
181.23	1800.16
181.45	1806.31
181.67	1722.34
181.90	1783.78
182.12	1617.90
182.34	1597.42
182.56	1716.20
182.78	1734.63
183.00	1689.57
183.22	1656.81
183.44	1638.38
183.66	1845.22
183.89	1841.12
184.11	1736.68
184.33	1744.87
184.55	1732.58
184.77	1730.53
184.99	1738.73
185.21	1703.91
185.43	1863.65
185.65	1656.81
185.87	1669.09
186.10	1763.30
186.32	1783.78
186.54	1716.20
186.76	1673.19
186.98	1705.96
187.20	1708.01
187.42	1736.68
187.64	1720.29
187.86	1738.73
188.08	1779.68
188.30	1677.29
188.52	1734.63
188.75	1800.16
188.97	1781.73
189.19	1605.61
189.41	1658.85
189.63	1742.82
189.85	1683.43
190.07	1665.00
190.29	1708.01
190.51	1734.63
190.73	1667.05
190.95	1759.21
191.17	1658.85
191.39	1732.58
191.61	1730.53
191.84	1718.25
192.06	1687.53
192.28	1587.18
192.50	1867.75
192.72	1767.40
192.94	1673.19
193.16	1802.21
193.38	1687.53
193.60	1609.70
193.82	1671.14
194.04	1763.30
194.26	1775.59
194.48	1669.09
194.70	1689.57
194.92	1665.00
195.14	1710.05
195.36	1654.76
195.58	1738.73
195.80	1742.82
196.02	1679.33
196.24	1662.95
196.46	1771.49
196.69	1687.53
196.91	1775.59
197.13	1669.09
197.35	1722.34
197.57	1796.07
197.79	1753.06
198.01	1787.88
198.23	1726.44
198.45	1730.53
198.67	1671.14
198.89	1722.34
199.11	1740.77
199.33	1665.00
199.55	1587.18
199.77	1695.72
199.99	1751.01
200.21	1699.81
200.43	1685.48
200.65	1671.14
200.87	1568.74
201.09	1742.82
201.31	1724.39
201.53	1738.73
201.75	1763.30
201.97	1773.54
202.19	1683.43
202.41	1734.63
202.63	1804.26
202.85	1765.35
203.07	1779.68
203.29	1761.25
203.51	1683.43
203.73	1740.77
203.95	1929.19
204.17	1708.01
204.39	1708.01
204.61	1609.70
204.83	1693.67
205.05	1818.60
205.27	1787.88
205.49	1794.02
205.71	1691.62
205.93	1662.95
206.15	1650.66
206.37	1687.53
206.59	1642.47
206.81	1699.81
207.03	1697.77
207.25	1632.23
207.47	1771.49
207.69	1726.44
207.91	1808.36
208.13	1732.58
208.34	1693.67
208.56	1626.09
208.78	1689.57
209.00	1726.44
209.22	1640.42
209.44	1685.48
209.66	1665.00
209.88	1650.66
210.10	1710.05
210.32	1705.96
210.54	1796.07
210.76	1691.62
210.98	1802.21
211.20	1624.04
211.42	1753.06
211.64	1802.21
211.86	1710.05
212.08	1748.97
212.30	1765.35
212.52	1699.81
212.74	1697.77
212.96	1751.01
213.17	1806.31
213.39	1667.05
213.61	1814.50
213.83	1763.30
214.05	1640.42
214.27	1789.92
214.49	1656.81
214.71	1650.66
214.93	1767.40
215.15	1736.68
215.37	1751.01
215.59	1669.09
215.81	1726.44
216.03	1822.69
216.24	1751.01
216.46	1640.42
216.68	1742.82
216.90	1808.36
217.12	1716.20
217.34	1705.96
217.56	1689.57
217.78	1789.92
218.00	1730.53
218.22	1740.77
218.44	1783.78
218.66	1736.68
218.87	1865.70
219.09	1656.81
219.31	1736.68
219.53	1751.01
219.75	1748.97
219.97	1763.30
220.19	1748.97
220.41	1673.19
220.63	1773.54
220.85	1705.96
221.06	1628.14
221.28	1777.64
221.50	1767.40
221.72	1771.49
221.94	1634.28
222.16	1697.77
222.38	1748.97
222.60	1798.12
222.82	1705.96
223.03	1777.64
223.25	1697.77
223.47	1787.88
223.69	1886.18
223.91	1742.82
224.13	1583.08
224.35	1630.18
224.57	1789.92
224.78	1720.29
225.00	1714.15
225.22	1705.96
225.44	1691.62
225.66	1736.68
225.88	1710.05
226.10	1767.40
226.32	1779.68
226.53	1796.07
226.75	1703.91
226.97	1710.05
227.19	1685.48
227.41	1660.90
227.63	1679.33
227.85	1648.61
228.06	1716.20
228.28	1728.49
228.50	1748.97
228.72	1671.14
228.94	1708.01
229.16	1599.46
229.37	1576.94
229.59	1626.09
229.81	1744.87
230.03	1652.71
230.25	1632.23
230.47	1734.63
230.69	1644.52
230.90	1830.88
231.12	1654.76
231.34	1767.40
231.56	1746.92
231.78	1648.61
232.00	1755.11
232.21	1732.58
232.43	1730.53
232.65	1599.46
232.87	1806.31
233.09	1632.23
233.30	1675.24
233.52	1714.15
233.74	1693.67
233.96	1681.38
234.18	1720.29
234.40	1724.39
234.61	1839.08
234.83	1650.66
235.05	1609.70
235.27	1855.46
235.49	1779.68
235.70	1736.68
235.92	1812.45
236.14	1710.05
236.36	1822.69
236.58	1642.47
236.79	1685.48
237.01	1708.01
237.23	1746.92
237.45	1822.69
237.67	1603.56
237.88	1712.10
238.10	1822.69
238.32	1624.04
238.54	1693.67
238.76	1759.21
238.97	1685.48
239.19	1658.85
239.41	1804.26
239.63	1771.49
239.85	1642.47
240.06	1744.87
240.28	1673.19
240.50	1671.14
240.72	1638.38
240.93	1708.01
241.15	1839.08
241.37	1695.72
241.59	1761.25
241.81	1673.19
242.02	1685.48
242.24	1753.06
242.46	1718.25
242.68	1710.05
242.89	1765.35
243.11	1701.86
243.33	1658.85
243.55	1753.06
243.76	1785.83
243.98	1712.10
244.20	1697.77
244.42	1673.19
244.64	1761.25
244.85	1624.04
245.07	1685.48
245.29	1726.44
245.51	1820.64
245.72	1761.25
245.94	1724.39
246.16	1693.67
246.38	1726.44
246.59	1667.05
246.81	1662.95
247.03	1740.77
247.24	1654.76
247.46	1648.61
247.68	1695.72
247.90	1699.81
248.11	1687.53
248.33	1804.26
248.55	1630.18
248.77	1701.86
248.98	1759.21
249.20	1822.69
249.42	1738.73
249.64	1746.92
249.85	1771.49
250.07	1679.33
250.29	1751.01
250.50	1796.07
250.72	1607.66
250.94	1716.20
251.16	1773.54
251.37	1818.60
251.59	1771.49
251.81	1724.39
252.02	1787.88
252.24	1679.33
252.46	1787.88
252.68	1683.43
252.89	1671.14
253.11	1587.18
253.33	1777.64
253.54	1755.11
253.76	1599.46
253.98	1699.81
254.20	1726.44
254.41	1667.05
254.63	1699.81
254.85	1525.74
255.06	1701.86
255.28	1708.01
255.50	1701.86
255.71	1718.25
255.93	1650.66
256.15	1718.25
256.36	1763.30
256.58	1677.29
256.80	1662.95
257.02	1656.81
257.23	1652.71
257.45	1685.48
257.67	1742.82
257.88	1636.33
258.10	1722.34
258.32	1699.81
258.53	1767.40
258.75	1720.29
258.97	1699.81
259.18	1724.39
259.40	1787.88
259.62	1779.68
259.83	1746.92
260.05	1759.21
260.27	1982.43
260.48	1773.54
260.70	1714.15
260.92	1685.48
261.13	1757.16
261.35	1730.53
261.57	1738.73
261.78	1599.46
262.00	1730.53
262.22	1675.24
262.43	1628.14
262.65	1681.38
262.86	1617.90
263.08	1824.74
263.30	1689.57
263.51	1699.81
263.73	1665.00
263.95	1767.40
264.16	1595.37
264.38	1640.42
264.60	1765.35
264.81	1716.20
265.03	1681.38
265.25	1714.15
265.46	1648.61
265.68	1787.88
265.89	1808.36
266.11	1679.33
266.33	1769.44
266.54	1730.53
266.76	1789.92
266.98	1746.92
267.19	1730.53
267.41	1812.45
267.62	1720.29
267.84	1660.90
268.06	1708.01
268.27	1718.25
268.49	1861.60
268.70	1767.40
268.92	1742.82
269.14	1671.14
269.35	1609.70
269.57	1701.86
269.79	1646.57
270.00	1679.33
270.22	1779.68
270.43	1632.23
270.65	1656.81
270.87	1714.15
271.08	1736.68
271.30	1687.53
271.51	1736.68
271.73	1783.78
271.95	1726.44
272.16	1732.58
272.38	1712.10
272.59	1679.33
272.81	1687.53
273.02	1802.21
273.24	1759.21
273.46	1832.93
273.67	1677.29
273.89	1681.38
274.10	1650.66
274.32	1736.68
274.54	1783.78
274.75	1742.82
274.97	1699.81
275.18	1714.15
275.40	1755.11
275.61	1697.77
275.83	1759.21
276.05	1640.42
276.26	1687.53
276.48	1671.14
276.69	1763.30
276.91	1705.96
277.12	1781.73
277.34	1753.06
277.55	1738.73
277.77	1693.67
277.99	1714.15
278.20	1685.48
278.42	1736.68
278.63	1673.19
278.85	1642.47
279.06	1685.48
279.28	1748.97
279.49	1761.25
279.71	1771.49
279.93	1687.53
280.14	1710.05
280.36	1740.77
280.57	1761.25
280.79	1761.25
281.00	1628.14
281.22	1626.09
281.43	1779.68
281.65	1599.46
281.86	1619.94
282.08	1746.92
282.29	1802.21
282.51	1595.37
282.73	1634.28
282.94	1677.29
283.16	1769.44
283.37	1806.31
283.59	1712.10
283.80	1839.08
284.02	1740.77
284.23	1695.72
284.45	1660.90
284.66	1613.80
284.88	1626.09
285.09	1705.96
285.31	1740.77
285.52	1765.35
285.74	1658.85
285.95	1695.72
286.17	1765.35
286.38	1794.02
286.60	1644.52
286.81	1724.39
287.03	1748.97
287.24	1701.86
287.46	1716.20
287.67	1751.01
287.89	1771.49
288.10	1658.85
288.32	1689.57
288.53	1847.27
288.75	1679.33
288.96	1734.63
289.18	1699.81
289.39	1662.95
289.61	1798.12
289.82	1847.27
290.04	1822.69
290.25	1695.72
290.47	1740.77
290.68	1687.53
290.90	1734.63
291.11	1714.15
291.33	1740.77
291.54	1646.57
291.76	1697.77
291.97	1746.92
292.18	1798.12
292.40	1667.05
292.61	1632.23
292.83	1837.03
293.04	1785.83
293.26	1665.00
293.47	1759.21
293.69	1724.39
293.90	1708.01
294.12	1771.49
294.33	1699.81
294.55	1736.68
294.76	1771.49
294.97	1753.06
295.19	1863.65
295.40	1667.05
295.62	1693.67
295.83	1794.02
296.05	1724.39
296.26	1777.64
296.48	1656.81
296.69	1759.21
296.90	1671.14
297.12	1761.25
297.33	1759.21
297.55	1710.05
297.76	1732.58
297.98	1746.92
298.19	1697.77
298.41	1699.81
298.62	1681.38
298.83	1687.53
299.05	1751.01
299.26	1652.71
299.48	1665.00
299.69	1757.16
299.90	1751.01
300.12	1658.85
300.33	1757.16
300.55	1744.87
300.76	1683.43
300.98	1710.05
301.19	1687.53
301.40	1701.86
301.62	1689.57
301.83	1705.96
302.05	1763.30
302.26	1726.44
302.47	1699.81
302.69	1607.66
302.90	1726.44
303.12	1595.37
303.33	1722.34
303.54	1863.65
303.76	1728.49
303.97	1771.49
304.19	1863.65
304.40	1634.28
304.61	1757.16
304.83	1802.21
305.04	1779.68
305.26	1765.35
305.47	1626.09
305.68	1691.62
305.90	1732.58
306.11	1746.92
306.33	1669.09
306.54	1673.19
306.75	1681.38
306.97	1681.38
307.18	1673.19
307.39	1742.82
307.61	1716.20
307.82	1755.11
308.04	1714.15
308.25	1687.53
308.46	1757.16
308.68	1691.62
308.89	1701.86
309.10	1771.49
309.32	1753.06
309.53	1724.39
309.74	1826.79
309.96	1654.76
310.17	1712.10
310.39	1675.24
310.60	1685.48
310.81	1730.53
311.03	1642.47
311.24	1691.62
311.45	1652.71
311.67	1822.69
311.88	1730.53
312.09	1703.91
312.31	1681.38
312.52	1726.44
312.73	1677.29
312.95	1689.57
313.16	1671.14
313.37	1771.49
313.59	1777.64
313.80	1722.34
314.01	1755.11
314.23	1646.57
314.44	1718.25
314.65	1662.95
314.87	1638.38
315.08	1710.05
315.29	1615.85
315.51	1652.71
315.72	1662.95
315.93	1906.66
316.15	1742.82
316.36	1742.82
316.57	1703.91
316.79	1796.07
317.00	1685.48
317.21	1626.09
317.43	1632.23
317.64	1773.54
317.85	1632.23
318.07	1652.71
318.28	1748.97
318.49	1757.16
318.70	1931.23
318.92	1710.05
319.13	1765.35
319.34	1849.32
319.56	1851.36
319.77	1763.30
319.98	1742.82
320.20	1759.21
320.41	1791.97
320.62	1744.87
320.83	1632.23
321.05	1867.75
321.26	1781.73
321.47	1734.63
321.69	1771.49
321.90	1640.42
322.11	1703.91
322.32	1779.68
322.54	1765.35
322.75	1712.10
322.96	1818.60
323.18	1644.52
323.39	1630.18
323.60	1667.05
323.81	1673.19
324.03	1675.24
324.24	1710.05
324.45	1763.30
324.66	1667.05
324.88	1726.44
325.09	1871.84
325.30	1673.19
325.52	1720.29
325.73	1714.15
325.94	1644.52
326.15	1632.23
326.37	1621.99
326.58	1765.35
326.79	1738.73
327.00	1667.05
327.22	1685.48
327.43	1718.25
327.64	1595.37
327.85	1687.53
328.07	1748.97
328.28	1810.40
328.49	1681.38
328.70	1748.97
328.92	1677.29
329.13	1714.15
329.34	1710.05
329.55	1814.50
329.76	1746.92
329.98	1691.62
330.19	1791.97
330.40	1724.39
330.61	1804.26
330.83	1763.30
331.04	1687.53
331.25	1783.78
331.46	1710.05
331.68	1652.71
331.89	1794.02
332.10	1681.38
332.31	1689.57
332.52	1757.16
332.74	1767.40
332.95	1632.23
333.16	1705.96
333.37	1783.78
333.58	1753.06
333.80	1757.16
334.01	1675.24
334.22	1673.19
334.43	1685.48
334.64	1681.38
334.86	1652.71
335.07	1619.94
335.28	1794.02
335.49	1685.48
335.70	1669.09
335.92	1701.86
336.13	1843.17
336.34	1722.34
336.55	1734.63
336.76	1824.74
336.98	1638.38
337.19	1763.30
337.40	1824.74
337.61	1839.08
337.82	1648.61
338.04	1777.64
338.25	1595.37
338.46	1732.58
338.67	1685.48
338.88	1681.38
339.09	1615.85
339.31	1642.47
339.52	1652.71
339.73	1658.85
339.94	1708.01
340.15	1785.83
340.36	1675.24
340.58	1636.33
340.79	1626.09
341.00	1751.01
341.21	1599.46
341.42	1857.51
341.63	1689.57
341.85	1738.73
342.06	1708.01
342.27	1681.38
342.48	1765.35
342.69	1640.42
342.90	1769.44
343.12	1814.50
343.33	1654.76
343.54	1726.44
343.75	1734.63
343.96	1699.81
344.17	1714.15
344.38	1662.95
344.60	1724.39
344.81	1644.52
345.02	1734.63
345.23	1767.40
345.44	1824.74
345.65	1789.92
345.86	1669.09
346.07	1689.57
346.29	1675.24
346.50	1755.11
346.71	1681.38
346.92	1808.36
347.13	1810.40
347.34	1744.87
347.55	1748.97
347.76	1718.25
347.98	1621.99
348.19	1695.72
348.40	1751.01
348.61	1628.14
348.82	1837.03
349.03	1681.38
349.24	1665.00
349.45	1808.36
349.66	1519.59
349.88	1685.48
350.09	1689.57
350.30	1796.07
350.51	1746.92
350.72	1748.97
350.93	1671.14
351.14	1665.00
351.35	1665.00
351.56	1712.10
351.77	1703.91
351.99	1744.87
352.20	1820.64
352.41	1646.57
352.62	1595.37
352.83	1701.86
353.04	1767.40
353.25	1693.67
353.46	1761.25
353.67	1804.26
353.88	1601.51
354.09	1734.63
354.30	1656.81
354.52	1779.68
354.73	1714.15
354.94	1634.28
355.15	1722.34
355.36	1837.03
355.57	1687.53
355.78	1763.30
355.99	1654.76
356.20	1658.85
356.41	1787.88
356.62	1703.91
356.83	1746.92
357.04	1734.63
357.25	1679.33
357.46	1712.10
357.68	1638.38
357.89	1669.09
358.10	1751.01
358.31	1697.77
358.52	1730.53
358.73	1679.33
358.94	1710.05
359.15	1718.25
359.36	1785.83
359.57	1708.01
359.78	1681.38
359.99	1773.54
360.20	1683.43
360.41	1646.57
360.62	1789.92
360.83	1693.67
361.04	1730.53
361.25	1753.06
361.46	1884.13
361.67	1753.06
361.88	1710.05
362.09	1779.68
362.30	1722.34
362.51	1675.24
362.72	1726.44
362.93	1712.10
363.14	1726.44
363.35	1716.20
363.56	1656.81
363.78	1742.82
363.99	1777.64
364.20	1636.33
364.41	1763.30
364.62	1847.27
364.83	1722.34
365.04	1751.01
365.25	1619.94
365.46	1834.98
365.67	1685.48
365.88	1677.29
366.09	1662.95
366.30	1701.86
366.51	1744.87
366.72	1669.09
366.93	1673.19
367.14	1714.15
367.35	1808.36
367.56	1712.10
367.77	1820.64
367.98	1716.20
368.18	1751.01
368.39	1732.58
368.60	1648.61
368.81	1757.16
369.02	1679.33
369.23	1738.73
369.44	1626.09
369.65	1734.63
369.86	1724.39
370.07	1685.48
370.28	1705.96
370.49	1837.03
370.70	1656.81
370.91	1673.19
371.12	1652.71
371.33	1787.88
371.54	1738.73
371.75	1728.49
371.96	1595.37
372.17	1656.81
372.38	1689.57
372.59	1781.73
372.80	1611.75
373.01	1697.77
373.22	1669.09
373.43	1669.09
373.64	1656.81
373.85	1699.81
374.06	1751.01
374.26	1697.77
374.47	1628.14
374.68	1808.36
374.89	1701.86
375.10	1701.86
375.31	1748.97
375.52	1679.33
375.73	1761.25
375.94	1679.33
376.15	1763.30
376.36	1685.48
376.57	1662.95
376.78	1718.25
376.99	1736.68
377.20	1779.68
377.40	1710.05
377.61	1759.21
377.82	1675.24
378.03	1808.36
378.24	1777.64
378.45	1710.05
378.66	1675.24
378.87	1611.75
379.08	1675.24
379.29	1726.44
379.50	1804.26
379.71	1703.91
379.91	1724.39
380.12	1710.05
380.33	1642.47
380.54	1708.01
380.75	1720.29
380.96	1665.00
381.17	1746.92
381.38	1701.86
381.59	1779.68
381.80	1730.53
382.00	1925.09
382.21	1822.69
382.42	1771.49
382.63	1902.56
382.84	1851.36
383.05	1757.16
383.26	1765.35
383.47	1728.49
383.68	1744.87
383.88	1783.78
384.09	1611.75
384.30	1783.78
384.51	1695.72
384.72	1714.15
384.93	1570.79
385.14	1652.71
385.35	1705.96
385.55	1703.91
385.76	1800.16
385.97	1734.63
386.18	1613.80
386.39	1687.53
386.60	1708.01
386.81	1687.53
387.02	1681.38
387.22	1708.01
387.43	1820.64
387.64	1789.92
387.85	1898.47
388.06	2174.94
388.27	4503.48
388.48	6707.10
388.68	8361.86
388.89	9758.57
389.10	9779.05
389.31	8589.18
389.52	7749.51
389.73	6684.57
389.93	6182.82
390.14	5961.64
390.35	5269.42
390.56	4734.90
390.77	3753.93
390.98	3030.99
391.18	2510.81
391.39	2138.08
391.60	1951.71
391.81	1845.22
392.02	1773.54
392.23	1877.99
392.43	1775.59
392.64	1800.16
392.85	1701.86
393.06	1802.21
393.27	1689.57
393.47	1648.61
393.68	1798.12
393.89	1681.38
394.10	1787.88
394.31	1712.10
394.52	1665.00
394.72	1701.86
394.93	1789.92
395.14	1658.85
395.35	1738.73
395.56	1617.90
395.76	1718.25
395.97	1728.49
396.18	1748.97
396.39	1757.16
396.60	2035.68
396.80	1943.52
397.01	1845.22
397.22	1918.95
397.43	1800.16
397.64	1710.05
397.84	1839.08
398.05	1910.75
398.26	1740.77
398.47	1767.40
398.67	1785.83
398.88	1751.01
399.09	1703.91
399.30	1718.25
399.51	1810.40
399.71	1681.38
399.92	1699.81
400.13	1755.11
400.34	1740.77
400.54	1624.04
400.75	1759.21
400.96	1742.82
401.17	1791.97
401.37	1796.07
401.58	1716.20
401.79	1681.38
402.00	1892.32
402.21	2052.06
402.41	2009.06
402.62	1875.94
402.83	2088.93
403.04	1957.86
403.24	2109.41
403.45	1851.36
403.66	1861.60
403.87	1845.22
404.07	1933.28
404.28	1873.89
404.49	1877.99
404.70	1861.60
404.90	1832.93
405.11	1771.49
405.32	1759.21
405.52	1642.47
405.73	1712.10
405.94	1685.48
406.15	1722.34
406.35	1718.25
406.56	1796.07
406.77	1710.05
406.98	1712.10
407.18	1650.66
407.39	1843.17
407.60	1757.16
407.80	1775.59
408.01	1697.77
408.22	1808.36
408.43	1693.67
408.63	1767.40
408.84	1767.40
409.05	1681.38
409.25	1738.73
409.46	1656.81
409.67	1660.90
409.88	1685.48
410.08	1748.97
410.29	1669.09
410.50	1802.21
410.70	1746.92
410.91	1683.43
411.12	1730.53
411.32	1720.29
411.53	1656.81
411.74	1779.68
411.95	1763.30
412.15	1781.73
412.36	1767.40
412.57	1736.68
412.77	1867.75
412.98	1726.44
413.19	1744.87
413.39	1783.78
413.60	1724.39
413.81	1789.92
414.01	1624.04
414.22	1675.24
414.43	1746.92
414.63	1742.82
414.84	1791.97
415.05	1720.29
415.25	1665.00
415.46	1824.74
415.67	1697.77
415.87	1738.73
416.08	1699.81
416.29	1564.65
416.49	1689.57
416.70	1669.09
416.91	1652.71
417.11	1738.73
417.32	1683.43
417.53	1751.01
417.73	1656.81
417.94	1708.01
418.15	1693.67
418.35	1736.68
418.56	1759.21
418.77	1804.26
418.97	1689.57
419.18	1753.06
419.38	1671.14
419.59	1640.42
419.80	1830.88
420.00	1652.71
420.21	1689.57
420.42	1775.59
420.62	1722.34
420.83	1662.95
421.04	1748.97
421.24	1636.33
421.45	1697.77
421.65	1699.81
421.86	1677.29
422.07	1757.16
422.27	1685.48
422.48	1701.86
422.69	1667.05
422.89	1722.34
423.10	1734.63
423.30	1648.61
423.51	1789.92
423.72	1714.15
423.92	1753.06
424.13	1613.80
424.33	1771.49
424.54	1740.77
424.75	1738.73
424.95	1744.87
425.16	1724.39
425.36	1718.25
425.57	1808.36
425.78	1722.34
425.98	1802.21
426.19	1705.96
426.39	1720.29
426.60	1742.82
426.81	1812.45
427.01	1781.73
427.22	1716.20
427.42	1630.18
427.63	1662.95
427.83	1757.16
428.04	1742.82
428.25	1734.63
428.45	1783.78
428.66	1691.62
428.86	1726.44
429.07	1738.73
429.28	1689.57
429.48	1716.20
429.69	1636.33
429.89	1732.58
430.10	1646.57
430.30	1726.44
430.51	1794.02
430.71	1740.77
430.92	1757.16
431.13	1640.42
431.33	1755.11
431.54	1681.38
431.74	1822.69
431.95	1818.60
432.15	1632.23
432.36	1785.83
432.56	1771.49
432.77	1800.16
432.98	1822.69
433.18	1769.44
433.39	1710.05
433.59	1726.44
433.80	1796.07
434.00	1875.94
434.21	1767.40
434.41	1648.61
434.62	1855.46
434.82	1662.95
435.03	1656.81
435.23	1734.63
435.44	1591.27
435.64	1710.05
435.85	1697.77
436.06	1734.63
436.26	1808.36
436.47	1662.95
436.67	1648.61
436.88	1751.01
437.08	1673.19
437.29	1773.54
437.49	1775.59
437.70	1802.21
437.90	1722.34
438.11	1843.17
438.31	1730.53
438.52	1822.69
438.72	1916.90
438.93	1877.99
439.13	1787.88
439.34	1853.41
439.54	1730.53
439.75	1759.21
439.95	1859.56
440.16	1720.29
440.36	1779.68
440.57	1746.92
440.77	1751.01
440.98	1665.00
441.18	1724.39
441.39	1689.57
441.59	1671.14
441.80	1816.55
442.00	1720.29
442.21	1845.22
442.41	1621.99
442.62	1718.25
442.82	1738.73
443.02	1736.68
443.23	1779.68
443.43	1669.09
443.64	1806.31
443.84	1662.95
444.05	1828.84
444.25	1755.11
444.46	1685.48
444.66	1736.68
444.87	1787.88
445.07	1632.23
445.28	1757.16
445.48	1738.73
445.69	1740.77
445.89	1882.08
446.09	1755.11
446.30	2144.22
446.50	2586.58
446.71	3733.45
446.91	4265.92
447.12	4843.45
447.32	5052.34
447.53	4364.22
447.73	3774.41
447.93	3600.33
448.14	3385.29
448.34	3227.60
448.55	2987.99
448.75	2877.40
448.96	2664.41
449.16	2447.32
449.36	2289.63
449.57	2011.11
449.77	1894.37
449.98	1730.53
450.18	1849.32
450.39	1785.83
450.59	1787.88
450.79	1665.00
451.00	1703.91
451.20	1810.40
451.41	1669.09
451.61	1681.38
451.81	1753.06
452.02	1740.77
452.22	1705.96
452.43	1712.10
452.63	1705.96
452.84	1763.30
453.04	1652.71
453.24	1705.96
453.45	1708.01
453.65	1761.25
453.86	1775.59
454.06	1775.59
454.26	1738.73
454.47	1755.11
454.67	1871.84
454.87	1794.02
455.08	1802.21
455.28	1828.84
455.49	1759.21
455.69	1689.57
455.89	1959.91
456.10	1820.64
456.30	1705.96
456.51	1777.64
456.71	1804.26
456.91	1675.24
457.12	1742.82
457.32	1724.39
457.52	1671.14
457.73	1791.97
457.93	1689.57
458.14	1669.09
458.34	1683.43
458.54	1722.34
458.75	1714.15
458.95	1767.40
459.15	1812.45
459.36	1781.73
459.56	1728.49
459.76	1816.55
459.97	1775.59
460.17	1687.53
460.37	1775.59
460.58	1730.53
460.78	1755.11
460.99	1691.62
461.19	1742.82
461.39	1665.00
461.60	1716.20
461.80	1783.78
462.00	1701.86
462.21	1783.78
462.41	1691.62
462.61	1718.25
462.82	1662.95
463.02	1761.25
463.22	1632.23
463.43	1875.94
463.63	1742.82
463.83	1744.87
464.04	1714.15
464.24	1759.21
464.44	1683.43
464.64	1740.77
464.85	1779.68
465.05	1804.26
465.25	1697.77
465.46	1767.40
465.66	1771.49
465.86	1761.25
466.07	1705.96
466.27	1697.77
466.47	1624.04
466.68	1669.09
466.88	1794.02
467.08	1714.15
467.29	1742.82
467.49	1681.38
467.69	1769.44
467.89	1687.53
468.10	1718.25
468.30	1734.63
468.50	1755.11
468.71	1753.06
468.91	1626.09
469.11	1820.64
469.31	1761.25
469.52	1722.34
469.72	1888.23
469.92	1834.98
470.13	1800.16
470.33	1640.42
470.53	1779.68
470.73	2093.02
470.94	2269.15
471.14	2332.64
471.34	2525.15
471.54	2492.38
471.75	2154.46
471.95	2099.17
472.15	2015.20
472.36	2037.73
472.56	2021.35
472.76	2099.17
472.96	1984.48
473.17	1970.15
473.37	1933.28
473.57	1888.23
473.77	1892.32
473.98	1746.92
474.18	1683.43
474.38	1865.70
474.58	1630.18
474.79	1662.95
474.99	1744.87
475.19	1816.55
475.39	1673.19
475.60	1730.53
475.80	1783.78
476.00	1755.11
476.20	1699.81
476.41	1722.34
476.61	1787.88
476.81	1861.60
477.01	1642.47
477.21	1869.80
477.42	1863.65
477.62	1603.56
477.82	1742.82
478.02	1712.10
478.23	1802.21
478.43	1605.61
478.63	1689.57
478.83	1705.96
479.03	1724.39
479.24	1853.41
479.44	1826.79
479.64	1603.56
479.84	1566.70
480.04	1701.86
480.25	1773.54
480.45	1716.20
480.65	1714.15
480.85	1818.60
481.06	1746.92
481.26	1703.91
481.46	1748.97
481.66	1775.59
481.86	1720.29
482.06	1734.63
482.27	1691.62
482.47	1783.78
482.67	1732.58
482.87	1794.02
483.07	1734.63
483.28	1679.33
483.48	1611.75
483.68	1716.20
483.88	1630.18
484.08	1570.79
484.29	1619.94
484.49	1691.62
484.69	1685.48
484.89	1791.97
485.09	1828.84
485.29	1716.20
485.50	1765.35
485.70	1632.23
485.90	1812.45
486.10	1759.21
486.30	1679.33
486.50	1824.74
486.71	1722.34
486.91	1837.03
487.11	1767.40
487.31	1705.96
487.51	1775.59
487.71	1681.38
487.91	1607.66
488.12	1699.81
488.32	1617.90
488.52	1679.33
488.72	1722.34
488.92	1841.12
489.12	1738.73
489.32	1804.26
489.53	1791.97
489.73	1665.00
489.93	1796.07
490.13	1714.15
490.33	1671.14
490.53	1808.36
490.73	1796.07
490.94	1638.38
491.14	1816.55
491.34	1894.37
491.54	2041.82
491.74	2535.39
491.94	3045.33
492.14	3078.10
492.34	3055.57
492.54	2813.91
492.75	2478.04
492.95	2473.95
493.15	2355.16
493.35	2312.16
493.55	2242.53
493.75	2095.07
493.95	2258.91
494.15	1986.53
494.35	1904.61
494.56	1837.03
494.76	1806.31
494.96	1857.51
495.16	1837.03
495.36	1734.63
495.56	1789.92
495.76	1689.57
495.96	1677.29
496.16	1744.87
496.36	1869.80
496.56	1716.20
496.77	1763.30
496.97	1708.01
497.17	1818.60
497.37	1705.96
497.57	1783.78
497.77	1759.21
497.97	1771.49
498.17	1742.82
498.37	1703.91
498.57	1832.93
498.77	1746.92
498.97	1812.45
499.17	1839.08
499.38	1705.96
499.58	1751.01
499.78	1822.69
499.98	1800.16
500.18	1783.78
500.38	1734.63
500.58	1904.61
500.78	2533.34
500.98	4521.92
501.18	5859.24
501.38	6969.24
501.58	7124.88
501.78	6651.80
501.98	5480.36
502.18	5007.28
502.38	4470.72
502.58	4237.25
502.78	3823.56
502.98	3686.34
503.18	3565.51
503.38	3207.12
503.59	2811.86
503.79	2641.88
503.99	2557.91
504.19	2285.53
504.39	2244.57
504.59	2154.46
504.79	2144.22
504.99	1990.63
505.19	1933.28
505.39	1904.61
505.59	1972.19
505.79	1910.75
505.99	1822.69
506.19	1849.32
506.39	1902.56
506.59	1738.73
506.79	1705.96
506.99	1738.73
507.19	1808.36
507.39	1773.54
507.59	1679.33
507.79	1650.66
507.99	1652.71
508.19	1685.48
508.39	1781.73
508.59	1656.81
508.79	1859.56
508.99	1773.54
509.19	1714.15
509.39	1808.36
509.59	1693.67
509.79	1728.49
509.99	1810.40
510.19	1775.59
510.39	1779.68
510.59	1712.10
510.79	1708.01
510.99	1687.53
511.19	1701.86
511.39	1849.32
511.59	1775.59
511.79	1847.27
511.99	1697.77
512.19	1781.73
512.38	1726.44
512.58	1624.04
512.78	1730.53
512.98	1769.44
513.18	1865.70
513.38	1677.29
513.58	1841.12
513.78	1808.36
513.98	1722.34
514.18	1789.92
514.38	1710.05
514.58	1787.88
514.78	1740.77
514.98	1673.19
515.18	1658.85
515.38	1595.37
515.58	1877.99
515.78	1728.49
515.98	1767.40
516.18	1794.02
516.38	1771.49
516.57	1697.77
516.77	1669.09
516.97	1734.63
517.17	1726.44
517.37	1619.94
517.57	1740.77
517.77	1710.05
517.97	1650.66
518.17	1767.40
518.37	1714.15
518.57	1697.77
518.77	1783.78
518.97	1783.78
519.16	1769.44
519.36	1851.36
519.56	1751.01
519.76	1718.25
519.96	1763.30
520.16	1910.75
520.36	1730.53
520.56	1794.02
520.76	1716.20
520.96	1607.66
521.16	1802.21
521.35	1746.92
521.55	1882.08
521.75	1722.34
521.95	1628.14
522.15	1763.30
522.35	1697.77
522.55	1667.05
522.75	1781.73
522.95	1720.29
523.14	1714.15
523.34	1740.77
523.54	1714.15
523.74	1804.26
523.94	1767.40
524.14	1603.56
524.34	1722.34
524.54	1802.21
524.73	1732.58
524.93	1753.06
525.13	1800.16
525.33	1699.81
525.53	1871.84
525.73	1785.83
525.93	1687.53
526.13	1736.68
526.32	1759.21
526.52	1798.12
526.72	1746.92
526.92	1802.21
527.12	1718.25
527.32	1691.62
527.52	1771.49
527.71	1785.83
527.91	1789.92
528.11	1621.99
528.31	1789.92
528.51	1742.82
528.71	1849.32
528.90	1796.07
529.10	1841.12
529.30	1726.44
529.50	1621.99
529.70	1738.73
529.90	1703.91
530.09	1761.25
530.29	1691.62
530.49	1710.05
530.69	1935.33
530.89	1781.73
531.09	1763.30
531.28	1699.81
531.48	1810.40
531.68	1837.03
531.88	1708.01
532.08	1730.53
532.28	1720.29
532.47	1796.07
532.67	1783.78
532.87	1777.64
533.07	1720.29
533.27	1808.36
533.46	1761.25
533.66	1759.21
533.86	1726.44
534.06	1751.01
534.26	1693.67
534.45	1804.26
534.65	1765.35
534.85	1843.17
535.05	1763.30
535.25	1843.17
535.44	1626.09
535.64	1837.03
535.84	1724.39
536.04	1691.62
536.24	1744.87
536.43	1781.73
536.63	1726.44
536.83	1681.38
537.03	1783.78
537.22	1646.57
537.42	1705.96
537.62	1716.20
537.82	1673.19
538.02	1802.21
538.21	1757.16
538.41	1869.80
538.61	1753.06
538.81	1705.96
539.00	1763.30
539.20	1689.57
539.40	1710.05
539.60	1705.96
539.79	1781.73
539.99	1761.25
540.19	1712.10
540.39	1736.68
540.58	1820.64
540.78	1837.03
540.98	1720.29
541.18	1806.31
541.37	1830.88
541.57	1748.97
541.77	1751.01
541.97	1787.88
542.16	1714.15
542.36	1710.05
542.56	1771.49
542.76	1869.80
542.95	1818.60
543.15	1791.97
543.35	1734.63
543.54	1753.06
543.74	1656.81
543.94	1777.64
544.14	1738.73
544.33	1759.21
544.53	1775.59
544.73	1705.96
544.93	1685.48
545.12	1720.29
545.32	1722.34
545.52	1777.64
545.71	1730.53
545.91	1718.25
546.11	1718.25
546.30	1712.10
546.50	1716.20
546.70	1755.11
546.90	1847.27
547.09	1632.23
547.29	1791.97
547.49	1847.27
547.68	1730.53
547.88	1695.72
548.08	1843.17
548.27	2244.57
548.47	1775.59
548.67	1714.15
548.87	1691.62
549.06	1671.14
549.26	1808.36
549.46	1753.06
549.65	1716.20
549.85	1763.30
550.05	1787.88
550.24	1728.49
550.44	1738.73
550.64	1718.25
550.83	1775.59
551.03	1800.16
551.23	1777.64
551.42	1720.29
551.62	1777.64
551.82	1732.58
552.01	1656.81
552.21	1804.26
552.41	1710.05
552.60	1800.16
552.80	1726.44
553.00	1695.72
553.19	1765.35
553.39	1933.28
553.59	1695.72
553.78	1757.16
553.98	1818.60
554.17	1638.38
554.37	1785.83
554.57	1789.92
554.76	1669.09
554.96	1703.91
555.16	1794.02
555.35	1908.71
555.55	1798.12
555.75	1789.92
555.94	1767.40
556.14	1630.18
556.33	1753.06
556.53	1726.44
556.73	1757.16
556.92	1718.25
557.12	1816.55
557.32	1865.70
557.51	1849.32
557.71	1845.22
557.90	1875.94
558.10	1830.88
558.30	1626.09
558.49	1685.48
558.69	1761.25
558.88	1734.63
559.08	1777.64
559.28	1783.78
559.47	1703.91
559.67	1775.59
559.86	1918.95
560.06	1738.73
560.26	1693.67
560.45	1736.68
560.65	1699.81
560.84	1763.30
561.04	1703.91
561.24	1777.64
561.43	1665.00
561.63	1802.21
561.82	1757.16
562.02	1759.21
562.22	1656.81
562.41	1644.52
562.61	1726.44
562.80	1693.67
563.00	1857.51
563.19	1724.39
563.39	1832.93
563.59	1748.97
563.78	1697.77
563.98	1607.66
564.17	1703.91
564.37	1718.25
564.56	1716.20
564.76	1744.87
564.96	1857.51
565.15	1794.02
565.35	1861.60
565.54	1724.39
565.74	1769.44
565.93	1804.26
566.13	1794.02
566.32	1814.50
566.52	1800.16
566.71	1740.77
566.91	1853.41
567.11	1730.53
567.30	1710.05
567.50	1769.44
567.69	1826.79
567.89	1710.05
568.08	1697.77
568.28	1724.39
568.47	1611.75
568.67	1761.25
568.86	1701.86
569.06	1820.64
569.25	1734.63
569.45	1746.92
569.64	1687.53
569.84	1810.40
570.04	1806.31
570.23	1738.73
570.43	1804.26
570.62	1738.73
570.82	1800.16
571.01	1675.24
571.21	1710.05
571.40	1708.01
571.60	1757.16
571.79	1738.73
571.99	1746.92
572.18	1722.34
572.38	1804.26
572.57	1765.35
572.77	1722.34
572.96	1871.84
573.16	1796.07
573.35	1748.97
573.55	1830.88
573.74	1781.73
573.94	1734.63
574.13	1712.10
574.33	1851.36
574.52	1798.12
574.71	1779.68
574.91	1783.78
575.10	1679.33
575.30	1681.38
575.49	1728.49
575.69	1669.09
575.88	1806.31
576.08	1703.91
576.27	1748.97
576.47	1791.97
576.66	1910.75
576.86	1812.45
577.05	1714.15
577.25	1755.11
577.44	1906.66
577.64	1746.92
577.83	1785.83
578.02	1722.34
578.22	1796.07
578.41	1812.45
578.61	1751.01
578.80	1687.53
579.00	1738.73
579.19	1728.49
579.39	1847.27
579.58	1871.84
579.77	1746.92
579.97	1806.31
580.16	1779.68
580.36	1814.50
580.55	1814.50
580.75	1767.40
580.94	1783.78
581.13	1935.33
581.33	1853.41
581.52	1742.82
581.72	1904.61
581.91	1796.07
582.11	1716.20
582.30	1896.42
582.49	1822.69
582.69	1777.64
582.88	1783.78
583.08	1800.16
583.27	1845.22
583.47	1779.68
583.66	1724.39
583.85	1740.77
584.05	1769.44
584.24	1808.36
584.44	1765.35
584.63	1677.29
584.82	1802.21
585.02	1822.69
585.21	1896.42
585.41	1834.98
585.60	1877.99
585.79	1968.10
585.99	1935.33
586.18	1863.65
586.37	2197.47
586.57	3340.24
586.76	9998.18
586.96	24397.45
587.15	34655.73
587.34	40500.63
587.54	42616.18
587.73	36822.48
587.93	26506.86
588.12	21587.64
588.31	18566.88
588.51	16275.21
588.70	15462.16
588.89	14092.07
589.09	12697.41
589.28	11235.16
589.47	9422.70
589.67	8030.09
589.86	6473.63
590.06	4997.04
590.25	4057.03
590.44	3061.71
590.64	2586.58
590.83	2269.15
591.02	2056.16
591.22	1957.86
591.41	1841.12
591.60	1853.41
591.80	1980.39
591.99	1738.73
592.18	1781.73
592.38	1843.17
592.57	1753.06
592.76	1751.01
592.96	1730.53
593.15	1837.03
593.34	1808.36
593.54	1800.16
593.73	1791.97
593.92	1820.64
594.12	1755.11
594.31	1812.45
594.50	1861.60
594.70	1849.32
594.89	1873.89
595.08	1736.68
595.28	1730.53
595.47	1906.66
595.66	1726.44
595.86	1714.15
596.05	1677.29
596.24	1724.39
596.43	1888.23
596.63	1800.16
596.82	1859.56
597.01	1804.26
597.21	1875.94
597.40	1769.44
597.59	1726.44
597.79	1742.82
597.98	1843.17
598.17	1753.06
598.36	1755.11
598.56	1787.88
598.75	1724.39
598.94	1767.40
599.14	1828.84
599.33	1744.87
599.52	1804.26
599.71	1705.96
599.91	1812.45
600.10	1841.12
600.29	1677.29
600.48	1759.21
600.68	1806.31
600.87	1740.77
601.06	1732.58
601.26	1726.44
601.45	1779.68
601.64	1798.12
601.83	1904.61
602.03	1751.01
602.22	1669.09
602.41	1783.78
602.60	1888.23
602.80	1845.22
602.99	1800.16
603.18	1685.48
603.37	1732.58
603.57	1736.68
603.76	1785.83
603.95	1804.26
604.14	1724.39
604.34	1744.87
604.53	1736.68
604.72	1701.86
604.91	1861.60
605.10	1781.73
605.30	1634.28
605.49	1857.51
605.68	1775.59
605.87	1832.93
606.07	1736.68
606.26	1759.21
606.45	1816.55
606.64	1748.97
606.84	1740.77
607.03	1734.63
607.22	1796.07
607.41	1679.33
607.60	1679.33
607.80	1808.36
607.99	1767.40
608.18	1732.58
608.37	1771.49
608.56	1693.67
608.76	1757.16
608.95	1853.41
609.14	1728.49
609.33	1771.49
609.52	1812.45
609.72	1767.40
609.91	1755.11
610.10	1685.48
610.29	1816.55
610.48	1802.21
610.68	1740.77
610.87	1777.64
611.06	1779.68
611.25	1744.87
611.44	1828.84
611.63	1705.96
611.83	1832.93
612.02	1640.42
612.21	1814.50
612.40	1646.57
612.59	1662.95
612.79	1705.96
612.98	1765.35
613.17	1814.50
613.36	1798.12
613.55	1779.68
613.74	1712.10
613.93	1681.38
614.13	1757.16
614.32	1728.49
614.51	1783.78
614.70	1693.67
614.89	1644.52
615.08	1736.68
615.28	2039.78
615.47	1673.19
615.66	1726.44
615.85	1746.92
616.04	1855.46
616.23	1757.16
616.42	1738.73
616.62	1804.26
616.81	1714.15
617.00	1732.58
617.19	1845.22
617.38	1660.90
617.57	1808.36
617.76	1703.91
617.95	1779.68
618.15	1773.54
618.34	1748.97
618.53	1697.77
618.72	1845.22
618.91	1746.92
619.10	1855.46
619.29	1820.64
619.48	1753.06
619.68	1730.53
619.87	1740.77
620.06	1730.53
620.25	1724.39
620.44	1720.29
620.63	1630.18
620.82	1675.24
621.01	1658.85
621.20	1742.82
621.39	1681.38
621.59	1753.06
621.78	1773.54
621.97	1703.91
622.16	1757.16
622.35	1732.58
622.54	1771.49
622.73	1703.91
622.92	1753.06
623.11	1689.57
623.30	1746.92
623.49	1783.78
623.68	1695.72
623.88	1789.92
624.07	1669.09
624.26	1742.82
624.45	1697.77
624.64	1687.53
624.83	1789.92
625.02	1685.48
625.21	1738.73
625.40	1689.57
625.59	1869.80
625.78	1736.68
625.97	1720.29
626.16	1796.07
626.35	1834.98
626.54	1732.58
626.74	1832.93
626.93	1783.78
627.12	1681.38
627.31	1816.55
627.50	1744.87
627.69	1757.16
627.88	1734.63
628.07	1673.19
628.26	1640.42
628.45	1677.29
628.64	1685.48
628.83	1638.38
629.02	1679.33
629.21	1755.11
629.40	1679.33
629.59	1656.81
629.78	1691.62
629.97	1751.01
630.16	1718.25
630.35	1679.33
630.54	1689.57
630.73	1738.73
630.92	1714.15
631.11	1662.95
631.30	1742.82
631.49	1781.73
631.68	1798.12
631.87	1716.20
632.06	1718.25
632.25	1906.66
632.44	1744.87
632.63	1708.01
632.82	1708.01
633.01	1703.91
633.20	1712.10
633.39	1658.85
633.58	1636.33
633.77	1777.64
633.96	1794.02
634.15	1716.20
634.34	1755.11
634.53	1710.05
634.72	1736.68
634.91	1578.98
635.10	1703.91
635.29	1804.26
635.48	1705.96
635.67	1742.82
635.86	1675.24
636.05	1785.83
636.24	1681.38
636.43	1779.68
636.62	1783.78
636.81	1558.50
637.00	1771.49
637.19	1671.14
637.38	1751.01
637.57	1714.15
637.76	1681.38
637.95	1769.44
638.14	1671.14
638.33	1689.57
638.52	1730.53
638.71	1632.23
638.89	1675.24
639.08	1837.03
639.27	1738.73
639.46	1724.39
639.65	1757.16
639.84	1660.90
640.03	1699.81
640.22	1689.57
640.41	1814.50
640.60	1628.14
640.79	1773.54
640.98	1699.81
641.17	1759.21
641.36	1753.06
641.55	1697.77
641.74	1669.09
641.92	1642.47
642.11	1599.46
642.30	1699.81
642.49	1648.61
642.68	1708.01
642.87	1656.81
643.06	1718.25
643.25	1722.34
643.44	1658.85
643.63	1736.68
643.82	1726.44
644.00	1789.92
644.19	1695.72
644.38	1708.01
644.57	1755.11
644.76	1695.72
644.95	1710.05
645.14	1736.68
645.33	1736.68
645.52	1738.73
645.71	1665.00
645.89	1673.19
646.08	1744.87
646.27	1691.62
646.46	1843.17
646.65	1626.09
646.84	1693.67
647.03	1736.68
647.22	1804.26
647.40	1755.11
647.59	1714.15
647.78	1703.91
647.97	1665.00
648.16	1714.15
648.35	1806.31
648.54	1779.68
648.73	1660.90
648.91	1777.64
649.10	1767.40
649.29	1660.90
649.48	1724.39
649.67	1697.77
649.86	1695.72
650.05	1689.57
650.23	1751.01
650.42	1701.86
650.61	1755.11
650.80	1720.29
650.99	1816.55
651.18	1746.92
651.36	1796.07
651.55	1730.53
651.74	1724.39
651.93	1724.39
652.12	1638.38
652.31	1714.15
652.49	1648.61
652.68	1683.43
652.87	1822.69
653.06	1677.29
653.25	1855.46
653.44	1636.33
653.62	1779.68
653.81	1683.43
654.00	1718.25
654.19	1720.29
654.38	1902.56
654.56	1689.57
654.75	1687.53
654.94	1761.25
655.13	1677.29
655.32	1710.05
655.51	1769.44
655.69	1701.86
655.88	1837.03
656.07	1656.81
656.26	1757.16
656.45	1652.71
656.63	1730.53
656.82	1722.34
657.01	1767.40
657.20	1726.44
657.38	1806.31
657.57	1726.44
657.76	1638.38
657.95	1716.20
658.14	1726.44
658.32	1763.30
658.51	1722.34
658.70	1816.55
658.89	1693.67
659.08	1613.80
659.26	1800.16
659.45	1640.42
659.64	1724.39
659.83	1605.61
660.01	1947.62
660.20	1724.39
660.39	1767.40
660.58	1574.89
660.76	1736.68
660.95	1632.23
661.14	1740.77
661.33	1646.57
661.51	1742.82
661.70	1742.82
661.89	1701.86
662.08	1761.25
662.26	1685.48
662.45	1695.72
662.64	1779.68
662.83	1757.16
663.01	1671.14
663.20	1656.81
663.39	1820.64
663.58	1710.05
663.76	1748.97
663.95	1746.92
664.14	1656.81
664.32	1718.25
664.51	1640.42
664.70	1640.42
664.89	1773.54
665.07	1630.18
665.26	1804.26
665.45	1673.19
665.64	1824.74
665.82	1718.25
666.01	1759.21
666.20	1640.42
666.38	1736.68
666.57	1839.08
666.76	2285.53
666.95	4714.42
667.13	10289.00
667.32	15243.03
667.51	18216.68
667.69	19005.15
667.88	18001.65
668.07	12648.26
668.25	9539.44
668.44	8187.78
668.63	7319.44
668.81	6834.07
669.00	6397.85
669.19	5734.31
669.38	5238.70
669.56	4620.22
669.75	4050.88
669.94	3448.78
670.12	2918.36
670.31	2664.41
670.50	2291.68
670.68	2068.45
670.87	1923.04
671.06	1787.88
671.24	1789.92
671.43	1812.45
671.62	1763.30
671.80	1695.72
671.99	1734.63
672.18	1828.84
672.36	1806.31
672.55	1759.21
672.74	1718.25
672.92	1691.62
673.11	1695.72
673.29	1667.05
673.48	1814.50
673.67	1701.86
673.85	1761.25
674.04	1691.62
674.23	1761.25
674.41	1779.68
674.60	1662.95
674.79	1673.19
674.97	1730.53
675.16	1761.25
675.34	1824.74
675.53	1654.76
675.72	1769.44
675.90	1863.65
676.09	1718.25
676.28	1746.92
676.46	1648.61
676.65	1728.49
676.83	1669.09
677.02	1771.49
677.21	1728.49
677.39	1755.11
677.58	1648.61
677.77	1667.05
677.95	1648.61
678.14	1669.09
678.32	1759.21
678.51	1726.44
678.70	1826.79
678.88	1697.77
679.07	1722.34
679.25	1697.77
679.44	1677.29
679.63	1681.38
679.81	1771.49
680.00	1841.12
680.18	1765.35
680.37	1808.36
680.55	1624.04
680.74	1624.04
680.93	1660.90
681.11	1757.16
681.30	1718.25
681.48	1763.30
681.67	1673.19
681.85	1720.29
682.04	1683.43
682.23	1791.97
682.41	1791.97
682.60	1677.29
682.78	1736.68
682.97	1630.18
683.15	1699.81
683.34	1665.00
683.53	1814.50
683.71	1626.09
683.90	1861.60
684.08	1802.21
684.27	1710.05
684.45	1765.35
684.64	1763.30
684.82	1679.33
685.01	1755.11
685.19	1710.05
685.38	1855.46
685.57	1656.81
685.75	1744.87
685.94	1660.90
686.12	1628.14
686.31	1648.61
686.49	1816.55
686.68	1613.80
686.86	1785.83
687.05	1714.15
687.23	1763.30
687.42	1632.23
687.60	1593.32
687.79	1730.53
687.97	1857.51
688.16	1781.73
688.34	1734.63
688.53	1624.04
688.71	1759.21
688.90	1783.78
689.08	1708.01
689.27	1675.24
689.45	1708.01
689.64	1759.21
689.82	1746.92
690.01	1738.73
690.19	1683.43
690.38	1718.25
690.56	1818.60
690.75	1724.39
690.93	1619.94
691.12	1640.42
691.30	1746.92
691.49	1716.20
691.67	1716.20
691.86	1787.88
692.04	1650.66
692.23	1662.95
692.41	1769.44
692.60	1820.64
692.78	1693.67
692.97	1781.73
693.15	1724.39
693.34	1861.60
693.52	1783.78
693.71	1734.63
693.89	1675.24
694.08	1652.71
694.26	1765.35
694.44	1710.05
694.63	1730.53
694.81	1691.62
695.00	1771.49
695.18	1789.92
695.37	1888.23
695.55	1755.11
695.74	1621.99
695.92	1697.77
696.10	1736.68
696.29	1673.19
696.47	1710.05
696.66	1703.91
696.84	1650.66
697.03	1705.96
697.21	1886.18
697.40	2365.40
697.58	1767.40
697.76	1712.10
697.95	1687.53
698.13	1628.14
698.32	1673.19
698.50	1773.54
698.68	1703.91
698.87	1765.35
699.05	1734.63
699.24	1691.62
699.42	1632.23
699.61	1755.11
699.79	1685.48
699.97	1712.10
700.16	1593.32
700.34	1654.76
700.53	1759.21
700.71	1775.59
700.89	1753.06
701.08	1656.81
701.26	1722.34
701.45	2093.02
701.63	1685.48
701.81	1708.01
702.00	1703.91
702.18	1693.67
702.37	1673.19
702.55	1771.49
702.73	1671.14
702.92	1621.99
703.10	1796.07
703.28	1759.21
703.47	1681.38
703.65	1777.64
703.84	1689.57
704.02	1687.53
704.20	1787.88
704.39	1705.96
704.57	1746.92
704.75	1771.49
704.94	1722.34
705.12	1814.50
705.30	1757.16
705.49	2248.67
705.67	4530.11
705.86	9492.34
706.04	12805.95
706.22	14616.35
706.41	15361.81
706.59	14004.01
706.77	9701.23
706.96	7419.79
707.14	6789.02
707.32	5945.25
707.51	5539.76
707.69	5031.86
707.87	4286.40
708.06	3497.93
708.24	3074.00
708.42	2406.36
708.61	2271.20
708.79	1945.57
708.97	1853.41
709.16	1798.12
709.34	1785.83
709.52	1736.68
709.71	1777.64
709.89	1787.88
710.07	1671.14
710.26	1708.01
710.44	1746.92
710.62	1703.91
710.80	1685.48
710.99	1816.55
711.17	1808.36
711.35	1642.47
711.54	1679.33
711.72	1767.40
711.90	1798.12
712.09	1701.86
712.27	1665.00
712.45	1722.34
712.63	1685.48
712.82	1734.63
713.00	1730.53
713.18	1746.92
713.37	1746.92
713.55	1767.40
713.73	1730.53
713.91	1693.67
714.10	1734.63
714.28	1763.30
714.46	1681.38
714.65	1701.86
714.83	1683.43
715.01	1746.92
715.19	1720.29
715.38	1609.70
715.56	1771.49
715.74	1703.91
715.92	1656.81
716.11	1806.31
716.29	1638.38
716.47	1693.67
716.65	1730.53
716.84	1662.95
717.02	1824.74
717.20	1708.01
717.38	1677.29
717.57	1703.91
717.75	1708.01
717.93	1660.90
718.11	1746.92
718.30	1720.29
718.48	1759.21
718.66	1789.92
718.84	1804.26
719.03	1671.14
719.21	1654.76
719.39	1785.83
719.57	1746.92
719.75	1820.64
719.94	1652.71
720.12	1703.91
720.30	1724.39
720.48	1871.84
720.67	1599.46
720.85	1640.42
721.03	1738.73
721.21	1730.53
721.39	1779.68
721.58	1773.54
721.76	1669.09
721.94	1781.73
722.12	1748.97
722.30	1824.74
722.49	1736.68
722.67	1724.39
722.85	1699.81
723.03	1630.18
723.21	1591.27
723.40	1738.73
723.58	1724.39
723.76	1734.63
723.94	1798.12
724.12	1804.26
724.30	1720.29
724.49	1738.73
724.67	1669.09
724.85	1796.07
725.03	1705.96
725.21	1716.20
725.40	1781.73
725.58	1671.14
725.76	1787.88
725.94	1755.11
726.12	1658.85
726.30	1693.67
726.49	1675.24
726.67	1738.73
726.85	1757.16
727.03	1761.25
727.21	2160.61
727.39	2967.51
727.57	3786.69
727.76	4313.02
727.94	4493.24
728.12	4415.42
728.30	3674.06
728.48	3035.09
728.66	2748.37
728.84	2488.28
729.03	2318.30
729.21	2213.85
729.39	1970.15
729.57	1839.08
729.75	1871.84
729.93	1849.32
730.11	1728.49
730.30	1763.30
730.48	1652.71
730.66	1830.88
730.84	1685.48
731.02	1744.87
731.20	1603.56
731.38	1732.58
731.56	1660.90
731.74	1683.43
731.93	1691.62
732.11	1673.19
732.29	1714.15
732.47	1744.87
732.65	1718.25
732.83	1808.36
733.01	1794.02
733.19	1714.15
733.37	1632.23
733.56	1685.48
733.74	1675.24
733.92	1759.21
734.10	1671.14
734.28	1800.16
734.46	1652.71
734.64	1701.86
734.82	1734.63
735.00	1677.29
735.18	1681.38
735.36	1687.53
735.54	1724.39
735.73	1718.25
735.91	1693.67
736.09	1714.15
736.27	1781.73
736.45	1755.11
736.63	1619.94
736.81	1699.81
736.99	1732.58
737.17	1865.70
737.35	1732.58
737.53	1712.10
737.71	1642.47
737.89	1775.59
738.07	1628.14
738.25	1650.66
738.43	1691.62
738.61	1679.33
738.80	1677.29
738.98	1636.33
739.16	1679.33
739.34	1636.33
739.52	1804.26
739.70	1644.52
739.88	1808.36
740.06	1724.39
740.24	1650.66
740.42	1818.60
740.60	1587.18
740.78	1632.23
740.96	1660.90
741.14	1705.96
741.32	1732.58
741.50	1714.15
741.68	1791.97
741.86	1794.02
742.04	1634.28
742.22	1650.66
742.40	1773.54
742.58	1771.49
742.76	1634.28
742.94	1740.77
743.12	1615.85
743.30	1744.87
743.48	1730.53
743.66	1581.03
743.84	1667.05
744.02	1697.77
744.20	1710.05
744.38	1669.09
744.56	1697.77
744.74	1759.21
744.92	1765.35
745.10	1832.93
745.28	1742.82
745.46	1748.97
745.64	1673.19
745.82	1720.29
746.00	1697.77
746.18	1800.16
746.36	1691.62
746.54	1701.86
746.72	1662.95
746.90	1638.38
747.08	1730.53
747.26	1748.97
747.44	1765.35
747.62	1738.73
747.80	1771.49
747.98	1757.16
748.15	1722.34
748.33	1771.49
748.51	1740.77
748.69	1738.73
748.87	1705.96
749.05	1804.26
749.23	1742.82
749.41	1763.30
749.59	1689.57
749.77	1742.82
749.95	1656.81
750.13	1716.20
750.31	1738.73
750.49	1669.09
750.67	1808.36
750.85	1789.92
751.03	1708.01
751.20	1857.51
751.38	1644.52
751.56	1665.00
751.74	1736.68
751.92	1669.09
752.10	1669.09
752.28	1775.59
752.46	1697.77
752.64	1701.86
752.82	1722.34
753.00	1800.16
753.18	1652.71
753.35	1669.09
753.53	1697.77
753.71	1763.30
753.89	1697.77
754.07	1710.05
754.25	1740.77
754.43	1726.44
754.61	1619.94
754.79	1689.57
754.97	1691.62
755.14	1771.49
755.32	1646.57
755.50	1759.21
755.68	1796.07
755.86	1714.15
756.04	1677.29
756.22	1652.71
756.40	1740.77
756.57	1843.17
756.75	1665.00
756.93	1800.16
757.11	1742.82
757.29	1708.01
757.47	1662.95
757.65	1681.38
757.82	1587.18
758.00	1660.90
758.18	1671.14
758.36	1669.09
758.54	1822.69
758.72	1638.38
758.90	1781.73
759.07	1734.63
759.25	1640.42
759.43	1785.83
759.61	1566.70
759.79	2197.47
759.97	1761.25
760.15	1671.14
760.32	1630.18
760.50	1765.35
760.68	1804.26
760.86	1619.94
761.04	1804.26
761.22	1812.45
761.39	1677.29
761.57	1695.72
761.75	1724.39
761.93	1779.68
762.11	1708.01
762.28	1771.49
762.46	1665.00
762.64	1705.96
762.82	1632.23
763.00	1701.86
763.18	1767.40
763.35	1654.76
763.53	1816.55
763.71	1720.29
763.89	1755.11
764.07	1703.91
764.24	1748.97
764.42	1800.16
764.60	1708.01
764.78	1730.53
764.96	1740.77
765.13	1748.97
765.31	1652.71
765.49	1742.82
765.67	1718.25
765.84	1605.61
766.02	1714.15
766.20	1562.60
766.38	1742.82
766.56	1683.43
766.73	1689.57
766.91	1724.39
767.09	1685.48
767.27	1736.68
767.44	1712.10
767.62	1718.25
767.80	1734.63
767.98	1726.44
768.15	1742.82
768.33	1730.53
768.51	1705.96
768.69	1763.30
768.87	1673.19
769.04	1675.24
769.22	1794.02
769.40	1806.31
769.58	1900.52
769.75	1695.72
769.93	1814.50
770.11	1697.77
770.28	1546.22
770.46	1804.26
770.64	1740.77
770.82	1755.11
770.99	1718.25
771.17	1714.15
771.35	1722.34
771.53	1765.35
771.70	1740.77
771.88	1677.29
772.06	1697.77
772.23	1630.18
772.41	1738.73
772.59	1660.90
772.77	1646.57
772.94	1720.29
773.12	1675.24
773.30	1660.90
773.47	1742.82
773.65	1730.53
773.83	1839.08
774.01	1724.39
774.18	1525.74
774.36	1697.77
774.54	1542.12
774.71	1722.34
774.89	1589.22
775.07	1679.33
775.24	1675.24
775.42	1720.29
775.60	1820.64
775.78	1679.33
775.95	1632.23
776.13	1581.03
776.31	1632.23
776.48	1726.44
776.66	1806.31
776.84	1691.62
777.01	1656.81
777.19	1703.91
777.37	1644.52
777.54	1720.29
777.72	1775.59
777.90	1722.34
778.07	1683.43
778.25	1900.52
778.43	1732.58
778.60	1693.67
778.78	1789.92
778.96	1800.16
779.13	1705.96
779.31	1820.64
779.49	1646.57
779.66	1701.86
779.84	1646.57
780.01	1654.76
780.19	1742.82
780.37	1787.88
780.54	1710.05
780.72	1718.25
780.90	1730.53
781.07	1611.75
781.25	1634.28
781.43	1730.53
781.60	1787.88
781.78	1802.21
781.95	1736.68
782.13	1640.42
782.31	1658.85
782.48	1662.95
782.66	1665.00
782.83	1880.04
783.01	1869.80
783.19	1785.83
783.36	1724.39
783.54	1636.33
783.72	1742.82
783.89	1705.96
784.07	1675.24
784.24	1742.82
784.42	1763.30
784.60	1693.67
784.77	1759.21
784.95	1515.50
785.12	1656.81
785.30	1720.29
785.47	1691.62
785.65	1611.75
785.83	1753.06
786.00	1615.85
786.18	1757.16
786.35	1683.43
786.53	1693.67
786.71	1785.83
786.88	1783.78
787.06	1738.73
787.23	1710.05
787.41	1634.28
787.58	1775.59
787.76	1746.92
787.94	1730.53
788.11	1685.48
788.29	1617.90
788.46	1673.19
788.64	1634.28
788.81	1624.04
788.99	1619.94
789.16	1746.92
789.34	1726.44
789.52	1701.86
789.69	1693.67
789.87	1632.23
790.04	1730.53
790.22	1705.96
790.39	1757.16
790.57	1691.62
790.74	1746.92
790.92	1726.44
791.09	1675.24
791.27	1728.49
791.44	1828.84
791.62	1650.66
791.79	1738.73
791.97	1777.64
792.15	1882.08
792.32	1703.91
792.50	1722.34
792.67	1806.31
792.85	1769.44
793.02	1660.90
793.20	1673.19
793.37	1595.37
793.55	1732.58
793.72	1695.72
793.90	1710.05
794.07	1761.25
794.25	1724.39
794.42	1755.11
794.60	1767.40
794.77	1742.82
794.95	1789.92
795.12	1736.68
795.30	1740.77
795.47	1624.04
795.65	1867.75
795.82	1710.05
796.00	1712.10
796.17	1683.43
796.34	1615.85
796.52	1730.53
796.69	1724.39
796.87	1740.77
797.04	1718.25
797.22	1673.19
797.39	1751.01
797.57	1730.53
797.74	1683.43
797.92	1689.57
798.09	1671.14
798.27	1712.10
798.44	1699.81
798.62	1697.77
798.79	1759.21
798.96	1710.05
799.14	1611.75
799.31	1812.45
799.49	1730.53
799.66	1681.38
799.84	1654.76
800.01	1628.14
800.19	1796.07
800.36	1611.75
800.53	1640.42
800.71	1837.03
800.88	1798.12
801.06	1642.47
801.23	1693.67
801.41	1652.71
801.58	1583.08
801.75	1730.53
801.93	1667.05
802.10	1761.25
802.28	1710.05
802.45	1648.61
802.63	1716.20
802.80	1722.34
802.97	1671.14
803.15	1746.92
803.32	1714.15
803.50	1669.09
803.67	1619.94
803.84	1628.14
804.02	1738.73
804.19	1736.68
804.37	1572.84
804.54	1572.84
804.71	1728.49
804.89	1636.33
805.06	1675.24
805.24	1681.38
805.41	1689.57
805.58	1710.05
805.76	1853.41
805.93	1753.06
806.10	1738.73
806.28	1767.40
806.45	1763.30
806.63	1695.72
806.80	1738.73
806.97	1710.05
807.15	1712.10
807.32	1699.81
807.49	1765.35
807.67	1648.61
807.84	1699.81
808.01	1628.14
808.19	1845.22
808.36	1730.53
808.54	1689.57
808.71	1720.29
808.88	1763.30
809.06	1777.64
809.23	1818.60
809.40	1738.73
809.58	1759.21
809.75	1732.58
809.92	1636.33
810.10	1779.68
810.27	1724.39
810.44	1677.29
810.62	1761.25
810.79	1753.06
810.96	1634.28
811.14	1712.10
811.31	1714.15
811.48	1685.48
811.66	1662.95
811.83	1871.84
812.00	1716.20
812.18	1716.20
812.35	1847.27
812.52	1658.85
812.69	1660.90
812.87	1718.25
813.04	1705.96
813.21	1736.68
813.39	1597.42
813.56	1751.01
813.73	1701.86
813.91	1591.27
814.08	1701.86
814.25	1669.09
814.42	1652.71
814.60	1699.81
814.77	1761.25
814.94	1712.10
815.12	1759.21
815.29	1757.16
815.46	1712.10
815.63	1722.34
815.81	1722.34
815.98	1744.87
816.15	1693.67
816.33	1708.01
816.50	1736.68
816.67	1734.63
816.84	1654.76
817.02	1644.52
817.19	1724.39
817.36	1798.12
817.53	1705.96
817.71	1695.72
817.88	1828.84
818.05	1746.92
818.22	1675.24
818.40	1855.46
818.57	1734.63
818.74	1714.15
818.91	1685.48
819.09	1787.88
819.26	1791.97
819.43	1675.24
819.60	1722.34
819.78	1662.95
819.95	1787.88
820.12	1650.66
820.29	1822.69
820.47	1783.78
820.64	1697.77
820.81	1697.77
820.98	1634.28
821.15	1662.95
821.33	1771.49
821.50	1603.56
821.67	1675.24
821.84	1673.19
822.02	1705.96
822.19	1806.31
822.36	1724.39
822.53	1665.00
822.70	1607.66
822.88	1683.43
823.05	1771.49
823.22	1755.11
823.39	1724.39
823.56	1650.66
823.74	1832.93
823.91	1683.43
824.08	1650.66
824.25	1642.47
824.42	1822.69
824.60	1683.43
824.77	1748.97
824.94	1701.86
825.11	1740.77
825.28	1660.90
825.45	1667.05
825.63	1689.57
825.80	1681.38
825.97	1705.96
826.14	1705.96
826.31	1611.75
826.48	1730.53
826.66	1665.00
826.83	1724.39
827.00	1681.38
827.17	1648.61
827.34	1714.15
827.51	1658.85
827.69	1691.62
827.86	1611.75
828.03	1671.14
828.20	1716.20
828.37	1628.14
828.54	1720.29
828.71	1677.29
828.89	1791.97
829.06	1736.68
829.23	1765.35
829.40	1708.01
829.57	1660.90
829.74	1746.92
829.91	1613.80
830.09	1667.05
830.26	1716.20
830.43	1742.82
830.60	1732.58
830.77	1787.88
830.94	1746.92
831.11	1744.87
831.28	1714.15
831.46	1738.73
831.63	1712.10
831.80	1765.35
831.97	1697.77
832.14	1710.05
832.31	1814.50
832.48	1693.67
832.65	1693.67
832.82	1720.29
832.99	1724.39
833.17	1695.72
833.34	1886.18
833.51	1736.68
833.68	1587.18
833.85	1763.30
834.02	1724.39
834.19	1748.97
834.36	1710.05
834.53	1806.31
834.70	1753.06
834.87	1732.58
835.04	1710.05
835.22	1640.42
835.39	1705.96
835.56	1705.96
835.73	1644.52
835.90	1730.53
836.07	1570.79
836.24	1726.44
836.41	1679.33
836.58	1658.85
836.75	1791.97
836.92	1714.15
837.09	1634.28
837.26	1697.77
837.43	1779.68
837.60	1746.92
837.77	1689.57
837.94	1761.25
838.12	1808.36
838.29	1656.81
838.46	1587.18
838.63	1697.77
838.80	1757.16
838.97	1728.49
839.14	1759.21
839.31	1683.43
839.48	1765.35
839.65	1712.10
839.82	1763.30
839.99	1652.71
840.16	1701.86
840.33	1716.20
840.50	1798.12
840.67	1673.19
840.84	1497.07
841.01	1703.91
841.18	1740.77
841.35	1632.23
841.52	1718.25
841.69	1824.74
841.86	1773.54
842.03	1685.48
842.20	1791.97
842.37	1710.05
842.54	1740.77
842.71	1681.38
842.88	1681.38
843.05	1769.44
843.22	1697.77
843.39	1779.68
843.56	1675.24
843.73	1665.00
843.90	1753.06
844.07	1671.14
844.24	1755.11
844.41	1804.26
844.58	1685.48
844.75	1771.49
844.92	1777.64
845.09	1636.33
845.26	1669.09
845.43	1757.16
845.60	1753.06
845.77	1814.50
845.94	1677.29
846.10	1748.97
846.27	1628.14
846.44	1642.47
846.61	1587.18
846.78	1703.91
846.95	1789.92
847.12	1683.43
847.29	1708.01
847.46	1685.48
847.63	1693.67
847.80	1681.38
847.97	1724.39
848.14	1824.74
848.31	1705.96
848.48	1574.89
848.65	1720.29
848.82	1617.90
848.98	1755.11
849.15	1746.92
849.32	1834.98
849.49	1755.11
849.66	1753.06
849.83	1677.29
850.00	1667.05
850.17	1777.64
850.34	1695.72
850.51	1693.67
850.68	1705.96
850.85	1804.26
851.01	1810.40
851.18	1759.21
851.35	1685.48
851.52	1701.86
851.69	1652.71
851.86	1595.37
852.03	1687.53
852.20	1759.21
852.37	1687.53
852.53	1605.61
852.70	1796.07
852.87	1636.33
853.04	1779.68
853.21	1642.47
853.38	1726.44
853.55	1773.54
853.72	1777.64
853.89	1677.29
854.05	1673.19
854.22	1646.57
854.39	1644.52
854.56	1753.06
854.73	1732.58
854.90	1691.62
855.07	1689.57
855.23	1671.14
855.40	1591.27
855.57	1658.85
855.74	1648.61
855.91	1779.68
856.08	1636.33
856.25	1720.29
856.41	1624.04
856.58	1708.01
856.75	1685.48
856.92	1570.79
857.09	1738.73
857.26	1660.90
857.42	1630.18
857.59	1720.29
857.76	1736.68
857.93	1800.16
858.10	1701.86
858.27	1665.00
858.43	1744.87
858.60	1728.49
858.77	1568.74
858.94	1685.48
859.11	1728.49
859.27	1662.95
859.44	1781.73
859.61	1730.53
859.78	1703.91
859.95	1648.61
860.12	1708.01
860.28	1828.84
860.45	1789.92
860.62	1683.43
860.79	1738.73
860.95	1708.01
861.12	1658.85
861.29	1675.24
861.46	1671.14
861.63	1699.81
861.79	1789.92
861.96	1636.33
862.13	1617.90
862.30	1767.40
862.47	1705.96
862.63	1701.86
862.80	1751.01
862.97	1791.97
863.14	1761.25
863.30	1730.53
863.47	1681.38
863.64	1779.68
863.81	1751.01
863.97	1697.77
864.14	1699.81
864.31	1710.05
864.48	1761.25
864.65	1738.73
864.81	1775.59
864.98	1761.25
865.15	1751.01
865.32	1765.35
865.48	1826.79
865.65	1787.88
865.82	1683.43
865.98	1687.53
866.15	1798.12
866.32	1679.33
866.49	1660.90
866.65	1820.64
866.82	1648.61
866.99	1691.62
867.16	1732.58
867.32	1673.19
867.49	1665.00
867.66	1740.77
867.83	1665.00
867.99	1652.71
868.16	1648.61
868.33	1689.57
868.49	1708.01
868.66	1671.14
868.83	1800.16
868.99	1773.54
869.16	1619.94
869.33	1787.88
869.50	1708.01
869.66	1699.81
869.83	1693.67
870.00	1642.47
870.16	1751.01
870.33	1701.86
870.50	1720.29
870.66	1646.57
870.83	1767.40
871.00	1699.81
871.17	1689.57
871.33	1748.97
871.50	1693.67
871.67	1732.58
871.83	1648.61
872.00	1759.21
872.17	1669.09
872.33	1845.22
872.50	1740.77
872.67	1673.19
872.83	1599.46
873.00	1687.53
873.17	1767.40
873.33	1681.38
873.50	1726.44
873.67	1638.38
873.83	1712.10
874.00	1714.15
874.16	1800.16
874.33	1742.82
874.50	1576.94
874.66	1773.54
874.83	1732.58
875.00	1708.01
875.16	1783.78
875.33	1724.39
875.50	1554.41
875.66	1701.86
875.83	1683.43
875.99	1746.92
876.16	1687.53
876.33	1624.04
876.49	1644.52
876.66	1753.06
876.83	1646.57
876.99	1595.37
877.16	1693.67
877.32	1734.63
877.49	1720.29
877.66	1693.67
877.82	1763.30
877.99	1638.38
878.15	1738.73
878.32	1781.73
878.49	1724.39
878.65	1734.63
878.82	1779.68
878.98	1710.05
879.15	1751.01
879.32	1769.44
879.48	1722.34
879.65	1689.57
879.81	1675.24
879.98	1648.61
880.15	1685.48
880.31	1728.49
880.48	1652.71
880.64	1759.21
880.81	1748.97
880.97	1718.25
881.14	1716.20
881.31	1687.53
881.47	1869.80
881.64	1695.72
881.80	1593.32
881.97	1697.77
882.13	1767.40
882.30	1726.44
882.47	1685.48
882.63	1654.76
882.80	1710.05
882.96	1621.99
883.13	1722.34
883.29	1777.64
883.46	1744.87
883.62	1781.73
883.79	1751.01
883.95	1779.68
884.12	1753.06
884.29	1724.39
884.45	1814.50
884.62	1769.44
884.78	1650.66
884.95	1791.97
885.11	1591.27
885.28	1791.97
885.44	1646.57
885.61	1740.77
885.77	1726.44
885.94	1767.40
886.10	1673.19
886.27	1667.05
886.43	1839.08
886.60	1736.68
886.76	1695.72
886.93	1673.19
887.09	1732.58
887.26	1607.66
887.42	1648.61
887.59	1689.57
887.75	1808.36
887.92	1763.30
888.08	1796.07
888.25	1726.44
888.41	1738.73
888.58	1730.53
888.74	1630.18
888.91	1609.70
>>>>>End Processed Spectral Data<<<<<
