SpectraSuite Data File
++++++++++++++++++++++++++++++++++++
Date: Mon Jun 06 15:07:37 CEST 2016
User: root
Dark Spectrum Present: No
Reference Spectrum Present: No
Number of Sampled Component Spectra: 1
Spectrometers: USB4C02835
Integration Time (usec): 100000 (USB4C02835)
Spectra Averaged: 1 (USB4C02835)
Boxcar Smoothing: 0 (USB4C02835)
Correct for Electrical Dark: No (USB4C02835)
Strobe/Lamp Enabled: No (USB4C02835)
Correct for Detector Non-linearity: No (USB4C02835)
Correct for Stray Light: No (USB4C02835)
Number of Pixels in Processed Spectrum: 3648
>>>>>Begin Processed Spectral Data<<<<<
177.47	1447.91
177.69	1447.91
177.91	1447.91
178.13	1513.45
178.36	1472.49
178.58	1677.29
178.80	1705.96
179.02	1654.76
179.24	1660.90
179.46	1665.00
179.68	1726.44
179.90	1695.72
180.13	1648.61
180.35	1669.09
180.57	1667.05
180.79	1728.49
181.01	1687.53
181.23	1759.21
181.45	1830.88
181.67	1673.19
181.90	1720.29
182.12	1738.73
182.34	1640.42
182.56	1742.82
182.78	1726.44
183.00	1632.23
183.22	1738.73
183.44	1593.32
183.66	1802.21
183.89	1818.60
184.11	1720.29
184.33	1718.25
184.55	1742.82
184.77	1728.49
184.99	1681.38
185.21	1630.18
185.43	1783.78
185.65	1642.47
185.87	1820.64
186.10	1812.45
186.32	1859.56
186.54	1677.29
186.76	1730.53
186.98	1751.01
187.20	1699.81
187.42	1648.61
187.64	1599.46
187.86	1685.48
188.08	1746.92
188.30	1712.10
188.52	1701.86
188.75	1734.63
188.97	1853.41
189.19	1660.90
189.41	1703.91
189.63	1722.34
189.85	1648.61
190.07	1554.41
190.29	1640.42
190.51	1722.34
190.73	1607.66
190.95	1736.68
191.17	1675.24
191.39	1660.90
191.61	1634.28
191.84	1679.33
192.06	1720.29
192.28	1652.71
192.50	1746.92
192.72	1658.85
192.94	1724.39
193.16	1787.88
193.38	1636.33
193.60	1583.08
193.82	1699.81
194.04	1724.39
194.26	1691.62
194.48	1638.38
194.70	1675.24
194.92	1710.05
195.14	1722.34
195.36	1685.48
195.58	1718.25
195.80	1689.57
196.02	1607.66
196.24	1765.35
196.46	1753.06
196.69	1660.90
196.91	1892.32
197.13	1695.72
197.35	1566.70
197.57	1767.40
197.79	1681.38
198.01	1632.23
198.23	1660.90
198.45	1677.29
198.67	1683.43
198.89	1687.53
199.11	1697.77
199.33	1640.42
199.55	1634.28
199.77	1744.87
199.99	1808.36
200.21	1683.43
200.43	1673.19
200.65	1656.81
200.87	1585.13
201.09	1718.25
201.31	1669.09
201.53	1767.40
201.75	1751.01
201.97	1722.34
202.19	1767.40
202.41	1718.25
202.63	1771.49
202.85	1722.34
203.07	1642.47
203.29	1652.71
203.51	1675.24
203.73	1607.66
203.95	1884.13
204.17	1746.92
204.39	1714.15
204.61	1665.00
204.83	1720.29
205.05	1789.92
205.27	1697.77
205.49	1847.27
205.71	1699.81
205.93	1642.47
206.15	1662.95
206.37	1736.68
206.59	1699.81
206.81	1624.04
207.03	1576.94
207.25	1701.86
207.47	1710.05
207.69	1710.05
207.91	1724.39
208.13	1777.64
208.34	1714.15
208.56	1574.89
208.78	1728.49
209.00	1636.33
209.22	1638.38
209.44	1683.43
209.66	1710.05
209.88	1681.38
210.10	1685.48
210.32	1609.70
210.54	1773.54
210.76	1767.40
210.98	1761.25
211.20	1638.38
211.42	1683.43
211.64	1763.30
211.86	1753.06
212.08	1679.33
212.30	1744.87
212.52	1728.49
212.74	1755.11
212.96	1730.53
213.17	1791.97
213.39	1730.53
213.61	1847.27
213.83	1667.05
214.05	1615.85
214.27	1751.01
214.49	1632.23
214.71	1656.81
214.93	1798.12
215.15	1697.77
215.37	1730.53
215.59	1615.85
215.81	1701.86
216.03	1787.88
216.24	1693.67
216.46	1695.72
216.68	1642.47
216.90	1787.88
217.12	1751.01
217.34	1650.66
217.56	1718.25
217.78	1798.12
218.00	1730.53
218.22	1738.73
218.44	1714.15
218.66	1724.39
218.87	1814.50
219.09	1687.53
219.31	1734.63
219.53	1708.01
219.75	1671.14
219.97	1673.19
220.19	1689.57
220.41	1705.96
220.63	1720.29
220.85	1728.49
221.06	1644.52
221.28	1753.06
221.50	1718.25
221.72	1679.33
221.94	1689.57
222.16	1708.01
222.38	1689.57
222.60	1771.49
222.82	1658.85
223.03	1691.62
223.25	1589.22
223.47	1771.49
223.69	1832.93
223.91	1769.44
224.13	1722.34
224.35	1697.77
224.57	1771.49
224.78	1785.83
225.00	1665.00
225.22	1763.30
225.44	1667.05
225.66	1718.25
225.88	1695.72
226.10	1724.39
226.32	1701.86
226.53	1802.21
226.75	1675.24
226.97	1650.66
227.19	1669.09
227.41	1576.94
227.63	1753.06
227.85	1621.99
228.06	1765.35
228.28	1636.33
228.50	1753.06
228.72	1652.71
228.94	1673.19
229.16	1583.08
229.37	1640.42
229.59	1703.91
229.81	1771.49
230.03	1703.91
230.25	1570.79
230.47	1617.90
230.69	1632.23
230.90	1691.62
231.12	1695.72
231.34	1757.16
231.56	1791.97
231.78	1675.24
232.00	1681.38
232.21	1763.30
232.43	1572.84
232.65	1648.61
232.87	1716.20
233.09	1632.23
233.30	1660.90
233.52	1703.91
233.74	1722.34
233.96	1695.72
234.18	1718.25
234.40	1613.80
234.61	1861.60
234.83	1689.57
235.05	1667.05
235.27	1902.56
235.49	1787.88
235.70	1683.43
235.92	1767.40
236.14	1773.54
236.36	1849.32
236.58	1677.29
236.79	1728.49
237.01	1705.96
237.23	1648.61
237.45	1832.93
237.67	1697.77
237.88	1759.21
238.10	1796.07
238.32	1644.52
238.54	1691.62
238.76	1640.42
238.97	1654.76
239.19	1689.57
239.41	1791.97
239.63	1787.88
239.85	1605.61
240.06	1703.91
240.28	1695.72
240.50	1722.34
240.72	1742.82
240.93	1673.19
241.15	1736.68
241.37	1691.62
241.59	1761.25
241.81	1660.90
242.02	1710.05
242.24	1724.39
242.46	1796.07
242.68	1726.44
242.89	1681.38
243.11	1685.48
243.33	1720.29
243.55	1718.25
243.76	1718.25
243.98	1675.24
244.20	1697.77
244.42	1701.86
244.64	1716.20
244.85	1605.61
245.07	1677.29
245.29	1728.49
245.51	1712.10
245.72	1796.07
245.94	1685.48
246.16	1744.87
246.38	1697.77
246.59	1634.28
246.81	1617.90
247.03	1744.87
247.24	1634.28
247.46	1796.07
247.68	1718.25
247.90	1767.40
248.11	1593.32
248.33	1763.30
248.55	1689.57
248.77	1742.82
248.98	1798.12
249.20	1738.73
249.42	1742.82
249.64	1724.39
249.85	1667.05
250.07	1673.19
250.29	1708.01
250.50	1746.92
250.72	1681.38
250.94	1654.76
251.16	1832.93
251.37	1775.59
251.59	1703.91
251.81	1705.96
252.02	1740.77
252.24	1703.91
252.46	1767.40
252.68	1601.51
252.89	1640.42
253.11	1587.18
253.33	1800.16
253.54	1730.53
253.76	1683.43
253.98	1660.90
254.20	1667.05
254.41	1703.91
254.63	1681.38
254.85	1654.76
255.06	1718.25
255.28	1759.21
255.50	1701.86
255.71	1691.62
255.93	1591.27
256.15	1761.25
256.36	1742.82
256.58	1671.14
256.80	1746.92
257.02	1654.76
257.23	1703.91
257.45	1650.66
257.67	1753.06
257.88	1650.66
258.10	1732.58
258.32	1730.53
258.53	1644.52
258.75	1820.64
258.97	1632.23
259.18	1699.81
259.40	1681.38
259.62	1832.93
259.83	1820.64
260.05	1695.72
260.27	1992.67
260.48	1712.10
260.70	1732.58
260.92	1673.19
261.13	1705.96
261.35	1689.57
261.57	1720.29
261.78	1646.57
262.00	1683.43
262.22	1742.82
262.43	1644.52
262.65	1720.29
262.86	1607.66
263.08	1787.88
263.30	1728.49
263.51	1624.04
263.73	1679.33
263.95	1787.88
264.16	1576.94
264.38	1746.92
264.60	1685.48
264.81	1701.86
265.03	1675.24
265.25	1767.40
265.46	1734.63
265.68	1824.74
265.89	1714.15
266.11	1601.51
266.33	1712.10
266.54	1738.73
266.76	1742.82
266.98	1675.24
267.19	1759.21
267.41	1820.64
267.62	1710.05
267.84	1693.67
268.06	1708.01
268.27	1736.68
268.49	1818.60
268.70	1748.97
268.92	1724.39
269.14	1677.29
269.35	1581.03
269.57	1615.85
269.79	1763.30
270.00	1740.77
270.22	1814.50
270.43	1683.43
270.65	1611.75
270.87	1665.00
271.08	1730.53
271.30	1755.11
271.51	1646.57
271.73	1730.53
271.95	1779.68
272.16	1669.09
272.38	1708.01
272.59	1673.19
272.81	1685.48
273.02	1693.67
273.24	1742.82
273.46	1683.43
273.67	1685.48
273.89	1669.09
274.10	1624.04
274.32	1785.83
274.54	1650.66
274.75	1755.11
274.97	1648.61
275.18	1779.68
275.40	1697.77
275.61	1738.73
275.83	1685.48
276.05	1671.14
276.26	1722.34
276.48	1777.64
276.69	1667.05
276.91	1681.38
277.12	1791.97
277.34	1771.49
277.55	1746.92
277.77	1728.49
277.99	1697.77
278.20	1628.14
278.42	1628.14
278.63	1667.05
278.85	1736.68
279.06	1650.66
279.28	1726.44
279.49	1710.05
279.71	1796.07
279.93	1703.91
280.14	1746.92
280.36	1714.15
280.57	1716.20
280.79	1726.44
281.00	1705.96
281.22	1722.34
281.43	1757.16
281.65	1593.32
281.86	1710.05
282.08	1738.73
282.29	1791.97
282.51	1660.90
282.73	1636.33
282.94	1640.42
283.16	1703.91
283.37	1771.49
283.59	1619.94
283.80	1714.15
284.02	1726.44
284.23	1812.45
284.45	1660.90
284.66	1689.57
284.88	1652.71
285.09	1669.09
285.31	1751.01
285.52	1681.38
285.74	1566.70
285.95	1736.68
286.17	1779.68
286.38	1763.30
286.60	1648.61
286.81	1763.30
287.03	1652.71
287.24	1710.05
287.46	1742.82
287.67	1804.26
287.89	1779.68
288.10	1689.57
288.32	1732.58
288.53	1779.68
288.75	1689.57
288.96	1771.49
289.18	1656.81
289.39	1716.20
289.61	1755.11
289.82	1759.21
290.04	1880.04
290.25	1722.34
290.47	1683.43
290.68	1693.67
290.90	1779.68
291.11	1615.85
291.33	1726.44
291.54	1779.68
291.76	1636.33
291.97	1648.61
292.18	1724.39
292.40	1658.85
292.61	1675.24
292.83	1904.61
293.04	1777.64
293.26	1742.82
293.47	1656.81
293.69	1640.42
293.90	1703.91
294.12	1812.45
294.33	1783.78
294.55	1697.77
294.76	1681.38
294.97	1744.87
295.19	1834.98
295.40	1705.96
295.62	1765.35
295.83	1710.05
296.05	1656.81
296.26	1742.82
296.48	1665.00
296.69	1656.81
296.90	1640.42
297.12	1738.73
297.33	1738.73
297.55	1724.39
297.76	1669.09
297.98	1757.16
298.19	1771.49
298.41	1701.86
298.62	1644.52
298.83	1800.16
299.05	1710.05
299.26	1685.48
299.48	1656.81
299.69	1740.77
299.90	1609.70
300.12	1683.43
300.33	1695.72
300.55	1648.61
300.76	1734.63
300.98	1665.00
301.19	1650.66
301.40	1748.97
301.62	1769.44
301.83	1800.16
302.05	1611.75
302.26	1708.01
302.47	1808.36
302.69	1644.52
302.90	1703.91
303.12	1654.76
303.33	1705.96
303.54	1810.40
303.76	1660.90
303.97	1777.64
304.19	1775.59
304.40	1636.33
304.61	1724.39
304.83	1732.58
305.04	1724.39
305.26	1810.40
305.47	1675.24
305.68	1720.29
305.90	1636.33
306.11	1742.82
306.33	1689.57
306.54	1658.85
306.75	1656.81
306.97	1617.90
307.18	1675.24
307.39	1671.14
307.61	1775.59
307.82	1687.53
308.04	1703.91
308.25	1701.86
308.46	1681.38
308.68	1759.21
308.89	1673.19
309.10	1791.97
309.32	1705.96
309.53	1665.00
309.74	1699.81
309.96	1705.96
310.17	1779.68
310.39	1701.86
310.60	1712.10
310.81	1705.96
311.03	1667.05
311.24	1695.72
311.45	1654.76
311.67	1751.01
311.88	1718.25
312.09	1734.63
312.31	1619.94
312.52	1675.24
312.73	1705.96
312.95	1624.04
313.16	1675.24
313.37	1751.01
313.59	1689.57
313.80	1761.25
314.01	1736.68
314.23	1644.52
314.44	1660.90
314.65	1687.53
314.87	1660.90
315.08	1716.20
315.29	1732.58
315.51	1665.00
315.72	1699.81
315.93	1734.63
316.15	1691.62
316.36	1744.87
316.57	1746.92
316.79	1769.44
317.00	1699.81
317.21	1740.77
317.43	1611.75
317.64	1751.01
317.85	1720.29
318.07	1677.29
318.28	1787.88
318.49	1798.12
318.70	1890.28
318.92	1785.83
319.13	1845.22
319.34	1828.84
319.56	1736.68
319.77	1785.83
319.98	1722.34
320.20	1865.70
320.41	1710.05
320.62	1783.78
320.83	1687.53
321.05	1820.64
321.26	1744.87
321.47	1705.96
321.69	1767.40
321.90	1693.67
322.11	1699.81
322.32	1677.29
322.54	1751.01
322.75	1671.14
322.96	1820.64
323.18	1624.04
323.39	1646.57
323.60	1603.56
323.81	1767.40
324.03	1632.23
324.24	1728.49
324.45	1679.33
324.66	1685.48
324.88	1734.63
325.09	1785.83
325.30	1761.25
325.52	1738.73
325.73	1660.90
325.94	1615.85
326.15	1593.32
326.37	1732.58
326.58	1683.43
326.79	1773.54
327.00	1665.00
327.22	1710.05
327.43	1669.09
327.64	1603.56
327.85	1765.35
328.07	1769.44
328.28	1785.83
328.49	1644.52
328.70	1681.38
328.92	1677.29
329.13	1724.39
329.34	1789.92
329.55	1843.17
329.76	1800.16
329.98	1632.23
330.19	1738.73
330.40	1675.24
330.61	1712.10
330.83	1730.53
331.04	1634.28
331.25	1652.71
331.46	1693.67
331.68	1621.99
331.89	1769.44
332.10	1722.34
332.31	1583.08
332.52	1787.88
332.74	1808.36
332.95	1548.26
333.16	1626.09
333.37	1755.11
333.58	1619.94
333.80	1759.21
334.01	1585.13
334.22	1646.57
334.43	1675.24
334.64	1763.30
334.86	1648.61
335.07	1652.71
335.28	1767.40
335.49	1652.71
335.70	1742.82
335.92	1718.25
336.13	1832.93
336.34	1718.25
336.55	1671.14
336.76	1699.81
336.98	1624.04
337.19	1691.62
337.40	1812.45
337.61	1798.12
337.82	1642.47
338.04	1734.63
338.25	1587.18
338.46	1671.14
338.67	1675.24
338.88	1687.53
339.09	1589.22
339.31	1730.53
339.52	1652.71
339.73	1640.42
339.94	1681.38
340.15	1722.34
340.36	1675.24
340.58	1714.15
340.79	1685.48
341.00	1806.31
341.21	1607.66
341.42	1832.93
341.63	1650.66
341.85	1648.61
342.06	1671.14
342.27	1636.33
342.48	1730.53
342.69	1652.71
342.90	1783.78
343.12	1718.25
343.33	1708.01
343.54	1791.97
343.75	1845.22
343.96	1658.85
344.17	1619.94
344.38	1677.29
344.60	1656.81
344.81	1583.08
345.02	1681.38
345.23	1732.58
345.44	1800.16
345.65	1820.64
345.86	1781.73
346.07	1665.00
346.29	1673.19
346.50	1703.91
346.71	1728.49
346.92	1701.86
347.13	1832.93
347.34	1660.90
347.55	1712.10
347.76	1697.77
347.98	1658.85
348.19	1691.62
348.40	1783.78
348.61	1732.58
348.82	1787.88
349.03	1773.54
349.24	1712.10
349.45	1822.69
349.66	1613.80
349.88	1701.86
350.09	1605.61
350.30	1712.10
350.51	1767.40
350.72	1703.91
350.93	1771.49
351.14	1726.44
351.35	1679.33
351.56	1761.25
351.77	1710.05
351.99	1648.61
352.20	1726.44
352.41	1767.40
352.62	1648.61
352.83	1767.40
353.04	1708.01
353.25	1636.33
353.46	1740.77
353.67	1767.40
353.88	1656.81
354.09	1767.40
354.30	1634.28
354.52	1734.63
354.73	1755.11
354.94	1687.53
355.15	1685.48
355.36	1812.45
355.57	1714.15
355.78	1691.62
355.99	1726.44
356.20	1675.24
356.41	1679.33
356.62	1736.68
356.83	1634.28
357.04	1769.44
357.25	1619.94
357.46	1621.99
357.68	1665.00
357.89	1722.34
358.10	1728.49
358.31	1685.48
358.52	1710.05
358.73	1638.38
358.94	1640.42
359.15	1648.61
359.36	1748.97
359.57	1730.53
359.78	1703.91
359.99	1716.20
360.20	1628.14
360.41	1691.62
360.62	1748.97
360.83	1765.35
361.04	1687.53
361.25	1691.62
361.46	1787.88
361.67	1757.16
361.88	1718.25
362.09	1771.49
362.30	1755.11
362.51	1714.15
362.72	1685.48
362.93	1759.21
363.14	1724.39
363.35	1806.31
363.56	1656.81
363.78	1818.60
363.99	1722.34
364.20	1662.95
364.41	1679.33
364.62	1763.30
364.83	1812.45
365.04	1753.06
365.25	1712.10
365.46	1769.44
365.67	1601.51
365.88	1611.75
366.09	1640.42
366.30	1687.53
366.51	1691.62
366.72	1603.56
366.93	1722.34
367.14	1724.39
367.35	1828.84
367.56	1671.14
367.77	1767.40
367.98	1718.25
368.18	1695.72
368.39	1751.01
368.60	1583.08
368.81	1714.15
369.02	1785.83
369.23	1693.67
369.44	1638.38
369.65	1693.67
369.86	1693.67
370.07	1779.68
370.28	1638.38
370.49	1712.10
370.70	1800.16
370.91	1640.42
371.12	1587.18
371.33	1699.81
371.54	1691.62
371.75	1798.12
371.96	1591.27
372.17	1722.34
372.38	1640.42
372.59	1751.01
372.80	1673.19
373.01	1671.14
373.22	1742.82
373.43	1652.71
373.64	1689.57
373.85	1781.73
374.06	1763.30
374.26	1689.57
374.47	1742.82
374.68	1751.01
374.89	1656.81
375.10	1611.75
375.31	1716.20
375.52	1699.81
375.73	1722.34
375.94	1648.61
376.15	1771.49
376.36	1642.47
376.57	1689.57
376.78	1640.42
376.99	1703.91
377.20	1826.79
377.40	1689.57
377.61	1828.84
377.82	1656.81
378.03	1843.17
378.24	1785.83
378.45	1718.25
378.66	1787.88
378.87	1591.27
379.08	1615.85
379.29	1781.73
379.50	1765.35
379.71	1679.33
379.91	1812.45
380.12	1710.05
380.33	1695.72
380.54	1658.85
380.75	1681.38
380.96	1677.29
381.17	1751.01
381.38	1763.30
381.59	1691.62
381.80	1656.81
382.00	1814.50
382.21	1685.48
382.42	1785.83
382.63	1826.79
382.84	1767.40
383.05	1767.40
383.26	1845.22
383.47	1669.09
383.68	1701.86
383.88	1710.05
384.09	1763.30
384.30	1787.88
384.51	1691.62
384.72	1777.64
384.93	1636.33
385.14	1656.81
385.35	1742.82
385.55	1665.00
385.76	1853.41
385.97	1759.21
386.18	1656.81
386.39	1619.94
386.60	1677.29
386.81	1656.81
387.02	1650.66
387.22	1683.43
387.43	1820.64
387.64	1738.73
387.85	1877.99
388.06	2170.85
388.27	4272.06
388.48	6590.36
388.68	7919.50
388.89	9367.41
389.10	9465.71
389.31	8218.50
389.52	7393.17
389.73	6414.24
389.93	5889.96
390.14	5650.35
390.35	4997.04
390.56	4429.76
390.77	3651.53
390.98	3008.47
391.18	2490.33
391.39	2123.74
391.60	1853.41
391.81	1847.27
392.02	1748.97
392.23	1841.12
392.43	1738.73
392.64	1738.73
392.85	1746.92
393.06	1820.64
393.27	1712.10
393.47	1722.34
393.68	1703.91
393.89	1658.85
394.10	1800.16
394.31	1660.90
394.52	1681.38
394.72	1656.81
394.93	1742.82
395.14	1593.32
395.35	1724.39
395.56	1699.81
395.76	1785.83
395.97	1734.63
396.18	1759.21
396.39	1875.94
396.60	2023.39
396.80	1880.04
397.01	1839.08
397.22	1837.03
397.43	1763.30
397.64	1783.78
397.84	1777.64
398.05	1855.46
398.26	1783.78
398.47	1828.84
398.67	1814.50
398.88	1751.01
399.09	1777.64
399.30	1716.20
399.51	1624.04
399.71	1568.74
399.92	1740.77
400.13	1767.40
400.34	1697.77
400.54	1736.68
400.75	1800.16
400.96	1763.30
401.17	1775.59
401.37	1685.48
401.58	1660.90
401.79	1703.91
402.00	1830.88
402.21	1998.82
402.41	1943.52
402.62	2021.35
402.83	1998.82
403.04	1955.81
403.24	2066.40
403.45	1851.36
403.66	1976.29
403.87	1820.64
404.07	1970.15
404.28	1916.90
404.49	1929.19
404.70	1783.78
404.90	1722.34
405.11	1669.09
405.32	1773.54
405.52	1644.52
405.73	1656.81
405.94	1716.20
406.15	1763.30
406.35	1773.54
406.56	1798.12
406.77	1720.29
406.98	1724.39
407.18	1646.57
407.39	1734.63
407.60	1685.48
407.80	1652.71
408.01	1644.52
408.22	1804.26
408.43	1613.80
408.63	1769.44
408.84	1697.77
409.05	1837.03
409.25	1597.42
409.46	1619.94
409.67	1660.90
409.88	1673.19
410.08	1775.59
410.29	1701.86
410.50	1767.40
410.70	1675.24
410.91	1607.66
411.12	1726.44
411.32	1687.53
411.53	1705.96
411.74	1759.21
411.95	1759.21
412.15	1714.15
412.36	1697.77
412.57	1742.82
412.77	1806.31
412.98	1712.10
413.19	1736.68
413.39	1734.63
413.60	1746.92
413.81	1800.16
414.01	1681.38
414.22	1779.68
414.43	1730.53
414.63	1650.66
414.84	1718.25
415.05	1761.25
415.25	1613.80
415.46	1748.97
415.67	1673.19
415.87	1691.62
416.08	1708.01
416.29	1628.14
416.49	1771.49
416.70	1697.77
416.91	1638.38
417.11	1671.14
417.32	1814.50
417.53	1658.85
417.73	1691.62
417.94	1691.62
418.15	1734.63
418.35	1716.20
418.56	1732.58
418.77	1834.98
418.97	1708.01
419.18	1744.87
419.38	1615.85
419.59	1681.38
419.80	1820.64
420.00	1687.53
420.21	1703.91
420.42	1730.53
420.62	1712.10
420.83	1642.47
421.04	1613.80
421.24	1734.63
421.45	1701.86
421.65	1724.39
421.86	1648.61
422.07	1796.07
422.27	1671.14
422.48	1763.30
422.69	1628.14
422.89	1757.16
423.10	1705.96
423.30	1648.61
423.51	1697.77
423.72	1724.39
423.92	1730.53
424.13	1642.47
424.33	1736.68
424.54	1785.83
424.75	1738.73
424.95	1779.68
425.16	1740.77
425.36	1730.53
425.57	1794.02
425.78	1734.63
425.98	1720.29
426.19	1714.15
426.39	1632.23
426.60	1697.77
426.81	1773.54
427.01	1742.82
427.22	1617.90
427.42	1634.28
427.63	1628.14
427.83	1732.58
428.04	1732.58
428.25	1748.97
428.45	1837.03
428.66	1785.83
428.86	1746.92
429.07	1611.75
429.28	1665.00
429.48	1718.25
429.69	1650.66
429.89	1712.10
430.10	1662.95
430.30	1738.73
430.51	1740.77
430.71	1660.90
430.92	1734.63
431.13	1734.63
431.33	1771.49
431.54	1662.95
431.74	1814.50
431.95	1826.79
432.15	1632.23
432.36	1720.29
432.56	1751.01
432.77	1777.64
432.98	1869.80
433.18	1748.97
433.39	1705.96
433.59	1761.25
433.80	1847.27
434.00	1898.47
434.21	1740.77
434.41	1691.62
434.62	1761.25
434.82	1671.14
435.03	1675.24
435.23	1771.49
435.44	1621.99
435.64	1689.57
435.85	1722.34
436.06	1701.86
436.26	1761.25
436.47	1687.53
436.67	1669.09
436.88	1757.16
437.08	1718.25
437.29	1777.64
437.49	1724.39
437.70	1685.48
437.90	1697.77
438.11	1832.93
438.31	1789.92
438.52	1832.93
438.72	1796.07
438.93	1910.75
439.13	1775.59
439.34	1898.47
439.54	1775.59
439.75	1763.30
439.95	1779.68
440.16	1615.85
440.36	1740.77
440.57	1714.15
440.77	1744.87
440.98	1689.57
441.18	1849.32
441.39	1689.57
441.59	1685.48
441.80	1834.98
442.00	1804.26
442.21	1798.12
442.41	1662.95
442.62	1773.54
442.82	1755.11
443.02	1699.81
443.23	1869.80
443.43	1687.53
443.64	1804.26
443.84	1665.00
444.05	1837.03
444.25	1677.29
444.46	1677.29
444.66	1705.96
444.87	1806.31
445.07	1689.57
445.28	1662.95
445.48	1728.49
445.69	1804.26
445.89	1818.60
446.09	1791.97
446.30	1998.82
446.50	2568.15
446.71	3680.20
446.91	4200.38
447.12	4691.90
447.32	4728.76
447.53	4270.01
447.73	3827.65
447.93	3487.69
448.14	3282.89
448.34	3100.62
448.55	2807.77
448.75	2744.28
448.96	2619.35
449.16	2365.40
449.36	2299.87
449.57	2076.64
449.77	1896.42
449.98	1800.16
450.18	1877.99
450.39	1871.84
450.59	1798.12
450.79	1726.44
451.00	1720.29
451.20	1824.74
451.41	1705.96
451.61	1693.67
451.81	1699.81
452.02	1640.42
452.22	1746.92
452.43	1632.23
452.63	1734.63
452.84	1728.49
453.04	1669.09
453.24	1765.35
453.45	1703.91
453.65	1638.38
453.86	1777.64
454.06	1742.82
454.26	1744.87
454.47	1701.86
454.67	1820.64
454.87	1751.01
455.08	1697.77
455.28	1847.27
455.49	1699.81
455.69	1742.82
455.89	1834.98
456.10	1816.55
456.30	1714.15
456.51	1761.25
456.71	1787.88
456.91	1701.86
457.12	1759.21
457.32	1761.25
457.52	1724.39
457.73	1779.68
457.93	1791.97
458.14	1744.87
458.34	1677.29
458.54	1726.44
458.75	1753.06
458.95	1722.34
459.15	1757.16
459.36	1769.44
459.56	1789.92
459.76	1845.22
459.97	1734.63
460.17	1726.44
460.37	1791.97
460.58	1779.68
460.78	1730.53
460.99	1710.05
461.19	1701.86
461.39	1734.63
461.60	1673.19
461.80	1726.44
462.00	1691.62
462.21	1701.86
462.41	1742.82
462.61	1712.10
462.82	1630.18
463.02	1783.78
463.22	1703.91
463.43	1830.88
463.63	1691.62
463.83	1785.83
464.04	1779.68
464.24	1722.34
464.44	1671.14
464.64	1773.54
464.85	1837.03
465.05	1775.59
465.25	1679.33
465.46	1695.72
465.66	1765.35
465.86	1710.05
466.07	1740.77
466.27	1759.21
466.47	1646.57
466.68	1634.28
466.88	1748.97
467.08	1771.49
467.29	1843.17
467.49	1804.26
467.69	1726.44
467.89	1740.77
468.10	1689.57
468.30	1646.57
468.50	1810.40
468.71	1832.93
468.91	1626.09
469.11	1871.84
469.31	1697.77
469.52	1656.81
469.72	1808.36
469.92	1757.16
470.13	1734.63
470.33	1720.29
470.53	1828.84
470.73	2074.59
470.94	2273.25
471.14	2340.83
471.34	2506.71
471.54	2385.88
471.75	2191.33
471.95	2060.26
472.15	2131.94
472.36	2084.83
472.56	2082.78
472.76	2017.25
472.96	1961.95
473.17	1933.28
473.37	1918.95
473.57	1863.65
473.77	1863.65
473.98	1744.87
474.18	1753.06
474.38	1869.80
474.58	1779.68
474.79	1722.34
474.99	1763.30
475.19	1779.68
475.39	1626.09
475.60	1701.86
475.80	1648.61
476.00	1765.35
476.20	1718.25
476.41	1771.49
476.61	1679.33
476.81	1808.36
477.01	1697.77
477.21	1861.60
477.42	1845.22
477.62	1689.57
477.82	1781.73
478.02	1673.19
478.23	1742.82
478.43	1660.90
478.63	1621.99
478.83	1697.77
479.03	1624.04
479.24	1816.55
479.44	1923.04
479.64	1724.39
479.84	1585.13
480.04	1687.53
480.25	1783.78
480.45	1705.96
480.65	1695.72
480.85	1730.53
481.06	1683.43
481.26	1703.91
481.46	1783.78
481.66	1732.58
481.86	1640.42
482.06	1695.72
482.27	1667.05
482.47	1638.38
482.67	1708.01
482.87	1699.81
483.07	1810.40
483.28	1773.54
483.48	1634.28
483.68	1652.71
483.88	1701.86
484.08	1671.14
484.29	1665.00
484.49	1712.10
484.69	1755.11
484.89	1824.74
485.09	1724.39
485.29	1699.81
485.50	1787.88
485.70	1755.11
485.90	1775.59
486.10	1740.77
486.30	1710.05
486.50	1757.16
486.71	1751.01
486.91	1779.68
487.11	1779.68
487.31	1599.46
487.51	1767.40
487.71	1681.38
487.91	1619.94
488.12	1630.18
488.32	1554.41
488.52	1681.38
488.72	1570.79
488.92	1640.42
489.12	1777.64
489.32	1804.26
489.53	1869.80
489.73	1697.77
489.93	1828.84
490.13	1724.39
490.33	1689.57
490.53	1646.57
490.73	1800.16
490.94	1636.33
491.14	1751.01
491.34	1777.64
491.54	2107.36
491.74	2486.23
491.94	2820.05
492.14	2951.12
492.34	2998.23
492.54	2770.90
492.75	2471.90
492.95	2398.17
493.15	2312.16
493.35	2267.10
493.55	2199.52
493.75	2129.89
493.95	2095.07
494.15	1990.63
494.35	1857.51
494.56	1812.45
494.76	1785.83
494.96	1781.73
495.16	1796.07
495.36	1728.49
495.56	1802.21
495.76	1783.78
495.96	1771.49
496.16	1701.86
496.36	1861.60
496.56	1830.88
496.77	1679.33
496.97	1681.38
497.17	1861.60
497.37	1628.14
497.57	1837.03
497.77	1728.49
497.97	1701.86
498.17	1771.49
498.37	1712.10
498.57	1783.78
498.77	1716.20
498.97	1708.01
499.17	1843.17
499.38	1671.14
499.58	1828.84
499.78	1830.88
499.98	1763.30
500.18	1712.10
500.38	1710.05
500.58	1851.36
500.78	2504.67
500.98	4313.02
501.18	5771.18
501.38	6629.27
501.58	6862.74
501.78	6354.85
501.98	5339.05
502.18	4900.79
502.38	4345.79
502.58	3962.82
502.78	3735.50
502.98	3542.99
503.18	3323.85
503.38	3035.09
503.59	2820.05
503.79	2688.98
503.99	2463.71
504.19	2402.27
504.39	2172.89
504.59	2172.89
504.79	2056.16
504.99	2045.92
505.19	1961.95
505.39	1855.46
505.59	1943.52
505.79	1941.47
505.99	1857.51
506.19	1843.17
506.39	1837.03
506.59	1769.44
506.79	1738.73
506.99	1785.83
507.19	1769.44
507.39	1783.78
507.59	1730.53
507.79	1697.77
507.99	1736.68
508.19	1771.49
508.39	1699.81
508.59	1763.30
508.79	1898.47
508.99	1877.99
509.19	1716.20
509.39	1708.01
509.59	1734.63
509.79	1679.33
509.99	1669.09
510.19	1783.78
510.39	1740.77
510.59	1796.07
510.79	1712.10
510.99	1650.66
511.19	1757.16
511.39	1890.28
511.59	1785.83
511.79	1851.36
511.99	1812.45
512.19	1810.40
512.38	1751.01
512.58	1730.53
512.78	1691.62
512.98	1697.77
513.18	1787.88
513.38	1648.61
513.58	1818.60
513.78	1714.15
513.98	1742.82
514.18	1753.06
514.38	1794.02
514.58	1685.48
514.78	1753.06
514.98	1714.15
515.18	1794.02
515.38	1685.48
515.58	1828.84
515.78	1699.81
515.98	1730.53
516.18	1722.34
516.38	1728.49
516.57	1699.81
516.77	1708.01
516.97	1720.29
517.17	1773.54
517.37	1658.85
517.57	1763.30
517.77	1726.44
517.97	1699.81
518.17	1705.96
518.37	1701.86
518.57	1652.71
518.77	1736.68
518.97	1638.38
519.16	1763.30
519.36	1769.44
519.56	1746.92
519.76	1712.10
519.96	1746.92
520.16	1873.89
520.36	1652.71
520.56	1785.83
520.76	1748.97
520.96	1775.59
521.16	1804.26
521.35	1804.26
521.55	1822.69
521.75	1712.10
521.95	1748.97
522.15	1744.87
522.35	1607.66
522.55	1736.68
522.75	1812.45
522.95	1675.24
523.14	1742.82
523.34	1695.72
523.54	1695.72
523.74	1808.36
523.94	1812.45
524.14	1703.91
524.34	1746.92
524.54	1812.45
524.73	1667.05
524.93	1753.06
525.13	1789.92
525.33	1583.08
525.53	1873.89
525.73	1695.72
525.93	1748.97
526.13	1685.48
526.32	1767.40
526.52	1789.92
526.72	1812.45
526.92	1699.81
527.12	1765.35
527.32	1609.70
527.52	1722.34
527.71	1744.87
527.91	1728.49
528.11	1761.25
528.31	1701.86
528.51	1703.91
528.71	1738.73
528.90	1789.92
529.10	1808.36
529.30	1777.64
529.50	1578.98
529.70	1730.53
529.90	1697.77
530.09	1759.21
530.29	1708.01
530.49	1697.77
530.69	1920.99
530.89	1714.15
531.09	1798.12
531.28	1734.63
531.48	1783.78
531.68	1751.01
531.88	1740.77
532.08	1755.11
532.28	1751.01
532.47	1830.88
532.67	1804.26
532.87	1785.83
533.07	1619.94
533.27	1710.05
533.46	1658.85
533.66	1761.25
533.86	1734.63
534.06	1681.38
534.26	1724.39
534.45	1710.05
534.65	1757.16
534.85	1800.16
535.05	1718.25
535.25	1755.11
535.44	1675.24
535.64	1783.78
535.84	1693.67
536.04	1685.48
536.24	1738.73
536.43	1689.57
536.63	1681.38
536.83	1644.52
537.03	1705.96
537.22	1689.57
537.42	1628.14
537.62	1665.00
537.82	1624.04
538.02	1834.98
538.21	1802.21
538.41	1865.70
538.61	1767.40
538.81	1656.81
539.00	1832.93
539.20	1609.70
539.40	1746.92
539.60	1662.95
539.79	1837.03
539.99	1736.68
540.19	1679.33
540.39	1665.00
540.58	1771.49
540.78	1810.40
540.98	1738.73
541.18	1738.73
541.37	1789.92
541.57	1769.44
541.77	1787.88
541.97	1695.72
542.16	1642.47
542.36	1757.16
542.56	1816.55
542.76	1886.18
542.95	1800.16
543.15	1763.30
543.35	1730.53
543.54	1755.11
543.74	1738.73
543.94	1814.50
544.14	1712.10
544.33	1789.92
544.53	1652.71
544.73	1712.10
544.93	1695.72
545.12	1697.77
545.32	1730.53
545.52	1740.77
545.71	1595.37
545.91	1685.48
546.11	1701.86
546.30	1642.47
546.50	1783.78
546.70	1775.59
546.90	1787.88
547.09	1617.90
547.29	1712.10
547.49	1863.65
547.68	1738.73
547.88	1626.09
548.08	1718.25
548.27	2258.91
548.47	1693.67
548.67	1681.38
548.87	1753.06
549.06	1746.92
549.26	1744.87
549.46	1777.64
549.65	1773.54
549.85	1695.72
550.05	1791.97
550.24	1589.22
550.44	1714.15
550.64	1769.44
550.83	1744.87
551.03	1832.93
551.23	1738.73
551.42	1746.92
551.62	1656.81
551.82	1714.15
552.01	1714.15
552.21	1861.60
552.41	1804.26
552.60	1769.44
552.80	1755.11
553.00	1677.29
553.19	1783.78
553.39	1814.50
553.59	1652.71
553.78	1794.02
553.98	1728.49
554.17	1703.91
554.37	1746.92
554.57	1763.30
554.76	1654.76
554.96	1716.20
555.16	1832.93
555.35	1767.40
555.55	1748.97
555.75	1705.96
555.94	1802.21
556.14	1630.18
556.33	1757.16
556.53	1697.77
556.73	1730.53
556.92	1812.45
557.12	1812.45
557.32	1832.93
557.51	1914.85
557.71	1810.40
557.90	1708.01
558.10	1828.84
558.30	1755.11
558.49	1714.15
558.69	1730.53
558.88	1796.07
559.08	1732.58
559.28	1767.40
559.47	1720.29
559.67	1734.63
559.86	1886.18
560.06	1757.16
560.26	1679.33
560.45	1751.01
560.65	1787.88
560.84	1796.07
561.04	1753.06
561.24	1753.06
561.43	1660.90
561.63	1824.74
561.82	1705.96
562.02	1734.63
562.22	1787.88
562.41	1734.63
562.61	1732.58
562.80	1703.91
563.00	1818.60
563.19	1697.77
563.39	1736.68
563.59	1796.07
563.78	1683.43
563.98	1626.09
564.17	1642.47
564.37	1689.57
564.56	1722.34
564.76	1689.57
564.96	1824.74
565.15	1718.25
565.35	1816.55
565.54	1716.20
565.74	1767.40
565.93	1757.16
566.13	1722.34
566.32	1808.36
566.52	1787.88
566.71	1646.57
566.91	1738.73
567.11	1712.10
567.30	1708.01
567.50	1775.59
567.69	1724.39
567.89	1802.21
568.08	1773.54
568.28	1759.21
568.47	1658.85
568.67	1837.03
568.86	1710.05
569.06	1767.40
569.25	1724.39
569.45	1693.67
569.64	1765.35
569.84	1777.64
570.04	1781.73
570.23	1675.24
570.43	1773.54
570.62	1691.62
570.82	1763.30
571.01	1722.34
571.21	1736.68
571.40	1687.53
571.60	1822.69
571.79	1800.16
571.99	1701.86
572.18	1683.43
572.38	1769.44
572.57	1738.73
572.77	1765.35
572.96	1900.52
573.16	1787.88
573.35	1722.34
573.55	1894.37
573.74	1718.25
573.94	1738.73
574.13	1716.20
574.33	1785.83
574.52	1759.21
574.71	1857.51
574.91	1777.64
575.10	1656.81
575.30	1695.72
575.49	1708.01
575.69	1667.05
575.88	1767.40
576.08	1693.67
576.27	1777.64
576.47	1767.40
576.66	1769.44
576.86	1832.93
577.05	1781.73
577.25	1802.21
577.44	1894.37
577.64	1714.15
577.83	1804.26
578.02	1732.58
578.22	1763.30
578.41	1742.82
578.61	1695.72
578.80	1673.19
579.00	1718.25
579.19	1751.01
579.39	1857.51
579.58	1789.92
579.77	1685.48
579.97	1841.12
580.16	1873.89
580.36	1800.16
580.55	1834.98
580.75	1845.22
580.94	1800.16
581.13	1820.64
581.33	1837.03
581.52	1732.58
581.72	1968.10
581.91	1843.17
582.11	1791.97
582.30	1818.60
582.49	1734.63
582.69	1769.44
582.88	1816.55
583.08	1843.17
583.27	1808.36
583.47	1759.21
583.66	1701.86
583.85	1724.39
584.05	1710.05
584.24	1787.88
584.44	1697.77
584.63	1877.99
584.82	1818.60
585.02	1843.17
585.21	1826.79
585.41	1861.60
585.60	1820.64
585.79	1906.66
585.99	1927.14
586.18	1796.07
586.37	2133.98
586.57	3354.57
586.76	9432.94
586.96	23467.67
587.15	33123.85
587.34	38714.80
587.54	40762.77
587.73	35130.86
587.93	25159.30
588.12	20782.79
588.31	17581.81
588.51	15742.74
588.70	14659.36
588.89	13514.55
589.09	12285.76
589.28	10598.24
589.47	9209.72
589.67	7720.84
589.86	6285.22
590.06	4822.97
590.25	3950.53
590.44	3125.20
590.64	2559.96
590.83	2236.38
591.02	2088.93
591.22	1937.38
591.41	1839.08
591.60	1812.45
591.80	1894.37
591.99	1806.31
592.18	1753.06
592.38	1761.25
592.57	1738.73
592.76	1751.01
592.96	1853.41
593.15	1755.11
593.34	1843.17
593.54	1779.68
593.73	1748.97
593.92	1763.30
594.12	1722.34
594.31	1767.40
594.50	1849.32
594.70	1738.73
594.89	1898.47
595.08	1671.14
595.28	1761.25
595.47	1902.56
595.66	1824.74
595.86	1722.34
596.05	1816.55
596.24	1636.33
596.43	1822.69
596.63	1775.59
596.82	1748.97
597.01	1771.49
597.21	1787.88
597.40	1751.01
597.59	1771.49
597.79	1685.48
597.98	1738.73
598.17	1734.63
598.36	1753.06
598.56	1748.97
598.75	1665.00
598.94	1796.07
599.14	1742.82
599.33	1677.29
599.52	1767.40
599.71	1736.68
599.91	1787.88
600.10	1748.97
600.29	1726.44
600.48	1759.21
600.68	1781.73
600.87	1703.91
601.06	1679.33
601.26	1767.40
601.45	1816.55
601.64	1714.15
601.83	1853.41
602.03	1734.63
602.22	1732.58
602.41	1814.50
602.60	1857.51
602.80	1773.54
602.99	1763.30
603.18	1591.27
603.37	1708.01
603.57	1751.01
603.76	1822.69
603.95	1884.13
604.14	1722.34
604.34	1710.05
604.53	1652.71
604.72	1753.06
604.91	1794.02
605.10	1771.49
605.30	1683.43
605.49	1802.21
605.68	1740.77
605.87	1740.77
606.07	1683.43
606.26	1697.77
606.45	1773.54
606.64	1724.39
606.84	1705.96
607.03	1683.43
607.22	1757.16
607.41	1685.48
607.60	1724.39
607.80	1728.49
607.99	1695.72
608.18	1744.87
608.37	1779.68
608.56	1632.23
608.76	1867.75
608.95	1818.60
609.14	1761.25
609.33	1779.68
609.52	1847.27
609.72	1742.82
609.91	1791.97
610.10	1681.38
610.29	1675.24
610.48	1808.36
610.68	1775.59
610.87	1777.64
611.06	1824.74
611.25	1699.81
611.44	1802.21
611.63	1726.44
611.83	1779.68
612.02	1703.91
612.21	1822.69
612.40	1665.00
612.59	1607.66
612.79	1607.66
612.98	1646.57
613.17	1906.66
613.36	1716.20
613.55	1796.07
613.74	1722.34
613.93	1712.10
614.13	1740.77
614.32	1748.97
614.51	1757.16
614.70	1710.05
614.89	1714.15
615.08	1714.15
615.28	2107.36
615.47	1693.67
615.66	1736.68
615.85	1703.91
616.04	1849.32
616.23	1746.92
616.42	1644.52
616.62	1734.63
616.81	1816.55
617.00	1722.34
617.19	1783.78
617.38	1636.33
617.57	1777.64
617.76	1751.01
617.95	1775.59
618.15	1736.68
618.34	1855.46
618.53	1634.28
618.72	1789.92
618.91	1826.79
619.10	1849.32
619.29	1710.05
619.48	1660.90
619.68	1705.96
619.87	1738.73
620.06	1658.85
620.25	1804.26
620.44	1722.34
620.63	1697.77
620.82	1740.77
621.01	1712.10
621.20	1660.90
621.39	1779.68
621.59	1665.00
621.78	1640.42
621.97	1650.66
622.16	1783.78
622.35	1673.19
622.54	1679.33
622.73	1849.32
622.92	1654.76
623.11	1796.07
623.30	1730.53
623.49	1783.78
623.68	1701.86
623.88	1849.32
624.07	1767.40
624.26	1642.47
624.45	1742.82
624.64	1681.38
624.83	1693.67
625.02	1673.19
625.21	1728.49
625.40	1724.39
625.59	1810.40
625.78	1677.29
625.97	1748.97
626.16	1753.06
626.35	1728.49
626.54	1736.68
626.74	1779.68
626.93	1718.25
627.12	1728.49
627.31	1701.86
627.50	1691.62
627.69	1804.26
627.88	1687.53
628.07	1654.76
628.26	1673.19
628.45	1687.53
628.64	1660.90
628.83	1683.43
629.02	1638.38
629.21	1738.73
629.40	1746.92
629.59	1714.15
629.78	1640.42
629.97	1746.92
630.16	1636.33
630.35	1687.53
630.54	1705.96
630.73	1773.54
630.92	1673.19
631.11	1576.94
631.30	1740.77
631.49	1753.06
631.68	1699.81
631.87	1781.73
632.06	1593.32
632.25	1951.71
632.44	1683.43
632.63	1783.78
632.82	1667.05
633.01	1679.33
633.20	1738.73
633.39	1671.14
633.58	1570.79
633.77	1796.07
633.96	1720.29
634.15	1742.82
634.34	1800.16
634.53	1757.16
634.72	1675.24
634.91	1626.09
635.10	1669.09
635.29	1785.83
635.48	1701.86
635.67	1652.71
635.86	1662.95
636.05	1781.73
636.24	1763.30
636.43	1732.58
636.62	1689.57
636.81	1648.61
637.00	1714.15
637.19	1730.53
637.38	1693.67
637.57	1703.91
637.76	1705.96
637.95	1746.92
638.14	1607.66
638.33	1697.77
638.52	1730.53
638.71	1746.92
638.89	1646.57
639.08	1877.99
639.27	1787.88
639.46	1697.77
639.65	1755.11
639.84	1644.52
640.03	1734.63
640.22	1665.00
640.41	1822.69
640.60	1697.77
640.79	1785.83
640.98	1755.11
641.17	1771.49
641.36	1689.57
641.55	1751.01
641.74	1673.19
641.92	1675.24
642.11	1619.94
642.30	1611.75
642.49	1624.04
642.68	1644.52
642.87	1751.01
643.06	1738.73
643.25	1650.66
643.44	1673.19
643.63	1746.92
643.82	1783.78
644.00	1728.49
644.19	1705.96
644.38	1687.53
644.57	1748.97
644.76	1665.00
644.95	1611.75
645.14	1824.74
645.33	1751.01
645.52	1687.53
645.71	1654.76
645.89	1699.81
646.08	1722.34
646.27	1681.38
646.46	1755.11
646.65	1628.14
646.84	1755.11
647.03	1677.29
647.22	1767.40
647.40	1730.53
647.59	1665.00
647.78	1667.05
647.97	1693.67
648.16	1722.34
648.35	1886.18
648.54	1679.33
648.73	1705.96
648.91	1763.30
649.10	1718.25
649.29	1660.90
649.48	1695.72
649.67	1757.16
649.86	1744.87
650.05	1710.05
650.23	1777.64
650.42	1695.72
650.61	1738.73
650.80	1832.93
650.99	1828.84
651.18	1718.25
651.36	1794.02
651.55	1662.95
651.74	1767.40
651.93	1656.81
652.12	1669.09
652.31	1759.21
652.49	1677.29
652.68	1800.16
652.87	1703.91
653.06	1689.57
653.25	1916.90
653.44	1732.58
653.62	1771.49
653.81	1703.91
654.00	1701.86
654.19	1769.44
654.38	1902.56
654.56	1716.20
654.75	1748.97
654.94	1759.21
655.13	1611.75
655.32	1767.40
655.51	1783.78
655.69	1753.06
655.88	1791.97
656.07	1652.71
656.26	1722.34
656.45	1744.87
656.63	1785.83
656.82	1767.40
657.01	1798.12
657.20	1667.05
657.38	1785.83
657.57	1648.61
657.76	1689.57
657.95	1796.07
658.14	1710.05
658.32	1734.63
658.51	1685.48
658.70	1673.19
658.89	1748.97
659.08	1718.25
659.26	1777.64
659.45	1570.79
659.64	1687.53
659.83	1660.90
660.01	1894.37
660.20	1730.53
660.39	1767.40
660.58	1552.36
660.76	1808.36
660.95	1607.66
661.14	1771.49
661.33	1619.94
661.51	1626.09
661.70	1615.85
661.89	1757.16
662.08	1708.01
662.26	1667.05
662.45	1687.53
662.64	1828.84
662.83	1710.05
663.01	1675.24
663.20	1652.71
663.39	1779.68
663.58	1665.00
663.76	1689.57
663.95	1794.02
664.14	1705.96
664.32	1691.62
664.51	1640.42
664.70	1669.09
664.89	1757.16
665.07	1595.37
665.26	1841.12
665.45	1652.71
665.64	1763.30
665.82	1705.96
666.01	1689.57
666.20	1650.66
666.38	1701.86
666.57	1812.45
666.76	2111.46
666.95	4370.37
667.13	10102.63
667.32	14808.86
667.51	17213.18
667.69	18525.93
667.88	16897.79
668.07	11810.64
668.25	9314.16
668.44	7919.50
668.63	7112.60
668.81	6537.12
669.00	6141.86
669.19	5523.37
669.38	4986.80
669.56	4437.95
669.75	3987.40
669.94	3368.91
670.12	2908.12
670.31	2457.56
670.50	2320.35
670.68	2041.82
670.87	1853.41
671.06	1695.72
671.24	1820.64
671.43	1820.64
671.62	1763.30
671.80	1656.81
671.99	1796.07
672.18	1683.43
672.36	1785.83
672.55	1720.29
672.74	1705.96
672.92	1716.20
673.11	1722.34
673.29	1728.49
673.48	1736.68
673.67	1761.25
673.85	1787.88
674.04	1621.99
674.23	1824.74
674.41	1830.88
674.60	1650.66
674.79	1605.61
674.97	1697.77
675.16	1787.88
675.34	1804.26
675.53	1720.29
675.72	1699.81
675.90	1763.30
676.09	1726.44
676.28	1806.31
676.46	1671.14
676.65	1722.34
676.83	1738.73
677.02	1720.29
677.21	1699.81
677.39	1732.58
677.58	1724.39
677.77	1595.37
677.95	1740.77
678.14	1665.00
678.32	1644.52
678.51	1683.43
678.70	1837.03
678.88	1689.57
679.07	1781.73
679.25	1781.73
679.44	1759.21
679.63	1652.71
679.81	1714.15
680.00	1796.07
680.18	1699.81
680.37	1796.07
680.55	1697.77
680.74	1665.00
680.93	1685.48
681.11	1751.01
681.30	1718.25
681.48	1730.53
681.67	1765.35
681.85	1650.66
682.04	1679.33
682.23	1808.36
682.41	1751.01
682.60	1771.49
682.78	1705.96
682.97	1650.66
683.15	1669.09
683.34	1675.24
683.53	1722.34
683.71	1640.42
683.90	1804.26
684.08	1806.31
684.27	1697.77
684.45	1652.71
684.64	1767.40
684.82	1669.09
685.01	1718.25
685.19	1660.90
685.38	1748.97
685.57	1658.85
685.75	1705.96
685.94	1673.19
686.12	1658.85
686.31	1710.05
686.49	1853.41
686.68	1611.75
686.86	1751.01
687.05	1630.18
687.23	1748.97
687.42	1662.95
687.60	1632.23
687.79	1769.44
687.97	1777.64
688.16	1808.36
688.34	1794.02
688.53	1597.42
688.71	1816.55
688.90	1800.16
689.08	1691.62
689.27	1642.47
689.45	1718.25
689.64	1755.11
689.82	1724.39
690.01	1757.16
690.19	1708.01
690.38	1689.57
690.56	1787.88
690.75	1621.99
690.93	1710.05
691.12	1636.33
691.30	1744.87
691.49	1691.62
691.67	1728.49
691.86	1875.94
692.04	1654.76
692.23	1667.05
692.41	1634.28
692.60	1763.30
692.78	1728.49
692.97	1687.53
693.15	1665.00
693.34	1800.16
693.52	1810.40
693.71	1701.86
693.89	1693.67
694.08	1689.57
694.26	1742.82
694.44	1779.68
694.63	1687.53
694.81	1595.37
695.00	1677.29
695.18	1728.49
695.37	1882.08
695.55	1753.06
695.74	1636.33
695.92	1697.77
696.10	1818.60
696.29	1691.62
696.47	1669.09
696.66	1673.19
696.84	1624.04
697.03	1738.73
697.21	1882.08
697.40	2291.68
697.58	1769.44
697.76	1648.61
697.95	1634.28
698.13	1650.66
698.32	1654.76
698.50	1681.38
698.68	1714.15
698.87	1701.86
699.05	1794.02
699.24	1767.40
699.42	1646.57
699.61	1744.87
699.79	1624.04
699.97	1728.49
700.16	1683.43
700.34	1667.05
700.53	1705.96
700.71	1816.55
700.89	1755.11
701.08	1630.18
701.26	1789.92
701.45	2152.42
701.63	1644.52
701.81	1632.23
702.00	1714.15
702.18	1697.77
702.37	1740.77
702.55	1789.92
702.73	1656.81
702.92	1648.61
703.10	1712.10
703.28	1722.34
703.47	1656.81
703.65	1712.10
703.84	1701.86
704.02	1648.61
704.20	1794.02
704.39	1724.39
704.57	1662.95
704.75	1822.69
704.94	1828.84
705.12	1757.16
705.30	1783.78
705.49	2217.95
705.67	4417.47
705.86	9045.88
706.04	12111.69
706.22	13872.94
706.41	14907.16
706.59	13352.76
706.77	9297.78
706.96	7112.60
707.14	6295.46
707.32	5834.66
707.51	5457.84
707.69	4777.91
707.87	4097.99
708.06	3473.36
708.24	3018.71
708.42	2420.70
708.61	2236.38
708.79	1890.28
708.97	1877.99
709.16	1902.56
709.34	1736.68
709.52	1738.73
709.71	1705.96
709.89	1748.97
710.07	1712.10
710.26	1650.66
710.44	1726.44
710.62	1783.78
710.80	1693.67
710.99	1746.92
711.17	1789.92
711.35	1724.39
711.54	1726.44
711.72	1810.40
711.90	1726.44
712.09	1722.34
712.27	1763.30
712.45	1662.95
712.63	1701.86
712.82	1751.01
713.00	1708.01
713.18	1765.35
713.37	1671.14
713.55	1732.58
713.73	1726.44
713.91	1714.15
714.10	1673.19
714.28	1691.62
714.46	1777.64
714.65	1746.92
714.83	1718.25
715.01	1662.95
715.19	1646.57
715.38	1687.53
715.56	1742.82
715.74	1621.99
715.92	1697.77
716.11	1742.82
716.29	1724.39
716.47	1757.16
716.65	1677.29
716.84	1693.67
717.02	1769.44
717.20	1642.47
717.38	1669.09
717.57	1710.05
717.75	1763.30
717.93	1710.05
718.11	1746.92
718.30	1654.76
718.48	1693.67
718.66	1757.16
718.84	1804.26
719.03	1703.91
719.21	1712.10
719.39	1763.30
719.57	1802.21
719.75	1746.92
719.94	1667.05
720.12	1619.94
720.30	1787.88
720.48	1740.77
720.67	1646.57
720.85	1648.61
721.03	1673.19
721.21	1671.14
721.39	1714.15
721.58	1718.25
721.76	1650.66
721.94	1791.97
722.12	1708.01
722.30	1834.98
722.49	1669.09
722.67	1609.70
722.85	1652.71
723.03	1609.70
723.21	1722.34
723.40	1669.09
723.58	1771.49
723.76	1695.72
723.94	1787.88
724.12	1671.14
724.30	1748.97
724.49	1695.72
724.67	1679.33
724.85	1753.06
725.03	1671.14
725.21	1742.82
725.40	1798.12
725.58	1693.67
725.76	1724.39
725.94	1767.40
726.12	1642.47
726.30	1660.90
726.49	1636.33
726.67	1746.92
726.85	1748.97
727.03	1773.54
727.21	2205.66
727.39	2815.96
727.57	3747.78
727.76	4079.55
727.94	4368.32
728.12	4145.09
728.30	3631.05
728.48	2928.60
728.66	2699.22
728.84	2475.99
729.03	2310.11
729.21	2109.41
729.39	1935.33
729.57	1769.44
729.75	1837.03
729.93	1832.93
730.11	1626.09
730.30	1705.96
730.48	1708.01
730.66	1794.02
730.84	1755.11
731.02	1607.66
731.20	1695.72
731.38	1673.19
731.56	1665.00
731.74	1646.57
731.93	1689.57
732.11	1791.97
732.29	1755.11
732.47	1742.82
732.65	1779.68
732.83	1791.97
733.01	1779.68
733.19	1621.99
733.37	1740.77
733.56	1761.25
733.74	1794.02
733.92	1763.30
734.10	1646.57
734.28	1675.24
734.46	1667.05
734.64	1669.09
734.82	1644.52
735.00	1712.10
735.18	1675.24
735.36	1742.82
735.54	1634.28
735.73	1724.39
735.91	1675.24
736.09	1703.91
736.27	1708.01
736.45	1701.86
736.63	1648.61
736.81	1652.71
736.99	1744.87
737.17	1857.51
737.35	1705.96
737.53	1730.53
737.71	1642.47
737.89	1787.88
738.07	1628.14
738.25	1662.95
738.43	1617.90
738.61	1654.76
738.80	1611.75
738.98	1675.24
739.16	1718.25
739.34	1716.20
739.52	1730.53
739.70	1732.58
739.88	1812.45
740.06	1693.67
740.24	1601.51
740.42	1716.20
740.60	1640.42
740.78	1566.70
740.96	1628.14
741.14	1693.67
741.32	1648.61
741.50	1572.84
741.68	1820.64
741.86	1773.54
742.04	1705.96
742.22	1683.43
742.40	1708.01
742.58	1738.73
742.76	1609.70
742.94	1691.62
743.12	1578.98
743.30	1714.15
743.48	1662.95
743.66	1634.28
743.84	1708.01
744.02	1734.63
744.20	1751.01
744.38	1669.09
744.56	1667.05
744.74	1662.95
744.92	1644.52
745.10	1798.12
745.28	1761.25
745.46	1894.37
745.64	1689.57
745.82	1791.97
746.00	1701.86
746.18	1781.73
746.36	1675.24
746.54	1728.49
746.72	1783.78
746.90	1660.90
747.08	1763.30
747.26	1748.97
747.44	1777.64
747.62	1695.72
747.80	1710.05
747.98	1791.97
748.15	1650.66
748.33	1781.73
748.51	1650.66
748.69	1728.49
748.87	1611.75
749.05	1705.96
749.23	1701.86
749.41	1640.42
749.59	1646.57
749.77	1736.68
749.95	1665.00
750.13	1660.90
750.31	1708.01
750.49	1710.05
750.67	1718.25
750.85	1755.11
751.03	1728.49
751.20	1789.92
751.38	1708.01
751.56	1765.35
751.74	1806.31
751.92	1656.81
752.10	1611.75
752.28	1763.30
752.46	1681.38
752.64	1708.01
752.82	1697.77
753.00	1705.96
753.18	1642.47
753.35	1671.14
753.53	1660.90
753.71	1689.57
753.89	1697.77
754.07	1624.04
754.25	1755.11
754.43	1740.77
754.61	1658.85
754.79	1714.15
754.97	1650.66
755.14	1800.16
755.32	1617.90
755.50	1699.81
755.68	1697.77
755.86	1669.09
756.04	1648.61
756.22	1566.70
756.40	1806.31
756.57	1806.31
756.75	1636.33
756.93	1771.49
757.11	1693.67
757.29	1683.43
757.47	1665.00
757.65	1646.57
757.82	1648.61
758.00	1671.14
758.18	1693.67
758.36	1665.00
758.54	1763.30
758.72	1662.95
758.90	1753.06
759.07	1847.27
759.25	1650.66
759.43	1765.35
759.61	1624.04
759.79	2224.09
759.97	1783.78
760.15	1650.66
760.32	1746.92
760.50	1697.77
760.68	1798.12
760.86	1585.13
761.04	1726.44
761.22	1736.68
761.39	1724.39
761.57	1767.40
761.75	1695.72
761.93	1703.91
762.11	1705.96
762.28	1726.44
762.46	1669.09
762.64	1744.87
762.82	1638.38
763.00	1761.25
763.18	1775.59
763.35	1654.76
763.53	1697.77
763.71	1675.24
763.89	1697.77
764.07	1701.86
764.24	1748.97
764.42	1732.58
764.60	1656.81
764.78	1716.20
764.96	1732.58
765.13	1789.92
765.31	1673.19
765.49	1781.73
765.67	1558.50
765.84	1630.18
766.02	1701.86
766.20	1654.76
766.38	1734.63
766.56	1728.49
766.73	1746.92
766.91	1693.67
767.09	1689.57
767.27	1695.72
767.44	1636.33
767.62	1720.29
767.80	1714.15
767.98	1767.40
768.15	1681.38
768.33	1701.86
768.51	1736.68
768.69	1693.67
768.87	1671.14
769.04	1714.15
769.22	1791.97
769.40	1808.36
769.58	1904.61
769.75	1708.01
769.93	1773.54
770.11	1763.30
770.28	1632.23
770.46	1681.38
770.64	1753.06
770.82	1703.91
770.99	1697.77
771.17	1851.36
771.35	1671.14
771.53	1695.72
771.70	1648.61
771.88	1656.81
772.06	1714.15
772.23	1714.15
772.41	1781.73
772.59	1613.80
772.77	1615.85
772.94	1710.05
773.12	1763.30
773.30	1652.71
773.47	1716.20
773.65	1662.95
773.83	1748.97
774.01	1726.44
774.18	1613.80
774.36	1658.85
774.54	1648.61
774.71	1687.53
774.89	1648.61
775.07	1654.76
775.24	1708.01
775.42	1738.73
775.60	1789.92
775.78	1679.33
775.95	1642.47
776.13	1650.66
776.31	1660.90
776.48	1708.01
776.66	1751.01
776.84	1705.96
777.01	1724.39
777.19	1626.09
777.37	1679.33
777.54	1667.05
777.72	1763.30
777.90	1691.62
778.07	1687.53
778.25	1916.90
778.43	1777.64
778.60	1546.22
778.78	1740.77
778.96	1798.12
779.13	1650.66
779.31	1781.73
779.49	1687.53
779.66	1720.29
779.84	1644.52
780.01	1642.47
780.19	1646.57
780.37	1816.55
780.54	1716.20
780.72	1603.56
780.90	1691.62
781.07	1728.49
781.25	1675.24
781.43	1794.02
781.60	1732.58
781.78	1781.73
781.95	1705.96
782.13	1615.85
782.31	1693.67
782.48	1574.89
782.66	1652.71
782.83	1808.36
783.01	1771.49
783.19	1705.96
783.36	1720.29
783.54	1599.46
783.72	1746.92
783.89	1591.27
784.07	1695.72
784.24	1683.43
784.42	1812.45
784.60	1646.57
784.77	1705.96
784.95	1634.28
785.12	1591.27
785.30	1738.73
785.47	1632.23
785.65	1650.66
785.83	1722.34
786.00	1685.48
786.18	1722.34
786.35	1591.27
786.53	1667.05
786.71	1673.19
786.88	1822.69
787.06	1740.77
787.23	1708.01
787.41	1658.85
787.58	1722.34
787.76	1683.43
787.94	1683.43
788.11	1744.87
788.29	1695.72
788.46	1673.19
788.64	1591.27
788.81	1632.23
788.99	1681.38
789.16	1634.28
789.34	1726.44
789.52	1656.81
789.69	1613.80
789.87	1609.70
790.04	1718.25
790.22	1697.77
790.39	1787.88
790.57	1677.29
790.74	1732.58
790.92	1746.92
791.09	1607.66
791.27	1671.14
791.44	1771.49
791.62	1742.82
791.79	1726.44
791.97	1751.01
792.15	1814.50
792.32	1810.40
792.50	1755.11
792.67	1791.97
792.85	1771.49
793.02	1701.86
793.20	1654.76
793.37	1636.33
793.55	1705.96
793.72	1685.48
793.90	1710.05
794.07	1611.75
794.25	1638.38
794.42	1714.15
794.60	1585.13
794.77	1761.25
794.95	1705.96
795.12	1779.68
795.30	1740.77
795.47	1630.18
795.65	1861.60
795.82	1703.91
796.00	1699.81
796.17	1681.38
796.34	1687.53
796.52	1636.33
796.69	1738.73
796.87	1720.29
797.04	1722.34
797.22	1644.52
797.39	1714.15
797.57	1699.81
797.74	1652.71
797.92	1771.49
798.09	1714.15
798.27	1718.25
798.44	1665.00
798.62	1650.66
798.79	1714.15
798.96	1697.77
799.14	1730.53
799.31	1828.84
799.49	1619.94
799.66	1683.43
799.84	1746.92
800.01	1591.27
800.19	1728.49
800.36	1570.79
800.53	1779.68
800.71	1697.77
800.88	1798.12
801.06	1705.96
801.23	1662.95
801.41	1646.57
801.58	1681.38
801.75	1568.74
801.93	1726.44
802.10	1726.44
802.28	1677.29
802.45	1564.65
802.63	1677.29
802.80	1757.16
802.97	1624.04
803.15	1708.01
803.32	1699.81
803.50	1689.57
803.67	1636.33
803.84	1636.33
804.02	1748.97
804.19	1636.33
804.37	1648.61
804.54	1650.66
804.71	1619.94
804.89	1748.97
805.06	1650.66
805.24	1638.38
805.41	1671.14
805.58	1656.81
805.76	1824.74
805.93	1748.97
806.10	1804.26
806.28	1738.73
806.45	1720.29
806.63	1771.49
806.80	1744.87
806.97	1751.01
807.15	1687.53
807.32	1791.97
807.49	1626.09
807.67	1619.94
807.84	1738.73
808.01	1564.65
808.19	1914.85
808.36	1802.21
808.54	1695.72
808.71	1628.14
808.88	1744.87
809.06	1705.96
809.23	1794.02
809.40	1564.65
809.58	1802.21
809.75	1746.92
809.92	1605.61
810.10	1789.92
810.27	1687.53
810.44	1683.43
810.62	1816.55
810.79	1742.82
810.96	1716.20
811.14	1710.05
811.31	1820.64
811.48	1646.57
811.66	1724.39
811.83	1695.72
812.00	1742.82
812.18	1738.73
812.35	1798.12
812.52	1675.24
812.69	1609.70
812.87	1644.52
813.04	1712.10
813.21	1757.16
813.39	1699.81
813.56	1607.66
813.73	1767.40
813.91	1619.94
814.08	1693.67
814.25	1738.73
814.42	1525.74
814.60	1638.38
814.77	1736.68
814.94	1708.01
815.12	1734.63
815.29	1742.82
815.46	1705.96
815.63	1765.35
815.81	1765.35
815.98	1675.24
816.15	1722.34
816.33	1683.43
816.50	1742.82
816.67	1722.34
816.84	1671.14
817.02	1589.22
817.19	1642.47
817.36	1738.73
817.53	1714.15
817.71	1607.66
817.88	1728.49
818.05	1626.09
818.22	1624.04
818.40	1753.06
818.57	1615.85
818.74	1753.06
818.91	1603.56
819.09	1779.68
819.26	1738.73
819.43	1685.48
819.60	1693.67
819.78	1742.82
819.95	1787.88
820.12	1624.04
820.29	1734.63
820.47	1777.64
820.64	1693.67
820.81	1638.38
820.98	1681.38
821.15	1693.67
821.33	1781.73
821.50	1581.03
821.67	1636.33
821.84	1714.15
822.02	1712.10
822.19	1724.39
822.36	1669.09
822.53	1701.86
822.70	1638.38
822.88	1714.15
823.05	1769.44
823.22	1667.05
823.39	1685.48
823.56	1783.78
823.74	1763.30
823.91	1675.24
824.08	1662.95
824.25	1665.00
824.42	1783.78
824.60	1648.61
824.77	1708.01
824.94	1679.33
825.11	1787.88
825.28	1566.70
825.45	1697.77
825.63	1652.71
825.80	1648.61
825.97	1687.53
826.14	1734.63
826.31	1593.32
826.48	1718.25
826.66	1599.46
826.83	1761.25
827.00	1783.78
827.17	1677.29
827.34	1640.42
827.51	1689.57
827.69	1720.29
827.86	1687.53
828.03	1738.73
828.20	1757.16
828.37	1652.71
828.54	1697.77
828.71	1527.78
828.89	1929.19
829.06	1697.77
829.23	1791.97
829.40	1636.33
829.57	1621.99
829.74	1710.05
829.91	1626.09
830.09	1640.42
830.26	1718.25
830.43	1804.26
830.60	1658.85
830.77	1757.16
830.94	1751.01
831.11	1671.14
831.28	1624.04
831.46	1744.87
831.63	1695.72
831.80	1755.11
831.97	1656.81
832.14	1683.43
832.31	1638.38
832.48	1726.44
832.65	1820.64
832.82	1681.38
832.99	1767.40
833.17	1697.77
833.34	1789.92
833.51	1828.84
833.68	1658.85
833.85	1794.02
834.02	1673.19
834.19	1603.56
834.36	1687.53
834.53	1746.92
834.70	1847.27
834.87	1693.67
835.04	1671.14
835.22	1722.34
835.39	1658.85
835.56	1601.51
835.73	1712.10
835.90	1763.30
836.07	1587.18
836.24	1867.75
836.41	1574.89
836.58	1621.99
836.75	1748.97
836.92	1689.57
837.09	1665.00
837.26	1708.01
837.43	1650.66
837.60	1796.07
837.77	1732.58
837.94	1718.25
838.12	1718.25
838.29	1669.09
838.46	1656.81
838.63	1705.96
838.80	1722.34
838.97	1769.44
839.14	1685.48
839.31	1662.95
839.48	1787.88
839.65	1699.81
839.82	1753.06
839.99	1746.92
840.16	1689.57
840.33	1708.01
840.50	1693.67
840.67	1658.85
840.84	1554.41
841.01	1710.05
841.18	1705.96
841.35	1687.53
841.52	1685.48
841.69	1806.31
841.86	1771.49
842.03	1675.24
842.20	1742.82
842.37	1673.19
842.54	1730.53
842.71	1671.14
842.88	1583.08
843.05	1730.53
843.22	1730.53
843.39	1726.44
843.56	1624.04
843.73	1740.77
843.90	1681.38
844.07	1646.57
844.24	1789.92
844.41	1722.34
844.58	1683.43
844.75	1665.00
844.92	1734.63
845.09	1708.01
845.26	1613.80
845.43	1746.92
845.60	1679.33
845.77	1714.15
845.94	1675.24
846.10	1734.63
846.27	1683.43
846.44	1699.81
846.61	1708.01
846.78	1796.07
846.95	1730.53
847.12	1669.09
847.29	1705.96
847.46	1619.94
847.63	1720.29
847.80	1705.96
847.97	1697.77
848.14	1869.80
848.31	1658.85
848.48	1654.76
848.65	1683.43
848.82	1638.38
848.98	1873.89
849.15	1726.44
849.32	1722.34
849.49	1759.21
849.66	1681.38
849.83	1798.12
850.00	1673.19
850.17	1748.97
850.34	1699.81
850.51	1681.38
850.68	1705.96
850.85	1751.01
851.01	1791.97
851.18	1705.96
851.35	1726.44
851.52	1783.78
851.69	1794.02
851.86	1621.99
852.03	1669.09
852.20	1710.05
852.37	1712.10
852.53	1648.61
852.70	1693.67
852.87	1660.90
853.04	1677.29
853.21	1734.63
853.38	1701.86
853.55	1716.20
853.72	1841.12
853.89	1638.38
854.05	1626.09
854.22	1673.19
854.39	1656.81
854.56	1714.15
854.73	1751.01
854.90	1695.72
855.07	1714.15
855.23	1665.00
855.40	1759.21
855.57	1697.77
855.74	1601.51
855.91	1814.50
856.08	1638.38
856.25	1601.51
856.41	1613.80
856.58	1665.00
856.75	1738.73
856.92	1644.52
857.09	1773.54
857.26	1621.99
857.42	1742.82
857.59	1681.38
857.76	1624.04
857.93	1800.16
858.10	1732.58
858.27	1665.00
858.43	1730.53
858.60	1648.61
858.77	1656.81
858.94	1652.71
859.11	1759.21
859.27	1656.81
859.44	1603.56
859.61	1802.21
859.78	1681.38
859.95	1757.16
860.12	1722.34
860.28	1783.78
860.45	1794.02
860.62	1642.47
860.79	1685.48
860.95	1658.85
861.12	1705.96
861.29	1638.38
861.46	1687.53
861.63	1638.38
861.79	1683.43
861.96	1638.38
862.13	1675.24
862.30	1724.39
862.47	1656.81
862.63	1730.53
862.80	1759.21
862.97	1791.97
863.14	1738.73
863.30	1744.87
863.47	1609.70
863.64	1800.16
863.81	1685.48
863.97	1662.95
864.14	1730.53
864.31	1716.20
864.48	1722.34
864.65	1685.48
864.81	1728.49
864.98	1712.10
865.15	1779.68
865.32	1761.25
865.48	1691.62
865.65	1746.92
865.82	1697.77
865.98	1667.05
866.15	1812.45
866.32	1665.00
866.49	1667.05
866.65	1796.07
866.82	1636.33
866.99	1767.40
867.16	1693.67
867.32	1652.71
867.49	1708.01
867.66	1652.71
867.83	1662.95
867.99	1642.47
868.16	1673.19
868.33	1587.18
868.49	1728.49
868.66	1691.62
868.83	1714.15
868.99	1720.29
869.16	1697.77
869.33	1677.29
869.50	1820.64
869.66	1734.63
869.83	1665.00
870.00	1634.28
870.16	1746.92
870.33	1705.96
870.50	1716.20
870.66	1767.40
870.83	1751.01
871.00	1720.29
871.17	1685.48
871.33	1763.30
871.50	1687.53
871.67	1710.05
871.83	1595.37
872.00	1804.26
872.17	1675.24
872.33	1875.94
872.50	1787.88
872.67	1591.27
872.83	1681.38
873.00	1703.91
873.17	1681.38
873.33	1775.59
873.50	1751.01
873.67	1628.14
873.83	1648.61
874.00	1656.81
874.16	1712.10
874.33	1650.66
874.50	1601.51
874.66	1757.16
874.83	1677.29
875.00	1763.30
875.16	1808.36
875.33	1708.01
875.50	1615.85
875.66	1714.15
875.83	1669.09
875.99	1740.77
876.16	1681.38
876.33	1632.23
876.49	1753.06
876.66	1732.58
876.83	1763.30
876.99	1675.24
877.16	1691.62
877.32	1728.49
877.49	1751.01
877.66	1779.68
877.82	1777.64
877.99	1734.63
878.15	1796.07
878.32	1695.72
878.49	1716.20
878.65	1679.33
878.82	1705.96
878.98	1624.04
879.15	1718.25
879.32	1665.00
879.48	1714.15
879.65	1673.19
879.81	1550.31
879.98	1656.81
880.15	1685.48
880.31	1767.40
880.48	1681.38
880.64	1791.97
880.81	1673.19
880.97	1746.92
881.14	1714.15
881.31	1585.13
881.47	1816.55
881.64	1685.48
881.80	1609.70
881.97	1730.53
882.13	1738.73
882.30	1677.29
882.47	1691.62
882.63	1566.70
882.80	1679.33
882.96	1642.47
883.13	1771.49
883.29	1705.96
883.46	1746.92
883.62	1708.01
883.79	1746.92
883.95	1781.73
884.12	1675.24
884.29	1765.35
884.45	1728.49
884.62	1708.01
884.78	1642.47
884.95	1785.83
885.11	1615.85
885.28	1755.11
885.44	1673.19
885.61	1804.26
885.77	1820.64
885.94	1736.68
886.10	1714.15
886.27	1671.14
886.43	1695.72
886.60	1785.83
886.76	1626.09
886.93	1675.24
887.09	1738.73
887.26	1593.32
887.42	1683.43
887.59	1769.44
887.75	1753.06
887.92	1794.02
888.08	1748.97
888.25	1748.97
888.41	1712.10
888.58	1689.57
888.74	1667.05
888.91	1650.66
>>>>>End Processed Spectral Data<<<<<
