SpectraSuite Data File
++++++++++++++++++++++++++++++++++++
Date: Mon Jun 06 15:50:37 CEST 2016
User: root
Dark Spectrum Present: No
Reference Spectrum Present: No
Number of Sampled Component Spectra: 1
Spectrometers: USB4C02835
Integration Time (usec): 100000 (USB4C02835)
Spectra Averaged: 1 (USB4C02835)
Boxcar Smoothing: 0 (USB4C02835)
Correct for Electrical Dark: No (USB4C02835)
Strobe/Lamp Enabled: No (USB4C02835)
Correct for Detector Non-linearity: No (USB4C02835)
Correct for Stray Light: No (USB4C02835)
Number of Pixels in Processed Spectrum: 3648
>>>>>Begin Processed Spectral Data<<<<<
177.47	1497.07
177.69	1497.07
177.91	1497.07
178.13	1507.30
178.36	1417.19
178.58	1675.24
178.80	1791.97
179.02	1677.29
179.24	1710.05
179.46	1675.24
179.68	1746.92
179.90	1665.00
180.13	1687.53
180.35	1632.23
180.57	1716.20
180.79	1730.53
181.01	1695.72
181.23	1814.50
181.45	1785.83
181.67	1775.59
181.90	1701.86
182.12	1673.19
182.34	1679.33
182.56	1740.77
182.78	1701.86
183.00	1642.47
183.22	1722.34
183.44	1617.90
183.66	1855.46
183.89	1779.68
184.11	1640.42
184.33	1730.53
184.55	1751.01
184.77	1673.19
184.99	1718.25
185.21	1646.57
185.43	1941.47
185.65	1646.57
185.87	1738.73
186.10	1751.01
186.32	1861.60
186.54	1677.29
186.76	1695.72
186.98	1789.92
187.20	1738.73
187.42	1705.96
187.64	1708.01
187.86	1828.84
188.08	1808.36
188.30	1660.90
188.52	1703.91
188.75	1910.75
188.97	1740.77
189.19	1642.47
189.41	1689.57
189.63	1767.40
189.85	1701.86
190.07	1624.04
190.29	1626.09
190.51	1777.64
190.73	1679.33
190.95	1751.01
191.17	1742.82
191.39	1607.66
191.61	1679.33
191.84	1718.25
192.06	1738.73
192.28	1646.57
192.50	1832.93
192.72	1701.86
192.94	1675.24
193.16	1697.77
193.38	1726.44
193.60	1634.28
193.82	1679.33
194.04	1791.97
194.26	1808.36
194.48	1785.83
194.70	1675.24
194.92	1648.61
195.14	1751.01
195.36	1695.72
195.58	1732.58
195.80	1687.53
196.02	1665.00
196.24	1767.40
196.46	1785.83
196.69	1660.90
196.91	1830.88
197.13	1621.99
197.35	1636.33
197.57	1853.41
197.79	1697.77
198.01	1755.11
198.23	1722.34
198.45	1691.62
198.67	1671.14
198.89	1673.19
199.11	1728.49
199.33	1681.38
199.55	1576.94
199.77	1665.00
199.99	1804.26
200.21	1722.34
200.43	1800.16
200.65	1691.62
200.87	1634.28
201.09	1748.97
201.31	1714.15
201.53	1712.10
201.75	1744.87
201.97	1777.64
202.19	1732.58
202.41	1763.30
202.63	1839.08
202.85	1734.63
203.07	1685.48
203.29	1708.01
203.51	1679.33
203.73	1634.28
203.95	1896.42
204.17	1712.10
204.39	1724.39
204.61	1621.99
204.83	1710.05
205.05	1640.42
205.27	1695.72
205.49	1847.27
205.71	1662.95
205.93	1617.90
206.15	1650.66
206.37	1728.49
206.59	1728.49
206.81	1667.05
207.03	1593.32
207.25	1607.66
207.47	1773.54
207.69	1722.34
207.91	1771.49
208.13	1736.68
208.34	1673.19
208.56	1662.95
208.78	1769.44
209.00	1701.86
209.22	1624.04
209.44	1701.86
209.66	1644.52
209.88	1734.63
210.10	1669.09
210.32	1730.53
210.54	1806.31
210.76	1703.91
210.98	1787.88
211.20	1605.61
211.42	1724.39
211.64	1712.10
211.86	1660.90
212.08	1714.15
212.30	1771.49
212.52	1693.67
212.74	1724.39
212.96	1722.34
213.17	1832.93
213.39	1722.34
213.61	1798.12
213.83	1736.68
214.05	1642.47
214.27	1869.80
214.49	1650.66
214.71	1531.88
214.93	1804.26
215.15	1675.24
215.37	1759.21
215.59	1646.57
215.81	1767.40
216.03	1787.88
216.24	1779.68
216.46	1728.49
216.68	1761.25
216.90	1806.31
217.12	1787.88
217.34	1708.01
217.56	1744.87
217.78	1748.97
218.00	1724.39
218.22	1751.01
218.44	1705.96
218.66	1726.44
218.87	1820.64
219.09	1689.57
219.31	1693.67
219.53	1726.44
219.75	1642.47
219.97	1718.25
220.19	1781.73
220.41	1679.33
220.63	1748.97
220.85	1699.81
221.06	1783.78
221.28	1830.88
221.50	1742.82
221.72	1691.62
221.94	1765.35
222.16	1714.15
222.38	1779.68
222.60	1662.95
222.82	1730.53
223.03	1808.36
223.25	1603.56
223.47	1785.83
223.69	1796.07
223.91	1712.10
224.13	1642.47
224.35	1685.48
224.57	1679.33
224.78	1671.14
225.00	1714.15
225.22	1693.67
225.44	1667.05
225.66	1759.21
225.88	1718.25
226.10	1791.97
226.32	1634.28
226.53	1830.88
226.75	1656.81
226.97	1751.01
227.19	1679.33
227.41	1726.44
227.63	1665.00
227.85	1654.76
228.06	1732.58
228.28	1673.19
228.50	1820.64
228.72	1615.85
228.94	1728.49
229.16	1660.90
229.37	1683.43
229.59	1695.72
229.81	1781.73
230.03	1632.23
230.25	1718.25
230.47	1652.71
230.69	1699.81
230.90	1746.92
231.12	1712.10
231.34	1652.71
231.56	1691.62
231.78	1662.95
232.00	1738.73
232.21	1712.10
232.43	1665.00
232.65	1628.14
232.87	1740.77
233.09	1599.46
233.30	1683.43
233.52	1775.59
233.74	1730.53
233.96	1669.09
234.18	1701.86
234.40	1656.81
234.61	1892.32
234.83	1658.85
235.05	1656.81
235.27	1804.26
235.49	1759.21
235.70	1736.68
235.92	1804.26
236.14	1679.33
236.36	1861.60
236.58	1646.57
236.79	1679.33
237.01	1695.72
237.23	1746.92
237.45	1791.97
237.67	1660.90
237.88	1656.81
238.10	1869.80
238.32	1746.92
238.54	1654.76
238.76	1718.25
238.97	1605.61
239.19	1638.38
239.41	1808.36
239.63	1824.74
239.85	1695.72
240.06	1759.21
240.28	1708.01
240.50	1726.44
240.72	1705.96
240.93	1718.25
241.15	1783.78
241.37	1724.39
241.59	1783.78
241.81	1587.18
242.02	1671.14
242.24	1699.81
242.46	1746.92
242.68	1662.95
242.89	1681.38
243.11	1763.30
243.33	1812.45
243.55	1767.40
243.76	1740.77
243.98	1640.42
244.20	1730.53
244.42	1808.36
244.64	1652.71
244.85	1738.73
245.07	1679.33
245.29	1767.40
245.51	1675.24
245.72	1753.06
245.94	1757.16
246.16	1718.25
246.38	1728.49
246.59	1726.44
246.81	1646.57
247.03	1710.05
247.24	1570.79
247.46	1636.33
247.68	1697.77
247.90	1742.82
248.11	1751.01
248.33	1818.60
248.55	1728.49
248.77	1763.30
248.98	1714.15
249.20	1777.64
249.42	1669.09
249.64	1638.38
249.85	1687.53
250.07	1669.09
250.29	1722.34
250.50	1740.77
250.72	1626.09
250.94	1751.01
251.16	1824.74
251.37	1716.20
251.59	1726.44
251.81	1722.34
252.02	1773.54
252.24	1621.99
252.46	1839.08
252.68	1621.99
252.89	1626.09
253.11	1638.38
253.33	1824.74
253.54	1771.49
253.76	1691.62
253.98	1751.01
254.20	1685.48
254.41	1603.56
254.63	1673.19
254.85	1665.00
255.06	1630.18
255.28	1755.11
255.50	1740.77
255.71	1621.99
255.93	1681.38
256.15	1697.77
256.36	1814.50
256.58	1705.96
256.80	1755.11
257.02	1736.68
257.23	1640.42
257.45	1746.92
257.67	1753.06
257.88	1669.09
258.10	1740.77
258.32	1691.62
258.53	1730.53
258.75	1753.06
258.97	1648.61
259.18	1705.96
259.40	1669.09
259.62	1816.55
259.83	1746.92
260.05	1703.91
260.27	1994.72
260.48	1763.30
260.70	1591.27
260.92	1714.15
261.13	1769.44
261.35	1685.48
261.57	1816.55
261.78	1601.51
262.00	1648.61
262.22	1783.78
262.43	1624.04
262.65	1703.91
262.86	1650.66
263.08	1789.92
263.30	1628.14
263.51	1677.29
263.73	1642.47
263.95	1775.59
264.16	1644.52
264.38	1673.19
264.60	1734.63
264.81	1769.44
265.03	1705.96
265.25	1757.16
265.46	1746.92
265.68	1771.49
265.89	1732.58
266.11	1656.81
266.33	1697.77
266.54	1814.50
266.76	1740.77
266.98	1705.96
267.19	1818.60
267.41	1798.12
267.62	1716.20
267.84	1595.37
268.06	1714.15
268.27	1712.10
268.49	1773.54
268.70	1791.97
268.92	1671.14
269.14	1652.71
269.35	1624.04
269.57	1812.45
269.79	1695.72
270.00	1726.44
270.22	1794.02
270.43	1591.27
270.65	1587.18
270.87	1720.29
271.08	1751.01
271.30	1765.35
271.51	1740.77
271.73	1656.81
271.95	1787.88
272.16	1687.53
272.38	1714.15
272.59	1722.34
272.81	1691.62
273.02	1724.39
273.24	1753.06
273.46	1673.19
273.67	1701.86
273.89	1687.53
274.10	1689.57
274.32	1775.59
274.54	1746.92
274.75	1804.26
274.97	1691.62
275.18	1771.49
275.40	1802.21
275.61	1748.97
275.83	1695.72
276.05	1640.42
276.26	1697.77
276.48	1736.68
276.69	1603.56
276.91	1640.42
277.12	1822.69
277.34	1769.44
277.55	1771.49
277.77	1746.92
277.99	1712.10
278.20	1656.81
278.42	1673.19
278.63	1701.86
278.85	1632.23
279.06	1675.24
279.28	1740.77
279.49	1714.15
279.71	1738.73
279.93	1779.68
280.14	1810.40
280.36	1722.34
280.57	1736.68
280.79	1722.34
281.00	1675.24
281.22	1662.95
281.43	1740.77
281.65	1581.03
281.86	1736.68
282.08	1720.29
282.29	1832.93
282.51	1636.33
282.73	1617.90
282.94	1656.81
283.16	1777.64
283.37	1847.27
283.59	1675.24
283.80	1763.30
284.02	1656.81
284.23	1679.33
284.45	1638.38
284.66	1597.42
284.88	1662.95
285.09	1697.77
285.31	1697.77
285.52	1712.10
285.74	1632.23
285.95	1685.48
286.17	1683.43
286.38	1830.88
286.60	1685.48
286.81	1755.11
287.03	1675.24
287.24	1691.62
287.46	1708.01
287.67	1683.43
287.89	1761.25
288.10	1730.53
288.32	1755.11
288.53	1726.44
288.75	1654.76
288.96	1781.73
289.18	1667.05
289.39	1660.90
289.61	1789.92
289.82	1808.36
290.04	1832.93
290.25	1658.85
290.47	1693.67
290.68	1728.49
290.90	1771.49
291.11	1597.42
291.33	1685.48
291.54	1624.04
291.76	1656.81
291.97	1697.77
292.18	1748.97
292.40	1650.66
292.61	1701.86
292.83	1837.03
293.04	1732.58
293.26	1740.77
293.47	1781.73
293.69	1642.47
293.90	1716.20
294.12	1742.82
294.33	1683.43
294.55	1716.20
294.76	1755.11
294.97	1691.62
295.19	1869.80
295.40	1712.10
295.62	1748.97
295.83	1736.68
296.05	1730.53
296.26	1812.45
296.48	1656.81
296.69	1675.24
296.90	1634.28
297.12	1697.77
297.33	1699.81
297.55	1644.52
297.76	1796.07
297.98	1822.69
298.19	1738.73
298.41	1720.29
298.62	1685.48
298.83	1818.60
299.05	1716.20
299.26	1669.09
299.48	1681.38
299.69	1845.22
299.90	1769.44
300.12	1742.82
300.33	1685.48
300.55	1669.09
300.76	1810.40
300.98	1640.42
301.19	1751.01
301.40	1732.58
301.62	1714.15
301.83	1703.91
302.05	1808.36
302.26	1781.73
302.47	1748.97
302.69	1705.96
302.90	1794.02
303.12	1611.75
303.33	1708.01
303.54	1837.03
303.76	1699.81
303.97	1779.68
304.19	1808.36
304.40	1660.90
304.61	1689.57
304.83	1859.56
305.04	1744.87
305.26	1773.54
305.47	1642.47
305.68	1628.14
305.90	1611.75
306.11	1771.49
306.33	1751.01
306.54	1671.14
306.75	1662.95
306.97	1642.47
307.18	1609.70
307.39	1638.38
307.61	1748.97
307.82	1667.05
308.04	1755.11
308.25	1730.53
308.46	1685.48
308.68	1710.05
308.89	1718.25
309.10	1703.91
309.32	1744.87
309.53	1677.29
309.74	1730.53
309.96	1703.91
310.17	1765.35
310.39	1673.19
310.60	1736.68
310.81	1722.34
311.03	1542.12
311.24	1742.82
311.45	1759.21
311.67	1779.68
311.88	1726.44
312.09	1726.44
312.31	1673.19
312.52	1677.29
312.73	1675.24
312.95	1673.19
313.16	1687.53
313.37	1738.73
313.59	1742.82
313.80	1708.01
314.01	1787.88
314.23	1640.42
314.44	1562.60
314.65	1595.37
314.87	1660.90
315.08	1689.57
315.29	1685.48
315.51	1744.87
315.72	1697.77
315.93	1882.08
316.15	1820.64
316.36	1689.57
316.57	1718.25
316.79	1849.32
317.00	1744.87
317.21	1775.59
317.43	1701.86
317.64	1714.15
317.85	1744.87
318.07	1669.09
318.28	1751.01
318.49	1828.84
318.70	1935.33
318.92	1812.45
319.13	1912.80
319.34	1853.41
319.56	1826.79
319.77	1746.92
319.98	1871.84
320.20	1812.45
320.41	1730.53
320.62	1773.54
320.83	1685.48
321.05	1832.93
321.26	1744.87
321.47	1722.34
321.69	1744.87
321.90	1650.66
322.11	1714.15
322.32	1691.62
322.54	1783.78
322.75	1650.66
322.96	1748.97
323.18	1607.66
323.39	1595.37
323.60	1665.00
323.81	1722.34
324.03	1685.48
324.24	1753.06
324.45	1705.96
324.66	1734.63
324.88	1736.68
325.09	1800.16
325.30	1695.72
325.52	1710.05
325.73	1687.53
325.94	1742.82
326.15	1656.81
326.37	1679.33
326.58	1757.16
326.79	1839.08
327.00	1675.24
327.22	1679.33
327.43	1689.57
327.64	1679.33
327.85	1742.82
328.07	1755.11
328.28	1791.97
328.49	1699.81
328.70	1730.53
328.92	1802.21
329.13	1701.86
329.34	1746.92
329.55	1810.40
329.76	1722.34
329.98	1693.67
330.19	1767.40
330.40	1796.07
330.61	1755.11
330.83	1722.34
331.04	1574.89
331.25	1740.77
331.46	1705.96
331.68	1689.57
331.89	1808.36
332.10	1673.19
332.31	1638.38
332.52	1728.49
332.74	1800.16
332.95	1755.11
333.16	1705.96
333.37	1701.86
333.58	1638.38
333.80	1726.44
334.01	1570.79
334.22	1675.24
334.43	1708.01
334.64	1693.67
334.86	1605.61
335.07	1712.10
335.28	1781.73
335.49	1755.11
335.70	1693.67
335.92	1853.41
336.13	1900.52
336.34	1710.05
336.55	1705.96
336.76	1763.30
336.98	1642.47
337.19	1748.97
337.40	1861.60
337.61	1957.86
337.82	1730.53
338.04	1761.25
338.25	1529.83
338.46	1681.38
338.67	1712.10
338.88	1685.48
339.09	1665.00
339.31	1691.62
339.52	1658.85
339.73	1710.05
339.94	1695.72
340.15	1679.33
340.36	1665.00
340.58	1716.20
340.79	1673.19
341.00	1832.93
341.21	1648.61
341.42	1814.50
341.63	1751.01
341.85	1761.25
342.06	1742.82
342.27	1566.70
342.48	1734.63
342.69	1599.46
342.90	1667.05
343.12	1781.73
343.33	1767.40
343.54	1722.34
343.75	1771.49
343.96	1708.01
344.17	1611.75
344.38	1687.53
344.60	1660.90
344.81	1738.73
345.02	1697.77
345.23	1785.83
345.44	1828.84
345.65	1751.01
345.86	1748.97
346.07	1710.05
346.29	1656.81
346.50	1751.01
346.71	1708.01
346.92	1851.36
347.13	1861.60
347.34	1738.73
347.55	1640.42
347.76	1783.78
347.98	1624.04
348.19	1693.67
348.40	1800.16
348.61	1701.86
348.82	1783.78
349.03	1736.68
349.24	1665.00
349.45	1748.97
349.66	1574.89
349.88	1693.67
350.09	1648.61
350.30	1794.02
350.51	1855.46
350.72	1693.67
350.93	1757.16
351.14	1624.04
351.35	1730.53
351.56	1652.71
351.77	1630.18
351.99	1718.25
352.20	1728.49
352.41	1810.40
352.62	1560.55
352.83	1732.58
353.04	1681.38
353.25	1693.67
353.46	1755.11
353.67	1734.63
353.88	1662.95
354.09	1845.22
354.30	1658.85
354.52	1834.98
354.73	1722.34
354.94	1675.24
355.15	1740.77
355.36	1794.02
355.57	1685.48
355.78	1748.97
355.99	1652.71
356.20	1679.33
356.41	1787.88
356.62	1693.67
356.83	1736.68
357.04	1800.16
357.25	1593.32
357.46	1646.57
357.68	1665.00
357.89	1648.61
358.10	1626.09
358.31	1710.05
358.52	1720.29
358.73	1677.29
358.94	1597.42
359.15	1665.00
359.36	1712.10
359.57	1705.96
359.78	1665.00
359.99	1789.92
360.20	1626.09
360.41	1656.81
360.62	1734.63
360.83	1660.90
361.04	1777.64
361.25	1734.63
361.46	1794.02
361.67	1751.01
361.88	1763.30
362.09	1714.15
362.30	1738.73
362.51	1703.91
362.72	1736.68
362.93	1783.78
363.14	1708.01
363.35	1777.64
363.56	1677.29
363.78	1710.05
363.99	1722.34
364.20	1693.67
364.41	1683.43
364.62	1761.25
364.83	1789.92
365.04	1755.11
365.25	1740.77
365.46	1773.54
365.67	1630.18
365.88	1632.23
366.09	1695.72
366.30	1742.82
366.51	1718.25
366.72	1697.77
366.93	1724.39
367.14	1763.30
367.35	1806.31
367.56	1662.95
367.77	1789.92
367.98	1687.53
368.18	1716.20
368.39	1718.25
368.60	1619.94
368.81	1759.21
369.02	1722.34
369.23	1710.05
369.44	1630.18
369.65	1699.81
369.86	1724.39
370.07	1775.59
370.28	1681.38
370.49	1656.81
370.70	1781.73
370.91	1593.32
371.12	1658.85
371.33	1796.07
371.54	1691.62
371.75	1855.46
371.96	1572.84
372.17	1710.05
372.38	1742.82
372.59	1800.16
372.80	1626.09
373.01	1681.38
373.22	1658.85
373.43	1777.64
373.64	1648.61
373.85	1710.05
374.06	1804.26
374.26	1697.77
374.47	1740.77
374.68	1742.82
374.89	1755.11
375.10	1687.53
375.31	1812.45
375.52	1755.11
375.73	1728.49
375.94	1691.62
376.15	1826.79
376.36	1636.33
376.57	1648.61
376.78	1777.64
376.99	1798.12
377.20	1808.36
377.40	1660.90
377.61	1830.88
377.82	1671.14
378.03	1839.08
378.24	1796.07
378.45	1583.08
378.66	1724.39
378.87	1718.25
379.08	1613.80
379.29	1751.01
379.50	1757.16
379.71	1675.24
379.91	1800.16
380.12	1656.81
380.33	1705.96
380.54	1753.06
380.75	1677.29
380.96	1693.67
381.17	1763.30
381.38	1671.14
381.59	1845.22
381.80	1677.29
382.00	1961.95
382.21	1744.87
382.42	1896.42
382.63	1865.70
382.84	1767.40
383.05	1787.88
383.26	1794.02
383.47	1703.91
383.68	1767.40
383.88	1673.19
384.09	1800.16
384.30	1837.03
384.51	1771.49
384.72	1681.38
384.93	1609.70
385.14	1755.11
385.35	1808.36
385.55	1636.33
385.76	1744.87
385.97	1773.54
386.18	1667.05
386.39	1681.38
386.60	1591.27
386.81	1687.53
387.02	1687.53
387.22	1646.57
387.43	1769.44
387.64	1777.64
387.85	1904.61
388.06	2172.89
388.27	4167.62
388.48	6680.47
388.68	8007.56
388.89	9428.85
389.10	9619.31
389.31	8292.23
389.52	7425.93
389.73	6506.40
389.93	6076.32
390.14	5728.17
390.35	5212.08
390.56	4485.05
390.77	3794.89
390.98	2955.22
391.18	2439.13
391.39	2011.11
391.60	1869.80
391.81	1900.52
392.02	1767.40
392.23	1894.37
392.43	1767.40
392.64	1791.97
392.85	1734.63
393.06	1738.73
393.27	1691.62
393.47	1697.77
393.68	1789.92
393.89	1777.64
394.10	1789.92
394.31	1611.75
394.52	1675.24
394.72	1671.14
394.93	1730.53
395.14	1658.85
395.35	1738.73
395.56	1691.62
395.76	1808.36
395.97	1767.40
396.18	1845.22
396.39	1845.22
396.60	1974.24
396.80	1890.28
397.01	1796.07
397.22	1859.56
397.43	1873.89
397.64	1783.78
397.84	1843.17
398.05	1980.39
398.26	1837.03
398.47	1791.97
398.67	1763.30
398.88	1775.59
399.09	1689.57
399.30	1720.29
399.51	1781.73
399.71	1720.29
399.92	1724.39
400.13	1824.74
400.34	1697.77
400.54	1730.53
400.75	1740.77
400.96	1765.35
401.17	1853.41
401.37	1767.40
401.58	1705.96
401.79	1685.48
402.00	1875.94
402.21	2002.91
402.41	2009.06
402.62	2017.25
402.83	2050.02
403.04	2009.06
403.24	2103.26
403.45	1722.34
403.66	1890.28
403.87	1945.57
404.07	1910.75
404.28	1927.14
404.49	1859.56
404.70	1812.45
404.90	1791.97
405.11	1765.35
405.32	1761.25
405.52	1677.29
405.73	1665.00
405.94	1656.81
406.15	1665.00
406.35	1753.06
406.56	1718.25
406.77	1759.21
406.98	1771.49
407.18	1714.15
407.39	1771.49
407.60	1689.57
407.80	1728.49
408.01	1652.71
408.22	1769.44
408.43	1736.68
408.63	1665.00
408.84	1826.79
409.05	1714.15
409.25	1705.96
409.46	1650.66
409.67	1705.96
409.88	1722.34
410.08	1679.33
410.29	1652.71
410.50	1740.77
410.70	1720.29
410.91	1714.15
411.12	1732.58
411.32	1716.20
411.53	1691.62
411.74	1818.60
411.95	1837.03
412.15	1775.59
412.36	1843.17
412.57	1712.10
412.77	1841.12
412.98	1658.85
413.19	1703.91
413.39	1847.27
413.60	1804.26
413.81	1816.55
414.01	1734.63
414.22	1771.49
414.43	1771.49
414.63	1724.39
414.84	1794.02
415.05	1740.77
415.25	1628.14
415.46	1771.49
415.67	1710.05
415.87	1769.44
416.08	1763.30
416.29	1746.92
416.49	1746.92
416.70	1718.25
416.91	1667.05
417.11	1697.77
417.32	1785.83
417.53	1791.97
417.73	1755.11
417.94	1755.11
418.15	1671.14
418.35	1771.49
418.56	1710.05
418.77	1834.98
418.97	1814.50
419.18	1728.49
419.38	1640.42
419.59	1714.15
419.80	1812.45
420.00	1624.04
420.21	1730.53
420.42	1822.69
420.62	1712.10
420.83	1628.14
421.04	1708.01
421.24	1636.33
421.45	1789.92
421.65	1701.86
421.86	1734.63
422.07	1669.09
422.27	1669.09
422.48	1708.01
422.69	1763.30
422.89	1660.90
423.10	1673.19
423.30	1673.19
423.51	1771.49
423.72	1730.53
423.92	1746.92
424.13	1656.81
424.33	1722.34
424.54	1783.78
424.75	1779.68
424.95	1857.51
425.16	1730.53
425.36	1779.68
425.57	1742.82
425.78	1769.44
425.98	1775.59
426.19	1697.77
426.39	1654.76
426.60	1753.06
426.81	1816.55
427.01	1763.30
427.22	1648.61
427.42	1611.75
427.63	1701.86
427.83	1759.21
428.04	1828.84
428.25	1798.12
428.45	1789.92
428.66	1822.69
428.86	1755.11
429.07	1628.14
429.28	1753.06
429.48	1705.96
429.69	1613.80
429.89	1685.48
430.10	1685.48
430.30	1775.59
430.51	1761.25
430.71	1720.29
430.92	1699.81
431.13	1685.48
431.33	1775.59
431.54	1679.33
431.74	1853.41
431.95	1843.17
432.15	1685.48
432.36	1785.83
432.56	1800.16
432.77	1796.07
432.98	1857.51
433.18	1800.16
433.39	1699.81
433.59	1693.67
433.80	1853.41
434.00	1834.98
434.21	1705.96
434.41	1595.37
434.62	1845.22
434.82	1607.66
435.03	1673.19
435.23	1726.44
435.44	1675.24
435.64	1753.06
435.85	1775.59
436.06	1734.63
436.26	1818.60
436.47	1763.30
436.67	1726.44
436.88	1757.16
437.08	1740.77
437.29	1794.02
437.49	1708.01
437.70	1712.10
437.90	1658.85
438.11	1882.08
438.31	1847.27
438.52	1908.71
438.72	1906.66
438.93	1920.99
439.13	1814.50
439.34	1851.36
439.54	1812.45
439.75	1753.06
439.95	1798.12
440.16	1757.16
440.36	1740.77
440.57	1767.40
440.77	1808.36
440.98	1751.01
441.18	1732.58
441.39	1712.10
441.59	1638.38
441.80	1816.55
442.00	1765.35
442.21	1843.17
442.41	1640.42
442.62	1802.21
442.82	1669.09
443.02	1738.73
443.23	1744.87
443.43	1677.29
443.64	1882.08
443.84	1673.19
444.05	1787.88
444.25	1722.34
444.46	1740.77
444.66	1710.05
444.87	1816.55
445.07	1673.19
445.28	1681.38
445.48	1845.22
445.69	1845.22
445.89	1841.12
446.09	1736.68
446.30	2017.25
446.50	2590.68
446.71	3694.54
446.91	4216.77
447.12	4689.85
447.32	4724.66
447.53	4253.63
447.73	3813.32
447.93	3614.66
448.14	3350.48
448.34	3137.49
448.55	2897.88
448.75	2836.44
448.96	2678.74
449.16	2342.88
449.36	2330.59
449.57	2062.30
449.77	1908.71
449.98	1806.31
450.18	1757.16
450.39	1869.80
450.59	1779.68
450.79	1714.15
451.00	1669.09
451.20	1832.93
451.41	1730.53
451.61	1699.81
451.81	1820.64
452.02	1767.40
452.22	1748.97
452.43	1685.48
452.63	1732.58
452.84	1722.34
453.04	1771.49
453.24	1718.25
453.45	1814.50
453.65	1681.38
453.86	1808.36
454.06	1742.82
454.26	1804.26
454.47	1675.24
454.67	1830.88
454.87	1818.60
455.08	1708.01
455.28	1935.33
455.49	1759.21
455.69	1740.77
455.89	1796.07
456.10	1794.02
456.30	1744.87
456.51	1753.06
456.71	1714.15
456.91	1763.30
457.12	1742.82
457.32	1650.66
457.52	1626.09
457.73	1783.78
457.93	1814.50
458.14	1710.05
458.34	1705.96
458.54	1685.48
458.75	1689.57
458.95	1724.39
459.15	1753.06
459.36	1767.40
459.56	1798.12
459.76	1865.70
459.97	1744.87
460.17	1726.44
460.37	1751.01
460.58	1787.88
460.78	1744.87
460.99	1755.11
461.19	1748.97
461.39	1755.11
461.60	1728.49
461.80	1802.21
462.00	1726.44
462.21	1710.05
462.41	1744.87
462.61	1697.77
462.82	1630.18
463.02	1757.16
463.22	1738.73
463.43	1839.08
463.63	1705.96
463.83	1791.97
464.04	1759.21
464.24	1734.63
464.44	1624.04
464.64	1712.10
464.85	1771.49
465.05	1804.26
465.25	1693.67
465.46	1708.01
465.66	1853.41
465.86	1796.07
466.07	1785.83
466.27	1710.05
466.47	1576.94
466.68	1683.43
466.88	1855.46
467.08	1832.93
467.29	1724.39
467.49	1718.25
467.69	1802.21
467.89	1820.64
468.10	1699.81
468.30	1724.39
468.50	1869.80
468.71	1781.73
468.91	1701.86
469.11	1832.93
469.31	1755.11
469.52	1646.57
469.72	1869.80
469.92	1859.56
470.13	1712.10
470.33	1693.67
470.53	1892.32
470.73	2035.68
470.94	2271.20
471.14	2263.01
471.34	2484.19
471.54	2437.08
471.75	2283.49
471.95	2078.69
472.15	2041.82
472.36	2133.98
472.56	2103.26
472.76	2015.20
472.96	1996.77
473.17	1935.33
473.37	1871.84
473.57	1806.31
473.77	1794.02
473.98	1753.06
474.18	1730.53
474.38	1961.95
474.58	1724.39
474.79	1712.10
474.99	1818.60
475.19	1755.11
475.39	1611.75
475.60	1753.06
475.80	1796.07
476.00	1726.44
476.20	1679.33
476.41	1787.88
476.61	1857.51
476.81	1808.36
477.01	1681.38
477.21	1857.51
477.42	1902.56
477.62	1654.76
477.82	1798.12
478.02	1714.15
478.23	1806.31
478.43	1634.28
478.63	1712.10
478.83	1744.87
479.03	1703.91
479.24	1751.01
479.44	1857.51
479.64	1640.42
479.84	1626.09
480.04	1746.92
480.25	1789.92
480.45	1701.86
480.65	1812.45
480.85	1824.74
481.06	1681.38
481.26	1748.97
481.46	1740.77
481.66	1787.88
481.86	1730.53
482.06	1763.30
482.27	1742.82
482.47	1751.01
482.67	1728.49
482.87	1759.21
483.07	1871.84
483.28	1722.34
483.48	1638.38
483.68	1781.73
483.88	1722.34
484.08	1595.37
484.29	1578.98
484.49	1738.73
484.69	1677.29
484.89	1830.88
485.09	1787.88
485.29	1738.73
485.50	1746.92
485.70	1748.97
485.90	1861.60
486.10	1744.87
486.30	1851.36
486.50	1738.73
486.71	1714.15
486.91	1802.21
487.11	1834.98
487.31	1642.47
487.51	1828.84
487.71	1689.57
487.91	1667.05
488.12	1685.48
488.32	1652.71
488.52	1722.34
488.72	1621.99
488.92	1652.71
489.12	1818.60
489.32	1783.78
489.53	1761.25
489.73	1636.33
489.93	1769.44
490.13	1636.33
490.33	1648.61
490.53	1755.11
490.73	1751.01
490.94	1591.27
491.14	1716.20
491.34	1873.89
491.54	2115.55
491.74	2471.90
491.94	2906.07
492.14	2969.55
492.34	2926.55
492.54	2813.91
492.75	2488.28
492.95	2365.40
493.15	2379.74
493.35	2316.25
493.55	2293.72
493.75	2189.28
493.95	2172.89
494.15	2095.07
494.35	1900.52
494.56	1832.93
494.76	1775.59
494.96	1863.65
495.16	1734.63
495.36	1751.01
495.56	1705.96
495.76	1689.57
495.96	1781.73
496.16	1644.52
496.36	1751.01
496.56	1718.25
496.77	1714.15
496.97	1748.97
497.17	1800.16
497.37	1716.20
497.57	1869.80
497.77	1677.29
497.97	1607.66
498.17	1748.97
498.37	1738.73
498.57	1877.99
498.77	1757.16
498.97	1775.59
499.17	1781.73
499.38	1691.62
499.58	1728.49
499.78	1822.69
499.98	1779.68
500.18	1728.49
500.38	1718.25
500.58	1894.37
500.78	2559.96
500.98	4581.31
501.18	5717.93
501.38	6657.95
501.58	7077.78
501.78	6645.66
501.98	5500.84
502.18	4902.84
502.38	4456.38
502.58	4067.27
502.78	3737.54
502.98	3653.58
503.18	3434.44
503.38	3205.07
503.59	2736.09
503.79	2611.16
503.99	2412.51
504.19	2224.09
504.39	2222.05
504.59	2148.32
504.79	2068.45
504.99	2101.22
505.19	1925.09
505.39	1900.52
505.59	1976.29
505.79	1871.84
505.99	1914.85
506.19	1855.46
506.39	1871.84
506.59	1730.53
506.79	1667.05
506.99	1855.46
507.19	1767.40
507.39	1748.97
507.59	1636.33
507.79	1699.81
507.99	1675.24
508.19	1773.54
508.39	1726.44
508.59	1716.20
508.79	1875.94
508.99	1859.56
509.19	1732.58
509.39	1796.07
509.59	1712.10
509.79	1652.71
509.99	1718.25
510.19	1822.69
510.39	1826.79
510.59	1824.74
510.79	1652.71
510.99	1738.73
511.19	1781.73
511.39	1865.70
511.59	1828.84
511.79	1804.26
511.99	1691.62
512.19	1814.50
512.38	1740.77
512.58	1751.01
512.78	1777.64
512.98	1755.11
513.18	1763.30
513.38	1673.19
513.58	1757.16
513.78	1714.15
513.98	1718.25
514.18	1716.20
514.38	1724.39
514.58	1775.59
514.78	1708.01
514.98	1701.86
515.18	1751.01
515.38	1726.44
515.58	1843.17
515.78	1677.29
515.98	1738.73
516.18	1740.77
516.38	1634.28
516.57	1675.24
516.77	1742.82
516.97	1804.26
517.17	1648.61
517.37	1683.43
517.57	1806.31
517.77	1724.39
517.97	1712.10
518.17	1849.32
518.37	1693.67
518.57	1691.62
518.77	1705.96
518.97	1775.59
519.16	1771.49
519.36	1771.49
519.56	1712.10
519.76	1722.34
519.96	1763.30
520.16	1851.36
520.36	1716.20
520.56	1816.55
520.76	1660.90
520.96	1726.44
521.16	1710.05
521.35	1822.69
521.55	1888.23
521.75	1746.92
521.95	1734.63
522.15	1716.20
522.35	1708.01
522.55	1677.29
522.75	1810.40
522.95	1710.05
523.14	1748.97
523.34	1687.53
523.54	1681.38
523.74	1791.97
523.94	1740.77
524.14	1679.33
524.34	1794.02
524.54	1808.36
524.73	1751.01
524.93	1769.44
525.13	1751.01
525.33	1591.27
525.53	1843.17
525.73	1763.30
525.93	1628.14
526.13	1708.01
526.32	1742.82
526.52	1779.68
526.72	1722.34
526.92	1720.29
527.12	1765.35
527.32	1658.85
527.52	1730.53
527.71	1753.06
527.91	1783.78
528.11	1691.62
528.31	1757.16
528.51	1640.42
528.71	1783.78
528.90	1748.97
529.10	1763.30
529.30	1769.44
529.50	1683.43
529.70	1718.25
529.90	1763.30
530.09	1701.86
530.29	1673.19
530.49	1730.53
530.69	1906.66
530.89	1802.21
531.09	1787.88
531.28	1718.25
531.48	1791.97
531.68	1718.25
531.88	1714.15
532.08	1746.92
532.28	1736.68
532.47	1779.68
532.67	1722.34
532.87	1796.07
533.07	1685.48
533.27	1824.74
533.46	1732.58
533.66	1767.40
533.86	1685.48
534.06	1769.44
534.26	1800.16
534.45	1677.29
534.65	1834.98
534.85	1718.25
535.05	1699.81
535.25	1822.69
535.44	1683.43
535.64	1798.12
535.84	1773.54
536.04	1708.01
536.24	1738.73
536.43	1656.81
536.63	1783.78
536.83	1714.15
537.03	1693.67
537.22	1632.23
537.42	1640.42
537.62	1753.06
537.82	1681.38
538.02	1808.36
538.21	1869.80
538.41	1886.18
538.61	1779.68
538.81	1742.82
539.00	1841.12
539.20	1617.90
539.40	1689.57
539.60	1695.72
539.79	1785.83
539.99	1748.97
540.19	1646.57
540.39	1708.01
540.58	1757.16
540.78	1822.69
540.98	1740.77
541.18	1769.44
541.37	1779.68
541.57	1744.87
541.77	1812.45
541.97	1730.53
542.16	1642.47
542.36	1748.97
542.56	1855.46
542.76	1865.70
542.95	1767.40
543.15	1773.54
543.35	1720.29
543.54	1697.77
543.74	1751.01
543.94	1843.17
544.14	1748.97
544.33	1755.11
544.53	1728.49
544.73	1722.34
544.93	1695.72
545.12	1734.63
545.32	1687.53
545.52	1695.72
545.71	1640.42
545.91	1695.72
546.11	1705.96
546.30	1597.42
546.50	1740.77
546.70	1818.60
546.90	1742.82
547.09	1662.95
547.29	1761.25
547.49	1746.92
547.68	1693.67
547.88	1761.25
548.08	1808.36
548.27	2207.71
548.47	1779.68
548.67	1689.57
548.87	1732.58
549.06	1720.29
549.26	1732.58
549.46	1751.01
549.65	1775.59
549.85	1767.40
550.05	1783.78
550.24	1667.05
550.44	1740.77
550.64	1755.11
550.83	1677.29
551.03	1769.44
551.23	1867.75
551.42	1683.43
551.62	1826.79
551.82	1738.73
552.01	1767.40
552.21	1773.54
552.41	1701.86
552.60	1796.07
552.80	1763.30
553.00	1763.30
553.19	1722.34
553.39	1859.56
553.59	1689.57
553.78	1771.49
553.98	1791.97
554.17	1665.00
554.37	1771.49
554.57	1742.82
554.76	1699.81
554.96	1689.57
555.16	1779.68
555.35	1839.08
555.55	1814.50
555.75	1777.64
555.94	1806.31
556.14	1699.81
556.33	1847.27
556.53	1742.82
556.73	1775.59
556.92	1830.88
557.12	1822.69
557.32	1869.80
557.51	1775.59
557.71	1865.70
557.90	1871.84
558.10	1783.78
558.30	1781.73
558.49	1794.02
558.69	1740.77
558.88	1703.91
559.08	1853.41
559.28	1796.07
559.47	1761.25
559.67	1726.44
559.86	1839.08
560.06	1699.81
560.26	1742.82
560.45	1777.64
560.65	1736.68
560.84	1765.35
561.04	1634.28
561.24	1689.57
561.43	1656.81
561.63	1855.46
561.82	1763.30
562.02	1730.53
562.22	1714.15
562.41	1705.96
562.61	1683.43
562.80	1769.44
563.00	1914.85
563.19	1732.58
563.39	1759.21
563.59	1791.97
563.78	1699.81
563.98	1611.75
564.17	1705.96
564.37	1656.81
564.56	1777.64
564.76	1667.05
564.96	1808.36
565.15	1755.11
565.35	1955.81
565.54	1718.25
565.74	1744.87
565.93	1843.17
566.13	1757.16
566.32	1765.35
566.52	1816.55
566.71	1708.01
566.91	1734.63
567.11	1767.40
567.30	1699.81
567.50	1753.06
567.69	1734.63
567.89	1761.25
568.08	1708.01
568.28	1734.63
568.47	1712.10
568.67	1744.87
568.86	1730.53
569.06	1769.44
569.25	1705.96
569.45	1720.29
569.64	1798.12
569.84	1708.01
570.04	1791.97
570.23	1716.20
570.43	1738.73
570.62	1722.34
570.82	1900.52
571.01	1679.33
571.21	1662.95
571.40	1701.86
571.60	1800.16
571.79	1787.88
571.99	1757.16
572.18	1634.28
572.38	1791.97
572.57	1808.36
572.77	1798.12
572.96	1869.80
573.16	1697.77
573.35	1708.01
573.55	1757.16
573.74	1726.44
573.94	1746.92
574.13	1732.58
574.33	1804.26
574.52	1865.70
574.71	1730.53
574.91	1839.08
575.10	1634.28
575.30	1726.44
575.49	1716.20
575.69	1804.26
575.88	1791.97
576.08	1726.44
576.27	1773.54
576.47	1808.36
576.66	1861.60
576.86	1841.12
577.05	1746.92
577.25	1777.64
577.44	1914.85
577.64	1755.11
577.83	1781.73
578.02	1755.11
578.22	1763.30
578.41	1839.08
578.61	1677.29
578.80	1667.05
579.00	1775.59
579.19	1746.92
579.39	1830.88
579.58	1804.26
579.77	1722.34
579.97	1834.98
580.16	1771.49
580.36	1820.64
580.55	1812.45
580.75	1761.25
580.94	1720.29
581.13	1851.36
581.33	1886.18
581.52	1748.97
581.72	1869.80
581.91	1880.04
582.11	1726.44
582.30	1816.55
582.49	1765.35
582.69	1789.92
582.88	1812.45
583.08	1779.68
583.27	1757.16
583.47	1703.91
583.66	1667.05
583.85	1691.62
584.05	1759.21
584.24	1865.70
584.44	1818.60
584.63	1832.93
584.82	1812.45
585.02	1796.07
585.21	1863.65
585.41	1828.84
585.60	1800.16
585.79	1912.80
585.99	1984.48
586.18	1882.08
586.37	2176.99
586.57	3311.57
586.76	9725.80
586.96	24061.58
587.15	34086.39
587.34	39398.82
587.54	40977.81
587.73	35489.25
587.93	25398.91
588.12	21010.11
588.31	17682.16
588.51	15927.05
588.70	14720.80
588.89	13682.48
589.09	12265.28
589.28	11003.74
589.47	9242.48
589.67	7841.67
589.86	6326.18
590.06	4888.50
590.25	3893.19
590.44	3065.81
590.64	2533.34
590.83	2201.57
591.02	2105.31
591.22	1978.34
591.41	1890.28
591.60	1839.08
591.80	1984.48
591.99	1746.92
592.18	1796.07
592.38	1863.65
592.57	1802.21
592.76	1712.10
592.96	1847.27
593.15	1787.88
593.34	1781.73
593.54	1755.11
593.73	1789.92
593.92	1791.97
594.12	1785.83
594.31	1800.16
594.50	1839.08
594.70	1777.64
594.89	1820.64
595.08	1728.49
595.28	1781.73
595.47	1988.58
595.66	1759.21
595.86	1718.25
596.05	1722.34
596.24	1708.01
596.43	1894.37
596.63	1849.32
596.82	1769.44
597.01	1734.63
597.21	1796.07
597.40	1740.77
597.59	1773.54
597.79	1742.82
597.98	1828.84
598.17	1775.59
598.36	1753.06
598.56	1775.59
598.75	1724.39
598.94	1738.73
599.14	1742.82
599.33	1701.86
599.52	1798.12
599.71	1716.20
599.91	1742.82
600.10	1777.64
600.29	1740.77
600.48	1814.50
600.68	1800.16
600.87	1744.87
601.06	1728.49
601.26	1771.49
601.45	1746.92
601.64	1722.34
601.83	1849.32
602.03	1751.01
602.22	1640.42
602.41	1746.92
602.60	1843.17
602.80	1769.44
602.99	1701.86
603.18	1691.62
603.37	1755.11
603.57	1787.88
603.76	1755.11
603.95	1867.75
604.14	1730.53
604.34	1765.35
604.53	1746.92
604.72	1781.73
604.91	1837.03
605.10	1755.11
605.30	1724.39
605.49	1820.64
605.68	1828.84
605.87	1779.68
606.07	1800.16
606.26	1740.77
606.45	1820.64
606.64	1767.40
606.84	1738.73
607.03	1685.48
607.22	1773.54
607.41	1695.72
607.60	1728.49
607.80	1802.21
607.99	1708.01
608.18	1755.11
608.37	1761.25
608.56	1648.61
608.76	1742.82
608.95	1816.55
609.14	1710.05
609.33	1693.67
609.52	1851.36
609.72	1796.07
609.91	1746.92
610.10	1802.21
610.29	1826.79
610.48	1785.83
610.68	1800.16
610.87	1724.39
611.06	1726.44
611.25	1744.87
611.44	1888.23
611.63	1777.64
611.83	1728.49
612.02	1630.18
612.21	1767.40
612.40	1644.52
612.59	1748.97
612.79	1689.57
612.98	1748.97
613.17	1834.98
613.36	1695.72
613.55	1779.68
613.74	1667.05
613.93	1648.61
614.13	1730.53
614.32	1712.10
614.51	1796.07
614.70	1738.73
614.89	1757.16
615.08	1804.26
615.28	2129.89
615.47	1691.62
615.66	1710.05
615.85	1697.77
616.04	1787.88
616.23	1746.92
616.42	1685.48
616.62	1804.26
616.81	1814.50
617.00	1757.16
617.19	1845.22
617.38	1746.92
617.57	1742.82
617.76	1746.92
617.95	1767.40
618.15	1791.97
618.34	1796.07
618.53	1644.52
618.72	1843.17
618.91	1773.54
619.10	1863.65
619.29	1652.71
619.48	1724.39
619.68	1679.33
619.87	1656.81
620.06	1726.44
620.25	1839.08
620.44	1634.28
620.63	1632.23
620.82	1785.83
621.01	1812.45
621.20	1730.53
621.39	1714.15
621.59	1726.44
621.78	1718.25
621.97	1755.11
622.16	1751.01
622.35	1769.44
622.54	1779.68
622.73	1808.36
622.92	1597.42
623.11	1794.02
623.30	1759.21
623.49	1716.20
623.68	1720.29
623.88	1738.73
624.07	1734.63
624.26	1810.40
624.45	1767.40
624.64	1736.68
624.83	1759.21
625.02	1730.53
625.21	1804.26
625.40	1859.56
625.59	1812.45
625.78	1710.05
625.97	1884.13
626.16	1751.01
626.35	1822.69
626.54	1779.68
626.74	1804.26
626.93	1761.25
627.12	1615.85
627.31	1728.49
627.50	1714.15
627.69	1736.68
627.88	1693.67
628.07	1705.96
628.26	1683.43
628.45	1667.05
628.64	1665.00
628.83	1753.06
629.02	1693.67
629.21	1785.83
629.40	1767.40
629.59	1658.85
629.78	1720.29
629.97	1826.79
630.16	1708.01
630.35	1703.91
630.54	1728.49
630.73	1718.25
630.92	1722.34
631.11	1695.72
631.30	1724.39
631.49	1751.01
631.68	1685.48
631.87	1802.21
632.06	1667.05
632.25	1861.60
632.44	1746.92
632.63	1697.77
632.82	1642.47
633.01	1677.29
633.20	1730.53
633.39	1650.66
633.58	1607.66
633.77	1699.81
633.96	1771.49
634.15	1802.21
634.34	1796.07
634.53	1755.11
634.72	1714.15
634.91	1619.94
635.10	1716.20
635.29	1746.92
635.48	1746.92
635.67	1675.24
635.86	1621.99
636.05	1755.11
636.24	1759.21
636.43	1759.21
636.62	1773.54
636.81	1665.00
637.00	1730.53
637.19	1781.73
637.38	1740.77
637.57	1705.96
637.76	1710.05
637.95	1744.87
638.14	1642.47
638.33	1718.25
638.52	1708.01
638.71	1660.90
638.89	1730.53
639.08	1777.64
639.27	1669.09
639.46	1730.53
639.65	1871.84
639.84	1697.77
640.03	1722.34
640.22	1697.77
640.41	1832.93
640.60	1728.49
640.79	1714.15
640.98	1765.35
641.17	1828.84
641.36	1720.29
641.55	1755.11
641.74	1619.94
641.92	1693.67
642.11	1636.33
642.30	1673.19
642.49	1697.77
642.68	1679.33
642.87	1812.45
643.06	1708.01
643.25	1734.63
643.44	1662.95
643.63	1761.25
643.82	1730.53
644.00	1593.32
644.19	1732.58
644.38	1681.38
644.57	1767.40
644.76	1722.34
644.95	1675.24
645.14	1781.73
645.33	1734.63
645.52	1695.72
645.71	1642.47
645.89	1695.72
646.08	1734.63
646.27	1669.09
646.46	1841.12
646.65	1644.52
646.84	1744.87
647.03	1640.42
647.22	1779.68
647.40	1763.30
647.59	1734.63
647.78	1638.38
647.97	1677.29
648.16	1658.85
648.35	1855.46
648.54	1751.01
648.73	1724.39
648.91	1812.45
649.10	1769.44
649.29	1654.76
649.48	1732.58
649.67	1812.45
649.86	1759.21
650.05	1757.16
650.23	1736.68
650.42	1648.61
650.61	1730.53
650.80	1722.34
650.99	1810.40
651.18	1675.24
651.36	1757.16
651.55	1753.06
651.74	1787.88
651.93	1667.05
652.12	1685.48
652.31	1759.21
652.49	1708.01
652.68	1746.92
652.87	1802.21
653.06	1714.15
653.25	1888.23
653.44	1746.92
653.62	1800.16
653.81	1771.49
654.00	1710.05
654.19	1781.73
654.38	1898.47
654.56	1753.06
654.75	1722.34
654.94	1710.05
655.13	1777.64
655.32	1751.01
655.51	1834.98
655.69	1720.29
655.88	1812.45
656.07	1671.14
656.26	1726.44
656.45	1660.90
656.63	1705.96
656.82	1738.73
657.01	1826.79
657.20	1734.63
657.38	1765.35
657.57	1712.10
657.76	1556.46
657.95	1759.21
658.14	1636.33
658.32	1710.05
658.51	1658.85
658.70	1728.49
658.89	1726.44
659.08	1718.25
659.26	1826.79
659.45	1705.96
659.64	1796.07
659.83	1599.46
660.01	1908.71
660.20	1794.02
660.39	1806.31
660.58	1650.66
660.76	1744.87
660.95	1611.75
661.14	1744.87
661.33	1640.42
661.51	1671.14
661.70	1722.34
661.89	1687.53
662.08	1755.11
662.26	1675.24
662.45	1710.05
662.64	1849.32
662.83	1894.37
663.01	1591.27
663.20	1734.63
663.39	1773.54
663.58	1681.38
663.76	1751.01
663.95	1751.01
664.14	1722.34
664.32	1720.29
664.51	1708.01
664.70	1621.99
664.89	1679.33
665.07	1669.09
665.26	1726.44
665.45	1632.23
665.64	1806.31
665.82	1779.68
666.01	1820.64
666.20	1658.85
666.38	1802.21
666.57	1806.31
666.76	2224.09
666.95	4509.63
667.13	10217.32
667.32	15038.23
667.51	17743.60
667.69	18708.19
667.88	17084.16
668.07	12123.98
668.25	9340.79
668.44	7888.78
668.63	7280.53
668.81	6686.62
669.00	6066.08
669.19	5644.20
669.38	5089.20
669.56	4476.86
669.75	3977.16
669.94	3389.39
670.12	2914.26
670.31	2504.67
670.50	2252.77
670.68	2109.41
670.87	1927.14
671.06	1734.63
671.24	1806.31
671.43	1806.31
671.62	1746.92
671.80	1720.29
671.99	1708.01
672.18	1777.64
672.36	1798.12
672.55	1736.68
672.74	1716.20
672.92	1789.92
673.11	1783.78
673.29	1710.05
673.48	1767.40
673.67	1794.02
673.85	1808.36
674.04	1728.49
674.23	1708.01
674.41	1849.32
674.60	1644.52
674.79	1644.52
674.97	1640.42
675.16	1755.11
675.34	1812.45
675.53	1665.00
675.72	1746.92
675.90	1794.02
676.09	1728.49
676.28	1734.63
676.46	1617.90
676.65	1722.34
676.83	1628.14
677.02	1804.26
677.21	1634.28
677.39	1740.77
677.58	1648.61
677.77	1701.86
677.95	1746.92
678.14	1744.87
678.32	1732.58
678.51	1632.23
678.70	1849.32
678.88	1624.04
679.07	1763.30
679.25	1757.16
679.44	1757.16
679.63	1691.62
679.81	1818.60
680.00	1812.45
680.18	1734.63
680.37	1763.30
680.55	1689.57
680.74	1574.89
680.93	1638.38
681.11	1712.10
681.30	1687.53
681.48	1738.73
681.67	1726.44
681.85	1677.29
682.04	1718.25
682.23	1773.54
682.41	1726.44
682.60	1701.86
682.78	1665.00
682.97	1611.75
683.15	1751.01
683.34	1812.45
683.53	1806.31
683.71	1632.23
683.90	1767.40
684.08	1798.12
684.27	1757.16
684.45	1757.16
684.64	1746.92
684.82	1703.91
685.01	1773.54
685.19	1701.86
685.38	1748.97
685.57	1755.11
685.75	1595.37
685.94	1730.53
686.12	1681.38
686.31	1689.57
686.49	1820.64
686.68	1703.91
686.86	1734.63
687.05	1624.04
687.23	1845.22
687.42	1669.09
687.60	1638.38
687.79	1755.11
687.97	1832.93
688.16	1785.83
688.34	1800.16
688.53	1652.71
688.71	1652.71
688.90	1783.78
689.08	1703.91
689.27	1656.81
689.45	1710.05
689.64	1783.78
689.82	1738.73
690.01	1748.97
690.19	1794.02
690.38	1800.16
690.56	1787.88
690.75	1617.90
690.93	1656.81
691.12	1662.95
691.30	1720.29
691.49	1689.57
691.67	1820.64
691.86	1769.44
692.04	1648.61
692.23	1656.81
692.41	1701.86
692.60	1859.56
692.78	1687.53
692.97	1742.82
693.15	1779.68
693.34	1828.84
693.52	1800.16
693.71	1624.04
693.89	1673.19
694.08	1722.34
694.26	1765.35
694.44	1775.59
694.63	1785.83
694.81	1705.96
695.00	1621.99
695.18	1742.82
695.37	1882.08
695.55	1748.97
695.74	1650.66
695.92	1695.72
696.10	1751.01
696.29	1638.38
696.47	1720.29
696.66	1583.08
696.84	1607.66
697.03	1785.83
697.21	1820.64
697.40	2285.53
697.58	1820.64
697.76	1730.53
697.95	1611.75
698.13	1687.53
698.32	1718.25
698.50	1681.38
698.68	1757.16
698.87	1679.33
699.05	1808.36
699.24	1695.72
699.42	1726.44
699.61	1650.66
699.79	1734.63
699.97	1720.29
700.16	1691.62
700.34	1669.09
700.53	1781.73
700.71	1802.21
700.89	1775.59
701.08	1695.72
701.26	1771.49
701.45	2086.88
701.63	1636.33
701.81	1652.71
702.00	1632.23
702.18	1683.43
702.37	1703.91
702.55	1759.21
702.73	1716.20
702.92	1650.66
703.10	1730.53
703.28	1742.82
703.47	1689.57
703.65	1767.40
703.84	1779.68
704.02	1642.47
704.20	1796.07
704.39	1650.66
704.57	1710.05
704.75	1832.93
704.94	1761.25
705.12	1705.96
705.30	1826.79
705.49	2250.72
705.67	4382.65
705.86	9269.11
706.04	12361.54
706.22	14300.97
706.41	14948.12
706.59	13645.62
706.77	9287.54
706.96	7153.55
707.14	6457.25
707.32	5941.16
707.51	5525.42
707.69	4923.32
707.87	4169.66
708.06	3430.35
708.24	2955.22
708.42	2488.28
708.61	2260.96
708.79	1894.37
708.97	1845.22
709.16	1824.74
709.34	1767.40
709.52	1783.78
709.71	1730.53
709.89	1781.73
710.07	1736.68
710.26	1691.62
710.44	1718.25
710.62	1722.34
710.80	1736.68
710.99	1785.83
711.17	1667.05
711.35	1697.77
711.54	1697.77
711.72	1884.13
711.90	1748.97
712.09	1730.53
712.27	1734.63
712.45	1826.79
712.63	1697.77
712.82	1736.68
713.00	1767.40
713.18	1738.73
713.37	1712.10
713.55	1765.35
713.73	1781.73
713.91	1783.78
714.10	1724.39
714.28	1738.73
714.46	1714.15
714.65	1726.44
714.83	1665.00
715.01	1742.82
715.19	1644.52
715.38	1650.66
715.56	1753.06
715.74	1744.87
715.92	1712.10
716.11	1755.11
716.29	1611.75
716.47	1712.10
716.65	1761.25
716.84	1646.57
717.02	1796.07
717.20	1595.37
717.38	1718.25
717.57	1710.05
717.75	1767.40
717.93	1595.37
718.11	1751.01
718.30	1638.38
718.48	1746.92
718.66	1775.59
718.84	1763.30
719.03	1660.90
719.21	1652.71
719.39	1787.88
719.57	1761.25
719.75	1712.10
719.94	1681.38
720.12	1695.72
720.30	1767.40
720.48	1744.87
720.67	1697.77
720.85	1652.71
721.03	1675.24
721.21	1804.26
721.39	1796.07
721.58	1824.74
721.76	1628.14
721.94	1830.88
722.12	1757.16
722.30	1773.54
722.49	1708.01
722.67	1697.77
722.85	1734.63
723.03	1566.70
723.21	1689.57
723.40	1728.49
723.58	1791.97
723.76	1695.72
723.94	1736.68
724.12	1714.15
724.30	1791.97
724.49	1753.06
724.67	1675.24
724.85	1730.53
725.03	1583.08
725.21	1769.44
725.40	1796.07
725.58	1646.57
725.76	1773.54
725.94	1734.63
726.12	1708.01
726.30	1763.30
726.49	1695.72
726.67	1716.20
726.85	1611.75
727.03	1839.08
727.21	2220.00
727.39	2873.30
727.57	3768.26
727.76	4224.96
727.94	4462.52
728.12	4319.17
728.30	3585.99
728.48	2949.08
728.66	2811.86
728.84	2533.34
729.03	2277.34
729.21	2176.99
729.39	1970.15
729.57	1880.04
729.75	1830.88
729.93	1828.84
730.11	1677.29
730.30	1677.29
730.48	1818.60
730.66	1824.74
730.84	1757.16
731.02	1699.81
731.20	1705.96
731.38	1757.16
731.56	1710.05
731.74	1705.96
731.93	1746.92
732.11	1656.81
732.29	1640.42
732.47	1806.31
732.65	1767.40
732.83	1834.98
733.01	1798.12
733.19	1687.53
733.37	1748.97
733.56	1753.06
733.74	1751.01
733.92	1839.08
734.10	1708.01
734.28	1755.11
734.46	1648.61
734.64	1662.95
734.82	1730.53
735.00	1716.20
735.18	1675.24
735.36	1714.15
735.54	1650.66
735.73	1787.88
735.91	1632.23
736.09	1726.44
736.27	1726.44
736.45	1771.49
736.63	1669.09
736.81	1697.77
736.99	1771.49
737.17	1755.11
737.35	1705.96
737.53	1738.73
737.71	1609.70
737.89	1802.21
738.07	1669.09
738.25	1617.90
738.43	1658.85
738.61	1738.73
738.80	1693.67
738.98	1685.48
739.16	1650.66
739.34	1667.05
739.52	1824.74
739.70	1757.16
739.88	1775.59
740.06	1763.30
740.24	1650.66
740.42	1832.93
740.60	1648.61
740.78	1673.19
740.96	1681.38
741.14	1689.57
741.32	1697.77
741.50	1654.76
741.68	1798.12
741.86	1781.73
742.04	1669.09
742.22	1669.09
742.40	1738.73
742.58	1753.06
742.76	1763.30
742.94	1765.35
743.12	1597.42
743.30	1646.57
743.48	1716.20
743.66	1689.57
743.84	1783.78
744.02	1693.67
744.20	1724.39
744.38	1640.42
744.56	1697.77
744.74	1814.50
744.92	1748.97
745.10	1822.69
745.28	1812.45
745.46	1890.28
745.64	1640.42
745.82	1779.68
746.00	1781.73
746.18	1767.40
746.36	1605.61
746.54	1732.58
746.72	1667.05
746.90	1736.68
747.08	1757.16
747.26	1763.30
747.44	1738.73
747.62	1787.88
747.80	1685.48
747.98	1691.62
748.15	1730.53
748.33	1808.36
748.51	1722.34
748.69	1677.29
748.87	1667.05
749.05	1656.81
749.23	1681.38
749.41	1785.83
749.59	1681.38
749.77	1738.73
749.95	1720.29
750.13	1658.85
750.31	1736.68
750.49	1703.91
750.67	1775.59
750.85	1822.69
751.03	1720.29
751.20	1851.36
751.38	1724.39
751.56	1699.81
751.74	1710.05
751.92	1699.81
752.10	1667.05
752.28	1802.21
752.46	1705.96
752.64	1669.09
752.82	1677.29
753.00	1763.30
753.18	1689.57
753.35	1683.43
753.53	1742.82
753.71	1726.44
753.89	1673.19
754.07	1695.72
754.25	1777.64
754.43	1746.92
754.61	1624.04
754.79	1734.63
754.97	1650.66
755.14	1818.60
755.32	1640.42
755.50	1755.11
755.68	1718.25
755.86	1656.81
756.04	1718.25
756.22	1654.76
756.40	1732.58
756.57	1812.45
756.75	1712.10
756.93	1753.06
757.11	1763.30
757.29	1644.52
757.47	1650.66
757.65	1638.38
757.82	1673.19
758.00	1595.37
758.18	1699.81
758.36	1626.09
758.54	1861.60
758.72	1615.85
758.90	1753.06
759.07	1751.01
759.25	1683.43
759.43	1724.39
759.61	1628.14
759.79	2156.51
759.97	1716.20
760.15	1789.92
760.32	1658.85
760.50	1728.49
760.68	1816.55
760.86	1632.23
761.04	1726.44
761.22	1804.26
761.39	1738.73
761.57	1763.30
761.75	1796.07
761.93	1779.68
762.11	1617.90
762.28	1732.58
762.46	1708.01
762.64	1841.12
762.82	1689.57
763.00	1742.82
763.18	1791.97
763.35	1650.66
763.53	1736.68
763.71	1673.19
763.89	1681.38
764.07	1705.96
764.24	1714.15
764.42	1796.07
764.60	1677.29
764.78	1779.68
764.96	1791.97
765.13	1837.03
765.31	1755.11
765.49	1753.06
765.67	1740.77
765.84	1626.09
766.02	1693.67
766.20	1595.37
766.38	1798.12
766.56	1705.96
766.73	1720.29
766.91	1712.10
767.09	1714.15
767.27	1685.48
767.44	1705.96
767.62	1751.01
767.80	1718.25
767.98	1730.53
768.15	1726.44
768.33	1736.68
768.51	1738.73
768.69	1789.92
768.87	1685.48
769.04	1673.19
769.22	1882.08
769.40	1849.32
769.58	1773.54
769.75	1777.64
769.93	1716.20
770.11	1716.20
770.28	1710.05
770.46	1771.49
770.64	1757.16
770.82	1683.43
770.99	1699.81
771.17	1742.82
771.35	1740.77
771.53	1714.15
771.70	1652.71
771.88	1777.64
772.06	1738.73
772.23	1724.39
772.41	1781.73
772.59	1718.25
772.77	1591.27
772.94	1726.44
773.12	1755.11
773.30	1806.31
773.47	1757.16
773.65	1681.38
773.83	1728.49
774.01	1677.29
774.18	1597.42
774.36	1781.73
774.54	1751.01
774.71	1736.68
774.89	1699.81
775.07	1681.38
775.24	1658.85
775.42	1675.24
775.60	1871.84
775.78	1652.71
775.95	1613.80
776.13	1648.61
776.31	1619.94
776.48	1791.97
776.66	1812.45
776.84	1710.05
777.01	1613.80
777.19	1611.75
777.37	1699.81
777.54	1767.40
777.72	1783.78
777.90	1720.29
778.07	1697.77
778.25	1961.95
778.43	1765.35
778.60	1728.49
778.78	1761.25
778.96	1824.74
779.13	1730.53
779.31	1697.77
779.49	1640.42
779.66	1716.20
779.84	1667.05
780.01	1740.77
780.19	1656.81
780.37	1662.95
780.54	1740.77
780.72	1744.87
780.90	1669.09
781.07	1708.01
781.25	1683.43
781.43	1783.78
781.60	1748.97
781.78	1755.11
781.95	1718.25
782.13	1683.43
782.31	1718.25
782.48	1662.95
782.66	1570.79
782.83	1798.12
783.01	1718.25
783.19	1802.21
783.36	1710.05
783.54	1679.33
783.72	1716.20
783.89	1685.48
784.07	1628.14
784.24	1701.86
784.42	1820.64
784.60	1646.57
784.77	1761.25
784.95	1556.46
785.12	1685.48
785.30	1728.49
785.47	1740.77
785.65	1624.04
785.83	1640.42
786.00	1716.20
786.18	1652.71
786.35	1626.09
786.53	1685.48
786.71	1757.16
786.88	1757.16
787.06	1763.30
787.23	1626.09
787.41	1677.29
787.58	1738.73
787.76	1669.09
787.94	1667.05
788.11	1748.97
788.29	1691.62
788.46	1740.77
788.64	1613.80
788.81	1624.04
788.99	1736.68
789.16	1617.90
789.34	1716.20
789.52	1650.66
789.69	1685.48
789.87	1673.19
790.04	1705.96
790.22	1652.71
790.39	1830.88
790.57	1646.57
790.74	1695.72
790.92	1734.63
791.09	1607.66
791.27	1734.63
791.44	1796.07
791.62	1738.73
791.79	1837.03
791.97	1695.72
792.15	1873.89
792.32	1812.45
792.50	1734.63
792.67	1789.92
792.85	1867.75
793.02	1732.58
793.20	1701.86
793.37	1728.49
793.55	1699.81
793.72	1599.46
793.90	1781.73
794.07	1658.85
794.25	1716.20
794.42	1753.06
794.60	1708.01
794.77	1703.91
794.95	1787.88
795.12	1742.82
795.30	1689.57
795.47	1656.81
795.65	1943.52
795.82	1652.71
796.00	1693.67
796.17	1718.25
796.34	1687.53
796.52	1769.44
796.69	1800.16
796.87	1722.34
797.04	1763.30
797.22	1763.30
797.39	1742.82
797.57	1703.91
797.74	1796.07
797.92	1710.05
798.09	1744.87
798.27	1785.83
798.44	1693.67
798.62	1626.09
798.79	1753.06
798.96	1736.68
799.14	1662.95
799.31	1943.52
799.49	1636.33
799.66	1591.27
799.84	1726.44
800.01	1619.94
800.19	1695.72
800.36	1650.66
800.53	1720.29
800.71	1703.91
800.88	1832.93
801.06	1697.77
801.23	1650.66
801.41	1667.05
801.58	1710.05
801.75	1703.91
801.93	1728.49
802.10	1716.20
802.28	1673.19
802.45	1656.81
802.63	1744.87
802.80	1751.01
802.97	1691.62
803.15	1675.24
803.32	1679.33
803.50	1660.90
803.67	1673.19
803.84	1660.90
804.02	1757.16
804.19	1652.71
804.37	1558.50
804.54	1607.66
804.71	1632.23
804.89	1742.82
805.06	1701.86
805.24	1636.33
805.41	1681.38
805.58	1656.81
805.76	1837.03
805.93	1662.95
806.10	1808.36
806.28	1759.21
806.45	1765.35
806.63	1660.90
806.80	1697.77
806.97	1701.86
807.15	1771.49
807.32	1777.64
807.49	1724.39
807.67	1667.05
807.84	1738.73
808.01	1591.27
808.19	1839.08
808.36	1894.37
808.54	1656.81
808.71	1691.62
808.88	1722.34
809.06	1781.73
809.23	1845.22
809.40	1644.52
809.58	1808.36
809.75	1683.43
809.92	1636.33
810.10	1820.64
810.27	1718.25
810.44	1730.53
810.62	1779.68
810.79	1718.25
810.96	1642.47
811.14	1654.76
811.31	1779.68
811.48	1703.91
811.66	1697.77
811.83	1816.55
812.00	1695.72
812.18	1783.78
812.35	1804.26
812.52	1773.54
812.69	1710.05
812.87	1716.20
813.04	1630.18
813.21	1703.91
813.39	1695.72
813.56	1656.81
813.73	1765.35
813.91	1669.09
814.08	1744.87
814.25	1705.96
814.42	1675.24
814.60	1697.77
814.77	1683.43
814.94	1665.00
815.12	1755.11
815.29	1724.39
815.46	1626.09
815.63	1742.82
815.81	1728.49
815.98	1640.42
816.15	1730.53
816.33	1757.16
816.50	1574.89
816.67	1679.33
816.84	1728.49
817.02	1652.71
817.19	1697.77
817.36	1701.86
817.53	1748.97
817.71	1669.09
817.88	1697.77
818.05	1708.01
818.22	1665.00
818.40	1859.56
818.57	1701.86
818.74	1705.96
818.91	1658.85
819.09	1779.68
819.26	1779.68
819.43	1621.99
819.60	1699.81
819.78	1732.58
819.95	1834.98
820.12	1710.05
820.29	1787.88
820.47	1773.54
820.64	1658.85
820.81	1632.23
820.98	1605.61
821.15	1693.67
821.33	1798.12
821.50	1615.85
821.67	1814.50
821.84	1712.10
822.02	1703.91
822.19	1722.34
822.36	1701.86
822.53	1685.48
822.70	1630.18
822.88	1730.53
823.05	1839.08
823.22	1701.86
823.39	1734.63
823.56	1689.57
823.74	1724.39
823.91	1669.09
824.08	1650.66
824.25	1689.57
824.42	1738.73
824.60	1638.38
824.77	1730.53
824.94	1703.91
825.11	1767.40
825.28	1624.04
825.45	1757.16
825.63	1705.96
825.80	1738.73
825.97	1740.77
826.14	1669.09
826.31	1662.95
826.48	1654.76
826.66	1681.38
826.83	1734.63
827.00	1744.87
827.17	1640.42
827.34	1693.67
827.51	1689.57
827.69	1757.16
827.86	1578.98
828.03	1648.61
828.20	1699.81
828.37	1662.95
828.54	1726.44
828.71	1607.66
828.89	1814.50
829.06	1740.77
829.23	1804.26
829.40	1681.38
829.57	1716.20
829.74	1767.40
829.91	1640.42
830.09	1687.53
830.26	1738.73
830.43	1808.36
830.60	1683.43
830.77	1718.25
830.94	1802.21
831.11	1765.35
831.28	1746.92
831.46	1744.87
831.63	1632.23
831.80	1748.97
831.97	1677.29
832.14	1654.76
832.31	1689.57
832.48	1759.21
832.65	1806.31
832.82	1695.72
832.99	1728.49
833.17	1660.90
833.34	1824.74
833.51	1726.44
833.68	1591.27
833.85	1796.07
834.02	1701.86
834.19	1712.10
834.36	1660.90
834.53	1673.19
834.70	1722.34
834.87	1806.31
835.04	1689.57
835.22	1744.87
835.39	1738.73
835.56	1589.22
835.73	1738.73
835.90	1748.97
836.07	1665.00
836.24	1677.29
836.41	1714.15
836.58	1671.14
836.75	1712.10
836.92	1769.44
837.09	1665.00
837.26	1732.58
837.43	1742.82
837.60	1738.73
837.77	1621.99
837.94	1812.45
838.12	1832.93
838.29	1763.30
838.46	1628.14
838.63	1646.57
838.80	1773.54
838.97	1763.30
839.14	1787.88
839.31	1757.16
839.48	1771.49
839.65	1689.57
839.82	1716.20
839.99	1671.14
840.16	1677.29
840.33	1710.05
840.50	1708.01
840.67	1621.99
840.84	1574.89
841.01	1705.96
841.18	1775.59
841.35	1677.29
841.52	1748.97
841.69	1775.59
841.86	1753.06
842.03	1710.05
842.20	1748.97
842.37	1708.01
842.54	1671.14
842.71	1710.05
842.88	1667.05
843.05	1804.26
843.22	1675.24
843.39	1877.99
843.56	1652.71
843.73	1755.11
843.90	1701.86
844.07	1744.87
844.24	1800.16
844.41	1746.92
844.58	1658.85
844.75	1732.58
844.92	1753.06
845.09	1654.76
845.26	1634.28
845.43	1751.01
845.60	1699.81
845.77	1775.59
845.94	1695.72
846.10	1794.02
846.27	1681.38
846.44	1708.01
846.61	1685.48
846.78	1755.11
846.95	1728.49
847.12	1681.38
847.29	1720.29
847.46	1603.56
847.63	1746.92
847.80	1650.66
847.97	1658.85
848.14	1816.55
848.31	1665.00
848.48	1640.42
848.65	1667.05
848.82	1724.39
848.98	1826.79
849.15	1685.48
849.32	1769.44
849.49	1767.40
849.66	1656.81
849.83	1679.33
850.00	1675.24
850.17	1728.49
850.34	1718.25
850.51	1718.25
850.68	1621.99
850.85	1863.65
851.01	1746.92
851.18	1736.68
851.35	1656.81
851.52	1775.59
851.69	1785.83
851.86	1632.23
852.03	1697.77
852.20	1757.16
852.37	1716.20
852.53	1636.33
852.70	1728.49
852.87	1640.42
853.04	1755.11
853.21	1695.72
853.38	1806.31
853.55	1691.62
853.72	1800.16
853.89	1710.05
854.05	1660.90
854.22	1767.40
854.39	1650.66
854.56	1740.77
854.73	1748.97
854.90	1675.24
855.07	1648.61
855.23	1705.96
855.40	1728.49
855.57	1720.29
855.74	1544.17
855.91	1847.27
856.08	1581.03
856.25	1646.57
856.41	1679.33
856.58	1605.61
856.75	1757.16
856.92	1593.32
857.09	1763.30
857.26	1646.57
857.42	1730.53
857.59	1748.97
857.76	1804.26
857.93	1677.29
858.10	1769.44
858.27	1624.04
858.43	1773.54
858.60	1681.38
858.77	1626.09
858.94	1705.96
859.11	1738.73
859.27	1703.91
859.44	1699.81
859.61	1849.32
859.78	1771.49
859.95	1665.00
860.12	1634.28
860.28	1738.73
860.45	1794.02
860.62	1689.57
860.79	1716.20
860.95	1710.05
861.12	1667.05
861.29	1722.34
861.46	1611.75
861.63	1677.29
861.79	1771.49
861.96	1701.86
862.13	1683.43
862.30	1855.46
862.47	1734.63
862.63	1609.70
862.80	1761.25
862.97	1726.44
863.14	1695.72
863.30	1781.73
863.47	1708.01
863.64	1751.01
863.81	1697.77
863.97	1730.53
864.14	1697.77
864.31	1660.90
864.48	1708.01
864.65	1685.48
864.81	1804.26
864.98	1785.83
865.15	1724.39
865.32	1783.78
865.48	1820.64
865.65	1791.97
865.82	1654.76
865.98	1740.77
866.15	1757.16
866.32	1669.09
866.49	1701.86
866.65	1746.92
866.82	1665.00
866.99	1744.87
867.16	1683.43
867.32	1681.38
867.49	1753.06
867.66	1714.15
867.83	1730.53
867.99	1652.71
868.16	1673.19
868.33	1658.85
868.49	1716.20
868.66	1634.28
868.83	1724.39
868.99	1757.16
869.16	1759.21
869.33	1748.97
869.50	1744.87
869.66	1724.39
869.83	1658.85
870.00	1644.52
870.16	1746.92
870.33	1802.21
870.50	1755.11
870.66	1677.29
870.83	1832.93
871.00	1621.99
871.17	1708.01
871.33	1669.09
871.50	1746.92
871.67	1710.05
871.83	1665.00
872.00	1763.30
872.17	1640.42
872.33	1742.82
872.50	1726.44
872.67	1796.07
872.83	1656.81
873.00	1800.16
873.17	1783.78
873.33	1730.53
873.50	1705.96
873.67	1720.29
873.83	1673.19
874.00	1689.57
874.16	1777.64
874.33	1667.05
874.50	1638.38
874.66	1751.01
874.83	1769.44
875.00	1751.01
875.16	1781.73
875.33	1863.65
875.50	1540.07
875.66	1648.61
875.83	1675.24
875.99	1685.48
876.16	1695.72
876.33	1677.29
876.49	1742.82
876.66	1732.58
876.83	1646.57
876.99	1644.52
877.16	1705.96
877.32	1796.07
877.49	1650.66
877.66	1699.81
877.82	1759.21
877.99	1759.21
878.15	1769.44
878.32	1705.96
878.49	1734.63
878.65	1642.47
878.82	1896.42
878.98	1710.05
879.15	1738.73
879.32	1796.07
879.48	1669.09
879.65	1650.66
879.81	1734.63
879.98	1697.77
880.15	1701.86
880.31	1730.53
880.48	1712.10
880.64	1769.44
880.81	1732.58
880.97	1820.64
881.14	1746.92
881.31	1724.39
881.47	1859.56
881.64	1710.05
881.80	1624.04
881.97	1722.34
882.13	1779.68
882.30	1607.66
882.47	1730.53
882.63	1738.73
882.80	1667.05
882.96	1681.38
883.13	1724.39
883.29	1738.73
883.46	1699.81
883.62	1822.69
883.79	1697.77
883.95	1767.40
884.12	1693.67
884.29	1759.21
884.45	1716.20
884.62	1744.87
884.78	1683.43
884.95	1712.10
885.11	1687.53
885.28	1669.09
885.44	1628.14
885.61	1755.11
885.77	1873.89
885.94	1791.97
886.10	1736.68
886.27	1667.05
886.43	1785.83
886.60	1761.25
886.76	1697.77
886.93	1669.09
887.09	1691.62
887.26	1665.00
887.42	1761.25
887.59	1710.05
887.75	1918.95
887.92	1828.84
888.08	1738.73
888.25	1882.08
888.41	1863.65
888.58	1697.77
888.74	1626.09
888.91	1632.23
>>>>>End Processed Spectral Data<<<<<
