SpectraSuite Data File
++++++++++++++++++++++++++++++++++++
Date: Mon Jun 06 15:18:17 CEST 2016
User: root
Dark Spectrum Present: No
Reference Spectrum Present: No
Number of Sampled Component Spectra: 1
Spectrometers: USB4C02835
Integration Time (usec): 100000 (USB4C02835)
Spectra Averaged: 1 (USB4C02835)
Boxcar Smoothing: 0 (USB4C02835)
Correct for Electrical Dark: No (USB4C02835)
Strobe/Lamp Enabled: No (USB4C02835)
Correct for Detector Non-linearity: No (USB4C02835)
Correct for Stray Light: No (USB4C02835)
Number of Pixels in Processed Spectrum: 3648
>>>>>Begin Processed Spectral Data<<<<<
177.47	1470.44
177.69	1470.44
177.91	1470.44
178.13	1486.83
178.36	1441.77
178.58	1628.14
178.80	1675.24
179.02	1714.15
179.24	1671.14
179.46	1722.34
179.68	1796.07
179.90	1689.57
180.13	1718.25
180.35	1699.81
180.57	1701.86
180.79	1726.44
181.01	1732.58
181.23	1808.36
181.45	1734.63
181.67	1755.11
181.90	1685.48
182.12	1671.14
182.34	1626.09
182.56	1685.48
182.78	1691.62
183.00	1701.86
183.22	1714.15
183.44	1662.95
183.66	1843.17
183.89	1722.34
184.11	1658.85
184.33	1730.53
184.55	1791.97
184.77	1722.34
184.99	1726.44
185.21	1685.48
185.43	1765.35
185.65	1619.94
185.87	1767.40
186.10	1816.55
186.32	1914.85
186.54	1753.06
186.76	1746.92
186.98	1732.58
187.20	1679.33
187.42	1660.90
187.64	1685.48
187.86	1804.26
188.08	1789.92
188.30	1675.24
188.52	1712.10
188.75	1796.07
188.97	1744.87
189.19	1681.38
189.41	1757.16
189.63	1761.25
189.85	1748.97
190.07	1611.75
190.29	1662.95
190.51	1808.36
190.73	1667.05
190.95	1736.68
191.17	1736.68
191.39	1603.56
191.61	1673.19
191.84	1697.77
192.06	1705.96
192.28	1591.27
192.50	1796.07
192.72	1708.01
192.94	1728.49
193.16	1785.83
193.38	1701.86
193.60	1650.66
193.82	1652.71
194.04	1763.30
194.26	1642.47
194.48	1722.34
194.70	1724.39
194.92	1689.57
195.14	1697.77
195.36	1669.09
195.58	1722.34
195.80	1695.72
196.02	1644.52
196.24	1703.91
196.46	1744.87
196.69	1751.01
196.91	1945.57
197.13	1759.21
197.35	1638.38
197.57	1816.55
197.79	1732.58
198.01	1671.14
198.23	1642.47
198.45	1691.62
198.67	1632.23
198.89	1712.10
199.11	1755.11
199.33	1599.46
199.55	1587.18
199.77	1708.01
199.99	1732.58
200.21	1667.05
200.43	1742.82
200.65	1636.33
200.87	1515.50
201.09	1744.87
201.31	1667.05
201.53	1695.72
201.75	1734.63
201.97	1660.90
202.19	1632.23
202.41	1662.95
202.63	1796.07
202.85	1738.73
203.07	1695.72
203.29	1730.53
203.51	1607.66
203.73	1640.42
203.95	1832.93
204.17	1687.53
204.39	1732.58
204.61	1720.29
204.83	1714.15
205.05	1740.77
205.27	1728.49
205.49	1837.03
205.71	1718.25
205.93	1636.33
206.15	1695.72
206.37	1769.44
206.59	1705.96
206.81	1640.42
207.03	1708.01
207.25	1669.09
207.47	1693.67
207.69	1638.38
207.91	1751.01
208.13	1855.46
208.34	1650.66
208.56	1685.48
208.78	1753.06
209.00	1697.77
209.22	1689.57
209.44	1710.05
209.66	1738.73
209.88	1685.48
210.10	1699.81
210.32	1595.37
210.54	1796.07
210.76	1761.25
210.98	1816.55
211.20	1605.61
211.42	1662.95
211.64	1810.40
211.86	1802.21
212.08	1759.21
212.30	1753.06
212.52	1634.28
212.74	1720.29
212.96	1685.48
213.17	1742.82
213.39	1732.58
213.61	1796.07
213.83	1740.77
214.05	1712.10
214.27	1769.44
214.49	1677.29
214.71	1654.76
214.93	1671.14
215.15	1699.81
215.37	1761.25
215.59	1591.27
215.81	1724.39
216.03	1765.35
216.24	1732.58
216.46	1673.19
216.68	1697.77
216.90	1738.73
217.12	1787.88
217.34	1705.96
217.56	1753.06
217.78	1775.59
218.00	1794.02
218.22	1714.15
218.44	1751.01
218.66	1714.15
218.87	1736.68
219.09	1708.01
219.31	1787.88
219.53	1714.15
219.75	1695.72
219.97	1689.57
220.19	1712.10
220.41	1638.38
220.63	1802.21
220.85	1740.77
221.06	1656.81
221.28	1775.59
221.50	1800.16
221.72	1708.01
221.94	1728.49
222.16	1695.72
222.38	1798.12
222.60	1673.19
222.82	1697.77
223.03	1740.77
223.25	1640.42
223.47	1718.25
223.69	1859.56
223.91	1742.82
224.13	1683.43
224.35	1685.48
224.57	1759.21
224.78	1798.12
225.00	1570.79
225.22	1667.05
225.44	1744.87
225.66	1714.15
225.88	1705.96
226.10	1800.16
226.32	1730.53
226.53	1804.26
226.75	1703.91
226.97	1695.72
227.19	1714.15
227.41	1716.20
227.63	1648.61
227.85	1689.57
228.06	1634.28
228.28	1763.30
228.50	1783.78
228.72	1656.81
228.94	1738.73
229.16	1634.28
229.37	1611.75
229.59	1609.70
229.81	1830.88
230.03	1677.29
230.25	1624.04
230.47	1550.31
230.69	1650.66
230.90	1783.78
231.12	1652.71
231.34	1791.97
231.56	1791.97
231.78	1624.04
232.00	1722.34
232.21	1693.67
232.43	1665.00
232.65	1630.18
232.87	1751.01
233.09	1630.18
233.30	1714.15
233.52	1775.59
233.74	1712.10
233.96	1714.15
234.18	1720.29
234.40	1705.96
234.61	1757.16
234.83	1593.32
235.05	1677.29
235.27	1867.75
235.49	1841.12
235.70	1703.91
235.92	1748.97
236.14	1658.85
236.36	1826.79
236.58	1699.81
236.79	1738.73
237.01	1710.05
237.23	1654.76
237.45	1837.03
237.67	1662.95
237.88	1681.38
238.10	1804.26
238.32	1728.49
238.54	1669.09
238.76	1759.21
238.97	1632.23
239.19	1708.01
239.41	1771.49
239.63	1787.88
239.85	1673.19
240.06	1679.33
240.28	1667.05
240.50	1738.73
240.72	1697.77
240.93	1705.96
241.15	1886.18
241.37	1683.43
241.59	1810.40
241.81	1705.96
242.02	1675.24
242.24	1738.73
242.46	1710.05
242.68	1693.67
242.89	1658.85
243.11	1740.77
243.33	1722.34
243.55	1722.34
243.76	1746.92
243.98	1658.85
244.20	1722.34
244.42	1726.44
244.64	1677.29
244.85	1644.52
245.07	1730.53
245.29	1740.77
245.51	1654.76
245.72	1718.25
245.94	1753.06
246.16	1730.53
246.38	1656.81
246.59	1730.53
246.81	1687.53
247.03	1683.43
247.24	1665.00
247.46	1753.06
247.68	1751.01
247.90	1691.62
248.11	1665.00
248.33	1699.81
248.55	1796.07
248.77	1712.10
248.98	1847.27
249.20	1761.25
249.42	1771.49
249.64	1757.16
249.85	1683.43
250.07	1646.57
250.29	1730.53
250.50	1728.49
250.72	1642.47
250.94	1695.72
251.16	1812.45
251.37	1742.82
251.59	1783.78
251.81	1646.57
252.02	1757.16
252.24	1685.48
252.46	1828.84
252.68	1626.09
252.89	1755.11
253.11	1630.18
253.33	1783.78
253.54	1828.84
253.76	1665.00
253.98	1677.29
254.20	1679.33
254.41	1708.01
254.63	1781.73
254.85	1658.85
255.06	1673.19
255.28	1718.25
255.50	1728.49
255.71	1589.22
255.93	1732.58
256.15	1726.44
256.36	1650.66
256.58	1712.10
256.80	1730.53
257.02	1697.77
257.23	1656.81
257.45	1591.27
257.67	1714.15
257.88	1669.09
258.10	1771.49
258.32	1716.20
258.53	1691.62
258.75	1824.74
258.97	1689.57
259.18	1646.57
259.40	1708.01
259.62	1824.74
259.83	1800.16
260.05	1699.81
260.27	1937.38
260.48	1755.11
260.70	1642.47
260.92	1720.29
261.13	1740.77
261.35	1726.44
261.57	1677.29
261.78	1630.18
262.00	1578.98
262.22	1777.64
262.43	1693.67
262.65	1718.25
262.86	1699.81
263.08	1826.79
263.30	1761.25
263.51	1697.77
263.73	1656.81
263.95	1773.54
264.16	1671.14
264.38	1669.09
264.60	1744.87
264.81	1697.77
265.03	1746.92
265.25	1720.29
265.46	1650.66
265.68	1742.82
265.89	1740.77
266.11	1693.67
266.33	1826.79
266.54	1767.40
266.76	1755.11
266.98	1693.67
267.19	1753.06
267.41	1791.97
267.62	1773.54
267.84	1648.61
268.06	1777.64
268.27	1759.21
268.49	1810.40
268.70	1769.44
268.92	1701.86
269.14	1687.53
269.35	1642.47
269.57	1738.73
269.79	1787.88
270.00	1705.96
270.22	1775.59
270.43	1638.38
270.65	1636.33
270.87	1699.81
271.08	1759.21
271.30	1708.01
271.51	1652.71
271.73	1667.05
271.95	1751.01
272.16	1787.88
272.38	1728.49
272.59	1763.30
272.81	1787.88
273.02	1765.35
273.24	1753.06
273.46	1734.63
273.67	1693.67
273.89	1656.81
274.10	1644.52
274.32	1726.44
274.54	1771.49
274.75	1730.53
274.97	1673.19
275.18	1751.01
275.40	1662.95
275.61	1654.76
275.83	1691.62
276.05	1687.53
276.26	1636.33
276.48	1695.72
276.69	1722.34
276.91	1695.72
277.12	1843.17
277.34	1808.36
277.55	1781.73
277.77	1675.24
277.99	1601.51
278.20	1634.28
278.42	1671.14
278.63	1689.57
278.85	1640.42
279.06	1677.29
279.28	1761.25
279.49	1722.34
279.71	1804.26
279.93	1730.53
280.14	1714.15
280.36	1740.77
280.57	1673.19
280.79	1806.31
281.00	1632.23
281.22	1665.00
281.43	1802.21
281.65	1617.90
281.86	1617.90
282.08	1849.32
282.29	1806.31
282.51	1675.24
282.73	1617.90
282.94	1658.85
283.16	1791.97
283.37	1779.68
283.59	1699.81
283.80	1777.64
284.02	1681.38
284.23	1644.52
284.45	1691.62
284.66	1693.67
284.88	1726.44
285.09	1662.95
285.31	1796.07
285.52	1740.77
285.74	1636.33
285.95	1828.84
286.17	1791.97
286.38	1763.30
286.60	1691.62
286.81	1662.95
287.03	1705.96
287.24	1718.25
287.46	1718.25
287.67	1726.44
287.89	1894.37
288.10	1742.82
288.32	1777.64
288.53	1884.13
288.75	1724.39
288.96	1732.58
289.18	1763.30
289.39	1767.40
289.61	1740.77
289.82	1804.26
290.04	1902.56
290.25	1685.48
290.47	1773.54
290.68	1722.34
290.90	1837.03
291.11	1626.09
291.33	1798.12
291.54	1572.84
291.76	1675.24
291.97	1716.20
292.18	1736.68
292.40	1683.43
292.61	1703.91
292.83	1896.42
293.04	1730.53
293.26	1734.63
293.47	1683.43
293.69	1591.27
293.90	1613.80
294.12	1716.20
294.33	1683.43
294.55	1671.14
294.76	1791.97
294.97	1681.38
295.19	1761.25
295.40	1679.33
295.62	1763.30
295.83	1759.21
296.05	1617.90
296.26	1775.59
296.48	1673.19
296.69	1742.82
296.90	1699.81
297.12	1677.29
297.33	1726.44
297.55	1705.96
297.76	1724.39
297.98	1720.29
298.19	1705.96
298.41	1730.53
298.62	1697.77
298.83	1814.50
299.05	1675.24
299.26	1769.44
299.48	1665.00
299.69	1722.34
299.90	1738.73
300.12	1619.94
300.33	1708.01
300.55	1730.53
300.76	1751.01
300.98	1660.90
301.19	1757.16
301.40	1677.29
301.62	1755.11
301.83	1759.21
302.05	1710.05
302.26	1648.61
302.47	1642.47
302.69	1667.05
302.90	1798.12
303.12	1538.02
303.33	1667.05
303.54	1777.64
303.76	1652.71
303.97	1714.15
304.19	1812.45
304.40	1671.14
304.61	1728.49
304.83	1802.21
305.04	1722.34
305.26	1697.77
305.47	1671.14
305.68	1726.44
305.90	1665.00
306.11	1712.10
306.33	1646.57
306.54	1789.92
306.75	1628.14
306.97	1648.61
307.18	1617.90
307.39	1685.48
307.61	1742.82
307.82	1697.77
308.04	1652.71
308.25	1701.86
308.46	1748.97
308.68	1755.11
308.89	1689.57
309.10	1791.97
309.32	1660.90
309.53	1687.53
309.74	1751.01
309.96	1746.92
310.17	1802.21
310.39	1609.70
310.60	1791.97
310.81	1769.44
311.03	1679.33
311.24	1757.16
311.45	1667.05
311.67	1785.83
311.88	1689.57
312.09	1687.53
312.31	1683.43
312.52	1769.44
312.73	1730.53
312.95	1617.90
313.16	1634.28
313.37	1841.12
313.59	1675.24
313.80	1681.38
314.01	1757.16
314.23	1757.16
314.44	1703.91
314.65	1656.81
314.87	1675.24
315.08	1630.18
315.29	1679.33
315.51	1656.81
315.72	1701.86
315.93	1812.45
316.15	1740.77
316.36	1642.47
316.57	1693.67
316.79	1757.16
317.00	1691.62
317.21	1777.64
317.43	1718.25
317.64	1675.24
317.85	1636.33
318.07	1705.96
318.28	1734.63
318.49	1757.16
318.70	1990.63
318.92	1849.32
319.13	1871.84
319.34	1861.60
319.56	1798.12
319.77	1814.50
319.98	1828.84
320.20	1744.87
320.41	1765.35
320.62	1755.11
320.83	1660.90
321.05	1882.08
321.26	1761.25
321.47	1705.96
321.69	1746.92
321.90	1662.95
322.11	1646.57
322.32	1693.67
322.54	1701.86
322.75	1751.01
322.96	1853.41
323.18	1636.33
323.39	1636.33
323.60	1679.33
323.81	1714.15
324.03	1624.04
324.24	1667.05
324.45	1771.49
324.66	1628.14
324.88	1732.58
325.09	1697.77
325.30	1681.38
325.52	1726.44
325.73	1728.49
325.94	1742.82
326.15	1617.90
326.37	1714.15
326.58	1753.06
326.79	1820.64
327.00	1689.57
327.22	1677.29
327.43	1648.61
327.64	1701.86
327.85	1820.64
328.07	1689.57
328.28	1767.40
328.49	1644.52
328.70	1714.15
328.92	1759.21
329.13	1779.68
329.34	1765.35
329.55	1810.40
329.76	1697.77
329.98	1695.72
330.19	1820.64
330.40	1726.44
330.61	1732.58
330.83	1703.91
331.04	1603.56
331.25	1771.49
331.46	1703.91
331.68	1617.90
331.89	1789.92
332.10	1675.24
332.31	1675.24
332.52	1693.67
332.74	1757.16
332.95	1621.99
333.16	1634.28
333.37	1734.63
333.58	1705.96
333.80	1740.77
334.01	1634.28
334.22	1718.25
334.43	1656.81
334.64	1689.57
334.86	1679.33
335.07	1744.87
335.28	1804.26
335.49	1611.75
335.70	1679.33
335.92	1880.04
336.13	1742.82
336.34	1718.25
336.55	1716.20
336.76	1656.81
336.98	1644.52
337.19	1695.72
337.40	1763.30
337.61	1828.84
337.82	1703.91
338.04	1806.31
338.25	1677.29
338.46	1671.14
338.67	1738.73
338.88	1601.51
339.09	1572.84
339.31	1669.09
339.52	1619.94
339.73	1638.38
339.94	1722.34
340.15	1734.63
340.36	1679.33
340.58	1701.86
340.79	1619.94
341.00	1728.49
341.21	1630.18
341.42	1814.50
341.63	1705.96
341.85	1771.49
342.06	1705.96
342.27	1701.86
342.48	1771.49
342.69	1587.18
342.90	1738.73
343.12	1705.96
343.33	1669.09
343.54	1718.25
343.75	1763.30
343.96	1708.01
344.17	1687.53
344.38	1716.20
344.60	1681.38
344.81	1650.66
345.02	1679.33
345.23	1748.97
345.44	1763.30
345.65	1781.73
345.86	1634.28
346.07	1671.14
346.29	1652.71
346.50	1812.45
346.71	1724.39
346.92	1804.26
347.13	1800.16
347.34	1701.86
347.55	1628.14
347.76	1703.91
347.98	1599.46
348.19	1677.29
348.40	1845.22
348.61	1695.72
348.82	1847.27
349.03	1812.45
349.24	1691.62
349.45	1816.55
349.66	1583.08
349.88	1714.15
350.09	1705.96
350.30	1789.92
350.51	1791.97
350.72	1740.77
350.93	1726.44
351.14	1710.05
351.35	1718.25
351.56	1718.25
351.77	1679.33
351.99	1765.35
352.20	1753.06
352.41	1742.82
352.62	1642.47
352.83	1734.63
353.04	1693.67
353.25	1671.14
353.46	1794.02
353.67	1767.40
353.88	1667.05
354.09	1701.86
354.30	1675.24
354.52	1751.01
354.73	1654.76
354.94	1669.09
355.15	1693.67
355.36	1712.10
355.57	1722.34
355.78	1714.15
355.99	1681.38
356.20	1679.33
356.41	1757.16
356.62	1613.80
356.83	1765.35
357.04	1789.92
357.25	1589.22
357.46	1763.30
357.68	1693.67
357.89	1687.53
358.10	1703.91
358.31	1708.01
358.52	1718.25
358.73	1583.08
358.94	1660.90
359.15	1683.43
359.36	1779.68
359.57	1761.25
359.78	1726.44
359.99	1746.92
360.20	1710.05
360.41	1734.63
360.62	1697.77
360.83	1720.29
361.04	1710.05
361.25	1677.29
361.46	1800.16
361.67	1746.92
361.88	1771.49
362.09	1689.57
362.30	1843.17
362.51	1693.67
362.72	1736.68
362.93	1746.92
363.14	1771.49
363.35	1753.06
363.56	1796.07
363.78	1742.82
363.99	1759.21
364.20	1656.81
364.41	1693.67
364.62	1843.17
364.83	1771.49
365.04	1763.30
365.25	1650.66
365.46	1822.69
365.67	1710.05
365.88	1656.81
366.09	1689.57
366.30	1732.58
366.51	1691.62
366.72	1669.09
366.93	1708.01
367.14	1744.87
367.35	1794.02
367.56	1755.11
367.77	1800.16
367.98	1644.52
368.18	1773.54
368.39	1748.97
368.60	1613.80
368.81	1730.53
369.02	1732.58
369.23	1640.42
369.44	1624.04
369.65	1667.05
369.86	1697.77
370.07	1755.11
370.28	1677.29
370.49	1757.16
370.70	1746.92
370.91	1716.20
371.12	1640.42
371.33	1828.84
371.54	1683.43
371.75	1834.98
371.96	1587.18
372.17	1685.48
372.38	1763.30
372.59	1800.16
372.80	1611.75
373.01	1695.72
373.22	1724.39
373.43	1736.68
373.64	1722.34
373.85	1724.39
374.06	1847.27
374.26	1763.30
374.47	1697.77
374.68	1828.84
374.89	1667.05
375.10	1648.61
375.31	1839.08
375.52	1761.25
375.73	1724.39
375.94	1767.40
376.15	1841.12
376.36	1665.00
376.57	1708.01
376.78	1605.61
376.99	1755.11
377.20	1720.29
377.40	1759.21
377.61	1800.16
377.82	1714.15
378.03	1755.11
378.24	1681.38
378.45	1646.57
378.66	1699.81
378.87	1603.56
379.08	1568.74
379.29	1718.25
379.50	1789.92
379.71	1738.73
379.91	1662.95
380.12	1724.39
380.33	1734.63
380.54	1705.96
380.75	1662.95
380.96	1679.33
381.17	1748.97
381.38	1718.25
381.59	1783.78
381.80	1685.48
382.00	1853.41
382.21	1714.15
382.42	1796.07
382.63	1861.60
382.84	1771.49
383.05	1834.98
383.26	1796.07
383.47	1769.44
383.68	1755.11
383.88	1771.49
384.09	1640.42
384.30	1869.80
384.51	1705.96
384.72	1636.33
384.93	1648.61
385.14	1619.94
385.35	1744.87
385.55	1632.23
385.76	1742.82
385.97	1677.29
386.18	1660.90
386.39	1634.28
386.60	1687.53
386.81	1660.90
387.02	1716.20
387.22	1665.00
387.43	1759.21
387.64	1722.34
387.85	1865.70
388.06	2176.99
388.27	4073.41
388.48	6602.65
388.68	7960.45
388.89	9215.86
389.10	9576.30
389.31	8343.42
389.52	7403.41
389.73	6520.73
389.93	6107.04
390.14	5740.46
390.35	5171.12
390.56	4548.54
390.77	3798.98
390.98	3018.71
391.18	2527.19
391.39	2084.83
391.60	1902.56
391.81	1834.98
392.02	1720.29
392.23	1869.80
392.43	1802.21
392.64	1863.65
392.85	1695.72
393.06	1783.78
393.27	1722.34
393.47	1640.42
393.68	1755.11
393.89	1726.44
394.10	1814.50
394.31	1626.09
394.52	1751.01
394.72	1730.53
394.93	1779.68
395.14	1687.53
395.35	1740.77
395.56	1716.20
395.76	1808.36
395.97	1789.92
396.18	1773.54
396.39	1867.75
396.60	2031.58
396.80	1849.32
397.01	1839.08
397.22	1845.22
397.43	1789.92
397.64	1697.77
397.84	1775.59
398.05	1867.75
398.26	1824.74
398.47	1769.44
398.67	1814.50
398.88	1679.33
399.09	1695.72
399.30	1724.39
399.51	1828.84
399.71	1613.80
399.92	1687.53
400.13	1738.73
400.34	1726.44
400.54	1667.05
400.75	1822.69
400.96	1744.87
401.17	1880.04
401.37	1681.38
401.58	1742.82
401.79	1753.06
402.00	1820.64
402.21	1988.58
402.41	1974.24
402.62	1988.58
402.83	2002.91
403.04	1992.67
403.24	2136.03
403.45	1845.22
403.66	2025.44
403.87	1886.18
404.07	1978.34
404.28	1955.81
404.49	1841.12
404.70	1845.22
404.90	1808.36
405.11	1724.39
405.32	1808.36
405.52	1691.62
405.73	1703.91
405.94	1652.71
406.15	1708.01
406.35	1773.54
406.56	1740.77
406.77	1744.87
406.98	1732.58
407.18	1699.81
407.39	1796.07
407.60	1669.09
407.80	1783.78
408.01	1710.05
408.22	1734.63
408.43	1753.06
408.63	1685.48
408.84	1746.92
409.05	1748.97
409.25	1640.42
409.46	1689.57
409.67	1720.29
409.88	1630.18
410.08	1710.05
410.29	1613.80
410.50	1765.35
410.70	1673.19
410.91	1665.00
411.12	1705.96
411.32	1705.96
411.53	1691.62
411.74	1785.83
411.95	1814.50
412.15	1738.73
412.36	1724.39
412.57	1675.24
412.77	1761.25
412.98	1701.86
413.19	1660.90
413.39	1687.53
413.60	1712.10
413.81	1785.83
414.01	1683.43
414.22	1732.58
414.43	1675.24
414.63	1632.23
414.84	1796.07
415.05	1722.34
415.25	1654.76
415.46	1810.40
415.67	1626.09
415.87	1648.61
416.08	1724.39
416.29	1605.61
416.49	1832.93
416.70	1716.20
416.91	1689.57
417.11	1697.77
417.32	1740.77
417.53	1787.88
417.73	1794.02
417.94	1708.01
418.15	1724.39
418.35	1662.95
418.56	1736.68
418.77	1867.75
418.97	1703.91
419.18	1761.25
419.38	1597.42
419.59	1794.02
419.80	1804.26
420.00	1685.48
420.21	1722.34
420.42	1804.26
420.62	1820.64
420.83	1624.04
421.04	1746.92
421.24	1660.90
421.45	1744.87
421.65	1751.01
421.86	1652.71
422.07	1773.54
422.27	1779.68
422.48	1714.15
422.69	1748.97
422.89	1703.91
423.10	1746.92
423.30	1693.67
423.51	1681.38
423.72	1710.05
423.92	1812.45
424.13	1687.53
424.33	1724.39
424.54	1761.25
424.75	1742.82
424.95	1744.87
425.16	1722.34
425.36	1726.44
425.57	1794.02
425.78	1775.59
425.98	1759.21
426.19	1710.05
426.39	1675.24
426.60	1744.87
426.81	1757.16
427.01	1748.97
427.22	1720.29
427.42	1646.57
427.63	1724.39
427.83	1728.49
428.04	1755.11
428.25	1783.78
428.45	1755.11
428.66	1759.21
428.86	1722.34
429.07	1779.68
429.28	1720.29
429.48	1683.43
429.69	1673.19
429.89	1796.07
430.10	1685.48
430.30	1781.73
430.51	1732.58
430.71	1695.72
430.92	1751.01
431.13	1759.21
431.33	1683.43
431.54	1728.49
431.74	1826.79
431.95	1851.36
432.15	1654.76
432.36	1730.53
432.56	1755.11
432.77	1785.83
432.98	1687.53
433.18	1769.44
433.39	1712.10
433.59	1695.72
433.80	1814.50
434.00	1941.47
434.21	1726.44
434.41	1656.81
434.62	1839.08
434.82	1736.68
435.03	1701.86
435.23	1763.30
435.44	1632.23
435.64	1683.43
435.85	1746.92
436.06	1775.59
436.26	1839.08
436.47	1703.91
436.67	1679.33
436.88	1740.77
437.08	1791.97
437.29	1804.26
437.49	1730.53
437.70	1808.36
437.90	1748.97
438.11	1851.36
438.31	1830.88
438.52	1798.12
438.72	1855.46
438.93	1890.28
439.13	1693.67
439.34	1822.69
439.54	1748.97
439.75	1796.07
439.95	1726.44
440.16	1652.71
440.36	1802.21
440.57	1740.77
440.77	1701.86
440.98	1691.62
441.18	1742.82
441.39	1734.63
441.59	1714.15
441.80	1892.32
442.00	1761.25
442.21	1882.08
442.41	1669.09
442.62	1740.77
442.82	1660.90
443.02	1708.01
443.23	1710.05
443.43	1648.61
443.64	1830.88
443.84	1748.97
444.05	1800.16
444.25	1744.87
444.46	1716.20
444.66	1726.44
444.87	1843.17
445.07	1648.61
445.28	1738.73
445.48	1855.46
445.69	1798.12
445.89	1880.04
446.09	1740.77
446.30	2068.45
446.50	2623.45
446.71	3639.24
446.91	4284.35
447.12	4495.29
447.32	4722.62
447.53	4323.26
447.73	3766.21
447.93	3469.26
448.14	3186.64
448.34	3125.20
448.55	2869.20
448.75	2869.20
448.96	2678.74
449.16	2404.32
449.36	2174.94
449.57	2013.15
449.77	1826.79
449.98	1771.49
450.18	1828.84
450.39	1791.97
450.59	1769.44
450.79	1693.67
451.00	1695.72
451.20	1734.63
451.41	1701.86
451.61	1824.74
451.81	1751.01
452.02	1671.14
452.22	1744.87
452.43	1748.97
452.63	1677.29
452.84	1771.49
453.04	1759.21
453.24	1710.05
453.45	1669.09
453.65	1738.73
453.86	1738.73
454.06	1820.64
454.26	1759.21
454.47	1771.49
454.67	1837.03
454.87	1802.21
455.08	1642.47
455.28	1783.78
455.49	1771.49
455.69	1644.52
455.89	1781.73
456.10	1748.97
456.30	1679.33
456.51	1773.54
456.71	1794.02
456.91	1779.68
457.12	1703.91
457.32	1761.25
457.52	1650.66
457.73	1761.25
457.93	1839.08
458.14	1744.87
458.34	1619.94
458.54	1685.48
458.75	1665.00
458.95	1742.82
459.15	1697.77
459.36	1744.87
459.56	1720.29
459.76	1898.47
459.97	1814.50
460.17	1738.73
460.37	1804.26
460.58	1687.53
460.78	1808.36
460.99	1683.43
461.19	1732.58
461.39	1703.91
461.60	1722.34
461.80	1820.64
462.00	1751.01
462.21	1669.09
462.41	1724.39
462.61	1720.29
462.82	1644.52
463.02	1718.25
463.22	1675.24
463.43	1796.07
463.63	1718.25
463.83	1796.07
464.04	1757.16
464.24	1722.34
464.44	1658.85
464.64	1728.49
464.85	1701.86
465.05	1806.31
465.25	1751.01
465.46	1687.53
465.66	1734.63
465.86	1761.25
466.07	1746.92
466.27	1767.40
466.47	1609.70
466.68	1667.05
466.88	1849.32
467.08	1753.06
467.29	1787.88
467.49	1785.83
467.69	1753.06
467.89	1826.79
468.10	1689.57
468.30	1740.77
468.50	1777.64
468.71	1798.12
468.91	1634.28
469.11	1800.16
469.31	1730.53
469.52	1710.05
469.72	1806.31
469.92	1839.08
470.13	1738.73
470.33	1730.53
470.53	1802.21
470.73	2076.64
470.94	2320.35
471.14	2220.00
471.34	2516.95
471.54	2357.21
471.75	2293.72
471.95	2103.26
472.15	1984.48
472.36	2111.46
472.56	2115.55
472.76	2097.12
472.96	1951.71
473.17	1941.47
473.37	1920.99
473.57	1767.40
473.77	1759.21
473.98	1759.21
474.18	1714.15
474.38	1964.00
474.58	1691.62
474.79	1773.54
474.99	1787.88
475.19	1789.92
475.39	1636.33
475.60	1732.58
475.80	1730.53
476.00	1765.35
476.20	1757.16
476.41	1757.16
476.61	1816.55
476.81	1789.92
477.01	1660.90
477.21	1886.18
477.42	1812.45
477.62	1687.53
477.82	1761.25
478.02	1718.25
478.23	1761.25
478.43	1644.52
478.63	1753.06
478.83	1734.63
479.03	1767.40
479.24	1759.21
479.44	1800.16
479.64	1718.25
479.84	1624.04
480.04	1683.43
480.25	1744.87
480.45	1718.25
480.65	1703.91
480.85	1802.21
481.06	1744.87
481.26	1759.21
481.46	1726.44
481.66	1800.16
481.86	1673.19
482.06	1798.12
482.27	1681.38
482.47	1746.92
482.67	1789.92
482.87	1642.47
483.07	1822.69
483.28	1675.24
483.48	1636.33
483.68	1742.82
483.88	1687.53
484.08	1679.33
484.29	1699.81
484.49	1683.43
484.69	1708.01
484.89	1812.45
485.09	1771.49
485.29	1814.50
485.50	1746.92
485.70	1779.68
485.90	1845.22
486.10	1726.44
486.30	1787.88
486.50	1763.30
486.71	1740.77
486.91	1781.73
487.11	1779.68
487.31	1550.31
487.51	1773.54
487.71	1736.68
487.91	1605.61
488.12	1662.95
488.32	1609.70
488.52	1607.66
488.72	1691.62
488.92	1714.15
489.12	1728.49
489.32	1746.92
489.53	1769.44
489.73	1675.24
489.93	1734.63
490.13	1695.72
490.33	1671.14
490.53	1759.21
490.73	1800.16
490.94	1619.94
491.14	1892.32
491.34	1816.55
491.54	2117.60
491.74	2498.52
491.94	2879.44
492.14	3000.27
492.34	3065.81
492.54	2660.31
492.75	2422.75
492.95	2398.17
493.15	2287.58
493.35	2293.72
493.55	2226.14
493.75	2174.94
493.95	2123.74
494.15	2039.78
494.35	1953.76
494.56	1910.75
494.76	1769.44
494.96	1794.02
495.16	1818.60
495.36	1710.05
495.56	1728.49
495.76	1724.39
495.96	1732.58
496.16	1763.30
496.36	1849.32
496.56	1705.96
496.77	1783.78
496.97	1761.25
497.17	1857.51
497.37	1628.14
497.57	1710.05
497.77	1753.06
497.97	1667.05
498.17	1658.85
498.37	1798.12
498.57	1783.78
498.77	1755.11
498.97	1808.36
499.17	1841.12
499.38	1767.40
499.58	1763.30
499.78	1775.59
499.98	1834.98
500.18	1740.77
500.38	1744.87
500.58	1906.66
500.78	2553.82
500.98	4294.59
501.18	5797.80
501.38	6678.43
501.58	7051.16
501.78	6584.22
501.98	5382.06
502.18	4884.41
502.38	4304.83
502.58	4014.02
502.78	3577.80
502.98	3590.09
503.18	3430.35
503.38	3117.01
503.59	2797.53
503.79	2713.56
503.99	2467.80
504.19	2209.76
504.39	2158.56
504.59	2195.42
504.79	2109.41
504.99	2129.89
505.19	1886.18
505.39	1863.65
505.59	1914.85
505.79	1884.13
505.99	1832.93
506.19	1800.16
506.39	1912.80
506.59	1767.40
506.79	1753.06
506.99	1763.30
507.19	1820.64
507.39	1742.82
507.59	1656.81
507.79	1691.62
507.99	1632.23
508.19	1787.88
508.39	1767.40
508.59	1781.73
508.79	1839.08
508.99	1824.74
509.19	1701.86
509.39	1753.06
509.59	1693.67
509.79	1681.38
509.99	1748.97
510.19	1830.88
510.39	1693.67
510.59	1720.29
510.79	1759.21
510.99	1638.38
511.19	1802.21
511.39	1810.40
511.59	1746.92
511.79	1865.70
511.99	1808.36
512.19	1820.64
512.38	1718.25
512.58	1675.24
512.78	1767.40
512.98	1751.01
513.18	1777.64
513.38	1673.19
513.58	1781.73
513.78	1748.97
513.98	1697.77
514.18	1681.38
514.38	1652.71
514.58	1738.73
514.78	1681.38
514.98	1656.81
515.18	1683.43
515.38	1744.87
515.58	1863.65
515.78	1613.80
515.98	1748.97
516.18	1722.34
516.38	1785.83
516.57	1761.25
516.77	1710.05
516.97	1773.54
517.17	1736.68
517.37	1654.76
517.57	1800.16
517.77	1730.53
517.97	1755.11
518.17	1890.28
518.37	1732.58
518.57	1695.72
518.77	1726.44
518.97	1730.53
519.16	1824.74
519.36	1826.79
519.56	1759.21
519.76	1751.01
519.96	1728.49
520.16	1814.50
520.36	1691.62
520.56	1820.64
520.76	1689.57
520.96	1785.83
521.16	1796.07
521.35	1781.73
521.55	1820.64
521.75	1705.96
521.95	1759.21
522.15	1714.15
522.35	1708.01
522.55	1619.94
522.75	1771.49
522.95	1654.76
523.14	1681.38
523.34	1724.39
523.54	1718.25
523.74	1761.25
523.94	1736.68
524.14	1656.81
524.34	1720.29
524.54	1816.55
524.73	1689.57
524.93	1777.64
525.13	1701.86
525.33	1751.01
525.53	1900.52
525.73	1769.44
525.93	1753.06
526.13	1769.44
526.32	1681.38
526.52	1800.16
526.72	1779.68
526.92	1734.63
527.12	1712.10
527.32	1697.77
527.52	1800.16
527.71	1769.44
527.91	1714.15
528.11	1720.29
528.31	1757.16
528.51	1703.91
528.71	1701.86
528.90	1763.30
529.10	1804.26
529.30	1826.79
529.50	1593.32
529.70	1783.78
529.90	1738.73
530.09	1810.40
530.29	1662.95
530.49	1681.38
530.69	1873.89
530.89	1775.59
531.09	1783.78
531.28	1726.44
531.48	1824.74
531.68	1765.35
531.88	1751.01
532.08	1773.54
532.28	1802.21
532.47	1748.97
532.67	1834.98
532.87	1783.78
533.07	1667.05
533.27	1724.39
533.46	1802.21
533.66	1720.29
533.86	1628.14
534.06	1767.40
534.26	1738.73
534.45	1769.44
534.65	1751.01
534.85	1787.88
535.05	1748.97
535.25	1738.73
535.44	1642.47
535.64	1830.88
535.84	1751.01
536.04	1654.76
536.24	1669.09
536.43	1763.30
536.63	1763.30
536.83	1748.97
537.03	1646.57
537.22	1544.17
537.42	1712.10
537.62	1724.39
537.82	1708.01
538.02	1796.07
538.21	1765.35
538.41	1976.29
538.61	1708.01
538.81	1693.67
539.00	1812.45
539.20	1722.34
539.40	1728.49
539.60	1785.83
539.79	1777.64
539.99	1722.34
540.19	1730.53
540.39	1736.68
540.58	1777.64
540.78	1763.30
540.98	1736.68
541.18	1769.44
541.37	1816.55
541.57	1746.92
541.77	1781.73
541.97	1683.43
542.16	1656.81
542.36	1798.12
542.56	1730.53
542.76	1880.04
542.95	1773.54
543.15	1818.60
543.35	1740.77
543.54	1716.20
543.74	1718.25
543.94	1822.69
544.14	1695.72
544.33	1779.68
544.53	1751.01
544.73	1742.82
544.93	1636.33
545.12	1761.25
545.32	1710.05
545.52	1687.53
545.71	1673.19
545.91	1724.39
546.11	1609.70
546.30	1681.38
546.50	1716.20
546.70	1824.74
546.90	1746.92
547.09	1609.70
547.29	1808.36
547.49	1794.02
547.68	1787.88
547.88	1746.92
548.08	1902.56
548.27	2256.86
548.47	1763.30
548.67	1712.10
548.87	1712.10
549.06	1734.63
549.26	1738.73
549.46	1837.03
549.65	1671.14
549.85	1789.92
550.05	1705.96
550.24	1773.54
550.44	1742.82
550.64	1722.34
550.83	1783.78
551.03	1757.16
551.23	1796.07
551.42	1740.77
551.62	1710.05
551.82	1767.40
552.01	1802.21
552.21	1759.21
552.41	1787.88
552.60	1828.84
552.80	1722.34
553.00	1755.11
553.19	1755.11
553.39	1849.32
553.59	1734.63
553.78	1828.84
553.98	1736.68
554.17	1695.72
554.37	1779.68
554.57	1783.78
554.76	1650.66
554.96	1724.39
555.16	1785.83
555.35	1808.36
555.55	1761.25
555.75	1785.83
555.94	1806.31
556.14	1730.53
556.33	1785.83
556.53	1744.87
556.73	1736.68
556.92	1818.60
557.12	1808.36
557.32	1935.33
557.51	1847.27
557.71	1759.21
557.90	1779.68
558.10	1800.16
558.30	1738.73
558.49	1748.97
558.69	1742.82
558.88	1832.93
559.08	1699.81
559.28	1751.01
559.47	1791.97
559.67	1730.53
559.86	1810.40
560.06	1738.73
560.26	1855.46
560.45	1716.20
560.65	1656.81
560.84	1828.84
561.04	1667.05
561.24	1714.15
561.43	1589.22
561.63	1787.88
561.82	1755.11
562.02	1773.54
562.22	1658.85
562.41	1681.38
562.61	1673.19
562.80	1742.82
563.00	1875.94
563.19	1785.83
563.39	1773.54
563.59	1767.40
563.78	1673.19
563.98	1665.00
564.17	1689.57
564.37	1683.43
564.56	1734.63
564.76	1660.90
564.96	1822.69
565.15	1701.86
565.35	1843.17
565.54	1755.11
565.74	1853.41
565.93	1804.26
566.13	1771.49
566.32	1769.44
566.52	1769.44
566.71	1722.34
566.91	1796.07
567.11	1722.34
567.30	1683.43
567.50	1824.74
567.69	1808.36
567.89	1724.39
568.08	1693.67
568.28	1773.54
568.47	1734.63
568.67	1732.58
568.86	1691.62
569.06	1849.32
569.25	1681.38
569.45	1751.01
569.64	1746.92
569.84	1628.14
570.04	1775.59
570.23	1681.38
570.43	1726.44
570.62	1767.40
570.82	1787.88
571.01	1683.43
571.21	1783.78
571.40	1679.33
571.60	1787.88
571.79	1757.16
571.99	1783.78
572.18	1646.57
572.38	1748.97
572.57	1689.57
572.77	1759.21
572.96	1855.46
573.16	1742.82
573.35	1705.96
573.55	1785.83
573.74	1818.60
573.94	1714.15
574.13	1701.86
574.33	1775.59
574.52	1822.69
574.71	1675.24
574.91	1796.07
575.10	1710.05
575.30	1658.85
575.49	1689.57
575.69	1726.44
575.88	1773.54
576.08	1724.39
576.27	1773.54
576.47	1751.01
576.66	1826.79
576.86	1777.64
577.05	1861.60
577.25	1794.02
577.44	1814.50
577.64	1757.16
577.83	1773.54
578.02	1736.68
578.22	1794.02
578.41	1818.60
578.61	1722.34
578.80	1677.29
579.00	1732.58
579.19	1730.53
579.39	1738.73
579.58	1865.70
579.77	1671.14
579.97	1820.64
580.16	1789.92
580.36	1859.56
580.55	1853.41
580.75	1783.78
580.94	1812.45
581.13	1869.80
581.33	1847.27
581.52	1708.01
581.72	1877.99
581.91	1804.26
582.11	1798.12
582.30	1812.45
582.49	1724.39
582.69	1902.56
582.88	1806.31
583.08	1734.63
583.27	1791.97
583.47	1669.09
583.66	1724.39
583.85	1689.57
584.05	1708.01
584.24	1824.74
584.44	1814.50
584.63	1802.21
584.82	1837.03
585.02	1900.52
585.21	1757.16
585.41	1822.69
585.60	1834.98
585.79	1880.04
585.99	1906.66
586.18	1894.37
586.37	2156.51
586.57	3315.66
586.76	9805.67
586.96	23807.64
587.15	33809.92
587.34	39402.92
587.54	41061.77
587.73	35386.85
587.93	25558.65
588.12	21092.03
588.31	17651.44
588.51	15892.24
588.70	14728.99
588.89	13719.34
589.09	12191.56
589.28	10733.40
589.47	9172.85
589.67	7833.48
589.86	6178.72
590.06	4886.45
590.25	3923.91
590.44	3035.09
590.64	2568.15
590.83	2246.62
591.02	2047.97
591.22	1910.75
591.41	1984.48
591.60	1841.12
591.80	1957.86
591.99	1761.25
592.18	1802.21
592.38	1896.42
592.57	1767.40
592.76	1748.97
592.96	1804.26
593.15	1744.87
593.34	1837.03
593.54	1828.84
593.73	1880.04
593.92	1771.49
594.12	1806.31
594.31	1728.49
594.50	1820.64
594.70	1808.36
594.89	1865.70
595.08	1636.33
595.28	1865.70
595.47	1904.61
595.66	1804.26
595.86	1708.01
596.05	1775.59
596.24	1683.43
596.43	1853.41
596.63	1806.31
596.82	1789.92
597.01	1751.01
597.21	1828.84
597.40	1726.44
597.59	1718.25
597.79	1732.58
597.98	1822.69
598.17	1779.68
598.36	1714.15
598.56	1824.74
598.75	1691.62
598.94	1757.16
599.14	1708.01
599.33	1765.35
599.52	1828.84
599.71	1744.87
599.91	1824.74
600.10	1775.59
600.29	1740.77
600.48	1810.40
600.68	1806.31
600.87	1824.74
601.06	1757.16
601.26	1720.29
601.45	1800.16
601.64	1753.06
601.83	1837.03
602.03	1785.83
602.22	1693.67
602.41	1738.73
602.60	1794.02
602.80	1796.07
602.99	1779.68
603.18	1728.49
603.37	1716.20
603.57	1806.31
603.76	1773.54
603.95	1818.60
604.14	1675.24
604.34	1728.49
604.53	1691.62
604.72	1699.81
604.91	1841.12
605.10	1796.07
605.30	1665.00
605.49	1773.54
605.68	1773.54
605.87	1753.06
606.07	1771.49
606.26	1796.07
606.45	1863.65
606.64	1791.97
606.84	1730.53
607.03	1726.44
607.22	1759.21
607.41	1806.31
607.60	1775.59
607.80	1765.35
607.99	1728.49
608.18	1744.87
608.37	1742.82
608.56	1656.81
608.76	1746.92
608.95	1910.75
609.14	1714.15
609.33	1746.92
609.52	1769.44
609.72	1724.39
609.91	1877.99
610.10	1738.73
610.29	1798.12
610.48	1728.49
610.68	1791.97
610.87	1689.57
611.06	1849.32
611.25	1761.25
611.44	1869.80
611.63	1753.06
611.83	1814.50
612.02	1632.23
612.21	1791.97
612.40	1656.81
612.59	1701.86
612.79	1712.10
612.98	1751.01
613.17	1822.69
613.36	1673.19
613.55	1839.08
613.74	1679.33
613.93	1757.16
614.13	1695.72
614.32	1740.77
614.51	1810.40
614.70	1710.05
614.89	1714.15
615.08	1779.68
615.28	2099.17
615.47	1660.90
615.66	1746.92
615.85	1714.15
616.04	1744.87
616.23	1710.05
616.42	1742.82
616.62	1734.63
616.81	1742.82
617.00	1779.68
617.19	1810.40
617.38	1660.90
617.57	1677.29
617.76	1724.39
617.95	1837.03
618.15	1724.39
618.34	1802.21
618.53	1738.73
618.72	1714.15
618.91	1812.45
619.10	1902.56
619.29	1699.81
619.48	1728.49
619.68	1734.63
619.87	1740.77
620.06	1673.19
620.25	1822.69
620.44	1675.24
620.63	1769.44
620.82	1724.39
621.01	1724.39
621.20	1742.82
621.39	1763.30
621.59	1728.49
621.78	1722.34
621.97	1705.96
622.16	1767.40
622.35	1765.35
622.54	1763.30
622.73	1843.17
622.92	1650.66
623.11	1791.97
623.30	1699.81
623.49	1785.83
623.68	1665.00
623.88	1800.16
624.07	1701.86
624.26	1748.97
624.45	1716.20
624.64	1712.10
624.83	1773.54
625.02	1787.88
625.21	1742.82
625.40	1748.97
625.59	1824.74
625.78	1746.92
625.97	1775.59
626.16	1701.86
626.35	1742.82
626.54	1675.24
626.74	1806.31
626.93	1724.39
627.12	1667.05
627.31	1779.68
627.50	1703.91
627.69	1849.32
627.88	1667.05
628.07	1730.53
628.26	1624.04
628.45	1746.92
628.64	1683.43
628.83	1734.63
629.02	1644.52
629.21	1740.77
629.40	1675.24
629.59	1673.19
629.78	1736.68
629.97	1705.96
630.16	1667.05
630.35	1671.14
630.54	1712.10
630.73	1673.19
630.92	1744.87
631.11	1767.40
631.30	1658.85
631.49	1734.63
631.68	1714.15
631.87	1804.26
632.06	1667.05
632.25	1828.84
632.44	1785.83
632.63	1693.67
632.82	1689.57
633.01	1701.86
633.20	1667.05
633.39	1662.95
633.58	1648.61
633.77	1787.88
633.96	1734.63
634.15	1738.73
634.34	1730.53
634.53	1671.14
634.72	1759.21
634.91	1708.01
635.10	1785.83
635.29	1773.54
635.48	1716.20
635.67	1742.82
635.86	1683.43
636.05	1855.46
636.24	1712.10
636.43	1634.28
636.62	1759.21
636.81	1581.03
637.00	1691.62
637.19	1769.44
637.38	1689.57
637.57	1730.53
637.76	1726.44
637.95	1714.15
638.14	1701.86
638.33	1732.58
638.52	1724.39
638.71	1650.66
638.89	1613.80
639.08	1863.65
639.27	1763.30
639.46	1746.92
639.65	1804.26
639.84	1736.68
640.03	1732.58
640.22	1718.25
640.41	1828.84
640.60	1720.29
640.79	1742.82
640.98	1660.90
641.17	1755.11
641.36	1755.11
641.55	1693.67
641.74	1630.18
641.92	1640.42
642.11	1607.66
642.30	1687.53
642.49	1675.24
642.68	1683.43
642.87	1730.53
643.06	1773.54
643.25	1658.85
643.44	1769.44
643.63	1701.86
643.82	1771.49
644.00	1685.48
644.19	1667.05
644.38	1673.19
644.57	1720.29
644.76	1701.86
644.95	1656.81
645.14	1789.92
645.33	1734.63
645.52	1718.25
645.71	1691.62
645.89	1603.56
646.08	1783.78
646.27	1722.34
646.46	1783.78
646.65	1660.90
646.84	1757.16
647.03	1722.34
647.22	1755.11
647.40	1724.39
647.59	1787.88
647.78	1601.51
647.97	1771.49
648.16	1648.61
648.35	1828.84
648.54	1804.26
648.73	1720.29
648.91	1718.25
649.10	1763.30
649.29	1673.19
649.48	1751.01
649.67	1834.98
649.86	1755.11
650.05	1648.61
650.23	1845.22
650.42	1660.90
650.61	1769.44
650.80	1726.44
650.99	1828.84
651.18	1828.84
651.36	1765.35
651.55	1712.10
651.74	1746.92
651.93	1669.09
652.12	1697.77
652.31	1732.58
652.49	1671.14
652.68	1673.19
652.87	1787.88
653.06	1777.64
653.25	1789.92
653.44	1677.29
653.62	1826.79
653.81	1736.68
654.00	1699.81
654.19	1728.49
654.38	1789.92
654.56	1689.57
654.75	1687.53
654.94	1765.35
655.13	1763.30
655.32	1771.49
655.51	1726.44
655.69	1656.81
655.88	1734.63
656.07	1621.99
656.26	1722.34
656.45	1581.03
656.63	1691.62
656.82	1810.40
657.01	1822.69
657.20	1710.05
657.38	1886.18
657.57	1648.61
657.76	1648.61
657.95	1783.78
658.14	1708.01
658.32	1828.84
658.51	1632.23
658.70	1671.14
658.89	1787.88
659.08	1656.81
659.26	1820.64
659.45	1691.62
659.64	1722.34
659.83	1642.47
660.01	1937.38
660.20	1781.73
660.39	1820.64
660.58	1613.80
660.76	1716.20
660.95	1585.13
661.14	1705.96
661.33	1705.96
661.51	1685.48
661.70	1689.57
661.89	1763.30
662.08	1689.57
662.26	1667.05
662.45	1652.71
662.64	1791.97
662.83	1734.63
663.01	1687.53
663.20	1638.38
663.39	1863.65
663.58	1708.01
663.76	1722.34
663.95	1767.40
664.14	1689.57
664.32	1783.78
664.51	1634.28
664.70	1658.85
664.89	1814.50
665.07	1689.57
665.26	1855.46
665.45	1628.14
665.64	1753.06
665.82	1714.15
666.01	1796.07
666.20	1697.77
666.38	1843.17
666.57	1771.49
666.76	2179.04
666.95	4405.18
667.13	10153.83
667.32	14882.59
667.51	17573.62
667.69	18740.96
667.88	17254.14
668.07	11878.22
668.25	9389.94
668.44	7995.27
668.63	7274.38
668.81	6705.05
669.00	6156.19
669.19	5562.28
669.38	4945.84
669.56	4437.95
669.75	3975.11
669.94	3420.11
670.12	2869.20
670.31	2420.70
670.50	2215.90
670.68	2035.68
670.87	1939.43
671.06	1791.97
671.24	1794.02
671.43	1781.73
671.62	1746.92
671.80	1742.82
671.99	1769.44
672.18	1728.49
672.36	1730.53
672.55	1834.98
672.74	1689.57
672.92	1656.81
673.11	1732.58
673.29	1660.90
673.48	1783.78
673.67	1697.77
673.85	1806.31
674.04	1687.53
674.23	1791.97
674.41	1847.27
674.60	1673.19
674.79	1628.14
674.97	1693.67
675.16	1796.07
675.34	1742.82
675.53	1660.90
675.72	1806.31
675.90	1787.88
676.09	1746.92
676.28	1742.82
676.46	1603.56
676.65	1787.88
676.83	1736.68
677.02	1665.00
677.21	1638.38
677.39	1746.92
677.58	1726.44
677.77	1751.01
677.95	1718.25
678.14	1662.95
678.32	1742.82
678.51	1675.24
678.70	1781.73
678.88	1783.78
679.07	1708.01
679.25	1667.05
679.44	1687.53
679.63	1718.25
679.81	1761.25
680.00	1777.64
680.18	1718.25
680.37	1841.12
680.55	1757.16
680.74	1677.29
680.93	1630.18
681.11	1746.92
681.30	1667.05
681.48	1769.44
681.67	1751.01
681.85	1683.43
682.04	1634.28
682.23	1742.82
682.41	1730.53
682.60	1765.35
682.78	1748.97
682.97	1669.09
683.15	1744.87
683.34	1679.33
683.53	1806.31
683.71	1675.24
683.90	1759.21
684.08	1789.92
684.27	1640.42
684.45	1693.67
684.64	1722.34
684.82	1701.86
685.01	1701.86
685.19	1693.67
685.38	1783.78
685.57	1646.57
685.75	1693.67
685.94	1728.49
686.12	1734.63
686.31	1687.53
686.49	1853.41
686.68	1642.47
686.86	1759.21
687.05	1726.44
687.23	1767.40
687.42	1746.92
687.60	1714.15
687.79	1759.21
687.97	1847.27
688.16	1806.31
688.34	1730.53
688.53	1634.28
688.71	1738.73
688.90	1804.26
689.08	1679.33
689.27	1581.03
689.45	1714.15
689.64	1781.73
689.82	1701.86
690.01	1779.68
690.19	1763.30
690.38	1763.30
690.56	1787.88
690.75	1675.24
690.93	1624.04
691.12	1683.43
691.30	1746.92
691.49	1626.09
691.67	1669.09
691.86	1865.70
692.04	1730.53
692.23	1691.62
692.41	1658.85
692.60	1775.59
692.78	1834.98
692.97	1763.30
693.15	1753.06
693.34	1822.69
693.52	1779.68
693.71	1736.68
693.89	1716.20
694.08	1646.57
694.26	1830.88
694.44	1744.87
694.63	1767.40
694.81	1650.66
695.00	1693.67
695.18	1810.40
695.37	1855.46
695.55	1697.77
695.74	1728.49
695.92	1648.61
696.10	1808.36
696.29	1665.00
696.47	1816.55
696.66	1595.37
696.84	1658.85
697.03	1656.81
697.21	1912.80
697.40	2369.50
697.58	1857.51
697.76	1597.42
697.95	1665.00
698.13	1648.61
698.32	1683.43
698.50	1691.62
698.68	1746.92
698.87	1765.35
699.05	1728.49
699.24	1619.94
699.42	1595.37
699.61	1656.81
699.79	1740.77
699.97	1742.82
700.16	1646.57
700.34	1705.96
700.53	1673.19
700.71	1837.03
700.89	1822.69
701.08	1687.53
701.26	1761.25
701.45	2101.22
701.63	1652.71
701.81	1751.01
702.00	1673.19
702.18	1722.34
702.37	1685.48
702.55	1769.44
702.73	1656.81
702.92	1669.09
703.10	1742.82
703.28	1734.63
703.47	1689.57
703.65	1804.26
703.84	1757.16
704.02	1652.71
704.20	1800.16
704.39	1665.00
704.57	1777.64
704.75	1818.60
704.94	1773.54
705.12	1816.55
705.30	1728.49
705.49	2299.87
705.67	4224.96
705.86	9183.09
706.04	12416.83
706.22	14198.57
706.41	15120.15
706.59	13457.20
706.77	9242.48
706.96	7174.03
707.14	6393.76
707.32	5935.01
707.51	5455.79
707.69	4794.29
707.87	4063.17
708.06	3411.92
708.24	2938.84
708.42	2361.31
708.61	2152.42
708.79	1861.60
708.97	1845.22
709.16	1781.73
709.34	1802.21
709.52	1796.07
709.71	1753.06
709.89	1691.62
710.07	1626.09
710.26	1587.18
710.44	1716.20
710.62	1810.40
710.80	1689.57
710.99	1781.73
711.17	1705.96
711.35	1646.57
711.54	1718.25
711.72	1812.45
711.90	1798.12
712.09	1746.92
712.27	1638.38
712.45	1834.98
712.63	1665.00
712.82	1667.05
713.00	1724.39
713.18	1736.68
713.37	1720.29
713.55	1710.05
713.73	1732.58
713.91	1734.63
714.10	1656.81
714.28	1695.72
714.46	1787.88
714.65	1716.20
714.83	1767.40
715.01	1701.86
715.19	1701.86
715.38	1640.42
715.56	1728.49
715.74	1681.38
715.92	1611.75
716.11	1787.88
716.29	1626.09
716.47	1697.77
716.65	1628.14
716.84	1638.38
717.02	1763.30
717.20	1656.81
717.38	1751.01
717.57	1712.10
717.75	1734.63
717.93	1656.81
718.11	1794.02
718.30	1638.38
718.48	1789.92
718.66	1781.73
718.84	1691.62
719.03	1679.33
719.21	1705.96
719.39	1845.22
719.57	1789.92
719.75	1763.30
719.94	1630.18
720.12	1722.34
720.30	1763.30
720.48	1773.54
720.67	1703.91
720.85	1603.56
721.03	1738.73
721.21	1617.90
721.39	1714.15
721.58	1662.95
721.76	1775.59
721.94	1757.16
722.12	1710.05
722.30	1808.36
722.49	1636.33
722.67	1753.06
722.85	1671.14
723.03	1669.09
723.21	1722.34
723.40	1742.82
723.58	1763.30
723.76	1742.82
723.94	1722.34
724.12	1669.09
724.30	1720.29
724.49	1691.62
724.67	1667.05
724.85	1855.46
725.03	1648.61
725.21	1787.88
725.40	1806.31
725.58	1701.86
725.76	1808.36
725.94	1761.25
726.12	1675.24
726.30	1740.77
726.49	1748.97
726.67	1705.96
726.85	1683.43
727.03	1783.78
727.21	2230.24
727.39	2899.92
727.57	3704.78
727.76	4186.05
727.94	4394.94
728.12	4134.85
728.30	3629.00
728.48	2834.39
728.66	2748.37
728.84	2465.75
729.03	2291.68
729.21	2189.28
729.39	1961.95
729.57	1914.85
729.75	1859.56
729.93	1877.99
730.11	1748.97
730.30	1753.06
730.48	1640.42
730.66	1814.50
730.84	1720.29
731.02	1714.15
731.20	1681.38
731.38	1751.01
731.56	1658.85
731.74	1734.63
731.93	1687.53
732.11	1769.44
732.29	1685.48
732.47	1746.92
732.65	1740.77
732.83	1742.82
733.01	1716.20
733.19	1630.18
733.37	1724.39
733.56	1730.53
733.74	1689.57
733.92	1746.92
734.10	1679.33
734.28	1726.44
734.46	1691.62
734.64	1636.33
734.82	1726.44
735.00	1705.96
735.18	1697.77
735.36	1669.09
735.54	1718.25
735.73	1703.91
735.91	1708.01
736.09	1689.57
736.27	1669.09
736.45	1724.39
736.63	1632.23
736.81	1718.25
736.99	1746.92
737.17	1765.35
737.35	1779.68
737.53	1746.92
737.71	1697.77
737.89	1779.68
738.07	1708.01
738.25	1677.29
738.43	1607.66
738.61	1566.70
738.80	1626.09
738.98	1609.70
739.16	1687.53
739.34	1724.39
739.52	1861.60
739.70	1673.19
739.88	1738.73
740.06	1798.12
740.24	1591.27
740.42	1820.64
740.60	1667.05
740.78	1703.91
740.96	1615.85
741.14	1689.57
741.32	1703.91
741.50	1646.57
741.68	1869.80
741.86	1820.64
742.04	1685.48
742.22	1687.53
742.40	1751.01
742.58	1705.96
742.76	1640.42
742.94	1738.73
743.12	1679.33
743.30	1656.81
743.48	1779.68
743.66	1636.33
743.84	1724.39
744.02	1724.39
744.20	1689.57
744.38	1697.77
744.56	1726.44
744.74	1841.12
744.92	1703.91
745.10	1853.41
745.28	1773.54
745.46	1783.78
745.64	1740.77
745.82	1761.25
746.00	1724.39
746.18	1658.85
746.36	1636.33
746.54	1765.35
746.72	1796.07
746.90	1722.34
747.08	1746.92
747.26	1693.67
747.44	1728.49
747.62	1765.35
747.80	1683.43
747.98	1738.73
748.15	1695.72
748.33	1748.97
748.51	1669.09
748.69	1837.03
748.87	1722.34
749.05	1697.77
749.23	1652.71
749.41	1783.78
749.59	1712.10
749.77	1828.84
749.95	1740.77
750.13	1722.34
750.31	1742.82
750.49	1634.28
750.67	1783.78
750.85	1769.44
751.03	1783.78
751.20	1849.32
751.38	1714.15
751.56	1665.00
751.74	1783.78
751.92	1624.04
752.10	1683.43
752.28	1794.02
752.46	1636.33
752.64	1665.00
752.82	1710.05
753.00	1791.97
753.18	1685.48
753.35	1734.63
753.53	1693.67
753.71	1660.90
753.89	1734.63
754.07	1765.35
754.25	1730.53
754.43	1677.29
754.61	1656.81
754.79	1673.19
754.97	1658.85
755.14	1748.97
755.32	1638.38
755.50	1712.10
755.68	1697.77
755.86	1675.24
756.04	1689.57
756.22	1634.28
756.40	1746.92
756.57	1814.50
756.75	1718.25
756.93	1705.96
757.11	1781.73
757.29	1675.24
757.47	1701.86
757.65	1552.36
757.82	1632.23
758.00	1619.94
758.18	1689.57
758.36	1685.48
758.54	1849.32
758.72	1648.61
758.90	1771.49
759.07	1755.11
759.25	1652.71
759.43	1726.44
759.61	1607.66
759.79	2189.28
759.97	1699.81
760.15	1724.39
760.32	1628.14
760.50	1785.83
760.68	1843.17
760.86	1679.33
761.04	1773.54
761.22	1787.88
761.39	1765.35
761.57	1722.34
761.75	1673.19
761.93	1738.73
762.11	1669.09
762.28	1720.29
762.46	1705.96
762.64	1765.35
762.82	1607.66
763.00	1722.34
763.18	1796.07
763.35	1699.81
763.53	1785.83
763.71	1740.77
763.89	1757.16
764.07	1699.81
764.24	1732.58
764.42	1691.62
764.60	1714.15
764.78	1714.15
764.96	1837.03
765.13	1822.69
765.31	1705.96
765.49	1724.39
765.67	1689.57
765.84	1669.09
766.02	1757.16
766.20	1673.19
766.38	1726.44
766.56	1757.16
766.73	1708.01
766.91	1796.07
767.09	1705.96
767.27	1757.16
767.44	1632.23
767.62	1691.62
767.80	1765.35
767.98	1685.48
768.15	1681.38
768.33	1753.06
768.51	1742.82
768.69	1771.49
768.87	1773.54
769.04	1771.49
769.22	1912.80
769.40	1722.34
769.58	1935.33
769.75	1667.05
769.93	1814.50
770.11	1699.81
770.28	1632.23
770.46	1679.33
770.64	1757.16
770.82	1675.24
770.99	1830.88
771.17	1738.73
771.35	1773.54
771.53	1736.68
771.70	1732.58
771.88	1722.34
772.06	1718.25
772.23	1693.67
772.41	1693.67
772.59	1687.53
772.77	1689.57
772.94	1724.39
773.12	1816.55
773.30	1705.96
773.47	1669.09
773.65	1665.00
773.83	1691.62
774.01	1667.05
774.18	1591.27
774.36	1732.58
774.54	1746.92
774.71	1693.67
774.89	1624.04
775.07	1636.33
775.24	1726.44
775.42	1683.43
775.60	1828.84
775.78	1693.67
775.95	1650.66
776.13	1703.91
776.31	1513.45
776.48	1734.63
776.66	1763.30
776.84	1665.00
777.01	1685.48
777.19	1642.47
777.37	1662.95
777.54	1734.63
777.72	1800.16
777.90	1744.87
778.07	1675.24
778.25	1880.04
778.43	1716.20
778.60	1628.14
778.78	1773.54
778.96	1660.90
779.13	1681.38
779.31	1783.78
779.49	1716.20
779.66	1710.05
779.84	1744.87
780.01	1681.38
780.19	1689.57
780.37	1779.68
780.54	1771.49
780.72	1736.68
780.90	1755.11
781.07	1718.25
781.25	1714.15
781.43	1763.30
781.60	1589.22
781.78	1722.34
781.95	1646.57
782.13	1705.96
782.31	1675.24
782.48	1677.29
782.66	1714.15
782.83	1861.60
783.01	1730.53
783.19	1722.34
783.36	1673.19
783.54	1677.29
783.72	1732.58
783.89	1619.94
784.07	1742.82
784.24	1742.82
784.42	1742.82
784.60	1710.05
784.77	1714.15
784.95	1607.66
785.12	1642.47
785.30	1730.53
785.47	1724.39
785.65	1695.72
785.83	1669.09
786.00	1671.14
786.18	1720.29
786.35	1710.05
786.53	1640.42
786.71	1742.82
786.88	1800.16
787.06	1755.11
787.23	1738.73
787.41	1648.61
787.58	1744.87
787.76	1640.42
787.94	1789.92
788.11	1683.43
788.29	1671.14
788.46	1699.81
788.64	1583.08
788.81	1722.34
788.99	1665.00
789.16	1714.15
789.34	1675.24
789.52	1691.62
789.69	1744.87
789.87	1562.60
790.04	1650.66
790.22	1599.46
790.39	1796.07
790.57	1585.13
790.74	1714.15
790.92	1730.53
791.09	1685.48
791.27	1755.11
791.44	1837.03
791.62	1708.01
791.79	1681.38
791.97	1736.68
792.15	1861.60
792.32	1644.52
792.50	1730.53
792.67	1853.41
792.85	1771.49
793.02	1771.49
793.20	1660.90
793.37	1611.75
793.55	1630.18
793.72	1654.76
793.90	1785.83
794.07	1630.18
794.25	1683.43
794.42	1746.92
794.60	1730.53
794.77	1675.24
794.95	1722.34
795.12	1744.87
795.30	1689.57
795.47	1665.00
795.65	1875.94
795.82	1675.24
796.00	1675.24
796.17	1734.63
796.34	1673.19
796.52	1714.15
796.69	1714.15
796.87	1773.54
797.04	1773.54
797.22	1773.54
797.39	1701.86
797.57	1773.54
797.74	1732.58
797.92	1636.33
798.09	1744.87
798.27	1722.34
798.44	1722.34
798.62	1652.71
798.79	1730.53
798.96	1853.41
799.14	1769.44
799.31	1787.88
799.49	1624.04
799.66	1718.25
799.84	1685.48
800.01	1558.50
800.19	1665.00
800.36	1554.41
800.53	1751.01
800.71	1746.92
800.88	1775.59
801.06	1667.05
801.23	1691.62
801.41	1693.67
801.58	1714.15
801.75	1578.98
801.93	1767.40
802.10	1746.92
802.28	1640.42
802.45	1710.05
802.63	1769.44
802.80	1714.15
802.97	1736.68
803.15	1687.53
803.32	1642.47
803.50	1652.71
803.67	1648.61
803.84	1597.42
804.02	1693.67
804.19	1644.52
804.37	1626.09
804.54	1701.86
804.71	1632.23
804.89	1767.40
805.06	1703.91
805.24	1697.77
805.41	1603.56
805.58	1662.95
805.76	1849.32
805.93	1708.01
806.10	1839.08
806.28	1689.57
806.45	1681.38
806.63	1748.97
806.80	1828.84
806.97	1796.07
807.15	1673.19
807.32	1767.40
807.49	1650.66
807.67	1689.57
807.84	1718.25
808.01	1660.90
808.19	1845.22
808.36	1751.01
808.54	1679.33
808.71	1716.20
808.88	1669.09
809.06	1740.77
809.23	1751.01
809.40	1638.38
809.58	1771.49
809.75	1662.95
809.92	1689.57
810.10	1918.95
810.27	1734.63
810.44	1697.77
810.62	1744.87
810.79	1681.38
810.96	1681.38
811.14	1648.61
811.31	1716.20
811.48	1740.77
811.66	1705.96
811.83	1808.36
812.00	1837.03
812.18	1703.91
812.35	1845.22
812.52	1716.20
812.69	1681.38
812.87	1710.05
813.04	1675.24
813.21	1691.62
813.39	1595.37
813.56	1654.76
813.73	1757.16
813.91	1619.94
814.08	1736.68
814.25	1699.81
814.42	1595.37
814.60	1716.20
814.77	1675.24
814.94	1632.23
815.12	1738.73
815.29	1761.25
815.46	1667.05
815.63	1718.25
815.81	1695.72
815.98	1703.91
816.15	1722.34
816.33	1695.72
816.50	1689.57
816.67	1650.66
816.84	1642.47
817.02	1722.34
817.19	1640.42
817.36	1708.01
817.53	1683.43
817.71	1650.66
817.88	1796.07
818.05	1679.33
818.22	1689.57
818.40	1759.21
818.57	1642.47
818.74	1732.58
818.91	1689.57
819.09	1738.73
819.26	1804.26
819.43	1695.72
819.60	1628.14
819.78	1779.68
819.95	1849.32
820.12	1673.19
820.29	1861.60
820.47	1789.92
820.64	1718.25
820.81	1646.57
820.98	1708.01
821.15	1621.99
821.33	1738.73
821.50	1597.42
821.67	1734.63
821.84	1648.61
822.02	1748.97
822.19	1820.64
822.36	1740.77
822.53	1695.72
822.70	1615.85
822.88	1701.86
823.05	1818.60
823.22	1699.81
823.39	1814.50
823.56	1656.81
823.74	1796.07
823.91	1654.76
824.08	1669.09
824.25	1685.48
824.42	1785.83
824.60	1621.99
824.77	1722.34
824.94	1673.19
825.11	1763.30
825.28	1644.52
825.45	1660.90
825.63	1730.53
825.80	1650.66
825.97	1710.05
826.14	1681.38
826.31	1660.90
826.48	1683.43
826.66	1621.99
826.83	1636.33
827.00	1683.43
827.17	1619.94
827.34	1701.86
827.51	1644.52
827.69	1619.94
827.86	1585.13
828.03	1656.81
828.20	1777.64
828.37	1654.76
828.54	1648.61
828.71	1738.73
828.89	1810.40
829.06	1712.10
829.23	1796.07
829.40	1632.23
829.57	1662.95
829.74	1796.07
829.91	1671.14
830.09	1648.61
830.26	1765.35
830.43	1785.83
830.60	1755.11
830.77	1742.82
830.94	1791.97
831.11	1796.07
831.28	1626.09
831.46	1763.30
831.63	1693.67
831.80	1695.72
831.97	1675.24
832.14	1619.94
832.31	1710.05
832.48	1730.53
832.65	1785.83
832.82	1716.20
832.99	1730.53
833.17	1605.61
833.34	1820.64
833.51	1705.96
833.68	1636.33
833.85	1742.82
834.02	1605.61
834.19	1734.63
834.36	1585.13
834.53	1802.21
834.70	1822.69
834.87	1785.83
835.04	1710.05
835.22	1654.76
835.39	1701.86
835.56	1621.99
835.73	1683.43
835.90	1779.68
836.07	1587.18
836.24	1765.35
836.41	1638.38
836.58	1691.62
836.75	1771.49
836.92	1771.49
837.09	1648.61
837.26	1724.39
837.43	1703.91
837.60	1789.92
837.77	1619.94
837.94	1705.96
838.12	1748.97
838.29	1771.49
838.46	1656.81
838.63	1591.27
838.80	1791.97
838.97	1679.33
839.14	1730.53
839.31	1806.31
839.48	1771.49
839.65	1722.34
839.82	1740.77
839.99	1677.29
840.16	1722.34
840.33	1644.52
840.50	1722.34
840.67	1759.21
840.84	1615.85
841.01	1669.09
841.18	1667.05
841.35	1714.15
841.52	1769.44
841.69	1849.32
841.86	1767.40
842.03	1722.34
842.20	1787.88
842.37	1716.20
842.54	1691.62
842.71	1712.10
842.88	1656.81
843.05	1802.21
843.22	1691.62
843.39	1755.11
843.56	1675.24
843.73	1740.77
843.90	1712.10
844.07	1771.49
844.24	1726.44
844.41	1767.40
844.58	1703.91
844.75	1734.63
844.92	1826.79
845.09	1689.57
845.26	1640.42
845.43	1748.97
845.60	1748.97
845.77	1757.16
845.94	1730.53
846.10	1701.86
846.27	1624.04
846.44	1691.62
846.61	1642.47
846.78	1703.91
846.95	1662.95
847.12	1726.44
847.29	1683.43
847.46	1710.05
847.63	1757.16
847.80	1726.44
847.97	1667.05
848.14	1781.73
848.31	1669.09
848.48	1619.94
848.65	1691.62
848.82	1646.57
848.98	1826.79
849.15	1751.01
849.32	1732.58
849.49	1732.58
849.66	1681.38
849.83	1654.76
850.00	1673.19
850.17	1865.70
850.34	1658.85
850.51	1734.63
850.68	1605.61
850.85	1810.40
851.01	1687.53
851.18	1714.15
851.35	1665.00
851.52	1685.48
851.69	1730.53
851.86	1566.70
852.03	1685.48
852.20	1734.63
852.37	1705.96
852.53	1654.76
852.70	1697.77
852.87	1689.57
853.04	1732.58
853.21	1681.38
853.38	1789.92
853.55	1708.01
853.72	1837.03
853.89	1644.52
854.05	1681.38
854.22	1697.77
854.39	1669.09
854.56	1705.96
854.73	1816.55
854.90	1636.33
855.07	1667.05
855.23	1642.47
855.40	1656.81
855.57	1687.53
855.74	1568.74
855.91	1826.79
856.08	1677.29
856.25	1603.56
856.41	1710.05
856.58	1798.12
856.75	1671.14
856.92	1689.57
857.09	1804.26
857.26	1642.47
857.42	1722.34
857.59	1785.83
857.76	1714.15
857.93	1767.40
858.10	1730.53
858.27	1677.29
858.43	1660.90
858.60	1607.66
858.77	1589.22
858.94	1695.72
859.11	1816.55
859.27	1630.18
859.44	1722.34
859.61	1769.44
859.78	1742.82
859.95	1703.91
860.12	1689.57
860.28	1808.36
860.45	1812.45
860.62	1708.01
860.79	1732.58
860.95	1726.44
861.12	1705.96
861.29	1679.33
861.46	1636.33
861.63	1646.57
861.79	1708.01
861.96	1665.00
862.13	1681.38
862.30	1779.68
862.47	1689.57
862.63	1667.05
862.80	1710.05
862.97	1716.20
863.14	1665.00
863.30	1699.81
863.47	1710.05
863.64	1757.16
863.81	1738.73
863.97	1660.90
864.14	1673.19
864.31	1671.14
864.48	1746.92
864.65	1697.77
864.81	1675.24
864.98	1730.53
865.15	1712.10
865.32	1800.16
865.48	1759.21
865.65	1806.31
865.82	1654.76
865.98	1718.25
866.15	1767.40
866.32	1689.57
866.49	1759.21
866.65	1779.68
866.82	1611.75
866.99	1695.72
867.16	1701.86
867.32	1679.33
867.49	1615.85
867.66	1708.01
867.83	1726.44
867.99	1607.66
868.16	1728.49
868.33	1636.33
868.49	1740.77
868.66	1714.15
868.83	1708.01
868.99	1751.01
869.16	1781.73
869.33	1730.53
869.50	1726.44
869.66	1726.44
869.83	1722.34
870.00	1626.09
870.16	1724.39
870.33	1681.38
870.50	1763.30
870.66	1687.53
870.83	1773.54
871.00	1746.92
871.17	1763.30
871.33	1667.05
871.50	1689.57
871.67	1722.34
871.83	1556.46
872.00	1798.12
872.17	1751.01
872.33	1779.68
872.50	1753.06
872.67	1703.91
872.83	1730.53
873.00	1755.11
873.17	1679.33
873.33	1677.29
873.50	1718.25
873.67	1609.70
873.83	1712.10
874.00	1710.05
874.16	1753.06
874.33	1720.29
874.50	1683.43
874.66	1777.64
874.83	1777.64
875.00	1744.87
875.16	1753.06
875.33	1863.65
875.50	1609.70
875.66	1687.53
875.83	1843.17
875.99	1763.30
876.16	1742.82
876.33	1630.18
876.49	1718.25
876.66	1806.31
876.83	1767.40
876.99	1656.81
877.16	1685.48
877.32	1767.40
877.49	1738.73
877.66	1726.44
877.82	1773.54
877.99	1621.99
878.15	1779.68
878.32	1691.62
878.49	1683.43
878.65	1683.43
878.82	1771.49
878.98	1746.92
879.15	1728.49
879.32	1712.10
879.48	1685.48
879.65	1697.77
879.81	1697.77
879.98	1691.62
880.15	1736.68
880.31	1718.25
880.48	1687.53
880.64	1701.86
880.81	1697.77
880.97	1718.25
881.14	1781.73
881.31	1673.19
881.47	1865.70
881.64	1632.23
881.80	1640.42
881.97	1742.82
882.13	1757.16
882.30	1628.14
882.47	1585.13
882.63	1634.28
882.80	1734.63
882.96	1695.72
883.13	1751.01
883.29	1665.00
883.46	1722.34
883.62	1826.79
883.79	1728.49
883.95	1753.06
884.12	1728.49
884.29	1716.20
884.45	1705.96
884.62	1728.49
884.78	1732.58
884.95	1798.12
885.11	1675.24
885.28	1718.25
885.44	1665.00
885.61	1683.43
885.77	1763.30
885.94	1699.81
886.10	1673.19
886.27	1689.57
886.43	1740.77
886.60	1800.16
886.76	1767.40
886.93	1650.66
887.09	1806.31
887.26	1533.93
887.42	1800.16
887.59	1761.25
887.75	1888.23
887.92	1755.11
888.08	1759.21
888.25	1787.88
888.41	1753.06
888.58	1705.96
888.74	1681.38
888.91	1669.09
>>>>>End Processed Spectral Data<<<<<
