SpectraSuite Data File
++++++++++++++++++++++++++++++++++++
Date: Mon Jun 06 17:05:57 CEST 2016
User: root
Dark Spectrum Present: No
Reference Spectrum Present: No
Number of Sampled Component Spectra: 1
Spectrometers: USB4C02835
Integration Time (usec): 100000 (USB4C02835)
Spectra Averaged: 1 (USB4C02835)
Boxcar Smoothing: 0 (USB4C02835)
Correct for Electrical Dark: No (USB4C02835)
Strobe/Lamp Enabled: No (USB4C02835)
Correct for Detector Non-linearity: No (USB4C02835)
Correct for Stray Light: No (USB4C02835)
Number of Pixels in Processed Spectrum: 3648
>>>>>Begin Processed Spectral Data<<<<<
177.47	1486.83
177.69	1486.83
177.91	1486.83
178.13	1472.49
178.36	1378.28
178.58	1714.15
178.80	1722.34
179.02	1697.77
179.24	1634.28
179.46	1587.18
179.68	1783.78
179.90	1701.86
180.13	1697.77
180.35	1656.81
180.57	1658.85
180.79	1755.11
181.01	1697.77
181.23	1703.91
181.45	1855.46
181.67	1691.62
181.90	1787.88
182.12	1591.27
182.34	1669.09
182.56	1740.77
182.78	1718.25
183.00	1671.14
183.22	1730.53
183.44	1611.75
183.66	1822.69
183.89	1753.06
184.11	1722.34
184.33	1718.25
184.55	1744.87
184.77	1744.87
184.99	1681.38
185.21	1705.96
185.43	1859.56
185.65	1650.66
185.87	1675.24
186.10	1832.93
186.32	1894.37
186.54	1757.16
186.76	1736.68
186.98	1828.84
187.20	1658.85
187.42	1716.20
187.64	1701.86
187.86	1738.73
188.08	1742.82
188.30	1660.90
188.52	1716.20
188.75	1775.59
188.97	1820.64
189.19	1665.00
189.41	1697.77
189.63	1742.82
189.85	1722.34
190.07	1619.94
190.29	1597.42
190.51	1734.63
190.73	1599.46
190.95	1814.50
191.17	1796.07
191.39	1646.57
191.61	1730.53
191.84	1757.16
192.06	1779.68
192.28	1601.51
192.50	1945.57
192.72	1718.25
192.94	1662.95
193.16	1701.86
193.38	1777.64
193.60	1642.47
193.82	1652.71
194.04	1726.44
194.26	1779.68
194.48	1654.76
194.70	1685.48
194.92	1722.34
195.14	1740.77
195.36	1691.62
195.58	1699.81
195.80	1693.67
196.02	1685.48
196.24	1728.49
196.46	1777.64
196.69	1701.86
196.91	1875.94
197.13	1724.39
197.35	1632.23
197.57	1759.21
197.79	1751.01
198.01	1755.11
198.23	1751.01
198.45	1724.39
198.67	1650.66
198.89	1660.90
199.11	1769.44
199.33	1652.71
199.55	1667.05
199.77	1832.93
199.99	1732.58
200.21	1716.20
200.43	1703.91
200.65	1677.29
200.87	1593.32
201.09	1728.49
201.31	1652.71
201.53	1722.34
201.75	1718.25
201.97	1689.57
202.19	1705.96
202.41	1755.11
202.63	1814.50
202.85	1738.73
203.07	1681.38
203.29	1665.00
203.51	1675.24
203.73	1581.03
203.95	1884.13
204.17	1730.53
204.39	1740.77
204.61	1720.29
204.83	1681.38
205.05	1726.44
205.27	1740.77
205.49	1812.45
205.71	1802.21
205.93	1662.95
206.15	1699.81
206.37	1771.49
206.59	1705.96
206.81	1615.85
207.03	1724.39
207.25	1665.00
207.47	1716.20
207.69	1675.24
207.91	1757.16
208.13	1759.21
208.34	1650.66
208.56	1658.85
208.78	1722.34
209.00	1683.43
209.22	1624.04
209.44	1679.33
209.66	1720.29
209.88	1765.35
210.10	1636.33
210.32	1693.67
210.54	1802.21
210.76	1683.43
210.98	1718.25
211.20	1585.13
211.42	1671.14
211.64	1843.17
211.86	1669.09
212.08	1740.77
212.30	1689.57
212.52	1689.57
212.74	1769.44
212.96	1763.30
213.17	1751.01
213.39	1736.68
213.61	1812.45
213.83	1714.15
214.05	1650.66
214.27	1712.10
214.49	1687.53
214.71	1689.57
214.93	1779.68
215.15	1685.48
215.37	1804.26
215.59	1630.18
215.81	1722.34
216.03	1787.88
216.24	1708.01
216.46	1654.76
216.68	1730.53
216.90	1710.05
217.12	1771.49
217.34	1722.34
217.56	1679.33
217.78	1802.21
218.00	1789.92
218.22	1693.67
218.44	1724.39
218.66	1699.81
218.87	1810.40
219.09	1638.38
219.31	1746.92
219.53	1734.63
219.75	1671.14
219.97	1695.72
220.19	1708.01
220.41	1701.86
220.63	1839.08
220.85	1775.59
221.06	1695.72
221.28	1755.11
221.50	1685.48
221.72	1712.10
221.94	1712.10
222.16	1677.29
222.38	1796.07
222.60	1740.77
222.82	1665.00
223.03	1748.97
223.25	1646.57
223.47	1791.97
223.69	1818.60
223.91	1714.15
224.13	1755.11
224.35	1677.29
224.57	1755.11
224.78	1748.97
225.00	1595.37
225.22	1685.48
225.44	1732.58
225.66	1789.92
225.88	1689.57
226.10	1722.34
226.32	1689.57
226.53	1787.88
226.75	1638.38
226.97	1687.53
227.19	1734.63
227.41	1681.38
227.63	1632.23
227.85	1656.81
228.06	1646.57
228.28	1689.57
228.50	1759.21
228.72	1724.39
228.94	1640.42
229.16	1665.00
229.37	1587.18
229.59	1679.33
229.81	1763.30
230.03	1720.29
230.25	1634.28
230.47	1652.71
230.69	1587.18
230.90	1783.78
231.12	1724.39
231.34	1695.72
231.56	1710.05
231.78	1564.65
232.00	1746.92
232.21	1751.01
232.43	1683.43
232.65	1597.42
232.87	1746.92
233.09	1669.09
233.30	1646.57
233.52	1701.86
233.74	1757.16
233.96	1681.38
234.18	1683.43
234.40	1658.85
234.61	1804.26
234.83	1574.89
235.05	1665.00
235.27	1869.80
235.49	1804.26
235.70	1722.34
235.92	1781.73
236.14	1759.21
236.36	1806.31
236.58	1548.26
236.79	1785.83
237.01	1644.52
237.23	1654.76
237.45	1812.45
237.67	1658.85
237.88	1679.33
238.10	1732.58
238.32	1701.86
238.54	1714.15
238.76	1677.29
238.97	1626.09
239.19	1691.62
239.41	1808.36
239.63	1730.53
239.85	1642.47
240.06	1705.96
240.28	1638.38
240.50	1785.83
240.72	1640.42
240.93	1681.38
241.15	1775.59
241.37	1701.86
241.59	1830.88
241.81	1693.67
242.02	1691.62
242.24	1718.25
242.46	1748.97
242.68	1718.25
242.89	1722.34
243.11	1791.97
243.33	1751.01
243.55	1701.86
243.76	1710.05
243.98	1673.19
244.20	1714.15
244.42	1710.05
244.64	1748.97
244.85	1632.23
245.07	1718.25
245.29	1705.96
245.51	1689.57
245.72	1681.38
245.94	1798.12
246.16	1699.81
246.38	1742.82
246.59	1759.21
246.81	1681.38
247.03	1681.38
247.24	1654.76
247.46	1687.53
247.68	1689.57
247.90	1730.53
248.11	1695.72
248.33	1759.21
248.55	1722.34
248.77	1769.44
248.98	1722.34
249.20	1796.07
249.42	1636.33
249.64	1736.68
249.85	1718.25
250.07	1660.90
250.29	1826.79
250.50	1800.16
250.72	1654.76
250.94	1693.67
251.16	1798.12
251.37	1751.01
251.59	1798.12
251.81	1701.86
252.02	1822.69
252.24	1675.24
252.46	1767.40
252.68	1685.48
252.89	1748.97
253.11	1576.94
253.33	1789.92
253.54	1757.16
253.76	1601.51
253.98	1714.15
254.20	1638.38
254.41	1607.66
254.63	1710.05
254.85	1705.96
255.06	1697.77
255.28	1693.67
255.50	1693.67
255.71	1705.96
255.93	1615.85
256.15	1728.49
256.36	1683.43
256.58	1681.38
256.80	1779.68
257.02	1648.61
257.23	1699.81
257.45	1652.71
257.67	1697.77
257.88	1705.96
258.10	1777.64
258.32	1712.10
258.53	1757.16
258.75	1746.92
258.97	1642.47
259.18	1759.21
259.40	1652.71
259.62	1882.08
259.83	1812.45
260.05	1703.91
260.27	2031.58
260.48	1796.07
260.70	1656.81
260.92	1673.19
261.13	1730.53
261.35	1687.53
261.57	1705.96
261.78	1546.22
262.00	1667.05
262.22	1775.59
262.43	1603.56
262.65	1726.44
262.86	1843.17
263.08	1865.70
263.30	1759.21
263.51	1652.71
263.73	1630.18
263.95	1834.98
264.16	1669.09
264.38	1656.81
264.60	1763.30
264.81	1658.85
265.03	1853.41
265.25	1742.82
265.46	1720.29
265.68	1828.84
265.89	1773.54
266.11	1693.67
266.33	1771.49
266.54	1787.88
266.76	1748.97
266.98	1785.83
267.19	1822.69
267.41	1775.59
267.62	1708.01
267.84	1628.14
268.06	1742.82
268.27	1732.58
268.49	1742.82
268.70	1734.63
268.92	1718.25
269.14	1632.23
269.35	1640.42
269.57	1718.25
269.79	1722.34
270.00	1642.47
270.22	1853.41
270.43	1714.15
270.65	1550.31
270.87	1759.21
271.08	1761.25
271.30	1826.79
271.51	1765.35
271.73	1755.11
271.95	1816.55
272.16	1726.44
272.38	1712.10
272.59	1693.67
272.81	1738.73
273.02	1708.01
273.24	1779.68
273.46	1751.01
273.67	1658.85
273.89	1716.20
274.10	1636.33
274.32	1779.68
274.54	1728.49
274.75	1718.25
274.97	1662.95
275.18	1695.72
275.40	1732.58
275.61	1740.77
275.83	1726.44
276.05	1609.70
276.26	1662.95
276.48	1804.26
276.69	1660.90
276.91	1669.09
277.12	1783.78
277.34	1738.73
277.55	1761.25
277.77	1695.72
277.99	1613.80
278.20	1652.71
278.42	1652.71
278.63	1677.29
278.85	1652.71
279.06	1601.51
279.28	1740.77
279.49	1738.73
279.71	1884.13
279.93	1695.72
280.14	1705.96
280.36	1667.05
280.57	1755.11
280.79	1728.49
281.00	1626.09
281.22	1697.77
281.43	1814.50
281.65	1615.85
281.86	1644.52
282.08	1726.44
282.29	1751.01
282.51	1644.52
282.73	1646.57
282.94	1619.94
283.16	1677.29
283.37	1744.87
283.59	1773.54
283.80	1708.01
284.02	1730.53
284.23	1783.78
284.45	1607.66
284.66	1646.57
284.88	1697.77
285.09	1767.40
285.31	1757.16
285.52	1771.49
285.74	1662.95
285.95	1742.82
286.17	1736.68
286.38	1744.87
286.60	1669.09
286.81	1716.20
287.03	1681.38
287.24	1722.34
287.46	1830.88
287.67	1806.31
287.89	1839.08
288.10	1730.53
288.32	1744.87
288.53	1777.64
288.75	1691.62
288.96	1751.01
289.18	1689.57
289.39	1712.10
289.61	1767.40
289.82	1818.60
290.04	1794.02
290.25	1646.57
290.47	1712.10
290.68	1722.34
290.90	1773.54
291.11	1615.85
291.33	1685.48
291.54	1685.48
291.76	1681.38
291.97	1726.44
292.18	1712.10
292.40	1716.20
292.61	1650.66
292.83	1787.88
293.04	1744.87
293.26	1742.82
293.47	1757.16
293.69	1732.58
293.90	1697.77
294.12	1755.11
294.33	1630.18
294.55	1775.59
294.76	1800.16
294.97	1734.63
295.19	1769.44
295.40	1644.52
295.62	1691.62
295.83	1777.64
296.05	1642.47
296.26	1734.63
296.48	1665.00
296.69	1677.29
296.90	1683.43
297.12	1761.25
297.33	1798.12
297.55	1732.58
297.76	1722.34
297.98	1751.01
298.19	1748.97
298.41	1714.15
298.62	1626.09
298.83	1826.79
299.05	1783.78
299.26	1638.38
299.48	1691.62
299.69	1665.00
299.90	1753.06
300.12	1710.05
300.33	1783.78
300.55	1705.96
300.76	1767.40
300.98	1597.42
301.19	1771.49
301.40	1695.72
301.62	1687.53
301.83	1777.64
302.05	1773.54
302.26	1736.68
302.47	1689.57
302.69	1615.85
302.90	1703.91
303.12	1650.66
303.33	1785.83
303.54	1839.08
303.76	1650.66
303.97	1716.20
304.19	1796.07
304.40	1708.01
304.61	1722.34
304.83	1816.55
305.04	1767.40
305.26	1802.21
305.47	1650.66
305.68	1783.78
305.90	1626.09
306.11	1732.58
306.33	1718.25
306.54	1669.09
306.75	1724.39
306.97	1695.72
307.18	1646.57
307.39	1675.24
307.61	1826.79
307.82	1736.68
308.04	1757.16
308.25	1720.29
308.46	1691.62
308.68	1726.44
308.89	1708.01
309.10	1816.55
309.32	1777.64
309.53	1779.68
309.74	1695.72
309.96	1724.39
310.17	1810.40
310.39	1665.00
310.60	1712.10
310.81	1755.11
311.03	1730.53
311.24	1740.77
311.45	1701.86
311.67	1818.60
311.88	1667.05
312.09	1695.72
312.31	1673.19
312.52	1730.53
312.73	1722.34
312.95	1636.33
313.16	1716.20
313.37	1804.26
313.59	1748.97
313.80	1736.68
314.01	1779.68
314.23	1699.81
314.44	1673.19
314.65	1624.04
314.87	1691.62
315.08	1705.96
315.29	1683.43
315.51	1660.90
315.72	1644.52
315.93	1890.28
316.15	1697.77
316.36	1720.29
316.57	1722.34
316.79	1781.73
317.00	1626.09
317.21	1753.06
317.43	1677.29
317.64	1640.42
317.85	1660.90
318.07	1644.52
318.28	1789.92
318.49	1736.68
318.70	1943.52
318.92	1822.69
319.13	1814.50
319.34	1955.81
319.56	1785.83
319.77	1800.16
319.98	1810.40
320.20	1796.07
320.41	1806.31
320.62	1748.97
320.83	1619.94
321.05	1832.93
321.26	1744.87
321.47	1789.92
321.69	1751.01
321.90	1687.53
322.11	1673.19
322.32	1769.44
322.54	1763.30
322.75	1710.05
322.96	1882.08
323.18	1630.18
323.39	1656.81
323.60	1636.33
323.81	1787.88
324.03	1712.10
324.24	1802.21
324.45	1769.44
324.66	1697.77
324.88	1806.31
325.09	1777.64
325.30	1734.63
325.52	1742.82
325.73	1705.96
325.94	1669.09
326.15	1683.43
326.37	1642.47
326.58	1794.02
326.79	1759.21
327.00	1673.19
327.22	1712.10
327.43	1658.85
327.64	1656.81
327.85	1724.39
328.07	1755.11
328.28	1802.21
328.49	1648.61
328.70	1738.73
328.92	1669.09
329.13	1679.33
329.34	1726.44
329.55	1826.79
329.76	1720.29
329.98	1703.91
330.19	1789.92
330.40	1738.73
330.61	1642.47
330.83	1691.62
331.04	1722.34
331.25	1667.05
331.46	1652.71
331.68	1599.46
331.89	1783.78
332.10	1679.33
332.31	1691.62
332.52	1695.72
332.74	1812.45
332.95	1681.38
333.16	1703.91
333.37	1724.39
333.58	1574.89
333.80	1683.43
334.01	1648.61
334.22	1722.34
334.43	1660.90
334.64	1642.47
334.86	1691.62
335.07	1617.90
335.28	1828.84
335.49	1519.59
335.70	1796.07
335.92	1791.97
336.13	1824.74
336.34	1791.97
336.55	1619.94
336.76	1714.15
336.98	1546.22
337.19	1705.96
337.40	1763.30
337.61	1898.47
337.82	1718.25
338.04	1767.40
338.25	1574.89
338.46	1732.58
338.67	1716.20
338.88	1722.34
339.09	1665.00
339.31	1650.66
339.52	1677.29
339.73	1611.75
339.94	1738.73
340.15	1714.15
340.36	1671.14
340.58	1724.39
340.79	1734.63
341.00	1601.51
341.21	1640.42
341.42	1798.12
341.63	1789.92
341.85	1710.05
342.06	1802.21
342.27	1609.70
342.48	1718.25
342.69	1613.80
342.90	1746.92
343.12	1753.06
343.33	1632.23
343.54	1771.49
343.75	1730.53
343.96	1683.43
344.17	1630.18
344.38	1710.05
344.60	1648.61
344.81	1699.81
345.02	1658.85
345.23	1757.16
345.44	1718.25
345.65	1771.49
345.86	1746.92
346.07	1740.77
346.29	1708.01
346.50	1787.88
346.71	1703.91
346.92	1728.49
347.13	1884.13
347.34	1650.66
347.55	1642.47
347.76	1699.81
347.98	1648.61
348.19	1685.48
348.40	1802.21
348.61	1691.62
348.82	1710.05
349.03	1720.29
349.24	1654.76
349.45	1820.64
349.66	1601.51
349.88	1656.81
350.09	1681.38
350.30	1742.82
350.51	1763.30
350.72	1759.21
350.93	1738.73
351.14	1710.05
351.35	1734.63
351.56	1691.62
351.77	1714.15
351.99	1679.33
352.20	1861.60
352.41	1771.49
352.62	1603.56
352.83	1710.05
353.04	1732.58
353.25	1701.86
353.46	1746.92
353.67	1763.30
353.88	1593.32
354.09	1765.35
354.30	1740.77
354.52	1699.81
354.73	1736.68
354.94	1685.48
355.15	1673.19
355.36	1843.17
355.57	1671.14
355.78	1701.86
355.99	1634.28
356.20	1697.77
356.41	1720.29
356.62	1644.52
356.83	1689.57
357.04	1789.92
357.25	1611.75
357.46	1699.81
357.68	1650.66
357.89	1673.19
358.10	1685.48
358.31	1708.01
358.52	1742.82
358.73	1593.32
358.94	1648.61
359.15	1652.71
359.36	1687.53
359.57	1763.30
359.78	1667.05
359.99	1724.39
360.20	1636.33
360.41	1712.10
360.62	1714.15
360.83	1724.39
361.04	1673.19
361.25	1777.64
361.46	1820.64
361.67	1781.73
361.88	1839.08
362.09	1730.53
362.30	1703.91
362.51	1712.10
362.72	1675.24
362.93	1714.15
363.14	1785.83
363.35	1769.44
363.56	1671.14
363.78	1802.21
363.99	1732.58
364.20	1744.87
364.41	1738.73
364.62	1763.30
364.83	1742.82
365.04	1705.96
365.25	1685.48
365.46	1724.39
365.67	1738.73
365.88	1619.94
366.09	1703.91
366.30	1673.19
366.51	1732.58
366.72	1673.19
366.93	1732.58
367.14	1736.68
367.35	1757.16
367.56	1697.77
367.77	1830.88
367.98	1773.54
368.18	1689.57
368.39	1732.58
368.60	1658.85
368.81	1730.53
369.02	1726.44
369.23	1734.63
369.44	1615.85
369.65	1644.52
369.86	1701.86
370.07	1751.01
370.28	1642.47
370.49	1703.91
370.70	1779.68
370.91	1642.47
371.12	1615.85
371.33	1703.91
371.54	1660.90
371.75	1796.07
371.96	1607.66
372.17	1781.73
372.38	1705.96
372.59	1814.50
372.80	1693.67
373.01	1705.96
373.22	1697.77
373.43	1724.39
373.64	1615.85
373.85	1748.97
374.06	1810.40
374.26	1685.48
374.47	1701.86
374.68	1820.64
374.89	1667.05
375.10	1597.42
375.31	1824.74
375.52	1699.81
375.73	1751.01
375.94	1644.52
376.15	1843.17
376.36	1748.97
376.57	1683.43
376.78	1730.53
376.99	1652.71
377.20	1753.06
377.40	1658.85
377.61	1759.21
377.82	1642.47
378.03	1787.88
378.24	1716.20
378.45	1781.73
378.66	1738.73
378.87	1640.42
379.08	1595.37
379.29	1685.48
379.50	1812.45
379.71	1677.29
379.91	1794.02
380.12	1730.53
380.33	1583.08
380.54	1701.86
380.75	1681.38
380.96	1624.04
381.17	1769.44
381.38	1781.73
381.59	1755.11
381.80	1705.96
382.00	1877.99
382.21	1665.00
382.42	1837.03
382.63	1830.88
382.84	1724.39
383.05	1767.40
383.26	1806.31
383.47	1759.21
383.68	1705.96
383.88	1720.29
384.09	1767.40
384.30	1775.59
384.51	1669.09
384.72	1652.71
384.93	1619.94
385.14	1726.44
385.35	1789.92
385.55	1665.00
385.76	1861.60
385.97	1687.53
386.18	1689.57
386.39	1697.77
386.60	1697.77
386.81	1714.15
387.02	1597.42
387.22	1589.22
387.43	1828.84
387.64	1783.78
387.85	1839.08
388.06	2271.20
388.27	4188.10
388.48	6707.10
388.68	8324.99
388.89	9670.51
389.10	9817.96
389.31	8570.75
389.52	7597.96
389.73	6690.71
389.93	6148.00
390.14	6043.56
390.35	5130.16
390.56	4550.59
390.77	3755.97
390.98	3067.86
391.18	2539.48
391.39	2125.79
391.60	1871.84
391.81	1832.93
392.02	1693.67
392.23	1877.99
392.43	1812.45
392.64	1746.92
392.85	1738.73
393.06	1828.84
393.27	1695.72
393.47	1634.28
393.68	1718.25
393.89	1746.92
394.10	1839.08
394.31	1718.25
394.52	1693.67
394.72	1667.05
394.93	1822.69
395.14	1681.38
395.35	1763.30
395.56	1683.43
395.76	1708.01
395.97	1775.59
396.18	1888.23
396.39	1808.36
396.60	1970.15
396.80	1888.23
397.01	1847.27
397.22	1882.08
397.43	1785.83
397.64	1763.30
397.84	1763.30
398.05	1841.12
398.26	1730.53
398.47	1853.41
398.67	1810.40
398.88	1722.34
399.09	1714.15
399.30	1685.48
399.51	1710.05
399.71	1617.90
399.92	1691.62
400.13	1753.06
400.34	1658.85
400.54	1701.86
400.75	1771.49
400.96	1679.33
401.17	1830.88
401.37	1748.97
401.58	1742.82
401.79	1710.05
402.00	1912.80
402.21	1998.82
402.41	1902.56
402.62	2033.63
402.83	1986.53
403.04	1945.57
403.24	2084.83
403.45	1841.12
403.66	1884.13
403.87	1834.98
404.07	1851.36
404.28	1953.76
404.49	1824.74
404.70	1757.16
404.90	1800.16
405.11	1677.29
405.32	1746.92
405.52	1660.90
405.73	1710.05
405.94	1669.09
406.15	1701.86
406.35	1744.87
406.56	1679.33
406.77	1746.92
406.98	1699.81
407.18	1718.25
407.39	1802.21
407.60	1650.66
407.80	1798.12
408.01	1638.38
408.22	1740.77
408.43	1626.09
408.63	1755.11
408.84	1771.49
409.05	1697.77
409.25	1638.38
409.46	1689.57
409.67	1576.94
409.88	1697.77
410.08	1783.78
410.29	1656.81
410.50	1746.92
410.70	1763.30
410.91	1738.73
411.12	1703.91
411.32	1734.63
411.53	1671.14
411.74	1777.64
411.95	1785.83
412.15	1759.21
412.36	1783.78
412.57	1759.21
412.77	1837.03
412.98	1728.49
413.19	1662.95
413.39	1759.21
413.60	1751.01
413.81	1796.07
414.01	1634.28
414.22	1718.25
414.43	1740.77
414.63	1714.15
414.84	1773.54
415.05	1722.34
415.25	1632.23
415.46	1718.25
415.67	1730.53
415.87	1748.97
416.08	1722.34
416.29	1714.15
416.49	1771.49
416.70	1732.58
416.91	1753.06
417.11	1701.86
417.32	1726.44
417.53	1665.00
417.73	1765.35
417.94	1697.77
418.15	1748.97
418.35	1710.05
418.56	1712.10
418.77	1900.52
418.97	1699.81
419.18	1683.43
419.38	1638.38
419.59	1636.33
419.80	1808.36
420.00	1697.77
420.21	1761.25
420.42	1755.11
420.62	1710.05
420.83	1658.85
421.04	1656.81
421.24	1687.53
421.45	1755.11
421.65	1722.34
421.86	1703.91
422.07	1759.21
422.27	1724.39
422.48	1679.33
422.69	1634.28
422.89	1742.82
423.10	1740.77
423.30	1665.00
423.51	1710.05
423.72	1656.81
423.92	1841.12
424.13	1636.33
424.33	1689.57
424.54	1769.44
424.75	1665.00
424.95	1808.36
425.16	1763.30
425.36	1695.72
425.57	1871.84
425.78	1730.53
425.98	1765.35
426.19	1697.77
426.39	1658.85
426.60	1820.64
426.81	1810.40
427.01	1728.49
427.22	1652.71
427.42	1566.70
427.63	1607.66
427.83	1765.35
428.04	1757.16
428.25	1726.44
428.45	1820.64
428.66	1767.40
428.86	1697.77
429.07	1683.43
429.28	1781.73
429.48	1765.35
429.69	1662.95
429.89	1693.67
430.10	1660.90
430.30	1683.43
430.51	1716.20
430.71	1648.61
430.92	1742.82
431.13	1671.14
431.33	1812.45
431.54	1712.10
431.74	1861.60
431.95	1859.56
432.15	1652.71
432.36	1699.81
432.56	1732.58
432.77	1751.01
432.98	1761.25
433.18	1685.48
433.39	1789.92
433.59	1693.67
433.80	1857.51
434.00	1861.60
434.21	1644.52
434.41	1685.48
434.62	1906.66
434.82	1646.57
435.03	1695.72
435.23	1761.25
435.44	1599.46
435.64	1701.86
435.85	1746.92
436.06	1830.88
436.26	1759.21
436.47	1826.79
436.67	1755.11
436.88	1716.20
437.08	1724.39
437.29	1771.49
437.49	1791.97
437.70	1806.31
437.90	1781.73
438.11	1845.22
438.31	1787.88
438.52	1908.71
438.72	1816.55
438.93	1865.70
439.13	1730.53
439.34	1834.98
439.54	1777.64
439.75	1822.69
439.95	1755.11
440.16	1826.79
440.36	1804.26
440.57	1787.88
440.77	1800.16
440.98	1740.77
441.18	1753.06
441.39	1683.43
441.59	1660.90
441.80	1873.89
442.00	1746.92
442.21	1759.21
442.41	1656.81
442.62	1763.30
442.82	1726.44
443.02	1773.54
443.23	1796.07
443.43	1611.75
443.64	1837.03
443.84	1650.66
444.05	1728.49
444.25	1701.86
444.46	1769.44
444.66	1730.53
444.87	1837.03
445.07	1609.70
445.28	1775.59
445.48	1753.06
445.69	1816.55
445.89	1869.80
446.09	1837.03
446.30	2004.96
446.50	2711.51
446.71	3663.82
446.91	4329.41
447.12	4714.42
447.32	4810.68
447.53	4392.89
447.73	3938.24
447.93	3590.09
448.14	3483.59
448.34	3239.89
448.55	3043.28
448.75	2889.68
448.96	2725.85
449.16	2394.08
449.36	2324.44
449.57	2150.37
449.77	1882.08
449.98	1818.60
450.18	1804.26
450.39	1894.37
450.59	1796.07
450.79	1746.92
451.00	1726.44
451.20	1708.01
451.41	1740.77
451.61	1789.92
451.81	1845.22
452.02	1726.44
452.22	1765.35
452.43	1726.44
452.63	1740.77
452.84	1699.81
453.04	1728.49
453.24	1757.16
453.45	1710.05
453.65	1687.53
453.86	1767.40
454.06	1740.77
454.26	1789.92
454.47	1665.00
454.67	1834.98
454.87	1755.11
455.08	1761.25
455.28	1888.23
455.49	1824.74
455.69	1660.90
455.89	1888.23
456.10	1859.56
456.30	1705.96
456.51	1769.44
456.71	1751.01
456.91	1796.07
457.12	1699.81
457.32	1802.21
457.52	1703.91
457.73	1787.88
457.93	1820.64
458.14	1730.53
458.34	1646.57
458.54	1728.49
458.75	1734.63
458.95	1818.60
459.15	1740.77
459.36	1814.50
459.56	1701.86
459.76	1822.69
459.97	1767.40
460.17	1718.25
460.37	1804.26
460.58	1716.20
460.78	1738.73
460.99	1761.25
461.19	1714.15
461.39	1734.63
461.60	1802.21
461.80	1785.83
462.00	1685.48
462.21	1804.26
462.41	1701.86
462.61	1660.90
462.82	1646.57
463.02	1783.78
463.22	1693.67
463.43	1757.16
463.63	1814.50
463.83	1804.26
464.04	1681.38
464.24	1667.05
464.44	1697.77
464.64	1722.34
464.85	1779.68
465.05	1800.16
465.25	1763.30
465.46	1712.10
465.66	1808.36
465.86	1802.21
466.07	1703.91
466.27	1755.11
466.47	1703.91
466.68	1650.66
466.88	1798.12
467.08	1812.45
467.29	1816.55
467.49	1746.92
467.69	1777.64
467.89	1751.01
468.10	1703.91
468.30	1732.58
468.50	1777.64
468.71	1765.35
468.91	1714.15
469.11	1826.79
469.31	1726.44
469.52	1701.86
469.72	1849.32
469.92	1873.89
470.13	1677.29
470.33	1728.49
470.53	1882.08
470.73	2129.89
470.94	2183.13
471.14	2383.84
471.34	2445.27
471.54	2457.56
471.75	2308.06
471.95	2086.88
472.15	2033.63
472.36	2058.21
472.56	2082.78
472.76	2060.26
472.96	1982.43
473.17	1888.23
473.37	1931.23
473.57	1828.84
473.77	1808.36
473.98	1732.58
474.18	1757.16
474.38	1941.47
474.58	1693.67
474.79	1728.49
474.99	1748.97
475.19	1787.88
475.39	1714.15
475.60	1826.79
475.80	1685.48
476.00	1726.44
476.20	1736.68
476.41	1714.15
476.61	1791.97
476.81	1814.50
477.01	1734.63
477.21	1914.85
477.42	1804.26
477.62	1720.29
477.82	1796.07
478.02	1683.43
478.23	1824.74
478.43	1654.76
478.63	1728.49
478.83	1683.43
479.03	1785.83
479.24	1800.16
479.44	1834.98
479.64	1642.47
479.84	1507.30
480.04	1691.62
480.25	1765.35
480.45	1761.25
480.65	1720.29
480.85	1804.26
481.06	1667.05
481.26	1753.06
481.46	1787.88
481.66	1781.73
481.86	1689.57
482.06	1798.12
482.27	1693.67
482.47	1759.21
482.67	1675.24
482.87	1714.15
483.07	1771.49
483.28	1767.40
483.48	1683.43
483.68	1675.24
483.88	1667.05
484.08	1621.99
484.29	1687.53
484.49	1695.72
484.69	1642.47
484.89	1746.92
485.09	1781.73
485.29	1796.07
485.50	1755.11
485.70	1712.10
485.90	1765.35
486.10	1697.77
486.30	1748.97
486.50	1808.36
486.71	1695.72
486.91	1705.96
487.11	1687.53
487.31	1609.70
487.51	1703.91
487.71	1705.96
487.91	1644.52
488.12	1658.85
488.32	1550.31
488.52	1689.57
488.72	1595.37
488.92	1728.49
489.12	1828.84
489.32	1824.74
489.53	1751.01
489.73	1601.51
489.93	1824.74
490.13	1660.90
490.33	1628.14
490.53	1730.53
490.73	1757.16
490.94	1656.81
491.14	1808.36
491.34	1855.46
491.54	2213.85
491.74	2549.72
491.94	2895.83
492.14	3076.05
492.34	3084.24
492.54	2875.35
492.75	2543.58
492.95	2500.57
493.15	2320.35
493.35	2258.91
493.55	2303.96
493.75	2181.09
493.95	2138.08
494.15	1927.14
494.35	1951.71
494.56	1853.41
494.76	1820.64
494.96	1824.74
495.16	1804.26
495.36	1783.78
495.56	1748.97
495.76	1718.25
495.96	1630.18
496.16	1685.48
496.36	1826.79
496.56	1689.57
496.77	1714.15
496.97	1796.07
497.17	1910.75
497.37	1656.81
497.57	1759.21
497.77	1671.14
497.97	1718.25
498.17	1765.35
498.37	1738.73
498.57	1710.05
498.77	1652.71
498.97	1812.45
499.17	1865.70
499.38	1701.86
499.58	1826.79
499.78	1751.01
499.98	1900.52
500.18	1730.53
500.38	1650.66
500.58	2013.15
500.78	2609.11
500.98	4548.54
501.18	5945.25
501.38	6811.54
501.58	7235.47
501.78	6782.87
501.98	5496.75
502.18	5003.19
502.38	4530.11
502.58	4231.10
502.78	3809.22
502.98	3745.73
503.18	3405.77
503.38	3176.40
503.59	2873.30
503.79	2650.07
503.99	2459.61
504.19	2408.41
504.39	2263.01
504.59	2166.75
504.79	2117.60
504.99	2000.87
505.19	1914.85
505.39	1994.72
505.59	1955.81
505.79	1841.12
505.99	1873.89
506.19	1869.80
506.39	1910.75
506.59	1656.81
506.79	1748.97
506.99	1826.79
507.19	1771.49
507.39	1820.64
507.59	1693.67
507.79	1771.49
507.99	1726.44
508.19	1662.95
508.39	1716.20
508.59	1734.63
508.79	1822.69
508.99	1851.36
509.19	1693.67
509.39	1816.55
509.59	1689.57
509.79	1724.39
509.99	1757.16
510.19	1779.68
510.39	1877.99
510.59	1751.01
510.79	1740.77
510.99	1689.57
511.19	1771.49
511.39	1826.79
511.59	1802.21
511.79	1810.40
511.99	1769.44
512.19	1871.84
512.38	1781.73
512.58	1714.15
512.78	1740.77
512.98	1779.68
513.18	1751.01
513.38	1720.29
513.58	1732.58
513.78	1716.20
513.98	1716.20
514.18	1697.77
514.38	1720.29
514.58	1824.74
514.78	1669.09
514.98	1675.24
515.18	1783.78
515.38	1699.81
515.58	1861.60
515.78	1742.82
515.98	1677.29
516.18	1818.60
516.38	1738.73
516.57	1660.90
516.77	1748.97
516.97	1740.77
517.17	1660.90
517.37	1662.95
517.57	1753.06
517.77	1724.39
517.97	1744.87
518.17	1761.25
518.37	1650.66
518.57	1660.90
518.77	1751.01
518.97	1714.15
519.16	1730.53
519.36	1810.40
519.56	1648.61
519.76	1732.58
519.96	1697.77
520.16	1789.92
520.36	1658.85
520.56	1800.16
520.76	1714.15
520.96	1671.14
521.16	1902.56
521.35	1796.07
521.55	1781.73
521.75	1746.92
521.95	1660.90
522.15	1665.00
522.35	1628.14
522.55	1751.01
522.75	1818.60
522.95	1695.72
523.14	1677.29
523.34	1734.63
523.54	1710.05
523.74	1804.26
523.94	1804.26
524.14	1615.85
524.34	1736.68
524.54	1818.60
524.73	1708.01
524.93	1800.16
525.13	1691.62
525.33	1767.40
525.53	1931.23
525.73	1742.82
525.93	1722.34
526.13	1617.90
526.32	1796.07
526.52	1806.31
526.72	1802.21
526.92	1689.57
527.12	1773.54
527.32	1679.33
527.52	1730.53
527.71	1740.77
527.91	1699.81
528.11	1755.11
528.31	1802.21
528.51	1708.01
528.71	1740.77
528.90	1810.40
529.10	1849.32
529.30	1822.69
529.50	1667.05
529.70	1720.29
529.90	1722.34
530.09	1820.64
530.29	1763.30
530.49	1736.68
530.69	1810.40
530.89	1791.97
531.09	1759.21
531.28	1789.92
531.48	1820.64
531.68	1740.77
531.88	1714.15
532.08	1714.15
532.28	1658.85
532.47	1808.36
532.67	1796.07
532.87	1785.83
533.07	1665.00
533.27	1798.12
533.46	1755.11
533.66	1736.68
533.86	1740.77
534.06	1712.10
534.26	1816.55
534.45	1763.30
534.65	1867.75
534.85	1810.40
535.05	1667.05
535.25	1748.97
535.44	1736.68
535.64	1779.68
535.84	1681.38
536.04	1791.97
536.24	1724.39
536.43	1732.58
536.63	1726.44
536.83	1699.81
537.03	1705.96
537.22	1677.29
537.42	1617.90
537.62	1765.35
537.82	1699.81
538.02	1794.02
538.21	1837.03
538.41	1890.28
538.61	1751.01
538.81	1748.97
539.00	1826.79
539.20	1667.05
539.40	1726.44
539.60	1693.67
539.79	1730.53
539.99	1736.68
540.19	1697.77
540.39	1808.36
540.58	1708.01
540.78	1869.80
540.98	1697.77
541.18	1677.29
541.37	1810.40
541.57	1705.96
541.77	1794.02
541.97	1673.19
542.16	1701.86
542.36	1708.01
542.56	1808.36
542.76	1861.60
542.95	1748.97
543.15	1732.58
543.35	1718.25
543.54	1679.33
543.74	1703.91
543.94	1787.88
544.14	1685.48
544.33	1730.53
544.53	1796.07
544.73	1771.49
544.93	1775.59
545.12	1781.73
545.32	1714.15
545.52	1693.67
545.71	1640.42
545.91	1714.15
546.11	1765.35
546.30	1689.57
546.50	1773.54
546.70	1699.81
546.90	1789.92
547.09	1650.66
547.29	1740.77
547.49	1824.74
547.68	1699.81
547.88	1701.86
548.08	1736.68
548.27	2226.14
548.47	1665.00
548.67	1736.68
548.87	1857.51
549.06	1767.40
549.26	1818.60
549.46	1722.34
549.65	1718.25
549.85	1800.16
550.05	1716.20
550.24	1658.85
550.44	1712.10
550.64	1736.68
550.83	1722.34
551.03	1796.07
551.23	1824.74
551.42	1822.69
551.62	1722.34
551.82	1738.73
552.01	1730.53
552.21	1781.73
552.41	1755.11
552.60	1865.70
552.80	1806.31
553.00	1802.21
553.19	1748.97
553.39	1806.31
553.59	1746.92
553.78	1785.83
553.98	1730.53
554.17	1652.71
554.37	1757.16
554.57	1794.02
554.76	1761.25
554.96	1642.47
555.16	1812.45
555.35	1710.05
555.55	1740.77
555.75	1834.98
555.94	1722.34
556.14	1722.34
556.33	1742.82
556.53	1718.25
556.73	1746.92
556.92	1748.97
557.12	1837.03
557.32	1845.22
557.51	1794.02
557.71	1861.60
557.90	1796.07
558.10	1841.12
558.30	1654.76
558.49	1699.81
558.69	1732.58
558.88	1800.16
559.08	1746.92
559.28	1695.72
559.47	1789.92
559.67	1787.88
559.86	1873.89
560.06	1689.57
560.26	1712.10
560.45	1767.40
560.65	1753.06
560.84	1804.26
561.04	1703.91
561.24	1728.49
561.43	1791.97
561.63	1861.60
561.82	1816.55
562.02	1824.74
562.22	1589.22
562.41	1685.48
562.61	1716.20
562.80	1691.62
563.00	1920.99
563.19	1755.11
563.39	1822.69
563.59	1718.25
563.78	1679.33
563.98	1677.29
564.17	1710.05
564.37	1630.18
564.56	1673.19
564.76	1726.44
564.96	1861.60
565.15	1714.15
565.35	1894.37
565.54	1703.91
565.74	1757.16
565.93	1773.54
566.13	1802.21
566.32	1710.05
566.52	1796.07
566.71	1759.21
566.91	1763.30
567.11	1757.16
567.30	1681.38
567.50	1816.55
567.69	1746.92
567.89	1640.42
568.08	1730.53
568.28	1742.82
568.47	1681.38
568.67	1779.68
568.86	1751.01
569.06	1765.35
569.25	1751.01
569.45	1679.33
569.64	1683.43
569.84	1746.92
570.04	1804.26
570.23	1695.72
570.43	1656.81
570.62	1748.97
570.82	1839.08
571.01	1718.25
571.21	1687.53
571.40	1705.96
571.60	1812.45
571.79	1734.63
571.99	1751.01
572.18	1705.96
572.38	1841.12
572.57	1742.82
572.77	1802.21
572.96	1865.70
573.16	1794.02
573.35	1705.96
573.55	1837.03
573.74	1857.51
573.94	1730.53
574.13	1703.91
574.33	1839.08
574.52	1785.83
574.71	1746.92
574.91	1712.10
575.10	1640.42
575.30	1712.10
575.49	1683.43
575.69	1673.19
575.88	1785.83
576.08	1730.53
576.27	1746.92
576.47	1742.82
576.66	1849.32
576.86	1839.08
577.05	1763.30
577.25	1781.73
577.44	1855.46
577.64	1734.63
577.83	1845.22
578.02	1714.15
578.22	1849.32
578.41	1857.51
578.61	1740.77
578.80	1654.76
579.00	1738.73
579.19	1681.38
579.39	1818.60
579.58	1849.32
579.77	1789.92
579.97	1847.27
580.16	1853.41
580.36	1771.49
580.55	1841.12
580.75	1738.73
580.94	1751.01
581.13	1863.65
581.33	1877.99
581.52	1802.21
581.72	1839.08
581.91	1845.22
582.11	1687.53
582.30	1767.40
582.49	1738.73
582.69	1808.36
582.88	1802.21
583.08	1800.16
583.27	1759.21
583.47	1791.97
583.66	1773.54
583.85	1708.01
584.05	1710.05
584.24	1804.26
584.44	1718.25
584.63	1828.84
584.82	1861.60
585.02	1861.60
585.21	1804.26
585.41	1777.64
585.60	1816.55
585.79	1951.71
585.99	1894.37
586.18	1863.65
586.37	2211.81
586.57	3393.48
586.76	9901.93
586.96	24530.57
587.15	34504.18
587.34	40654.23
587.54	42003.84
587.73	36808.14
587.93	26220.14
588.12	21475.00
588.31	18255.59
588.51	16469.76
588.70	15023.90
588.89	14075.69
589.09	12529.47
589.28	10938.20
589.47	9381.74
589.67	8005.51
589.86	6436.77
590.06	5003.19
590.25	3985.35
590.44	3049.43
590.64	2607.06
590.83	2244.57
591.02	2131.94
591.22	1939.43
591.41	1927.14
591.60	1849.32
591.80	1959.91
591.99	1759.21
592.18	1728.49
592.38	1847.27
592.57	1744.87
592.76	1787.88
592.96	1769.44
593.15	1785.83
593.34	1886.18
593.54	1738.73
593.73	1857.51
593.92	1843.17
594.12	1720.29
594.31	1812.45
594.50	1839.08
594.70	1789.92
594.89	1865.70
595.08	1675.24
595.28	1798.12
595.47	1914.85
595.66	1796.07
595.86	1718.25
596.05	1779.68
596.24	1732.58
596.43	1830.88
596.63	1845.22
596.82	1767.40
597.01	1732.58
597.21	1849.32
597.40	1714.15
597.59	1693.67
597.79	1771.49
597.98	1791.97
598.17	1730.53
598.36	1738.73
598.56	1869.80
598.75	1732.58
598.94	1714.15
599.14	1714.15
599.33	1720.29
599.52	1804.26
599.71	1773.54
599.91	1759.21
600.10	1751.01
600.29	1789.92
600.48	1736.68
600.68	1820.64
600.87	1818.60
601.06	1726.44
601.26	1748.97
601.45	1685.48
601.64	1736.68
601.83	1830.88
602.03	1789.92
602.22	1679.33
602.41	1794.02
602.60	1898.47
602.80	1808.36
602.99	1736.68
603.18	1730.53
603.37	1781.73
603.57	1732.58
603.76	1812.45
603.95	1791.97
604.14	1740.77
604.34	1710.05
604.53	1773.54
604.72	1738.73
604.91	1759.21
605.10	1802.21
605.30	1634.28
605.49	1869.80
605.68	1800.16
605.87	1759.21
606.07	1685.48
606.26	1693.67
606.45	1759.21
606.64	1726.44
606.84	1732.58
607.03	1673.19
607.22	1748.97
607.41	1755.11
607.60	1693.67
607.80	1779.68
607.99	1724.39
608.18	1734.63
608.37	1691.62
608.56	1642.47
608.76	1816.55
608.95	1857.51
609.14	1742.82
609.33	1740.77
609.52	1810.40
609.72	1691.62
609.91	1732.58
610.10	1740.77
610.29	1789.92
610.48	1779.68
610.68	1705.96
610.87	1691.62
611.06	1775.59
611.25	1783.78
611.44	1748.97
611.63	1644.52
611.83	1861.60
612.02	1691.62
612.21	1796.07
612.40	1626.09
612.59	1703.91
612.79	1652.71
612.98	1740.77
613.17	1849.32
613.36	1753.06
613.55	1781.73
613.74	1660.90
613.93	1708.01
614.13	1757.16
614.32	1806.31
614.51	1771.49
614.70	1665.00
614.89	1705.96
615.08	1849.32
615.28	2066.40
615.47	1703.91
615.66	1701.86
615.85	1763.30
616.04	1777.64
616.23	1730.53
616.42	1697.77
616.62	1804.26
616.81	1759.21
617.00	1742.82
617.19	1748.97
617.38	1763.30
617.57	1773.54
617.76	1740.77
617.95	1816.55
618.15	1804.26
618.34	1814.50
618.53	1636.33
618.72	1734.63
618.91	1781.73
619.10	1785.83
619.29	1781.73
619.48	1701.86
619.68	1576.94
619.87	1736.68
620.06	1693.67
620.25	1746.92
620.44	1740.77
620.63	1755.11
620.82	1759.21
621.01	1787.88
621.20	1669.09
621.39	1755.11
621.59	1638.38
621.78	1660.90
621.97	1681.38
622.16	1798.12
622.35	1644.52
622.54	1757.16
622.73	1794.02
622.92	1720.29
623.11	1798.12
623.30	1710.05
623.49	1701.86
623.68	1658.85
623.88	1820.64
624.07	1763.30
624.26	1730.53
624.45	1746.92
624.64	1695.72
624.83	1701.86
625.02	1697.77
625.21	1708.01
625.40	1708.01
625.59	1761.25
625.78	1730.53
625.97	1791.97
626.16	1814.50
626.35	1794.02
626.54	1746.92
626.74	1824.74
626.93	1705.96
627.12	1736.68
627.31	1802.21
627.50	1769.44
627.69	1777.64
627.88	1691.62
628.07	1804.26
628.26	1624.04
628.45	1726.44
628.64	1720.29
628.83	1695.72
629.02	1673.19
629.21	1732.58
629.40	1708.01
629.59	1626.09
629.78	1654.76
629.97	1712.10
630.16	1681.38
630.35	1693.67
630.54	1738.73
630.73	1746.92
630.92	1740.77
631.11	1611.75
631.30	1720.29
631.49	1742.82
631.68	1794.02
631.87	1703.91
632.06	1636.33
632.25	1861.60
632.44	1730.53
632.63	1654.76
632.82	1691.62
633.01	1683.43
633.20	1763.30
633.39	1710.05
633.58	1624.04
633.77	1738.73
633.96	1810.40
634.15	1736.68
634.34	1781.73
634.53	1703.91
634.72	1730.53
634.91	1611.75
635.10	1701.86
635.29	1714.15
635.48	1685.48
635.67	1734.63
635.86	1691.62
636.05	1824.74
636.24	1753.06
636.43	1798.12
636.62	1769.44
636.81	1624.04
637.00	1716.20
637.19	1652.71
637.38	1783.78
637.57	1691.62
637.76	1695.72
637.95	1720.29
638.14	1624.04
638.33	1695.72
638.52	1742.82
638.71	1691.62
638.89	1652.71
639.08	1853.41
639.27	1789.92
639.46	1726.44
639.65	1830.88
639.84	1771.49
640.03	1763.30
640.22	1787.88
640.41	1867.75
640.60	1650.66
640.79	1738.73
640.98	1669.09
641.17	1736.68
641.36	1712.10
641.55	1730.53
641.74	1538.02
641.92	1658.85
642.11	1757.16
642.30	1681.38
642.49	1732.58
642.68	1679.33
642.87	1746.92
643.06	1810.40
643.25	1746.92
643.44	1675.24
643.63	1757.16
643.82	1761.25
644.00	1681.38
644.19	1656.81
644.38	1624.04
644.57	1718.25
644.76	1736.68
644.95	1742.82
645.14	1751.01
645.33	1777.64
645.52	1746.92
645.71	1746.92
645.89	1705.96
646.08	1730.53
646.27	1648.61
646.46	1855.46
646.65	1660.90
646.84	1667.05
647.03	1654.76
647.22	1777.64
647.40	1767.40
647.59	1695.72
647.78	1642.47
647.97	1728.49
648.16	1656.81
648.35	1736.68
648.54	1820.64
648.73	1693.67
648.91	1673.19
649.10	1804.26
649.29	1748.97
649.48	1712.10
649.67	1718.25
649.86	1757.16
650.05	1689.57
650.23	1822.69
650.42	1697.77
650.61	1828.84
650.80	1759.21
650.99	1769.44
651.18	1757.16
651.36	1748.97
651.55	1775.59
651.74	1796.07
651.93	1746.92
652.12	1656.81
652.31	1728.49
652.49	1732.58
652.68	1728.49
652.87	1849.32
653.06	1708.01
653.25	1796.07
653.44	1671.14
653.62	1857.51
653.81	1660.90
654.00	1695.72
654.19	1738.73
654.38	1871.84
654.56	1681.38
654.75	1761.25
654.94	1855.46
655.13	1726.44
655.32	1791.97
655.51	1755.11
655.69	1746.92
655.88	1681.38
656.07	1597.42
656.26	1757.16
656.45	1667.05
656.63	1761.25
656.82	1746.92
657.01	1751.01
657.20	1656.81
657.38	1841.12
657.57	1626.09
657.76	1597.42
657.95	1724.39
658.14	1675.24
658.32	1755.11
658.51	1662.95
658.70	1742.82
658.89	1718.25
659.08	1734.63
659.26	1800.16
659.45	1771.49
659.64	1759.21
659.83	1652.71
660.01	1830.88
660.20	1773.54
660.39	1800.16
660.58	1603.56
660.76	1724.39
660.95	1648.61
661.14	1665.00
661.33	1621.99
661.51	1648.61
661.70	1736.68
661.89	1789.92
662.08	1759.21
662.26	1650.66
662.45	1652.71
662.64	1804.26
662.83	1753.06
663.01	1675.24
663.20	1644.52
663.39	1871.84
663.58	1710.05
663.76	1728.49
663.95	1814.50
664.14	1730.53
664.32	1714.15
664.51	1611.75
664.70	1624.04
664.89	1791.97
665.07	1726.44
665.26	1777.64
665.45	1644.52
665.64	1726.44
665.82	1722.34
666.01	1798.12
666.20	1656.81
666.38	1812.45
666.57	1783.78
666.76	2277.34
666.95	4390.84
667.13	10495.84
667.32	15390.49
667.51	17868.53
667.69	19289.82
667.88	17852.14
668.07	12574.53
668.25	9512.81
668.44	8155.01
668.63	7497.61
668.81	6776.73
669.00	6248.35
669.19	5738.41
669.38	5126.07
669.56	4632.51
669.75	4040.64
669.94	3563.47
670.12	2942.93
670.31	2500.57
670.50	2365.40
670.68	2168.80
670.87	1898.47
671.06	1847.27
671.24	1783.78
671.43	1796.07
671.62	1759.21
671.80	1652.71
671.99	1736.68
672.18	1783.78
672.36	1783.78
672.55	1761.25
672.74	1701.86
672.92	1669.09
673.11	1759.21
673.29	1679.33
673.48	1820.64
673.67	1671.14
673.85	1779.68
674.04	1763.30
674.23	1794.02
674.41	1929.19
674.60	1652.71
674.79	1671.14
674.97	1746.92
675.16	1800.16
675.34	1800.16
675.53	1687.53
675.72	1816.55
675.90	1851.36
676.09	1691.62
676.28	1640.42
676.46	1632.23
676.65	1755.11
676.83	1683.43
677.02	1716.20
677.21	1724.39
677.39	1742.82
677.58	1632.23
677.77	1726.44
677.95	1693.67
678.14	1740.77
678.32	1652.71
678.51	1738.73
678.70	1851.36
678.88	1712.10
679.07	1763.30
679.25	1671.14
679.44	1669.09
679.63	1644.52
679.81	1755.11
680.00	1810.40
680.18	1705.96
680.37	1796.07
680.55	1697.77
680.74	1726.44
680.93	1619.94
681.11	1775.59
681.30	1644.52
681.48	1757.16
681.67	1689.57
681.85	1722.34
682.04	1681.38
682.23	1812.45
682.41	1740.77
682.60	1697.77
682.78	1832.93
682.97	1634.28
683.15	1724.39
683.34	1722.34
683.53	1765.35
683.71	1636.33
683.90	1820.64
684.08	1851.36
684.27	1658.85
684.45	1746.92
684.64	1800.16
684.82	1669.09
685.01	1695.72
685.19	1699.81
685.38	1857.51
685.57	1722.34
685.75	1679.33
685.94	1748.97
686.12	1679.33
686.31	1761.25
686.49	1828.84
686.68	1568.74
686.86	1746.92
687.05	1697.77
687.23	1748.97
687.42	1734.63
687.60	1634.28
687.79	1800.16
687.97	1818.60
688.16	1763.30
688.34	1832.93
688.53	1689.57
688.71	1708.01
688.90	1730.53
689.08	1638.38
689.27	1626.09
689.45	1794.02
689.64	1769.44
689.82	1744.87
690.01	1722.34
690.19	1789.92
690.38	1732.58
690.56	1755.11
690.75	1732.58
690.93	1644.52
691.12	1652.71
691.30	1732.58
691.49	1693.67
691.67	1679.33
691.86	1871.84
692.04	1648.61
692.23	1748.97
692.41	1740.77
692.60	1806.31
692.78	1726.44
692.97	1644.52
693.15	1722.34
693.34	1853.41
693.52	1726.44
693.71	1683.43
693.89	1716.20
694.08	1656.81
694.26	1771.49
694.44	1800.16
694.63	1701.86
694.81	1691.62
695.00	1712.10
695.18	1757.16
695.37	1873.89
695.55	1800.16
695.74	1746.92
695.92	1679.33
696.10	1720.29
696.29	1665.00
696.47	1708.01
696.66	1667.05
696.84	1757.16
697.03	1724.39
697.21	1847.27
697.40	2263.01
697.58	1832.93
697.76	1748.97
697.95	1675.24
698.13	1687.53
698.32	1681.38
698.50	1669.09
698.68	1798.12
698.87	1748.97
699.05	1783.78
699.24	1693.67
699.42	1699.81
699.61	1669.09
699.79	1714.15
699.97	1701.86
700.16	1673.19
700.34	1681.38
700.53	1697.77
700.71	1826.79
700.89	1718.25
701.08	1755.11
701.26	1695.72
701.45	2074.59
701.63	1599.46
701.81	1660.90
702.00	1736.68
702.18	1701.86
702.37	1630.18
702.55	1767.40
702.73	1771.49
702.92	1669.09
703.10	1681.38
703.28	1705.96
703.47	1648.61
703.65	1781.73
703.84	1773.54
704.02	1669.09
704.20	1738.73
704.39	1658.85
704.57	1705.96
704.75	1783.78
704.94	1828.84
705.12	1779.68
705.30	1732.58
705.49	2217.95
705.67	4421.56
705.86	9326.45
706.04	12564.29
706.22	14386.98
706.41	15394.58
706.59	13793.07
706.77	9766.76
706.96	7337.87
707.14	6684.57
707.32	5928.87
707.51	5515.18
707.69	4884.41
707.87	4298.69
708.06	3610.57
708.24	3008.47
708.42	2465.75
708.61	2328.54
708.79	1945.57
708.97	1927.14
709.16	1759.21
709.34	1789.92
709.52	1791.97
709.71	1726.44
709.89	1814.50
710.07	1652.71
710.26	1708.01
710.44	1714.15
710.62	1701.86
710.80	1714.15
710.99	1806.31
711.17	1771.49
711.35	1685.48
711.54	1708.01
711.72	1859.56
711.90	1708.01
712.09	1652.71
712.27	1703.91
712.45	1744.87
712.63	1673.19
712.82	1740.77
713.00	1701.86
713.18	1757.16
713.37	1787.88
713.55	1804.26
713.73	1746.92
713.91	1763.30
714.10	1730.53
714.28	1753.06
714.46	1683.43
714.65	1759.21
714.83	1746.92
715.01	1714.15
715.19	1671.14
715.38	1669.09
715.56	1703.91
715.74	1718.25
715.92	1724.39
716.11	1765.35
716.29	1617.90
716.47	1599.46
716.65	1693.67
716.84	1607.66
717.02	1742.82
717.20	1589.22
717.38	1673.19
717.57	1757.16
717.75	1722.34
717.93	1660.90
718.11	1771.49
718.30	1718.25
718.48	1726.44
718.66	1761.25
718.84	1751.01
719.03	1753.06
719.21	1640.42
719.39	1697.77
719.57	1742.82
719.75	1781.73
719.94	1703.91
720.12	1677.29
720.30	1714.15
720.48	1785.83
720.67	1671.14
720.85	1669.09
721.03	1658.85
721.21	1650.66
721.39	1763.30
721.58	1710.05
721.76	1705.96
721.94	1730.53
722.12	1734.63
722.30	1843.17
722.49	1656.81
722.67	1763.30
722.85	1730.53
723.03	1613.80
723.21	1689.57
723.40	1763.30
723.58	1730.53
723.76	1740.77
723.94	1720.29
724.12	1757.16
724.30	1744.87
724.49	1746.92
724.67	1570.79
724.85	1861.60
725.03	1583.08
725.21	1783.78
725.40	1841.12
725.58	1669.09
725.76	1771.49
725.94	1685.48
726.12	1679.33
726.30	1687.53
726.49	1695.72
726.67	1652.71
726.85	1767.40
727.03	1746.92
727.21	2162.66
727.39	2942.93
727.57	3870.66
727.76	4210.62
727.94	4394.94
728.12	4417.47
728.30	3706.82
728.48	3006.42
728.66	2766.81
728.84	2590.68
729.03	2385.88
729.21	2185.18
729.39	2025.44
729.57	1820.64
729.75	1808.36
729.93	1875.94
730.11	1705.96
730.30	1763.30
730.48	1669.09
730.66	1787.88
730.84	1783.78
731.02	1748.97
731.20	1695.72
731.38	1720.29
731.56	1671.14
731.74	1705.96
731.93	1732.58
732.11	1693.67
732.29	1771.49
732.47	1730.53
732.65	1779.68
732.83	1824.74
733.01	1740.77
733.19	1689.57
733.37	1736.68
733.56	1748.97
733.74	1708.01
733.92	1820.64
734.10	1669.09
734.28	1773.54
734.46	1595.37
734.64	1710.05
734.82	1681.38
735.00	1695.72
735.18	1658.85
735.36	1685.48
735.54	1703.91
735.73	1716.20
735.91	1681.38
736.09	1769.44
736.27	1740.77
736.45	1824.74
736.63	1656.81
736.81	1703.91
736.99	1748.97
737.17	1773.54
737.35	1673.19
737.53	1693.67
737.71	1744.87
737.89	1816.55
738.07	1589.22
738.25	1658.85
738.43	1626.09
738.61	1726.44
738.80	1665.00
738.98	1599.46
739.16	1771.49
739.34	1687.53
739.52	1728.49
739.70	1734.63
739.88	1771.49
740.06	1783.78
740.24	1574.89
740.42	1728.49
740.60	1703.91
740.78	1665.00
740.96	1654.76
741.14	1636.33
741.32	1824.74
741.50	1628.14
741.68	1769.44
741.86	1802.21
742.04	1697.77
742.22	1755.11
742.40	1763.30
742.58	1738.73
742.76	1714.15
742.94	1755.11
743.12	1624.04
743.30	1697.77
743.48	1746.92
743.66	1724.39
743.84	1798.12
744.02	1669.09
744.20	1699.81
744.38	1673.19
744.56	1603.56
744.74	1820.64
744.92	1714.15
745.10	1804.26
745.28	1796.07
745.46	1824.74
745.64	1738.73
745.82	1851.36
746.00	1714.15
746.18	1746.92
746.36	1591.27
746.54	1646.57
746.72	1691.62
746.90	1671.14
747.08	1779.68
747.26	1722.34
747.44	1748.97
747.62	1697.77
747.80	1796.07
747.98	1714.15
748.15	1628.14
748.33	1806.31
748.51	1714.15
748.69	1748.97
748.87	1693.67
749.05	1613.80
749.23	1632.23
749.41	1712.10
749.59	1681.38
749.77	1722.34
749.95	1708.01
750.13	1730.53
750.31	1753.06
750.49	1667.05
750.67	1748.97
750.85	1789.92
751.03	1779.68
751.20	1847.27
751.38	1732.58
751.56	1746.92
751.74	1673.19
751.92	1660.90
752.10	1634.28
752.28	1781.73
752.46	1648.61
752.64	1765.35
752.82	1718.25
753.00	1769.44
753.18	1712.10
753.35	1710.05
753.53	1697.77
753.71	1644.52
753.89	1728.49
754.07	1703.91
754.25	1746.92
754.43	1681.38
754.61	1667.05
754.79	1705.96
754.97	1710.05
755.14	1814.50
755.32	1667.05
755.50	1673.19
755.68	1787.88
755.86	1701.86
756.04	1716.20
756.22	1656.81
756.40	1839.08
756.57	1918.95
756.75	1783.78
756.93	1759.21
757.11	1755.11
757.29	1679.33
757.47	1644.52
757.65	1691.62
757.82	1667.05
758.00	1615.85
758.18	1605.61
758.36	1638.38
758.54	1828.84
758.72	1572.84
758.90	1701.86
759.07	1693.67
759.25	1642.47
759.43	1738.73
759.61	1630.18
759.79	2240.48
759.97	1765.35
760.15	1691.62
760.32	1660.90
760.50	1675.24
760.68	1691.62
760.86	1691.62
761.04	1781.73
761.22	1773.54
761.39	1789.92
761.57	1693.67
761.75	1656.81
761.93	1712.10
762.11	1724.39
762.28	1761.25
762.46	1654.76
762.64	1744.87
762.82	1679.33
763.00	1771.49
763.18	1710.05
763.35	1587.18
763.53	1796.07
763.71	1685.48
763.89	1740.77
764.07	1665.00
764.24	1794.02
764.42	1730.53
764.60	1695.72
764.78	1748.97
764.96	1757.16
765.13	1697.77
765.31	1724.39
765.49	1636.33
765.67	1665.00
765.84	1650.66
766.02	1693.67
766.20	1687.53
766.38	1693.67
766.56	1720.29
766.73	1808.36
766.91	1734.63
767.09	1726.44
767.27	1761.25
767.44	1611.75
767.62	1755.11
767.80	1757.16
767.98	1652.71
768.15	1718.25
768.33	1736.68
768.51	1691.62
768.69	1695.72
768.87	1810.40
769.04	1665.00
769.22	1906.66
769.40	1767.40
769.58	1845.22
769.75	1648.61
769.93	1820.64
770.11	1662.95
770.28	1665.00
770.46	1761.25
770.64	1705.96
770.82	1669.09
770.99	1675.24
771.17	1726.44
771.35	1671.14
771.53	1708.01
771.70	1691.62
771.88	1746.92
772.06	1665.00
772.23	1656.81
772.41	1767.40
772.59	1724.39
772.77	1687.53
772.94	1652.71
773.12	1789.92
773.30	1652.71
773.47	1748.97
773.65	1675.24
773.83	1775.59
774.01	1712.10
774.18	1685.48
774.36	1773.54
774.54	1683.43
774.71	1746.92
774.89	1581.03
775.07	1660.90
775.24	1640.42
775.42	1697.77
775.60	1839.08
775.78	1658.85
775.95	1583.08
776.13	1529.83
776.31	1570.79
776.48	1734.63
776.66	1785.83
776.84	1673.19
777.01	1730.53
777.19	1714.15
777.37	1701.86
777.54	1708.01
777.72	1837.03
777.90	1722.34
778.07	1656.81
778.25	1877.99
778.43	1785.83
778.60	1632.23
778.78	1751.01
778.96	1812.45
779.13	1665.00
779.31	1753.06
779.49	1718.25
779.66	1732.58
779.84	1673.19
780.01	1720.29
780.19	1624.04
780.37	1732.58
780.54	1724.39
780.72	1732.58
780.90	1693.67
781.07	1765.35
781.25	1624.04
781.43	1781.73
781.60	1687.53
781.78	1771.49
781.95	1773.54
782.13	1595.37
782.31	1703.91
782.48	1607.66
782.66	1675.24
782.83	1783.78
783.01	1662.95
783.19	1761.25
783.36	1644.52
783.54	1658.85
783.72	1726.44
783.89	1701.86
784.07	1710.05
784.24	1624.04
784.42	1769.44
784.60	1705.96
784.77	1712.10
784.95	1570.79
785.12	1615.85
785.30	1759.21
785.47	1652.71
785.65	1687.53
785.83	1753.06
786.00	1695.72
786.18	1701.86
786.35	1650.66
786.53	1769.44
786.71	1753.06
786.88	1687.53
787.06	1609.70
787.23	1740.77
787.41	1609.70
787.58	1708.01
787.76	1724.39
787.94	1751.01
788.11	1726.44
788.29	1628.14
788.46	1689.57
788.64	1724.39
788.81	1751.01
788.99	1724.39
789.16	1601.51
789.34	1755.11
789.52	1615.85
789.69	1722.34
789.87	1572.84
790.04	1732.58
790.22	1740.77
790.39	1738.73
790.57	1681.38
790.74	1652.71
790.92	1724.39
791.09	1665.00
791.27	1708.01
791.44	1834.98
791.62	1648.61
791.79	1757.16
791.97	1662.95
792.15	1865.70
792.32	1763.30
792.50	1787.88
792.67	1785.83
792.85	1787.88
793.02	1656.81
793.20	1697.77
793.37	1613.80
793.55	1726.44
793.72	1681.38
793.90	1816.55
794.07	1677.29
794.25	1675.24
794.42	1755.11
794.60	1746.92
794.77	1734.63
794.95	1697.77
795.12	1763.30
795.30	1617.90
795.47	1615.85
795.65	1808.36
795.82	1832.93
796.00	1667.05
796.17	1712.10
796.34	1648.61
796.52	1667.05
796.69	1701.86
796.87	1722.34
797.04	1736.68
797.22	1841.12
797.39	1736.68
797.57	1708.01
797.74	1714.15
797.92	1716.20
798.09	1650.66
798.27	1824.74
798.44	1751.01
798.62	1681.38
798.79	1691.62
798.96	1687.53
799.14	1646.57
799.31	1880.04
799.49	1652.71
799.66	1705.96
799.84	1669.09
800.01	1654.76
800.19	1732.58
800.36	1648.61
800.53	1628.14
800.71	1689.57
800.88	1718.25
801.06	1642.47
801.23	1695.72
801.41	1714.15
801.58	1708.01
801.75	1624.04
801.93	1689.57
802.10	1755.11
802.28	1638.38
802.45	1755.11
802.63	1755.11
802.80	1794.02
802.97	1720.29
803.15	1734.63
803.32	1681.38
803.50	1669.09
803.67	1681.38
803.84	1658.85
804.02	1685.48
804.19	1669.09
804.37	1533.93
804.54	1593.32
804.71	1679.33
804.89	1783.78
805.06	1638.38
805.24	1648.61
805.41	1693.67
805.58	1744.87
805.76	1914.85
805.93	1708.01
806.10	1779.68
806.28	1763.30
806.45	1648.61
806.63	1687.53
806.80	1771.49
806.97	1746.92
807.15	1791.97
807.32	1677.29
807.49	1708.01
807.67	1619.94
807.84	1779.68
808.01	1632.23
808.19	1857.51
808.36	1802.21
808.54	1701.86
808.71	1695.72
808.88	1693.67
809.06	1683.43
809.23	1753.06
809.40	1615.85
809.58	1714.15
809.75	1687.53
809.92	1712.10
810.10	1841.12
810.27	1716.20
810.44	1673.19
810.62	1822.69
810.79	1722.34
810.96	1697.77
811.14	1744.87
811.31	1736.68
811.48	1689.57
811.66	1734.63
811.83	1748.97
812.00	1787.88
812.18	1765.35
812.35	1822.69
812.52	1681.38
812.69	1730.53
812.87	1681.38
813.04	1673.19
813.21	1603.56
813.39	1673.19
813.56	1632.23
813.73	1751.01
813.91	1605.61
814.08	1662.95
814.25	1669.09
814.42	1665.00
814.60	1742.82
814.77	1718.25
814.94	1771.49
815.12	1699.81
815.29	1779.68
815.46	1669.09
815.63	1734.63
815.81	1701.86
815.98	1681.38
816.15	1671.14
816.33	1732.58
816.50	1656.81
816.67	1605.61
816.84	1689.57
817.02	1613.80
817.19	1708.01
817.36	1685.48
817.53	1705.96
817.71	1681.38
817.88	1722.34
818.05	1728.49
818.22	1722.34
818.40	1726.44
818.57	1738.73
818.74	1685.48
818.91	1675.24
819.09	1724.39
819.26	1763.30
819.43	1753.06
819.60	1662.95
819.78	1714.15
819.95	1789.92
820.12	1677.29
820.29	1740.77
820.47	1738.73
820.64	1660.90
820.81	1636.33
820.98	1714.15
821.15	1656.81
821.33	1837.03
821.50	1650.66
821.67	1763.30
821.84	1716.20
822.02	1798.12
822.19	1849.32
822.36	1650.66
822.53	1648.61
822.70	1628.14
822.88	1665.00
823.05	1740.77
823.22	1722.34
823.39	1732.58
823.56	1681.38
823.74	1810.40
823.91	1691.62
824.08	1613.80
824.25	1648.61
824.42	1822.69
824.60	1593.32
824.77	1771.49
824.94	1656.81
825.11	1763.30
825.28	1665.00
825.45	1718.25
825.63	1628.14
825.80	1683.43
825.97	1710.05
826.14	1699.81
826.31	1628.14
826.48	1757.16
826.66	1710.05
826.83	1691.62
827.00	1652.71
827.17	1646.57
827.34	1603.56
827.51	1687.53
827.69	1724.39
827.86	1656.81
828.03	1705.96
828.20	1734.63
828.37	1712.10
828.54	1701.86
828.71	1605.61
828.89	1730.53
829.06	1751.01
829.23	1761.25
829.40	1673.19
829.57	1624.04
829.74	1761.25
829.91	1695.72
830.09	1742.82
830.26	1761.25
830.43	1773.54
830.60	1665.00
830.77	1742.82
830.94	1798.12
831.11	1761.25
831.28	1669.09
831.46	1781.73
831.63	1640.42
831.80	1802.21
831.97	1652.71
832.14	1636.33
832.31	1748.97
832.48	1806.31
832.65	1738.73
832.82	1740.77
832.99	1677.29
833.17	1589.22
833.34	1757.16
833.51	1646.57
833.68	1621.99
833.85	1771.49
834.02	1693.67
834.19	1660.90
834.36	1628.14
834.53	1712.10
834.70	1791.97
834.87	1687.53
835.04	1683.43
835.22	1574.89
835.39	1611.75
835.56	1611.75
835.73	1650.66
835.90	1730.53
836.07	1677.29
836.24	1779.68
836.41	1640.42
836.58	1677.29
836.75	1796.07
836.92	1771.49
837.09	1656.81
837.26	1775.59
837.43	1732.58
837.60	1796.07
837.77	1699.81
837.94	1759.21
838.12	1818.60
838.29	1730.53
838.46	1648.61
838.63	1689.57
838.80	1818.60
838.97	1665.00
839.14	1669.09
839.31	1669.09
839.48	1695.72
839.65	1648.61
839.82	1722.34
839.99	1730.53
840.16	1712.10
840.33	1679.33
840.50	1800.16
840.67	1691.62
840.84	1638.38
841.01	1677.29
841.18	1708.01
841.35	1665.00
841.52	1734.63
841.69	1791.97
841.86	1734.63
842.03	1728.49
842.20	1722.34
842.37	1656.81
842.54	1699.81
842.71	1673.19
842.88	1632.23
843.05	1775.59
843.22	1624.04
843.39	1697.77
843.56	1697.77
843.73	1716.20
843.90	1708.01
844.07	1718.25
844.24	1785.83
844.41	1738.73
844.58	1712.10
844.75	1748.97
844.92	1781.73
845.09	1726.44
845.26	1646.57
845.43	1759.21
845.60	1656.81
845.77	1738.73
845.94	1742.82
846.10	1710.05
846.27	1609.70
846.44	1640.42
846.61	1652.71
846.78	1712.10
846.95	1818.60
847.12	1675.24
847.29	1691.62
847.46	1538.02
847.63	1722.34
847.80	1701.86
847.97	1685.48
848.14	1843.17
848.31	1720.29
848.48	1648.61
848.65	1681.38
848.82	1658.85
848.98	1826.79
849.15	1779.68
849.32	1800.16
849.49	1677.29
849.66	1673.19
849.83	1765.35
850.00	1662.95
850.17	1697.77
850.34	1783.78
850.51	1669.09
850.68	1679.33
850.85	1808.36
851.01	1812.45
851.18	1650.66
851.35	1665.00
851.52	1724.39
851.69	1789.92
851.86	1609.70
852.03	1722.34
852.20	1734.63
852.37	1689.57
852.53	1533.93
852.70	1675.24
852.87	1763.30
853.04	1771.49
853.21	1724.39
853.38	1777.64
853.55	1710.05
853.72	1779.68
853.89	1658.85
854.05	1695.72
854.22	1716.20
854.39	1656.81
854.56	1771.49
854.73	1738.73
854.90	1714.15
855.07	1689.57
855.23	1665.00
855.40	1705.96
855.57	1746.92
855.74	1660.90
855.91	1892.32
856.08	1587.18
856.25	1626.09
856.41	1669.09
856.58	1619.94
856.75	1728.49
856.92	1599.46
857.09	1806.31
857.26	1693.67
857.42	1677.29
857.59	1765.35
857.76	1677.29
857.93	1724.39
858.10	1712.10
858.27	1699.81
858.43	1652.71
858.60	1654.76
858.77	1619.94
858.94	1746.92
859.11	1851.36
859.27	1708.01
859.44	1738.73
859.61	1771.49
859.78	1742.82
859.95	1605.61
860.12	1738.73
860.28	1826.79
860.45	1746.92
860.62	1611.75
860.79	1755.11
860.95	1654.76
861.12	1660.90
861.29	1679.33
861.46	1609.70
861.63	1718.25
861.79	1744.87
861.96	1761.25
862.13	1634.28
862.30	1730.53
862.47	1699.81
862.63	1658.85
862.80	1767.40
862.97	1691.62
863.14	1824.74
863.30	1718.25
863.47	1658.85
863.64	1685.48
863.81	1665.00
863.97	1654.76
864.14	1722.34
864.31	1685.48
864.48	1730.53
864.65	1660.90
864.81	1808.36
864.98	1720.29
865.15	1716.20
865.32	1738.73
865.48	1746.92
865.65	1710.05
865.82	1648.61
865.98	1759.21
866.15	1761.25
866.32	1775.59
866.49	1789.92
866.65	1724.39
866.82	1603.56
866.99	1695.72
867.16	1779.68
867.32	1730.53
867.49	1732.58
867.66	1755.11
867.83	1658.85
867.99	1679.33
868.16	1722.34
868.33	1656.81
868.49	1726.44
868.66	1662.95
868.83	1751.01
868.99	1816.55
869.16	1765.35
869.33	1791.97
869.50	1839.08
869.66	1689.57
869.83	1757.16
870.00	1734.63
870.16	1695.72
870.33	1701.86
870.50	1787.88
870.66	1675.24
870.83	1798.12
871.00	1724.39
871.17	1771.49
871.33	1691.62
871.50	1658.85
871.67	1767.40
871.83	1681.38
872.00	1802.21
872.17	1701.86
872.33	1753.06
872.50	1757.16
872.67	1640.42
872.83	1701.86
873.00	1730.53
873.17	1701.86
873.33	1775.59
873.50	1738.73
873.67	1675.24
873.83	1689.57
874.00	1667.05
874.16	1757.16
874.33	1642.47
874.50	1705.96
874.66	1738.73
874.83	1701.86
875.00	1759.21
875.16	1820.64
875.33	1767.40
875.50	1558.50
875.66	1669.09
875.83	1673.19
875.99	1744.87
876.16	1716.20
876.33	1693.67
876.49	1720.29
876.66	1804.26
876.83	1638.38
876.99	1636.33
877.16	1710.05
877.32	1718.25
877.49	1671.14
877.66	1757.16
877.82	1761.25
877.99	1800.16
878.15	1746.92
878.32	1687.53
878.49	1689.57
878.65	1689.57
878.82	1779.68
878.98	1746.92
879.15	1712.10
879.32	1765.35
879.48	1697.77
879.65	1724.39
879.81	1652.71
879.98	1685.48
880.15	1656.81
880.31	1695.72
880.48	1609.70
880.64	1769.44
880.81	1773.54
880.97	1839.08
881.14	1791.97
881.31	1601.51
881.47	1865.70
881.64	1703.91
881.80	1658.85
881.97	1660.90
882.13	1830.88
882.30	1656.81
882.47	1603.56
882.63	1718.25
882.80	1691.62
882.96	1652.71
883.13	1794.02
883.29	1689.57
883.46	1701.86
883.62	1783.78
883.79	1730.53
883.95	1744.87
884.12	1642.47
884.29	1808.36
884.45	1728.49
884.62	1783.78
884.78	1724.39
884.95	1761.25
885.11	1607.66
885.28	1621.99
885.44	1683.43
885.61	1736.68
885.77	1718.25
885.94	1763.30
886.10	1681.38
886.27	1685.48
886.43	1730.53
886.60	1722.34
886.76	1675.24
886.93	1671.14
887.09	1683.43
887.26	1624.04
887.42	1654.76
887.59	1777.64
887.75	1789.92
887.92	1673.19
888.08	1708.01
888.25	1773.54
888.41	1806.31
888.58	1738.73
888.74	1646.57
888.91	1603.56
>>>>>End Processed Spectral Data<<<<<
