SpectraSuite Data File
++++++++++++++++++++++++++++++++++++
Date: Mon Jun 06 12:49:37 CEST 2016
User: root
Dark Spectrum Present: No
Reference Spectrum Present: No
Number of Sampled Component Spectra: 1
Spectrometers: USB4C02835
Integration Time (usec): 100000 (USB4C02835)
Spectra Averaged: 1 (USB4C02835)
Boxcar Smoothing: 0 (USB4C02835)
Correct for Electrical Dark: No (USB4C02835)
Strobe/Lamp Enabled: No (USB4C02835)
Correct for Detector Non-linearity: No (USB4C02835)
Correct for Stray Light: No (USB4C02835)
Number of Pixels in Processed Spectrum: 3648
>>>>>Begin Processed Spectral Data<<<<<
177.47	1529.83
177.69	1529.83
177.91	1529.83
178.13	1486.83
178.36	1460.20
178.58	1572.84
178.80	1708.01
179.02	1574.89
179.24	1675.24
179.46	1787.88
179.68	1730.53
179.90	1683.43
180.13	1757.16
180.35	1689.57
180.57	1648.61
180.79	1730.53
181.01	1755.11
181.23	1791.97
181.45	1789.92
181.67	1708.01
181.90	1714.15
182.12	1665.00
182.34	1630.18
182.56	1724.39
182.78	1748.97
183.00	1652.71
183.22	1714.15
183.44	1589.22
183.66	1867.75
183.89	1841.12
184.11	1665.00
184.33	1716.20
184.55	1681.38
184.77	1800.16
184.99	1724.39
185.21	1697.77
185.43	1849.32
185.65	1742.82
185.87	1755.11
186.10	1845.22
186.32	1927.14
186.54	1769.44
186.76	1667.05
186.98	1710.05
187.20	1630.18
187.42	1691.62
187.64	1683.43
187.86	1701.86
188.08	1671.14
188.30	1626.09
188.52	1699.81
188.75	1847.27
188.97	1695.72
189.19	1714.15
189.41	1675.24
189.63	1671.14
189.85	1683.43
190.07	1642.47
190.29	1640.42
190.51	1714.15
190.73	1671.14
190.95	1765.35
191.17	1738.73
191.39	1640.42
191.61	1607.66
191.84	1619.94
192.06	1718.25
192.28	1691.62
192.50	1910.75
192.72	1695.72
192.94	1710.05
193.16	1755.11
193.38	1738.73
193.60	1636.33
193.82	1732.58
194.04	1605.61
194.26	1779.68
194.48	1665.00
194.70	1683.43
194.92	1642.47
195.14	1699.81
195.36	1630.18
195.58	1691.62
195.80	1619.94
196.02	1665.00
196.24	1685.48
196.46	1648.61
196.69	1683.43
196.91	1820.64
197.13	1683.43
197.35	1644.52
197.57	1773.54
197.79	1691.62
198.01	1726.44
198.23	1761.25
198.45	1726.44
198.67	1609.70
198.89	1683.43
199.11	1757.16
199.33	1646.57
199.55	1587.18
199.77	1691.62
199.99	1857.51
200.21	1636.33
200.43	1779.68
200.65	1607.66
200.87	1576.94
201.09	1710.05
201.31	1695.72
201.53	1699.81
201.75	1738.73
201.97	1681.38
202.19	1779.68
202.41	1742.82
202.63	1814.50
202.85	1724.39
203.07	1744.87
203.29	1685.48
203.51	1619.94
203.73	1574.89
203.95	1845.22
204.17	1728.49
204.39	1708.01
204.61	1648.61
204.83	1748.97
205.05	1726.44
205.27	1730.53
205.49	1865.70
205.71	1673.19
205.93	1560.55
206.15	1687.53
206.37	1802.21
206.59	1701.86
206.81	1650.66
207.03	1642.47
207.25	1636.33
207.47	1839.08
207.69	1763.30
207.91	1832.93
208.13	1771.49
208.34	1611.75
208.56	1675.24
208.78	1740.77
209.00	1695.72
209.22	1613.80
209.44	1572.84
209.66	1644.52
209.88	1615.85
210.10	1701.86
210.32	1658.85
210.54	1775.59
210.76	1701.86
210.98	1644.52
211.20	1648.61
211.42	1697.77
211.64	1789.92
211.86	1697.77
212.08	1701.86
212.30	1681.38
212.52	1708.01
212.74	1660.90
212.96	1728.49
213.17	1689.57
213.39	1675.24
213.61	1697.77
213.83	1687.53
214.05	1632.23
214.27	1769.44
214.49	1665.00
214.71	1572.84
214.93	1757.16
215.15	1615.85
215.37	1789.92
215.59	1570.79
215.81	1693.67
216.03	1763.30
216.24	1669.09
216.46	1619.94
216.68	1716.20
216.90	1757.16
217.12	1738.73
217.34	1673.19
217.56	1714.15
217.78	1832.93
218.00	1730.53
218.22	1667.05
218.44	1691.62
218.66	1681.38
218.87	1787.88
219.09	1658.85
219.31	1728.49
219.53	1755.11
219.75	1683.43
219.97	1740.77
220.19	1724.39
220.41	1726.44
220.63	1757.16
220.85	1779.68
221.06	1665.00
221.28	1802.21
221.50	1744.87
221.72	1671.14
221.94	1677.29
222.16	1681.38
222.38	1867.75
222.60	1759.21
222.82	1658.85
223.03	1679.33
223.25	1644.52
223.47	1683.43
223.69	1798.12
223.91	1718.25
224.13	1730.53
224.35	1665.00
224.57	1656.81
224.78	1771.49
225.00	1626.09
225.22	1642.47
225.44	1720.29
225.66	1736.68
225.88	1656.81
226.10	1650.66
226.32	1689.57
226.53	1779.68
226.75	1724.39
226.97	1615.85
227.19	1722.34
227.41	1658.85
227.63	1632.23
227.85	1607.66
228.06	1722.34
228.28	1652.71
228.50	1710.05
228.72	1658.85
228.94	1626.09
229.16	1638.38
229.37	1648.61
229.59	1695.72
229.81	1767.40
230.03	1609.70
230.25	1595.37
230.47	1650.66
230.69	1638.38
230.90	1800.16
231.12	1675.24
231.34	1736.68
231.56	1769.44
231.78	1648.61
232.00	1748.97
232.21	1683.43
232.43	1656.81
232.65	1693.67
232.87	1697.77
233.09	1583.08
233.30	1710.05
233.52	1781.73
233.74	1677.29
233.96	1646.57
234.18	1689.57
234.40	1746.92
234.61	1804.26
234.83	1589.22
235.05	1621.99
235.27	1808.36
235.49	1730.53
235.70	1691.62
235.92	1742.82
236.14	1738.73
236.36	1888.23
236.58	1665.00
236.79	1675.24
237.01	1695.72
237.23	1710.05
237.45	1837.03
237.67	1650.66
237.88	1718.25
238.10	1818.60
238.32	1578.98
238.54	1681.38
238.76	1669.09
238.97	1640.42
239.19	1665.00
239.41	1675.24
239.63	1734.63
239.85	1697.77
240.06	1681.38
240.28	1662.95
240.50	1755.11
240.72	1673.19
240.93	1734.63
241.15	1775.59
241.37	1658.85
241.59	1828.84
241.81	1589.22
242.02	1705.96
242.24	1669.09
242.46	1748.97
242.68	1724.39
242.89	1642.47
243.11	1779.68
243.33	1685.48
243.55	1701.86
243.76	1677.29
243.98	1533.93
244.20	1734.63
244.42	1708.01
244.64	1640.42
244.85	1644.52
245.07	1671.14
245.29	1822.69
245.51	1679.33
245.72	1722.34
245.94	1669.09
246.16	1728.49
246.38	1714.15
246.59	1701.86
246.81	1667.05
247.03	1646.57
247.24	1634.28
247.46	1646.57
247.68	1671.14
247.90	1697.77
248.11	1634.28
248.33	1697.77
248.55	1642.47
248.77	1753.06
248.98	1748.97
249.20	1832.93
249.42	1669.09
249.64	1675.24
249.85	1740.77
250.07	1646.57
250.29	1724.39
250.50	1748.97
250.72	1564.65
250.94	1724.39
251.16	1845.22
251.37	1755.11
251.59	1773.54
251.81	1697.77
252.02	1761.25
252.24	1632.23
252.46	1708.01
252.68	1626.09
252.89	1691.62
253.11	1591.27
253.33	1769.44
253.54	1855.46
253.76	1591.27
253.98	1667.05
254.20	1665.00
254.41	1636.33
254.63	1667.05
254.85	1566.70
255.06	1677.29
255.28	1699.81
255.50	1644.52
255.71	1642.47
255.93	1652.71
256.15	1697.77
256.36	1732.58
256.58	1681.38
256.80	1755.11
257.02	1683.43
257.23	1646.57
257.45	1763.30
257.67	1738.73
257.88	1654.76
258.10	1630.18
258.32	1677.29
258.53	1761.25
258.75	1800.16
258.97	1619.94
259.18	1798.12
259.40	1730.53
259.62	1865.70
259.83	1777.64
260.05	1665.00
260.27	1992.67
260.48	1642.47
260.70	1578.98
260.92	1695.72
261.13	1728.49
261.35	1712.10
261.57	1738.73
261.78	1583.08
262.00	1665.00
262.22	1753.06
262.43	1689.57
262.65	1800.16
262.86	1708.01
263.08	1804.26
263.30	1740.77
263.51	1644.52
263.73	1638.38
263.95	1804.26
264.16	1640.42
264.38	1732.58
264.60	1730.53
264.81	1746.92
265.03	1808.36
265.25	1808.36
265.46	1677.29
265.68	1675.24
265.89	1816.55
266.11	1603.56
266.33	1726.44
266.54	1818.60
266.76	1689.57
266.98	1746.92
267.19	1660.90
267.41	1824.74
267.62	1691.62
267.84	1626.09
268.06	1785.83
268.27	1642.47
268.49	1669.09
268.70	1722.34
268.92	1660.90
269.14	1644.52
269.35	1716.20
269.57	1693.67
269.79	1718.25
270.00	1683.43
270.22	1812.45
270.43	1669.09
270.65	1558.50
270.87	1736.68
271.08	1755.11
271.30	1697.77
271.51	1724.39
271.73	1742.82
271.95	1734.63
272.16	1744.87
272.38	1710.05
272.59	1744.87
272.81	1740.77
273.02	1753.06
273.24	1665.00
273.46	1730.53
273.67	1646.57
273.89	1650.66
274.10	1646.57
274.32	1785.83
274.54	1652.71
274.75	1648.61
274.97	1652.71
275.18	1728.49
275.40	1708.01
275.61	1730.53
275.83	1734.63
276.05	1611.75
276.26	1691.62
276.48	1742.82
276.69	1634.28
276.91	1681.38
277.12	1763.30
277.34	1679.33
277.55	1832.93
277.77	1710.05
277.99	1685.48
278.20	1599.46
278.42	1599.46
278.63	1673.19
278.85	1697.77
279.06	1693.67
279.28	1712.10
279.49	1720.29
279.71	1757.16
279.93	1648.61
280.14	1722.34
280.36	1689.57
280.57	1796.07
280.79	1658.85
281.00	1607.66
281.22	1710.05
281.43	1722.34
281.65	1687.53
281.86	1677.29
282.08	1714.15
282.29	1765.35
282.51	1669.09
282.73	1591.27
282.94	1599.46
283.16	1634.28
283.37	1701.86
283.59	1681.38
283.80	1710.05
284.02	1736.68
284.23	1712.10
284.45	1681.38
284.66	1599.46
284.88	1660.90
285.09	1734.63
285.31	1746.92
285.52	1740.77
285.74	1601.51
285.95	1755.11
286.17	1779.68
286.38	1732.58
286.60	1671.14
286.81	1585.13
287.03	1669.09
287.24	1677.29
287.46	1777.64
287.67	1675.24
287.89	1849.32
288.10	1638.38
288.32	1634.28
288.53	1820.64
288.75	1654.76
288.96	1646.57
289.18	1679.33
289.39	1636.33
289.61	1738.73
289.82	1800.16
290.04	1726.44
290.25	1638.38
290.47	1681.38
290.68	1673.19
290.90	1742.82
291.11	1738.73
291.33	1804.26
291.54	1660.90
291.76	1705.96
291.97	1673.19
292.18	1738.73
292.40	1689.57
292.61	1656.81
292.83	1837.03
293.04	1744.87
293.26	1665.00
293.47	1701.86
293.69	1667.05
293.90	1777.64
294.12	1798.12
294.33	1701.86
294.55	1656.81
294.76	1724.39
294.97	1775.59
295.19	1837.03
295.40	1595.37
295.62	1718.25
295.83	1730.53
296.05	1712.10
296.26	1742.82
296.48	1632.23
296.69	1681.38
296.90	1691.62
297.12	1726.44
297.33	1675.24
297.55	1800.16
297.76	1740.77
297.98	1759.21
298.19	1748.97
298.41	1552.36
298.62	1648.61
298.83	1802.21
299.05	1654.76
299.26	1681.38
299.48	1708.01
299.69	1759.21
299.90	1716.20
300.12	1576.94
300.33	1714.15
300.55	1646.57
300.76	1730.53
300.98	1665.00
301.19	1720.29
301.40	1759.21
301.62	1673.19
301.83	1665.00
302.05	1746.92
302.26	1679.33
302.47	1697.77
302.69	1654.76
302.90	1669.09
303.12	1603.56
303.33	1728.49
303.54	1804.26
303.76	1714.15
303.97	1732.58
304.19	1763.30
304.40	1624.04
304.61	1693.67
304.83	1763.30
305.04	1751.01
305.26	1730.53
305.47	1634.28
305.68	1710.05
305.90	1642.47
306.11	1828.84
306.33	1656.81
306.54	1712.10
306.75	1662.95
306.97	1603.56
307.18	1613.80
307.39	1632.23
307.61	1710.05
307.82	1626.09
308.04	1720.29
308.25	1728.49
308.46	1728.49
308.68	1673.19
308.89	1640.42
309.10	1699.81
309.32	1763.30
309.53	1738.73
309.74	1695.72
309.96	1710.05
310.17	1771.49
310.39	1673.19
310.60	1748.97
310.81	1701.86
311.03	1660.90
311.24	1720.29
311.45	1691.62
311.67	1769.44
311.88	1773.54
312.09	1656.81
312.31	1744.87
312.52	1628.14
312.73	1701.86
312.95	1662.95
313.16	1667.05
313.37	1730.53
313.59	1718.25
313.80	1716.20
314.01	1757.16
314.23	1634.28
314.44	1652.71
314.65	1648.61
314.87	1632.23
315.08	1624.04
315.29	1710.05
315.51	1642.47
315.72	1728.49
315.93	1789.92
316.15	1703.91
316.36	1660.90
316.57	1681.38
316.79	1751.01
317.00	1652.71
317.21	1738.73
317.43	1665.00
317.64	1708.01
317.85	1652.71
318.07	1701.86
318.28	1660.90
318.49	1800.16
318.70	1861.60
318.92	1789.92
319.13	1822.69
319.34	1918.95
319.56	1804.26
319.77	1800.16
319.98	1748.97
320.20	1837.03
320.41	1808.36
320.62	1662.95
320.83	1687.53
321.05	1861.60
321.26	1732.58
321.47	1665.00
321.69	1775.59
321.90	1538.02
322.11	1605.61
322.32	1771.49
322.54	1773.54
322.75	1654.76
322.96	1857.51
323.18	1669.09
323.39	1609.70
323.60	1685.48
323.81	1691.62
324.03	1740.77
324.24	1728.49
324.45	1685.48
324.66	1718.25
324.88	1759.21
325.09	1748.97
325.30	1718.25
325.52	1789.92
325.73	1751.01
325.94	1685.48
326.15	1695.72
326.37	1712.10
326.58	1695.72
326.79	1728.49
327.00	1693.67
327.22	1697.77
327.43	1689.57
327.64	1656.81
327.85	1691.62
328.07	1789.92
328.28	1828.84
328.49	1693.67
328.70	1712.10
328.92	1722.34
329.13	1689.57
329.34	1748.97
329.55	1812.45
329.76	1716.20
329.98	1710.05
330.19	1855.46
330.40	1775.59
330.61	1660.90
330.83	1738.73
331.04	1638.38
331.25	1677.29
331.46	1699.81
331.68	1677.29
331.89	1798.12
332.10	1671.14
332.31	1615.85
332.52	1710.05
332.74	1769.44
332.95	1615.85
333.16	1689.57
333.37	1730.53
333.58	1683.43
333.80	1695.72
334.01	1591.27
334.22	1634.28
334.43	1671.14
334.64	1665.00
334.86	1673.19
335.07	1642.47
335.28	1763.30
335.49	1687.53
335.70	1734.63
335.92	1705.96
336.13	1796.07
336.34	1751.01
336.55	1714.15
336.76	1728.49
336.98	1632.23
337.19	1683.43
337.40	1767.40
337.61	1763.30
337.82	1644.52
338.04	1724.39
338.25	1681.38
338.46	1652.71
338.67	1673.19
338.88	1644.52
339.09	1654.76
339.31	1630.18
339.52	1630.18
339.73	1652.71
339.94	1691.62
340.15	1728.49
340.36	1587.18
340.58	1697.77
340.79	1634.28
341.00	1718.25
341.21	1677.29
341.42	1789.92
341.63	1667.05
341.85	1722.34
342.06	1720.29
342.27	1640.42
342.48	1691.62
342.69	1718.25
342.90	1667.05
343.12	1697.77
343.33	1677.29
343.54	1708.01
343.75	1687.53
343.96	1665.00
344.17	1660.90
344.38	1689.57
344.60	1724.39
344.81	1677.29
345.02	1662.95
345.23	1767.40
345.44	1787.88
345.65	1796.07
345.86	1718.25
346.07	1648.61
346.29	1613.80
346.50	1724.39
346.71	1740.77
346.92	1785.83
347.13	1810.40
347.34	1695.72
347.55	1734.63
347.76	1722.34
347.98	1538.02
348.19	1632.23
348.40	1771.49
348.61	1675.24
348.82	1744.87
349.03	1736.68
349.24	1705.96
349.45	1783.78
349.66	1591.27
349.88	1693.67
350.09	1652.71
350.30	1798.12
350.51	1845.22
350.72	1767.40
350.93	1769.44
351.14	1691.62
351.35	1705.96
351.56	1748.97
351.77	1669.09
351.99	1695.72
352.20	1828.84
352.41	1697.77
352.62	1519.59
352.83	1615.85
353.04	1722.34
353.25	1675.24
353.46	1765.35
353.67	1708.01
353.88	1544.17
354.09	1734.63
354.30	1662.95
354.52	1710.05
354.73	1705.96
354.94	1730.53
355.15	1730.53
355.36	1763.30
355.57	1703.91
355.78	1669.09
355.99	1671.14
356.20	1658.85
356.41	1716.20
356.62	1675.24
356.83	1689.57
357.04	1742.82
357.25	1603.56
357.46	1710.05
357.68	1689.57
357.89	1669.09
358.10	1806.31
358.31	1726.44
358.52	1695.72
358.73	1695.72
358.94	1675.24
359.15	1699.81
359.36	1759.21
359.57	1748.97
359.78	1640.42
359.99	1677.29
360.20	1695.72
360.41	1660.90
360.62	1773.54
360.83	1724.39
361.04	1691.62
361.25	1665.00
361.46	1775.59
361.67	1724.39
361.88	1736.68
362.09	1769.44
362.30	1720.29
362.51	1687.53
362.72	1650.66
362.93	1726.44
363.14	1677.29
363.35	1716.20
363.56	1603.56
363.78	1783.78
363.99	1787.88
364.20	1683.43
364.41	1748.97
364.62	1880.04
364.83	1814.50
365.04	1705.96
365.25	1679.33
365.46	1845.22
365.67	1630.18
365.88	1687.53
366.09	1671.14
366.30	1583.08
366.51	1677.29
366.72	1607.66
366.93	1710.05
367.14	1724.39
367.35	1742.82
367.56	1718.25
367.77	1834.98
367.98	1660.90
368.18	1675.24
368.39	1714.15
368.60	1613.80
368.81	1714.15
369.02	1660.90
369.23	1732.58
369.44	1533.93
369.65	1675.24
369.86	1681.38
370.07	1673.19
370.28	1630.18
370.49	1744.87
370.70	1818.60
370.91	1624.04
371.12	1738.73
371.33	1765.35
371.54	1673.19
371.75	1867.75
371.96	1652.71
372.17	1636.33
372.38	1748.97
372.59	1802.21
372.80	1671.14
373.01	1662.95
373.22	1718.25
373.43	1730.53
373.64	1669.09
373.85	1742.82
374.06	1761.25
374.26	1763.30
374.47	1730.53
374.68	1767.40
374.89	1697.77
375.10	1677.29
375.31	1751.01
375.52	1652.71
375.73	1787.88
375.94	1667.05
376.15	1806.31
376.36	1601.51
376.57	1654.76
376.78	1705.96
376.99	1720.29
377.20	1781.73
377.40	1671.14
377.61	1826.79
377.82	1621.99
378.03	1785.83
378.24	1708.01
378.45	1708.01
378.66	1744.87
378.87	1595.37
379.08	1597.42
379.29	1638.38
379.50	1755.11
379.71	1652.71
379.91	1781.73
380.12	1671.14
380.33	1716.20
380.54	1753.06
380.75	1677.29
380.96	1724.39
381.17	1720.29
381.38	1769.44
381.59	1732.58
381.80	1720.29
382.00	1900.52
382.21	1677.29
382.42	1890.28
382.63	1859.56
382.84	1753.06
383.05	1665.00
383.26	1763.30
383.47	1710.05
383.68	1712.10
383.88	1710.05
384.09	1785.83
384.30	1902.56
384.51	1728.49
384.72	1687.53
384.93	1638.38
385.14	1632.23
385.35	1705.96
385.55	1566.70
385.76	1714.15
385.97	1687.53
386.18	1593.32
386.39	1685.48
386.60	1673.19
386.81	1722.34
387.02	1693.67
387.22	1675.24
387.43	1849.32
387.64	1763.30
387.85	1796.07
388.06	2248.67
388.27	4276.16
388.48	6791.06
388.68	8462.21
388.89	9770.86
389.10	10028.90
389.31	8761.21
389.52	7849.86
389.73	6946.71
389.93	6301.60
390.14	6006.69
390.35	5238.70
390.56	4691.90
390.77	3841.99
390.98	2996.18
391.18	2516.95
391.39	2172.89
391.60	1882.08
391.81	1822.69
392.02	1665.00
392.23	1816.55
392.43	1759.21
392.64	1757.16
392.85	1742.82
393.06	1767.40
393.27	1705.96
393.47	1669.09
393.68	1683.43
393.89	1679.33
394.10	1820.64
394.31	1712.10
394.52	1699.81
394.72	1685.48
394.93	1728.49
395.14	1544.17
395.35	1703.91
395.56	1691.62
395.76	1736.68
395.97	1804.26
396.18	1865.70
396.39	1880.04
396.60	2035.68
396.80	1927.14
397.01	1796.07
397.22	1783.78
397.43	1828.84
397.64	1689.57
397.84	1853.41
398.05	1832.93
398.26	1724.39
398.47	1757.16
398.67	1701.86
398.88	1732.58
399.09	1767.40
399.30	1673.19
399.51	1761.25
399.71	1665.00
399.92	1634.28
400.13	1748.97
400.34	1621.99
400.54	1679.33
400.75	1796.07
400.96	1662.95
401.17	1769.44
401.37	1665.00
401.58	1667.05
401.79	1748.97
402.00	1845.22
402.21	2066.40
402.41	1873.89
402.62	1992.67
402.83	2043.87
403.04	1980.39
403.24	2162.66
403.45	1808.36
403.66	1931.23
403.87	1867.75
404.07	1929.19
404.28	1851.36
404.49	1808.36
404.70	1710.05
404.90	1763.30
405.11	1667.05
405.32	1705.96
405.52	1734.63
405.73	1646.57
405.94	1615.85
406.15	1638.38
406.35	1771.49
406.56	1748.97
406.77	1673.19
406.98	1693.67
407.18	1701.86
407.39	1753.06
407.60	1697.77
407.80	1718.25
408.01	1701.86
408.22	1705.96
408.43	1650.66
408.63	1675.24
408.84	1683.43
409.05	1730.53
409.25	1683.43
409.46	1648.61
409.67	1722.34
409.88	1710.05
410.08	1744.87
410.29	1665.00
410.50	1740.77
410.70	1742.82
410.91	1703.91
411.12	1650.66
411.32	1675.24
411.53	1691.62
411.74	1796.07
411.95	1787.88
412.15	1628.14
412.36	1828.84
412.57	1748.97
412.77	1771.49
412.98	1748.97
413.19	1695.72
413.39	1748.97
413.60	1703.91
413.81	1769.44
414.01	1617.90
414.22	1753.06
414.43	1693.67
414.63	1755.11
414.84	1689.57
415.05	1730.53
415.25	1581.03
415.46	1724.39
415.67	1691.62
415.87	1697.77
416.08	1712.10
416.29	1693.67
416.49	1767.40
416.70	1693.67
416.91	1697.77
417.11	1677.29
417.32	1716.20
417.53	1742.82
417.73	1740.77
417.94	1669.09
418.15	1732.58
418.35	1742.82
418.56	1701.86
418.77	1769.44
418.97	1632.23
419.18	1660.90
419.38	1603.56
419.59	1656.81
419.80	1775.59
420.00	1685.48
420.21	1662.95
420.42	1757.16
420.62	1681.38
420.83	1632.23
421.04	1658.85
421.24	1642.47
421.45	1773.54
421.65	1755.11
421.86	1632.23
422.07	1730.53
422.27	1714.15
422.48	1683.43
422.69	1603.56
422.89	1662.95
423.10	1738.73
423.30	1654.76
423.51	1787.88
423.72	1693.67
423.92	1783.78
424.13	1632.23
424.33	1742.82
424.54	1730.53
424.75	1718.25
424.95	1837.03
425.16	1722.34
425.36	1710.05
425.57	1771.49
425.78	1728.49
425.98	1673.19
426.19	1718.25
426.39	1677.29
426.60	1640.42
426.81	1708.01
427.01	1765.35
427.22	1697.77
427.42	1626.09
427.63	1607.66
427.83	1775.59
428.04	1726.44
428.25	1824.74
428.45	1796.07
428.66	1763.30
428.86	1740.77
429.07	1669.09
429.28	1722.34
429.48	1722.34
429.69	1628.14
429.89	1734.63
430.10	1640.42
430.30	1726.44
430.51	1777.64
430.71	1644.52
430.92	1710.05
431.13	1636.33
431.33	1755.11
431.54	1710.05
431.74	1808.36
431.95	1859.56
432.15	1683.43
432.36	1699.81
432.56	1728.49
432.77	1855.46
432.98	1841.12
433.18	1708.01
433.39	1677.29
433.59	1660.90
433.80	1859.56
434.00	1871.84
434.21	1658.85
434.41	1730.53
434.62	1812.45
434.82	1693.67
435.03	1617.90
435.23	1748.97
435.44	1681.38
435.64	1701.86
435.85	1722.34
436.06	1728.49
436.26	1718.25
436.47	1685.48
436.67	1726.44
436.88	1701.86
437.08	1708.01
437.29	1779.68
437.49	1732.58
437.70	1773.54
437.90	1726.44
438.11	1822.69
438.31	1742.82
438.52	1898.47
438.72	1884.13
438.93	1877.99
439.13	1771.49
439.34	1869.80
439.54	1775.59
439.75	1791.97
439.95	1812.45
440.16	1681.38
440.36	1703.91
440.57	1767.40
440.77	1818.60
440.98	1755.11
441.18	1800.16
441.39	1691.62
441.59	1626.09
441.80	1843.17
442.00	1705.96
442.21	1873.89
442.41	1724.39
442.62	1755.11
442.82	1669.09
443.02	1693.67
443.23	1789.92
443.43	1744.87
443.64	1888.23
443.84	1648.61
444.05	1837.03
444.25	1665.00
444.46	1671.14
444.66	1724.39
444.87	1886.18
445.07	1638.38
445.28	1726.44
445.48	1859.56
445.69	1746.92
445.89	1888.23
446.09	1804.26
446.30	1994.72
446.50	2621.40
446.71	3780.55
446.91	4261.82
447.12	4741.05
447.32	4775.86
447.53	4343.74
447.73	3950.53
447.93	3561.42
448.14	3368.91
448.34	3278.80
448.55	2949.08
448.75	2856.92
448.96	2693.08
449.16	2351.07
449.36	2222.05
449.57	2054.11
449.77	1830.88
449.98	1812.45
450.18	1841.12
450.39	1783.78
450.59	1789.92
450.79	1771.49
451.00	1734.63
451.20	1783.78
451.41	1705.96
451.61	1812.45
451.81	1718.25
452.02	1714.15
452.22	1697.77
452.43	1609.70
452.63	1718.25
452.84	1751.01
453.04	1665.00
453.24	1767.40
453.45	1804.26
453.65	1634.28
453.86	1724.39
454.06	1714.15
454.26	1697.77
454.47	1730.53
454.67	1834.98
454.87	1710.05
455.08	1607.66
455.28	1871.84
455.49	1763.30
455.69	1662.95
455.89	1796.07
456.10	1834.98
456.30	1673.19
456.51	1748.97
456.71	1665.00
456.91	1779.68
457.12	1677.29
457.32	1769.44
457.52	1656.81
457.73	1697.77
457.93	1714.15
458.14	1673.19
458.34	1646.57
458.54	1689.57
458.75	1648.61
458.95	1775.59
459.15	1736.68
459.36	1730.53
459.56	1812.45
459.76	1898.47
459.97	1724.39
460.17	1742.82
460.37	1794.02
460.58	1681.38
460.78	1771.49
460.99	1755.11
461.19	1753.06
461.39	1712.10
461.60	1695.72
461.80	1755.11
462.00	1646.57
462.21	1681.38
462.41	1712.10
462.61	1646.57
462.82	1687.53
463.02	1675.24
463.22	1703.91
463.43	1759.21
463.63	1712.10
463.83	1834.98
464.04	1767.40
464.24	1683.43
464.44	1714.15
464.64	1720.29
464.85	1734.63
465.05	1812.45
465.25	1665.00
465.46	1656.81
465.66	1824.74
465.86	1701.86
466.07	1722.34
466.27	1669.09
466.47	1636.33
466.68	1650.66
466.88	1738.73
467.08	1722.34
467.29	1783.78
467.49	1736.68
467.69	1716.20
467.89	1736.68
468.10	1675.24
468.30	1802.21
468.50	1800.16
468.71	1775.59
468.91	1560.55
469.11	1863.65
469.31	1746.92
469.52	1761.25
469.72	1779.68
469.92	1796.07
470.13	1685.48
470.33	1697.77
470.53	1755.11
470.73	2004.96
470.94	2340.83
471.14	2252.77
471.34	2523.10
471.54	2389.98
471.75	2263.01
471.95	2117.60
472.15	2086.88
472.36	2058.21
472.56	2050.02
472.76	2062.30
472.96	2060.26
473.17	2056.16
473.37	1947.62
473.57	1802.21
473.77	1837.03
473.98	1816.55
474.18	1746.92
474.38	1822.69
474.58	1693.67
474.79	1710.05
474.99	1742.82
475.19	1724.39
475.39	1660.90
475.60	1726.44
475.80	1716.20
476.00	1710.05
476.20	1632.23
476.41	1703.91
476.61	1755.11
476.81	1755.11
477.01	1658.85
477.21	1853.41
477.42	1828.84
477.62	1656.81
477.82	1751.01
478.02	1681.38
478.23	1718.25
478.43	1716.20
478.63	1697.77
478.83	1751.01
479.03	1695.72
479.24	1751.01
479.44	1839.08
479.64	1753.06
479.84	1566.70
480.04	1644.52
480.25	1763.30
480.45	1712.10
480.65	1742.82
480.85	1812.45
481.06	1611.75
481.26	1763.30
481.46	1755.11
481.66	1728.49
481.86	1665.00
482.06	1685.48
482.27	1755.11
482.47	1726.44
482.67	1742.82
482.87	1730.53
483.07	1722.34
483.28	1621.99
483.48	1660.90
483.68	1681.38
483.88	1708.01
484.08	1540.07
484.29	1638.38
484.49	1730.53
484.69	1615.85
484.89	1794.02
485.09	1820.64
485.29	1802.21
485.50	1650.66
485.70	1701.86
485.90	1742.82
486.10	1744.87
486.30	1738.73
486.50	1724.39
486.71	1716.20
486.91	1808.36
487.11	1722.34
487.31	1693.67
487.51	1701.86
487.71	1695.72
487.91	1570.79
488.12	1677.29
488.32	1587.18
488.52	1683.43
488.72	1593.32
488.92	1677.29
489.12	1800.16
489.32	1757.16
489.53	1726.44
489.73	1570.79
489.93	1812.45
490.13	1714.15
490.33	1583.08
490.53	1785.83
490.73	1796.07
490.94	1673.19
491.14	1783.78
491.34	1753.06
491.54	2052.06
491.74	2488.28
491.94	2985.94
492.14	3037.14
492.34	3037.14
492.54	2688.98
492.75	2488.28
492.95	2406.36
493.15	2295.77
493.35	2297.82
493.55	2150.37
493.75	2125.79
493.95	2115.55
494.15	2062.30
494.35	1888.23
494.56	1775.59
494.76	1783.78
494.96	1785.83
495.16	1822.69
495.36	1761.25
495.56	1726.44
495.76	1695.72
495.96	1691.62
496.16	1671.14
496.36	1904.61
496.56	1638.38
496.77	1853.41
496.97	1695.72
497.17	1796.07
497.37	1667.05
497.57	1748.97
497.77	1759.21
497.97	1660.90
498.17	1673.19
498.37	1779.68
498.57	1736.68
498.77	1617.90
498.97	1755.11
499.17	1781.73
499.38	1751.01
499.58	1812.45
499.78	1703.91
499.98	1816.55
500.18	1728.49
500.38	1701.86
500.58	1931.23
500.78	2502.62
500.98	4468.67
501.18	5789.61
501.38	6829.98
501.58	7227.28
501.78	6649.75
501.98	5642.15
502.18	5056.43
502.38	4351.93
502.58	4155.33
502.78	3811.27
502.98	3686.34
503.18	3397.58
503.38	3153.87
503.59	2893.78
503.79	2682.84
503.99	2504.67
504.19	2353.12
504.39	2127.84
504.59	2160.61
504.79	2103.26
504.99	2021.35
505.19	1828.84
505.39	1888.23
505.59	1943.52
505.79	1908.71
505.99	1816.55
506.19	1781.73
506.39	1853.41
506.59	1748.97
506.79	1746.92
506.99	1773.54
507.19	1771.49
507.39	1767.40
507.59	1652.71
507.79	1722.34
507.99	1714.15
508.19	1708.01
508.39	1667.05
508.59	1720.29
508.79	1806.31
508.99	1837.03
509.19	1626.09
509.39	1746.92
509.59	1724.39
509.79	1771.49
509.99	1777.64
510.19	1837.03
510.39	1728.49
510.59	1658.85
510.79	1796.07
510.99	1691.62
511.19	1732.58
511.39	1920.99
511.59	1806.31
511.79	1787.88
511.99	1716.20
512.19	1857.51
512.38	1654.76
512.58	1679.33
512.78	1693.67
512.98	1716.20
513.18	1765.35
513.38	1710.05
513.58	1814.50
513.78	1656.81
513.98	1609.70
514.18	1660.90
514.38	1814.50
514.58	1791.97
514.78	1679.33
514.98	1658.85
515.18	1701.86
515.38	1720.29
515.58	1839.08
515.78	1722.34
515.98	1746.92
516.18	1732.58
516.38	1748.97
516.57	1742.82
516.77	1718.25
516.97	1779.68
517.17	1681.38
517.37	1648.61
517.57	1748.97
517.77	1644.52
517.97	1642.47
518.17	1767.40
518.37	1710.05
518.57	1738.73
518.77	1673.19
518.97	1763.30
519.16	1726.44
519.36	1798.12
519.56	1624.04
519.76	1705.96
519.96	1705.96
520.16	1851.36
520.36	1691.62
520.56	1820.64
520.76	1746.92
520.96	1703.91
521.16	1871.84
521.35	1742.82
521.55	1798.12
521.75	1701.86
521.95	1648.61
522.15	1671.14
522.35	1646.57
522.55	1656.81
522.75	1738.73
522.95	1757.16
523.14	1677.29
523.34	1757.16
523.54	1656.81
523.74	1765.35
523.94	1834.98
524.14	1601.51
524.34	1796.07
524.54	1832.93
524.73	1763.30
524.93	1730.53
525.13	1765.35
525.33	1587.18
525.53	1837.03
525.73	1800.16
525.93	1722.34
526.13	1660.90
526.32	1759.21
526.52	1751.01
526.72	1853.41
526.92	1748.97
527.12	1755.11
527.32	1675.24
527.52	1669.09
527.71	1865.70
527.91	1746.92
528.11	1636.33
528.31	1796.07
528.51	1638.38
528.71	1730.53
528.90	1751.01
529.10	1832.93
529.30	1734.63
529.50	1607.66
529.70	1785.83
529.90	1671.14
530.09	1765.35
530.29	1654.76
530.49	1693.67
530.69	1853.41
530.89	1736.68
531.09	1767.40
531.28	1691.62
531.48	1824.74
531.68	1708.01
531.88	1736.68
532.08	1828.84
532.28	1691.62
532.47	1769.44
532.67	1748.97
532.87	1722.34
533.07	1652.71
533.27	1808.36
533.46	1720.29
533.66	1742.82
533.86	1755.11
534.06	1728.49
534.26	1734.63
534.45	1691.62
534.65	1726.44
534.85	1755.11
535.05	1703.91
535.25	1761.25
535.44	1712.10
535.64	1839.08
535.84	1689.57
536.04	1722.34
536.24	1720.29
536.43	1669.09
536.63	1748.97
536.83	1746.92
537.03	1675.24
537.22	1652.71
537.42	1615.85
537.62	1767.40
537.82	1703.91
538.02	1796.07
538.21	1824.74
538.41	1943.52
538.61	1765.35
538.81	1736.68
539.00	1822.69
539.20	1689.57
539.40	1679.33
539.60	1765.35
539.79	1744.87
539.99	1759.21
540.19	1654.76
540.39	1732.58
540.58	1755.11
540.78	1781.73
540.98	1796.07
541.18	1771.49
541.37	1718.25
541.57	1771.49
541.77	1724.39
541.97	1687.53
542.16	1693.67
542.36	1746.92
542.56	1630.18
542.76	1826.79
542.95	1753.06
543.15	1802.21
543.35	1755.11
543.54	1640.42
543.74	1685.48
543.94	1744.87
544.14	1722.34
544.33	1839.08
544.53	1660.90
544.73	1705.96
544.93	1724.39
545.12	1687.53
545.32	1712.10
545.52	1689.57
545.71	1581.03
545.91	1708.01
546.11	1718.25
546.30	1705.96
546.50	1699.81
546.70	1785.83
546.90	1783.78
547.09	1710.05
547.29	1632.23
547.49	1728.49
547.68	1714.15
547.88	1681.38
548.08	1787.88
548.27	2185.18
548.47	1767.40
548.67	1683.43
548.87	1722.34
549.06	1800.16
549.26	1722.34
549.46	1761.25
549.65	1773.54
549.85	1738.73
550.05	1785.83
550.24	1640.42
550.44	1775.59
550.64	1740.77
550.83	1720.29
551.03	1818.60
551.23	1791.97
551.42	1734.63
551.62	1746.92
551.82	1691.62
552.01	1736.68
552.21	1828.84
552.41	1691.62
552.60	1773.54
552.80	1748.97
553.00	1683.43
553.19	1714.15
553.39	1816.55
553.59	1675.24
553.78	1705.96
553.98	1701.86
554.17	1669.09
554.37	1751.01
554.57	1748.97
554.76	1654.76
554.96	1660.90
555.16	1699.81
555.35	1722.34
555.55	1738.73
555.75	1732.58
555.94	1769.44
556.14	1615.85
556.33	1779.68
556.53	1740.77
556.73	1757.16
556.92	1738.73
557.12	1810.40
557.32	1816.55
557.51	1798.12
557.71	1775.59
557.90	1796.07
558.10	1880.04
558.30	1761.25
558.49	1726.44
558.69	1734.63
558.88	1810.40
559.08	1652.71
559.28	1746.92
559.47	1757.16
559.67	1748.97
559.86	1830.88
560.06	1843.17
560.26	1624.04
560.45	1767.40
560.65	1748.97
560.84	1904.61
561.04	1722.34
561.24	1798.12
561.43	1605.61
561.63	1775.59
561.82	1757.16
562.02	1777.64
562.22	1718.25
562.41	1648.61
562.61	1712.10
562.80	1667.05
563.00	1873.89
563.19	1769.44
563.39	1751.01
563.59	1775.59
563.78	1646.57
563.98	1626.09
564.17	1722.34
564.37	1697.77
564.56	1691.62
564.76	1685.48
564.96	1742.82
565.15	1769.44
565.35	1896.42
565.54	1687.53
565.74	1851.36
565.93	1773.54
566.13	1734.63
566.32	1820.64
566.52	1796.07
566.71	1683.43
566.91	1804.26
567.11	1703.91
567.30	1667.05
567.50	1773.54
567.69	1847.27
567.89	1773.54
568.08	1716.20
568.28	1697.77
568.47	1681.38
568.67	1757.16
568.86	1691.62
569.06	1759.21
569.25	1742.82
569.45	1619.94
569.64	1759.21
569.84	1748.97
570.04	1753.06
570.23	1710.05
570.43	1693.67
570.62	1800.16
570.82	1771.49
571.01	1701.86
571.21	1767.40
571.40	1712.10
571.60	1769.44
571.79	1779.68
571.99	1761.25
572.18	1716.20
572.38	1712.10
572.57	1675.24
572.77	1806.31
572.96	1882.08
573.16	1769.44
573.35	1728.49
573.55	1855.46
573.74	1716.20
573.94	1791.97
574.13	1742.82
574.33	1787.88
574.52	1769.44
574.71	1757.16
574.91	1822.69
575.10	1640.42
575.30	1718.25
575.49	1665.00
575.69	1679.33
575.88	1718.25
576.08	1765.35
576.27	1740.77
576.47	1748.97
576.66	1822.69
576.86	1847.27
577.05	1773.54
577.25	1841.12
577.44	1861.60
577.64	1693.67
577.83	1800.16
578.02	1683.43
578.22	1818.60
578.41	1796.07
578.61	1742.82
578.80	1652.71
579.00	1761.25
579.19	1740.77
579.39	1718.25
579.58	1779.68
579.77	1732.58
579.97	1781.73
580.16	1822.69
580.36	1787.88
580.55	1820.64
580.75	1716.20
580.94	1720.29
581.13	1925.09
581.33	1873.89
581.52	1728.49
581.72	1816.55
581.91	1800.16
582.11	1665.00
582.30	1726.44
582.49	1703.91
582.69	1896.42
582.88	1736.68
583.08	1763.30
583.27	1812.45
583.47	1781.73
583.66	1701.86
583.85	1691.62
584.05	1751.01
584.24	1808.36
584.44	1832.93
584.63	1814.50
584.82	1855.46
585.02	1843.17
585.21	1814.50
585.41	1818.60
585.60	1787.88
585.79	1910.75
585.99	1945.57
586.18	1769.44
586.37	2099.17
586.57	3411.92
586.76	10153.83
586.96	24952.45
587.15	35444.20
587.34	41239.95
587.54	42751.35
587.73	36963.79
587.93	26764.90
588.12	22253.23
588.31	18919.14
588.51	16723.71
588.70	15308.57
588.89	14278.44
589.09	12623.68
589.28	11069.27
589.47	9514.86
589.67	8163.20
589.86	6430.62
590.06	4992.95
590.25	3956.68
590.44	3096.53
590.64	2695.13
590.83	2250.72
591.02	2131.94
591.22	1955.81
591.41	1779.68
591.60	1800.16
591.80	2023.39
591.99	1740.77
592.18	1806.31
592.38	1912.80
592.57	1771.49
592.76	1675.24
592.96	1812.45
593.15	1714.15
593.34	1775.59
593.54	1759.21
593.73	1714.15
593.92	1775.59
594.12	1748.97
594.31	1785.83
594.50	1802.21
594.70	1828.84
594.89	1832.93
595.08	1656.81
595.28	1789.92
595.47	1918.95
595.66	1724.39
595.86	1652.71
596.05	1734.63
596.24	1714.15
596.43	1748.97
596.63	1841.12
596.82	1761.25
597.01	1722.34
597.21	1834.98
597.40	1810.40
597.59	1673.19
597.79	1787.88
597.98	1773.54
598.17	1660.90
598.36	1740.77
598.56	1775.59
598.75	1759.21
598.94	1769.44
599.14	1800.16
599.33	1701.86
599.52	1726.44
599.71	1718.25
599.91	1828.84
600.10	1748.97
600.29	1771.49
600.48	1740.77
600.68	1775.59
600.87	1724.39
601.06	1710.05
601.26	1724.39
601.45	1734.63
601.64	1726.44
601.83	1794.02
602.03	1751.01
602.22	1662.95
602.41	1847.27
602.60	1863.65
602.80	1787.88
602.99	1738.73
603.18	1654.76
603.37	1796.07
603.57	1763.30
603.76	1767.40
603.95	1789.92
604.14	1763.30
604.34	1644.52
604.53	1734.63
604.72	1804.26
604.91	1824.74
605.10	1755.11
605.30	1628.14
605.49	1826.79
605.68	1744.87
605.87	1824.74
606.07	1755.11
606.26	1800.16
606.45	1773.54
606.64	1751.01
606.84	1687.53
607.03	1708.01
607.22	1748.97
607.41	1679.33
607.60	1783.78
607.80	1759.21
607.99	1632.23
608.18	1697.77
608.37	1677.29
608.56	1691.62
608.76	1714.15
608.95	1818.60
609.14	1783.78
609.33	1751.01
609.52	1830.88
609.72	1693.67
609.91	1767.40
610.10	1656.81
610.29	1828.84
610.48	1832.93
610.68	1710.05
610.87	1662.95
611.06	1787.88
611.25	1761.25
611.44	1839.08
611.63	1738.73
611.83	1771.49
612.02	1693.67
612.21	1810.40
612.40	1609.70
612.59	1632.23
612.79	1673.19
612.98	1775.59
613.17	1843.17
613.36	1814.50
613.55	1789.92
613.74	1708.01
613.93	1654.76
614.13	1677.29
614.32	1722.34
614.51	1693.67
614.70	1665.00
614.89	1714.15
615.08	1787.88
615.28	2045.92
615.47	1640.42
615.66	1728.49
615.85	1712.10
616.04	1751.01
616.23	1718.25
616.42	1722.34
616.62	1685.48
616.81	1753.06
617.00	1703.91
617.19	1697.77
617.38	1681.38
617.57	1710.05
617.76	1779.68
617.95	1804.26
618.15	1763.30
618.34	1804.26
618.53	1611.75
618.72	1837.03
618.91	1802.21
619.10	1769.44
619.29	1753.06
619.48	1716.20
619.68	1662.95
619.87	1738.73
620.06	1626.09
620.25	1791.97
620.44	1734.63
620.63	1624.04
620.82	1748.97
621.01	1773.54
621.20	1705.96
621.39	1718.25
621.59	1691.62
621.78	1714.15
621.97	1742.82
622.16	1667.05
622.35	1736.68
622.54	1771.49
622.73	1794.02
622.92	1662.95
623.11	1783.78
623.30	1654.76
623.49	1763.30
623.68	1736.68
623.88	1769.44
624.07	1630.18
624.26	1667.05
624.45	1724.39
624.64	1681.38
624.83	1736.68
625.02	1738.73
625.21	1660.90
625.40	1742.82
625.59	1896.42
625.78	1736.68
625.97	1826.79
626.16	1740.77
626.35	1763.30
626.54	1738.73
626.74	1771.49
626.93	1722.34
627.12	1765.35
627.31	1791.97
627.50	1740.77
627.69	1677.29
627.88	1714.15
628.07	1714.15
628.26	1646.57
628.45	1605.61
628.64	1638.38
628.83	1710.05
629.02	1681.38
629.21	1761.25
629.40	1785.83
629.59	1681.38
629.78	1646.57
629.97	1679.33
630.16	1757.16
630.35	1697.77
630.54	1720.29
630.73	1701.86
630.92	1705.96
631.11	1673.19
631.30	1710.05
631.49	1759.21
631.68	1701.86
631.87	1734.63
632.06	1609.70
632.25	1771.49
632.44	1734.63
632.63	1675.24
632.82	1572.84
633.01	1609.70
633.20	1634.28
633.39	1665.00
633.58	1619.94
633.77	1681.38
633.96	1703.91
634.15	1724.39
634.34	1771.49
634.53	1681.38
634.72	1632.23
634.91	1609.70
635.10	1705.96
635.29	1726.44
635.48	1751.01
635.67	1667.05
635.86	1683.43
636.05	1662.95
636.24	1726.44
636.43	1675.24
636.62	1763.30
636.81	1593.32
637.00	1658.85
637.19	1691.62
637.38	1685.48
637.57	1710.05
637.76	1675.24
637.95	1722.34
638.14	1712.10
638.33	1671.14
638.52	1783.78
638.71	1665.00
638.89	1566.70
639.08	1888.23
639.27	1808.36
639.46	1689.57
639.65	1779.68
639.84	1675.24
640.03	1787.88
640.22	1683.43
640.41	1796.07
640.60	1603.56
640.79	1751.01
640.98	1695.72
641.17	1695.72
641.36	1755.11
641.55	1751.01
641.74	1642.47
641.92	1748.97
642.11	1611.75
642.30	1724.39
642.49	1640.42
642.68	1689.57
642.87	1736.68
643.06	1697.77
643.25	1677.29
643.44	1751.01
643.63	1726.44
643.82	1691.62
644.00	1667.05
644.19	1730.53
644.38	1705.96
644.57	1708.01
644.76	1783.78
644.95	1693.67
645.14	1732.58
645.33	1705.96
645.52	1669.09
645.71	1585.13
645.89	1691.62
646.08	1710.05
646.27	1613.80
646.46	1816.55
646.65	1662.95
646.84	1744.87
647.03	1648.61
647.22	1853.41
647.40	1763.30
647.59	1679.33
647.78	1634.28
647.97	1689.57
648.16	1671.14
648.35	1748.97
648.54	1816.55
648.73	1712.10
648.91	1742.82
649.10	1746.92
649.29	1703.91
649.48	1695.72
649.67	1785.83
649.86	1730.53
650.05	1662.95
650.23	1720.29
650.42	1621.99
650.61	1757.16
650.80	1785.83
650.99	1804.26
651.18	1785.83
651.36	1779.68
651.55	1619.94
651.74	1837.03
651.93	1710.05
652.12	1650.66
652.31	1734.63
652.49	1697.77
652.68	1665.00
652.87	1830.88
653.06	1740.77
653.25	1841.12
653.44	1738.73
653.62	1734.63
653.81	1714.15
654.00	1726.44
654.19	1718.25
654.38	1837.03
654.56	1763.30
654.75	1693.67
654.94	1773.54
655.13	1652.71
655.32	1714.15
655.51	1714.15
655.69	1662.95
655.88	1765.35
656.07	1693.67
656.26	1730.53
656.45	1603.56
656.63	1720.29
656.82	1751.01
657.01	1748.97
657.20	1693.67
657.38	1763.30
657.57	1683.43
657.76	1542.12
657.95	1765.35
658.14	1667.05
658.32	1716.20
658.51	1675.24
658.70	1753.06
658.89	1716.20
659.08	1703.91
659.26	1787.88
659.45	1722.34
659.64	1724.39
659.83	1708.01
660.01	1822.69
660.20	1710.05
660.39	1820.64
660.58	1578.98
660.76	1685.48
660.95	1652.71
661.14	1722.34
661.33	1656.81
661.51	1626.09
661.70	1662.95
661.89	1763.30
662.08	1708.01
662.26	1683.43
662.45	1593.32
662.64	1875.94
662.83	1626.09
663.01	1658.85
663.20	1728.49
663.39	1824.74
663.58	1705.96
663.76	1685.48
663.95	1794.02
664.14	1730.53
664.32	1617.90
664.51	1662.95
664.70	1599.46
664.89	1683.43
665.07	1703.91
665.26	1761.25
665.45	1636.33
665.64	1804.26
665.82	1796.07
666.01	1789.92
666.20	1679.33
666.38	1810.40
666.57	1794.02
666.76	2236.38
666.95	4566.97
667.13	10741.60
667.32	15365.91
667.51	18173.67
667.69	19384.02
667.88	17704.69
668.07	12756.80
668.25	9572.21
668.44	8163.20
668.63	7444.37
668.81	6940.57
669.00	6102.95
669.19	5924.77
669.38	5185.46
669.56	4616.12
669.75	4057.03
669.94	3375.05
670.12	2977.75
670.31	2506.71
670.50	2174.94
670.68	1994.72
670.87	1861.60
671.06	1789.92
671.24	1753.06
671.43	1775.59
671.62	1710.05
671.80	1660.90
671.99	1740.77
672.18	1773.54
672.36	1771.49
672.55	1726.44
672.74	1695.72
672.92	1742.82
673.11	1748.97
673.29	1634.28
673.48	1759.21
673.67	1677.29
673.85	1701.86
674.04	1693.67
674.23	1775.59
674.41	1730.53
674.60	1730.53
674.79	1656.81
674.97	1626.09
675.16	1800.16
675.34	1755.11
675.53	1626.09
675.72	1710.05
675.90	1781.73
676.09	1734.63
676.28	1761.25
676.46	1656.81
676.65	1771.49
676.83	1660.90
677.02	1662.95
677.21	1718.25
677.39	1742.82
677.58	1599.46
677.77	1701.86
677.95	1662.95
678.14	1712.10
678.32	1724.39
678.51	1646.57
678.70	1800.16
678.88	1671.14
679.07	1755.11
679.25	1708.01
679.44	1699.81
679.63	1560.55
679.81	1722.34
680.00	1796.07
680.18	1718.25
680.37	1824.74
680.55	1746.92
680.74	1654.76
680.93	1505.26
681.11	1744.87
681.30	1716.20
681.48	1726.44
681.67	1640.42
681.85	1761.25
682.04	1593.32
682.23	1779.68
682.41	1777.64
682.60	1699.81
682.78	1646.57
682.97	1630.18
683.15	1802.21
683.34	1742.82
683.53	1814.50
683.71	1628.14
683.90	1755.11
684.08	1804.26
684.27	1705.96
684.45	1714.15
684.64	1796.07
684.82	1617.90
685.01	1763.30
685.19	1710.05
685.38	1802.21
685.57	1746.92
685.75	1683.43
685.94	1679.33
686.12	1615.85
686.31	1669.09
686.49	1800.16
686.68	1607.66
686.86	1796.07
687.05	1687.53
687.23	1781.73
687.42	1691.62
687.60	1587.18
687.79	1783.78
687.97	1701.86
688.16	1757.16
688.34	1798.12
688.53	1638.38
688.71	1765.35
688.90	1787.88
689.08	1683.43
689.27	1656.81
689.45	1714.15
689.64	1703.91
689.82	1648.61
690.01	1603.56
690.19	1748.97
690.38	1720.29
690.56	1800.16
690.75	1621.99
690.93	1572.84
691.12	1652.71
691.30	1695.72
691.49	1718.25
691.67	1640.42
691.86	1796.07
692.04	1630.18
692.23	1695.72
692.41	1724.39
692.60	1783.78
692.78	1771.49
692.97	1716.20
693.15	1665.00
693.34	1791.97
693.52	1724.39
693.71	1705.96
693.89	1697.77
694.08	1591.27
694.26	1744.87
694.44	1726.44
694.63	1734.63
694.81	1658.85
695.00	1658.85
695.18	1794.02
695.37	1785.83
695.55	1708.01
695.74	1720.29
695.92	1638.38
696.10	1791.97
696.29	1599.46
696.47	1693.67
696.66	1605.61
696.84	1619.94
697.03	1720.29
697.21	1877.99
697.40	2336.73
697.58	1738.73
697.76	1691.62
697.95	1763.30
698.13	1671.14
698.32	1714.15
698.50	1763.30
698.68	1773.54
698.87	1724.39
699.05	1779.68
699.24	1689.57
699.42	1601.51
699.61	1718.25
699.79	1673.19
699.97	1689.57
700.16	1658.85
700.34	1542.12
700.53	1697.77
700.71	1796.07
700.89	1771.49
701.08	1710.05
701.26	1710.05
701.45	2148.32
701.63	1738.73
701.81	1699.81
702.00	1701.86
702.18	1748.97
702.37	1656.81
702.55	1701.86
702.73	1636.33
702.92	1646.57
703.10	1740.77
703.28	1714.15
703.47	1650.66
703.65	1732.58
703.84	1734.63
704.02	1644.52
704.20	1755.11
704.39	1621.99
704.57	1687.53
704.75	1742.82
704.94	1748.97
705.12	1726.44
705.30	1777.64
705.49	2230.24
705.67	4562.87
705.86	9582.45
706.04	12789.56
706.22	14847.77
706.41	15818.51
706.59	14102.31
706.77	9920.36
706.96	7389.07
707.14	6756.25
707.32	5941.16
707.51	5709.74
707.69	5038.00
707.87	4319.17
708.06	3585.99
708.24	2955.22
708.42	2559.96
708.61	2205.66
708.79	1914.85
708.97	1853.41
709.16	1855.46
709.34	1794.02
709.52	1695.72
709.71	1691.62
709.89	1843.17
710.07	1677.29
710.26	1591.27
710.44	1765.35
710.62	1730.53
710.80	1751.01
710.99	1806.31
711.17	1738.73
711.35	1708.01
711.54	1675.24
711.72	1699.81
711.90	1779.68
712.09	1650.66
712.27	1597.42
712.45	1757.16
712.63	1689.57
712.82	1689.57
713.00	1732.58
713.18	1755.11
713.37	1789.92
713.55	1738.73
713.73	1693.67
713.91	1742.82
714.10	1767.40
714.28	1652.71
714.46	1714.15
714.65	1777.64
714.83	1734.63
715.01	1708.01
715.19	1728.49
715.38	1693.67
715.56	1712.10
715.74	1654.76
715.92	1718.25
716.11	1806.31
716.29	1630.18
716.47	1722.34
716.65	1751.01
716.84	1603.56
717.02	1724.39
717.20	1634.28
717.38	1658.85
717.57	1751.01
717.75	1683.43
717.93	1705.96
718.11	1785.83
718.30	1634.28
718.48	1669.09
718.66	1820.64
718.84	1755.11
719.03	1689.57
719.21	1636.33
719.39	1757.16
719.57	1738.73
719.75	1701.86
719.94	1677.29
720.12	1673.19
720.30	1736.68
720.48	1765.35
720.67	1619.94
720.85	1609.70
721.03	1660.90
721.21	1640.42
721.39	1763.30
721.58	1714.15
721.76	1671.14
721.94	1687.53
722.12	1726.44
722.30	1800.16
722.49	1665.00
722.67	1683.43
722.85	1710.05
723.03	1675.24
723.21	1607.66
723.40	1699.81
723.58	1791.97
723.76	1683.43
723.94	1775.59
724.12	1652.71
724.30	1671.14
724.49	1789.92
724.67	1599.46
724.85	1822.69
725.03	1695.72
725.21	1751.01
725.40	1746.92
725.58	1638.38
725.76	1769.44
725.94	1794.02
726.12	1632.23
726.30	1710.05
726.49	1677.29
726.67	1689.57
726.85	1685.48
727.03	1759.21
727.21	2136.03
727.39	2885.59
727.57	3717.06
727.76	4173.76
727.94	4454.33
728.12	4448.19
728.30	3688.39
728.48	2889.68
728.66	2787.29
728.84	2588.63
729.03	2322.40
729.21	2172.89
729.39	1986.53
729.57	1808.36
729.75	1888.23
729.93	1779.68
730.11	1691.62
730.30	1714.15
730.48	1583.08
730.66	1738.73
730.84	1828.84
731.02	1681.38
731.20	1679.33
731.38	1685.48
731.56	1630.18
731.74	1636.33
731.93	1679.33
732.11	1630.18
732.29	1667.05
732.47	1720.29
732.65	1691.62
732.83	1787.88
733.01	1669.09
733.19	1718.25
733.37	1734.63
733.56	1685.48
733.74	1716.20
733.92	1808.36
734.10	1634.28
734.28	1767.40
734.46	1708.01
734.64	1658.85
734.82	1789.92
735.00	1613.80
735.18	1621.99
735.36	1748.97
735.54	1685.48
735.73	1708.01
735.91	1730.53
736.09	1708.01
736.27	1716.20
736.45	1837.03
736.63	1554.41
736.81	1693.67
736.99	1816.55
737.17	1804.26
737.35	1673.19
737.53	1701.86
737.71	1683.43
737.89	1800.16
738.07	1656.81
738.25	1652.71
738.43	1652.71
738.61	1638.38
738.80	1658.85
738.98	1695.72
739.16	1697.77
739.34	1615.85
739.52	1753.06
739.70	1652.71
739.88	1736.68
740.06	1763.30
740.24	1562.60
740.42	1789.92
740.60	1681.38
740.78	1650.66
740.96	1601.51
741.14	1699.81
741.32	1712.10
741.50	1617.90
741.68	1816.55
741.86	1845.22
742.04	1644.52
742.22	1650.66
742.40	1646.57
742.58	1681.38
742.76	1755.11
742.94	1771.49
743.12	1621.99
743.30	1697.77
743.48	1753.06
743.66	1640.42
743.84	1718.25
744.02	1722.34
744.20	1763.30
744.38	1650.66
744.56	1654.76
744.74	1845.22
744.92	1615.85
745.10	1722.34
745.28	1708.01
745.46	1757.16
745.64	1726.44
745.82	1779.68
746.00	1693.67
746.18	1734.63
746.36	1648.61
746.54	1740.77
746.72	1730.53
746.90	1626.09
747.08	1746.92
747.26	1693.67
747.44	1681.38
747.62	1757.16
747.80	1705.96
747.98	1714.15
748.15	1718.25
748.33	1818.60
748.51	1687.53
748.69	1705.96
748.87	1644.52
749.05	1646.57
749.23	1779.68
749.41	1576.94
749.59	1626.09
749.77	1734.63
749.95	1644.52
750.13	1665.00
750.31	1761.25
750.49	1701.86
750.67	1734.63
750.85	1816.55
751.03	1685.48
751.20	1857.51
751.38	1787.88
751.56	1660.90
751.74	1693.67
751.92	1705.96
752.10	1665.00
752.28	1789.92
752.46	1687.53
752.64	1646.57
752.82	1751.01
753.00	1794.02
753.18	1708.01
753.35	1646.57
753.53	1738.73
753.71	1660.90
753.89	1708.01
754.07	1708.01
754.25	1748.97
754.43	1730.53
754.61	1714.15
754.79	1722.34
754.97	1742.82
755.14	1736.68
755.32	1542.12
755.50	1689.57
755.68	1718.25
755.86	1710.05
756.04	1665.00
756.22	1648.61
756.40	1740.77
756.57	1783.78
756.75	1708.01
756.93	1779.68
757.11	1748.97
757.29	1714.15
757.47	1708.01
757.65	1615.85
757.82	1540.07
758.00	1689.57
758.18	1615.85
758.36	1601.51
758.54	1781.73
758.72	1607.66
758.90	1779.68
759.07	1746.92
759.25	1560.55
759.43	1708.01
759.61	1626.09
759.79	2201.57
759.97	1703.91
760.15	1691.62
760.32	1650.66
760.50	1650.66
760.68	1890.28
760.86	1595.37
761.04	1822.69
761.22	1662.95
761.39	1689.57
761.57	1763.30
761.75	1716.20
761.93	1738.73
762.11	1591.27
762.28	1681.38
762.46	1650.66
762.64	1822.69
762.82	1658.85
763.00	1681.38
763.18	1716.20
763.35	1652.71
763.53	1753.06
763.71	1658.85
763.89	1714.15
764.07	1726.44
764.24	1724.39
764.42	1712.10
764.60	1626.09
764.78	1683.43
764.96	1691.62
765.13	1841.12
765.31	1607.66
765.49	1665.00
765.67	1697.77
765.84	1640.42
766.02	1628.14
766.20	1650.66
766.38	1660.90
766.56	1718.25
766.73	1742.82
766.91	1632.23
767.09	1685.48
767.27	1728.49
767.44	1621.99
767.62	1744.87
767.80	1705.96
767.98	1714.15
768.15	1634.28
768.33	1714.15
768.51	1787.88
768.69	1708.01
768.87	1699.81
769.04	1644.52
769.22	1775.59
769.40	1798.12
769.58	1861.60
769.75	1705.96
769.93	1832.93
770.11	1687.53
770.28	1685.48
770.46	1789.92
770.64	1671.14
770.82	1708.01
770.99	1654.76
771.17	1712.10
771.35	1699.81
771.53	1759.21
771.70	1710.05
771.88	1742.82
772.06	1746.92
772.23	1699.81
772.41	1726.44
772.59	1685.48
772.77	1642.47
772.94	1687.53
773.12	1710.05
773.30	1650.66
773.47	1648.61
773.65	1578.98
773.83	1806.31
774.01	1708.01
774.18	1673.19
774.36	1675.24
774.54	1673.19
774.71	1695.72
774.89	1648.61
775.07	1644.52
775.24	1667.05
775.42	1746.92
775.60	1787.88
775.78	1644.52
775.95	1624.04
776.13	1646.57
776.31	1591.27
776.48	1710.05
776.66	1751.01
776.84	1669.09
777.01	1683.43
777.19	1716.20
777.37	1705.96
777.54	1708.01
777.72	1800.16
777.90	1689.57
778.07	1681.38
778.25	1890.28
778.43	1734.63
778.60	1691.62
778.78	1757.16
778.96	1705.96
779.13	1576.94
779.31	1775.59
779.49	1785.83
779.66	1693.67
779.84	1771.49
780.01	1644.52
780.19	1599.46
780.37	1685.48
780.54	1730.53
780.72	1699.81
780.90	1681.38
781.07	1693.67
781.25	1681.38
781.43	1765.35
781.60	1705.96
781.78	1785.83
781.95	1681.38
782.13	1687.53
782.31	1695.72
782.48	1628.14
782.66	1710.05
782.83	1763.30
783.01	1689.57
783.19	1726.44
783.36	1636.33
783.54	1689.57
783.72	1744.87
783.89	1581.03
784.07	1712.10
784.24	1730.53
784.42	1732.58
784.60	1748.97
784.77	1767.40
784.95	1572.84
785.12	1624.04
785.30	1765.35
785.47	1703.91
785.65	1732.58
785.83	1724.39
786.00	1589.22
786.18	1732.58
786.35	1605.61
786.53	1624.04
786.71	1689.57
786.88	1701.86
787.06	1716.20
787.23	1683.43
787.41	1636.33
787.58	1683.43
787.76	1619.94
787.94	1667.05
788.11	1699.81
788.29	1656.81
788.46	1693.67
788.64	1679.33
788.81	1673.19
788.99	1638.38
789.16	1607.66
789.34	1621.99
789.52	1642.47
789.69	1687.53
789.87	1574.89
790.04	1705.96
790.22	1689.57
790.39	1841.12
790.57	1656.81
790.74	1681.38
790.92	1787.88
791.09	1581.03
791.27	1703.91
791.44	1728.49
791.62	1761.25
791.79	1744.87
791.97	1667.05
792.15	1873.89
792.32	1753.06
792.50	1722.34
792.67	1779.68
792.85	1742.82
793.02	1712.10
793.20	1669.09
793.37	1601.51
793.55	1599.46
793.72	1578.98
793.90	1759.21
794.07	1691.62
794.25	1574.89
794.42	1652.71
794.60	1667.05
794.77	1744.87
794.95	1773.54
795.12	1693.67
795.30	1656.81
795.47	1607.66
795.65	1906.66
795.82	1794.02
796.00	1652.71
796.17	1654.76
796.34	1652.71
796.52	1685.48
796.69	1708.01
796.87	1720.29
797.04	1695.72
797.22	1834.98
797.39	1683.43
797.57	1744.87
797.74	1665.00
797.92	1742.82
798.09	1662.95
798.27	1671.14
798.44	1726.44
798.62	1689.57
798.79	1794.02
798.96	1693.67
799.14	1675.24
799.31	1861.60
799.49	1660.90
799.66	1675.24
799.84	1726.44
800.01	1693.67
800.19	1746.92
800.36	1599.46
800.53	1648.61
800.71	1701.86
800.88	1771.49
801.06	1634.28
801.23	1720.29
801.41	1685.48
801.58	1656.81
801.75	1654.76
801.93	1718.25
802.10	1757.16
802.28	1662.95
802.45	1738.73
802.63	1697.77
802.80	1740.77
802.97	1699.81
803.15	1714.15
803.32	1691.62
803.50	1650.66
803.67	1636.33
803.84	1603.56
804.02	1693.67
804.19	1665.00
804.37	1615.85
804.54	1607.66
804.71	1691.62
804.89	1757.16
805.06	1578.98
805.24	1597.42
805.41	1652.71
805.58	1658.85
805.76	1869.80
805.93	1734.63
806.10	1738.73
806.28	1734.63
806.45	1726.44
806.63	1679.33
806.80	1744.87
806.97	1705.96
807.15	1691.62
807.32	1648.61
807.49	1703.91
807.67	1636.33
807.84	1695.72
808.01	1652.71
808.19	1810.40
808.36	1785.83
808.54	1722.34
808.71	1646.57
808.88	1738.73
809.06	1628.14
809.23	1705.96
809.40	1591.27
809.58	1703.91
809.75	1697.77
809.92	1667.05
810.10	1832.93
810.27	1689.57
810.44	1722.34
810.62	1714.15
810.79	1738.73
810.96	1701.86
811.14	1667.05
811.31	1746.92
811.48	1716.20
811.66	1662.95
811.83	1722.34
812.00	1738.73
812.18	1759.21
812.35	1894.37
812.52	1644.52
812.69	1648.61
812.87	1730.53
813.04	1667.05
813.21	1703.91
813.39	1673.19
813.56	1630.18
813.73	1789.92
813.91	1576.94
814.08	1746.92
814.25	1757.16
814.42	1624.04
814.60	1658.85
814.77	1722.34
814.94	1679.33
815.12	1757.16
815.29	1744.87
815.46	1619.94
815.63	1716.20
815.81	1722.34
815.98	1613.80
816.15	1679.33
816.33	1687.53
816.50	1662.95
816.67	1716.20
816.84	1677.29
817.02	1605.61
817.19	1746.92
817.36	1771.49
817.53	1738.73
817.71	1689.57
817.88	1722.34
818.05	1689.57
818.22	1621.99
818.40	1787.88
818.57	1652.71
818.74	1695.72
818.91	1710.05
819.09	1736.68
819.26	1652.71
819.43	1691.62
819.60	1648.61
819.78	1683.43
819.95	1808.36
820.12	1648.61
820.29	1771.49
820.47	1742.82
820.64	1624.04
820.81	1642.47
820.98	1609.70
821.15	1652.71
821.33	1759.21
821.50	1558.50
821.67	1746.92
821.84	1755.11
822.02	1738.73
822.19	1701.86
822.36	1628.14
822.53	1662.95
822.70	1685.48
822.88	1730.53
823.05	1705.96
823.22	1636.33
823.39	1787.88
823.56	1652.71
823.74	1802.21
823.91	1632.23
824.08	1619.94
824.25	1636.33
824.42	1806.31
824.60	1611.75
824.77	1742.82
824.94	1722.34
825.11	1718.25
825.28	1585.13
825.45	1658.85
825.63	1720.29
825.80	1652.71
825.97	1738.73
826.14	1710.05
826.31	1669.09
826.48	1779.68
826.66	1640.42
826.83	1615.85
827.00	1734.63
827.17	1679.33
827.34	1691.62
827.51	1619.94
827.69	1705.96
827.86	1708.01
828.03	1722.34
828.20	1677.29
828.37	1662.95
828.54	1732.58
828.71	1662.95
828.89	1808.36
829.06	1736.68
829.23	1828.84
829.40	1630.18
829.57	1634.28
829.74	1730.53
829.91	1718.25
830.09	1656.81
830.26	1742.82
830.43	1763.30
830.60	1654.76
830.77	1722.34
830.94	1748.97
831.11	1730.53
831.28	1658.85
831.46	1781.73
831.63	1693.67
831.80	1693.67
831.97	1644.52
832.14	1679.33
832.31	1744.87
832.48	1683.43
832.65	1834.98
832.82	1638.38
832.99	1769.44
833.17	1621.99
833.34	1775.59
833.51	1708.01
833.68	1613.80
833.85	1671.14
834.02	1609.70
834.19	1654.76
834.36	1677.29
834.53	1722.34
834.70	1720.29
834.87	1697.77
835.04	1679.33
835.22	1722.34
835.39	1710.05
835.56	1665.00
835.73	1730.53
835.90	1773.54
836.07	1652.71
836.24	1718.25
836.41	1681.38
836.58	1611.75
836.75	1652.71
836.92	1708.01
837.09	1630.18
837.26	1726.44
837.43	1738.73
837.60	1632.23
837.77	1640.42
837.94	1697.77
838.12	1767.40
838.29	1603.56
838.46	1660.90
838.63	1568.74
838.80	1740.77
838.97	1761.25
839.14	1675.24
839.31	1640.42
839.48	1681.38
839.65	1617.90
839.82	1705.96
839.99	1679.33
840.16	1736.68
840.33	1624.04
840.50	1611.75
840.67	1677.29
840.84	1540.07
841.01	1701.86
841.18	1654.76
841.35	1673.19
841.52	1779.68
841.69	1794.02
841.86	1751.01
842.03	1677.29
842.20	1701.86
842.37	1730.53
842.54	1738.73
842.71	1695.72
842.88	1611.75
843.05	1742.82
843.22	1624.04
843.39	1697.77
843.56	1632.23
843.73	1783.78
843.90	1765.35
844.07	1652.71
844.24	1689.57
844.41	1742.82
844.58	1726.44
844.75	1660.90
844.92	1734.63
845.09	1669.09
845.26	1632.23
845.43	1728.49
845.60	1738.73
845.77	1820.64
845.94	1681.38
846.10	1783.78
846.27	1525.74
846.44	1624.04
846.61	1705.96
846.78	1751.01
846.95	1720.29
847.12	1718.25
847.29	1673.19
847.46	1703.91
847.63	1761.25
847.80	1599.46
847.97	1708.01
848.14	1834.98
848.31	1710.05
848.48	1644.52
848.65	1705.96
848.82	1716.20
848.98	1783.78
849.15	1734.63
849.32	1767.40
849.49	1716.20
849.66	1677.29
849.83	1740.77
850.00	1636.33
850.17	1728.49
850.34	1654.76
850.51	1640.42
850.68	1714.15
850.85	1787.88
851.01	1705.96
851.18	1787.88
851.35	1759.21
851.52	1673.19
851.69	1757.16
851.86	1611.75
852.03	1722.34
852.20	1701.86
852.37	1669.09
852.53	1675.24
852.70	1683.43
852.87	1681.38
853.04	1703.91
853.21	1671.14
853.38	1789.92
853.55	1746.92
853.72	1820.64
853.89	1703.91
854.05	1662.95
854.22	1701.86
854.39	1658.85
854.56	1759.21
854.73	1765.35
854.90	1591.27
855.07	1673.19
855.23	1669.09
855.40	1705.96
855.57	1710.05
855.74	1531.88
855.91	1837.03
856.08	1695.72
856.25	1671.14
856.41	1705.96
856.58	1699.81
856.75	1697.77
856.92	1621.99
857.09	1728.49
857.26	1697.77
857.42	1755.11
857.59	1712.10
857.76	1611.75
857.93	1685.48
858.10	1685.48
858.27	1722.34
858.43	1701.86
858.60	1683.43
858.77	1648.61
858.94	1632.23
859.11	1787.88
859.27	1689.57
859.44	1677.29
859.61	1783.78
859.78	1669.09
859.95	1708.01
860.12	1591.27
860.28	1818.60
860.45	1742.82
860.62	1621.99
860.79	1697.77
860.95	1677.29
861.12	1689.57
861.29	1693.67
861.46	1648.61
861.63	1603.56
861.79	1726.44
861.96	1687.53
862.13	1691.62
862.30	1722.34
862.47	1681.38
862.63	1662.95
862.80	1665.00
862.97	1839.08
863.14	1730.53
863.30	1761.25
863.47	1681.38
863.64	1740.77
863.81	1769.44
863.97	1669.09
864.14	1712.10
864.31	1669.09
864.48	1685.48
864.65	1667.05
864.81	1787.88
864.98	1689.57
865.15	1781.73
865.32	1777.64
865.48	1658.85
865.65	1816.55
865.82	1642.47
865.98	1708.01
866.15	1701.86
866.32	1669.09
866.49	1732.58
866.65	1716.20
866.82	1648.61
866.99	1710.05
867.16	1714.15
867.32	1632.23
867.49	1673.19
867.66	1697.77
867.83	1636.33
867.99	1603.56
868.16	1724.39
868.33	1656.81
868.49	1714.15
868.66	1648.61
868.83	1705.96
868.99	1695.72
869.16	1628.14
869.33	1775.59
869.50	1742.82
869.66	1701.86
869.83	1724.39
870.00	1603.56
870.16	1734.63
870.33	1697.77
870.50	1683.43
870.66	1771.49
870.83	1794.02
871.00	1685.48
871.17	1689.57
871.33	1771.49
871.50	1644.52
871.67	1701.86
871.83	1640.42
872.00	1726.44
872.17	1658.85
872.33	1708.01
872.50	1746.92
872.67	1712.10
872.83	1642.47
873.00	1667.05
873.17	1742.82
873.33	1759.21
873.50	1705.96
873.67	1632.23
873.83	1724.39
874.00	1714.15
874.16	1779.68
874.33	1662.95
874.50	1648.61
874.66	1687.53
874.83	1667.05
875.00	1755.11
875.16	1775.59
875.33	1787.88
875.50	1503.21
875.66	1671.14
875.83	1708.01
875.99	1699.81
876.16	1660.90
876.33	1587.18
876.49	1734.63
876.66	1677.29
876.83	1673.19
876.99	1621.99
877.16	1722.34
877.32	1724.39
877.49	1740.77
877.66	1746.92
877.82	1673.19
877.99	1679.33
878.15	1748.97
878.32	1751.01
878.49	1734.63
878.65	1632.23
878.82	1767.40
878.98	1615.85
879.15	1757.16
879.32	1677.29
879.48	1695.72
879.65	1685.48
879.81	1609.70
879.98	1689.57
880.15	1693.67
880.31	1712.10
880.48	1669.09
880.64	1753.06
880.81	1726.44
880.97	1798.12
881.14	1746.92
881.31	1677.29
881.47	1843.17
881.64	1648.61
881.80	1640.42
881.97	1699.81
882.13	1781.73
882.30	1595.37
882.47	1634.28
882.63	1683.43
882.80	1636.33
882.96	1675.24
883.13	1767.40
883.29	1671.14
883.46	1781.73
883.62	1789.92
883.79	1720.29
883.95	1800.16
884.12	1722.34
884.29	1800.16
884.45	1665.00
884.62	1697.77
884.78	1609.70
884.95	1724.39
885.11	1609.70
885.28	1699.81
885.44	1630.18
885.61	1759.21
885.77	1751.01
885.94	1738.73
886.10	1687.53
886.27	1699.81
886.43	1757.16
886.60	1771.49
886.76	1685.48
886.93	1642.47
887.09	1777.64
887.26	1624.04
887.42	1679.33
887.59	1751.01
887.75	1808.36
887.92	1728.49
888.08	1722.34
888.25	1763.30
888.41	1740.77
888.58	1675.24
888.74	1679.33
888.91	1654.76
>>>>>End Processed Spectral Data<<<<<
