SpectraSuite Data File
++++++++++++++++++++++++++++++++++++
Date: Mon Jun 06 13:11:17 CEST 2016
User: root
Dark Spectrum Present: No
Reference Spectrum Present: No
Number of Sampled Component Spectra: 1
Spectrometers: USB4C02835
Integration Time (usec): 100000 (USB4C02835)
Spectra Averaged: 1 (USB4C02835)
Boxcar Smoothing: 0 (USB4C02835)
Correct for Electrical Dark: No (USB4C02835)
Strobe/Lamp Enabled: No (USB4C02835)
Correct for Detector Non-linearity: No (USB4C02835)
Correct for Stray Light: No (USB4C02835)
Number of Pixels in Processed Spectrum: 3648
>>>>>Begin Processed Spectral Data<<<<<
177.47	1472.49
177.69	1472.49
177.91	1472.49
178.13	1466.35
178.36	1396.71
178.58	1554.41
178.80	1730.53
179.02	1611.75
179.24	1644.52
179.46	1667.05
179.68	1785.83
179.90	1654.76
180.13	1767.40
180.35	1681.38
180.57	1667.05
180.79	1722.34
181.01	1628.14
181.23	1757.16
181.45	1757.16
181.67	1693.67
181.90	1738.73
182.12	1673.19
182.34	1626.09
182.56	1804.26
182.78	1699.81
183.00	1708.01
183.22	1714.15
183.44	1658.85
183.66	1912.80
183.89	1777.64
184.11	1689.57
184.33	1730.53
184.55	1757.16
184.77	1755.11
184.99	1691.62
185.21	1665.00
185.43	1759.21
185.65	1646.57
185.87	1722.34
186.10	1845.22
186.32	1837.03
186.54	1705.96
186.76	1757.16
186.98	1751.01
187.20	1673.19
187.42	1748.97
187.64	1751.01
187.86	1671.14
188.08	1710.05
188.30	1712.10
188.52	1695.72
188.75	1728.49
188.97	1740.77
189.19	1701.86
189.41	1742.82
189.63	1685.48
189.85	1705.96
190.07	1634.28
190.29	1671.14
190.51	1779.68
190.73	1638.38
190.95	1716.20
191.17	1609.70
191.39	1669.09
191.61	1617.90
191.84	1732.58
192.06	1751.01
192.28	1609.70
192.50	2002.91
192.72	1738.73
192.94	1701.86
193.16	1761.25
193.38	1734.63
193.60	1636.33
193.82	1683.43
194.04	1728.49
194.26	1687.53
194.48	1722.34
194.70	1679.33
194.92	1660.90
195.14	1757.16
195.36	1677.29
195.58	1755.11
195.80	1693.67
196.02	1685.48
196.24	1712.10
196.46	1648.61
196.69	1669.09
196.91	1789.92
197.13	1667.05
197.35	1650.66
197.57	1791.97
197.79	1728.49
198.01	1728.49
198.23	1658.85
198.45	1720.29
198.67	1681.38
198.89	1730.53
199.11	1681.38
199.33	1658.85
199.55	1558.50
199.77	1693.67
199.99	1796.07
200.21	1685.48
200.43	1773.54
200.65	1595.37
200.87	1617.90
201.09	1679.33
201.31	1705.96
201.53	1851.36
201.75	1751.01
201.97	1746.92
202.19	1687.53
202.41	1718.25
202.63	1720.29
202.85	1806.31
203.07	1753.06
203.29	1656.81
203.51	1656.81
203.73	1607.66
203.95	1925.09
204.17	1722.34
204.39	1787.88
204.61	1671.14
204.83	1638.38
205.05	1697.77
205.27	1775.59
205.49	1822.69
205.71	1726.44
205.93	1662.95
206.15	1585.13
206.37	1720.29
206.59	1718.25
206.81	1693.67
207.03	1613.80
207.25	1595.37
207.47	1724.39
207.69	1652.71
207.91	1730.53
208.13	1804.26
208.34	1667.05
208.56	1640.42
208.78	1767.40
209.00	1626.09
209.22	1722.34
209.44	1648.61
209.66	1697.77
209.88	1699.81
210.10	1648.61
210.32	1621.99
210.54	1783.78
210.76	1673.19
210.98	1718.25
211.20	1615.85
211.42	1753.06
211.64	1759.21
211.86	1785.83
212.08	1726.44
212.30	1744.87
212.52	1705.96
212.74	1652.71
212.96	1769.44
213.17	1697.77
213.39	1685.48
213.61	1730.53
213.83	1763.30
214.05	1673.19
214.27	1765.35
214.49	1679.33
214.71	1724.39
214.93	1751.01
215.15	1742.82
215.37	1726.44
215.59	1742.82
215.81	1703.91
216.03	1802.21
216.24	1681.38
216.46	1673.19
216.68	1642.47
216.90	1751.01
217.12	1853.41
217.34	1732.58
217.56	1753.06
217.78	1751.01
218.00	1738.73
218.22	1763.30
218.44	1728.49
218.66	1722.34
218.87	1740.77
219.09	1724.39
219.31	1734.63
219.53	1728.49
219.75	1634.28
219.97	1667.05
220.19	1640.42
220.41	1705.96
220.63	1726.44
220.85	1800.16
221.06	1609.70
221.28	1814.50
221.50	1716.20
221.72	1726.44
221.94	1656.81
222.16	1716.20
222.38	1824.74
222.60	1757.16
222.82	1624.04
223.03	1726.44
223.25	1634.28
223.47	1695.72
223.69	1804.26
223.91	1703.91
224.13	1638.38
224.35	1644.52
224.57	1751.01
224.78	1746.92
225.00	1544.17
225.22	1667.05
225.44	1730.53
225.66	1755.11
225.88	1699.81
226.10	1759.21
226.32	1765.35
226.53	1751.01
226.75	1628.14
226.97	1714.15
227.19	1716.20
227.41	1671.14
227.63	1667.05
227.85	1576.94
228.06	1785.83
228.28	1693.67
228.50	1703.91
228.72	1599.46
228.94	1648.61
229.16	1624.04
229.37	1662.95
229.59	1710.05
229.81	1722.34
230.03	1624.04
230.25	1638.38
230.47	1693.67
230.69	1638.38
230.90	1802.21
231.12	1697.77
231.34	1636.33
231.56	1761.25
231.78	1648.61
232.00	1755.11
232.21	1656.81
232.43	1626.09
232.65	1613.80
232.87	1759.21
233.09	1679.33
233.30	1714.15
233.52	1744.87
233.74	1740.77
233.96	1679.33
234.18	1624.04
234.40	1761.25
234.61	1802.21
234.83	1689.57
235.05	1671.14
235.27	1834.98
235.49	1779.68
235.70	1755.11
235.92	1738.73
236.14	1683.43
236.36	1880.04
236.58	1613.80
236.79	1689.57
237.01	1701.86
237.23	1701.86
237.45	1798.12
237.67	1607.66
237.88	1675.24
238.10	1824.74
238.32	1648.61
238.54	1662.95
238.76	1724.39
238.97	1685.48
239.19	1650.66
239.41	1775.59
239.63	1685.48
239.85	1699.81
240.06	1681.38
240.28	1669.09
240.50	1667.05
240.72	1724.39
240.93	1710.05
241.15	1767.40
241.37	1638.38
241.59	1800.16
241.81	1728.49
242.02	1685.48
242.24	1722.34
242.46	1705.96
242.68	1738.73
242.89	1681.38
243.11	1701.86
243.33	1740.77
243.55	1708.01
243.76	1703.91
243.98	1650.66
244.20	1740.77
244.42	1779.68
244.64	1722.34
244.85	1570.79
245.07	1665.00
245.29	1738.73
245.51	1648.61
245.72	1646.57
245.94	1744.87
246.16	1599.46
246.38	1763.30
246.59	1644.52
246.81	1642.47
247.03	1660.90
247.24	1660.90
247.46	1658.85
247.68	1751.01
247.90	1699.81
248.11	1652.71
248.33	1701.86
248.55	1722.34
248.77	1712.10
248.98	1720.29
249.20	1773.54
249.42	1701.86
249.64	1789.92
249.85	1779.68
250.07	1712.10
250.29	1722.34
250.50	1748.97
250.72	1660.90
250.94	1748.97
251.16	1812.45
251.37	1771.49
251.59	1757.16
251.81	1699.81
252.02	1738.73
252.24	1599.46
252.46	1718.25
252.68	1636.33
252.89	1673.19
253.11	1636.33
253.33	1796.07
253.54	1796.07
253.76	1611.75
253.98	1648.61
254.20	1738.73
254.41	1640.42
254.63	1730.53
254.85	1638.38
255.06	1710.05
255.28	1720.29
255.50	1705.96
255.71	1679.33
255.93	1607.66
256.15	1599.46
256.36	1730.53
256.58	1699.81
256.80	1738.73
257.02	1667.05
257.23	1687.53
257.45	1701.86
257.67	1681.38
257.88	1665.00
258.10	1683.43
258.32	1640.42
258.53	1728.49
258.75	1763.30
258.97	1763.30
259.18	1705.96
259.40	1720.29
259.62	1746.92
259.83	1771.49
260.05	1791.97
260.27	1882.08
260.48	1656.81
260.70	1632.23
260.92	1765.35
261.13	1708.01
261.35	1671.14
261.57	1722.34
261.78	1630.18
262.00	1679.33
262.22	1775.59
262.43	1572.84
262.65	1718.25
262.86	1667.05
263.08	1873.89
263.30	1634.28
263.51	1646.57
263.73	1613.80
263.95	1800.16
264.16	1673.19
264.38	1669.09
264.60	1697.77
264.81	1677.29
265.03	1726.44
265.25	1763.30
265.46	1712.10
265.68	1761.25
265.89	1810.40
266.11	1615.85
266.33	1738.73
266.54	1773.54
266.76	1705.96
266.98	1705.96
267.19	1763.30
267.41	1714.15
267.62	1724.39
267.84	1621.99
268.06	1693.67
268.27	1691.62
268.49	1804.26
268.70	1771.49
268.92	1626.09
269.14	1646.57
269.35	1585.13
269.57	1687.53
269.79	1728.49
270.00	1636.33
270.22	1800.16
270.43	1648.61
270.65	1603.56
270.87	1658.85
271.08	1701.86
271.30	1763.30
271.51	1671.14
271.73	1759.21
271.95	1740.77
272.16	1681.38
272.38	1699.81
272.59	1677.29
272.81	1701.86
273.02	1675.24
273.24	1683.43
273.46	1708.01
273.67	1626.09
273.89	1642.47
274.10	1636.33
274.32	1773.54
274.54	1726.44
274.75	1710.05
274.97	1740.77
275.18	1730.53
275.40	1783.78
275.61	1714.15
275.83	1736.68
276.05	1669.09
276.26	1712.10
276.48	1753.06
276.69	1658.85
276.91	1730.53
277.12	1738.73
277.34	1791.97
277.55	1746.92
277.77	1621.99
277.99	1613.80
278.20	1544.17
278.42	1615.85
278.63	1671.14
278.85	1638.38
279.06	1662.95
279.28	1691.62
279.49	1685.48
279.71	1738.73
279.93	1710.05
280.14	1714.15
280.36	1753.06
280.57	1789.92
280.79	1701.86
281.00	1638.38
281.22	1605.61
281.43	1746.92
281.65	1603.56
281.86	1597.42
282.08	1730.53
282.29	1810.40
282.51	1626.09
282.73	1615.85
282.94	1632.23
283.16	1851.36
283.37	1705.96
283.59	1665.00
283.80	1679.33
284.02	1673.19
284.23	1701.86
284.45	1683.43
284.66	1738.73
284.88	1632.23
285.09	1746.92
285.31	1779.68
285.52	1767.40
285.74	1578.98
285.95	1755.11
286.17	1705.96
286.38	1716.20
286.60	1722.34
286.81	1710.05
287.03	1652.71
287.24	1736.68
287.46	1710.05
287.67	1626.09
287.89	1794.02
288.10	1712.10
288.32	1728.49
288.53	1730.53
288.75	1720.29
288.96	1732.58
289.18	1648.61
289.39	1642.47
289.61	1783.78
289.82	1822.69
290.04	1773.54
290.25	1658.85
290.47	1667.05
290.68	1636.33
290.90	1732.58
291.11	1593.32
291.33	1742.82
291.54	1566.70
291.76	1615.85
291.97	1650.66
292.18	1691.62
292.40	1681.38
292.61	1738.73
292.83	1802.21
293.04	1714.15
293.26	1746.92
293.47	1736.68
293.69	1574.89
293.90	1753.06
294.12	1712.10
294.33	1708.01
294.55	1755.11
294.76	1683.43
294.97	1765.35
295.19	1875.94
295.40	1744.87
295.62	1640.42
295.83	1730.53
296.05	1652.71
296.26	1751.01
296.48	1665.00
296.69	1650.66
296.90	1751.01
297.12	1705.96
297.33	1779.68
297.55	1720.29
297.76	1720.29
297.98	1849.32
298.19	1693.67
298.41	1669.09
298.62	1634.28
298.83	1767.40
299.05	1693.67
299.26	1621.99
299.48	1718.25
299.69	1746.92
299.90	1722.34
300.12	1650.66
300.33	1742.82
300.55	1665.00
300.76	1722.34
300.98	1683.43
301.19	1687.53
301.40	1677.29
301.62	1744.87
301.83	1767.40
302.05	1710.05
302.26	1757.16
302.47	1710.05
302.69	1609.70
302.90	1683.43
303.12	1550.31
303.33	1710.05
303.54	1765.35
303.76	1675.24
303.97	1660.90
304.19	1843.17
304.40	1701.86
304.61	1726.44
304.83	1767.40
305.04	1783.78
305.26	1728.49
305.47	1705.96
305.68	1736.68
305.90	1660.90
306.11	1730.53
306.33	1656.81
306.54	1650.66
306.75	1570.79
306.97	1648.61
307.18	1665.00
307.39	1638.38
307.61	1730.53
307.82	1581.03
308.04	1685.48
308.25	1703.91
308.46	1755.11
308.68	1656.81
308.89	1656.81
309.10	1830.88
309.32	1716.20
309.53	1736.68
309.74	1660.90
309.96	1710.05
310.17	1783.78
310.39	1687.53
310.60	1742.82
310.81	1697.77
311.03	1654.76
311.24	1687.53
311.45	1740.77
311.67	1759.21
311.88	1691.62
312.09	1624.04
312.31	1673.19
312.52	1734.63
312.73	1619.94
312.95	1576.94
313.16	1675.24
313.37	1777.64
313.59	1683.43
313.80	1748.97
314.01	1777.64
314.23	1722.34
314.44	1710.05
314.65	1574.89
314.87	1650.66
315.08	1681.38
315.29	1660.90
315.51	1656.81
315.72	1652.71
315.93	1818.60
316.15	1667.05
316.36	1710.05
316.57	1615.85
316.79	1789.92
317.00	1654.76
317.21	1716.20
317.43	1646.57
317.64	1691.62
317.85	1601.51
318.07	1683.43
318.28	1699.81
318.49	1820.64
318.70	1886.18
318.92	1761.25
319.13	1767.40
319.34	1761.25
319.56	1787.88
319.77	1759.21
319.98	1718.25
320.20	1755.11
320.41	1773.54
320.62	1771.49
320.83	1724.39
321.05	1787.88
321.26	1746.92
321.47	1673.19
321.69	1726.44
321.90	1746.92
322.11	1701.86
322.32	1683.43
322.54	1748.97
322.75	1697.77
322.96	1828.84
323.18	1640.42
323.39	1619.94
323.60	1716.20
323.81	1765.35
324.03	1660.90
324.24	1648.61
324.45	1712.10
324.66	1697.77
324.88	1681.38
325.09	1796.07
325.30	1671.14
325.52	1771.49
325.73	1662.95
325.94	1640.42
326.15	1673.19
326.37	1656.81
326.58	1755.11
326.79	1771.49
327.00	1673.19
327.22	1724.39
327.43	1656.81
327.64	1607.66
327.85	1693.67
328.07	1722.34
328.28	1724.39
328.49	1714.15
328.70	1775.59
328.92	1753.06
329.13	1669.09
329.34	1804.26
329.55	1808.36
329.76	1783.78
329.98	1689.57
330.19	1703.91
330.40	1744.87
330.61	1718.25
330.83	1677.29
331.04	1630.18
331.25	1630.18
331.46	1689.57
331.68	1652.71
331.89	1689.57
332.10	1708.01
332.31	1574.89
332.52	1718.25
332.74	1734.63
332.95	1628.14
333.16	1619.94
333.37	1736.68
333.58	1703.91
333.80	1662.95
334.01	1611.75
334.22	1755.11
334.43	1619.94
334.64	1619.94
334.86	1669.09
335.07	1710.05
335.28	1796.07
335.49	1599.46
335.70	1746.92
335.92	1742.82
336.13	1783.78
336.34	1732.58
336.55	1693.67
336.76	1755.11
336.98	1669.09
337.19	1665.00
337.40	1804.26
337.61	1794.02
337.82	1720.29
338.04	1775.59
338.25	1568.74
338.46	1681.38
338.67	1705.96
338.88	1695.72
339.09	1656.81
339.31	1671.14
339.52	1679.33
339.73	1619.94
339.94	1675.24
340.15	1781.73
340.36	1636.33
340.58	1738.73
340.79	1644.52
341.00	1705.96
341.21	1669.09
341.42	1810.40
341.63	1681.38
341.85	1740.77
342.06	1732.58
342.27	1621.99
342.48	1720.29
342.69	1632.23
342.90	1705.96
343.12	1630.18
343.33	1710.05
343.54	1722.34
343.75	1751.01
343.96	1673.19
344.17	1671.14
344.38	1755.11
344.60	1652.71
344.81	1689.57
345.02	1689.57
345.23	1783.78
345.44	1804.26
345.65	1767.40
345.86	1656.81
346.07	1677.29
346.29	1679.33
346.50	1771.49
346.71	1814.50
346.92	1857.51
347.13	1759.21
347.34	1675.24
347.55	1665.00
347.76	1732.58
347.98	1626.09
348.19	1683.43
348.40	1841.12
348.61	1751.01
348.82	1812.45
349.03	1724.39
349.24	1634.28
349.45	1796.07
349.66	1558.50
349.88	1742.82
350.09	1773.54
350.30	1849.32
350.51	1802.21
350.72	1687.53
350.93	1701.86
351.14	1699.81
351.35	1705.96
351.56	1714.15
351.77	1767.40
351.99	1701.86
352.20	1824.74
352.41	1771.49
352.62	1529.83
352.83	1718.25
353.04	1718.25
353.25	1705.96
353.46	1744.87
353.67	1667.05
353.88	1595.37
354.09	1662.95
354.30	1679.33
354.52	1804.26
354.73	1708.01
354.94	1656.81
355.15	1744.87
355.36	1787.88
355.57	1642.47
355.78	1708.01
355.99	1636.33
356.20	1660.90
356.41	1722.34
356.62	1703.91
356.83	1687.53
357.04	1759.21
357.25	1591.27
357.46	1574.89
357.68	1691.62
357.89	1619.94
358.10	1724.39
358.31	1697.77
358.52	1705.96
358.73	1619.94
358.94	1679.33
359.15	1660.90
359.36	1693.67
359.57	1703.91
359.78	1699.81
359.99	1708.01
360.20	1630.18
360.41	1730.53
360.62	1734.63
360.83	1738.73
361.04	1701.86
361.25	1798.12
361.46	1861.60
361.67	1751.01
361.88	1800.16
362.09	1781.73
362.30	1716.20
362.51	1660.90
362.72	1693.67
362.93	1837.03
363.14	1708.01
363.35	1650.66
363.56	1662.95
363.78	1746.92
363.99	1728.49
364.20	1617.90
364.41	1671.14
364.62	1783.78
364.83	1669.09
365.04	1730.53
365.25	1697.77
365.46	1738.73
365.67	1632.23
365.88	1597.42
366.09	1665.00
366.30	1703.91
366.51	1634.28
366.72	1619.94
366.93	1718.25
367.14	1714.15
367.35	1751.01
367.56	1767.40
367.77	1810.40
367.98	1701.86
368.18	1718.25
368.39	1662.95
368.60	1624.04
368.81	1748.97
369.02	1759.21
369.23	1591.27
369.44	1585.13
369.65	1691.62
369.86	1777.64
370.07	1740.77
370.28	1716.20
370.49	1722.34
370.70	1718.25
370.91	1642.47
371.12	1595.37
371.33	1712.10
371.54	1691.62
371.75	1796.07
371.96	1554.41
372.17	1701.86
372.38	1722.34
372.59	1734.63
372.80	1654.76
373.01	1697.77
373.22	1763.30
373.43	1734.63
373.64	1593.32
373.85	1759.21
374.06	1828.84
374.26	1712.10
374.47	1720.29
374.68	1667.05
374.89	1744.87
375.10	1718.25
375.31	1748.97
375.52	1730.53
375.73	1697.77
375.94	1519.59
376.15	1738.73
376.36	1683.43
376.57	1609.70
376.78	1701.86
376.99	1705.96
377.20	1708.01
377.40	1671.14
377.61	1796.07
377.82	1576.94
378.03	1781.73
378.24	1701.86
378.45	1746.92
378.66	1705.96
378.87	1626.09
379.08	1644.52
379.29	1697.77
379.50	1740.77
379.71	1699.81
379.91	1775.59
380.12	1658.85
380.33	1714.15
380.54	1693.67
380.75	1691.62
380.96	1654.76
381.17	1830.88
381.38	1681.38
381.59	1730.53
381.80	1681.38
382.00	1920.99
382.21	1681.38
382.42	1779.68
382.63	1912.80
382.84	1802.21
383.05	1751.01
383.26	1810.40
383.47	1716.20
383.68	1662.95
383.88	1716.20
384.09	1716.20
384.30	1814.50
384.51	1691.62
384.72	1732.58
384.93	1634.28
385.14	1656.81
385.35	1744.87
385.55	1681.38
385.76	1755.11
385.97	1785.83
386.18	1673.19
386.39	1619.94
386.60	1763.30
386.81	1736.68
387.02	1632.23
387.22	1654.76
387.43	1787.88
387.64	1796.07
387.85	1904.61
388.06	2265.05
388.27	4401.08
388.48	6956.95
388.68	8292.23
388.89	9559.92
389.10	9754.48
389.31	8589.18
389.52	7612.30
389.73	6834.07
389.93	6158.24
390.14	5824.42
390.35	5230.51
390.56	4689.85
390.77	3835.85
390.98	3125.20
391.18	2553.82
391.39	2088.93
391.60	1828.84
391.81	1796.07
392.02	1771.49
392.23	1882.08
392.43	1701.86
392.64	1806.31
392.85	1701.86
393.06	1826.79
393.27	1650.66
393.47	1646.57
393.68	1677.29
393.89	1691.62
394.10	1746.92
394.31	1650.66
394.52	1695.72
394.72	1634.28
394.93	1859.56
395.14	1636.33
395.35	1677.29
395.56	1609.70
395.76	1703.91
395.97	1781.73
396.18	1853.41
396.39	1828.84
396.60	1910.75
396.80	1892.32
397.01	1796.07
397.22	1828.84
397.43	1896.42
397.64	1720.29
397.84	1765.35
398.05	1871.84
398.26	1714.15
398.47	1861.60
398.67	1730.53
398.88	1726.44
399.09	1665.00
399.30	1693.67
399.51	1759.21
399.71	1697.77
399.92	1718.25
400.13	1656.81
400.34	1691.62
400.54	1757.16
400.75	1763.30
400.96	1652.71
401.17	1814.50
401.37	1753.06
401.58	1699.81
401.79	1691.62
402.00	1882.08
402.21	2090.98
402.41	1898.47
402.62	2009.06
402.83	2002.91
403.04	1990.63
403.24	2095.07
403.45	1783.78
403.66	1882.08
403.87	1845.22
404.07	1888.23
404.28	1880.04
404.49	1892.32
404.70	1798.12
404.90	1757.16
405.11	1710.05
405.32	1738.73
405.52	1687.53
405.73	1613.80
405.94	1730.53
406.15	1755.11
406.35	1681.38
406.56	1669.09
406.77	1722.34
406.98	1726.44
407.18	1693.67
407.39	1804.26
407.60	1695.72
407.80	1699.81
408.01	1697.77
408.22	1675.24
408.43	1675.24
408.63	1742.82
408.84	1736.68
409.05	1814.50
409.25	1687.53
409.46	1644.52
409.67	1644.52
409.88	1615.85
410.08	1701.86
410.29	1671.14
410.50	1691.62
410.70	1697.77
410.91	1591.27
411.12	1695.72
411.32	1714.15
411.53	1732.58
411.74	1730.53
411.95	1742.82
412.15	1781.73
412.36	1718.25
412.57	1759.21
412.77	1773.54
412.98	1730.53
413.19	1794.02
413.39	1796.07
413.60	1781.73
413.81	1841.12
414.01	1667.05
414.22	1695.72
414.43	1773.54
414.63	1740.77
414.84	1718.25
415.05	1636.33
415.25	1619.94
415.46	1791.97
415.67	1617.90
415.87	1714.15
416.08	1730.53
416.29	1660.90
416.49	1728.49
416.70	1701.86
416.91	1712.10
417.11	1712.10
417.32	1722.34
417.53	1748.97
417.73	1722.34
417.94	1796.07
418.15	1751.01
418.35	1693.67
418.56	1699.81
418.77	1865.70
418.97	1699.81
419.18	1730.53
419.38	1646.57
419.59	1710.05
419.80	1804.26
420.00	1607.66
420.21	1763.30
420.42	1726.44
420.62	1638.38
420.83	1634.28
421.04	1703.91
421.24	1777.64
421.45	1732.58
421.65	1683.43
421.86	1728.49
422.07	1796.07
422.27	1751.01
422.48	1759.21
422.69	1593.32
422.89	1734.63
423.10	1693.67
423.30	1640.42
423.51	1798.12
423.72	1705.96
423.92	1771.49
424.13	1607.66
424.33	1779.68
424.54	1757.16
424.75	1654.76
424.95	1791.97
425.16	1691.62
425.36	1726.44
425.57	1742.82
425.78	1714.15
425.98	1757.16
426.19	1734.63
426.39	1681.38
426.60	1755.11
426.81	1818.60
427.01	1683.43
427.22	1665.00
427.42	1601.51
427.63	1603.56
427.83	1759.21
428.04	1814.50
428.25	1800.16
428.45	1757.16
428.66	1761.25
428.86	1697.77
429.07	1662.95
429.28	1703.91
429.48	1646.57
429.69	1650.66
429.89	1654.76
430.10	1701.86
430.30	1701.86
430.51	1718.25
430.71	1705.96
430.92	1617.90
431.13	1697.77
431.33	1759.21
431.54	1785.83
431.74	1816.55
431.95	1781.73
432.15	1632.23
432.36	1650.66
432.56	1781.73
432.77	1845.22
432.98	1824.74
433.18	1751.01
433.39	1675.24
433.59	1669.09
433.80	1822.69
434.00	1867.75
434.21	1636.33
434.41	1667.05
434.62	1783.78
434.82	1607.66
435.03	1642.47
435.23	1685.48
435.44	1646.57
435.64	1746.92
435.85	1738.73
436.06	1705.96
436.26	1701.86
436.47	1757.16
436.67	1658.85
436.88	1658.85
437.08	1683.43
437.29	1773.54
437.49	1628.14
437.70	1693.67
437.90	1804.26
438.11	1816.55
438.31	1738.73
438.52	1779.68
438.72	1861.60
438.93	1904.61
439.13	1771.49
439.34	1687.53
439.54	1697.77
439.75	1789.92
439.95	1787.88
440.16	1679.33
440.36	1716.20
440.57	1748.97
440.77	1775.59
440.98	1734.63
441.18	1789.92
441.39	1761.25
441.59	1708.01
441.80	1904.61
442.00	1769.44
442.21	1787.88
442.41	1697.77
442.62	1781.73
442.82	1671.14
443.02	1785.83
443.23	1755.11
443.43	1665.00
443.64	1855.46
443.84	1648.61
444.05	1873.89
444.25	1724.39
444.46	1705.96
444.66	1744.87
444.87	1798.12
445.07	1626.09
445.28	1728.49
445.48	1777.64
445.69	1785.83
445.89	1857.51
446.09	1699.81
446.30	2017.25
446.50	2574.30
446.71	3770.31
446.91	4358.08
447.12	4622.27
447.32	4941.75
447.53	4323.26
447.73	3815.37
447.93	3561.42
448.14	3239.89
448.34	3213.26
448.55	2861.01
448.75	2920.40
448.96	2674.65
449.16	2332.64
449.36	2314.20
449.57	2000.87
449.77	1945.57
449.98	1767.40
450.18	1810.40
450.39	1853.41
450.59	1781.73
450.79	1669.09
451.00	1710.05
451.20	1796.07
451.41	1705.96
451.61	1677.29
451.81	1708.01
452.02	1728.49
452.22	1642.47
452.43	1736.68
452.63	1675.24
452.84	1730.53
453.04	1722.34
453.24	1748.97
453.45	1681.38
453.65	1667.05
453.86	1734.63
454.06	1785.83
454.26	1722.34
454.47	1662.95
454.67	1820.64
454.87	1738.73
455.08	1732.58
455.28	1859.56
455.49	1703.91
455.69	1658.85
455.89	1843.17
456.10	1800.16
456.30	1761.25
456.51	1798.12
456.71	1730.53
456.91	1708.01
457.12	1775.59
457.32	1746.92
457.52	1632.23
457.73	1777.64
457.93	1621.99
458.14	1701.86
458.34	1632.23
458.54	1722.34
458.75	1675.24
458.95	1808.36
459.15	1732.58
459.36	1785.83
459.56	1791.97
459.76	1855.46
459.97	1751.01
460.17	1724.39
460.37	1839.08
460.58	1808.36
460.78	1722.34
460.99	1720.29
461.19	1646.57
461.39	1783.78
461.60	1746.92
461.80	1796.07
462.00	1576.94
462.21	1769.44
462.41	1660.90
462.61	1734.63
462.82	1691.62
463.02	1697.77
463.22	1712.10
463.43	1767.40
463.63	1767.40
463.83	1800.16
464.04	1785.83
464.24	1722.34
464.44	1685.48
464.64	1732.58
464.85	1798.12
465.05	1755.11
465.25	1728.49
465.46	1705.96
465.66	1710.05
465.86	1767.40
466.07	1660.90
466.27	1712.10
466.47	1650.66
466.68	1624.04
466.88	1751.01
467.08	1781.73
467.29	1740.77
467.49	1738.73
467.69	1759.21
467.89	1708.01
468.10	1697.77
468.30	1771.49
468.50	1744.87
468.71	1691.62
468.91	1705.96
469.11	1822.69
469.31	1714.15
469.52	1753.06
469.72	1796.07
469.92	1818.60
470.13	1681.38
470.33	1738.73
470.53	1812.45
470.73	2099.17
470.94	2285.53
471.14	2404.32
471.34	2498.52
471.54	2349.02
471.75	2213.85
471.95	2123.74
472.15	2017.25
472.36	2045.92
472.56	2107.36
472.76	2017.25
472.96	1970.15
473.17	1935.33
473.37	1972.19
473.57	1800.16
473.77	1824.74
473.98	1796.07
474.18	1669.09
474.38	1927.14
474.58	1781.73
474.79	1662.95
474.99	1759.21
475.19	1867.75
475.39	1689.57
475.60	1740.77
475.80	1812.45
476.00	1652.71
476.20	1689.57
476.41	1714.15
476.61	1828.84
476.81	1800.16
477.01	1658.85
477.21	1796.07
477.42	1802.21
477.62	1636.33
477.82	1734.63
478.02	1652.71
478.23	1746.92
478.43	1591.27
478.63	1671.14
478.83	1693.67
479.03	1710.05
479.24	1806.31
479.44	1804.26
479.64	1740.77
479.84	1683.43
480.04	1646.57
480.25	1705.96
480.45	1679.33
480.65	1667.05
480.85	1804.26
481.06	1722.34
481.26	1728.49
481.46	1675.24
481.66	1740.77
481.86	1681.38
482.06	1794.02
482.27	1679.33
482.47	1671.14
482.67	1683.43
482.87	1656.81
483.07	1789.92
483.28	1757.16
483.48	1595.37
483.68	1722.34
483.88	1665.00
484.08	1589.22
484.29	1642.47
484.49	1697.77
484.69	1681.38
484.89	1791.97
485.09	1777.64
485.29	1746.92
485.50	1806.31
485.70	1665.00
485.90	1828.84
486.10	1742.82
486.30	1742.82
486.50	1767.40
486.71	1781.73
486.91	1802.21
487.11	1759.21
487.31	1660.90
487.51	1740.77
487.71	1695.72
487.91	1673.19
488.12	1591.27
488.32	1533.93
488.52	1662.95
488.72	1675.24
488.92	1646.57
489.12	1843.17
489.32	1763.30
489.53	1701.86
489.73	1667.05
489.93	1839.08
490.13	1755.11
490.33	1638.38
490.53	1730.53
490.73	1736.68
490.94	1667.05
491.14	1804.26
491.34	1933.28
491.54	2097.12
491.74	2574.30
491.94	2887.64
492.14	3067.86
492.34	2987.99
492.54	2645.98
492.75	2396.12
492.95	2437.08
493.15	2242.53
493.35	2238.43
493.55	2217.95
493.75	2080.74
493.95	2154.46
494.15	1994.72
494.35	1894.37
494.56	1865.70
494.76	1738.73
494.96	1775.59
495.16	1802.21
495.36	1769.44
495.56	1722.34
495.76	1730.53
495.96	1748.97
496.16	1642.47
496.36	1818.60
496.56	1775.59
496.77	1779.68
496.97	1761.25
497.17	1828.84
497.37	1644.52
497.57	1730.53
497.77	1693.67
497.97	1679.33
498.17	1794.02
498.37	1697.77
498.57	1824.74
498.77	1738.73
498.97	1708.01
499.17	1824.74
499.38	1687.53
499.58	1753.06
499.78	1734.63
499.98	1685.48
500.18	1775.59
500.38	1701.86
500.58	1941.47
500.78	2686.94
500.98	4542.39
501.18	5676.97
501.38	6623.13
501.58	7180.18
501.78	6641.56
501.98	5646.25
502.18	4972.47
502.38	4394.94
502.58	4204.48
502.78	3821.51
502.98	3643.34
503.18	3475.40
503.38	3102.67
503.59	2789.33
503.79	2697.17
503.99	2568.15
504.19	2303.96
504.39	2222.05
504.59	2076.64
504.79	2039.78
504.99	2068.45
505.19	1902.56
505.39	1875.94
505.59	1990.63
505.79	1914.85
505.99	1841.12
506.19	1724.39
506.39	1849.32
506.59	1763.30
506.79	1742.82
506.99	1814.50
507.19	1734.63
507.39	1789.92
507.59	1671.14
507.79	1701.86
507.99	1748.97
508.19	1669.09
508.39	1660.90
508.59	1703.91
508.79	1820.64
508.99	1728.49
509.19	1689.57
509.39	1843.17
509.59	1689.57
509.79	1669.09
509.99	1748.97
510.19	1759.21
510.39	1761.25
510.59	1673.19
510.79	1771.49
510.99	1662.95
511.19	1783.78
511.39	1857.51
511.59	1730.53
511.79	1853.41
511.99	1710.05
512.19	1853.41
512.38	1761.25
512.58	1701.86
512.78	1685.48
512.98	1742.82
513.18	1783.78
513.38	1665.00
513.58	1722.34
513.78	1757.16
513.98	1734.63
514.18	1697.77
514.38	1648.61
514.58	1781.73
514.78	1679.33
514.98	1742.82
515.18	1722.34
515.38	1732.58
515.58	1822.69
515.78	1716.20
515.98	1681.38
516.18	1761.25
516.38	1732.58
516.57	1683.43
516.77	1656.81
516.97	1703.91
517.17	1640.42
517.37	1644.52
517.57	1753.06
517.77	1742.82
517.97	1574.89
518.17	1732.58
518.37	1671.14
518.57	1689.57
518.77	1769.44
518.97	1693.67
519.16	1703.91
519.36	1763.30
519.56	1685.48
519.76	1773.54
519.96	1789.92
520.16	1814.50
520.36	1701.86
520.56	1806.31
520.76	1699.81
520.96	1667.05
521.16	1671.14
521.35	1773.54
521.55	1783.78
521.75	1671.14
521.95	1671.14
522.15	1714.15
522.35	1605.61
522.55	1632.23
522.75	1773.54
522.95	1685.48
523.14	1800.16
523.34	1761.25
523.54	1656.81
523.74	1753.06
523.94	1814.50
524.14	1609.70
524.34	1806.31
524.54	1748.97
524.73	1806.31
524.93	1863.65
525.13	1806.31
525.33	1693.67
525.53	1812.45
525.73	1753.06
525.93	1757.16
526.13	1753.06
526.32	1718.25
526.52	1728.49
526.72	1740.77
526.92	1705.96
527.12	1730.53
527.32	1648.61
527.52	1773.54
527.71	1783.78
527.91	1705.96
528.11	1738.73
528.31	1720.29
528.51	1703.91
528.71	1769.44
528.90	1714.15
529.10	1789.92
529.30	1796.07
529.50	1601.51
529.70	1673.19
529.90	1652.71
530.09	1732.58
530.29	1681.38
530.49	1640.42
530.69	1834.98
530.89	1734.63
531.09	1767.40
531.28	1710.05
531.48	1804.26
531.68	1701.86
531.88	1812.45
532.08	1746.92
532.28	1660.90
532.47	1783.78
532.67	1787.88
532.87	1720.29
533.07	1630.18
533.27	1839.08
533.46	1736.68
533.66	1673.19
533.86	1716.20
534.06	1689.57
534.26	1757.16
534.45	1726.44
534.65	1791.97
534.85	1742.82
535.05	1673.19
535.25	1740.77
535.44	1701.86
535.64	1781.73
535.84	1748.97
536.04	1765.35
536.24	1740.77
536.43	1685.48
536.63	1775.59
536.83	1689.57
537.03	1665.00
537.22	1615.85
537.42	1724.39
537.62	1742.82
537.82	1787.88
538.02	1755.11
538.21	1763.30
538.41	1843.17
538.61	1781.73
538.81	1789.92
539.00	1744.87
539.20	1734.63
539.40	1708.01
539.60	1697.77
539.79	1759.21
539.99	1767.40
540.19	1671.14
540.39	1673.19
540.58	1755.11
540.78	1738.73
540.98	1710.05
541.18	1787.88
541.37	1808.36
541.57	1687.53
541.77	1771.49
541.97	1697.77
542.16	1632.23
542.36	1695.72
542.56	1673.19
542.76	1812.45
542.95	1734.63
543.15	1738.73
543.35	1775.59
543.54	1646.57
543.74	1671.14
543.94	1863.65
544.14	1812.45
544.33	1697.77
544.53	1771.49
544.73	1624.04
544.93	1693.67
545.12	1736.68
545.32	1791.97
545.52	1730.53
545.71	1656.81
545.91	1720.29
546.11	1656.81
546.30	1734.63
546.50	1699.81
546.70	1755.11
546.90	1693.67
547.09	1671.14
547.29	1701.86
547.49	1742.82
547.68	1751.01
547.88	1697.77
548.08	1785.83
548.27	2140.13
548.47	1626.09
548.67	1738.73
548.87	1742.82
549.06	1736.68
549.26	1798.12
549.46	1734.63
549.65	1718.25
549.85	1775.59
550.05	1796.07
550.24	1652.71
550.44	1722.34
550.64	1748.97
550.83	1755.11
551.03	1843.17
551.23	1818.60
551.42	1769.44
551.62	1673.19
551.82	1714.15
552.01	1722.34
552.21	1814.50
552.41	1722.34
552.60	1804.26
552.80	1710.05
553.00	1718.25
553.19	1804.26
553.39	1841.12
553.59	1705.96
553.78	1734.63
553.98	1730.53
554.17	1677.29
554.37	1687.53
554.57	1779.68
554.76	1642.47
554.96	1761.25
555.16	1791.97
555.35	1751.01
555.55	1736.68
555.75	1781.73
555.94	1789.92
556.14	1585.13
556.33	1683.43
556.53	1748.97
556.73	1734.63
556.92	1802.21
557.12	1867.75
557.32	1734.63
557.51	1900.52
557.71	1748.97
557.90	1820.64
558.10	1834.98
558.30	1722.34
558.49	1705.96
558.69	1740.77
558.88	1685.48
559.08	1767.40
559.28	1769.44
559.47	1763.30
559.67	1828.84
559.86	1753.06
560.06	1697.77
560.26	1765.35
560.45	1785.83
560.65	1681.38
560.84	1771.49
561.04	1763.30
561.24	1785.83
561.43	1714.15
561.63	1787.88
561.82	1724.39
562.02	1800.16
562.22	1621.99
562.41	1742.82
562.61	1777.64
562.80	1648.61
563.00	1902.56
563.19	1767.40
563.39	1806.31
563.59	1720.29
563.78	1609.70
563.98	1644.52
564.17	1697.77
564.37	1734.63
564.56	1667.05
564.76	1669.09
564.96	1869.80
565.15	1834.98
565.35	1841.12
565.54	1677.29
565.74	1771.49
565.93	1791.97
566.13	1763.30
566.32	1705.96
566.52	1757.16
566.71	1646.57
566.91	1804.26
567.11	1689.57
567.30	1673.19
567.50	1732.58
567.69	1732.58
567.89	1693.67
568.08	1730.53
568.28	1736.68
568.47	1699.81
568.67	1755.11
568.86	1691.62
569.06	1751.01
569.25	1699.81
569.45	1650.66
569.64	1748.97
569.84	1665.00
570.04	1751.01
570.23	1601.51
570.43	1722.34
570.62	1818.60
570.82	1802.21
571.01	1722.34
571.21	1755.11
571.40	1701.86
571.60	1718.25
571.79	1808.36
571.99	1755.11
572.18	1703.91
572.38	1759.21
572.57	1681.38
572.77	1777.64
572.96	1888.23
573.16	1757.16
573.35	1720.29
573.55	1849.32
573.74	1757.16
573.94	1671.14
574.13	1734.63
574.33	1755.11
574.52	1869.80
574.71	1759.21
574.91	1787.88
575.10	1673.19
575.30	1687.53
575.49	1779.68
575.69	1746.92
575.88	1789.92
576.08	1726.44
576.27	1775.59
576.47	1615.85
576.66	1781.73
576.86	1781.73
577.05	1685.48
577.25	1845.22
577.44	1847.27
577.64	1634.28
577.83	1812.45
578.02	1722.34
578.22	1810.40
578.41	1822.69
578.61	1699.81
578.80	1681.38
579.00	1763.30
579.19	1705.96
579.39	1882.08
579.58	1787.88
579.77	1732.58
579.97	1763.30
580.16	1880.04
580.36	1785.83
580.55	1863.65
580.75	1761.25
580.94	1742.82
581.13	1789.92
581.33	1855.46
581.52	1705.96
581.72	1808.36
581.91	1861.60
582.11	1753.06
582.30	1800.16
582.49	1742.82
582.69	1796.07
582.88	1804.26
583.08	1714.15
583.27	1822.69
583.47	1757.16
583.66	1673.19
583.85	1771.49
584.05	1771.49
584.24	1808.36
584.44	1724.39
584.63	1810.40
584.82	1861.60
585.02	1847.27
585.21	1910.75
585.41	1869.80
585.60	1845.22
585.79	1888.23
585.99	1853.41
586.18	1826.79
586.37	2107.36
586.57	3342.28
586.76	9965.42
586.96	24751.75
587.15	34586.10
587.34	40977.81
587.54	42532.22
587.73	36697.55
587.93	26803.82
588.12	21888.69
588.31	18327.27
588.51	16647.94
588.70	15261.46
588.89	14155.56
589.09	12613.44
589.28	11407.19
589.47	9369.46
589.67	8048.52
589.86	6533.02
590.06	5054.39
590.25	3936.20
590.44	3106.77
590.64	2607.06
590.83	2265.05
591.02	2093.02
591.22	2004.96
591.41	1972.19
591.60	1861.60
591.80	1873.89
591.99	1697.77
592.18	1736.68
592.38	1806.31
592.57	1820.64
592.76	1769.44
592.96	1724.39
593.15	1742.82
593.34	1847.27
593.54	1810.40
593.73	1767.40
593.92	1851.36
594.12	1755.11
594.31	1685.48
594.50	1853.41
594.70	1783.78
594.89	1935.33
595.08	1619.94
595.28	1820.64
595.47	1964.00
595.66	1806.31
595.86	1693.67
596.05	1771.49
596.24	1759.21
596.43	1847.27
596.63	1849.32
596.82	1779.68
597.01	1712.10
597.21	1841.12
597.40	1802.21
597.59	1734.63
597.79	1734.63
597.98	1744.87
598.17	1744.87
598.36	1755.11
598.56	1771.49
598.75	1748.97
598.94	1744.87
599.14	1681.38
599.33	1691.62
599.52	1763.30
599.71	1761.25
599.91	1839.08
600.10	1763.30
600.29	1665.00
600.48	1757.16
600.68	1689.57
600.87	1759.21
601.06	1748.97
601.26	1753.06
601.45	1839.08
601.64	1712.10
601.83	1742.82
602.03	1716.20
602.22	1703.91
602.41	1753.06
602.60	1851.36
602.80	1716.20
602.99	1851.36
603.18	1722.34
603.37	1771.49
603.57	1716.20
603.76	1771.49
603.95	1771.49
604.14	1673.19
604.34	1736.68
604.53	1742.82
604.72	1794.02
604.91	1834.98
605.10	1728.49
605.30	1712.10
605.49	1851.36
605.68	1826.79
605.87	1814.50
606.07	1734.63
606.26	1714.15
606.45	1738.73
606.64	1738.73
606.84	1714.15
607.03	1673.19
607.22	1759.21
607.41	1636.33
607.60	1722.34
607.80	1738.73
607.99	1691.62
608.18	1722.34
608.37	1761.25
608.56	1722.34
608.76	1763.30
608.95	1855.46
609.14	1798.12
609.33	1740.77
609.52	1767.40
609.72	1656.81
609.91	1810.40
610.10	1755.11
610.29	1873.89
610.48	1730.53
610.68	1734.63
610.87	1724.39
611.06	1736.68
611.25	1734.63
611.44	1767.40
611.63	1648.61
611.83	1738.73
612.02	1615.85
612.21	1816.55
612.40	1628.14
612.59	1662.95
612.79	1728.49
612.98	1720.29
613.17	1814.50
613.36	1687.53
613.55	1689.57
613.74	1730.53
613.93	1615.85
614.13	1755.11
614.32	1677.29
614.51	1785.83
614.70	1673.19
614.89	1734.63
615.08	1832.93
615.28	1992.67
615.47	1650.66
615.66	1748.97
615.85	1613.80
616.04	1814.50
616.23	1722.34
616.42	1714.15
616.62	1818.60
616.81	1714.15
617.00	1744.87
617.19	1769.44
617.38	1685.48
617.57	1755.11
617.76	1757.16
617.95	1734.63
618.15	1769.44
618.34	1783.78
618.53	1638.38
618.72	1804.26
618.91	1777.64
619.10	1767.40
619.29	1740.77
619.48	1775.59
619.68	1650.66
619.87	1761.25
620.06	1611.75
620.25	1669.09
620.44	1693.67
620.63	1650.66
620.82	1789.92
621.01	1744.87
621.20	1730.53
621.39	1726.44
621.59	1703.91
621.78	1734.63
621.97	1701.86
622.16	1822.69
622.35	1699.81
622.54	1714.15
622.73	1787.88
622.92	1705.96
623.11	1744.87
623.30	1683.43
623.49	1765.35
623.68	1671.14
623.88	1783.78
624.07	1724.39
624.26	1714.15
624.45	1665.00
624.64	1712.10
624.83	1662.95
625.02	1742.82
625.21	1744.87
625.40	1724.39
625.59	1779.68
625.78	1732.58
625.97	1789.92
626.16	1718.25
626.35	1708.01
626.54	1708.01
626.74	1783.78
626.93	1746.92
627.12	1642.47
627.31	1724.39
627.50	1761.25
627.69	1791.97
627.88	1714.15
628.07	1699.81
628.26	1667.05
628.45	1699.81
628.64	1646.57
628.83	1671.14
629.02	1730.53
629.21	1761.25
629.40	1736.68
629.59	1697.77
629.78	1730.53
629.97	1701.86
630.16	1681.38
630.35	1718.25
630.54	1691.62
630.73	1669.09
630.92	1642.47
631.11	1679.33
631.30	1757.16
631.49	1705.96
631.68	1683.43
631.87	1822.69
632.06	1636.33
632.25	1855.46
632.44	1705.96
632.63	1783.78
632.82	1603.56
633.01	1658.85
633.20	1705.96
633.39	1630.18
633.58	1667.05
633.77	1701.86
633.96	1742.82
634.15	1753.06
634.34	1730.53
634.53	1769.44
634.72	1693.67
634.91	1642.47
635.10	1794.02
635.29	1726.44
635.48	1689.57
635.67	1603.56
635.86	1691.62
636.05	1812.45
636.24	1722.34
636.43	1722.34
636.62	1751.01
636.81	1640.42
637.00	1697.77
637.19	1677.29
637.38	1708.01
637.57	1673.19
637.76	1791.97
637.95	1687.53
638.14	1691.62
638.33	1759.21
638.52	1746.92
638.71	1646.57
638.89	1669.09
639.08	1794.02
639.27	1757.16
639.46	1634.28
639.65	1837.03
639.84	1783.78
640.03	1775.59
640.22	1624.04
640.41	1755.11
640.60	1660.90
640.79	1710.05
640.98	1652.71
641.17	1816.55
641.36	1757.16
641.55	1701.86
641.74	1703.91
641.92	1662.95
642.11	1677.29
642.30	1705.96
642.49	1583.08
642.68	1697.77
642.87	1738.73
643.06	1712.10
643.25	1705.96
643.44	1611.75
643.63	1642.47
643.82	1746.92
644.00	1708.01
644.19	1716.20
644.38	1695.72
644.57	1757.16
644.76	1695.72
644.95	1683.43
645.14	1689.57
645.33	1644.52
645.52	1636.33
645.71	1642.47
645.89	1724.39
646.08	1738.73
646.27	1798.12
646.46	1832.93
646.65	1656.81
646.84	1771.49
647.03	1621.99
647.22	1812.45
647.40	1716.20
647.59	1730.53
647.78	1626.09
647.97	1683.43
648.16	1724.39
648.35	1783.78
648.54	1816.55
648.73	1757.16
648.91	1794.02
649.10	1748.97
649.29	1722.34
649.48	1746.92
649.67	1689.57
649.86	1685.48
650.05	1634.28
650.23	1796.07
650.42	1640.42
650.61	1767.40
650.80	1740.77
650.99	1816.55
651.18	1796.07
651.36	1800.16
651.55	1751.01
651.74	1738.73
651.93	1628.14
652.12	1689.57
652.31	1640.42
652.49	1728.49
652.68	1681.38
652.87	1830.88
653.06	1681.38
653.25	1796.07
653.44	1693.67
653.62	1783.78
653.81	1656.81
654.00	1679.33
654.19	1777.64
654.38	1933.28
654.56	1716.20
654.75	1656.81
654.94	1748.97
655.13	1724.39
655.32	1728.49
655.51	1751.01
655.69	1703.91
655.88	1837.03
656.07	1677.29
656.26	1718.25
656.45	1603.56
656.63	1712.10
656.82	1751.01
657.01	1839.08
657.20	1703.91
657.38	1791.97
657.57	1697.77
657.76	1679.33
657.95	1755.11
658.14	1648.61
658.32	1689.57
658.51	1677.29
658.70	1726.44
658.89	1718.25
659.08	1773.54
659.26	1818.60
659.45	1642.47
659.64	1781.73
659.83	1652.71
660.01	1863.65
660.20	1732.58
660.39	1800.16
660.58	1581.03
660.76	1787.88
660.95	1626.09
661.14	1697.77
661.33	1732.58
661.51	1652.71
661.70	1654.76
661.89	1720.29
662.08	1761.25
662.26	1658.85
662.45	1652.71
662.64	1810.40
662.83	1724.39
663.01	1650.66
663.20	1656.81
663.39	1822.69
663.58	1615.85
663.76	1642.47
663.95	1714.15
664.14	1673.19
664.32	1683.43
664.51	1624.04
664.70	1646.57
664.89	1697.77
665.07	1644.52
665.26	1892.32
665.45	1652.71
665.64	1755.11
665.82	1759.21
666.01	1816.55
666.20	1628.14
666.38	1769.44
666.57	1779.68
666.76	2152.42
666.95	4503.48
667.13	10325.86
667.32	15218.46
667.51	17899.25
667.69	19048.16
667.88	17641.20
668.07	12318.53
668.25	9561.97
668.44	8171.40
668.63	7430.03
668.81	6829.98
669.00	6217.63
669.19	5740.46
669.38	5167.03
669.56	4427.71
669.75	4124.61
669.94	3481.55
670.12	2889.68
670.31	2578.39
670.50	2246.62
670.68	1961.95
670.87	1914.85
671.06	1775.59
671.24	1789.92
671.43	1877.99
671.62	1822.69
671.80	1624.04
671.99	1646.57
672.18	1626.09
672.36	1789.92
672.55	1740.77
672.74	1701.86
672.92	1734.63
673.11	1789.92
673.29	1771.49
673.48	1708.01
673.67	1722.34
673.85	1798.12
674.04	1695.72
674.23	1730.53
674.41	1789.92
674.60	1648.61
674.79	1646.57
674.97	1646.57
675.16	1746.92
675.34	1781.73
675.53	1626.09
675.72	1665.00
675.90	1820.64
676.09	1613.80
676.28	1681.38
676.46	1652.71
676.65	1763.30
676.83	1703.91
677.02	1777.64
677.21	1724.39
677.39	1687.53
677.58	1599.46
677.77	1718.25
677.95	1734.63
678.14	1691.62
678.32	1689.57
678.51	1617.90
678.70	1888.23
678.88	1624.04
679.07	1714.15
679.25	1744.87
679.44	1636.33
679.63	1550.31
679.81	1742.82
680.00	1791.97
680.18	1667.05
680.37	1767.40
680.55	1755.11
680.74	1615.85
680.93	1550.31
681.11	1701.86
681.30	1777.64
681.48	1781.73
681.67	1755.11
681.85	1679.33
682.04	1656.81
682.23	1773.54
682.41	1679.33
682.60	1632.23
682.78	1722.34
682.97	1679.33
683.15	1771.49
683.34	1634.28
683.53	1820.64
683.71	1595.37
683.90	1839.08
684.08	1726.44
684.27	1703.91
684.45	1757.16
684.64	1802.21
684.82	1658.85
685.01	1632.23
685.19	1796.07
685.38	1771.49
685.57	1687.53
685.75	1755.11
685.94	1640.42
686.12	1652.71
686.31	1648.61
686.49	1738.73
686.68	1605.61
686.86	1789.92
687.05	1652.71
687.23	1742.82
687.42	1628.14
687.60	1632.23
687.79	1695.72
687.97	1722.34
688.16	1785.83
688.34	1712.10
688.53	1603.56
688.71	1765.35
688.90	1742.82
689.08	1689.57
689.27	1628.14
689.45	1695.72
689.64	1722.34
689.82	1689.57
690.01	1722.34
690.19	1673.19
690.38	1685.48
690.56	1816.55
690.75	1648.61
690.93	1628.14
691.12	1632.23
691.30	1744.87
691.49	1687.53
691.67	1759.21
691.86	1783.78
692.04	1640.42
692.23	1652.71
692.41	1669.09
692.60	1877.99
692.78	1777.64
692.97	1685.48
693.15	1728.49
693.34	1753.06
693.52	1703.91
693.71	1654.76
693.89	1703.91
694.08	1576.94
694.26	1716.20
694.44	1712.10
694.63	1697.77
694.81	1644.52
695.00	1671.14
695.18	1703.91
695.37	1781.73
695.55	1746.92
695.74	1726.44
695.92	1654.76
696.10	1654.76
696.29	1595.37
696.47	1705.96
696.66	1679.33
696.84	1689.57
697.03	1673.19
697.21	1894.37
697.40	2322.40
697.58	1771.49
697.76	1669.09
697.95	1724.39
698.13	1619.94
698.32	1726.44
698.50	1708.01
698.68	1685.48
698.87	1746.92
699.05	1785.83
699.24	1705.96
699.42	1673.19
699.61	1687.53
699.79	1675.24
699.97	1634.28
700.16	1675.24
700.34	1667.05
700.53	1757.16
700.71	1746.92
700.89	1726.44
701.08	1708.01
701.26	1650.66
701.45	2148.32
701.63	1605.61
701.81	1716.20
702.00	1673.19
702.18	1705.96
702.37	1656.81
702.55	1701.86
702.73	1755.11
702.92	1624.04
703.10	1710.05
703.28	1710.05
703.47	1636.33
703.65	1703.91
703.84	1794.02
704.02	1636.33
704.20	1783.78
704.39	1716.20
704.57	1673.19
704.75	1816.55
704.94	1703.91
705.12	1654.76
705.30	1791.97
705.49	2281.44
705.67	4528.06
705.86	9414.51
706.04	12791.61
706.22	14677.79
706.41	15679.25
706.59	13965.10
706.77	9916.26
706.96	7477.13
707.14	6737.82
707.32	5971.88
707.51	5607.34
707.69	4908.98
707.87	4188.10
708.06	3645.38
708.24	3022.80
708.42	2461.66
708.61	2258.91
708.79	1920.99
708.97	1837.03
709.16	1847.27
709.34	1742.82
709.52	1761.25
709.71	1712.10
709.89	1779.68
710.07	1753.06
710.26	1673.19
710.44	1734.63
710.62	1812.45
710.80	1687.53
710.99	1783.78
711.17	1742.82
711.35	1587.18
711.54	1654.76
711.72	1753.06
711.90	1710.05
712.09	1828.84
712.27	1642.47
712.45	1746.92
712.63	1681.38
712.82	1738.73
713.00	1693.67
713.18	1740.77
713.37	1697.77
713.55	1759.21
713.73	1763.30
713.91	1724.39
714.10	1646.57
714.28	1628.14
714.46	1763.30
714.65	1697.77
714.83	1708.01
715.01	1675.24
715.19	1718.25
715.38	1652.71
715.56	1716.20
715.74	1726.44
715.92	1601.51
716.11	1736.68
716.29	1673.19
716.47	1691.62
716.65	1632.23
716.84	1628.14
717.02	1738.73
717.20	1662.95
717.38	1679.33
717.57	1710.05
717.75	1675.24
717.93	1658.85
718.11	1755.11
718.30	1691.62
718.48	1734.63
718.66	1800.16
718.84	1812.45
719.03	1718.25
719.21	1611.75
719.39	1873.89
719.57	1755.11
719.75	1794.02
719.94	1677.29
720.12	1732.58
720.30	1708.01
720.48	1759.21
720.67	1644.52
720.85	1673.19
721.03	1650.66
721.21	1587.18
721.39	1796.07
721.58	1701.86
721.76	1753.06
721.94	1714.15
722.12	1759.21
722.30	1859.56
722.49	1667.05
722.67	1691.62
722.85	1746.92
723.03	1609.70
723.21	1646.57
723.40	1779.68
723.58	1699.81
723.76	1763.30
723.94	1781.73
724.12	1689.57
724.30	1669.09
724.49	1736.68
724.67	1603.56
724.85	1728.49
725.03	1593.32
725.21	1810.40
725.40	1699.81
725.58	1665.00
725.76	1662.95
725.94	1648.61
726.12	1683.43
726.30	1779.68
726.49	1660.90
726.67	1718.25
726.85	1671.14
727.03	1818.60
727.21	2121.70
727.39	2801.62
727.57	3805.13
727.76	4165.57
727.94	4509.63
728.12	4333.50
728.30	3739.59
728.48	3094.48
728.66	2738.13
728.84	2574.30
729.03	2252.77
729.21	2125.79
729.39	1908.71
729.57	1904.61
729.75	1714.15
729.93	1783.78
730.11	1673.19
730.30	1681.38
730.48	1701.86
730.66	1800.16
730.84	1687.53
731.02	1677.29
731.20	1619.94
731.38	1654.76
731.56	1630.18
731.74	1626.09
731.93	1726.44
732.11	1724.39
732.29	1705.96
732.47	1708.01
732.65	1689.57
732.83	1736.68
733.01	1728.49
733.19	1701.86
733.37	1667.05
733.56	1773.54
733.74	1640.42
733.92	1779.68
734.10	1646.57
734.28	1755.11
734.46	1626.09
734.64	1630.18
734.82	1742.82
735.00	1705.96
735.18	1665.00
735.36	1669.09
735.54	1689.57
735.73	1755.11
735.91	1644.52
736.09	1744.87
736.27	1695.72
736.45	1789.92
736.63	1636.33
736.81	1677.29
736.99	1769.44
737.17	1849.32
737.35	1640.42
737.53	1726.44
737.71	1683.43
737.89	1787.88
738.07	1681.38
738.25	1652.71
738.43	1619.94
738.61	1681.38
738.80	1652.71
738.98	1673.19
739.16	1699.81
739.34	1716.20
739.52	1738.73
739.70	1648.61
739.88	1703.91
740.06	1779.68
740.24	1611.75
740.42	1771.49
740.60	1591.27
740.78	1701.86
740.96	1562.60
741.14	1648.61
741.32	1748.97
741.50	1595.37
741.68	1822.69
741.86	1740.77
742.04	1648.61
742.22	1667.05
742.40	1640.42
742.58	1738.73
742.76	1605.61
742.94	1734.63
743.12	1638.38
743.30	1611.75
743.48	1703.91
743.66	1687.53
743.84	1720.29
744.02	1689.57
744.20	1685.48
744.38	1652.71
744.56	1644.52
744.74	1763.30
744.92	1753.06
745.10	1802.21
745.28	1732.58
745.46	1812.45
745.64	1677.29
745.82	1748.97
746.00	1705.96
746.18	1728.49
746.36	1714.15
746.54	1675.24
746.72	1675.24
746.90	1667.05
747.08	1718.25
747.26	1628.14
747.44	1763.30
747.62	1697.77
747.80	1751.01
747.98	1775.59
748.15	1708.01
748.33	1806.31
748.51	1720.29
748.69	1755.11
748.87	1689.57
749.05	1689.57
749.23	1710.05
749.41	1708.01
749.59	1710.05
749.77	1722.34
749.95	1648.61
750.13	1695.72
750.31	1732.58
750.49	1685.48
750.67	1773.54
750.85	1845.22
751.03	1699.81
751.20	1789.92
751.38	1701.86
751.56	1683.43
751.74	1701.86
751.92	1720.29
752.10	1624.04
752.28	1691.62
752.46	1712.10
752.64	1652.71
752.82	1693.67
753.00	1705.96
753.18	1726.44
753.35	1730.53
753.53	1759.21
753.71	1710.05
753.89	1830.88
754.07	1769.44
754.25	1777.64
754.43	1714.15
754.61	1646.57
754.79	1710.05
754.97	1701.86
755.14	1753.06
755.32	1660.90
755.50	1708.01
755.68	1658.85
755.86	1660.90
756.04	1658.85
756.22	1667.05
756.40	1685.48
756.57	1787.88
756.75	1734.63
756.93	1773.54
757.11	1701.86
757.29	1583.08
757.47	1630.18
757.65	1595.37
757.82	1578.98
758.00	1603.56
758.18	1675.24
758.36	1667.05
758.54	1802.21
758.72	1640.42
758.90	1802.21
759.07	1732.58
759.25	1648.61
759.43	1714.15
759.61	1626.09
759.79	2111.46
759.97	1728.49
760.15	1683.43
760.32	1656.81
760.50	1726.44
760.68	1841.12
760.86	1671.14
761.04	1746.92
761.22	1763.30
761.39	1763.30
761.57	1703.91
761.75	1693.67
761.93	1740.77
762.11	1744.87
762.28	1730.53
762.46	1695.72
762.64	1755.11
762.82	1705.96
763.00	1728.49
763.18	1751.01
763.35	1624.04
763.53	1734.63
763.71	1699.81
763.89	1716.20
764.07	1726.44
764.24	1624.04
764.42	1718.25
764.60	1624.04
764.78	1658.85
764.96	1726.44
765.13	1746.92
765.31	1669.09
765.49	1708.01
765.67	1624.04
765.84	1708.01
766.02	1677.29
766.20	1599.46
766.38	1748.97
766.56	1763.30
766.73	1759.21
766.91	1671.14
767.09	1691.62
767.27	1673.19
767.44	1615.85
767.62	1705.96
767.80	1730.53
767.98	1665.00
768.15	1658.85
768.33	1689.57
768.51	1755.11
768.69	1722.34
768.87	1705.96
769.04	1683.43
769.22	1751.01
769.40	1746.92
769.58	1845.22
769.75	1724.39
769.93	1699.81
770.11	1677.29
770.28	1675.24
770.46	1828.84
770.64	1675.24
770.82	1648.61
770.99	1695.72
771.17	1726.44
771.35	1751.01
771.53	1697.77
771.70	1683.43
771.88	1755.11
772.06	1710.05
772.23	1730.53
772.41	1687.53
772.59	1669.09
772.77	1689.57
772.94	1705.96
773.12	1726.44
773.30	1677.29
773.47	1642.47
773.65	1621.99
773.83	1751.01
774.01	1681.38
774.18	1673.19
774.36	1699.81
774.54	1611.75
774.71	1687.53
774.89	1552.36
775.07	1714.15
775.24	1642.47
775.42	1679.33
775.60	1794.02
775.78	1632.23
775.95	1615.85
776.13	1628.14
776.31	1730.53
776.48	1689.57
776.66	1796.07
776.84	1697.77
777.01	1611.75
777.19	1646.57
777.37	1624.04
777.54	1705.96
777.72	1800.16
777.90	1675.24
778.07	1722.34
778.25	1853.41
778.43	1783.78
778.60	1726.44
778.78	1765.35
778.96	1720.29
779.13	1601.51
779.31	1779.68
779.49	1746.92
779.66	1716.20
779.84	1675.24
780.01	1701.86
780.19	1722.34
780.37	1744.87
780.54	1753.06
780.72	1703.91
780.90	1644.52
781.07	1699.81
781.25	1634.28
781.43	1662.95
781.60	1714.15
781.78	1789.92
781.95	1802.21
782.13	1693.67
782.31	1744.87
782.48	1581.03
782.66	1746.92
782.83	1775.59
783.01	1746.92
783.19	1638.38
783.36	1689.57
783.54	1681.38
783.72	1660.90
783.89	1624.04
784.07	1619.94
784.24	1722.34
784.42	1761.25
784.60	1701.86
784.77	1753.06
784.95	1591.27
785.12	1656.81
785.30	1722.34
785.47	1632.23
785.65	1634.28
785.83	1710.05
786.00	1650.66
786.18	1665.00
786.35	1595.37
786.53	1642.47
786.71	1789.92
786.88	1783.78
787.06	1693.67
787.23	1679.33
787.41	1591.27
787.58	1738.73
787.76	1744.87
787.94	1656.81
788.11	1710.05
788.29	1568.74
788.46	1691.62
788.64	1640.42
788.81	1693.67
788.99	1660.90
789.16	1642.47
789.34	1677.29
789.52	1660.90
789.69	1654.76
789.87	1646.57
790.04	1691.62
790.22	1748.97
790.39	1806.31
790.57	1640.42
790.74	1650.66
790.92	1798.12
791.09	1576.94
791.27	1658.85
791.44	1779.68
791.62	1660.90
791.79	1751.01
791.97	1683.43
792.15	1849.32
792.32	1740.77
792.50	1730.53
792.67	1830.88
792.85	1767.40
793.02	1724.39
793.20	1669.09
793.37	1656.81
793.55	1640.42
793.72	1685.48
793.90	1857.51
794.07	1675.24
794.25	1654.76
794.42	1644.52
794.60	1689.57
794.77	1746.92
794.95	1705.96
795.12	1730.53
795.30	1699.81
795.47	1626.09
795.65	1789.92
795.82	1746.92
796.00	1619.94
796.17	1578.98
796.34	1701.86
796.52	1726.44
796.69	1699.81
796.87	1724.39
797.04	1738.73
797.22	1771.49
797.39	1742.82
797.57	1746.92
797.74	1693.67
797.92	1738.73
798.09	1613.80
798.27	1763.30
798.44	1665.00
798.62	1669.09
798.79	1705.96
798.96	1667.05
799.14	1681.38
799.31	1832.93
799.49	1681.38
799.66	1732.58
799.84	1732.58
800.01	1605.61
800.19	1742.82
800.36	1675.24
800.53	1744.87
800.71	1736.68
800.88	1830.88
801.06	1660.90
801.23	1697.77
801.41	1597.42
801.58	1742.82
801.75	1621.99
801.93	1771.49
802.10	1742.82
802.28	1708.01
802.45	1574.89
802.63	1796.07
802.80	1783.78
802.97	1665.00
803.15	1755.11
803.32	1669.09
803.50	1691.62
803.67	1658.85
803.84	1701.86
804.02	1656.81
804.19	1662.95
804.37	1595.37
804.54	1617.90
804.71	1665.00
804.89	1703.91
805.06	1611.75
805.24	1636.33
805.41	1603.56
805.58	1624.04
805.76	1746.92
805.93	1722.34
806.10	1789.92
806.28	1740.77
806.45	1712.10
806.63	1695.72
806.80	1691.62
806.97	1687.53
807.15	1691.62
807.32	1685.48
807.49	1755.11
807.67	1679.33
807.84	1701.86
808.01	1650.66
808.19	1753.06
808.36	1806.31
808.54	1652.71
808.71	1705.96
808.88	1712.10
809.06	1746.92
809.23	1693.67
809.40	1669.09
809.58	1759.21
809.75	1712.10
809.92	1681.38
810.10	1773.54
810.27	1669.09
810.44	1689.57
810.62	1712.10
810.79	1716.20
810.96	1648.61
811.14	1634.28
811.31	1742.82
811.48	1710.05
811.66	1677.29
811.83	1708.01
812.00	1734.63
812.18	1681.38
812.35	1791.97
812.52	1609.70
812.69	1648.61
812.87	1691.62
813.04	1734.63
813.21	1708.01
813.39	1669.09
813.56	1644.52
813.73	1773.54
813.91	1556.46
814.08	1662.95
814.25	1734.63
814.42	1624.04
814.60	1722.34
814.77	1730.53
814.94	1740.77
815.12	1712.10
815.29	1789.92
815.46	1654.76
815.63	1708.01
815.81	1689.57
815.98	1662.95
816.15	1642.47
816.33	1763.30
816.50	1652.71
816.67	1677.29
816.84	1691.62
817.02	1630.18
817.19	1603.56
817.36	1748.97
817.53	1689.57
817.71	1744.87
817.88	1785.83
818.05	1689.57
818.22	1671.14
818.40	1814.50
818.57	1755.11
818.74	1701.86
818.91	1703.91
819.09	1722.34
819.26	1744.87
819.43	1669.09
819.60	1646.57
819.78	1775.59
819.95	1818.60
820.12	1644.52
820.29	1800.16
820.47	1767.40
820.64	1697.77
820.81	1574.89
820.98	1712.10
821.15	1695.72
821.33	1742.82
821.50	1644.52
821.67	1755.11
821.84	1626.09
822.02	1724.39
822.19	1722.34
822.36	1667.05
822.53	1710.05
822.70	1671.14
822.88	1693.67
823.05	1796.07
823.22	1753.06
823.39	1767.40
823.56	1642.47
823.74	1779.68
823.91	1660.90
824.08	1669.09
824.25	1656.81
824.42	1753.06
824.60	1538.02
824.77	1695.72
824.94	1714.15
825.11	1650.66
825.28	1611.75
825.45	1624.04
825.63	1683.43
825.80	1605.61
825.97	1656.81
826.14	1708.01
826.31	1558.50
826.48	1730.53
826.66	1634.28
826.83	1679.33
827.00	1773.54
827.17	1716.20
827.34	1740.77
827.51	1658.85
827.69	1751.01
827.86	1630.18
828.03	1712.10
828.20	1652.71
828.37	1703.91
828.54	1738.73
828.71	1640.42
828.89	1787.88
829.06	1771.49
829.23	1763.30
829.40	1644.52
829.57	1636.33
829.74	1798.12
829.91	1624.04
830.09	1601.51
830.26	1765.35
830.43	1683.43
830.60	1734.63
830.77	1712.10
830.94	1724.39
831.11	1748.97
831.28	1718.25
831.46	1783.78
831.63	1687.53
831.80	1724.39
831.97	1695.72
832.14	1679.33
832.31	1667.05
832.48	1771.49
832.65	1710.05
832.82	1652.71
832.99	1748.97
833.17	1667.05
833.34	1738.73
833.51	1755.11
833.68	1595.37
833.85	1742.82
834.02	1626.09
834.19	1642.47
834.36	1652.71
834.53	1751.01
834.70	1765.35
834.87	1722.34
835.04	1673.19
835.22	1632.23
835.39	1656.81
835.56	1658.85
835.73	1595.37
835.90	1794.02
836.07	1599.46
836.24	1757.16
836.41	1669.09
836.58	1677.29
836.75	1691.62
836.92	1730.53
837.09	1746.92
837.26	1767.40
837.43	1740.77
837.60	1722.34
837.77	1673.19
837.94	1683.43
838.12	1724.39
838.29	1646.57
838.46	1691.62
838.63	1611.75
838.80	1736.68
838.97	1738.73
839.14	1691.62
839.31	1738.73
839.48	1724.39
839.65	1589.22
839.82	1708.01
839.99	1724.39
840.16	1650.66
840.33	1650.66
840.50	1632.23
840.67	1662.95
840.84	1578.98
841.01	1714.15
841.18	1687.53
841.35	1693.67
841.52	1740.77
841.69	1816.55
841.86	1648.61
842.03	1628.14
842.20	1791.97
842.37	1708.01
842.54	1662.95
842.71	1665.00
842.88	1658.85
843.05	1753.06
843.22	1708.01
843.39	1683.43
843.56	1677.29
843.73	1757.16
843.90	1699.81
844.07	1697.77
844.24	1759.21
844.41	1740.77
844.58	1699.81
844.75	1705.96
844.92	1757.16
845.09	1701.86
845.26	1642.47
845.43	1665.00
845.60	1703.91
845.77	1728.49
845.94	1705.96
846.10	1773.54
846.27	1634.28
846.44	1617.90
846.61	1681.38
846.78	1646.57
846.95	1751.01
847.12	1671.14
847.29	1640.42
847.46	1644.52
847.63	1771.49
847.80	1667.05
847.97	1710.05
848.14	1794.02
848.31	1722.34
848.48	1662.95
848.65	1689.57
848.82	1615.85
848.98	1791.97
849.15	1742.82
849.32	1828.84
849.49	1703.91
849.66	1669.09
849.83	1701.86
850.00	1691.62
850.17	1744.87
850.34	1585.13
850.51	1644.52
850.68	1675.24
850.85	1744.87
851.01	1656.81
851.18	1699.81
851.35	1722.34
851.52	1699.81
851.69	1746.92
851.86	1658.85
852.03	1642.47
852.20	1673.19
852.37	1646.57
852.53	1587.18
852.70	1763.30
852.87	1691.62
853.04	1789.92
853.21	1652.71
853.38	1699.81
853.55	1683.43
853.72	1736.68
853.89	1615.85
854.05	1667.05
854.22	1718.25
854.39	1679.33
854.56	1673.19
854.73	1779.68
854.90	1679.33
855.07	1748.97
855.23	1687.53
855.40	1648.61
855.57	1669.09
855.74	1558.50
855.91	1777.64
856.08	1609.70
856.25	1587.18
856.41	1716.20
856.58	1701.86
856.75	1662.95
856.92	1703.91
857.09	1804.26
857.26	1542.12
857.42	1689.57
857.59	1705.96
857.76	1652.71
857.93	1769.44
858.10	1703.91
858.27	1605.61
858.43	1685.48
858.60	1722.34
858.77	1581.03
858.94	1705.96
859.11	1687.53
859.27	1681.38
859.44	1695.72
859.61	1820.64
859.78	1730.53
859.95	1658.85
860.12	1656.81
860.28	1806.31
860.45	1763.30
860.62	1669.09
860.79	1660.90
860.95	1669.09
861.12	1665.00
861.29	1691.62
861.46	1691.62
861.63	1736.68
861.79	1699.81
861.96	1630.18
862.13	1695.72
862.30	1734.63
862.47	1658.85
862.63	1621.99
862.80	1777.64
862.97	1744.87
863.14	1646.57
863.30	1644.52
863.47	1693.67
863.64	1816.55
863.81	1634.28
863.97	1665.00
864.14	1738.73
864.31	1673.19
864.48	1761.25
864.65	1724.39
864.81	1734.63
864.98	1712.10
865.15	1667.05
865.32	1712.10
865.48	1675.24
865.65	1744.87
865.82	1689.57
865.98	1689.57
866.15	1658.85
866.32	1722.34
866.49	1703.91
866.65	1787.88
866.82	1648.61
866.99	1734.63
867.16	1740.77
867.32	1695.72
867.49	1683.43
867.66	1667.05
867.83	1681.38
867.99	1646.57
868.16	1656.81
868.33	1628.14
868.49	1718.25
868.66	1716.20
868.83	1738.73
868.99	1697.77
869.16	1636.33
869.33	1796.07
869.50	1736.68
869.66	1689.57
869.83	1708.01
870.00	1654.76
870.16	1771.49
870.33	1689.57
870.50	1724.39
870.66	1755.11
870.83	1834.98
871.00	1746.92
871.17	1683.43
871.33	1738.73
871.50	1652.71
871.67	1699.81
871.83	1650.66
872.00	1830.88
872.17	1699.81
872.33	1775.59
872.50	1740.77
872.67	1701.86
872.83	1642.47
873.00	1800.16
873.17	1658.85
873.33	1689.57
873.50	1691.62
873.67	1685.48
873.83	1705.96
874.00	1689.57
874.16	1738.73
874.33	1673.19
874.50	1705.96
874.66	1693.67
874.83	1714.15
875.00	1701.86
875.16	1675.24
875.33	1794.02
875.50	1607.66
875.66	1628.14
875.83	1693.67
875.99	1669.09
876.16	1693.67
876.33	1593.32
876.49	1662.95
876.66	1812.45
876.83	1732.58
876.99	1599.46
877.16	1626.09
877.32	1714.15
877.49	1671.14
877.66	1742.82
877.82	1771.49
877.99	1673.19
878.15	1771.49
878.32	1679.33
878.49	1660.90
878.65	1669.09
878.82	1759.21
878.98	1697.77
879.15	1708.01
879.32	1660.90
879.48	1673.19
879.65	1675.24
879.81	1712.10
879.98	1722.34
880.15	1710.05
880.31	1724.39
880.48	1595.37
880.64	1767.40
880.81	1726.44
880.97	1826.79
881.14	1769.44
881.31	1648.61
881.47	1738.73
881.64	1671.14
881.80	1642.47
881.97	1714.15
882.13	1716.20
882.30	1673.19
882.47	1628.14
882.63	1667.05
882.80	1718.25
882.96	1669.09
883.13	1785.83
883.29	1693.67
883.46	1720.29
883.62	1771.49
883.79	1742.82
883.95	1765.35
884.12	1687.53
884.29	1763.30
884.45	1714.15
884.62	1740.77
884.78	1667.05
884.95	1791.97
885.11	1671.14
885.28	1681.38
885.44	1642.47
885.61	1710.05
885.77	1746.92
885.94	1705.96
886.10	1697.77
886.27	1669.09
886.43	1789.92
886.60	1755.11
886.76	1669.09
886.93	1599.46
887.09	1736.68
887.26	1576.94
887.42	1605.61
887.59	1761.25
887.75	1765.35
887.92	1728.49
888.08	1818.60
888.25	1753.06
888.41	1732.58
888.58	1628.14
888.74	1632.23
888.91	1632.23
>>>>>End Processed Spectral Data<<<<<
