SpectraSuite Data File
++++++++++++++++++++++++++++++++++++
Date: Mon Jun 06 14:14:57 CEST 2016
User: root
Dark Spectrum Present: No
Reference Spectrum Present: No
Number of Sampled Component Spectra: 1
Spectrometers: USB4C02835
Integration Time (usec): 100000 (USB4C02835)
Spectra Averaged: 1 (USB4C02835)
Boxcar Smoothing: 0 (USB4C02835)
Correct for Electrical Dark: No (USB4C02835)
Strobe/Lamp Enabled: No (USB4C02835)
Correct for Detector Non-linearity: No (USB4C02835)
Correct for Stray Light: No (USB4C02835)
Number of Pixels in Processed Spectrum: 3648
>>>>>Begin Processed Spectral Data<<<<<
177.47	1509.35
177.69	1509.35
177.91	1509.35
178.13	1511.40
178.36	1462.25
178.58	1658.85
178.80	1701.86
179.02	1669.09
179.24	1652.71
179.46	1695.72
179.68	1755.11
179.90	1701.86
180.13	1718.25
180.35	1677.29
180.57	1669.09
180.79	1716.20
181.01	1791.97
181.23	1757.16
181.45	1757.16
181.67	1703.91
181.90	1652.71
182.12	1705.96
182.34	1630.18
182.56	1796.07
182.78	1753.06
183.00	1679.33
183.22	1738.73
183.44	1613.80
183.66	1863.65
183.89	1759.21
184.11	1667.05
184.33	1753.06
184.55	1785.83
184.77	1705.96
184.99	1646.57
185.21	1673.19
185.43	1839.08
185.65	1673.19
185.87	1621.99
186.10	1794.02
186.32	1789.92
186.54	1730.53
186.76	1718.25
186.98	1687.53
187.20	1691.62
187.42	1683.43
187.64	1681.38
187.86	1693.67
188.08	1748.97
188.30	1753.06
188.52	1685.48
188.75	1818.60
188.97	1845.22
189.19	1648.61
189.41	1748.97
189.63	1689.57
189.85	1687.53
190.07	1650.66
190.29	1613.80
190.51	1703.91
190.73	1665.00
190.95	1751.01
191.17	1720.29
191.39	1615.85
191.61	1638.38
191.84	1669.09
192.06	1718.25
192.28	1611.75
192.50	1861.60
192.72	1673.19
192.94	1658.85
193.16	1730.53
193.38	1691.62
193.60	1646.57
193.82	1677.29
194.04	1710.05
194.26	1636.33
194.48	1689.57
194.70	1673.19
194.92	1609.70
195.14	1675.24
195.36	1695.72
195.58	1742.82
195.80	1751.01
196.02	1689.57
196.24	1650.66
196.46	1769.44
196.69	1691.62
196.91	1863.65
197.13	1787.88
197.35	1683.43
197.57	1753.06
197.79	1714.15
198.01	1775.59
198.23	1767.40
198.45	1748.97
198.67	1681.38
198.89	1699.81
199.11	1779.68
199.33	1675.24
199.55	1607.66
199.77	1693.67
199.99	1794.02
200.21	1701.86
200.43	1708.01
200.65	1660.90
200.87	1621.99
201.09	1726.44
201.31	1624.04
201.53	1775.59
201.75	1730.53
201.97	1710.05
202.19	1658.85
202.41	1695.72
202.63	1738.73
202.85	1705.96
203.07	1757.16
203.29	1691.62
203.51	1648.61
203.73	1683.43
203.95	1841.12
204.17	1779.68
204.39	1708.01
204.61	1677.29
204.83	1705.96
205.05	1736.68
205.27	1775.59
205.49	1781.73
205.71	1648.61
205.93	1632.23
206.15	1599.46
206.37	1691.62
206.59	1781.73
206.81	1576.94
207.03	1665.00
207.25	1705.96
207.47	1769.44
207.69	1681.38
207.91	1810.40
208.13	1757.16
208.34	1636.33
208.56	1636.33
208.78	1763.30
209.00	1685.48
209.22	1722.34
209.44	1697.77
209.66	1683.43
209.88	1718.25
210.10	1611.75
210.32	1644.52
210.54	1865.70
210.76	1650.66
210.98	1820.64
211.20	1656.81
211.42	1705.96
211.64	1748.97
211.86	1740.77
212.08	1724.39
212.30	1765.35
212.52	1669.09
212.74	1658.85
212.96	1677.29
213.17	1767.40
213.39	1722.34
213.61	1791.97
213.83	1759.21
214.05	1599.46
214.27	1787.88
214.49	1701.86
214.71	1728.49
214.93	1777.64
215.15	1656.81
215.37	1734.63
215.59	1648.61
215.81	1736.68
216.03	1859.56
216.24	1718.25
216.46	1695.72
216.68	1742.82
216.90	1757.16
217.12	1746.92
217.34	1693.67
217.56	1753.06
217.78	1787.88
218.00	1691.62
218.22	1648.61
218.44	1771.49
218.66	1746.92
218.87	1746.92
219.09	1646.57
219.31	1736.68
219.53	1789.92
219.75	1718.25
219.97	1697.77
220.19	1710.05
220.41	1669.09
220.63	1738.73
220.85	1720.29
221.06	1697.77
221.28	1767.40
221.50	1652.71
221.72	1701.86
221.94	1705.96
222.16	1722.34
222.38	1765.35
222.60	1753.06
222.82	1648.61
223.03	1710.05
223.25	1617.90
223.47	1746.92
223.69	1816.55
223.91	1744.87
224.13	1642.47
224.35	1681.38
224.57	1802.21
224.78	1787.88
225.00	1710.05
225.22	1767.40
225.44	1705.96
225.66	1771.49
225.88	1705.96
226.10	1761.25
226.32	1773.54
226.53	1775.59
226.75	1722.34
226.97	1621.99
227.19	1712.10
227.41	1677.29
227.63	1675.24
227.85	1599.46
228.06	1685.48
228.28	1697.77
228.50	1779.68
228.72	1669.09
228.94	1763.30
229.16	1662.95
229.37	1650.66
229.59	1632.23
229.81	1742.82
230.03	1636.33
230.25	1601.51
230.47	1628.14
230.69	1689.57
230.90	1796.07
231.12	1648.61
231.34	1697.77
231.56	1785.83
231.78	1628.14
232.00	1712.10
232.21	1691.62
232.43	1671.14
232.65	1572.84
232.87	1728.49
233.09	1699.81
233.30	1628.14
233.52	1757.16
233.74	1730.53
233.96	1679.33
234.18	1724.39
234.40	1648.61
234.61	1902.56
234.83	1650.66
235.05	1644.52
235.27	1814.50
235.49	1806.31
235.70	1693.67
235.92	1746.92
236.14	1791.97
236.36	1832.93
236.58	1615.85
236.79	1728.49
237.01	1753.06
237.23	1705.96
237.45	1904.61
237.67	1607.66
237.88	1638.38
238.10	1869.80
238.32	1646.57
238.54	1691.62
238.76	1736.68
238.97	1675.24
239.19	1578.98
239.41	1726.44
239.63	1808.36
239.85	1701.86
240.06	1781.73
240.28	1685.48
240.50	1773.54
240.72	1605.61
240.93	1693.67
241.15	1722.34
241.37	1761.25
241.59	1724.39
241.81	1687.53
242.02	1679.33
242.24	1789.92
242.46	1794.02
242.68	1642.47
242.89	1662.95
243.11	1759.21
243.33	1740.77
243.55	1673.19
243.76	1775.59
243.98	1638.38
244.20	1671.14
244.42	1728.49
244.64	1728.49
244.85	1689.57
245.07	1640.42
245.29	1691.62
245.51	1751.01
245.72	1724.39
245.94	1685.48
246.16	1781.73
246.38	1781.73
246.59	1652.71
246.81	1714.15
247.03	1705.96
247.24	1609.70
247.46	1570.79
247.68	1701.86
247.90	1679.33
248.11	1662.95
248.33	1708.01
248.55	1679.33
248.77	1691.62
248.98	1783.78
249.20	1800.16
249.42	1779.68
249.64	1761.25
249.85	1705.96
250.07	1585.13
250.29	1718.25
250.50	1763.30
250.72	1595.37
250.94	1724.39
251.16	1869.80
251.37	1777.64
251.59	1687.53
251.81	1691.62
252.02	1699.81
252.24	1714.15
252.46	1804.26
252.68	1699.81
252.89	1681.38
253.11	1638.38
253.33	1808.36
253.54	1765.35
253.76	1742.82
253.98	1634.28
254.20	1746.92
254.41	1619.94
254.63	1705.96
254.85	1603.56
255.06	1669.09
255.28	1785.83
255.50	1656.81
255.71	1652.71
255.93	1607.66
256.15	1656.81
256.36	1705.96
256.58	1660.90
256.80	1759.21
257.02	1695.72
257.23	1699.81
257.45	1632.23
257.67	1695.72
257.88	1636.33
258.10	1816.55
258.32	1689.57
258.53	1769.44
258.75	1812.45
258.97	1701.86
259.18	1699.81
259.40	1644.52
259.62	1845.22
259.83	1728.49
260.05	1683.43
260.27	1953.76
260.48	1701.86
260.70	1679.33
260.92	1738.73
261.13	1734.63
261.35	1742.82
261.57	1685.48
261.78	1621.99
262.00	1642.47
262.22	1783.78
262.43	1585.13
262.65	1656.81
262.86	1669.09
263.08	1767.40
263.30	1761.25
263.51	1601.51
263.73	1634.28
263.95	1738.73
264.16	1665.00
264.38	1697.77
264.60	1783.78
264.81	1669.09
265.03	1738.73
265.25	1746.92
265.46	1742.82
265.68	1722.34
265.89	1800.16
266.11	1638.38
266.33	1751.01
266.54	1767.40
266.76	1724.39
266.98	1718.25
267.19	1736.68
267.41	1740.77
267.62	1699.81
267.84	1599.46
268.06	1763.30
268.27	1748.97
268.49	1765.35
268.70	1755.11
268.92	1722.34
269.14	1642.47
269.35	1548.26
269.57	1716.20
269.79	1781.73
270.00	1742.82
270.22	1746.92
270.43	1630.18
270.65	1617.90
270.87	1705.96
271.08	1718.25
271.30	1744.87
271.51	1755.11
271.73	1726.44
271.95	1804.26
272.16	1689.57
272.38	1728.49
272.59	1720.29
272.81	1732.58
273.02	1685.48
273.24	1746.92
273.46	1714.15
273.67	1615.85
273.89	1646.57
274.10	1634.28
274.32	1703.91
274.54	1677.29
274.75	1679.33
274.97	1658.85
275.18	1705.96
275.40	1665.00
275.61	1703.91
275.83	1689.57
276.05	1589.22
276.26	1683.43
276.48	1679.33
276.69	1667.05
276.91	1675.24
277.12	1796.07
277.34	1716.20
277.55	1853.41
277.77	1687.53
277.99	1656.81
278.20	1683.43
278.42	1650.66
278.63	1652.71
278.85	1609.70
279.06	1673.19
279.28	1671.14
279.49	1718.25
279.71	1773.54
279.93	1650.66
280.14	1697.77
280.36	1644.52
280.57	1765.35
280.79	1708.01
281.00	1599.46
281.22	1697.77
281.43	1726.44
281.65	1628.14
281.86	1546.22
282.08	1820.64
282.29	1783.78
282.51	1695.72
282.73	1667.05
282.94	1654.76
283.16	1800.16
283.37	1710.05
283.59	1722.34
283.80	1701.86
284.02	1697.77
284.23	1716.20
284.45	1675.24
284.66	1558.50
284.88	1636.33
285.09	1673.19
285.31	1748.97
285.52	1730.53
285.74	1634.28
285.95	1771.49
286.17	1757.16
286.38	1757.16
286.60	1576.94
286.81	1667.05
287.03	1658.85
287.24	1687.53
287.46	1755.11
287.67	1708.01
287.89	1824.74
288.10	1683.43
288.32	1693.67
288.53	1861.60
288.75	1701.86
288.96	1751.01
289.18	1718.25
289.39	1607.66
289.61	1699.81
289.82	1800.16
290.04	1800.16
290.25	1665.00
290.47	1677.29
290.68	1724.39
290.90	1685.48
291.11	1626.09
291.33	1746.92
291.54	1660.90
291.76	1640.42
291.97	1714.15
292.18	1724.39
292.40	1619.94
292.61	1722.34
292.83	1877.99
293.04	1763.30
293.26	1710.05
293.47	1726.44
293.69	1665.00
293.90	1738.73
294.12	1771.49
294.33	1732.58
294.55	1738.73
294.76	1767.40
294.97	1759.21
295.19	1880.04
295.40	1669.09
295.62	1755.11
295.83	1775.59
296.05	1683.43
296.26	1746.92
296.48	1669.09
296.69	1755.11
296.90	1714.15
297.12	1685.48
297.33	1773.54
297.55	1691.62
297.76	1716.20
297.98	1777.64
298.19	1624.04
298.41	1689.57
298.62	1640.42
298.83	1816.55
299.05	1785.83
299.26	1695.72
299.48	1681.38
299.69	1779.68
299.90	1748.97
300.12	1683.43
300.33	1849.32
300.55	1656.81
300.76	1773.54
300.98	1695.72
301.19	1755.11
301.40	1705.96
301.62	1675.24
301.83	1703.91
302.05	1785.83
302.26	1755.11
302.47	1683.43
302.69	1535.98
302.90	1714.15
303.12	1535.98
303.33	1783.78
303.54	1779.68
303.76	1703.91
303.97	1734.63
304.19	1771.49
304.40	1583.08
304.61	1691.62
304.83	1824.74
305.04	1714.15
305.26	1720.29
305.47	1759.21
305.68	1730.53
305.90	1703.91
306.11	1712.10
306.33	1667.05
306.54	1693.67
306.75	1705.96
306.97	1617.90
307.18	1730.53
307.39	1652.71
307.61	1667.05
307.82	1697.77
308.04	1732.58
308.25	1677.29
308.46	1744.87
308.68	1701.86
308.89	1697.77
309.10	1808.36
309.32	1787.88
309.53	1730.53
309.74	1705.96
309.96	1636.33
310.17	1791.97
310.39	1734.63
310.60	1695.72
310.81	1716.20
311.03	1667.05
311.24	1722.34
311.45	1757.16
311.67	1806.31
311.88	1718.25
312.09	1634.28
312.31	1665.00
312.52	1732.58
312.73	1730.53
312.95	1687.53
313.16	1722.34
313.37	1814.50
313.59	1681.38
313.80	1748.97
314.01	1755.11
314.23	1621.99
314.44	1593.32
314.65	1675.24
314.87	1654.76
315.08	1714.15
315.29	1665.00
315.51	1595.37
315.72	1642.47
315.93	1837.03
316.15	1718.25
316.36	1652.71
316.57	1681.38
316.79	1787.88
317.00	1662.95
317.21	1775.59
317.43	1628.14
317.64	1791.97
317.85	1613.80
318.07	1703.91
318.28	1759.21
318.49	1812.45
318.70	1906.66
318.92	1791.97
319.13	1804.26
319.34	1865.70
319.56	1783.78
319.77	1806.31
319.98	1726.44
320.20	1812.45
320.41	1765.35
320.62	1621.99
320.83	1652.71
321.05	1802.21
321.26	1722.34
321.47	1705.96
321.69	1804.26
321.90	1646.57
322.11	1640.42
322.32	1718.25
322.54	1748.97
322.75	1619.94
322.96	1845.22
323.18	1644.52
323.39	1603.56
323.60	1671.14
323.81	1787.88
324.03	1642.47
324.24	1734.63
324.45	1712.10
324.66	1671.14
324.88	1742.82
325.09	1912.80
325.30	1783.78
325.52	1734.63
325.73	1755.11
325.94	1638.38
326.15	1624.04
326.37	1636.33
326.58	1732.58
326.79	1781.73
327.00	1656.81
327.22	1658.85
327.43	1705.96
327.64	1697.77
327.85	1685.48
328.07	1771.49
328.28	1853.41
328.49	1597.42
328.70	1753.06
328.92	1765.35
329.13	1746.92
329.34	1783.78
329.55	1787.88
329.76	1791.97
329.98	1699.81
330.19	1744.87
330.40	1656.81
330.61	1591.27
330.83	1771.49
331.04	1720.29
331.25	1740.77
331.46	1650.66
331.68	1624.04
331.89	1791.97
332.10	1714.15
332.31	1662.95
332.52	1691.62
332.74	1806.31
332.95	1628.14
333.16	1783.78
333.37	1691.62
333.58	1654.76
333.80	1665.00
334.01	1613.80
334.22	1673.19
334.43	1662.95
334.64	1658.85
334.86	1656.81
335.07	1648.61
335.28	1775.59
335.49	1656.81
335.70	1669.09
335.92	1765.35
336.13	1820.64
336.34	1722.34
336.55	1726.44
336.76	1687.53
336.98	1687.53
337.19	1701.86
337.40	1796.07
337.61	1869.80
337.82	1769.44
338.04	1767.40
338.25	1650.66
338.46	1632.23
338.67	1601.51
338.88	1669.09
339.09	1611.75
339.31	1675.24
339.52	1675.24
339.73	1611.75
339.94	1716.20
340.15	1689.57
340.36	1722.34
340.58	1734.63
340.79	1632.23
341.00	1787.88
341.21	1648.61
341.42	1771.49
341.63	1712.10
341.85	1761.25
342.06	1765.35
342.27	1722.34
342.48	1691.62
342.69	1636.33
342.90	1673.19
343.12	1763.30
343.33	1689.57
343.54	1730.53
343.75	1822.69
343.96	1669.09
344.17	1662.95
344.38	1718.25
344.60	1658.85
344.81	1665.00
345.02	1736.68
345.23	1753.06
345.44	1798.12
345.65	1771.49
345.86	1685.48
346.07	1648.61
346.29	1642.47
346.50	1718.25
346.71	1658.85
346.92	1755.11
347.13	1767.40
347.34	1630.18
347.55	1753.06
347.76	1746.92
347.98	1683.43
348.19	1675.24
348.40	1775.59
348.61	1640.42
348.82	1880.04
349.03	1759.21
349.24	1642.47
349.45	1785.83
349.66	1576.94
349.88	1621.99
350.09	1697.77
350.30	1810.40
350.51	1787.88
350.72	1714.15
350.93	1705.96
351.14	1593.32
351.35	1787.88
351.56	1718.25
351.77	1656.81
351.99	1656.81
352.20	1814.50
352.41	1724.39
352.62	1644.52
352.83	1730.53
353.04	1734.63
353.25	1705.96
353.46	1787.88
353.67	1732.58
353.88	1513.45
354.09	1730.53
354.30	1695.72
354.52	1740.77
354.73	1736.68
354.94	1720.29
355.15	1744.87
355.36	1808.36
355.57	1654.76
355.78	1669.09
355.99	1619.94
356.20	1685.48
356.41	1716.20
356.62	1615.85
356.83	1710.05
357.04	1738.73
357.25	1562.60
357.46	1689.57
357.68	1613.80
357.89	1636.33
358.10	1699.81
358.31	1699.81
358.52	1685.48
358.73	1628.14
358.94	1646.57
359.15	1689.57
359.36	1722.34
359.57	1716.20
359.78	1722.34
359.99	1763.30
360.20	1574.89
360.41	1691.62
360.62	1724.39
360.83	1705.96
361.04	1634.28
361.25	1734.63
361.46	1714.15
361.67	1787.88
361.88	1699.81
362.09	1748.97
362.30	1693.67
362.51	1759.21
362.72	1671.14
362.93	1722.34
363.14	1789.92
363.35	1742.82
363.56	1607.66
363.78	1837.03
363.99	1798.12
364.20	1648.61
364.41	1724.39
364.62	1783.78
364.83	1656.81
365.04	1761.25
365.25	1685.48
365.46	1816.55
365.67	1679.33
365.88	1640.42
366.09	1714.15
366.30	1665.00
366.51	1751.01
366.72	1669.09
366.93	1665.00
367.14	1748.97
367.35	1759.21
367.56	1710.05
367.77	1771.49
367.98	1636.33
368.18	1708.01
368.39	1765.35
368.60	1626.09
368.81	1697.77
369.02	1705.96
369.23	1718.25
369.44	1574.89
369.65	1632.23
369.86	1787.88
370.07	1742.82
370.28	1681.38
370.49	1763.30
370.70	1708.01
370.91	1646.57
371.12	1615.85
371.33	1759.21
371.54	1701.86
371.75	1742.82
371.96	1515.50
372.17	1705.96
372.38	1732.58
372.59	1665.00
372.80	1679.33
373.01	1714.15
373.22	1714.15
373.43	1734.63
373.64	1673.19
373.85	1746.92
374.06	1830.88
374.26	1712.10
374.47	1681.38
374.68	1767.40
374.89	1677.29
375.10	1779.68
375.31	1773.54
375.52	1667.05
375.73	1708.01
375.94	1597.42
376.15	1746.92
376.36	1628.14
376.57	1724.39
376.78	1730.53
376.99	1683.43
377.20	1753.06
377.40	1632.23
377.61	1757.16
377.82	1685.48
378.03	1794.02
378.24	1787.88
378.45	1703.91
378.66	1697.77
378.87	1665.00
379.08	1648.61
379.29	1695.72
379.50	1791.97
379.71	1681.38
379.91	1777.64
380.12	1648.61
380.33	1697.77
380.54	1685.48
380.75	1689.57
380.96	1667.05
381.17	1765.35
381.38	1761.25
381.59	1789.92
381.80	1650.66
382.00	1882.08
382.21	1767.40
382.42	1843.17
382.63	1931.23
382.84	1757.16
383.05	1785.83
383.26	1843.17
383.47	1714.15
383.68	1734.63
383.88	1748.97
384.09	1720.29
384.30	1771.49
384.51	1730.53
384.72	1710.05
384.93	1660.90
385.14	1748.97
385.35	1705.96
385.55	1662.95
385.76	1740.77
385.97	1640.42
386.18	1722.34
386.39	1671.14
386.60	1673.19
386.81	1693.67
387.02	1650.66
387.22	1652.71
387.43	1777.64
387.64	1771.49
387.85	1845.22
388.06	2123.74
388.27	4325.31
388.48	6764.44
388.68	8320.90
388.89	9621.36
389.10	9740.14
389.31	8537.98
389.52	7540.62
389.73	6590.36
389.93	6393.76
390.14	5873.57
390.35	5226.42
390.56	4556.73
390.77	3819.46
390.98	2975.70
391.18	2486.23
391.39	2117.60
391.60	1742.82
391.81	1837.03
392.02	1718.25
392.23	1894.37
392.43	1691.62
392.64	1724.39
392.85	1681.38
393.06	1767.40
393.27	1720.29
393.47	1570.79
393.68	1755.11
393.89	1740.77
394.10	1804.26
394.31	1681.38
394.52	1656.81
394.72	1687.53
394.93	1787.88
395.14	1671.14
395.35	1742.82
395.56	1691.62
395.76	1687.53
395.97	1837.03
396.18	1853.41
396.39	1865.70
396.60	2039.78
396.80	1892.32
397.01	1787.88
397.22	1800.16
397.43	1845.22
397.64	1789.92
397.84	1820.64
398.05	1851.36
398.26	1732.58
398.47	1837.03
398.67	1777.64
398.88	1675.24
399.09	1718.25
399.30	1679.33
399.51	1783.78
399.71	1640.42
399.92	1718.25
400.13	1779.68
400.34	1683.43
400.54	1624.04
400.75	1757.16
400.96	1710.05
401.17	1742.82
401.37	1710.05
401.58	1726.44
401.79	1679.33
402.00	1888.23
402.21	2000.87
402.41	1996.77
402.62	2013.15
402.83	2027.49
403.04	1974.24
403.24	2045.92
403.45	1804.26
403.66	1822.69
403.87	1861.60
404.07	1849.32
404.28	1896.42
404.49	1863.65
404.70	1814.50
404.90	1804.26
405.11	1763.30
405.32	1705.96
405.52	1660.90
405.73	1632.23
405.94	1677.29
406.15	1708.01
406.35	1734.63
406.56	1724.39
406.77	1697.77
406.98	1658.85
407.18	1640.42
407.39	1712.10
407.60	1656.81
407.80	1677.29
408.01	1722.34
408.22	1759.21
408.43	1748.97
408.63	1738.73
408.84	1767.40
409.05	1763.30
409.25	1609.70
409.46	1648.61
409.67	1673.19
409.88	1671.14
410.08	1738.73
410.29	1699.81
410.50	1681.38
410.70	1697.77
410.91	1656.81
411.12	1636.33
411.32	1656.81
411.53	1658.85
411.74	1693.67
411.95	1769.44
412.15	1708.01
412.36	1710.05
412.57	1722.34
412.77	1794.02
412.98	1761.25
413.19	1673.19
413.39	1759.21
413.60	1802.21
413.81	1806.31
414.01	1705.96
414.22	1744.87
414.43	1718.25
414.63	1679.33
414.84	1783.78
415.05	1751.01
415.25	1626.09
415.46	1710.05
415.67	1681.38
415.87	1726.44
416.08	1669.09
416.29	1683.43
416.49	1699.81
416.70	1732.58
416.91	1665.00
417.11	1710.05
417.32	1724.39
417.53	1734.63
417.73	1714.15
417.94	1693.67
418.15	1701.86
418.35	1697.77
418.56	1734.63
418.77	1826.79
418.97	1789.92
419.18	1611.75
419.38	1718.25
419.59	1708.01
419.80	1798.12
420.00	1730.53
420.21	1691.62
420.42	1775.59
420.62	1697.77
420.83	1646.57
421.04	1652.71
421.24	1603.56
421.45	1773.54
421.65	1718.25
421.86	1789.92
422.07	1767.40
422.27	1667.05
422.48	1734.63
422.69	1685.48
422.89	1613.80
423.10	1705.96
423.30	1671.14
423.51	1724.39
423.72	1771.49
423.92	1808.36
424.13	1703.91
424.33	1769.44
424.54	1708.01
424.75	1689.57
424.95	1855.46
425.16	1751.01
425.36	1736.68
425.57	1779.68
425.78	1691.62
425.98	1669.09
426.19	1712.10
426.39	1578.98
426.60	1757.16
426.81	1781.73
427.01	1724.39
427.22	1654.76
427.42	1619.94
427.63	1605.61
427.83	1769.44
428.04	1765.35
428.25	1806.31
428.45	1732.58
428.66	1757.16
428.86	1685.48
429.07	1681.38
429.28	1773.54
429.48	1665.00
429.69	1595.37
429.89	1755.11
430.10	1646.57
430.30	1753.06
430.51	1820.64
430.71	1708.01
430.92	1710.05
431.13	1796.07
431.33	1728.49
431.54	1689.57
431.74	1763.30
431.95	1804.26
432.15	1695.72
432.36	1755.11
432.56	1705.96
432.77	1810.40
432.98	1787.88
433.18	1718.25
433.39	1753.06
433.59	1689.57
433.80	1824.74
434.00	1867.75
434.21	1724.39
434.41	1630.18
434.62	1888.23
434.82	1656.81
435.03	1751.01
435.23	1736.68
435.44	1673.19
435.64	1738.73
435.85	1705.96
436.06	1787.88
436.26	1736.68
436.47	1687.53
436.67	1646.57
436.88	1726.44
437.08	1720.29
437.29	1816.55
437.49	1697.77
437.70	1767.40
437.90	1736.68
438.11	1810.40
438.31	1740.77
438.52	1832.93
438.72	1869.80
438.93	1937.38
439.13	1730.53
439.34	1884.13
439.54	1763.30
439.75	1865.70
439.95	1832.93
440.16	1697.77
440.36	1646.57
440.57	1779.68
440.77	1779.68
440.98	1746.92
441.18	1810.40
441.39	1660.90
441.59	1626.09
441.80	1822.69
442.00	1781.73
442.21	1902.56
442.41	1624.04
442.62	1753.06
442.82	1646.57
443.02	1742.82
443.23	1796.07
443.43	1738.73
443.64	1802.21
443.84	1685.48
444.05	1832.93
444.25	1740.77
444.46	1699.81
444.66	1798.12
444.87	1742.82
445.07	1648.61
445.28	1718.25
445.48	1771.49
445.69	1732.58
445.89	1890.28
446.09	1757.16
446.30	2045.92
446.50	2705.37
446.71	3733.45
446.91	4278.21
447.12	4847.54
447.32	4794.29
447.53	4310.97
447.73	3854.28
447.93	3518.41
448.14	3311.57
448.34	3168.21
448.55	2852.82
448.75	2908.12
448.96	2717.65
449.16	2353.12
449.36	2234.33
449.57	2047.97
449.77	1877.99
449.98	1767.40
450.18	1841.12
450.39	1837.03
450.59	1763.30
450.79	1837.03
451.00	1683.43
451.20	1691.62
451.41	1751.01
451.61	1818.60
451.81	1732.58
452.02	1656.81
452.22	1679.33
452.43	1742.82
452.63	1802.21
452.84	1708.01
453.04	1658.85
453.24	1730.53
453.45	1640.42
453.65	1806.31
453.86	1736.68
454.06	1708.01
454.26	1763.30
454.47	1638.38
454.67	1779.68
454.87	1779.68
455.08	1679.33
455.28	1757.16
455.49	1796.07
455.69	1775.59
455.89	1863.65
456.10	1699.81
456.30	1656.81
456.51	1730.53
456.71	1712.10
456.91	1804.26
457.12	1710.05
457.32	1771.49
457.52	1689.57
457.73	1767.40
457.93	1806.31
458.14	1697.77
458.34	1630.18
458.54	1718.25
458.75	1779.68
458.95	1771.49
459.15	1767.40
459.36	1722.34
459.56	1667.05
459.76	1869.80
459.97	1697.77
460.17	1726.44
460.37	1734.63
460.58	1714.15
460.78	1734.63
460.99	1755.11
461.19	1732.58
461.39	1665.00
461.60	1699.81
461.80	1720.29
462.00	1660.90
462.21	1718.25
462.41	1761.25
462.61	1685.48
462.82	1611.75
463.02	1675.24
463.22	1785.83
463.43	1834.98
463.63	1794.02
463.83	1804.26
464.04	1648.61
464.24	1734.63
464.44	1695.72
464.64	1781.73
464.85	1728.49
465.05	1744.87
465.25	1773.54
465.46	1689.57
465.66	1877.99
465.86	1730.53
466.07	1726.44
466.27	1757.16
466.47	1617.90
466.68	1607.66
466.88	1857.51
467.08	1765.35
467.29	1775.59
467.49	1722.34
467.69	1658.85
467.89	1720.29
468.10	1665.00
468.30	1791.97
468.50	1806.31
468.71	1808.36
468.91	1675.24
469.11	1855.46
469.31	1748.97
469.52	1728.49
469.72	1761.25
469.92	1849.32
470.13	1710.05
470.33	1712.10
470.53	1808.36
470.73	2062.30
470.94	2381.79
471.14	2363.36
471.34	2498.52
471.54	2396.12
471.75	2197.47
471.95	2150.37
472.15	1984.48
472.36	2123.74
472.56	2035.68
472.76	2025.44
472.96	2023.39
473.17	1980.39
473.37	1943.52
473.57	1769.44
473.77	1865.70
473.98	1781.73
474.18	1679.33
474.38	1918.95
474.58	1710.05
474.79	1734.63
474.99	1667.05
475.19	1748.97
475.39	1648.61
475.60	1675.24
475.80	1751.01
476.00	1753.06
476.20	1714.15
476.41	1753.06
476.61	1800.16
476.81	1818.60
477.01	1703.91
477.21	1882.08
477.42	1773.54
477.62	1652.71
477.82	1773.54
478.02	1736.68
478.23	1677.29
478.43	1646.57
478.63	1693.67
478.83	1751.01
479.03	1740.77
479.24	1787.88
479.44	1798.12
479.64	1558.50
479.84	1605.61
480.04	1753.06
480.25	1791.97
480.45	1648.61
480.65	1722.34
480.85	1822.69
481.06	1669.09
481.26	1634.28
481.46	1705.96
481.66	1718.25
481.86	1636.33
482.06	1810.40
482.27	1654.76
482.47	1734.63
482.67	1755.11
482.87	1699.81
483.07	1810.40
483.28	1699.81
483.48	1724.39
483.68	1804.26
483.88	1621.99
484.08	1624.04
484.29	1642.47
484.49	1734.63
484.69	1679.33
484.89	1765.35
485.09	1765.35
485.29	1832.93
485.50	1775.59
485.70	1736.68
485.90	1779.68
486.10	1806.31
486.30	1724.39
486.50	1798.12
486.71	1757.16
486.91	1847.27
487.11	1728.49
487.31	1710.05
487.51	1845.22
487.71	1648.61
487.91	1630.18
488.12	1634.28
488.32	1632.23
488.52	1646.57
488.72	1589.22
488.92	1763.30
489.12	1771.49
489.32	1726.44
489.53	1722.34
489.73	1642.47
489.93	1841.12
490.13	1673.19
490.33	1722.34
490.53	1759.21
490.73	1837.03
490.94	1628.14
491.14	1744.87
491.34	1783.78
491.54	2224.09
491.74	2586.58
491.94	2914.26
492.14	3141.58
492.34	3074.00
492.54	2779.09
492.75	2412.51
492.95	2490.33
493.15	2232.29
493.35	2308.06
493.55	2183.13
493.75	2160.61
493.95	2154.46
494.15	2066.40
494.35	1871.84
494.56	1849.32
494.76	1777.64
494.96	1843.17
495.16	1765.35
495.36	1785.83
495.56	1779.68
495.76	1685.48
495.96	1767.40
496.16	1724.39
496.36	1855.46
496.56	1728.49
496.77	1828.84
496.97	1701.86
497.17	1669.09
497.37	1642.47
497.57	1781.73
497.77	1726.44
497.97	1640.42
498.17	1753.06
498.37	1746.92
498.57	1732.58
498.77	1693.67
498.97	1693.67
499.17	1880.04
499.38	1761.25
499.58	1708.01
499.78	1763.30
499.98	1761.25
500.18	1783.78
500.38	1665.00
500.58	1951.71
500.78	2564.06
500.98	4396.99
501.18	5783.46
501.38	6776.73
501.58	7051.16
501.78	6780.82
501.98	5593.00
502.18	4923.32
502.38	4652.98
502.58	4181.95
502.78	3798.98
502.98	3758.02
503.18	3459.02
503.38	3082.19
503.59	2820.05
503.79	2639.83
503.99	2500.57
504.19	2367.45
504.39	2234.33
504.59	2099.17
504.79	2099.17
504.99	2058.21
505.19	1929.19
505.39	1943.52
505.59	1918.95
505.79	1884.13
505.99	1830.88
506.19	1804.26
506.39	1869.80
506.59	1785.83
506.79	1740.77
506.99	1777.64
507.19	1751.01
507.39	1791.97
507.59	1722.34
507.79	1656.81
507.99	1718.25
508.19	1726.44
508.39	1685.48
508.59	1716.20
508.79	1771.49
508.99	1783.78
509.19	1691.62
509.39	1738.73
509.59	1699.81
509.79	1667.05
509.99	1662.95
510.19	1771.49
510.39	1751.01
510.59	1681.38
510.79	1695.72
510.99	1703.91
511.19	1845.22
511.39	1849.32
511.59	1779.68
511.79	1904.61
511.99	1730.53
512.19	1828.84
512.38	1724.39
512.58	1689.57
512.78	1714.15
512.98	1824.74
513.18	1839.08
513.38	1675.24
513.58	1796.07
513.78	1656.81
513.98	1703.91
514.18	1699.81
514.38	1658.85
514.58	1710.05
514.78	1697.77
514.98	1699.81
515.18	1779.68
515.38	1628.14
515.58	1849.32
515.78	1699.81
515.98	1677.29
516.18	1832.93
516.38	1738.73
516.57	1677.29
516.77	1624.04
516.97	1773.54
517.17	1746.92
517.37	1607.66
517.57	1763.30
517.77	1748.97
517.97	1683.43
518.17	1755.11
518.37	1708.01
518.57	1687.53
518.77	1751.01
518.97	1787.88
519.16	1775.59
519.36	1775.59
519.56	1681.38
519.76	1779.68
519.96	1705.96
520.16	1787.88
520.36	1669.09
520.56	1740.77
520.76	1804.26
520.96	1648.61
521.16	1841.12
521.35	1880.04
521.55	1736.68
521.75	1769.44
521.95	1677.29
522.15	1673.19
522.35	1626.09
522.55	1699.81
522.75	1800.16
522.95	1660.90
523.14	1714.15
523.34	1761.25
523.54	1685.48
523.74	1716.20
523.94	1736.68
524.14	1681.38
524.34	1765.35
524.54	1810.40
524.73	1779.68
524.93	1828.84
525.13	1712.10
525.33	1720.29
525.53	1947.62
525.73	1787.88
525.93	1730.53
526.13	1716.20
526.32	1712.10
526.52	1755.11
526.72	1806.31
526.92	1712.10
527.12	1742.82
527.32	1675.24
527.52	1730.53
527.71	1820.64
527.91	1662.95
528.11	1683.43
528.31	1732.58
528.51	1701.86
528.71	1751.01
528.90	1763.30
529.10	1771.49
529.30	1781.73
529.50	1583.08
529.70	1751.01
529.90	1705.96
530.09	1728.49
530.29	1687.53
530.49	1724.39
530.69	1951.71
530.89	1744.87
531.09	1701.86
531.28	1646.57
531.48	1806.31
531.68	1728.49
531.88	1718.25
532.08	1757.16
532.28	1697.77
532.47	1757.16
532.67	1804.26
532.87	1714.15
533.07	1632.23
533.27	1757.16
533.46	1804.26
533.66	1775.59
533.86	1658.85
534.06	1730.53
534.26	1794.02
534.45	1728.49
534.65	1834.98
534.85	1728.49
535.05	1685.48
535.25	1769.44
535.44	1720.29
535.64	1759.21
535.84	1693.67
536.04	1718.25
536.24	1703.91
536.43	1712.10
536.63	1701.86
536.83	1726.44
537.03	1755.11
537.22	1671.14
537.42	1626.09
537.62	1757.16
537.82	1757.16
538.02	1843.17
538.21	1816.55
538.41	1978.34
538.61	1744.87
538.81	1646.57
539.00	1808.36
539.20	1597.42
539.40	1675.24
539.60	1740.77
539.79	1759.21
539.99	1720.29
540.19	1753.06
540.39	1728.49
540.58	1787.88
540.78	1763.30
540.98	1746.92
541.18	1810.40
541.37	1763.30
541.57	1626.09
541.77	1730.53
541.97	1665.00
542.16	1705.96
542.36	1630.18
542.56	1767.40
542.76	1808.36
542.95	1802.21
543.15	1798.12
543.35	1826.79
543.54	1636.33
543.74	1673.19
543.94	1882.08
544.14	1632.23
544.33	1804.26
544.53	1726.44
544.73	1667.05
544.93	1716.20
545.12	1744.87
545.32	1701.86
545.52	1673.19
545.71	1673.19
545.91	1738.73
546.11	1736.68
546.30	1736.68
546.50	1734.63
546.70	1769.44
546.90	1837.03
547.09	1609.70
547.29	1787.88
547.49	1734.63
547.68	1757.16
547.88	1710.05
548.08	1738.73
548.27	2217.95
548.47	1726.44
548.67	1691.62
548.87	1812.45
549.06	1712.10
549.26	1804.26
549.46	1738.73
549.65	1667.05
549.85	1812.45
550.05	1714.15
550.24	1632.23
550.44	1781.73
550.64	1794.02
550.83	1681.38
551.03	1851.36
551.23	1771.49
551.42	1757.16
551.62	1753.06
551.82	1789.92
552.01	1775.59
552.21	1834.98
552.41	1787.88
552.60	1789.92
552.80	1755.11
553.00	1607.66
553.19	1763.30
553.39	1820.64
553.59	1648.61
553.78	1742.82
553.98	1722.34
554.17	1687.53
554.37	1738.73
554.57	1822.69
554.76	1685.48
554.96	1652.71
555.16	1718.25
555.35	1787.88
555.55	1714.15
555.75	1779.68
555.94	1834.98
556.14	1615.85
556.33	1757.16
556.53	1703.91
556.73	1718.25
556.92	1814.50
557.12	1812.45
557.32	1863.65
557.51	1806.31
557.71	1753.06
557.90	1777.64
558.10	1824.74
558.30	1722.34
558.49	1716.20
558.69	1800.16
558.88	1740.77
559.08	1769.44
559.28	1751.01
559.47	1759.21
559.67	1837.03
559.86	1839.08
560.06	1708.01
560.26	1714.15
560.45	1753.06
560.65	1677.29
560.84	1800.16
561.04	1755.11
561.24	1751.01
561.43	1681.38
561.63	1781.73
561.82	1763.30
562.02	1777.64
562.22	1665.00
562.41	1673.19
562.61	1697.77
562.80	1644.52
563.00	1929.19
563.19	1720.29
563.39	1742.82
563.59	1787.88
563.78	1740.77
563.98	1595.37
564.17	1697.77
564.37	1697.77
564.56	1796.07
564.76	1593.32
564.96	1863.65
565.15	1748.97
565.35	1865.70
565.54	1728.49
565.74	1806.31
565.93	1814.50
566.13	1701.86
566.32	1705.96
566.52	1759.21
566.71	1769.44
566.91	1767.40
567.11	1824.74
567.30	1726.44
567.50	1791.97
567.69	1720.29
567.89	1724.39
568.08	1658.85
568.28	1681.38
568.47	1660.90
568.67	1728.49
568.86	1681.38
569.06	1822.69
569.25	1732.58
569.45	1660.90
569.64	1652.71
569.84	1724.39
570.04	1818.60
570.23	1693.67
570.43	1777.64
570.62	1697.77
570.82	1804.26
571.01	1710.05
571.21	1740.77
571.40	1650.66
571.60	1730.53
571.79	1732.58
571.99	1777.64
572.18	1705.96
572.38	1767.40
572.57	1646.57
572.77	1789.92
572.96	1847.27
573.16	1763.30
573.35	1624.04
573.55	1818.60
573.74	1802.21
573.94	1724.39
574.13	1671.14
574.33	1695.72
574.52	1787.88
574.71	1751.01
574.91	1820.64
575.10	1654.76
575.30	1746.92
575.49	1730.53
575.69	1675.24
575.88	1716.20
576.08	1744.87
576.27	1728.49
576.47	1712.10
576.66	1826.79
576.86	1785.83
577.05	1777.64
577.25	1767.40
577.44	1890.28
577.64	1705.96
577.83	1855.46
578.02	1744.87
578.22	1914.85
578.41	1845.22
578.61	1732.58
578.80	1730.53
579.00	1665.00
579.19	1767.40
579.39	1787.88
579.58	1847.27
579.77	1769.44
579.97	1751.01
580.16	1806.31
580.36	1763.30
580.55	1853.41
580.75	1796.07
580.94	1785.83
581.13	1882.08
581.33	1851.36
581.52	1746.92
581.72	1871.84
581.91	1777.64
582.11	1759.21
582.30	1734.63
582.49	1806.31
582.69	1775.59
582.88	1804.26
583.08	1714.15
583.27	1830.88
583.47	1732.58
583.66	1757.16
583.85	1665.00
584.05	1748.97
584.24	1798.12
584.44	1884.13
584.63	1822.69
584.82	1822.69
585.02	1769.44
585.21	1820.64
585.41	1816.55
585.60	1845.22
585.79	1964.00
585.99	1933.28
586.18	1951.71
586.37	2095.07
586.57	3381.20
586.76	9656.17
586.96	24704.65
587.15	34491.89
587.34	40643.99
587.54	41823.62
587.73	36845.01
587.93	26781.29
588.12	21733.04
588.31	18585.32
588.51	16467.72
588.70	14970.65
588.89	14034.73
589.09	12867.39
589.28	10979.16
589.47	9467.76
589.67	8058.76
589.86	6500.25
590.06	5017.52
590.25	3876.80
590.44	3108.82
590.64	2639.83
590.83	2228.19
591.02	2111.46
591.22	1933.28
591.41	1920.99
591.60	1775.59
591.80	1871.84
591.99	1777.64
592.18	1732.58
592.38	1755.11
592.57	1746.92
592.76	1789.92
592.96	1824.74
593.15	1787.88
593.34	1765.35
593.54	1759.21
593.73	1730.53
593.92	1771.49
594.12	1765.35
594.31	1863.65
594.50	1859.56
594.70	1703.91
594.89	1873.89
595.08	1667.05
595.28	1771.49
595.47	1882.08
595.66	1806.31
595.86	1689.57
596.05	1765.35
596.24	1693.67
596.43	1873.89
596.63	1791.97
596.82	1740.77
597.01	1751.01
597.21	1857.51
597.40	1757.16
597.59	1693.67
597.79	1728.49
597.98	1718.25
598.17	1753.06
598.36	1732.58
598.56	1857.51
598.75	1685.48
598.94	1804.26
599.14	1761.25
599.33	1777.64
599.52	1748.97
599.71	1816.55
599.91	1775.59
600.10	1703.91
600.29	1691.62
600.48	1755.11
600.68	1779.68
600.87	1843.17
601.06	1753.06
601.26	1798.12
601.45	1773.54
601.64	1656.81
601.83	1859.56
602.03	1757.16
602.22	1642.47
602.41	1794.02
602.60	1834.98
602.80	1691.62
602.99	1738.73
603.18	1720.29
603.37	1757.16
603.57	1728.49
603.76	1804.26
603.95	1783.78
604.14	1775.59
604.34	1642.47
604.53	1712.10
604.72	1665.00
604.91	1816.55
605.10	1769.44
605.30	1642.47
605.49	1834.98
605.68	1738.73
605.87	1759.21
606.07	1789.92
606.26	1695.72
606.45	1779.68
606.64	1796.07
606.84	1751.01
607.03	1671.14
607.22	1845.22
607.41	1759.21
607.60	1738.73
607.80	1783.78
607.99	1644.52
608.18	1816.55
608.37	1714.15
608.56	1832.93
608.76	1771.49
608.95	1812.45
609.14	1734.63
609.33	1796.07
609.52	1841.12
609.72	1742.82
609.91	1779.68
610.10	1767.40
610.29	1726.44
610.48	1730.53
610.68	1712.10
610.87	1693.67
611.06	1818.60
611.25	1705.96
611.44	1802.21
611.63	1703.91
611.83	1779.68
612.02	1626.09
612.21	1814.50
612.40	1675.24
612.59	1726.44
612.79	1677.29
612.98	1771.49
613.17	1787.88
613.36	1730.53
613.55	1871.84
613.74	1634.28
613.93	1611.75
614.13	1701.86
614.32	1785.83
614.51	1796.07
614.70	1734.63
614.89	1650.66
615.08	1699.81
615.28	2088.93
615.47	1714.15
615.66	1773.54
615.85	1687.53
616.04	1808.36
616.23	1773.54
616.42	1724.39
616.62	1757.16
616.81	1640.42
617.00	1710.05
617.19	1722.34
617.38	1699.81
617.57	1724.39
617.76	1736.68
617.95	1685.48
618.15	1699.81
618.34	1726.44
618.53	1615.85
618.72	1851.36
618.91	1748.97
619.10	1806.31
619.29	1736.68
619.48	1687.53
619.68	1665.00
619.87	1751.01
620.06	1660.90
620.25	1703.91
620.44	1660.90
620.63	1724.39
620.82	1705.96
621.01	1726.44
621.20	1726.44
621.39	1732.58
621.59	1822.69
621.78	1701.86
621.97	1673.19
622.16	1814.50
622.35	1837.03
622.54	1785.83
622.73	1818.60
622.92	1583.08
623.11	1777.64
623.30	1695.72
623.49	1722.34
623.68	1675.24
623.88	1800.16
624.07	1681.38
624.26	1714.15
624.45	1665.00
624.64	1660.90
624.83	1652.71
625.02	1740.77
625.21	1742.82
625.40	1724.39
625.59	1804.26
625.78	1681.38
625.97	1812.45
626.16	1783.78
626.35	1740.77
626.54	1808.36
626.74	1818.60
626.93	1695.72
627.12	1705.96
627.31	1738.73
627.50	1755.11
627.69	1837.03
627.88	1656.81
628.07	1679.33
628.26	1671.14
628.45	1667.05
628.64	1693.67
628.83	1769.44
629.02	1636.33
629.21	1789.92
629.40	1765.35
629.59	1603.56
629.78	1669.09
629.97	1699.81
630.16	1677.29
630.35	1656.81
630.54	1660.90
630.73	1624.04
630.92	1691.62
631.11	1619.94
631.30	1728.49
631.49	1761.25
631.68	1736.68
631.87	1734.63
632.06	1626.09
632.25	1822.69
632.44	1714.15
632.63	1630.18
632.82	1671.14
633.01	1628.14
633.20	1787.88
633.39	1656.81
633.58	1656.81
633.77	1714.15
633.96	1746.92
634.15	1767.40
634.34	1794.02
634.53	1740.77
634.72	1673.19
634.91	1628.14
635.10	1736.68
635.29	1730.53
635.48	1720.29
635.67	1644.52
635.86	1697.77
636.05	1779.68
636.24	1738.73
636.43	1722.34
636.62	1699.81
636.81	1570.79
637.00	1744.87
637.19	1697.77
637.38	1742.82
637.57	1773.54
637.76	1720.29
637.95	1693.67
638.14	1714.15
638.33	1693.67
638.52	1759.21
638.71	1621.99
638.89	1685.48
639.08	1800.16
639.27	1798.12
639.46	1691.62
639.65	1740.77
639.84	1732.58
640.03	1759.21
640.22	1652.71
640.41	1798.12
640.60	1654.76
640.79	1746.92
640.98	1667.05
641.17	1681.38
641.36	1720.29
641.55	1724.39
641.74	1652.71
641.92	1697.77
642.11	1638.38
642.30	1769.44
642.49	1699.81
642.68	1726.44
642.87	1677.29
643.06	1728.49
643.25	1822.69
643.44	1716.20
643.63	1755.11
643.82	1769.44
644.00	1640.42
644.19	1763.30
644.38	1683.43
644.57	1675.24
644.76	1744.87
644.95	1773.54
645.14	1703.91
645.33	1748.97
645.52	1789.92
645.71	1687.53
645.89	1652.71
646.08	1689.57
646.27	1722.34
646.46	1779.68
646.65	1658.85
646.84	1691.62
647.03	1708.01
647.22	1810.40
647.40	1734.63
647.59	1710.05
647.78	1665.00
647.97	1615.85
648.16	1660.90
648.35	1822.69
648.54	1744.87
648.73	1605.61
648.91	1783.78
649.10	1771.49
649.29	1693.67
649.48	1767.40
649.67	1722.34
649.86	1736.68
650.05	1624.04
650.23	1806.31
650.42	1628.14
650.61	1757.16
650.80	1726.44
650.99	1841.12
651.18	1791.97
651.36	1775.59
651.55	1740.77
651.74	1726.44
651.93	1669.09
652.12	1683.43
652.31	1806.31
652.49	1757.16
652.68	1658.85
652.87	1732.58
653.06	1695.72
653.25	1910.75
653.44	1697.77
653.62	1777.64
653.81	1755.11
654.00	1716.20
654.19	1818.60
654.38	1873.89
654.56	1742.82
654.75	1726.44
654.94	1697.77
655.13	1722.34
655.32	1734.63
655.51	1689.57
655.69	1660.90
655.88	1849.32
656.07	1667.05
656.26	1789.92
656.45	1650.66
656.63	1656.81
656.82	1687.53
657.01	1810.40
657.20	1693.67
657.38	1751.01
657.57	1738.73
657.76	1646.57
657.95	1697.77
658.14	1611.75
658.32	1650.66
658.51	1593.32
658.70	1697.77
658.89	1685.48
659.08	1712.10
659.26	1730.53
659.45	1652.71
659.64	1724.39
659.83	1640.42
660.01	1929.19
660.20	1726.44
660.39	1781.73
660.58	1566.70
660.76	1783.78
660.95	1646.57
661.14	1746.92
661.33	1589.22
661.51	1638.38
661.70	1695.72
661.89	1763.30
662.08	1746.92
662.26	1712.10
662.45	1660.90
662.64	1794.02
662.83	1812.45
663.01	1693.67
663.20	1673.19
663.39	1841.12
663.58	1665.00
663.76	1671.14
663.95	1828.84
664.14	1769.44
664.32	1677.29
664.51	1677.29
664.70	1611.75
664.89	1845.22
665.07	1701.86
665.26	1755.11
665.45	1665.00
665.64	1673.19
665.82	1761.25
666.01	1787.88
666.20	1683.43
666.38	1839.08
666.57	1830.88
666.76	2242.53
666.95	4458.43
667.13	10297.19
667.32	15521.56
667.51	18040.56
667.69	19089.12
667.88	17929.97
668.07	12506.95
668.25	9516.91
668.44	8273.79
668.63	7440.27
668.81	6897.56
669.00	6401.95
669.19	5752.74
669.38	5031.86
669.56	4679.61
669.75	4100.03
669.94	3364.81
670.12	2830.29
670.31	2580.44
670.50	2256.86
670.68	2033.63
670.87	1988.58
671.06	1710.05
671.24	1820.64
671.43	1777.64
671.62	1708.01
671.80	1748.97
671.99	1714.15
672.18	1693.67
672.36	1771.49
672.55	1716.20
672.74	1724.39
672.92	1720.29
673.11	1740.77
673.29	1667.05
673.48	1730.53
673.67	1693.67
673.85	1808.36
674.04	1634.28
674.23	1697.77
674.41	1804.26
674.60	1691.62
674.79	1568.74
674.97	1703.91
675.16	1705.96
675.34	1806.31
675.53	1687.53
675.72	1703.91
675.90	1744.87
676.09	1665.00
676.28	1710.05
676.46	1613.80
676.65	1732.58
676.83	1648.61
677.02	1738.73
677.21	1640.42
677.39	1773.54
677.58	1716.20
677.77	1769.44
677.95	1699.81
678.14	1740.77
678.32	1732.58
678.51	1796.07
678.70	1789.92
678.88	1619.94
679.07	1697.77
679.25	1742.82
679.44	1691.62
679.63	1597.42
679.81	1656.81
680.00	1783.78
680.18	1746.92
680.37	1808.36
680.55	1615.85
680.74	1611.75
680.93	1626.09
681.11	1609.70
681.30	1712.10
681.48	1800.16
681.67	1718.25
681.85	1658.85
682.04	1689.57
682.23	1714.15
682.41	1773.54
682.60	1679.33
682.78	1720.29
682.97	1636.33
683.15	1685.48
683.34	1710.05
683.53	1753.06
683.71	1701.86
683.90	1832.93
684.08	1628.14
684.27	1685.48
684.45	1820.64
684.64	1777.64
684.82	1677.29
685.01	1667.05
685.19	1748.97
685.38	1798.12
685.57	1701.86
685.75	1701.86
685.94	1697.77
686.12	1667.05
686.31	1615.85
686.49	1814.50
686.68	1628.14
686.86	1742.82
687.05	1738.73
687.23	1804.26
687.42	1679.33
687.60	1660.90
687.79	1751.01
687.97	1798.12
688.16	1746.92
688.34	1820.64
688.53	1554.41
688.71	1716.20
688.90	1763.30
689.08	1718.25
689.27	1617.90
689.45	1820.64
689.64	1724.39
689.82	1753.06
690.01	1720.29
690.19	1699.81
690.38	1677.29
690.56	1767.40
690.75	1697.77
690.93	1636.33
691.12	1697.77
691.30	1673.19
691.49	1714.15
691.67	1705.96
691.86	1804.26
692.04	1677.29
692.23	1619.94
692.41	1708.01
692.60	1796.07
692.78	1726.44
692.97	1660.90
693.15	1683.43
693.34	1931.23
693.52	1812.45
693.71	1591.27
693.89	1738.73
694.08	1660.90
694.26	1738.73
694.44	1800.16
694.63	1783.78
694.81	1673.19
695.00	1705.96
695.18	1728.49
695.37	1796.07
695.55	1708.01
695.74	1720.29
695.92	1689.57
696.10	1787.88
696.29	1658.85
696.47	1673.19
696.66	1656.81
696.84	1703.91
697.03	1710.05
697.21	1820.64
697.40	2326.49
697.58	1775.59
697.76	1683.43
697.95	1685.48
698.13	1585.13
698.32	1640.42
698.50	1662.95
698.68	1681.38
698.87	1796.07
699.05	1775.59
699.24	1748.97
699.42	1675.24
699.61	1736.68
699.79	1714.15
699.97	1705.96
700.16	1568.74
700.34	1626.09
700.53	1724.39
700.71	1796.07
700.89	1751.01
701.08	1708.01
701.26	1789.92
701.45	2107.36
701.63	1703.91
701.81	1722.34
702.00	1630.18
702.18	1705.96
702.37	1652.71
702.55	1730.53
702.73	1710.05
702.92	1689.57
703.10	1730.53
703.28	1714.15
703.47	1642.47
703.65	1775.59
703.84	1742.82
704.02	1691.62
704.20	1849.32
704.39	1679.33
704.57	1630.18
704.75	1781.73
704.94	1785.83
705.12	1654.76
705.30	1755.11
705.49	2275.29
705.67	4417.47
705.86	9342.83
706.04	12629.82
706.22	14618.40
706.41	15542.03
706.59	13924.14
706.77	9711.47
706.96	7255.95
707.14	6580.12
707.32	5988.26
707.51	5468.08
707.69	4945.84
707.87	4220.86
708.06	3657.67
708.24	2914.26
708.42	2475.99
708.61	2283.49
708.79	1867.75
708.97	1845.22
709.16	1869.80
709.34	1732.58
709.52	1708.01
709.71	1722.34
709.89	1763.30
710.07	1632.23
710.26	1726.44
710.44	1773.54
710.62	1771.49
710.80	1648.61
710.99	1755.11
711.17	1732.58
711.35	1640.42
711.54	1724.39
711.72	1791.97
711.90	1730.53
712.09	1671.14
712.27	1689.57
712.45	1796.07
712.63	1705.96
712.82	1740.77
713.00	1718.25
713.18	1802.21
713.37	1683.43
713.55	1699.81
713.73	1746.92
713.91	1718.25
714.10	1654.76
714.28	1673.19
714.46	1767.40
714.65	1767.40
714.83	1689.57
715.01	1701.86
715.19	1757.16
715.38	1654.76
715.56	1644.52
715.74	1644.52
715.92	1722.34
716.11	1767.40
716.29	1578.98
716.47	1669.09
716.65	1636.33
716.84	1630.18
717.02	1818.60
717.20	1630.18
717.38	1624.04
717.57	1724.39
717.75	1724.39
717.93	1638.38
718.11	1742.82
718.30	1619.94
718.48	1712.10
718.66	1611.75
718.84	1724.39
719.03	1722.34
719.21	1636.33
719.39	1810.40
719.57	1791.97
719.75	1716.20
719.94	1650.66
720.12	1658.85
720.30	1697.77
720.48	1746.92
720.67	1726.44
720.85	1673.19
721.03	1671.14
721.21	1662.95
721.39	1773.54
721.58	1740.77
721.76	1708.01
721.94	1718.25
722.12	1685.48
722.30	1787.88
722.49	1763.30
722.67	1714.15
722.85	1746.92
723.03	1667.05
723.21	1624.04
723.40	1718.25
723.58	1697.77
723.76	1699.81
723.94	1736.68
724.12	1630.18
724.30	1837.03
724.49	1740.77
724.67	1681.38
724.85	1751.01
725.03	1640.42
725.21	1714.15
725.40	1697.77
725.58	1736.68
725.76	1828.84
725.94	1665.00
726.12	1689.57
726.30	1687.53
726.49	1695.72
726.67	1675.24
726.85	1699.81
727.03	1720.29
727.21	2209.76
727.39	2820.05
727.57	3944.39
727.76	4114.37
727.94	4507.58
728.12	4401.08
728.30	3682.25
728.48	2979.79
728.66	2756.57
728.84	2562.01
729.03	2355.16
729.21	2150.37
729.39	1992.67
729.57	1849.32
729.75	1777.64
729.93	1812.45
730.11	1695.72
730.30	1718.25
730.48	1703.91
730.66	1845.22
730.84	1779.68
731.02	1679.33
731.20	1712.10
731.38	1761.25
731.56	1656.81
731.74	1722.34
731.93	1675.24
732.11	1744.87
732.29	1673.19
732.47	1621.99
732.65	1677.29
732.83	1746.92
733.01	1730.53
733.19	1699.81
733.37	1734.63
733.56	1753.06
733.74	1656.81
733.92	1738.73
734.10	1669.09
734.28	1724.39
734.46	1656.81
734.64	1716.20
734.82	1714.15
735.00	1683.43
735.18	1638.38
735.36	1619.94
735.54	1685.48
735.73	1755.11
735.91	1798.12
736.09	1816.55
736.27	1708.01
736.45	1775.59
736.63	1583.08
736.81	1705.96
736.99	1757.16
737.17	1775.59
737.35	1746.92
737.53	1771.49
737.71	1589.22
737.89	1787.88
738.07	1640.42
738.25	1689.57
738.43	1613.80
738.61	1640.42
738.80	1699.81
738.98	1636.33
739.16	1742.82
739.34	1619.94
739.52	1755.11
739.70	1757.16
739.88	1806.31
740.06	1765.35
740.24	1669.09
740.42	1787.88
740.60	1544.17
740.78	1712.10
740.96	1554.41
741.14	1685.48
741.32	1714.15
741.50	1593.32
741.68	1777.64
741.86	1736.68
742.04	1665.00
742.22	1697.77
742.40	1720.29
742.58	1718.25
742.76	1681.38
742.94	1722.34
743.12	1654.76
743.30	1699.81
743.48	1705.96
743.66	1691.62
743.84	1767.40
744.02	1665.00
744.20	1734.63
744.38	1677.29
744.56	1681.38
744.74	1761.25
744.92	1675.24
745.10	1808.36
745.28	1761.25
745.46	1841.12
745.64	1650.66
745.82	1794.02
746.00	1708.01
746.18	1705.96
746.36	1656.81
746.54	1728.49
746.72	1693.67
746.90	1689.57
747.08	1759.21
747.26	1626.09
747.44	1738.73
747.62	1734.63
747.80	1732.58
747.98	1724.39
748.15	1607.66
748.33	1818.60
748.51	1720.29
748.69	1720.29
748.87	1644.52
749.05	1697.77
749.23	1597.42
749.41	1744.87
749.59	1675.24
749.77	1734.63
749.95	1654.76
750.13	1724.39
750.31	1705.96
750.49	1669.09
750.67	1767.40
750.85	1798.12
751.03	1673.19
751.20	1810.40
751.38	1691.62
751.56	1603.56
751.74	1730.53
751.92	1740.77
752.10	1675.24
752.28	1791.97
752.46	1644.52
752.64	1673.19
752.82	1624.04
753.00	1767.40
753.18	1642.47
753.35	1710.05
753.53	1652.71
753.71	1716.20
753.89	1710.05
754.07	1697.77
754.25	1697.77
754.43	1742.82
754.61	1642.47
754.79	1714.15
754.97	1679.33
755.14	1812.45
755.32	1574.89
755.50	1654.76
755.68	1652.71
755.86	1644.52
756.04	1691.62
756.22	1722.34
756.40	1757.16
756.57	1826.79
756.75	1773.54
756.93	1726.44
757.11	1732.58
757.29	1665.00
757.47	1705.96
757.65	1578.98
757.82	1638.38
758.00	1669.09
758.18	1689.57
758.36	1710.05
758.54	1794.02
758.72	1636.33
758.90	1759.21
759.07	1705.96
759.25	1607.66
759.43	1740.77
759.61	1697.77
759.79	2228.19
759.97	1742.82
760.15	1679.33
760.32	1734.63
760.50	1746.92
760.68	1806.31
760.86	1640.42
761.04	1787.88
761.22	1796.07
761.39	1681.38
761.57	1769.44
761.75	1708.01
761.93	1753.06
762.11	1683.43
762.28	1671.14
762.46	1652.71
762.64	1736.68
762.82	1673.19
763.00	1708.01
763.18	1798.12
763.35	1593.32
763.53	1740.77
763.71	1753.06
763.89	1728.49
764.07	1677.29
764.24	1691.62
764.42	1775.59
764.60	1683.43
764.78	1708.01
764.96	1718.25
765.13	1794.02
765.31	1679.33
765.49	1736.68
765.67	1677.29
765.84	1724.39
766.02	1703.91
766.20	1636.33
766.38	1726.44
766.56	1708.01
766.73	1787.88
766.91	1701.86
767.09	1679.33
767.27	1742.82
767.44	1656.81
767.62	1751.01
767.80	1755.11
767.98	1675.24
768.15	1703.91
768.33	1703.91
768.51	1642.47
768.69	1722.34
768.87	1746.92
769.04	1740.77
769.22	1884.13
769.40	1812.45
769.58	1853.41
769.75	1722.34
769.93	1767.40
770.11	1624.04
770.28	1632.23
770.46	1734.63
770.64	1656.81
770.82	1626.09
770.99	1656.81
771.17	1689.57
771.35	1705.96
771.53	1763.30
771.70	1574.89
771.88	1705.96
772.06	1712.10
772.23	1687.53
772.41	1753.06
772.59	1654.76
772.77	1613.80
772.94	1734.63
773.12	1681.38
773.30	1722.34
773.47	1732.58
773.65	1691.62
773.83	1812.45
774.01	1693.67
774.18	1603.56
774.36	1665.00
774.54	1632.23
774.71	1757.16
774.89	1550.31
775.07	1648.61
775.24	1693.67
775.42	1648.61
775.60	1820.64
775.78	1640.42
775.95	1624.04
776.13	1652.71
776.31	1535.98
776.48	1716.20
776.66	1740.77
776.84	1665.00
777.01	1624.04
777.19	1650.66
777.37	1691.62
777.54	1712.10
777.72	1857.51
777.90	1652.71
778.07	1677.29
778.25	1875.94
778.43	1730.53
778.60	1648.61
778.78	1744.87
778.96	1808.36
779.13	1628.14
779.31	1744.87
779.49	1687.53
779.66	1677.29
779.84	1697.77
780.01	1705.96
780.19	1615.85
780.37	1820.64
780.54	1708.01
780.72	1636.33
780.90	1628.14
781.07	1691.62
781.25	1724.39
781.43	1755.11
781.60	1681.38
781.78	1746.92
781.95	1753.06
782.13	1638.38
782.31	1662.95
782.48	1619.94
782.66	1675.24
782.83	1818.60
783.01	1632.23
783.19	1720.29
783.36	1683.43
783.54	1609.70
783.72	1748.97
783.89	1656.81
784.07	1697.77
784.24	1689.57
784.42	1802.21
784.60	1748.97
784.77	1634.28
784.95	1626.09
785.12	1746.92
785.30	1660.90
785.47	1708.01
785.65	1679.33
785.83	1632.23
786.00	1660.90
786.18	1640.42
786.35	1574.89
786.53	1722.34
786.71	1701.86
786.88	1746.92
787.06	1697.77
787.23	1726.44
787.41	1673.19
787.58	1634.28
787.76	1714.15
787.94	1767.40
788.11	1718.25
788.29	1513.45
788.46	1710.05
788.64	1599.46
788.81	1603.56
788.99	1640.42
789.16	1642.47
789.34	1654.76
789.52	1701.86
789.69	1683.43
789.87	1638.38
790.04	1669.09
790.22	1626.09
790.39	1865.70
790.57	1652.71
790.74	1654.76
790.92	1693.67
791.09	1626.09
791.27	1665.00
791.44	1779.68
791.62	1671.14
791.79	1769.44
791.97	1736.68
792.15	1904.61
792.32	1757.16
792.50	1763.30
792.67	1791.97
792.85	1732.58
793.02	1716.20
793.20	1681.38
793.37	1636.33
793.55	1636.33
793.72	1578.98
793.90	1722.34
794.07	1601.51
794.25	1654.76
794.42	1705.96
794.60	1699.81
794.77	1708.01
794.95	1697.77
795.12	1753.06
795.30	1665.00
795.47	1585.13
795.65	1812.45
795.82	1660.90
796.00	1638.38
796.17	1626.09
796.34	1699.81
796.52	1734.63
796.69	1759.21
796.87	1691.62
797.04	1820.64
797.22	1675.24
797.39	1767.40
797.57	1748.97
797.74	1644.52
797.92	1669.09
798.09	1669.09
798.27	1755.11
798.44	1679.33
798.62	1646.57
798.79	1738.73
798.96	1654.76
799.14	1714.15
799.31	1822.69
799.49	1699.81
799.66	1607.66
799.84	1738.73
800.01	1646.57
800.19	1716.20
800.36	1642.47
800.53	1718.25
800.71	1718.25
800.88	1708.01
801.06	1654.76
801.23	1691.62
801.41	1671.14
801.58	1705.96
801.75	1679.33
801.93	1677.29
802.10	1753.06
802.28	1679.33
802.45	1671.14
802.63	1751.01
802.80	1800.16
802.97	1703.91
803.15	1722.34
803.32	1671.14
803.50	1607.66
803.67	1691.62
803.84	1638.38
804.02	1681.38
804.19	1763.30
804.37	1599.46
804.54	1656.81
804.71	1673.19
804.89	1646.57
805.06	1609.70
805.24	1611.75
805.41	1667.05
805.58	1654.76
805.76	1847.27
805.93	1656.81
806.10	1755.11
806.28	1658.85
806.45	1660.90
806.63	1689.57
806.80	1667.05
806.97	1722.34
807.15	1697.77
807.32	1695.72
807.49	1712.10
807.67	1568.74
807.84	1626.09
808.01	1644.52
808.19	1781.73
808.36	1787.88
808.54	1640.42
808.71	1665.00
808.88	1726.44
809.06	1667.05
809.23	1740.77
809.40	1656.81
809.58	1744.87
809.75	1699.81
809.92	1644.52
810.10	1832.93
810.27	1728.49
810.44	1687.53
810.62	1691.62
810.79	1712.10
810.96	1609.70
811.14	1683.43
811.31	1636.33
811.48	1777.64
811.66	1699.81
811.83	1753.06
812.00	1669.09
812.18	1724.39
812.35	1787.88
812.52	1677.29
812.69	1675.24
812.87	1689.57
813.04	1644.52
813.21	1673.19
813.39	1708.01
813.56	1615.85
813.73	1755.11
813.91	1576.94
814.08	1669.09
814.25	1675.24
814.42	1574.89
814.60	1724.39
814.77	1757.16
814.94	1699.81
815.12	1667.05
815.29	1759.21
815.46	1656.81
815.63	1740.77
815.81	1726.44
815.98	1685.48
816.15	1738.73
816.33	1738.73
816.50	1669.09
816.67	1673.19
816.84	1648.61
817.02	1624.04
817.19	1708.01
817.36	1736.68
817.53	1691.62
817.71	1722.34
817.88	1708.01
818.05	1685.48
818.22	1720.29
818.40	1802.21
818.57	1648.61
818.74	1755.11
818.91	1705.96
819.09	1783.78
819.26	1714.15
819.43	1720.29
819.60	1697.77
819.78	1775.59
819.95	1763.30
820.12	1656.81
820.29	1708.01
820.47	1798.12
820.64	1730.53
820.81	1701.86
820.98	1665.00
821.15	1689.57
821.33	1783.78
821.50	1669.09
821.67	1683.43
821.84	1677.29
822.02	1728.49
822.19	1753.06
822.36	1697.77
822.53	1785.83
822.70	1646.57
822.88	1648.61
823.05	1732.58
823.22	1722.34
823.39	1753.06
823.56	1689.57
823.74	1828.84
823.91	1656.81
824.08	1650.66
824.25	1675.24
824.42	1757.16
824.60	1615.85
824.77	1763.30
824.94	1695.72
825.11	1767.40
825.28	1705.96
825.45	1748.97
825.63	1671.14
825.80	1677.29
825.97	1781.73
826.14	1695.72
826.31	1648.61
826.48	1685.48
826.66	1609.70
826.83	1642.47
827.00	1736.68
827.17	1632.23
827.34	1673.19
827.51	1697.77
827.69	1626.09
827.86	1665.00
828.03	1748.97
828.20	1673.19
828.37	1695.72
828.54	1665.00
828.71	1679.33
828.89	1847.27
829.06	1705.96
829.23	1746.92
829.40	1710.05
829.57	1673.19
829.74	1679.33
829.91	1652.71
830.09	1605.61
830.26	1755.11
830.43	1705.96
830.60	1732.58
830.77	1789.92
830.94	1708.01
831.11	1771.49
831.28	1705.96
831.46	1753.06
831.63	1691.62
831.80	1783.78
831.97	1677.29
832.14	1660.90
832.31	1685.48
832.48	1671.14
832.65	1804.26
832.82	1624.04
832.99	1732.58
833.17	1636.33
833.34	1888.23
833.51	1791.97
833.68	1609.70
833.85	1771.49
834.02	1654.76
834.19	1650.66
834.36	1640.42
834.53	1708.01
834.70	1681.38
834.87	1714.15
835.04	1683.43
835.22	1589.22
835.39	1652.71
835.56	1611.75
835.73	1683.43
835.90	1705.96
836.07	1619.94
836.24	1755.11
836.41	1609.70
836.58	1755.11
836.75	1738.73
836.92	1714.15
837.09	1708.01
837.26	1810.40
837.43	1703.91
837.60	1705.96
837.77	1689.57
837.94	1779.68
838.12	1810.40
838.29	1652.71
838.46	1660.90
838.63	1642.47
838.80	1847.27
838.97	1701.86
839.14	1701.86
839.31	1726.44
839.48	1652.71
839.65	1669.09
839.82	1794.02
839.99	1746.92
840.16	1720.29
840.33	1716.20
840.50	1634.28
840.67	1615.85
840.84	1646.57
841.01	1677.29
841.18	1648.61
841.35	1755.11
841.52	1763.30
841.69	1771.49
841.86	1751.01
842.03	1642.47
842.20	1697.77
842.37	1689.57
842.54	1722.34
842.71	1685.48
842.88	1630.18
843.05	1705.96
843.22	1710.05
843.39	1691.62
843.56	1646.57
843.73	1648.61
843.90	1720.29
844.07	1705.96
844.24	1691.62
844.41	1728.49
844.58	1716.20
844.75	1662.95
844.92	1714.15
845.09	1673.19
845.26	1630.18
845.43	1748.97
845.60	1642.47
845.77	1800.16
845.94	1728.49
846.10	1724.39
846.27	1652.71
846.44	1566.70
846.61	1650.66
846.78	1693.67
846.95	1849.32
847.12	1624.04
847.29	1740.77
847.46	1617.90
847.63	1765.35
847.80	1636.33
847.97	1722.34
848.14	1882.08
848.31	1634.28
848.48	1654.76
848.65	1796.07
848.82	1685.48
848.98	1832.93
849.15	1689.57
849.32	1751.01
849.49	1710.05
849.66	1726.44
849.83	1718.25
850.00	1693.67
850.17	1714.15
850.34	1654.76
850.51	1660.90
850.68	1740.77
850.85	1800.16
851.01	1724.39
851.18	1783.78
851.35	1714.15
851.52	1732.58
851.69	1763.30
851.86	1597.42
852.03	1681.38
852.20	1767.40
852.37	1648.61
852.53	1673.19
852.70	1761.25
852.87	1703.91
853.04	1730.53
853.21	1650.66
853.38	1726.44
853.55	1748.97
853.72	1791.97
853.89	1685.48
854.05	1687.53
854.22	1693.67
854.39	1699.81
854.56	1791.97
854.73	1767.40
854.90	1669.09
855.07	1816.55
855.23	1615.85
855.40	1673.19
855.57	1626.09
855.74	1652.71
855.91	1859.56
856.08	1609.70
856.25	1656.81
856.41	1628.14
856.58	1689.57
856.75	1687.53
856.92	1617.90
857.09	1681.38
857.26	1570.79
857.42	1652.71
857.59	1824.74
857.76	1722.34
857.93	1757.16
858.10	1730.53
858.27	1671.14
858.43	1734.63
858.60	1621.99
858.77	1665.00
858.94	1695.72
859.11	1822.69
859.27	1654.76
859.44	1669.09
859.61	1822.69
859.78	1759.21
859.95	1673.19
860.12	1710.05
860.28	1837.03
860.45	1802.21
860.62	1714.15
860.79	1681.38
860.95	1673.19
861.12	1656.81
861.29	1669.09
861.46	1591.27
861.63	1646.57
861.79	1726.44
861.96	1650.66
862.13	1689.57
862.30	1755.11
862.47	1685.48
862.63	1652.71
862.80	1783.78
862.97	1779.68
863.14	1705.96
863.30	1746.92
863.47	1687.53
863.64	1796.07
863.81	1726.44
863.97	1665.00
864.14	1683.43
864.31	1708.01
864.48	1834.98
864.65	1693.67
864.81	1830.88
864.98	1718.25
865.15	1710.05
865.32	1738.73
865.48	1783.78
865.65	1800.16
865.82	1699.81
865.98	1683.43
866.15	1812.45
866.32	1718.25
866.49	1671.14
866.65	1767.40
866.82	1675.24
866.99	1689.57
867.16	1736.68
867.32	1693.67
867.49	1671.14
867.66	1701.86
867.83	1646.57
867.99	1607.66
868.16	1755.11
868.33	1638.38
868.49	1724.39
868.66	1722.34
868.83	1757.16
868.99	1640.42
869.16	1742.82
869.33	1810.40
869.50	1697.77
869.66	1697.77
869.83	1601.51
870.00	1621.99
870.16	1716.20
870.33	1654.76
870.50	1708.01
870.66	1662.95
870.83	1779.68
871.00	1751.01
871.17	1746.92
871.33	1785.83
871.50	1708.01
871.67	1640.42
871.83	1699.81
872.00	1783.78
872.17	1654.76
872.33	1818.60
872.50	1779.68
872.67	1728.49
872.83	1673.19
873.00	1681.38
873.17	1716.20
873.33	1738.73
873.50	1722.34
873.67	1662.95
873.83	1654.76
874.00	1714.15
874.16	1812.45
874.33	1732.58
874.50	1640.42
874.66	1673.19
874.83	1658.85
875.00	1742.82
875.16	1757.16
875.33	1779.68
875.50	1558.50
875.66	1619.94
875.83	1679.33
875.99	1701.86
876.16	1656.81
876.33	1621.99
876.49	1646.57
876.66	1796.07
876.83	1665.00
876.99	1587.18
877.16	1708.01
877.32	1740.77
877.49	1675.24
877.66	1748.97
877.82	1775.59
877.99	1724.39
878.15	1732.58
878.32	1710.05
878.49	1703.91
878.65	1665.00
878.82	1714.15
878.98	1687.53
879.15	1757.16
879.32	1783.78
879.48	1734.63
879.65	1761.25
879.81	1632.23
879.98	1703.91
880.15	1689.57
880.31	1708.01
880.48	1630.18
880.64	1783.78
880.81	1662.95
880.97	1763.30
881.14	1773.54
881.31	1630.18
881.47	1781.73
881.64	1724.39
881.80	1677.29
881.97	1734.63
882.13	1697.77
882.30	1624.04
882.47	1617.90
882.63	1626.09
882.80	1728.49
882.96	1714.15
883.13	1736.68
883.29	1746.92
883.46	1769.44
883.62	1812.45
883.79	1738.73
883.95	1777.64
884.12	1763.30
884.29	1724.39
884.45	1748.97
884.62	1763.30
884.78	1697.77
884.95	1796.07
885.11	1665.00
885.28	1679.33
885.44	1681.38
885.61	1714.15
885.77	1783.78
885.94	1687.53
886.10	1716.20
886.27	1669.09
886.43	1810.40
886.60	1765.35
886.76	1644.52
886.93	1665.00
887.09	1773.54
887.26	1603.56
887.42	1781.73
887.59	1732.58
887.75	1812.45
887.92	1808.36
888.08	1648.61
888.25	1779.68
888.41	1705.96
888.58	1681.38
888.74	1636.33
888.91	1640.42
>>>>>End Processed Spectral Data<<<<<
