SpectraSuite Data File
++++++++++++++++++++++++++++++++++++
Date: Mon Jun 06 15:58:17 CEST 2016
User: root
Dark Spectrum Present: No
Reference Spectrum Present: No
Number of Sampled Component Spectra: 1
Spectrometers: USB4C02835
Integration Time (usec): 100000 (USB4C02835)
Spectra Averaged: 1 (USB4C02835)
Boxcar Smoothing: 0 (USB4C02835)
Correct for Electrical Dark: No (USB4C02835)
Strobe/Lamp Enabled: No (USB4C02835)
Correct for Detector Non-linearity: No (USB4C02835)
Correct for Stray Light: No (USB4C02835)
Number of Pixels in Processed Spectrum: 3648
>>>>>Begin Processed Spectral Data<<<<<
177.47	1521.64
177.69	1521.64
177.91	1521.64
178.13	1431.53
178.36	1497.07
178.58	1642.47
178.80	1703.91
179.02	1656.81
179.24	1683.43
179.46	1712.10
179.68	1763.30
179.90	1652.71
180.13	1697.77
180.35	1640.42
180.57	1681.38
180.79	1765.35
181.01	1736.68
181.23	1769.44
181.45	1812.45
181.67	1724.39
181.90	1744.87
182.12	1685.48
182.34	1615.85
182.56	1757.16
182.78	1712.10
183.00	1691.62
183.22	1685.48
183.44	1644.52
183.66	1849.32
183.89	1812.45
184.11	1697.77
184.33	1769.44
184.55	1814.50
184.77	1716.20
184.99	1671.14
185.21	1640.42
185.43	1816.55
185.65	1681.38
185.87	1708.01
186.10	1742.82
186.32	1804.26
186.54	1687.53
186.76	1789.92
186.98	1751.01
187.20	1705.96
187.42	1624.04
187.64	1656.81
187.86	1683.43
188.08	1738.73
188.30	1705.96
188.52	1681.38
188.75	1779.68
188.97	1806.31
189.19	1681.38
189.41	1751.01
189.63	1722.34
189.85	1671.14
190.07	1679.33
190.29	1638.38
190.51	1722.34
190.73	1679.33
190.95	1794.02
191.17	1667.05
191.39	1662.95
191.61	1658.85
191.84	1677.29
192.06	1767.40
192.28	1644.52
192.50	1929.19
192.72	1734.63
192.94	1710.05
193.16	1777.64
193.38	1757.16
193.60	1648.61
193.82	1656.81
194.04	1763.30
194.26	1699.81
194.48	1726.44
194.70	1697.77
194.92	1681.38
195.14	1767.40
195.36	1720.29
195.58	1742.82
195.80	1765.35
196.02	1685.48
196.24	1687.53
196.46	1609.70
196.69	1734.63
196.91	1869.80
197.13	1757.16
197.35	1636.33
197.57	1785.83
197.79	1734.63
198.01	1714.15
198.23	1808.36
198.45	1669.09
198.67	1669.09
198.89	1654.76
199.11	1724.39
199.33	1660.90
199.55	1615.85
199.77	1722.34
199.99	1771.49
200.21	1769.44
200.43	1683.43
200.65	1693.67
200.87	1609.70
201.09	1683.43
201.31	1675.24
201.53	1718.25
201.75	1746.92
201.97	1667.05
202.19	1759.21
202.41	1714.15
202.63	1851.36
202.85	1804.26
203.07	1742.82
203.29	1669.09
203.51	1679.33
203.73	1683.43
203.95	1873.89
204.17	1701.86
204.39	1763.30
204.61	1681.38
204.83	1724.39
205.05	1785.83
205.27	1863.65
205.49	1863.65
205.71	1761.25
205.93	1665.00
206.15	1665.00
206.37	1683.43
206.59	1771.49
206.81	1648.61
207.03	1673.19
207.25	1662.95
207.47	1806.31
207.69	1675.24
207.91	1787.88
208.13	1730.53
208.34	1710.05
208.56	1648.61
208.78	1728.49
209.00	1652.71
209.22	1701.86
209.44	1701.86
209.66	1660.90
209.88	1703.91
210.10	1642.47
210.32	1677.29
210.54	1806.31
210.76	1783.78
210.98	1703.91
211.20	1566.70
211.42	1718.25
211.64	1849.32
211.86	1677.29
212.08	1812.45
212.30	1794.02
212.52	1650.66
212.74	1728.49
212.96	1689.57
213.17	1804.26
213.39	1808.36
213.61	1751.01
213.83	1755.11
214.05	1624.04
214.27	1738.73
214.49	1716.20
214.71	1677.29
214.93	1751.01
215.15	1798.12
215.37	1746.92
215.59	1656.81
215.81	1736.68
216.03	1744.87
216.24	1791.97
216.46	1742.82
216.68	1689.57
216.90	1714.15
217.12	1796.07
217.34	1716.20
217.56	1730.53
217.78	1763.30
218.00	1755.11
218.22	1767.40
218.44	1701.86
218.66	1753.06
218.87	1828.84
219.09	1689.57
219.31	1722.34
219.53	1705.96
219.75	1644.52
219.97	1691.62
220.19	1673.19
220.41	1716.20
220.63	1828.84
220.85	1736.68
221.06	1671.14
221.28	1820.64
221.50	1783.78
221.72	1681.38
221.94	1710.05
222.16	1728.49
222.38	1820.64
222.60	1744.87
222.82	1675.24
223.03	1689.57
223.25	1656.81
223.47	1769.44
223.69	1847.27
223.91	1726.44
224.13	1677.29
224.35	1691.62
224.57	1710.05
224.78	1726.44
225.00	1615.85
225.22	1665.00
225.44	1742.82
225.66	1701.86
225.88	1722.34
226.10	1761.25
226.32	1746.92
226.53	1818.60
226.75	1736.68
226.97	1763.30
227.19	1665.00
227.41	1677.29
227.63	1736.68
227.85	1646.57
228.06	1648.61
228.28	1751.01
228.50	1728.49
228.72	1689.57
228.94	1703.91
229.16	1640.42
229.37	1679.33
229.59	1675.24
229.81	1806.31
230.03	1718.25
230.25	1626.09
230.47	1609.70
230.69	1609.70
230.90	1703.91
231.12	1656.81
231.34	1714.15
231.56	1783.78
231.78	1671.14
232.00	1703.91
232.21	1695.72
232.43	1740.77
232.65	1568.74
232.87	1767.40
233.09	1560.55
233.30	1732.58
233.52	1720.29
233.74	1718.25
233.96	1624.04
234.18	1767.40
234.40	1710.05
234.61	1861.60
234.83	1654.76
235.05	1710.05
235.27	1796.07
235.49	1769.44
235.70	1689.57
235.92	1781.73
236.14	1724.39
236.36	1853.41
236.58	1716.20
236.79	1724.39
237.01	1697.77
237.23	1744.87
237.45	1861.60
237.67	1662.95
237.88	1751.01
238.10	1837.03
238.32	1667.05
238.54	1667.05
238.76	1683.43
238.97	1689.57
239.19	1679.33
239.41	1751.01
239.63	1787.88
239.85	1660.90
240.06	1761.25
240.28	1718.25
240.50	1746.92
240.72	1648.61
240.93	1650.66
241.15	1822.69
241.37	1691.62
241.59	1867.75
241.81	1658.85
242.02	1648.61
242.24	1744.87
242.46	1751.01
242.68	1673.19
242.89	1748.97
243.11	1783.78
243.33	1697.77
243.55	1730.53
243.76	1777.64
243.98	1671.14
244.20	1665.00
244.42	1718.25
244.64	1718.25
244.85	1667.05
245.07	1710.05
245.29	1746.92
245.51	1714.15
245.72	1675.24
245.94	1724.39
246.16	1710.05
246.38	1685.48
246.59	1742.82
246.81	1728.49
247.03	1689.57
247.24	1640.42
247.46	1609.70
247.68	1773.54
247.90	1699.81
248.11	1695.72
248.33	1726.44
248.55	1714.15
248.77	1742.82
248.98	1744.87
249.20	1781.73
249.42	1761.25
249.64	1675.24
249.85	1636.33
250.07	1785.83
250.29	1740.77
250.50	1722.34
250.72	1624.04
250.94	1748.97
251.16	1787.88
251.37	1726.44
251.59	1730.53
251.81	1769.44
252.02	1820.64
252.24	1615.85
252.46	1808.36
252.68	1636.33
252.89	1644.52
253.11	1669.09
253.33	1787.88
253.54	1820.64
253.76	1576.94
253.98	1679.33
254.20	1671.14
254.41	1665.00
254.63	1718.25
254.85	1683.43
255.06	1736.68
255.28	1701.86
255.50	1763.30
255.71	1728.49
255.93	1673.19
256.15	1660.90
256.36	1736.68
256.58	1722.34
256.80	1734.63
257.02	1673.19
257.23	1722.34
257.45	1685.48
257.67	1812.45
257.88	1669.09
258.10	1665.00
258.32	1699.81
258.53	1755.11
258.75	1767.40
258.97	1751.01
259.18	1796.07
259.40	1728.49
259.62	1818.60
259.83	1763.30
260.05	1751.01
260.27	1988.58
260.48	1783.78
260.70	1667.05
260.92	1677.29
261.13	1722.34
261.35	1740.77
261.57	1765.35
261.78	1667.05
262.00	1718.25
262.22	1783.78
262.43	1722.34
262.65	1640.42
262.86	1705.96
263.08	1773.54
263.30	1736.68
263.51	1634.28
263.73	1654.76
263.95	1748.97
264.16	1628.14
264.38	1634.28
264.60	1791.97
264.81	1699.81
265.03	1722.34
265.25	1830.88
265.46	1679.33
265.68	1753.06
265.89	1757.16
266.11	1640.42
266.33	1677.29
266.54	1759.21
266.76	1726.44
266.98	1714.15
267.19	1728.49
267.41	1787.88
267.62	1785.83
267.84	1669.09
268.06	1718.25
268.27	1669.09
268.49	1744.87
268.70	1791.97
268.92	1687.53
269.14	1638.38
269.35	1564.65
269.57	1730.53
269.79	1765.35
270.00	1650.66
270.22	1841.12
270.43	1703.91
270.65	1599.46
270.87	1769.44
271.08	1779.68
271.30	1796.07
271.51	1742.82
271.73	1687.53
271.95	1732.58
272.16	1687.53
272.38	1740.77
272.59	1695.72
272.81	1746.92
273.02	1677.29
273.24	1638.38
273.46	1759.21
273.67	1689.57
273.89	1669.09
274.10	1667.05
274.32	1771.49
274.54	1648.61
274.75	1710.05
274.97	1683.43
275.18	1722.34
275.40	1728.49
275.61	1693.67
275.83	1708.01
276.05	1638.38
276.26	1679.33
276.48	1767.40
276.69	1716.20
276.91	1732.58
277.12	1791.97
277.34	1775.59
277.55	1730.53
277.77	1734.63
277.99	1759.21
278.20	1673.19
278.42	1636.33
278.63	1654.76
278.85	1703.91
279.06	1619.94
279.28	1736.68
279.49	1789.92
279.71	1794.02
279.93	1791.97
280.14	1722.34
280.36	1656.81
280.57	1798.12
280.79	1726.44
281.00	1667.05
281.22	1712.10
281.43	1810.40
281.65	1646.57
281.86	1662.95
282.08	1705.96
282.29	1882.08
282.51	1689.57
282.73	1679.33
282.94	1646.57
283.16	1736.68
283.37	1851.36
283.59	1642.47
283.80	1767.40
284.02	1656.81
284.23	1728.49
284.45	1705.96
284.66	1679.33
284.88	1705.96
285.09	1742.82
285.31	1746.92
285.52	1708.01
285.74	1656.81
285.95	1767.40
286.17	1724.39
286.38	1730.53
286.60	1693.67
286.81	1695.72
287.03	1679.33
287.24	1675.24
287.46	1617.90
287.67	1728.49
287.89	1839.08
288.10	1726.44
288.32	1779.68
288.53	1757.16
288.75	1781.73
288.96	1730.53
289.18	1740.77
289.39	1722.34
289.61	1826.79
289.82	1908.71
290.04	1779.68
290.25	1650.66
290.47	1708.01
290.68	1697.77
290.90	1845.22
291.11	1665.00
291.33	1710.05
291.54	1689.57
291.76	1683.43
291.97	1734.63
292.18	1720.29
292.40	1673.19
292.61	1708.01
292.83	1851.36
293.04	1746.92
293.26	1771.49
293.47	1705.96
293.69	1691.62
293.90	1710.05
294.12	1769.44
294.33	1722.34
294.55	1660.90
294.76	1736.68
294.97	1804.26
295.19	1828.84
295.40	1701.86
295.62	1738.73
295.83	1726.44
296.05	1705.96
296.26	1714.15
296.48	1673.19
296.69	1644.52
296.90	1662.95
297.12	1718.25
297.33	1736.68
297.55	1673.19
297.76	1677.29
297.98	1785.83
298.19	1695.72
298.41	1679.33
298.62	1697.77
298.83	1853.41
299.05	1773.54
299.26	1630.18
299.48	1667.05
299.69	1742.82
299.90	1714.15
300.12	1648.61
300.33	1662.95
300.55	1712.10
300.76	1683.43
300.98	1673.19
301.19	1662.95
301.40	1744.87
301.62	1656.81
301.83	1755.11
302.05	1730.53
302.26	1722.34
302.47	1689.57
302.69	1757.16
302.90	1755.11
303.12	1546.22
303.33	1816.55
303.54	1796.07
303.76	1748.97
303.97	1775.59
304.19	1800.16
304.40	1570.79
304.61	1748.97
304.83	1810.40
305.04	1775.59
305.26	1732.58
305.47	1722.34
305.68	1689.57
305.90	1640.42
306.11	1730.53
306.33	1669.09
306.54	1662.95
306.75	1708.01
306.97	1587.18
307.18	1619.94
307.39	1746.92
307.61	1701.86
307.82	1757.16
308.04	1755.11
308.25	1712.10
308.46	1761.25
308.68	1708.01
308.89	1763.30
309.10	1767.40
309.32	1708.01
309.53	1748.97
309.74	1869.80
309.96	1720.29
310.17	1734.63
310.39	1675.24
310.60	1722.34
310.81	1734.63
311.03	1697.77
311.24	1767.40
311.45	1667.05
311.67	1796.07
311.88	1769.44
312.09	1710.05
312.31	1689.57
312.52	1646.57
312.73	1652.71
312.95	1658.85
313.16	1669.09
313.37	1818.60
313.59	1685.48
313.80	1791.97
314.01	1777.64
314.23	1714.15
314.44	1730.53
314.65	1628.14
314.87	1669.09
315.08	1697.77
315.29	1689.57
315.51	1617.90
315.72	1624.04
315.93	1800.16
316.15	1822.69
316.36	1714.15
316.57	1710.05
316.79	1794.02
317.00	1685.48
317.21	1710.05
317.43	1638.38
317.64	1683.43
317.85	1740.77
318.07	1693.67
318.28	1728.49
318.49	1726.44
318.70	1964.00
318.92	1789.92
319.13	1894.37
319.34	1882.08
319.56	1816.55
319.77	1859.56
319.98	1767.40
320.20	1812.45
320.41	1716.20
320.62	1779.68
320.83	1726.44
321.05	1890.28
321.26	1722.34
321.47	1695.72
321.69	1839.08
321.90	1699.81
322.11	1753.06
322.32	1761.25
322.54	1779.68
322.75	1689.57
322.96	1865.70
323.18	1718.25
323.39	1658.85
323.60	1679.33
323.81	1818.60
324.03	1693.67
324.24	1691.62
324.45	1654.76
324.66	1689.57
324.88	1808.36
325.09	1746.92
325.30	1677.29
325.52	1798.12
325.73	1673.19
325.94	1687.53
326.15	1685.48
326.37	1650.66
326.58	1781.73
326.79	1781.73
327.00	1662.95
327.22	1697.77
327.43	1679.33
327.64	1697.77
327.85	1812.45
328.07	1675.24
328.28	1865.70
328.49	1681.38
328.70	1673.19
328.92	1685.48
329.13	1699.81
329.34	1722.34
329.55	1779.68
329.76	1761.25
329.98	1669.09
330.19	1806.31
330.40	1720.29
330.61	1669.09
330.83	1757.16
331.04	1693.67
331.25	1753.06
331.46	1677.29
331.68	1642.47
331.89	1781.73
332.10	1687.53
332.31	1695.72
332.52	1718.25
332.74	1667.05
332.95	1662.95
333.16	1665.00
333.37	1746.92
333.58	1656.81
333.80	1722.34
334.01	1611.75
334.22	1673.19
334.43	1738.73
334.64	1658.85
334.86	1685.48
335.07	1693.67
335.28	1800.16
335.49	1603.56
335.70	1695.72
335.92	1714.15
336.13	1837.03
336.34	1728.49
336.55	1746.92
336.76	1675.24
336.98	1640.42
337.19	1681.38
337.40	1794.02
337.61	1863.65
337.82	1617.90
338.04	1779.68
338.25	1642.47
338.46	1630.18
338.67	1626.09
338.88	1660.90
339.09	1710.05
339.31	1689.57
339.52	1687.53
339.73	1644.52
339.94	1744.87
340.15	1726.44
340.36	1746.92
340.58	1699.81
340.79	1658.85
341.00	1767.40
341.21	1552.36
341.42	1812.45
341.63	1675.24
341.85	1753.06
342.06	1681.38
342.27	1611.75
342.48	1828.84
342.69	1681.38
342.90	1751.01
343.12	1794.02
343.33	1640.42
343.54	1806.31
343.75	1699.81
343.96	1740.77
344.17	1662.95
344.38	1742.82
344.60	1626.09
344.81	1650.66
345.02	1656.81
345.23	1734.63
345.44	1820.64
345.65	1726.44
345.86	1779.68
346.07	1701.86
346.29	1642.47
346.50	1748.97
346.71	1708.01
346.92	1785.83
347.13	1865.70
347.34	1787.88
347.55	1669.09
347.76	1802.21
347.98	1611.75
348.19	1644.52
348.40	1812.45
348.61	1701.86
348.82	1830.88
349.03	1712.10
349.24	1742.82
349.45	1804.26
349.66	1572.84
349.88	1714.15
350.09	1693.67
350.30	1787.88
350.51	1759.21
350.72	1757.16
350.93	1746.92
351.14	1716.20
351.35	1777.64
351.56	1671.14
351.77	1665.00
351.99	1695.72
352.20	1830.88
352.41	1751.01
352.62	1542.12
352.83	1644.52
353.04	1757.16
353.25	1665.00
353.46	1732.58
353.67	1798.12
353.88	1599.46
354.09	1767.40
354.30	1746.92
354.52	1783.78
354.73	1710.05
354.94	1669.09
355.15	1746.92
355.36	1845.22
355.57	1701.86
355.78	1673.19
355.99	1605.61
356.20	1699.81
356.41	1765.35
356.62	1744.87
356.83	1703.91
357.04	1746.92
357.25	1665.00
357.46	1720.29
357.68	1673.19
357.89	1642.47
358.10	1667.05
358.31	1675.24
358.52	1673.19
358.73	1619.94
358.94	1667.05
359.15	1714.15
359.36	1824.74
359.57	1740.77
359.78	1699.81
359.99	1746.92
360.20	1667.05
360.41	1611.75
360.62	1787.88
360.83	1734.63
361.04	1783.78
361.25	1710.05
361.46	1847.27
361.67	1687.53
361.88	1804.26
362.09	1767.40
362.30	1785.83
362.51	1724.39
362.72	1763.30
362.93	1742.82
363.14	1810.40
363.35	1675.24
363.56	1705.96
363.78	1742.82
363.99	1738.73
364.20	1726.44
364.41	1693.67
364.62	1832.93
364.83	1714.15
365.04	1636.33
365.25	1652.71
365.46	1837.03
365.67	1691.62
365.88	1669.09
366.09	1751.01
366.30	1611.75
366.51	1683.43
366.72	1748.97
366.93	1675.24
367.14	1759.21
367.35	1697.77
367.56	1734.63
367.77	1773.54
367.98	1736.68
368.18	1773.54
368.39	1693.67
368.60	1665.00
368.81	1632.23
369.02	1755.11
369.23	1710.05
369.44	1665.00
369.65	1730.53
369.86	1722.34
370.07	1773.54
370.28	1660.90
370.49	1779.68
370.70	1773.54
370.91	1615.85
371.12	1681.38
371.33	1742.82
371.54	1697.77
371.75	1830.88
371.96	1601.51
372.17	1736.68
372.38	1802.21
372.59	1767.40
372.80	1640.42
373.01	1665.00
373.22	1710.05
373.43	1714.15
373.64	1605.61
373.85	1744.87
374.06	1796.07
374.26	1802.21
374.47	1718.25
374.68	1816.55
374.89	1712.10
375.10	1675.24
375.31	1693.67
375.52	1699.81
375.73	1675.24
375.94	1712.10
376.15	1808.36
376.36	1693.67
376.57	1658.85
376.78	1656.81
376.99	1685.48
377.20	1732.58
377.40	1695.72
377.61	1847.27
377.82	1757.16
378.03	1832.93
378.24	1746.92
378.45	1753.06
378.66	1718.25
378.87	1613.80
379.08	1619.94
379.29	1671.14
379.50	1816.55
379.71	1648.61
379.91	1734.63
380.12	1656.81
380.33	1746.92
380.54	1779.68
380.75	1714.15
380.96	1681.38
381.17	1845.22
381.38	1732.58
381.59	1777.64
381.80	1710.05
382.00	1853.41
382.21	1839.08
382.42	1814.50
382.63	1841.12
382.84	1783.78
383.05	1785.83
383.26	1855.46
383.47	1701.86
383.68	1705.96
383.88	1710.05
384.09	1722.34
384.30	1802.21
384.51	1761.25
384.72	1738.73
384.93	1642.47
385.14	1734.63
385.35	1773.54
385.55	1685.48
385.76	1812.45
385.97	1671.14
386.18	1642.47
386.39	1701.86
386.60	1619.94
386.81	1691.62
387.02	1658.85
387.22	1703.91
387.43	1789.92
387.64	1800.16
387.85	1853.41
388.06	2101.22
388.27	4210.62
388.48	6688.67
388.68	8138.63
388.89	9564.01
389.10	9643.88
389.31	8464.25
389.52	7600.01
389.73	6678.43
389.93	6172.58
390.14	5877.67
390.35	5130.16
390.56	4573.11
390.77	3807.17
390.98	2987.99
391.18	2519.00
391.39	2095.07
391.60	1794.02
391.81	1927.14
392.02	1755.11
392.23	1822.69
392.43	1765.35
392.64	1812.45
392.85	1755.11
393.06	1820.64
393.27	1673.19
393.47	1673.19
393.68	1677.29
393.89	1609.70
394.10	1779.68
394.31	1662.95
394.52	1765.35
394.72	1689.57
394.93	1751.01
395.14	1693.67
395.35	1673.19
395.56	1732.58
395.76	1771.49
395.97	1855.46
396.18	1880.04
396.39	1865.70
396.60	2025.44
396.80	1892.32
397.01	1845.22
397.22	1804.26
397.43	1794.02
397.64	1685.48
397.84	1791.97
398.05	1863.65
398.26	1716.20
398.47	1789.92
398.67	1794.02
398.88	1742.82
399.09	1738.73
399.30	1742.82
399.51	1767.40
399.71	1679.33
399.92	1753.06
400.13	1738.73
400.34	1652.71
400.54	1681.38
400.75	1820.64
400.96	1738.73
401.17	1783.78
401.37	1740.77
401.58	1757.16
401.79	1769.44
402.00	1902.56
402.21	2047.97
402.41	1886.18
402.62	1978.34
402.83	1986.53
403.04	1994.72
403.24	2086.88
403.45	1834.98
403.66	1886.18
403.87	1853.41
404.07	1814.50
404.28	1902.56
404.49	1853.41
404.70	1820.64
404.90	1798.12
405.11	1791.97
405.32	1736.68
405.52	1765.35
405.73	1656.81
405.94	1730.53
406.15	1662.95
406.35	1771.49
406.56	1787.88
406.77	1648.61
406.98	1779.68
407.18	1701.86
407.39	1886.18
407.60	1716.20
407.80	1759.21
408.01	1705.96
408.22	1724.39
408.43	1607.66
408.63	1800.16
408.84	1718.25
409.05	1798.12
409.25	1687.53
409.46	1632.23
409.67	1648.61
409.88	1759.21
410.08	1634.28
410.29	1720.29
410.50	1767.40
410.70	1777.64
410.91	1673.19
411.12	1697.77
411.32	1724.39
411.53	1744.87
411.74	1824.74
411.95	1802.21
412.15	1710.05
412.36	1822.69
412.57	1708.01
412.77	1855.46
412.98	1773.54
413.19	1761.25
413.39	1781.73
413.60	1734.63
413.81	1828.84
414.01	1636.33
414.22	1779.68
414.43	1730.53
414.63	1763.30
414.84	1796.07
415.05	1708.01
415.25	1632.23
415.46	1886.18
415.67	1722.34
415.87	1738.73
416.08	1730.53
416.29	1736.68
416.49	1918.95
416.70	1722.34
416.91	1583.08
417.11	1722.34
417.32	1808.36
417.53	1761.25
417.73	1691.62
417.94	1630.18
418.15	1814.50
418.35	1722.34
418.56	1757.16
418.77	1839.08
418.97	1689.57
419.18	1673.19
419.38	1679.33
419.59	1736.68
419.80	1779.68
420.00	1751.01
420.21	1712.10
420.42	1818.60
420.62	1710.05
420.83	1724.39
421.04	1716.20
421.24	1687.53
421.45	1781.73
421.65	1753.06
421.86	1632.23
422.07	1765.35
422.27	1656.81
422.48	1693.67
422.69	1675.24
422.89	1716.20
423.10	1683.43
423.30	1671.14
423.51	1726.44
423.72	1656.81
423.92	1726.44
424.13	1669.09
424.33	1714.15
424.54	1798.12
424.75	1677.29
424.95	1794.02
425.16	1802.21
425.36	1685.48
425.57	1761.25
425.78	1751.01
425.98	1812.45
426.19	1673.19
426.39	1689.57
426.60	1751.01
426.81	1808.36
427.01	1705.96
427.22	1736.68
427.42	1654.76
427.63	1599.46
427.83	1798.12
428.04	1740.77
428.25	1798.12
428.45	1812.45
428.66	1761.25
428.86	1738.73
429.07	1642.47
429.28	1796.07
429.48	1722.34
429.69	1728.49
429.89	1662.95
430.10	1693.67
430.30	1826.79
430.51	1828.84
430.71	1658.85
430.92	1681.38
431.13	1685.48
431.33	1726.44
431.54	1775.59
431.74	1814.50
431.95	1832.93
432.15	1689.57
432.36	1785.83
432.56	1841.12
432.77	1892.32
432.98	1880.04
433.18	1730.53
433.39	1785.83
433.59	1646.57
433.80	1787.88
434.00	1869.80
434.21	1699.81
434.41	1744.87
434.62	1873.89
434.82	1675.24
435.03	1671.14
435.23	1738.73
435.44	1617.90
435.64	1761.25
435.85	1753.06
436.06	1724.39
436.26	1703.91
436.47	1742.82
436.67	1656.81
436.88	1746.92
437.08	1763.30
437.29	1775.59
437.49	1767.40
437.70	1751.01
437.90	1724.39
438.11	1912.80
438.31	1699.81
438.52	1877.99
438.72	1816.55
438.93	1875.94
439.13	1763.30
439.34	1822.69
439.54	1740.77
439.75	1771.49
439.95	1820.64
440.16	1753.06
440.36	1775.59
440.57	1830.88
440.77	1744.87
440.98	1746.92
441.18	1685.48
441.39	1753.06
441.59	1624.04
441.80	1925.09
442.00	1751.01
442.21	1845.22
442.41	1679.33
442.62	1779.68
442.82	1675.24
443.02	1630.18
443.23	1781.73
443.43	1710.05
443.64	1906.66
443.84	1699.81
444.05	1755.11
444.25	1693.67
444.46	1714.15
444.66	1798.12
444.87	1755.11
445.07	1615.85
445.28	1716.20
445.48	1861.60
445.69	1802.21
445.89	1849.32
446.09	1802.21
446.30	1949.67
446.50	2586.58
446.71	3659.72
446.91	4239.30
447.12	4749.24
447.32	4820.92
447.53	4237.25
447.73	3753.93
447.93	3526.60
448.14	3270.61
448.34	3182.54
448.55	2926.55
448.75	2904.02
448.96	2705.37
449.16	2465.75
449.36	2359.26
449.57	2099.17
449.77	1865.70
449.98	1691.62
450.18	1931.23
450.39	1796.07
450.59	1751.01
450.79	1708.01
451.00	1753.06
451.20	1806.31
451.41	1705.96
451.61	1781.73
451.81	1783.78
452.02	1763.30
452.22	1705.96
452.43	1794.02
452.63	1710.05
452.84	1667.05
453.04	1742.82
453.24	1763.30
453.45	1757.16
453.65	1757.16
453.86	1703.91
454.06	1710.05
454.26	1728.49
454.47	1699.81
454.67	1834.98
454.87	1810.40
455.08	1722.34
455.28	1824.74
455.49	1751.01
455.69	1644.52
455.89	1898.47
456.10	1853.41
456.30	1765.35
456.51	1761.25
456.71	1789.92
456.91	1765.35
457.12	1791.97
457.32	1781.73
457.52	1683.43
457.73	1861.60
457.93	1867.75
458.14	1783.78
458.34	1638.38
458.54	1751.01
458.75	1736.68
458.95	1775.59
459.15	1714.15
459.36	1759.21
459.56	1789.92
459.76	1837.03
459.97	1751.01
460.17	1726.44
460.37	1779.68
460.58	1720.29
460.78	1781.73
460.99	1722.34
461.19	1748.97
461.39	1716.20
461.60	1746.92
461.80	1746.92
462.00	1669.09
462.21	1740.77
462.41	1695.72
462.61	1607.66
462.82	1656.81
463.02	1738.73
463.22	1798.12
463.43	1814.50
463.63	1800.16
463.83	1816.55
464.04	1730.53
464.24	1757.16
464.44	1726.44
464.64	1753.06
464.85	1875.94
465.05	1775.59
465.25	1763.30
465.46	1742.82
465.66	1787.88
465.86	1808.36
466.07	1800.16
466.27	1730.53
466.47	1687.53
466.68	1708.01
466.88	1806.31
467.08	1738.73
467.29	1816.55
467.49	1802.21
467.69	1705.96
467.89	1753.06
468.10	1757.16
468.30	1853.41
468.50	1812.45
468.71	1773.54
468.91	1681.38
469.11	1861.60
469.31	1675.24
469.52	1675.24
469.72	1865.70
469.92	1828.84
470.13	1658.85
470.33	1742.82
470.53	1837.03
470.73	2058.21
470.94	2328.54
471.14	2316.25
471.34	2516.95
471.54	2279.39
471.75	2201.57
471.95	2160.61
472.15	2045.92
472.36	2068.45
472.56	2029.54
472.76	2045.92
472.96	2084.83
473.17	1953.76
473.37	1867.75
473.57	1824.74
473.77	1808.36
473.98	1791.97
474.18	1697.77
474.38	1912.80
474.58	1744.87
474.79	1691.62
474.99	1785.83
475.19	1810.40
475.39	1673.19
475.60	1742.82
475.80	1730.53
476.00	1810.40
476.20	1693.67
476.41	1828.84
476.61	1855.46
476.81	1773.54
477.01	1703.91
477.21	1855.46
477.42	1769.44
477.62	1658.85
477.82	1839.08
478.02	1646.57
478.23	1728.49
478.43	1705.96
478.63	1701.86
478.83	1646.57
479.03	1662.95
479.24	1710.05
479.44	1865.70
479.64	1734.63
479.84	1726.44
480.04	1722.34
480.25	1763.30
480.45	1656.81
480.65	1679.33
480.85	1816.55
481.06	1679.33
481.26	1679.33
481.46	1695.72
481.66	1720.29
481.86	1652.71
482.06	1861.60
482.27	1693.67
482.47	1705.96
482.67	1701.86
482.87	1820.64
483.07	1781.73
483.28	1683.43
483.48	1730.53
483.68	1765.35
483.88	1714.15
484.08	1603.56
484.29	1634.28
484.49	1689.57
484.69	1710.05
484.89	1783.78
485.09	1769.44
485.29	1779.68
485.50	1775.59
485.70	1699.81
485.90	1796.07
486.10	1748.97
486.30	1787.88
486.50	1759.21
486.71	1761.25
486.91	1763.30
487.11	1748.97
487.31	1726.44
487.51	1767.40
487.71	1753.06
487.91	1554.41
488.12	1636.33
488.32	1611.75
488.52	1740.77
488.72	1675.24
488.92	1763.30
489.12	1880.04
489.32	1824.74
489.53	1791.97
489.73	1699.81
489.93	1865.70
490.13	1613.80
490.33	1632.23
490.53	1656.81
490.73	1894.37
490.94	1640.42
491.14	1832.93
491.34	1847.27
491.54	2119.65
491.74	2557.91
491.94	2998.23
492.14	2953.17
492.34	2908.12
492.54	2721.75
492.75	2527.19
492.95	2488.28
493.15	2363.36
493.35	2293.72
493.55	2224.09
493.75	2093.02
493.95	2097.12
494.15	2039.78
494.35	1853.41
494.56	1861.60
494.76	1826.79
494.96	1818.60
495.16	1785.83
495.36	1699.81
495.56	1777.64
495.76	1681.38
495.96	1742.82
496.16	1679.33
496.36	1865.70
496.56	1726.44
496.77	1656.81
496.97	1791.97
497.17	1857.51
497.37	1687.53
497.57	1738.73
497.77	1734.63
497.97	1693.67
498.17	1775.59
498.37	1757.16
498.57	1773.54
498.77	1677.29
498.97	1779.68
499.17	1857.51
499.38	1734.63
499.58	1806.31
499.78	1802.21
499.98	1830.88
500.18	1771.49
500.38	1677.29
500.58	1974.24
500.78	2557.91
500.98	4435.90
501.18	5818.28
501.38	6770.58
501.58	7221.14
501.78	6655.90
501.98	5615.53
502.18	4937.65
502.38	4390.84
502.58	4069.31
502.78	3844.04
502.98	3659.72
503.18	3465.16
503.38	3080.14
503.59	2873.30
503.79	2676.70
503.99	2475.99
504.19	2289.63
504.39	2228.19
504.59	2146.27
504.79	2125.79
504.99	2027.49
505.19	1863.65
505.39	1894.37
505.59	1959.91
505.79	1968.10
505.99	1816.55
506.19	1794.02
506.39	1902.56
506.59	1796.07
506.79	1742.82
506.99	1765.35
507.19	1718.25
507.39	1722.34
507.59	1679.33
507.79	1630.18
507.99	1732.58
508.19	1800.16
508.39	1740.77
508.59	1738.73
508.79	1771.49
508.99	1824.74
509.19	1685.48
509.39	1742.82
509.59	1738.73
509.79	1697.77
509.99	1769.44
510.19	1843.17
510.39	1783.78
510.59	1738.73
510.79	1759.21
510.99	1615.85
511.19	1677.29
511.39	1839.08
511.59	1787.88
511.79	1841.12
511.99	1847.27
512.19	1781.73
512.38	1787.88
512.58	1687.53
512.78	1773.54
512.98	1877.99
513.18	1916.90
513.38	1748.97
513.58	1804.26
513.78	1753.06
513.98	1779.68
514.18	1720.29
514.38	1777.64
514.58	1751.01
514.78	1640.42
514.98	1722.34
515.18	1763.30
515.38	1683.43
515.58	1812.45
515.78	1755.11
515.98	1685.48
516.18	1736.68
516.38	1759.21
516.57	1757.16
516.77	1685.48
516.97	1689.57
517.17	1800.16
517.37	1695.72
517.57	1841.12
517.77	1728.49
517.97	1652.71
518.17	1728.49
518.37	1701.86
518.57	1724.39
518.77	1683.43
518.97	1689.57
519.16	1748.97
519.36	1888.23
519.56	1738.73
519.76	1753.06
519.96	1728.49
520.16	1796.07
520.36	1730.53
520.56	1742.82
520.76	1695.72
520.96	1810.40
521.16	1787.88
521.35	1826.79
521.55	1841.12
521.75	1802.21
521.95	1703.91
522.15	1710.05
522.35	1681.38
522.55	1697.77
522.75	1820.64
522.95	1728.49
523.14	1763.30
523.34	1791.97
523.54	1689.57
523.74	1804.26
523.94	1742.82
524.14	1634.28
524.34	1789.92
524.54	1804.26
524.73	1691.62
524.93	1767.40
525.13	1720.29
525.33	1646.57
525.53	1906.66
525.73	1861.60
525.93	1730.53
526.13	1673.19
526.32	1726.44
526.52	1757.16
526.72	1830.88
526.92	1738.73
527.12	1714.15
527.32	1658.85
527.52	1753.06
527.71	1759.21
527.91	1728.49
528.11	1714.15
528.31	1720.29
528.51	1761.25
528.71	1773.54
528.90	1806.31
529.10	1798.12
529.30	1814.50
529.50	1667.05
529.70	1763.30
529.90	1765.35
530.09	1796.07
530.29	1697.77
530.49	1714.15
530.69	1816.55
530.89	1751.01
531.09	1740.77
531.28	1710.05
531.48	1812.45
531.68	1730.53
531.88	1791.97
532.08	1773.54
532.28	1677.29
532.47	1814.50
532.67	1794.02
532.87	1812.45
533.07	1765.35
533.27	1810.40
533.46	1855.46
533.66	1783.78
533.86	1791.97
534.06	1703.91
534.26	1691.62
534.45	1683.43
534.65	1781.73
534.85	1753.06
535.05	1634.28
535.25	1814.50
535.44	1658.85
535.64	1834.98
535.84	1681.38
536.04	1679.33
536.24	1767.40
536.43	1761.25
536.63	1763.30
536.83	1726.44
537.03	1748.97
537.22	1644.52
537.42	1658.85
537.62	1720.29
537.82	1665.00
538.02	1806.31
538.21	1818.60
538.41	1880.04
538.61	1763.30
538.81	1708.01
539.00	1773.54
539.20	1654.76
539.40	1722.34
539.60	1746.92
539.79	1832.93
539.99	1671.14
540.19	1742.82
540.39	1751.01
540.58	1769.44
540.78	1744.87
540.98	1796.07
541.18	1781.73
541.37	1767.40
541.57	1771.49
541.77	1708.01
541.97	1712.10
542.16	1675.24
542.36	1740.77
542.56	1718.25
542.76	1787.88
542.95	1767.40
543.15	1781.73
543.35	1785.83
543.54	1679.33
543.74	1728.49
543.94	1826.79
544.14	1656.81
544.33	1722.34
544.53	1703.91
544.73	1734.63
544.93	1740.77
545.12	1744.87
545.32	1683.43
545.52	1660.90
545.71	1726.44
545.91	1695.72
546.11	1763.30
546.30	1687.53
546.50	1751.01
546.70	1746.92
546.90	1832.93
547.09	1648.61
547.29	1673.19
547.49	1751.01
547.68	1714.15
547.88	1705.96
548.08	1740.77
548.27	2254.81
548.47	1683.43
548.67	1671.14
548.87	1787.88
549.06	1785.83
549.26	1763.30
549.46	1755.11
549.65	1716.20
549.85	1769.44
550.05	1667.05
550.24	1681.38
550.44	1808.36
550.64	1742.82
550.83	1740.77
551.03	1812.45
551.23	1779.68
551.42	1806.31
551.62	1695.72
551.82	1791.97
552.01	1761.25
552.21	1882.08
552.41	1812.45
552.60	1779.68
552.80	1685.48
553.00	1736.68
553.19	1798.12
553.39	1861.60
553.59	1714.15
553.78	1716.20
553.98	1753.06
554.17	1712.10
554.37	1787.88
554.57	1714.15
554.76	1710.05
554.96	1660.90
555.16	1734.63
555.35	1769.44
555.55	1806.31
555.75	1765.35
555.94	1839.08
556.14	1687.53
556.33	1718.25
556.53	1783.78
556.73	1736.68
556.92	1736.68
557.12	1826.79
557.32	1855.46
557.51	1834.98
557.71	1794.02
557.90	1767.40
558.10	1779.68
558.30	1763.30
558.49	1710.05
558.69	1720.29
558.88	1785.83
559.08	1726.44
559.28	1757.16
559.47	1755.11
559.67	1746.92
559.86	1855.46
560.06	1775.59
560.26	1705.96
560.45	1828.84
560.65	1804.26
560.84	1808.36
561.04	1712.10
561.24	1744.87
561.43	1671.14
561.63	1818.60
561.82	1748.97
562.02	1751.01
562.22	1650.66
562.41	1722.34
562.61	1710.05
562.80	1611.75
563.00	1882.08
563.19	1763.30
563.39	1712.10
563.59	1746.92
563.78	1742.82
563.98	1669.09
564.17	1740.77
564.37	1669.09
564.56	1732.58
564.76	1583.08
564.96	1773.54
565.15	1771.49
565.35	1888.23
565.54	1689.57
565.74	1734.63
565.93	1796.07
566.13	1734.63
566.32	1802.21
566.52	1765.35
566.71	1619.94
566.91	1779.68
567.11	1771.49
567.30	1730.53
567.50	1877.99
567.69	1781.73
567.89	1791.97
568.08	1761.25
568.28	1705.96
568.47	1671.14
568.67	1744.87
568.86	1751.01
569.06	1726.44
569.25	1685.48
569.45	1748.97
569.64	1681.38
569.84	1687.53
570.04	1785.83
570.23	1751.01
570.43	1787.88
570.62	1802.21
570.82	1886.18
571.01	1726.44
571.21	1757.16
571.40	1751.01
571.60	1767.40
571.79	1761.25
571.99	1806.31
572.18	1665.00
572.38	1877.99
572.57	1800.16
572.77	1843.17
572.96	1908.71
573.16	1703.91
573.35	1781.73
573.55	1888.23
573.74	1769.44
573.94	1722.34
574.13	1722.34
574.33	1877.99
574.52	1818.60
574.71	1755.11
574.91	1796.07
575.10	1677.29
575.30	1714.15
575.49	1665.00
575.69	1791.97
575.88	1705.96
576.08	1734.63
576.27	1773.54
576.47	1783.78
576.66	1820.64
576.86	1789.92
577.05	1804.26
577.25	1843.17
577.44	1808.36
577.64	1730.53
577.83	1816.55
578.02	1730.53
578.22	1847.27
578.41	1857.51
578.61	1722.34
578.80	1634.28
579.00	1812.45
579.19	1751.01
579.39	1755.11
579.58	1800.16
579.77	1753.06
579.97	1759.21
580.16	1771.49
580.36	1783.78
580.55	1865.70
580.75	1765.35
580.94	1781.73
581.13	1902.56
581.33	1839.08
581.52	1804.26
581.72	1890.28
581.91	1896.42
582.11	1679.33
582.30	1834.98
582.49	1806.31
582.69	1783.78
582.88	1765.35
583.08	1710.05
583.27	1814.50
583.47	1791.97
583.66	1732.58
583.85	1665.00
584.05	1634.28
584.24	1769.44
584.44	1834.98
584.63	1841.12
584.82	1839.08
585.02	1894.37
585.21	1761.25
585.41	1853.41
585.60	1791.97
585.79	1955.81
585.99	1949.67
586.18	1849.32
586.37	2181.09
586.57	3440.59
586.76	9916.26
586.96	24501.90
587.15	34364.92
587.34	40123.80
587.54	41977.22
587.73	36072.92
587.93	26001.01
588.12	21587.64
588.31	18114.28
588.51	16211.72
588.70	14858.01
588.89	14083.88
589.09	12240.71
589.28	10923.87
589.47	9334.64
589.67	7980.93
589.86	6459.29
590.06	4861.88
590.25	3946.44
590.44	3071.95
590.64	2557.91
590.83	2197.47
591.02	2117.60
591.22	1980.39
591.41	1968.10
591.60	1798.12
591.80	1984.48
591.99	1767.40
592.18	1841.12
592.38	1853.41
592.57	1839.08
592.76	1791.97
592.96	1779.68
593.15	1753.06
593.34	1814.50
593.54	1802.21
593.73	1738.73
593.92	1824.74
594.12	1779.68
594.31	1804.26
594.50	1865.70
594.70	1812.45
594.89	1912.80
595.08	1656.81
595.28	1779.68
595.47	1986.53
595.66	1806.31
595.86	1718.25
596.05	1714.15
596.24	1771.49
596.43	1837.03
596.63	1771.49
596.82	1773.54
597.01	1720.29
597.21	1824.74
597.40	1761.25
597.59	1744.87
597.79	1718.25
597.98	1779.68
598.17	1773.54
598.36	1746.92
598.56	1843.17
598.75	1732.58
598.94	1830.88
599.14	1800.16
599.33	1724.39
599.52	1748.97
599.71	1794.02
599.91	1832.93
600.10	1828.84
600.29	1730.53
600.48	1736.68
600.68	1763.30
600.87	1761.25
601.06	1703.91
601.26	1834.98
601.45	1755.11
601.64	1761.25
601.83	1826.79
602.03	1744.87
602.22	1667.05
602.41	1763.30
602.60	1877.99
602.80	1722.34
602.99	1740.77
603.18	1773.54
603.37	1748.97
603.57	1783.78
603.76	1724.39
603.95	1783.78
604.14	1701.86
604.34	1728.49
604.53	1746.92
604.72	1746.92
604.91	1761.25
605.10	1849.32
605.30	1685.48
605.49	1843.17
605.68	1705.96
605.87	1785.83
606.07	1679.33
606.26	1765.35
606.45	1832.93
606.64	1787.88
606.84	1771.49
607.03	1708.01
607.22	1824.74
607.41	1732.58
607.60	1796.07
607.80	1783.78
607.99	1738.73
608.18	1712.10
608.37	1781.73
608.56	1673.19
608.76	1712.10
608.95	1804.26
609.14	1775.59
609.33	1843.17
609.52	1845.22
609.72	1742.82
609.91	1783.78
610.10	1695.72
610.29	1828.84
610.48	1746.92
610.68	1751.01
610.87	1718.25
611.06	1777.64
611.25	1781.73
611.44	1777.64
611.63	1796.07
611.83	1804.26
612.02	1736.68
612.21	1839.08
612.40	1681.38
612.59	1658.85
612.79	1665.00
612.98	1753.06
613.17	1800.16
613.36	1763.30
613.55	1822.69
613.74	1701.86
613.93	1767.40
614.13	1738.73
614.32	1773.54
614.51	1796.07
614.70	1630.18
614.89	1634.28
615.08	1806.31
615.28	2068.45
615.47	1665.00
615.66	1873.89
615.85	1732.58
616.04	1845.22
616.23	1757.16
616.42	1798.12
616.62	1814.50
616.81	1796.07
617.00	1732.58
617.19	1828.84
617.38	1732.58
617.57	1740.77
617.76	1753.06
617.95	1787.88
618.15	1759.21
618.34	1857.51
618.53	1581.03
618.72	1730.53
618.91	1857.51
619.10	1830.88
619.29	1775.59
619.48	1755.11
619.68	1660.90
619.87	1771.49
620.06	1683.43
620.25	1728.49
620.44	1656.81
620.63	1716.20
620.82	1710.05
621.01	1746.92
621.20	1683.43
621.39	1701.86
621.59	1804.26
621.78	1691.62
621.97	1646.57
622.16	1791.97
622.35	1693.67
622.54	1730.53
622.73	1832.93
622.92	1665.00
623.11	1798.12
623.30	1734.63
623.49	1837.03
623.68	1724.39
623.88	1818.60
624.07	1681.38
624.26	1728.49
624.45	1693.67
624.64	1724.39
624.83	1757.16
625.02	1753.06
625.21	1765.35
625.40	1675.24
625.59	1730.53
625.78	1687.53
625.97	1816.55
626.16	1718.25
626.35	1773.54
626.54	1730.53
626.74	1822.69
626.93	1632.23
627.12	1718.25
627.31	1808.36
627.50	1800.16
627.69	1853.41
627.88	1691.62
628.07	1699.81
628.26	1640.42
628.45	1685.48
628.64	1654.76
628.83	1804.26
629.02	1687.53
629.21	1802.21
629.40	1736.68
629.59	1636.33
629.78	1718.25
629.97	1748.97
630.16	1798.12
630.35	1722.34
630.54	1720.29
630.73	1726.44
630.92	1660.90
631.11	1642.47
631.30	1695.72
631.49	1728.49
631.68	1767.40
631.87	1767.40
632.06	1781.73
632.25	1890.28
632.44	1720.29
632.63	1753.06
632.82	1753.06
633.01	1683.43
633.20	1755.11
633.39	1742.82
633.58	1648.61
633.77	1789.92
633.96	1761.25
634.15	1794.02
634.34	1753.06
634.53	1781.73
634.72	1634.28
634.91	1570.79
635.10	1728.49
635.29	1775.59
635.48	1712.10
635.67	1724.39
635.86	1681.38
636.05	1718.25
636.24	1751.01
636.43	1734.63
636.62	1734.63
636.81	1638.38
637.00	1705.96
637.19	1763.30
637.38	1789.92
637.57	1703.91
637.76	1748.97
637.95	1687.53
638.14	1714.15
638.33	1640.42
638.52	1755.11
638.71	1675.24
638.89	1609.70
639.08	1861.60
639.27	1736.68
639.46	1714.15
639.65	1796.07
639.84	1718.25
640.03	1765.35
640.22	1681.38
640.41	1900.52
640.60	1617.90
640.79	1755.11
640.98	1656.81
641.17	1763.30
641.36	1789.92
641.55	1699.81
641.74	1685.48
641.92	1665.00
642.11	1742.82
642.30	1695.72
642.49	1669.09
642.68	1683.43
642.87	1734.63
643.06	1808.36
643.25	1605.61
643.44	1665.00
643.63	1740.77
643.82	1841.12
644.00	1689.57
644.19	1740.77
644.38	1693.67
644.57	1783.78
644.76	1841.12
644.95	1734.63
645.14	1808.36
645.33	1804.26
645.52	1662.95
645.71	1708.01
645.89	1658.85
646.08	1720.29
646.27	1673.19
646.46	1796.07
646.65	1667.05
646.84	1771.49
647.03	1681.38
647.22	1871.84
647.40	1730.53
647.59	1689.57
647.78	1658.85
647.97	1671.14
648.16	1681.38
648.35	1779.68
648.54	1794.02
648.73	1714.15
648.91	1828.84
649.10	1800.16
649.29	1673.19
649.48	1671.14
649.67	1775.59
649.86	1714.15
650.05	1744.87
650.23	1691.62
650.42	1656.81
650.61	1849.32
650.80	1814.50
650.99	1820.64
651.18	1697.77
651.36	1755.11
651.55	1630.18
651.74	1779.68
651.93	1683.43
652.12	1648.61
652.31	1689.57
652.49	1654.76
652.68	1673.19
652.87	1861.60
653.06	1755.11
653.25	1857.51
653.44	1779.68
653.62	1730.53
653.81	1695.72
654.00	1699.81
654.19	1857.51
654.38	1839.08
654.56	1765.35
654.75	1697.77
654.94	1796.07
655.13	1767.40
655.32	1689.57
655.51	1732.58
655.69	1681.38
655.88	1767.40
656.07	1673.19
656.26	1720.29
656.45	1683.43
656.63	1755.11
656.82	1726.44
657.01	1837.03
657.20	1673.19
657.38	1769.44
657.57	1675.24
657.76	1708.01
657.95	1884.13
658.14	1689.57
658.32	1712.10
658.51	1681.38
658.70	1722.34
658.89	1744.87
659.08	1738.73
659.26	1712.10
659.45	1640.42
659.64	1777.64
659.83	1689.57
660.01	1863.65
660.20	1755.11
660.39	1824.74
660.58	1574.89
660.76	1781.73
660.95	1587.18
661.14	1675.24
661.33	1685.48
661.51	1775.59
661.70	1689.57
661.89	1767.40
662.08	1751.01
662.26	1732.58
662.45	1738.73
662.64	1812.45
662.83	1763.30
663.01	1642.47
663.20	1708.01
663.39	1818.60
663.58	1796.07
663.76	1665.00
663.95	1734.63
664.14	1660.90
664.32	1697.77
664.51	1685.48
664.70	1667.05
664.89	1730.53
665.07	1693.67
665.26	1738.73
665.45	1746.92
665.64	1808.36
665.82	1730.53
666.01	1773.54
666.20	1685.48
666.38	1767.40
666.57	1820.64
666.76	2267.10
666.95	4526.01
667.13	10364.77
667.32	15255.32
667.51	17903.34
667.69	19033.82
667.88	17653.49
668.07	12130.12
668.25	9572.21
668.44	8089.48
668.63	7407.50
668.81	6858.65
669.00	6301.60
669.19	5869.48
669.38	5173.17
669.56	4636.60
669.75	4038.59
669.94	3456.97
670.12	2914.26
670.31	2592.73
670.50	2265.05
670.68	2062.30
670.87	1880.04
671.06	1804.26
671.24	1834.98
671.43	1826.79
671.62	1728.49
671.80	1640.42
671.99	1757.16
672.18	1728.49
672.36	1714.15
672.55	1667.05
672.74	1687.53
672.92	1765.35
673.11	1777.64
673.29	1720.29
673.48	1701.86
673.67	1679.33
673.85	1755.11
674.04	1662.95
674.23	1740.77
674.41	1783.78
674.60	1701.86
674.79	1669.09
674.97	1654.76
675.16	1730.53
675.34	1798.12
675.53	1669.09
675.72	1722.34
675.90	1843.17
676.09	1689.57
676.28	1763.30
676.46	1703.91
676.65	1751.01
676.83	1689.57
677.02	1695.72
677.21	1767.40
677.39	1742.82
677.58	1701.86
677.77	1679.33
677.95	1665.00
678.14	1720.29
678.32	1748.97
678.51	1656.81
678.70	1847.27
678.88	1677.29
679.07	1654.76
679.25	1757.16
679.44	1755.11
679.63	1636.33
679.81	1744.87
680.00	1849.32
680.18	1705.96
680.37	1867.75
680.55	1703.91
680.74	1691.62
680.93	1634.28
681.11	1703.91
681.30	1681.38
681.48	1744.87
681.67	1703.91
681.85	1714.15
682.04	1693.67
682.23	1798.12
682.41	1769.44
682.60	1685.48
682.78	1673.19
682.97	1638.38
683.15	1601.51
683.34	1728.49
683.53	1779.68
683.71	1683.43
683.90	1779.68
684.08	1746.92
684.27	1734.63
684.45	1757.16
684.64	1861.60
684.82	1720.29
685.01	1736.68
685.19	1701.86
685.38	1798.12
685.57	1693.67
685.75	1642.47
685.94	1708.01
686.12	1601.51
686.31	1689.57
686.49	1751.01
686.68	1671.14
686.86	1767.40
687.05	1728.49
687.23	1818.60
687.42	1695.72
687.60	1640.42
687.79	1746.92
687.97	1777.64
688.16	1751.01
688.34	1806.31
688.53	1689.57
688.71	1800.16
688.90	1773.54
689.08	1621.99
689.27	1636.33
689.45	1730.53
689.64	1736.68
689.82	1789.92
690.01	1665.00
690.19	1740.77
690.38	1695.72
690.56	1861.60
690.75	1675.24
690.93	1650.66
691.12	1570.79
691.30	1617.90
691.49	1718.25
691.67	1685.48
691.86	1894.37
692.04	1689.57
692.23	1724.39
692.41	1697.77
692.60	1767.40
692.78	1816.55
692.97	1742.82
693.15	1775.59
693.34	1796.07
693.52	1753.06
693.71	1660.90
693.89	1703.91
694.08	1601.51
694.26	1734.63
694.44	1830.88
694.63	1736.68
694.81	1628.14
695.00	1693.67
695.18	1775.59
695.37	1863.65
695.55	1742.82
695.74	1703.91
695.92	1748.97
696.10	1746.92
696.29	1619.94
696.47	1761.25
696.66	1630.18
696.84	1576.94
697.03	1818.60
697.21	1839.08
697.40	2330.59
697.58	1751.01
697.76	1703.91
697.95	1679.33
698.13	1652.71
698.32	1726.44
698.50	1777.64
698.68	1775.59
698.87	1755.11
699.05	1812.45
699.24	1722.34
699.42	1697.77
699.61	1751.01
699.79	1748.97
699.97	1710.05
700.16	1683.43
700.34	1630.18
700.53	1697.77
700.71	1779.68
700.89	1826.79
701.08	1757.16
701.26	1773.54
701.45	2062.30
701.63	1658.85
701.81	1781.73
702.00	1779.68
702.18	1693.67
702.37	1734.63
702.55	1632.23
702.73	1722.34
702.92	1677.29
703.10	1763.30
703.28	1681.38
703.47	1591.27
703.65	1748.97
703.84	1740.77
704.02	1728.49
704.20	1802.21
704.39	1613.80
704.57	1658.85
704.75	1865.70
704.94	1802.21
705.12	1744.87
705.30	1812.45
705.49	2316.25
705.67	4353.98
705.86	9502.58
706.04	12377.92
706.22	14511.91
706.41	15294.23
706.59	13618.99
706.77	9406.32
706.96	7432.08
707.14	6440.86
707.32	5961.64
707.51	5593.00
707.69	4837.30
707.87	4155.33
708.06	3524.55
708.24	2957.27
708.42	2453.47
708.61	2226.14
708.79	1839.08
708.97	1845.22
709.16	1787.88
709.34	1888.23
709.52	1738.73
709.71	1703.91
709.89	1791.97
710.07	1716.20
710.26	1660.90
710.44	1785.83
710.62	1765.35
710.80	1771.49
710.99	1773.54
711.17	1820.64
711.35	1734.63
711.54	1576.94
711.72	1841.12
711.90	1775.59
712.09	1791.97
712.27	1689.57
712.45	1695.72
712.63	1665.00
712.82	1691.62
713.00	1712.10
713.18	1681.38
713.37	1771.49
713.55	1767.40
713.73	1734.63
713.91	1767.40
714.10	1624.04
714.28	1720.29
714.46	1710.05
714.65	1771.49
714.83	1718.25
715.01	1695.72
715.19	1652.71
715.38	1732.58
715.56	1712.10
715.74	1677.29
715.92	1685.48
716.11	1824.74
716.29	1599.46
716.47	1642.47
716.65	1658.85
716.84	1650.66
717.02	1730.53
717.20	1591.27
717.38	1687.53
717.57	1695.72
717.75	1763.30
717.93	1650.66
718.11	1771.49
718.30	1689.57
718.48	1736.68
718.66	1789.92
718.84	1708.01
719.03	1748.97
719.21	1603.56
719.39	1798.12
719.57	1763.30
719.75	1753.06
719.94	1628.14
720.12	1642.47
720.30	1753.06
720.48	1716.20
720.67	1628.14
720.85	1638.38
721.03	1675.24
721.21	1673.19
721.39	1779.68
721.58	1861.60
721.76	1718.25
721.94	1716.20
722.12	1734.63
722.30	1800.16
722.49	1681.38
722.67	1710.05
722.85	1642.47
723.03	1685.48
723.21	1699.81
723.40	1742.82
723.58	1714.15
723.76	1734.63
723.94	1771.49
724.12	1689.57
724.30	1783.78
724.49	1775.59
724.67	1726.44
724.85	1783.78
725.03	1593.32
725.21	1779.68
725.40	1763.30
725.58	1714.15
725.76	1787.88
725.94	1742.82
726.12	1740.77
726.30	1710.05
726.49	1787.88
726.67	1718.25
726.85	1822.69
727.03	1779.68
727.21	2080.74
727.39	2916.31
727.57	3739.59
727.76	4310.97
727.94	4433.85
728.12	4356.03
728.30	3643.34
728.48	3037.14
728.66	2693.08
728.84	2512.86
729.03	2320.35
729.21	2117.60
729.39	1951.71
729.57	1810.40
729.75	1798.12
729.93	1814.50
730.11	1732.58
730.30	1736.68
730.48	1685.48
730.66	1796.07
730.84	1787.88
731.02	1712.10
731.20	1697.77
731.38	1636.33
731.56	1701.86
731.74	1699.81
731.93	1701.86
732.11	1746.92
732.29	1718.25
732.47	1751.01
732.65	1775.59
732.83	1906.66
733.01	1722.34
733.19	1650.66
733.37	1771.49
733.56	1738.73
733.74	1644.52
733.92	1789.92
734.10	1673.19
734.28	1644.52
734.46	1640.42
734.64	1720.29
734.82	1644.52
735.00	1714.15
735.18	1683.43
735.36	1699.81
735.54	1771.49
735.73	1656.81
735.91	1708.01
736.09	1744.87
736.27	1789.92
736.45	1716.20
736.63	1656.81
736.81	1734.63
736.99	1742.82
737.17	1757.16
737.35	1673.19
737.53	1677.29
737.71	1685.48
737.89	1783.78
738.07	1662.95
738.25	1708.01
738.43	1667.05
738.61	1714.15
738.80	1662.95
738.98	1671.14
739.16	1703.91
739.34	1646.57
739.52	1761.25
739.70	1675.24
739.88	1708.01
740.06	1785.83
740.24	1583.08
740.42	1808.36
740.60	1591.27
740.78	1689.57
740.96	1648.61
741.14	1722.34
741.32	1710.05
741.50	1675.24
741.68	1828.84
741.86	1748.97
742.04	1642.47
742.22	1624.04
742.40	1673.19
742.58	1812.45
742.76	1675.24
742.94	1812.45
743.12	1640.42
743.30	1748.97
743.48	1738.73
743.66	1669.09
743.84	1789.92
744.02	1744.87
744.20	1703.91
744.38	1607.66
744.56	1759.21
744.74	1814.50
744.92	1796.07
745.10	1718.25
745.28	1771.49
745.46	1765.35
745.64	1705.96
745.82	1753.06
746.00	1693.67
746.18	1755.11
746.36	1738.73
746.54	1714.15
746.72	1722.34
746.90	1710.05
747.08	1777.64
747.26	1753.06
747.44	1740.77
747.62	1759.21
747.80	1710.05
747.98	1757.16
748.15	1763.30
748.33	1839.08
748.51	1681.38
748.69	1746.92
748.87	1650.66
749.05	1734.63
749.23	1689.57
749.41	1691.62
749.59	1687.53
749.77	1773.54
749.95	1751.01
750.13	1693.67
750.31	1712.10
750.49	1714.15
750.67	1667.05
750.85	1904.61
751.03	1714.15
751.20	1845.22
751.38	1748.97
751.56	1691.62
751.74	1679.33
751.92	1746.92
752.10	1593.32
752.28	1787.88
752.46	1683.43
752.64	1691.62
752.82	1755.11
753.00	1812.45
753.18	1791.97
753.35	1630.18
753.53	1773.54
753.71	1677.29
753.89	1708.01
754.07	1624.04
754.25	1777.64
754.43	1787.88
754.61	1628.14
754.79	1736.68
754.97	1685.48
755.14	1828.84
755.32	1665.00
755.50	1708.01
755.68	1751.01
755.86	1617.90
756.04	1736.68
756.22	1640.42
756.40	1753.06
756.57	1800.16
756.75	1656.81
756.93	1748.97
757.11	1755.11
757.29	1634.28
757.47	1693.67
757.65	1660.90
757.82	1540.07
758.00	1665.00
758.18	1648.61
758.36	1705.96
758.54	1796.07
758.72	1636.33
758.90	1748.97
759.07	1751.01
759.25	1665.00
759.43	1710.05
759.61	1638.38
759.79	2234.33
759.97	1777.64
760.15	1697.77
760.32	1779.68
760.50	1665.00
760.68	1820.64
760.86	1662.95
761.04	1763.30
761.22	1757.16
761.39	1669.09
761.57	1718.25
761.75	1689.57
761.93	1724.39
762.11	1591.27
762.28	1720.29
762.46	1624.04
762.64	1740.77
762.82	1644.52
763.00	1718.25
763.18	1830.88
763.35	1617.90
763.53	1738.73
763.71	1732.58
763.89	1712.10
764.07	1665.00
764.24	1689.57
764.42	1832.93
764.60	1667.05
764.78	1779.68
764.96	1703.91
765.13	1748.97
765.31	1695.72
765.49	1775.59
765.67	1624.04
765.84	1671.14
766.02	1708.01
766.20	1607.66
766.38	1671.14
766.56	1714.15
766.73	1777.64
766.91	1677.29
767.09	1748.97
767.27	1755.11
767.44	1652.71
767.62	1771.49
767.80	1718.25
767.98	1658.85
768.15	1746.92
768.33	1714.15
768.51	1779.68
768.69	1740.77
768.87	1755.11
769.04	1662.95
769.22	1830.88
769.40	1796.07
769.58	1837.03
769.75	1746.92
769.93	1765.35
770.11	1689.57
770.28	1644.52
770.46	1724.39
770.64	1742.82
770.82	1566.70
770.99	1712.10
771.17	1722.34
771.35	1675.24
771.53	1687.53
771.70	1669.09
771.88	1763.30
772.06	1740.77
772.23	1787.88
772.41	1667.05
772.59	1650.66
772.77	1648.61
772.94	1636.33
773.12	1695.72
773.30	1789.92
773.47	1720.29
773.65	1710.05
773.83	1800.16
774.01	1728.49
774.18	1583.08
774.36	1679.33
774.54	1681.38
774.71	1732.58
774.89	1581.03
775.07	1732.58
775.24	1683.43
775.42	1738.73
775.60	1779.68
775.78	1732.58
775.95	1710.05
776.13	1634.28
776.31	1638.38
776.48	1759.21
776.66	1841.12
776.84	1726.44
777.01	1648.61
777.19	1673.19
777.37	1785.83
777.54	1705.96
777.72	1775.59
777.90	1748.97
778.07	1607.66
778.25	1859.56
778.43	1794.02
778.60	1726.44
778.78	1806.31
778.96	1804.26
779.13	1697.77
779.31	1822.69
779.49	1675.24
779.66	1742.82
779.84	1703.91
780.01	1701.86
780.19	1685.48
780.37	1703.91
780.54	1730.53
780.72	1691.62
780.90	1724.39
781.07	1701.86
781.25	1736.68
781.43	1746.92
781.60	1691.62
781.78	1783.78
781.95	1742.82
782.13	1667.05
782.31	1677.29
782.48	1673.19
782.66	1722.34
782.83	1816.55
783.01	1824.74
783.19	1720.29
783.36	1634.28
783.54	1691.62
783.72	1843.17
783.89	1699.81
784.07	1710.05
784.24	1761.25
784.42	1859.56
784.60	1759.21
784.77	1728.49
784.95	1558.50
785.12	1693.67
785.30	1708.01
785.47	1624.04
785.65	1630.18
785.83	1722.34
786.00	1605.61
786.18	1712.10
786.35	1638.38
786.53	1701.86
786.71	1765.35
786.88	1716.20
787.06	1791.97
787.23	1595.37
787.41	1632.23
787.58	1722.34
787.76	1675.24
787.94	1669.09
788.11	1722.34
788.29	1660.90
788.46	1732.58
788.64	1634.28
788.81	1656.81
788.99	1636.33
789.16	1687.53
789.34	1736.68
789.52	1734.63
789.69	1720.29
789.87	1624.04
790.04	1744.87
790.22	1611.75
790.39	1791.97
790.57	1658.85
790.74	1642.47
790.92	1736.68
791.09	1642.47
791.27	1714.15
791.44	1742.82
791.62	1697.77
791.79	1718.25
791.97	1683.43
792.15	1970.15
792.32	1755.11
792.50	1777.64
792.67	1718.25
792.85	1814.50
793.02	1755.11
793.20	1675.24
793.37	1609.70
793.55	1746.92
793.72	1689.57
793.90	1773.54
794.07	1660.90
794.25	1689.57
794.42	1703.91
794.60	1656.81
794.77	1691.62
794.95	1728.49
795.12	1720.29
795.30	1615.85
795.47	1630.18
795.65	1865.70
795.82	1773.54
796.00	1640.42
796.17	1761.25
796.34	1685.48
796.52	1748.97
796.69	1759.21
796.87	1701.86
797.04	1720.29
797.22	1771.49
797.39	1777.64
797.57	1705.96
797.74	1734.63
797.92	1718.25
798.09	1583.08
798.27	1693.67
798.44	1716.20
798.62	1660.90
798.79	1683.43
798.96	1724.39
799.14	1634.28
799.31	1861.60
799.49	1640.42
799.66	1748.97
799.84	1654.76
800.01	1611.75
800.19	1724.39
800.36	1595.37
800.53	1693.67
800.71	1705.96
800.88	1845.22
801.06	1681.38
801.23	1679.33
801.41	1765.35
801.58	1642.47
801.75	1667.05
801.93	1720.29
802.10	1716.20
802.28	1689.57
802.45	1650.66
802.63	1740.77
802.80	1765.35
802.97	1720.29
803.15	1652.71
803.32	1644.52
803.50	1652.71
803.67	1693.67
803.84	1652.71
804.02	1777.64
804.19	1677.29
804.37	1644.52
804.54	1615.85
804.71	1699.81
804.89	1693.67
805.06	1679.33
805.24	1636.33
805.41	1652.71
805.58	1648.61
805.76	1798.12
805.93	1791.97
806.10	1783.78
806.28	1779.68
806.45	1748.97
806.63	1677.29
806.80	1746.92
806.97	1753.06
807.15	1675.24
807.32	1798.12
807.49	1671.14
807.67	1701.86
807.84	1697.77
808.01	1693.67
808.19	1820.64
808.36	1826.79
808.54	1685.48
808.71	1699.81
808.88	1710.05
809.06	1765.35
809.23	1861.60
809.40	1716.20
809.58	1689.57
809.75	1740.77
809.92	1748.97
810.10	1816.55
810.27	1714.15
810.44	1753.06
810.62	1751.01
810.79	1689.57
810.96	1732.58
811.14	1718.25
811.31	1681.38
811.48	1759.21
811.66	1705.96
811.83	1718.25
812.00	1718.25
812.18	1691.62
812.35	1808.36
812.52	1683.43
812.69	1624.04
812.87	1710.05
813.04	1673.19
813.21	1703.91
813.39	1677.29
813.56	1662.95
813.73	1796.07
813.91	1615.85
814.08	1757.16
814.25	1773.54
814.42	1665.00
814.60	1656.81
814.77	1751.01
814.94	1716.20
815.12	1757.16
815.29	1812.45
815.46	1685.48
815.63	1636.33
815.81	1722.34
815.98	1603.56
816.15	1759.21
816.33	1728.49
816.50	1718.25
816.67	1667.05
816.84	1667.05
817.02	1714.15
817.19	1720.29
817.36	1775.59
817.53	1710.05
817.71	1693.67
817.88	1810.40
818.05	1728.49
818.22	1685.48
818.40	1734.63
818.57	1718.25
818.74	1738.73
818.91	1642.47
819.09	1746.92
819.26	1855.46
819.43	1634.28
819.60	1697.77
819.78	1665.00
819.95	1826.79
820.12	1556.46
820.29	1767.40
820.47	1742.82
820.64	1689.57
820.81	1630.18
820.98	1658.85
821.15	1669.09
821.33	1771.49
821.50	1673.19
821.67	1791.97
821.84	1662.95
822.02	1767.40
822.19	1781.73
822.36	1656.81
822.53	1679.33
822.70	1681.38
822.88	1665.00
823.05	1818.60
823.22	1640.42
823.39	1755.11
823.56	1685.48
823.74	1830.88
823.91	1662.95
824.08	1665.00
824.25	1624.04
824.42	1834.98
824.60	1640.42
824.77	1695.72
824.94	1665.00
825.11	1748.97
825.28	1675.24
825.45	1728.49
825.63	1705.96
825.80	1560.55
825.97	1796.07
826.14	1705.96
826.31	1621.99
826.48	1773.54
826.66	1613.80
826.83	1710.05
827.00	1703.91
827.17	1673.19
827.34	1683.43
827.51	1656.81
827.69	1613.80
827.86	1697.77
828.03	1755.11
828.20	1779.68
828.37	1716.20
828.54	1759.21
828.71	1636.33
828.89	1765.35
829.06	1667.05
829.23	1789.92
829.40	1662.95
829.57	1718.25
829.74	1720.29
829.91	1675.24
830.09	1632.23
830.26	1742.82
830.43	1843.17
830.60	1720.29
830.77	1738.73
830.94	1779.68
831.11	1800.16
831.28	1697.77
831.46	1783.78
831.63	1648.61
831.80	1724.39
831.97	1771.49
832.14	1677.29
832.31	1671.14
832.48	1732.58
832.65	1814.50
832.82	1703.91
832.99	1771.49
833.17	1603.56
833.34	1759.21
833.51	1777.64
833.68	1640.42
833.85	1779.68
834.02	1687.53
834.19	1613.80
834.36	1703.91
834.53	1685.48
834.70	1781.73
834.87	1785.83
835.04	1765.35
835.22	1685.48
835.39	1669.09
835.56	1654.76
835.73	1685.48
835.90	1814.50
836.07	1675.24
836.24	1775.59
836.41	1591.27
836.58	1708.01
836.75	1708.01
836.92	1691.62
837.09	1671.14
837.26	1695.72
837.43	1697.77
837.60	1783.78
837.77	1708.01
837.94	1753.06
838.12	1726.44
838.29	1710.05
838.46	1656.81
838.63	1636.33
838.80	1843.17
838.97	1720.29
839.14	1714.15
839.31	1757.16
839.48	1746.92
839.65	1699.81
839.82	1722.34
839.99	1705.96
840.16	1826.79
840.33	1689.57
840.50	1703.91
840.67	1683.43
840.84	1578.98
841.01	1652.71
841.18	1628.14
841.35	1667.05
841.52	1746.92
841.69	1869.80
841.86	1773.54
842.03	1718.25
842.20	1812.45
842.37	1673.19
842.54	1687.53
842.71	1683.43
842.88	1560.55
843.05	1771.49
843.22	1705.96
843.39	1794.02
843.56	1691.62
843.73	1693.67
843.90	1730.53
844.07	1685.48
844.24	1738.73
844.41	1716.20
844.58	1701.86
844.75	1675.24
844.92	1781.73
845.09	1701.86
845.26	1621.99
845.43	1742.82
845.60	1701.86
845.77	1673.19
845.94	1712.10
846.10	1775.59
846.27	1644.52
846.44	1751.01
846.61	1607.66
846.78	1677.29
846.95	1718.25
847.12	1769.44
847.29	1669.09
847.46	1619.94
847.63	1722.34
847.80	1734.63
847.97	1607.66
848.14	1939.43
848.31	1716.20
848.48	1611.75
848.65	1724.39
848.82	1675.24
848.98	1845.22
849.15	1753.06
849.32	1816.55
849.49	1781.73
849.66	1660.90
849.83	1779.68
850.00	1675.24
850.17	1767.40
850.34	1730.53
850.51	1675.24
850.68	1705.96
850.85	1837.03
851.01	1740.77
851.18	1785.83
851.35	1681.38
851.52	1751.01
851.69	1777.64
851.86	1636.33
852.03	1689.57
852.20	1789.92
852.37	1705.96
852.53	1578.98
852.70	1648.61
852.87	1710.05
853.04	1652.71
853.21	1720.29
853.38	1755.11
853.55	1832.93
853.72	1714.15
853.89	1646.57
854.05	1705.96
854.22	1738.73
854.39	1673.19
854.56	1683.43
854.73	1744.87
854.90	1636.33
855.07	1710.05
855.23	1662.95
855.40	1660.90
855.57	1681.38
855.74	1591.27
855.91	1828.84
856.08	1685.48
856.25	1638.38
856.41	1640.42
856.58	1720.29
856.75	1726.44
856.92	1628.14
857.09	1802.21
857.26	1693.67
857.42	1695.72
857.59	1712.10
857.76	1693.67
857.93	1677.29
858.10	1726.44
858.27	1644.52
858.43	1710.05
858.60	1673.19
858.77	1667.05
858.94	1703.91
859.11	1851.36
859.27	1685.48
859.44	1746.92
859.61	1810.40
859.78	1787.88
859.95	1652.71
860.12	1699.81
860.28	1806.31
860.45	1853.41
860.62	1667.05
860.79	1740.77
860.95	1630.18
861.12	1695.72
861.29	1710.05
861.46	1619.94
861.63	1746.92
861.79	1681.38
861.96	1734.63
862.13	1722.34
862.30	1791.97
862.47	1665.00
862.63	1609.70
862.80	1742.82
862.97	1748.97
863.14	1703.91
863.30	1693.67
863.47	1624.04
863.64	1753.06
863.81	1744.87
863.97	1693.67
864.14	1767.40
864.31	1681.38
864.48	1765.35
864.65	1751.01
864.81	1765.35
864.98	1771.49
865.15	1740.77
865.32	1712.10
865.48	1775.59
865.65	1806.31
865.82	1708.01
865.98	1712.10
866.15	1755.11
866.32	1748.97
866.49	1705.96
866.65	1791.97
866.82	1693.67
866.99	1656.81
867.16	1632.23
867.32	1701.86
867.49	1722.34
867.66	1683.43
867.83	1701.86
867.99	1701.86
868.16	1697.77
868.33	1646.57
868.49	1714.15
868.66	1716.20
868.83	1806.31
868.99	1767.40
869.16	1716.20
869.33	1724.39
869.50	1804.26
869.66	1710.05
869.83	1703.91
870.00	1667.05
870.16	1677.29
870.33	1757.16
870.50	1761.25
870.66	1648.61
870.83	1832.93
871.00	1712.10
871.17	1818.60
871.33	1775.59
871.50	1658.85
871.67	1730.53
871.83	1609.70
872.00	1820.64
872.17	1705.96
872.33	1785.83
872.50	1748.97
872.67	1738.73
872.83	1705.96
873.00	1693.67
873.17	1732.58
873.33	1773.54
873.50	1783.78
873.67	1683.43
873.83	1613.80
874.00	1708.01
874.16	1755.11
874.33	1615.85
874.50	1665.00
874.66	1767.40
874.83	1712.10
875.00	1748.97
875.16	1816.55
875.33	1685.48
875.50	1507.30
875.66	1652.71
875.83	1685.48
875.99	1820.64
876.16	1658.85
876.33	1722.34
876.49	1785.83
876.66	1726.44
876.83	1705.96
876.99	1587.18
877.16	1689.57
877.32	1732.58
877.49	1658.85
877.66	1677.29
877.82	1751.01
877.99	1732.58
878.15	1851.36
878.32	1701.86
878.49	1699.81
878.65	1648.61
878.82	1742.82
878.98	1648.61
879.15	1767.40
879.32	1800.16
879.48	1755.11
879.65	1798.12
879.81	1720.29
879.98	1654.76
880.15	1656.81
880.31	1691.62
880.48	1617.90
880.64	1761.25
880.81	1787.88
880.97	1832.93
881.14	1732.58
881.31	1679.33
881.47	1853.41
881.64	1742.82
881.80	1593.32
881.97	1732.58
882.13	1783.78
882.30	1656.81
882.47	1591.27
882.63	1587.18
882.80	1701.86
882.96	1675.24
883.13	1753.06
883.29	1640.42
883.46	1746.92
883.62	1867.75
883.79	1667.05
883.95	1800.16
884.12	1667.05
884.29	1818.60
884.45	1675.24
884.62	1771.49
884.78	1685.48
884.95	1892.32
885.11	1712.10
885.28	1767.40
885.44	1710.05
885.61	1759.21
885.77	1755.11
885.94	1730.53
886.10	1714.15
886.27	1783.78
886.43	1773.54
886.60	1773.54
886.76	1644.52
886.93	1677.29
887.09	1720.29
887.26	1601.51
887.42	1671.14
887.59	1791.97
887.75	1820.64
887.92	1726.44
888.08	1800.16
888.25	1812.45
888.41	1691.62
888.58	1734.63
888.74	1683.43
888.91	1701.86
>>>>>End Processed Spectral Data<<<<<
