SpectraSuite Data File
++++++++++++++++++++++++++++++++++++
Date: Mon Jun 06 12:55:57 CEST 2016
User: root
Dark Spectrum Present: No
Reference Spectrum Present: No
Number of Sampled Component Spectra: 1
Spectrometers: USB4C02835
Integration Time (usec): 100000 (USB4C02835)
Spectra Averaged: 1 (USB4C02835)
Boxcar Smoothing: 0 (USB4C02835)
Correct for Electrical Dark: No (USB4C02835)
Strobe/Lamp Enabled: No (USB4C02835)
Correct for Detector Non-linearity: No (USB4C02835)
Correct for Stray Light: No (USB4C02835)
Number of Pixels in Processed Spectrum: 3648
>>>>>Begin Processed Spectral Data<<<<<
177.47	1431.53
177.69	1431.53
177.91	1431.53
178.13	1527.78
178.36	1464.30
178.58	1609.70
178.80	1710.05
179.02	1609.70
179.24	1665.00
179.46	1740.77
179.68	1783.78
179.90	1753.06
180.13	1681.38
180.35	1701.86
180.57	1642.47
180.79	1722.34
181.01	1757.16
181.23	1789.92
181.45	1814.50
181.67	1775.59
181.90	1662.95
182.12	1738.73
182.34	1634.28
182.56	1718.25
182.78	1730.53
183.00	1693.67
183.22	1722.34
183.44	1640.42
183.66	1853.41
183.89	1839.08
184.11	1667.05
184.33	1732.58
184.55	1794.02
184.77	1794.02
184.99	1746.92
185.21	1757.16
185.43	1845.22
185.65	1617.90
185.87	1730.53
186.10	1755.11
186.32	1812.45
186.54	1738.73
186.76	1693.67
186.98	1796.07
187.20	1667.05
187.42	1660.90
187.64	1656.81
187.86	1740.77
188.08	1771.49
188.30	1656.81
188.52	1720.29
188.75	1837.03
188.97	1845.22
189.19	1673.19
189.41	1681.38
189.63	1718.25
189.85	1640.42
190.07	1630.18
190.29	1652.71
190.51	1708.01
190.73	1652.71
190.95	1841.12
191.17	1695.72
191.39	1652.71
191.61	1665.00
191.84	1669.09
192.06	1726.44
192.28	1533.93
192.50	1896.42
192.72	1658.85
192.94	1671.14
193.16	1728.49
193.38	1732.58
193.60	1566.70
193.82	1691.62
194.04	1693.67
194.26	1650.66
194.48	1658.85
194.70	1656.81
194.92	1640.42
195.14	1759.21
195.36	1679.33
195.58	1679.33
195.80	1708.01
196.02	1746.92
196.24	1710.05
196.46	1718.25
196.69	1681.38
196.91	1861.60
197.13	1683.43
197.35	1703.91
197.57	1822.69
197.79	1730.53
198.01	1785.83
198.23	1810.40
198.45	1677.29
198.67	1624.04
198.89	1658.85
199.11	1744.87
199.33	1665.00
199.55	1640.42
199.77	1605.61
199.99	1798.12
200.21	1640.42
200.43	1771.49
200.65	1583.08
200.87	1527.78
201.09	1751.01
201.31	1691.62
201.53	1701.86
201.75	1652.71
201.97	1742.82
202.19	1763.30
202.41	1726.44
202.63	1789.92
202.85	1718.25
203.07	1732.58
203.29	1699.81
203.51	1708.01
203.73	1705.96
203.95	1832.93
204.17	1708.01
204.39	1669.09
204.61	1665.00
204.83	1757.16
205.05	1740.77
205.27	1724.39
205.49	1871.84
205.71	1671.14
205.93	1624.04
206.15	1648.61
206.37	1693.67
206.59	1660.90
206.81	1587.18
207.03	1581.03
207.25	1673.19
207.47	1742.82
207.69	1701.86
207.91	1765.35
208.13	1800.16
208.34	1626.09
208.56	1714.15
208.78	1744.87
209.00	1632.23
209.22	1636.33
209.44	1648.61
209.66	1642.47
209.88	1607.66
210.10	1726.44
210.32	1669.09
210.54	1781.73
210.76	1710.05
210.98	1738.73
211.20	1513.45
211.42	1660.90
211.64	1730.53
211.86	1720.29
212.08	1771.49
212.30	1673.19
212.52	1703.91
212.74	1685.48
212.96	1705.96
213.17	1710.05
213.39	1742.82
213.61	1798.12
213.83	1689.57
214.05	1660.90
214.27	1746.92
214.49	1601.51
214.71	1609.70
214.93	1810.40
215.15	1679.33
215.37	1769.44
215.59	1587.18
215.81	1740.77
216.03	1785.83
216.24	1751.01
216.46	1656.81
216.68	1665.00
216.90	1738.73
217.12	1767.40
217.34	1787.88
217.56	1722.34
217.78	1775.59
218.00	1775.59
218.22	1705.96
218.44	1646.57
218.66	1677.29
218.87	1804.26
219.09	1587.18
219.31	1828.84
219.53	1708.01
219.75	1689.57
219.97	1628.14
220.19	1765.35
220.41	1703.91
220.63	1718.25
220.85	1628.14
221.06	1716.20
221.28	1746.92
221.50	1746.92
221.72	1683.43
221.94	1773.54
222.16	1671.14
222.38	1763.30
222.60	1714.15
222.82	1671.14
223.03	1775.59
223.25	1658.85
223.47	1714.15
223.69	1787.88
223.91	1830.88
224.13	1738.73
224.35	1705.96
224.57	1791.97
224.78	1720.29
225.00	1613.80
225.22	1675.24
225.44	1673.19
225.66	1761.25
225.88	1662.95
226.10	1755.11
226.32	1691.62
226.53	1761.25
226.75	1691.62
226.97	1675.24
227.19	1683.43
227.41	1669.09
227.63	1675.24
227.85	1703.91
228.06	1677.29
228.28	1632.23
228.50	1740.77
228.72	1654.76
228.94	1710.05
229.16	1611.75
229.37	1640.42
229.59	1708.01
229.81	1712.10
230.03	1634.28
230.25	1654.76
230.47	1654.76
230.69	1574.89
230.90	1769.44
231.12	1671.14
231.34	1708.01
231.56	1716.20
231.78	1626.09
232.00	1665.00
232.21	1644.52
232.43	1581.03
232.65	1566.70
232.87	1746.92
233.09	1652.71
233.30	1738.73
233.52	1693.67
233.74	1632.23
233.96	1687.53
234.18	1738.73
234.40	1675.24
234.61	1882.08
234.83	1644.52
235.05	1673.19
235.27	1839.08
235.49	1789.92
235.70	1724.39
235.92	1808.36
236.14	1734.63
236.36	1820.64
236.58	1652.71
236.79	1785.83
237.01	1677.29
237.23	1677.29
237.45	1884.13
237.67	1675.24
237.88	1691.62
238.10	1779.68
238.32	1593.32
238.54	1609.70
238.76	1726.44
238.97	1632.23
239.19	1587.18
239.41	1722.34
239.63	1755.11
239.85	1705.96
240.06	1609.70
240.28	1732.58
240.50	1755.11
240.72	1744.87
240.93	1701.86
241.15	1767.40
241.37	1662.95
241.59	1695.72
241.81	1751.01
242.02	1783.78
242.24	1740.77
242.46	1646.57
242.68	1730.53
242.89	1724.39
243.11	1708.01
243.33	1718.25
243.55	1740.77
243.76	1726.44
243.98	1689.57
244.20	1701.86
244.42	1710.05
244.64	1757.16
244.85	1652.71
245.07	1689.57
245.29	1796.07
245.51	1658.85
245.72	1691.62
245.94	1806.31
246.16	1763.30
246.38	1820.64
246.59	1720.29
246.81	1681.38
247.03	1640.42
247.24	1642.47
247.46	1619.94
247.68	1691.62
247.90	1689.57
248.11	1681.38
248.33	1697.77
248.55	1738.73
248.77	1746.92
248.98	1701.86
249.20	1781.73
249.42	1687.53
249.64	1720.29
249.85	1607.66
250.07	1691.62
250.29	1683.43
250.50	1708.01
250.72	1605.61
250.94	1751.01
251.16	1828.84
251.37	1791.97
251.59	1693.67
251.81	1720.29
252.02	1789.92
252.24	1603.56
252.46	1806.31
252.68	1624.04
252.89	1619.94
253.11	1621.99
253.33	1812.45
253.54	1779.68
253.76	1671.14
253.98	1624.04
254.20	1624.04
254.41	1636.33
254.63	1714.15
254.85	1683.43
255.06	1732.58
255.28	1658.85
255.50	1703.91
255.71	1613.80
255.93	1673.19
256.15	1683.43
256.36	1650.66
256.58	1705.96
256.80	1730.53
257.02	1724.39
257.23	1675.24
257.45	1714.15
257.67	1744.87
257.88	1656.81
258.10	1734.63
258.32	1724.39
258.53	1710.05
258.75	1800.16
258.97	1665.00
259.18	1662.95
259.40	1613.80
259.62	1791.97
259.83	1789.92
260.05	1689.57
260.27	1964.00
260.48	1789.92
260.70	1708.01
260.92	1662.95
261.13	1699.81
261.35	1718.25
261.57	1708.01
261.78	1593.32
262.00	1648.61
262.22	1738.73
262.43	1642.47
262.65	1736.68
262.86	1716.20
263.08	1898.47
263.30	1675.24
263.51	1619.94
263.73	1689.57
263.95	1765.35
264.16	1615.85
264.38	1683.43
264.60	1720.29
264.81	1751.01
265.03	1658.85
265.25	1808.36
265.46	1697.77
265.68	1808.36
265.89	1742.82
266.11	1613.80
266.33	1781.73
266.54	1767.40
266.76	1757.16
266.98	1687.53
267.19	1736.68
267.41	1757.16
267.62	1669.09
267.84	1560.55
268.06	1757.16
268.27	1609.70
268.49	1849.32
268.70	1759.21
268.92	1689.57
269.14	1630.18
269.35	1640.42
269.57	1738.73
269.79	1722.34
270.00	1708.01
270.22	1716.20
270.43	1679.33
270.65	1615.85
270.87	1712.10
271.08	1728.49
271.30	1789.92
271.51	1648.61
271.73	1728.49
271.95	1667.05
272.16	1677.29
272.38	1703.91
272.59	1763.30
272.81	1757.16
273.02	1730.53
273.24	1673.19
273.46	1767.40
273.67	1570.79
273.89	1619.94
274.10	1603.56
274.32	1742.82
274.54	1681.38
274.75	1710.05
274.97	1660.90
275.18	1673.19
275.40	1751.01
275.61	1689.57
275.83	1755.11
276.05	1667.05
276.26	1675.24
276.48	1701.86
276.69	1708.01
276.91	1611.75
277.12	1740.77
277.34	1789.92
277.55	1751.01
277.77	1683.43
277.99	1644.52
278.20	1693.67
278.42	1673.19
278.63	1644.52
278.85	1652.71
279.06	1636.33
279.28	1726.44
279.49	1693.67
279.71	1814.50
279.93	1728.49
280.14	1701.86
280.36	1673.19
280.57	1810.40
280.79	1699.81
281.00	1691.62
281.22	1720.29
281.43	1773.54
281.65	1576.94
281.86	1607.66
282.08	1730.53
282.29	1849.32
282.51	1621.99
282.73	1685.48
282.94	1597.42
283.16	1710.05
283.37	1810.40
283.59	1726.44
283.80	1796.07
284.02	1646.57
284.23	1662.95
284.45	1681.38
284.66	1617.90
284.88	1689.57
285.09	1667.05
285.31	1724.39
285.52	1714.15
285.74	1648.61
285.95	1808.36
286.17	1765.35
286.38	1806.31
286.60	1708.01
286.81	1566.70
287.03	1757.16
287.24	1683.43
287.46	1675.24
287.67	1726.44
287.89	1767.40
288.10	1765.35
288.32	1712.10
288.53	1755.11
288.75	1656.81
288.96	1703.91
289.18	1675.24
289.39	1714.15
289.61	1722.34
289.82	1839.08
290.04	1755.11
290.25	1570.79
290.47	1632.23
290.68	1705.96
290.90	1734.63
291.11	1607.66
291.33	1759.21
291.54	1701.86
291.76	1591.27
291.97	1689.57
292.18	1769.44
292.40	1683.43
292.61	1658.85
292.83	1748.97
293.04	1753.06
293.26	1781.73
293.47	1732.58
293.69	1630.18
293.90	1726.44
294.12	1730.53
294.33	1718.25
294.55	1708.01
294.76	1748.97
294.97	1765.35
295.19	1789.92
295.40	1701.86
295.62	1699.81
295.83	1718.25
296.05	1691.62
296.26	1738.73
296.48	1677.29
296.69	1708.01
296.90	1728.49
297.12	1740.77
297.33	1779.68
297.55	1687.53
297.76	1767.40
297.98	1726.44
298.19	1734.63
298.41	1783.78
298.62	1607.66
298.83	1796.07
299.05	1687.53
299.26	1607.66
299.48	1640.42
299.69	1714.15
299.90	1712.10
300.12	1621.99
300.33	1691.62
300.55	1716.20
300.76	1636.33
300.98	1650.66
301.19	1705.96
301.40	1654.76
301.62	1652.71
301.83	1740.77
302.05	1642.47
302.26	1734.63
302.47	1716.20
302.69	1626.09
302.90	1673.19
303.12	1626.09
303.33	1699.81
303.54	1832.93
303.76	1656.81
303.97	1687.53
304.19	1843.17
304.40	1619.94
304.61	1740.77
304.83	1789.92
305.04	1763.30
305.26	1755.11
305.47	1671.14
305.68	1763.30
305.90	1574.89
306.11	1800.16
306.33	1669.09
306.54	1701.86
306.75	1656.81
306.97	1591.27
307.18	1691.62
307.39	1615.85
307.61	1763.30
307.82	1730.53
308.04	1697.77
308.25	1677.29
308.46	1757.16
308.68	1755.11
308.89	1683.43
309.10	1724.39
309.32	1669.09
309.53	1724.39
309.74	1738.73
309.96	1701.86
310.17	1779.68
310.39	1703.91
310.60	1691.62
310.81	1757.16
311.03	1624.04
311.24	1738.73
311.45	1701.86
311.67	1820.64
311.88	1767.40
312.09	1675.24
312.31	1685.48
312.52	1683.43
312.73	1669.09
312.95	1671.14
313.16	1669.09
313.37	1736.68
313.59	1802.21
313.80	1732.58
314.01	1837.03
314.23	1648.61
314.44	1660.90
314.65	1634.28
314.87	1607.66
315.08	1673.19
315.29	1681.38
315.51	1669.09
315.72	1656.81
315.93	1748.97
316.15	1763.30
316.36	1632.23
316.57	1742.82
316.79	1824.74
317.00	1667.05
317.21	1710.05
317.43	1720.29
317.64	1775.59
317.85	1695.72
318.07	1671.14
318.28	1759.21
318.49	1771.49
318.70	1886.18
318.92	1877.99
319.13	1847.27
319.34	1845.22
319.56	1841.12
319.77	1800.16
319.98	1748.97
320.20	1748.97
320.41	1740.77
320.62	1775.59
320.83	1576.94
321.05	1812.45
321.26	1710.05
321.47	1658.85
321.69	1841.12
321.90	1650.66
322.11	1648.61
322.32	1669.09
322.54	1718.25
322.75	1687.53
322.96	1861.60
323.18	1658.85
323.39	1605.61
323.60	1615.85
323.81	1830.88
324.03	1730.53
324.24	1683.43
324.45	1683.43
324.66	1665.00
324.88	1820.64
325.09	1744.87
325.30	1667.05
325.52	1697.77
325.73	1738.73
325.94	1648.61
326.15	1607.66
326.37	1679.33
326.58	1726.44
326.79	1851.36
327.00	1621.99
327.22	1644.52
327.43	1669.09
327.64	1607.66
327.85	1671.14
328.07	1691.62
328.28	1845.22
328.49	1662.95
328.70	1673.19
328.92	1716.20
329.13	1771.49
329.34	1740.77
329.55	1738.73
329.76	1773.54
329.98	1691.62
330.19	1779.68
330.40	1646.57
330.61	1685.48
330.83	1708.01
331.04	1552.36
331.25	1708.01
331.46	1681.38
331.68	1591.27
331.89	1814.50
332.10	1640.42
332.31	1650.66
332.52	1673.19
332.74	1808.36
332.95	1538.02
333.16	1681.38
333.37	1732.58
333.58	1699.81
333.80	1687.53
334.01	1591.27
334.22	1669.09
334.43	1720.29
334.64	1669.09
334.86	1632.23
335.07	1644.52
335.28	1744.87
335.49	1591.27
335.70	1689.57
335.92	1834.98
336.13	1886.18
336.34	1705.96
336.55	1746.92
336.76	1720.29
336.98	1570.79
337.19	1636.33
337.40	1785.83
337.61	1863.65
337.82	1652.71
338.04	1753.06
338.25	1607.66
338.46	1667.05
338.67	1732.58
338.88	1658.85
339.09	1593.32
339.31	1613.80
339.52	1583.08
339.73	1583.08
339.94	1693.67
340.15	1775.59
340.36	1677.29
340.58	1736.68
340.79	1613.80
341.00	1703.91
341.21	1665.00
341.42	1806.31
341.63	1716.20
341.85	1738.73
342.06	1722.34
342.27	1626.09
342.48	1734.63
342.69	1687.53
342.90	1730.53
343.12	1695.72
343.33	1660.90
343.54	1812.45
343.75	1822.69
343.96	1708.01
344.17	1615.85
344.38	1673.19
344.60	1669.09
344.81	1675.24
345.02	1748.97
345.23	1810.40
345.44	1789.92
345.65	1701.86
345.86	1705.96
346.07	1689.57
346.29	1683.43
346.50	1738.73
346.71	1736.68
346.92	1730.53
347.13	1708.01
347.34	1671.14
347.55	1624.04
347.76	1697.77
347.98	1628.14
348.19	1599.46
348.40	1703.91
348.61	1681.38
348.82	1734.63
349.03	1759.21
349.24	1617.90
349.45	1814.50
349.66	1558.50
349.88	1718.25
350.09	1619.94
350.30	1767.40
350.51	1804.26
350.72	1746.92
350.93	1714.15
351.14	1626.09
351.35	1724.39
351.56	1669.09
351.77	1662.95
351.99	1781.73
352.20	1789.92
352.41	1775.59
352.62	1560.55
352.83	1689.57
353.04	1714.15
353.25	1677.29
353.46	1763.30
353.67	1759.21
353.88	1611.75
354.09	1765.35
354.30	1708.01
354.52	1691.62
354.73	1726.44
354.94	1679.33
355.15	1683.43
355.36	1830.88
355.57	1751.01
355.78	1669.09
355.99	1613.80
356.20	1761.25
356.41	1744.87
356.62	1662.95
356.83	1677.29
357.04	1880.04
357.25	1509.35
357.46	1658.85
357.68	1578.98
357.89	1701.86
358.10	1714.15
358.31	1705.96
358.52	1701.86
358.73	1638.38
358.94	1591.27
359.15	1695.72
359.36	1701.86
359.57	1720.29
359.78	1751.01
359.99	1763.30
360.20	1583.08
360.41	1638.38
360.62	1705.96
360.83	1716.20
361.04	1757.16
361.25	1679.33
361.46	1773.54
361.67	1794.02
361.88	1703.91
362.09	1693.67
362.30	1806.31
362.51	1697.77
362.72	1687.53
362.93	1789.92
363.14	1753.06
363.35	1746.92
363.56	1669.09
363.78	1748.97
363.99	1751.01
364.20	1675.24
364.41	1691.62
364.62	1849.32
364.83	1714.15
365.04	1652.71
365.25	1755.11
365.46	1843.17
365.67	1679.33
365.88	1671.14
366.09	1718.25
366.30	1703.91
366.51	1699.81
366.72	1677.29
366.93	1708.01
367.14	1658.85
367.35	1744.87
367.56	1751.01
367.77	1738.73
367.98	1667.05
368.18	1685.48
368.39	1779.68
368.60	1597.42
368.81	1736.68
369.02	1660.90
369.23	1640.42
369.44	1531.88
369.65	1695.72
369.86	1726.44
370.07	1742.82
370.28	1630.18
370.49	1712.10
370.70	1738.73
370.91	1646.57
371.12	1648.61
371.33	1767.40
371.54	1656.81
371.75	1740.77
371.96	1630.18
372.17	1697.77
372.38	1716.20
372.59	1800.16
372.80	1744.87
373.01	1689.57
373.22	1697.77
373.43	1710.05
373.64	1679.33
373.85	1787.88
374.06	1777.64
374.26	1765.35
374.47	1689.57
374.68	1816.55
374.89	1767.40
375.10	1665.00
375.31	1728.49
375.52	1632.23
375.73	1765.35
375.94	1660.90
376.15	1789.92
376.36	1710.05
376.57	1652.71
376.78	1726.44
376.99	1695.72
377.20	1746.92
377.40	1566.70
377.61	1837.03
377.82	1648.61
378.03	1722.34
378.24	1800.16
378.45	1710.05
378.66	1714.15
378.87	1599.46
379.08	1630.18
379.29	1667.05
379.50	1710.05
379.71	1632.23
379.91	1669.09
380.12	1566.70
380.33	1648.61
380.54	1646.57
380.75	1697.77
380.96	1710.05
381.17	1802.21
381.38	1783.78
381.59	1734.63
381.80	1712.10
382.00	1828.84
382.21	1714.15
382.42	1808.36
382.63	1794.02
382.84	1742.82
383.05	1798.12
383.26	1789.92
383.47	1775.59
383.68	1714.15
383.88	1781.73
384.09	1697.77
384.30	1775.59
384.51	1769.44
384.72	1669.09
384.93	1550.31
385.14	1763.30
385.35	1763.30
385.55	1753.06
385.76	1779.68
385.97	1673.19
386.18	1601.51
386.39	1646.57
386.60	1677.29
386.81	1738.73
387.02	1636.33
387.22	1650.66
387.43	1720.29
387.64	1736.68
387.85	1910.75
388.06	2191.33
388.27	4372.41
388.48	7034.77
388.68	8263.55
388.89	9777.00
389.10	9928.55
389.31	8857.46
389.52	7845.77
389.73	6784.92
389.93	6416.29
390.14	5961.64
390.35	5388.21
390.56	4558.78
390.77	3878.85
390.98	2973.65
391.18	2580.44
391.39	2070.50
391.60	1847.27
391.81	1857.51
392.02	1726.44
392.23	1861.60
392.43	1765.35
392.64	1765.35
392.85	1685.48
393.06	1857.51
393.27	1644.52
393.47	1769.44
393.68	1781.73
393.89	1683.43
394.10	1820.64
394.31	1697.77
394.52	1677.29
394.72	1652.71
394.93	1757.16
395.14	1599.46
395.35	1705.96
395.56	1677.29
395.76	1794.02
395.97	1820.64
396.18	1751.01
396.39	1763.30
396.60	1929.19
396.80	1837.03
397.01	1837.03
397.22	1787.88
397.43	1763.30
397.64	1712.10
397.84	1722.34
398.05	1816.55
398.26	1740.77
398.47	1767.40
398.67	1820.64
398.88	1773.54
399.09	1744.87
399.30	1628.14
399.51	1658.85
399.71	1710.05
399.92	1607.66
400.13	1746.92
400.34	1691.62
400.54	1695.72
400.75	1724.39
400.96	1755.11
401.17	1783.78
401.37	1714.15
401.58	1703.91
401.79	1619.94
402.00	1853.41
402.21	1949.67
402.41	1984.48
402.62	2021.35
402.83	1988.58
403.04	1910.75
403.24	2009.06
403.45	1957.86
403.66	1986.53
403.87	1904.61
404.07	1837.03
404.28	1912.80
404.49	1841.12
404.70	1787.88
404.90	1765.35
405.11	1755.11
405.32	1714.15
405.52	1675.24
405.73	1640.42
405.94	1677.29
406.15	1708.01
406.35	1751.01
406.56	1746.92
406.77	1755.11
406.98	1736.68
407.18	1648.61
407.39	1877.99
407.60	1751.01
407.80	1773.54
408.01	1701.86
408.22	1742.82
408.43	1662.95
408.63	1734.63
408.84	1714.15
409.05	1830.88
409.25	1689.57
409.46	1687.53
409.67	1738.73
409.88	1615.85
410.08	1693.67
410.29	1644.52
410.50	1773.54
410.70	1757.16
410.91	1660.90
411.12	1726.44
411.32	1691.62
411.53	1683.43
411.74	1816.55
411.95	1810.40
412.15	1806.31
412.36	1748.97
412.57	1843.17
412.77	1787.88
412.98	1705.96
413.19	1703.91
413.39	1695.72
413.60	1763.30
413.81	1810.40
414.01	1628.14
414.22	1759.21
414.43	1808.36
414.63	1628.14
414.84	1867.75
415.05	1748.97
415.25	1585.13
415.46	1730.53
415.67	1722.34
415.87	1728.49
416.08	1718.25
416.29	1693.67
416.49	1697.77
416.70	1769.44
416.91	1691.62
417.11	1710.05
417.32	1755.11
417.53	1742.82
417.73	1708.01
417.94	1710.05
418.15	1732.58
418.35	1736.68
418.56	1697.77
418.77	1830.88
418.97	1695.72
419.18	1652.71
419.38	1570.79
419.59	1626.09
419.80	1728.49
420.00	1734.63
420.21	1757.16
420.42	1814.50
420.62	1718.25
420.83	1693.67
421.04	1656.81
421.24	1697.77
421.45	1779.68
421.65	1730.53
421.86	1626.09
422.07	1679.33
422.27	1730.53
422.48	1695.72
422.69	1662.95
422.89	1710.05
423.10	1671.14
423.30	1753.06
423.51	1771.49
423.72	1751.01
423.92	1716.20
424.13	1615.85
424.33	1716.20
424.54	1736.68
424.75	1736.68
424.95	1769.44
425.16	1699.81
425.36	1634.28
425.57	1740.77
425.78	1734.63
425.98	1726.44
426.19	1665.00
426.39	1654.76
426.60	1636.33
426.81	1804.26
427.01	1775.59
427.22	1652.71
427.42	1626.09
427.63	1660.90
427.83	1775.59
428.04	1789.92
428.25	1800.16
428.45	1761.25
428.66	1734.63
428.86	1712.10
429.07	1656.81
429.28	1685.48
429.48	1701.86
429.69	1671.14
429.89	1720.29
430.10	1593.32
430.30	1843.17
430.51	1800.16
430.71	1710.05
430.92	1683.43
431.13	1650.66
431.33	1697.77
431.54	1685.48
431.74	1779.68
431.95	1765.35
432.15	1699.81
432.36	1722.34
432.56	1734.63
432.77	1791.97
432.98	1843.17
433.18	1769.44
433.39	1746.92
433.59	1742.82
433.80	1755.11
434.00	1834.98
434.21	1714.15
434.41	1644.52
434.62	1861.60
434.82	1689.57
435.03	1730.53
435.23	1722.34
435.44	1578.98
435.64	1689.57
435.85	1685.48
436.06	1708.01
436.26	1722.34
436.47	1794.02
436.67	1658.85
436.88	1738.73
437.08	1769.44
437.29	1849.32
437.49	1769.44
437.70	1755.11
437.90	1710.05
438.11	1830.88
438.31	1708.01
438.52	1812.45
438.72	1855.46
438.93	1839.08
439.13	1710.05
439.34	1714.15
439.54	1789.92
439.75	1701.86
439.95	1734.63
440.16	1726.44
440.36	1693.67
440.57	1730.53
440.77	1814.50
440.98	1705.96
441.18	1708.01
441.39	1701.86
441.59	1699.81
441.80	1847.27
442.00	1746.92
442.21	1777.64
442.41	1677.29
442.62	1779.68
442.82	1697.77
443.02	1742.82
443.23	1685.48
443.43	1693.67
443.64	1806.31
443.84	1652.71
444.05	1767.40
444.25	1744.87
444.46	1656.81
444.66	1712.10
444.87	1742.82
445.07	1677.29
445.28	1716.20
445.48	1814.50
445.69	1837.03
445.89	1859.56
446.09	1738.73
446.30	2054.11
446.50	2705.37
446.71	3801.03
446.91	4411.32
447.12	4874.17
447.32	4769.72
447.53	4384.70
447.73	3887.04
447.93	3508.17
448.14	3321.81
448.34	3289.04
448.55	3088.34
448.75	2840.53
448.96	2729.94
449.16	2344.92
449.36	2263.01
449.57	2009.06
449.77	1912.80
449.98	1734.63
450.18	1810.40
450.39	1794.02
450.59	1791.97
450.79	1751.01
451.00	1718.25
451.20	1767.40
451.41	1742.82
451.61	1771.49
451.81	1746.92
452.02	1650.66
452.22	1693.67
452.43	1718.25
452.63	1730.53
452.84	1714.15
453.04	1683.43
453.24	1744.87
453.45	1751.01
453.65	1738.73
453.86	1779.68
454.06	1763.30
454.26	1722.34
454.47	1658.85
454.67	1808.36
454.87	1701.86
455.08	1722.34
455.28	1892.32
455.49	1796.07
455.69	1726.44
455.89	1843.17
456.10	1806.31
456.30	1746.92
456.51	1787.88
456.71	1794.02
456.91	1777.64
457.12	1746.92
457.32	1724.39
457.52	1642.47
457.73	1789.92
457.93	1718.25
458.14	1689.57
458.34	1648.61
458.54	1703.91
458.75	1691.62
458.95	1761.25
459.15	1720.29
459.36	1791.97
459.56	1724.39
459.76	1847.27
459.97	1800.16
460.17	1732.58
460.37	1765.35
460.58	1734.63
460.78	1814.50
460.99	1765.35
461.19	1824.74
461.39	1716.20
461.60	1744.87
461.80	1736.68
462.00	1568.74
462.21	1736.68
462.41	1716.20
462.61	1591.27
462.82	1609.70
463.02	1722.34
463.22	1640.42
463.43	1761.25
463.63	1738.73
463.83	1796.07
464.04	1771.49
464.24	1626.09
464.44	1699.81
464.64	1726.44
464.85	1783.78
465.05	1701.86
465.25	1701.86
465.46	1656.81
465.66	1785.83
465.86	1689.57
466.07	1734.63
466.27	1746.92
466.47	1587.18
466.68	1574.89
466.88	1789.92
467.08	1800.16
467.29	1722.34
467.49	1791.97
467.69	1685.48
467.89	1798.12
468.10	1740.77
468.30	1724.39
468.50	1806.31
468.71	1726.44
468.91	1638.38
469.11	1816.55
469.31	1660.90
469.52	1767.40
469.72	1734.63
469.92	1820.64
470.13	1687.53
470.33	1748.97
470.53	1920.99
470.73	2066.40
470.94	2246.62
471.14	2273.25
471.34	2533.34
471.54	2455.51
471.75	2199.52
471.95	2086.88
472.15	2037.73
472.36	2045.92
472.56	2033.63
472.76	2017.25
472.96	1961.95
473.17	1923.04
473.37	1867.75
473.57	1765.35
473.77	1814.50
473.98	1732.58
474.18	1722.34
474.38	1830.88
474.58	1710.05
474.79	1701.86
474.99	1773.54
475.19	1705.96
475.39	1714.15
475.60	1742.82
475.80	1746.92
476.00	1759.21
476.20	1705.96
476.41	1716.20
476.61	1847.27
476.81	1802.21
477.01	1675.24
477.21	1861.60
477.42	1804.26
477.62	1642.47
477.82	1771.49
478.02	1755.11
478.23	1740.77
478.43	1683.43
478.63	1675.24
478.83	1724.39
479.03	1718.25
479.24	1751.01
479.44	1771.49
479.64	1687.53
479.84	1603.56
480.04	1720.29
480.25	1687.53
480.45	1693.67
480.65	1644.52
480.85	1802.21
481.06	1644.52
481.26	1722.34
481.46	1724.39
481.66	1720.29
481.86	1665.00
482.06	1853.41
482.27	1769.44
482.47	1701.86
482.67	1703.91
482.87	1703.91
483.07	1806.31
483.28	1660.90
483.48	1632.23
483.68	1671.14
483.88	1609.70
484.08	1566.70
484.29	1634.28
484.49	1746.92
484.69	1654.76
484.89	1810.40
485.09	1791.97
485.29	1767.40
485.50	1779.68
485.70	1671.14
485.90	1759.21
486.10	1804.26
486.30	1701.86
486.50	1748.97
486.71	1722.34
486.91	1705.96
487.11	1802.21
487.31	1656.81
487.51	1675.24
487.71	1656.81
487.91	1605.61
488.12	1675.24
488.32	1646.57
488.52	1679.33
488.72	1628.14
488.92	1720.29
489.12	1675.24
489.32	1820.64
489.53	1798.12
489.73	1677.29
489.93	1789.92
490.13	1685.48
490.33	1621.99
490.53	1767.40
490.73	1765.35
490.94	1656.81
491.14	1738.73
491.34	1828.84
491.54	2070.50
491.74	2512.86
491.94	2883.54
492.14	3069.91
492.34	2992.08
492.54	2688.98
492.75	2406.36
492.95	2394.08
493.15	2404.32
493.35	2344.92
493.55	2250.72
493.75	2111.46
493.95	2119.65
494.15	2013.15
494.35	1910.75
494.56	1869.80
494.76	1832.93
494.96	1720.29
495.16	1812.45
495.36	1699.81
495.56	1724.39
495.76	1697.77
495.96	1755.11
496.16	1718.25
496.36	1839.08
496.56	1738.73
496.77	1753.06
496.97	1687.53
497.17	1796.07
497.37	1658.85
497.57	1822.69
497.77	1759.21
497.97	1609.70
498.17	1759.21
498.37	1689.57
498.57	1734.63
498.77	1755.11
498.97	1796.07
499.17	1816.55
499.38	1705.96
499.58	1769.44
499.78	1738.73
499.98	1751.01
500.18	1695.72
500.38	1783.78
500.58	1941.47
500.78	2572.25
500.98	4521.92
501.18	5771.18
501.38	6901.65
501.58	7298.96
501.78	6535.07
501.98	5670.83
502.18	4972.47
502.38	4448.19
502.58	4073.41
502.78	3885.00
502.98	3653.58
503.18	3469.26
503.38	3190.74
503.59	2840.53
503.79	2641.88
503.99	2527.19
504.19	2291.68
504.39	2127.84
504.59	2129.89
504.79	2125.79
504.99	2066.40
505.19	1890.28
505.39	1953.76
505.59	1978.34
505.79	1943.52
505.99	1859.56
506.19	1890.28
506.39	1886.18
506.59	1742.82
506.79	1724.39
506.99	1818.60
507.19	1656.81
507.39	1783.78
507.59	1685.48
507.79	1677.29
507.99	1701.86
508.19	1712.10
508.39	1738.73
508.59	1652.71
508.79	1796.07
508.99	1834.98
509.19	1697.77
509.39	1837.03
509.59	1665.00
509.79	1728.49
509.99	1716.20
510.19	1818.60
510.39	1812.45
510.59	1656.81
510.79	1714.15
510.99	1662.95
511.19	1685.48
511.39	1820.64
511.59	1841.12
511.79	1775.59
511.99	1746.92
512.19	1820.64
512.38	1730.53
512.58	1746.92
512.78	1720.29
512.98	1818.60
513.18	1832.93
513.38	1669.09
513.58	1748.97
513.78	1665.00
513.98	1765.35
514.18	1722.34
514.38	1738.73
514.58	1683.43
514.78	1619.94
514.98	1687.53
515.18	1619.94
515.38	1587.18
515.58	1787.88
515.78	1720.29
515.98	1781.73
516.18	1765.35
516.38	1714.15
516.57	1722.34
516.77	1742.82
516.97	1824.74
517.17	1726.44
517.37	1656.81
517.57	1796.07
517.77	1748.97
517.97	1636.33
518.17	1800.16
518.37	1708.01
518.57	1677.29
518.77	1658.85
518.97	1738.73
519.16	1773.54
519.36	1818.60
519.56	1628.14
519.76	1759.21
519.96	1705.96
520.16	1810.40
520.36	1656.81
520.56	1783.78
520.76	1642.47
520.96	1658.85
521.16	1822.69
521.35	1800.16
521.55	1880.04
521.75	1712.10
521.95	1755.11
522.15	1681.38
522.35	1650.66
522.55	1708.01
522.75	1806.31
522.95	1699.81
523.14	1720.29
523.34	1712.10
523.54	1732.58
523.74	1814.50
523.94	1744.87
524.14	1665.00
524.34	1796.07
524.54	1910.75
524.73	1693.67
524.93	1814.50
525.13	1732.58
525.33	1605.61
525.53	1859.56
525.73	1728.49
525.93	1820.64
526.13	1710.05
526.32	1675.24
526.52	1808.36
526.72	1798.12
526.92	1765.35
527.12	1847.27
527.32	1679.33
527.52	1761.25
527.71	1771.49
527.91	1671.14
528.11	1662.95
528.31	1705.96
528.51	1734.63
528.71	1837.03
528.90	1834.98
529.10	1802.21
529.30	1773.54
529.50	1609.70
529.70	1767.40
529.90	1746.92
530.09	1742.82
530.29	1708.01
530.49	1699.81
530.69	1886.18
530.89	1714.15
531.09	1742.82
531.28	1732.58
531.48	1757.16
531.68	1773.54
531.88	1708.01
532.08	1759.21
532.28	1699.81
532.47	1794.02
532.67	1785.83
532.87	1757.16
533.07	1660.90
533.27	1746.92
533.46	1710.05
533.66	1765.35
533.86	1716.20
534.06	1742.82
534.26	1705.96
534.45	1572.84
534.65	1744.87
534.85	1718.25
535.05	1681.38
535.25	1785.83
535.44	1675.24
535.64	1751.01
535.84	1753.06
536.04	1720.29
536.24	1708.01
536.43	1734.63
536.63	1826.79
536.83	1742.82
537.03	1804.26
537.22	1630.18
537.42	1632.23
537.62	1710.05
537.82	1746.92
538.02	1822.69
538.21	1828.84
538.41	1882.08
538.61	1736.68
538.81	1697.77
539.00	1810.40
539.20	1654.76
539.40	1775.59
539.60	1710.05
539.79	1769.44
539.99	1695.72
540.19	1644.52
540.39	1689.57
540.58	1767.40
540.78	1746.92
540.98	1771.49
541.18	1826.79
541.37	1841.12
541.57	1708.01
541.77	1830.88
541.97	1677.29
542.16	1632.23
542.36	1624.04
542.56	1677.29
542.76	1787.88
542.95	1736.68
543.15	1748.97
543.35	1767.40
543.54	1730.53
543.74	1767.40
543.94	1761.25
544.14	1728.49
544.33	1779.68
544.53	1742.82
544.73	1720.29
544.93	1679.33
545.12	1671.14
545.32	1722.34
545.52	1777.64
545.71	1681.38
545.91	1677.29
546.11	1708.01
546.30	1677.29
546.50	1753.06
546.70	1665.00
546.90	1779.68
547.09	1576.94
547.29	1714.15
547.49	1767.40
547.68	1718.25
547.88	1699.81
548.08	1746.92
548.27	2209.76
548.47	1738.73
548.67	1783.78
548.87	1732.58
549.06	1748.97
549.26	1781.73
549.46	1773.54
549.65	1714.15
549.85	1640.42
550.05	1798.12
550.24	1724.39
550.44	1751.01
550.64	1708.01
550.83	1783.78
551.03	1767.40
551.23	1804.26
551.42	1740.77
551.62	1734.63
551.82	1738.73
552.01	1681.38
552.21	1802.21
552.41	1701.86
552.60	1804.26
552.80	1679.33
553.00	1667.05
553.19	1802.21
553.39	1871.84
553.59	1654.76
553.78	1783.78
553.98	1751.01
554.17	1673.19
554.37	1751.01
554.57	1738.73
554.76	1716.20
554.96	1681.38
555.16	1763.30
555.35	1746.92
555.55	1734.63
555.75	1748.97
555.94	1730.53
556.14	1648.61
556.33	1820.64
556.53	1757.16
556.73	1759.21
556.92	1757.16
557.12	1863.65
557.32	1865.70
557.51	1808.36
557.71	1722.34
557.90	1802.21
558.10	1828.84
558.30	1759.21
558.49	1710.05
558.69	1732.58
558.88	1726.44
559.08	1783.78
559.28	1624.04
559.47	1769.44
559.67	1755.11
559.86	1847.27
560.06	1789.92
560.26	1789.92
560.45	1824.74
560.65	1681.38
560.84	1822.69
561.04	1677.29
561.24	1759.21
561.43	1646.57
561.63	1789.92
561.82	1781.73
562.02	1779.68
562.22	1724.39
562.41	1685.48
562.61	1720.29
562.80	1640.42
563.00	1822.69
563.19	1808.36
563.39	1773.54
563.59	1751.01
563.78	1667.05
563.98	1673.19
564.17	1740.77
564.37	1636.33
564.56	1724.39
564.76	1662.95
564.96	1826.79
565.15	1810.40
565.35	1898.47
565.54	1744.87
565.74	1826.79
565.93	1720.29
566.13	1718.25
566.32	1822.69
566.52	1740.77
566.71	1738.73
566.91	1767.40
567.11	1710.05
567.30	1677.29
567.50	1845.22
567.69	1783.78
567.89	1787.88
568.08	1695.72
568.28	1785.83
568.47	1742.82
568.67	1757.16
568.86	1710.05
569.06	1812.45
569.25	1689.57
569.45	1632.23
569.64	1671.14
569.84	1685.48
570.04	1712.10
570.23	1632.23
570.43	1677.29
570.62	1703.91
570.82	1802.21
571.01	1726.44
571.21	1771.49
571.40	1669.09
571.60	1834.98
571.79	1759.21
571.99	1773.54
572.18	1648.61
572.38	1759.21
572.57	1716.20
572.77	1683.43
572.96	1947.62
573.16	1828.84
573.35	1701.86
573.55	1751.01
573.74	1814.50
573.94	1642.47
574.13	1751.01
574.33	1765.35
574.52	1853.41
574.71	1740.77
574.91	1783.78
575.10	1730.53
575.30	1703.91
575.49	1667.05
575.69	1710.05
575.88	1808.36
576.08	1701.86
576.27	1806.31
576.47	1683.43
576.66	1800.16
576.86	1851.36
577.05	1738.73
577.25	1834.98
577.44	1869.80
577.64	1748.97
577.83	1775.59
578.02	1748.97
578.22	1789.92
578.41	1845.22
578.61	1779.68
578.80	1691.62
579.00	1781.73
579.19	1718.25
579.39	1744.87
579.58	1738.73
579.77	1695.72
579.97	1814.50
580.16	1877.99
580.36	1816.55
580.55	1925.09
580.75	1769.44
580.94	1781.73
581.13	1877.99
581.33	1800.16
581.52	1728.49
581.72	1947.62
581.91	1820.64
582.11	1699.81
582.30	1837.03
582.49	1798.12
582.69	1865.70
582.88	1785.83
583.08	1693.67
583.27	1771.49
583.47	1738.73
583.66	1671.14
583.85	1689.57
584.05	1744.87
584.24	1808.36
584.44	1755.11
584.63	1841.12
584.82	1806.31
585.02	1783.78
585.21	1804.26
585.41	1847.27
585.60	1740.77
585.79	1898.47
585.99	1906.66
586.18	1824.74
586.37	2201.57
586.57	3475.40
586.76	10356.58
586.96	25386.62
587.15	35229.16
587.34	41438.60
587.54	43177.33
587.73	37369.29
587.93	27102.82
588.12	22165.17
588.31	18646.76
588.51	16811.78
588.70	15394.58
588.89	14473.00
589.09	13039.42
589.28	11020.12
589.47	9678.70
589.67	8261.51
589.86	6289.31
590.06	4911.03
590.25	4122.56
590.44	3137.49
590.64	2490.33
590.83	2244.57
591.02	2058.21
591.22	1912.80
591.41	1865.70
591.60	1822.69
591.80	1957.86
591.99	1736.68
592.18	1839.08
592.38	1865.70
592.57	1722.34
592.76	1791.97
592.96	1826.79
593.15	1800.16
593.34	1789.92
593.54	1742.82
593.73	1783.78
593.92	1894.37
594.12	1789.92
594.31	1763.30
594.50	1794.02
594.70	1775.59
594.89	1816.55
595.08	1718.25
595.28	1755.11
595.47	1937.38
595.66	1855.46
595.86	1691.62
596.05	1736.68
596.24	1732.58
596.43	1859.56
596.63	1783.78
596.82	1771.49
597.01	1767.40
597.21	1818.60
597.40	1724.39
597.59	1708.01
597.79	1746.92
597.98	1757.16
598.17	1744.87
598.36	1710.05
598.56	1800.16
598.75	1671.14
598.94	1775.59
599.14	1812.45
599.33	1767.40
599.52	1740.77
599.71	1777.64
599.91	1781.73
600.10	1800.16
600.29	1755.11
600.48	1753.06
600.68	1808.36
600.87	1822.69
601.06	1708.01
601.26	1791.97
601.45	1724.39
601.64	1738.73
601.83	1697.77
602.03	1689.57
602.22	1681.38
602.41	1794.02
602.60	1902.56
602.80	1726.44
602.99	1675.24
603.18	1730.53
603.37	1710.05
603.57	1681.38
603.76	1765.35
603.95	1746.92
604.14	1695.72
604.34	1697.77
604.53	1718.25
604.72	1738.73
604.91	1738.73
605.10	1726.44
605.30	1648.61
605.49	1902.56
605.68	1783.78
605.87	1751.01
606.07	1660.90
606.26	1705.96
606.45	1740.77
606.64	1746.92
606.84	1773.54
607.03	1718.25
607.22	1775.59
607.41	1691.62
607.60	1705.96
607.80	1789.92
607.99	1748.97
608.18	1718.25
608.37	1662.95
608.56	1685.48
608.76	1773.54
608.95	1802.21
609.14	1787.88
609.33	1726.44
609.52	1687.53
609.72	1712.10
609.91	1802.21
610.10	1671.14
610.29	1767.40
610.48	1798.12
610.68	1761.25
610.87	1734.63
611.06	1734.63
611.25	1742.82
611.44	1812.45
611.63	1742.82
611.83	1857.51
612.02	1673.19
612.21	1685.48
612.40	1540.07
612.59	1728.49
612.79	1621.99
612.98	1722.34
613.17	1763.30
613.36	1718.25
613.55	1837.03
613.74	1705.96
613.93	1769.44
614.13	1740.77
614.32	1708.01
614.51	1705.96
614.70	1710.05
614.89	1732.58
615.08	1728.49
615.28	2076.64
615.47	1669.09
615.66	1769.44
615.85	1703.91
616.04	1751.01
616.23	1744.87
616.42	1697.77
616.62	1785.83
616.81	1796.07
617.00	1751.01
617.19	1718.25
617.38	1669.09
617.57	1699.81
617.76	1736.68
617.95	1765.35
618.15	1726.44
618.34	1890.28
618.53	1691.62
618.72	1800.16
618.91	1808.36
619.10	1791.97
619.29	1644.52
619.48	1740.77
619.68	1648.61
619.87	1671.14
620.06	1703.91
620.25	1746.92
620.44	1669.09
620.63	1716.20
620.82	1824.74
621.01	1718.25
621.20	1652.71
621.39	1720.29
621.59	1687.53
621.78	1615.85
621.97	1660.90
622.16	1789.92
622.35	1796.07
622.54	1783.78
622.73	1806.31
622.92	1693.67
623.11	1773.54
623.30	1646.57
623.49	1755.11
623.68	1763.30
623.88	1755.11
624.07	1675.24
624.26	1710.05
624.45	1699.81
624.64	1722.34
624.83	1775.59
625.02	1779.68
625.21	1777.64
625.40	1669.09
625.59	1839.08
625.78	1724.39
625.97	1779.68
626.16	1724.39
626.35	1757.16
626.54	1693.67
626.74	1839.08
626.93	1697.77
627.12	1712.10
627.31	1847.27
627.50	1751.01
627.69	1726.44
627.88	1722.34
628.07	1775.59
628.26	1617.90
628.45	1675.24
628.64	1656.81
628.83	1738.73
629.02	1630.18
629.21	1667.05
629.40	1777.64
629.59	1656.81
629.78	1660.90
629.97	1697.77
630.16	1763.30
630.35	1705.96
630.54	1683.43
630.73	1673.19
630.92	1722.34
631.11	1679.33
631.30	1712.10
631.49	1769.44
631.68	1722.34
631.87	1732.58
632.06	1648.61
632.25	1904.61
632.44	1736.68
632.63	1722.34
632.82	1722.34
633.01	1697.77
633.20	1714.15
633.39	1626.09
633.58	1632.23
633.77	1751.01
633.96	1742.82
634.15	1736.68
634.34	1802.21
634.53	1695.72
634.72	1683.43
634.91	1597.42
635.10	1726.44
635.29	1765.35
635.48	1693.67
635.67	1615.85
635.86	1697.77
636.05	1740.77
636.24	1777.64
636.43	1687.53
636.62	1763.30
636.81	1615.85
637.00	1656.81
637.19	1771.49
637.38	1785.83
637.57	1673.19
637.76	1714.15
637.95	1753.06
638.14	1624.04
638.33	1671.14
638.52	1705.96
638.71	1636.33
638.89	1634.28
639.08	1808.36
639.27	1771.49
639.46	1648.61
639.65	1730.53
639.84	1767.40
640.03	1796.07
640.22	1703.91
640.41	1861.60
640.60	1757.16
640.79	1753.06
640.98	1736.68
641.17	1722.34
641.36	1763.30
641.55	1830.88
641.74	1667.05
641.92	1621.99
642.11	1636.33
642.30	1755.11
642.49	1665.00
642.68	1720.29
642.87	1767.40
643.06	1730.53
643.25	1714.15
643.44	1708.01
643.63	1673.19
643.82	1775.59
644.00	1656.81
644.19	1718.25
644.38	1638.38
644.57	1722.34
644.76	1740.77
644.95	1720.29
645.14	1765.35
645.33	1740.77
645.52	1669.09
645.71	1642.47
645.89	1693.67
646.08	1708.01
646.27	1683.43
646.46	1861.60
646.65	1650.66
646.84	1718.25
647.03	1738.73
647.22	1724.39
647.40	1673.19
647.59	1746.92
647.78	1689.57
647.97	1675.24
648.16	1687.53
648.35	1849.32
648.54	1802.21
648.73	1697.77
648.91	1759.21
649.10	1669.09
649.29	1699.81
649.48	1718.25
649.67	1703.91
649.86	1771.49
650.05	1714.15
650.23	1716.20
650.42	1624.04
650.61	1714.15
650.80	1705.96
650.99	1820.64
651.18	1728.49
651.36	1699.81
651.55	1667.05
651.74	1761.25
651.93	1693.67
652.12	1705.96
652.31	1685.48
652.49	1667.05
652.68	1689.57
652.87	1800.16
653.06	1816.55
653.25	1841.12
653.44	1697.77
653.62	1794.02
653.81	1675.24
654.00	1757.16
654.19	1798.12
654.38	1828.84
654.56	1779.68
654.75	1714.15
654.94	1791.97
655.13	1683.43
655.32	1658.85
655.51	1806.31
655.69	1648.61
655.88	1755.11
656.07	1718.25
656.26	1755.11
656.45	1722.34
656.63	1681.38
656.82	1814.50
657.01	1781.73
657.20	1683.43
657.38	1777.64
657.57	1710.05
657.76	1642.47
657.95	1753.06
658.14	1638.38
658.32	1681.38
658.51	1634.28
658.70	1728.49
658.89	1689.57
659.08	1705.96
659.26	1804.26
659.45	1677.29
659.64	1722.34
659.83	1718.25
660.01	1935.33
660.20	1712.10
660.39	1763.30
660.58	1566.70
660.76	1705.96
660.95	1591.27
661.14	1701.86
661.33	1636.33
661.51	1673.19
661.70	1665.00
661.89	1650.66
662.08	1732.58
662.26	1646.57
662.45	1630.18
662.64	1744.87
662.83	1804.26
663.01	1574.89
663.20	1632.23
663.39	1785.83
663.58	1722.34
663.76	1677.29
663.95	1796.07
664.14	1738.73
664.32	1722.34
664.51	1689.57
664.70	1669.09
664.89	1695.72
665.07	1607.66
665.26	1767.40
665.45	1654.76
665.64	1746.92
665.82	1724.39
666.01	1787.88
666.20	1728.49
666.38	1826.79
666.57	1769.44
666.76	2156.51
666.95	4556.73
667.13	10614.62
667.32	15546.13
667.51	18228.97
667.69	19441.37
667.88	18042.60
668.07	12519.23
668.25	9774.95
668.44	8273.79
668.63	7532.43
668.81	6948.76
669.00	6213.54
669.19	5738.41
669.38	5177.26
669.56	4704.18
669.75	4143.04
669.94	3452.88
670.12	2920.40
670.31	2500.57
670.50	2203.61
670.68	2058.21
670.87	1992.67
671.06	1783.78
671.24	1814.50
671.43	1847.27
671.62	1687.53
671.80	1658.85
671.99	1804.26
672.18	1720.29
672.36	1726.44
672.55	1771.49
672.74	1675.24
672.92	1761.25
673.11	1724.39
673.29	1640.42
673.48	1818.60
673.67	1679.33
673.85	1693.67
674.04	1634.28
674.23	1681.38
674.41	1847.27
674.60	1636.33
674.79	1583.08
674.97	1615.85
675.16	1765.35
675.34	1763.30
675.53	1697.77
675.72	1615.85
675.90	1810.40
676.09	1740.77
676.28	1742.82
676.46	1648.61
676.65	1767.40
676.83	1767.40
677.02	1703.91
677.21	1736.68
677.39	1771.49
677.58	1589.22
677.77	1650.66
677.95	1636.33
678.14	1662.95
678.32	1683.43
678.51	1652.71
678.70	1773.54
678.88	1652.71
679.07	1724.39
679.25	1691.62
679.44	1654.76
679.63	1658.85
679.81	1724.39
680.00	1808.36
680.18	1724.39
680.37	1775.59
680.55	1738.73
680.74	1613.80
680.93	1558.50
681.11	1681.38
681.30	1718.25
681.48	1615.85
681.67	1632.23
681.85	1697.77
682.04	1644.52
682.23	1775.59
682.41	1673.19
682.60	1804.26
682.78	1667.05
682.97	1679.33
683.15	1705.96
683.34	1718.25
683.53	1763.30
683.71	1644.52
683.90	1794.02
684.08	1771.49
684.27	1748.97
684.45	1712.10
684.64	1812.45
684.82	1658.85
685.01	1701.86
685.19	1636.33
685.38	1808.36
685.57	1615.85
685.75	1701.86
685.94	1693.67
686.12	1617.90
686.31	1638.38
686.49	1679.33
686.68	1681.38
686.86	1679.33
687.05	1740.77
687.23	1769.44
687.42	1687.53
687.60	1542.12
687.79	1734.63
687.97	1769.44
688.16	1753.06
688.34	1736.68
688.53	1640.42
688.71	1740.77
688.90	1800.16
689.08	1654.76
689.27	1701.86
689.45	1724.39
689.64	1785.83
689.82	1697.77
690.01	1724.39
690.19	1755.11
690.38	1714.15
690.56	1796.07
690.75	1708.01
690.93	1609.70
691.12	1646.57
691.30	1699.81
691.49	1648.61
691.67	1679.33
691.86	1861.60
692.04	1656.81
692.23	1648.61
692.41	1648.61
692.60	1812.45
692.78	1761.25
692.97	1738.73
693.15	1710.05
693.34	1757.16
693.52	1785.83
693.71	1689.57
693.89	1630.18
694.08	1624.04
694.26	1839.08
694.44	1716.20
694.63	1777.64
694.81	1665.00
695.00	1714.15
695.18	1865.70
695.37	1855.46
695.55	1755.11
695.74	1599.46
695.92	1662.95
696.10	1689.57
696.29	1691.62
696.47	1699.81
696.66	1662.95
696.84	1589.22
697.03	1695.72
697.21	1769.44
697.40	2256.86
697.58	1755.11
697.76	1724.39
697.95	1609.70
698.13	1648.61
698.32	1720.29
698.50	1697.77
698.68	1697.77
698.87	1742.82
699.05	1722.34
699.24	1679.33
699.42	1699.81
699.61	1744.87
699.79	1820.64
699.97	1685.48
700.16	1730.53
700.34	1621.99
700.53	1722.34
700.71	1789.92
700.89	1824.74
701.08	1761.25
701.26	1755.11
701.45	2070.50
701.63	1656.81
701.81	1753.06
702.00	1603.56
702.18	1708.01
702.37	1669.09
702.55	1753.06
702.73	1736.68
702.92	1662.95
703.10	1748.97
703.28	1658.85
703.47	1660.90
703.65	1703.91
703.84	1746.92
704.02	1701.86
704.20	1683.43
704.39	1716.20
704.57	1718.25
704.75	1800.16
704.94	1773.54
705.12	1796.07
705.30	1765.35
705.49	2308.06
705.67	4622.27
705.86	9719.66
706.04	13150.01
706.22	14833.44
706.41	15726.35
706.59	14155.56
706.77	9707.37
706.96	7567.24
707.14	6756.25
707.32	5969.83
707.51	5728.17
707.69	5011.38
707.87	4313.02
708.06	3518.41
708.24	2983.89
708.42	2406.36
708.61	2232.29
708.79	1953.76
708.97	1892.32
709.16	1779.68
709.34	1738.73
709.52	1699.81
709.71	1705.96
709.89	1728.49
710.07	1695.72
710.26	1669.09
710.44	1695.72
710.62	1685.48
710.80	1675.24
710.99	1781.73
711.17	1718.25
711.35	1644.52
711.54	1654.76
711.72	1806.31
711.90	1703.91
712.09	1732.58
712.27	1730.53
712.45	1769.44
712.63	1656.81
712.82	1738.73
713.00	1742.82
713.18	1708.01
713.37	1744.87
713.55	1736.68
713.73	1693.67
713.91	1705.96
714.10	1650.66
714.28	1716.20
714.46	1777.64
714.65	1753.06
714.83	1615.85
715.01	1685.48
715.19	1699.81
715.38	1558.50
715.56	1794.02
715.74	1656.81
715.92	1669.09
716.11	1746.92
716.29	1574.89
716.47	1714.15
716.65	1695.72
716.84	1601.51
717.02	1703.91
717.20	1656.81
717.38	1613.80
717.57	1765.35
717.75	1689.57
717.93	1687.53
718.11	1689.57
718.30	1656.81
718.48	1681.38
718.66	1763.30
718.84	1732.58
719.03	1685.48
719.21	1611.75
719.39	1746.92
719.57	1734.63
719.75	1740.77
719.94	1736.68
720.12	1679.33
720.30	1736.68
720.48	1759.21
720.67	1675.24
720.85	1640.42
721.03	1611.75
721.21	1671.14
721.39	1773.54
721.58	1738.73
721.76	1728.49
721.94	1730.53
722.12	1746.92
722.30	1746.92
722.49	1679.33
722.67	1705.96
722.85	1734.63
723.03	1665.00
723.21	1624.04
723.40	1767.40
723.58	1767.40
723.76	1734.63
723.94	1744.87
724.12	1710.05
724.30	1787.88
724.49	1732.58
724.67	1632.23
724.85	1800.16
725.03	1615.85
725.21	1763.30
725.40	1695.72
725.58	1699.81
725.76	1685.48
725.94	1695.72
726.12	1644.52
726.30	1730.53
726.49	1746.92
726.67	1656.81
726.85	1724.39
727.03	1791.97
727.21	2176.99
727.39	2967.51
727.57	3790.79
727.76	4286.40
727.94	4466.62
728.12	4476.86
728.30	3680.20
728.48	2955.22
728.66	2777.05
728.84	2574.30
729.03	2271.20
729.21	2181.09
729.39	1959.91
729.57	1853.41
729.75	1837.03
729.93	1800.16
730.11	1742.82
730.30	1685.48
730.48	1685.48
730.66	1808.36
730.84	1773.54
731.02	1669.09
731.20	1722.34
731.38	1722.34
731.56	1656.81
731.74	1626.09
731.93	1630.18
732.11	1650.66
732.29	1636.33
732.47	1849.32
732.65	1720.29
732.83	1708.01
733.01	1722.34
733.19	1632.23
733.37	1636.33
733.56	1675.24
733.74	1642.47
733.92	1791.97
734.10	1710.05
734.28	1662.95
734.46	1640.42
734.64	1728.49
734.82	1652.71
735.00	1675.24
735.18	1710.05
735.36	1703.91
735.54	1724.39
735.73	1724.39
735.91	1849.32
736.09	1718.25
736.27	1720.29
736.45	1708.01
736.63	1615.85
736.81	1685.48
736.99	1726.44
737.17	1693.67
737.35	1652.71
737.53	1669.09
737.71	1697.77
737.89	1783.78
738.07	1636.33
738.25	1665.00
738.43	1595.37
738.61	1691.62
738.80	1626.09
738.98	1599.46
739.16	1691.62
739.34	1634.28
739.52	1740.77
739.70	1640.42
739.88	1708.01
740.06	1775.59
740.24	1607.66
740.42	1820.64
740.60	1595.37
740.78	1646.57
740.96	1673.19
741.14	1677.29
741.32	1660.90
741.50	1673.19
741.68	1796.07
741.86	1724.39
742.04	1636.33
742.22	1710.05
742.40	1687.53
742.58	1689.57
742.76	1648.61
742.94	1781.73
743.12	1632.23
743.30	1667.05
743.48	1787.88
743.66	1564.65
743.84	1701.86
744.02	1636.33
744.20	1675.24
744.38	1605.61
744.56	1681.38
744.74	1777.64
744.92	1738.73
745.10	1701.86
745.28	1728.49
745.46	1849.32
745.64	1611.75
745.82	1785.83
746.00	1617.90
746.18	1720.29
746.36	1683.43
746.54	1675.24
746.72	1714.15
746.90	1658.85
747.08	1828.84
747.26	1656.81
747.44	1751.01
747.62	1697.77
747.80	1716.20
747.98	1724.39
748.15	1724.39
748.33	1757.16
748.51	1701.86
748.69	1693.67
748.87	1656.81
749.05	1589.22
749.23	1673.19
749.41	1777.64
749.59	1644.52
749.77	1818.60
749.95	1644.52
750.13	1683.43
750.31	1679.33
750.49	1693.67
750.67	1800.16
750.85	1718.25
751.03	1732.58
751.20	1851.36
751.38	1705.96
751.56	1730.53
751.74	1677.29
751.92	1699.81
752.10	1626.09
752.28	1748.97
752.46	1742.82
752.64	1757.16
752.82	1619.94
753.00	1785.83
753.18	1603.56
753.35	1673.19
753.53	1710.05
753.71	1691.62
753.89	1712.10
754.07	1738.73
754.25	1763.30
754.43	1763.30
754.61	1632.23
754.79	1755.11
754.97	1697.77
755.14	1777.64
755.32	1607.66
755.50	1703.91
755.68	1783.78
755.86	1591.27
756.04	1693.67
756.22	1634.28
756.40	1771.49
756.57	1855.46
756.75	1677.29
756.93	1660.90
757.11	1716.20
757.29	1693.67
757.47	1652.71
757.65	1646.57
757.82	1619.94
758.00	1710.05
758.18	1720.29
758.36	1617.90
758.54	1742.82
758.72	1654.76
758.90	1775.59
759.07	1689.57
759.25	1640.42
759.43	1746.92
759.61	1677.29
759.79	2179.04
759.97	1712.10
760.15	1628.14
760.32	1658.85
760.50	1722.34
760.68	1828.84
760.86	1642.47
761.04	1773.54
761.22	1802.21
761.39	1726.44
761.57	1755.11
761.75	1642.47
761.93	1769.44
762.11	1683.43
762.28	1730.53
762.46	1642.47
762.64	1798.12
762.82	1624.04
763.00	1726.44
763.18	1734.63
763.35	1628.14
763.53	1751.01
763.71	1648.61
763.89	1710.05
764.07	1675.24
764.24	1689.57
764.42	1671.14
764.60	1751.01
764.78	1808.36
764.96	1806.31
765.13	1765.35
765.31	1773.54
765.49	1697.77
765.67	1628.14
765.84	1646.57
766.02	1611.75
766.20	1585.13
766.38	1681.38
766.56	1689.57
766.73	1757.16
766.91	1771.49
767.09	1708.01
767.27	1785.83
767.44	1689.57
767.62	1660.90
767.80	1656.81
767.98	1705.96
768.15	1595.37
768.33	1740.77
768.51	1691.62
768.69	1732.58
768.87	1802.21
769.04	1763.30
769.22	1877.99
769.40	1740.77
769.58	1875.94
769.75	1761.25
769.93	1753.06
770.11	1673.19
770.28	1712.10
770.46	1679.33
770.64	1757.16
770.82	1681.38
770.99	1669.09
771.17	1687.53
771.35	1648.61
771.53	1701.86
771.70	1687.53
771.88	1716.20
772.06	1626.09
772.23	1751.01
772.41	1665.00
772.59	1640.42
772.77	1640.42
772.94	1744.87
773.12	1730.53
773.30	1679.33
773.47	1652.71
773.65	1685.48
773.83	1845.22
774.01	1716.20
774.18	1587.18
774.36	1751.01
774.54	1632.23
774.71	1667.05
774.89	1636.33
775.07	1656.81
775.24	1673.19
775.42	1726.44
775.60	1746.92
775.78	1636.33
775.95	1677.29
776.13	1607.66
776.31	1599.46
776.48	1695.72
776.66	1763.30
776.84	1669.09
777.01	1578.98
777.19	1640.42
777.37	1656.81
777.54	1738.73
777.72	1789.92
777.90	1742.82
778.07	1638.38
778.25	1804.26
778.43	1748.97
778.60	1648.61
778.78	1777.64
778.96	1789.92
779.13	1638.38
779.31	1701.86
779.49	1703.91
779.66	1712.10
779.84	1757.16
780.01	1751.01
780.19	1595.37
780.37	1773.54
780.54	1740.77
780.72	1665.00
780.90	1626.09
781.07	1693.67
781.25	1746.92
781.43	1800.16
781.60	1714.15
781.78	1699.81
781.95	1708.01
782.13	1730.53
782.31	1683.43
782.48	1572.84
782.66	1634.28
782.83	1787.88
783.01	1730.53
783.19	1763.30
783.36	1656.81
783.54	1665.00
783.72	1734.63
783.89	1648.61
784.07	1691.62
784.24	1638.38
784.42	1787.88
784.60	1699.81
784.77	1757.16
784.95	1548.26
785.12	1691.62
785.30	1681.38
785.47	1712.10
785.65	1646.57
785.83	1722.34
786.00	1669.09
786.18	1667.05
786.35	1601.51
786.53	1624.04
786.71	1710.05
786.88	1697.77
787.06	1751.01
787.23	1621.99
787.41	1624.04
787.58	1751.01
787.76	1652.71
787.94	1658.85
788.11	1751.01
788.29	1599.46
788.46	1607.66
788.64	1669.09
788.81	1665.00
788.99	1720.29
789.16	1634.28
789.34	1689.57
789.52	1730.53
789.69	1716.20
789.87	1638.38
790.04	1671.14
790.22	1720.29
790.39	1837.03
790.57	1609.70
790.74	1691.62
790.92	1705.96
791.09	1591.27
791.27	1732.58
791.44	1751.01
791.62	1626.09
791.79	1746.92
791.97	1677.29
792.15	1880.04
792.32	1742.82
792.50	1841.12
792.67	1904.61
792.85	1732.58
793.02	1712.10
793.20	1654.76
793.37	1632.23
793.55	1697.77
793.72	1630.18
793.90	1785.83
794.07	1624.04
794.25	1726.44
794.42	1679.33
794.60	1746.92
794.77	1654.76
794.95	1746.92
795.12	1689.57
795.30	1703.91
795.47	1578.98
795.65	1923.04
795.82	1705.96
796.00	1669.09
796.17	1683.43
796.34	1656.81
796.52	1671.14
796.69	1734.63
796.87	1738.73
797.04	1726.44
797.22	1742.82
797.39	1650.66
797.57	1730.53
797.74	1716.20
797.92	1726.44
798.09	1662.95
798.27	1722.34
798.44	1789.92
798.62	1599.46
798.79	1671.14
798.96	1660.90
799.14	1611.75
799.31	1839.08
799.49	1660.90
799.66	1697.77
799.84	1712.10
800.01	1605.61
800.19	1771.49
800.36	1624.04
800.53	1800.16
800.71	1675.24
800.88	1757.16
801.06	1697.77
801.23	1662.95
801.41	1740.77
801.58	1644.52
801.75	1681.38
801.93	1767.40
802.10	1771.49
802.28	1665.00
802.45	1714.15
802.63	1708.01
802.80	1808.36
802.97	1648.61
803.15	1685.48
803.32	1685.48
803.50	1646.57
803.67	1646.57
803.84	1599.46
804.02	1734.63
804.19	1607.66
804.37	1566.70
804.54	1644.52
804.71	1701.86
804.89	1701.86
805.06	1615.85
805.24	1613.80
805.41	1648.61
805.58	1654.76
805.76	1882.08
805.93	1759.21
806.10	1763.30
806.28	1724.39
806.45	1697.77
806.63	1771.49
806.80	1705.96
806.97	1751.01
807.15	1808.36
807.32	1703.91
807.49	1722.34
807.67	1578.98
807.84	1716.20
808.01	1652.71
808.19	1765.35
808.36	1800.16
808.54	1718.25
808.71	1716.20
808.88	1689.57
809.06	1726.44
809.23	1816.55
809.40	1697.77
809.58	1771.49
809.75	1759.21
809.92	1667.05
810.10	1787.88
810.27	1656.81
810.44	1753.06
810.62	1714.15
810.79	1693.67
810.96	1658.85
811.14	1619.94
811.31	1617.90
811.48	1708.01
811.66	1718.25
811.83	1744.87
812.00	1718.25
812.18	1705.96
812.35	1875.94
812.52	1726.44
812.69	1662.95
812.87	1652.71
813.04	1718.25
813.21	1691.62
813.39	1554.41
813.56	1665.00
813.73	1742.82
813.91	1691.62
814.08	1724.39
814.25	1763.30
814.42	1599.46
814.60	1591.27
814.77	1615.85
814.94	1724.39
815.12	1652.71
815.29	1794.02
815.46	1667.05
815.63	1722.34
815.81	1624.04
815.98	1669.09
816.15	1683.43
816.33	1665.00
816.50	1697.77
816.67	1699.81
816.84	1748.97
817.02	1650.66
817.19	1671.14
817.36	1726.44
817.53	1746.92
817.71	1634.28
817.88	1677.29
818.05	1683.43
818.22	1662.95
818.40	1814.50
818.57	1689.57
818.74	1759.21
818.91	1720.29
819.09	1783.78
819.26	1734.63
819.43	1564.65
819.60	1642.47
819.78	1746.92
819.95	1787.88
820.12	1593.32
820.29	1785.83
820.47	1724.39
820.64	1681.38
820.81	1540.07
820.98	1683.43
821.15	1671.14
821.33	1730.53
821.50	1667.05
821.67	1708.01
821.84	1628.14
822.02	1757.16
822.19	1767.40
822.36	1705.96
822.53	1624.04
822.70	1667.05
822.88	1705.96
823.05	1722.34
823.22	1689.57
823.39	1693.67
823.56	1644.52
823.74	1812.45
823.91	1714.15
824.08	1607.66
824.25	1615.85
824.42	1777.64
824.60	1673.19
824.77	1683.43
824.94	1703.91
825.11	1730.53
825.28	1531.88
825.45	1710.05
825.63	1753.06
825.80	1658.85
825.97	1658.85
826.14	1703.91
826.31	1716.20
826.48	1742.82
826.66	1658.85
826.83	1667.05
827.00	1681.38
827.17	1675.24
827.34	1679.33
827.51	1705.96
827.69	1705.96
827.86	1650.66
828.03	1658.85
828.20	1695.72
828.37	1652.71
828.54	1755.11
828.71	1648.61
828.89	1794.02
829.06	1705.96
829.23	1746.92
829.40	1619.94
829.57	1640.42
829.74	1722.34
829.91	1656.81
830.09	1695.72
830.26	1730.53
830.43	1808.36
830.60	1636.33
830.77	1742.82
830.94	1769.44
831.11	1683.43
831.28	1705.96
831.46	1771.49
831.63	1660.90
831.80	1802.21
831.97	1636.33
832.14	1589.22
832.31	1738.73
832.48	1744.87
832.65	1759.21
832.82	1681.38
832.99	1724.39
833.17	1675.24
833.34	1720.29
833.51	1771.49
833.68	1624.04
833.85	1703.91
834.02	1658.85
834.19	1642.47
834.36	1630.18
834.53	1744.87
834.70	1751.01
834.87	1714.15
835.04	1626.09
835.22	1617.90
835.39	1710.05
835.56	1652.71
835.73	1710.05
835.90	1746.92
836.07	1669.09
836.24	1667.05
836.41	1652.71
836.58	1662.95
836.75	1775.59
836.92	1658.85
837.09	1734.63
837.26	1634.28
837.43	1673.19
837.60	1701.86
837.77	1593.32
837.94	1746.92
838.12	1701.86
838.29	1781.73
838.46	1583.08
838.63	1609.70
838.80	1787.88
838.97	1771.49
839.14	1632.23
839.31	1656.81
839.48	1759.21
839.65	1609.70
839.82	1724.39
839.99	1746.92
840.16	1640.42
840.33	1660.90
840.50	1656.81
840.67	1628.14
840.84	1601.51
841.01	1705.96
841.18	1650.66
841.35	1679.33
841.52	1681.38
841.69	1773.54
841.86	1765.35
842.03	1656.81
842.20	1683.43
842.37	1624.04
842.54	1722.34
842.71	1689.57
842.88	1621.99
843.05	1748.97
843.22	1705.96
843.39	1779.68
843.56	1634.28
843.73	1759.21
843.90	1699.81
844.07	1787.88
844.24	1726.44
844.41	1693.67
844.58	1722.34
844.75	1693.67
844.92	1697.77
845.09	1708.01
845.26	1615.85
845.43	1708.01
845.60	1693.67
845.77	1744.87
845.94	1626.09
846.10	1800.16
846.27	1605.61
846.44	1675.24
846.61	1634.28
846.78	1705.96
846.95	1783.78
847.12	1652.71
847.29	1697.77
847.46	1671.14
847.63	1689.57
847.80	1714.15
847.97	1685.48
848.14	1761.25
848.31	1673.19
848.48	1613.80
848.65	1673.19
848.82	1681.38
848.98	1773.54
849.15	1771.49
849.32	1726.44
849.49	1822.69
849.66	1689.57
849.83	1753.06
850.00	1542.12
850.17	1759.21
850.34	1685.48
850.51	1687.53
850.68	1636.33
850.85	1847.27
851.01	1720.29
851.18	1720.29
851.35	1691.62
851.52	1771.49
851.69	1665.00
851.86	1632.23
852.03	1716.20
852.20	1800.16
852.37	1724.39
852.53	1558.50
852.70	1703.91
852.87	1705.96
853.04	1697.77
853.21	1693.67
853.38	1685.48
853.55	1798.12
853.72	1710.05
853.89	1644.52
854.05	1634.28
854.22	1718.25
854.39	1720.29
854.56	1671.14
854.73	1781.73
854.90	1613.80
855.07	1640.42
855.23	1615.85
855.40	1718.25
855.57	1689.57
855.74	1644.52
855.91	1845.22
856.08	1628.14
856.25	1607.66
856.41	1656.81
856.58	1617.90
856.75	1671.14
856.92	1677.29
857.09	1773.54
857.26	1591.27
857.42	1689.57
857.59	1759.21
857.76	1628.14
857.93	1720.29
858.10	1746.92
858.27	1619.94
858.43	1671.14
858.60	1705.96
858.77	1544.17
858.94	1650.66
859.11	1791.97
859.27	1689.57
859.44	1685.48
859.61	1800.16
859.78	1638.38
859.95	1697.77
860.12	1654.76
860.28	1777.64
860.45	1828.84
860.62	1660.90
860.79	1671.14
860.95	1648.61
861.12	1687.53
861.29	1650.66
861.46	1644.52
861.63	1701.86
861.79	1634.28
861.96	1603.56
862.13	1751.01
862.30	1753.06
862.47	1683.43
862.63	1626.09
862.80	1726.44
862.97	1736.68
863.14	1738.73
863.30	1591.27
863.47	1671.14
863.64	1841.12
863.81	1751.01
863.97	1638.38
864.14	1728.49
864.31	1656.81
864.48	1712.10
864.65	1705.96
864.81	1730.53
864.98	1681.38
865.15	1705.96
865.32	1730.53
865.48	1714.15
865.65	1773.54
865.82	1665.00
865.98	1660.90
866.15	1779.68
866.32	1695.72
866.49	1796.07
866.65	1720.29
866.82	1646.57
866.99	1716.20
867.16	1689.57
867.32	1697.77
867.49	1691.62
867.66	1746.92
867.83	1693.67
867.99	1701.86
868.16	1650.66
868.33	1599.46
868.49	1630.18
868.66	1628.14
868.83	1734.63
868.99	1718.25
869.16	1677.29
869.33	1816.55
869.50	1800.16
869.66	1662.95
869.83	1656.81
870.00	1572.84
870.16	1773.54
870.33	1669.09
870.50	1732.58
870.66	1642.47
870.83	1808.36
871.00	1777.64
871.17	1701.86
871.33	1716.20
871.50	1693.67
871.67	1703.91
871.83	1650.66
872.00	1765.35
872.17	1726.44
872.33	1724.39
872.50	1771.49
872.67	1691.62
872.83	1716.20
873.00	1652.71
873.17	1742.82
873.33	1695.72
873.50	1724.39
873.67	1675.24
873.83	1660.90
874.00	1701.86
874.16	1728.49
874.33	1763.30
874.50	1681.38
874.66	1697.77
874.83	1726.44
875.00	1804.26
875.16	1734.63
875.33	1751.01
875.50	1574.89
875.66	1718.25
875.83	1671.14
875.99	1726.44
876.16	1669.09
876.33	1587.18
876.49	1652.71
876.66	1697.77
876.83	1658.85
876.99	1552.36
877.16	1607.66
877.32	1683.43
877.49	1695.72
877.66	1708.01
877.82	1728.49
877.99	1693.67
878.15	1783.78
878.32	1732.58
878.49	1722.34
878.65	1583.08
878.82	1837.03
878.98	1615.85
879.15	1730.53
879.32	1800.16
879.48	1726.44
879.65	1726.44
879.81	1683.43
879.98	1665.00
880.15	1658.85
880.31	1765.35
880.48	1648.61
880.64	1771.49
880.81	1699.81
880.97	1765.35
881.14	1734.63
881.31	1634.28
881.47	1859.56
881.64	1724.39
881.80	1638.38
881.97	1744.87
882.13	1765.35
882.30	1697.77
882.47	1697.77
882.63	1748.97
882.80	1609.70
882.96	1605.61
883.13	1771.49
883.29	1671.14
883.46	1781.73
883.62	1796.07
883.79	1638.38
883.95	1742.82
884.12	1578.98
884.29	1824.74
884.45	1689.57
884.62	1771.49
884.78	1705.96
884.95	1736.68
885.11	1675.24
885.28	1671.14
885.44	1619.94
885.61	1724.39
885.77	1746.92
885.94	1761.25
886.10	1695.72
886.27	1744.87
886.43	1818.60
886.60	1841.12
886.76	1681.38
886.93	1609.70
887.09	1712.10
887.26	1693.67
887.42	1701.86
887.59	1751.01
887.75	1816.55
887.92	1720.29
888.08	1794.02
888.25	1808.36
888.41	1773.54
888.58	1734.63
888.74	1667.05
888.91	1642.47
>>>>>End Processed Spectral Data<<<<<
