SpectraSuite Data File
++++++++++++++++++++++++++++++++++++
Date: Mon Jun 06 13:13:37 CEST 2016
User: root
Dark Spectrum Present: No
Reference Spectrum Present: No
Number of Sampled Component Spectra: 1
Spectrometers: USB4C02835
Integration Time (usec): 100000 (USB4C02835)
Spectra Averaged: 1 (USB4C02835)
Boxcar Smoothing: 0 (USB4C02835)
Correct for Electrical Dark: No (USB4C02835)
Strobe/Lamp Enabled: No (USB4C02835)
Correct for Detector Non-linearity: No (USB4C02835)
Correct for Stray Light: No (USB4C02835)
Number of Pixels in Processed Spectrum: 3648
>>>>>Begin Processed Spectral Data<<<<<
177.47	1402.86
177.69	1402.86
177.91	1402.86
178.13	1480.68
178.36	1480.68
178.58	1699.81
178.80	1689.57
179.02	1705.96
179.24	1638.38
179.46	1740.77
179.68	1755.11
179.90	1662.95
180.13	1681.38
180.35	1660.90
180.57	1695.72
180.79	1765.35
181.01	1734.63
181.23	1740.77
181.45	1697.77
181.67	1746.92
181.90	1775.59
182.12	1550.31
182.34	1624.04
182.56	1732.58
182.78	1746.92
183.00	1699.81
183.22	1751.01
183.44	1601.51
183.66	1841.12
183.89	1798.12
184.11	1701.86
184.33	1771.49
184.55	1746.92
184.77	1751.01
184.99	1724.39
185.21	1650.66
185.43	1863.65
185.65	1677.29
185.87	1742.82
186.10	1804.26
186.32	1814.50
186.54	1712.10
186.76	1734.63
186.98	1800.16
187.20	1636.33
187.42	1642.47
187.64	1677.29
187.86	1705.96
188.08	1728.49
188.30	1798.12
188.52	1691.62
188.75	1732.58
188.97	1695.72
189.19	1665.00
189.41	1746.92
189.63	1681.38
189.85	1714.15
190.07	1568.74
190.29	1642.47
190.51	1753.06
190.73	1636.33
190.95	1763.30
191.17	1765.35
191.39	1660.90
191.61	1669.09
191.84	1636.33
192.06	1669.09
192.28	1560.55
192.50	1861.60
192.72	1734.63
192.94	1718.25
193.16	1734.63
193.38	1677.29
193.60	1619.94
193.82	1691.62
194.04	1794.02
194.26	1779.68
194.48	1695.72
194.70	1708.01
194.92	1728.49
195.14	1759.21
195.36	1619.94
195.58	1808.36
195.80	1695.72
196.02	1710.05
196.24	1650.66
196.46	1736.68
196.69	1660.90
196.91	1863.65
197.13	1718.25
197.35	1593.32
197.57	1802.21
197.79	1740.77
198.01	1748.97
198.23	1691.62
198.45	1763.30
198.67	1646.57
198.89	1718.25
199.11	1730.53
199.33	1669.09
199.55	1636.33
199.77	1699.81
199.99	1732.58
200.21	1728.49
200.43	1689.57
200.65	1660.90
200.87	1619.94
201.09	1705.96
201.31	1701.86
201.53	1683.43
201.75	1665.00
201.97	1748.97
202.19	1716.20
202.41	1748.97
202.63	1771.49
202.85	1812.45
203.07	1738.73
203.29	1789.92
203.51	1640.42
203.73	1634.28
203.95	1857.51
204.17	1710.05
204.39	1755.11
204.61	1654.76
204.83	1660.90
205.05	1744.87
205.27	1800.16
205.49	1849.32
205.71	1755.11
205.93	1636.33
206.15	1660.90
206.37	1746.92
206.59	1693.67
206.81	1607.66
207.03	1617.90
207.25	1626.09
207.47	1697.77
207.69	1710.05
207.91	1771.49
208.13	1736.68
208.34	1628.14
208.56	1654.76
208.78	1701.86
209.00	1671.14
209.22	1699.81
209.44	1722.34
209.66	1710.05
209.88	1675.24
210.10	1656.81
210.32	1710.05
210.54	1787.88
210.76	1718.25
210.98	1683.43
211.20	1611.75
211.42	1773.54
211.64	1777.64
211.86	1765.35
212.08	1722.34
212.30	1773.54
212.52	1650.66
212.74	1673.19
212.96	1757.16
213.17	1730.53
213.39	1791.97
213.61	1767.40
213.83	1820.64
214.05	1660.90
214.27	1712.10
214.49	1716.20
214.71	1685.48
214.93	1763.30
215.15	1656.81
215.37	1740.77
215.59	1634.28
215.81	1775.59
216.03	1783.78
216.24	1685.48
216.46	1669.09
216.68	1705.96
216.90	1763.30
217.12	1726.44
217.34	1722.34
217.56	1732.58
217.78	1751.01
218.00	1755.11
218.22	1751.01
218.44	1738.73
218.66	1720.29
218.87	1753.06
219.09	1703.91
219.31	1712.10
219.53	1705.96
219.75	1650.66
219.97	1673.19
220.19	1710.05
220.41	1683.43
220.63	1810.40
220.85	1691.62
221.06	1687.53
221.28	1720.29
221.50	1783.78
221.72	1708.01
221.94	1775.59
222.16	1705.96
222.38	1714.15
222.60	1681.38
222.82	1751.01
223.03	1746.92
223.25	1652.71
223.47	1808.36
223.69	1851.36
223.91	1787.88
224.13	1701.86
224.35	1679.33
224.57	1712.10
224.78	1763.30
225.00	1675.24
225.22	1650.66
225.44	1748.97
225.66	1687.53
225.88	1716.20
226.10	1732.58
226.32	1648.61
226.53	1804.26
226.75	1640.42
226.97	1722.34
227.19	1759.21
227.41	1765.35
227.63	1681.38
227.85	1587.18
228.06	1708.01
228.28	1677.29
228.50	1718.25
228.72	1714.15
228.94	1634.28
229.16	1634.28
229.37	1587.18
229.59	1601.51
229.81	1740.77
230.03	1652.71
230.25	1636.33
230.47	1677.29
230.69	1626.09
230.90	1753.06
231.12	1599.46
231.34	1726.44
231.56	1714.15
231.78	1624.04
232.00	1626.09
232.21	1671.14
232.43	1693.67
232.65	1564.65
232.87	1660.90
233.09	1726.44
233.30	1691.62
233.52	1775.59
233.74	1699.81
233.96	1658.85
234.18	1675.24
234.40	1687.53
234.61	1751.01
234.83	1599.46
235.05	1685.48
235.27	1845.22
235.49	1796.07
235.70	1679.33
235.92	1767.40
236.14	1720.29
236.36	1777.64
236.58	1587.18
236.79	1708.01
237.01	1708.01
237.23	1708.01
237.45	1882.08
237.67	1724.39
237.88	1738.73
238.10	1824.74
238.32	1609.70
238.54	1722.34
238.76	1642.47
238.97	1613.80
239.19	1689.57
239.41	1722.34
239.63	1722.34
239.85	1667.05
240.06	1658.85
240.28	1730.53
240.50	1708.01
240.72	1648.61
240.93	1687.53
241.15	1738.73
241.37	1673.19
241.59	1744.87
241.81	1669.09
242.02	1718.25
242.24	1701.86
242.46	1685.48
242.68	1642.47
242.89	1689.57
243.11	1675.24
243.33	1691.62
243.55	1656.81
243.76	1705.96
243.98	1648.61
244.20	1630.18
244.42	1738.73
244.64	1785.83
244.85	1654.76
245.07	1640.42
245.29	1710.05
245.51	1728.49
245.72	1753.06
245.94	1767.40
246.16	1699.81
246.38	1781.73
246.59	1675.24
246.81	1738.73
247.03	1710.05
247.24	1609.70
247.46	1626.09
247.68	1728.49
247.90	1734.63
248.11	1638.38
248.33	1787.88
248.55	1652.71
248.77	1646.57
248.98	1777.64
249.20	1771.49
249.42	1683.43
249.64	1665.00
249.85	1691.62
250.07	1716.20
250.29	1665.00
250.50	1734.63
250.72	1613.80
250.94	1712.10
251.16	1810.40
251.37	1771.49
251.59	1748.97
251.81	1726.44
252.02	1839.08
252.24	1693.67
252.46	1755.11
252.68	1630.18
252.89	1634.28
253.11	1675.24
253.33	1798.12
253.54	1800.16
253.76	1636.33
253.98	1730.53
254.20	1728.49
254.41	1591.27
254.63	1722.34
254.85	1572.84
255.06	1697.77
255.28	1679.33
255.50	1669.09
255.71	1669.09
255.93	1652.71
256.15	1697.77
256.36	1720.29
256.58	1736.68
256.80	1736.68
257.02	1716.20
257.23	1640.42
257.45	1708.01
257.67	1738.73
257.88	1650.66
258.10	1652.71
258.32	1783.78
258.53	1732.58
258.75	1703.91
258.97	1783.78
259.18	1691.62
259.40	1771.49
259.62	1779.68
259.83	1794.02
260.05	1759.21
260.27	1912.80
260.48	1751.01
260.70	1710.05
260.92	1691.62
261.13	1794.02
261.35	1636.33
261.57	1650.66
261.78	1646.57
262.00	1685.48
262.22	1769.44
262.43	1619.94
262.65	1689.57
262.86	1724.39
263.08	1724.39
263.30	1701.86
263.51	1662.95
263.73	1607.66
263.95	1775.59
264.16	1658.85
264.38	1619.94
264.60	1716.20
264.81	1701.86
265.03	1789.92
265.25	1683.43
265.46	1689.57
265.68	1703.91
265.89	1781.73
266.11	1662.95
266.33	1751.01
266.54	1767.40
266.76	1687.53
266.98	1759.21
267.19	1847.27
267.41	1726.44
267.62	1697.77
267.84	1675.24
268.06	1755.11
268.27	1671.14
268.49	1738.73
268.70	1753.06
268.92	1671.14
269.14	1648.61
269.35	1587.18
269.57	1667.05
269.79	1626.09
270.00	1628.14
270.22	1802.21
270.43	1673.19
270.65	1527.78
270.87	1714.15
271.08	1742.82
271.30	1660.90
271.51	1779.68
271.73	1695.72
271.95	1771.49
272.16	1662.95
272.38	1726.44
272.59	1660.90
272.81	1724.39
273.02	1695.72
273.24	1654.76
273.46	1771.49
273.67	1658.85
273.89	1677.29
274.10	1621.99
274.32	1699.81
274.54	1769.44
274.75	1695.72
274.97	1669.09
275.18	1759.21
275.40	1748.97
275.61	1736.68
275.83	1701.86
276.05	1636.33
276.26	1677.29
276.48	1732.58
276.69	1693.67
276.91	1560.55
277.12	1773.54
277.34	1730.53
277.55	1691.62
277.77	1748.97
277.99	1675.24
278.20	1611.75
278.42	1570.79
278.63	1626.09
278.85	1695.72
279.06	1671.14
279.28	1658.85
279.49	1753.06
279.71	1681.38
279.93	1689.57
280.14	1697.77
280.36	1669.09
280.57	1751.01
280.79	1769.44
281.00	1619.94
281.22	1556.46
281.43	1703.91
281.65	1587.18
281.86	1718.25
282.08	1679.33
282.29	1869.80
282.51	1640.42
282.73	1628.14
282.94	1628.14
283.16	1722.34
283.37	1847.27
283.59	1703.91
283.80	1734.63
284.02	1710.05
284.23	1697.77
284.45	1634.28
284.66	1591.27
284.88	1757.16
285.09	1703.91
285.31	1742.82
285.52	1744.87
285.74	1648.61
285.95	1726.44
286.17	1736.68
286.38	1779.68
286.60	1673.19
286.81	1648.61
287.03	1609.70
287.24	1742.82
287.46	1650.66
287.67	1722.34
287.89	1888.23
288.10	1728.49
288.32	1714.15
288.53	1796.07
288.75	1648.61
288.96	1648.61
289.18	1701.86
289.39	1654.76
289.61	1740.77
289.82	1834.98
290.04	1759.21
290.25	1722.34
290.47	1660.90
290.68	1693.67
290.90	1779.68
291.11	1613.80
291.33	1753.06
291.54	1689.57
291.76	1685.48
291.97	1720.29
292.18	1714.15
292.40	1660.90
292.61	1705.96
292.83	1800.16
293.04	1681.38
293.26	1636.33
293.47	1708.01
293.69	1638.38
293.90	1710.05
294.12	1757.16
294.33	1744.87
294.55	1693.67
294.76	1763.30
294.97	1746.92
295.19	1830.88
295.40	1718.25
295.62	1767.40
295.83	1722.34
296.05	1701.86
296.26	1802.21
296.48	1679.33
296.69	1665.00
296.90	1669.09
297.12	1783.78
297.33	1705.96
297.55	1681.38
297.76	1738.73
297.98	1802.21
298.19	1753.06
298.41	1703.91
298.62	1640.42
298.83	1751.01
299.05	1716.20
299.26	1753.06
299.48	1609.70
299.69	1669.09
299.90	1697.77
300.12	1759.21
300.33	1732.58
300.55	1642.47
300.76	1718.25
300.98	1630.18
301.19	1718.25
301.40	1716.20
301.62	1677.29
301.83	1677.29
302.05	1660.90
302.26	1703.91
302.47	1730.53
302.69	1576.94
302.90	1646.57
303.12	1624.04
303.33	1728.49
303.54	1857.51
303.76	1718.25
303.97	1640.42
304.19	1796.07
304.40	1630.18
304.61	1783.78
304.83	1718.25
305.04	1763.30
305.26	1714.15
305.47	1669.09
305.68	1693.67
305.90	1552.36
306.11	1763.30
306.33	1677.29
306.54	1630.18
306.75	1689.57
306.97	1626.09
307.18	1671.14
307.39	1685.48
307.61	1716.20
307.82	1755.11
308.04	1810.40
308.25	1615.85
308.46	1679.33
308.68	1636.33
308.89	1665.00
309.10	1742.82
309.32	1685.48
309.53	1687.53
309.74	1742.82
309.96	1744.87
310.17	1779.68
310.39	1634.28
310.60	1673.19
310.81	1724.39
311.03	1624.04
311.24	1654.76
311.45	1683.43
311.67	1822.69
311.88	1722.34
312.09	1726.44
312.31	1712.10
312.52	1767.40
312.73	1708.01
312.95	1708.01
313.16	1660.90
313.37	1732.58
313.59	1771.49
313.80	1746.92
314.01	1759.21
314.23	1714.15
314.44	1650.66
314.65	1632.23
314.87	1601.51
315.08	1691.62
315.29	1673.19
315.51	1658.85
315.72	1624.04
315.93	1796.07
316.15	1746.92
316.36	1701.86
316.57	1691.62
316.79	1714.15
317.00	1603.56
317.21	1679.33
317.43	1652.71
317.64	1642.47
317.85	1646.57
318.07	1669.09
318.28	1759.21
318.49	1796.07
318.70	1861.60
318.92	1738.73
319.13	1828.84
319.34	1746.92
319.56	1826.79
319.77	1789.92
319.98	1740.77
320.20	1759.21
320.41	1726.44
320.62	1626.09
320.83	1615.85
321.05	1834.98
321.26	1742.82
321.47	1667.05
321.69	1779.68
321.90	1552.36
322.11	1658.85
322.32	1787.88
322.54	1699.81
322.75	1712.10
322.96	1929.19
323.18	1628.14
323.39	1568.74
323.60	1710.05
323.81	1763.30
324.03	1611.75
324.24	1771.49
324.45	1738.73
324.66	1665.00
324.88	1681.38
325.09	1808.36
325.30	1708.01
325.52	1669.09
325.73	1716.20
325.94	1611.75
326.15	1650.66
326.37	1628.14
326.58	1689.57
326.79	1751.01
327.00	1667.05
327.22	1726.44
327.43	1697.77
327.64	1595.37
327.85	1695.72
328.07	1644.52
328.28	1755.11
328.49	1665.00
328.70	1699.81
328.92	1701.86
329.13	1734.63
329.34	1746.92
329.55	1789.92
329.76	1796.07
329.98	1669.09
330.19	1787.88
330.40	1687.53
330.61	1763.30
330.83	1722.34
331.04	1636.33
331.25	1632.23
331.46	1687.53
331.68	1628.14
331.89	1769.44
332.10	1740.77
332.31	1601.51
332.52	1675.24
332.74	1798.12
332.95	1685.48
333.16	1716.20
333.37	1716.20
333.58	1677.29
333.80	1681.38
334.01	1595.37
334.22	1654.76
334.43	1626.09
334.64	1632.23
334.86	1642.47
335.07	1646.57
335.28	1708.01
335.49	1492.97
335.70	1681.38
335.92	1714.15
336.13	1861.60
336.34	1693.67
336.55	1712.10
336.76	1687.53
336.98	1605.61
337.19	1679.33
337.40	1800.16
337.61	1804.26
337.82	1656.81
338.04	1765.35
338.25	1708.01
338.46	1732.58
338.67	1646.57
338.88	1652.71
339.09	1609.70
339.31	1671.14
339.52	1601.51
339.73	1609.70
339.94	1710.05
340.15	1705.96
340.36	1636.33
340.58	1720.29
340.79	1681.38
341.00	1814.50
341.21	1683.43
341.42	1810.40
341.63	1720.29
341.85	1730.53
342.06	1712.10
342.27	1697.77
342.48	1738.73
342.69	1626.09
342.90	1681.38
343.12	1685.48
343.33	1644.52
343.54	1849.32
343.75	1789.92
343.96	1656.81
344.17	1632.23
344.38	1712.10
344.60	1638.38
344.81	1654.76
345.02	1771.49
345.23	1810.40
345.44	1748.97
345.65	1779.68
345.86	1708.01
346.07	1722.34
346.29	1726.44
346.50	1785.83
346.71	1757.16
346.92	1832.93
347.13	1837.03
347.34	1783.78
347.55	1665.00
347.76	1794.02
347.98	1597.42
348.19	1687.53
348.40	1753.06
348.61	1679.33
348.82	1744.87
349.03	1755.11
349.24	1728.49
349.45	1703.91
349.66	1601.51
349.88	1689.57
350.09	1673.19
350.30	1769.44
350.51	1783.78
350.72	1644.52
350.93	1605.61
351.14	1611.75
351.35	1779.68
351.56	1632.23
351.77	1726.44
351.99	1675.24
352.20	1705.96
352.41	1763.30
352.62	1560.55
352.83	1687.53
353.04	1697.77
353.25	1589.22
353.46	1718.25
353.67	1759.21
353.88	1583.08
354.09	1714.15
354.30	1708.01
354.52	1746.92
354.73	1642.47
354.94	1732.58
355.15	1669.09
355.36	1832.93
355.57	1669.09
355.78	1708.01
355.99	1701.86
356.20	1656.81
356.41	1789.92
356.62	1701.86
356.83	1699.81
357.04	1746.92
357.25	1632.23
357.46	1648.61
357.68	1632.23
357.89	1675.24
358.10	1732.58
358.31	1669.09
358.52	1726.44
358.73	1673.19
358.94	1632.23
359.15	1638.38
359.36	1718.25
359.57	1648.61
359.78	1718.25
359.99	1671.14
360.20	1607.66
360.41	1710.05
360.62	1751.01
360.83	1646.57
361.04	1767.40
361.25	1730.53
361.46	1757.16
361.67	1650.66
361.88	1785.83
362.09	1730.53
362.30	1681.38
362.51	1593.32
362.72	1712.10
362.93	1728.49
363.14	1681.38
363.35	1685.48
363.56	1693.67
363.78	1732.58
363.99	1695.72
364.20	1603.56
364.41	1736.68
364.62	1802.21
364.83	1716.20
365.04	1644.52
365.25	1650.66
365.46	1796.07
365.67	1660.90
365.88	1609.70
366.09	1626.09
366.30	1675.24
366.51	1667.05
366.72	1603.56
366.93	1710.05
367.14	1652.71
367.35	1847.27
367.56	1699.81
367.77	1765.35
367.98	1669.09
368.18	1787.88
368.39	1662.95
368.60	1658.85
368.81	1695.72
369.02	1681.38
369.23	1669.09
369.44	1630.18
369.65	1632.23
369.86	1695.72
370.07	1724.39
370.28	1669.09
370.49	1791.97
370.70	1687.53
370.91	1665.00
371.12	1628.14
371.33	1642.47
371.54	1656.81
371.75	1834.98
371.96	1589.22
372.17	1714.15
372.38	1679.33
372.59	1712.10
372.80	1638.38
373.01	1722.34
373.22	1683.43
373.43	1691.62
373.64	1695.72
373.85	1714.15
374.06	1828.84
374.26	1765.35
374.47	1697.77
374.68	1796.07
374.89	1675.24
375.10	1662.95
375.31	1796.07
375.52	1734.63
375.73	1636.33
375.94	1648.61
376.15	1773.54
376.36	1669.09
376.57	1669.09
376.78	1720.29
376.99	1691.62
377.20	1765.35
377.40	1638.38
377.61	1800.16
377.82	1710.05
378.03	1740.77
378.24	1771.49
378.45	1656.81
378.66	1689.57
378.87	1607.66
379.08	1626.09
379.29	1675.24
379.50	1773.54
379.71	1685.48
379.91	1710.05
380.12	1720.29
380.33	1665.00
380.54	1665.00
380.75	1685.48
380.96	1734.63
381.17	1779.68
381.38	1767.40
381.59	1765.35
381.80	1683.43
382.00	1796.07
382.21	1726.44
382.42	1806.31
382.63	1875.94
382.84	1744.87
383.05	1785.83
383.26	1783.78
383.47	1751.01
383.68	1789.92
383.88	1669.09
384.09	1665.00
384.30	1824.74
384.51	1708.01
384.72	1683.43
384.93	1671.14
385.14	1703.91
385.35	1812.45
385.55	1615.85
385.76	1834.98
385.97	1695.72
386.18	1667.05
386.39	1693.67
386.60	1662.95
386.81	1691.62
387.02	1685.48
387.22	1685.48
387.43	1708.01
387.64	1761.25
387.85	1843.17
388.06	2213.85
388.27	4390.84
388.48	6666.14
388.68	8144.77
388.89	9658.22
389.10	9645.93
389.31	8509.31
389.52	7425.93
389.73	6748.06
389.93	6272.93
390.14	5685.16
390.35	5031.86
390.56	4464.57
390.77	3688.39
390.98	3067.86
391.18	2553.82
391.39	2107.36
391.60	1849.32
391.81	1814.50
392.02	1691.62
392.23	1785.83
392.43	1685.48
392.64	1751.01
392.85	1695.72
393.06	1771.49
393.27	1781.73
393.47	1673.19
393.68	1681.38
393.89	1642.47
394.10	1718.25
394.31	1628.14
394.52	1611.75
394.72	1726.44
394.93	1736.68
395.14	1619.94
395.35	1789.92
395.56	1675.24
395.76	1728.49
395.97	1787.88
396.18	1871.84
396.39	1814.50
396.60	2033.63
396.80	1837.03
397.01	1791.97
397.22	1855.46
397.43	1845.22
397.64	1755.11
397.84	1869.80
398.05	1855.46
398.26	1718.25
398.47	1820.64
398.67	1708.01
398.88	1804.26
399.09	1697.77
399.30	1708.01
399.51	1798.12
399.71	1671.14
399.92	1720.29
400.13	1703.91
400.34	1640.42
400.54	1695.72
400.75	1740.77
400.96	1718.25
401.17	1710.05
401.37	1744.87
401.58	1695.72
401.79	1658.85
402.00	1839.08
402.21	2013.15
402.41	1951.71
402.62	1935.33
402.83	1976.29
403.04	2004.96
403.24	2086.88
403.45	1863.65
403.66	1933.28
403.87	1861.60
404.07	1964.00
404.28	1888.23
404.49	1890.28
404.70	1748.97
404.90	1748.97
405.11	1673.19
405.32	1785.83
405.52	1665.00
405.73	1621.99
405.94	1691.62
406.15	1734.63
406.35	1734.63
406.56	1730.53
406.77	1755.11
406.98	1726.44
407.18	1714.15
407.39	1773.54
407.60	1755.11
407.80	1769.44
408.01	1644.52
408.22	1751.01
408.43	1665.00
408.63	1689.57
408.84	1798.12
409.05	1767.40
409.25	1710.05
409.46	1689.57
409.67	1701.86
409.88	1708.01
410.08	1693.67
410.29	1701.86
410.50	1718.25
410.70	1656.81
410.91	1685.48
411.12	1705.96
411.32	1703.91
411.53	1708.01
411.74	1849.32
411.95	1791.97
412.15	1714.15
412.36	1787.88
412.57	1759.21
412.77	1736.68
412.98	1691.62
413.19	1673.19
413.39	1732.58
413.60	1751.01
413.81	1804.26
414.01	1783.78
414.22	1681.38
414.43	1794.02
414.63	1648.61
414.84	1779.68
415.05	1695.72
415.25	1607.66
415.46	1738.73
415.67	1634.28
415.87	1816.55
416.08	1669.09
416.29	1738.73
416.49	1697.77
416.70	1669.09
416.91	1683.43
417.11	1728.49
417.32	1781.73
417.53	1746.92
417.73	1705.96
417.94	1693.67
418.15	1665.00
418.35	1716.20
418.56	1742.82
418.77	1863.65
418.97	1636.33
419.18	1751.01
419.38	1576.94
419.59	1681.38
419.80	1732.58
420.00	1638.38
420.21	1718.25
420.42	1845.22
420.62	1699.81
420.83	1697.77
421.04	1724.39
421.24	1740.77
421.45	1820.64
421.65	1714.15
421.86	1646.57
422.07	1751.01
422.27	1697.77
422.48	1742.82
422.69	1656.81
422.89	1773.54
423.10	1687.53
423.30	1679.33
423.51	1632.23
423.72	1716.20
423.92	1751.01
424.13	1609.70
424.33	1654.76
424.54	1765.35
424.75	1732.58
424.95	1765.35
425.16	1789.92
425.36	1673.19
425.57	1830.88
425.78	1748.97
425.98	1785.83
426.19	1689.57
426.39	1630.18
426.60	1685.48
426.81	1751.01
427.01	1660.90
427.22	1574.89
427.42	1634.28
427.63	1628.14
427.83	1683.43
428.04	1794.02
428.25	1751.01
428.45	1751.01
428.66	1818.60
428.86	1738.73
429.07	1605.61
429.28	1705.96
429.48	1748.97
429.69	1669.09
429.89	1705.96
430.10	1667.05
430.30	1685.48
430.51	1843.17
430.71	1642.47
430.92	1644.52
431.13	1638.38
431.33	1705.96
431.54	1648.61
431.74	1765.35
431.95	1816.55
432.15	1660.90
432.36	1744.87
432.56	1773.54
432.77	1826.79
432.98	1742.82
433.18	1685.48
433.39	1757.16
433.59	1687.53
433.80	1804.26
434.00	1789.92
434.21	1681.38
434.41	1646.57
434.62	1845.22
434.82	1667.05
435.03	1693.67
435.23	1736.68
435.44	1640.42
435.64	1693.67
435.85	1791.97
436.06	1748.97
436.26	1710.05
436.47	1732.58
436.67	1675.24
436.88	1691.62
437.08	1701.86
437.29	1728.49
437.49	1718.25
437.70	1796.07
437.90	1724.39
438.11	1787.88
438.31	1757.16
438.52	1775.59
438.72	1802.21
438.93	1908.71
439.13	1753.06
439.34	1785.83
439.54	1744.87
439.75	1865.70
439.95	1738.73
440.16	1714.15
440.36	1720.29
440.57	1734.63
440.77	1787.88
440.98	1777.64
441.18	1705.96
441.39	1671.14
441.59	1714.15
441.80	1757.16
442.00	1746.92
442.21	1814.50
442.41	1712.10
442.62	1777.64
442.82	1724.39
443.02	1738.73
443.23	1804.26
443.43	1705.96
443.64	1810.40
443.84	1640.42
444.05	1800.16
444.25	1759.21
444.46	1636.33
444.66	1736.68
444.87	1800.16
445.07	1648.61
445.28	1636.33
445.48	1738.73
445.69	1806.31
445.89	1914.85
446.09	1736.68
446.30	1945.57
446.50	2625.50
446.71	3766.21
446.91	4241.34
447.12	4726.71
447.32	4853.69
447.53	4270.01
447.73	3794.89
447.93	3532.75
448.14	3282.89
448.34	3178.45
448.55	2985.94
448.75	2893.78
448.96	2662.36
449.16	2361.31
449.36	2303.96
449.57	2011.11
449.77	1914.85
449.98	1820.64
450.18	1814.50
450.39	1767.40
450.59	1736.68
450.79	1746.92
451.00	1753.06
451.20	1732.58
451.41	1804.26
451.61	1820.64
451.81	1683.43
452.02	1732.58
452.22	1681.38
452.43	1687.53
452.63	1695.72
452.84	1734.63
453.04	1714.15
453.24	1808.36
453.45	1728.49
453.65	1787.88
453.86	1773.54
454.06	1777.64
454.26	1722.34
454.47	1699.81
454.67	1816.55
454.87	1716.20
455.08	1736.68
455.28	1818.60
455.49	1744.87
455.69	1705.96
455.89	1882.08
456.10	1828.84
456.30	1632.23
456.51	1791.97
456.71	1689.57
456.91	1744.87
457.12	1708.01
457.32	1785.83
457.52	1685.48
457.73	1808.36
457.93	1761.25
458.14	1708.01
458.34	1726.44
458.54	1730.53
458.75	1705.96
458.95	1734.63
459.15	1746.92
459.36	1777.64
459.56	1814.50
459.76	1785.83
459.97	1673.19
460.17	1703.91
460.37	1722.34
460.58	1755.11
460.78	1757.16
460.99	1724.39
461.19	1744.87
461.39	1695.72
461.60	1728.49
461.80	1740.77
462.00	1669.09
462.21	1679.33
462.41	1683.43
462.61	1640.42
462.82	1587.18
463.02	1769.44
463.22	1667.05
463.43	1771.49
463.63	1746.92
463.83	1746.92
464.04	1765.35
464.24	1783.78
464.44	1660.90
464.64	1769.44
464.85	1787.88
465.05	1837.03
465.25	1722.34
465.46	1693.67
465.66	1763.30
465.86	1804.26
466.07	1738.73
466.27	1691.62
466.47	1607.66
466.68	1626.09
466.88	1837.03
467.08	1736.68
467.29	1816.55
467.49	1712.10
467.69	1763.30
467.89	1775.59
468.10	1732.58
468.30	1689.57
468.50	1837.03
468.71	1779.68
468.91	1660.90
469.11	1769.44
469.31	1687.53
469.52	1617.90
469.72	1810.40
469.92	1814.50
470.13	1691.62
470.33	1734.63
470.53	1781.73
470.73	2025.44
470.94	2297.82
471.14	2361.31
471.34	2486.23
471.54	2392.03
471.75	2240.48
471.95	2066.40
472.15	2133.98
472.36	2099.17
472.56	2099.17
472.76	1994.72
472.96	1970.15
473.17	1953.76
473.37	1867.75
473.57	1755.11
473.77	1894.37
473.98	1716.20
474.18	1732.58
474.38	1918.95
474.58	1697.77
474.79	1662.95
474.99	1703.91
475.19	1765.35
475.39	1685.48
475.60	1724.39
475.80	1767.40
476.00	1759.21
476.20	1771.49
476.41	1669.09
476.61	1826.79
476.81	1716.20
477.01	1658.85
477.21	1767.40
477.42	1796.07
477.62	1703.91
477.82	1748.97
478.02	1787.88
478.23	1748.97
478.43	1679.33
478.63	1681.38
478.83	1722.34
479.03	1726.44
479.24	1791.97
479.44	1861.60
479.64	1603.56
479.84	1611.75
480.04	1716.20
480.25	1767.40
480.45	1687.53
480.65	1748.97
480.85	1800.16
481.06	1679.33
481.26	1724.39
481.46	1822.69
481.66	1769.44
481.86	1673.19
482.06	1738.73
482.27	1677.29
482.47	1734.63
482.67	1861.60
482.87	1656.81
483.07	1765.35
483.28	1755.11
483.48	1685.48
483.68	1652.71
483.88	1656.81
484.08	1615.85
484.29	1634.28
484.49	1701.86
484.69	1681.38
484.89	1841.12
485.09	1734.63
485.29	1769.44
485.50	1705.96
485.70	1759.21
485.90	1826.79
486.10	1828.84
486.30	1689.57
486.50	1771.49
486.71	1708.01
486.91	1816.55
487.11	1757.16
487.31	1523.69
487.51	1681.38
487.71	1689.57
487.91	1583.08
488.12	1693.67
488.32	1654.76
488.52	1685.48
488.72	1695.72
488.92	1689.57
489.12	1712.10
489.32	1683.43
489.53	1703.91
489.73	1665.00
489.93	1818.60
490.13	1701.86
490.33	1644.52
490.53	1726.44
490.73	1798.12
490.94	1660.90
491.14	1748.97
491.34	1802.21
491.54	2125.79
491.74	2543.58
491.94	2967.51
492.14	2985.94
492.34	2975.70
492.54	2725.85
492.75	2494.43
492.95	2471.90
493.15	2281.44
493.35	2336.73
493.55	2260.96
493.75	2213.85
493.95	2070.50
494.15	2080.74
494.35	1900.52
494.56	1830.88
494.76	1798.12
494.96	1681.38
495.16	1806.31
495.36	1777.64
495.56	1779.68
495.76	1744.87
495.96	1671.14
496.16	1671.14
496.36	1816.55
496.56	1638.38
496.77	1775.59
496.97	1732.58
497.17	1865.70
497.37	1621.99
497.57	1742.82
497.77	1640.42
497.97	1673.19
498.17	1742.82
498.37	1718.25
498.57	1765.35
498.77	1773.54
498.97	1777.64
499.17	1849.32
499.38	1775.59
499.58	1826.79
499.78	1839.08
499.98	1783.78
500.18	1712.10
500.38	1689.57
500.58	1849.32
500.78	2607.06
500.98	4403.13
501.18	5705.64
501.38	6709.15
501.58	7155.60
501.78	6682.52
501.98	5400.49
502.18	4876.21
502.38	4351.93
502.58	4091.84
502.78	3749.83
502.98	3542.99
503.18	3442.64
503.38	3164.11
503.59	2701.27
503.79	2656.22
503.99	2564.06
504.19	2283.49
504.39	2236.38
504.59	2224.09
504.79	2090.98
504.99	2027.49
505.19	1914.85
505.39	1888.23
505.59	1861.60
505.79	1890.28
505.99	1796.07
506.19	1834.98
506.39	1787.88
506.59	1742.82
506.79	1769.44
506.99	1869.80
507.19	1744.87
507.39	1757.16
507.59	1675.24
507.79	1693.67
507.99	1726.44
508.19	1843.17
508.39	1695.72
508.59	1785.83
508.79	1789.92
508.99	1755.11
509.19	1787.88
509.39	1730.53
509.59	1753.06
509.79	1738.73
509.99	1691.62
510.19	1773.54
510.39	1785.83
510.59	1804.26
510.79	1757.16
510.99	1681.38
511.19	1734.63
511.39	1804.26
511.59	1777.64
511.79	1765.35
511.99	1685.48
512.19	1798.12
512.38	1679.33
512.58	1648.61
512.78	1732.58
512.98	1798.12
513.18	1761.25
513.38	1681.38
513.58	1730.53
513.78	1718.25
513.98	1722.34
514.18	1695.72
514.38	1669.09
514.58	1695.72
514.78	1624.04
514.98	1542.12
515.18	1665.00
515.38	1689.57
515.58	1839.08
515.78	1662.95
515.98	1779.68
516.18	1773.54
516.38	1691.62
516.57	1626.09
516.77	1701.86
516.97	1695.72
517.17	1757.16
517.37	1634.28
517.57	1834.98
517.77	1716.20
517.97	1648.61
518.17	1785.83
518.37	1693.67
518.57	1716.20
518.77	1753.06
518.97	1712.10
519.16	1812.45
519.36	1824.74
519.56	1744.87
519.76	1728.49
519.96	1673.19
520.16	1849.32
520.36	1665.00
520.56	1830.88
520.76	1695.72
520.96	1611.75
521.16	1789.92
521.35	1740.77
521.55	1763.30
521.75	1720.29
521.95	1611.75
522.15	1740.77
522.35	1652.71
522.55	1720.29
522.75	1720.29
522.95	1712.10
523.14	1681.38
523.34	1716.20
523.54	1626.09
523.74	1808.36
523.94	1759.21
524.14	1640.42
524.34	1703.91
524.54	1828.84
524.73	1738.73
524.93	1714.15
525.13	1695.72
525.33	1611.75
525.53	1894.37
525.73	1681.38
525.93	1701.86
526.13	1757.16
526.32	1714.15
526.52	1837.03
526.72	1773.54
526.92	1742.82
527.12	1738.73
527.32	1705.96
527.52	1722.34
527.71	1746.92
527.91	1669.09
528.11	1742.82
528.31	1738.73
528.51	1722.34
528.71	1685.48
528.90	1759.21
529.10	1753.06
529.30	1834.98
529.50	1642.47
529.70	1777.64
529.90	1703.91
530.09	1791.97
530.29	1701.86
530.49	1650.66
530.69	1880.04
530.89	1716.20
531.09	1687.53
531.28	1722.34
531.48	1777.64
531.68	1736.68
531.88	1714.15
532.08	1773.54
532.28	1656.81
532.47	1837.03
532.67	1775.59
532.87	1718.25
533.07	1710.05
533.27	1802.21
533.46	1765.35
533.66	1689.57
533.86	1695.72
534.06	1730.53
534.26	1759.21
534.45	1691.62
534.65	1771.49
534.85	1804.26
535.05	1730.53
535.25	1806.31
535.44	1660.90
535.64	1767.40
535.84	1691.62
536.04	1660.90
536.24	1679.33
536.43	1650.66
536.63	1742.82
536.83	1742.82
537.03	1662.95
537.22	1626.09
537.42	1671.14
537.62	1726.44
537.82	1660.90
538.02	1800.16
538.21	1806.31
538.41	1927.14
538.61	1738.73
538.81	1714.15
539.00	1753.06
539.20	1634.28
539.40	1619.94
539.60	1720.29
539.79	1699.81
539.99	1763.30
540.19	1650.66
540.39	1669.09
540.58	1751.01
540.78	1787.88
540.98	1771.49
541.18	1748.97
541.37	1708.01
541.57	1751.01
541.77	1779.68
541.97	1701.86
542.16	1615.85
542.36	1677.29
542.56	1652.71
542.76	1787.88
542.95	1730.53
543.15	1769.44
543.35	1796.07
543.54	1724.39
543.74	1628.14
543.94	1742.82
544.14	1701.86
544.33	1775.59
544.53	1775.59
544.73	1714.15
544.93	1738.73
545.12	1705.96
545.32	1738.73
545.52	1681.38
545.71	1683.43
545.91	1675.24
546.11	1738.73
546.30	1587.18
546.50	1730.53
546.70	1753.06
546.90	1751.01
547.09	1660.90
547.29	1796.07
547.49	1808.36
547.68	1753.06
547.88	1759.21
548.08	1720.29
548.27	2156.51
548.47	1687.53
548.67	1652.71
548.87	1769.44
549.06	1734.63
549.26	1785.83
549.46	1751.01
549.65	1724.39
549.85	1757.16
550.05	1712.10
550.24	1730.53
550.44	1787.88
550.64	1699.81
550.83	1734.63
551.03	1765.35
551.23	1773.54
551.42	1796.07
551.62	1726.44
551.82	1779.68
552.01	1667.05
552.21	1826.79
552.41	1748.97
552.60	1789.92
552.80	1689.57
553.00	1693.67
553.19	1724.39
553.39	1812.45
553.59	1714.15
553.78	1732.58
553.98	1755.11
554.17	1654.76
554.37	1789.92
554.57	1810.40
554.76	1630.18
554.96	1705.96
555.16	1734.63
555.35	1732.58
555.55	1765.35
555.75	1779.68
555.94	1730.53
556.14	1662.95
556.33	1714.15
556.53	1712.10
556.73	1738.73
556.92	1816.55
557.12	1798.12
557.32	1783.78
557.51	1849.32
557.71	1718.25
557.90	1791.97
558.10	1837.03
558.30	1609.70
558.49	1722.34
558.69	1705.96
558.88	1746.92
559.08	1710.05
559.28	1763.30
559.47	1728.49
559.67	1755.11
559.86	1837.03
560.06	1744.87
560.26	1693.67
560.45	1751.01
560.65	1796.07
560.84	1804.26
561.04	1679.33
561.24	1828.84
561.43	1695.72
561.63	1847.27
561.82	1726.44
562.02	1757.16
562.22	1681.38
562.41	1730.53
562.61	1705.96
562.80	1777.64
563.00	1918.95
563.19	1693.67
563.39	1783.78
563.59	1677.29
563.78	1613.80
563.98	1566.70
564.17	1714.15
564.37	1681.38
564.56	1763.30
564.76	1757.16
564.96	1828.84
565.15	1753.06
565.35	1880.04
565.54	1695.72
565.74	1753.06
565.93	1781.73
566.13	1669.09
566.32	1804.26
566.52	1769.44
566.71	1777.64
566.91	1724.39
567.11	1703.91
567.30	1648.61
567.50	1771.49
567.69	1832.93
567.89	1708.01
568.08	1748.97
568.28	1712.10
568.47	1699.81
568.67	1796.07
568.86	1761.25
569.06	1777.64
569.25	1734.63
569.45	1714.15
569.64	1652.71
569.84	1742.82
570.04	1771.49
570.23	1701.86
570.43	1701.86
570.62	1816.55
570.82	1751.01
571.01	1642.47
571.21	1691.62
571.40	1665.00
571.60	1751.01
571.79	1781.73
571.99	1716.20
572.18	1726.44
572.38	1775.59
572.57	1646.57
572.77	1839.08
572.96	1890.28
573.16	1763.30
573.35	1744.87
573.55	1834.98
573.74	1726.44
573.94	1767.40
574.13	1794.02
574.33	1820.64
574.52	1769.44
574.71	1697.77
574.91	1671.14
575.10	1669.09
575.30	1689.57
575.49	1722.34
575.69	1691.62
575.88	1765.35
576.08	1718.25
576.27	1832.93
576.47	1701.86
576.66	1816.55
576.86	1794.02
577.05	1687.53
577.25	1834.98
577.44	1826.79
577.64	1708.01
577.83	1781.73
578.02	1708.01
578.22	1798.12
578.41	1771.49
578.61	1732.58
578.80	1685.48
579.00	1675.24
579.19	1677.29
579.39	1800.16
579.58	1775.59
579.77	1705.96
579.97	1794.02
580.16	1832.93
580.36	1824.74
580.55	1841.12
580.75	1779.68
580.94	1808.36
581.13	1875.94
581.33	1816.55
581.52	1716.20
581.72	1845.22
581.91	1849.32
582.11	1748.97
582.30	1765.35
582.49	1818.60
582.69	1853.41
582.88	1812.45
583.08	1779.68
583.27	1783.78
583.47	1695.72
583.66	1714.15
583.85	1708.01
584.05	1759.21
584.24	1834.98
584.44	1867.75
584.63	1820.64
584.82	1761.25
585.02	1804.26
585.21	1812.45
585.41	1841.12
585.60	1796.07
585.79	1957.86
585.99	1877.99
586.18	1781.73
586.37	2193.37
586.57	3405.77
586.76	9695.08
586.96	24127.12
587.15	34115.06
587.34	39949.73
587.54	41518.47
587.73	36027.87
587.93	25929.33
588.12	21302.97
588.31	18247.40
588.51	15834.89
588.70	14819.10
588.89	14188.33
589.09	12480.32
589.28	10970.97
589.47	9516.91
589.67	7849.86
589.86	6528.92
590.06	4806.58
590.25	3887.04
590.44	3162.06
590.64	2578.39
590.83	2213.85
591.02	2140.13
591.22	1949.67
591.41	1896.42
591.60	1822.69
591.80	1964.00
591.99	1708.01
592.18	1777.64
592.38	1886.18
592.57	1757.16
592.76	1744.87
592.96	1779.68
593.15	1779.68
593.34	1832.93
593.54	1710.05
593.73	1751.01
593.92	1789.92
594.12	1693.67
594.31	1810.40
594.50	1834.98
594.70	1841.12
594.89	1894.37
595.08	1652.71
595.28	1834.98
595.47	1941.47
595.66	1800.16
595.86	1675.24
596.05	1771.49
596.24	1759.21
596.43	1884.13
596.63	1802.21
596.82	1732.58
597.01	1789.92
597.21	1826.79
597.40	1765.35
597.59	1773.54
597.79	1775.59
597.98	1757.16
598.17	1783.78
598.36	1779.68
598.56	1787.88
598.75	1699.81
598.94	1761.25
599.14	1771.49
599.33	1740.77
599.52	1742.82
599.71	1746.92
599.91	1746.92
600.10	1849.32
600.29	1732.58
600.48	1820.64
600.68	1800.16
600.87	1724.39
601.06	1744.87
601.26	1771.49
601.45	1697.77
601.64	1738.73
601.83	1845.22
602.03	1753.06
602.22	1685.48
602.41	1804.26
602.60	1865.70
602.80	1789.92
602.99	1689.57
603.18	1710.05
603.37	1751.01
603.57	1679.33
603.76	1796.07
603.95	1857.51
604.14	1718.25
604.34	1640.42
604.53	1740.77
604.72	1728.49
604.91	1804.26
605.10	1857.51
605.30	1773.54
605.49	1863.65
605.68	1832.93
605.87	1718.25
606.07	1736.68
606.26	1787.88
606.45	1703.91
606.64	1710.05
606.84	1779.68
607.03	1845.22
607.22	1798.12
607.41	1648.61
607.60	1675.24
607.80	1767.40
607.99	1716.20
608.18	1730.53
608.37	1744.87
608.56	1679.33
608.76	1800.16
608.95	1851.36
609.14	1726.44
609.33	1738.73
609.52	1808.36
609.72	1693.67
609.91	1746.92
610.10	1722.34
610.29	1787.88
610.48	1822.69
610.68	1736.68
610.87	1712.10
611.06	1744.87
611.25	1716.20
611.44	1751.01
611.63	1689.57
611.83	1802.21
612.02	1685.48
612.21	1814.50
612.40	1640.42
612.59	1619.94
612.79	1705.96
612.98	1681.38
613.17	1822.69
613.36	1755.11
613.55	1839.08
613.74	1660.90
613.93	1675.24
614.13	1730.53
614.32	1675.24
614.51	1771.49
614.70	1679.33
614.89	1697.77
615.08	1728.49
615.28	2047.97
615.47	1681.38
615.66	1757.16
615.85	1748.97
616.04	1800.16
616.23	1710.05
616.42	1691.62
616.62	1671.14
616.81	1718.25
617.00	1769.44
617.19	1722.34
617.38	1675.24
617.57	1691.62
617.76	1769.44
617.95	1722.34
618.15	1798.12
618.34	1785.83
618.53	1718.25
618.72	1763.30
618.91	1845.22
619.10	1847.27
619.29	1689.57
619.48	1763.30
619.68	1679.33
619.87	1767.40
620.06	1638.38
620.25	1716.20
620.44	1755.11
620.63	1695.72
620.82	1660.90
621.01	1689.57
621.20	1775.59
621.39	1724.39
621.59	1802.21
621.78	1746.92
621.97	1648.61
622.16	1720.29
622.35	1755.11
622.54	1779.68
622.73	1810.40
622.92	1587.18
623.11	1761.25
623.30	1632.23
623.49	1763.30
623.68	1687.53
623.88	1728.49
624.07	1701.86
624.26	1689.57
624.45	1769.44
624.64	1665.00
624.83	1761.25
625.02	1710.05
625.21	1652.71
625.40	1710.05
625.59	1753.06
625.78	1748.97
625.97	1798.12
626.16	1789.92
626.35	1769.44
626.54	1726.44
626.74	1871.84
626.93	1697.77
627.12	1734.63
627.31	1763.30
627.50	1769.44
627.69	1771.49
627.88	1708.01
628.07	1654.76
628.26	1601.51
628.45	1660.90
628.64	1667.05
628.83	1744.87
629.02	1589.22
629.21	1722.34
629.40	1783.78
629.59	1656.81
629.78	1693.67
629.97	1701.86
630.16	1703.91
630.35	1689.57
630.54	1671.14
630.73	1644.52
630.92	1705.96
631.11	1691.62
631.30	1734.63
631.49	1751.01
631.68	1658.85
631.87	1826.79
632.06	1591.27
632.25	1834.98
632.44	1665.00
632.63	1783.78
632.82	1648.61
633.01	1607.66
633.20	1751.01
633.39	1673.19
633.58	1595.37
633.77	1724.39
633.96	1783.78
634.15	1796.07
634.34	1734.63
634.53	1712.10
634.72	1705.96
634.91	1591.27
635.10	1695.72
635.29	1789.92
635.48	1722.34
635.67	1708.01
635.86	1689.57
636.05	1757.16
636.24	1658.85
636.43	1740.77
636.62	1681.38
636.81	1589.22
637.00	1765.35
637.19	1773.54
637.38	1578.98
637.57	1597.42
637.76	1734.63
637.95	1685.48
638.14	1607.66
638.33	1660.90
638.52	1697.77
638.71	1660.90
638.89	1716.20
639.08	1890.28
639.27	1697.77
639.46	1673.19
639.65	1718.25
639.84	1738.73
640.03	1808.36
640.22	1699.81
640.41	1812.45
640.60	1591.27
640.79	1714.15
640.98	1726.44
641.17	1779.68
641.36	1732.58
641.55	1718.25
641.74	1689.57
641.92	1656.81
642.11	1689.57
642.30	1712.10
642.49	1656.81
642.68	1718.25
642.87	1730.53
643.06	1779.68
643.25	1759.21
643.44	1669.09
643.63	1714.15
643.82	1806.31
644.00	1710.05
644.19	1703.91
644.38	1669.09
644.57	1753.06
644.76	1773.54
644.95	1640.42
645.14	1730.53
645.33	1734.63
645.52	1720.29
645.71	1650.66
645.89	1630.18
646.08	1773.54
646.27	1718.25
646.46	1832.93
646.65	1591.27
646.84	1703.91
647.03	1626.09
647.22	1789.92
647.40	1701.86
647.59	1703.91
647.78	1558.50
647.97	1675.24
648.16	1656.81
648.35	1773.54
648.54	1828.84
648.73	1703.91
648.91	1841.12
649.10	1773.54
649.29	1710.05
649.48	1763.30
649.67	1791.97
649.86	1773.54
650.05	1701.86
650.23	1763.30
650.42	1628.14
650.61	1767.40
650.80	1769.44
650.99	1822.69
651.18	1740.77
651.36	1767.40
651.55	1710.05
651.74	1740.77
651.93	1669.09
652.12	1751.01
652.31	1710.05
652.49	1673.19
652.68	1677.29
652.87	1705.96
653.06	1644.52
653.25	1857.51
653.44	1648.61
653.62	1748.97
653.81	1699.81
654.00	1693.67
654.19	1714.15
654.38	1843.17
654.56	1685.48
654.75	1763.30
654.94	1712.10
655.13	1703.91
655.32	1621.99
655.51	1701.86
655.69	1685.48
655.88	1816.55
656.07	1650.66
656.26	1757.16
656.45	1617.90
656.63	1669.09
656.82	1716.20
657.01	1761.25
657.20	1642.47
657.38	1818.60
657.57	1585.13
657.76	1654.76
657.95	1726.44
658.14	1714.15
658.32	1699.81
658.51	1628.14
658.70	1816.55
658.89	1675.24
659.08	1708.01
659.26	1783.78
659.45	1753.06
659.64	1708.01
659.83	1644.52
660.01	1812.45
660.20	1705.96
660.39	1751.01
660.58	1574.89
660.76	1736.68
660.95	1589.22
661.14	1755.11
661.33	1646.57
661.51	1722.34
661.70	1691.62
661.89	1677.29
662.08	1751.01
662.26	1726.44
662.45	1652.71
662.64	1751.01
662.83	1746.92
663.01	1703.91
663.20	1708.01
663.39	1779.68
663.58	1636.33
663.76	1705.96
663.95	1720.29
664.14	1652.71
664.32	1722.34
664.51	1656.81
664.70	1673.19
664.89	1730.53
665.07	1697.77
665.26	1775.59
665.45	1687.53
665.64	1767.40
665.82	1671.14
666.01	1730.53
666.20	1753.06
666.38	1734.63
666.57	1798.12
666.76	2154.46
666.95	4396.99
667.13	10141.54
667.32	15116.06
667.51	17534.71
667.69	18732.77
667.88	17426.17
668.07	12058.44
668.25	9322.35
668.44	8109.96
668.63	7376.78
668.81	6641.56
669.00	6240.16
669.19	5631.91
669.38	5001.14
669.56	4589.50
669.75	3895.24
669.94	3424.20
670.12	2893.78
670.31	2588.63
670.50	2310.11
670.68	2115.55
670.87	1947.62
671.06	1869.80
671.24	1826.79
671.43	1787.88
671.62	1800.16
671.80	1683.43
671.99	1720.29
672.18	1722.34
672.36	1804.26
672.55	1689.57
672.74	1691.62
672.92	1671.14
673.11	1771.49
673.29	1665.00
673.48	1738.73
673.67	1626.09
673.85	1773.54
674.04	1656.81
674.23	1732.58
674.41	1877.99
674.60	1591.27
674.79	1609.70
674.97	1714.15
675.16	1740.77
675.34	1720.29
675.53	1634.28
675.72	1710.05
675.90	1765.35
676.09	1730.53
676.28	1736.68
676.46	1611.75
676.65	1722.34
676.83	1644.52
677.02	1671.14
677.21	1687.53
677.39	1710.05
677.58	1652.71
677.77	1710.05
677.95	1755.11
678.14	1716.20
678.32	1714.15
678.51	1679.33
678.70	1865.70
678.88	1734.63
679.07	1710.05
679.25	1728.49
679.44	1665.00
679.63	1626.09
679.81	1763.30
680.00	1814.50
680.18	1693.67
680.37	1699.81
680.55	1650.66
680.74	1603.56
680.93	1677.29
681.11	1660.90
681.30	1736.68
681.48	1720.29
681.67	1644.52
681.85	1757.16
682.04	1662.95
682.23	1763.30
682.41	1705.96
682.60	1669.09
682.78	1716.20
682.97	1675.24
683.15	1765.35
683.34	1726.44
683.53	1806.31
683.71	1548.26
683.90	1732.58
684.08	1814.50
684.27	1708.01
684.45	1716.20
684.64	1824.74
684.82	1679.33
685.01	1726.44
685.19	1712.10
685.38	1755.11
685.57	1681.38
685.75	1660.90
685.94	1705.96
686.12	1650.66
686.31	1650.66
686.49	1820.64
686.68	1570.79
686.86	1785.83
687.05	1714.15
687.23	1718.25
687.42	1693.67
687.60	1581.03
687.79	1781.73
687.97	1767.40
688.16	1775.59
688.34	1765.35
688.53	1665.00
688.71	1773.54
688.90	1832.93
689.08	1746.92
689.27	1640.42
689.45	1673.19
689.64	1767.40
689.82	1710.05
690.01	1689.57
690.19	1669.09
690.38	1695.72
690.56	1775.59
690.75	1671.14
690.93	1697.77
691.12	1703.91
691.30	1687.53
691.49	1691.62
691.67	1677.29
691.86	1839.08
692.04	1765.35
692.23	1636.33
692.41	1656.81
692.60	1855.46
692.78	1806.31
692.97	1697.77
693.15	1705.96
693.34	1832.93
693.52	1724.39
693.71	1738.73
693.89	1730.53
694.08	1583.08
694.26	1705.96
694.44	1773.54
694.63	1671.14
694.81	1650.66
695.00	1634.28
695.18	1761.25
695.37	1841.12
695.55	1675.24
695.74	1697.77
695.92	1617.90
696.10	1769.44
696.29	1697.77
696.47	1587.18
696.66	1722.34
696.84	1675.24
697.03	1740.77
697.21	1812.45
697.40	2281.44
697.58	1837.03
697.76	1683.43
697.95	1716.20
698.13	1644.52
698.32	1773.54
698.50	1744.87
698.68	1800.16
698.87	1701.86
699.05	1820.64
699.24	1722.34
699.42	1740.77
699.61	1734.63
699.79	1726.44
699.97	1687.53
700.16	1615.85
700.34	1658.85
700.53	1722.34
700.71	1744.87
700.89	1689.57
701.08	1665.00
701.26	1705.96
701.45	2111.46
701.63	1703.91
701.81	1638.38
702.00	1669.09
702.18	1691.62
702.37	1673.19
702.55	1824.74
702.73	1757.16
702.92	1646.57
703.10	1714.15
703.28	1679.33
703.47	1615.85
703.65	1755.11
703.84	1812.45
704.02	1581.03
704.20	1869.80
704.39	1603.56
704.57	1630.18
704.75	1728.49
704.94	1781.73
705.12	1673.19
705.30	1759.21
705.49	2246.62
705.67	4396.99
705.86	9144.18
706.04	12257.09
706.22	14255.91
706.41	15228.70
706.59	13758.25
706.77	9566.06
706.96	7401.36
707.14	6418.33
707.32	5863.33
707.51	5541.80
707.69	4751.29
707.87	4212.67
708.06	3506.12
708.24	2957.27
708.42	2418.65
708.61	2240.48
708.79	1927.14
708.97	1841.12
709.16	1869.80
709.34	1769.44
709.52	1710.05
709.71	1730.53
709.89	1763.30
710.07	1615.85
710.26	1658.85
710.44	1685.48
710.62	1779.68
710.80	1734.63
710.99	1728.49
711.17	1744.87
711.35	1658.85
711.54	1695.72
711.72	1787.88
711.90	1693.67
712.09	1708.01
712.27	1677.29
712.45	1751.01
712.63	1695.72
712.82	1757.16
713.00	1738.73
713.18	1689.57
713.37	1841.12
713.55	1736.68
713.73	1710.05
713.91	1716.20
714.10	1710.05
714.28	1710.05
714.46	1697.77
714.65	1736.68
714.83	1804.26
715.01	1695.72
715.19	1789.92
715.38	1658.85
715.56	1701.86
715.74	1660.90
715.92	1677.29
716.11	1834.98
716.29	1605.61
716.47	1640.42
716.65	1705.96
716.84	1611.75
717.02	1736.68
717.20	1624.04
717.38	1718.25
717.57	1677.29
717.75	1660.90
717.93	1658.85
718.11	1763.30
718.30	1644.52
718.48	1718.25
718.66	1773.54
718.84	1742.82
719.03	1777.64
719.21	1638.38
719.39	1773.54
719.57	1740.77
719.75	1703.91
719.94	1714.15
720.12	1624.04
720.30	1746.92
720.48	1740.77
720.67	1720.29
720.85	1640.42
721.03	1660.90
721.21	1548.26
721.39	1767.40
721.58	1755.11
721.76	1691.62
721.94	1632.23
722.12	1681.38
722.30	1730.53
722.49	1681.38
722.67	1697.77
722.85	1697.77
723.03	1644.52
723.21	1628.14
723.40	1757.16
723.58	1738.73
723.76	1726.44
723.94	1726.44
724.12	1724.39
724.30	1777.64
724.49	1767.40
724.67	1593.32
724.85	1755.11
725.03	1665.00
725.21	1765.35
725.40	1722.34
725.58	1665.00
725.76	1785.83
725.94	1681.38
726.12	1705.96
726.30	1642.47
726.49	1699.81
726.67	1681.38
726.85	1667.05
727.03	1769.44
727.21	2164.70
727.39	2936.79
727.57	3743.69
727.76	4048.83
727.94	4378.56
728.12	4349.89
728.30	3600.33
728.48	3024.85
728.66	2754.52
728.84	2582.49
729.03	2318.30
729.21	2164.70
729.39	1968.10
729.57	1814.50
729.75	1826.79
729.93	1808.36
730.11	1677.29
730.30	1800.16
730.48	1724.39
730.66	1746.92
730.84	1783.78
731.02	1705.96
731.20	1697.77
731.38	1728.49
731.56	1736.68
731.74	1667.05
731.93	1718.25
732.11	1697.77
732.29	1712.10
732.47	1730.53
732.65	1685.48
732.83	1789.92
733.01	1699.81
733.19	1708.01
733.37	1677.29
733.56	1695.72
733.74	1716.20
733.92	1732.58
734.10	1691.62
734.28	1746.92
734.46	1601.51
734.64	1642.47
734.82	1697.77
735.00	1652.71
735.18	1656.81
735.36	1705.96
735.54	1681.38
735.73	1683.43
735.91	1730.53
736.09	1832.93
736.27	1728.49
736.45	1755.11
736.63	1654.76
736.81	1615.85
736.99	1771.49
737.17	1718.25
737.35	1693.67
737.53	1724.39
737.71	1708.01
737.89	1832.93
738.07	1742.82
738.25	1742.82
738.43	1566.70
738.61	1619.94
738.80	1667.05
738.98	1728.49
739.16	1714.15
739.34	1628.14
739.52	1777.64
739.70	1660.90
739.88	1693.67
740.06	1785.83
740.24	1535.98
740.42	1724.39
740.60	1636.33
740.78	1724.39
740.96	1619.94
741.14	1703.91
741.32	1718.25
741.50	1599.46
741.68	1814.50
741.86	1761.25
742.04	1599.46
742.22	1669.09
742.40	1699.81
742.58	1744.87
742.76	1609.70
742.94	1652.71
743.12	1638.38
743.30	1763.30
743.48	1732.58
743.66	1632.23
743.84	1695.72
744.02	1638.38
744.20	1687.53
744.38	1699.81
744.56	1695.72
744.74	1783.78
744.92	1619.94
745.10	1732.58
745.28	1732.58
745.46	1744.87
745.64	1705.96
745.82	1734.63
746.00	1757.16
746.18	1693.67
746.36	1636.33
746.54	1679.33
746.72	1701.86
746.90	1644.52
747.08	1716.20
747.26	1642.47
747.44	1710.05
747.62	1753.06
747.80	1837.03
747.98	1714.15
748.15	1708.01
748.33	1804.26
748.51	1687.53
748.69	1746.92
748.87	1683.43
749.05	1677.29
749.23	1609.70
749.41	1826.79
749.59	1738.73
749.77	1728.49
749.95	1675.24
750.13	1685.48
750.31	1708.01
750.49	1626.09
750.67	1710.05
750.85	1722.34
751.03	1708.01
751.20	1775.59
751.38	1732.58
751.56	1566.70
751.74	1638.38
751.92	1613.80
752.10	1642.47
752.28	1748.97
752.46	1673.19
752.64	1660.90
752.82	1669.09
753.00	1701.86
753.18	1654.76
753.35	1677.29
753.53	1615.85
753.71	1746.92
753.89	1824.74
754.07	1640.42
754.25	1769.44
754.43	1697.77
754.61	1644.52
754.79	1730.53
754.97	1658.85
755.14	1765.35
755.32	1689.57
755.50	1679.33
755.68	1736.68
755.86	1640.42
756.04	1675.24
756.22	1566.70
756.40	1658.85
756.57	1806.31
756.75	1695.72
756.93	1769.44
757.11	1669.09
757.29	1658.85
757.47	1650.66
757.65	1632.23
757.82	1605.61
758.00	1716.20
758.18	1624.04
758.36	1650.66
758.54	1814.50
758.72	1603.56
758.90	1812.45
759.07	1710.05
759.25	1665.00
759.43	1652.71
759.61	1615.85
759.79	2156.51
759.97	1677.29
760.15	1740.77
760.32	1617.90
760.50	1693.67
760.68	1785.83
760.86	1642.47
761.04	1773.54
761.22	1693.67
761.39	1701.86
761.57	1697.77
761.75	1681.38
761.93	1730.53
762.11	1632.23
762.28	1716.20
762.46	1712.10
762.64	1693.67
762.82	1613.80
763.00	1656.81
763.18	1767.40
763.35	1603.56
763.53	1720.29
763.71	1660.90
763.89	1689.57
764.07	1714.15
764.24	1730.53
764.42	1740.77
764.60	1705.96
764.78	1699.81
764.96	1697.77
765.13	1761.25
765.31	1710.05
765.49	1712.10
765.67	1677.29
765.84	1638.38
766.02	1638.38
766.20	1611.75
766.38	1648.61
766.56	1742.82
766.73	1802.21
766.91	1800.16
767.09	1669.09
767.27	1757.16
767.44	1603.56
767.62	1703.91
767.80	1757.16
767.98	1689.57
768.15	1652.71
768.33	1714.15
768.51	1722.34
768.69	1679.33
768.87	1734.63
769.04	1697.77
769.22	1812.45
769.40	1697.77
769.58	1877.99
769.75	1734.63
769.93	1761.25
770.11	1624.04
770.28	1724.39
770.46	1685.48
770.64	1718.25
770.82	1714.15
770.99	1724.39
771.17	1722.34
771.35	1763.30
771.53	1767.40
771.70	1703.91
771.88	1718.25
772.06	1732.58
772.23	1716.20
772.41	1740.77
772.59	1660.90
772.77	1607.66
772.94	1611.75
773.12	1691.62
773.30	1650.66
773.47	1703.91
773.65	1642.47
773.83	1761.25
774.01	1742.82
774.18	1628.14
774.36	1761.25
774.54	1628.14
774.71	1703.91
774.89	1617.90
775.07	1624.04
775.24	1626.09
775.42	1636.33
775.60	1767.40
775.78	1597.42
775.95	1642.47
776.13	1601.51
776.31	1587.18
776.48	1681.38
776.66	1796.07
776.84	1683.43
777.01	1679.33
777.19	1558.50
777.37	1650.66
777.54	1669.09
777.72	1902.56
777.90	1695.72
778.07	1687.53
778.25	1904.61
778.43	1693.67
778.60	1675.24
778.78	1742.82
778.96	1699.81
779.13	1650.66
779.31	1710.05
779.49	1699.81
779.66	1697.77
779.84	1669.09
780.01	1675.24
780.19	1726.44
780.37	1779.68
780.54	1751.01
780.72	1675.24
780.90	1689.57
781.07	1734.63
781.25	1665.00
781.43	1794.02
781.60	1621.99
781.78	1771.49
781.95	1738.73
782.13	1650.66
782.31	1757.16
782.48	1560.55
782.66	1714.15
782.83	1767.40
783.01	1773.54
783.19	1783.78
783.36	1619.94
783.54	1673.19
783.72	1742.82
783.89	1642.47
784.07	1681.38
784.24	1767.40
784.42	1738.73
784.60	1681.38
784.77	1701.86
784.95	1644.52
785.12	1626.09
785.30	1703.91
785.47	1705.96
785.65	1685.48
785.83	1646.57
786.00	1710.05
786.18	1662.95
786.35	1665.00
786.53	1648.61
786.71	1736.68
786.88	1779.68
787.06	1716.20
787.23	1730.53
787.41	1665.00
787.58	1730.53
787.76	1628.14
787.94	1697.77
788.11	1742.82
788.29	1660.90
788.46	1650.66
788.64	1683.43
788.81	1648.61
788.99	1621.99
789.16	1648.61
789.34	1691.62
789.52	1697.77
789.69	1665.00
789.87	1611.75
790.04	1671.14
790.22	1787.88
790.39	1769.44
790.57	1665.00
790.74	1695.72
790.92	1714.15
791.09	1552.36
791.27	1730.53
791.44	1738.73
791.62	1689.57
791.79	1736.68
791.97	1679.33
792.15	1853.41
792.32	1681.38
792.50	1679.33
792.67	1814.50
792.85	1761.25
793.02	1648.61
793.20	1722.34
793.37	1724.39
793.55	1742.82
793.72	1642.47
793.90	1740.77
794.07	1601.51
794.25	1718.25
794.42	1714.15
794.60	1673.19
794.77	1730.53
794.95	1757.16
795.12	1751.01
795.30	1667.05
795.47	1603.56
795.65	1859.56
795.82	1689.57
796.00	1714.15
796.17	1714.15
796.34	1642.47
796.52	1689.57
796.69	1785.83
796.87	1761.25
797.04	1701.86
797.22	1806.31
797.39	1785.83
797.57	1740.77
797.74	1746.92
797.92	1691.62
798.09	1699.81
798.27	1787.88
798.44	1718.25
798.62	1681.38
798.79	1736.68
798.96	1701.86
799.14	1687.53
799.31	1816.55
799.49	1646.57
799.66	1632.23
799.84	1732.58
800.01	1656.81
800.19	1687.53
800.36	1554.41
800.53	1779.68
800.71	1691.62
800.88	1794.02
801.06	1681.38
801.23	1658.85
801.41	1630.18
801.58	1740.77
801.75	1617.90
801.93	1779.68
802.10	1800.16
802.28	1656.81
802.45	1689.57
802.63	1775.59
802.80	1837.03
802.97	1697.77
803.15	1679.33
803.32	1669.09
803.50	1621.99
803.67	1699.81
803.84	1660.90
804.02	1693.67
804.19	1712.10
804.37	1513.45
804.54	1589.22
804.71	1652.71
804.89	1654.76
805.06	1581.03
805.24	1695.72
805.41	1605.61
805.58	1613.80
805.76	1847.27
805.93	1701.86
806.10	1708.01
806.28	1761.25
806.45	1710.05
806.63	1742.82
806.80	1763.30
806.97	1722.34
807.15	1708.01
807.32	1730.53
807.49	1757.16
807.67	1583.08
807.84	1744.87
808.01	1578.98
808.19	1855.46
808.36	1808.36
808.54	1640.42
808.71	1650.66
808.88	1681.38
809.06	1769.44
809.23	1689.57
809.40	1687.53
809.58	1757.16
809.75	1716.20
809.92	1638.38
810.10	1789.92
810.27	1716.20
810.44	1734.63
810.62	1746.92
810.79	1724.39
810.96	1656.81
811.14	1640.42
811.31	1640.42
811.48	1724.39
811.66	1732.58
811.83	1722.34
812.00	1705.96
812.18	1673.19
812.35	1804.26
812.52	1669.09
812.69	1652.71
812.87	1679.33
813.04	1691.62
813.21	1689.57
813.39	1650.66
813.56	1613.80
813.73	1796.07
813.91	1599.46
814.08	1722.34
814.25	1691.62
814.42	1624.04
814.60	1636.33
814.77	1824.74
814.94	1671.14
815.12	1718.25
815.29	1730.53
815.46	1681.38
815.63	1732.58
815.81	1646.57
815.98	1697.77
816.15	1759.21
816.33	1744.87
816.50	1687.53
816.67	1699.81
816.84	1665.00
817.02	1650.66
817.19	1716.20
817.36	1716.20
817.53	1669.09
817.71	1572.84
817.88	1740.77
818.05	1679.33
818.22	1656.81
818.40	1794.02
818.57	1695.72
818.74	1650.66
818.91	1681.38
819.09	1794.02
819.26	1773.54
819.43	1636.33
819.60	1660.90
819.78	1771.49
819.95	1820.64
820.12	1710.05
820.29	1734.63
820.47	1779.68
820.64	1656.81
820.81	1634.28
820.98	1669.09
821.15	1638.38
821.33	1783.78
821.50	1611.75
821.67	1628.14
821.84	1634.28
822.02	1746.92
822.19	1777.64
822.36	1724.39
822.53	1624.04
822.70	1554.41
822.88	1687.53
823.05	1744.87
823.22	1665.00
823.39	1658.85
823.56	1691.62
823.74	1724.39
823.91	1628.14
824.08	1636.33
824.25	1685.48
824.42	1771.49
824.60	1689.57
824.77	1746.92
824.94	1755.11
825.11	1748.97
825.28	1572.84
825.45	1763.30
825.63	1701.86
825.80	1687.53
825.97	1710.05
826.14	1710.05
826.31	1681.38
826.48	1701.86
826.66	1689.57
826.83	1734.63
827.00	1736.68
827.17	1734.63
827.34	1552.36
827.51	1646.57
827.69	1697.77
827.86	1636.33
828.03	1628.14
828.20	1681.38
828.37	1695.72
828.54	1730.53
828.71	1660.90
828.89	1703.91
829.06	1794.02
829.23	1712.10
829.40	1667.05
829.57	1609.70
829.74	1734.63
829.91	1669.09
830.09	1601.51
830.26	1777.64
830.43	1724.39
830.60	1722.34
830.77	1753.06
830.94	1761.25
831.11	1718.25
831.28	1697.77
831.46	1691.62
831.63	1658.85
831.80	1740.77
831.97	1697.77
832.14	1632.23
832.31	1687.53
832.48	1650.66
832.65	1746.92
832.82	1671.14
832.99	1697.77
833.17	1660.90
833.34	1806.31
833.51	1734.63
833.68	1558.50
833.85	1742.82
834.02	1578.98
834.19	1531.88
834.36	1634.28
834.53	1665.00
834.70	1701.86
834.87	1732.58
835.04	1660.90
835.22	1699.81
835.39	1619.94
835.56	1603.56
835.73	1595.37
835.90	1798.12
836.07	1681.38
836.24	1724.39
836.41	1548.26
836.58	1587.18
836.75	1798.12
836.92	1746.92
837.09	1638.38
837.26	1722.34
837.43	1695.72
837.60	1681.38
837.77	1599.46
837.94	1695.72
838.12	1740.77
838.29	1699.81
838.46	1665.00
838.63	1572.84
838.80	1828.84
838.97	1746.92
839.14	1662.95
839.31	1693.67
839.48	1701.86
839.65	1710.05
839.82	1718.25
839.99	1701.86
840.16	1708.01
840.33	1761.25
840.50	1660.90
840.67	1638.38
840.84	1550.31
841.01	1705.96
841.18	1673.19
841.35	1681.38
841.52	1753.06
841.69	1777.64
841.86	1748.97
842.03	1685.48
842.20	1619.94
842.37	1605.61
842.54	1683.43
842.71	1724.39
842.88	1716.20
843.05	1744.87
843.22	1632.23
843.39	1697.77
843.56	1560.55
843.73	1748.97
843.90	1638.38
844.07	1722.34
844.24	1746.92
844.41	1740.77
844.58	1753.06
844.75	1667.05
844.92	1718.25
845.09	1691.62
845.26	1669.09
845.43	1693.67
845.60	1603.56
845.77	1794.02
845.94	1757.16
846.10	1724.39
846.27	1634.28
846.44	1548.26
846.61	1628.14
846.78	1748.97
846.95	1785.83
847.12	1701.86
847.29	1703.91
847.46	1660.90
847.63	1796.07
847.80	1734.63
847.97	1662.95
848.14	1859.56
848.31	1652.71
848.48	1613.80
848.65	1654.76
848.82	1693.67
848.98	1759.21
849.15	1701.86
849.32	1834.98
849.49	1724.39
849.66	1720.29
849.83	1681.38
850.00	1673.19
850.17	1718.25
850.34	1701.86
850.51	1603.56
850.68	1619.94
850.85	1808.36
851.01	1710.05
851.18	1730.53
851.35	1638.38
851.52	1660.90
851.69	1806.31
851.86	1632.23
852.03	1699.81
852.20	1828.84
852.37	1681.38
852.53	1593.32
852.70	1763.30
852.87	1687.53
853.04	1710.05
853.21	1689.57
853.38	1748.97
853.55	1759.21
853.72	1722.34
853.89	1628.14
854.05	1607.66
854.22	1634.28
854.39	1689.57
854.56	1703.91
854.73	1734.63
854.90	1722.34
855.07	1710.05
855.23	1740.77
855.40	1642.47
855.57	1701.86
855.74	1509.35
855.91	1851.36
856.08	1640.42
856.25	1595.37
856.41	1662.95
856.58	1732.58
856.75	1699.81
856.92	1619.94
857.09	1708.01
857.26	1568.74
857.42	1726.44
857.59	1765.35
857.76	1650.66
857.93	1771.49
858.10	1789.92
858.27	1681.38
858.43	1689.57
858.60	1652.71
858.77	1587.18
858.94	1642.47
859.11	1824.74
859.27	1689.57
859.44	1705.96
859.61	1869.80
859.78	1742.82
859.95	1667.05
860.12	1718.25
860.28	1757.16
860.45	1794.02
860.62	1660.90
860.79	1619.94
860.95	1589.22
861.12	1646.57
861.29	1615.85
861.46	1626.09
861.63	1570.79
861.79	1699.81
861.96	1675.24
862.13	1646.57
862.30	1767.40
862.47	1591.27
862.63	1589.22
862.80	1724.39
862.97	1716.20
863.14	1734.63
863.30	1708.01
863.47	1699.81
863.64	1781.73
863.81	1748.97
863.97	1650.66
864.14	1726.44
864.31	1689.57
864.48	1759.21
864.65	1734.63
864.81	1800.16
864.98	1732.58
865.15	1798.12
865.32	1759.21
865.48	1783.78
865.65	1769.44
865.82	1562.60
865.98	1667.05
866.15	1814.50
866.32	1689.57
866.49	1751.01
866.65	1734.63
866.82	1646.57
866.99	1716.20
867.16	1669.09
867.32	1673.19
867.49	1624.04
867.66	1699.81
867.83	1619.94
867.99	1710.05
868.16	1714.15
868.33	1689.57
868.49	1581.03
868.66	1699.81
868.83	1734.63
868.99	1736.68
869.16	1662.95
869.33	1691.62
869.50	1732.58
869.66	1720.29
869.83	1607.66
870.00	1648.61
870.16	1689.57
870.33	1726.44
870.50	1667.05
870.66	1667.05
870.83	1826.79
871.00	1656.81
871.17	1720.29
871.33	1767.40
871.50	1662.95
871.67	1691.62
871.83	1705.96
872.00	1763.30
872.17	1601.51
872.33	1794.02
872.50	1724.39
872.67	1644.52
872.83	1656.81
873.00	1679.33
873.17	1626.09
873.33	1761.25
873.50	1697.77
873.67	1654.76
873.83	1673.19
874.00	1665.00
874.16	1779.68
874.33	1693.67
874.50	1736.68
874.66	1755.11
874.83	1683.43
875.00	1814.50
875.16	1800.16
875.33	1705.96
875.50	1599.46
875.66	1660.90
875.83	1669.09
875.99	1755.11
876.16	1753.06
876.33	1529.83
876.49	1695.72
876.66	1710.05
876.83	1691.62
876.99	1648.61
877.16	1673.19
877.32	1632.23
877.49	1615.85
877.66	1730.53
877.82	1769.44
877.99	1693.67
878.15	1730.53
878.32	1714.15
878.49	1724.39
878.65	1673.19
878.82	1779.68
878.98	1650.66
879.15	1769.44
879.32	1691.62
879.48	1734.63
879.65	1667.05
879.81	1644.52
879.98	1599.46
880.15	1650.66
880.31	1734.63
880.48	1638.38
880.64	1730.53
880.81	1773.54
880.97	1683.43
881.14	1763.30
881.31	1683.43
881.47	1843.17
881.64	1679.33
881.80	1640.42
881.97	1757.16
882.13	1796.07
882.30	1578.98
882.47	1652.71
882.63	1607.66
882.80	1587.18
882.96	1687.53
883.13	1734.63
883.29	1701.86
883.46	1763.30
883.62	1869.80
883.79	1732.58
883.95	1736.68
884.12	1716.20
884.29	1724.39
884.45	1710.05
884.62	1697.77
884.78	1615.85
884.95	1791.97
885.11	1593.32
885.28	1785.83
885.44	1642.47
885.61	1736.68
885.77	1802.21
885.94	1714.15
886.10	1732.58
886.27	1677.29
886.43	1824.74
886.60	1730.53
886.76	1667.05
886.93	1710.05
887.09	1687.53
887.26	1558.50
887.42	1697.77
887.59	1767.40
887.75	1880.04
887.92	1695.72
888.08	1718.25
888.25	1820.64
888.41	1820.64
888.58	1740.77
888.74	1644.52
888.91	1658.85
>>>>>End Processed Spectral Data<<<<<
