SpectraSuite Data File
++++++++++++++++++++++++++++++++++++
Date: Mon Jun 06 13:04:17 CEST 2016
User: root
Dark Spectrum Present: No
Reference Spectrum Present: No
Number of Sampled Component Spectra: 1
Spectrometers: USB4C02835
Integration Time (usec): 100000 (USB4C02835)
Spectra Averaged: 1 (USB4C02835)
Boxcar Smoothing: 0 (USB4C02835)
Correct for Electrical Dark: No (USB4C02835)
Strobe/Lamp Enabled: No (USB4C02835)
Correct for Detector Non-linearity: No (USB4C02835)
Correct for Stray Light: No (USB4C02835)
Number of Pixels in Processed Spectrum: 3648
>>>>>Begin Processed Spectral Data<<<<<
177.47	1523.69
177.69	1523.69
177.91	1523.69
178.13	1415.15
178.36	1441.77
178.58	1650.66
178.80	1687.53
179.02	1617.90
179.24	1705.96
179.46	1705.96
179.68	1873.89
179.90	1710.05
180.13	1665.00
180.35	1689.57
180.57	1759.21
180.79	1781.73
181.01	1656.81
181.23	1767.40
181.45	1759.21
181.67	1681.38
181.90	1763.30
182.12	1658.85
182.34	1574.89
182.56	1720.29
182.78	1654.76
183.00	1755.11
183.22	1609.70
183.44	1570.79
183.66	1865.70
183.89	1787.88
184.11	1652.71
184.33	1718.25
184.55	1812.45
184.77	1644.52
184.99	1736.68
185.21	1652.71
185.43	1785.83
185.65	1683.43
185.87	1726.44
186.10	1828.84
186.32	1769.44
186.54	1689.57
186.76	1718.25
186.98	1785.83
187.20	1714.15
187.42	1703.91
187.64	1718.25
187.86	1691.62
188.08	1837.03
188.30	1677.29
188.52	1671.14
188.75	1759.21
188.97	1718.25
189.19	1632.23
189.41	1650.66
189.63	1734.63
189.85	1705.96
190.07	1599.46
190.29	1603.56
190.51	1730.53
190.73	1603.56
190.95	1832.93
191.17	1703.91
191.39	1566.70
191.61	1730.53
191.84	1685.48
192.06	1759.21
192.28	1624.04
192.50	1789.92
192.72	1736.68
192.94	1687.53
193.16	1818.60
193.38	1718.25
193.60	1601.51
193.82	1644.52
194.04	1716.20
194.26	1773.54
194.48	1642.47
194.70	1705.96
194.92	1601.51
195.14	1642.47
195.36	1615.85
195.58	1718.25
195.80	1697.77
196.02	1656.81
196.24	1667.05
196.46	1636.33
196.69	1687.53
196.91	1849.32
197.13	1679.33
197.35	1669.09
197.57	1820.64
197.79	1777.64
198.01	1730.53
198.23	1789.92
198.45	1767.40
198.67	1665.00
198.89	1673.19
199.11	1683.43
199.33	1605.61
199.55	1644.52
199.77	1728.49
199.99	1767.40
200.21	1646.57
200.43	1701.86
200.65	1677.29
200.87	1574.89
201.09	1656.81
201.31	1656.81
201.53	1746.92
201.75	1689.57
201.97	1681.38
202.19	1732.58
202.41	1736.68
202.63	1867.75
202.85	1753.06
203.07	1646.57
203.29	1763.30
203.51	1607.66
203.73	1660.90
203.95	1902.56
204.17	1699.81
204.39	1638.38
204.61	1693.67
204.83	1769.44
205.05	1710.05
205.27	1775.59
205.49	1839.08
205.71	1644.52
205.93	1671.14
206.15	1703.91
206.37	1683.43
206.59	1644.52
206.81	1658.85
207.03	1634.28
207.25	1640.42
207.47	1744.87
207.69	1621.99
207.91	1777.64
208.13	1755.11
208.34	1675.24
208.56	1601.51
208.78	1767.40
209.00	1703.91
209.22	1636.33
209.44	1708.01
209.66	1724.39
209.88	1742.82
210.10	1710.05
210.32	1687.53
210.54	1722.34
210.76	1759.21
210.98	1732.58
211.20	1619.94
211.42	1736.68
211.64	1705.96
211.86	1728.49
212.08	1724.39
212.30	1697.77
212.52	1718.25
212.74	1642.47
212.96	1730.53
213.17	1765.35
213.39	1746.92
213.61	1695.72
213.83	1734.63
214.05	1683.43
214.27	1757.16
214.49	1675.24
214.71	1675.24
214.93	1800.16
215.15	1742.82
215.37	1771.49
215.59	1660.90
215.81	1763.30
216.03	1701.86
216.24	1746.92
216.46	1636.33
216.68	1697.77
216.90	1779.68
217.12	1718.25
217.34	1699.81
217.56	1757.16
217.78	1742.82
218.00	1673.19
218.22	1781.73
218.44	1804.26
218.66	1691.62
218.87	1738.73
219.09	1662.95
219.31	1697.77
219.53	1732.58
219.75	1730.53
219.97	1667.05
220.19	1658.85
220.41	1718.25
220.63	1794.02
220.85	1689.57
221.06	1644.52
221.28	1828.84
221.50	1677.29
221.72	1681.38
221.94	1665.00
222.16	1697.77
222.38	1791.97
222.60	1794.02
222.82	1695.72
223.03	1736.68
223.25	1654.76
223.47	1771.49
223.69	1841.12
223.91	1708.01
224.13	1722.34
224.35	1617.90
224.57	1746.92
224.78	1701.86
225.00	1658.85
225.22	1761.25
225.44	1716.20
225.66	1701.86
225.88	1728.49
226.10	1748.97
226.32	1724.39
226.53	1810.40
226.75	1708.01
226.97	1585.13
227.19	1671.14
227.41	1691.62
227.63	1615.85
227.85	1646.57
228.06	1638.38
228.28	1628.14
228.50	1624.04
228.72	1617.90
228.94	1685.48
229.16	1527.78
229.37	1609.70
229.59	1669.09
229.81	1740.77
230.03	1714.15
230.25	1660.90
230.47	1658.85
230.69	1611.75
230.90	1718.25
231.12	1667.05
231.34	1656.81
231.56	1769.44
231.78	1615.85
232.00	1740.77
232.21	1640.42
232.43	1685.48
232.65	1624.04
232.87	1718.25
233.09	1728.49
233.30	1677.29
233.52	1738.73
233.74	1710.05
233.96	1699.81
234.18	1697.77
234.40	1705.96
234.61	1783.78
234.83	1611.75
235.05	1634.28
235.27	1806.31
235.49	1808.36
235.70	1732.58
235.92	1767.40
236.14	1753.06
236.36	1820.64
236.58	1589.22
236.79	1722.34
237.01	1621.99
237.23	1662.95
237.45	1855.46
237.67	1650.66
237.88	1720.29
238.10	1837.03
238.32	1673.19
238.54	1736.68
238.76	1654.76
238.97	1699.81
239.19	1648.61
239.41	1783.78
239.63	1716.20
239.85	1693.67
240.06	1611.75
240.28	1673.19
240.50	1771.49
240.72	1695.72
240.93	1646.57
241.15	1689.57
241.37	1722.34
241.59	1779.68
241.81	1730.53
242.02	1644.52
242.24	1732.58
242.46	1775.59
242.68	1628.14
242.89	1718.25
243.11	1843.17
243.33	1630.18
243.55	1753.06
243.76	1699.81
243.98	1662.95
244.20	1624.04
244.42	1718.25
244.64	1738.73
244.85	1695.72
245.07	1656.81
245.29	1691.62
245.51	1710.05
245.72	1730.53
245.94	1742.82
246.16	1748.97
246.38	1724.39
246.59	1646.57
246.81	1763.30
247.03	1689.57
247.24	1591.27
247.46	1748.97
247.68	1730.53
247.90	1708.01
248.11	1724.39
248.33	1738.73
248.55	1730.53
248.77	1671.14
248.98	1796.07
249.20	1804.26
249.42	1775.59
249.64	1673.19
249.85	1716.20
250.07	1529.83
250.29	1716.20
250.50	1783.78
250.72	1646.57
250.94	1673.19
251.16	1720.29
251.37	1710.05
251.59	1699.81
251.81	1759.21
252.02	1718.25
252.24	1699.81
252.46	1724.39
252.68	1677.29
252.89	1660.90
253.11	1630.18
253.33	1824.74
253.54	1703.91
253.76	1652.71
253.98	1669.09
254.20	1701.86
254.41	1613.80
254.63	1638.38
254.85	1585.13
255.06	1734.63
255.28	1744.87
255.50	1671.14
255.71	1722.34
255.93	1640.42
256.15	1710.05
256.36	1767.40
256.58	1687.53
256.80	1767.40
257.02	1726.44
257.23	1632.23
257.45	1796.07
257.67	1755.11
257.88	1669.09
258.10	1763.30
258.32	1763.30
258.53	1710.05
258.75	1751.01
258.97	1642.47
259.18	1677.29
259.40	1708.01
259.62	1812.45
259.83	1818.60
260.05	1800.16
260.27	1945.57
260.48	1814.50
260.70	1656.81
260.92	1720.29
261.13	1746.92
261.35	1695.72
261.57	1693.67
261.78	1685.48
262.00	1587.18
262.22	1763.30
262.43	1626.09
262.65	1648.61
262.86	1701.86
263.08	1832.93
263.30	1675.24
263.51	1578.98
263.73	1636.33
263.95	1818.60
264.16	1650.66
264.38	1652.71
264.60	1683.43
264.81	1728.49
265.03	1753.06
265.25	1712.10
265.46	1714.15
265.68	1787.88
265.89	1746.92
266.11	1691.62
266.33	1796.07
266.54	1748.97
266.76	1814.50
266.98	1705.96
267.19	1863.65
267.41	1751.01
267.62	1648.61
267.84	1630.18
268.06	1779.68
268.27	1595.37
268.49	1759.21
268.70	1734.63
268.92	1714.15
269.14	1693.67
269.35	1591.27
269.57	1783.78
269.79	1779.68
270.00	1615.85
270.22	1785.83
270.43	1656.81
270.65	1542.12
270.87	1732.58
271.08	1677.29
271.30	1744.87
271.51	1687.53
271.73	1839.08
271.95	1767.40
272.16	1816.55
272.38	1705.96
272.59	1689.57
272.81	1755.11
273.02	1746.92
273.24	1730.53
273.46	1810.40
273.67	1673.19
273.89	1673.19
274.10	1632.23
274.32	1755.11
274.54	1789.92
274.75	1701.86
274.97	1695.72
275.18	1775.59
275.40	1767.40
275.61	1691.62
275.83	1730.53
276.05	1648.61
276.26	1710.05
276.48	1746.92
276.69	1628.14
276.91	1642.47
277.12	1804.26
277.34	1810.40
277.55	1783.78
277.77	1812.45
277.99	1732.58
278.20	1683.43
278.42	1607.66
278.63	1667.05
278.85	1681.38
279.06	1624.04
279.28	1728.49
279.49	1748.97
279.71	1765.35
279.93	1669.09
280.14	1665.00
280.36	1595.37
280.57	1773.54
280.79	1656.81
281.00	1658.85
281.22	1671.14
281.43	1734.63
281.65	1617.90
281.86	1658.85
282.08	1691.62
282.29	1755.11
282.51	1660.90
282.73	1634.28
282.94	1607.66
283.16	1708.01
283.37	1804.26
283.59	1697.77
283.80	1742.82
284.02	1736.68
284.23	1722.34
284.45	1710.05
284.66	1701.86
284.88	1654.76
285.09	1781.73
285.31	1736.68
285.52	1785.83
285.74	1650.66
285.95	1681.38
286.17	1718.25
286.38	1718.25
286.60	1687.53
286.81	1669.09
287.03	1701.86
287.24	1683.43
287.46	1718.25
287.67	1697.77
287.89	1763.30
288.10	1755.11
288.32	1714.15
288.53	1769.44
288.75	1714.15
288.96	1781.73
289.18	1611.75
289.39	1632.23
289.61	1769.44
289.82	1775.59
290.04	1787.88
290.25	1636.33
290.47	1746.92
290.68	1679.33
290.90	1751.01
291.11	1605.61
291.33	1732.58
291.54	1665.00
291.76	1665.00
291.97	1746.92
292.18	1765.35
292.40	1701.86
292.61	1621.99
292.83	1791.97
293.04	1697.77
293.26	1705.96
293.47	1648.61
293.69	1687.53
293.90	1804.26
294.12	1781.73
294.33	1650.66
294.55	1726.44
294.76	1824.74
294.97	1761.25
295.19	1855.46
295.40	1675.24
295.62	1708.01
295.83	1708.01
296.05	1640.42
296.26	1773.54
296.48	1667.05
296.69	1693.67
296.90	1728.49
297.12	1683.43
297.33	1851.36
297.55	1710.05
297.76	1683.43
297.98	1716.20
298.19	1738.73
298.41	1687.53
298.62	1589.22
298.83	1796.07
299.05	1740.77
299.26	1730.53
299.48	1695.72
299.69	1699.81
299.90	1687.53
300.12	1652.71
300.33	1714.15
300.55	1644.52
300.76	1744.87
300.98	1632.23
301.19	1767.40
301.40	1619.94
301.62	1662.95
301.83	1722.34
302.05	1701.86
302.26	1689.57
302.47	1753.06
302.69	1646.57
302.90	1763.30
303.12	1583.08
303.33	1691.62
303.54	1824.74
303.76	1705.96
303.97	1654.76
304.19	1828.84
304.40	1617.90
304.61	1785.83
304.83	1830.88
305.04	1720.29
305.26	1691.62
305.47	1732.58
305.68	1712.10
305.90	1652.71
306.11	1722.34
306.33	1660.90
306.54	1691.62
306.75	1697.77
306.97	1644.52
307.18	1605.61
307.39	1708.01
307.61	1763.30
307.82	1642.47
308.04	1755.11
308.25	1654.76
308.46	1695.72
308.68	1685.48
308.89	1738.73
309.10	1755.11
309.32	1744.87
309.53	1718.25
309.74	1685.48
309.96	1687.53
310.17	1734.63
310.39	1759.21
310.60	1669.09
310.81	1685.48
311.03	1675.24
311.24	1748.97
311.45	1677.29
311.67	1800.16
311.88	1724.39
312.09	1650.66
312.31	1650.66
312.52	1677.29
312.73	1708.01
312.95	1611.75
313.16	1658.85
313.37	1757.16
313.59	1787.88
313.80	1703.91
314.01	1869.80
314.23	1662.95
314.44	1644.52
314.65	1640.42
314.87	1585.13
315.08	1605.61
315.29	1656.81
315.51	1628.14
315.72	1576.94
315.93	1816.55
316.15	1769.44
316.36	1619.94
316.57	1771.49
316.79	1722.34
317.00	1662.95
317.21	1759.21
317.43	1681.38
317.64	1722.34
317.85	1669.09
318.07	1636.33
318.28	1691.62
318.49	1875.94
318.70	1882.08
318.92	1791.97
319.13	1882.08
319.34	1839.08
319.56	1820.64
319.77	1734.63
319.98	1755.11
320.20	1814.50
320.41	1806.31
320.62	1736.68
320.83	1658.85
321.05	1818.60
321.26	1658.85
321.47	1652.71
321.69	1802.21
321.90	1630.18
322.11	1562.60
322.32	1675.24
322.54	1832.93
322.75	1681.38
322.96	1755.11
323.18	1632.23
323.39	1601.51
323.60	1617.90
323.81	1771.49
324.03	1712.10
324.24	1718.25
324.45	1740.77
324.66	1728.49
324.88	1695.72
325.09	1761.25
325.30	1740.77
325.52	1697.77
325.73	1699.81
325.94	1640.42
326.15	1599.46
326.37	1642.47
326.58	1726.44
326.79	1814.50
327.00	1632.23
327.22	1658.85
327.43	1671.14
327.64	1689.57
327.85	1791.97
328.07	1718.25
328.28	1783.78
328.49	1724.39
328.70	1667.05
328.92	1697.77
329.13	1679.33
329.34	1751.01
329.55	1759.21
329.76	1691.62
329.98	1701.86
330.19	1759.21
330.40	1759.21
330.61	1669.09
330.83	1796.07
331.04	1775.59
331.25	1716.20
331.46	1718.25
331.68	1619.94
331.89	1736.68
332.10	1615.85
332.31	1599.46
332.52	1673.19
332.74	1761.25
332.95	1693.67
333.16	1714.15
333.37	1740.77
333.58	1705.96
333.80	1683.43
334.01	1656.81
334.22	1656.81
334.43	1642.47
334.64	1730.53
334.86	1658.85
335.07	1640.42
335.28	1689.57
335.49	1587.18
335.70	1673.19
335.92	1705.96
336.13	1757.16
336.34	1693.67
336.55	1710.05
336.76	1818.60
336.98	1751.01
337.19	1687.53
337.40	1755.11
337.61	1853.41
337.82	1652.71
338.04	1855.46
338.25	1626.09
338.46	1654.76
338.67	1720.29
338.88	1591.27
339.09	1660.90
339.31	1634.28
339.52	1679.33
339.73	1679.33
339.94	1617.90
340.15	1742.82
340.36	1667.05
340.58	1724.39
340.79	1665.00
341.00	1701.86
341.21	1609.70
341.42	1738.73
341.63	1624.04
341.85	1816.55
342.06	1748.97
342.27	1607.66
342.48	1763.30
342.69	1585.13
342.90	1673.19
343.12	1843.17
343.33	1681.38
343.54	1818.60
343.75	1738.73
343.96	1681.38
344.17	1665.00
344.38	1724.39
344.60	1658.85
344.81	1699.81
345.02	1732.58
345.23	1744.87
345.44	1736.68
345.65	1748.97
345.86	1720.29
346.07	1720.29
346.29	1693.67
346.50	1708.01
346.71	1765.35
346.92	1726.44
347.13	1843.17
347.34	1740.77
347.55	1689.57
347.76	1693.67
347.98	1595.37
348.19	1628.14
348.40	1736.68
348.61	1662.95
348.82	1775.59
349.03	1730.53
349.24	1683.43
349.45	1806.31
349.66	1533.93
349.88	1644.52
350.09	1701.86
350.30	1820.64
350.51	1791.97
350.72	1681.38
350.93	1779.68
351.14	1619.94
351.35	1777.64
351.56	1677.29
351.77	1708.01
351.99	1753.06
352.20	1765.35
352.41	1751.01
352.62	1650.66
352.83	1673.19
353.04	1660.90
353.25	1613.80
353.46	1701.86
353.67	1746.92
353.88	1611.75
354.09	1714.15
354.30	1708.01
354.52	1810.40
354.73	1771.49
354.94	1738.73
355.15	1683.43
355.36	1873.89
355.57	1640.42
355.78	1779.68
355.99	1738.73
356.20	1695.72
356.41	1902.56
356.62	1689.57
356.83	1658.85
357.04	1794.02
357.25	1673.19
357.46	1724.39
357.68	1509.35
357.89	1665.00
358.10	1681.38
358.31	1812.45
358.52	1677.29
358.73	1603.56
358.94	1615.85
359.15	1615.85
359.36	1830.88
359.57	1687.53
359.78	1783.78
359.99	1701.86
360.20	1603.56
360.41	1656.81
360.62	1728.49
360.83	1687.53
361.04	1720.29
361.25	1718.25
361.46	1763.30
361.67	1726.44
361.88	1724.39
362.09	1716.20
362.30	1777.64
362.51	1619.94
362.72	1687.53
362.93	1691.62
363.14	1685.48
363.35	1755.11
363.56	1683.43
363.78	1705.96
363.99	1769.44
364.20	1662.95
364.41	1665.00
364.62	1773.54
364.83	1667.05
365.04	1677.29
365.25	1773.54
365.46	1841.12
365.67	1648.61
365.88	1683.43
366.09	1705.96
366.30	1675.24
366.51	1662.95
366.72	1621.99
366.93	1726.44
367.14	1693.67
367.35	1814.50
367.56	1699.81
367.77	1658.85
367.98	1738.73
368.18	1730.53
368.39	1734.63
368.60	1609.70
368.81	1769.44
369.02	1665.00
369.23	1689.57
369.44	1589.22
369.65	1648.61
369.86	1769.44
370.07	1738.73
370.28	1699.81
370.49	1689.57
370.70	1732.58
370.91	1691.62
371.12	1652.71
371.33	1738.73
371.54	1658.85
371.75	1830.88
371.96	1658.85
372.17	1699.81
372.38	1767.40
372.59	1734.63
372.80	1697.77
373.01	1662.95
373.22	1603.56
373.43	1689.57
373.64	1587.18
373.85	1781.73
374.06	1722.34
374.26	1757.16
374.47	1724.39
374.68	1751.01
374.89	1718.25
375.10	1705.96
375.31	1771.49
375.52	1671.14
375.73	1638.38
375.94	1689.57
376.15	1804.26
376.36	1652.71
376.57	1708.01
376.78	1714.15
376.99	1785.83
377.20	1812.45
377.40	1701.86
377.61	1886.18
377.82	1683.43
378.03	1765.35
378.24	1767.40
378.45	1695.72
378.66	1744.87
378.87	1613.80
379.08	1597.42
379.29	1646.57
379.50	1765.35
379.71	1673.19
379.91	1759.21
380.12	1660.90
380.33	1730.53
380.54	1693.67
380.75	1689.57
380.96	1753.06
381.17	1744.87
381.38	1705.96
381.59	1804.26
381.80	1697.77
382.00	1841.12
382.21	1763.30
382.42	1837.03
382.63	1853.41
382.84	1753.06
383.05	1828.84
383.26	1781.73
383.47	1744.87
383.68	1730.53
383.88	1705.96
384.09	1722.34
384.30	1843.17
384.51	1730.53
384.72	1665.00
384.93	1603.56
385.14	1683.43
385.35	1820.64
385.55	1654.76
385.76	1771.49
385.97	1767.40
386.18	1728.49
386.39	1665.00
386.60	1714.15
386.81	1679.33
387.02	1695.72
387.22	1679.33
387.43	1767.40
387.64	1751.01
387.85	1843.17
388.06	2230.24
388.27	4257.73
388.48	6713.24
388.68	8423.30
388.89	9504.62
389.10	9742.19
389.31	8568.70
389.52	7710.60
389.73	6717.34
389.93	6285.22
390.14	5765.03
390.35	5134.26
390.56	4757.43
390.77	3725.26
390.98	3090.38
391.18	2510.81
391.39	2152.42
391.60	1818.60
391.81	1875.94
392.02	1728.49
392.23	1839.08
392.43	1759.21
392.64	1886.18
392.85	1746.92
393.06	1806.31
393.27	1791.97
393.47	1714.15
393.68	1669.09
393.89	1656.81
394.10	1767.40
394.31	1718.25
394.52	1732.58
394.72	1675.24
394.93	1753.06
395.14	1681.38
395.35	1742.82
395.56	1693.67
395.76	1765.35
395.97	1822.69
396.18	1853.41
396.39	1892.32
396.60	1964.00
396.80	1841.12
397.01	1867.75
397.22	1773.54
397.43	1882.08
397.64	1779.68
397.84	1783.78
398.05	1857.51
398.26	1689.57
398.47	1789.92
398.67	1757.16
398.88	1693.67
399.09	1767.40
399.30	1748.97
399.51	1665.00
399.71	1585.13
399.92	1662.95
400.13	1759.21
400.34	1683.43
400.54	1689.57
400.75	1775.59
400.96	1708.01
401.17	1886.18
401.37	1730.53
401.58	1665.00
401.79	1685.48
402.00	1755.11
402.21	2027.49
402.41	1933.28
402.62	1908.71
402.83	1988.58
403.04	1904.61
403.24	2082.78
403.45	1781.73
403.66	1855.46
403.87	1869.80
404.07	1880.04
404.28	1890.28
404.49	1824.74
404.70	1765.35
404.90	1757.16
405.11	1685.48
405.32	1757.16
405.52	1736.68
405.73	1699.81
405.94	1679.33
406.15	1683.43
406.35	1705.96
406.56	1693.67
406.77	1660.90
406.98	1701.86
407.18	1615.85
407.39	1716.20
407.60	1675.24
407.80	1796.07
408.01	1673.19
408.22	1689.57
408.43	1683.43
408.63	1632.23
408.84	1695.72
409.05	1699.81
409.25	1671.14
409.46	1652.71
409.67	1757.16
409.88	1642.47
410.08	1576.94
410.29	1730.53
410.50	1753.06
410.70	1777.64
410.91	1644.52
411.12	1740.77
411.32	1716.20
411.53	1679.33
411.74	1804.26
411.95	1798.12
412.15	1697.77
412.36	1804.26
412.57	1796.07
412.77	1705.96
412.98	1732.58
413.19	1726.44
413.39	1746.92
413.60	1742.82
413.81	1837.03
414.01	1724.39
414.22	1794.02
414.43	1736.68
414.63	1697.77
414.84	1718.25
415.05	1744.87
415.25	1568.74
415.46	1736.68
415.67	1644.52
415.87	1710.05
416.08	1662.95
416.29	1687.53
416.49	1675.24
416.70	1650.66
416.91	1697.77
417.11	1701.86
417.32	1761.25
417.53	1812.45
417.73	1679.33
417.94	1671.14
418.15	1716.20
418.35	1658.85
418.56	1722.34
418.77	1867.75
418.97	1669.09
419.18	1671.14
419.38	1640.42
419.59	1636.33
419.80	1839.08
420.00	1730.53
420.21	1732.58
420.42	1701.86
420.62	1724.39
420.83	1609.70
421.04	1646.57
421.24	1722.34
421.45	1699.81
421.65	1656.81
421.86	1667.05
422.07	1712.10
422.27	1767.40
422.48	1757.16
422.69	1697.77
422.89	1636.33
423.10	1757.16
423.30	1746.92
423.51	1665.00
423.72	1716.20
423.92	1812.45
424.13	1634.28
424.33	1673.19
424.54	1746.92
424.75	1710.05
424.95	1808.36
425.16	1755.11
425.36	1705.96
425.57	1748.97
425.78	1812.45
425.98	1732.58
426.19	1621.99
426.39	1638.38
426.60	1736.68
426.81	1832.93
427.01	1734.63
427.22	1626.09
427.42	1689.57
427.63	1673.19
427.83	1781.73
428.04	1837.03
428.25	1710.05
428.45	1808.36
428.66	1800.16
428.86	1740.77
429.07	1710.05
429.28	1720.29
429.48	1689.57
429.69	1660.90
429.89	1763.30
430.10	1581.03
430.30	1787.88
430.51	1724.39
430.71	1685.48
430.92	1714.15
431.13	1705.96
431.33	1730.53
431.54	1683.43
431.74	1830.88
431.95	1658.85
432.15	1581.03
432.36	1753.06
432.56	1699.81
432.77	1812.45
432.98	1740.77
433.18	1662.95
433.39	1787.88
433.59	1722.34
433.80	1806.31
434.00	1892.32
434.21	1685.48
434.41	1718.25
434.62	1873.89
434.82	1667.05
435.03	1607.66
435.23	1722.34
435.44	1617.90
435.64	1744.87
435.85	1738.73
436.06	1695.72
436.26	1732.58
436.47	1728.49
436.67	1701.86
436.88	1675.24
437.08	1734.63
437.29	1794.02
437.49	1714.15
437.70	1761.25
437.90	1675.24
438.11	1794.02
438.31	1849.32
438.52	1959.91
438.72	1769.44
438.93	1880.04
439.13	1845.22
439.34	1812.45
439.54	1746.92
439.75	1771.49
439.95	1791.97
440.16	1665.00
440.36	1755.11
440.57	1728.49
440.77	1722.34
440.98	1693.67
441.18	1751.01
441.39	1679.33
441.59	1722.34
441.80	1820.64
442.00	1779.68
442.21	1802.21
442.41	1673.19
442.62	1796.07
442.82	1654.76
443.02	1767.40
443.23	1777.64
443.43	1697.77
443.64	1751.01
443.84	1710.05
444.05	1841.12
444.25	1701.86
444.46	1701.86
444.66	1759.21
444.87	1732.58
445.07	1658.85
445.28	1734.63
445.48	1787.88
445.69	1775.59
445.89	1894.37
446.09	1804.26
446.30	2082.78
446.50	2605.02
446.71	3706.82
446.91	4323.26
447.12	4753.34
447.32	4878.26
447.53	4358.08
447.73	3876.80
447.93	3545.03
448.14	3280.85
448.34	3237.84
448.55	2875.35
448.75	2873.30
448.96	2668.50
449.16	2445.27
449.36	2334.68
449.57	2097.12
449.77	1869.80
449.98	1857.51
450.18	1820.64
450.39	1703.91
450.59	1783.78
450.79	1669.09
451.00	1671.14
451.20	1787.88
451.41	1714.15
451.61	1769.44
451.81	1751.01
452.02	1806.31
452.22	1734.63
452.43	1712.10
452.63	1650.66
452.84	1685.48
453.04	1761.25
453.24	1804.26
453.45	1636.33
453.65	1728.49
453.86	1736.68
454.06	1759.21
454.26	1751.01
454.47	1652.71
454.67	1787.88
454.87	1748.97
455.08	1828.84
455.28	1820.64
455.49	1689.57
455.69	1660.90
455.89	1890.28
456.10	1779.68
456.30	1685.48
456.51	1798.12
456.71	1771.49
456.91	1804.26
457.12	1740.77
457.32	1779.68
457.52	1634.28
457.73	1794.02
457.93	1652.71
458.14	1642.47
458.34	1675.24
458.54	1767.40
458.75	1693.67
458.95	1751.01
459.15	1748.97
459.36	1726.44
459.56	1775.59
459.76	1816.55
459.97	1746.92
460.17	1660.90
460.37	1734.63
460.58	1677.29
460.78	1808.36
460.99	1708.01
461.19	1693.67
461.39	1669.09
461.60	1675.24
461.80	1810.40
462.00	1658.85
462.21	1757.16
462.41	1669.09
462.61	1671.14
462.82	1714.15
463.02	1712.10
463.22	1699.81
463.43	1820.64
463.63	1642.47
463.83	1726.44
464.04	1673.19
464.24	1660.90
464.44	1701.86
464.64	1697.77
464.85	1814.50
465.05	1730.53
465.25	1724.39
465.46	1712.10
465.66	1814.50
465.86	1673.19
466.07	1777.64
466.27	1695.72
466.47	1589.22
466.68	1673.19
466.88	1912.80
467.08	1759.21
467.29	1796.07
467.49	1712.10
467.69	1785.83
467.89	1746.92
468.10	1693.67
468.30	1806.31
468.50	1773.54
468.71	1753.06
468.91	1574.89
469.11	1802.21
469.31	1712.10
469.52	1705.96
469.72	1773.54
469.92	1746.92
470.13	1673.19
470.33	1771.49
470.53	1800.16
470.73	2082.78
470.94	2308.06
471.14	2338.78
471.34	2549.72
471.54	2316.25
471.75	2189.28
471.95	2131.94
472.15	2111.46
472.36	2166.75
472.56	2099.17
472.76	2062.30
472.96	2084.83
473.17	1904.61
473.37	1863.65
473.57	1843.17
473.77	1800.16
473.98	1783.78
474.18	1656.81
474.38	1920.99
474.58	1732.58
474.79	1695.72
474.99	1685.48
475.19	1847.27
475.39	1718.25
475.60	1761.25
475.80	1748.97
476.00	1732.58
476.20	1726.44
476.41	1716.20
476.61	1787.88
476.81	1802.21
477.01	1632.23
477.21	1818.60
477.42	1724.39
477.62	1738.73
477.82	1712.10
478.02	1691.62
478.23	1710.05
478.43	1638.38
478.63	1673.19
478.83	1771.49
479.03	1638.38
479.24	1814.50
479.44	1884.13
479.64	1607.66
479.84	1591.27
480.04	1673.19
480.25	1761.25
480.45	1703.91
480.65	1755.11
480.85	1800.16
481.06	1667.05
481.26	1720.29
481.46	1705.96
481.66	1689.57
481.86	1671.14
482.06	1798.12
482.27	1716.20
482.47	1710.05
482.67	1736.68
482.87	1681.38
483.07	1796.07
483.28	1687.53
483.48	1697.77
483.68	1677.29
483.88	1677.29
484.08	1593.32
484.29	1695.72
484.49	1701.86
484.69	1681.38
484.89	1742.82
485.09	1693.67
485.29	1708.01
485.50	1738.73
485.70	1673.19
485.90	1779.68
486.10	1667.05
486.30	1714.15
486.50	1832.93
486.71	1697.77
486.91	1775.59
487.11	1787.88
487.31	1656.81
487.51	1767.40
487.71	1703.91
487.91	1662.95
488.12	1705.96
488.32	1640.42
488.52	1681.38
488.72	1667.05
488.92	1732.58
489.12	1724.39
489.32	1726.44
489.53	1724.39
489.73	1613.80
489.93	1751.01
490.13	1634.28
490.33	1667.05
490.53	1738.73
490.73	1798.12
490.94	1660.90
491.14	1824.74
491.34	1810.40
491.54	2088.93
491.74	2527.19
491.94	2918.36
492.14	3059.67
492.34	3010.51
492.54	2770.90
492.75	2496.47
492.95	2351.07
493.15	2240.48
493.35	2242.53
493.55	2228.19
493.75	2181.09
493.95	2148.32
494.15	2058.21
494.35	1910.75
494.56	1806.31
494.76	1830.88
494.96	1837.03
495.16	1742.82
495.36	1714.15
495.56	1779.68
495.76	1746.92
495.96	1746.92
496.16	1738.73
496.36	1898.47
496.56	1714.15
496.77	1761.25
496.97	1679.33
497.17	1744.87
497.37	1693.67
497.57	1771.49
497.77	1796.07
497.97	1667.05
498.17	1662.95
498.37	1703.91
498.57	1736.68
498.77	1679.33
498.97	1820.64
499.17	1828.84
499.38	1771.49
499.58	1771.49
499.78	1806.31
499.98	1736.68
500.18	1728.49
500.38	1779.68
500.58	1853.41
500.78	2559.96
500.98	4601.79
501.18	5732.26
501.38	6698.91
501.58	7051.16
501.78	6518.68
501.98	5599.15
502.18	4857.78
502.38	4384.70
502.58	4188.10
502.78	3731.40
502.98	3639.24
503.18	3563.47
503.38	3174.35
503.59	2783.19
503.79	2670.55
503.99	2459.61
504.19	2263.01
504.39	2207.71
504.59	2201.57
504.79	2164.70
504.99	2066.40
505.19	1908.71
505.39	1896.42
505.59	2004.96
505.79	1900.52
505.99	1843.17
506.19	1816.55
506.39	1910.75
506.59	1759.21
506.79	1757.16
506.99	1810.40
507.19	1710.05
507.39	1679.33
507.59	1669.09
507.79	1642.47
507.99	1665.00
508.19	1628.14
508.39	1673.19
508.59	1714.15
508.79	1863.65
508.99	1843.17
509.19	1609.70
509.39	1804.26
509.59	1775.59
509.79	1634.28
509.99	1755.11
510.19	1828.84
510.39	1746.92
510.59	1652.71
510.79	1732.58
510.99	1683.43
511.19	1744.87
511.39	1779.68
511.59	1808.36
511.79	1818.60
511.99	1648.61
512.19	1832.93
512.38	1695.72
512.58	1726.44
512.78	1781.73
512.98	1765.35
513.18	1832.93
513.38	1574.89
513.58	1763.30
513.78	1667.05
513.98	1755.11
514.18	1755.11
514.38	1734.63
514.58	1732.58
514.78	1703.91
514.98	1689.57
515.18	1755.11
515.38	1640.42
515.58	1861.60
515.78	1632.23
515.98	1779.68
516.18	1746.92
516.38	1763.30
516.57	1724.39
516.77	1675.24
516.97	1751.01
517.17	1697.77
517.37	1699.81
517.57	1736.68
517.77	1699.81
517.97	1658.85
518.17	1783.78
518.37	1736.68
518.57	1583.08
518.77	1726.44
518.97	1683.43
519.16	1722.34
519.36	1812.45
519.56	1656.81
519.76	1646.57
519.96	1738.73
520.16	1789.92
520.36	1675.24
520.56	1773.54
520.76	1718.25
520.96	1724.39
521.16	1718.25
521.35	1751.01
521.55	1816.55
521.75	1783.78
521.95	1724.39
522.15	1693.67
522.35	1656.81
522.55	1703.91
522.75	1828.84
522.95	1730.53
523.14	1751.01
523.34	1648.61
523.54	1679.33
523.74	1759.21
523.94	1759.21
524.14	1611.75
524.34	1822.69
524.54	1798.12
524.73	1751.01
524.93	1757.16
525.13	1773.54
525.33	1656.81
525.53	1896.42
525.73	1724.39
525.93	1701.86
526.13	1744.87
526.32	1656.81
526.52	1773.54
526.72	1722.34
526.92	1699.81
527.12	1763.30
527.32	1611.75
527.52	1714.15
527.71	1724.39
527.91	1724.39
528.11	1708.01
528.31	1689.57
528.51	1691.62
528.71	1802.21
528.90	1730.53
529.10	1755.11
529.30	1759.21
529.50	1564.65
529.70	1753.06
529.90	1751.01
530.09	1732.58
530.29	1619.94
530.49	1667.05
530.69	1834.98
530.89	1677.29
531.09	1755.11
531.28	1703.91
531.48	1828.84
531.68	1728.49
531.88	1751.01
532.08	1751.01
532.28	1765.35
532.47	1697.77
532.67	1777.64
532.87	1757.16
533.07	1701.86
533.27	1853.41
533.46	1757.16
533.66	1746.92
533.86	1728.49
534.06	1759.21
534.26	1771.49
534.45	1718.25
534.65	1755.11
534.85	1769.44
535.05	1724.39
535.25	1732.58
535.44	1607.66
535.64	1769.44
535.84	1652.71
536.04	1632.23
536.24	1658.85
536.43	1740.77
536.63	1732.58
536.83	1673.19
537.03	1767.40
537.22	1638.38
537.42	1667.05
537.62	1779.68
537.82	1685.48
538.02	1767.40
538.21	1746.92
538.41	1957.86
538.61	1765.35
538.81	1769.44
539.00	1816.55
539.20	1599.46
539.40	1667.05
539.60	1652.71
539.79	1753.06
539.99	1759.21
540.19	1679.33
540.39	1712.10
540.58	1761.25
540.78	1779.68
540.98	1814.50
541.18	1802.21
541.37	1742.82
541.57	1748.97
541.77	1718.25
541.97	1660.90
542.16	1679.33
542.36	1703.91
542.56	1800.16
542.76	1845.22
542.95	1736.68
543.15	1763.30
543.35	1677.29
543.54	1677.29
543.74	1644.52
543.94	1740.77
544.14	1693.67
544.33	1810.40
544.53	1710.05
544.73	1771.49
544.93	1738.73
545.12	1679.33
545.32	1724.39
545.52	1660.90
545.71	1658.85
545.91	1804.26
546.11	1738.73
546.30	1695.72
546.50	1650.66
546.70	1787.88
546.90	1691.62
547.09	1609.70
547.29	1753.06
547.49	1759.21
547.68	1728.49
547.88	1697.77
548.08	1884.13
548.27	2158.56
548.47	1710.05
548.67	1740.77
548.87	1755.11
549.06	1699.81
549.26	1755.11
549.46	1798.12
549.65	1689.57
549.85	1757.16
550.05	1808.36
550.24	1691.62
550.44	1779.68
550.64	1681.38
550.83	1708.01
551.03	1828.84
551.23	1751.01
551.42	1695.72
551.62	1777.64
551.82	1802.21
552.01	1720.29
552.21	1847.27
552.41	1722.34
552.60	1763.30
552.80	1716.20
553.00	1751.01
553.19	1673.19
553.39	1748.97
553.59	1697.77
553.78	1746.92
553.98	1783.78
554.17	1667.05
554.37	1767.40
554.57	1761.25
554.76	1607.66
554.96	1665.00
555.16	1724.39
555.35	1794.02
555.55	1798.12
555.75	1728.49
555.94	1693.67
556.14	1609.70
556.33	1714.15
556.53	1658.85
556.73	1697.77
556.92	1755.11
557.12	1751.01
557.32	1828.84
557.51	1787.88
557.71	1832.93
557.90	1783.78
558.10	1873.89
558.30	1746.92
558.49	1720.29
558.69	1691.62
558.88	1810.40
559.08	1734.63
559.28	1740.77
559.47	1769.44
559.67	1802.21
559.86	1828.84
560.06	1744.87
560.26	1730.53
560.45	1748.97
560.65	1667.05
560.84	1855.46
561.04	1665.00
561.24	1765.35
561.43	1675.24
561.63	1777.64
561.82	1837.03
562.02	1798.12
562.22	1658.85
562.41	1701.86
562.61	1728.49
562.80	1705.96
563.00	1920.99
563.19	1746.92
563.39	1751.01
563.59	1777.64
563.78	1710.05
563.98	1640.42
564.17	1699.81
564.37	1640.42
564.56	1679.33
564.76	1630.18
564.96	1877.99
565.15	1845.22
565.35	1839.08
565.54	1636.33
565.74	1763.30
565.93	1699.81
566.13	1685.48
566.32	1718.25
566.52	1800.16
566.71	1681.38
566.91	1812.45
567.11	1652.71
567.30	1722.34
567.50	1832.93
567.69	1705.96
567.89	1699.81
568.08	1705.96
568.28	1656.81
568.47	1746.92
568.67	1751.01
568.86	1726.44
569.06	1843.17
569.25	1714.15
569.45	1660.90
569.64	1724.39
569.84	1726.44
570.04	1789.92
570.23	1769.44
570.43	1703.91
570.62	1748.97
570.82	1841.12
571.01	1720.29
571.21	1724.39
571.40	1765.35
571.60	1812.45
571.79	1806.31
571.99	1710.05
572.18	1677.29
572.38	1814.50
572.57	1732.58
572.77	1697.77
572.96	1820.64
573.16	1779.68
573.35	1646.57
573.55	1867.75
573.74	1701.86
573.94	1714.15
574.13	1740.77
574.33	1744.87
574.52	1708.01
574.71	1714.15
574.91	1822.69
575.10	1738.73
575.30	1617.90
575.49	1722.34
575.69	1730.53
575.88	1716.20
576.08	1726.44
576.27	1753.06
576.47	1685.48
576.66	1847.27
576.86	1753.06
577.05	1738.73
577.25	1814.50
577.44	1837.03
577.64	1712.10
577.83	1763.30
578.02	1740.77
578.22	1886.18
578.41	1740.77
578.61	1724.39
578.80	1607.66
579.00	1849.32
579.19	1775.59
579.39	1771.49
579.58	1789.92
579.77	1740.77
579.97	1834.98
580.16	1839.08
580.36	1847.27
580.55	1859.56
580.75	1761.25
580.94	1818.60
581.13	1906.66
581.33	1837.03
581.52	1767.40
581.72	1920.99
581.91	1808.36
582.11	1785.83
582.30	1804.26
582.49	1740.77
582.69	1892.32
582.88	1787.88
583.08	1769.44
583.27	1761.25
583.47	1738.73
583.66	1755.11
583.85	1720.29
584.05	1724.39
584.24	1779.68
584.44	1744.87
584.63	1851.36
584.82	1853.41
585.02	1828.84
585.21	1783.78
585.41	1828.84
585.60	1812.45
585.79	1847.27
585.99	1910.75
586.18	1925.09
586.37	2172.89
586.57	3379.15
586.76	9992.04
586.96	24661.64
587.15	34348.53
587.34	40664.47
587.54	42003.84
587.73	36742.61
587.93	26396.27
588.12	21419.71
588.31	18335.46
588.51	16307.98
588.70	15142.68
588.89	14294.82
589.09	12478.27
589.28	11290.45
589.47	9211.76
589.67	7896.97
589.86	6424.48
590.06	4767.67
590.25	3985.35
590.44	3076.05
590.64	2508.76
590.83	2291.68
591.02	2041.82
591.22	1929.19
591.41	1882.08
591.60	1839.08
591.80	1867.75
591.99	1759.21
592.18	1802.21
592.38	1767.40
592.57	1728.49
592.76	1785.83
592.96	1785.83
593.15	1769.44
593.34	1718.25
593.54	1710.05
593.73	1794.02
593.92	1789.92
594.12	1738.73
594.31	1691.62
594.50	1755.11
594.70	1757.16
594.89	1873.89
595.08	1669.09
595.28	1822.69
595.47	1884.13
595.66	1712.10
595.86	1605.61
596.05	1773.54
596.24	1673.19
596.43	1861.60
596.63	1730.53
596.82	1724.39
597.01	1765.35
597.21	1783.78
597.40	1757.16
597.59	1730.53
597.79	1734.63
597.98	1818.60
598.17	1724.39
598.36	1683.43
598.56	1871.84
598.75	1662.95
598.94	1789.92
599.14	1771.49
599.33	1671.14
599.52	1837.03
599.71	1787.88
599.91	1765.35
600.10	1826.79
600.29	1691.62
600.48	1802.21
600.68	1718.25
600.87	1730.53
601.06	1732.58
601.26	1687.53
601.45	1783.78
601.64	1701.86
601.83	1877.99
602.03	1753.06
602.22	1609.70
602.41	1787.88
602.60	1822.69
602.80	1812.45
602.99	1761.25
603.18	1621.99
603.37	1748.97
603.57	1642.47
603.76	1810.40
603.95	1781.73
604.14	1705.96
604.34	1734.63
604.53	1697.77
604.72	1791.97
604.91	1751.01
605.10	1785.83
605.30	1644.52
605.49	1849.32
605.68	1703.91
605.87	1705.96
606.07	1683.43
606.26	1738.73
606.45	1751.01
606.64	1773.54
606.84	1751.01
607.03	1650.66
607.22	1806.31
607.41	1665.00
607.60	1751.01
607.80	1716.20
607.99	1779.68
608.18	1732.58
608.37	1744.87
608.56	1640.42
608.76	1765.35
608.95	1791.97
609.14	1667.05
609.33	1812.45
609.52	1830.88
609.72	1787.88
609.91	1726.44
610.10	1714.15
610.29	1822.69
610.48	1683.43
610.68	1748.97
610.87	1708.01
611.06	1777.64
611.25	1716.20
611.44	1755.11
611.63	1755.11
611.83	1849.32
612.02	1697.77
612.21	1826.79
612.40	1656.81
612.59	1619.94
612.79	1603.56
612.98	1771.49
613.17	1822.69
613.36	1753.06
613.55	1736.68
613.74	1669.09
613.93	1705.96
614.13	1734.63
614.32	1736.68
614.51	1751.01
614.70	1701.86
614.89	1628.14
615.08	1726.44
615.28	2066.40
615.47	1681.38
615.66	1763.30
615.85	1722.34
616.04	1861.60
616.23	1722.34
616.42	1689.57
616.62	1708.01
616.81	1787.88
617.00	1716.20
617.19	1751.01
617.38	1681.38
617.57	1781.73
617.76	1724.39
617.95	1851.36
618.15	1791.97
618.34	1777.64
618.53	1677.29
618.72	1884.13
618.91	1798.12
619.10	1796.07
619.29	1636.33
619.48	1769.44
619.68	1746.92
619.87	1710.05
620.06	1667.05
620.25	1691.62
620.44	1728.49
620.63	1761.25
620.82	1652.71
621.01	1658.85
621.20	1681.38
621.39	1800.16
621.59	1751.01
621.78	1755.11
621.97	1744.87
622.16	1724.39
622.35	1640.42
622.54	1816.55
622.73	1742.82
622.92	1640.42
623.11	1701.86
623.30	1662.95
623.49	1810.40
623.68	1755.11
623.88	1791.97
624.07	1671.14
624.26	1722.34
624.45	1689.57
624.64	1679.33
624.83	1742.82
625.02	1665.00
625.21	1673.19
625.40	1732.58
625.59	1724.39
625.78	1828.84
625.97	1757.16
626.16	1755.11
626.35	1822.69
626.54	1736.68
626.74	1779.68
626.93	1738.73
627.12	1683.43
627.31	1732.58
627.50	1697.77
627.69	1785.83
627.88	1628.14
628.07	1738.73
628.26	1712.10
628.45	1775.59
628.64	1673.19
628.83	1744.87
629.02	1665.00
629.21	1724.39
629.40	1736.68
629.59	1662.95
629.78	1718.25
629.97	1703.91
630.16	1783.78
630.35	1652.71
630.54	1728.49
630.73	1728.49
630.92	1732.58
631.11	1722.34
631.30	1746.92
631.49	1779.68
631.68	1726.44
631.87	1693.67
632.06	1689.57
632.25	1869.80
632.44	1779.68
632.63	1724.39
632.82	1701.86
633.01	1658.85
633.20	1753.06
633.39	1644.52
633.58	1624.04
633.77	1751.01
633.96	1730.53
634.15	1710.05
634.34	1751.01
634.53	1708.01
634.72	1673.19
634.91	1681.38
635.10	1687.53
635.29	1767.40
635.48	1681.38
635.67	1656.81
635.86	1691.62
636.05	1716.20
636.24	1730.53
636.43	1728.49
636.62	1757.16
636.81	1621.99
637.00	1755.11
637.19	1714.15
637.38	1710.05
637.57	1654.76
637.76	1691.62
637.95	1767.40
638.14	1689.57
638.33	1699.81
638.52	1787.88
638.71	1589.22
638.89	1601.51
639.08	1822.69
639.27	1689.57
639.46	1628.14
639.65	1773.54
639.84	1730.53
640.03	1812.45
640.22	1708.01
640.41	1804.26
640.60	1689.57
640.79	1779.68
640.98	1687.53
641.17	1726.44
641.36	1732.58
641.55	1720.29
641.74	1671.14
641.92	1624.04
642.11	1669.09
642.30	1630.18
642.49	1621.99
642.68	1738.73
642.87	1783.78
643.06	1826.79
643.25	1691.62
643.44	1652.71
643.63	1630.18
643.82	1746.92
644.00	1644.52
644.19	1734.63
644.38	1675.24
644.57	1771.49
644.76	1763.30
644.95	1724.39
645.14	1732.58
645.33	1617.90
645.52	1722.34
645.71	1652.71
645.89	1662.95
646.08	1697.77
646.27	1687.53
646.46	1880.04
646.65	1646.57
646.84	1755.11
647.03	1736.68
647.22	1744.87
647.40	1789.92
647.59	1665.00
647.78	1677.29
647.97	1708.01
648.16	1630.18
648.35	1771.49
648.54	1824.74
648.73	1718.25
648.91	1710.05
649.10	1689.57
649.29	1755.11
649.48	1685.48
649.67	1804.26
649.86	1662.95
650.05	1697.77
650.23	1800.16
650.42	1665.00
650.61	1691.62
650.80	1738.73
650.99	1861.60
651.18	1742.82
651.36	1730.53
651.55	1720.29
651.74	1724.39
651.93	1689.57
652.12	1667.05
652.31	1681.38
652.49	1685.48
652.68	1671.14
652.87	1763.30
653.06	1705.96
653.25	1849.32
653.44	1697.77
653.62	1771.49
653.81	1677.29
654.00	1669.09
654.19	1779.68
654.38	1910.75
654.56	1675.24
654.75	1732.58
654.94	1728.49
655.13	1783.78
655.32	1679.33
655.51	1781.73
655.69	1753.06
655.88	1787.88
656.07	1699.81
656.26	1843.17
656.45	1691.62
656.63	1695.72
656.82	1689.57
657.01	1728.49
657.20	1701.86
657.38	1826.79
657.57	1726.44
657.76	1630.18
657.95	1726.44
658.14	1699.81
658.32	1748.97
658.51	1613.80
658.70	1730.53
658.89	1769.44
659.08	1738.73
659.26	1779.68
659.45	1691.62
659.64	1787.88
659.83	1656.81
660.01	1947.62
660.20	1767.40
660.39	1843.17
660.58	1505.26
660.76	1714.15
660.95	1619.94
661.14	1656.81
661.33	1601.51
661.51	1718.25
661.70	1705.96
661.89	1693.67
662.08	1759.21
662.26	1708.01
662.45	1699.81
662.64	1814.50
662.83	1757.16
663.01	1656.81
663.20	1720.29
663.39	1777.64
663.58	1703.91
663.76	1638.38
663.95	1738.73
664.14	1671.14
664.32	1699.81
664.51	1710.05
664.70	1624.04
664.89	1816.55
665.07	1687.53
665.26	1755.11
665.45	1640.42
665.64	1724.39
665.82	1632.23
666.01	1740.77
666.20	1687.53
666.38	1847.27
666.57	1761.25
666.76	2248.67
666.95	4577.21
667.13	10182.50
667.32	15212.31
667.51	17802.99
667.69	18951.90
667.88	17573.62
668.07	12154.69
668.25	9486.19
668.44	8261.51
668.63	7391.12
668.81	6879.13
669.00	6217.63
669.19	5517.23
669.38	5121.97
669.56	4489.15
669.75	4007.87
669.94	3422.16
670.12	2875.35
670.31	2559.96
670.50	2269.15
670.68	2064.35
670.87	1900.52
671.06	1828.84
671.24	1800.16
671.43	1794.02
671.62	1730.53
671.80	1685.48
671.99	1683.43
672.18	1746.92
672.36	1771.49
672.55	1779.68
672.74	1697.77
672.92	1654.76
673.11	1718.25
673.29	1572.84
673.48	1714.15
673.67	1689.57
673.85	1746.92
674.04	1667.05
674.23	1724.39
674.41	1808.36
674.60	1703.91
674.79	1652.71
674.97	1683.43
675.16	1755.11
675.34	1732.58
675.53	1742.82
675.72	1685.48
675.90	1882.08
676.09	1648.61
676.28	1675.24
676.46	1626.09
676.65	1710.05
676.83	1746.92
677.02	1705.96
677.21	1753.06
677.39	1703.91
677.58	1640.42
677.77	1665.00
677.95	1611.75
678.14	1646.57
678.32	1718.25
678.51	1667.05
678.70	1867.75
678.88	1720.29
679.07	1714.15
679.25	1701.86
679.44	1689.57
679.63	1662.95
679.81	1671.14
680.00	1765.35
680.18	1740.77
680.37	1755.11
680.55	1603.56
680.74	1601.51
680.93	1574.89
681.11	1638.38
681.30	1685.48
681.48	1648.61
681.67	1714.15
681.85	1699.81
682.04	1703.91
682.23	1718.25
682.41	1712.10
682.60	1636.33
682.78	1673.19
682.97	1656.81
683.15	1751.01
683.34	1734.63
683.53	1744.87
683.71	1607.66
683.90	1746.92
684.08	1771.49
684.27	1652.71
684.45	1828.84
684.64	1802.21
684.82	1638.38
685.01	1728.49
685.19	1712.10
685.38	1822.69
685.57	1730.53
685.75	1740.77
685.94	1665.00
686.12	1710.05
686.31	1716.20
686.49	1804.26
686.68	1619.94
686.86	1744.87
687.05	1712.10
687.23	1771.49
687.42	1652.71
687.60	1658.85
687.79	1734.63
687.97	1855.46
688.16	1736.68
688.34	1794.02
688.53	1597.42
688.71	1724.39
688.90	1791.97
689.08	1712.10
689.27	1628.14
689.45	1703.91
689.64	1765.35
689.82	1634.28
690.01	1724.39
690.19	1699.81
690.38	1791.97
690.56	1761.25
690.75	1648.61
690.93	1689.57
691.12	1646.57
691.30	1705.96
691.49	1626.09
691.67	1630.18
691.86	1814.50
692.04	1693.67
692.23	1619.94
692.41	1630.18
692.60	1845.22
692.78	1800.16
692.97	1710.05
693.15	1675.24
693.34	1830.88
693.52	1730.53
693.71	1724.39
693.89	1626.09
694.08	1628.14
694.26	1861.60
694.44	1710.05
694.63	1736.68
694.81	1650.66
695.00	1693.67
695.18	1759.21
695.37	1777.64
695.55	1699.81
695.74	1671.14
695.92	1619.94
696.10	1755.11
696.29	1712.10
696.47	1703.91
696.66	1630.18
696.84	1660.90
697.03	1624.04
697.21	1769.44
697.40	2346.97
697.58	1732.58
697.76	1759.21
697.95	1576.94
698.13	1681.38
698.32	1736.68
698.50	1693.67
698.68	1751.01
698.87	1720.29
699.05	1763.30
699.24	1712.10
699.42	1681.38
699.61	1740.77
699.79	1669.09
699.97	1779.68
700.16	1669.09
700.34	1662.95
700.53	1718.25
700.71	1765.35
700.89	1818.60
701.08	1677.29
701.26	1681.38
701.45	2101.22
701.63	1742.82
701.81	1697.77
702.00	1654.76
702.18	1724.39
702.37	1601.51
702.55	1742.82
702.73	1718.25
702.92	1716.20
703.10	1732.58
703.28	1757.16
703.47	1607.66
703.65	1726.44
703.84	1699.81
704.02	1734.63
704.20	1720.29
704.39	1679.33
704.57	1728.49
704.75	1769.44
704.94	1714.15
705.12	1673.19
705.30	1826.79
705.49	2265.05
705.67	4538.30
705.86	9412.46
706.04	12621.63
706.22	14542.63
706.41	15251.22
706.59	13961.00
706.77	9674.60
706.96	7440.27
707.14	6496.16
707.32	6006.69
707.51	5590.95
707.69	4896.69
707.87	4292.54
708.06	3567.56
708.24	2992.08
708.42	2469.85
708.61	2220.00
708.79	1843.17
708.97	1847.27
709.16	1802.21
709.34	1828.84
709.52	1689.57
709.71	1705.96
709.89	1726.44
710.07	1726.44
710.26	1724.39
710.44	1691.62
710.62	1787.88
710.80	1679.33
710.99	1769.44
711.17	1820.64
711.35	1751.01
711.54	1599.46
711.72	1705.96
711.90	1689.57
712.09	1675.24
712.27	1710.05
712.45	1755.11
712.63	1632.23
712.82	1728.49
713.00	1691.62
713.18	1703.91
713.37	1718.25
713.55	1796.07
713.73	1683.43
713.91	1773.54
714.10	1665.00
714.28	1730.53
714.46	1837.03
714.65	1783.78
714.83	1775.59
715.01	1630.18
715.19	1767.40
715.38	1581.03
715.56	1783.78
715.74	1654.76
715.92	1656.81
716.11	1806.31
716.29	1642.47
716.47	1757.16
716.65	1755.11
716.84	1646.57
717.02	1714.15
717.20	1591.27
717.38	1675.24
717.57	1732.58
717.75	1681.38
717.93	1720.29
718.11	1730.53
718.30	1636.33
718.48	1681.38
718.66	1728.49
718.84	1722.34
719.03	1695.72
719.21	1677.29
719.39	1746.92
719.57	1771.49
719.75	1755.11
719.94	1669.09
720.12	1728.49
720.30	1667.05
720.48	1779.68
720.67	1757.16
720.85	1667.05
721.03	1671.14
721.21	1636.33
721.39	1701.86
721.58	1796.07
721.76	1677.29
721.94	1726.44
722.12	1669.09
722.30	1765.35
722.49	1695.72
722.67	1689.57
722.85	1773.54
723.03	1693.67
723.21	1722.34
723.40	1757.16
723.58	1744.87
723.76	1728.49
723.94	1818.60
724.12	1726.44
724.30	1720.29
724.49	1732.58
724.67	1640.42
724.85	1755.11
725.03	1611.75
725.21	1787.88
725.40	1724.39
725.58	1697.77
725.76	1757.16
725.94	1712.10
726.12	1644.52
726.30	1591.27
726.49	1689.57
726.67	1619.94
726.85	1738.73
727.03	1736.68
727.21	2183.13
727.39	2936.79
727.57	3801.03
727.76	4110.27
727.94	4386.75
728.12	4423.61
728.30	3639.24
728.48	2951.12
728.66	2660.31
728.84	2580.44
729.03	2306.01
729.21	2148.32
729.39	1931.23
729.57	1875.94
729.75	1783.78
729.93	1863.65
730.11	1701.86
730.30	1695.72
730.48	1685.48
730.66	1753.06
730.84	1697.77
731.02	1710.05
731.20	1693.67
731.38	1734.63
731.56	1576.94
731.74	1644.52
731.93	1763.30
732.11	1714.15
732.29	1673.19
732.47	1701.86
732.65	1732.58
732.83	1794.02
733.01	1742.82
733.19	1615.85
733.37	1728.49
733.56	1693.67
733.74	1673.19
733.92	1710.05
734.10	1644.52
734.28	1751.01
734.46	1681.38
734.64	1673.19
734.82	1665.00
735.00	1621.99
735.18	1689.57
735.36	1691.62
735.54	1646.57
735.73	1699.81
735.91	1718.25
736.09	1787.88
736.27	1681.38
736.45	1736.68
736.63	1624.04
736.81	1703.91
736.99	1732.58
737.17	1755.11
737.35	1632.23
737.53	1783.78
737.71	1703.91
737.89	1804.26
738.07	1650.66
738.25	1685.48
738.43	1681.38
738.61	1638.38
738.80	1708.01
738.98	1705.96
739.16	1716.20
739.34	1619.94
739.52	1779.68
739.70	1697.77
739.88	1787.88
740.06	1794.02
740.24	1624.04
740.42	1806.31
740.60	1646.57
740.78	1634.28
740.96	1699.81
741.14	1771.49
741.32	1685.48
741.50	1624.04
741.68	1755.11
741.86	1775.59
742.04	1611.75
742.22	1658.85
742.40	1771.49
742.58	1751.01
742.76	1591.27
742.94	1757.16
743.12	1685.48
743.30	1722.34
743.48	1785.83
743.66	1630.18
743.84	1738.73
744.02	1699.81
744.20	1634.28
744.38	1689.57
744.56	1705.96
744.74	1810.40
744.92	1693.67
745.10	1742.82
745.28	1759.21
745.46	1773.54
745.64	1660.90
745.82	1822.69
746.00	1746.92
746.18	1726.44
746.36	1605.61
746.54	1771.49
746.72	1714.15
746.90	1591.27
747.08	1710.05
747.26	1697.77
747.44	1759.21
747.62	1714.15
747.80	1763.30
747.98	1730.53
748.15	1734.63
748.33	1751.01
748.51	1665.00
748.69	1683.43
748.87	1636.33
749.05	1648.61
749.23	1656.81
749.41	1701.86
749.59	1710.05
749.77	1748.97
749.95	1687.53
750.13	1644.52
750.31	1687.53
750.49	1673.19
750.67	1794.02
750.85	1767.40
751.03	1734.63
751.20	1877.99
751.38	1742.82
751.56	1726.44
751.74	1691.62
751.92	1654.76
752.10	1685.48
752.28	1751.01
752.46	1687.53
752.64	1613.80
752.82	1691.62
753.00	1705.96
753.18	1656.81
753.35	1667.05
753.53	1687.53
753.71	1654.76
753.89	1798.12
754.07	1648.61
754.25	1724.39
754.43	1720.29
754.61	1638.38
754.79	1814.50
754.97	1701.86
755.14	1697.77
755.32	1624.04
755.50	1746.92
755.68	1708.01
755.86	1617.90
756.04	1748.97
756.22	1583.08
756.40	1746.92
756.57	1785.83
756.75	1701.86
756.93	1837.03
757.11	1767.40
757.29	1667.05
757.47	1705.96
757.65	1605.61
757.82	1566.70
758.00	1697.77
758.18	1574.89
758.36	1669.09
758.54	1755.11
758.72	1662.95
758.90	1775.59
759.07	1732.58
759.25	1626.09
759.43	1697.77
759.61	1615.85
759.79	2172.89
759.97	1757.16
760.15	1669.09
760.32	1656.81
760.50	1644.52
760.68	1757.16
760.86	1693.67
761.04	1767.40
761.22	1761.25
761.39	1734.63
761.57	1712.10
761.75	1673.19
761.93	1730.53
762.11	1724.39
762.28	1658.85
762.46	1636.33
762.64	1775.59
762.82	1595.37
763.00	1677.29
763.18	1798.12
763.35	1624.04
763.53	1699.81
763.71	1689.57
763.89	1716.20
764.07	1767.40
764.24	1787.88
764.42	1834.98
764.60	1673.19
764.78	1710.05
764.96	1714.15
765.13	1697.77
765.31	1689.57
765.49	1796.07
765.67	1615.85
765.84	1679.33
766.02	1681.38
766.20	1601.51
766.38	1724.39
766.56	1720.29
766.73	1648.61
766.91	1695.72
767.09	1656.81
767.27	1732.58
767.44	1621.99
767.62	1697.77
767.80	1693.67
767.98	1722.34
768.15	1677.29
768.33	1726.44
768.51	1724.39
768.69	1804.26
768.87	1753.06
769.04	1646.57
769.22	1832.93
769.40	1820.64
769.58	1761.25
769.75	1720.29
769.93	1781.73
770.11	1617.90
770.28	1679.33
770.46	1703.91
770.64	1673.19
770.82	1746.92
770.99	1642.47
771.17	1734.63
771.35	1732.58
771.53	1732.58
771.70	1615.85
771.88	1791.97
772.06	1652.71
772.23	1685.48
772.41	1708.01
772.59	1654.76
772.77	1617.90
772.94	1587.18
773.12	1714.15
773.30	1660.90
773.47	1732.58
773.65	1640.42
773.83	1785.83
774.01	1673.19
774.18	1591.27
774.36	1730.53
774.54	1662.95
774.71	1681.38
774.89	1576.94
775.07	1634.28
775.24	1742.82
775.42	1701.86
775.60	1765.35
775.78	1708.01
775.95	1621.99
776.13	1599.46
776.31	1501.16
776.48	1701.86
776.66	1755.11
776.84	1730.53
777.01	1632.23
777.19	1701.86
777.37	1677.29
777.54	1746.92
777.72	1826.79
777.90	1701.86
778.07	1578.98
778.25	1865.70
778.43	1777.64
778.60	1667.05
778.78	1738.73
778.96	1662.95
779.13	1665.00
779.31	1755.11
779.49	1671.14
779.66	1705.96
779.84	1681.38
780.01	1648.61
780.19	1632.23
780.37	1722.34
780.54	1705.96
780.72	1648.61
780.90	1652.71
781.07	1679.33
781.25	1667.05
781.43	1730.53
781.60	1628.14
781.78	1765.35
781.95	1644.52
782.13	1650.66
782.31	1730.53
782.48	1710.05
782.66	1755.11
782.83	1839.08
783.01	1761.25
783.19	1705.96
783.36	1679.33
783.54	1654.76
783.72	1757.16
783.89	1677.29
784.07	1669.09
784.24	1720.29
784.42	1693.67
784.60	1732.58
784.77	1724.39
784.95	1697.77
785.12	1613.80
785.30	1710.05
785.47	1681.38
785.65	1640.42
785.83	1634.28
786.00	1607.66
786.18	1761.25
786.35	1615.85
786.53	1687.53
786.71	1722.34
786.88	1812.45
787.06	1681.38
787.23	1720.29
787.41	1644.52
787.58	1693.67
787.76	1667.05
787.94	1693.67
788.11	1814.50
788.29	1689.57
788.46	1693.67
788.64	1662.95
788.81	1695.72
788.99	1648.61
789.16	1703.91
789.34	1722.34
789.52	1636.33
789.69	1699.81
789.87	1587.18
790.04	1630.18
790.22	1691.62
790.39	1808.36
790.57	1662.95
790.74	1652.71
790.92	1789.92
791.09	1615.85
791.27	1718.25
791.44	1802.21
791.62	1691.62
791.79	1765.35
791.97	1724.39
792.15	1837.03
792.32	1798.12
792.50	1746.92
792.67	1765.35
792.85	1773.54
793.02	1726.44
793.20	1681.38
793.37	1552.36
793.55	1652.71
793.72	1599.46
793.90	1753.06
794.07	1714.15
794.25	1751.01
794.42	1802.21
794.60	1607.66
794.77	1714.15
794.95	1724.39
795.12	1751.01
795.30	1697.77
795.47	1542.12
795.65	1804.26
795.82	1695.72
796.00	1654.76
796.17	1736.68
796.34	1628.14
796.52	1675.24
796.69	1769.44
796.87	1716.20
797.04	1701.86
797.22	1808.36
797.39	1712.10
797.57	1789.92
797.74	1732.58
797.92	1761.25
798.09	1642.47
798.27	1740.77
798.44	1748.97
798.62	1632.23
798.79	1722.34
798.96	1755.11
799.14	1656.81
799.31	1781.73
799.49	1621.99
799.66	1626.09
799.84	1640.42
800.01	1693.67
800.19	1677.29
800.36	1648.61
800.53	1732.58
800.71	1720.29
800.88	1746.92
801.06	1675.24
801.23	1644.52
801.41	1662.95
801.58	1681.38
801.75	1656.81
801.93	1734.63
802.10	1794.02
802.28	1650.66
802.45	1650.66
802.63	1738.73
802.80	1753.06
802.97	1759.21
803.15	1728.49
803.32	1689.57
803.50	1660.90
803.67	1689.57
803.84	1693.67
804.02	1648.61
804.19	1685.48
804.37	1568.74
804.54	1630.18
804.71	1712.10
804.89	1695.72
805.06	1617.90
805.24	1701.86
805.41	1636.33
805.58	1669.09
805.76	1746.92
805.93	1658.85
806.10	1763.30
806.28	1714.15
806.45	1738.73
806.63	1728.49
806.80	1695.72
806.97	1693.67
807.15	1730.53
807.32	1695.72
807.49	1671.14
807.67	1578.98
807.84	1763.30
808.01	1646.57
808.19	1751.01
808.36	1757.16
808.54	1650.66
808.71	1660.90
808.88	1738.73
809.06	1765.35
809.23	1837.03
809.40	1640.42
809.58	1744.87
809.75	1669.09
809.92	1673.19
810.10	1828.84
810.27	1699.81
810.44	1789.92
810.62	1728.49
810.79	1771.49
810.96	1599.46
811.14	1669.09
811.31	1708.01
811.48	1710.05
811.66	1738.73
811.83	1785.83
812.00	1730.53
812.18	1771.49
812.35	1816.55
812.52	1665.00
812.69	1640.42
812.87	1738.73
813.04	1681.38
813.21	1724.39
813.39	1740.77
813.56	1634.28
813.73	1691.62
813.91	1607.66
814.08	1726.44
814.25	1636.33
814.42	1701.86
814.60	1648.61
814.77	1675.24
814.94	1728.49
815.12	1621.99
815.29	1757.16
815.46	1691.62
815.63	1681.38
815.81	1738.73
815.98	1710.05
816.15	1681.38
816.33	1751.01
816.50	1705.96
816.67	1658.85
816.84	1728.49
817.02	1599.46
817.19	1712.10
817.36	1699.81
817.53	1673.19
817.71	1677.29
817.88	1785.83
818.05	1751.01
818.22	1679.33
818.40	1808.36
818.57	1722.34
818.74	1765.35
818.91	1683.43
819.09	1791.97
819.26	1773.54
819.43	1662.95
819.60	1607.66
819.78	1748.97
819.95	1769.44
820.12	1648.61
820.29	1808.36
820.47	1718.25
820.64	1626.09
820.81	1599.46
820.98	1722.34
821.15	1689.57
821.33	1697.77
821.50	1607.66
821.67	1722.34
821.84	1734.63
822.02	1730.53
822.19	1734.63
822.36	1626.09
822.53	1703.91
822.70	1640.42
822.88	1679.33
823.05	1751.01
823.22	1781.73
823.39	1693.67
823.56	1634.28
823.74	1714.15
823.91	1607.66
824.08	1751.01
824.25	1630.18
824.42	1714.15
824.60	1636.33
824.77	1701.86
824.94	1730.53
825.11	1730.53
825.28	1564.65
825.45	1689.57
825.63	1816.55
825.80	1648.61
825.97	1679.33
826.14	1781.73
826.31	1640.42
826.48	1662.95
826.66	1624.04
826.83	1724.39
827.00	1644.52
827.17	1628.14
827.34	1703.91
827.51	1630.18
827.69	1705.96
827.86	1634.28
828.03	1693.67
828.20	1652.71
828.37	1673.19
828.54	1708.01
828.71	1683.43
828.89	1837.03
829.06	1746.92
829.23	1794.02
829.40	1626.09
829.57	1652.71
829.74	1710.05
829.91	1636.33
830.09	1708.01
830.26	1755.11
830.43	1791.97
830.60	1691.62
830.77	1681.38
830.94	1740.77
831.11	1746.92
831.28	1714.15
831.46	1728.49
831.63	1687.53
831.80	1646.57
831.97	1634.28
832.14	1701.86
832.31	1658.85
832.48	1708.01
832.65	1767.40
832.82	1757.16
832.99	1738.73
833.17	1630.18
833.34	1779.68
833.51	1695.72
833.68	1558.50
833.85	1740.77
834.02	1683.43
834.19	1658.85
834.36	1667.05
834.53	1640.42
834.70	1812.45
834.87	1724.39
835.04	1648.61
835.22	1595.37
835.39	1626.09
835.56	1634.28
835.73	1712.10
835.90	1710.05
836.07	1669.09
836.24	1689.57
836.41	1652.71
836.58	1699.81
836.75	1773.54
836.92	1607.66
837.09	1667.05
837.26	1726.44
837.43	1665.00
837.60	1667.05
837.77	1748.97
837.94	1693.67
838.12	1787.88
838.29	1730.53
838.46	1673.19
838.63	1646.57
838.80	1742.82
838.97	1730.53
839.14	1693.67
839.31	1650.66
839.48	1763.30
839.65	1728.49
839.82	1785.83
839.99	1693.67
840.16	1691.62
840.33	1710.05
840.50	1689.57
840.67	1724.39
840.84	1626.09
841.01	1708.01
841.18	1689.57
841.35	1644.52
841.52	1755.11
841.69	1808.36
841.86	1728.49
842.03	1689.57
842.20	1738.73
842.37	1660.90
842.54	1732.58
842.71	1677.29
842.88	1650.66
843.05	1791.97
843.22	1673.19
843.39	1751.01
843.56	1593.32
843.73	1730.53
843.90	1734.63
844.07	1671.14
844.24	1724.39
844.41	1781.73
844.58	1734.63
844.75	1650.66
844.92	1714.15
845.09	1708.01
845.26	1654.76
845.43	1730.53
845.60	1705.96
845.77	1742.82
845.94	1640.42
846.10	1712.10
846.27	1599.46
846.44	1603.56
846.61	1640.42
846.78	1648.61
846.95	1748.97
847.12	1644.52
847.29	1705.96
847.46	1730.53
847.63	1689.57
847.80	1710.05
847.97	1718.25
848.14	1796.07
848.31	1718.25
848.48	1572.84
848.65	1736.68
848.82	1660.90
848.98	1771.49
849.15	1730.53
849.32	1714.15
849.49	1734.63
849.66	1705.96
849.83	1630.18
850.00	1660.90
850.17	1693.67
850.34	1705.96
850.51	1624.04
850.68	1691.62
850.85	1871.84
851.01	1736.68
851.18	1742.82
851.35	1677.29
851.52	1703.91
851.69	1732.58
851.86	1603.56
852.03	1665.00
852.20	1796.07
852.37	1705.96
852.53	1624.04
852.70	1724.39
852.87	1667.05
853.04	1800.16
853.21	1662.95
853.38	1734.63
853.55	1726.44
853.72	1730.53
853.89	1699.81
854.05	1685.48
854.22	1642.47
854.39	1697.77
854.56	1693.67
854.73	1734.63
854.90	1667.05
855.07	1712.10
855.23	1748.97
855.40	1701.86
855.57	1677.29
855.74	1591.27
855.91	1796.07
856.08	1640.42
856.25	1560.55
856.41	1621.99
856.58	1677.29
856.75	1652.71
856.92	1613.80
857.09	1718.25
857.26	1628.14
857.42	1767.40
857.59	1720.29
857.76	1687.53
857.93	1757.16
858.10	1722.34
858.27	1636.33
858.43	1677.29
858.60	1681.38
858.77	1599.46
858.94	1681.38
859.11	1736.68
859.27	1632.23
859.44	1689.57
859.61	1773.54
859.78	1685.48
859.95	1695.72
860.12	1654.76
860.28	1744.87
860.45	1804.26
860.62	1685.48
860.79	1765.35
860.95	1716.20
861.12	1642.47
861.29	1673.19
861.46	1638.38
861.63	1726.44
861.79	1722.34
861.96	1626.09
862.13	1730.53
862.30	1808.36
862.47	1634.28
862.63	1681.38
862.80	1744.87
862.97	1779.68
863.14	1722.34
863.30	1742.82
863.47	1673.19
863.64	1753.06
863.81	1742.82
863.97	1650.66
864.14	1689.57
864.31	1642.47
864.48	1796.07
864.65	1691.62
864.81	1732.58
864.98	1806.31
865.15	1718.25
865.32	1705.96
865.48	1812.45
865.65	1804.26
865.82	1736.68
865.98	1699.81
866.15	1703.91
866.32	1757.16
866.49	1597.42
866.65	1722.34
866.82	1617.90
866.99	1689.57
867.16	1634.28
867.32	1685.48
867.49	1642.47
867.66	1677.29
867.83	1658.85
867.99	1687.53
868.16	1751.01
868.33	1638.38
868.49	1644.52
868.66	1671.14
868.83	1757.16
868.99	1646.57
869.16	1689.57
869.33	1796.07
869.50	1765.35
869.66	1710.05
869.83	1665.00
870.00	1671.14
870.16	1716.20
870.33	1675.24
870.50	1712.10
870.66	1714.15
870.83	1800.16
871.00	1775.59
871.17	1685.48
871.33	1701.86
871.50	1695.72
871.67	1675.24
871.83	1720.29
872.00	1779.68
872.17	1718.25
872.33	1767.40
872.50	1708.01
872.67	1708.01
872.83	1640.42
873.00	1605.61
873.17	1634.28
873.33	1806.31
873.50	1740.77
873.67	1658.85
873.83	1685.48
874.00	1669.09
874.16	1773.54
874.33	1650.66
874.50	1654.76
874.66	1820.64
874.83	1716.20
875.00	1757.16
875.16	1722.34
875.33	1732.58
875.50	1673.19
875.66	1699.81
875.83	1675.24
875.99	1703.91
876.16	1679.33
876.33	1652.71
876.49	1669.09
876.66	1740.77
876.83	1746.92
876.99	1578.98
877.16	1611.75
877.32	1648.61
877.49	1597.42
877.66	1687.53
877.82	1785.83
877.99	1738.73
878.15	1767.40
878.32	1726.44
878.49	1681.38
878.65	1648.61
878.82	1759.21
878.98	1658.85
879.15	1683.43
879.32	1703.91
879.48	1681.38
879.65	1681.38
879.81	1648.61
879.98	1687.53
880.15	1656.81
880.31	1808.36
880.48	1677.29
880.64	1757.16
880.81	1753.06
880.97	1767.40
881.14	1755.11
881.31	1652.71
881.47	1904.61
881.64	1683.43
881.80	1578.98
881.97	1691.62
882.13	1830.88
882.30	1611.75
882.47	1677.29
882.63	1613.80
882.80	1626.09
882.96	1611.75
883.13	1796.07
883.29	1771.49
883.46	1703.91
883.62	1738.73
883.79	1669.09
883.95	1703.91
884.12	1705.96
884.29	1746.92
884.45	1714.15
884.62	1681.38
884.78	1654.76
884.95	1767.40
885.11	1624.04
885.28	1765.35
885.44	1638.38
885.61	1794.02
885.77	1703.91
885.94	1722.34
886.10	1683.43
886.27	1665.00
886.43	1740.77
886.60	1787.88
886.76	1740.77
886.93	1652.71
887.09	1759.21
887.26	1671.14
887.42	1636.33
887.59	1771.49
887.75	1808.36
887.92	1759.21
888.08	1796.07
888.25	1853.41
888.41	1738.73
888.58	1662.95
888.74	1581.03
888.91	1654.76
>>>>>End Processed Spectral Data<<<<<
