SpectraSuite Data File
++++++++++++++++++++++++++++++++++++
Date: Mon Jun 06 15:13:17 CEST 2016
User: root
Dark Spectrum Present: No
Reference Spectrum Present: No
Number of Sampled Component Spectra: 1
Spectrometers: USB4C02835
Integration Time (usec): 100000 (USB4C02835)
Spectra Averaged: 1 (USB4C02835)
Boxcar Smoothing: 0 (USB4C02835)
Correct for Electrical Dark: No (USB4C02835)
Strobe/Lamp Enabled: No (USB4C02835)
Correct for Detector Non-linearity: No (USB4C02835)
Correct for Stray Light: No (USB4C02835)
Number of Pixels in Processed Spectrum: 3648
>>>>>Begin Processed Spectral Data<<<<<
177.47	1540.07
177.69	1540.07
177.91	1540.07
178.13	1513.45
178.36	1484.78
178.58	1710.05
178.80	1703.91
179.02	1566.70
179.24	1699.81
179.46	1689.57
179.68	1791.97
179.90	1740.77
180.13	1738.73
180.35	1685.48
180.57	1716.20
180.79	1751.01
181.01	1779.68
181.23	1787.88
181.45	1712.10
181.67	1771.49
181.90	1751.01
182.12	1712.10
182.34	1714.15
182.56	1775.59
182.78	1753.06
183.00	1730.53
183.22	1742.82
183.44	1591.27
183.66	1808.36
183.89	1765.35
184.11	1613.80
184.33	1691.62
184.55	1794.02
184.77	1710.05
184.99	1773.54
185.21	1693.67
185.43	1882.08
185.65	1662.95
185.87	1669.09
186.10	1841.12
186.32	1820.64
186.54	1710.05
186.76	1765.35
186.98	1738.73
187.20	1751.01
187.42	1613.80
187.64	1654.76
187.86	1712.10
188.08	1773.54
188.30	1656.81
188.52	1730.53
188.75	1753.06
188.97	1828.84
189.19	1701.86
189.41	1675.24
189.63	1716.20
189.85	1708.01
190.07	1595.37
190.29	1607.66
190.51	1736.68
190.73	1687.53
190.95	1759.21
191.17	1681.38
191.39	1628.14
191.61	1755.11
191.84	1669.09
192.06	1726.44
192.28	1628.14
192.50	1908.71
192.72	1705.96
192.94	1724.39
193.16	1759.21
193.38	1693.67
193.60	1652.71
193.82	1697.77
194.04	1742.82
194.26	1683.43
194.48	1681.38
194.70	1775.59
194.92	1697.77
195.14	1808.36
195.36	1726.44
195.58	1699.81
195.80	1693.67
196.02	1662.95
196.24	1636.33
196.46	1687.53
196.69	1646.57
196.91	1867.75
197.13	1705.96
197.35	1665.00
197.57	1785.83
197.79	1777.64
198.01	1755.11
198.23	1703.91
198.45	1744.87
198.67	1710.05
198.89	1794.02
199.11	1775.59
199.33	1626.09
199.55	1570.79
199.77	1716.20
199.99	1832.93
200.21	1665.00
200.43	1683.43
200.65	1660.90
200.87	1619.94
201.09	1644.52
201.31	1642.47
201.53	1728.49
201.75	1611.75
201.97	1710.05
202.19	1679.33
202.41	1679.33
202.63	1853.41
202.85	1722.34
203.07	1730.53
203.29	1671.14
203.51	1667.05
203.73	1615.85
203.95	1861.60
204.17	1679.33
204.39	1705.96
204.61	1736.68
204.83	1673.19
205.05	1738.73
205.27	1757.16
205.49	1783.78
205.71	1695.72
205.93	1638.38
206.15	1632.23
206.37	1703.91
206.59	1720.29
206.81	1607.66
207.03	1685.48
207.25	1615.85
207.47	1771.49
207.69	1701.86
207.91	1808.36
208.13	1767.40
208.34	1677.29
208.56	1675.24
208.78	1714.15
209.00	1708.01
209.22	1662.95
209.44	1677.29
209.66	1689.57
209.88	1720.29
210.10	1734.63
210.32	1578.98
210.54	1834.98
210.76	1697.77
210.98	1791.97
211.20	1568.74
211.42	1708.01
211.64	1808.36
211.86	1742.82
212.08	1755.11
212.30	1699.81
212.52	1601.51
212.74	1675.24
212.96	1685.48
213.17	1705.96
213.39	1691.62
213.61	1808.36
213.83	1714.15
214.05	1695.72
214.27	1789.92
214.49	1652.71
214.71	1693.67
214.93	1822.69
215.15	1683.43
215.37	1693.67
215.59	1632.23
215.81	1632.23
216.03	1718.25
216.24	1800.16
216.46	1781.73
216.68	1744.87
216.90	1646.57
217.12	1789.92
217.34	1742.82
217.56	1728.49
217.78	1791.97
218.00	1691.62
218.22	1718.25
218.44	1746.92
218.66	1714.15
218.87	1757.16
219.09	1576.94
219.31	1667.05
219.53	1665.00
219.75	1695.72
219.97	1617.90
220.19	1681.38
220.41	1703.91
220.63	1830.88
220.85	1689.57
221.06	1681.38
221.28	1751.01
221.50	1705.96
221.72	1697.77
221.94	1763.30
222.16	1710.05
222.38	1783.78
222.60	1687.53
222.82	1716.20
223.03	1683.43
223.25	1714.15
223.47	1695.72
223.69	1744.87
223.91	1744.87
224.13	1658.85
224.35	1615.85
224.57	1794.02
224.78	1710.05
225.00	1656.81
225.22	1705.96
225.44	1665.00
225.66	1730.53
225.88	1755.11
226.10	1814.50
226.32	1748.97
226.53	1787.88
226.75	1644.52
226.97	1705.96
227.19	1710.05
227.41	1689.57
227.63	1605.61
227.85	1597.42
228.06	1732.58
228.28	1701.86
228.50	1738.73
228.72	1665.00
228.94	1642.47
229.16	1626.09
229.37	1660.90
229.59	1644.52
229.81	1812.45
230.03	1562.60
230.25	1642.47
230.47	1617.90
230.69	1687.53
230.90	1751.01
231.12	1671.14
231.34	1681.38
231.56	1736.68
231.78	1689.57
232.00	1779.68
232.21	1634.28
232.43	1718.25
232.65	1603.56
232.87	1789.92
233.09	1562.60
233.30	1675.24
233.52	1701.86
233.74	1697.77
233.96	1669.09
234.18	1765.35
234.40	1634.28
234.61	1845.22
234.83	1576.94
235.05	1609.70
235.27	1884.13
235.49	1759.21
235.70	1740.77
235.92	1802.21
236.14	1667.05
236.36	1822.69
236.58	1679.33
236.79	1759.21
237.01	1621.99
237.23	1720.29
237.45	1816.55
237.67	1669.09
237.88	1677.29
238.10	1822.69
238.32	1679.33
238.54	1730.53
238.76	1609.70
238.97	1658.85
239.19	1728.49
239.41	1828.84
239.63	1802.21
239.85	1673.19
240.06	1632.23
240.28	1650.66
240.50	1820.64
240.72	1697.77
240.93	1669.09
241.15	1755.11
241.37	1765.35
241.59	1808.36
241.81	1738.73
242.02	1724.39
242.24	1806.31
242.46	1771.49
242.68	1691.62
242.89	1708.01
243.11	1785.83
243.33	1742.82
243.55	1701.86
243.76	1738.73
243.98	1730.53
244.20	1726.44
244.42	1697.77
244.64	1689.57
244.85	1667.05
245.07	1646.57
245.29	1679.33
245.51	1724.39
245.72	1681.38
245.94	1716.20
246.16	1738.73
246.38	1716.20
246.59	1681.38
246.81	1683.43
247.03	1669.09
247.24	1550.31
247.46	1722.34
247.68	1724.39
247.90	1716.20
248.11	1695.72
248.33	1746.92
248.55	1685.48
248.77	1742.82
248.98	1763.30
249.20	1834.98
249.42	1669.09
249.64	1695.72
249.85	1654.76
250.07	1640.42
250.29	1773.54
250.50	1775.59
250.72	1687.53
250.94	1673.19
251.16	1830.88
251.37	1787.88
251.59	1730.53
251.81	1677.29
252.02	1863.65
252.24	1681.38
252.46	1832.93
252.68	1595.37
252.89	1646.57
253.11	1597.42
253.33	1783.78
253.54	1746.92
253.76	1617.90
253.98	1669.09
254.20	1718.25
254.41	1607.66
254.63	1769.44
254.85	1605.61
255.06	1613.80
255.28	1714.15
255.50	1675.24
255.71	1681.38
255.93	1681.38
256.15	1667.05
256.36	1779.68
256.58	1683.43
256.80	1781.73
257.02	1669.09
257.23	1595.37
257.45	1755.11
257.67	1757.16
257.88	1722.34
258.10	1714.15
258.32	1652.71
258.53	1720.29
258.75	1802.21
258.97	1681.38
259.18	1740.77
259.40	1705.96
259.62	1810.40
259.83	1843.17
260.05	1695.72
260.27	1953.76
260.48	1757.16
260.70	1621.99
260.92	1675.24
261.13	1773.54
261.35	1787.88
261.57	1689.57
261.78	1634.28
262.00	1714.15
262.22	1722.34
262.43	1595.37
262.65	1718.25
262.86	1665.00
263.08	1755.11
263.30	1685.48
263.51	1626.09
263.73	1609.70
263.95	1802.21
264.16	1673.19
264.38	1662.95
264.60	1732.58
264.81	1712.10
265.03	1794.02
265.25	1699.81
265.46	1726.44
265.68	1779.68
265.89	1779.68
266.11	1615.85
266.33	1716.20
266.54	1877.99
266.76	1767.40
266.98	1763.30
267.19	1742.82
267.41	1722.34
267.62	1574.89
267.84	1644.52
268.06	1695.72
268.27	1708.01
268.49	1802.21
268.70	1777.64
268.92	1771.49
269.14	1597.42
269.35	1671.14
269.57	1671.14
269.79	1765.35
270.00	1689.57
270.22	1837.03
270.43	1691.62
270.65	1601.51
270.87	1701.86
271.08	1773.54
271.30	1779.68
271.51	1675.24
271.73	1738.73
271.95	1759.21
272.16	1765.35
272.38	1755.11
272.59	1697.77
272.81	1798.12
273.02	1726.44
273.24	1736.68
273.46	1771.49
273.67	1701.86
273.89	1699.81
274.10	1687.53
274.32	1769.44
274.54	1781.73
274.75	1755.11
274.97	1730.53
275.18	1732.58
275.40	1732.58
275.61	1740.77
275.83	1718.25
276.05	1599.46
276.26	1689.57
276.48	1701.86
276.69	1689.57
276.91	1611.75
277.12	1738.73
277.34	1755.11
277.55	1796.07
277.77	1677.29
277.99	1652.71
278.20	1603.56
278.42	1638.38
278.63	1632.23
278.85	1697.77
279.06	1691.62
279.28	1718.25
279.49	1742.82
279.71	1699.81
279.93	1681.38
280.14	1673.19
280.36	1724.39
280.57	1689.57
280.79	1718.25
281.00	1746.92
281.22	1667.05
281.43	1804.26
281.65	1595.37
281.86	1726.44
282.08	1689.57
282.29	1789.92
282.51	1673.19
282.73	1626.09
282.94	1587.18
283.16	1769.44
283.37	1853.41
283.59	1701.86
283.80	1722.34
284.02	1710.05
284.23	1650.66
284.45	1728.49
284.66	1619.94
284.88	1687.53
285.09	1738.73
285.31	1753.06
285.52	1703.91
285.74	1703.91
285.95	1765.35
286.17	1734.63
286.38	1716.20
286.60	1673.19
286.81	1576.94
287.03	1716.20
287.24	1742.82
287.46	1734.63
287.67	1693.67
287.89	1791.97
288.10	1734.63
288.32	1726.44
288.53	1808.36
288.75	1640.42
288.96	1751.01
289.18	1687.53
289.39	1736.68
289.61	1722.34
289.82	1820.64
290.04	1763.30
290.25	1726.44
290.47	1628.14
290.68	1644.52
290.90	1769.44
291.11	1640.42
291.33	1779.68
291.54	1667.05
291.76	1683.43
291.97	1781.73
292.18	1691.62
292.40	1654.76
292.61	1695.72
292.83	1849.32
293.04	1765.35
293.26	1734.63
293.47	1714.15
293.69	1599.46
293.90	1693.67
294.12	1853.41
294.33	1722.34
294.55	1744.87
294.76	1802.21
294.97	1728.49
295.19	1798.12
295.40	1562.60
295.62	1699.81
295.83	1802.21
296.05	1626.09
296.26	1718.25
296.48	1632.23
296.69	1607.66
296.90	1705.96
297.12	1716.20
297.33	1708.01
297.55	1665.00
297.76	1761.25
297.98	1814.50
298.19	1755.11
298.41	1677.29
298.62	1583.08
298.83	1751.01
299.05	1716.20
299.26	1642.47
299.48	1665.00
299.69	1693.67
299.90	1761.25
300.12	1673.19
300.33	1814.50
300.55	1652.71
300.76	1697.77
300.98	1691.62
301.19	1775.59
301.40	1669.09
301.62	1636.33
301.83	1710.05
302.05	1779.68
302.26	1722.34
302.47	1687.53
302.69	1677.29
302.90	1632.23
303.12	1570.79
303.33	1718.25
303.54	1822.69
303.76	1699.81
303.97	1753.06
304.19	1779.68
304.40	1714.15
304.61	1669.09
304.83	1818.60
305.04	1794.02
305.26	1841.12
305.47	1626.09
305.68	1701.86
305.90	1589.22
306.11	1744.87
306.33	1724.39
306.54	1648.61
306.75	1642.47
306.97	1636.33
307.18	1626.09
307.39	1716.20
307.61	1753.06
307.82	1636.33
308.04	1718.25
308.25	1675.24
308.46	1708.01
308.68	1701.86
308.89	1656.81
309.10	1812.45
309.32	1691.62
309.53	1667.05
309.74	1714.15
309.96	1712.10
310.17	1763.30
310.39	1703.91
310.60	1714.15
310.81	1742.82
311.03	1724.39
311.24	1814.50
311.45	1640.42
311.67	1841.12
311.88	1746.92
312.09	1681.38
312.31	1662.95
312.52	1669.09
312.73	1714.15
312.95	1665.00
313.16	1720.29
313.37	1789.92
313.59	1712.10
313.80	1781.73
314.01	1773.54
314.23	1681.38
314.44	1740.77
314.65	1642.47
314.87	1607.66
315.08	1697.77
315.29	1693.67
315.51	1677.29
315.72	1662.95
315.93	1773.54
316.15	1742.82
316.36	1662.95
316.57	1722.34
316.79	1798.12
317.00	1740.77
317.21	1710.05
317.43	1675.24
317.64	1677.29
317.85	1685.48
318.07	1669.09
318.28	1699.81
318.49	1738.73
318.70	1884.13
318.92	1855.46
319.13	1857.51
319.34	1912.80
319.56	1796.07
319.77	1757.16
319.98	1775.59
320.20	1775.59
320.41	1703.91
320.62	1757.16
320.83	1642.47
321.05	1902.56
321.26	1767.40
321.47	1685.48
321.69	1697.77
321.90	1685.48
322.11	1665.00
322.32	1689.57
322.54	1787.88
322.75	1691.62
322.96	1834.98
323.18	1693.67
323.39	1591.27
323.60	1708.01
323.81	1765.35
324.03	1652.71
324.24	1703.91
324.45	1742.82
324.66	1636.33
324.88	1742.82
325.09	1779.68
325.30	1685.48
325.52	1689.57
325.73	1779.68
325.94	1748.97
326.15	1638.38
326.37	1687.53
326.58	1730.53
326.79	1763.30
327.00	1654.76
327.22	1748.97
327.43	1585.13
327.64	1621.99
327.85	1703.91
328.07	1769.44
328.28	1832.93
328.49	1673.19
328.70	1722.34
328.92	1718.25
329.13	1648.61
329.34	1732.58
329.55	1761.25
329.76	1685.48
329.98	1724.39
330.19	1763.30
330.40	1726.44
330.61	1705.96
330.83	1742.82
331.04	1611.75
331.25	1781.73
331.46	1691.62
331.68	1656.81
331.89	1746.92
332.10	1662.95
332.31	1619.94
332.52	1748.97
332.74	1789.92
332.95	1673.19
333.16	1726.44
333.37	1791.97
333.58	1689.57
333.80	1775.59
334.01	1681.38
334.22	1671.14
334.43	1697.77
334.64	1712.10
334.86	1607.66
335.07	1583.08
335.28	1710.05
335.49	1671.14
335.70	1744.87
335.92	1740.77
336.13	1785.83
336.34	1658.85
336.55	1679.33
336.76	1662.95
336.98	1603.56
337.19	1669.09
337.40	1834.98
337.61	1847.27
337.82	1697.77
338.04	1845.22
338.25	1558.50
338.46	1701.86
338.67	1722.34
338.88	1712.10
339.09	1615.85
339.31	1673.19
339.52	1640.42
339.73	1712.10
339.94	1644.52
340.15	1710.05
340.36	1699.81
340.58	1691.62
340.79	1667.05
341.00	1734.63
341.21	1695.72
341.42	1828.84
341.63	1693.67
341.85	1757.16
342.06	1681.38
342.27	1673.19
342.48	1773.54
342.69	1593.32
342.90	1746.92
343.12	1781.73
343.33	1753.06
343.54	1671.14
343.75	1769.44
343.96	1695.72
344.17	1697.77
344.38	1746.92
344.60	1634.28
344.81	1734.63
345.02	1652.71
345.23	1718.25
345.44	1814.50
345.65	1808.36
345.86	1665.00
346.07	1675.24
346.29	1693.67
346.50	1654.76
346.71	1724.39
346.92	1757.16
347.13	1843.17
347.34	1660.90
347.55	1673.19
347.76	1720.29
347.98	1589.22
348.19	1681.38
348.40	1701.86
348.61	1679.33
348.82	1703.91
349.03	1730.53
349.24	1671.14
349.45	1757.16
349.66	1578.98
349.88	1681.38
350.09	1652.71
350.30	1757.16
350.51	1771.49
350.72	1681.38
350.93	1765.35
351.14	1708.01
351.35	1734.63
351.56	1769.44
351.77	1699.81
351.99	1703.91
352.20	1804.26
352.41	1822.69
352.62	1615.85
352.83	1658.85
353.04	1728.49
353.25	1644.52
353.46	1767.40
353.67	1822.69
353.88	1630.18
354.09	1757.16
354.30	1755.11
354.52	1736.68
354.73	1718.25
354.94	1652.71
355.15	1687.53
355.36	1818.60
355.57	1646.57
355.78	1744.87
355.99	1746.92
356.20	1650.66
356.41	1740.77
356.62	1761.25
356.83	1734.63
357.04	1787.88
357.25	1662.95
357.46	1669.09
357.68	1640.42
357.89	1628.14
358.10	1710.05
358.31	1714.15
358.52	1730.53
358.73	1630.18
358.94	1665.00
359.15	1677.29
359.36	1806.31
359.57	1730.53
359.78	1640.42
359.99	1689.57
360.20	1636.33
360.41	1716.20
360.62	1757.16
360.83	1669.09
361.04	1671.14
361.25	1794.02
361.46	1738.73
361.67	1796.07
361.88	1705.96
362.09	1765.35
362.30	1757.16
362.51	1763.30
362.72	1722.34
362.93	1783.78
363.14	1744.87
363.35	1673.19
363.56	1656.81
363.78	1730.53
363.99	1734.63
364.20	1667.05
364.41	1718.25
364.62	1845.22
364.83	1689.57
365.04	1748.97
365.25	1636.33
365.46	1828.84
365.67	1640.42
365.88	1634.28
366.09	1697.77
366.30	1673.19
366.51	1798.12
366.72	1681.38
366.93	1773.54
367.14	1703.91
367.35	1861.60
367.56	1722.34
367.77	1781.73
367.98	1744.87
368.18	1675.24
368.39	1771.49
368.60	1624.04
368.81	1740.77
369.02	1761.25
369.23	1716.20
369.44	1595.37
369.65	1648.61
369.86	1722.34
370.07	1773.54
370.28	1636.33
370.49	1701.86
370.70	1716.20
370.91	1632.23
371.12	1587.18
371.33	1771.49
371.54	1714.15
371.75	1740.77
371.96	1525.74
372.17	1691.62
372.38	1662.95
372.59	1794.02
372.80	1646.57
373.01	1673.19
373.22	1681.38
373.43	1738.73
373.64	1714.15
373.85	1738.73
374.06	1800.16
374.26	1771.49
374.47	1712.10
374.68	1814.50
374.89	1697.77
375.10	1665.00
375.31	1824.74
375.52	1708.01
375.73	1714.15
375.94	1595.37
376.15	1744.87
376.36	1589.22
376.57	1648.61
376.78	1740.77
376.99	1693.67
377.20	1712.10
377.40	1697.77
377.61	1816.55
377.82	1636.33
378.03	1708.01
378.24	1705.96
378.45	1703.91
378.66	1708.01
378.87	1566.70
379.08	1658.85
379.29	1695.72
379.50	1828.84
379.71	1660.90
379.91	1746.92
380.12	1763.30
380.33	1667.05
380.54	1677.29
380.75	1632.23
380.96	1742.82
381.17	1718.25
381.38	1773.54
381.59	1751.01
381.80	1683.43
382.00	1904.61
382.21	1763.30
382.42	1861.60
382.63	1867.75
382.84	1775.59
383.05	1730.53
383.26	1810.40
383.47	1722.34
383.68	1714.15
383.88	1767.40
384.09	1732.58
384.30	1818.60
384.51	1751.01
384.72	1685.48
384.93	1615.85
385.14	1705.96
385.35	1789.92
385.55	1646.57
385.76	1822.69
385.97	1730.53
386.18	1660.90
386.39	1671.14
386.60	1705.96
386.81	1738.73
387.02	1650.66
387.22	1615.85
387.43	1791.97
387.64	1824.74
387.85	1783.78
388.06	2166.75
388.27	4298.69
388.48	6670.23
388.68	8023.94
388.89	9402.22
389.10	9738.09
389.31	8527.74
389.52	7503.76
389.73	6743.96
389.93	6109.09
390.14	5863.33
390.35	5162.93
390.56	4573.11
390.77	3690.44
390.98	3014.61
391.18	2551.77
391.39	2119.65
391.60	1812.45
391.81	1822.69
392.02	1708.01
392.23	1826.79
392.43	1724.39
392.64	1843.17
392.85	1720.29
393.06	1775.59
393.27	1685.48
393.47	1662.95
393.68	1703.91
393.89	1683.43
394.10	1851.36
394.31	1675.24
394.52	1667.05
394.72	1601.51
394.93	1861.60
395.14	1632.23
395.35	1771.49
395.56	1638.38
395.76	1755.11
395.97	1765.35
396.18	1816.55
396.39	1814.50
396.60	2109.41
396.80	1927.14
397.01	1851.36
397.22	1898.47
397.43	1783.78
397.64	1732.58
397.84	1849.32
398.05	1890.28
398.26	1765.35
398.47	1773.54
398.67	1873.89
398.88	1755.11
399.09	1705.96
399.30	1748.97
399.51	1724.39
399.71	1703.91
399.92	1691.62
400.13	1693.67
400.34	1777.64
400.54	1710.05
400.75	1822.69
400.96	1757.16
401.17	1738.73
401.37	1732.58
401.58	1753.06
401.79	1771.49
402.00	1888.23
402.21	2021.35
402.41	1902.56
402.62	1910.75
402.83	2045.92
403.04	1966.05
403.24	2019.30
403.45	1859.56
403.66	1927.14
403.87	1839.08
404.07	1888.23
404.28	1841.12
404.49	1970.15
404.70	1746.92
404.90	1861.60
405.11	1660.90
405.32	1716.20
405.52	1632.23
405.73	1718.25
405.94	1652.71
406.15	1671.14
406.35	1730.53
406.56	1740.77
406.77	1697.77
406.98	1746.92
407.18	1673.19
407.39	1787.88
407.60	1746.92
407.80	1783.78
408.01	1757.16
408.22	1742.82
408.43	1681.38
408.63	1617.90
408.84	1740.77
409.05	1771.49
409.25	1712.10
409.46	1646.57
409.67	1665.00
409.88	1665.00
410.08	1742.82
410.29	1683.43
410.50	1800.16
410.70	1812.45
410.91	1636.33
411.12	1761.25
411.32	1734.63
411.53	1593.32
411.74	1810.40
411.95	1724.39
412.15	1720.29
412.36	1742.82
412.57	1748.97
412.77	1810.40
412.98	1777.64
413.19	1714.15
413.39	1796.07
413.60	1732.58
413.81	1771.49
414.01	1648.61
414.22	1746.92
414.43	1808.36
414.63	1626.09
414.84	1734.63
415.05	1714.15
415.25	1611.75
415.46	1771.49
415.67	1628.14
415.87	1716.20
416.08	1705.96
416.29	1679.33
416.49	1789.92
416.70	1656.81
416.91	1693.67
417.11	1667.05
417.32	1779.68
417.53	1748.97
417.73	1746.92
417.94	1683.43
418.15	1714.15
418.35	1689.57
418.56	1705.96
418.77	1843.17
418.97	1720.29
419.18	1740.77
419.38	1558.50
419.59	1681.38
419.80	1798.12
420.00	1665.00
420.21	1757.16
420.42	1748.97
420.62	1767.40
420.83	1693.67
421.04	1775.59
421.24	1634.28
421.45	1779.68
421.65	1683.43
421.86	1689.57
422.07	1736.68
422.27	1716.20
422.48	1667.05
422.69	1648.61
422.89	1748.97
423.10	1648.61
423.30	1648.61
423.51	1775.59
423.72	1773.54
423.92	1722.34
424.13	1679.33
424.33	1789.92
424.54	1703.91
424.75	1642.47
424.95	1880.04
425.16	1722.34
425.36	1701.86
425.57	1730.53
425.78	1738.73
425.98	1769.44
426.19	1734.63
426.39	1689.57
426.60	1736.68
426.81	1796.07
427.01	1679.33
427.22	1628.14
427.42	1646.57
427.63	1765.35
427.83	1796.07
428.04	1726.44
428.25	1873.89
428.45	1759.21
428.66	1761.25
428.86	1636.33
429.07	1660.90
429.28	1673.19
429.48	1712.10
429.69	1660.90
429.89	1791.97
430.10	1679.33
430.30	1767.40
430.51	1755.11
430.71	1626.09
430.92	1753.06
431.13	1703.91
431.33	1757.16
431.54	1736.68
431.74	1775.59
431.95	1818.60
432.15	1689.57
432.36	1691.62
432.56	1849.32
432.77	1834.98
432.98	1722.34
433.18	1755.11
433.39	1744.87
433.59	1626.09
433.80	1789.92
434.00	1888.23
434.21	1761.25
434.41	1732.58
434.62	1869.80
434.82	1695.72
435.03	1644.52
435.23	1751.01
435.44	1652.71
435.64	1755.11
435.85	1730.53
436.06	1794.02
436.26	1736.68
436.47	1720.29
436.67	1683.43
436.88	1738.73
437.08	1738.73
437.29	1775.59
437.49	1841.12
437.70	1791.97
437.90	1748.97
438.11	1824.74
438.31	1763.30
438.52	1863.65
438.72	1832.93
438.93	1935.33
439.13	1828.84
439.34	1820.64
439.54	1775.59
439.75	1789.92
439.95	1771.49
440.16	1757.16
440.36	1656.81
440.57	1771.49
440.77	1759.21
440.98	1728.49
441.18	1814.50
441.39	1607.66
441.59	1656.81
441.80	1765.35
442.00	1705.96
442.21	1763.30
442.41	1605.61
442.62	1775.59
442.82	1751.01
443.02	1722.34
443.23	1724.39
443.43	1751.01
443.64	1751.01
443.84	1677.29
444.05	1775.59
444.25	1712.10
444.46	1701.86
444.66	1757.16
444.87	1794.02
445.07	1656.81
445.28	1796.07
445.48	1857.51
445.69	1755.11
445.89	1898.47
446.09	1789.92
446.30	2041.82
446.50	2668.50
446.71	3712.97
446.91	4325.31
447.12	4605.88
447.32	4894.65
447.53	4306.88
447.73	3749.83
447.93	3491.79
448.14	3270.61
448.34	3237.84
448.55	2908.12
448.75	2881.49
448.96	2662.36
449.16	2273.25
449.36	2344.92
449.57	2050.02
449.77	1888.23
449.98	1824.74
450.18	1796.07
450.39	1701.86
450.59	1781.73
450.79	1648.61
451.00	1667.05
451.20	1837.03
451.41	1798.12
451.61	1773.54
451.81	1736.68
452.02	1728.49
452.22	1677.29
452.43	1671.14
452.63	1738.73
452.84	1701.86
453.04	1728.49
453.24	1746.92
453.45	1673.19
453.65	1732.58
453.86	1691.62
454.06	1703.91
454.26	1748.97
454.47	1753.06
454.67	1791.97
454.87	1781.73
455.08	1748.97
455.28	1781.73
455.49	1685.48
455.69	1660.90
455.89	1869.80
456.10	1761.25
456.30	1726.44
456.51	1775.59
456.71	1794.02
456.91	1751.01
457.12	1744.87
457.32	1730.53
457.52	1773.54
457.73	1789.92
457.93	1853.41
458.14	1736.68
458.34	1662.95
458.54	1708.01
458.75	1722.34
458.95	1720.29
459.15	1757.16
459.36	1753.06
459.56	1769.44
459.76	1820.64
459.97	1751.01
460.17	1757.16
460.37	1781.73
460.58	1746.92
460.78	1789.92
460.99	1708.01
461.19	1728.49
461.39	1652.71
461.60	1687.53
461.80	1773.54
462.00	1718.25
462.21	1705.96
462.41	1722.34
462.61	1691.62
462.82	1710.05
463.02	1759.21
463.22	1759.21
463.43	1796.07
463.63	1775.59
463.83	1804.26
464.04	1701.86
464.24	1777.64
464.44	1648.61
464.64	1710.05
464.85	1755.11
465.05	1832.93
465.25	1783.78
465.46	1761.25
465.66	1730.53
465.86	1865.70
466.07	1679.33
466.27	1724.39
466.47	1683.43
466.68	1669.09
466.88	1820.64
467.08	1732.58
467.29	1740.77
467.49	1712.10
467.69	1742.82
467.89	1695.72
468.10	1658.85
468.30	1718.25
468.50	1804.26
468.71	1703.91
468.91	1683.43
469.11	1865.70
469.31	1761.25
469.52	1693.67
469.72	1800.16
469.92	1841.12
470.13	1671.14
470.33	1751.01
470.53	1832.93
470.73	2123.74
470.94	2213.85
471.14	2432.99
471.34	2533.34
471.54	2402.27
471.75	2267.10
471.95	2205.66
472.15	2121.70
472.36	2078.69
472.56	2037.73
472.76	2033.63
472.96	2050.02
473.17	1910.75
473.37	1873.89
473.57	1785.83
473.77	1794.02
473.98	1660.90
474.18	1689.57
474.38	1904.61
474.58	1683.43
474.79	1751.01
474.99	1763.30
475.19	1697.77
475.39	1607.66
475.60	1757.16
475.80	1714.15
476.00	1693.67
476.20	1730.53
476.41	1714.15
476.61	1781.73
476.81	1775.59
477.01	1673.19
477.21	1845.22
477.42	1839.08
477.62	1591.27
477.82	1765.35
478.02	1701.86
478.23	1705.96
478.43	1685.48
478.63	1646.57
478.83	1773.54
479.03	1671.14
479.24	1789.92
479.44	1800.16
479.64	1708.01
479.84	1632.23
480.04	1656.81
480.25	1845.22
480.45	1628.14
480.65	1656.81
480.85	1759.21
481.06	1689.57
481.26	1699.81
481.46	1730.53
481.66	1742.82
481.86	1636.33
482.06	1806.31
482.27	1652.71
482.47	1689.57
482.67	1755.11
482.87	1710.05
483.07	1789.92
483.28	1775.59
483.48	1734.63
483.68	1687.53
483.88	1624.04
484.08	1660.90
484.29	1685.48
484.49	1806.31
484.69	1585.13
484.89	1867.75
485.09	1767.40
485.29	1818.60
485.50	1734.63
485.70	1699.81
485.90	1800.16
486.10	1740.77
486.30	1763.30
486.50	1892.32
486.71	1693.67
486.91	1787.88
487.11	1820.64
487.31	1638.38
487.51	1726.44
487.71	1703.91
487.91	1683.43
488.12	1628.14
488.32	1562.60
488.52	1708.01
488.72	1615.85
488.92	1675.24
489.12	1732.58
489.32	1765.35
489.53	1736.68
489.73	1679.33
489.93	1771.49
490.13	1667.05
490.33	1675.24
490.53	1765.35
490.73	1763.30
490.94	1662.95
491.14	1791.97
491.34	1847.27
491.54	2176.99
491.74	2602.97
491.94	3033.04
492.14	2965.46
492.34	3016.66
492.54	2779.09
492.75	2504.67
492.95	2504.67
493.15	2314.20
493.35	2306.01
493.55	2222.05
493.75	2136.03
493.95	2103.26
494.15	1978.34
494.35	1978.34
494.56	1824.74
494.76	1746.92
494.96	1742.82
495.16	1839.08
495.36	1675.24
495.56	1771.49
495.76	1738.73
495.96	1722.34
496.16	1611.75
496.36	1886.18
496.56	1675.24
496.77	1802.21
496.97	1740.77
497.17	1722.34
497.37	1660.90
497.57	1791.97
497.77	1753.06
497.97	1658.85
498.17	1699.81
498.37	1683.43
498.57	1767.40
498.77	1665.00
498.97	1777.64
499.17	1830.88
499.38	1705.96
499.58	1748.97
499.78	1806.31
499.98	1849.32
500.18	1808.36
500.38	1751.01
500.58	1906.66
500.78	2631.64
500.98	4450.24
501.18	5746.60
501.38	6729.63
501.58	7006.10
501.78	6567.84
501.98	5470.12
502.18	4951.99
502.38	4399.04
502.58	4167.62
502.78	3844.04
502.98	3583.95
503.18	3381.20
503.38	3141.58
503.59	2881.49
503.79	2539.48
503.99	2492.38
504.19	2320.35
504.39	2164.70
504.59	2195.42
504.79	2070.50
504.99	2068.45
505.19	1855.46
505.39	1853.41
505.59	1996.77
505.79	1849.32
505.99	1796.07
506.19	1783.78
506.39	1830.88
506.59	1638.38
506.79	1718.25
506.99	1753.06
507.19	1730.53
507.39	1734.63
507.59	1712.10
507.79	1644.52
507.99	1712.10
508.19	1746.92
508.39	1751.01
508.59	1734.63
508.79	1828.84
508.99	1761.25
509.19	1722.34
509.39	1810.40
509.59	1742.82
509.79	1648.61
509.99	1748.97
510.19	1783.78
510.39	1824.74
510.59	1753.06
510.79	1669.09
510.99	1722.34
511.19	1730.53
511.39	1783.78
511.59	1701.86
511.79	1853.41
511.99	1767.40
512.19	1818.60
512.38	1689.57
512.58	1669.09
512.78	1722.34
512.98	1826.79
513.18	1837.03
513.38	1742.82
513.58	1761.25
513.78	1724.39
513.98	1794.02
514.18	1753.06
514.38	1644.52
514.58	1736.68
514.78	1677.29
514.98	1677.29
515.18	1669.09
515.38	1658.85
515.58	1757.16
515.78	1765.35
515.98	1787.88
516.18	1746.92
516.38	1691.62
516.57	1728.49
516.77	1689.57
516.97	1736.68
517.17	1759.21
517.37	1632.23
517.57	1714.15
517.77	1767.40
517.97	1812.45
518.17	1791.97
518.37	1763.30
518.57	1744.87
518.77	1726.44
518.97	1677.29
519.16	1699.81
519.36	1834.98
519.56	1740.77
519.76	1755.11
519.96	1673.19
520.16	1826.79
520.36	1708.01
520.56	1845.22
520.76	1671.14
520.96	1695.72
521.16	1796.07
521.35	1816.55
521.55	1808.36
521.75	1671.14
521.95	1710.05
522.15	1701.86
522.35	1675.24
522.55	1673.19
522.75	1822.69
522.95	1730.53
523.14	1667.05
523.34	1771.49
523.54	1632.23
523.74	1787.88
523.94	1724.39
524.14	1710.05
524.34	1730.53
524.54	1824.74
524.73	1677.29
524.93	1796.07
525.13	1769.44
525.33	1718.25
525.53	1841.12
525.73	1738.73
525.93	1671.14
526.13	1712.10
526.32	1740.77
526.52	1767.40
526.72	1816.55
526.92	1660.90
527.12	1705.96
527.32	1736.68
527.52	1771.49
527.71	1781.73
527.91	1746.92
528.11	1685.48
528.31	1738.73
528.51	1691.62
528.71	1724.39
528.90	1841.12
529.10	1738.73
529.30	1847.27
529.50	1652.71
529.70	1779.68
529.90	1693.67
530.09	1734.63
530.29	1617.90
530.49	1597.42
530.69	1931.23
530.89	1791.97
531.09	1736.68
531.28	1691.62
531.48	1796.07
531.68	1712.10
531.88	1662.95
532.08	1767.40
532.28	1794.02
532.47	1832.93
532.67	1828.84
532.87	1777.64
533.07	1671.14
533.27	1800.16
533.46	1722.34
533.66	1828.84
533.86	1730.53
534.06	1714.15
534.26	1746.92
534.45	1728.49
534.65	1740.77
534.85	1839.08
535.05	1710.05
535.25	1738.73
535.44	1673.19
535.64	1710.05
535.84	1751.01
536.04	1724.39
536.24	1667.05
536.43	1703.91
536.63	1837.03
536.83	1744.87
537.03	1808.36
537.22	1601.51
537.42	1703.91
537.62	1789.92
537.82	1660.90
538.02	1863.65
538.21	1794.02
538.41	1906.66
538.61	1689.57
538.81	1738.73
539.00	1851.36
539.20	1691.62
539.40	1699.81
539.60	1742.82
539.79	1816.55
539.99	1703.91
540.19	1656.81
540.39	1757.16
540.58	1765.35
540.78	1712.10
540.98	1734.63
541.18	1718.25
541.37	1753.06
541.57	1710.05
541.77	1718.25
541.97	1656.81
542.16	1665.00
542.36	1708.01
542.56	1771.49
542.76	1859.56
542.95	1757.16
543.15	1816.55
543.35	1710.05
543.54	1642.47
543.74	1705.96
543.94	1771.49
544.14	1742.82
544.33	1816.55
544.53	1705.96
544.73	1740.77
544.93	1732.58
545.12	1710.05
545.32	1710.05
545.52	1769.44
545.71	1624.04
545.91	1667.05
546.11	1691.62
546.30	1691.62
546.50	1748.97
546.70	1732.58
546.90	1777.64
547.09	1660.90
547.29	1779.68
547.49	1824.74
547.68	1710.05
547.88	1658.85
548.08	1728.49
548.27	2207.71
548.47	1660.90
548.67	1658.85
548.87	1748.97
549.06	1689.57
549.26	1714.15
549.46	1773.54
549.65	1753.06
549.85	1763.30
550.05	1748.97
550.24	1638.38
550.44	1714.15
550.64	1662.95
550.83	1730.53
551.03	1826.79
551.23	1812.45
551.42	1867.75
551.62	1679.33
551.82	1675.24
552.01	1667.05
552.21	1857.51
552.41	1773.54
552.60	1755.11
552.80	1728.49
553.00	1718.25
553.19	1734.63
553.39	1783.78
553.59	1660.90
553.78	1753.06
553.98	1779.68
554.17	1728.49
554.37	1751.01
554.57	1759.21
554.76	1650.66
554.96	1642.47
555.16	1730.53
555.35	1722.34
555.55	1773.54
555.75	1734.63
555.94	1748.97
556.14	1660.90
556.33	1804.26
556.53	1734.63
556.73	1714.15
556.92	1779.68
557.12	1779.68
557.32	1800.16
557.51	1816.55
557.71	1751.01
557.90	1798.12
558.10	1837.03
558.30	1691.62
558.49	1753.06
558.69	1689.57
558.88	1755.11
559.08	1728.49
559.28	1619.94
559.47	1714.15
559.67	1779.68
559.86	1968.10
560.06	1757.16
560.26	1789.92
560.45	1732.58
560.65	1732.58
560.84	1820.64
561.04	1697.77
561.24	1810.40
561.43	1697.77
561.63	1839.08
561.82	1730.53
562.02	1853.41
562.22	1697.77
562.41	1667.05
562.61	1720.29
562.80	1660.90
563.00	1822.69
563.19	1779.68
563.39	1804.26
563.59	1828.84
563.78	1701.86
563.98	1646.57
564.17	1730.53
564.37	1626.09
564.56	1734.63
564.76	1693.67
564.96	1763.30
565.15	1755.11
565.35	1845.22
565.54	1705.96
565.74	1726.44
565.93	1744.87
566.13	1751.01
566.32	1781.73
566.52	1767.40
566.71	1796.07
566.91	1783.78
567.11	1701.86
567.30	1720.29
567.50	1791.97
567.69	1738.73
567.89	1724.39
568.08	1714.15
568.28	1734.63
568.47	1697.77
568.67	1800.16
568.86	1734.63
569.06	1806.31
569.25	1656.81
569.45	1693.67
569.64	1679.33
569.84	1734.63
570.04	1757.16
570.23	1701.86
570.43	1777.64
570.62	1777.64
570.82	1857.51
571.01	1720.29
571.21	1781.73
571.40	1669.09
571.60	1830.88
571.79	1841.12
571.99	1787.88
572.18	1695.72
572.38	1798.12
572.57	1736.68
572.77	1761.25
572.96	1787.88
573.16	1738.73
573.35	1724.39
573.55	1806.31
573.74	1777.64
573.94	1837.03
574.13	1683.43
574.33	1730.53
574.52	1769.44
574.71	1740.77
574.91	1783.78
575.10	1669.09
575.30	1679.33
575.49	1646.57
575.69	1685.48
575.88	1746.92
576.08	1697.77
576.27	1804.26
576.47	1746.92
576.66	1888.23
576.86	1853.41
577.05	1787.88
577.25	1703.91
577.44	1908.71
577.64	1746.92
577.83	1873.89
578.02	1701.86
578.22	1771.49
578.41	1859.56
578.61	1726.44
578.80	1626.09
579.00	1724.39
579.19	1773.54
579.39	1761.25
579.58	1839.08
579.77	1757.16
579.97	1779.68
580.16	1877.99
580.36	1812.45
580.55	1882.08
580.75	1806.31
580.94	1722.34
581.13	1812.45
581.33	1880.04
581.52	1738.73
581.72	1869.80
581.91	1791.97
582.11	1681.38
582.30	1769.44
582.49	1693.67
582.69	1812.45
582.88	1791.97
583.08	1822.69
583.27	1779.68
583.47	1718.25
583.66	1728.49
583.85	1763.30
584.05	1781.73
584.24	1851.36
584.44	1771.49
584.63	1791.97
584.82	1886.18
585.02	1859.56
585.21	1857.51
585.41	1875.94
585.60	1742.82
585.79	1900.52
585.99	1894.37
586.18	1869.80
586.37	2193.37
586.57	3334.09
586.76	9801.58
586.96	24010.39
587.15	33922.55
587.34	39675.30
587.54	41520.52
587.73	36167.13
587.93	25667.19
588.12	21311.16
588.31	18015.98
588.51	15879.95
588.70	14774.05
588.89	13936.43
589.09	12404.55
589.28	10860.38
589.47	9256.82
589.67	7796.62
589.86	6223.78
590.06	4925.36
590.25	3893.19
590.44	3055.57
590.64	2570.20
590.83	2215.90
591.02	2041.82
591.22	1923.04
591.41	1877.99
591.60	1863.65
591.80	1992.67
591.99	1677.29
592.18	1722.34
592.38	1904.61
592.57	1761.25
592.76	1816.55
592.96	1806.31
593.15	1771.49
593.34	1863.65
593.54	1798.12
593.73	1804.26
593.92	1757.16
594.12	1748.97
594.31	1839.08
594.50	1859.56
594.70	1777.64
594.89	1865.70
595.08	1632.23
595.28	1775.59
595.47	1937.38
595.66	1806.31
595.86	1689.57
596.05	1769.44
596.24	1771.49
596.43	1837.03
596.63	1830.88
596.82	1740.77
597.01	1828.84
597.21	1791.97
597.40	1755.11
597.59	1771.49
597.79	1730.53
597.98	1785.83
598.17	1775.59
598.36	1757.16
598.56	1796.07
598.75	1755.11
598.94	1705.96
599.14	1853.41
599.33	1683.43
599.52	1763.30
599.71	1787.88
599.91	1789.92
600.10	1810.40
600.29	1724.39
600.48	1720.29
600.68	1761.25
600.87	1710.05
601.06	1619.94
601.26	1738.73
601.45	1767.40
601.64	1710.05
601.83	1771.49
602.03	1757.16
602.22	1609.70
602.41	1804.26
602.60	1935.33
602.80	1769.44
602.99	1814.50
603.18	1722.34
603.37	1751.01
603.57	1732.58
603.76	1763.30
603.95	1779.68
604.14	1748.97
604.34	1673.19
604.53	1640.42
604.72	1775.59
604.91	1841.12
605.10	1798.12
605.30	1701.86
605.49	1920.99
605.68	1748.97
605.87	1724.39
606.07	1705.96
606.26	1779.68
606.45	1732.58
606.64	1759.21
606.84	1683.43
607.03	1728.49
607.22	1783.78
607.41	1673.19
607.60	1656.81
607.80	1765.35
607.99	1740.77
608.18	1669.09
608.37	1751.01
608.56	1648.61
608.76	1789.92
608.95	1873.89
609.14	1695.72
609.33	1773.54
609.52	1748.97
609.72	1769.44
609.91	1742.82
610.10	1820.64
610.29	1824.74
610.48	1783.78
610.68	1730.53
610.87	1755.11
611.06	1767.40
611.25	1660.90
611.44	1808.36
611.63	1693.67
611.83	1787.88
612.02	1699.81
612.21	1779.68
612.40	1628.14
612.59	1648.61
612.79	1703.91
612.98	1734.63
613.17	1828.84
613.36	1677.29
613.55	1806.31
613.74	1695.72
613.93	1675.24
614.13	1789.92
614.32	1714.15
614.51	1806.31
614.70	1734.63
614.89	1724.39
615.08	1763.30
615.28	2017.25
615.47	1722.34
615.66	1687.53
615.85	1722.34
616.04	1804.26
616.23	1712.10
616.42	1648.61
616.62	1748.97
616.81	1736.68
617.00	1728.49
617.19	1789.92
617.38	1708.01
617.57	1718.25
617.76	1763.30
617.95	1834.98
618.15	1763.30
618.34	1787.88
618.53	1685.48
618.72	1820.64
618.91	1800.16
619.10	1826.79
619.29	1708.01
619.48	1814.50
619.68	1654.76
619.87	1777.64
620.06	1624.04
620.25	1748.97
620.44	1677.29
620.63	1691.62
620.82	1697.77
621.01	1734.63
621.20	1681.38
621.39	1703.91
621.59	1714.15
621.78	1730.53
621.97	1757.16
622.16	1800.16
622.35	1710.05
622.54	1773.54
622.73	1837.03
622.92	1632.23
623.11	1789.92
623.30	1701.86
623.49	1734.63
623.68	1685.48
623.88	1826.79
624.07	1732.58
624.26	1671.14
624.45	1722.34
624.64	1701.86
624.83	1728.49
625.02	1695.72
625.21	1716.20
625.40	1785.83
625.59	1847.27
625.78	1757.16
625.97	1759.21
626.16	1804.26
626.35	1722.34
626.54	1701.86
626.74	1820.64
626.93	1667.05
627.12	1775.59
627.31	1771.49
627.50	1757.16
627.69	1726.44
627.88	1738.73
628.07	1755.11
628.26	1654.76
628.45	1708.01
628.64	1724.39
628.83	1716.20
629.02	1728.49
629.21	1744.87
629.40	1705.96
629.59	1681.38
629.78	1746.92
629.97	1759.21
630.16	1755.11
630.35	1669.09
630.54	1722.34
630.73	1796.07
630.92	1673.19
631.11	1673.19
631.30	1732.58
631.49	1779.68
631.68	1734.63
631.87	1732.58
632.06	1644.52
632.25	1882.08
632.44	1722.34
632.63	1652.71
632.82	1708.01
633.01	1710.05
633.20	1671.14
633.39	1669.09
633.58	1599.46
633.77	1693.67
633.96	1787.88
634.15	1783.78
634.34	1734.63
634.53	1714.15
634.72	1658.85
634.91	1648.61
635.10	1722.34
635.29	1787.88
635.48	1724.39
635.67	1705.96
635.86	1736.68
636.05	1746.92
636.24	1695.72
636.43	1785.83
636.62	1781.73
636.81	1660.90
637.00	1681.38
637.19	1718.25
637.38	1667.05
637.57	1699.81
637.76	1683.43
637.95	1769.44
638.14	1763.30
638.33	1693.67
638.52	1767.40
638.71	1687.53
638.89	1712.10
639.08	1820.64
639.27	1794.02
639.46	1673.19
639.65	1789.92
639.84	1742.82
640.03	1820.64
640.22	1673.19
640.41	1832.93
640.60	1691.62
640.79	1712.10
640.98	1689.57
641.17	1732.58
641.36	1751.01
641.55	1759.21
641.74	1638.38
641.92	1648.61
642.11	1697.77
642.30	1662.95
642.49	1712.10
642.68	1667.05
642.87	1718.25
643.06	1689.57
643.25	1705.96
643.44	1781.73
643.63	1679.33
643.82	1751.01
644.00	1689.57
644.19	1763.30
644.38	1708.01
644.57	1726.44
644.76	1716.20
644.95	1773.54
645.14	1730.53
645.33	1716.20
645.52	1808.36
645.71	1650.66
645.89	1685.48
646.08	1740.77
646.27	1726.44
646.46	1855.46
646.65	1656.81
646.84	1777.64
647.03	1638.38
647.22	1804.26
647.40	1759.21
647.59	1722.34
647.78	1699.81
647.97	1697.77
648.16	1671.14
648.35	1765.35
648.54	1781.73
648.73	1691.62
648.91	1796.07
649.10	1656.81
649.29	1728.49
649.48	1771.49
649.67	1755.11
649.86	1738.73
650.05	1705.96
650.23	1705.96
650.42	1595.37
650.61	1697.77
650.80	1740.77
650.99	1812.45
651.18	1718.25
651.36	1759.21
651.55	1759.21
651.74	1742.82
651.93	1669.09
652.12	1656.81
652.31	1687.53
652.49	1746.92
652.68	1675.24
652.87	1865.70
653.06	1705.96
653.25	1740.77
653.44	1726.44
653.62	1804.26
653.81	1736.68
654.00	1728.49
654.19	1787.88
654.38	1834.98
654.56	1710.05
654.75	1703.91
654.94	1734.63
655.13	1775.59
655.32	1746.92
655.51	1755.11
655.69	1683.43
655.88	1847.27
656.07	1650.66
656.26	1783.78
656.45	1660.90
656.63	1738.73
656.82	1654.76
657.01	1779.68
657.20	1722.34
657.38	1730.53
657.57	1710.05
657.76	1675.24
657.95	1744.87
658.14	1669.09
658.32	1718.25
658.51	1626.09
658.70	1691.62
658.89	1710.05
659.08	1726.44
659.26	1873.89
659.45	1632.23
659.64	1757.16
659.83	1751.01
660.01	1884.13
660.20	1710.05
660.39	1761.25
660.58	1609.70
660.76	1763.30
660.95	1714.15
661.14	1660.90
661.33	1599.46
661.51	1740.77
661.70	1603.56
661.89	1779.68
662.08	1673.19
662.26	1638.38
662.45	1591.27
662.64	1832.93
662.83	1828.84
663.01	1648.61
663.20	1746.92
663.39	1830.88
663.58	1671.14
663.76	1718.25
663.95	1839.08
664.14	1744.87
664.32	1644.52
664.51	1689.57
664.70	1691.62
664.89	1744.87
665.07	1675.24
665.26	1785.83
665.45	1742.82
665.64	1818.60
665.82	1718.25
666.01	1806.31
666.20	1689.57
666.38	1812.45
666.57	1820.64
666.76	2197.47
666.95	4597.69
667.13	10299.23
667.32	15046.43
667.51	17501.94
667.69	18802.40
667.88	17276.66
668.07	12142.41
668.25	9418.61
668.44	7942.02
668.63	7307.15
668.81	6698.91
669.00	6076.32
669.19	5547.95
669.38	4995.00
669.56	4519.87
669.75	4028.35
669.94	3262.41
670.12	2920.40
670.31	2443.23
670.50	2252.77
670.68	2015.20
670.87	1902.56
671.06	1843.17
671.24	1726.44
671.43	1882.08
671.62	1734.63
671.80	1779.68
671.99	1734.63
672.18	1748.97
672.36	1742.82
672.55	1701.86
672.74	1734.63
672.92	1708.01
673.11	1742.82
673.29	1703.91
673.48	1708.01
673.67	1740.77
673.85	1839.08
674.04	1714.15
674.23	1785.83
674.41	1845.22
674.60	1634.28
674.79	1648.61
674.97	1665.00
675.16	1800.16
675.34	1824.74
675.53	1656.81
675.72	1773.54
675.90	1738.73
676.09	1677.29
676.28	1699.81
676.46	1724.39
676.65	1746.92
676.83	1671.14
677.02	1681.38
677.21	1734.63
677.39	1679.33
677.58	1767.40
677.77	1730.53
677.95	1732.58
678.14	1736.68
678.32	1726.44
678.51	1689.57
678.70	1873.89
678.88	1740.77
679.07	1740.77
679.25	1751.01
679.44	1751.01
679.63	1685.48
679.81	1751.01
680.00	1787.88
680.18	1773.54
680.37	1888.23
680.55	1728.49
680.74	1656.81
680.93	1669.09
681.11	1712.10
681.30	1685.48
681.48	1720.29
681.67	1710.05
681.85	1777.64
682.04	1683.43
682.23	1753.06
682.41	1763.30
682.60	1667.05
682.78	1652.71
682.97	1669.09
683.15	1722.34
683.34	1744.87
683.53	1781.73
683.71	1634.28
683.90	1798.12
684.08	1806.31
684.27	1697.77
684.45	1765.35
684.64	1779.68
684.82	1744.87
685.01	1703.91
685.19	1693.67
685.38	1902.56
685.57	1738.73
685.75	1642.47
685.94	1705.96
686.12	1724.39
686.31	1648.61
686.49	1755.11
686.68	1578.98
686.86	1748.97
687.05	1636.33
687.23	1796.07
687.42	1740.77
687.60	1603.56
687.79	1736.68
687.97	1755.11
688.16	1789.92
688.34	1767.40
688.53	1675.24
688.71	1753.06
688.90	1673.19
689.08	1691.62
689.27	1595.37
689.45	1738.73
689.64	1800.16
689.82	1763.30
690.01	1677.29
690.19	1773.54
690.38	1646.57
690.56	1775.59
690.75	1624.04
690.93	1689.57
691.12	1697.77
691.30	1669.09
691.49	1716.20
691.67	1681.38
691.86	1943.52
692.04	1656.81
692.23	1654.76
692.41	1738.73
692.60	1828.84
692.78	1769.44
692.97	1771.49
693.15	1728.49
693.34	1859.56
693.52	1697.77
693.71	1640.42
693.89	1685.48
694.08	1595.37
694.26	1767.40
694.44	1796.07
694.63	1751.01
694.81	1673.19
695.00	1689.57
695.18	1767.40
695.37	1791.97
695.55	1748.97
695.74	1753.06
695.92	1685.48
696.10	1824.74
696.29	1644.52
696.47	1708.01
696.66	1650.66
696.84	1658.85
697.03	1773.54
697.21	1814.50
697.40	2381.79
697.58	1630.18
697.76	1671.14
697.95	1712.10
698.13	1665.00
698.32	1732.58
698.50	1769.44
698.68	1746.92
698.87	1732.58
699.05	1771.49
699.24	1757.16
699.42	1671.14
699.61	1796.07
699.79	1789.92
699.97	1751.01
700.16	1607.66
700.34	1675.24
700.53	1724.39
700.71	1800.16
700.89	1740.77
701.08	1761.25
701.26	1724.39
701.45	2127.84
701.63	1658.85
701.81	1667.05
702.00	1652.71
702.18	1718.25
702.37	1671.14
702.55	1701.86
702.73	1687.53
702.92	1654.76
703.10	1710.05
703.28	1740.77
703.47	1677.29
703.65	1722.34
703.84	1751.01
704.02	1683.43
704.20	1794.02
704.39	1687.53
704.57	1685.48
704.75	1732.58
704.94	1744.87
705.12	1734.63
705.30	1746.92
705.49	2285.53
705.67	4468.67
705.86	9453.42
706.04	12406.59
706.22	14206.76
706.41	15105.82
706.59	13569.84
706.77	9613.17
706.96	7276.43
707.14	6401.95
707.32	5863.33
707.51	5537.71
707.69	4884.41
707.87	4194.24
708.06	3456.97
708.24	2869.20
708.42	2346.97
708.61	2275.29
708.79	1898.47
708.97	1890.28
709.16	1845.22
709.34	1789.92
709.52	1701.86
709.71	1685.48
709.89	1785.83
710.07	1636.33
710.26	1714.15
710.44	1701.86
710.62	1693.67
710.80	1691.62
710.99	1777.64
711.17	1714.15
711.35	1656.81
711.54	1681.38
711.72	1798.12
711.90	1699.81
712.09	1753.06
712.27	1646.57
712.45	1701.86
712.63	1632.23
712.82	1685.48
713.00	1710.05
713.18	1718.25
713.37	1746.92
713.55	1714.15
713.73	1738.73
713.91	1759.21
714.10	1665.00
714.28	1691.62
714.46	1765.35
714.65	1699.81
714.83	1679.33
715.01	1751.01
715.19	1736.68
715.38	1648.61
715.56	1734.63
715.74	1605.61
715.92	1634.28
716.11	1820.64
716.29	1619.94
716.47	1791.97
716.65	1734.63
716.84	1619.94
717.02	1697.77
717.20	1656.81
717.38	1669.09
717.57	1765.35
717.75	1767.40
717.93	1703.91
718.11	1757.16
718.30	1654.76
718.48	1710.05
718.66	1775.59
718.84	1746.92
719.03	1755.11
719.21	1705.96
719.39	1740.77
719.57	1724.39
719.75	1787.88
719.94	1607.66
720.12	1720.29
720.30	1705.96
720.48	1781.73
720.67	1689.57
720.85	1708.01
721.03	1660.90
721.21	1685.48
721.39	1755.11
721.58	1798.12
721.76	1730.53
721.94	1810.40
722.12	1734.63
722.30	1757.16
722.49	1689.57
722.67	1767.40
722.85	1699.81
723.03	1675.24
723.21	1607.66
723.40	1701.86
723.58	1759.21
723.76	1755.11
723.94	1710.05
724.12	1710.05
724.30	1798.12
724.49	1761.25
724.67	1626.09
724.85	1705.96
725.03	1646.57
725.21	1724.39
725.40	1755.11
725.58	1695.72
725.76	1718.25
725.94	1781.73
726.12	1652.71
726.30	1640.42
726.49	1650.66
726.67	1652.71
726.85	1773.54
727.03	1787.88
727.21	2156.51
727.39	2836.44
727.57	3764.17
727.76	4231.10
727.94	4427.71
728.12	4415.42
728.30	3594.19
728.48	3016.66
728.66	2772.95
728.84	2611.16
729.03	2318.30
729.21	2224.09
729.39	1978.34
729.57	1871.84
729.75	1796.07
729.93	1785.83
730.11	1693.67
730.30	1755.11
730.48	1716.20
730.66	1839.08
730.84	1781.73
731.02	1765.35
731.20	1679.33
731.38	1681.38
731.56	1609.70
731.74	1693.67
731.93	1730.53
732.11	1746.92
732.29	1714.15
732.47	1726.44
732.65	1687.53
732.83	1775.59
733.01	1730.53
733.19	1724.39
733.37	1738.73
733.56	1726.44
733.74	1761.25
733.92	1763.30
734.10	1777.64
734.28	1763.30
734.46	1619.94
734.64	1636.33
734.82	1697.77
735.00	1685.48
735.18	1699.81
735.36	1691.62
735.54	1718.25
735.73	1726.44
735.91	1724.39
736.09	1843.17
736.27	1732.58
736.45	1751.01
736.63	1675.24
736.81	1660.90
736.99	1701.86
737.17	1841.12
737.35	1675.24
737.53	1624.04
737.71	1665.00
737.89	1802.21
738.07	1636.33
738.25	1728.49
738.43	1611.75
738.61	1720.29
738.80	1705.96
738.98	1640.42
739.16	1695.72
739.34	1685.48
739.52	1783.78
739.70	1640.42
739.88	1814.50
740.06	1771.49
740.24	1626.09
740.42	1736.68
740.60	1533.93
740.78	1697.77
740.96	1599.46
741.14	1683.43
741.32	1697.77
741.50	1640.42
741.68	1884.13
741.86	1775.59
742.04	1648.61
742.22	1658.85
742.40	1703.91
742.58	1685.48
742.76	1720.29
742.94	1697.77
743.12	1654.76
743.30	1759.21
743.48	1845.22
743.66	1716.20
743.84	1652.71
744.02	1689.57
744.20	1683.43
744.38	1644.52
744.56	1685.48
744.74	1808.36
744.92	1701.86
745.10	1763.30
745.28	1746.92
745.46	1812.45
745.64	1646.57
745.82	1720.29
746.00	1703.91
746.18	1701.86
746.36	1691.62
746.54	1771.49
746.72	1648.61
746.90	1609.70
747.08	1777.64
747.26	1621.99
747.44	1736.68
747.62	1705.96
747.80	1710.05
747.98	1681.38
748.15	1683.43
748.33	1742.82
748.51	1699.81
748.69	1765.35
748.87	1628.14
749.05	1746.92
749.23	1732.58
749.41	1671.14
749.59	1644.52
749.77	1746.92
749.95	1636.33
750.13	1642.47
750.31	1716.20
750.49	1710.05
750.67	1755.11
750.85	1814.50
751.03	1662.95
751.20	1923.04
751.38	1746.92
751.56	1705.96
751.74	1650.66
751.92	1673.19
752.10	1734.63
752.28	1755.11
752.46	1652.71
752.64	1671.14
752.82	1730.53
753.00	1755.11
753.18	1656.81
753.35	1724.39
753.53	1685.48
753.71	1611.75
753.89	1740.77
754.07	1728.49
754.25	1802.21
754.43	1744.87
754.61	1675.24
754.79	1730.53
754.97	1640.42
755.14	1789.92
755.32	1662.95
755.50	1695.72
755.68	1765.35
755.86	1695.72
756.04	1712.10
756.22	1562.60
756.40	1722.34
756.57	1808.36
756.75	1693.67
756.93	1808.36
757.11	1720.29
757.29	1650.66
757.47	1689.57
757.65	1619.94
757.82	1535.98
758.00	1626.09
758.18	1671.14
758.36	1636.33
758.54	1796.07
758.72	1689.57
758.90	1767.40
759.07	1767.40
759.25	1634.28
759.43	1691.62
759.61	1617.90
759.79	2240.48
759.97	1761.25
760.15	1615.85
760.32	1656.81
760.50	1775.59
760.68	1810.40
760.86	1638.38
761.04	1777.64
761.22	1783.78
761.39	1648.61
761.57	1636.33
761.75	1751.01
761.93	1703.91
762.11	1730.53
762.28	1662.95
762.46	1667.05
762.64	1753.06
762.82	1636.33
763.00	1669.09
763.18	1796.07
763.35	1591.27
763.53	1734.63
763.71	1724.39
763.89	1751.01
764.07	1652.71
764.24	1732.58
764.42	1726.44
764.60	1697.77
764.78	1810.40
764.96	1783.78
765.13	1787.88
765.31	1730.53
765.49	1767.40
765.67	1646.57
765.84	1687.53
766.02	1673.19
766.20	1626.09
766.38	1726.44
766.56	1701.86
766.73	1691.62
766.91	1751.01
767.09	1652.71
767.27	1730.53
767.44	1679.33
767.62	1734.63
767.80	1755.11
767.98	1712.10
768.15	1687.53
768.33	1753.06
768.51	1757.16
768.69	1853.41
768.87	1697.77
769.04	1650.66
769.22	1814.50
769.40	1767.40
769.58	1853.41
769.75	1699.81
769.93	1847.27
770.11	1716.20
770.28	1599.46
770.46	1787.88
770.64	1705.96
770.82	1736.68
770.99	1685.48
771.17	1703.91
771.35	1685.48
771.53	1660.90
771.70	1654.76
771.88	1697.77
772.06	1691.62
772.23	1796.07
772.41	1746.92
772.59	1685.48
772.77	1619.94
772.94	1671.14
773.12	1718.25
773.30	1644.52
773.47	1658.85
773.65	1632.23
773.83	1753.06
774.01	1718.25
774.18	1630.18
774.36	1695.72
774.54	1636.33
774.71	1767.40
774.89	1601.51
775.07	1656.81
775.24	1689.57
775.42	1667.05
775.60	1781.73
775.78	1656.81
775.95	1652.71
776.13	1615.85
776.31	1556.46
776.48	1689.57
776.66	1789.92
776.84	1712.10
777.01	1609.70
777.19	1701.86
777.37	1628.14
777.54	1734.63
777.72	1867.75
777.90	1724.39
778.07	1708.01
778.25	1886.18
778.43	1679.33
778.60	1710.05
778.78	1748.97
778.96	1779.68
779.13	1660.90
779.31	1701.86
779.49	1693.67
779.66	1720.29
779.84	1720.29
780.01	1695.72
780.19	1675.24
780.37	1748.97
780.54	1722.34
780.72	1691.62
780.90	1691.62
781.07	1660.90
781.25	1652.71
781.43	1734.63
781.60	1695.72
781.78	1689.57
781.95	1742.82
782.13	1667.05
782.31	1675.24
782.48	1601.51
782.66	1753.06
782.83	1791.97
783.01	1832.93
783.19	1755.11
783.36	1738.73
783.54	1636.33
783.72	1789.92
783.89	1652.71
784.07	1751.01
784.24	1681.38
784.42	1787.88
784.60	1693.67
784.77	1859.56
784.95	1626.09
785.12	1681.38
785.30	1687.53
785.47	1613.80
785.65	1662.95
785.83	1593.32
786.00	1624.04
786.18	1675.24
786.35	1646.57
786.53	1626.09
786.71	1802.21
786.88	1708.01
787.06	1681.38
787.23	1689.57
787.41	1591.27
787.58	1650.66
787.76	1665.00
787.94	1724.39
788.11	1728.49
788.29	1728.49
788.46	1730.53
788.64	1609.70
788.81	1611.75
788.99	1650.66
789.16	1638.38
789.34	1613.80
789.52	1703.91
789.69	1671.14
789.87	1570.79
790.04	1677.29
790.22	1718.25
790.39	1855.46
790.57	1697.77
790.74	1642.47
790.92	1726.44
791.09	1619.94
791.27	1748.97
791.44	1742.82
791.62	1726.44
791.79	1699.81
791.97	1660.90
792.15	1841.12
792.32	1734.63
792.50	1767.40
792.67	1775.59
792.85	1759.21
793.02	1720.29
793.20	1761.25
793.37	1652.71
793.55	1705.96
793.72	1587.18
793.90	1687.53
794.07	1642.47
794.25	1683.43
794.42	1714.15
794.60	1714.15
794.77	1710.05
794.95	1714.15
795.12	1746.92
795.30	1691.62
795.47	1630.18
795.65	1880.04
795.82	1705.96
796.00	1646.57
796.17	1658.85
796.34	1652.71
796.52	1722.34
796.69	1763.30
796.87	1779.68
797.04	1753.06
797.22	1773.54
797.39	1763.30
797.57	1712.10
797.74	1710.05
797.92	1677.29
798.09	1705.96
798.27	1755.11
798.44	1722.34
798.62	1671.14
798.79	1757.16
798.96	1779.68
799.14	1736.68
799.31	1779.68
799.49	1691.62
799.66	1669.09
799.84	1744.87
800.01	1585.13
800.19	1734.63
800.36	1611.75
800.53	1675.24
800.71	1763.30
800.88	1843.17
801.06	1714.15
801.23	1697.77
801.41	1767.40
801.58	1705.96
801.75	1705.96
801.93	1742.82
802.10	1742.82
802.28	1679.33
802.45	1693.67
802.63	1789.92
802.80	1759.21
802.97	1695.72
803.15	1783.78
803.32	1691.62
803.50	1646.57
803.67	1667.05
803.84	1595.37
804.02	1691.62
804.19	1681.38
804.37	1552.36
804.54	1658.85
804.71	1740.77
804.89	1724.39
805.06	1734.63
805.24	1722.34
805.41	1656.81
805.58	1699.81
805.76	1839.08
805.93	1746.92
806.10	1761.25
806.28	1681.38
806.45	1730.53
806.63	1703.91
806.80	1685.48
806.97	1671.14
807.15	1705.96
807.32	1734.63
807.49	1685.48
807.67	1638.38
807.84	1802.21
808.01	1665.00
808.19	1820.64
808.36	1832.93
808.54	1703.91
808.71	1644.52
808.88	1665.00
809.06	1781.73
809.23	1779.68
809.40	1646.57
809.58	1705.96
809.75	1648.61
809.92	1656.81
810.10	1877.99
810.27	1714.15
810.44	1744.87
810.62	1796.07
810.79	1718.25
810.96	1701.86
811.14	1658.85
811.31	1751.01
811.48	1691.62
811.66	1746.92
811.83	1763.30
812.00	1703.91
812.18	1736.68
812.35	1849.32
812.52	1632.23
812.69	1763.30
812.87	1689.57
813.04	1712.10
813.21	1591.27
813.39	1650.66
813.56	1687.53
813.73	1796.07
813.91	1679.33
814.08	1660.90
814.25	1718.25
814.42	1685.48
814.60	1617.90
814.77	1726.44
814.94	1722.34
815.12	1763.30
815.29	1732.58
815.46	1748.97
815.63	1693.67
815.81	1677.29
815.98	1708.01
816.15	1712.10
816.33	1726.44
816.50	1652.71
816.67	1673.19
816.84	1714.15
817.02	1646.57
817.19	1697.77
817.36	1683.43
817.53	1775.59
817.71	1632.23
817.88	1746.92
818.05	1626.09
818.22	1626.09
818.40	1816.55
818.57	1650.66
818.74	1665.00
818.91	1705.96
819.09	1751.01
819.26	1755.11
819.43	1677.29
819.60	1662.95
819.78	1716.20
819.95	1757.16
820.12	1658.85
820.29	1832.93
820.47	1738.73
820.64	1650.66
820.81	1617.90
820.98	1591.27
821.15	1691.62
821.33	1732.58
821.50	1546.22
821.67	1787.88
821.84	1720.29
822.02	1765.35
822.19	1783.78
822.36	1705.96
822.53	1740.77
822.70	1656.81
822.88	1714.15
823.05	1828.84
823.22	1675.24
823.39	1718.25
823.56	1689.57
823.74	1775.59
823.91	1665.00
824.08	1648.61
824.25	1601.51
824.42	1757.16
824.60	1673.19
824.77	1767.40
824.94	1665.00
825.11	1699.81
825.28	1683.43
825.45	1714.15
825.63	1677.29
825.80	1681.38
825.97	1685.48
826.14	1751.01
826.31	1636.33
826.48	1677.29
826.66	1695.72
826.83	1714.15
827.00	1724.39
827.17	1652.71
827.34	1656.81
827.51	1734.63
827.69	1685.48
827.86	1669.09
828.03	1699.81
828.20	1693.67
828.37	1581.03
828.54	1748.97
828.71	1597.42
828.89	1767.40
829.06	1687.53
829.23	1830.88
829.40	1683.43
829.57	1701.86
829.74	1665.00
829.91	1644.52
830.09	1677.29
830.26	1785.83
830.43	1804.26
830.60	1712.10
830.77	1765.35
830.94	1800.16
831.11	1761.25
831.28	1710.05
831.46	1753.06
831.63	1748.97
831.80	1742.82
831.97	1689.57
832.14	1665.00
832.31	1732.58
832.48	1714.15
832.65	1761.25
832.82	1757.16
832.99	1660.90
833.17	1683.43
833.34	1783.78
833.51	1701.86
833.68	1638.38
833.85	1828.84
834.02	1652.71
834.19	1748.97
834.36	1683.43
834.53	1726.44
834.70	1734.63
834.87	1789.92
835.04	1710.05
835.22	1669.09
835.39	1757.16
835.56	1650.66
835.73	1703.91
835.90	1808.36
836.07	1699.81
836.24	1691.62
836.41	1697.77
836.58	1748.97
836.75	1777.64
836.92	1800.16
837.09	1681.38
837.26	1726.44
837.43	1738.73
837.60	1665.00
837.77	1675.24
837.94	1736.68
838.12	1681.38
838.29	1724.39
838.46	1599.46
838.63	1705.96
838.80	1771.49
838.97	1753.06
839.14	1695.72
839.31	1734.63
839.48	1814.50
839.65	1718.25
839.82	1798.12
839.99	1699.81
840.16	1720.29
840.33	1699.81
840.50	1710.05
840.67	1617.90
840.84	1587.18
841.01	1708.01
841.18	1599.46
841.35	1781.73
841.52	1775.59
841.69	1796.07
841.86	1626.09
842.03	1718.25
842.20	1740.77
842.37	1708.01
842.54	1681.38
842.71	1708.01
842.88	1636.33
843.05	1705.96
843.22	1689.57
843.39	1742.82
843.56	1669.09
843.73	1720.29
843.90	1669.09
844.07	1630.18
844.24	1742.82
844.41	1738.73
844.58	1626.09
844.75	1677.29
844.92	1791.97
845.09	1708.01
845.26	1697.77
845.43	1693.67
845.60	1714.15
845.77	1734.63
845.94	1683.43
846.10	1796.07
846.27	1654.76
846.44	1701.86
846.61	1615.85
846.78	1675.24
846.95	1773.54
847.12	1683.43
847.29	1718.25
847.46	1628.14
847.63	1736.68
847.80	1652.71
847.97	1697.77
848.14	1826.79
848.31	1689.57
848.48	1621.99
848.65	1660.90
848.82	1736.68
848.98	1875.94
849.15	1767.40
849.32	1759.21
849.49	1748.97
849.66	1677.29
849.83	1728.49
850.00	1656.81
850.17	1751.01
850.34	1660.90
850.51	1755.11
850.68	1708.01
850.85	1816.55
851.01	1763.30
851.18	1781.73
851.35	1660.90
851.52	1699.81
851.69	1726.44
851.86	1652.71
852.03	1671.14
852.20	1718.25
852.37	1636.33
852.53	1740.77
852.70	1687.53
852.87	1753.06
853.04	1767.40
853.21	1677.29
853.38	1771.49
853.55	1730.53
853.72	1759.21
853.89	1708.01
854.05	1644.52
854.22	1677.29
854.39	1615.85
854.56	1683.43
854.73	1796.07
854.90	1636.33
855.07	1673.19
855.23	1630.18
855.40	1626.09
855.57	1697.77
855.74	1605.61
855.91	1898.47
856.08	1652.71
856.25	1648.61
856.41	1546.22
856.58	1751.01
856.75	1710.05
856.92	1681.38
857.09	1775.59
857.26	1642.47
857.42	1615.85
857.59	1716.20
857.76	1662.95
857.93	1714.15
858.10	1763.30
858.27	1675.24
858.43	1708.01
858.60	1597.42
858.77	1585.13
858.94	1687.53
859.11	1685.48
859.27	1662.95
859.44	1697.77
859.61	1808.36
859.78	1714.15
859.95	1748.97
860.12	1679.33
860.28	1755.11
860.45	1800.16
860.62	1617.90
860.79	1716.20
860.95	1613.80
861.12	1691.62
861.29	1685.48
861.46	1640.42
861.63	1701.86
861.79	1675.24
861.96	1718.25
862.13	1626.09
862.30	1708.01
862.47	1689.57
862.63	1697.77
862.80	1777.64
862.97	1804.26
863.14	1708.01
863.30	1691.62
863.47	1660.90
863.64	1810.40
863.81	1691.62
863.97	1722.34
864.14	1734.63
864.31	1761.25
864.48	1673.19
864.65	1710.05
864.81	1701.86
864.98	1716.20
865.15	1748.97
865.32	1681.38
865.48	1757.16
865.65	1775.59
865.82	1648.61
865.98	1791.97
866.15	1722.34
866.32	1757.16
866.49	1630.18
866.65	1791.97
866.82	1591.27
866.99	1685.48
867.16	1705.96
867.32	1689.57
867.49	1634.28
867.66	1679.33
867.83	1693.67
867.99	1644.52
868.16	1701.86
868.33	1697.77
868.49	1675.24
868.66	1691.62
868.83	1744.87
868.99	1697.77
869.16	1701.86
869.33	1775.59
869.50	1845.22
869.66	1681.38
869.83	1730.53
870.00	1570.79
870.16	1779.68
870.33	1681.38
870.50	1720.29
870.66	1689.57
870.83	1812.45
871.00	1701.86
871.17	1675.24
871.33	1820.64
871.50	1656.81
871.67	1671.14
871.83	1644.52
872.00	1763.30
872.17	1675.24
872.33	1834.98
872.50	1757.16
872.67	1660.90
872.83	1617.90
873.00	1785.83
873.17	1751.01
873.33	1755.11
873.50	1716.20
873.67	1665.00
873.83	1665.00
874.00	1656.81
874.16	1871.84
874.33	1638.38
874.50	1671.14
874.66	1701.86
874.83	1738.73
875.00	1789.92
875.16	1734.63
875.33	1773.54
875.50	1558.50
875.66	1665.00
875.83	1744.87
875.99	1767.40
876.16	1742.82
876.33	1609.70
876.49	1656.81
876.66	1767.40
876.83	1708.01
876.99	1648.61
877.16	1693.67
877.32	1689.57
877.49	1638.38
877.66	1699.81
877.82	1757.16
877.99	1744.87
878.15	1759.21
878.32	1736.68
878.49	1699.81
878.65	1644.52
878.82	1708.01
878.98	1644.52
879.15	1734.63
879.32	1789.92
879.48	1744.87
879.65	1689.57
879.81	1615.85
879.98	1742.82
880.15	1624.04
880.31	1673.19
880.48	1675.24
880.64	1824.74
880.81	1773.54
880.97	1898.47
881.14	1748.97
881.31	1652.71
881.47	1890.28
881.64	1783.78
881.80	1677.29
881.97	1691.62
882.13	1808.36
882.30	1665.00
882.47	1662.95
882.63	1660.90
882.80	1667.05
882.96	1693.67
883.13	1763.30
883.29	1609.70
883.46	1740.77
883.62	1849.32
883.79	1710.05
883.95	1748.97
884.12	1660.90
884.29	1734.63
884.45	1685.48
884.62	1712.10
884.78	1697.77
884.95	1744.87
885.11	1695.72
885.28	1753.06
885.44	1751.01
885.61	1695.72
885.77	1800.16
885.94	1775.59
886.10	1646.57
886.27	1650.66
886.43	1804.26
886.60	1839.08
886.76	1617.90
886.93	1591.27
887.09	1703.91
887.26	1593.32
887.42	1679.33
887.59	1751.01
887.75	1861.60
887.92	1804.26
888.08	1703.91
888.25	1798.12
888.41	1757.16
888.58	1716.20
888.74	1722.34
888.91	1724.39
>>>>>End Processed Spectral Data<<<<<
