SpectraSuite Data File
++++++++++++++++++++++++++++++++++++
Date: Mon Jun 06 13:38:17 CEST 2016
User: root
Dark Spectrum Present: No
Reference Spectrum Present: No
Number of Sampled Component Spectra: 1
Spectrometers: USB4C02835
Integration Time (usec): 100000 (USB4C02835)
Spectra Averaged: 1 (USB4C02835)
Boxcar Smoothing: 0 (USB4C02835)
Correct for Electrical Dark: No (USB4C02835)
Strobe/Lamp Enabled: No (USB4C02835)
Correct for Detector Non-linearity: No (USB4C02835)
Correct for Stray Light: No (USB4C02835)
Number of Pixels in Processed Spectrum: 3648
>>>>>Begin Processed Spectral Data<<<<<
177.47	1445.87
177.69	1445.87
177.91	1445.87
178.13	1474.54
178.36	1454.06
178.58	1638.38
178.80	1701.86
179.02	1636.33
179.24	1658.85
179.46	1693.67
179.68	1812.45
179.90	1730.53
180.13	1687.53
180.35	1665.00
180.57	1591.27
180.79	1787.88
181.01	1652.71
181.23	1757.16
181.45	1828.84
181.67	1695.72
181.90	1687.53
182.12	1644.52
182.34	1613.80
182.56	1722.34
182.78	1671.14
183.00	1693.67
183.22	1667.05
183.44	1613.80
183.66	1841.12
183.89	1787.88
184.11	1671.14
184.33	1705.96
184.55	1853.41
184.77	1693.67
184.99	1705.96
185.21	1642.47
185.43	1798.12
185.65	1638.38
185.87	1755.11
186.10	1791.97
186.32	1900.52
186.54	1738.73
186.76	1628.14
186.98	1816.55
187.20	1718.25
187.42	1593.32
187.64	1679.33
187.86	1716.20
188.08	1798.12
188.30	1689.57
188.52	1695.72
188.75	1771.49
188.97	1775.59
189.19	1665.00
189.41	1656.81
189.63	1779.68
189.85	1714.15
190.07	1621.99
190.29	1632.23
190.51	1763.30
190.73	1613.80
190.95	1710.05
191.17	1660.90
191.39	1589.22
191.61	1669.09
191.84	1671.14
192.06	1681.38
192.28	1540.07
192.50	1857.51
192.72	1724.39
192.94	1738.73
193.16	1726.44
193.38	1708.01
193.60	1589.22
193.82	1654.76
194.04	1769.44
194.26	1677.29
194.48	1716.20
194.70	1652.71
194.92	1720.29
195.14	1773.54
195.36	1699.81
195.58	1742.82
195.80	1703.91
196.02	1597.42
196.24	1671.14
196.46	1658.85
196.69	1705.96
196.91	1816.55
197.13	1675.24
197.35	1695.72
197.57	1777.64
197.79	1744.87
198.01	1689.57
198.23	1699.81
198.45	1708.01
198.67	1617.90
198.89	1716.20
199.11	1794.02
199.33	1591.27
199.55	1574.89
199.77	1775.59
199.99	1685.48
200.21	1630.18
200.43	1712.10
200.65	1687.53
200.87	1589.22
201.09	1736.68
201.31	1597.42
201.53	1751.01
201.75	1671.14
201.97	1654.76
202.19	1705.96
202.41	1693.67
202.63	1875.94
202.85	1677.29
203.07	1740.77
203.29	1748.97
203.51	1665.00
203.73	1656.81
203.95	1767.40
204.17	1714.15
204.39	1658.85
204.61	1689.57
204.83	1626.09
205.05	1734.63
205.27	1685.48
205.49	1810.40
205.71	1691.62
205.93	1619.94
206.15	1685.48
206.37	1677.29
206.59	1730.53
206.81	1675.24
207.03	1671.14
207.25	1632.23
207.47	1781.73
207.69	1660.90
207.91	1708.01
208.13	1771.49
208.34	1652.71
208.56	1656.81
208.78	1687.53
209.00	1683.43
209.22	1705.96
209.44	1634.28
209.66	1673.19
209.88	1667.05
210.10	1705.96
210.32	1738.73
210.54	1746.92
210.76	1751.01
210.98	1753.06
211.20	1595.37
211.42	1665.00
211.64	1800.16
211.86	1775.59
212.08	1714.15
212.30	1726.44
212.52	1679.33
212.74	1665.00
212.96	1740.77
213.17	1732.58
213.39	1652.71
213.61	1804.26
213.83	1658.85
214.05	1621.99
214.27	1695.72
214.49	1599.46
214.71	1765.35
214.93	1771.49
215.15	1714.15
215.37	1726.44
215.59	1595.37
215.81	1665.00
216.03	1738.73
216.24	1771.49
216.46	1726.44
216.68	1710.05
216.90	1701.86
217.12	1638.38
217.34	1660.90
217.56	1751.01
217.78	1712.10
218.00	1695.72
218.22	1761.25
218.44	1718.25
218.66	1705.96
218.87	1818.60
219.09	1730.53
219.31	1611.75
219.53	1712.10
219.75	1630.18
219.97	1675.24
220.19	1691.62
220.41	1617.90
220.63	1785.83
220.85	1746.92
221.06	1677.29
221.28	1800.16
221.50	1734.63
221.72	1662.95
221.94	1796.07
222.16	1656.81
222.38	1775.59
222.60	1748.97
222.82	1701.86
223.03	1796.07
223.25	1689.57
223.47	1724.39
223.69	1789.92
223.91	1650.66
224.13	1613.80
224.35	1669.09
224.57	1744.87
224.78	1714.15
225.00	1660.90
225.22	1652.71
225.44	1730.53
225.66	1656.81
225.88	1703.91
226.10	1812.45
226.32	1656.81
226.53	1736.68
226.75	1728.49
226.97	1621.99
227.19	1689.57
227.41	1632.23
227.63	1660.90
227.85	1634.28
228.06	1716.20
228.28	1738.73
228.50	1714.15
228.72	1685.48
228.94	1693.67
229.16	1646.57
229.37	1601.51
229.59	1615.85
229.81	1787.88
230.03	1621.99
230.25	1628.14
230.47	1681.38
230.69	1607.66
230.90	1742.82
231.12	1609.70
231.34	1724.39
231.56	1787.88
231.78	1675.24
232.00	1656.81
232.21	1748.97
232.43	1669.09
232.65	1617.90
232.87	1636.33
233.09	1732.58
233.30	1630.18
233.52	1697.77
233.74	1669.09
233.96	1665.00
234.18	1691.62
234.40	1650.66
234.61	1810.40
234.83	1654.76
235.05	1683.43
235.27	1757.16
235.49	1734.63
235.70	1671.14
235.92	1714.15
236.14	1740.77
236.36	1800.16
236.58	1630.18
236.79	1755.11
237.01	1720.29
237.23	1638.38
237.45	1787.88
237.67	1662.95
237.88	1697.77
238.10	1738.73
238.32	1644.52
238.54	1615.85
238.76	1693.67
238.97	1619.94
239.19	1599.46
239.41	1718.25
239.63	1667.05
239.85	1710.05
240.06	1669.09
240.28	1675.24
240.50	1744.87
240.72	1701.86
240.93	1693.67
241.15	1740.77
241.37	1755.11
241.59	1787.88
241.81	1654.76
242.02	1660.90
242.24	1726.44
242.46	1738.73
242.68	1658.85
242.89	1740.77
243.11	1769.44
243.33	1703.91
243.55	1720.29
243.76	1691.62
243.98	1636.33
244.20	1638.38
244.42	1667.05
244.64	1718.25
244.85	1613.80
245.07	1736.68
245.29	1714.15
245.51	1716.20
245.72	1667.05
245.94	1755.11
246.16	1763.30
246.38	1755.11
246.59	1671.14
246.81	1699.81
247.03	1699.81
247.24	1624.04
247.46	1597.42
247.68	1712.10
247.90	1742.82
248.11	1667.05
248.33	1794.02
248.55	1628.14
248.77	1753.06
248.98	1742.82
249.20	1695.72
249.42	1699.81
249.64	1693.67
249.85	1667.05
250.07	1607.66
250.29	1783.78
250.50	1814.50
250.72	1648.61
250.94	1656.81
251.16	1869.80
251.37	1736.68
251.59	1730.53
251.81	1716.20
252.02	1845.22
252.24	1665.00
252.46	1767.40
252.68	1708.01
252.89	1740.77
253.11	1673.19
253.33	1806.31
253.54	1785.83
253.76	1667.05
253.98	1662.95
254.20	1785.83
254.41	1601.51
254.63	1722.34
254.85	1665.00
255.06	1722.34
255.28	1660.90
255.50	1677.29
255.71	1595.37
255.93	1644.52
256.15	1722.34
256.36	1689.57
256.58	1650.66
256.80	1693.67
257.02	1675.24
257.23	1636.33
257.45	1689.57
257.67	1742.82
257.88	1634.28
258.10	1722.34
258.32	1648.61
258.53	1753.06
258.75	1710.05
258.97	1654.76
259.18	1740.77
259.40	1705.96
259.62	1771.49
259.83	1755.11
260.05	1751.01
260.27	2009.06
260.48	1689.57
260.70	1644.52
260.92	1765.35
261.13	1724.39
261.35	1798.12
261.57	1673.19
261.78	1581.03
262.00	1591.27
262.22	1728.49
262.43	1677.29
262.65	1628.14
262.86	1697.77
263.08	1794.02
263.30	1677.29
263.51	1667.05
263.73	1587.18
263.95	1742.82
264.16	1615.85
264.38	1660.90
264.60	1738.73
264.81	1669.09
265.03	1697.77
265.25	1671.14
265.46	1716.20
265.68	1726.44
265.89	1759.21
266.11	1601.51
266.33	1716.20
266.54	1726.44
266.76	1718.25
266.98	1697.77
267.19	1818.60
267.41	1781.73
267.62	1654.76
267.84	1667.05
268.06	1720.29
268.27	1740.77
268.49	1742.82
268.70	1773.54
268.92	1681.38
269.14	1619.94
269.35	1615.85
269.57	1742.82
269.79	1681.38
270.00	1605.61
270.22	1779.68
270.43	1714.15
270.65	1591.27
270.87	1644.52
271.08	1769.44
271.30	1708.01
271.51	1693.67
271.73	1671.14
271.95	1724.39
272.16	1650.66
272.38	1759.21
272.59	1646.57
272.81	1798.12
273.02	1724.39
273.24	1642.47
273.46	1753.06
273.67	1652.71
273.89	1644.52
274.10	1671.14
274.32	1785.83
274.54	1722.34
274.75	1677.29
274.97	1730.53
275.18	1705.96
275.40	1767.40
275.61	1615.85
275.83	1675.24
276.05	1574.89
276.26	1714.15
276.48	1693.67
276.69	1669.09
276.91	1583.08
277.12	1812.45
277.34	1720.29
277.55	1753.06
277.77	1697.77
277.99	1683.43
278.20	1626.09
278.42	1665.00
278.63	1669.09
278.85	1689.57
279.06	1597.42
279.28	1769.44
279.49	1722.34
279.71	1703.91
279.93	1720.29
280.14	1634.28
280.36	1646.57
280.57	1757.16
280.79	1755.11
281.00	1654.76
281.22	1638.38
281.43	1712.10
281.65	1558.50
281.86	1652.71
282.08	1726.44
282.29	1826.79
282.51	1589.22
282.73	1720.29
282.94	1628.14
283.16	1761.25
283.37	1830.88
283.59	1695.72
283.80	1701.86
284.02	1708.01
284.23	1675.24
284.45	1673.19
284.66	1630.18
284.88	1673.19
285.09	1726.44
285.31	1705.96
285.52	1699.81
285.74	1599.46
285.95	1697.77
286.17	1728.49
286.38	1714.15
286.60	1693.67
286.81	1644.52
287.03	1644.52
287.24	1767.40
287.46	1697.77
287.67	1681.38
287.89	1781.73
288.10	1703.91
288.32	1728.49
288.53	1847.27
288.75	1673.19
288.96	1693.67
289.18	1665.00
289.39	1738.73
289.61	1677.29
289.82	1820.64
290.04	1767.40
290.25	1646.57
290.47	1701.86
290.68	1714.15
290.90	1720.29
291.11	1667.05
291.33	1839.08
291.54	1648.61
291.76	1642.47
291.97	1656.81
292.18	1693.67
292.40	1667.05
292.61	1718.25
292.83	1892.32
293.04	1751.01
293.26	1753.06
293.47	1726.44
293.69	1677.29
293.90	1646.57
294.12	1830.88
294.33	1687.53
294.55	1652.71
294.76	1732.58
294.97	1753.06
295.19	1767.40
295.40	1665.00
295.62	1728.49
295.83	1712.10
296.05	1665.00
296.26	1800.16
296.48	1591.27
296.69	1665.00
296.90	1761.25
297.12	1689.57
297.33	1740.77
297.55	1726.44
297.76	1746.92
297.98	1796.07
298.19	1761.25
298.41	1681.38
298.62	1628.14
298.83	1740.77
299.05	1722.34
299.26	1734.63
299.48	1732.58
299.69	1632.23
299.90	1697.77
300.12	1667.05
300.33	1677.29
300.55	1648.61
300.76	1757.16
300.98	1691.62
301.19	1859.56
301.40	1648.61
301.62	1679.33
301.83	1708.01
302.05	1669.09
302.26	1744.87
302.47	1705.96
302.69	1689.57
302.90	1660.90
303.12	1552.36
303.33	1691.62
303.54	1806.31
303.76	1738.73
303.97	1773.54
304.19	1753.06
304.40	1646.57
304.61	1748.97
304.83	1839.08
305.04	1728.49
305.26	1665.00
305.47	1626.09
305.68	1650.66
305.90	1626.09
306.11	1802.21
306.33	1665.00
306.54	1710.05
306.75	1626.09
306.97	1589.22
307.18	1607.66
307.39	1687.53
307.61	1679.33
307.82	1673.19
308.04	1800.16
308.25	1675.24
308.46	1705.96
308.68	1720.29
308.89	1673.19
309.10	1734.63
309.32	1675.24
309.53	1660.90
309.74	1742.82
309.96	1662.95
310.17	1761.25
310.39	1681.38
310.60	1714.15
310.81	1781.73
311.03	1624.04
311.24	1738.73
311.45	1753.06
311.67	1845.22
311.88	1796.07
312.09	1658.85
312.31	1652.71
312.52	1751.01
312.73	1671.14
312.95	1574.89
313.16	1640.42
313.37	1751.01
313.59	1728.49
313.80	1757.16
314.01	1718.25
314.23	1642.47
314.44	1679.33
314.65	1585.13
314.87	1574.89
315.08	1677.29
315.29	1667.05
315.51	1652.71
315.72	1656.81
315.93	1812.45
316.15	1779.68
316.36	1605.61
316.57	1685.48
316.79	1779.68
317.00	1679.33
317.21	1798.12
317.43	1660.90
317.64	1687.53
317.85	1636.33
318.07	1617.90
318.28	1726.44
318.49	1728.49
318.70	1937.38
318.92	1781.73
319.13	1814.50
319.34	1834.98
319.56	1751.01
319.77	1841.12
319.98	1771.49
320.20	1769.44
320.41	1722.34
320.62	1751.01
320.83	1648.61
321.05	1765.35
321.26	1769.44
321.47	1646.57
321.69	1730.53
321.90	1654.76
322.11	1701.86
322.32	1744.87
322.54	1720.29
322.75	1669.09
322.96	1859.56
323.18	1648.61
323.39	1628.14
323.60	1640.42
323.81	1703.91
324.03	1693.67
324.24	1632.23
324.45	1701.86
324.66	1748.97
324.88	1771.49
325.09	1730.53
325.30	1701.86
325.52	1736.68
325.73	1693.67
325.94	1628.14
326.15	1617.90
326.37	1708.01
326.58	1683.43
326.79	1746.92
327.00	1679.33
327.22	1669.09
327.43	1691.62
327.64	1632.23
327.85	1734.63
328.07	1712.10
328.28	1781.73
328.49	1679.33
328.70	1685.48
328.92	1736.68
329.13	1658.85
329.34	1689.57
329.55	1830.88
329.76	1656.81
329.98	1693.67
330.19	1775.59
330.40	1732.58
330.61	1689.57
330.83	1732.58
331.04	1615.85
331.25	1683.43
331.46	1599.46
331.68	1683.43
331.89	1791.97
332.10	1701.86
332.31	1650.66
332.52	1681.38
332.74	1810.40
332.95	1671.14
333.16	1699.81
333.37	1748.97
333.58	1656.81
333.80	1701.86
334.01	1574.89
334.22	1718.25
334.43	1650.66
334.64	1691.62
334.86	1574.89
335.07	1718.25
335.28	1765.35
335.49	1665.00
335.70	1740.77
335.92	1748.97
336.13	1824.74
336.34	1779.68
336.55	1683.43
336.76	1658.85
336.98	1656.81
337.19	1646.57
337.40	1794.02
337.61	1818.60
337.82	1738.73
338.04	1759.21
338.25	1648.61
338.46	1732.58
338.67	1585.13
338.88	1673.19
339.09	1669.09
339.31	1751.01
339.52	1665.00
339.73	1601.51
339.94	1681.38
340.15	1771.49
340.36	1693.67
340.58	1744.87
340.79	1691.62
341.00	1773.54
341.21	1587.18
341.42	1841.12
341.63	1689.57
341.85	1724.39
342.06	1736.68
342.27	1703.91
342.48	1730.53
342.69	1630.18
342.90	1671.14
343.12	1787.88
343.33	1642.47
343.54	1781.73
343.75	1779.68
343.96	1658.85
344.17	1660.90
344.38	1632.23
344.60	1742.82
344.81	1624.04
345.02	1679.33
345.23	1814.50
345.44	1726.44
345.65	1748.97
345.86	1736.68
346.07	1781.73
346.29	1626.09
346.50	1742.82
346.71	1673.19
346.92	1822.69
347.13	1791.97
347.34	1656.81
347.55	1705.96
347.76	1755.11
347.98	1617.90
348.19	1726.44
348.40	1804.26
348.61	1681.38
348.82	1787.88
349.03	1757.16
349.24	1724.39
349.45	1763.30
349.66	1603.56
349.88	1771.49
350.09	1640.42
350.30	1789.92
350.51	1800.16
350.72	1761.25
350.93	1740.77
351.14	1697.77
351.35	1699.81
351.56	1693.67
351.77	1673.19
351.99	1701.86
352.20	1777.64
352.41	1779.68
352.62	1650.66
352.83	1681.38
353.04	1677.29
353.25	1703.91
353.46	1720.29
353.67	1742.82
353.88	1628.14
354.09	1722.34
354.30	1695.72
354.52	1755.11
354.73	1619.94
354.94	1601.51
355.15	1730.53
355.36	1789.92
355.57	1644.52
355.78	1736.68
355.99	1718.25
356.20	1671.14
356.41	1755.11
356.62	1689.57
356.83	1714.15
357.04	1773.54
357.25	1550.31
357.46	1667.05
357.68	1593.32
357.89	1660.90
358.10	1691.62
358.31	1656.81
358.52	1695.72
358.73	1679.33
358.94	1665.00
359.15	1705.96
359.36	1748.97
359.57	1714.15
359.78	1574.89
359.99	1740.77
360.20	1712.10
360.41	1705.96
360.62	1748.97
360.83	1738.73
361.04	1689.57
361.25	1746.92
361.46	1820.64
361.67	1726.44
361.88	1720.29
362.09	1730.53
362.30	1775.59
362.51	1681.38
362.72	1658.85
362.93	1714.15
363.14	1781.73
363.35	1705.96
363.56	1665.00
363.78	1734.63
363.99	1773.54
364.20	1679.33
364.41	1634.28
364.62	1816.55
364.83	1669.09
365.04	1701.86
365.25	1740.77
365.46	1742.82
365.67	1624.04
365.88	1603.56
366.09	1771.49
366.30	1699.81
366.51	1685.48
366.72	1583.08
366.93	1701.86
367.14	1669.09
367.35	1804.26
367.56	1705.96
367.77	1736.68
367.98	1720.29
368.18	1675.24
368.39	1724.39
368.60	1671.14
368.81	1726.44
369.02	1730.53
369.23	1730.53
369.44	1599.46
369.65	1636.33
369.86	1781.73
370.07	1734.63
370.28	1695.72
370.49	1712.10
370.70	1710.05
370.91	1660.90
371.12	1597.42
371.33	1775.59
371.54	1626.09
371.75	1785.83
371.96	1572.84
372.17	1724.39
372.38	1701.86
372.59	1736.68
372.80	1673.19
373.01	1693.67
373.22	1705.96
373.43	1738.73
373.64	1656.81
373.85	1755.11
374.06	1837.03
374.26	1689.57
374.47	1738.73
374.68	1714.15
374.89	1683.43
375.10	1708.01
375.31	1710.05
375.52	1671.14
375.73	1740.77
375.94	1626.09
376.15	1771.49
376.36	1675.24
376.57	1638.38
376.78	1712.10
376.99	1570.79
377.20	1779.68
377.40	1658.85
377.61	1720.29
377.82	1581.03
378.03	1757.16
378.24	1796.07
378.45	1615.85
378.66	1757.16
378.87	1542.12
379.08	1578.98
379.29	1726.44
379.50	1738.73
379.71	1648.61
379.91	1746.92
380.12	1699.81
380.33	1667.05
380.54	1687.53
380.75	1644.52
380.96	1675.24
381.17	1757.16
381.38	1755.11
381.59	1734.63
381.80	1722.34
382.00	1861.60
382.21	1712.10
382.42	1808.36
382.63	1896.42
382.84	1753.06
383.05	1732.58
383.26	1744.87
383.47	1667.05
383.68	1755.11
383.88	1789.92
384.09	1787.88
384.30	1826.79
384.51	1687.53
384.72	1753.06
384.93	1634.28
385.14	1732.58
385.35	1798.12
385.55	1628.14
385.76	1769.44
385.97	1642.47
386.18	1634.28
386.39	1669.09
386.60	1720.29
386.81	1699.81
387.02	1658.85
387.22	1673.19
387.43	1732.58
387.64	1751.01
387.85	1865.70
388.06	2195.42
388.27	4204.48
388.48	6782.87
388.68	8249.22
388.89	9588.59
389.10	9586.54
389.31	8540.03
389.52	7354.26
389.73	6680.47
389.93	6326.18
390.14	5879.72
390.35	5066.67
390.56	4550.59
390.77	3733.45
390.98	2996.18
391.18	2496.47
391.39	2090.98
391.60	1927.14
391.81	1783.78
392.02	1730.53
392.23	1824.74
392.43	1708.01
392.64	1787.88
392.85	1687.53
393.06	1771.49
393.27	1699.81
393.47	1693.67
393.68	1779.68
393.89	1662.95
394.10	1753.06
394.31	1630.18
394.52	1693.67
394.72	1697.77
394.93	1687.53
395.14	1585.13
395.35	1738.73
395.56	1628.14
395.76	1753.06
395.97	1740.77
396.18	1787.88
396.39	1814.50
396.60	2041.82
396.80	1875.94
397.01	1855.46
397.22	1773.54
397.43	1812.45
397.64	1656.81
397.84	1798.12
398.05	1828.84
398.26	1708.01
398.47	1781.73
398.67	1789.92
398.88	1705.96
399.09	1783.78
399.30	1712.10
399.51	1738.73
399.71	1691.62
399.92	1648.61
400.13	1761.25
400.34	1638.38
400.54	1634.28
400.75	1820.64
400.96	1781.73
401.17	1820.64
401.37	1662.95
401.58	1738.73
401.79	1722.34
402.00	1869.80
402.21	2011.11
402.41	2060.26
402.62	1996.77
402.83	2017.25
403.04	1951.71
403.24	2043.87
403.45	1884.13
403.66	1925.09
403.87	1863.65
404.07	1791.97
404.28	1931.23
404.49	1877.99
404.70	1744.87
404.90	1767.40
405.11	1730.53
405.32	1753.06
405.52	1675.24
405.73	1617.90
405.94	1669.09
406.15	1718.25
406.35	1753.06
406.56	1808.36
406.77	1683.43
406.98	1658.85
407.18	1638.38
407.39	1843.17
407.60	1699.81
407.80	1763.30
408.01	1617.90
408.22	1722.34
408.43	1673.19
408.63	1697.77
408.84	1720.29
409.05	1763.30
409.25	1669.09
409.46	1669.09
409.67	1699.81
409.88	1714.15
410.08	1724.39
410.29	1744.87
410.50	1691.62
410.70	1697.77
410.91	1683.43
411.12	1773.54
411.32	1705.96
411.53	1662.95
411.74	1767.40
411.95	1789.92
412.15	1746.92
412.36	1779.68
412.57	1742.82
412.77	1789.92
412.98	1738.73
413.19	1716.20
413.39	1828.84
413.60	1724.39
413.81	1775.59
414.01	1705.96
414.22	1718.25
414.43	1839.08
414.63	1757.16
414.84	1796.07
415.05	1781.73
415.25	1640.42
415.46	1740.77
415.67	1648.61
415.87	1744.87
416.08	1740.77
416.29	1677.29
416.49	1763.30
416.70	1703.91
416.91	1665.00
417.11	1699.81
417.32	1695.72
417.53	1685.48
417.73	1742.82
417.94	1689.57
418.15	1744.87
418.35	1779.68
418.56	1689.57
418.77	1785.83
418.97	1665.00
419.18	1673.19
419.38	1642.47
419.59	1701.86
419.80	1837.03
420.00	1669.09
420.21	1687.53
420.42	1812.45
420.62	1734.63
420.83	1630.18
421.04	1736.68
421.24	1757.16
421.45	1761.25
421.65	1755.11
421.86	1665.00
422.07	1644.52
422.27	1767.40
422.48	1718.25
422.69	1703.91
422.89	1644.52
423.10	1630.18
423.30	1578.98
423.51	1732.58
423.72	1665.00
423.92	1701.86
424.13	1634.28
424.33	1716.20
424.54	1726.44
424.75	1669.09
424.95	1804.26
425.16	1744.87
425.36	1660.90
425.57	1753.06
425.78	1732.58
425.98	1693.67
426.19	1705.96
426.39	1685.48
426.60	1677.29
426.81	1771.49
427.01	1695.72
427.22	1621.99
427.42	1628.14
427.63	1695.72
427.83	1800.16
428.04	1816.55
428.25	1742.82
428.45	1779.68
428.66	1732.58
428.86	1734.63
429.07	1601.51
429.28	1583.08
429.48	1695.72
429.69	1632.23
429.89	1658.85
430.10	1615.85
430.30	1787.88
430.51	1746.92
430.71	1656.81
430.92	1710.05
431.13	1701.86
431.33	1748.97
431.54	1734.63
431.74	1816.55
431.95	1810.40
432.15	1689.57
432.36	1732.58
432.56	1718.25
432.77	1820.64
432.98	1771.49
433.18	1730.53
433.39	1689.57
433.59	1677.29
433.80	1798.12
434.00	1867.75
434.21	1689.57
434.41	1611.75
434.62	1820.64
434.82	1615.85
435.03	1681.38
435.23	1763.30
435.44	1673.19
435.64	1677.29
435.85	1734.63
436.06	1755.11
436.26	1787.88
436.47	1714.15
436.67	1650.66
436.88	1751.01
437.08	1757.16
437.29	1834.98
437.49	1736.68
437.70	1769.44
437.90	1718.25
438.11	1869.80
438.31	1769.44
438.52	1847.27
438.72	1847.27
438.93	1865.70
439.13	1755.11
439.34	1810.40
439.54	1726.44
439.75	1839.08
439.95	1763.30
440.16	1646.57
440.36	1734.63
440.57	1785.83
440.77	1736.68
440.98	1783.78
441.18	1761.25
441.39	1744.87
441.59	1681.38
441.80	1818.60
442.00	1771.49
442.21	1781.73
442.41	1691.62
442.62	1828.84
442.82	1722.34
443.02	1800.16
443.23	1789.92
443.43	1685.48
443.64	1828.84
443.84	1609.70
444.05	1755.11
444.25	1679.33
444.46	1679.33
444.66	1800.16
444.87	1757.16
445.07	1677.29
445.28	1742.82
445.48	1855.46
445.69	1845.22
445.89	1882.08
446.09	1775.59
446.30	2019.30
446.50	2676.70
446.71	3618.76
446.91	4292.54
447.12	4650.94
447.32	4876.21
447.53	4294.59
447.73	3901.38
447.93	3557.32
448.14	3227.60
448.34	3174.35
448.55	2990.03
448.75	2840.53
448.96	2758.61
449.16	2426.84
449.36	2326.49
449.57	2142.18
449.77	1839.08
449.98	1757.16
450.18	1832.93
450.39	1804.26
450.59	1804.26
450.79	1771.49
451.00	1785.83
451.20	1693.67
451.41	1681.38
451.61	1812.45
451.81	1736.68
452.02	1716.20
452.22	1824.74
452.43	1689.57
452.63	1667.05
452.84	1644.52
453.04	1648.61
453.24	1708.01
453.45	1644.52
453.65	1685.48
453.86	1665.00
454.06	1804.26
454.26	1763.30
454.47	1648.61
454.67	1740.77
454.87	1671.14
455.08	1708.01
455.28	1890.28
455.49	1652.71
455.69	1624.04
455.89	1796.07
456.10	1746.92
456.30	1656.81
456.51	1759.21
456.71	1703.91
456.91	1669.09
457.12	1800.16
457.32	1742.82
457.52	1665.00
457.73	1742.82
457.93	1798.12
458.14	1628.14
458.34	1624.04
458.54	1701.86
458.75	1726.44
458.95	1730.53
459.15	1757.16
459.36	1681.38
459.56	1777.64
459.76	1771.49
459.97	1697.77
460.17	1753.06
460.37	1759.21
460.58	1744.87
460.78	1779.68
460.99	1732.58
461.19	1720.29
461.39	1699.81
461.60	1718.25
461.80	1671.14
462.00	1650.66
462.21	1740.77
462.41	1724.39
462.61	1648.61
462.82	1601.51
463.02	1732.58
463.22	1730.53
463.43	1845.22
463.63	1808.36
463.83	1800.16
464.04	1767.40
464.24	1658.85
464.44	1714.15
464.64	1718.25
464.85	1761.25
465.05	1732.58
465.25	1783.78
465.46	1652.71
465.66	1765.35
465.86	1779.68
466.07	1755.11
466.27	1732.58
466.47	1581.03
466.68	1591.27
466.88	1779.68
467.08	1808.36
467.29	1800.16
467.49	1781.73
467.69	1808.36
467.89	1789.92
468.10	1714.15
468.30	1712.10
468.50	1822.69
468.71	1783.78
468.91	1675.24
469.11	1855.46
469.31	1691.62
469.52	1634.28
469.72	1843.17
469.92	1933.28
470.13	1708.01
470.33	1798.12
470.53	1884.13
470.73	2086.88
470.94	2342.88
471.14	2250.72
471.34	2596.82
471.54	2336.73
471.75	2160.61
471.95	2125.79
472.15	2099.17
472.36	2072.54
472.56	2144.22
472.76	2066.40
472.96	1984.48
473.17	1929.19
473.37	1892.32
473.57	1816.55
473.77	1910.75
473.98	1759.21
474.18	1753.06
474.38	1857.51
474.58	1744.87
474.79	1673.19
474.99	1685.48
475.19	1767.40
475.39	1634.28
475.60	1775.59
475.80	1804.26
476.00	1732.58
476.20	1712.10
476.41	1669.09
476.61	1812.45
476.81	1755.11
477.01	1665.00
477.21	1841.12
477.42	1812.45
477.62	1585.13
477.82	1722.34
478.02	1703.91
478.23	1775.59
478.43	1677.29
478.63	1708.01
478.83	1585.13
479.03	1689.57
479.24	1746.92
479.44	1769.44
479.64	1712.10
479.84	1589.22
480.04	1607.66
480.25	1675.24
480.45	1675.24
480.65	1783.78
480.85	1746.92
481.06	1691.62
481.26	1740.77
481.46	1738.73
481.66	1689.57
481.86	1665.00
482.06	1679.33
482.27	1716.20
482.47	1738.73
482.67	1654.76
482.87	1681.38
483.07	1779.68
483.28	1714.15
483.48	1701.86
483.68	1718.25
483.88	1642.47
484.08	1632.23
484.29	1619.94
484.49	1779.68
484.69	1642.47
484.89	1814.50
485.09	1714.15
485.29	1734.63
485.50	1712.10
485.70	1687.53
485.90	1789.92
486.10	1644.52
486.30	1701.86
486.50	1701.86
486.71	1802.21
486.91	1753.06
487.11	1794.02
487.31	1732.58
487.51	1734.63
487.71	1738.73
487.91	1644.52
488.12	1640.42
488.32	1521.64
488.52	1718.25
488.72	1589.22
488.92	1665.00
489.12	1830.88
489.32	1785.83
489.53	1820.64
489.73	1632.23
489.93	1796.07
490.13	1675.24
490.33	1665.00
490.53	1662.95
490.73	1843.17
490.94	1617.90
491.14	1748.97
491.34	1875.94
491.54	2095.07
491.74	2547.67
491.94	2815.96
492.14	3078.10
492.34	3121.10
492.54	2760.66
492.75	2484.19
492.95	2424.80
493.15	2256.86
493.35	2244.57
493.55	2256.86
493.75	2068.45
493.95	2115.55
494.15	2021.35
494.35	1886.18
494.56	1843.17
494.76	1824.74
494.96	1806.31
495.16	1740.77
495.36	1761.25
495.56	1765.35
495.76	1789.92
495.96	1710.05
496.16	1691.62
496.36	1834.98
496.56	1681.38
496.77	1759.21
496.97	1802.21
497.17	1785.83
497.37	1656.81
497.57	1802.21
497.77	1699.81
497.97	1603.56
498.17	1705.96
498.37	1695.72
498.57	1755.11
498.77	1667.05
498.97	1843.17
499.17	1798.12
499.38	1734.63
499.58	1771.49
499.78	1730.53
499.98	1773.54
500.18	1779.68
500.38	1732.58
500.58	1898.47
500.78	2682.84
500.98	4540.35
501.18	5676.97
501.38	6690.71
501.58	7049.11
501.78	6608.80
501.98	5599.15
502.18	4896.69
502.38	4337.60
502.58	4136.90
502.78	3731.40
502.98	3659.72
503.18	3450.83
503.38	3217.36
503.59	2916.31
503.79	2619.35
503.99	2516.95
504.19	2287.58
504.39	2189.28
504.59	2146.27
504.79	2099.17
504.99	2105.31
505.19	1869.80
505.39	1910.75
505.59	1972.19
505.79	1890.28
505.99	1855.46
506.19	1798.12
506.39	1828.84
506.59	1775.59
506.79	1718.25
506.99	1771.49
507.19	1781.73
507.39	1787.88
507.59	1681.38
507.79	1705.96
507.99	1685.48
508.19	1771.49
508.39	1732.58
508.59	1660.90
508.79	1828.84
508.99	1841.12
509.19	1656.81
509.39	1738.73
509.59	1734.63
509.79	1728.49
509.99	1718.25
510.19	1753.06
510.39	1800.16
510.59	1681.38
510.79	1697.77
510.99	1638.38
511.19	1644.52
511.39	1888.23
511.59	1748.97
511.79	1841.12
511.99	1777.64
512.19	1880.04
512.38	1757.16
512.58	1695.72
512.78	1652.71
512.98	1789.92
513.18	1734.63
513.38	1597.42
513.58	1791.97
513.78	1736.68
513.98	1693.67
514.18	1708.01
514.38	1634.28
514.58	1656.81
514.78	1724.39
514.98	1593.32
515.18	1740.77
515.38	1624.04
515.58	1800.16
515.78	1636.33
515.98	1683.43
516.18	1718.25
516.38	1746.92
516.57	1644.52
516.77	1720.29
516.97	1695.72
517.17	1726.44
517.37	1609.70
517.57	1800.16
517.77	1697.77
517.97	1744.87
518.17	1755.11
518.37	1681.38
518.57	1644.52
518.77	1757.16
518.97	1644.52
519.16	1740.77
519.36	1775.59
519.56	1679.33
519.76	1697.77
519.96	1757.16
520.16	1849.32
520.36	1640.42
520.56	1781.73
520.76	1720.29
520.96	1621.99
521.16	1804.26
521.35	1806.31
521.55	1851.36
521.75	1802.21
521.95	1705.96
522.15	1712.10
522.35	1656.81
522.55	1759.21
522.75	1732.58
522.95	1740.77
523.14	1665.00
523.34	1669.09
523.54	1679.33
523.74	1789.92
523.94	1722.34
524.14	1634.28
524.34	1800.16
524.54	1775.59
524.73	1722.34
524.93	1810.40
525.13	1693.67
525.33	1634.28
525.53	1828.84
525.73	1783.78
525.93	1810.40
526.13	1755.11
526.32	1730.53
526.52	1771.49
526.72	1783.78
526.92	1705.96
527.12	1708.01
527.32	1685.48
527.52	1705.96
527.71	1796.07
527.91	1767.40
528.11	1671.14
528.31	1804.26
528.51	1671.14
528.71	1710.05
528.90	1759.21
529.10	1781.73
529.30	1791.97
529.50	1699.81
529.70	1748.97
529.90	1730.53
530.09	1724.39
530.29	1681.38
530.49	1677.29
530.69	1920.99
530.89	1763.30
531.09	1857.51
531.28	1673.19
531.48	1753.06
531.68	1853.41
531.88	1771.49
532.08	1746.92
532.28	1673.19
532.47	1808.36
532.67	1800.16
532.87	1796.07
533.07	1665.00
533.27	1748.97
533.46	1753.06
533.66	1660.90
533.86	1746.92
534.06	1716.20
534.26	1734.63
534.45	1716.20
534.65	1796.07
534.85	1789.92
535.05	1734.63
535.25	1824.74
535.44	1634.28
535.64	1769.44
535.84	1771.49
536.04	1773.54
536.24	1738.73
536.43	1669.09
536.63	1710.05
536.83	1665.00
537.03	1753.06
537.22	1681.38
537.42	1630.18
537.62	1779.68
537.82	1656.81
538.02	1785.83
538.21	1812.45
538.41	1937.38
538.61	1812.45
538.81	1705.96
539.00	1800.16
539.20	1697.77
539.40	1656.81
539.60	1828.84
539.79	1773.54
539.99	1718.25
540.19	1677.29
540.39	1660.90
540.58	1714.15
540.78	1759.21
540.98	1677.29
541.18	1820.64
541.37	1681.38
541.57	1736.68
541.77	1726.44
541.97	1679.33
542.16	1640.42
542.36	1677.29
542.56	1716.20
542.76	1863.65
542.95	1746.92
543.15	1804.26
543.35	1785.83
543.54	1656.81
543.74	1667.05
543.94	1814.50
544.14	1744.87
544.33	1734.63
544.53	1681.38
544.73	1740.77
544.93	1683.43
545.12	1693.67
545.32	1746.92
545.52	1757.16
545.71	1617.90
545.91	1599.46
546.11	1685.48
546.30	1710.05
546.50	1744.87
546.70	1806.31
546.90	1751.01
547.09	1621.99
547.29	1753.06
547.49	1843.17
547.68	1755.11
547.88	1748.97
548.08	1755.11
548.27	2172.89
548.47	1587.18
548.67	1679.33
548.87	1757.16
549.06	1677.29
549.26	1710.05
549.46	1779.68
549.65	1667.05
549.85	1728.49
550.05	1710.05
550.24	1681.38
550.44	1722.34
550.64	1714.15
550.83	1722.34
551.03	1820.64
551.23	1779.68
551.42	1791.97
551.62	1681.38
551.82	1724.39
552.01	1726.44
552.21	1789.92
552.41	1751.01
552.60	1871.84
552.80	1777.64
553.00	1671.14
553.19	1716.20
553.39	1839.08
553.59	1628.14
553.78	1753.06
553.98	1671.14
554.17	1624.04
554.37	1695.72
554.57	1736.68
554.76	1626.09
554.96	1675.24
555.16	1705.96
555.35	1759.21
555.55	1695.72
555.75	1689.57
555.94	1916.90
556.14	1617.90
556.33	1789.92
556.53	1726.44
556.73	1730.53
556.92	1761.25
557.12	1826.79
557.32	1855.46
557.51	1830.88
557.71	1839.08
557.90	1808.36
558.10	1740.77
558.30	1712.10
558.49	1738.73
558.69	1783.78
558.88	1736.68
559.08	1740.77
559.28	1732.58
559.47	1779.68
559.67	1726.44
559.86	1818.60
560.06	1757.16
560.26	1710.05
560.45	1787.88
560.65	1691.62
560.84	1783.78
561.04	1675.24
561.24	1794.02
561.43	1716.20
561.63	1791.97
561.82	1740.77
562.02	1781.73
562.22	1726.44
562.41	1681.38
562.61	1665.00
562.80	1695.72
563.00	1900.52
563.19	1769.44
563.39	1812.45
563.59	1859.56
563.78	1714.15
563.98	1605.61
564.17	1736.68
564.37	1595.37
564.56	1755.11
564.76	1734.63
564.96	1806.31
565.15	1791.97
565.35	1839.08
565.54	1710.05
565.74	1789.92
565.93	1765.35
566.13	1732.58
566.32	1800.16
566.52	1730.53
566.71	1628.14
566.91	1810.40
567.11	1734.63
567.30	1746.92
567.50	1796.07
567.69	1705.96
567.89	1734.63
568.08	1697.77
568.28	1738.73
568.47	1605.61
568.67	1652.71
568.86	1730.53
569.06	1771.49
569.25	1765.35
569.45	1640.42
569.64	1738.73
569.84	1716.20
570.04	1748.97
570.23	1726.44
570.43	1767.40
570.62	1767.40
570.82	1822.69
571.01	1724.39
571.21	1665.00
571.40	1697.77
571.60	1697.77
571.79	1779.68
571.99	1744.87
572.18	1648.61
572.38	1732.58
572.57	1736.68
572.77	1826.79
572.96	1873.89
573.16	1818.60
573.35	1685.48
573.55	1826.79
573.74	1669.09
573.94	1705.96
574.13	1810.40
574.33	1753.06
574.52	1820.64
574.71	1701.86
574.91	1751.01
575.10	1685.48
575.30	1693.67
575.49	1644.52
575.69	1652.71
575.88	1740.77
576.08	1695.72
576.27	1794.02
576.47	1730.53
576.66	1761.25
576.86	1845.22
577.05	1841.12
577.25	1773.54
577.44	1859.56
577.64	1705.96
577.83	1843.17
578.02	1716.20
578.22	1839.08
578.41	1771.49
578.61	1683.43
578.80	1677.29
579.00	1777.64
579.19	1648.61
579.39	1814.50
579.58	1808.36
579.77	1724.39
579.97	1834.98
580.16	1789.92
580.36	1814.50
580.55	1742.82
580.75	1820.64
580.94	1757.16
581.13	1894.37
581.33	1802.21
581.52	1779.68
581.72	1726.44
581.91	1843.17
582.11	1820.64
582.30	1726.44
582.49	1734.63
582.69	1789.92
582.88	1798.12
583.08	1755.11
583.27	1726.44
583.47	1810.40
583.66	1767.40
583.85	1681.38
584.05	1746.92
584.24	1798.12
584.44	1826.79
584.63	1865.70
584.82	1794.02
585.02	1814.50
585.21	1861.60
585.41	1898.47
585.60	1902.56
585.79	1908.71
585.99	1902.56
586.18	1867.75
586.37	2133.98
586.57	3373.00
586.76	9672.56
586.96	24483.47
587.15	34426.35
587.34	40621.46
587.54	42343.80
587.73	36771.28
587.93	26232.43
588.12	21690.04
588.31	18527.97
588.51	16377.61
588.70	15019.80
588.89	14120.74
589.09	12521.28
589.28	11157.33
589.47	9441.14
589.67	8103.81
589.86	6483.87
590.06	4861.88
590.25	3831.75
590.44	3012.56
590.64	2623.45
590.83	2189.28
591.02	2234.33
591.22	1912.80
591.41	1935.33
591.60	1804.26
591.80	1869.80
591.99	1701.86
592.18	1791.97
592.38	1857.51
592.57	1742.82
592.76	1798.12
592.96	1816.55
593.15	1761.25
593.34	1720.29
593.54	1773.54
593.73	1798.12
593.92	1804.26
594.12	1736.68
594.31	1785.83
594.50	1839.08
594.70	1843.17
594.89	1851.36
595.08	1673.19
595.28	1796.07
595.47	1886.18
595.66	1794.02
595.86	1615.85
596.05	1726.44
596.24	1710.05
596.43	1853.41
596.63	1779.68
596.82	1767.40
597.01	1796.07
597.21	1894.37
597.40	1814.50
597.59	1796.07
597.79	1693.67
597.98	1826.79
598.17	1767.40
598.36	1734.63
598.56	1736.68
598.75	1736.68
598.94	1681.38
599.14	1783.78
599.33	1712.10
599.52	1812.45
599.71	1759.21
599.91	1732.58
600.10	1724.39
600.29	1757.16
600.48	1742.82
600.68	1804.26
600.87	1714.15
601.06	1783.78
601.26	1714.15
601.45	1734.63
601.64	1730.53
601.83	1779.68
602.03	1685.48
602.22	1679.33
602.41	1759.21
602.60	1865.70
602.80	1794.02
602.99	1738.73
603.18	1755.11
603.37	1736.68
603.57	1753.06
603.76	1718.25
603.95	1863.65
604.14	1724.39
604.34	1691.62
604.53	1771.49
604.72	1771.49
604.91	1767.40
605.10	1708.01
605.30	1740.77
605.49	1853.41
605.68	1779.68
605.87	1814.50
606.07	1660.90
606.26	1802.21
606.45	1765.35
606.64	1703.91
606.84	1669.09
607.03	1705.96
607.22	1718.25
607.41	1677.29
607.60	1665.00
607.80	1732.58
607.99	1740.77
608.18	1740.77
608.37	1746.92
608.56	1708.01
608.76	1800.16
608.95	1890.28
609.14	1794.02
609.33	1779.68
609.52	1705.96
609.72	1785.83
609.91	1853.41
610.10	1730.53
610.29	1820.64
610.48	1775.59
610.68	1804.26
610.87	1660.90
611.06	1728.49
611.25	1765.35
611.44	1808.36
611.63	1705.96
611.83	1726.44
612.02	1671.14
612.21	1781.73
612.40	1685.48
612.59	1710.05
612.79	1683.43
612.98	1687.53
613.17	1789.92
613.36	1771.49
613.55	1769.44
613.74	1630.18
613.93	1685.48
614.13	1732.58
614.32	1691.62
614.51	1742.82
614.70	1710.05
614.89	1652.71
615.08	1777.64
615.28	1949.67
615.47	1675.24
615.66	1716.20
615.85	1677.29
616.04	1839.08
616.23	1742.82
616.42	1742.82
616.62	1773.54
616.81	1703.91
617.00	1751.01
617.19	1675.24
617.38	1722.34
617.57	1716.20
617.76	1724.39
617.95	1726.44
618.15	1748.97
618.34	1781.73
618.53	1624.04
618.72	1744.87
618.91	1775.59
619.10	1777.64
619.29	1734.63
619.48	1771.49
619.68	1701.86
619.87	1675.24
620.06	1599.46
620.25	1734.63
620.44	1703.91
620.63	1683.43
620.82	1734.63
621.01	1781.73
621.20	1685.48
621.39	1701.86
621.59	1767.40
621.78	1765.35
621.97	1740.77
622.16	1667.05
622.35	1703.91
622.54	1701.86
622.73	1853.41
622.92	1617.90
623.11	1644.52
623.30	1681.38
623.49	1738.73
623.68	1703.91
623.88	1695.72
624.07	1714.15
624.26	1744.87
624.45	1755.11
624.64	1689.57
624.83	1683.43
625.02	1687.53
625.21	1746.92
625.40	1732.58
625.59	1730.53
625.78	1728.49
625.97	1830.88
626.16	1732.58
626.35	1791.97
626.54	1748.97
626.74	1843.17
626.93	1609.70
627.12	1701.86
627.31	1802.21
627.50	1705.96
627.69	1734.63
627.88	1669.09
628.07	1656.81
628.26	1685.48
628.45	1636.33
628.64	1705.96
628.83	1734.63
629.02	1689.57
629.21	1685.48
629.40	1753.06
629.59	1628.14
629.78	1689.57
629.97	1751.01
630.16	1681.38
630.35	1654.76
630.54	1695.72
630.73	1687.53
630.92	1718.25
631.11	1658.85
631.30	1691.62
631.49	1789.92
631.68	1734.63
631.87	1779.68
632.06	1642.47
632.25	1837.03
632.44	1800.16
632.63	1665.00
632.82	1671.14
633.01	1611.75
633.20	1677.29
633.39	1621.99
633.58	1699.81
633.77	1703.91
633.96	1738.73
634.15	1718.25
634.34	1695.72
634.53	1669.09
634.72	1730.53
634.91	1613.80
635.10	1728.49
635.29	1734.63
635.48	1710.05
635.67	1673.19
635.86	1624.04
636.05	1814.50
636.24	1642.47
636.43	1730.53
636.62	1789.92
636.81	1558.50
637.00	1798.12
637.19	1761.25
637.38	1740.77
637.57	1632.23
637.76	1712.10
637.95	1804.26
638.14	1714.15
638.33	1687.53
638.52	1730.53
638.71	1677.29
638.89	1611.75
639.08	1814.50
639.27	1783.78
639.46	1679.33
639.65	1751.01
639.84	1730.53
640.03	1755.11
640.22	1738.73
640.41	1861.60
640.60	1691.62
640.79	1753.06
640.98	1681.38
641.17	1771.49
641.36	1716.20
641.55	1755.11
641.74	1632.23
641.92	1626.09
642.11	1648.61
642.30	1673.19
642.49	1634.28
642.68	1650.66
642.87	1671.14
643.06	1787.88
643.25	1693.67
643.44	1677.29
643.63	1730.53
643.82	1798.12
644.00	1632.23
644.19	1730.53
644.38	1669.09
644.57	1728.49
644.76	1767.40
644.95	1779.68
645.14	1683.43
645.33	1718.25
645.52	1712.10
645.71	1724.39
645.89	1665.00
646.08	1738.73
646.27	1742.82
646.46	1863.65
646.65	1611.75
646.84	1730.53
647.03	1646.57
647.22	1722.34
647.40	1724.39
647.59	1730.53
647.78	1613.80
647.97	1697.77
648.16	1675.24
648.35	1779.68
648.54	1798.12
648.73	1765.35
648.91	1757.16
649.10	1714.15
649.29	1607.66
649.48	1703.91
649.67	1603.56
649.86	1714.15
650.05	1675.24
650.23	1632.23
650.42	1673.19
650.61	1755.11
650.80	1714.15
650.99	1837.03
651.18	1777.64
651.36	1740.77
651.55	1714.15
651.74	1783.78
651.93	1665.00
652.12	1683.43
652.31	1755.11
652.49	1710.05
652.68	1683.43
652.87	1820.64
653.06	1714.15
653.25	1855.46
653.44	1683.43
653.62	1826.79
653.81	1697.77
654.00	1742.82
654.19	1740.77
654.38	1890.28
654.56	1742.82
654.75	1665.00
654.94	1794.02
655.13	1740.77
655.32	1675.24
655.51	1736.68
655.69	1675.24
655.88	1720.29
656.07	1667.05
656.26	1744.87
656.45	1644.52
656.63	1679.33
656.82	1683.43
657.01	1765.35
657.20	1638.38
657.38	1816.55
657.57	1746.92
657.76	1669.09
657.95	1728.49
658.14	1691.62
658.32	1716.20
658.51	1738.73
658.70	1697.77
658.89	1697.77
659.08	1693.67
659.26	1765.35
659.45	1621.99
659.64	1730.53
659.83	1603.56
660.01	1947.62
660.20	1697.77
660.39	1791.97
660.58	1656.81
660.76	1716.20
660.95	1638.38
661.14	1708.01
661.33	1675.24
661.51	1621.99
661.70	1695.72
661.89	1742.82
662.08	1744.87
662.26	1626.09
662.45	1640.42
662.64	1839.08
662.83	1767.40
663.01	1652.71
663.20	1705.96
663.39	1804.26
663.58	1746.92
663.76	1710.05
663.95	1648.61
664.14	1658.85
664.32	1650.66
664.51	1681.38
664.70	1626.09
664.89	1710.05
665.07	1593.32
665.26	1851.36
665.45	1644.52
665.64	1744.87
665.82	1718.25
666.01	1697.77
666.20	1703.91
666.38	1845.22
666.57	1751.01
666.76	2142.18
666.95	4511.68
667.13	10430.30
667.32	15163.16
667.51	17669.87
667.69	19064.54
667.88	17647.35
668.07	12326.72
668.25	9473.90
668.44	8124.29
668.63	7241.62
668.81	6938.52
669.00	6082.47
669.19	5662.63
669.38	5081.01
669.56	4691.90
669.75	3936.20
669.94	3514.31
670.12	2861.01
670.31	2463.71
670.50	2281.44
670.68	2123.74
670.87	1943.52
671.06	1896.42
671.24	1873.89
671.43	1861.60
671.62	1755.11
671.80	1705.96
671.99	1718.25
672.18	1710.05
672.36	1755.11
672.55	1652.71
672.74	1714.15
672.92	1691.62
673.11	1761.25
673.29	1691.62
673.48	1697.77
673.67	1734.63
673.85	1798.12
674.04	1636.33
674.23	1744.87
674.41	1796.07
674.60	1687.53
674.79	1595.37
674.97	1644.52
675.16	1681.38
675.34	1828.84
675.53	1648.61
675.72	1728.49
675.90	1824.74
676.09	1642.47
676.28	1757.16
676.46	1677.29
676.65	1712.10
676.83	1652.71
677.02	1740.77
677.21	1753.06
677.39	1640.42
677.58	1587.18
677.77	1726.44
677.95	1650.66
678.14	1759.21
678.32	1722.34
678.51	1697.77
678.70	1855.46
678.88	1705.96
679.07	1708.01
679.25	1726.44
679.44	1759.21
679.63	1662.95
679.81	1789.92
680.00	1705.96
680.18	1822.69
680.37	1824.74
680.55	1642.47
680.74	1660.90
680.93	1640.42
681.11	1726.44
681.30	1736.68
681.48	1685.48
681.67	1763.30
681.85	1681.38
682.04	1644.52
682.23	1775.59
682.41	1798.12
682.60	1742.82
682.78	1730.53
682.97	1679.33
683.15	1757.16
683.34	1708.01
683.53	1802.21
683.71	1683.43
683.90	1746.92
684.08	1771.49
684.27	1734.63
684.45	1630.18
684.64	1812.45
684.82	1683.43
685.01	1703.91
685.19	1755.11
685.38	1765.35
685.57	1718.25
685.75	1714.15
685.94	1671.14
686.12	1671.14
686.31	1656.81
686.49	1853.41
686.68	1597.42
686.86	1794.02
687.05	1693.67
687.23	1738.73
687.42	1656.81
687.60	1566.70
687.79	1779.68
687.97	1810.40
688.16	1730.53
688.34	1763.30
688.53	1628.14
688.71	1679.33
688.90	1804.26
689.08	1634.28
689.27	1603.56
689.45	1648.61
689.64	1796.07
689.82	1693.67
690.01	1722.34
690.19	1742.82
690.38	1687.53
690.56	1769.44
690.75	1714.15
690.93	1689.57
691.12	1640.42
691.30	1746.92
691.49	1640.42
691.67	1685.48
691.86	1775.59
692.04	1640.42
692.23	1636.33
692.41	1634.28
692.60	1773.54
692.78	1687.53
692.97	1761.25
693.15	1705.96
693.34	1753.06
693.52	1796.07
693.71	1654.76
693.89	1691.62
694.08	1591.27
694.26	1708.01
694.44	1718.25
694.63	1742.82
694.81	1658.85
695.00	1665.00
695.18	1767.40
695.37	1882.08
695.55	1746.92
695.74	1697.77
695.92	1599.46
696.10	1802.21
696.29	1601.51
696.47	1755.11
696.66	1638.38
696.84	1660.90
697.03	1669.09
697.21	1761.25
697.40	2279.39
697.58	1806.31
697.76	1730.53
697.95	1701.86
698.13	1679.33
698.32	1714.15
698.50	1634.28
698.68	1775.59
698.87	1703.91
699.05	1802.21
699.24	1724.39
699.42	1701.86
699.61	1753.06
699.79	1712.10
699.97	1755.11
700.16	1730.53
700.34	1648.61
700.53	1681.38
700.71	1761.25
700.89	1787.88
701.08	1695.72
701.26	1783.78
701.45	2101.22
701.63	1656.81
701.81	1648.61
702.00	1587.18
702.18	1654.76
702.37	1652.71
702.55	1652.71
702.73	1748.97
702.92	1609.70
703.10	1751.01
703.28	1691.62
703.47	1642.47
703.65	1710.05
703.84	1662.95
704.02	1671.14
704.20	1751.01
704.39	1652.71
704.57	1671.14
704.75	1828.84
704.94	1648.61
705.12	1632.23
705.30	1787.88
705.49	2265.05
705.67	4362.17
705.86	9293.68
706.04	12699.45
706.22	14491.43
706.41	15589.14
706.59	13991.72
706.77	9719.66
706.96	7485.33
707.14	6539.16
707.32	5851.05
707.51	5580.71
707.69	4927.41
707.87	4200.38
708.06	3588.04
708.24	3037.14
708.42	2357.21
708.61	2277.34
708.79	1839.08
708.97	1869.80
709.16	1816.55
709.34	1652.71
709.52	1734.63
709.71	1697.77
709.89	1742.82
710.07	1724.39
710.26	1734.63
710.44	1740.77
710.62	1720.29
710.80	1636.33
710.99	1716.20
711.17	1685.48
711.35	1662.95
711.54	1755.11
711.72	1804.26
711.90	1730.53
712.09	1693.67
712.27	1624.04
712.45	1718.25
712.63	1665.00
712.82	1708.01
713.00	1699.81
713.18	1718.25
713.37	1755.11
713.55	1695.72
713.73	1736.68
713.91	1806.31
714.10	1685.48
714.28	1630.18
714.46	1726.44
714.65	1791.97
714.83	1722.34
715.01	1693.67
715.19	1740.77
715.38	1665.00
715.56	1705.96
715.74	1638.38
715.92	1628.14
716.11	1794.02
716.29	1613.80
716.47	1609.70
716.65	1644.52
716.84	1576.94
717.02	1687.53
717.20	1607.66
717.38	1636.33
717.57	1699.81
717.75	1689.57
717.93	1701.86
718.11	1708.01
718.30	1599.46
718.48	1796.07
718.66	1728.49
718.84	1751.01
719.03	1697.77
719.21	1665.00
719.39	1814.50
719.57	1740.77
719.75	1767.40
719.94	1755.11
720.12	1662.95
720.30	1738.73
720.48	1828.84
720.67	1675.24
720.85	1665.00
721.03	1689.57
721.21	1740.77
721.39	1718.25
721.58	1759.21
721.76	1695.72
721.94	1720.29
722.12	1757.16
722.30	1834.98
722.49	1722.34
722.67	1724.39
722.85	1679.33
723.03	1617.90
723.21	1601.51
723.40	1687.53
723.58	1677.29
723.76	1800.16
723.94	1771.49
724.12	1695.72
724.30	1763.30
724.49	1748.97
724.67	1693.67
724.85	1732.58
725.03	1615.85
725.21	1771.49
725.40	1746.92
725.58	1636.33
725.76	1742.82
725.94	1718.25
726.12	1585.13
726.30	1675.24
726.49	1621.99
726.67	1613.80
726.85	1695.72
727.03	1710.05
727.21	2121.70
727.39	2912.21
727.57	3798.98
727.76	4134.85
727.94	4532.15
728.12	4403.13
728.30	3737.54
728.48	2981.84
728.66	2713.56
728.84	2516.95
729.03	2269.15
729.21	2109.41
729.39	1961.95
729.57	1912.80
729.75	1849.32
729.93	1828.84
730.11	1681.38
730.30	1634.28
730.48	1681.38
730.66	1785.83
730.84	1738.73
731.02	1667.05
731.20	1611.75
731.38	1740.77
731.56	1615.85
731.74	1591.27
731.93	1742.82
732.11	1712.10
732.29	1708.01
732.47	1734.63
732.65	1730.53
732.83	1781.73
733.01	1654.76
733.19	1687.53
733.37	1777.64
733.56	1699.81
733.74	1648.61
733.92	1832.93
734.10	1675.24
734.28	1742.82
734.46	1634.28
734.64	1695.72
734.82	1677.29
735.00	1642.47
735.18	1611.75
735.36	1558.50
735.54	1656.81
735.73	1703.91
735.91	1599.46
736.09	1820.64
736.27	1751.01
736.45	1742.82
736.63	1630.18
736.81	1701.86
736.99	1806.31
737.17	1791.97
737.35	1667.05
737.53	1681.38
737.71	1757.16
737.89	1791.97
738.07	1675.24
738.25	1685.48
738.43	1601.51
738.61	1632.23
738.80	1583.08
738.98	1681.38
739.16	1751.01
739.34	1675.24
739.52	1755.11
739.70	1740.77
739.88	1722.34
740.06	1820.64
740.24	1611.75
740.42	1728.49
740.60	1638.38
740.78	1679.33
740.96	1576.94
741.14	1636.33
741.32	1718.25
741.50	1687.53
741.68	1826.79
741.86	1703.91
742.04	1595.37
742.22	1712.10
742.40	1685.48
742.58	1681.38
742.76	1701.86
742.94	1695.72
743.12	1640.42
743.30	1642.47
743.48	1720.29
743.66	1615.85
743.84	1779.68
744.02	1705.96
744.20	1587.18
744.38	1644.52
744.56	1683.43
744.74	1847.27
744.92	1689.57
745.10	1826.79
745.28	1718.25
745.46	1853.41
745.64	1665.00
745.82	1697.77
746.00	1710.05
746.18	1734.63
746.36	1669.09
746.54	1769.44
746.72	1689.57
746.90	1685.48
747.08	1744.87
747.26	1703.91
747.44	1773.54
747.62	1667.05
747.80	1751.01
747.98	1783.78
748.15	1665.00
748.33	1773.54
748.51	1689.57
748.69	1701.86
748.87	1712.10
749.05	1687.53
749.23	1654.76
749.41	1738.73
749.59	1689.57
749.77	1777.64
749.95	1640.42
750.13	1689.57
750.31	1763.30
750.49	1658.85
750.67	1755.11
750.85	1763.30
751.03	1757.16
751.20	1851.36
751.38	1689.57
751.56	1665.00
751.74	1728.49
751.92	1681.38
752.10	1642.47
752.28	1714.15
752.46	1667.05
752.64	1722.34
752.82	1781.73
753.00	1773.54
753.18	1683.43
753.35	1718.25
753.53	1630.18
753.71	1658.85
753.89	1738.73
754.07	1650.66
754.25	1763.30
754.43	1691.62
754.61	1615.85
754.79	1714.15
754.97	1728.49
755.14	1771.49
755.32	1697.77
755.50	1736.68
755.68	1697.77
755.86	1693.67
756.04	1693.67
756.22	1644.52
756.40	1710.05
756.57	1748.97
756.75	1523.69
756.93	1742.82
757.11	1748.97
757.29	1595.37
757.47	1644.52
757.65	1589.22
757.82	1535.98
758.00	1615.85
758.18	1685.48
758.36	1687.53
758.54	1755.11
758.72	1656.81
758.90	1722.34
759.07	1755.11
759.25	1562.60
759.43	1761.25
759.61	1656.81
759.79	2174.94
759.97	1740.77
760.15	1683.43
760.32	1675.24
760.50	1708.01
760.68	1765.35
760.86	1605.61
761.04	1757.16
761.22	1773.54
761.39	1734.63
761.57	1669.09
761.75	1652.71
761.93	1720.29
762.11	1714.15
762.28	1656.81
762.46	1683.43
762.64	1681.38
762.82	1589.22
763.00	1701.86
763.18	1730.53
763.35	1648.61
763.53	1720.29
763.71	1689.57
763.89	1740.77
764.07	1673.19
764.24	1675.24
764.42	1751.01
764.60	1681.38
764.78	1746.92
764.96	1759.21
765.13	1693.67
765.31	1662.95
765.49	1710.05
765.67	1605.61
765.84	1605.61
766.02	1591.27
766.20	1548.26
766.38	1699.81
766.56	1740.77
766.73	1798.12
766.91	1734.63
767.09	1703.91
767.27	1744.87
767.44	1673.19
767.62	1697.77
767.80	1701.86
767.98	1658.85
768.15	1759.21
768.33	1701.86
768.51	1691.62
768.69	1748.97
768.87	1716.20
769.04	1761.25
769.22	1873.89
769.40	1677.29
769.58	1822.69
769.75	1742.82
769.93	1720.29
770.11	1652.71
770.28	1656.81
770.46	1697.77
770.64	1662.95
770.82	1656.81
770.99	1671.14
771.17	1708.01
771.35	1591.27
771.53	1644.52
771.70	1685.48
771.88	1687.53
772.06	1710.05
772.23	1685.48
772.41	1687.53
772.59	1714.15
772.77	1665.00
772.94	1761.25
773.12	1708.01
773.30	1646.57
773.47	1730.53
773.65	1722.34
773.83	1785.83
774.01	1683.43
774.18	1597.42
774.36	1654.76
774.54	1624.04
774.71	1748.97
774.89	1671.14
775.07	1683.43
775.24	1665.00
775.42	1697.77
775.60	1798.12
775.78	1624.04
775.95	1648.61
776.13	1576.94
776.31	1558.50
776.48	1615.85
776.66	1767.40
776.84	1617.90
777.01	1681.38
777.19	1644.52
777.37	1665.00
777.54	1783.78
777.72	1894.37
777.90	1718.25
778.07	1693.67
778.25	1804.26
778.43	1798.12
778.60	1650.66
778.78	1814.50
778.96	1845.22
779.13	1615.85
779.31	1746.92
779.49	1796.07
779.66	1701.86
779.84	1656.81
780.01	1673.19
780.19	1679.33
780.37	1808.36
780.54	1681.38
780.72	1705.96
780.90	1722.34
781.07	1765.35
781.25	1628.14
781.43	1722.34
781.60	1785.83
781.78	1759.21
781.95	1628.14
782.13	1656.81
782.31	1765.35
782.48	1583.08
782.66	1642.47
782.83	1769.44
783.01	1712.10
783.19	1693.67
783.36	1710.05
783.54	1699.81
783.72	1736.68
783.89	1619.94
784.07	1742.82
784.24	1693.67
784.42	1722.34
784.60	1673.19
784.77	1734.63
784.95	1570.79
785.12	1673.19
785.30	1722.34
785.47	1671.14
785.65	1691.62
785.83	1718.25
786.00	1628.14
786.18	1708.01
786.35	1603.56
786.53	1660.90
786.71	1775.59
786.88	1822.69
787.06	1781.73
787.23	1703.91
787.41	1613.80
787.58	1691.62
787.76	1687.53
787.94	1736.68
788.11	1748.97
788.29	1589.22
788.46	1689.57
788.64	1685.48
788.81	1652.71
788.99	1654.76
789.16	1679.33
789.34	1615.85
789.52	1615.85
789.69	1673.19
789.87	1525.74
790.04	1683.43
790.22	1697.77
790.39	1816.55
790.57	1652.71
790.74	1652.71
790.92	1671.14
791.09	1683.43
791.27	1716.20
791.44	1693.67
791.62	1667.05
791.79	1748.97
791.97	1771.49
792.15	1855.46
792.32	1667.05
792.50	1773.54
792.67	1802.21
792.85	1857.51
793.02	1685.48
793.20	1689.57
793.37	1638.38
793.55	1773.54
793.72	1636.33
793.90	1734.63
794.07	1632.23
794.25	1665.00
794.42	1669.09
794.60	1740.77
794.77	1699.81
794.95	1736.68
795.12	1779.68
795.30	1689.57
795.47	1673.19
795.65	1820.64
795.82	1763.30
796.00	1595.37
796.17	1669.09
796.34	1699.81
796.52	1665.00
796.69	1699.81
796.87	1802.21
797.04	1748.97
797.22	1720.29
797.39	1689.57
797.57	1746.92
797.74	1710.05
797.92	1691.62
798.09	1603.56
798.27	1787.88
798.44	1640.42
798.62	1714.15
798.79	1701.86
798.96	1703.91
799.14	1667.05
799.31	1808.36
799.49	1671.14
799.66	1632.23
799.84	1675.24
800.01	1669.09
800.19	1738.73
800.36	1644.52
800.53	1746.92
800.71	1726.44
800.88	1763.30
801.06	1665.00
801.23	1703.91
801.41	1683.43
801.58	1617.90
801.75	1683.43
801.93	1718.25
802.10	1728.49
802.28	1724.39
802.45	1695.72
802.63	1728.49
802.80	1863.65
802.97	1652.71
803.15	1742.82
803.32	1665.00
803.50	1544.17
803.67	1658.85
803.84	1662.95
804.02	1703.91
804.19	1718.25
804.37	1603.56
804.54	1542.12
804.71	1656.81
804.89	1693.67
805.06	1640.42
805.24	1632.23
805.41	1669.09
805.58	1673.19
805.76	1851.36
805.93	1701.86
806.10	1734.63
806.28	1732.58
806.45	1726.44
806.63	1685.48
806.80	1767.40
806.97	1687.53
807.15	1712.10
807.32	1660.90
807.49	1689.57
807.67	1667.05
807.84	1767.40
808.01	1615.85
808.19	1871.84
808.36	1765.35
808.54	1665.00
808.71	1630.18
808.88	1742.82
809.06	1724.39
809.23	1691.62
809.40	1660.90
809.58	1783.78
809.75	1662.95
809.92	1550.31
810.10	1873.89
810.27	1615.85
810.44	1703.91
810.62	1744.87
810.79	1632.23
810.96	1654.76
811.14	1636.33
811.31	1718.25
811.48	1794.02
811.66	1714.15
811.83	1755.11
812.00	1689.57
812.18	1740.77
812.35	1863.65
812.52	1660.90
812.69	1630.18
812.87	1691.62
813.04	1615.85
813.21	1714.15
813.39	1665.00
813.56	1683.43
813.73	1660.90
813.91	1605.61
814.08	1701.86
814.25	1710.05
814.42	1644.52
814.60	1634.28
814.77	1689.57
814.94	1634.28
815.12	1710.05
815.29	1759.21
815.46	1650.66
815.63	1751.01
815.81	1656.81
815.98	1611.75
816.15	1662.95
816.33	1691.62
816.50	1687.53
816.67	1701.86
816.84	1693.67
817.02	1619.94
817.19	1697.77
817.36	1662.95
817.53	1765.35
817.71	1609.70
817.88	1726.44
818.05	1662.95
818.22	1662.95
818.40	1773.54
818.57	1665.00
818.74	1753.06
818.91	1693.67
819.09	1716.20
819.26	1646.57
819.43	1644.52
819.60	1650.66
819.78	1705.96
819.95	1808.36
820.12	1646.57
820.29	1746.92
820.47	1738.73
820.64	1689.57
820.81	1611.75
820.98	1605.61
821.15	1654.76
821.33	1773.54
821.50	1609.70
821.67	1650.66
821.84	1607.66
822.02	1751.01
822.19	1718.25
822.36	1669.09
822.53	1648.61
822.70	1638.38
822.88	1712.10
823.05	1734.63
823.22	1703.91
823.39	1708.01
823.56	1673.19
823.74	1771.49
823.91	1593.32
824.08	1591.27
824.25	1638.38
824.42	1738.73
824.60	1673.19
824.77	1769.44
824.94	1695.72
825.11	1679.33
825.28	1572.84
825.45	1671.14
825.63	1705.96
825.80	1697.77
825.97	1673.19
826.14	1689.57
826.31	1583.08
826.48	1726.44
826.66	1628.14
826.83	1652.71
827.00	1701.86
827.17	1681.38
827.34	1677.29
827.51	1654.76
827.69	1673.19
827.86	1617.90
828.03	1669.09
828.20	1730.53
828.37	1642.47
828.54	1718.25
828.71	1646.57
828.89	1779.68
829.06	1595.37
829.23	1771.49
829.40	1665.00
829.57	1755.11
829.74	1751.01
829.91	1714.15
830.09	1628.14
830.26	1652.71
830.43	1802.21
830.60	1681.38
830.77	1732.58
830.94	1787.88
831.11	1693.67
831.28	1630.18
831.46	1730.53
831.63	1652.71
831.80	1814.50
831.97	1646.57
832.14	1642.47
832.31	1814.50
832.48	1665.00
832.65	1734.63
832.82	1757.16
832.99	1771.49
833.17	1628.14
833.34	1779.68
833.51	1753.06
833.68	1611.75
833.85	1697.77
834.02	1615.85
834.19	1681.38
834.36	1757.16
834.53	1705.96
834.70	1738.73
834.87	1736.68
835.04	1701.86
835.22	1675.24
835.39	1716.20
835.56	1599.46
835.73	1738.73
835.90	1736.68
836.07	1703.91
836.24	1755.11
836.41	1624.04
836.58	1685.48
836.75	1789.92
836.92	1757.16
837.09	1646.57
837.26	1722.34
837.43	1781.73
837.60	1738.73
837.77	1634.28
837.94	1681.38
838.12	1708.01
838.29	1667.05
838.46	1517.54
838.63	1615.85
838.80	1814.50
838.97	1667.05
839.14	1736.68
839.31	1665.00
839.48	1738.73
839.65	1646.57
839.82	1785.83
839.99	1718.25
840.16	1697.77
840.33	1660.90
840.50	1656.81
840.67	1617.90
840.84	1525.74
841.01	1677.29
841.18	1673.19
841.35	1697.77
841.52	1755.11
841.69	1759.21
841.86	1738.73
842.03	1689.57
842.20	1697.77
842.37	1617.90
842.54	1726.44
842.71	1683.43
842.88	1703.91
843.05	1720.29
843.22	1662.95
843.39	1773.54
843.56	1679.33
843.73	1642.47
843.90	1665.00
844.07	1681.38
844.24	1738.73
844.41	1738.73
844.58	1677.29
844.75	1740.77
844.92	1677.29
845.09	1724.39
845.26	1656.81
845.43	1794.02
845.60	1667.05
845.77	1757.16
845.94	1648.61
846.10	1724.39
846.27	1615.85
846.44	1703.91
846.61	1673.19
846.78	1716.20
846.95	1718.25
847.12	1642.47
847.29	1642.47
847.46	1611.75
847.63	1722.34
847.80	1691.62
847.97	1640.42
848.14	1824.74
848.31	1603.56
848.48	1607.66
848.65	1697.77
848.82	1644.52
848.98	1847.27
849.15	1687.53
849.32	1734.63
849.49	1791.97
849.66	1681.38
849.83	1654.76
850.00	1646.57
850.17	1730.53
850.34	1691.62
850.51	1630.18
850.68	1630.18
850.85	1785.83
851.01	1675.24
851.18	1679.33
851.35	1628.14
851.52	1777.64
851.69	1748.97
851.86	1591.27
852.03	1679.33
852.20	1806.31
852.37	1632.23
852.53	1593.32
852.70	1667.05
852.87	1669.09
853.04	1685.48
853.21	1624.04
853.38	1748.97
853.55	1693.67
853.72	1761.25
853.89	1642.47
854.05	1693.67
854.22	1677.29
854.39	1740.77
854.56	1638.38
854.73	1697.77
854.90	1642.47
855.07	1767.40
855.23	1697.77
855.40	1720.29
855.57	1636.33
855.74	1615.85
855.91	1906.66
856.08	1611.75
856.25	1611.75
856.41	1697.77
856.58	1714.15
856.75	1716.20
856.92	1656.81
857.09	1730.53
857.26	1613.80
857.42	1718.25
857.59	1685.48
857.76	1726.44
857.93	1720.29
858.10	1708.01
858.27	1642.47
858.43	1718.25
858.60	1617.90
858.77	1607.66
858.94	1667.05
859.11	1806.31
859.27	1650.66
859.44	1691.62
859.61	1734.63
859.78	1722.34
859.95	1740.77
860.12	1685.48
860.28	1755.11
860.45	1800.16
860.62	1689.57
860.79	1679.33
860.95	1677.29
861.12	1611.75
861.29	1765.35
861.46	1703.91
861.63	1665.00
861.79	1691.62
861.96	1695.72
862.13	1619.94
862.30	1773.54
862.47	1648.61
862.63	1679.33
862.80	1804.26
862.97	1753.06
863.14	1767.40
863.30	1785.83
863.47	1697.77
863.64	1810.40
863.81	1740.77
863.97	1773.54
864.14	1665.00
864.31	1665.00
864.48	1765.35
864.65	1738.73
864.81	1777.64
864.98	1722.34
865.15	1722.34
865.32	1767.40
865.48	1806.31
865.65	1761.25
865.82	1673.19
865.98	1751.01
866.15	1763.30
866.32	1654.76
866.49	1691.62
866.65	1773.54
866.82	1667.05
866.99	1701.86
867.16	1683.43
867.32	1703.91
867.49	1617.90
867.66	1718.25
867.83	1701.86
867.99	1583.08
868.16	1665.00
868.33	1527.78
868.49	1710.05
868.66	1667.05
868.83	1699.81
868.99	1738.73
869.16	1689.57
869.33	1708.01
869.50	1771.49
869.66	1658.85
869.83	1712.10
870.00	1646.57
870.16	1771.49
870.33	1695.72
870.50	1673.19
870.66	1687.53
870.83	1775.59
871.00	1748.97
871.17	1679.33
871.33	1701.86
871.50	1701.86
871.67	1714.15
871.83	1693.67
872.00	1732.58
872.17	1701.86
872.33	1722.34
872.50	1804.26
872.67	1671.14
872.83	1695.72
873.00	1656.81
873.17	1699.81
873.33	1763.30
873.50	1748.97
873.67	1648.61
873.83	1673.19
874.00	1685.48
874.16	1763.30
874.33	1708.01
874.50	1708.01
874.66	1685.48
874.83	1679.33
875.00	1857.51
875.16	1791.97
875.33	1720.29
875.50	1587.18
875.66	1679.33
875.83	1685.48
875.99	1804.26
876.16	1677.29
876.33	1599.46
876.49	1662.95
876.66	1748.97
876.83	1718.25
876.99	1644.52
877.16	1595.37
877.32	1689.57
877.49	1673.19
877.66	1632.23
877.82	1675.24
877.99	1675.24
878.15	1757.16
878.32	1738.73
878.49	1677.29
878.65	1701.86
878.82	1763.30
878.98	1634.28
879.15	1675.24
879.32	1644.52
879.48	1710.05
879.65	1660.90
879.81	1624.04
879.98	1619.94
880.15	1665.00
880.31	1648.61
880.48	1660.90
880.64	1703.91
880.81	1781.73
880.97	1820.64
881.14	1763.30
881.31	1644.52
881.47	1816.55
881.64	1734.63
881.80	1576.94
881.97	1794.02
882.13	1763.30
882.30	1648.61
882.47	1558.50
882.63	1617.90
882.80	1681.38
882.96	1646.57
883.13	1724.39
883.29	1687.53
883.46	1718.25
883.62	1802.21
883.79	1724.39
883.95	1730.53
884.12	1693.67
884.29	1734.63
884.45	1658.85
884.62	1800.16
884.78	1667.05
884.95	1777.64
885.11	1665.00
885.28	1697.77
885.44	1685.48
885.61	1689.57
885.77	1802.21
885.94	1697.77
886.10	1656.81
886.27	1632.23
886.43	1759.21
886.60	1742.82
886.76	1689.57
886.93	1697.77
887.09	1683.43
887.26	1640.42
887.42	1673.19
887.59	1748.97
887.75	1853.41
887.92	1718.25
888.08	1775.59
888.25	1779.68
888.41	1751.01
888.58	1703.91
888.74	1650.66
888.91	1599.46
>>>>>End Processed Spectral Data<<<<<
