SpectraSuite Data File
++++++++++++++++++++++++++++++++++++
Date: Mon Jun 06 15:47:37 CEST 2016
User: root
Dark Spectrum Present: No
Reference Spectrum Present: No
Number of Sampled Component Spectra: 1
Spectrometers: USB4C02835
Integration Time (usec): 100000 (USB4C02835)
Spectra Averaged: 1 (USB4C02835)
Boxcar Smoothing: 0 (USB4C02835)
Correct for Electrical Dark: No (USB4C02835)
Strobe/Lamp Enabled: No (USB4C02835)
Correct for Detector Non-linearity: No (USB4C02835)
Correct for Stray Light: No (USB4C02835)
Number of Pixels in Processed Spectrum: 3648
>>>>>Begin Processed Spectral Data<<<<<
177.47	1470.44
177.69	1470.44
177.91	1470.44
178.13	1454.06
178.36	1431.53
178.58	1611.75
178.80	1841.12
179.02	1789.92
179.24	1656.81
179.46	1734.63
179.68	1757.16
179.90	1691.62
180.13	1669.09
180.35	1660.90
180.57	1687.53
180.79	1665.00
181.01	1761.25
181.23	1738.73
181.45	1722.34
181.67	1736.68
181.90	1718.25
182.12	1617.90
182.34	1642.47
182.56	1667.05
182.78	1720.29
183.00	1683.43
183.22	1722.34
183.44	1615.85
183.66	1843.17
183.89	1816.55
184.11	1685.48
184.33	1716.20
184.55	1828.84
184.77	1736.68
184.99	1746.92
185.21	1671.14
185.43	1820.64
185.65	1687.53
185.87	1714.15
186.10	1861.60
186.32	1830.88
186.54	1740.77
186.76	1734.63
186.98	1759.21
187.20	1714.15
187.42	1673.19
187.64	1767.40
187.86	1744.87
188.08	1728.49
188.30	1742.82
188.52	1703.91
188.75	1796.07
188.97	1791.97
189.19	1708.01
189.41	1746.92
189.63	1724.39
189.85	1728.49
190.07	1662.95
190.29	1722.34
190.51	1755.11
190.73	1660.90
190.95	1781.73
191.17	1708.01
191.39	1701.86
191.61	1718.25
191.84	1736.68
192.06	1740.77
192.28	1601.51
192.50	1990.63
192.72	1755.11
192.94	1724.39
193.16	1818.60
193.38	1675.24
193.60	1630.18
193.82	1677.29
194.04	1800.16
194.26	1804.26
194.48	1753.06
194.70	1665.00
194.92	1712.10
195.14	1800.16
195.36	1716.20
195.58	1779.68
195.80	1669.09
196.02	1712.10
196.24	1685.48
196.46	1699.81
196.69	1705.96
196.91	1855.46
197.13	1667.05
197.35	1689.57
197.57	1873.89
197.79	1759.21
198.01	1730.53
198.23	1714.15
198.45	1679.33
198.67	1640.42
198.89	1681.38
199.11	1716.20
199.33	1724.39
199.55	1632.23
199.77	1767.40
199.99	1808.36
200.21	1738.73
200.43	1742.82
200.65	1689.57
200.87	1581.03
201.09	1759.21
201.31	1746.92
201.53	1767.40
201.75	1722.34
201.97	1701.86
202.19	1652.71
202.41	1748.97
202.63	1775.59
202.85	1748.97
203.07	1748.97
203.29	1697.77
203.51	1650.66
203.73	1767.40
203.95	1837.03
204.17	1718.25
204.39	1773.54
204.61	1673.19
204.83	1640.42
205.05	1775.59
205.27	1785.83
205.49	1857.51
205.71	1695.72
205.93	1671.14
206.15	1687.53
206.37	1724.39
206.59	1701.86
206.81	1576.94
207.03	1667.05
207.25	1671.14
207.47	1738.73
207.69	1732.58
207.91	1736.68
208.13	1843.17
208.34	1658.85
208.56	1681.38
208.78	1722.34
209.00	1714.15
209.22	1722.34
209.44	1714.15
209.66	1667.05
209.88	1689.57
210.10	1738.73
210.32	1662.95
210.54	1818.60
210.76	1734.63
210.98	1812.45
211.20	1636.33
211.42	1787.88
211.64	1773.54
211.86	1748.97
212.08	1734.63
212.30	1775.59
212.52	1705.96
212.74	1781.73
212.96	1789.92
213.17	1705.96
213.39	1767.40
213.61	1699.81
213.83	1624.04
214.05	1673.19
214.27	1871.84
214.49	1609.70
214.71	1632.23
214.93	1851.36
215.15	1710.05
215.37	1767.40
215.59	1732.58
215.81	1755.11
216.03	1775.59
216.24	1740.77
216.46	1746.92
216.68	1699.81
216.90	1820.64
217.12	1751.01
217.34	1691.62
217.56	1763.30
217.78	1742.82
218.00	1796.07
218.22	1714.15
218.44	1665.00
218.66	1718.25
218.87	1783.78
219.09	1705.96
219.31	1777.64
219.53	1767.40
219.75	1689.57
219.97	1767.40
220.19	1681.38
220.41	1830.88
220.63	1863.65
220.85	1736.68
221.06	1722.34
221.28	1761.25
221.50	1724.39
221.72	1665.00
221.94	1744.87
222.16	1671.14
222.38	1787.88
222.60	1730.53
222.82	1689.57
223.03	1785.83
223.25	1570.79
223.47	1757.16
223.69	1841.12
223.91	1742.82
224.13	1650.66
224.35	1775.59
224.57	1722.34
224.78	1763.30
225.00	1650.66
225.22	1646.57
225.44	1687.53
225.66	1761.25
225.88	1697.77
226.10	1757.16
226.32	1738.73
226.53	1794.02
226.75	1738.73
226.97	1716.20
227.19	1779.68
227.41	1724.39
227.63	1736.68
227.85	1695.72
228.06	1708.01
228.28	1660.90
228.50	1728.49
228.72	1648.61
228.94	1621.99
229.16	1685.48
229.37	1634.28
229.59	1636.33
229.81	1834.98
230.03	1662.95
230.25	1632.23
230.47	1675.24
230.69	1632.23
230.90	1755.11
231.12	1685.48
231.34	1728.49
231.56	1824.74
231.78	1675.24
232.00	1714.15
232.21	1710.05
232.43	1720.29
232.65	1632.23
232.87	1787.88
233.09	1646.57
233.30	1740.77
233.52	1820.64
233.74	1732.58
233.96	1703.91
234.18	1816.55
234.40	1722.34
234.61	1808.36
234.83	1624.04
235.05	1677.29
235.27	1818.60
235.49	1820.64
235.70	1734.63
235.92	1812.45
236.14	1730.53
236.36	1855.46
236.58	1587.18
236.79	1712.10
237.01	1705.96
237.23	1691.62
237.45	1781.73
237.67	1714.15
237.88	1689.57
238.10	1812.45
238.32	1683.43
238.54	1708.01
238.76	1656.81
238.97	1705.96
239.19	1742.82
239.41	1714.15
239.63	1767.40
239.85	1691.62
240.06	1638.38
240.28	1640.42
240.50	1722.34
240.72	1763.30
240.93	1681.38
241.15	1771.49
241.37	1697.77
241.59	1832.93
241.81	1658.85
242.02	1675.24
242.24	1767.40
242.46	1791.97
242.68	1742.82
242.89	1787.88
243.11	1796.07
243.33	1646.57
243.55	1724.39
243.76	1787.88
243.98	1708.01
244.20	1763.30
244.42	1705.96
244.64	1687.53
244.85	1632.23
245.07	1640.42
245.29	1689.57
245.51	1746.92
245.72	1701.86
245.94	1779.68
246.16	1738.73
246.38	1857.51
246.59	1703.91
246.81	1699.81
247.03	1730.53
247.24	1560.55
247.46	1724.39
247.68	1765.35
247.90	1691.62
248.11	1708.01
248.33	1796.07
248.55	1730.53
248.77	1742.82
248.98	1720.29
249.20	1798.12
249.42	1669.09
249.64	1798.12
249.85	1646.57
250.07	1665.00
250.29	1724.39
250.50	1769.44
250.72	1626.09
250.94	1751.01
251.16	1914.85
251.37	1830.88
251.59	1740.77
251.81	1759.21
252.02	1808.36
252.24	1708.01
252.46	1824.74
252.68	1626.09
252.89	1667.05
253.11	1667.05
253.33	1769.44
253.54	1812.45
253.76	1642.47
253.98	1673.19
254.20	1705.96
254.41	1619.94
254.63	1628.14
254.85	1714.15
255.06	1597.42
255.28	1708.01
255.50	1695.72
255.71	1644.52
255.93	1644.52
256.15	1708.01
256.36	1759.21
256.58	1660.90
256.80	1812.45
257.02	1777.64
257.23	1634.28
257.45	1679.33
257.67	1763.30
257.88	1693.67
258.10	1691.62
258.32	1769.44
258.53	1705.96
258.75	1812.45
258.97	1650.66
259.18	1687.53
259.40	1714.15
259.62	1796.07
259.83	1814.50
260.05	1722.34
260.27	1990.63
260.48	1779.68
260.70	1630.18
260.92	1652.71
261.13	1740.77
261.35	1716.20
261.57	1734.63
261.78	1603.56
262.00	1644.52
262.22	1810.40
262.43	1656.81
262.65	1628.14
262.86	1683.43
263.08	1877.99
263.30	1755.11
263.51	1593.32
263.73	1638.38
263.95	1867.75
264.16	1658.85
264.38	1685.48
264.60	1722.34
264.81	1685.48
265.03	1796.07
265.25	1732.58
265.46	1759.21
265.68	1755.11
265.89	1701.86
266.11	1619.94
266.33	1800.16
266.54	1877.99
266.76	1705.96
266.98	1769.44
267.19	1820.64
267.41	1730.53
267.62	1675.24
267.84	1621.99
268.06	1773.54
268.27	1736.68
268.49	1800.16
268.70	1812.45
268.92	1697.77
269.14	1689.57
269.35	1591.27
269.57	1736.68
269.79	1769.44
270.00	1675.24
270.22	1755.11
270.43	1654.76
270.65	1593.32
270.87	1720.29
271.08	1759.21
271.30	1759.21
271.51	1742.82
271.73	1796.07
271.95	1791.97
272.16	1771.49
272.38	1689.57
272.59	1720.29
272.81	1742.82
273.02	1746.92
273.24	1804.26
273.46	1767.40
273.67	1726.44
273.89	1712.10
274.10	1632.23
274.32	1726.44
274.54	1722.34
274.75	1714.15
274.97	1714.15
275.18	1730.53
275.40	1787.88
275.61	1718.25
275.83	1759.21
276.05	1619.94
276.26	1726.44
276.48	1751.01
276.69	1662.95
276.91	1722.34
277.12	1806.31
277.34	1759.21
277.55	1781.73
277.77	1665.00
277.99	1675.24
278.20	1638.38
278.42	1703.91
278.63	1634.28
278.85	1667.05
279.06	1552.36
279.28	1689.57
279.49	1763.30
279.71	1773.54
279.93	1695.72
280.14	1724.39
280.36	1642.47
280.57	1718.25
280.79	1722.34
281.00	1675.24
281.22	1570.79
281.43	1775.59
281.65	1599.46
281.86	1613.80
282.08	1712.10
282.29	1869.80
282.51	1665.00
282.73	1636.33
282.94	1644.52
283.16	1783.78
283.37	1800.16
283.59	1646.57
283.80	1710.05
284.02	1716.20
284.23	1757.16
284.45	1718.25
284.66	1576.94
284.88	1679.33
285.09	1695.72
285.31	1703.91
285.52	1744.87
285.74	1599.46
285.95	1734.63
286.17	1802.21
286.38	1701.86
286.60	1714.15
286.81	1691.62
287.03	1746.92
287.24	1693.67
287.46	1779.68
287.67	1765.35
287.89	1851.36
288.10	1740.77
288.32	1703.91
288.53	1751.01
288.75	1746.92
288.96	1705.96
289.18	1695.72
289.39	1722.34
289.61	1701.86
289.82	1804.26
290.04	1845.22
290.25	1673.19
290.47	1687.53
290.68	1677.29
290.90	1837.03
291.11	1630.18
291.33	1814.50
291.54	1691.62
291.76	1638.38
291.97	1687.53
292.18	1718.25
292.40	1705.96
292.61	1695.72
292.83	1814.50
293.04	1824.74
293.26	1689.57
293.47	1728.49
293.69	1683.43
293.90	1728.49
294.12	1748.97
294.33	1665.00
294.55	1667.05
294.76	1847.27
294.97	1787.88
295.19	1841.12
295.40	1679.33
295.62	1751.01
295.83	1767.40
296.05	1634.28
296.26	1773.54
296.48	1681.38
296.69	1644.52
296.90	1761.25
297.12	1746.92
297.33	1794.02
297.55	1775.59
297.76	1787.88
297.98	1755.11
298.19	1687.53
298.41	1689.57
298.62	1621.99
298.83	1841.12
299.05	1748.97
299.26	1787.88
299.48	1613.80
299.69	1816.55
299.90	1677.29
300.12	1701.86
300.33	1685.48
300.55	1701.86
300.76	1757.16
300.98	1634.28
301.19	1730.53
301.40	1712.10
301.62	1648.61
301.83	1841.12
302.05	1734.63
302.26	1662.95
302.47	1730.53
302.69	1609.70
302.90	1689.57
303.12	1581.03
303.33	1781.73
303.54	1818.60
303.76	1656.81
303.97	1718.25
304.19	1787.88
304.40	1679.33
304.61	1771.49
304.83	1837.03
305.04	1779.68
305.26	1712.10
305.47	1693.67
305.68	1720.29
305.90	1667.05
306.11	1775.59
306.33	1699.81
306.54	1708.01
306.75	1679.33
306.97	1656.81
307.18	1599.46
307.39	1667.05
307.61	1730.53
307.82	1636.33
308.04	1746.92
308.25	1662.95
308.46	1812.45
308.68	1701.86
308.89	1771.49
309.10	1783.78
309.32	1771.49
309.53	1710.05
309.74	1773.54
309.96	1718.25
310.17	1732.58
310.39	1718.25
310.60	1763.30
310.81	1701.86
311.03	1648.61
311.24	1742.82
311.45	1681.38
311.67	1769.44
311.88	1718.25
312.09	1640.42
312.31	1667.05
312.52	1636.33
312.73	1714.15
312.95	1677.29
313.16	1662.95
313.37	1759.21
313.59	1732.58
313.80	1746.92
314.01	1941.47
314.23	1730.53
314.44	1744.87
314.65	1662.95
314.87	1640.42
315.08	1683.43
315.29	1687.53
315.51	1658.85
315.72	1609.70
315.93	1742.82
316.15	1828.84
316.36	1705.96
316.57	1681.38
316.79	1695.72
317.00	1757.16
317.21	1771.49
317.43	1615.85
317.64	1703.91
317.85	1669.09
318.07	1689.57
318.28	1705.96
318.49	1837.03
318.70	1902.56
318.92	1824.74
319.13	1804.26
319.34	1896.42
319.56	1759.21
319.77	1834.98
319.98	1798.12
320.20	1857.51
320.41	1615.85
320.62	1718.25
320.83	1667.05
321.05	1828.84
321.26	1753.06
321.47	1687.53
321.69	1818.60
321.90	1675.24
322.11	1738.73
322.32	1757.16
322.54	1837.03
322.75	1683.43
322.96	1822.69
323.18	1595.37
323.39	1638.38
323.60	1689.57
323.81	1763.30
324.03	1710.05
324.24	1683.43
324.45	1722.34
324.66	1654.76
324.88	1767.40
325.09	1779.68
325.30	1687.53
325.52	1746.92
325.73	1830.88
325.94	1685.48
326.15	1650.66
326.37	1691.62
326.58	1691.62
326.79	1748.97
327.00	1691.62
327.22	1794.02
327.43	1687.53
327.64	1665.00
327.85	1718.25
328.07	1814.50
328.28	1812.45
328.49	1609.70
328.70	1771.49
328.92	1759.21
329.13	1722.34
329.34	1748.97
329.55	1791.97
329.76	1763.30
329.98	1701.86
330.19	1753.06
330.40	1724.39
330.61	1689.57
330.83	1740.77
331.04	1671.14
331.25	1734.63
331.46	1804.26
331.68	1630.18
331.89	1769.44
332.10	1751.01
332.31	1621.99
332.52	1759.21
332.74	1791.97
332.95	1677.29
333.16	1630.18
333.37	1769.44
333.58	1744.87
333.80	1705.96
334.01	1601.51
334.22	1722.34
334.43	1642.47
334.64	1736.68
334.86	1683.43
335.07	1669.09
335.28	1814.50
335.49	1640.42
335.70	1675.24
335.92	1701.86
336.13	1841.12
336.34	1669.09
336.55	1730.53
336.76	1769.44
336.98	1626.09
337.19	1687.53
337.40	1843.17
337.61	1865.70
337.82	1630.18
338.04	1724.39
338.25	1613.80
338.46	1716.20
338.67	1613.80
338.88	1630.18
339.09	1703.91
339.31	1697.77
339.52	1603.56
339.73	1669.09
339.94	1744.87
340.15	1755.11
340.36	1701.86
340.58	1724.39
340.79	1765.35
341.00	1763.30
341.21	1689.57
341.42	1789.92
341.63	1720.29
341.85	1755.11
342.06	1662.95
342.27	1681.38
342.48	1789.92
342.69	1650.66
342.90	1755.11
343.12	1708.01
343.33	1681.38
343.54	1769.44
343.75	1789.92
343.96	1720.29
344.17	1599.46
344.38	1716.20
344.60	1673.19
344.81	1642.47
345.02	1710.05
345.23	1767.40
345.44	1734.63
345.65	1757.16
345.86	1681.38
346.07	1691.62
346.29	1667.05
346.50	1759.21
346.71	1726.44
346.92	1800.16
347.13	1882.08
347.34	1763.30
347.55	1746.92
347.76	1796.07
347.98	1699.81
348.19	1665.00
348.40	1787.88
348.61	1718.25
348.82	1855.46
349.03	1865.70
349.24	1667.05
349.45	1814.50
349.66	1605.61
349.88	1638.38
350.09	1763.30
350.30	1800.16
350.51	1810.40
350.72	1714.15
350.93	1699.81
351.14	1699.81
351.35	1759.21
351.56	1716.20
351.77	1724.39
351.99	1675.24
352.20	1785.83
352.41	1810.40
352.62	1589.22
352.83	1705.96
353.04	1716.20
353.25	1638.38
353.46	1843.17
353.67	1767.40
353.88	1599.46
354.09	1761.25
354.30	1609.70
354.52	1777.64
354.73	1691.62
354.94	1677.29
355.15	1730.53
355.36	1804.26
355.57	1730.53
355.78	1814.50
355.99	1617.90
356.20	1669.09
356.41	1800.16
356.62	1759.21
356.83	1691.62
357.04	1798.12
357.25	1626.09
357.46	1667.05
357.68	1617.90
357.89	1718.25
358.10	1679.33
358.31	1687.53
358.52	1787.88
358.73	1648.61
358.94	1705.96
359.15	1685.48
359.36	1796.07
359.57	1738.73
359.78	1632.23
359.99	1779.68
360.20	1621.99
360.41	1718.25
360.62	1732.58
360.83	1728.49
361.04	1742.82
361.25	1677.29
361.46	1804.26
361.67	1677.29
361.88	1716.20
362.09	1734.63
362.30	1693.67
362.51	1730.53
362.72	1652.71
362.93	1787.88
363.14	1771.49
363.35	1669.09
363.56	1716.20
363.78	1767.40
363.99	1812.45
364.20	1638.38
364.41	1699.81
364.62	1888.23
364.83	1716.20
365.04	1701.86
365.25	1677.29
365.46	1914.85
365.67	1703.91
365.88	1685.48
366.09	1699.81
366.30	1697.77
366.51	1722.34
366.72	1617.90
366.93	1660.90
367.14	1740.77
367.35	1839.08
367.56	1763.30
367.77	1787.88
367.98	1716.20
368.18	1734.63
368.39	1763.30
368.60	1644.52
368.81	1744.87
369.02	1710.05
369.23	1683.43
369.44	1665.00
369.65	1689.57
369.86	1712.10
370.07	1808.36
370.28	1712.10
370.49	1736.68
370.70	1791.97
370.91	1648.61
371.12	1697.77
371.33	1753.06
371.54	1642.47
371.75	1761.25
371.96	1599.46
372.17	1728.49
372.38	1685.48
372.59	1710.05
372.80	1757.16
373.01	1691.62
373.22	1742.82
373.43	1685.48
373.64	1568.74
373.85	1853.41
374.06	1832.93
374.26	1779.68
374.47	1722.34
374.68	1779.68
374.89	1765.35
375.10	1765.35
375.31	1843.17
375.52	1665.00
375.73	1699.81
375.94	1656.81
376.15	1787.88
376.36	1669.09
376.57	1722.34
376.78	1658.85
376.99	1677.29
377.20	1751.01
377.40	1716.20
377.61	1798.12
377.82	1611.75
378.03	1791.97
378.24	1800.16
378.45	1660.90
378.66	1726.44
378.87	1589.22
379.08	1652.71
379.29	1730.53
379.50	1810.40
379.71	1771.49
379.91	1689.57
380.12	1693.67
380.33	1658.85
380.54	1716.20
380.75	1716.20
380.96	1724.39
381.17	1822.69
381.38	1757.16
381.59	1736.68
381.80	1742.82
382.00	1849.32
382.21	1699.81
382.42	1816.55
382.63	1843.17
382.84	1812.45
383.05	1794.02
383.26	1812.45
383.47	1716.20
383.68	1732.58
383.88	1730.53
384.09	1710.05
384.30	1820.64
384.51	1734.63
384.72	1738.73
384.93	1671.14
385.14	1759.21
385.35	1775.59
385.55	1636.33
385.76	1757.16
385.97	1669.09
386.18	1685.48
386.39	1656.81
386.60	1697.77
386.81	1712.10
387.02	1722.34
387.22	1648.61
387.43	1828.84
387.64	1800.16
387.85	1863.65
388.06	2170.85
388.27	4163.52
388.48	6547.36
388.68	8095.62
388.89	9238.39
389.10	9492.34
389.31	8365.95
389.52	7514.00
389.73	6551.45
389.93	6252.45
390.14	5748.65
390.35	5089.20
390.56	4528.06
390.77	3798.98
390.98	2971.60
391.18	2527.19
391.39	2203.61
391.60	1839.08
391.81	1828.84
392.02	1736.68
392.23	1773.54
392.43	1755.11
392.64	1781.73
392.85	1675.24
393.06	1845.22
393.27	1732.58
393.47	1714.15
393.68	1755.11
393.89	1705.96
394.10	1728.49
394.31	1648.61
394.52	1687.53
394.72	1757.16
394.93	1744.87
395.14	1644.52
395.35	1757.16
395.56	1595.37
395.76	1755.11
395.97	1814.50
396.18	1951.71
396.39	1845.22
396.60	2002.91
396.80	1910.75
397.01	1857.51
397.22	1810.40
397.43	1869.80
397.64	1798.12
397.84	1816.55
398.05	1896.42
398.26	1769.44
398.47	1783.78
398.67	1771.49
398.88	1748.97
399.09	1787.88
399.30	1679.33
399.51	1722.34
399.71	1697.77
399.92	1699.81
400.13	1746.92
400.34	1718.25
400.54	1714.15
400.75	1845.22
400.96	1730.53
401.17	1796.07
401.37	1693.67
401.58	1765.35
401.79	1738.73
402.00	1824.74
402.21	2060.26
402.41	1996.77
402.62	2009.06
402.83	1968.10
403.04	1964.00
403.24	2072.54
403.45	1800.16
403.66	1882.08
403.87	1916.90
404.07	1810.40
404.28	1834.98
404.49	1855.46
404.70	1744.87
404.90	1859.56
405.11	1775.59
405.32	1730.53
405.52	1699.81
405.73	1673.19
405.94	1679.33
406.15	1738.73
406.35	1771.49
406.56	1777.64
406.77	1757.16
406.98	1769.44
407.18	1626.09
407.39	1763.30
407.60	1699.81
407.80	1746.92
408.01	1689.57
408.22	1732.58
408.43	1759.21
408.63	1722.34
408.84	1781.73
409.05	1689.57
409.25	1675.24
409.46	1640.42
409.67	1675.24
409.88	1710.05
410.08	1785.83
410.29	1650.66
410.50	1744.87
410.70	1716.20
410.91	1660.90
411.12	1794.02
411.32	1703.91
411.53	1662.95
411.74	1804.26
411.95	1783.78
412.15	1763.30
412.36	1732.58
412.57	1763.30
412.77	1781.73
412.98	1761.25
413.19	1789.92
413.39	1773.54
413.60	1751.01
413.81	1791.97
414.01	1695.72
414.22	1773.54
414.43	1867.75
414.63	1701.86
414.84	1732.58
415.05	1665.00
415.25	1683.43
415.46	1738.73
415.67	1632.23
415.87	1687.53
416.08	1808.36
416.29	1671.14
416.49	1779.68
416.70	1685.48
416.91	1648.61
417.11	1683.43
417.32	1601.51
417.53	1744.87
417.73	1705.96
417.94	1630.18
418.15	1708.01
418.35	1800.16
418.56	1761.25
418.77	1880.04
418.97	1718.25
419.18	1673.19
419.38	1667.05
419.59	1617.90
419.80	1755.11
420.00	1701.86
420.21	1705.96
420.42	1802.21
420.62	1796.07
420.83	1669.09
421.04	1738.73
421.24	1722.34
421.45	1789.92
421.65	1730.53
421.86	1734.63
422.07	1740.77
422.27	1734.63
422.48	1812.45
422.69	1685.48
422.89	1675.24
423.10	1732.58
423.30	1636.33
423.51	1673.19
423.72	1757.16
423.92	1671.14
424.13	1630.18
424.33	1714.15
424.54	1814.50
424.75	1791.97
424.95	1757.16
425.16	1730.53
425.36	1607.66
425.57	1834.98
425.78	1665.00
425.98	1769.44
426.19	1652.71
426.39	1658.85
426.60	1755.11
426.81	1804.26
427.01	1726.44
427.22	1726.44
427.42	1656.81
427.63	1687.53
427.83	1828.84
428.04	1767.40
428.25	1826.79
428.45	1812.45
428.66	1724.39
428.86	1736.68
429.07	1677.29
429.28	1685.48
429.48	1703.91
429.69	1755.11
429.89	1703.91
430.10	1697.77
430.30	1675.24
430.51	1783.78
430.71	1640.42
430.92	1783.78
431.13	1685.48
431.33	1720.29
431.54	1834.98
431.74	1902.56
431.95	1818.60
432.15	1607.66
432.36	1714.15
432.56	1814.50
432.77	1794.02
432.98	1816.55
433.18	1755.11
433.39	1685.48
433.59	1759.21
433.80	1806.31
434.00	1871.84
434.21	1597.42
434.41	1640.42
434.62	1900.52
434.82	1665.00
435.03	1714.15
435.23	1697.77
435.44	1636.33
435.64	1734.63
435.85	1722.34
436.06	1722.34
436.26	1789.92
436.47	1742.82
436.67	1656.81
436.88	1714.15
437.08	1730.53
437.29	1812.45
437.49	1728.49
437.70	1849.32
437.90	1734.63
438.11	1849.32
438.31	1748.97
438.52	1781.73
438.72	1867.75
438.93	1873.89
439.13	1716.20
439.34	1751.01
439.54	1796.07
439.75	1800.16
439.95	1820.64
440.16	1710.05
440.36	1757.16
440.57	1722.34
440.77	1728.49
440.98	1779.68
441.18	1730.53
441.39	1746.92
441.59	1654.76
441.80	1957.86
442.00	1695.72
442.21	1865.70
442.41	1697.77
442.62	1834.98
442.82	1630.18
443.02	1726.44
443.23	1765.35
443.43	1662.95
443.64	1806.31
443.84	1738.73
444.05	1787.88
444.25	1794.02
444.46	1736.68
444.66	1736.68
444.87	1783.78
445.07	1714.15
445.28	1753.06
445.48	1912.80
445.69	1705.96
445.89	1845.22
446.09	1732.58
446.30	1994.72
446.50	2539.48
446.71	3651.53
446.91	4179.90
447.12	4730.81
447.32	4771.77
447.53	4202.43
447.73	3868.61
447.93	3522.51
448.14	3338.19
448.34	3223.50
448.55	2813.91
448.75	2752.47
448.96	2633.69
449.16	2375.64
449.36	2312.16
449.57	1945.57
449.77	1871.84
449.98	1830.88
450.18	1787.88
450.39	1955.81
450.59	1773.54
450.79	1787.88
451.00	1714.15
451.20	1847.27
451.41	1751.01
451.61	1753.06
451.81	1757.16
452.02	1705.96
452.22	1769.44
452.43	1658.85
452.63	1695.72
452.84	1834.98
453.04	1769.44
453.24	1751.01
453.45	1789.92
453.65	1757.16
453.86	1748.97
454.06	1712.10
454.26	1738.73
454.47	1763.30
454.67	1845.22
454.87	1787.88
455.08	1722.34
455.28	1947.62
455.49	1740.77
455.69	1656.81
455.89	1888.23
456.10	1804.26
456.30	1695.72
456.51	1781.73
456.71	1724.39
456.91	1814.50
457.12	1785.83
457.32	1779.68
457.52	1755.11
457.73	1748.97
457.93	1767.40
458.14	1716.20
458.34	1730.53
458.54	1753.06
458.75	1720.29
458.95	1820.64
459.15	1697.77
459.36	1781.73
459.56	1820.64
459.76	1920.99
459.97	1791.97
460.17	1773.54
460.37	1849.32
460.58	1744.87
460.78	1802.21
460.99	1755.11
461.19	1769.44
461.39	1744.87
461.60	1705.96
461.80	1775.59
462.00	1687.53
462.21	1746.92
462.41	1673.19
462.61	1742.82
462.82	1642.47
463.02	1800.16
463.22	1765.35
463.43	1837.03
463.63	1732.58
463.83	1777.64
464.04	1769.44
464.24	1736.68
464.44	1636.33
464.64	1755.11
464.85	1802.21
465.05	1798.12
465.25	1734.63
465.46	1710.05
465.66	1812.45
465.86	1863.65
466.07	1689.57
466.27	1728.49
466.47	1656.81
466.68	1644.52
466.88	1804.26
467.08	1703.91
467.29	1853.41
467.49	1757.16
467.69	1814.50
467.89	1787.88
468.10	1759.21
468.30	1773.54
468.50	1816.55
468.71	1740.77
468.91	1617.90
469.11	1826.79
469.31	1761.25
469.52	1642.47
469.72	1839.08
469.92	1867.75
470.13	1740.77
470.33	1728.49
470.53	1863.65
470.73	2138.08
470.94	2211.81
471.14	2326.49
471.34	2535.39
471.54	2435.03
471.75	2246.62
471.95	2119.65
472.15	2052.06
472.36	2088.93
472.56	2220.00
472.76	1996.77
472.96	1972.19
473.17	1986.53
473.37	1984.48
473.57	1839.08
473.77	1863.65
473.98	1714.15
474.18	1716.20
474.38	1951.71
474.58	1736.68
474.79	1740.77
474.99	1779.68
475.19	1798.12
475.39	1708.01
475.60	1800.16
475.80	1701.86
476.00	1701.86
476.20	1665.00
476.41	1759.21
476.61	1847.27
476.81	1767.40
477.01	1677.29
477.21	1843.17
477.42	1839.08
477.62	1681.38
477.82	1814.50
478.02	1708.01
478.23	1816.55
478.43	1740.77
478.63	1685.48
478.83	1697.77
479.03	1712.10
479.24	1867.75
479.44	1796.07
479.64	1669.09
479.84	1619.94
480.04	1675.24
480.25	1810.40
480.45	1673.19
480.65	1751.01
480.85	1787.88
481.06	1773.54
481.26	1744.87
481.46	1759.21
481.66	1644.52
481.86	1658.85
482.06	1783.78
482.27	1783.78
482.47	1687.53
482.67	1812.45
482.87	1781.73
483.07	1722.34
483.28	1636.33
483.48	1703.91
483.68	1667.05
483.88	1613.80
484.08	1599.46
484.29	1714.15
484.49	1791.97
484.69	1658.85
484.89	1822.69
485.09	1832.93
485.29	1765.35
485.50	1740.77
485.70	1675.24
485.90	1806.31
486.10	1808.36
486.30	1771.49
486.50	1849.32
486.71	1746.92
486.91	1791.97
487.11	1781.73
487.31	1701.86
487.51	1812.45
487.71	1681.38
487.91	1648.61
488.12	1677.29
488.32	1601.51
488.52	1732.58
488.72	1642.47
488.92	1753.06
489.12	1720.29
489.32	1748.97
489.53	1861.60
489.73	1677.29
489.93	1908.71
490.13	1685.48
490.33	1669.09
490.53	1839.08
490.73	1849.32
490.94	1636.33
491.14	1800.16
491.34	1900.52
491.54	2199.52
491.74	2525.15
491.94	2858.96
492.14	3022.80
492.34	2901.97
492.54	2691.03
492.75	2455.51
492.95	2480.09
493.15	2283.49
493.35	2301.92
493.55	2199.52
493.75	2068.45
493.95	2150.37
494.15	1964.00
494.35	1970.15
494.56	1906.66
494.76	1755.11
494.96	1736.68
495.16	1826.79
495.36	1761.25
495.56	1755.11
495.76	1763.30
495.96	1740.77
496.16	1662.95
496.36	1863.65
496.56	1677.29
496.77	1794.02
496.97	1656.81
497.17	1763.30
497.37	1722.34
497.57	1800.16
497.77	1697.77
497.97	1591.27
498.17	1804.26
498.37	1640.42
498.57	1826.79
498.77	1708.01
498.97	1775.59
499.17	1812.45
499.38	1730.53
499.58	1843.17
499.78	1796.07
499.98	1779.68
500.18	1734.63
500.38	1742.82
500.58	1935.33
500.78	2494.43
500.98	4444.09
501.18	5748.65
501.38	6401.95
501.58	6942.61
501.78	6469.53
501.98	5355.44
502.18	5128.11
502.38	4394.94
502.58	4239.30
502.78	3733.45
502.98	3715.02
503.18	3430.35
503.38	3241.93
503.59	2875.35
503.79	2658.26
503.99	2484.19
504.19	2279.39
504.39	2179.04
504.59	2226.14
504.79	2035.68
504.99	2086.88
505.19	1988.58
505.39	1951.71
505.59	1992.67
505.79	2029.54
505.99	1824.74
506.19	1832.93
506.39	1929.19
506.59	1771.49
506.79	1755.11
506.99	1851.36
507.19	1771.49
507.39	1771.49
507.59	1658.85
507.79	1679.33
507.99	1687.53
508.19	1769.44
508.39	1744.87
508.59	1738.73
508.79	1832.93
508.99	1800.16
509.19	1695.72
509.39	1773.54
509.59	1710.05
509.79	1765.35
509.99	1755.11
510.19	1773.54
510.39	1820.64
510.59	1677.29
510.79	1736.68
510.99	1654.76
511.19	1734.63
511.39	1826.79
511.59	1781.73
511.79	1824.74
511.99	1738.73
512.19	1875.94
512.38	1826.79
512.58	1677.29
512.78	1705.96
512.98	1718.25
513.18	1920.99
513.38	1746.92
513.58	1796.07
513.78	1785.83
513.98	1703.91
514.18	1730.53
514.38	1673.19
514.58	1798.12
514.78	1751.01
514.98	1714.15
515.18	1763.30
515.38	1689.57
515.58	1806.31
515.78	1722.34
515.98	1800.16
516.18	1751.01
516.38	1763.30
516.57	1691.62
516.77	1755.11
516.97	1787.88
517.17	1648.61
517.37	1634.28
517.57	1851.36
517.77	1746.92
517.97	1697.77
518.17	1751.01
518.37	1675.24
518.57	1695.72
518.77	1619.94
518.97	1759.21
519.16	1761.25
519.36	1777.64
519.56	1728.49
519.76	1740.77
519.96	1783.78
520.16	1796.07
520.36	1656.81
520.56	1828.84
520.76	1755.11
520.96	1710.05
521.16	1820.64
521.35	1812.45
521.55	1832.93
521.75	1771.49
521.95	1742.82
522.15	1742.82
522.35	1662.95
522.55	1703.91
522.75	1748.97
522.95	1734.63
523.14	1656.81
523.34	1669.09
523.54	1732.58
523.74	1761.25
523.94	1800.16
524.14	1787.88
524.34	1697.77
524.54	1796.07
524.73	1701.86
524.93	1800.16
525.13	1763.30
525.33	1671.14
525.53	1910.75
525.73	1802.21
525.93	1734.63
526.13	1742.82
526.32	1720.29
526.52	1783.78
526.72	1834.98
526.92	1761.25
527.12	1804.26
527.32	1701.86
527.52	1755.11
527.71	1748.97
527.91	1738.73
528.11	1701.86
528.31	1757.16
528.51	1689.57
528.71	1763.30
528.90	1767.40
529.10	1800.16
529.30	1822.69
529.50	1644.52
529.70	1779.68
529.90	1673.19
530.09	1804.26
530.29	1738.73
530.49	1714.15
530.69	1886.18
530.89	1791.97
531.09	1841.12
531.28	1753.06
531.48	1779.68
531.68	1697.77
531.88	1689.57
532.08	1816.55
532.28	1693.67
532.47	1796.07
532.67	1806.31
532.87	1755.11
533.07	1640.42
533.27	1798.12
533.46	1714.15
533.66	1777.64
533.86	1830.88
534.06	1757.16
534.26	1765.35
534.45	1714.15
534.65	1812.45
534.85	1722.34
535.05	1767.40
535.25	1695.72
535.44	1693.67
535.64	1714.15
535.84	1720.29
536.04	1710.05
536.24	1705.96
536.43	1759.21
536.63	1761.25
536.83	1714.15
537.03	1755.11
537.22	1730.53
537.42	1665.00
537.62	1697.77
537.82	1748.97
538.02	1902.56
538.21	1781.73
538.41	1875.94
538.61	1845.22
538.81	1701.86
539.00	1880.04
539.20	1671.14
539.40	1730.53
539.60	1757.16
539.79	1796.07
539.99	1736.68
540.19	1820.64
540.39	1730.53
540.58	1800.16
540.78	1791.97
540.98	1771.49
541.18	1832.93
541.37	1814.50
541.57	1705.96
541.77	1808.36
541.97	1720.29
542.16	1687.53
542.36	1697.77
542.56	1703.91
542.76	1816.55
542.95	1800.16
543.15	1830.88
543.35	1806.31
543.54	1685.48
543.74	1742.82
543.94	1804.26
544.14	1730.53
544.33	1816.55
544.53	1742.82
544.73	1708.01
544.93	1703.91
545.12	1785.83
545.32	1845.22
545.52	1722.34
545.71	1658.85
545.91	1648.61
546.11	1726.44
546.30	1681.38
546.50	1722.34
546.70	1751.01
546.90	1830.88
547.09	1587.18
547.29	1763.30
547.49	1798.12
547.68	1689.57
547.88	1695.72
548.08	1777.64
548.27	2220.00
548.47	1742.82
548.67	1718.25
548.87	1812.45
549.06	1710.05
549.26	1722.34
549.46	1765.35
549.65	1746.92
549.85	1791.97
550.05	1789.92
550.24	1665.00
550.44	1755.11
550.64	1726.44
550.83	1662.95
551.03	1810.40
551.23	1806.31
551.42	1796.07
551.62	1742.82
551.82	1820.64
552.01	1765.35
552.21	1877.99
552.41	1742.82
552.60	1865.70
552.80	1812.45
553.00	1761.25
553.19	1794.02
553.39	1777.64
553.59	1695.72
553.78	1744.87
553.98	1767.40
554.17	1761.25
554.37	1783.78
554.57	1806.31
554.76	1705.96
554.96	1712.10
555.16	1804.26
555.35	1857.51
555.55	1730.53
555.75	1765.35
555.94	1822.69
556.14	1628.14
556.33	1751.01
556.53	1775.59
556.73	1693.67
556.92	1804.26
557.12	1818.60
557.32	1927.14
557.51	1882.08
557.71	1777.64
557.90	1839.08
558.10	1857.51
558.30	1753.06
558.49	1673.19
558.69	1697.77
558.88	1757.16
559.08	1759.21
559.28	1765.35
559.47	1728.49
559.67	1794.02
559.86	1894.37
560.06	1851.36
560.26	1720.29
560.45	1759.21
560.65	1691.62
560.84	1902.56
561.04	1669.09
561.24	1785.83
561.43	1705.96
561.63	1855.46
561.82	1748.97
562.02	1726.44
562.22	1712.10
562.41	1705.96
562.61	1728.49
562.80	1609.70
563.00	1853.41
563.19	1720.29
563.39	1812.45
563.59	1839.08
563.78	1714.15
563.98	1646.57
564.17	1683.43
564.37	1644.52
564.56	1755.11
564.76	1585.13
564.96	1904.61
565.15	1779.68
565.35	1892.32
565.54	1734.63
565.74	1765.35
565.93	1757.16
566.13	1785.83
566.32	1789.92
566.52	1761.25
566.71	1769.44
566.91	1839.08
567.11	1708.01
567.30	1746.92
567.50	1746.92
567.69	1845.22
567.89	1759.21
568.08	1679.33
568.28	1781.73
568.47	1615.85
568.67	1751.01
568.86	1710.05
569.06	1830.88
569.25	1736.68
569.45	1736.68
569.64	1753.06
569.84	1804.26
570.04	1789.92
570.23	1703.91
570.43	1650.66
570.62	1748.97
570.82	1853.41
571.01	1646.57
571.21	1703.91
571.40	1660.90
571.60	1755.11
571.79	1759.21
571.99	1738.73
572.18	1712.10
572.38	1730.53
572.57	1832.93
572.77	1708.01
572.96	1957.86
573.16	1724.39
573.35	1769.44
573.55	1904.61
573.74	1783.78
573.94	1693.67
574.13	1685.48
574.33	1834.98
574.52	1796.07
574.71	1679.33
574.91	1812.45
575.10	1701.86
575.30	1761.25
575.49	1667.05
575.69	1718.25
575.88	1880.04
576.08	1779.68
576.27	1851.36
576.47	1699.81
576.66	1880.04
576.86	1818.60
577.05	1742.82
577.25	1796.07
577.44	1871.84
577.64	1669.09
577.83	1847.27
578.02	1789.92
578.22	1812.45
578.41	1863.65
578.61	1755.11
578.80	1665.00
579.00	1806.31
579.19	1791.97
579.39	1771.49
579.58	1755.11
579.77	1791.97
579.97	1830.88
580.16	1834.98
580.36	1751.01
580.55	1902.56
580.75	1820.64
580.94	1818.60
581.13	1845.22
581.33	1853.41
581.52	1771.49
581.72	1826.79
581.91	1841.12
582.11	1746.92
582.30	1779.68
582.49	1806.31
582.69	1867.75
582.88	1722.34
583.08	1800.16
583.27	1822.69
583.47	1775.59
583.66	1748.97
583.85	1734.63
584.05	1730.53
584.24	1818.60
584.44	1738.73
584.63	1806.31
584.82	1834.98
585.02	1824.74
585.21	1814.50
585.41	1779.68
585.60	1791.97
585.79	1916.90
585.99	1992.67
586.18	1937.38
586.37	2148.32
586.57	3260.37
586.76	9777.00
586.96	23979.67
587.15	33484.29
587.34	39835.04
587.54	41024.91
587.73	35714.53
587.93	25908.85
588.12	21192.38
588.31	18116.33
588.51	16021.26
588.70	14925.60
588.89	13762.35
589.09	12400.45
589.28	10833.75
589.47	9156.47
589.67	7823.24
589.86	6344.61
590.06	4820.92
590.25	3893.19
590.44	3114.96
590.64	2557.91
590.83	2248.67
591.02	2113.50
591.22	1888.23
591.41	1890.28
591.60	1816.55
591.80	1908.71
591.99	1705.96
592.18	1716.20
592.38	1910.75
592.57	1763.30
592.76	1820.64
592.96	1781.73
593.15	1806.31
593.34	1841.12
593.54	1824.74
593.73	1865.70
593.92	1794.02
594.12	1705.96
594.31	1834.98
594.50	1826.79
594.70	1834.98
594.89	1896.42
595.08	1656.81
595.28	1744.87
595.47	1920.99
595.66	1837.03
595.86	1650.66
596.05	1789.92
596.24	1703.91
596.43	1828.84
596.63	1830.88
596.82	1757.16
597.01	1773.54
597.21	1816.55
597.40	1744.87
597.59	1701.86
597.79	1810.40
597.98	1765.35
598.17	1761.25
598.36	1742.82
598.56	1791.97
598.75	1724.39
598.94	1687.53
599.14	1724.39
599.33	1730.53
599.52	1773.54
599.71	1703.91
599.91	1843.17
600.10	1730.53
600.29	1738.73
600.48	1767.40
600.68	1751.01
600.87	1783.78
601.06	1703.91
601.26	1769.44
601.45	1783.78
601.64	1796.07
601.83	1898.47
602.03	1710.05
602.22	1656.81
602.41	1755.11
602.60	1898.47
602.80	1763.30
602.99	1720.29
603.18	1722.34
603.37	1804.26
603.57	1816.55
603.76	1877.99
603.95	1785.83
604.14	1708.01
604.34	1791.97
604.53	1675.24
604.72	1810.40
604.91	1830.88
605.10	1863.65
605.30	1691.62
605.49	1861.60
605.68	1775.59
605.87	1832.93
606.07	1738.73
606.26	1744.87
606.45	1871.84
606.64	1779.68
606.84	1654.76
607.03	1748.97
607.22	1787.88
607.41	1687.53
607.60	1703.91
607.80	1773.54
607.99	1689.57
608.18	1644.52
608.37	1720.29
608.56	1738.73
608.76	1857.51
608.95	1863.65
609.14	1718.25
609.33	1789.92
609.52	1759.21
609.72	1724.39
609.91	1738.73
610.10	1730.53
610.29	1880.04
610.48	1798.12
610.68	1744.87
610.87	1755.11
611.06	1742.82
611.25	1714.15
611.44	1828.84
611.63	1722.34
611.83	1794.02
612.02	1683.43
612.21	1849.32
612.40	1679.33
612.59	1732.58
612.79	1654.76
612.98	1832.93
613.17	1880.04
613.36	1816.55
613.55	1816.55
613.74	1648.61
613.93	1689.57
614.13	1703.91
614.32	1755.11
614.51	1787.88
614.70	1755.11
614.89	1701.86
615.08	1740.77
615.28	2054.11
615.47	1644.52
615.66	1763.30
615.85	1759.21
616.04	1837.03
616.23	1691.62
616.42	1714.15
616.62	1822.69
616.81	1781.73
617.00	1695.72
617.19	1796.07
617.38	1656.81
617.57	1636.33
617.76	1789.92
617.95	1757.16
618.15	1705.96
618.34	1783.78
618.53	1636.33
618.72	1781.73
618.91	1820.64
619.10	1824.74
619.29	1820.64
619.48	1761.25
619.68	1648.61
619.87	1724.39
620.06	1640.42
620.25	1740.77
620.44	1679.33
620.63	1763.30
620.82	1794.02
621.01	1759.21
621.20	1771.49
621.39	1791.97
621.59	1742.82
621.78	1730.53
621.97	1751.01
622.16	1787.88
622.35	1785.83
622.54	1781.73
622.73	1822.69
622.92	1603.56
623.11	1716.20
623.30	1798.12
623.49	1796.07
623.68	1687.53
623.88	1771.49
624.07	1677.29
624.26	1765.35
624.45	1822.69
624.64	1673.19
624.83	1746.92
625.02	1671.14
625.21	1810.40
625.40	1771.49
625.59	1748.97
625.78	1751.01
625.97	1679.33
626.16	1759.21
626.35	1794.02
626.54	1714.15
626.74	1783.78
626.93	1677.29
627.12	1656.81
627.31	1814.50
627.50	1746.92
627.69	1794.02
627.88	1685.48
628.07	1720.29
628.26	1665.00
628.45	1734.63
628.64	1667.05
628.83	1769.44
629.02	1710.05
629.21	1787.88
629.40	1763.30
629.59	1693.67
629.78	1669.09
629.97	1691.62
630.16	1703.91
630.35	1751.01
630.54	1763.30
630.73	1656.81
630.92	1691.62
631.11	1701.86
631.30	1681.38
631.49	1759.21
631.68	1718.25
631.87	1779.68
632.06	1681.38
632.25	1873.89
632.44	1667.05
632.63	1791.97
632.82	1689.57
633.01	1714.15
633.20	1691.62
633.39	1689.57
633.58	1652.71
633.77	1710.05
633.96	1724.39
634.15	1757.16
634.34	1724.39
634.53	1722.34
634.72	1708.01
634.91	1640.42
635.10	1810.40
635.29	1734.63
635.48	1783.78
635.67	1728.49
635.86	1699.81
636.05	1767.40
636.24	1718.25
636.43	1724.39
636.62	1759.21
636.81	1611.75
637.00	1648.61
637.19	1804.26
637.38	1748.97
637.57	1677.29
637.76	1683.43
637.95	1740.77
638.14	1609.70
638.33	1751.01
638.52	1761.25
638.71	1722.34
638.89	1632.23
639.08	1773.54
639.27	1771.49
639.46	1675.24
639.65	1841.12
639.84	1806.31
640.03	1859.56
640.22	1689.57
640.41	1789.92
640.60	1722.34
640.79	1705.96
640.98	1730.53
641.17	1746.92
641.36	1671.14
641.55	1673.19
641.74	1605.61
641.92	1675.24
642.11	1669.09
642.30	1777.64
642.49	1677.29
642.68	1665.00
642.87	1738.73
643.06	1769.44
643.25	1636.33
643.44	1708.01
643.63	1755.11
643.82	1794.02
644.00	1644.52
644.19	1697.77
644.38	1656.81
644.57	1798.12
644.76	1781.73
644.95	1724.39
645.14	1771.49
645.33	1681.38
645.52	1787.88
645.71	1660.90
645.89	1693.67
646.08	1660.90
646.27	1722.34
646.46	1904.61
646.65	1683.43
646.84	1763.30
647.03	1695.72
647.22	1789.92
647.40	1748.97
647.59	1697.77
647.78	1593.32
647.97	1718.25
648.16	1646.57
648.35	1785.83
648.54	1841.12
648.73	1714.15
648.91	1798.12
649.10	1759.21
649.29	1636.33
649.48	1806.31
649.67	1728.49
649.86	1736.68
650.05	1773.54
650.23	1726.44
650.42	1746.92
650.61	1789.92
650.80	1810.40
650.99	1882.08
651.18	1748.97
651.36	1755.11
651.55	1771.49
651.74	1800.16
651.93	1753.06
652.12	1689.57
652.31	1701.86
652.49	1722.34
652.68	1652.71
652.87	1832.93
653.06	1722.34
653.25	1767.40
653.44	1708.01
653.62	1771.49
653.81	1675.24
654.00	1845.22
654.19	1818.60
654.38	1865.70
654.56	1791.97
654.75	1716.20
654.94	1763.30
655.13	1789.92
655.32	1722.34
655.51	1824.74
655.69	1683.43
655.88	1767.40
656.07	1665.00
656.26	1742.82
656.45	1683.43
656.63	1794.02
656.82	1712.10
657.01	1830.88
657.20	1744.87
657.38	1740.77
657.57	1693.67
657.76	1665.00
657.95	1761.25
658.14	1648.61
658.32	1751.01
658.51	1669.09
658.70	1736.68
658.89	1732.58
659.08	1669.09
659.26	1816.55
659.45	1708.01
659.64	1744.87
659.83	1703.91
660.01	1912.80
660.20	1726.44
660.39	1763.30
660.58	1570.79
660.76	1695.72
660.95	1665.00
661.14	1726.44
661.33	1736.68
661.51	1732.58
661.70	1708.01
661.89	1753.06
662.08	1779.68
662.26	1634.28
662.45	1777.64
662.64	1841.12
662.83	1843.17
663.01	1675.24
663.20	1708.01
663.39	1839.08
663.58	1759.21
663.76	1669.09
663.95	1738.73
664.14	1734.63
664.32	1712.10
664.51	1720.29
664.70	1656.81
664.89	1755.11
665.07	1701.86
665.26	1757.16
665.45	1636.33
665.64	1796.07
665.82	1720.29
666.01	1787.88
666.20	1681.38
666.38	1830.88
666.57	1800.16
666.76	2127.84
666.95	4495.29
667.13	10233.70
667.32	14917.40
667.51	17510.13
667.69	18593.51
667.88	17172.22
668.07	12214.09
668.25	9457.52
668.44	7909.26
668.63	7276.43
668.81	6619.04
669.00	6201.25
669.19	5599.15
669.38	5050.29
669.56	4509.63
669.75	4054.98
669.94	3424.20
670.12	2844.63
670.31	2357.21
670.50	2144.22
670.68	2062.30
670.87	1863.65
671.06	1755.11
671.24	1841.12
671.43	1785.83
671.62	1816.55
671.80	1757.16
671.99	1722.34
672.18	1800.16
672.36	1751.01
672.55	1783.78
672.74	1765.35
672.92	1755.11
673.11	1738.73
673.29	1744.87
673.48	1761.25
673.67	1767.40
673.85	1742.82
674.04	1695.72
674.23	1667.05
674.41	1851.36
674.60	1632.23
674.79	1615.85
674.97	1705.96
675.16	1775.59
675.34	1673.19
675.53	1718.25
675.72	1808.36
675.90	1861.60
676.09	1763.30
676.28	1718.25
676.46	1652.71
676.65	1765.35
676.83	1669.09
677.02	1736.68
677.21	1746.92
677.39	1718.25
677.58	1746.92
677.77	1716.20
677.95	1687.53
678.14	1689.57
678.32	1738.73
678.51	1703.91
678.70	1849.32
678.88	1671.14
679.07	1712.10
679.25	1757.16
679.44	1681.38
679.63	1644.52
679.81	1652.71
680.00	1824.74
680.18	1687.53
680.37	1818.60
680.55	1693.67
680.74	1628.14
680.93	1558.50
681.11	1742.82
681.30	1669.09
681.48	1722.34
681.67	1763.30
681.85	1687.53
682.04	1716.20
682.23	1746.92
682.41	1714.15
682.60	1708.01
682.78	1718.25
682.97	1714.15
683.15	1714.15
683.34	1779.68
683.53	1755.11
683.71	1677.29
683.90	1853.41
684.08	1779.68
684.27	1665.00
684.45	1751.01
684.64	1730.53
684.82	1763.30
685.01	1798.12
685.19	1724.39
685.38	1896.42
685.57	1654.76
685.75	1660.90
685.94	1689.57
686.12	1626.09
686.31	1712.10
686.49	1736.68
686.68	1615.85
686.86	1685.48
687.05	1773.54
687.23	1794.02
687.42	1738.73
687.60	1648.61
687.79	1796.07
687.97	1849.32
688.16	1882.08
688.34	1732.58
688.53	1503.21
688.71	1654.76
688.90	1843.17
689.08	1728.49
689.27	1673.19
689.45	1783.78
689.64	1791.97
689.82	1777.64
690.01	1687.53
690.19	1695.72
690.38	1744.87
690.56	1767.40
690.75	1628.14
690.93	1683.43
691.12	1630.18
691.30	1662.95
691.49	1716.20
691.67	1781.73
691.86	1804.26
692.04	1705.96
692.23	1697.77
692.41	1759.21
692.60	1863.65
692.78	1746.92
692.97	1777.64
693.15	1724.39
693.34	1904.61
693.52	1775.59
693.71	1667.05
693.89	1722.34
694.08	1611.75
694.26	1806.31
694.44	1695.72
694.63	1730.53
694.81	1695.72
695.00	1642.47
695.18	1732.58
695.37	1853.41
695.55	1687.53
695.74	1673.19
695.92	1703.91
696.10	1759.21
696.29	1583.08
696.47	1685.48
696.66	1656.81
696.84	1726.44
697.03	1708.01
697.21	1857.51
697.40	2363.36
697.58	1755.11
697.76	1708.01
697.95	1708.01
698.13	1638.38
698.32	1748.97
698.50	1757.16
698.68	1746.92
698.87	1775.59
699.05	1712.10
699.24	1689.57
699.42	1705.96
699.61	1705.96
699.79	1640.42
699.97	1759.21
700.16	1640.42
700.34	1665.00
700.53	1736.68
700.71	1802.21
700.89	1830.88
701.08	1736.68
701.26	1845.22
701.45	2084.83
701.63	1691.62
701.81	1748.97
702.00	1697.77
702.18	1791.97
702.37	1636.33
702.55	1773.54
702.73	1677.29
702.92	1658.85
703.10	1767.40
703.28	1775.59
703.47	1630.18
703.65	1771.49
703.84	1777.64
704.02	1736.68
704.20	1775.59
704.39	1679.33
704.57	1748.97
704.75	1775.59
704.94	1779.68
705.12	1720.29
705.30	1734.63
705.49	2293.72
705.67	4401.08
705.86	9156.47
706.04	12361.54
706.22	14147.37
706.41	15066.91
706.59	13438.77
706.77	9326.45
706.96	7245.71
707.14	6467.49
707.32	5957.54
707.51	5496.75
707.69	4820.92
707.87	4149.18
708.06	3526.60
708.24	3041.23
708.42	2336.73
708.61	2275.29
708.79	1949.67
708.97	1890.28
709.16	1892.32
709.34	1716.20
709.52	1714.15
709.71	1791.97
709.89	1744.87
710.07	1742.82
710.26	1660.90
710.44	1771.49
710.62	1771.49
710.80	1679.33
710.99	1753.06
711.17	1800.16
711.35	1746.92
711.54	1650.66
711.72	1816.55
711.90	1708.01
712.09	1761.25
712.27	1734.63
712.45	1718.25
712.63	1695.72
712.82	1769.44
713.00	1697.77
713.18	1789.92
713.37	1757.16
713.55	1730.53
713.73	1849.32
713.91	1779.68
714.10	1687.53
714.28	1607.66
714.46	1802.21
714.65	1716.20
714.83	1736.68
715.01	1753.06
715.19	1771.49
715.38	1726.44
715.56	1796.07
715.74	1636.33
715.92	1726.44
716.11	1779.68
716.29	1640.42
716.47	1724.39
716.65	1753.06
716.84	1722.34
717.02	1820.64
717.20	1720.29
717.38	1724.39
717.57	1742.82
717.75	1826.79
717.93	1705.96
718.11	1771.49
718.30	1605.61
718.48	1806.31
718.66	1830.88
718.84	1781.73
719.03	1757.16
719.21	1660.90
719.39	1796.07
719.57	1834.98
719.75	1820.64
719.94	1662.95
720.12	1681.38
720.30	1708.01
720.48	1867.75
720.67	1656.81
720.85	1751.01
721.03	1761.25
721.21	1693.67
721.39	1841.12
721.58	1685.48
721.76	1736.68
721.94	1699.81
722.12	1748.97
722.30	1781.73
722.49	1697.77
722.67	1673.19
722.85	1773.54
723.03	1677.29
723.21	1685.48
723.40	1660.90
723.58	1787.88
723.76	1773.54
723.94	1820.64
724.12	1656.81
724.30	1816.55
724.49	1767.40
724.67	1689.57
724.85	1800.16
725.03	1687.53
725.21	1714.15
725.40	1753.06
725.58	1619.94
725.76	1806.31
725.94	1751.01
726.12	1652.71
726.30	1705.96
726.49	1683.43
726.67	1685.48
726.85	1697.77
727.03	1759.21
727.21	2099.17
727.39	2936.79
727.57	3778.50
727.76	4194.24
727.94	4450.24
728.12	4351.93
728.30	3712.97
728.48	2947.03
728.66	2596.82
728.84	2555.86
729.03	2328.54
729.21	2152.42
729.39	2029.54
729.57	1863.65
729.75	1832.93
729.93	1855.46
730.11	1787.88
730.30	1708.01
730.48	1638.38
730.66	1814.50
730.84	1789.92
731.02	1746.92
731.20	1751.01
731.38	1703.91
731.56	1638.38
731.74	1734.63
731.93	1660.90
732.11	1730.53
732.29	1746.92
732.47	1734.63
732.65	1773.54
732.83	1853.41
733.01	1783.78
733.19	1705.96
733.37	1701.86
733.56	1734.63
733.74	1728.49
733.92	1744.87
734.10	1751.01
734.28	1751.01
734.46	1669.09
734.64	1636.33
734.82	1660.90
735.00	1638.38
735.18	1640.42
735.36	1677.29
735.54	1730.53
735.73	1705.96
735.91	1746.92
736.09	1796.07
736.27	1705.96
736.45	1761.25
736.63	1581.03
736.81	1671.14
736.99	1787.88
737.17	1873.89
737.35	1681.38
737.53	1746.92
737.71	1708.01
737.89	1820.64
738.07	1687.53
738.25	1591.27
738.43	1683.43
738.61	1626.09
738.80	1615.85
738.98	1679.33
739.16	1585.13
739.34	1656.81
739.52	1771.49
739.70	1761.25
739.88	1769.44
740.06	1718.25
740.24	1621.99
740.42	1779.68
740.60	1621.99
740.78	1701.86
740.96	1609.70
741.14	1765.35
741.32	1738.73
741.50	1728.49
741.68	1789.92
741.86	1810.40
742.04	1656.81
742.22	1689.57
742.40	1689.57
742.58	1785.83
742.76	1718.25
742.94	1781.73
743.12	1667.05
743.30	1642.47
743.48	1753.06
743.66	1658.85
743.84	1738.73
744.02	1697.77
744.20	1675.24
744.38	1652.71
744.56	1695.72
744.74	1843.17
744.92	1759.21
745.10	1771.49
745.28	1734.63
745.46	1789.92
745.64	1732.58
745.82	1746.92
746.00	1667.05
746.18	1810.40
746.36	1697.77
746.54	1710.05
746.72	1740.77
746.90	1652.71
747.08	1751.01
747.26	1652.71
747.44	1794.02
747.62	1861.60
747.80	1693.67
747.98	1769.44
748.15	1609.70
748.33	1804.26
748.51	1744.87
748.69	1812.45
748.87	1687.53
749.05	1628.14
749.23	1675.24
749.41	1695.72
749.59	1791.97
749.77	1740.77
749.95	1699.81
750.13	1785.83
750.31	1796.07
750.49	1673.19
750.67	1751.01
750.85	1849.32
751.03	1705.96
751.20	1845.22
751.38	1646.57
751.56	1734.63
751.74	1665.00
751.92	1767.40
752.10	1665.00
752.28	1781.73
752.46	1710.05
752.64	1697.77
752.82	1726.44
753.00	1845.22
753.18	1665.00
753.35	1662.95
753.53	1714.15
753.71	1716.20
753.89	1738.73
754.07	1708.01
754.25	1708.01
754.43	1701.86
754.61	1665.00
754.79	1720.29
754.97	1685.48
755.14	1755.11
755.32	1650.66
755.50	1708.01
755.68	1691.62
755.86	1697.77
756.04	1748.97
756.22	1597.42
756.40	1736.68
756.57	1785.83
756.75	1699.81
756.93	1779.68
757.11	1830.88
757.29	1738.73
757.47	1677.29
757.65	1640.42
757.82	1609.70
758.00	1615.85
758.18	1673.19
758.36	1689.57
758.54	1783.78
758.72	1699.81
758.90	1738.73
759.07	1660.90
759.25	1665.00
759.43	1759.21
759.61	1673.19
759.79	2312.16
759.97	1761.25
760.15	1689.57
760.32	1701.86
760.50	1722.34
760.68	1751.01
760.86	1693.67
761.04	1773.54
761.22	1744.87
761.39	1699.81
761.57	1695.72
761.75	1746.92
761.93	1763.30
762.11	1652.71
762.28	1691.62
762.46	1681.38
762.64	1787.88
762.82	1607.66
763.00	1687.53
763.18	1886.18
763.35	1603.56
763.53	1767.40
763.71	1722.34
763.89	1687.53
764.07	1710.05
764.24	1740.77
764.42	1755.11
764.60	1673.19
764.78	1751.01
764.96	1710.05
765.13	1773.54
765.31	1759.21
765.49	1722.34
765.67	1683.43
765.84	1669.09
766.02	1665.00
766.20	1669.09
766.38	1796.07
766.56	1746.92
766.73	1705.96
766.91	1701.86
767.09	1732.58
767.27	1734.63
767.44	1634.28
767.62	1824.74
767.80	1783.78
767.98	1779.68
768.15	1718.25
768.33	1751.01
768.51	1812.45
768.69	1771.49
768.87	1714.15
769.04	1726.44
769.22	1808.36
769.40	1877.99
769.58	1865.70
769.75	1714.15
769.93	1765.35
770.11	1642.47
770.28	1652.71
770.46	1759.21
770.64	1726.44
770.82	1646.57
770.99	1677.29
771.17	1730.53
771.35	1693.67
771.53	1714.15
771.70	1714.15
771.88	1802.21
772.06	1730.53
772.23	1753.06
772.41	1759.21
772.59	1683.43
772.77	1697.77
772.94	1658.85
773.12	1699.81
773.30	1654.76
773.47	1800.16
773.65	1689.57
773.83	1861.60
774.01	1769.44
774.18	1632.23
774.36	1662.95
774.54	1638.38
774.71	1662.95
774.89	1660.90
775.07	1677.29
775.24	1730.53
775.42	1708.01
775.60	1812.45
775.78	1665.00
775.95	1640.42
776.13	1568.74
776.31	1646.57
776.48	1714.15
776.66	1765.35
776.84	1744.87
777.01	1660.90
777.19	1654.76
777.37	1652.71
777.54	1642.47
777.72	1789.92
777.90	1691.62
778.07	1769.44
778.25	1945.57
778.43	1740.77
778.60	1710.05
778.78	1773.54
778.96	1800.16
779.13	1705.96
779.31	1757.16
779.49	1728.49
779.66	1650.66
779.84	1708.01
780.01	1718.25
780.19	1695.72
780.37	1800.16
780.54	1839.08
780.72	1734.63
780.90	1732.58
781.07	1736.68
781.25	1677.29
781.43	1730.53
781.60	1665.00
781.78	1802.21
781.95	1759.21
782.13	1632.23
782.31	1699.81
782.48	1632.23
782.66	1722.34
782.83	1783.78
783.01	1730.53
783.19	1767.40
783.36	1695.72
783.54	1738.73
783.72	1742.82
783.89	1677.29
784.07	1699.81
784.24	1724.39
784.42	1763.30
784.60	1767.40
784.77	1695.72
784.95	1576.94
785.12	1699.81
785.30	1708.01
785.47	1699.81
785.65	1640.42
785.83	1697.77
786.00	1687.53
786.18	1738.73
786.35	1636.33
786.53	1681.38
786.71	1746.92
786.88	1767.40
787.06	1753.06
787.23	1740.77
787.41	1617.90
787.58	1712.10
787.76	1681.38
787.94	1705.96
788.11	1685.48
788.29	1650.66
788.46	1648.61
788.64	1640.42
788.81	1652.71
788.99	1628.14
789.16	1656.81
789.34	1716.20
789.52	1679.33
789.69	1646.57
789.87	1669.09
790.04	1648.61
790.22	1650.66
790.39	1832.93
790.57	1597.42
790.74	1660.90
790.92	1736.68
791.09	1689.57
791.27	1742.82
791.44	1740.77
791.62	1607.66
791.79	1826.79
791.97	1718.25
792.15	1957.86
792.32	1701.86
792.50	1779.68
792.67	1814.50
792.85	1757.16
793.02	1730.53
793.20	1730.53
793.37	1705.96
793.55	1783.78
793.72	1675.24
793.90	1720.29
794.07	1656.81
794.25	1648.61
794.42	1761.25
794.60	1722.34
794.77	1738.73
794.95	1806.31
795.12	1697.77
795.30	1726.44
795.47	1632.23
795.65	1849.32
795.82	1701.86
796.00	1724.39
796.17	1673.19
796.34	1648.61
796.52	1710.05
796.69	1730.53
796.87	1734.63
797.04	1738.73
797.22	1732.58
797.39	1705.96
797.57	1779.68
797.74	1658.85
797.92	1726.44
798.09	1652.71
798.27	1742.82
798.44	1798.12
798.62	1736.68
798.79	1669.09
798.96	1656.81
799.14	1753.06
799.31	1783.78
799.49	1652.71
799.66	1738.73
799.84	1775.59
800.01	1613.80
800.19	1654.76
800.36	1699.81
800.53	1728.49
800.71	1656.81
800.88	1847.27
801.06	1712.10
801.23	1693.67
801.41	1716.20
801.58	1738.73
801.75	1646.57
801.93	1759.21
802.10	1746.92
802.28	1636.33
802.45	1662.95
802.63	1751.01
802.80	1777.64
802.97	1646.57
803.15	1742.82
803.32	1742.82
803.50	1607.66
803.67	1656.81
803.84	1650.66
804.02	1720.29
804.19	1687.53
804.37	1617.90
804.54	1636.33
804.71	1685.48
804.89	1667.05
805.06	1687.53
805.24	1597.42
805.41	1763.30
805.58	1669.09
805.76	1886.18
805.93	1740.77
806.10	1816.55
806.28	1765.35
806.45	1779.68
806.63	1789.92
806.80	1759.21
806.97	1705.96
807.15	1734.63
807.32	1720.29
807.49	1636.33
807.67	1613.80
807.84	1718.25
808.01	1675.24
808.19	1865.70
808.36	1873.89
808.54	1669.09
808.71	1685.48
808.88	1718.25
809.06	1695.72
809.23	1751.01
809.40	1589.22
809.58	1806.31
809.75	1710.05
809.92	1691.62
810.10	1923.04
810.27	1753.06
810.44	1681.38
810.62	1800.16
810.79	1732.58
810.96	1650.66
811.14	1748.97
811.31	1812.45
811.48	1693.67
811.66	1689.57
811.83	1759.21
812.00	1763.30
812.18	1699.81
812.35	1843.17
812.52	1701.86
812.69	1644.52
812.87	1734.63
813.04	1679.33
813.21	1662.95
813.39	1669.09
813.56	1613.80
813.73	1800.16
813.91	1630.18
814.08	1753.06
814.25	1748.97
814.42	1708.01
814.60	1734.63
814.77	1691.62
814.94	1693.67
815.12	1685.48
815.29	1789.92
815.46	1734.63
815.63	1685.48
815.81	1757.16
815.98	1738.73
816.15	1724.39
816.33	1693.67
816.50	1689.57
816.67	1701.86
816.84	1738.73
817.02	1691.62
817.19	1628.14
817.36	1691.62
817.53	1679.33
817.71	1720.29
817.88	1779.68
818.05	1759.21
818.22	1722.34
818.40	1812.45
818.57	1740.77
818.74	1800.16
818.91	1662.95
819.09	1724.39
819.26	1769.44
819.43	1632.23
819.60	1642.47
819.78	1767.40
819.95	1791.97
820.12	1701.86
820.29	1759.21
820.47	1814.50
820.64	1667.05
820.81	1574.89
820.98	1718.25
821.15	1624.04
821.33	1710.05
821.50	1640.42
821.67	1775.59
821.84	1660.90
822.02	1779.68
822.19	1738.73
822.36	1732.58
822.53	1677.29
822.70	1687.53
822.88	1728.49
823.05	1839.08
823.22	1669.09
823.39	1751.01
823.56	1726.44
823.74	1800.16
823.91	1802.21
824.08	1705.96
824.25	1724.39
824.42	1708.01
824.60	1699.81
824.77	1720.29
824.94	1746.92
825.11	1839.08
825.28	1566.70
825.45	1671.14
825.63	1683.43
825.80	1621.99
825.97	1753.06
826.14	1748.97
826.31	1652.71
826.48	1761.25
826.66	1689.57
826.83	1705.96
827.00	1689.57
827.17	1679.33
827.34	1722.34
827.51	1712.10
827.69	1716.20
827.86	1632.23
828.03	1679.33
828.20	1732.58
828.37	1677.29
828.54	1742.82
828.71	1638.38
828.89	1826.79
829.06	1710.05
829.23	1771.49
829.40	1644.52
829.57	1748.97
829.74	1744.87
829.91	1648.61
830.09	1716.20
830.26	1798.12
830.43	1802.21
830.60	1658.85
830.77	1787.88
830.94	1765.35
831.11	1691.62
831.28	1665.00
831.46	1763.30
831.63	1652.71
831.80	1806.31
831.97	1732.58
832.14	1673.19
832.31	1734.63
832.48	1734.63
832.65	1865.70
832.82	1705.96
832.99	1746.92
833.17	1697.77
833.34	1783.78
833.51	1677.29
833.68	1589.22
833.85	1728.49
834.02	1685.48
834.19	1697.77
834.36	1695.72
834.53	1695.72
834.70	1763.30
834.87	1787.88
835.04	1703.91
835.22	1632.23
835.39	1607.66
835.56	1601.51
835.73	1677.29
835.90	1810.40
836.07	1642.47
836.24	1783.78
836.41	1640.42
836.58	1691.62
836.75	1834.98
836.92	1687.53
837.09	1697.77
837.26	1783.78
837.43	1710.05
837.60	1748.97
837.77	1708.01
837.94	1765.35
838.12	1705.96
838.29	1712.10
838.46	1576.94
838.63	1564.65
838.80	1746.92
838.97	1687.53
839.14	1650.66
839.31	1693.67
839.48	1673.19
839.65	1656.81
839.82	1681.38
839.99	1689.57
840.16	1759.21
840.33	1665.00
840.50	1722.34
840.67	1714.15
840.84	1607.66
841.01	1740.77
841.18	1652.71
841.35	1720.29
841.52	1636.33
841.69	1818.60
841.86	1775.59
842.03	1734.63
842.20	1728.49
842.37	1687.53
842.54	1689.57
842.71	1701.86
842.88	1642.47
843.05	1826.79
843.22	1677.29
843.39	1734.63
843.56	1673.19
843.73	1716.20
843.90	1763.30
844.07	1720.29
844.24	1673.19
844.41	1728.49
844.58	1710.05
844.75	1681.38
844.92	1705.96
845.09	1708.01
845.26	1681.38
845.43	1689.57
845.60	1693.67
845.77	1802.21
845.94	1720.29
846.10	1693.67
846.27	1624.04
846.44	1626.09
846.61	1691.62
846.78	1640.42
846.95	1746.92
847.12	1693.67
847.29	1746.92
847.46	1675.24
847.63	1730.53
847.80	1718.25
847.97	1701.86
848.14	1845.22
848.31	1660.90
848.48	1619.94
848.65	1740.77
848.82	1714.15
848.98	1855.46
849.15	1787.88
849.32	1748.97
849.49	1724.39
849.66	1673.19
849.83	1665.00
850.00	1673.19
850.17	1746.92
850.34	1652.71
850.51	1681.38
850.68	1751.01
850.85	1869.80
851.01	1712.10
851.18	1591.27
851.35	1714.15
851.52	1767.40
851.69	1859.56
851.86	1638.38
852.03	1617.90
852.20	1804.26
852.37	1691.62
852.53	1587.18
852.70	1656.81
852.87	1624.04
853.04	1738.73
853.21	1724.39
853.38	1779.68
853.55	1746.92
853.72	1824.74
853.89	1626.09
854.05	1658.85
854.22	1712.10
854.39	1718.25
854.56	1759.21
854.73	1720.29
854.90	1603.56
855.07	1787.88
855.23	1648.61
855.40	1699.81
855.57	1687.53
855.74	1597.42
855.91	1855.46
856.08	1640.42
856.25	1595.37
856.41	1718.25
856.58	1693.67
856.75	1728.49
856.92	1652.71
857.09	1791.97
857.26	1654.76
857.42	1728.49
857.59	1720.29
857.76	1767.40
857.93	1738.73
858.10	1738.73
858.27	1673.19
858.43	1697.77
858.60	1652.71
858.77	1667.05
858.94	1662.95
859.11	1804.26
859.27	1650.66
859.44	1767.40
859.61	1830.88
859.78	1834.98
859.95	1712.10
860.12	1685.48
860.28	1794.02
860.45	1847.27
860.62	1732.58
860.79	1724.39
860.95	1687.53
861.12	1605.61
861.29	1693.67
861.46	1636.33
861.63	1662.95
861.79	1699.81
861.96	1671.14
862.13	1734.63
862.30	1828.84
862.47	1679.33
862.63	1656.81
862.80	1710.05
862.97	1771.49
863.14	1638.38
863.30	1724.39
863.47	1710.05
863.64	1828.84
863.81	1648.61
863.97	1697.77
864.14	1738.73
864.31	1701.86
864.48	1773.54
864.65	1724.39
864.81	1777.64
864.98	1775.59
865.15	1812.45
865.32	1763.30
865.48	1755.11
865.65	1777.64
865.82	1732.58
865.98	1687.53
866.15	1810.40
866.32	1746.92
866.49	1703.91
866.65	1769.44
866.82	1677.29
866.99	1808.36
867.16	1697.77
867.32	1638.38
867.49	1646.57
867.66	1662.95
867.83	1701.86
867.99	1662.95
868.16	1705.96
868.33	1626.09
868.49	1746.92
868.66	1640.42
868.83	1767.40
868.99	1624.04
869.16	1703.91
869.33	1728.49
869.50	1845.22
869.66	1656.81
869.83	1738.73
870.00	1648.61
870.16	1753.06
870.33	1675.24
870.50	1787.88
870.66	1697.77
870.83	1867.75
871.00	1736.68
871.17	1759.21
871.33	1742.82
871.50	1665.00
871.67	1734.63
871.83	1660.90
872.00	1728.49
872.17	1683.43
872.33	1787.88
872.50	1820.64
872.67	1626.09
872.83	1716.20
873.00	1728.49
873.17	1632.23
873.33	1708.01
873.50	1746.92
873.67	1677.29
873.83	1757.16
874.00	1644.52
874.16	1800.16
874.33	1669.09
874.50	1685.48
874.66	1705.96
874.83	1769.44
875.00	1775.59
875.16	1691.62
875.33	1775.59
875.50	1578.98
875.66	1712.10
875.83	1738.73
875.99	1685.48
876.16	1636.33
876.33	1660.90
876.49	1767.40
876.66	1730.53
876.83	1673.19
876.99	1671.14
877.16	1781.73
877.32	1662.95
877.49	1753.06
877.66	1779.68
877.82	1802.21
877.99	1796.07
878.15	1736.68
878.32	1697.77
878.49	1744.87
878.65	1769.44
878.82	1783.78
878.98	1564.65
879.15	1847.27
879.32	1777.64
879.48	1781.73
879.65	1714.15
879.81	1714.15
879.98	1726.44
880.15	1718.25
880.31	1746.92
880.48	1722.34
880.64	1753.06
880.81	1759.21
880.97	1830.88
881.14	1820.64
881.31	1730.53
881.47	1884.13
881.64	1753.06
881.80	1648.61
881.97	1695.72
882.13	1732.58
882.30	1628.14
882.47	1736.68
882.63	1708.01
882.80	1693.67
882.96	1644.52
883.13	1787.88
883.29	1697.77
883.46	1732.58
883.62	1767.40
883.79	1630.18
883.95	1722.34
884.12	1718.25
884.29	1781.73
884.45	1712.10
884.62	1781.73
884.78	1730.53
884.95	1787.88
885.11	1638.38
885.28	1763.30
885.44	1677.29
885.61	1761.25
885.77	1773.54
885.94	1722.34
886.10	1730.53
886.27	1755.11
886.43	1681.38
886.60	1767.40
886.76	1644.52
886.93	1712.10
887.09	1722.34
887.26	1634.28
887.42	1683.43
887.59	1740.77
887.75	1849.32
887.92	1806.31
888.08	1771.49
888.25	1875.94
888.41	1740.77
888.58	1740.77
888.74	1730.53
888.91	1648.61
>>>>>End Processed Spectral Data<<<<<
