SpectraSuite Data File
++++++++++++++++++++++++++++++++++++
Date: Mon Jun 06 13:16:57 CEST 2016
User: root
Dark Spectrum Present: No
Reference Spectrum Present: No
Number of Sampled Component Spectra: 1
Spectrometers: USB4C02835
Integration Time (usec): 100000 (USB4C02835)
Spectra Averaged: 1 (USB4C02835)
Boxcar Smoothing: 0 (USB4C02835)
Correct for Electrical Dark: No (USB4C02835)
Strobe/Lamp Enabled: No (USB4C02835)
Correct for Detector Non-linearity: No (USB4C02835)
Correct for Stray Light: No (USB4C02835)
Number of Pixels in Processed Spectrum: 3648
>>>>>Begin Processed Spectral Data<<<<<
177.47	1464.30
177.69	1464.30
177.91	1464.30
178.13	1423.34
178.36	1464.30
178.58	1646.57
178.80	1673.19
179.02	1617.90
179.24	1732.58
179.46	1718.25
179.68	1687.53
179.90	1673.19
180.13	1658.85
180.35	1619.94
180.57	1669.09
180.79	1748.97
181.01	1656.81
181.23	1730.53
181.45	1740.77
181.67	1732.58
181.90	1730.53
182.12	1626.09
182.34	1570.79
182.56	1759.21
182.78	1738.73
183.00	1730.53
183.22	1673.19
183.44	1630.18
183.66	1851.36
183.89	1812.45
184.11	1695.72
184.33	1761.25
184.55	1798.12
184.77	1712.10
184.99	1705.96
185.21	1714.15
185.43	1867.75
185.65	1492.97
185.87	1708.01
186.10	1787.88
186.32	1722.34
186.54	1722.34
186.76	1667.05
186.98	1779.68
187.20	1751.01
187.42	1644.52
187.64	1767.40
187.86	1753.06
188.08	1761.25
188.30	1624.04
188.52	1687.53
188.75	1765.35
188.97	1746.92
189.19	1765.35
189.41	1722.34
189.63	1685.48
189.85	1712.10
190.07	1599.46
190.29	1583.08
190.51	1757.16
190.73	1740.77
190.95	1744.87
191.17	1648.61
191.39	1621.99
191.61	1689.57
191.84	1697.77
192.06	1714.15
192.28	1624.04
192.50	1886.18
192.72	1783.78
192.94	1636.33
193.16	1783.78
193.38	1681.38
193.60	1722.34
193.82	1755.11
194.04	1751.01
194.26	1691.62
194.48	1720.29
194.70	1634.28
194.92	1685.48
195.14	1705.96
195.36	1744.87
195.58	1695.72
195.80	1685.48
196.02	1742.82
196.24	1691.62
196.46	1771.49
196.69	1636.33
196.91	1896.42
197.13	1708.01
197.35	1644.52
197.57	1812.45
197.79	1703.91
198.01	1662.95
198.23	1730.53
198.45	1755.11
198.67	1628.14
198.89	1644.52
199.11	1669.09
199.33	1609.70
199.55	1626.09
199.77	1681.38
199.99	1726.44
200.21	1681.38
200.43	1685.48
200.65	1656.81
200.87	1611.75
201.09	1697.77
201.31	1644.52
201.53	1779.68
201.75	1779.68
201.97	1751.01
202.19	1701.86
202.41	1673.19
202.63	1720.29
202.85	1748.97
203.07	1746.92
203.29	1738.73
203.51	1591.27
203.73	1677.29
203.95	1847.27
204.17	1697.77
204.39	1681.38
204.61	1624.04
204.83	1650.66
205.05	1687.53
205.27	1751.01
205.49	1824.74
205.71	1648.61
205.93	1587.18
206.15	1730.53
206.37	1703.91
206.59	1693.67
206.81	1574.89
207.03	1619.94
207.25	1638.38
207.47	1767.40
207.69	1689.57
207.91	1724.39
208.13	1808.36
208.34	1693.67
208.56	1603.56
208.78	1697.77
209.00	1634.28
209.22	1691.62
209.44	1705.96
209.66	1671.14
209.88	1656.81
210.10	1662.95
210.32	1718.25
210.54	1722.34
210.76	1708.01
210.98	1781.73
211.20	1562.60
211.42	1730.53
211.64	1820.64
211.86	1738.73
212.08	1687.53
212.30	1638.38
212.52	1589.22
212.74	1667.05
212.96	1710.05
213.17	1781.73
213.39	1689.57
213.61	1802.21
213.83	1775.59
214.05	1642.47
214.27	1732.58
214.49	1691.62
214.71	1716.20
214.93	1771.49
215.15	1595.37
215.37	1759.21
215.59	1630.18
215.81	1718.25
216.03	1710.05
216.24	1722.34
216.46	1687.53
216.68	1681.38
216.90	1710.05
217.12	1767.40
217.34	1712.10
217.56	1685.48
217.78	1734.63
218.00	1646.57
218.22	1820.64
218.44	1746.92
218.66	1744.87
218.87	1726.44
219.09	1748.97
219.31	1691.62
219.53	1695.72
219.75	1611.75
219.97	1642.47
220.19	1751.01
220.41	1628.14
220.63	1753.06
220.85	1708.01
221.06	1624.04
221.28	1787.88
221.50	1671.14
221.72	1697.77
221.94	1722.34
222.16	1732.58
222.38	1757.16
222.60	1789.92
222.82	1687.53
223.03	1755.11
223.25	1560.55
223.47	1759.21
223.69	1814.50
223.91	1714.15
224.13	1742.82
224.35	1636.33
224.57	1724.39
224.78	1742.82
225.00	1675.24
225.22	1787.88
225.44	1642.47
225.66	1740.77
225.88	1687.53
226.10	1734.63
226.32	1736.68
226.53	1761.25
226.75	1650.66
226.97	1660.90
227.19	1685.48
227.41	1611.75
227.63	1654.76
227.85	1550.31
228.06	1732.58
228.28	1742.82
228.50	1771.49
228.72	1640.42
228.94	1691.62
229.16	1613.80
229.37	1675.24
229.59	1669.09
229.81	1681.38
230.03	1677.29
230.25	1660.90
230.47	1630.18
230.69	1632.23
230.90	1722.34
231.12	1642.47
231.34	1740.77
231.56	1748.97
231.78	1632.23
232.00	1677.29
232.21	1710.05
232.43	1595.37
232.65	1601.51
232.87	1783.78
233.09	1572.84
233.30	1650.66
233.52	1738.73
233.74	1718.25
233.96	1665.00
234.18	1628.14
234.40	1644.52
234.61	1769.44
234.83	1615.85
235.05	1603.56
235.27	1794.02
235.49	1660.90
235.70	1669.09
235.92	1757.16
236.14	1765.35
236.36	1804.26
236.58	1581.03
236.79	1755.11
237.01	1673.19
237.23	1628.14
237.45	1755.11
237.67	1630.18
237.88	1693.67
238.10	1828.84
238.32	1558.50
238.54	1734.63
238.76	1681.38
238.97	1542.12
239.19	1652.71
239.41	1839.08
239.63	1738.73
239.85	1634.28
240.06	1691.62
240.28	1701.86
240.50	1765.35
240.72	1738.73
240.93	1734.63
241.15	1765.35
241.37	1697.77
241.59	1763.30
241.81	1673.19
242.02	1667.05
242.24	1701.86
242.46	1763.30
242.68	1667.05
242.89	1685.48
243.11	1703.91
243.33	1656.81
243.55	1757.16
243.76	1736.68
243.98	1644.52
244.20	1746.92
244.42	1681.38
244.64	1767.40
244.85	1683.43
245.07	1650.66
245.29	1724.39
245.51	1712.10
245.72	1681.38
245.94	1730.53
246.16	1740.77
246.38	1738.73
246.59	1650.66
246.81	1607.66
247.03	1697.77
247.24	1585.13
247.46	1646.57
247.68	1673.19
247.90	1693.67
248.11	1689.57
248.33	1691.62
248.55	1687.53
248.77	1636.33
248.98	1722.34
249.20	1773.54
249.42	1646.57
249.64	1740.77
249.85	1681.38
250.07	1667.05
250.29	1742.82
250.50	1671.14
250.72	1638.38
250.94	1683.43
251.16	1847.27
251.37	1755.11
251.59	1753.06
251.81	1753.06
252.02	1751.01
252.24	1703.91
252.46	1716.20
252.68	1646.57
252.89	1652.71
253.11	1615.85
253.33	1675.24
253.54	1742.82
253.76	1626.09
253.98	1640.42
254.20	1748.97
254.41	1607.66
254.63	1689.57
254.85	1595.37
255.06	1693.67
255.28	1718.25
255.50	1695.72
255.71	1662.95
255.93	1617.90
256.15	1757.16
256.36	1751.01
256.58	1650.66
256.80	1773.54
257.02	1742.82
257.23	1673.19
257.45	1703.91
257.67	1708.01
257.88	1660.90
258.10	1685.48
258.32	1654.76
258.53	1642.47
258.75	1808.36
258.97	1710.05
259.18	1763.30
259.40	1679.33
259.62	1701.86
259.83	1822.69
260.05	1796.07
260.27	1988.58
260.48	1703.91
260.70	1662.95
260.92	1634.28
261.13	1755.11
261.35	1665.00
261.57	1705.96
261.78	1597.42
262.00	1591.27
262.22	1714.15
262.43	1648.61
262.65	1691.62
262.86	1714.15
263.08	1820.64
263.30	1685.48
263.51	1615.85
263.73	1630.18
263.95	1806.31
264.16	1591.27
264.38	1619.94
264.60	1740.77
264.81	1718.25
265.03	1734.63
265.25	1779.68
265.46	1728.49
265.68	1679.33
265.89	1640.42
266.11	1638.38
266.33	1697.77
266.54	1677.29
266.76	1710.05
266.98	1693.67
267.19	1828.84
267.41	1697.77
267.62	1652.71
267.84	1628.14
268.06	1689.57
268.27	1640.42
268.49	1705.96
268.70	1800.16
268.92	1753.06
269.14	1605.61
269.35	1587.18
269.57	1685.48
269.79	1724.39
270.00	1718.25
270.22	1779.68
270.43	1671.14
270.65	1632.23
270.87	1624.04
271.08	1753.06
271.30	1748.97
271.51	1652.71
271.73	1767.40
271.95	1763.30
272.16	1720.29
272.38	1722.34
272.59	1640.42
272.81	1757.16
273.02	1611.75
273.24	1794.02
273.46	1695.72
273.67	1634.28
273.89	1589.22
274.10	1658.85
274.32	1763.30
274.54	1697.77
274.75	1669.09
274.97	1642.47
275.18	1753.06
275.40	1708.01
275.61	1724.39
275.83	1714.15
276.05	1611.75
276.26	1611.75
276.48	1800.16
276.69	1685.48
276.91	1687.53
277.12	1812.45
277.34	1753.06
277.55	1834.98
277.77	1687.53
277.99	1679.33
278.20	1652.71
278.42	1650.66
278.63	1640.42
278.85	1669.09
279.06	1581.03
279.28	1685.48
279.49	1822.69
279.71	1730.53
279.93	1675.24
280.14	1703.91
280.36	1697.77
280.57	1785.83
280.79	1740.77
281.00	1630.18
281.22	1720.29
281.43	1777.64
281.65	1570.79
281.86	1716.20
282.08	1742.82
282.29	1824.74
282.51	1601.51
282.73	1748.97
282.94	1558.50
283.16	1716.20
283.37	1718.25
283.59	1675.24
283.80	1759.21
284.02	1724.39
284.23	1712.10
284.45	1699.81
284.66	1669.09
284.88	1634.28
285.09	1677.29
285.31	1744.87
285.52	1712.10
285.74	1572.84
285.95	1708.01
286.17	1669.09
286.38	1742.82
286.60	1644.52
286.81	1669.09
287.03	1703.91
287.24	1656.81
287.46	1755.11
287.67	1636.33
287.89	1816.55
288.10	1724.39
288.32	1759.21
288.53	1759.21
288.75	1767.40
288.96	1755.11
289.18	1673.19
289.39	1710.05
289.61	1710.05
289.82	1837.03
290.04	1810.40
290.25	1624.04
290.47	1736.68
290.68	1652.71
290.90	1685.48
291.11	1632.23
291.33	1783.78
291.54	1648.61
291.76	1667.05
291.97	1738.73
292.18	1714.15
292.40	1712.10
292.61	1595.37
292.83	1800.16
293.04	1714.15
293.26	1665.00
293.47	1726.44
293.69	1648.61
293.90	1701.86
294.12	1773.54
294.33	1613.80
294.55	1744.87
294.76	1771.49
294.97	1701.86
295.19	1839.08
295.40	1691.62
295.62	1675.24
295.83	1710.05
296.05	1705.96
296.26	1662.95
296.48	1712.10
296.69	1673.19
296.90	1705.96
297.12	1732.58
297.33	1746.92
297.55	1671.14
297.76	1679.33
297.98	1767.40
298.19	1728.49
298.41	1667.05
298.62	1572.84
298.83	1880.04
299.05	1712.10
299.26	1648.61
299.48	1714.15
299.69	1748.97
299.90	1714.15
300.12	1714.15
300.33	1763.30
300.55	1652.71
300.76	1759.21
300.98	1683.43
301.19	1773.54
301.40	1671.14
301.62	1697.77
301.83	1724.39
302.05	1658.85
302.26	1665.00
302.47	1771.49
302.69	1619.94
302.90	1693.67
303.12	1611.75
303.33	1736.68
303.54	1777.64
303.76	1724.39
303.97	1701.86
304.19	1826.79
304.40	1667.05
304.61	1656.81
304.83	1757.16
305.04	1816.55
305.26	1730.53
305.47	1609.70
305.68	1703.91
305.90	1660.90
306.11	1748.97
306.33	1681.38
306.54	1644.52
306.75	1697.77
306.97	1640.42
307.18	1652.71
307.39	1652.71
307.61	1763.30
307.82	1646.57
308.04	1791.97
308.25	1585.13
308.46	1656.81
308.68	1751.01
308.89	1669.09
309.10	1763.30
309.32	1699.81
309.53	1710.05
309.74	1726.44
309.96	1701.86
310.17	1814.50
310.39	1769.44
310.60	1724.39
310.81	1658.85
311.03	1570.79
311.24	1703.91
311.45	1691.62
311.67	1761.25
311.88	1681.38
312.09	1652.71
312.31	1656.81
312.52	1748.97
312.73	1693.67
312.95	1660.90
313.16	1699.81
313.37	1787.88
313.59	1714.15
313.80	1748.97
314.01	1736.68
314.23	1753.06
314.44	1675.24
314.65	1665.00
314.87	1669.09
315.08	1724.39
315.29	1638.38
315.51	1593.32
315.72	1667.05
315.93	1679.33
316.15	1765.35
316.36	1732.58
316.57	1714.15
316.79	1710.05
317.00	1636.33
317.21	1691.62
317.43	1628.14
317.64	1714.15
317.85	1765.35
318.07	1638.38
318.28	1785.83
318.49	1789.92
318.70	1970.15
318.92	1904.61
319.13	1877.99
319.34	1847.27
319.56	1804.26
319.77	1738.73
319.98	1812.45
320.20	1726.44
320.41	1808.36
320.62	1765.35
320.83	1634.28
321.05	1873.89
321.26	1685.48
321.47	1658.85
321.69	1830.88
321.90	1613.80
322.11	1648.61
322.32	1675.24
322.54	1824.74
322.75	1734.63
322.96	1742.82
323.18	1669.09
323.39	1699.81
323.60	1570.79
323.81	1734.63
324.03	1669.09
324.24	1748.97
324.45	1746.92
324.66	1665.00
324.88	1812.45
325.09	1769.44
325.30	1722.34
325.52	1765.35
325.73	1681.38
325.94	1697.77
326.15	1591.27
326.37	1650.66
326.58	1703.91
326.79	1841.12
327.00	1615.85
327.22	1724.39
327.43	1718.25
327.64	1624.04
327.85	1746.92
328.07	1708.01
328.28	1806.31
328.49	1712.10
328.70	1705.96
328.92	1693.67
329.13	1701.86
329.34	1769.44
329.55	1755.11
329.76	1710.05
329.98	1714.15
330.19	1785.83
330.40	1710.05
330.61	1734.63
330.83	1748.97
331.04	1673.19
331.25	1736.68
331.46	1691.62
331.68	1591.27
331.89	1761.25
332.10	1785.83
332.31	1667.05
332.52	1667.05
332.74	1789.92
332.95	1591.27
333.16	1730.53
333.37	1740.77
333.58	1742.82
333.80	1757.16
334.01	1650.66
334.22	1685.48
334.43	1599.46
334.64	1705.96
334.86	1576.94
335.07	1605.61
335.28	1744.87
335.49	1570.79
335.70	1724.39
335.92	1714.15
336.13	1810.40
336.34	1691.62
336.55	1812.45
336.76	1736.68
336.98	1562.60
337.19	1650.66
337.40	1783.78
337.61	1857.51
337.82	1705.96
338.04	1800.16
338.25	1601.51
338.46	1720.29
338.67	1603.56
338.88	1691.62
339.09	1675.24
339.31	1607.66
339.52	1587.18
339.73	1640.42
339.94	1640.42
340.15	1683.43
340.36	1681.38
340.58	1693.67
340.79	1656.81
341.00	1734.63
341.21	1617.90
341.42	1761.25
341.63	1697.77
341.85	1722.34
342.06	1705.96
342.27	1638.38
342.48	1710.05
342.69	1630.18
342.90	1671.14
343.12	1716.20
343.33	1593.32
343.54	1632.23
343.75	1783.78
343.96	1701.86
344.17	1644.52
344.38	1642.47
344.60	1609.70
344.81	1652.71
345.02	1646.57
345.23	1853.41
345.44	1755.11
345.65	1806.31
345.86	1732.58
346.07	1665.00
346.29	1638.38
346.50	1685.48
346.71	1708.01
346.92	1771.49
347.13	1796.07
347.34	1730.53
347.55	1697.77
347.76	1673.19
347.98	1673.19
348.19	1646.57
348.40	1798.12
348.61	1693.67
348.82	1779.68
349.03	1673.19
349.24	1656.81
349.45	1693.67
349.66	1552.36
349.88	1734.63
350.09	1650.66
350.30	1730.53
350.51	1736.68
350.72	1636.33
350.93	1718.25
351.14	1673.19
351.35	1724.39
351.56	1683.43
351.77	1640.42
351.99	1736.68
352.20	1814.50
352.41	1751.01
352.62	1593.32
352.83	1722.34
353.04	1667.05
353.25	1652.71
353.46	1751.01
353.67	1759.21
353.88	1470.44
354.09	1654.76
354.30	1753.06
354.52	1765.35
354.73	1662.95
354.94	1615.85
355.15	1714.15
355.36	1740.77
355.57	1695.72
355.78	1730.53
355.99	1689.57
356.20	1665.00
356.41	1767.40
356.62	1693.67
356.83	1677.29
357.04	1794.02
357.25	1597.42
357.46	1718.25
357.68	1615.85
357.89	1675.24
358.10	1701.86
358.31	1691.62
358.52	1726.44
358.73	1613.80
358.94	1654.76
359.15	1642.47
359.36	1722.34
359.57	1701.86
359.78	1718.25
359.99	1779.68
360.20	1648.61
360.41	1691.62
360.62	1771.49
360.83	1722.34
361.04	1712.10
361.25	1687.53
361.46	1755.11
361.67	1665.00
361.88	1693.67
362.09	1763.30
362.30	1789.92
362.51	1648.61
362.72	1724.39
362.93	1697.77
363.14	1722.34
363.35	1705.96
363.56	1677.29
363.78	1779.68
363.99	1693.67
364.20	1691.62
364.41	1695.72
364.62	1775.59
364.83	1763.30
365.04	1730.53
365.25	1744.87
365.46	1773.54
365.67	1683.43
365.88	1660.90
366.09	1597.42
366.30	1605.61
366.51	1681.38
366.72	1609.70
366.93	1689.57
367.14	1755.11
367.35	1841.12
367.56	1640.42
367.77	1791.97
367.98	1753.06
368.18	1701.86
368.39	1675.24
368.60	1652.71
368.81	1746.92
369.02	1746.92
369.23	1740.77
369.44	1589.22
369.65	1693.67
369.86	1705.96
370.07	1755.11
370.28	1671.14
370.49	1759.21
370.70	1667.05
370.91	1681.38
371.12	1607.66
371.33	1703.91
371.54	1746.92
371.75	1753.06
371.96	1632.23
372.17	1777.64
372.38	1703.91
372.59	1722.34
372.80	1722.34
373.01	1738.73
373.22	1773.54
373.43	1726.44
373.64	1591.27
373.85	1710.05
374.06	1820.64
374.26	1759.21
374.47	1669.09
374.68	1730.53
374.89	1648.61
375.10	1630.18
375.31	1738.73
375.52	1693.67
375.73	1654.76
375.94	1650.66
376.15	1888.23
376.36	1652.71
376.57	1673.19
376.78	1679.33
376.99	1730.53
377.20	1722.34
377.40	1654.76
377.61	1767.40
377.82	1654.76
378.03	1746.92
378.24	1779.68
378.45	1724.39
378.66	1708.01
378.87	1636.33
379.08	1626.09
379.29	1695.72
379.50	1808.36
379.71	1714.15
379.91	1769.44
380.12	1650.66
380.33	1769.44
380.54	1703.91
380.75	1691.62
380.96	1724.39
381.17	1742.82
381.38	1718.25
381.59	1738.73
381.80	1730.53
382.00	1834.98
382.21	1816.55
382.42	1787.88
382.63	1834.98
382.84	1753.06
383.05	1751.01
383.26	1861.60
383.47	1822.69
383.68	1726.44
383.88	1771.49
384.09	1763.30
384.30	1785.83
384.51	1720.29
384.72	1662.95
384.93	1681.38
385.14	1710.05
385.35	1730.53
385.55	1538.02
385.76	1783.78
385.97	1738.73
386.18	1665.00
386.39	1615.85
386.60	1685.48
386.81	1648.61
387.02	1638.38
387.22	1646.57
387.43	1759.21
387.64	1718.25
387.85	1869.80
388.06	2242.53
388.27	4184.00
388.48	6768.54
388.68	8081.28
388.89	9426.80
389.10	9879.40
389.31	8458.11
389.52	7339.92
389.73	6690.71
389.93	6166.43
390.14	5797.80
390.35	5263.28
390.56	4503.48
390.77	3649.48
390.98	2996.18
391.18	2629.59
391.39	2127.84
391.60	1849.32
391.81	1828.84
392.02	1677.29
392.23	1865.70
392.43	1828.84
392.64	1720.29
392.85	1742.82
393.06	1763.30
393.27	1679.33
393.47	1617.90
393.68	1685.48
393.89	1626.09
394.10	1783.78
394.31	1681.38
394.52	1677.29
394.72	1675.24
394.93	1787.88
395.14	1662.95
395.35	1740.77
395.56	1794.02
395.76	1683.43
395.97	1732.58
396.18	1810.40
396.39	1884.13
396.60	2029.54
396.80	1880.04
397.01	1818.60
397.22	1808.36
397.43	1820.64
397.64	1691.62
397.84	1808.36
398.05	1847.27
398.26	1734.63
398.47	1787.88
398.67	1734.63
398.88	1744.87
399.09	1738.73
399.30	1720.29
399.51	1660.90
399.71	1562.60
399.92	1683.43
400.13	1683.43
400.34	1730.53
400.54	1720.29
400.75	1812.45
400.96	1705.96
401.17	1810.40
401.37	1771.49
401.58	1691.62
401.79	1708.01
402.00	1839.08
402.21	2033.63
402.41	1994.72
402.62	1992.67
402.83	2037.73
403.04	2009.06
403.24	2009.06
403.45	1830.88
403.66	1882.08
403.87	1849.32
404.07	1931.23
404.28	1871.84
404.49	1929.19
404.70	1710.05
404.90	1796.07
405.11	1679.33
405.32	1771.49
405.52	1630.18
405.73	1628.14
405.94	1701.86
406.15	1703.91
406.35	1683.43
406.56	1712.10
406.77	1695.72
406.98	1593.32
407.18	1716.20
407.39	1796.07
407.60	1578.98
407.80	1673.19
408.01	1654.76
408.22	1728.49
408.43	1656.81
408.63	1714.15
408.84	1753.06
409.05	1761.25
409.25	1605.61
409.46	1685.48
409.67	1687.53
409.88	1693.67
410.08	1716.20
410.29	1642.47
410.50	1705.96
410.70	1660.90
410.91	1662.95
411.12	1738.73
411.32	1677.29
411.53	1677.29
411.74	1769.44
411.95	1781.73
412.15	1759.21
412.36	1804.26
412.57	1791.97
412.77	1783.78
412.98	1734.63
413.19	1693.67
413.39	1693.67
413.60	1744.87
413.81	1794.02
414.01	1628.14
414.22	1759.21
414.43	1691.62
414.63	1705.96
414.84	1779.68
415.05	1755.11
415.25	1728.49
415.46	1775.59
415.67	1730.53
415.87	1751.01
416.08	1667.05
416.29	1673.19
416.49	1712.10
416.70	1701.86
416.91	1667.05
417.11	1685.48
417.32	1714.15
417.53	1730.53
417.73	1740.77
417.94	1703.91
418.15	1748.97
418.35	1722.34
418.56	1671.14
418.77	1773.54
418.97	1791.97
419.18	1751.01
419.38	1578.98
419.59	1718.25
419.80	1726.44
420.00	1673.19
420.21	1660.90
420.42	1740.77
420.62	1722.34
420.83	1689.57
421.04	1705.96
421.24	1703.91
421.45	1773.54
421.65	1679.33
421.86	1660.90
422.07	1705.96
422.27	1642.47
422.48	1722.34
422.69	1693.67
422.89	1683.43
423.10	1710.05
423.30	1650.66
423.51	1716.20
423.72	1714.15
423.92	1746.92
424.13	1712.10
424.33	1701.86
424.54	1853.41
424.75	1677.29
424.95	1779.68
425.16	1730.53
425.36	1691.62
425.57	1783.78
425.78	1685.48
425.98	1720.29
426.19	1687.53
426.39	1609.70
426.60	1705.96
426.81	1781.73
427.01	1650.66
427.22	1642.47
427.42	1597.42
427.63	1669.09
427.83	1791.97
428.04	1871.84
428.25	1800.16
428.45	1763.30
428.66	1779.68
428.86	1732.58
429.07	1738.73
429.28	1716.20
429.48	1734.63
429.69	1583.08
429.89	1755.11
430.10	1693.67
430.30	1804.26
430.51	1691.62
430.71	1640.42
430.92	1691.62
431.13	1701.86
431.33	1695.72
431.54	1697.77
431.74	1759.21
431.95	1742.82
432.15	1689.57
432.36	1759.21
432.56	1681.38
432.77	1814.50
432.98	1767.40
433.18	1730.53
433.39	1701.86
433.59	1705.96
433.80	1820.64
434.00	1828.84
434.21	1695.72
434.41	1683.43
434.62	1888.23
434.82	1617.90
435.03	1648.61
435.23	1736.68
435.44	1587.18
435.64	1677.29
435.85	1730.53
436.06	1785.83
436.26	1828.84
436.47	1695.72
436.67	1714.15
436.88	1712.10
437.08	1718.25
437.29	1746.92
437.49	1804.26
437.70	1832.93
437.90	1716.20
438.11	1851.36
438.31	1779.68
438.52	1808.36
438.72	1800.16
438.93	1736.68
439.13	1783.78
439.34	1828.84
439.54	1755.11
439.75	1814.50
439.95	1779.68
440.16	1693.67
440.36	1699.81
440.57	1779.68
440.77	1691.62
440.98	1785.83
441.18	1757.16
441.39	1656.81
441.59	1644.52
441.80	1884.13
442.00	1740.77
442.21	1845.22
442.41	1603.56
442.62	1759.21
442.82	1769.44
443.02	1689.57
443.23	1773.54
443.43	1732.58
443.64	1806.31
443.84	1718.25
444.05	1728.49
444.25	1724.39
444.46	1705.96
444.66	1746.92
444.87	1802.21
445.07	1681.38
445.28	1732.58
445.48	1787.88
445.69	1830.88
445.89	1910.75
446.09	1740.77
446.30	2039.78
446.50	2631.64
446.71	3729.35
446.91	4302.78
447.12	4640.70
447.32	4822.97
447.53	4323.26
447.73	3755.97
447.93	3483.59
448.14	3327.95
448.34	3119.06
448.55	2834.39
448.75	2766.81
448.96	2666.46
449.16	2363.36
449.36	2201.57
449.57	1978.34
449.77	1943.52
449.98	1732.58
450.18	1761.25
450.39	1802.21
450.59	1736.68
450.79	1744.87
451.00	1677.29
451.20	1810.40
451.41	1689.57
451.61	1681.38
451.81	1724.39
452.02	1701.86
452.22	1673.19
452.43	1691.62
452.63	1730.53
452.84	1695.72
453.04	1732.58
453.24	1712.10
453.45	1699.81
453.65	1791.97
453.86	1789.92
454.06	1679.33
454.26	1798.12
454.47	1687.53
454.67	1810.40
454.87	1775.59
455.08	1648.61
455.28	1861.60
455.49	1783.78
455.69	1701.86
455.89	1789.92
456.10	1787.88
456.30	1738.73
456.51	1744.87
456.71	1695.72
456.91	1703.91
457.12	1705.96
457.32	1734.63
457.52	1683.43
457.73	1791.97
457.93	1781.73
458.14	1660.90
458.34	1615.85
458.54	1755.11
458.75	1689.57
458.95	1726.44
459.15	1751.01
459.36	1730.53
459.56	1832.93
459.76	1839.08
459.97	1738.73
460.17	1681.38
460.37	1726.44
460.58	1693.67
460.78	1730.53
460.99	1673.19
461.19	1730.53
461.39	1777.64
461.60	1701.86
461.80	1740.77
462.00	1685.48
462.21	1685.48
462.41	1712.10
462.61	1652.71
462.82	1697.77
463.02	1757.16
463.22	1701.86
463.43	1800.16
463.63	1757.16
463.83	1705.96
464.04	1796.07
464.24	1767.40
464.44	1656.81
464.64	1701.86
464.85	1806.31
465.05	1777.64
465.25	1824.74
465.46	1669.09
465.66	1712.10
465.86	1714.15
466.07	1773.54
466.27	1738.73
466.47	1705.96
466.68	1628.14
466.88	1761.25
467.08	1746.92
467.29	1720.29
467.49	1757.16
467.69	1775.59
467.89	1751.01
468.10	1708.01
468.30	1689.57
468.50	1767.40
468.71	1761.25
468.91	1656.81
469.11	1816.55
469.31	1746.92
469.52	1619.94
469.72	1826.79
469.92	1855.46
470.13	1718.25
470.33	1652.71
470.53	1867.75
470.73	2064.35
470.94	2213.85
471.14	2308.06
471.34	2547.67
471.54	2359.26
471.75	2215.90
471.95	2097.12
472.15	2099.17
472.36	2160.61
472.56	2011.11
472.76	2109.41
472.96	1888.23
473.17	1853.41
473.37	1947.62
473.57	1787.88
473.77	1808.36
473.98	1742.82
474.18	1634.28
474.38	1906.66
474.58	1640.42
474.79	1703.91
474.99	1753.06
475.19	1734.63
475.39	1642.47
475.60	1722.34
475.80	1740.77
476.00	1722.34
476.20	1724.39
476.41	1773.54
476.61	1853.41
476.81	1771.49
477.01	1609.70
477.21	1877.99
477.42	1851.36
477.62	1634.28
477.82	1718.25
478.02	1677.29
478.23	1746.92
478.43	1695.72
478.63	1787.88
478.83	1751.01
479.03	1667.05
479.24	1810.40
479.44	1865.70
479.64	1669.09
479.84	1619.94
480.04	1591.27
480.25	1724.39
480.45	1660.90
480.65	1703.91
480.85	1742.82
481.06	1714.15
481.26	1701.86
481.46	1726.44
481.66	1744.87
481.86	1689.57
482.06	1804.26
482.27	1742.82
482.47	1785.83
482.67	1718.25
482.87	1652.71
483.07	1791.97
483.28	1669.09
483.48	1605.61
483.68	1656.81
483.88	1638.38
484.08	1591.27
484.29	1718.25
484.49	1669.09
484.69	1615.85
484.89	1718.25
485.09	1759.21
485.29	1812.45
485.50	1781.73
485.70	1677.29
485.90	1812.45
486.10	1767.40
486.30	1624.04
486.50	1718.25
486.71	1734.63
486.91	1705.96
487.11	1734.63
487.31	1603.56
487.51	1740.77
487.71	1656.81
487.91	1691.62
488.12	1740.77
488.32	1650.66
488.52	1660.90
488.72	1615.85
488.92	1775.59
489.12	1724.39
489.32	1755.11
489.53	1693.67
489.73	1697.77
489.93	1705.96
490.13	1755.11
490.33	1677.29
490.53	1726.44
490.73	1738.73
490.94	1587.18
491.14	1773.54
491.34	1787.88
491.54	2082.78
491.74	2543.58
491.94	2920.40
492.14	3033.04
492.34	3069.91
492.54	2832.34
492.75	2439.13
492.95	2449.37
493.15	2338.78
493.35	2281.44
493.55	2207.71
493.75	2150.37
493.95	2123.74
494.15	2023.39
494.35	1916.90
494.56	1794.02
494.76	1755.11
494.96	1773.54
495.16	1699.81
495.36	1751.01
495.56	1759.21
495.76	1812.45
495.96	1632.23
496.16	1718.25
496.36	1802.21
496.56	1693.67
496.77	1699.81
496.97	1656.81
497.17	1787.88
497.37	1665.00
497.57	1740.77
497.77	1699.81
497.97	1624.04
498.17	1757.16
498.37	1703.91
498.57	1777.64
498.77	1738.73
498.97	1763.30
499.17	1869.80
499.38	1677.29
499.58	1794.02
499.78	1714.15
499.98	1789.92
500.18	1673.19
500.38	1705.96
500.58	1986.53
500.78	2535.39
500.98	4386.75
501.18	5679.02
501.38	6752.15
501.58	6993.81
501.78	6746.01
501.98	5449.64
502.18	4777.91
502.38	4405.18
502.58	4020.16
502.78	3733.45
502.98	3553.23
503.18	3319.76
503.38	3182.54
503.59	2813.91
503.79	2705.37
503.99	2414.56
504.19	2324.44
504.39	2160.61
504.59	2205.66
504.79	2191.33
504.99	2072.54
505.19	1912.80
505.39	1888.23
505.59	1943.52
505.79	1859.56
505.99	1822.69
506.19	1785.83
506.39	1857.51
506.59	1710.05
506.79	1714.15
506.99	1763.30
507.19	1777.64
507.39	1759.21
507.59	1640.42
507.79	1759.21
507.99	1693.67
508.19	1734.63
508.39	1746.92
508.59	1742.82
508.79	1808.36
508.99	1800.16
509.19	1640.42
509.39	1785.83
509.59	1621.99
509.79	1685.48
509.99	1677.29
510.19	1857.51
510.39	1779.68
510.59	1716.20
510.79	1755.11
510.99	1718.25
511.19	1759.21
511.39	1810.40
511.59	1701.86
511.79	1865.70
511.99	1759.21
512.19	1777.64
512.38	1728.49
512.58	1736.68
512.78	1710.05
512.98	1787.88
513.18	1839.08
513.38	1605.61
513.58	1837.03
513.78	1705.96
513.98	1773.54
514.18	1630.18
514.38	1703.91
514.58	1822.69
514.78	1718.25
514.98	1714.15
515.18	1681.38
515.38	1738.73
515.58	1877.99
515.78	1800.16
515.98	1648.61
516.18	1771.49
516.38	1667.05
516.57	1681.38
516.77	1714.15
516.97	1857.51
517.17	1675.24
517.37	1665.00
517.57	1789.92
517.77	1781.73
517.97	1667.05
518.17	1746.92
518.37	1621.99
518.57	1736.68
518.77	1701.86
518.97	1701.86
519.16	1705.96
519.36	1785.83
519.56	1695.72
519.76	1720.29
519.96	1751.01
520.16	1918.95
520.36	1652.71
520.56	1787.88
520.76	1675.24
520.96	1734.63
521.16	1806.31
521.35	1888.23
521.55	1779.68
521.75	1679.33
521.95	1722.34
522.15	1755.11
522.35	1652.71
522.55	1720.29
522.75	1785.83
522.95	1681.38
523.14	1646.57
523.34	1732.58
523.54	1697.77
523.74	1746.92
523.94	1779.68
524.14	1738.73
524.34	1789.92
524.54	1826.79
524.73	1683.43
524.93	1751.01
525.13	1734.63
525.33	1691.62
525.53	1828.84
525.73	1763.30
525.93	1800.16
526.13	1683.43
526.32	1669.09
526.52	1761.25
526.72	1718.25
526.92	1662.95
527.12	1710.05
527.32	1677.29
527.52	1796.07
527.71	1763.30
527.91	1757.16
528.11	1734.63
528.31	1708.01
528.51	1640.42
528.71	1642.47
528.90	1730.53
529.10	1755.11
529.30	1767.40
529.50	1615.85
529.70	1722.34
529.90	1665.00
530.09	1687.53
530.29	1699.81
530.49	1609.70
530.69	1865.70
530.89	1748.97
531.09	1742.82
531.28	1691.62
531.48	1806.31
531.68	1759.21
531.88	1751.01
532.08	1816.55
532.28	1765.35
532.47	1777.64
532.67	1714.15
532.87	1679.33
533.07	1652.71
533.27	1779.68
533.46	1808.36
533.66	1763.30
533.86	1693.67
534.06	1787.88
534.26	1728.49
534.45	1632.23
534.65	1812.45
534.85	1767.40
535.05	1665.00
535.25	1796.07
535.44	1634.28
535.64	1765.35
535.84	1638.38
536.04	1683.43
536.24	1650.66
536.43	1738.73
536.63	1738.73
536.83	1740.77
537.03	1712.10
537.22	1609.70
537.42	1681.38
537.62	1763.30
537.82	1724.39
538.02	1785.83
538.21	1775.59
538.41	1886.18
538.61	1722.34
538.81	1628.14
539.00	1751.01
539.20	1787.88
539.40	1710.05
539.60	1748.97
539.79	1773.54
539.99	1687.53
540.19	1652.71
540.39	1724.39
540.58	1736.68
540.78	1787.88
540.98	1695.72
541.18	1800.16
541.37	1820.64
541.57	1757.16
541.77	1718.25
541.97	1640.42
542.16	1621.99
542.36	1701.86
542.56	1667.05
542.76	1777.64
542.95	1718.25
543.15	1734.63
543.35	1765.35
543.54	1697.77
543.74	1621.99
543.94	1800.16
544.14	1710.05
544.33	1779.68
544.53	1767.40
544.73	1691.62
544.93	1732.58
545.12	1755.11
545.32	1810.40
545.52	1697.77
545.71	1644.52
545.91	1660.90
546.11	1712.10
546.30	1667.05
546.50	1730.53
546.70	1714.15
546.90	1787.88
547.09	1673.19
547.29	1699.81
547.49	1787.88
547.68	1753.06
547.88	1675.24
548.08	1714.15
548.27	2174.94
548.47	1716.20
548.67	1681.38
548.87	1669.09
549.06	1742.82
549.26	1769.44
549.46	1730.53
549.65	1665.00
549.85	1816.55
550.05	1820.64
550.24	1630.18
550.44	1685.48
550.64	1757.16
550.83	1677.29
551.03	1877.99
551.23	1808.36
551.42	1703.91
551.62	1736.68
551.82	1736.68
552.01	1712.10
552.21	1861.60
552.41	1748.97
552.60	1697.77
552.80	1773.54
553.00	1689.57
553.19	1742.82
553.39	1875.94
553.59	1636.33
553.78	1875.94
553.98	1771.49
554.17	1632.23
554.37	1685.48
554.57	1732.58
554.76	1675.24
554.96	1677.29
555.16	1783.78
555.35	1834.98
555.55	1789.92
555.75	1791.97
555.94	1796.07
556.14	1691.62
556.33	1656.81
556.53	1695.72
556.73	1708.01
556.92	1783.78
557.12	1773.54
557.32	1751.01
557.51	1888.23
557.71	1708.01
557.90	1761.25
558.10	1802.21
558.30	1769.44
558.49	1693.67
558.69	1730.53
558.88	1783.78
559.08	1845.22
559.28	1669.09
559.47	1708.01
559.67	1794.02
559.86	1890.28
560.06	1785.83
560.26	1722.34
560.45	1755.11
560.65	1662.95
560.84	1830.88
561.04	1634.28
561.24	1783.78
561.43	1675.24
561.63	1791.97
561.82	1767.40
562.02	1718.25
562.22	1724.39
562.41	1601.51
562.61	1640.42
562.80	1689.57
563.00	1814.50
563.19	1763.30
563.39	1779.68
563.59	1828.84
563.78	1660.90
563.98	1638.38
564.17	1718.25
564.37	1693.67
564.56	1757.16
564.76	1671.14
564.96	1794.02
565.15	1683.43
565.35	1834.98
565.54	1662.95
565.74	1726.44
565.93	1746.92
566.13	1693.67
566.32	1775.59
566.52	1800.16
566.71	1759.21
566.91	1759.21
567.11	1763.30
567.30	1677.29
567.50	1837.03
567.69	1703.91
567.89	1791.97
568.08	1708.01
568.28	1697.77
568.47	1746.92
568.67	1773.54
568.86	1697.77
569.06	1837.03
569.25	1685.48
569.45	1712.10
569.64	1734.63
569.84	1705.96
570.04	1732.58
570.23	1679.33
570.43	1689.57
570.62	1757.16
570.82	1834.98
571.01	1650.66
571.21	1771.49
571.40	1691.62
571.60	1746.92
571.79	1783.78
571.99	1728.49
572.18	1693.67
572.38	1759.21
572.57	1710.05
572.77	1755.11
572.96	1945.57
573.16	1746.92
573.35	1718.25
573.55	1853.41
573.74	1744.87
573.94	1728.49
574.13	1681.38
574.33	1812.45
574.52	1824.74
574.71	1675.24
574.91	1753.06
575.10	1705.96
575.30	1798.12
575.49	1746.92
575.69	1724.39
575.88	1699.81
576.08	1736.68
576.27	1804.26
576.47	1691.62
576.66	1779.68
576.86	1843.17
577.05	1804.26
577.25	1746.92
577.44	1918.95
577.64	1777.64
577.83	1820.64
578.02	1701.86
578.22	1857.51
578.41	1839.08
578.61	1787.88
578.80	1740.77
579.00	1865.70
579.19	1810.40
579.39	1759.21
579.58	1810.40
579.77	1652.71
579.97	1794.02
580.16	1839.08
580.36	1779.68
580.55	1869.80
580.75	1771.49
580.94	1775.59
581.13	1806.31
581.33	1806.31
581.52	1687.53
581.72	1869.80
581.91	1828.84
582.11	1726.44
582.30	1736.68
582.49	1755.11
582.69	1816.55
582.88	1808.36
583.08	1748.97
583.27	1837.03
583.47	1820.64
583.66	1697.77
583.85	1712.10
584.05	1751.01
584.24	1777.64
584.44	1818.60
584.63	1755.11
584.82	1820.64
585.02	1822.69
585.21	1740.77
585.41	1777.64
585.60	1847.27
585.79	1902.56
585.99	1892.32
586.18	1869.80
586.37	2197.47
586.57	3315.66
586.76	9758.57
586.96	24329.87
587.15	34213.37
587.34	40183.19
587.54	41571.72
587.73	36373.97
587.93	25732.73
588.12	21305.02
588.31	18083.56
588.51	16162.57
588.70	14903.07
588.89	14063.40
589.09	12676.93
589.28	10940.25
589.47	9545.58
589.67	7974.79
589.86	6399.90
590.06	4915.12
590.25	3805.13
590.44	3053.52
590.64	2547.67
590.83	2097.12
591.02	2072.54
591.22	1918.95
591.41	1953.76
591.60	1839.08
591.80	1837.03
591.99	1757.16
592.18	1775.59
592.38	1796.07
592.57	1691.62
592.76	1796.07
592.96	1785.83
593.15	1779.68
593.34	1767.40
593.54	1755.11
593.73	1751.01
593.92	1767.40
594.12	1734.63
594.31	1775.59
594.50	1830.88
594.70	1824.74
594.89	1845.22
595.08	1695.72
595.28	1773.54
595.47	1935.33
595.66	1771.49
595.86	1667.05
596.05	1736.68
596.24	1697.77
596.43	1847.27
596.63	1808.36
596.82	1714.15
597.01	1773.54
597.21	1830.88
597.40	1820.64
597.59	1740.77
597.79	1736.68
597.98	1722.34
598.17	1720.29
598.36	1718.25
598.56	1699.81
598.75	1726.44
598.94	1759.21
599.14	1765.35
599.33	1611.75
599.52	1773.54
599.71	1757.16
599.91	1834.98
600.10	1746.92
600.29	1716.20
600.48	1734.63
600.68	1779.68
600.87	1773.54
601.06	1695.72
601.26	1769.44
601.45	1806.31
601.64	1683.43
601.83	1779.68
602.03	1644.52
602.22	1755.11
602.41	1769.44
602.60	1875.94
602.80	1785.83
602.99	1783.78
603.18	1736.68
603.37	1812.45
603.57	1773.54
603.76	1759.21
603.95	1753.06
604.14	1691.62
604.34	1724.39
604.53	1746.92
604.72	1816.55
604.91	1791.97
605.10	1759.21
605.30	1644.52
605.49	1867.75
605.68	1761.25
605.87	1730.53
606.07	1679.33
606.26	1744.87
606.45	1763.30
606.64	1726.44
606.84	1728.49
607.03	1712.10
607.22	1740.77
607.41	1710.05
607.60	1683.43
607.80	1828.84
607.99	1738.73
608.18	1771.49
608.37	1779.68
608.56	1718.25
608.76	1798.12
608.95	1808.36
609.14	1746.92
609.33	1742.82
609.52	1695.72
609.72	1740.77
609.91	1757.16
610.10	1701.86
610.29	1837.03
610.48	1769.44
610.68	1769.44
610.87	1734.63
611.06	1816.55
611.25	1710.05
611.44	1822.69
611.63	1640.42
611.83	1789.92
612.02	1619.94
612.21	1832.93
612.40	1597.42
612.59	1611.75
612.79	1691.62
612.98	1716.20
613.17	1859.56
613.36	1773.54
613.55	1771.49
613.74	1673.19
613.93	1687.53
614.13	1757.16
614.32	1753.06
614.51	1783.78
614.70	1644.52
614.89	1742.82
615.08	1767.40
615.28	2103.26
615.47	1671.14
615.66	1728.49
615.85	1703.91
616.04	1849.32
616.23	1722.34
616.42	1722.34
616.62	1734.63
616.81	1718.25
617.00	1644.52
617.19	1734.63
617.38	1695.72
617.57	1681.38
617.76	1710.05
617.95	1730.53
618.15	1804.26
618.34	1791.97
618.53	1621.99
618.72	1796.07
618.91	1830.88
619.10	1822.69
619.29	1695.72
619.48	1775.59
619.68	1640.42
619.87	1658.85
620.06	1675.24
620.25	1716.20
620.44	1665.00
620.63	1693.67
620.82	1804.26
621.01	1746.92
621.20	1771.49
621.39	1734.63
621.59	1660.90
621.78	1675.24
621.97	1726.44
622.16	1753.06
622.35	1695.72
622.54	1773.54
622.73	1771.49
622.92	1689.57
623.11	1794.02
623.30	1662.95
623.49	1798.12
623.68	1757.16
623.88	1753.06
624.07	1654.76
624.26	1705.96
624.45	1693.67
624.64	1681.38
624.83	1699.81
625.02	1734.63
625.21	1724.39
625.40	1708.01
625.59	1763.30
625.78	1712.10
625.97	1773.54
626.16	1767.40
626.35	1755.11
626.54	1728.49
626.74	1789.92
626.93	1703.91
627.12	1708.01
627.31	1761.25
627.50	1728.49
627.69	1789.92
627.88	1724.39
628.07	1716.20
628.26	1650.66
628.45	1603.56
628.64	1665.00
628.83	1693.67
629.02	1593.32
629.21	1808.36
629.40	1755.11
629.59	1650.66
629.78	1652.71
629.97	1675.24
630.16	1720.29
630.35	1689.57
630.54	1712.10
630.73	1736.68
630.92	1810.40
631.11	1634.28
631.30	1753.06
631.49	1769.44
631.68	1710.05
631.87	1691.62
632.06	1652.71
632.25	1839.08
632.44	1783.78
632.63	1667.05
632.82	1701.86
633.01	1685.48
633.20	1708.01
633.39	1740.77
633.58	1660.90
633.77	1732.58
633.96	1798.12
634.15	1763.30
634.34	1763.30
634.53	1791.97
634.72	1648.61
634.91	1609.70
635.10	1759.21
635.29	1710.05
635.48	1740.77
635.67	1650.66
635.86	1648.61
636.05	1712.10
636.24	1769.44
636.43	1759.21
636.62	1673.19
636.81	1652.71
637.00	1763.30
637.19	1763.30
637.38	1771.49
637.57	1626.09
637.76	1722.34
637.95	1714.15
638.14	1734.63
638.33	1662.95
638.52	1734.63
638.71	1755.11
638.89	1665.00
639.08	1904.61
639.27	1759.21
639.46	1689.57
639.65	1810.40
639.84	1722.34
640.03	1728.49
640.22	1693.67
640.41	1853.41
640.60	1671.14
640.79	1765.35
640.98	1746.92
641.17	1824.74
641.36	1679.33
641.55	1767.40
641.74	1683.43
641.92	1667.05
642.11	1675.24
642.30	1691.62
642.49	1675.24
642.68	1675.24
642.87	1677.29
643.06	1751.01
643.25	1687.53
643.44	1701.86
643.63	1710.05
643.82	1777.64
644.00	1718.25
644.19	1732.58
644.38	1636.33
644.57	1779.68
644.76	1740.77
644.95	1656.81
645.14	1677.29
645.33	1740.77
645.52	1734.63
645.71	1656.81
645.89	1665.00
646.08	1632.23
646.27	1677.29
646.46	1816.55
646.65	1595.37
646.84	1728.49
647.03	1650.66
647.22	1798.12
647.40	1718.25
647.59	1685.48
647.78	1597.42
647.97	1638.38
648.16	1646.57
648.35	1789.92
648.54	1755.11
648.73	1708.01
648.91	1826.79
649.10	1699.81
649.29	1642.47
649.48	1740.77
649.67	1722.34
649.86	1710.05
650.05	1662.95
650.23	1826.79
650.42	1718.25
650.61	1751.01
650.80	1726.44
650.99	1777.64
651.18	1798.12
651.36	1783.78
651.55	1708.01
651.74	1746.92
651.93	1681.38
652.12	1615.85
652.31	1714.15
652.49	1712.10
652.68	1722.34
652.87	1755.11
653.06	1673.19
653.25	1837.03
653.44	1712.10
653.62	1794.02
653.81	1714.15
654.00	1687.53
654.19	1757.16
654.38	1841.12
654.56	1730.53
654.75	1755.11
654.94	1837.03
655.13	1697.77
655.32	1689.57
655.51	1720.29
655.69	1669.09
655.88	1751.01
656.07	1634.28
656.26	1755.11
656.45	1615.85
656.63	1808.36
656.82	1726.44
657.01	1746.92
657.20	1697.77
657.38	1730.53
657.57	1669.09
657.76	1572.84
657.95	1740.77
658.14	1691.62
658.32	1767.40
658.51	1624.04
658.70	1751.01
658.89	1716.20
659.08	1751.01
659.26	1763.30
659.45	1665.00
659.64	1722.34
659.83	1675.24
660.01	1910.75
660.20	1734.63
660.39	1789.92
660.58	1599.46
660.76	1734.63
660.95	1624.04
661.14	1685.48
661.33	1689.57
661.51	1726.44
661.70	1650.66
661.89	1748.97
662.08	1738.73
662.26	1714.15
662.45	1751.01
662.64	1804.26
662.83	1800.16
663.01	1640.42
663.20	1619.94
663.39	1816.55
663.58	1730.53
663.76	1689.57
663.95	1744.87
664.14	1632.23
664.32	1744.87
664.51	1677.29
664.70	1562.60
664.89	1740.77
665.07	1609.70
665.26	1771.49
665.45	1603.56
665.64	1783.78
665.82	1675.24
666.01	1794.02
666.20	1677.29
666.38	1779.68
666.57	1816.55
666.76	2119.65
666.95	4421.56
667.13	10286.95
667.32	15128.35
667.51	17635.06
667.69	18829.02
667.88	17393.40
668.07	12095.30
668.25	9381.74
668.44	8060.80
668.63	7262.10
668.81	6721.43
669.00	6178.72
669.19	5666.73
669.38	5056.43
669.56	4683.70
669.75	3958.72
669.94	3334.09
670.12	2848.72
670.31	2586.58
670.50	2301.92
670.68	2144.22
670.87	1951.71
671.06	1818.60
671.24	1787.88
671.43	1796.07
671.62	1769.44
671.80	1699.81
671.99	1808.36
672.18	1740.77
672.36	1740.77
672.55	1730.53
672.74	1787.88
672.92	1710.05
673.11	1724.39
673.29	1714.15
673.48	1703.91
673.67	1701.86
673.85	1837.03
674.04	1638.38
674.23	1720.29
674.41	1877.99
674.60	1679.33
674.79	1619.94
674.97	1687.53
675.16	1742.82
675.34	1816.55
675.53	1685.48
675.72	1761.25
675.90	1826.79
676.09	1634.28
676.28	1714.15
676.46	1572.84
676.65	1796.07
676.83	1624.04
677.02	1744.87
677.21	1724.39
677.39	1660.90
677.58	1665.00
677.77	1572.84
677.95	1689.57
678.14	1728.49
678.32	1695.72
678.51	1708.01
678.70	1869.80
678.88	1624.04
679.07	1769.44
679.25	1621.99
679.44	1626.09
679.63	1640.42
679.81	1775.59
680.00	1808.36
680.18	1699.81
680.37	1785.83
680.55	1656.81
680.74	1701.86
680.93	1583.08
681.11	1738.73
681.30	1726.44
681.48	1724.39
681.67	1642.47
681.85	1753.06
682.04	1632.23
682.23	1822.69
682.41	1652.71
682.60	1630.18
682.78	1624.04
682.97	1675.24
683.15	1679.33
683.34	1673.19
683.53	1746.92
683.71	1578.98
683.90	1783.78
684.08	1818.60
684.27	1640.42
684.45	1705.96
684.64	1798.12
684.82	1669.09
685.01	1683.43
685.19	1720.29
685.38	1849.32
685.57	1765.35
685.75	1701.86
685.94	1617.90
686.12	1685.48
686.31	1665.00
686.49	1775.59
686.68	1603.56
686.86	1712.10
687.05	1701.86
687.23	1861.60
687.42	1677.29
687.60	1650.66
687.79	1728.49
687.97	1705.96
688.16	1693.67
688.34	1800.16
688.53	1601.51
688.71	1665.00
688.90	1777.64
689.08	1736.68
689.27	1626.09
689.45	1763.30
689.64	1648.61
689.82	1734.63
690.01	1736.68
690.19	1726.44
690.38	1720.29
690.56	1765.35
690.75	1726.44
690.93	1683.43
691.12	1699.81
691.30	1703.91
691.49	1669.09
691.67	1714.15
691.86	1798.12
692.04	1560.55
692.23	1681.38
692.41	1695.72
692.60	1853.41
692.78	1726.44
692.97	1665.00
693.15	1755.11
693.34	1785.83
693.52	1742.82
693.71	1673.19
693.89	1665.00
694.08	1574.89
694.26	1794.02
694.44	1755.11
694.63	1726.44
694.81	1648.61
695.00	1679.33
695.18	1771.49
695.37	1843.17
695.55	1710.05
695.74	1714.15
695.92	1640.42
696.10	1687.53
696.29	1667.05
696.47	1722.34
696.66	1578.98
696.84	1746.92
697.03	1705.96
697.21	1806.31
697.40	2336.73
697.58	1683.43
697.76	1599.46
697.95	1708.01
698.13	1697.77
698.32	1728.49
698.50	1728.49
698.68	1810.40
698.87	1697.77
699.05	1730.53
699.24	1699.81
699.42	1669.09
699.61	1746.92
699.79	1642.47
699.97	1736.68
700.16	1656.81
700.34	1697.77
700.53	1701.86
700.71	1794.02
700.89	1738.73
701.08	1763.30
701.26	1693.67
701.45	2148.32
701.63	1585.13
701.81	1720.29
702.00	1609.70
702.18	1652.71
702.37	1720.29
702.55	1742.82
702.73	1751.01
702.92	1632.23
703.10	1646.57
703.28	1763.30
703.47	1636.33
703.65	1769.44
703.84	1742.82
704.02	1673.19
704.20	1787.88
704.39	1687.53
704.57	1687.53
704.75	1753.06
704.94	1849.32
705.12	1699.81
705.30	1814.50
705.49	2281.44
705.67	4353.98
705.86	9211.76
706.04	12666.69
706.22	14153.51
706.41	15181.59
706.59	13864.75
706.77	9465.71
706.96	7278.48
707.14	6580.12
707.32	5955.49
707.51	5652.39
707.69	4845.49
707.87	4233.15
708.06	3530.70
708.24	3061.71
708.42	2478.04
708.61	2293.72
708.79	1906.66
708.97	1787.88
709.16	1761.25
709.34	1726.44
709.52	1775.59
709.71	1742.82
709.89	1755.11
710.07	1679.33
710.26	1716.20
710.44	1757.16
710.62	1755.11
710.80	1685.48
710.99	1751.01
711.17	1699.81
711.35	1615.85
711.54	1640.42
711.72	1810.40
711.90	1716.20
712.09	1693.67
712.27	1665.00
712.45	1765.35
712.63	1673.19
712.82	1703.91
713.00	1691.62
713.18	1703.91
713.37	1820.64
713.55	1724.39
713.73	1685.48
713.91	1667.05
714.10	1716.20
714.28	1724.39
714.46	1703.91
714.65	1687.53
714.83	1802.21
715.01	1742.82
715.19	1710.05
715.38	1648.61
715.56	1781.73
715.74	1644.52
715.92	1634.28
716.11	1765.35
716.29	1638.38
716.47	1757.16
716.65	1755.11
716.84	1603.56
717.02	1712.10
717.20	1605.61
717.38	1685.48
717.57	1667.05
717.75	1648.61
717.93	1681.38
718.11	1656.81
718.30	1667.05
718.48	1710.05
718.66	1763.30
718.84	1681.38
719.03	1644.52
719.21	1630.18
719.39	1777.64
719.57	1691.62
719.75	1751.01
719.94	1609.70
720.12	1689.57
720.30	1689.57
720.48	1703.91
720.67	1667.05
720.85	1671.14
721.03	1617.90
721.21	1570.79
721.39	1714.15
721.58	1771.49
721.76	1691.62
721.94	1689.57
722.12	1710.05
722.30	1832.93
722.49	1619.94
722.67	1699.81
722.85	1681.38
723.03	1624.04
723.21	1576.94
723.40	1740.77
723.58	1703.91
723.76	1687.53
723.94	1771.49
724.12	1654.76
724.30	1673.19
724.49	1775.59
724.67	1654.76
724.85	1769.44
725.03	1683.43
725.21	1689.57
725.40	1787.88
725.58	1650.66
725.76	1691.62
725.94	1783.78
726.12	1658.85
726.30	1742.82
726.49	1679.33
726.67	1681.38
726.85	1783.78
727.03	1765.35
727.21	2101.22
727.39	2936.79
727.57	3657.67
727.76	4001.73
727.94	4429.76
728.12	4325.31
728.30	3729.35
728.48	2928.60
728.66	2801.62
728.84	2525.15
729.03	2291.68
729.21	2078.69
729.39	2041.82
729.57	1863.65
729.75	1763.30
729.93	1818.60
730.11	1757.16
730.30	1699.81
730.48	1662.95
730.66	1789.92
730.84	1781.73
731.02	1732.58
731.20	1634.28
731.38	1736.68
731.56	1650.66
731.74	1615.85
731.93	1769.44
732.11	1697.77
732.29	1628.14
732.47	1712.10
732.65	1705.96
732.83	1771.49
733.01	1679.33
733.19	1671.14
733.37	1767.40
733.56	1810.40
733.74	1699.81
733.92	1738.73
734.10	1718.25
734.28	1662.95
734.46	1621.99
734.64	1671.14
734.82	1667.05
735.00	1718.25
735.18	1640.42
735.36	1671.14
735.54	1777.64
735.73	1724.39
735.91	1763.30
736.09	1753.06
736.27	1626.09
736.45	1740.77
736.63	1574.89
736.81	1665.00
736.99	1710.05
737.17	1814.50
737.35	1718.25
737.53	1681.38
737.71	1710.05
737.89	1718.25
738.07	1642.47
738.25	1689.57
738.43	1581.03
738.61	1621.99
738.80	1644.52
738.98	1626.09
739.16	1667.05
739.34	1665.00
739.52	1740.77
739.70	1679.33
739.88	1734.63
740.06	1759.21
740.24	1609.70
740.42	1744.87
740.60	1667.05
740.78	1695.72
740.96	1650.66
741.14	1734.63
741.32	1781.73
741.50	1597.42
741.68	1796.07
741.86	1791.97
742.04	1583.08
742.22	1699.81
742.40	1730.53
742.58	1724.39
742.76	1683.43
742.94	1718.25
743.12	1613.80
743.30	1701.86
743.48	1742.82
743.66	1650.66
743.84	1718.25
744.02	1722.34
744.20	1615.85
744.38	1632.23
744.56	1665.00
744.74	1748.97
744.92	1714.15
745.10	1748.97
745.28	1742.82
745.46	1671.14
745.64	1761.25
745.82	1736.68
746.00	1755.11
746.18	1728.49
746.36	1738.73
746.54	1742.82
746.72	1683.43
746.90	1675.24
747.08	1714.15
747.26	1675.24
747.44	1732.58
747.62	1769.44
747.80	1785.83
747.98	1691.62
748.15	1732.58
748.33	1802.21
748.51	1687.53
748.69	1724.39
748.87	1587.18
749.05	1667.05
749.23	1654.76
749.41	1718.25
749.59	1687.53
749.77	1736.68
749.95	1726.44
750.13	1703.91
750.31	1738.73
750.49	1728.49
750.67	1728.49
750.85	1775.59
751.03	1705.96
751.20	1839.08
751.38	1662.95
751.56	1671.14
751.74	1687.53
751.92	1679.33
752.10	1626.09
752.28	1757.16
752.46	1621.99
752.64	1626.09
752.82	1742.82
753.00	1679.33
753.18	1687.53
753.35	1634.28
753.53	1566.70
753.71	1699.81
753.89	1718.25
754.07	1701.86
754.25	1730.53
754.43	1585.13
754.61	1681.38
754.79	1726.44
754.97	1640.42
755.14	1753.06
755.32	1593.32
755.50	1744.87
755.68	1591.27
755.86	1617.90
756.04	1673.19
756.22	1583.08
756.40	1724.39
756.57	1847.27
756.75	1722.34
756.93	1789.92
757.11	1753.06
757.29	1656.81
757.47	1638.38
757.65	1611.75
757.82	1601.51
758.00	1681.38
758.18	1673.19
758.36	1662.95
758.54	1832.93
758.72	1624.04
758.90	1701.86
759.07	1738.73
759.25	1634.28
759.43	1742.82
759.61	1685.48
759.79	2172.89
759.97	1734.63
760.15	1693.67
760.32	1648.61
760.50	1712.10
760.68	1779.68
760.86	1611.75
761.04	1689.57
761.22	1714.15
761.39	1769.44
761.57	1771.49
761.75	1701.86
761.93	1755.11
762.11	1689.57
762.28	1681.38
762.46	1642.47
762.64	1720.29
762.82	1595.37
763.00	1710.05
763.18	1767.40
763.35	1710.05
763.53	1748.97
763.71	1648.61
763.89	1708.01
764.07	1771.49
764.24	1681.38
764.42	1708.01
764.60	1695.72
764.78	1693.67
764.96	1763.30
765.13	1708.01
765.31	1716.20
765.49	1740.77
765.67	1611.75
765.84	1640.42
766.02	1673.19
766.20	1646.57
766.38	1726.44
766.56	1757.16
766.73	1691.62
766.91	1755.11
767.09	1763.30
767.27	1716.20
767.44	1656.81
767.62	1734.63
767.80	1732.58
767.98	1640.42
768.15	1681.38
768.33	1740.77
768.51	1753.06
768.69	1742.82
768.87	1730.53
769.04	1683.43
769.22	1828.84
769.40	1755.11
769.58	1816.55
769.75	1671.14
769.93	1724.39
770.11	1681.38
770.28	1644.52
770.46	1734.63
770.64	1732.58
770.82	1720.29
770.99	1675.24
771.17	1683.43
771.35	1683.43
771.53	1634.28
771.70	1667.05
771.88	1665.00
772.06	1689.57
772.23	1677.29
772.41	1751.01
772.59	1683.43
772.77	1712.10
772.94	1728.49
773.12	1777.64
773.30	1605.61
773.47	1738.73
773.65	1617.90
773.83	1841.12
774.01	1740.77
774.18	1640.42
774.36	1671.14
774.54	1650.66
774.71	1716.20
774.89	1570.79
775.07	1624.04
775.24	1648.61
775.42	1683.43
775.60	1763.30
775.78	1673.19
775.95	1628.14
776.13	1699.81
776.31	1546.22
776.48	1703.91
776.66	1802.21
776.84	1697.77
777.01	1656.81
777.19	1628.14
777.37	1640.42
777.54	1718.25
777.72	1757.16
777.90	1796.07
778.07	1658.85
778.25	1855.46
778.43	1685.48
778.60	1654.76
778.78	1804.26
778.96	1738.73
779.13	1599.46
779.31	1822.69
779.49	1699.81
779.66	1767.40
779.84	1681.38
780.01	1738.73
780.19	1638.38
780.37	1738.73
780.54	1728.49
780.72	1626.09
780.90	1689.57
781.07	1728.49
781.25	1677.29
781.43	1775.59
781.60	1691.62
781.78	1775.59
781.95	1703.91
782.13	1689.57
782.31	1656.81
782.48	1578.98
782.66	1724.39
782.83	1781.73
783.01	1783.78
783.19	1730.53
783.36	1652.71
783.54	1720.29
783.72	1722.34
783.89	1662.95
784.07	1685.48
784.24	1732.58
784.42	1789.92
784.60	1734.63
784.77	1710.05
784.95	1648.61
785.12	1648.61
785.30	1687.53
785.47	1671.14
785.65	1658.85
785.83	1699.81
786.00	1634.28
786.18	1679.33
786.35	1665.00
786.53	1656.81
786.71	1732.58
786.88	1742.82
787.06	1689.57
787.23	1656.81
787.41	1628.14
787.58	1640.42
787.76	1701.86
787.94	1695.72
788.11	1722.34
788.29	1626.09
788.46	1609.70
788.64	1564.65
788.81	1695.72
788.99	1585.13
789.16	1652.71
789.34	1642.47
789.52	1640.42
789.69	1689.57
789.87	1601.51
790.04	1560.55
790.22	1636.33
790.39	1791.97
790.57	1703.91
790.74	1671.14
790.92	1726.44
791.09	1568.74
791.27	1683.43
791.44	1730.53
791.62	1681.38
791.79	1746.92
791.97	1693.67
792.15	1894.37
792.32	1783.78
792.50	1642.47
792.67	1779.68
792.85	1687.53
793.02	1761.25
793.20	1681.38
793.37	1601.51
793.55	1681.38
793.72	1662.95
793.90	1667.05
794.07	1617.90
794.25	1697.77
794.42	1658.85
794.60	1675.24
794.77	1798.12
794.95	1662.95
795.12	1734.63
795.30	1667.05
795.47	1617.90
795.65	1880.04
795.82	1734.63
796.00	1720.29
796.17	1712.10
796.34	1628.14
796.52	1636.33
796.69	1697.77
796.87	1722.34
797.04	1718.25
797.22	1693.67
797.39	1681.38
797.57	1728.49
797.74	1740.77
797.92	1665.00
798.09	1615.85
798.27	1826.79
798.44	1828.84
798.62	1703.91
798.79	1705.96
798.96	1712.10
799.14	1697.77
799.31	1843.17
799.49	1685.48
799.66	1699.81
799.84	1699.81
800.01	1736.68
800.19	1648.61
800.36	1574.89
800.53	1648.61
800.71	1673.19
800.88	1746.92
801.06	1671.14
801.23	1615.85
801.41	1599.46
801.58	1714.15
801.75	1619.94
801.93	1658.85
802.10	1701.86
802.28	1689.57
802.45	1624.04
802.63	1773.54
802.80	1791.97
802.97	1693.67
803.15	1626.09
803.32	1619.94
803.50	1679.33
803.67	1621.99
803.84	1648.61
804.02	1691.62
804.19	1730.53
804.37	1529.83
804.54	1642.47
804.71	1665.00
804.89	1673.19
805.06	1658.85
805.24	1628.14
805.41	1689.57
805.58	1654.76
805.76	1796.07
805.93	1656.81
806.10	1779.68
806.28	1636.33
806.45	1656.81
806.63	1640.42
806.80	1732.58
806.97	1714.15
807.15	1669.09
807.32	1683.43
807.49	1755.11
807.67	1619.94
807.84	1779.68
808.01	1662.95
808.19	1769.44
808.36	1804.26
808.54	1740.77
808.71	1665.00
808.88	1683.43
809.06	1787.88
809.23	1767.40
809.40	1738.73
809.58	1642.47
809.75	1669.09
809.92	1591.27
810.10	1808.36
810.27	1730.53
810.44	1617.90
810.62	1675.24
810.79	1708.01
810.96	1656.81
811.14	1660.90
811.31	1734.63
811.48	1703.91
811.66	1767.40
811.83	1826.79
812.00	1726.44
812.18	1822.69
812.35	1820.64
812.52	1681.38
812.69	1669.09
812.87	1714.15
813.04	1703.91
813.21	1693.67
813.39	1658.85
813.56	1628.14
813.73	1667.05
813.91	1642.47
814.08	1705.96
814.25	1624.04
814.42	1660.90
814.60	1609.70
814.77	1718.25
814.94	1699.81
815.12	1767.40
815.29	1763.30
815.46	1685.48
815.63	1710.05
815.81	1681.38
815.98	1638.38
816.15	1714.15
816.33	1683.43
816.50	1691.62
816.67	1660.90
816.84	1640.42
817.02	1644.52
817.19	1716.20
817.36	1705.96
817.53	1705.96
817.71	1628.14
817.88	1757.16
818.05	1640.42
818.22	1689.57
818.40	1802.21
818.57	1685.48
818.74	1730.53
818.91	1740.77
819.09	1720.29
819.26	1742.82
819.43	1626.09
819.60	1667.05
819.78	1742.82
819.95	1779.68
820.12	1648.61
820.29	1730.53
820.47	1765.35
820.64	1722.34
820.81	1654.76
820.98	1662.95
821.15	1650.66
821.33	1746.92
821.50	1654.76
821.67	1689.57
821.84	1693.67
822.02	1671.14
822.19	1689.57
822.36	1646.57
822.53	1624.04
822.70	1662.95
822.88	1634.28
823.05	1767.40
823.22	1710.05
823.39	1673.19
823.56	1636.33
823.74	1820.64
823.91	1626.09
824.08	1578.98
824.25	1609.70
824.42	1718.25
824.60	1667.05
824.77	1658.85
824.94	1699.81
825.11	1673.19
825.28	1613.80
825.45	1738.73
825.63	1689.57
825.80	1624.04
825.97	1742.82
826.14	1681.38
826.31	1677.29
826.48	1736.68
826.66	1636.33
826.83	1734.63
827.00	1695.72
827.17	1574.89
827.34	1648.61
827.51	1693.67
827.69	1662.95
827.86	1603.56
828.03	1669.09
828.20	1658.85
828.37	1683.43
828.54	1685.48
828.71	1583.08
828.89	1757.16
829.06	1710.05
829.23	1822.69
829.40	1615.85
829.57	1624.04
829.74	1652.71
829.91	1667.05
830.09	1617.90
830.26	1683.43
830.43	1703.91
830.60	1712.10
830.77	1714.15
830.94	1757.16
831.11	1705.96
831.28	1722.34
831.46	1787.88
831.63	1763.30
831.80	1730.53
831.97	1697.77
832.14	1644.52
832.31	1632.23
832.48	1699.81
832.65	1759.21
832.82	1679.33
832.99	1712.10
833.17	1652.71
833.34	1804.26
833.51	1705.96
833.68	1630.18
833.85	1714.15
834.02	1607.66
834.19	1589.22
834.36	1691.62
834.53	1689.57
834.70	1791.97
834.87	1765.35
835.04	1652.71
835.22	1619.94
835.39	1662.95
835.56	1609.70
835.73	1660.90
835.90	1710.05
836.07	1628.14
836.24	1767.40
836.41	1662.95
836.58	1654.76
836.75	1759.21
836.92	1656.81
837.09	1632.23
837.26	1714.15
837.43	1648.61
837.60	1738.73
837.77	1714.15
837.94	1736.68
838.12	1753.06
838.29	1677.29
838.46	1642.47
838.63	1599.46
838.80	1761.25
838.97	1773.54
839.14	1632.23
839.31	1685.48
839.48	1699.81
839.65	1642.47
839.82	1771.49
839.99	1808.36
840.16	1697.77
840.33	1701.86
840.50	1665.00
840.67	1648.61
840.84	1570.79
841.01	1742.82
841.18	1681.38
841.35	1685.48
841.52	1744.87
841.69	1708.01
841.86	1728.49
842.03	1660.90
842.20	1751.01
842.37	1746.92
842.54	1673.19
842.71	1693.67
842.88	1597.42
843.05	1753.06
843.22	1632.23
843.39	1716.20
843.56	1626.09
843.73	1650.66
843.90	1757.16
844.07	1771.49
844.24	1642.47
844.41	1716.20
844.58	1738.73
844.75	1726.44
844.92	1732.58
845.09	1640.42
845.26	1626.09
845.43	1730.53
845.60	1615.85
845.77	1722.34
845.94	1656.81
846.10	1785.83
846.27	1546.22
846.44	1624.04
846.61	1642.47
846.78	1753.06
846.95	1738.73
847.12	1695.72
847.29	1609.70
847.46	1705.96
847.63	1767.40
847.80	1665.00
847.97	1617.90
848.14	1818.60
848.31	1675.24
848.48	1632.23
848.65	1720.29
848.82	1599.46
848.98	1787.88
849.15	1714.15
849.32	1791.97
849.49	1695.72
849.66	1671.14
849.83	1763.30
850.00	1650.66
850.17	1691.62
850.34	1714.15
850.51	1642.47
850.68	1703.91
850.85	1820.64
851.01	1724.39
851.18	1714.15
851.35	1644.52
851.52	1685.48
851.69	1773.54
851.86	1640.42
852.03	1742.82
852.20	1785.83
852.37	1703.91
852.53	1683.43
852.70	1642.47
852.87	1744.87
853.04	1746.92
853.21	1716.20
853.38	1810.40
853.55	1765.35
853.72	1734.63
853.89	1642.47
854.05	1679.33
854.22	1662.95
854.39	1693.67
854.56	1720.29
854.73	1789.92
854.90	1675.24
855.07	1718.25
855.23	1746.92
855.40	1675.24
855.57	1667.05
855.74	1617.90
855.91	1834.98
856.08	1673.19
856.25	1646.57
856.41	1703.91
856.58	1687.53
856.75	1757.16
856.92	1708.01
857.09	1742.82
857.26	1656.81
857.42	1710.05
857.59	1716.20
857.76	1697.77
857.93	1769.44
858.10	1656.81
858.27	1615.85
858.43	1667.05
858.60	1642.47
858.77	1632.23
858.94	1642.47
859.11	1748.97
859.27	1644.52
859.44	1769.44
859.61	1816.55
859.78	1751.01
859.95	1658.85
860.12	1673.19
860.28	1880.04
860.45	1794.02
860.62	1701.86
860.79	1681.38
860.95	1650.66
861.12	1652.71
861.29	1679.33
861.46	1671.14
861.63	1697.77
861.79	1683.43
861.96	1644.52
862.13	1654.76
862.30	1759.21
862.47	1687.53
862.63	1660.90
862.80	1714.15
862.97	1751.01
863.14	1689.57
863.30	1746.92
863.47	1660.90
863.64	1783.78
863.81	1785.83
863.97	1613.80
864.14	1722.34
864.31	1691.62
864.48	1654.76
864.65	1730.53
864.81	1773.54
864.98	1669.09
865.15	1763.30
865.32	1796.07
865.48	1685.48
865.65	1781.73
865.82	1738.73
865.98	1615.85
866.15	1771.49
866.32	1607.66
866.49	1644.52
866.65	1746.92
866.82	1619.94
866.99	1791.97
867.16	1642.47
867.32	1624.04
867.49	1667.05
867.66	1708.01
867.83	1730.53
867.99	1640.42
868.16	1673.19
868.33	1644.52
868.49	1640.42
868.66	1675.24
868.83	1675.24
868.99	1669.09
869.16	1675.24
869.33	1726.44
869.50	1751.01
869.66	1775.59
869.83	1665.00
870.00	1658.85
870.16	1665.00
870.33	1679.33
870.50	1728.49
870.66	1677.29
870.83	1812.45
871.00	1640.42
871.17	1730.53
871.33	1705.96
871.50	1683.43
871.67	1689.57
871.83	1722.34
872.00	1796.07
872.17	1714.15
872.33	1779.68
872.50	1710.05
872.67	1699.81
872.83	1660.90
873.00	1769.44
873.17	1667.05
873.33	1677.29
873.50	1751.01
873.67	1615.85
873.83	1710.05
874.00	1699.81
874.16	1769.44
874.33	1679.33
874.50	1632.23
874.66	1710.05
874.83	1669.09
875.00	1773.54
875.16	1820.64
875.33	1734.63
875.50	1607.66
875.66	1646.57
875.83	1632.23
875.99	1705.96
876.16	1665.00
876.33	1687.53
876.49	1658.85
876.66	1787.88
876.83	1705.96
876.99	1667.05
877.16	1626.09
877.32	1681.38
877.49	1705.96
877.66	1671.14
877.82	1689.57
877.99	1628.14
878.15	1773.54
878.32	1658.85
878.49	1726.44
878.65	1650.66
878.82	1763.30
878.98	1681.38
879.15	1701.86
879.32	1708.01
879.48	1710.05
879.65	1634.28
879.81	1689.57
879.98	1683.43
880.15	1689.57
880.31	1665.00
880.48	1673.19
880.64	1763.30
880.81	1771.49
880.97	1759.21
881.14	1804.26
881.31	1613.80
881.47	1753.06
881.64	1724.39
881.80	1646.57
881.97	1767.40
882.13	1718.25
882.30	1632.23
882.47	1644.52
882.63	1683.43
882.80	1697.77
882.96	1687.53
883.13	1732.58
883.29	1703.91
883.46	1691.62
883.62	1744.87
883.79	1740.77
883.95	1685.48
884.12	1630.18
884.29	1730.53
884.45	1716.20
884.62	1718.25
884.78	1624.04
884.95	1767.40
885.11	1611.75
885.28	1630.18
885.44	1675.24
885.61	1699.81
885.77	1683.43
885.94	1691.62
886.10	1660.90
886.27	1730.53
886.43	1865.70
886.60	1691.62
886.76	1619.94
886.93	1689.57
887.09	1783.78
887.26	1638.38
887.42	1667.05
887.59	1771.49
887.75	1761.25
887.92	1759.21
888.08	1714.15
888.25	1775.59
888.41	1751.01
888.58	1714.15
888.74	1683.43
888.91	1720.29
>>>>>End Processed Spectral Data<<<<<
