SpectraSuite Data File
++++++++++++++++++++++++++++++++++++
Date: Mon Jun 06 13:38:57 CEST 2016
User: root
Dark Spectrum Present: No
Reference Spectrum Present: No
Number of Sampled Component Spectra: 1
Spectrometers: USB4C02835
Integration Time (usec): 100000 (USB4C02835)
Spectra Averaged: 1 (USB4C02835)
Boxcar Smoothing: 0 (USB4C02835)
Correct for Electrical Dark: No (USB4C02835)
Strobe/Lamp Enabled: No (USB4C02835)
Correct for Detector Non-linearity: No (USB4C02835)
Correct for Stray Light: No (USB4C02835)
Number of Pixels in Processed Spectrum: 3648
>>>>>Begin Processed Spectral Data<<<<<
177.47	1456.11
177.69	1456.11
177.91	1456.11
178.13	1480.68
178.36	1376.24
178.58	1601.51
178.80	1740.77
179.02	1566.70
179.24	1701.86
179.46	1660.90
179.68	1816.55
179.90	1636.33
180.13	1685.48
180.35	1665.00
180.57	1724.39
180.79	1746.92
181.01	1665.00
181.23	1742.82
181.45	1740.77
181.67	1722.34
181.90	1816.55
182.12	1705.96
182.34	1640.42
182.56	1683.43
182.78	1781.73
183.00	1654.76
183.22	1761.25
183.44	1634.28
183.66	1783.78
183.89	1785.83
184.11	1681.38
184.33	1650.66
184.55	1818.60
184.77	1722.34
184.99	1753.06
185.21	1658.85
185.43	1847.27
185.65	1626.09
185.87	1738.73
186.10	1828.84
186.32	1845.22
186.54	1791.97
186.76	1746.92
186.98	1703.91
187.20	1656.81
187.42	1615.85
187.64	1681.38
187.86	1775.59
188.08	1765.35
188.30	1640.42
188.52	1636.33
188.75	1794.02
188.97	1839.08
189.19	1607.66
189.41	1681.38
189.63	1642.47
189.85	1646.57
190.07	1599.46
190.29	1652.71
190.51	1708.01
190.73	1650.66
190.95	1812.45
191.17	1683.43
191.39	1583.08
191.61	1689.57
191.84	1673.19
192.06	1703.91
192.28	1576.94
192.50	1906.66
192.72	1718.25
192.94	1660.90
193.16	1736.68
193.38	1781.73
193.60	1615.85
193.82	1724.39
194.04	1744.87
194.26	1685.48
194.48	1724.39
194.70	1574.89
194.92	1710.05
195.14	1724.39
195.36	1681.38
195.58	1697.77
195.80	1673.19
196.02	1751.01
196.24	1665.00
196.46	1675.24
196.69	1644.52
196.91	1769.44
197.13	1658.85
197.35	1673.19
197.57	1845.22
197.79	1822.69
198.01	1669.09
198.23	1734.63
198.45	1705.96
198.67	1626.09
198.89	1708.01
199.11	1726.44
199.33	1675.24
199.55	1644.52
199.77	1726.44
199.99	1722.34
200.21	1665.00
200.43	1730.53
200.65	1626.09
200.87	1574.89
201.09	1671.14
201.31	1665.00
201.53	1806.31
201.75	1746.92
201.97	1767.40
202.19	1712.10
202.41	1734.63
202.63	1884.13
202.85	1699.81
203.07	1730.53
203.29	1603.56
203.51	1587.18
203.73	1662.95
203.95	1789.92
204.17	1730.53
204.39	1695.72
204.61	1691.62
204.83	1740.77
205.05	1732.58
205.27	1751.01
205.49	1857.51
205.71	1681.38
205.93	1601.51
206.15	1665.00
206.37	1703.91
206.59	1701.86
206.81	1667.05
207.03	1646.57
207.25	1652.71
207.47	1759.21
207.69	1634.28
207.91	1775.59
208.13	1757.16
208.34	1624.04
208.56	1665.00
208.78	1779.68
209.00	1689.57
209.22	1640.42
209.44	1681.38
209.66	1658.85
209.88	1632.23
210.10	1642.47
210.32	1601.51
210.54	1810.40
210.76	1697.77
210.98	1755.11
211.20	1595.37
211.42	1746.92
211.64	1667.05
211.86	1687.53
212.08	1742.82
212.30	1724.39
212.52	1755.11
212.74	1785.83
212.96	1662.95
213.17	1773.54
213.39	1710.05
213.61	1724.39
213.83	1624.04
214.05	1591.27
214.27	1808.36
214.49	1601.51
214.71	1624.04
214.93	1804.26
215.15	1617.90
215.37	1724.39
215.59	1652.71
215.81	1765.35
216.03	1738.73
216.24	1675.24
216.46	1667.05
216.68	1718.25
216.90	1851.36
217.12	1781.73
217.34	1708.01
217.56	1732.58
217.78	1775.59
218.00	1679.33
218.22	1705.96
218.44	1710.05
218.66	1732.58
218.87	1861.60
219.09	1695.72
219.31	1697.77
219.53	1628.14
219.75	1689.57
219.97	1671.14
220.19	1736.68
220.41	1683.43
220.63	1851.36
220.85	1757.16
221.06	1628.14
221.28	1769.44
221.50	1710.05
221.72	1777.64
221.94	1683.43
222.16	1738.73
222.38	1767.40
222.60	1773.54
222.82	1701.86
223.03	1710.05
223.25	1605.61
223.47	1683.43
223.69	1742.82
223.91	1781.73
224.13	1648.61
224.35	1658.85
224.57	1775.59
224.78	1740.77
225.00	1626.09
225.22	1673.19
225.44	1740.77
225.66	1757.16
225.88	1673.19
226.10	1730.53
226.32	1751.01
226.53	1730.53
226.75	1624.04
226.97	1650.66
227.19	1705.96
227.41	1646.57
227.63	1634.28
227.85	1609.70
228.06	1644.52
228.28	1714.15
228.50	1753.06
228.72	1667.05
228.94	1650.66
229.16	1615.85
229.37	1642.47
229.59	1710.05
229.81	1757.16
230.03	1660.90
230.25	1638.38
230.47	1738.73
230.69	1697.77
230.90	1751.01
231.12	1648.61
231.34	1685.48
231.56	1789.92
231.78	1591.27
232.00	1720.29
232.21	1679.33
232.43	1613.80
232.65	1558.50
232.87	1742.82
233.09	1642.47
233.30	1677.29
233.52	1712.10
233.74	1687.53
233.96	1689.57
234.18	1689.57
234.40	1652.71
234.61	1804.26
234.83	1611.75
235.05	1667.05
235.27	1863.65
235.49	1761.25
235.70	1734.63
235.92	1822.69
236.14	1720.29
236.36	1787.88
236.58	1648.61
236.79	1728.49
237.01	1697.77
237.23	1677.29
237.45	1765.35
237.67	1675.24
237.88	1740.77
238.10	1777.64
238.32	1658.85
238.54	1718.25
238.76	1669.09
238.97	1693.67
239.19	1646.57
239.41	1785.83
239.63	1742.82
239.85	1685.48
240.06	1669.09
240.28	1730.53
240.50	1669.09
240.72	1669.09
240.93	1689.57
241.15	1755.11
241.37	1693.67
241.59	1757.16
241.81	1677.29
242.02	1697.77
242.24	1677.29
242.46	1794.02
242.68	1619.94
242.89	1763.30
243.11	1748.97
243.33	1673.19
243.55	1730.53
243.76	1712.10
243.98	1644.52
244.20	1759.21
244.42	1681.38
244.64	1710.05
244.85	1613.80
245.07	1675.24
245.29	1744.87
245.51	1767.40
245.72	1669.09
245.94	1710.05
246.16	1673.19
246.38	1722.34
246.59	1716.20
246.81	1632.23
247.03	1673.19
247.24	1626.09
247.46	1689.57
247.68	1740.77
247.90	1677.29
248.11	1677.29
248.33	1857.51
248.55	1628.14
248.77	1619.94
248.98	1675.24
249.20	1722.34
249.42	1708.01
249.64	1705.96
249.85	1687.53
250.07	1701.86
250.29	1759.21
250.50	1724.39
250.72	1626.09
250.94	1751.01
251.16	1841.12
251.37	1828.84
251.59	1689.57
251.81	1703.91
252.02	1748.97
252.24	1652.71
252.46	1787.88
252.68	1697.77
252.89	1607.66
253.11	1644.52
253.33	1781.73
253.54	1820.64
253.76	1644.52
253.98	1648.61
254.20	1740.77
254.41	1617.90
254.63	1656.81
254.85	1640.42
255.06	1689.57
255.28	1716.20
255.50	1636.33
255.71	1675.24
255.93	1564.65
256.15	1574.89
256.36	1693.67
256.58	1675.24
256.80	1710.05
257.02	1671.14
257.23	1718.25
257.45	1693.67
257.67	1816.55
257.88	1667.05
258.10	1648.61
258.32	1712.10
258.53	1705.96
258.75	1783.78
258.97	1671.14
259.18	1738.73
259.40	1673.19
259.62	1742.82
259.83	1837.03
260.05	1662.95
260.27	2004.96
260.48	1714.15
260.70	1652.71
260.92	1632.23
261.13	1714.15
261.35	1738.73
261.57	1787.88
261.78	1609.70
262.00	1646.57
262.22	1773.54
262.43	1665.00
262.65	1732.58
262.86	1665.00
263.08	1845.22
263.30	1683.43
263.51	1589.22
263.73	1656.81
263.95	1794.02
264.16	1685.48
264.38	1665.00
264.60	1722.34
264.81	1615.85
265.03	1658.85
265.25	1703.91
265.46	1759.21
265.68	1771.49
265.89	1689.57
266.11	1624.04
266.33	1728.49
266.54	1720.29
266.76	1660.90
266.98	1712.10
267.19	1708.01
267.41	1771.49
267.62	1697.77
267.84	1654.76
268.06	1689.57
268.27	1722.34
268.49	1705.96
268.70	1740.77
268.92	1671.14
269.14	1621.99
269.35	1636.33
269.57	1722.34
269.79	1683.43
270.00	1703.91
270.22	1816.55
270.43	1726.44
270.65	1626.09
270.87	1740.77
271.08	1660.90
271.30	1744.87
271.51	1681.38
271.73	1683.43
271.95	1771.49
272.16	1679.33
272.38	1785.83
272.59	1689.57
272.81	1800.16
273.02	1728.49
273.24	1705.96
273.46	1708.01
273.67	1626.09
273.89	1714.15
274.10	1665.00
274.32	1703.91
274.54	1662.95
274.75	1699.81
274.97	1632.23
275.18	1714.15
275.40	1771.49
275.61	1673.19
275.83	1789.92
276.05	1621.99
276.26	1642.47
276.48	1718.25
276.69	1658.85
276.91	1650.66
277.12	1716.20
277.34	1748.97
277.55	1755.11
277.77	1718.25
277.99	1677.29
278.20	1697.77
278.42	1583.08
278.63	1677.29
278.85	1730.53
279.06	1570.79
279.28	1738.73
279.49	1767.40
279.71	1761.25
279.93	1697.77
280.14	1611.75
280.36	1628.14
280.57	1740.77
280.79	1759.21
281.00	1624.04
281.22	1671.14
281.43	1791.97
281.65	1642.47
281.86	1613.80
282.08	1746.92
282.29	1843.17
282.51	1712.10
282.73	1669.09
282.94	1609.70
283.16	1656.81
283.37	1753.06
283.59	1710.05
283.80	1701.86
284.02	1677.29
284.23	1759.21
284.45	1648.61
284.66	1695.72
284.88	1683.43
285.09	1695.72
285.31	1785.83
285.52	1738.73
285.74	1624.04
285.95	1783.78
286.17	1667.05
286.38	1705.96
286.60	1667.05
286.81	1669.09
287.03	1656.81
287.24	1697.77
287.46	1667.05
287.67	1710.05
287.89	1785.83
288.10	1734.63
288.32	1746.92
288.53	1748.97
288.75	1710.05
288.96	1687.53
289.18	1675.24
289.39	1679.33
289.61	1740.77
289.82	1767.40
290.04	1808.36
290.25	1648.61
290.47	1703.91
290.68	1705.96
290.90	1753.06
291.11	1595.37
291.33	1734.63
291.54	1570.79
291.76	1624.04
291.97	1693.67
292.18	1730.53
292.40	1689.57
292.61	1697.77
292.83	1800.16
293.04	1751.01
293.26	1732.58
293.47	1728.49
293.69	1689.57
293.90	1697.77
294.12	1787.88
294.33	1748.97
294.55	1714.15
294.76	1718.25
294.97	1697.77
295.19	1777.64
295.40	1671.14
295.62	1765.35
295.83	1742.82
296.05	1642.47
296.26	1728.49
296.48	1648.61
296.69	1673.19
296.90	1671.14
297.12	1681.38
297.33	1718.25
297.55	1732.58
297.76	1775.59
297.98	1673.19
298.19	1701.86
298.41	1748.97
298.62	1673.19
298.83	1755.11
299.05	1714.15
299.26	1693.67
299.48	1626.09
299.69	1765.35
299.90	1849.32
300.12	1587.18
300.33	1755.11
300.55	1683.43
300.76	1730.53
300.98	1599.46
301.19	1736.68
301.40	1746.92
301.62	1671.14
301.83	1738.73
302.05	1720.29
302.26	1595.37
302.47	1783.78
302.69	1705.96
302.90	1646.57
303.12	1523.69
303.33	1734.63
303.54	1834.98
303.76	1714.15
303.97	1673.19
304.19	1769.44
304.40	1607.66
304.61	1683.43
304.83	1703.91
305.04	1867.75
305.26	1658.85
305.47	1583.08
305.68	1783.78
305.90	1607.66
306.11	1769.44
306.33	1656.81
306.54	1665.00
306.75	1650.66
306.97	1531.88
307.18	1685.48
307.39	1650.66
307.61	1751.01
307.82	1769.44
308.04	1751.01
308.25	1660.90
308.46	1691.62
308.68	1693.67
308.89	1691.62
309.10	1728.49
309.32	1718.25
309.53	1677.29
309.74	1789.92
309.96	1742.82
310.17	1796.07
310.39	1693.67
310.60	1779.68
310.81	1693.67
311.03	1636.33
311.24	1705.96
311.45	1791.97
311.67	1832.93
311.88	1644.52
312.09	1675.24
312.31	1626.09
312.52	1708.01
312.73	1744.87
312.95	1648.61
313.16	1669.09
313.37	1781.73
313.59	1724.39
313.80	1798.12
314.01	1751.01
314.23	1687.53
314.44	1662.95
314.65	1656.81
314.87	1601.51
315.08	1730.53
315.29	1712.10
315.51	1626.09
315.72	1654.76
315.93	1857.51
316.15	1787.88
316.36	1634.28
316.57	1683.43
316.79	1716.20
317.00	1691.62
317.21	1724.39
317.43	1650.66
317.64	1722.34
317.85	1656.81
318.07	1648.61
318.28	1667.05
318.49	1839.08
318.70	1920.99
318.92	1820.64
319.13	1822.69
319.34	1822.69
319.56	1849.32
319.77	1789.92
319.98	1765.35
320.20	1791.97
320.41	1730.53
320.62	1751.01
320.83	1660.90
321.05	1761.25
321.26	1777.64
321.47	1730.53
321.69	1732.58
321.90	1640.42
322.11	1650.66
322.32	1705.96
322.54	1748.97
322.75	1640.42
322.96	1871.84
323.18	1621.99
323.39	1560.55
323.60	1677.29
323.81	1757.16
324.03	1619.94
324.24	1705.96
324.45	1693.67
324.66	1718.25
324.88	1785.83
325.09	1810.40
325.30	1652.71
325.52	1732.58
325.73	1687.53
325.94	1677.29
326.15	1628.14
326.37	1673.19
326.58	1740.77
326.79	1822.69
327.00	1630.18
327.22	1699.81
327.43	1648.61
327.64	1667.05
327.85	1738.73
328.07	1708.01
328.28	1837.03
328.49	1658.85
328.70	1730.53
328.92	1720.29
329.13	1738.73
329.34	1710.05
329.55	1759.21
329.76	1783.78
329.98	1691.62
330.19	1724.39
330.40	1761.25
330.61	1765.35
330.83	1697.77
331.04	1681.38
331.25	1710.05
331.46	1642.47
331.68	1578.98
331.89	1763.30
332.10	1677.29
332.31	1632.23
332.52	1701.86
332.74	1812.45
332.95	1576.94
333.16	1632.23
333.37	1845.22
333.58	1695.72
333.80	1675.24
334.01	1642.47
334.22	1679.33
334.43	1624.04
334.64	1679.33
334.86	1591.27
335.07	1699.81
335.28	1730.53
335.49	1617.90
335.70	1613.80
335.92	1697.77
336.13	1775.59
336.34	1728.49
336.55	1687.53
336.76	1675.24
336.98	1701.86
337.19	1761.25
337.40	1783.78
337.61	1834.98
337.82	1601.51
338.04	1751.01
338.25	1607.66
338.46	1746.92
338.67	1656.81
338.88	1609.70
339.09	1708.01
339.31	1652.71
339.52	1658.85
339.73	1613.80
339.94	1660.90
340.15	1822.69
340.36	1632.23
340.58	1726.44
340.79	1624.04
341.00	1689.57
341.21	1642.47
341.42	1755.11
341.63	1697.77
341.85	1789.92
342.06	1728.49
342.27	1615.85
342.48	1773.54
342.69	1665.00
342.90	1705.96
343.12	1781.73
343.33	1695.72
343.54	1650.66
343.75	1791.97
343.96	1703.91
344.17	1658.85
344.38	1716.20
344.60	1730.53
344.81	1624.04
345.02	1689.57
345.23	1845.22
345.44	1816.55
345.65	1636.33
345.86	1814.50
346.07	1675.24
346.29	1599.46
346.50	1691.62
346.71	1607.66
346.92	1759.21
347.13	1855.46
347.34	1697.77
347.55	1712.10
347.76	1679.33
347.98	1632.23
348.19	1656.81
348.40	1779.68
348.61	1628.14
348.82	1781.73
349.03	1722.34
349.24	1669.09
349.45	1820.64
349.66	1593.32
349.88	1730.53
350.09	1681.38
350.30	1755.11
350.51	1734.63
350.72	1714.15
350.93	1724.39
351.14	1654.76
351.35	1818.60
351.56	1746.92
351.77	1726.44
351.99	1724.39
352.20	1726.44
352.41	1824.74
352.62	1533.93
352.83	1710.05
353.04	1757.16
353.25	1669.09
353.46	1798.12
353.67	1669.09
353.88	1568.74
354.09	1675.24
354.30	1689.57
354.52	1755.11
354.73	1669.09
354.94	1619.94
355.15	1724.39
355.36	1791.97
355.57	1646.57
355.78	1732.58
355.99	1689.57
356.20	1689.57
356.41	1785.83
356.62	1695.72
356.83	1722.34
357.04	1787.88
357.25	1632.23
357.46	1701.86
357.68	1613.80
357.89	1603.56
358.10	1677.29
358.31	1699.81
358.52	1685.48
358.73	1603.56
358.94	1562.60
359.15	1634.28
359.36	1646.57
359.57	1748.97
359.78	1730.53
359.99	1730.53
360.20	1646.57
360.41	1724.39
360.62	1710.05
360.83	1726.44
361.04	1857.51
361.25	1675.24
361.46	1814.50
361.67	1683.43
361.88	1691.62
362.09	1761.25
362.30	1714.15
362.51	1734.63
362.72	1759.21
362.93	1759.21
363.14	1775.59
363.35	1744.87
363.56	1634.28
363.78	1744.87
363.99	1665.00
364.20	1595.37
364.41	1714.15
364.62	1853.41
364.83	1697.77
365.04	1734.63
365.25	1730.53
365.46	1773.54
365.67	1611.75
365.88	1636.33
366.09	1677.29
366.30	1652.71
366.51	1779.68
366.72	1673.19
366.93	1787.88
367.14	1712.10
367.35	1832.93
367.56	1695.72
367.77	1757.16
367.98	1654.76
368.18	1667.05
368.39	1708.01
368.60	1654.76
368.81	1712.10
369.02	1728.49
369.23	1695.72
369.44	1650.66
369.65	1640.42
369.86	1695.72
370.07	1697.77
370.28	1697.77
370.49	1800.16
370.70	1800.16
370.91	1701.86
371.12	1593.32
371.33	1693.67
371.54	1716.20
371.75	1744.87
371.96	1542.12
372.17	1705.96
372.38	1675.24
372.59	1755.11
372.80	1632.23
373.01	1781.73
373.22	1744.87
373.43	1701.86
373.64	1699.81
373.85	1763.30
374.06	1806.31
374.26	1689.57
374.47	1687.53
374.68	1802.21
374.89	1695.72
375.10	1681.38
375.31	1718.25
375.52	1757.16
375.73	1667.05
375.94	1681.38
376.15	1771.49
376.36	1712.10
376.57	1585.13
376.78	1716.20
376.99	1742.82
377.20	1767.40
377.40	1673.19
377.61	1849.32
377.82	1624.04
378.03	1722.34
378.24	1703.91
378.45	1753.06
378.66	1748.97
378.87	1554.41
379.08	1609.70
379.29	1650.66
379.50	1806.31
379.71	1671.14
379.91	1722.34
380.12	1736.68
380.33	1710.05
380.54	1728.49
380.75	1701.86
380.96	1705.96
381.17	1708.01
381.38	1748.97
381.59	1699.81
381.80	1718.25
382.00	1859.56
382.21	1710.05
382.42	1822.69
382.63	1787.88
382.84	1705.96
383.05	1748.97
383.26	1810.40
383.47	1714.15
383.68	1724.39
383.88	1748.97
384.09	1699.81
384.30	1710.05
384.51	1687.53
384.72	1677.29
384.93	1638.38
385.14	1685.48
385.35	1718.25
385.55	1703.91
385.76	1718.25
385.97	1718.25
386.18	1615.85
386.39	1681.38
386.60	1658.85
386.81	1701.86
387.02	1708.01
387.22	1613.80
387.43	1800.16
387.64	1783.78
387.85	1802.21
388.06	2222.05
388.27	4304.83
388.48	6756.25
388.68	8179.59
388.89	9529.20
389.10	9654.12
389.31	8589.18
389.52	7616.40
389.73	6735.77
389.93	6205.35
390.14	5613.48
390.35	5228.46
390.56	4554.68
390.77	3815.37
390.98	3069.91
391.18	2469.85
391.39	2099.17
391.60	1787.88
391.81	1796.07
392.02	1675.24
392.23	1828.84
392.43	1677.29
392.64	1787.88
392.85	1722.34
393.06	1804.26
393.27	1724.39
393.47	1646.57
393.68	1718.25
393.89	1710.05
394.10	1789.92
394.31	1683.43
394.52	1630.18
394.72	1736.68
394.93	1753.06
395.14	1611.75
395.35	1703.91
395.56	1644.52
395.76	1771.49
395.97	1787.88
396.18	1814.50
396.39	1804.26
396.60	2068.45
396.80	1908.71
397.01	1822.69
397.22	1886.18
397.43	1869.80
397.64	1763.30
397.84	1771.49
398.05	1806.31
398.26	1767.40
398.47	1798.12
398.67	1699.81
398.88	1746.92
399.09	1820.64
399.30	1718.25
399.51	1751.01
399.71	1669.09
399.92	1718.25
400.13	1673.19
400.34	1613.80
400.54	1751.01
400.75	1816.55
400.96	1742.82
401.17	1765.35
401.37	1734.63
401.58	1705.96
401.79	1724.39
402.00	1898.47
402.21	1980.39
402.41	1951.71
402.62	1925.09
402.83	2066.40
403.04	1972.19
403.24	2115.55
403.45	1767.40
403.66	1906.66
403.87	1828.84
404.07	1882.08
404.28	1861.60
404.49	1904.61
404.70	1693.67
404.90	1832.93
405.11	1710.05
405.32	1724.39
405.52	1607.66
405.73	1685.48
405.94	1640.42
406.15	1695.72
406.35	1744.87
406.56	1802.21
406.77	1650.66
406.98	1656.81
407.18	1728.49
407.39	1705.96
407.60	1628.14
407.80	1767.40
408.01	1710.05
408.22	1683.43
408.43	1654.76
408.63	1726.44
408.84	1736.68
409.05	1816.55
409.25	1624.04
409.46	1693.67
409.67	1636.33
409.88	1597.42
410.08	1759.21
410.29	1660.90
410.50	1718.25
410.70	1777.64
410.91	1685.48
411.12	1744.87
411.32	1705.96
411.53	1732.58
411.74	1802.21
411.95	1722.34
412.15	1742.82
412.36	1759.21
412.57	1714.15
412.77	1804.26
412.98	1703.91
413.19	1699.81
413.39	1824.74
413.60	1662.95
413.81	1753.06
414.01	1667.05
414.22	1701.86
414.43	1753.06
414.63	1669.09
414.84	1851.36
415.05	1726.44
415.25	1665.00
415.46	1785.83
415.67	1648.61
415.87	1673.19
416.08	1650.66
416.29	1734.63
416.49	1728.49
416.70	1738.73
416.91	1650.66
417.11	1658.85
417.32	1783.78
417.53	1691.62
417.73	1712.10
417.94	1734.63
418.15	1646.57
418.35	1701.86
418.56	1693.67
418.77	1824.74
418.97	1761.25
419.18	1685.48
419.38	1671.14
419.59	1728.49
419.80	1818.60
420.00	1716.20
420.21	1773.54
420.42	1736.68
420.62	1722.34
420.83	1669.09
421.04	1740.77
421.24	1712.10
421.45	1740.77
421.65	1789.92
421.86	1671.14
422.07	1767.40
422.27	1775.59
422.48	1761.25
422.69	1632.23
422.89	1728.49
423.10	1665.00
423.30	1710.05
423.51	1769.44
423.72	1791.97
423.92	1699.81
424.13	1677.29
424.33	1660.90
424.54	1738.73
424.75	1843.17
424.95	1912.80
425.16	1714.15
425.36	1716.20
425.57	1757.16
425.78	1683.43
425.98	1820.64
426.19	1720.29
426.39	1728.49
426.60	1738.73
426.81	1726.44
427.01	1708.01
427.22	1689.57
427.42	1607.66
427.63	1572.84
427.83	1689.57
428.04	1775.59
428.25	1781.73
428.45	1812.45
428.66	1744.87
428.86	1650.66
429.07	1677.29
429.28	1734.63
429.48	1751.01
429.69	1642.47
429.89	1662.95
430.10	1681.38
430.30	1779.68
430.51	1712.10
430.71	1691.62
430.92	1691.62
431.13	1665.00
431.33	1777.64
431.54	1693.67
431.74	1845.22
431.95	1794.02
432.15	1654.76
432.36	1757.16
432.56	1773.54
432.77	1849.32
432.98	1722.34
433.18	1689.57
433.39	1724.39
433.59	1742.82
433.80	1859.56
434.00	1826.79
434.21	1578.98
434.41	1673.19
434.62	1746.92
434.82	1638.38
435.03	1667.05
435.23	1757.16
435.44	1570.79
435.64	1683.43
435.85	1738.73
436.06	1705.96
436.26	1753.06
436.47	1681.38
436.67	1699.81
436.88	1738.73
437.08	1708.01
437.29	1818.60
437.49	1767.40
437.70	1730.53
437.90	1691.62
438.11	1847.27
438.31	1800.16
438.52	1828.84
438.72	1802.21
438.93	1968.10
439.13	1746.92
439.34	1810.40
439.54	1748.97
439.75	1808.36
439.95	1783.78
440.16	1708.01
440.36	1804.26
440.57	1773.54
440.77	1771.49
440.98	1687.53
441.18	1773.54
441.39	1683.43
441.59	1716.20
441.80	1871.84
442.00	1675.24
442.21	1830.88
442.41	1601.51
442.62	1759.21
442.82	1705.96
443.02	1671.14
443.23	1722.34
443.43	1687.53
443.64	1757.16
443.84	1581.03
444.05	1841.12
444.25	1771.49
444.46	1734.63
444.66	1820.64
444.87	1855.46
445.07	1619.94
445.28	1705.96
445.48	1765.35
445.69	1775.59
445.89	1873.89
446.09	1814.50
446.30	1984.48
446.50	2660.31
446.71	3641.29
446.91	4364.22
447.12	4562.87
447.32	4712.38
447.53	4310.97
447.73	3805.13
447.93	3522.51
448.14	3319.76
448.34	3162.06
448.55	2777.05
448.75	2861.01
448.96	2660.31
449.16	2449.37
449.36	2310.11
449.57	2037.73
449.77	1845.22
449.98	1773.54
450.18	1892.32
450.39	1753.06
450.59	1826.79
450.79	1722.34
451.00	1662.95
451.20	1753.06
451.41	1667.05
451.61	1691.62
451.81	1767.40
452.02	1746.92
452.22	1765.35
452.43	1773.54
452.63	1714.15
452.84	1746.92
453.04	1703.91
453.24	1722.34
453.45	1619.94
453.65	1718.25
453.86	1751.01
454.06	1685.48
454.26	1787.88
454.47	1669.09
454.67	1843.17
454.87	1724.39
455.08	1773.54
455.28	1861.60
455.49	1718.25
455.69	1656.81
455.89	1845.22
456.10	1732.58
456.30	1687.53
456.51	1734.63
456.71	1728.49
456.91	1726.44
457.12	1785.83
457.32	1712.10
457.52	1667.05
457.73	1822.69
457.93	1771.49
458.14	1640.42
458.34	1669.09
458.54	1710.05
458.75	1648.61
458.95	1730.53
459.15	1673.19
459.36	1765.35
459.56	1826.79
459.76	1820.64
459.97	1789.92
460.17	1775.59
460.37	1794.02
460.58	1775.59
460.78	1693.67
460.99	1638.38
461.19	1681.38
461.39	1732.58
461.60	1773.54
461.80	1853.41
462.00	1687.53
462.21	1708.01
462.41	1660.90
462.61	1695.72
462.82	1601.51
463.02	1771.49
463.22	1798.12
463.43	1791.97
463.63	1665.00
463.83	1796.07
464.04	1802.21
464.24	1734.63
464.44	1742.82
464.64	1787.88
464.85	1789.92
465.05	1753.06
465.25	1771.49
465.46	1697.77
465.66	1796.07
465.86	1798.12
466.07	1763.30
466.27	1746.92
466.47	1667.05
466.68	1638.38
466.88	1822.69
467.08	1732.58
467.29	1834.98
467.49	1728.49
467.69	1722.34
467.89	1773.54
468.10	1730.53
468.30	1691.62
468.50	1742.82
468.71	1761.25
468.91	1689.57
469.11	1806.31
469.31	1671.14
469.52	1673.19
469.72	1830.88
469.92	1847.27
470.13	1771.49
470.33	1705.96
470.53	1804.26
470.73	2086.88
470.94	2320.35
471.14	2312.16
471.34	2549.72
471.54	2410.46
471.75	2267.10
471.95	2193.37
472.15	2045.92
472.36	2082.78
472.56	2052.06
472.76	2047.97
472.96	2002.91
473.17	1951.71
473.37	1877.99
473.57	1841.12
473.77	1863.65
473.98	1705.96
474.18	1697.77
474.38	1892.32
474.58	1718.25
474.79	1722.34
474.99	1787.88
475.19	1740.77
475.39	1642.47
475.60	1679.33
475.80	1755.11
476.00	1689.57
476.20	1656.81
476.41	1724.39
476.61	1849.32
476.81	1771.49
477.01	1722.34
477.21	1855.46
477.42	1837.03
477.62	1681.38
477.82	1753.06
478.02	1728.49
478.23	1785.83
478.43	1597.42
478.63	1644.52
478.83	1650.66
479.03	1652.71
479.24	1796.07
479.44	1894.37
479.64	1728.49
479.84	1626.09
480.04	1679.33
480.25	1804.26
480.45	1751.01
480.65	1673.19
480.85	1771.49
481.06	1634.28
481.26	1703.91
481.46	1746.92
481.66	1685.48
481.86	1685.48
482.06	1822.69
482.27	1669.09
482.47	1601.51
482.67	1771.49
482.87	1699.81
483.07	1763.30
483.28	1689.57
483.48	1695.72
483.68	1720.29
483.88	1613.80
484.08	1679.33
484.29	1667.05
484.49	1730.53
484.69	1609.70
484.89	1730.53
485.09	1738.73
485.29	1763.30
485.50	1781.73
485.70	1665.00
485.90	1728.49
486.10	1742.82
486.30	1734.63
486.50	1798.12
486.71	1677.29
486.91	1759.21
487.11	1800.16
487.31	1656.81
487.51	1697.77
487.71	1662.95
487.91	1624.04
488.12	1699.81
488.32	1634.28
488.52	1675.24
488.72	1638.38
488.92	1705.96
489.12	1763.30
489.32	1724.39
489.53	1751.01
489.73	1636.33
489.93	1855.46
490.13	1689.57
490.33	1599.46
490.53	1667.05
490.73	1765.35
490.94	1693.67
491.14	1820.64
491.34	1855.46
491.54	2093.02
491.74	2496.47
491.94	2959.31
492.14	2967.51
492.34	3071.95
492.54	2766.81
492.75	2461.66
492.95	2406.36
493.15	2353.12
493.35	2299.87
493.55	2187.23
493.75	2095.07
493.95	2103.26
494.15	2021.35
494.35	1904.61
494.56	1894.37
494.76	1697.77
494.96	1787.88
495.16	1779.68
495.36	1677.29
495.56	1720.29
495.76	1685.48
495.96	1683.43
496.16	1697.77
496.36	1824.74
496.56	1730.53
496.77	1740.77
496.97	1769.44
497.17	1796.07
497.37	1589.22
497.57	1798.12
497.77	1705.96
497.97	1675.24
498.17	1740.77
498.37	1720.29
498.57	1757.16
498.77	1677.29
498.97	1736.68
499.17	1886.18
499.38	1712.10
499.58	1787.88
499.78	1824.74
499.98	1845.22
500.18	1687.53
500.38	1734.63
500.58	1927.14
500.78	2504.67
500.98	4523.96
501.18	5836.71
501.38	6723.48
501.58	7090.07
501.78	6547.36
501.98	5439.40
502.18	4951.99
502.38	4456.38
502.58	4005.83
502.78	3813.32
502.98	3676.10
503.18	3418.06
503.38	3155.92
503.59	2787.29
503.79	2723.80
503.99	2525.15
504.19	2291.68
504.39	2244.57
504.59	2211.81
504.79	2201.57
504.99	2039.78
505.19	1853.41
505.39	1918.95
505.59	2060.26
505.79	1880.04
505.99	1816.55
506.19	1804.26
506.39	1873.89
506.59	1744.87
506.79	1763.30
506.99	1806.31
507.19	1820.64
507.39	1669.09
507.59	1681.38
507.79	1681.38
507.99	1691.62
508.19	1724.39
508.39	1724.39
508.59	1697.77
508.79	1789.92
508.99	1779.68
509.19	1705.96
509.39	1734.63
509.59	1677.29
509.79	1697.77
509.99	1779.68
510.19	1773.54
510.39	1791.97
510.59	1746.92
510.79	1751.01
510.99	1621.99
511.19	1685.48
511.39	1787.88
511.59	1761.25
511.79	1765.35
511.99	1726.44
512.19	1718.25
512.38	1744.87
512.58	1683.43
512.78	1705.96
512.98	1783.78
513.18	1865.70
513.38	1679.33
513.58	1732.58
513.78	1757.16
513.98	1777.64
514.18	1794.02
514.38	1685.48
514.58	1828.84
514.78	1716.20
514.98	1662.95
515.18	1722.34
515.38	1640.42
515.58	1869.80
515.78	1673.19
515.98	1714.15
516.18	1763.30
516.38	1789.92
516.57	1638.38
516.77	1669.09
516.97	1703.91
517.17	1656.81
517.37	1683.43
517.57	1824.74
517.77	1730.53
517.97	1712.10
518.17	1689.57
518.37	1607.66
518.57	1746.92
518.77	1726.44
518.97	1751.01
519.16	1744.87
519.36	1820.64
519.56	1718.25
519.76	1751.01
519.96	1761.25
520.16	1804.26
520.36	1685.48
520.56	1789.92
520.76	1607.66
520.96	1712.10
521.16	1834.98
521.35	1734.63
521.55	1869.80
521.75	1748.97
521.95	1726.44
522.15	1695.72
522.35	1624.04
522.55	1665.00
522.75	1779.68
522.95	1679.33
523.14	1691.62
523.34	1779.68
523.54	1687.53
523.74	1773.54
523.94	1759.21
524.14	1656.81
524.34	1712.10
524.54	1886.18
524.73	1673.19
524.93	1779.68
525.13	1738.73
525.33	1671.14
525.53	1947.62
525.73	1751.01
525.93	1740.77
526.13	1683.43
526.32	1738.73
526.52	1812.45
526.72	1800.16
526.92	1740.77
527.12	1781.73
527.32	1642.47
527.52	1732.58
527.71	1742.82
527.91	1740.77
528.11	1730.53
528.31	1775.59
528.51	1673.19
528.71	1761.25
528.90	1810.40
529.10	1806.31
529.30	1802.21
529.50	1638.38
529.70	1789.92
529.90	1705.96
530.09	1703.91
530.29	1665.00
530.49	1671.14
530.69	1808.36
530.89	1777.64
531.09	1787.88
531.28	1689.57
531.48	1789.92
531.68	1730.53
531.88	1740.77
532.08	1785.83
532.28	1712.10
532.47	1769.44
532.67	1798.12
532.87	1656.81
533.07	1634.28
533.27	1775.59
533.46	1673.19
533.66	1746.92
533.86	1609.70
534.06	1712.10
534.26	1740.77
534.45	1710.05
534.65	1843.17
534.85	1689.57
535.05	1730.53
535.25	1742.82
535.44	1607.66
535.64	1820.64
535.84	1716.20
536.04	1640.42
536.24	1761.25
536.43	1771.49
536.63	1781.73
536.83	1710.05
537.03	1710.05
537.22	1658.85
537.42	1630.18
537.62	1798.12
537.82	1669.09
538.02	1822.69
538.21	1828.84
538.41	1902.56
538.61	1736.68
538.81	1767.40
539.00	1751.01
539.20	1665.00
539.40	1730.53
539.60	1798.12
539.79	1789.92
539.99	1748.97
540.19	1701.86
540.39	1726.44
540.58	1757.16
540.78	1808.36
540.98	1779.68
541.18	1714.15
541.37	1787.88
541.57	1677.29
541.77	1800.16
541.97	1671.14
542.16	1648.61
542.36	1652.71
542.56	1693.67
542.76	1871.84
542.95	1806.31
543.15	1634.28
543.35	1734.63
543.54	1665.00
543.74	1634.28
543.94	1820.64
544.14	1660.90
544.33	1656.81
544.53	1708.01
544.73	1732.58
544.93	1722.34
545.12	1695.72
545.32	1738.73
545.52	1783.78
545.71	1683.43
545.91	1738.73
546.11	1753.06
546.30	1615.85
546.50	1658.85
546.70	1804.26
546.90	1771.49
547.09	1648.61
547.29	1771.49
547.49	1710.05
547.68	1777.64
547.88	1718.25
548.08	1806.31
548.27	2246.62
548.47	1697.77
548.67	1751.01
548.87	1732.58
549.06	1710.05
549.26	1701.86
549.46	1845.22
549.65	1660.90
549.85	1834.98
550.05	1751.01
550.24	1705.96
550.44	1771.49
550.64	1728.49
550.83	1722.34
551.03	1806.31
551.23	1912.80
551.42	1730.53
551.62	1740.77
551.82	1675.24
552.01	1720.29
552.21	1789.92
552.41	1861.60
552.60	1751.01
552.80	1740.77
553.00	1714.15
553.19	1730.53
553.39	1783.78
553.59	1689.57
553.78	1771.49
553.98	1753.06
554.17	1738.73
554.37	1834.98
554.57	1736.68
554.76	1638.38
554.96	1722.34
555.16	1755.11
555.35	1726.44
555.55	1820.64
555.75	1738.73
555.94	1798.12
556.14	1673.19
556.33	1796.07
556.53	1785.83
556.73	1759.21
556.92	1767.40
557.12	1806.31
557.32	1834.98
557.51	1853.41
557.71	1757.16
557.90	1796.07
558.10	1748.97
558.30	1755.11
558.49	1708.01
558.69	1701.86
558.88	1728.49
559.08	1828.84
559.28	1708.01
559.47	1777.64
559.67	1841.12
559.86	1845.22
560.06	1824.74
560.26	1699.81
560.45	1800.16
560.65	1710.05
560.84	1685.48
561.04	1710.05
561.24	1785.83
561.43	1619.94
561.63	1853.41
561.82	1732.58
562.02	1742.82
562.22	1763.30
562.41	1714.15
562.61	1714.15
562.80	1656.81
563.00	1800.16
563.19	1742.82
563.39	1714.15
563.59	1714.15
563.78	1740.77
563.98	1570.79
564.17	1703.91
564.37	1632.23
564.56	1712.10
564.76	1656.81
564.96	1779.68
565.15	1800.16
565.35	1867.75
565.54	1646.57
565.74	1773.54
565.93	1746.92
566.13	1679.33
566.32	1794.02
566.52	1753.06
566.71	1708.01
566.91	1746.92
567.11	1734.63
567.30	1685.48
567.50	1771.49
567.69	1757.16
567.89	1720.29
568.08	1761.25
568.28	1767.40
568.47	1677.29
568.67	1761.25
568.86	1722.34
569.06	1730.53
569.25	1615.85
569.45	1630.18
569.64	1720.29
569.84	1712.10
570.04	1673.19
570.23	1712.10
570.43	1744.87
570.62	1722.34
570.82	1767.40
571.01	1646.57
571.21	1699.81
571.40	1656.81
571.60	1867.75
571.79	1791.97
571.99	1730.53
572.18	1644.52
572.38	1705.96
572.57	1697.77
572.77	1736.68
572.96	1820.64
573.16	1789.92
573.35	1718.25
573.55	1806.31
573.74	1773.54
573.94	1701.86
574.13	1636.33
574.33	1787.88
574.52	1822.69
574.71	1722.34
574.91	1744.87
575.10	1626.09
575.30	1658.85
575.49	1685.48
575.69	1646.57
575.88	1683.43
576.08	1759.21
576.27	1798.12
576.47	1708.01
576.66	1908.71
576.86	1832.93
577.05	1691.62
577.25	1779.68
577.44	1843.17
577.64	1730.53
577.83	1804.26
578.02	1755.11
578.22	1853.41
578.41	1845.22
578.61	1656.81
578.80	1726.44
579.00	1769.44
579.19	1751.01
579.39	1679.33
579.58	1837.03
579.77	1759.21
579.97	1832.93
580.16	1783.78
580.36	1806.31
580.55	1871.84
580.75	1804.26
580.94	1796.07
581.13	1810.40
581.33	1888.23
581.52	1771.49
581.72	1837.03
581.91	1800.16
582.11	1689.57
582.30	1775.59
582.49	1757.16
582.69	1834.98
582.88	1710.05
583.08	1800.16
583.27	1816.55
583.47	1843.17
583.66	1667.05
583.85	1665.00
584.05	1798.12
584.24	1755.11
584.44	1820.64
584.63	1771.49
584.82	1822.69
585.02	1814.50
585.21	1789.92
585.41	1779.68
585.60	1841.12
585.79	1966.05
585.99	1869.80
586.18	1849.32
586.37	2158.56
586.57	3344.33
586.76	9758.57
586.96	24270.48
587.15	34121.21
587.34	40318.36
587.54	41631.11
587.73	36439.51
587.93	26037.87
588.12	21595.83
588.31	18349.80
588.51	16205.58
588.70	15079.19
588.89	13979.43
589.09	12523.33
589.28	10975.06
589.47	9267.06
589.67	7892.87
589.86	6565.79
590.06	5025.72
590.25	3868.61
590.44	3106.77
590.64	2547.67
590.83	2336.73
591.02	2097.12
591.22	1931.23
591.41	1912.80
591.60	1845.22
591.80	1951.71
591.99	1689.57
592.18	1699.81
592.38	1849.32
592.57	1748.97
592.76	1806.31
592.96	1847.27
593.15	1681.38
593.34	1722.34
593.54	1703.91
593.73	1783.78
593.92	1697.77
594.12	1771.49
594.31	1724.39
594.50	1773.54
594.70	1800.16
594.89	1898.47
595.08	1701.86
595.28	1775.59
595.47	1877.99
595.66	1867.75
595.86	1722.34
596.05	1779.68
596.24	1679.33
596.43	1863.65
596.63	1826.79
596.82	1828.84
597.01	1730.53
597.21	1763.30
597.40	1851.36
597.59	1769.44
597.79	1767.40
597.98	1705.96
598.17	1771.49
598.36	1783.78
598.56	1767.40
598.75	1681.38
598.94	1789.92
599.14	1746.92
599.33	1734.63
599.52	1816.55
599.71	1830.88
599.91	1777.64
600.10	1820.64
600.29	1738.73
600.48	1837.03
600.68	1708.01
600.87	1742.82
601.06	1650.66
601.26	1742.82
601.45	1732.58
601.64	1689.57
601.83	1808.36
602.03	1667.05
602.22	1726.44
602.41	1775.59
602.60	1765.35
602.80	1767.40
602.99	1755.11
603.18	1734.63
603.37	1728.49
603.57	1730.53
603.76	1705.96
603.95	1773.54
604.14	1783.78
604.34	1632.23
604.53	1767.40
604.72	1734.63
604.91	1808.36
605.10	1746.92
605.30	1699.81
605.49	1834.98
605.68	1714.15
605.87	1732.58
606.07	1691.62
606.26	1714.15
606.45	1808.36
606.64	1712.10
606.84	1746.92
607.03	1648.61
607.22	1728.49
607.41	1665.00
607.60	1701.86
607.80	1796.07
607.99	1769.44
608.18	1738.73
608.37	1777.64
608.56	1632.23
608.76	1724.39
608.95	1894.37
609.14	1660.90
609.33	1769.44
609.52	1853.41
609.72	1691.62
609.91	1730.53
610.10	1689.57
610.29	1742.82
610.48	1787.88
610.68	1730.53
610.87	1665.00
611.06	1697.77
611.25	1736.68
611.44	1714.15
611.63	1703.91
611.83	1763.30
612.02	1681.38
612.21	1841.12
612.40	1630.18
612.59	1669.09
612.79	1679.33
612.98	1730.53
613.17	1796.07
613.36	1722.34
613.55	1812.45
613.74	1699.81
613.93	1654.76
614.13	1701.86
614.32	1667.05
614.51	1765.35
614.70	1705.96
614.89	1624.04
615.08	1787.88
615.28	2064.35
615.47	1683.43
615.66	1738.73
615.85	1624.04
616.04	1853.41
616.23	1662.95
616.42	1765.35
616.62	1832.93
616.81	1773.54
617.00	1738.73
617.19	1703.91
617.38	1644.52
617.57	1728.49
617.76	1791.97
617.95	1753.06
618.15	1658.85
618.34	1783.78
618.53	1669.09
618.72	1767.40
618.91	1738.73
619.10	1716.20
619.29	1718.25
619.48	1734.63
619.68	1665.00
619.87	1697.77
620.06	1748.97
620.25	1681.38
620.44	1748.97
620.63	1621.99
620.82	1738.73
621.01	1673.19
621.20	1691.62
621.39	1738.73
621.59	1658.85
621.78	1755.11
621.97	1695.72
622.16	1814.50
622.35	1734.63
622.54	1716.20
622.73	1820.64
622.92	1595.37
623.11	1763.30
623.30	1746.92
623.49	1781.73
623.68	1708.01
623.88	1748.97
624.07	1740.77
624.26	1724.39
624.45	1796.07
624.64	1662.95
624.83	1732.58
625.02	1679.33
625.21	1695.72
625.40	1712.10
625.59	1796.07
625.78	1646.57
625.97	1751.01
626.16	1796.07
626.35	1730.53
626.54	1726.44
626.74	1710.05
626.93	1722.34
627.12	1687.53
627.31	1771.49
627.50	1791.97
627.69	1781.73
627.88	1673.19
628.07	1689.57
628.26	1687.53
628.45	1681.38
628.64	1697.77
628.83	1720.29
629.02	1683.43
629.21	1734.63
629.40	1740.77
629.59	1712.10
629.78	1638.38
629.97	1689.57
630.16	1687.53
630.35	1734.63
630.54	1679.33
630.73	1695.72
630.92	1751.01
631.11	1660.90
631.30	1755.11
631.49	1722.34
631.68	1708.01
631.87	1736.68
632.06	1607.66
632.25	1787.88
632.44	1697.77
632.63	1769.44
632.82	1669.09
633.01	1695.72
633.20	1714.15
633.39	1656.81
633.58	1687.53
633.77	1710.05
633.96	1705.96
634.15	1808.36
634.34	1751.01
634.53	1751.01
634.72	1658.85
634.91	1636.33
635.10	1748.97
635.29	1759.21
635.48	1673.19
635.67	1636.33
635.86	1681.38
636.05	1761.25
636.24	1738.73
636.43	1746.92
636.62	1757.16
636.81	1525.74
637.00	1755.11
637.19	1773.54
637.38	1665.00
637.57	1564.65
637.76	1681.38
637.95	1720.29
638.14	1705.96
638.33	1746.92
638.52	1687.53
638.71	1632.23
638.89	1660.90
639.08	1837.03
639.27	1761.25
639.46	1718.25
639.65	1806.31
639.84	1730.53
640.03	1820.64
640.22	1656.81
640.41	1697.77
640.60	1669.09
640.79	1728.49
640.98	1644.52
641.17	1783.78
641.36	1783.78
641.55	1744.87
641.74	1646.57
641.92	1728.49
642.11	1640.42
642.30	1738.73
642.49	1687.53
642.68	1644.52
642.87	1724.39
643.06	1681.38
643.25	1718.25
643.44	1667.05
643.63	1736.68
643.82	1716.20
644.00	1589.22
644.19	1714.15
644.38	1644.52
644.57	1746.92
644.76	1736.68
644.95	1746.92
645.14	1730.53
645.33	1658.85
645.52	1728.49
645.71	1609.70
645.89	1693.67
646.08	1763.30
646.27	1716.20
646.46	1861.60
646.65	1621.99
646.84	1705.96
647.03	1671.14
647.22	1746.92
647.40	1710.05
647.59	1705.96
647.78	1665.00
647.97	1624.04
648.16	1591.27
648.35	1806.31
648.54	1779.68
648.73	1658.85
648.91	1777.64
649.10	1705.96
649.29	1687.53
649.48	1734.63
649.67	1689.57
649.86	1697.77
650.05	1662.95
650.23	1724.39
650.42	1595.37
650.61	1761.25
650.80	1714.15
650.99	1839.08
651.18	1791.97
651.36	1834.98
651.55	1648.61
651.74	1718.25
651.93	1675.24
652.12	1652.71
652.31	1751.01
652.49	1689.57
652.68	1699.81
652.87	1730.53
653.06	1755.11
653.25	1755.11
653.44	1671.14
653.62	1834.98
653.81	1703.91
654.00	1665.00
654.19	1673.19
654.38	1812.45
654.56	1744.87
654.75	1714.15
654.94	1742.82
655.13	1736.68
655.32	1679.33
655.51	1783.78
655.69	1642.47
655.88	1746.92
656.07	1650.66
656.26	1681.38
656.45	1650.66
656.63	1732.58
656.82	1826.79
657.01	1730.53
657.20	1642.47
657.38	1757.16
657.57	1687.53
657.76	1595.37
657.95	1728.49
658.14	1705.96
658.32	1732.58
658.51	1679.33
658.70	1718.25
658.89	1726.44
659.08	1746.92
659.26	1724.39
659.45	1736.68
659.64	1712.10
659.83	1632.23
660.01	1853.41
660.20	1720.29
660.39	1785.83
660.58	1589.22
660.76	1755.11
660.95	1621.99
661.14	1673.19
661.33	1634.28
661.51	1697.77
661.70	1656.81
661.89	1728.49
662.08	1734.63
662.26	1660.90
662.45	1652.71
662.64	1785.83
662.83	1748.97
663.01	1638.38
663.20	1632.23
663.39	1802.21
663.58	1734.63
663.76	1730.53
663.95	1744.87
664.14	1705.96
664.32	1652.71
664.51	1665.00
664.70	1650.66
664.89	1753.06
665.07	1630.18
665.26	1746.92
665.45	1648.61
665.64	1724.39
665.82	1714.15
666.01	1781.73
666.20	1791.97
666.38	1761.25
666.57	1789.92
666.76	2176.99
666.95	4456.38
667.13	10149.73
667.32	15138.58
667.51	17684.21
667.69	19113.69
667.88	17706.74
668.07	12248.90
668.25	9455.47
668.44	8101.76
668.63	7341.97
668.81	6905.75
669.00	6215.59
669.19	5705.64
669.38	5156.79
669.56	4728.76
669.75	4024.26
669.94	3391.44
670.12	2883.54
670.31	2549.72
670.50	2240.48
670.68	2029.54
670.87	1951.71
671.06	1789.92
671.24	1802.21
671.43	1775.59
671.62	1753.06
671.80	1652.71
671.99	1697.77
672.18	1675.24
672.36	1712.10
672.55	1742.82
672.74	1718.25
672.92	1701.86
673.11	1703.91
673.29	1591.27
673.48	1716.20
673.67	1701.86
673.85	1812.45
674.04	1710.05
674.23	1671.14
674.41	1882.08
674.60	1665.00
674.79	1566.70
674.97	1634.28
675.16	1701.86
675.34	1751.01
675.53	1667.05
675.72	1757.16
675.90	1802.21
676.09	1658.85
676.28	1646.57
676.46	1636.33
676.65	1734.63
676.83	1646.57
677.02	1660.90
677.21	1697.77
677.39	1830.88
677.58	1656.81
677.77	1697.77
677.95	1781.73
678.14	1736.68
678.32	1667.05
678.51	1732.58
678.70	1861.60
678.88	1736.68
679.07	1699.81
679.25	1738.73
679.44	1691.62
679.63	1630.18
679.81	1722.34
680.00	1732.58
680.18	1800.16
680.37	1800.16
680.55	1742.82
680.74	1642.47
680.93	1642.47
681.11	1669.09
681.30	1751.01
681.48	1748.97
681.67	1667.05
681.85	1720.29
682.04	1662.95
682.23	1748.97
682.41	1701.86
682.60	1697.77
682.78	1699.81
682.97	1636.33
683.15	1722.34
683.34	1701.86
683.53	1822.69
683.71	1581.03
683.90	1816.55
684.08	1755.11
684.27	1693.67
684.45	1748.97
684.64	1794.02
684.82	1701.86
685.01	1683.43
685.19	1714.15
685.38	1789.92
685.57	1732.58
685.75	1656.81
685.94	1748.97
686.12	1640.42
686.31	1710.05
686.49	1738.73
686.68	1675.24
686.86	1732.58
687.05	1658.85
687.23	1789.92
687.42	1683.43
687.60	1634.28
687.79	1714.15
687.97	1804.26
688.16	1722.34
688.34	1828.84
688.53	1624.04
688.71	1705.96
688.90	1779.68
689.08	1765.35
689.27	1603.56
689.45	1746.92
689.64	1722.34
689.82	1722.34
690.01	1710.05
690.19	1722.34
690.38	1656.81
690.56	1775.59
690.75	1697.77
690.93	1693.67
691.12	1724.39
691.30	1773.54
691.49	1632.23
691.67	1679.33
691.86	1724.39
692.04	1695.72
692.23	1679.33
692.41	1728.49
692.60	1845.22
692.78	1689.57
692.97	1722.34
693.15	1753.06
693.34	1839.08
693.52	1783.78
693.71	1665.00
693.89	1636.33
694.08	1632.23
694.26	1708.01
694.44	1839.08
694.63	1673.19
694.81	1642.47
695.00	1619.94
695.18	1796.07
695.37	1779.68
695.55	1742.82
695.74	1734.63
695.92	1650.66
696.10	1710.05
696.29	1691.62
696.47	1681.38
696.66	1609.70
696.84	1697.77
697.03	1681.38
697.21	1834.98
697.40	2353.12
697.58	1763.30
697.76	1677.29
697.95	1638.38
698.13	1646.57
698.32	1732.58
698.50	1779.68
698.68	1736.68
698.87	1726.44
699.05	1832.93
699.24	1714.15
699.42	1742.82
699.61	1685.48
699.79	1656.81
699.97	1705.96
700.16	1693.67
700.34	1671.14
700.53	1665.00
700.71	1775.59
700.89	1677.29
701.08	1703.91
701.26	1681.38
701.45	2082.78
701.63	1677.29
701.81	1669.09
702.00	1601.51
702.18	1744.87
702.37	1681.38
702.55	1705.96
702.73	1673.19
702.92	1591.27
703.10	1693.67
703.28	1632.23
703.47	1699.81
703.65	1746.92
703.84	1779.68
704.02	1669.09
704.20	1771.49
704.39	1624.04
704.57	1748.97
704.75	1814.50
704.94	1806.31
705.12	1687.53
705.30	1775.59
705.49	2195.42
705.67	4190.14
705.86	9101.17
706.04	12494.66
706.22	14511.91
706.41	15318.81
706.59	13915.95
706.77	9811.82
706.96	7505.81
707.14	6639.51
707.32	5853.09
707.51	5554.09
707.69	4878.26
707.87	4227.01
708.06	3534.79
708.24	2910.16
708.42	2459.61
708.61	2285.53
708.79	1918.95
708.97	1853.41
709.16	1779.68
709.34	1724.39
709.52	1773.54
709.71	1699.81
709.89	1714.15
710.07	1572.84
710.26	1673.19
710.44	1705.96
710.62	1767.40
710.80	1644.52
710.99	1753.06
711.17	1820.64
711.35	1665.00
711.54	1642.47
711.72	1720.29
711.90	1759.21
712.09	1597.42
712.27	1630.18
712.45	1716.20
712.63	1689.57
712.82	1695.72
713.00	1724.39
713.18	1775.59
713.37	1794.02
713.55	1722.34
713.73	1705.96
713.91	1767.40
714.10	1726.44
714.28	1687.53
714.46	1716.20
714.65	1695.72
714.83	1748.97
715.01	1687.53
715.19	1722.34
715.38	1744.87
715.56	1689.57
715.74	1681.38
715.92	1652.71
716.11	1771.49
716.29	1632.23
716.47	1769.44
716.65	1722.34
716.84	1632.23
717.02	1771.49
717.20	1632.23
717.38	1687.53
717.57	1771.49
717.75	1718.25
717.93	1599.46
718.11	1681.38
718.30	1619.94
718.48	1708.01
718.66	1748.97
718.84	1734.63
719.03	1669.09
719.21	1679.33
719.39	1779.68
719.57	1755.11
719.75	1726.44
719.94	1673.19
720.12	1685.48
720.30	1667.05
720.48	1744.87
720.67	1667.05
720.85	1632.23
721.03	1648.61
721.21	1613.80
721.39	1742.82
721.58	1714.15
721.76	1730.53
721.94	1798.12
722.12	1779.68
722.30	1699.81
722.49	1671.14
722.67	1746.92
722.85	1646.57
723.03	1591.27
723.21	1640.42
723.40	1724.39
723.58	1765.35
723.76	1693.67
723.94	1734.63
724.12	1738.73
724.30	1757.16
724.49	1738.73
724.67	1681.38
724.85	1714.15
725.03	1665.00
725.21	1669.09
725.40	1738.73
725.58	1638.38
725.76	1712.10
725.94	1771.49
726.12	1634.28
726.30	1675.24
726.49	1660.90
726.67	1728.49
726.85	1716.20
727.03	1755.11
727.21	2152.42
727.39	2918.36
727.57	3792.84
727.76	4239.30
727.94	4339.65
728.12	4366.27
728.30	3758.02
728.48	2934.74
728.66	2795.48
728.84	2580.44
729.03	2318.30
729.21	2168.80
729.39	1959.91
729.57	1847.27
729.75	1800.16
729.93	1804.26
730.11	1708.01
730.30	1630.18
730.48	1673.19
730.66	1765.35
730.84	1667.05
731.02	1693.67
731.20	1626.09
731.38	1730.53
731.56	1673.19
731.74	1658.85
731.93	1742.82
732.11	1689.57
732.29	1726.44
732.47	1763.30
732.65	1669.09
732.83	1708.01
733.01	1744.87
733.19	1619.94
733.37	1712.10
733.56	1724.39
733.74	1697.77
733.92	1808.36
734.10	1673.19
734.28	1699.81
734.46	1626.09
734.64	1699.81
734.82	1624.04
735.00	1605.61
735.18	1710.05
735.36	1640.42
735.54	1697.77
735.73	1683.43
735.91	1708.01
736.09	1787.88
736.27	1638.38
736.45	1757.16
736.63	1628.14
736.81	1701.86
736.99	1710.05
737.17	1751.01
737.35	1601.51
737.53	1728.49
737.71	1632.23
737.89	1757.16
738.07	1687.53
738.25	1656.81
738.43	1644.52
738.61	1693.67
738.80	1648.61
738.98	1613.80
739.16	1617.90
739.34	1634.28
739.52	1712.10
739.70	1689.57
739.88	1703.91
740.06	1800.16
740.24	1554.41
740.42	1730.53
740.60	1558.50
740.78	1677.29
740.96	1615.85
741.14	1722.34
741.32	1759.21
741.50	1583.08
741.68	1789.92
741.86	1714.15
742.04	1587.18
742.22	1687.53
742.40	1658.85
742.58	1775.59
742.76	1697.77
742.94	1748.97
743.12	1656.81
743.30	1697.77
743.48	1701.86
743.66	1624.04
743.84	1660.90
744.02	1724.39
744.20	1746.92
744.38	1705.96
744.56	1660.90
744.74	1775.59
744.92	1701.86
745.10	1761.25
745.28	1746.92
745.46	1734.63
745.64	1576.94
745.82	1742.82
746.00	1742.82
746.18	1728.49
746.36	1740.77
746.54	1687.53
746.72	1652.71
746.90	1628.14
747.08	1806.31
747.26	1624.04
747.44	1740.77
747.62	1683.43
747.80	1710.05
747.98	1722.34
748.15	1718.25
748.33	1853.41
748.51	1654.76
748.69	1808.36
748.87	1658.85
749.05	1665.00
749.23	1679.33
749.41	1687.53
749.59	1658.85
749.77	1738.73
749.95	1615.85
750.13	1607.66
750.31	1755.11
750.49	1662.95
750.67	1777.64
750.85	1757.16
751.03	1783.78
751.20	1839.08
751.38	1642.47
751.56	1734.63
751.74	1740.77
751.92	1734.63
752.10	1570.79
752.28	1667.05
752.46	1781.73
752.64	1722.34
752.82	1705.96
753.00	1789.92
753.18	1617.90
753.35	1581.03
753.53	1689.57
753.71	1640.42
753.89	1689.57
754.07	1728.49
754.25	1730.53
754.43	1730.53
754.61	1617.90
754.79	1757.16
754.97	1671.14
755.14	1740.77
755.32	1667.05
755.50	1662.95
755.68	1761.25
755.86	1556.46
756.04	1718.25
756.22	1621.99
756.40	1732.58
756.57	1789.92
756.75	1744.87
756.93	1746.92
757.11	1761.25
757.29	1693.67
757.47	1730.53
757.65	1644.52
757.82	1517.54
758.00	1648.61
758.18	1656.81
758.36	1656.81
758.54	1828.84
758.72	1585.13
758.90	1724.39
759.07	1742.82
759.25	1619.94
759.43	1677.29
759.61	1681.38
759.79	2170.85
759.97	1699.81
760.15	1656.81
760.32	1673.19
760.50	1679.33
760.68	1687.53
760.86	1599.46
761.04	1757.16
761.22	1748.97
761.39	1714.15
761.57	1794.02
761.75	1744.87
761.93	1748.97
762.11	1701.86
762.28	1722.34
762.46	1634.28
762.64	1808.36
762.82	1642.47
763.00	1724.39
763.18	1812.45
763.35	1613.80
763.53	1738.73
763.71	1652.71
763.89	1673.19
764.07	1650.66
764.24	1658.85
764.42	1712.10
764.60	1650.66
764.78	1748.97
764.96	1781.73
765.13	1718.25
765.31	1667.05
765.49	1708.01
765.67	1665.00
765.84	1669.09
766.02	1621.99
766.20	1585.13
766.38	1703.91
766.56	1724.39
766.73	1714.15
766.91	1667.05
767.09	1732.58
767.27	1650.66
767.44	1667.05
767.62	1714.15
767.80	1753.06
767.98	1665.00
768.15	1669.09
768.33	1820.64
768.51	1705.96
768.69	1757.16
768.87	1720.29
769.04	1669.09
769.22	1751.01
769.40	1826.79
769.58	1775.59
769.75	1648.61
769.93	1769.44
770.11	1683.43
770.28	1599.46
770.46	1689.57
770.64	1714.15
770.82	1695.72
770.99	1628.14
771.17	1722.34
771.35	1652.71
771.53	1544.17
771.70	1630.18
771.88	1646.57
772.06	1703.91
772.23	1699.81
772.41	1761.25
772.59	1724.39
772.77	1634.28
772.94	1662.95
773.12	1761.25
773.30	1667.05
773.47	1687.53
773.65	1558.50
773.83	1744.87
774.01	1617.90
774.18	1621.99
774.36	1736.68
774.54	1691.62
774.71	1783.78
774.89	1601.51
775.07	1636.33
775.24	1632.23
775.42	1648.61
775.60	1777.64
775.78	1617.90
775.95	1665.00
776.13	1656.81
776.31	1609.70
776.48	1753.06
776.66	1761.25
776.84	1673.19
777.01	1734.63
777.19	1660.90
777.37	1665.00
777.54	1681.38
777.72	1783.78
777.90	1683.43
778.07	1638.38
778.25	1832.93
778.43	1748.97
778.60	1712.10
778.78	1783.78
778.96	1789.92
779.13	1650.66
779.31	1759.21
779.49	1665.00
779.66	1695.72
779.84	1681.38
780.01	1714.15
780.19	1626.09
780.37	1740.77
780.54	1830.88
780.72	1656.81
780.90	1732.58
781.07	1638.38
781.25	1656.81
781.43	1734.63
781.60	1677.29
781.78	1800.16
781.95	1767.40
782.13	1681.38
782.31	1759.21
782.48	1578.98
782.66	1675.24
782.83	1800.16
783.01	1755.11
783.19	1681.38
783.36	1652.71
783.54	1665.00
783.72	1687.53
783.89	1685.48
784.07	1726.44
784.24	1732.58
784.42	1769.44
784.60	1675.24
784.77	1742.82
784.95	1542.12
785.12	1691.62
785.30	1667.05
785.47	1701.86
785.65	1603.56
785.83	1748.97
786.00	1714.15
786.18	1783.78
786.35	1615.85
786.53	1617.90
786.71	1703.91
786.88	1695.72
787.06	1753.06
787.23	1705.96
787.41	1538.02
787.58	1689.57
787.76	1644.52
787.94	1718.25
788.11	1683.43
788.29	1665.00
788.46	1636.33
788.64	1560.55
788.81	1701.86
788.99	1671.14
789.16	1552.36
789.34	1662.95
789.52	1644.52
789.69	1679.33
789.87	1576.94
790.04	1738.73
790.22	1714.15
790.39	1781.73
790.57	1634.28
790.74	1601.51
790.92	1718.25
791.09	1646.57
791.27	1695.72
791.44	1699.81
791.62	1703.91
791.79	1683.43
791.97	1640.42
792.15	1804.26
792.32	1734.63
792.50	1740.77
792.67	1691.62
792.85	1798.12
793.02	1751.01
793.20	1705.96
793.37	1613.80
793.55	1732.58
793.72	1673.19
793.90	1675.24
794.07	1677.29
794.25	1607.66
794.42	1644.52
794.60	1705.96
794.77	1771.49
794.95	1755.11
795.12	1746.92
795.30	1665.00
795.47	1605.61
795.65	1837.03
795.82	1794.02
796.00	1734.63
796.17	1710.05
796.34	1701.86
796.52	1628.14
796.69	1708.01
796.87	1718.25
797.04	1734.63
797.22	1771.49
797.39	1665.00
797.57	1751.01
797.74	1740.77
797.92	1679.33
798.09	1658.85
798.27	1781.73
798.44	1675.24
798.62	1660.90
798.79	1732.58
798.96	1691.62
799.14	1636.33
799.31	1791.97
799.49	1683.43
799.66	1705.96
799.84	1730.53
800.01	1640.42
800.19	1705.96
800.36	1570.79
800.53	1693.67
800.71	1675.24
800.88	1771.49
801.06	1648.61
801.23	1695.72
801.41	1615.85
801.58	1712.10
801.75	1685.48
801.93	1740.77
802.10	1714.15
802.28	1634.28
802.45	1728.49
802.63	1763.30
802.80	1847.27
802.97	1650.66
803.15	1689.57
803.32	1746.92
803.50	1658.85
803.67	1642.47
803.84	1552.36
804.02	1722.34
804.19	1665.00
804.37	1640.42
804.54	1609.70
804.71	1681.38
804.89	1701.86
805.06	1591.27
805.24	1646.57
805.41	1593.32
805.58	1679.33
805.76	1861.60
805.93	1630.18
806.10	1779.68
806.28	1767.40
806.45	1710.05
806.63	1695.72
806.80	1705.96
806.97	1667.05
807.15	1769.44
807.32	1748.97
807.49	1775.59
807.67	1542.12
807.84	1761.25
808.01	1570.79
808.19	1832.93
808.36	1828.84
808.54	1751.01
808.71	1691.62
808.88	1673.19
809.06	1779.68
809.23	1697.77
809.40	1730.53
809.58	1730.53
809.75	1665.00
809.92	1638.38
810.10	1771.49
810.27	1667.05
810.44	1740.77
810.62	1779.68
810.79	1679.33
810.96	1679.33
811.14	1665.00
811.31	1755.11
811.48	1671.14
811.66	1689.57
811.83	1796.07
812.00	1695.72
812.18	1658.85
812.35	1869.80
812.52	1751.01
812.69	1705.96
812.87	1705.96
813.04	1685.48
813.21	1669.09
813.39	1658.85
813.56	1632.23
813.73	1763.30
813.91	1599.46
814.08	1771.49
814.25	1742.82
814.42	1621.99
814.60	1740.77
814.77	1671.14
814.94	1685.48
815.12	1660.90
815.29	1771.49
815.46	1646.57
815.63	1789.92
815.81	1683.43
815.98	1673.19
816.15	1681.38
816.33	1761.25
816.50	1611.75
816.67	1665.00
816.84	1748.97
817.02	1619.94
817.19	1673.19
817.36	1605.61
817.53	1814.50
817.71	1605.61
817.88	1744.87
818.05	1695.72
818.22	1677.29
818.40	1787.88
818.57	1693.67
818.74	1726.44
818.91	1734.63
819.09	1697.77
819.26	1699.81
819.43	1669.09
819.60	1634.28
819.78	1677.29
819.95	1744.87
820.12	1638.38
820.29	1714.15
820.47	1675.24
820.64	1634.28
820.81	1601.51
820.98	1636.33
821.15	1583.08
821.33	1742.82
821.50	1603.56
821.67	1794.02
821.84	1621.99
822.02	1751.01
822.19	1781.73
822.36	1587.18
822.53	1628.14
822.70	1632.23
822.88	1583.08
823.05	1820.64
823.22	1667.05
823.39	1689.57
823.56	1716.20
823.74	1791.97
823.91	1654.76
824.08	1587.18
824.25	1595.37
824.42	1828.84
824.60	1683.43
824.77	1724.39
824.94	1693.67
825.11	1738.73
825.28	1531.88
825.45	1744.87
825.63	1685.48
825.80	1607.66
825.97	1691.62
826.14	1650.66
826.31	1617.90
826.48	1830.88
826.66	1621.99
826.83	1734.63
827.00	1701.86
827.17	1708.01
827.34	1619.94
827.51	1656.81
827.69	1615.85
827.86	1558.50
828.03	1667.05
828.20	1685.48
828.37	1632.23
828.54	1722.34
828.71	1650.66
828.89	1791.97
829.06	1665.00
829.23	1791.97
829.40	1681.38
829.57	1726.44
829.74	1630.18
829.91	1656.81
830.09	1705.96
830.26	1718.25
830.43	1761.25
830.60	1718.25
830.77	1775.59
830.94	1724.39
831.11	1728.49
831.28	1626.09
831.46	1794.02
831.63	1712.10
831.80	1800.16
831.97	1705.96
832.14	1656.81
832.31	1730.53
832.48	1687.53
832.65	1738.73
832.82	1671.14
832.99	1683.43
833.17	1581.03
833.34	1828.84
833.51	1720.29
833.68	1681.38
833.85	1738.73
834.02	1624.04
834.19	1611.75
834.36	1619.94
834.53	1718.25
834.70	1775.59
834.87	1718.25
835.04	1685.48
835.22	1613.80
835.39	1646.57
835.56	1585.13
835.73	1718.25
835.90	1806.31
836.07	1605.61
836.24	1708.01
836.41	1642.47
836.58	1685.48
836.75	1757.16
836.92	1667.05
837.09	1677.29
837.26	1705.96
837.43	1718.25
837.60	1744.87
837.77	1683.43
837.94	1705.96
838.12	1761.25
838.29	1671.14
838.46	1658.85
838.63	1652.71
838.80	1826.79
838.97	1779.68
839.14	1669.09
839.31	1658.85
839.48	1699.81
839.65	1689.57
839.82	1783.78
839.99	1703.91
840.16	1701.86
840.33	1693.67
840.50	1718.25
840.67	1683.43
840.84	1650.66
841.01	1705.96
841.18	1740.77
841.35	1669.09
841.52	1734.63
841.69	1736.68
841.86	1669.09
842.03	1669.09
842.20	1759.21
842.37	1724.39
842.54	1695.72
842.71	1687.53
842.88	1542.12
843.05	1789.92
843.22	1658.85
843.39	1687.53
843.56	1693.67
843.73	1703.91
843.90	1720.29
844.07	1652.71
844.24	1798.12
844.41	1734.63
844.58	1716.20
844.75	1748.97
844.92	1675.24
845.09	1650.66
845.26	1593.32
845.43	1746.92
845.60	1630.18
845.77	1773.54
845.94	1628.14
846.10	1744.87
846.27	1669.09
846.44	1652.71
846.61	1628.14
846.78	1636.33
846.95	1816.55
847.12	1730.53
847.29	1669.09
847.46	1746.92
847.63	1746.92
847.80	1648.61
847.97	1693.67
848.14	1796.07
848.31	1683.43
848.48	1609.70
848.65	1675.24
848.82	1660.90
848.98	1861.60
849.15	1724.39
849.32	1826.79
849.49	1812.45
849.66	1714.15
849.83	1667.05
850.00	1601.51
850.17	1656.81
850.34	1603.56
850.51	1630.18
850.68	1699.81
850.85	1789.92
851.01	1640.42
851.18	1714.15
851.35	1712.10
851.52	1669.09
851.69	1787.88
851.86	1662.95
852.03	1718.25
852.20	1791.97
852.37	1763.30
852.53	1595.37
852.70	1705.96
852.87	1736.68
853.04	1708.01
853.21	1734.63
853.38	1701.86
853.55	1775.59
853.72	1800.16
853.89	1587.18
854.05	1675.24
854.22	1660.90
854.39	1628.14
854.56	1646.57
854.73	1751.01
854.90	1638.38
855.07	1650.66
855.23	1658.85
855.40	1589.22
855.57	1607.66
855.74	1550.31
855.91	1789.92
856.08	1626.09
856.25	1624.04
856.41	1681.38
856.58	1691.62
856.75	1718.25
856.92	1615.85
857.09	1730.53
857.26	1615.85
857.42	1699.81
857.59	1724.39
857.76	1722.34
857.93	1736.68
858.10	1681.38
858.27	1671.14
858.43	1769.44
858.60	1564.65
858.77	1601.51
858.94	1718.25
859.11	1712.10
859.27	1683.43
859.44	1683.43
859.61	1814.50
859.78	1734.63
859.95	1720.29
860.12	1632.23
860.28	1824.74
860.45	1826.79
860.62	1662.95
860.79	1695.72
860.95	1650.66
861.12	1615.85
861.29	1665.00
861.46	1685.48
861.63	1677.29
861.79	1648.61
861.96	1611.75
862.13	1675.24
862.30	1759.21
862.47	1576.94
862.63	1671.14
862.80	1738.73
862.97	1798.12
863.14	1695.72
863.30	1843.17
863.47	1640.42
863.64	1703.91
863.81	1736.68
863.97	1677.29
864.14	1697.77
864.31	1667.05
864.48	1693.67
864.65	1671.14
864.81	1757.16
864.98	1755.11
865.15	1681.38
865.32	1695.72
865.48	1732.58
865.65	1771.49
865.82	1730.53
865.98	1720.29
866.15	1746.92
866.32	1640.42
866.49	1744.87
866.65	1742.82
866.82	1621.99
866.99	1646.57
867.16	1644.52
867.32	1640.42
867.49	1628.14
867.66	1669.09
867.83	1656.81
867.99	1601.51
868.16	1624.04
868.33	1654.76
868.49	1718.25
868.66	1652.71
868.83	1720.29
868.99	1718.25
869.16	1708.01
869.33	1708.01
869.50	1716.20
869.66	1712.10
869.83	1730.53
870.00	1583.08
870.16	1677.29
870.33	1636.33
870.50	1701.86
870.66	1697.77
870.83	1775.59
871.00	1671.14
871.17	1662.95
871.33	1746.92
871.50	1665.00
871.67	1667.05
871.83	1705.96
872.00	1857.51
872.17	1730.53
872.33	1746.92
872.50	1693.67
872.67	1609.70
872.83	1691.62
873.00	1683.43
873.17	1624.04
873.33	1779.68
873.50	1683.43
873.67	1689.57
873.83	1654.76
874.00	1679.33
874.16	1757.16
874.33	1724.39
874.50	1611.75
874.66	1705.96
874.83	1701.86
875.00	1738.73
875.16	1677.29
875.33	1791.97
875.50	1476.59
875.66	1621.99
875.83	1679.33
875.99	1771.49
876.16	1699.81
876.33	1624.04
876.49	1763.30
876.66	1693.67
876.83	1662.95
876.99	1576.94
877.16	1701.86
877.32	1753.06
877.49	1722.34
877.66	1671.14
877.82	1769.44
877.99	1619.94
878.15	1722.34
878.32	1783.78
878.49	1624.04
878.65	1705.96
878.82	1765.35
878.98	1630.18
879.15	1796.07
879.32	1724.39
879.48	1648.61
879.65	1681.38
879.81	1628.14
879.98	1667.05
880.15	1685.48
880.31	1712.10
880.48	1619.94
880.64	1734.63
880.81	1703.91
880.97	1746.92
881.14	1794.02
881.31	1603.56
881.47	1857.51
881.64	1660.90
881.80	1587.18
881.97	1720.29
882.13	1785.83
882.30	1644.52
882.47	1695.72
882.63	1609.70
882.80	1638.38
882.96	1640.42
883.13	1693.67
883.29	1644.52
883.46	1695.72
883.62	1746.92
883.79	1691.62
883.95	1824.74
884.12	1761.25
884.29	1697.77
884.45	1671.14
884.62	1783.78
884.78	1689.57
884.95	1753.06
885.11	1605.61
885.28	1667.05
885.44	1650.66
885.61	1746.92
885.77	1783.78
885.94	1712.10
886.10	1742.82
886.27	1751.01
886.43	1761.25
886.60	1705.96
886.76	1669.09
886.93	1632.23
887.09	1728.49
887.26	1658.85
887.42	1638.38
887.59	1779.68
887.75	1804.26
887.92	1832.93
888.08	1718.25
888.25	1720.29
888.41	1714.15
888.58	1738.73
888.74	1667.05
888.91	1677.29
>>>>>End Processed Spectral Data<<<<<
