SpectraSuite Data File
++++++++++++++++++++++++++++++++++++
Date: Mon Jun 06 16:05:37 CEST 2016
User: root
Dark Spectrum Present: No
Reference Spectrum Present: No
Number of Sampled Component Spectra: 1
Spectrometers: USB4C02835
Integration Time (usec): 100000 (USB4C02835)
Spectra Averaged: 1 (USB4C02835)
Boxcar Smoothing: 0 (USB4C02835)
Correct for Electrical Dark: No (USB4C02835)
Strobe/Lamp Enabled: No (USB4C02835)
Correct for Detector Non-linearity: No (USB4C02835)
Correct for Stray Light: No (USB4C02835)
Number of Pixels in Processed Spectrum: 3648
>>>>>Begin Processed Spectral Data<<<<<
177.47	1492.97
177.69	1492.97
177.91	1492.97
178.13	1404.91
178.36	1495.02
178.58	1615.85
178.80	1781.73
179.02	1681.38
179.24	1689.57
179.46	1689.57
179.68	1730.53
179.90	1732.58
180.13	1714.15
180.35	1658.85
180.57	1703.91
180.79	1773.54
181.01	1669.09
181.23	1771.49
181.45	1828.84
181.67	1746.92
181.90	1732.58
182.12	1603.56
182.34	1658.85
182.56	1710.05
182.78	1732.58
183.00	1675.24
183.22	1783.78
183.44	1595.37
183.66	1865.70
183.89	1808.36
184.11	1654.76
184.33	1734.63
184.55	1769.44
184.77	1671.14
184.99	1650.66
185.21	1738.73
185.43	1939.43
185.65	1796.07
185.87	1716.20
186.10	1847.27
186.32	1894.37
186.54	1728.49
186.76	1783.78
186.98	1744.87
187.20	1763.30
187.42	1634.28
187.64	1740.77
187.86	1767.40
188.08	1763.30
188.30	1693.67
188.52	1720.29
188.75	1748.97
188.97	1757.16
189.19	1701.86
189.41	1656.81
189.63	1697.77
189.85	1783.78
190.07	1660.90
190.29	1591.27
190.51	1738.73
190.73	1681.38
190.95	1808.36
191.17	1701.86
191.39	1628.14
191.61	1662.95
191.84	1677.29
192.06	1675.24
192.28	1662.95
192.50	1816.55
192.72	1771.49
192.94	1755.11
193.16	1761.25
193.38	1769.44
193.60	1589.22
193.82	1708.01
194.04	1773.54
194.26	1730.53
194.48	1765.35
194.70	1708.01
194.92	1654.76
195.14	1789.92
195.36	1640.42
195.58	1681.38
195.80	1667.05
196.02	1683.43
196.24	1679.33
196.46	1691.62
196.69	1609.70
196.91	1824.74
197.13	1716.20
197.35	1648.61
197.57	1824.74
197.79	1771.49
198.01	1722.34
198.23	1736.68
198.45	1722.34
198.67	1683.43
198.89	1724.39
199.11	1681.38
199.33	1744.87
199.55	1599.46
199.77	1708.01
199.99	1861.60
200.21	1675.24
200.43	1757.16
200.65	1656.81
200.87	1583.08
201.09	1708.01
201.31	1746.92
201.53	1771.49
201.75	1732.58
201.97	1796.07
202.19	1675.24
202.41	1744.87
202.63	1914.85
202.85	1673.19
203.07	1751.01
203.29	1697.77
203.51	1689.57
203.73	1587.18
203.95	1871.84
204.17	1693.67
204.39	1740.77
204.61	1781.73
204.83	1742.82
205.05	1728.49
205.27	1775.59
205.49	1847.27
205.71	1736.68
205.93	1669.09
206.15	1724.39
206.37	1734.63
206.59	1730.53
206.81	1679.33
207.03	1705.96
207.25	1683.43
207.47	1746.92
207.69	1769.44
207.91	1751.01
208.13	1759.21
208.34	1710.05
208.56	1656.81
208.78	1765.35
209.00	1662.95
209.22	1632.23
209.44	1634.28
209.66	1685.48
209.88	1648.61
210.10	1759.21
210.32	1722.34
210.54	1757.16
210.76	1789.92
210.98	1791.97
211.20	1626.09
211.42	1738.73
211.64	1787.88
211.86	1746.92
212.08	1787.88
212.30	1767.40
212.52	1748.97
212.74	1634.28
212.96	1624.04
213.17	1748.97
213.39	1777.64
213.61	1722.34
213.83	1722.34
214.05	1689.57
214.27	1777.64
214.49	1658.85
214.71	1703.91
214.93	1830.88
215.15	1689.57
215.37	1720.29
215.59	1636.33
215.81	1683.43
216.03	1810.40
216.24	1755.11
216.46	1621.99
216.68	1695.72
216.90	1794.02
217.12	1748.97
217.34	1687.53
217.56	1832.93
217.78	1841.12
218.00	1730.53
218.22	1691.62
218.44	1748.97
218.66	1675.24
218.87	1757.16
219.09	1726.44
219.31	1765.35
219.53	1755.11
219.75	1703.91
219.97	1779.68
220.19	1718.25
220.41	1732.58
220.63	1748.97
220.85	1751.01
221.06	1746.92
221.28	1802.21
221.50	1716.20
221.72	1675.24
221.94	1687.53
222.16	1685.48
222.38	1722.34
222.60	1716.20
222.82	1689.57
223.03	1673.19
223.25	1581.03
223.47	1746.92
223.69	1791.97
223.91	1794.02
224.13	1632.23
224.35	1710.05
224.57	1810.40
224.78	1687.53
225.00	1660.90
225.22	1677.29
225.44	1779.68
225.66	1843.17
225.88	1730.53
226.10	1742.82
226.32	1732.58
226.53	1796.07
226.75	1652.71
226.97	1716.20
227.19	1751.01
227.41	1675.24
227.63	1681.38
227.85	1628.14
228.06	1714.15
228.28	1705.96
228.50	1763.30
228.72	1679.33
228.94	1589.22
229.16	1615.85
229.37	1681.38
229.59	1691.62
229.81	1767.40
230.03	1677.29
230.25	1626.09
230.47	1662.95
230.69	1669.09
230.90	1785.83
231.12	1677.29
231.34	1636.33
231.56	1806.31
231.78	1699.81
232.00	1738.73
232.21	1740.77
232.43	1753.06
232.65	1624.04
232.87	1738.73
233.09	1718.25
233.30	1701.86
233.52	1728.49
233.74	1761.25
233.96	1658.85
234.18	1689.57
234.40	1689.57
234.61	1787.88
234.83	1650.66
235.05	1591.27
235.27	1771.49
235.49	1796.07
235.70	1738.73
235.92	1763.30
236.14	1708.01
236.36	1877.99
236.58	1658.85
236.79	1814.50
237.01	1716.20
237.23	1689.57
237.45	1841.12
237.67	1712.10
237.88	1687.53
238.10	1814.50
238.32	1603.56
238.54	1677.29
238.76	1714.15
238.97	1562.60
239.19	1675.24
239.41	1697.77
239.63	1763.30
239.85	1701.86
240.06	1734.63
240.28	1665.00
240.50	1753.06
240.72	1650.66
240.93	1722.34
241.15	1751.01
241.37	1708.01
241.59	1751.01
241.81	1658.85
242.02	1589.22
242.24	1714.15
242.46	1785.83
242.68	1624.04
242.89	1732.58
243.11	1763.30
243.33	1773.54
243.55	1728.49
243.76	1757.16
243.98	1617.90
244.20	1656.81
244.42	1734.63
244.64	1697.77
244.85	1689.57
245.07	1703.91
245.29	1775.59
245.51	1665.00
245.72	1726.44
245.94	1746.92
246.16	1744.87
246.38	1689.57
246.59	1636.33
246.81	1687.53
247.03	1665.00
247.24	1605.61
247.46	1665.00
247.68	1669.09
247.90	1720.29
248.11	1730.53
248.33	1773.54
248.55	1744.87
248.77	1736.68
248.98	1783.78
249.20	1765.35
249.42	1675.24
249.64	1734.63
249.85	1699.81
250.07	1689.57
250.29	1701.86
250.50	1734.63
250.72	1646.57
250.94	1775.59
251.16	1806.31
251.37	1935.33
251.59	1755.11
251.81	1734.63
252.02	1857.51
252.24	1746.92
252.46	1804.26
252.68	1697.77
252.89	1679.33
253.11	1617.90
253.33	1830.88
253.54	1832.93
253.76	1630.18
253.98	1771.49
254.20	1689.57
254.41	1621.99
254.63	1695.72
254.85	1685.48
255.06	1724.39
255.28	1726.44
255.50	1708.01
255.71	1665.00
255.93	1570.79
256.15	1638.38
256.36	1748.97
256.58	1693.67
256.80	1677.29
257.02	1646.57
257.23	1673.19
257.45	1662.95
257.67	1787.88
257.88	1652.71
258.10	1665.00
258.32	1738.73
258.53	1746.92
258.75	1746.92
258.97	1636.33
259.18	1695.72
259.40	1685.48
259.62	1744.87
259.83	1798.12
260.05	1714.15
260.27	1984.48
260.48	1763.30
260.70	1605.61
260.92	1689.57
261.13	1767.40
261.35	1658.85
261.57	1785.83
261.78	1636.33
262.00	1599.46
262.22	1804.26
262.43	1613.80
262.65	1703.91
262.86	1744.87
263.08	1918.95
263.30	1724.39
263.51	1626.09
263.73	1751.01
263.95	1759.21
264.16	1697.77
264.38	1699.81
264.60	1781.73
264.81	1738.73
265.03	1783.78
265.25	1757.16
265.46	1718.25
265.68	1755.11
265.89	1757.16
266.11	1628.14
266.33	1775.59
266.54	1798.12
266.76	1705.96
266.98	1777.64
267.19	1802.21
267.41	1804.26
267.62	1667.05
267.84	1656.81
268.06	1730.53
268.27	1781.73
268.49	1738.73
268.70	1710.05
268.92	1658.85
269.14	1710.05
269.35	1658.85
269.57	1691.62
269.79	1800.16
270.00	1761.25
270.22	1847.27
270.43	1644.52
270.65	1615.85
270.87	1763.30
271.08	1734.63
271.30	1738.73
271.51	1693.67
271.73	1736.68
271.95	1804.26
272.16	1736.68
272.38	1736.68
272.59	1734.63
272.81	1753.06
273.02	1736.68
273.24	1820.64
273.46	1724.39
273.67	1662.95
273.89	1740.77
274.10	1619.94
274.32	1744.87
274.54	1736.68
274.75	1753.06
274.97	1648.61
275.18	1763.30
275.40	1746.92
275.61	1603.56
275.83	1755.11
276.05	1632.23
276.26	1693.67
276.48	1730.53
276.69	1712.10
276.91	1656.81
277.12	1763.30
277.34	1722.34
277.55	1785.83
277.77	1740.77
277.99	1732.58
278.20	1642.47
278.42	1560.55
278.63	1753.06
278.85	1738.73
279.06	1693.67
279.28	1710.05
279.49	1767.40
279.71	1714.15
279.93	1759.21
280.14	1816.55
280.36	1699.81
280.57	1724.39
280.79	1763.30
281.00	1632.23
281.22	1693.67
281.43	1771.49
281.65	1656.81
281.86	1662.95
282.08	1714.15
282.29	1814.50
282.51	1589.22
282.73	1521.64
282.94	1638.38
283.16	1740.77
283.37	1875.94
283.59	1697.77
283.80	1691.62
284.02	1695.72
284.23	1796.07
284.45	1685.48
284.66	1667.05
284.88	1656.81
285.09	1742.82
285.31	1796.07
285.52	1679.33
285.74	1615.85
285.95	1769.44
286.17	1673.19
286.38	1798.12
286.60	1648.61
286.81	1742.82
287.03	1640.42
287.24	1708.01
287.46	1726.44
287.67	1665.00
287.89	1769.44
288.10	1636.33
288.32	1812.45
288.53	1677.29
288.75	1755.11
288.96	1732.58
289.18	1648.61
289.39	1656.81
289.61	1773.54
289.82	1888.23
290.04	1773.54
290.25	1689.57
290.47	1660.90
290.68	1734.63
290.90	1705.96
291.11	1658.85
291.33	1728.49
291.54	1654.76
291.76	1722.34
291.97	1695.72
292.18	1722.34
292.40	1757.16
292.61	1660.90
292.83	1875.94
293.04	1740.77
293.26	1708.01
293.47	1667.05
293.69	1671.14
293.90	1726.44
294.12	1791.97
294.33	1701.86
294.55	1705.96
294.76	1808.36
294.97	1869.80
295.19	1806.31
295.40	1738.73
295.62	1687.53
295.83	1699.81
296.05	1652.71
296.26	1753.06
296.48	1716.20
296.69	1722.34
296.90	1712.10
297.12	1728.49
297.33	1742.82
297.55	1660.90
297.76	1746.92
297.98	1753.06
298.19	1742.82
298.41	1705.96
298.62	1701.86
298.83	1814.50
299.05	1683.43
299.26	1703.91
299.48	1714.15
299.69	1796.07
299.90	1742.82
300.12	1761.25
300.33	1738.73
300.55	1720.29
300.76	1742.82
300.98	1701.86
301.19	1804.26
301.40	1699.81
301.62	1718.25
301.83	1687.53
302.05	1730.53
302.26	1742.82
302.47	1826.79
302.69	1644.52
302.90	1679.33
303.12	1697.77
303.33	1789.92
303.54	1849.32
303.76	1656.81
303.97	1716.20
304.19	1832.93
304.40	1722.34
304.61	1732.58
304.83	1896.42
305.04	1820.64
305.26	1773.54
305.47	1712.10
305.68	1748.97
305.90	1589.22
306.11	1730.53
306.33	1693.67
306.54	1665.00
306.75	1679.33
306.97	1665.00
307.18	1714.15
307.39	1726.44
307.61	1718.25
307.82	1710.05
308.04	1820.64
308.25	1660.90
308.46	1802.21
308.68	1652.71
308.89	1714.15
309.10	1804.26
309.32	1730.53
309.53	1728.49
309.74	1748.97
309.96	1751.01
310.17	1834.98
310.39	1613.80
310.60	1837.03
310.81	1734.63
311.03	1636.33
311.24	1722.34
311.45	1787.88
311.67	1814.50
311.88	1726.44
312.09	1708.01
312.31	1693.67
312.52	1679.33
312.73	1685.48
312.95	1687.53
313.16	1632.23
313.37	1791.97
313.59	1730.53
313.80	1710.05
314.01	1738.73
314.23	1687.53
314.44	1638.38
314.65	1599.46
314.87	1665.00
315.08	1640.42
315.29	1691.62
315.51	1648.61
315.72	1589.22
315.93	1853.41
316.15	1738.73
316.36	1685.48
316.57	1697.77
316.79	1722.34
317.00	1732.58
317.21	1718.25
317.43	1677.29
317.64	1716.20
317.85	1730.53
318.07	1626.09
318.28	1738.73
318.49	1873.89
318.70	1970.15
318.92	1849.32
319.13	1861.60
319.34	1804.26
319.56	1763.30
319.77	1818.60
319.98	1785.83
320.20	1767.40
320.41	1736.68
320.62	1791.97
320.83	1667.05
321.05	1857.51
321.26	1757.16
321.47	1712.10
321.69	1798.12
321.90	1656.81
322.11	1771.49
322.32	1722.34
322.54	1810.40
322.75	1716.20
322.96	1871.84
323.18	1621.99
323.39	1607.66
323.60	1705.96
323.81	1740.77
324.03	1691.62
324.24	1658.85
324.45	1724.39
324.66	1722.34
324.88	1740.77
325.09	1834.98
325.30	1681.38
325.52	1744.87
325.73	1841.12
325.94	1572.84
326.15	1656.81
326.37	1705.96
326.58	1726.44
326.79	1783.78
327.00	1693.67
327.22	1751.01
327.43	1671.14
327.64	1660.90
327.85	1746.92
328.07	1718.25
328.28	1779.68
328.49	1656.81
328.70	1671.14
328.92	1751.01
329.13	1675.24
329.34	1740.77
329.55	1902.56
329.76	1708.01
329.98	1656.81
330.19	1755.11
330.40	1675.24
330.61	1787.88
330.83	1732.58
331.04	1576.94
331.25	1761.25
331.46	1687.53
331.68	1665.00
331.89	1775.59
332.10	1753.06
332.31	1640.42
332.52	1783.78
332.74	1781.73
332.95	1730.53
333.16	1693.67
333.37	1789.92
333.58	1710.05
333.80	1798.12
334.01	1681.38
334.22	1708.01
334.43	1675.24
334.64	1671.14
334.86	1681.38
335.07	1699.81
335.28	1791.97
335.49	1603.56
335.70	1710.05
335.92	1771.49
336.13	1900.52
336.34	1773.54
336.55	1787.88
336.76	1716.20
336.98	1640.42
337.19	1705.96
337.40	1746.92
337.61	1832.93
337.82	1634.28
338.04	1724.39
338.25	1662.95
338.46	1736.68
338.67	1767.40
338.88	1626.09
339.09	1624.04
339.31	1771.49
339.52	1568.74
339.73	1624.04
339.94	1761.25
340.15	1746.92
340.36	1736.68
340.58	1806.31
340.79	1648.61
341.00	1814.50
341.21	1595.37
341.42	1802.21
341.63	1771.49
341.85	1781.73
342.06	1708.01
342.27	1740.77
342.48	1748.97
342.69	1660.90
342.90	1660.90
343.12	1748.97
343.33	1712.10
343.54	1759.21
343.75	1708.01
343.96	1675.24
344.17	1652.71
344.38	1720.29
344.60	1673.19
344.81	1650.66
345.02	1746.92
345.23	1726.44
345.44	1886.18
345.65	1794.02
345.86	1742.82
346.07	1718.25
346.29	1669.09
346.50	1771.49
346.71	1714.15
346.92	1742.82
347.13	1859.56
347.34	1714.15
347.55	1708.01
347.76	1677.29
347.98	1585.13
348.19	1644.52
348.40	1755.11
348.61	1615.85
348.82	1796.07
349.03	1740.77
349.24	1724.39
349.45	1746.92
349.66	1558.50
349.88	1757.16
350.09	1660.90
350.30	1726.44
350.51	1804.26
350.72	1787.88
350.93	1734.63
351.14	1673.19
351.35	1738.73
351.56	1748.97
351.77	1732.58
351.99	1753.06
352.20	1908.71
352.41	1746.92
352.62	1615.85
352.83	1734.63
353.04	1695.72
353.25	1638.38
353.46	1773.54
353.67	1808.36
353.88	1566.70
354.09	1779.68
354.30	1685.48
354.52	1767.40
354.73	1716.20
354.94	1669.09
355.15	1689.57
355.36	1837.03
355.57	1742.82
355.78	1697.77
355.99	1755.11
356.20	1677.29
356.41	1812.45
356.62	1662.95
356.83	1712.10
357.04	1802.21
357.25	1578.98
357.46	1701.86
357.68	1617.90
357.89	1658.85
358.10	1695.72
358.31	1767.40
358.52	1705.96
358.73	1581.03
358.94	1671.14
359.15	1679.33
359.36	1748.97
359.57	1748.97
359.78	1748.97
359.99	1679.33
360.20	1662.95
360.41	1720.29
360.62	1734.63
360.83	1757.16
361.04	1726.44
361.25	1679.33
361.46	1824.74
361.67	1785.83
361.88	1773.54
362.09	1720.29
362.30	1726.44
362.51	1701.86
362.72	1716.20
362.93	1722.34
363.14	1783.78
363.35	1701.86
363.56	1675.24
363.78	1755.11
363.99	1730.53
364.20	1679.33
364.41	1781.73
364.62	1865.70
364.83	1701.86
365.04	1689.57
365.25	1730.53
365.46	1748.97
365.67	1683.43
365.88	1644.52
366.09	1628.14
366.30	1710.05
366.51	1726.44
366.72	1718.25
366.93	1781.73
367.14	1673.19
367.35	1794.02
367.56	1681.38
367.77	1746.92
367.98	1779.68
368.18	1701.86
368.39	1734.63
368.60	1679.33
368.81	1781.73
369.02	1755.11
369.23	1765.35
369.44	1665.00
369.65	1751.01
369.86	1724.39
370.07	1699.81
370.28	1701.86
370.49	1779.68
370.70	1683.43
370.91	1636.33
371.12	1685.48
371.33	1697.77
371.54	1746.92
371.75	1824.74
371.96	1583.08
372.17	1716.20
372.38	1699.81
372.59	1726.44
372.80	1689.57
373.01	1740.77
373.22	1714.15
373.43	1677.29
373.64	1726.44
373.85	1796.07
374.06	1755.11
374.26	1767.40
374.47	1740.77
374.68	1757.16
374.89	1677.29
375.10	1673.19
375.31	1816.55
375.52	1708.01
375.73	1720.29
375.94	1705.96
376.15	1822.69
376.36	1701.86
376.57	1638.38
376.78	1730.53
376.99	1675.24
377.20	1779.68
377.40	1757.16
377.61	1857.51
377.82	1748.97
378.03	1789.92
378.24	1796.07
378.45	1695.72
378.66	1755.11
378.87	1603.56
379.08	1576.94
379.29	1710.05
379.50	1761.25
379.71	1693.67
379.91	1736.68
380.12	1658.85
380.33	1699.81
380.54	1683.43
380.75	1716.20
380.96	1748.97
381.17	1730.53
381.38	1775.59
381.59	1687.53
381.80	1683.43
382.00	1806.31
382.21	1744.87
382.42	1853.41
382.63	1875.94
382.84	1822.69
383.05	1624.04
383.26	1830.88
383.47	1699.81
383.68	1820.64
383.88	1730.53
384.09	1796.07
384.30	1820.64
384.51	1761.25
384.72	1693.67
384.93	1773.54
385.14	1757.16
385.35	1798.12
385.55	1660.90
385.76	1771.49
385.97	1722.34
386.18	1669.09
386.39	1761.25
386.60	1712.10
386.81	1708.01
387.02	1724.39
387.22	1722.34
387.43	1779.68
387.64	1841.12
387.85	1818.60
388.06	2162.66
388.27	4190.14
388.48	6653.85
388.68	8245.12
388.89	9488.24
389.10	9647.98
389.31	8599.42
389.52	7546.76
389.73	6707.10
389.93	6051.75
390.14	5838.76
390.35	5070.77
390.56	4663.22
390.77	3715.02
390.98	3008.47
391.18	2551.77
391.39	2179.04
391.60	1920.99
391.81	1875.94
392.02	1748.97
392.23	1873.89
392.43	1746.92
392.64	1826.79
392.85	1785.83
393.06	1859.56
393.27	1730.53
393.47	1705.96
393.68	1714.15
393.89	1712.10
394.10	1824.74
394.31	1689.57
394.52	1673.19
394.72	1742.82
394.93	1828.84
395.14	1667.05
395.35	1767.40
395.56	1703.91
395.76	1822.69
395.97	1826.79
396.18	1816.55
396.39	1824.74
396.60	2060.26
396.80	1810.40
397.01	1869.80
397.22	1783.78
397.43	1820.64
397.64	1712.10
397.84	1857.51
398.05	1886.18
398.26	1816.55
398.47	1751.01
398.67	1847.27
398.88	1738.73
399.09	1771.49
399.30	1708.01
399.51	1794.02
399.71	1693.67
399.92	1695.72
400.13	1781.73
400.34	1730.53
400.54	1689.57
400.75	1820.64
400.96	1685.48
401.17	1865.70
401.37	1738.73
401.58	1734.63
401.79	1710.05
402.00	1818.60
402.21	1996.77
402.41	1968.10
402.62	2004.96
402.83	2052.06
403.04	2027.49
403.24	2076.64
403.45	1779.68
403.66	1986.53
403.87	1886.18
404.07	1873.89
404.28	1873.89
404.49	1914.85
404.70	1812.45
404.90	1845.22
405.11	1763.30
405.32	1714.15
405.52	1687.53
405.73	1773.54
405.94	1671.14
406.15	1763.30
406.35	1781.73
406.56	1691.62
406.77	1685.48
406.98	1763.30
407.18	1705.96
407.39	1763.30
407.60	1701.86
407.80	1761.25
408.01	1632.23
408.22	1736.68
408.43	1611.75
408.63	1787.88
408.84	1826.79
409.05	1773.54
409.25	1730.53
409.46	1636.33
409.67	1738.73
409.88	1689.57
410.08	1714.15
410.29	1656.81
410.50	1757.16
410.70	1740.77
410.91	1726.44
411.12	1658.85
411.32	1658.85
411.53	1697.77
411.74	1763.30
411.95	1810.40
412.15	1695.72
412.36	1757.16
412.57	1746.92
412.77	1853.41
412.98	1775.59
413.19	1669.09
413.39	1808.36
413.60	1791.97
413.81	1802.21
414.01	1697.77
414.22	1763.30
414.43	1722.34
414.63	1699.81
414.84	1714.15
415.05	1746.92
415.25	1656.81
415.46	1710.05
415.67	1660.90
415.87	1753.06
416.08	1722.34
416.29	1730.53
416.49	1771.49
416.70	1755.11
416.91	1640.42
417.11	1769.44
417.32	1751.01
417.53	1759.21
417.73	1765.35
417.94	1736.68
418.15	1703.91
418.35	1751.01
418.56	1728.49
418.77	1822.69
418.97	1662.95
419.18	1660.90
419.38	1574.89
419.59	1687.53
419.80	1755.11
420.00	1705.96
420.21	1693.67
420.42	1681.38
420.62	1781.73
420.83	1685.48
421.04	1722.34
421.24	1701.86
421.45	1753.06
421.65	1753.06
421.86	1693.67
422.07	1806.31
422.27	1748.97
422.48	1665.00
422.69	1726.44
422.89	1720.29
423.10	1687.53
423.30	1728.49
423.51	1708.01
423.72	1736.68
423.92	1781.73
424.13	1644.52
424.33	1828.84
424.54	1742.82
424.75	1720.29
424.95	1892.32
425.16	1787.88
425.36	1708.01
425.57	1755.11
425.78	1722.34
425.98	1798.12
426.19	1742.82
426.39	1644.52
426.60	1703.91
426.81	1853.41
427.01	1798.12
427.22	1626.09
427.42	1593.32
427.63	1703.91
427.83	1744.87
428.04	1779.68
428.25	1839.08
428.45	1746.92
428.66	1767.40
428.86	1708.01
429.07	1703.91
429.28	1701.86
429.48	1710.05
429.69	1718.25
429.89	1710.05
430.10	1675.24
430.30	1708.01
430.51	1771.49
430.71	1714.15
430.92	1710.05
431.13	1722.34
431.33	1773.54
431.54	1798.12
431.74	1759.21
431.95	1869.80
432.15	1734.63
432.36	1673.19
432.56	1826.79
432.77	1847.27
432.98	1816.55
433.18	1722.34
433.39	1667.05
433.59	1701.86
433.80	1828.84
434.00	1880.04
434.21	1769.44
434.41	1634.28
434.62	1849.32
434.82	1638.38
435.03	1593.32
435.23	1669.09
435.44	1638.38
435.64	1751.01
435.85	1703.91
436.06	1701.86
436.26	1738.73
436.47	1755.11
436.67	1624.04
436.88	1783.78
437.08	1761.25
437.29	1808.36
437.49	1736.68
437.70	1755.11
437.90	1746.92
438.11	1898.47
438.31	1765.35
438.52	1886.18
438.72	1820.64
438.93	1890.28
439.13	1802.21
439.34	1810.40
439.54	1765.35
439.75	1853.41
439.95	1767.40
440.16	1730.53
440.36	1767.40
440.57	1796.07
440.77	1742.82
440.98	1710.05
441.18	1697.77
441.39	1669.09
441.59	1685.48
441.80	1886.18
442.00	1736.68
442.21	1834.98
442.41	1748.97
442.62	1779.68
442.82	1652.71
443.02	1775.59
443.23	1740.77
443.43	1669.09
443.64	1808.36
443.84	1691.62
444.05	1820.64
444.25	1732.58
444.46	1701.86
444.66	1746.92
444.87	1834.98
445.07	1693.67
445.28	1775.59
445.48	1845.22
445.69	1804.26
445.89	1857.51
446.09	1748.97
446.30	2078.69
446.50	2623.45
446.71	3665.86
446.91	4290.49
447.12	4655.03
447.32	4931.51
447.53	4411.32
447.73	3819.46
447.93	3645.38
448.14	3317.71
448.34	3129.30
448.55	2783.19
448.75	2783.19
448.96	2725.85
449.16	2437.08
449.36	2287.58
449.57	2127.84
449.77	1826.79
449.98	1818.60
450.18	1820.64
450.39	1816.55
450.59	1804.26
450.79	1771.49
451.00	1746.92
451.20	1751.01
451.41	1765.35
451.61	1748.97
451.81	1775.59
452.02	1736.68
452.22	1742.82
452.43	1779.68
452.63	1808.36
452.84	1718.25
453.04	1691.62
453.24	1755.11
453.45	1724.39
453.65	1783.78
453.86	1830.88
454.06	1746.92
454.26	1740.77
454.47	1746.92
454.67	1890.28
454.87	1708.01
455.08	1777.64
455.28	1814.50
455.49	1763.30
455.69	1669.09
455.89	1849.32
456.10	1845.22
456.30	1677.29
456.51	1769.44
456.71	1744.87
456.91	1775.59
457.12	1746.92
457.32	1755.11
457.52	1720.29
457.73	1777.64
457.93	1769.44
458.14	1632.23
458.34	1652.71
458.54	1779.68
458.75	1730.53
458.95	1775.59
459.15	1738.73
459.36	1740.77
459.56	1806.31
459.76	1882.08
459.97	1767.40
460.17	1738.73
460.37	1738.73
460.58	1718.25
460.78	1759.21
460.99	1734.63
461.19	1726.44
461.39	1714.15
461.60	1720.29
461.80	1740.77
462.00	1634.28
462.21	1718.25
462.41	1652.71
462.61	1710.05
462.82	1599.46
463.02	1814.50
463.22	1800.16
463.43	1759.21
463.63	1744.87
463.83	1771.49
464.04	1691.62
464.24	1720.29
464.44	1660.90
464.64	1705.96
464.85	1816.55
465.05	1806.31
465.25	1769.44
465.46	1767.40
465.66	1806.31
465.86	1738.73
466.07	1730.53
466.27	1710.05
466.47	1667.05
466.68	1642.47
466.88	1839.08
467.08	1816.55
467.29	1824.74
467.49	1775.59
467.69	1740.77
467.89	1794.02
468.10	1738.73
468.30	1808.36
468.50	1816.55
468.71	1775.59
468.91	1710.05
469.11	1779.68
469.31	1812.45
469.52	1665.00
469.72	1849.32
469.92	1912.80
470.13	1738.73
470.33	1763.30
470.53	1834.98
470.73	2093.02
470.94	2230.24
471.14	2332.64
471.34	2531.29
471.54	2373.60
471.75	2181.09
471.95	2136.03
472.15	2123.74
472.36	2129.89
472.56	2082.78
472.76	2144.22
472.96	2019.30
473.17	1984.48
473.37	1828.84
473.57	1839.08
473.77	1837.03
473.98	1746.92
474.18	1693.67
474.38	1865.70
474.58	1755.11
474.79	1691.62
474.99	1724.39
475.19	1771.49
475.39	1726.44
475.60	1687.53
475.80	1736.68
476.00	1783.78
476.20	1685.48
476.41	1806.31
476.61	1822.69
476.81	1828.84
477.01	1656.81
477.21	1843.17
477.42	1875.94
477.62	1681.38
477.82	1757.16
478.02	1748.97
478.23	1773.54
478.43	1757.16
478.63	1755.11
478.83	1751.01
479.03	1824.74
479.24	1812.45
479.44	1828.84
479.64	1681.38
479.84	1599.46
480.04	1751.01
480.25	1853.41
480.45	1757.16
480.65	1720.29
480.85	1779.68
481.06	1701.86
481.26	1705.96
481.46	1841.12
481.66	1718.25
481.86	1685.48
482.06	1859.56
482.27	1736.68
482.47	1648.61
482.67	1767.40
482.87	1714.15
483.07	1861.60
483.28	1646.57
483.48	1718.25
483.68	1732.58
483.88	1646.57
484.08	1562.60
484.29	1734.63
484.49	1697.77
484.69	1652.71
484.89	1783.78
485.09	1847.27
485.29	1763.30
485.50	1828.84
485.70	1619.94
485.90	1765.35
486.10	1775.59
486.30	1685.48
486.50	1746.92
486.71	1816.55
486.91	1755.11
487.11	1810.40
487.31	1695.72
487.51	1708.01
487.71	1656.81
487.91	1669.09
488.12	1636.33
488.32	1613.80
488.52	1753.06
488.72	1693.67
488.92	1773.54
489.12	1789.92
489.32	1744.87
489.53	1791.97
489.73	1710.05
489.93	1832.93
490.13	1708.01
490.33	1677.29
490.53	1748.97
490.73	1771.49
490.94	1681.38
491.14	1783.78
491.34	1808.36
491.54	2164.70
491.74	2607.06
491.94	2885.59
492.14	2922.45
492.34	3026.90
492.54	2672.60
492.75	2467.80
492.95	2455.51
493.15	2346.97
493.35	2250.72
493.55	2332.64
493.75	2099.17
493.95	2207.71
494.15	1896.42
494.35	1853.41
494.56	1914.85
494.76	1787.88
494.96	1773.54
495.16	1787.88
495.36	1722.34
495.56	1740.77
495.76	1736.68
495.96	1705.96
496.16	1718.25
496.36	1871.84
496.56	1748.97
496.77	1660.90
496.97	1734.63
497.17	1757.16
497.37	1718.25
497.57	1755.11
497.77	1693.67
497.97	1658.85
498.17	1720.29
498.37	1669.09
498.57	1777.64
498.77	1685.48
498.97	1753.06
499.17	1875.94
499.38	1734.63
499.58	1759.21
499.78	1814.50
499.98	1779.68
500.18	1800.16
500.38	1638.38
500.58	1820.64
500.78	2553.82
500.98	4571.07
501.18	5867.43
501.38	6707.10
501.58	7075.73
501.78	6741.91
501.98	5709.74
502.18	4888.50
502.38	4390.84
502.58	3997.64
502.78	3833.80
502.98	3659.72
503.18	3346.38
503.38	3231.69
503.59	2861.01
503.79	2748.37
503.99	2381.79
504.19	2295.77
504.39	2250.72
504.59	2146.27
504.79	2039.78
504.99	2109.41
505.19	1882.08
505.39	1996.77
505.59	1980.39
505.79	1976.29
505.99	1918.95
506.19	1806.31
506.39	1900.52
506.59	1705.96
506.79	1755.11
506.99	1863.65
507.19	1726.44
507.39	1746.92
507.59	1714.15
507.79	1626.09
507.99	1708.01
508.19	1701.86
508.39	1720.29
508.59	1763.30
508.79	1875.94
508.99	1828.84
509.19	1683.43
509.39	1787.88
509.59	1691.62
509.79	1652.71
509.99	1722.34
510.19	1798.12
510.39	1822.69
510.59	1767.40
510.79	1697.77
510.99	1712.10
511.19	1763.30
511.39	1886.18
511.59	1722.34
511.79	1787.88
511.99	1736.68
512.19	1855.46
512.38	1753.06
512.58	1763.30
512.78	1830.88
512.98	1804.26
513.18	1820.64
513.38	1689.57
513.58	1779.68
513.78	1724.39
513.98	1689.57
514.18	1757.16
514.38	1701.86
514.58	1751.01
514.78	1669.09
514.98	1771.49
515.18	1755.11
515.38	1732.58
515.58	1859.56
515.78	1755.11
515.98	1814.50
516.18	1806.31
516.38	1785.83
516.57	1738.73
516.77	1695.72
516.97	1755.11
517.17	1744.87
517.37	1636.33
517.57	1783.78
517.77	1753.06
517.97	1691.62
518.17	1812.45
518.37	1710.05
518.57	1662.95
518.77	1683.43
518.97	1742.82
519.16	1732.58
519.36	1806.31
519.56	1705.96
519.76	1726.44
519.96	1763.30
520.16	1787.88
520.36	1683.43
520.56	1761.25
520.76	1714.15
520.96	1718.25
521.16	1738.73
521.35	1779.68
521.55	1841.12
521.75	1771.49
521.95	1726.44
522.15	1765.35
522.35	1683.43
522.55	1681.38
522.75	1781.73
522.95	1716.20
523.14	1720.29
523.34	1701.86
523.54	1683.43
523.74	1806.31
523.94	1845.22
524.14	1705.96
524.34	1736.68
524.54	1783.78
524.73	1746.92
524.93	1765.35
525.13	1740.77
525.33	1697.77
525.53	1918.95
525.73	1687.53
525.93	1804.26
526.13	1714.15
526.32	1720.29
526.52	1834.98
526.72	1791.97
526.92	1724.39
527.12	1769.44
527.32	1705.96
527.52	1740.77
527.71	1767.40
527.91	1746.92
528.11	1669.09
528.31	1775.59
528.51	1691.62
528.71	1796.07
528.90	1834.98
529.10	1828.84
529.30	1791.97
529.50	1701.86
529.70	1718.25
529.90	1730.53
530.09	1773.54
530.29	1650.66
530.49	1730.53
530.69	1880.04
530.89	1705.96
531.09	1841.12
531.28	1697.77
531.48	1814.50
531.68	1769.44
531.88	1755.11
532.08	1755.11
532.28	1673.19
532.47	1689.57
532.67	1730.53
532.87	1746.92
533.07	1695.72
533.27	1804.26
533.46	1763.30
533.66	1763.30
533.86	1724.39
534.06	1720.29
534.26	1681.38
534.45	1767.40
534.65	1757.16
534.85	1740.77
535.05	1701.86
535.25	1708.01
535.44	1683.43
535.64	1755.11
535.84	1710.05
536.04	1746.92
536.24	1732.58
536.43	1697.77
536.63	1800.16
536.83	1775.59
537.03	1783.78
537.22	1699.81
537.42	1632.23
537.62	1675.24
537.82	1697.77
538.02	1689.57
538.21	1847.27
538.41	1974.24
538.61	1730.53
538.81	1658.85
539.00	1757.16
539.20	1648.61
539.40	1755.11
539.60	1818.60
539.79	1796.07
539.99	1781.73
540.19	1775.59
540.39	1720.29
540.58	1751.01
540.78	1802.21
540.98	1773.54
541.18	1808.36
541.37	1824.74
541.57	1669.09
541.77	1697.77
541.97	1718.25
542.16	1703.91
542.36	1710.05
542.56	1779.68
542.76	1796.07
542.95	1814.50
543.15	1812.45
543.35	1812.45
543.54	1683.43
543.74	1734.63
543.94	1810.40
544.14	1761.25
544.33	1777.64
544.53	1779.68
544.73	1716.20
544.93	1691.62
545.12	1718.25
545.32	1685.48
545.52	1650.66
545.71	1738.73
545.91	1714.15
546.11	1685.48
546.30	1738.73
546.50	1726.44
546.70	1791.97
546.90	1716.20
547.09	1656.81
547.29	1785.83
547.49	1828.84
547.68	1722.34
547.88	1662.95
548.08	1777.64
548.27	2234.33
548.47	1742.82
548.67	1751.01
548.87	1753.06
549.06	1738.73
549.26	1810.40
549.46	1808.36
549.65	1687.53
549.85	1826.79
550.05	1849.32
550.24	1648.61
550.44	1744.87
550.64	1751.01
550.83	1755.11
551.03	1755.11
551.23	1851.36
551.42	1755.11
551.62	1759.21
551.82	1767.40
552.01	1705.96
552.21	1837.03
552.41	1746.92
552.60	1875.94
552.80	1740.77
553.00	1689.57
553.19	1763.30
553.39	1834.98
553.59	1667.05
553.78	1769.44
553.98	1828.84
554.17	1691.62
554.37	1828.84
554.57	1773.54
554.76	1724.39
554.96	1732.58
555.16	1730.53
555.35	1740.77
555.55	1820.64
555.75	1789.92
555.94	1779.68
556.14	1628.14
556.33	1781.73
556.53	1689.57
556.73	1777.64
556.92	1771.49
557.12	1781.73
557.32	1783.78
557.51	1880.04
557.71	1767.40
557.90	1853.41
558.10	1773.54
558.30	1724.39
558.49	1658.85
558.69	1783.78
558.88	1806.31
559.08	1832.93
559.28	1744.87
559.47	1804.26
559.67	1789.92
559.86	1920.99
560.06	1824.74
560.26	1685.48
560.45	1783.78
560.65	1847.27
560.84	1873.89
561.04	1693.67
561.24	1697.77
561.43	1669.09
561.63	1779.68
561.82	1751.01
562.02	1748.97
562.22	1699.81
562.41	1681.38
562.61	1689.57
562.80	1767.40
563.00	1800.16
563.19	1769.44
563.39	1783.78
563.59	1726.44
563.78	1656.81
563.98	1585.13
564.17	1806.31
564.37	1632.23
564.56	1759.21
564.76	1638.38
564.96	1769.44
565.15	1847.27
565.35	1894.37
565.54	1716.20
565.74	1785.83
565.93	1777.64
566.13	1746.92
566.32	1755.11
566.52	1822.69
566.71	1693.67
566.91	1740.77
567.11	1759.21
567.30	1734.63
567.50	1859.56
567.69	1753.06
567.89	1677.29
568.08	1763.30
568.28	1687.53
568.47	1728.49
568.67	1818.60
568.86	1744.87
569.06	1765.35
569.25	1751.01
569.45	1789.92
569.64	1740.77
569.84	1710.05
570.04	1767.40
570.23	1716.20
570.43	1738.73
570.62	1789.92
570.82	1888.23
571.01	1740.77
571.21	1705.96
571.40	1683.43
571.60	1841.12
571.79	1734.63
571.99	1763.30
572.18	1679.33
572.38	1718.25
572.57	1759.21
572.77	1753.06
572.96	1742.82
573.16	1816.55
573.35	1759.21
573.55	1900.52
573.74	1857.51
573.94	1755.11
574.13	1720.29
574.33	1822.69
574.52	1828.84
574.71	1796.07
574.91	1767.40
575.10	1726.44
575.30	1710.05
575.49	1716.20
575.69	1714.15
575.88	1695.72
576.08	1722.34
576.27	1769.44
576.47	1763.30
576.66	1867.75
576.86	1791.97
577.05	1861.60
577.25	1746.92
577.44	1853.41
577.64	1740.77
577.83	1798.12
578.02	1748.97
578.22	1787.88
578.41	1828.84
578.61	1767.40
578.80	1665.00
579.00	1769.44
579.19	1785.83
579.39	1791.97
579.58	1886.18
579.77	1660.90
579.97	1828.84
580.16	1820.64
580.36	1861.60
580.55	1857.51
580.75	1873.89
580.94	1804.26
581.13	1892.32
581.33	1791.97
581.52	1785.83
581.72	1923.04
581.91	1890.28
582.11	1771.49
582.30	1851.36
582.49	1757.16
582.69	1822.69
582.88	1787.88
583.08	1806.31
583.27	1773.54
583.47	1798.12
583.66	1691.62
583.85	1665.00
584.05	1767.40
584.24	1839.08
584.44	1708.01
584.63	1820.64
584.82	1818.60
585.02	1886.18
585.21	1824.74
585.41	1736.68
585.60	1812.45
585.79	1867.75
585.99	1853.41
586.18	1902.56
586.37	2226.14
586.57	3373.00
586.76	9998.18
586.96	24321.68
587.15	34010.62
587.34	39771.55
587.54	41934.21
587.73	35999.19
587.93	26115.70
588.12	21327.55
588.31	18067.18
588.51	16148.23
588.70	14972.70
588.89	13834.03
589.09	12306.24
589.28	10751.84
589.47	9293.68
589.67	7767.95
589.86	6506.40
590.06	4814.77
590.25	3999.68
590.44	3069.91
590.64	2551.77
590.83	2258.91
591.02	2090.98
591.22	2074.59
591.41	1853.41
591.60	1806.31
591.80	1859.56
591.99	1800.16
592.18	1855.46
592.38	1824.74
592.57	1722.34
592.76	1804.26
592.96	1806.31
593.15	1826.79
593.34	1912.80
593.54	1761.25
593.73	1828.84
593.92	1806.31
594.12	1759.21
594.31	1789.92
594.50	1783.78
594.70	1820.64
594.89	1894.37
595.08	1687.53
595.28	1834.98
595.47	1984.48
595.66	1802.21
595.86	1722.34
596.05	1785.83
596.24	1796.07
596.43	1798.12
596.63	1845.22
596.82	1759.21
597.01	1746.92
597.21	1896.42
597.40	1740.77
597.59	1689.57
597.79	1730.53
597.98	1787.88
598.17	1779.68
598.36	1834.98
598.56	1763.30
598.75	1714.15
598.94	1691.62
599.14	1712.10
599.33	1708.01
599.52	1785.83
599.71	1771.49
599.91	1816.55
600.10	1826.79
600.29	1734.63
600.48	1812.45
600.68	1789.92
600.87	1787.88
601.06	1671.14
601.26	1710.05
601.45	1746.92
601.64	1695.72
601.83	1845.22
602.03	1720.29
602.22	1722.34
602.41	1794.02
602.60	1888.23
602.80	1742.82
602.99	1847.27
603.18	1693.67
603.37	1650.66
603.57	1777.64
603.76	1728.49
603.95	1742.82
604.14	1742.82
604.34	1710.05
604.53	1759.21
604.72	1742.82
604.91	1810.40
605.10	1789.92
605.30	1648.61
605.49	1867.75
605.68	1834.98
605.87	1767.40
606.07	1718.25
606.26	1720.29
606.45	1828.84
606.64	1718.25
606.84	1673.19
607.03	1855.46
607.22	1734.63
607.41	1636.33
607.60	1693.67
607.80	1841.12
607.99	1746.92
608.18	1746.92
608.37	1673.19
608.56	1693.67
608.76	1884.13
608.95	1802.21
609.14	1755.11
609.33	1738.73
609.52	1722.34
609.72	1818.60
609.91	1796.07
610.10	1710.05
610.29	1806.31
610.48	1736.68
610.68	1722.34
610.87	1640.42
611.06	1834.98
611.25	1802.21
611.44	1869.80
611.63	1730.53
611.83	1783.78
612.02	1658.85
612.21	1777.64
612.40	1736.68
612.59	1748.97
612.79	1656.81
612.98	1736.68
613.17	1808.36
613.36	1808.36
613.55	1873.89
613.74	1578.98
613.93	1695.72
614.13	1755.11
614.32	1808.36
614.51	1734.63
614.70	1695.72
614.89	1671.14
615.08	1794.02
615.28	2035.68
615.47	1665.00
615.66	1732.58
615.85	1734.63
616.04	1808.36
616.23	1679.33
616.42	1693.67
616.62	1740.77
616.81	1812.45
617.00	1765.35
617.19	1806.31
617.38	1722.34
617.57	1697.77
617.76	1779.68
617.95	1789.92
618.15	1859.56
618.34	1871.84
618.53	1669.09
618.72	1820.64
618.91	1781.73
619.10	1816.55
619.29	1820.64
619.48	1798.12
619.68	1669.09
619.87	1710.05
620.06	1640.42
620.25	1812.45
620.44	1730.53
620.63	1718.25
620.82	1736.68
621.01	1748.97
621.20	1671.14
621.39	1789.92
621.59	1755.11
621.78	1644.52
621.97	1755.11
622.16	1708.01
622.35	1787.88
622.54	1822.69
622.73	1814.50
622.92	1726.44
623.11	1740.77
623.30	1685.48
623.49	1767.40
623.68	1714.15
623.88	1773.54
624.07	1771.49
624.26	1763.30
624.45	1718.25
624.64	1650.66
624.83	1767.40
625.02	1687.53
625.21	1736.68
625.40	1763.30
625.59	1857.51
625.78	1726.44
625.97	1763.30
626.16	1736.68
626.35	1869.80
626.54	1744.87
626.74	1767.40
626.93	1755.11
627.12	1665.00
627.31	1822.69
627.50	1720.29
627.69	1751.01
627.88	1679.33
628.07	1746.92
628.26	1679.33
628.45	1724.39
628.64	1624.04
628.83	1738.73
629.02	1685.48
629.21	1744.87
629.40	1669.09
629.59	1726.44
629.78	1722.34
629.97	1667.05
630.16	1716.20
630.35	1761.25
630.54	1761.25
630.73	1761.25
630.92	1746.92
631.11	1640.42
631.30	1787.88
631.49	1767.40
631.68	1740.77
631.87	1759.21
632.06	1644.52
632.25	1865.70
632.44	1759.21
632.63	1779.68
632.82	1679.33
633.01	1648.61
633.20	1710.05
633.39	1742.82
633.58	1675.24
633.77	1677.29
633.96	1742.82
634.15	1785.83
634.34	1882.08
634.53	1765.35
634.72	1718.25
634.91	1624.04
635.10	1765.35
635.29	1816.55
635.48	1734.63
635.67	1728.49
635.86	1626.09
636.05	1863.65
636.24	1722.34
636.43	1740.77
636.62	1753.06
636.81	1585.13
637.00	1693.67
637.19	1779.68
637.38	1685.48
637.57	1634.28
637.76	1677.29
637.95	1691.62
638.14	1675.24
638.33	1718.25
638.52	1710.05
638.71	1748.97
638.89	1648.61
639.08	1847.27
639.27	1841.12
639.46	1783.78
639.65	1859.56
639.84	1744.87
640.03	1722.34
640.22	1701.86
640.41	1824.74
640.60	1701.86
640.79	1722.34
640.98	1703.91
641.17	1808.36
641.36	1734.63
641.55	1841.12
641.74	1773.54
641.92	1621.99
642.11	1767.40
642.30	1708.01
642.49	1716.20
642.68	1705.96
642.87	1722.34
643.06	1640.42
643.25	1734.63
643.44	1751.01
643.63	1681.38
643.82	1812.45
644.00	1689.57
644.19	1763.30
644.38	1685.48
644.57	1763.30
644.76	1777.64
644.95	1675.24
645.14	1744.87
645.33	1685.48
645.52	1601.51
645.71	1665.00
645.89	1638.38
646.08	1634.28
646.27	1789.92
646.46	1849.32
646.65	1581.03
646.84	1775.59
647.03	1697.77
647.22	1748.97
647.40	1755.11
647.59	1685.48
647.78	1693.67
647.97	1732.58
648.16	1716.20
648.35	1828.84
648.54	1738.73
648.73	1689.57
648.91	1798.12
649.10	1734.63
649.29	1691.62
649.48	1697.77
649.67	1773.54
649.86	1732.58
650.05	1712.10
650.23	1708.01
650.42	1669.09
650.61	1826.79
650.80	1810.40
650.99	1896.42
651.18	1757.16
651.36	1810.40
651.55	1705.96
651.74	1812.45
651.93	1683.43
652.12	1767.40
652.31	1689.57
652.49	1673.19
652.68	1689.57
652.87	1738.73
653.06	1812.45
653.25	1828.84
653.44	1675.24
653.62	1863.65
653.81	1710.05
654.00	1730.53
654.19	1796.07
654.38	1789.92
654.56	1726.44
654.75	1722.34
654.94	1777.64
655.13	1808.36
655.32	1705.96
655.51	1759.21
655.69	1697.77
655.88	1796.07
656.07	1630.18
656.26	1722.34
656.45	1726.44
656.63	1773.54
656.82	1726.44
657.01	1832.93
657.20	1701.86
657.38	1812.45
657.57	1742.82
657.76	1662.95
657.95	1736.68
658.14	1705.96
658.32	1708.01
658.51	1621.99
658.70	1751.01
658.89	1724.39
659.08	1703.91
659.26	1839.08
659.45	1699.81
659.64	1728.49
659.83	1613.80
660.01	1877.99
660.20	1767.40
660.39	1834.98
660.58	1599.46
660.76	1755.11
660.95	1632.23
661.14	1742.82
661.33	1724.39
661.51	1746.92
661.70	1634.28
661.89	1779.68
662.08	1703.91
662.26	1640.42
662.45	1714.15
662.64	1812.45
662.83	1675.24
663.01	1656.81
663.20	1681.38
663.39	1824.74
663.58	1708.01
663.76	1789.92
663.95	1703.91
664.14	1722.34
664.32	1705.96
664.51	1710.05
664.70	1656.81
664.89	1765.35
665.07	1624.04
665.26	1865.70
665.45	1769.44
665.64	1787.88
665.82	1738.73
666.01	1826.79
666.20	1673.19
666.38	1781.73
666.57	1808.36
666.76	2207.71
666.95	4519.87
667.13	10276.71
667.32	15240.98
667.51	17698.55
667.69	19033.82
667.88	17434.36
668.07	12240.71
668.25	9602.93
668.44	8044.42
668.63	7204.75
668.81	6625.18
669.00	6201.25
669.19	5736.36
669.38	5052.34
669.56	4505.53
669.75	4003.78
669.94	3348.43
670.12	2949.08
670.31	2525.15
670.50	2306.01
670.68	2035.68
670.87	1929.19
671.06	1781.73
671.24	1800.16
671.43	1791.97
671.62	1796.07
671.80	1714.15
671.99	1742.82
672.18	1742.82
672.36	1834.98
672.55	1781.73
672.74	1689.57
672.92	1738.73
673.11	1716.20
673.29	1675.24
673.48	1759.21
673.67	1763.30
673.85	1726.44
674.04	1677.29
674.23	1712.10
674.41	1865.70
674.60	1632.23
674.79	1648.61
674.97	1650.66
675.16	1724.39
675.34	1744.87
675.53	1660.90
675.72	1714.15
675.90	1748.97
676.09	1691.62
676.28	1746.92
676.46	1705.96
676.65	1753.06
676.83	1693.67
677.02	1677.29
677.21	1763.30
677.39	1710.05
677.58	1693.67
677.77	1677.29
677.95	1701.86
678.14	1720.29
678.32	1769.44
678.51	1669.09
678.70	1818.60
678.88	1650.66
679.07	1736.68
679.25	1689.57
679.44	1669.09
679.63	1697.77
679.81	1771.49
680.00	1798.12
680.18	1726.44
680.37	1865.70
680.55	1728.49
680.74	1705.96
680.93	1632.23
681.11	1751.01
681.30	1648.61
681.48	1699.81
681.67	1755.11
681.85	1673.19
682.04	1665.00
682.23	1775.59
682.41	1734.63
682.60	1703.91
682.78	1718.25
682.97	1736.68
683.15	1771.49
683.34	1787.88
683.53	1767.40
683.71	1728.49
683.90	1732.58
684.08	1761.25
684.27	1685.48
684.45	1783.78
684.64	1853.41
684.82	1767.40
685.01	1779.68
685.19	1730.53
685.38	1769.44
685.57	1660.90
685.75	1628.14
685.94	1714.15
686.12	1699.81
686.31	1714.15
686.49	1863.65
686.68	1638.38
686.86	1728.49
687.05	1681.38
687.23	1826.79
687.42	1732.58
687.60	1697.77
687.79	1718.25
687.97	1771.49
688.16	1798.12
688.34	1785.83
688.53	1626.09
688.71	1734.63
688.90	1742.82
689.08	1675.24
689.27	1589.22
689.45	1746.92
689.64	1738.73
689.82	1755.11
690.01	1712.10
690.19	1722.34
690.38	1783.78
690.56	1755.11
690.75	1683.43
690.93	1710.05
691.12	1652.71
691.30	1689.57
691.49	1710.05
691.67	1675.24
691.86	1820.64
692.04	1728.49
692.23	1607.66
692.41	1675.24
692.60	1847.27
692.78	1763.30
692.97	1714.15
693.15	1716.20
693.34	1855.46
693.52	1791.97
693.71	1665.00
693.89	1697.77
694.08	1642.47
694.26	1802.21
694.44	1828.84
694.63	1720.29
694.81	1599.46
695.00	1708.01
695.18	1771.49
695.37	1927.14
695.55	1755.11
695.74	1681.38
695.92	1585.13
696.10	1775.59
696.29	1601.51
696.47	1673.19
696.66	1691.62
696.84	1732.58
697.03	1744.87
697.21	1824.74
697.40	2404.32
697.58	1822.69
697.76	1675.24
697.95	1689.57
698.13	1740.77
698.32	1726.44
698.50	1728.49
698.68	1738.73
698.87	1697.77
699.05	1783.78
699.24	1685.48
699.42	1722.34
699.61	1775.59
699.79	1687.53
699.97	1765.35
700.16	1599.46
700.34	1685.48
700.53	1701.86
700.71	1800.16
700.89	1804.26
701.08	1685.48
701.26	1755.11
701.45	2058.21
701.63	1685.48
701.81	1681.38
702.00	1691.62
702.18	1751.01
702.37	1662.95
702.55	1742.82
702.73	1662.95
702.92	1587.18
703.10	1777.64
703.28	1728.49
703.47	1583.08
703.65	1695.72
703.84	1751.01
704.02	1742.82
704.20	1812.45
704.39	1697.77
704.57	1732.58
704.75	1802.21
704.94	1685.48
705.12	1716.20
705.30	1785.83
705.49	2260.96
705.67	4511.68
705.86	9510.77
706.04	12543.81
706.22	14370.60
706.41	15116.06
706.59	13653.81
706.77	9484.14
706.96	7260.05
707.14	6514.59
707.32	5892.01
707.51	5459.88
707.69	4816.82
707.87	4147.14
708.06	3561.42
708.24	2914.26
708.42	2369.50
708.61	2258.91
708.79	1906.66
708.97	1865.70
709.16	1890.28
709.34	1751.01
709.52	1808.36
709.71	1728.49
709.89	1814.50
710.07	1697.77
710.26	1683.43
710.44	1705.96
710.62	1779.68
710.80	1673.19
710.99	1753.06
711.17	1787.88
711.35	1615.85
711.54	1656.81
711.72	1759.21
711.90	1773.54
712.09	1734.63
712.27	1804.26
712.45	1720.29
712.63	1695.72
712.82	1660.90
713.00	1708.01
713.18	1730.53
713.37	1732.58
713.55	1765.35
713.73	1703.91
713.91	1759.21
714.10	1689.57
714.28	1708.01
714.46	1722.34
714.65	1689.57
714.83	1718.25
715.01	1755.11
715.19	1712.10
715.38	1689.57
715.56	1789.92
715.74	1628.14
715.92	1697.77
716.11	1779.68
716.29	1667.05
716.47	1736.68
716.65	1728.49
716.84	1636.33
717.02	1804.26
717.20	1648.61
717.38	1689.57
717.57	1691.62
717.75	1669.09
717.93	1671.14
718.11	1679.33
718.30	1609.70
718.48	1705.96
718.66	1732.58
718.84	1751.01
719.03	1714.15
719.21	1679.33
719.39	1802.21
719.57	1724.39
719.75	1773.54
719.94	1671.14
720.12	1703.91
720.30	1705.96
720.48	1779.68
720.67	1642.47
720.85	1675.24
721.03	1742.82
721.21	1650.66
721.39	1783.78
721.58	1683.43
721.76	1738.73
721.94	1738.73
722.12	1701.86
722.30	1796.07
722.49	1615.85
722.67	1748.97
722.85	1689.57
723.03	1679.33
723.21	1671.14
723.40	1748.97
723.58	1814.50
723.76	1693.67
723.94	1775.59
724.12	1720.29
724.30	1742.82
724.49	1767.40
724.67	1705.96
724.85	1853.41
725.03	1621.99
725.21	1787.88
725.40	1748.97
725.58	1650.66
725.76	1767.40
725.94	1757.16
726.12	1687.53
726.30	1740.77
726.49	1728.49
726.67	1691.62
726.85	1736.68
727.03	1746.92
727.21	2203.61
727.39	2961.36
727.57	3846.09
727.76	4196.29
727.94	4540.35
728.12	4347.84
728.30	3622.86
728.48	2863.06
728.66	2818.00
728.84	2557.91
729.03	2250.72
729.21	2156.51
729.39	2002.91
729.57	1785.83
729.75	1777.64
729.93	1800.16
730.11	1677.29
730.30	1724.39
730.48	1777.64
730.66	1832.93
730.84	1769.44
731.02	1724.39
731.20	1705.96
731.38	1642.47
731.56	1751.01
731.74	1646.57
731.93	1718.25
732.11	1730.53
732.29	1736.68
732.47	1701.86
732.65	1759.21
732.83	1748.97
733.01	1787.88
733.19	1677.29
733.37	1757.16
733.56	1771.49
733.74	1716.20
733.92	1787.88
734.10	1697.77
734.28	1730.53
734.46	1611.75
734.64	1701.86
734.82	1695.72
735.00	1722.34
735.18	1701.86
735.36	1714.15
735.54	1714.15
735.73	1685.48
735.91	1701.86
736.09	1751.01
736.27	1703.91
736.45	1746.92
736.63	1628.14
736.81	1638.38
736.99	1646.57
737.17	1802.21
737.35	1718.25
737.53	1705.96
737.71	1658.85
737.89	1771.49
738.07	1648.61
738.25	1591.27
738.43	1617.90
738.61	1724.39
738.80	1685.48
738.98	1660.90
739.16	1665.00
739.34	1677.29
739.52	1779.68
739.70	1693.67
739.88	1703.91
740.06	1773.54
740.24	1665.00
740.42	1779.68
740.60	1683.43
740.78	1710.05
740.96	1587.18
741.14	1689.57
741.32	1785.83
741.50	1703.91
741.68	1814.50
741.86	1822.69
742.04	1708.01
742.22	1636.33
742.40	1732.58
742.58	1683.43
742.76	1632.23
742.94	1744.87
743.12	1638.38
743.30	1712.10
743.48	1783.78
743.66	1656.81
743.84	1712.10
744.02	1644.52
744.20	1695.72
744.38	1714.15
744.56	1648.61
744.74	1841.12
744.92	1763.30
745.10	1841.12
745.28	1736.68
745.46	1822.69
745.64	1630.18
745.82	1787.88
746.00	1689.57
746.18	1804.26
746.36	1714.15
746.54	1781.73
746.72	1722.34
746.90	1697.77
747.08	1794.02
747.26	1781.73
747.44	1781.73
747.62	1843.17
747.80	1783.78
747.98	1863.65
748.15	1732.58
748.33	1796.07
748.51	1742.82
748.69	1742.82
748.87	1591.27
749.05	1736.68
749.23	1652.71
749.41	1671.14
749.59	1730.53
749.77	1783.78
749.95	1683.43
750.13	1607.66
750.31	1720.29
750.49	1746.92
750.67	1845.22
750.85	1851.36
751.03	1736.68
751.20	1871.84
751.38	1720.29
751.56	1722.34
751.74	1681.38
751.92	1615.85
752.10	1677.29
752.28	1755.11
752.46	1701.86
752.64	1712.10
752.82	1681.38
753.00	1701.86
753.18	1691.62
753.35	1708.01
753.53	1681.38
753.71	1679.33
753.89	1669.09
754.07	1785.83
754.25	1779.68
754.43	1689.57
754.61	1667.05
754.79	1775.59
754.97	1697.77
755.14	1816.55
755.32	1665.00
755.50	1693.67
755.68	1734.63
755.86	1660.90
756.04	1693.67
756.22	1634.28
756.40	1732.58
756.57	1822.69
756.75	1667.05
756.93	1796.07
757.11	1796.07
757.29	1675.24
757.47	1660.90
757.65	1665.00
757.82	1574.89
758.00	1714.15
758.18	1683.43
758.36	1710.05
758.54	1779.68
758.72	1656.81
758.90	1767.40
759.07	1699.81
759.25	1626.09
759.43	1714.15
759.61	1624.04
759.79	2185.18
759.97	1791.97
760.15	1669.09
760.32	1683.43
760.50	1732.58
760.68	1902.56
760.86	1656.81
761.04	1726.44
761.22	1787.88
761.39	1728.49
761.57	1763.30
761.75	1693.67
761.93	1802.21
762.11	1697.77
762.28	1718.25
762.46	1650.66
762.64	1767.40
762.82	1632.23
763.00	1691.62
763.18	1755.11
763.35	1673.19
763.53	1822.69
763.71	1771.49
763.89	1761.25
764.07	1728.49
764.24	1722.34
764.42	1812.45
764.60	1703.91
764.78	1718.25
764.96	1673.19
765.13	1777.64
765.31	1722.34
765.49	1775.59
765.67	1621.99
765.84	1632.23
766.02	1626.09
766.20	1624.04
766.38	1773.54
766.56	1699.81
766.73	1734.63
766.91	1687.53
767.09	1755.11
767.27	1775.59
767.44	1669.09
767.62	1806.31
767.80	1759.21
767.98	1652.71
768.15	1691.62
768.33	1759.21
768.51	1699.81
768.69	1720.29
768.87	1767.40
769.04	1693.67
769.22	1837.03
769.40	1806.31
769.58	1867.75
769.75	1705.96
769.93	1767.40
770.11	1693.67
770.28	1662.95
770.46	1761.25
770.64	1767.40
770.82	1734.63
770.99	1699.81
771.17	1773.54
771.35	1679.33
771.53	1708.01
771.70	1730.53
771.88	1689.57
772.06	1714.15
772.23	1771.49
772.41	1759.21
772.59	1646.57
772.77	1644.52
772.94	1685.48
773.12	1722.34
773.30	1665.00
773.47	1677.29
773.65	1648.61
773.83	1755.11
774.01	1669.09
774.18	1615.85
774.36	1726.44
774.54	1613.80
774.71	1775.59
774.89	1609.70
775.07	1724.39
775.24	1615.85
775.42	1695.72
775.60	1830.88
775.78	1605.61
775.95	1585.13
776.13	1640.42
776.31	1593.32
776.48	1746.92
776.66	1800.16
776.84	1697.77
777.01	1667.05
777.19	1699.81
777.37	1673.19
777.54	1802.21
777.72	1828.84
777.90	1808.36
778.07	1665.00
778.25	1953.76
778.43	1779.68
778.60	1587.18
778.78	1789.92
778.96	1779.68
779.13	1658.85
779.31	1779.68
779.49	1650.66
779.66	1705.96
779.84	1714.15
780.01	1675.24
780.19	1763.30
780.37	1761.25
780.54	1685.48
780.72	1781.73
780.90	1662.95
781.07	1667.05
781.25	1734.63
781.43	1804.26
781.60	1701.86
781.78	1755.11
781.95	1736.68
782.13	1767.40
782.31	1718.25
782.48	1679.33
782.66	1779.68
782.83	1826.79
783.01	1785.83
783.19	1695.72
783.36	1740.77
783.54	1650.66
783.72	1802.21
783.89	1677.29
784.07	1722.34
784.24	1761.25
784.42	1828.84
784.60	1757.16
784.77	1699.81
784.95	1605.61
785.12	1697.77
785.30	1751.01
785.47	1677.29
785.65	1652.71
785.83	1667.05
786.00	1632.23
786.18	1738.73
786.35	1595.37
786.53	1613.80
786.71	1814.50
786.88	1765.35
787.06	1708.01
787.23	1669.09
787.41	1556.46
787.58	1757.16
787.76	1689.57
787.94	1679.33
788.11	1703.91
788.29	1718.25
788.46	1691.62
788.64	1652.71
788.81	1652.71
788.99	1656.81
789.16	1691.62
789.34	1720.29
789.52	1701.86
789.69	1628.14
789.87	1615.85
790.04	1648.61
790.22	1732.58
790.39	1865.70
790.57	1673.19
790.74	1656.81
790.92	1728.49
791.09	1615.85
791.27	1658.85
791.44	1779.68
791.62	1746.92
791.79	1761.25
791.97	1716.20
792.15	1908.71
792.32	1765.35
792.50	1689.57
792.67	1824.74
792.85	1757.16
793.02	1691.62
793.20	1722.34
793.37	1646.57
793.55	1761.25
793.72	1621.99
793.90	1800.16
794.07	1740.77
794.25	1699.81
794.42	1751.01
794.60	1679.33
794.77	1751.01
794.95	1753.06
795.12	1781.73
795.30	1646.57
795.47	1587.18
795.65	1935.33
795.82	1718.25
796.00	1675.24
796.17	1683.43
796.34	1705.96
796.52	1689.57
796.69	1748.97
796.87	1806.31
797.04	1738.73
797.22	1769.44
797.39	1712.10
797.57	1802.21
797.74	1728.49
797.92	1724.39
798.09	1660.90
798.27	1730.53
798.44	1683.43
798.62	1748.97
798.79	1679.33
798.96	1751.01
799.14	1771.49
799.31	1867.75
799.49	1658.85
799.66	1650.66
799.84	1761.25
800.01	1636.33
800.19	1693.67
800.36	1603.56
800.53	1712.10
800.71	1705.96
800.88	1880.04
801.06	1748.97
801.23	1677.29
801.41	1648.61
801.58	1718.25
801.75	1708.01
801.93	1742.82
802.10	1787.88
802.28	1685.48
802.45	1638.38
802.63	1722.34
802.80	1693.67
802.97	1712.10
803.15	1730.53
803.32	1689.57
803.50	1654.76
803.67	1708.01
803.84	1624.04
804.02	1703.91
804.19	1673.19
804.37	1576.94
804.54	1593.32
804.71	1648.61
804.89	1675.24
805.06	1697.77
805.24	1677.29
805.41	1677.29
805.58	1613.80
805.76	1867.75
805.93	1826.79
806.10	1763.30
806.28	1716.20
806.45	1753.06
806.63	1736.68
806.80	1730.53
806.97	1718.25
807.15	1703.91
807.32	1699.81
807.49	1714.15
807.67	1644.52
807.84	1771.49
808.01	1609.70
808.19	1861.60
808.36	1834.98
808.54	1658.85
808.71	1708.01
808.88	1722.34
809.06	1728.49
809.23	1857.51
809.40	1687.53
809.58	1701.86
809.75	1736.68
809.92	1656.81
810.10	1888.23
810.27	1648.61
810.44	1693.67
810.62	1697.77
810.79	1705.96
810.96	1691.62
811.14	1701.86
811.31	1679.33
811.48	1824.74
811.66	1712.10
811.83	1757.16
812.00	1685.48
812.18	1644.52
812.35	1861.60
812.52	1683.43
812.69	1681.38
812.87	1730.53
813.04	1683.43
813.21	1730.53
813.39	1671.14
813.56	1646.57
813.73	1755.11
813.91	1593.32
814.08	1679.33
814.25	1748.97
814.42	1673.19
814.60	1665.00
814.77	1646.57
814.94	1699.81
815.12	1728.49
815.29	1804.26
815.46	1781.73
815.63	1740.77
815.81	1781.73
815.98	1765.35
816.15	1759.21
816.33	1681.38
816.50	1646.57
816.67	1665.00
816.84	1705.96
817.02	1601.51
817.19	1699.81
817.36	1769.44
817.53	1773.54
817.71	1652.71
817.88	1775.59
818.05	1751.01
818.22	1665.00
818.40	1935.33
818.57	1726.44
818.74	1824.74
818.91	1681.38
819.09	1783.78
819.26	1746.92
819.43	1738.73
819.60	1609.70
819.78	1722.34
819.95	1757.16
820.12	1642.47
820.29	1812.45
820.47	1771.49
820.64	1697.77
820.81	1675.24
820.98	1652.71
821.15	1648.61
821.33	1761.25
821.50	1640.42
821.67	1740.77
821.84	1755.11
822.02	1701.86
822.19	1703.91
822.36	1648.61
822.53	1712.10
822.70	1689.57
822.88	1699.81
823.05	1755.11
823.22	1720.29
823.39	1712.10
823.56	1755.11
823.74	1820.64
823.91	1609.70
824.08	1697.77
824.25	1638.38
824.42	1814.50
824.60	1660.90
824.77	1724.39
824.94	1685.48
825.11	1689.57
825.28	1710.05
825.45	1775.59
825.63	1748.97
825.80	1689.57
825.97	1718.25
826.14	1796.07
826.31	1595.37
826.48	1755.11
826.66	1638.38
826.83	1660.90
827.00	1757.16
827.17	1646.57
827.34	1644.52
827.51	1740.77
827.69	1691.62
827.86	1665.00
828.03	1732.58
828.20	1712.10
828.37	1763.30
828.54	1650.66
828.71	1683.43
828.89	1826.79
829.06	1769.44
829.23	1755.11
829.40	1667.05
829.57	1695.72
829.74	1720.29
829.91	1703.91
830.09	1636.33
830.26	1755.11
830.43	1871.84
830.60	1703.91
830.77	1763.30
830.94	1828.84
831.11	1751.01
831.28	1714.15
831.46	1718.25
831.63	1646.57
831.80	1783.78
831.97	1691.62
832.14	1730.53
832.31	1708.01
832.48	1705.96
832.65	1757.16
832.82	1767.40
832.99	1701.86
833.17	1636.33
833.34	1810.40
833.51	1757.16
833.68	1626.09
833.85	1849.32
834.02	1656.81
834.19	1640.42
834.36	1599.46
834.53	1738.73
834.70	1738.73
834.87	1769.44
835.04	1806.31
835.22	1685.48
835.39	1685.48
835.56	1652.71
835.73	1632.23
835.90	1740.77
836.07	1683.43
836.24	1742.82
836.41	1583.08
836.58	1652.71
836.75	1720.29
836.92	1785.83
837.09	1697.77
837.26	1757.16
837.43	1691.62
837.60	1724.39
837.77	1673.19
837.94	1761.25
838.12	1777.64
838.29	1705.96
838.46	1628.14
838.63	1609.70
838.80	1781.73
838.97	1740.77
839.14	1710.05
839.31	1681.38
839.48	1695.72
839.65	1705.96
839.82	1763.30
839.99	1771.49
840.16	1691.62
840.33	1654.76
840.50	1736.68
840.67	1746.92
840.84	1624.04
841.01	1693.67
841.18	1636.33
841.35	1705.96
841.52	1742.82
841.69	1781.73
841.86	1710.05
842.03	1736.68
842.20	1791.97
842.37	1669.09
842.54	1746.92
842.71	1681.38
842.88	1681.38
843.05	1806.31
843.22	1695.72
843.39	1783.78
843.56	1677.29
843.73	1708.01
843.90	1759.21
844.07	1734.63
844.24	1820.64
844.41	1736.68
844.58	1665.00
844.75	1701.86
844.92	1691.62
845.09	1716.20
845.26	1697.77
845.43	1808.36
845.60	1695.72
845.77	1759.21
845.94	1712.10
846.10	1791.97
846.27	1615.85
846.44	1683.43
846.61	1716.20
846.78	1714.15
846.95	1757.16
847.12	1695.72
847.29	1640.42
847.46	1693.67
847.63	1761.25
847.80	1728.49
847.97	1736.68
848.14	1822.69
848.31	1730.53
848.48	1648.61
848.65	1734.63
848.82	1687.53
848.98	1880.04
849.15	1726.44
849.32	1703.91
849.49	1757.16
849.66	1726.44
849.83	1759.21
850.00	1669.09
850.17	1771.49
850.34	1714.15
850.51	1710.05
850.68	1695.72
850.85	1828.84
851.01	1775.59
851.18	1695.72
851.35	1712.10
851.52	1712.10
851.69	1769.44
851.86	1626.09
852.03	1763.30
852.20	1718.25
852.37	1720.29
852.53	1636.33
852.70	1740.77
852.87	1740.77
853.04	1726.44
853.21	1656.81
853.38	1748.97
853.55	1847.27
853.72	1779.68
853.89	1714.15
854.05	1677.29
854.22	1691.62
854.39	1665.00
854.56	1714.15
854.73	1837.03
854.90	1558.50
855.07	1714.15
855.23	1650.66
855.40	1683.43
855.57	1658.85
855.74	1576.94
855.91	1927.14
856.08	1585.13
856.25	1621.99
856.41	1644.52
856.58	1746.92
856.75	1751.01
856.92	1683.43
857.09	1808.36
857.26	1605.61
857.42	1621.99
857.59	1740.77
857.76	1656.81
857.93	1687.53
858.10	1822.69
858.27	1640.42
858.43	1679.33
858.60	1640.42
858.77	1701.86
858.94	1691.62
859.11	1726.44
859.27	1697.77
859.44	1656.81
859.61	1867.75
859.78	1658.85
859.95	1671.14
860.12	1677.29
860.28	1920.99
860.45	1824.74
860.62	1662.95
860.79	1726.44
860.95	1619.94
861.12	1626.09
861.29	1665.00
861.46	1628.14
861.63	1615.85
861.79	1683.43
861.96	1677.29
862.13	1789.92
862.30	1763.30
862.47	1722.34
862.63	1714.15
862.80	1777.64
862.97	1748.97
863.14	1708.01
863.30	1683.43
863.47	1718.25
863.64	1804.26
863.81	1703.91
863.97	1751.01
864.14	1738.73
864.31	1634.28
864.48	1779.68
864.65	1675.24
864.81	1708.01
864.98	1767.40
865.15	1785.83
865.32	1769.44
865.48	1734.63
865.65	1828.84
865.82	1667.05
865.98	1830.88
866.15	1740.77
866.32	1720.29
866.49	1685.48
866.65	1761.25
866.82	1624.04
866.99	1621.99
867.16	1677.29
867.32	1621.99
867.49	1638.38
867.66	1734.63
867.83	1650.66
867.99	1595.37
868.16	1714.15
868.33	1640.42
868.49	1738.73
868.66	1732.58
868.83	1738.73
868.99	1691.62
869.16	1718.25
869.33	1816.55
869.50	1755.11
869.66	1685.48
869.83	1732.58
870.00	1634.28
870.16	1763.30
870.33	1783.78
870.50	1720.29
870.66	1720.29
870.83	1841.12
871.00	1714.15
871.17	1755.11
871.33	1814.50
871.50	1712.10
871.67	1703.91
871.83	1769.44
872.00	1816.55
872.17	1695.72
872.33	1822.69
872.50	1726.44
872.67	1693.67
872.83	1730.53
873.00	1667.05
873.17	1744.87
873.33	1748.97
873.50	1763.30
873.67	1650.66
873.83	1722.34
874.00	1679.33
874.16	1761.25
874.33	1736.68
874.50	1701.86
874.66	1677.29
874.83	1746.92
875.00	1755.11
875.16	1812.45
875.33	1716.20
875.50	1656.81
875.66	1712.10
875.83	1691.62
875.99	1796.07
876.16	1716.20
876.33	1652.71
876.49	1693.67
876.66	1708.01
876.83	1671.14
876.99	1611.75
877.16	1710.05
877.32	1687.53
877.49	1697.77
877.66	1665.00
877.82	1830.88
877.99	1724.39
878.15	1734.63
878.32	1763.30
878.49	1751.01
878.65	1650.66
878.82	1820.64
878.98	1748.97
879.15	1759.21
879.32	1771.49
879.48	1728.49
879.65	1761.25
879.81	1703.91
879.98	1673.19
880.15	1708.01
880.31	1703.91
880.48	1687.53
880.64	1800.16
880.81	1724.39
880.97	1816.55
881.14	1744.87
881.31	1660.90
881.47	1779.68
881.64	1751.01
881.80	1650.66
881.97	1761.25
882.13	1796.07
882.30	1650.66
882.47	1640.42
882.63	1638.38
882.80	1730.53
882.96	1734.63
883.13	1783.78
883.29	1742.82
883.46	1714.15
883.62	1800.16
883.79	1763.30
883.95	1781.73
884.12	1640.42
884.29	1779.68
884.45	1724.39
884.62	1720.29
884.78	1720.29
884.95	1740.77
885.11	1665.00
885.28	1714.15
885.44	1714.15
885.61	1761.25
885.77	1734.63
885.94	1689.57
886.10	1685.48
886.27	1775.59
886.43	1771.49
886.60	1716.20
886.76	1699.81
886.93	1636.33
887.09	1740.77
887.26	1607.66
887.42	1724.39
887.59	1804.26
887.75	1794.02
887.92	1798.12
888.08	1722.34
888.25	1773.54
888.41	1806.31
888.58	1730.53
888.74	1675.24
888.91	1740.77
>>>>>End Processed Spectral Data<<<<<
