SpectraSuite Data File
++++++++++++++++++++++++++++++++++++
Date: Mon Jun 06 12:10:57 CEST 2016
User: root
Dark Spectrum Present: No
Reference Spectrum Present: No
Number of Sampled Component Spectra: 1
Spectrometers: USB4C02835
Integration Time (usec): 100000 (USB4C02835)
Spectra Averaged: 1 (USB4C02835)
Boxcar Smoothing: 0 (USB4C02835)
Correct for Electrical Dark: No (USB4C02835)
Strobe/Lamp Enabled: No (USB4C02835)
Correct for Detector Non-linearity: No (USB4C02835)
Correct for Stray Light: No (USB4C02835)
Number of Pixels in Processed Spectrum: 3648
>>>>>Begin Processed Spectral Data<<<<<
177.47	1511.40
177.69	1511.40
177.91	1511.40
178.13	1413.10
178.36	1429.48
178.58	1679.33
178.80	1679.33
179.02	1697.77
179.24	1589.22
179.46	1665.00
179.68	1671.14
179.90	1699.81
180.13	1644.52
180.35	1624.04
180.57	1734.63
180.79	1650.66
181.01	1646.57
181.23	1746.92
181.45	1791.97
181.67	1716.20
181.90	1734.63
182.12	1644.52
182.34	1630.18
182.56	1716.20
182.78	1753.06
183.00	1626.09
183.22	1691.62
183.44	1564.65
183.66	1771.49
183.89	1783.78
184.11	1683.43
184.33	1722.34
184.55	1763.30
184.77	1697.77
184.99	1697.77
185.21	1613.80
185.43	1728.49
185.65	1695.72
185.87	1636.33
186.10	1873.89
186.32	1814.50
186.54	1660.90
186.76	1714.15
186.98	1732.58
187.20	1701.86
187.42	1683.43
187.64	1710.05
187.86	1660.90
188.08	1746.92
188.30	1611.75
188.52	1708.01
188.75	1781.73
188.97	1738.73
189.19	1591.27
189.41	1693.67
189.63	1642.47
189.85	1716.20
190.07	1667.05
190.29	1591.27
190.51	1712.10
190.73	1656.81
190.95	1810.40
191.17	1716.20
191.39	1531.88
191.61	1708.01
191.84	1681.38
192.06	1689.57
192.28	1576.94
192.50	1877.99
192.72	1716.20
192.94	1710.05
193.16	1779.68
193.38	1681.38
193.60	1683.43
193.82	1671.14
194.04	1714.15
194.26	1720.29
194.48	1730.53
194.70	1650.66
194.92	1658.85
195.14	1652.71
195.36	1609.70
195.58	1800.16
195.80	1671.14
196.02	1677.29
196.24	1669.09
196.46	1812.45
196.69	1695.72
196.91	1849.32
197.13	1658.85
197.35	1658.85
197.57	1843.17
197.79	1716.20
198.01	1732.58
198.23	1783.78
198.45	1718.25
198.67	1665.00
198.89	1736.68
199.11	1638.38
199.33	1695.72
199.55	1556.46
199.77	1744.87
199.99	1742.82
200.21	1734.63
200.43	1701.86
200.65	1626.09
200.87	1593.32
201.09	1691.62
201.31	1642.47
201.53	1726.44
201.75	1697.77
201.97	1685.48
202.19	1746.92
202.41	1714.15
202.63	1800.16
202.85	1751.01
203.07	1705.96
203.29	1738.73
203.51	1609.70
203.73	1597.42
203.95	1914.85
204.17	1736.68
204.39	1675.24
204.61	1773.54
204.83	1632.23
205.05	1720.29
205.27	1728.49
205.49	1808.36
205.71	1726.44
205.93	1652.71
206.15	1708.01
206.37	1685.48
206.59	1675.24
206.81	1673.19
207.03	1656.81
207.25	1613.80
207.47	1728.49
207.69	1665.00
207.91	1769.44
208.13	1757.16
208.34	1632.23
208.56	1583.08
208.78	1708.01
209.00	1671.14
209.22	1683.43
209.44	1701.86
209.66	1665.00
209.88	1697.77
210.10	1621.99
210.32	1642.47
210.54	1798.12
210.76	1634.28
210.98	1736.68
211.20	1566.70
211.42	1705.96
211.64	1718.25
211.86	1804.26
212.08	1705.96
212.30	1681.38
212.52	1667.05
212.74	1724.39
212.96	1763.30
213.17	1765.35
213.39	1732.58
213.61	1740.77
213.83	1748.97
214.05	1574.89
214.27	1712.10
214.49	1693.67
214.71	1687.53
214.93	1681.38
215.15	1720.29
215.37	1699.81
215.59	1615.85
215.81	1628.14
216.03	1732.58
216.24	1701.86
216.46	1667.05
216.68	1701.86
216.90	1685.48
217.12	1705.96
217.34	1685.48
217.56	1671.14
217.78	1787.88
218.00	1779.68
218.22	1673.19
218.44	1660.90
218.66	1742.82
218.87	1675.24
219.09	1658.85
219.31	1699.81
219.53	1769.44
219.75	1628.14
219.97	1712.10
220.19	1646.57
220.41	1679.33
220.63	1789.92
220.85	1767.40
221.06	1617.90
221.28	1759.21
221.50	1705.96
221.72	1619.94
221.94	1687.53
222.16	1765.35
222.38	1746.92
222.60	1742.82
222.82	1628.14
223.03	1761.25
223.25	1656.81
223.47	1734.63
223.69	1802.21
223.91	1691.62
224.13	1669.09
224.35	1634.28
224.57	1691.62
224.78	1679.33
225.00	1654.76
225.22	1742.82
225.44	1656.81
225.66	1791.97
225.88	1603.56
226.10	1720.29
226.32	1783.78
226.53	1837.03
226.75	1703.91
226.97	1722.34
227.19	1695.72
227.41	1644.52
227.63	1681.38
227.85	1574.89
228.06	1736.68
228.28	1712.10
228.50	1767.40
228.72	1640.42
228.94	1595.37
229.16	1552.36
229.37	1617.90
229.59	1628.14
229.81	1748.97
230.03	1726.44
230.25	1621.99
230.47	1595.37
230.69	1617.90
230.90	1710.05
231.12	1675.24
231.34	1646.57
231.56	1736.68
231.78	1648.61
232.00	1730.53
232.21	1732.58
232.43	1671.14
232.65	1626.09
232.87	1667.05
233.09	1667.05
233.30	1607.66
233.52	1699.81
233.74	1644.52
233.96	1675.24
234.18	1751.01
234.40	1632.23
234.61	1861.60
234.83	1578.98
235.05	1578.98
235.27	1880.04
235.49	1765.35
235.70	1701.86
235.92	1753.06
236.14	1742.82
236.36	1753.06
236.58	1640.42
236.79	1658.85
237.01	1714.15
237.23	1691.62
237.45	1806.31
237.67	1689.57
237.88	1642.47
238.10	1822.69
238.32	1671.14
238.54	1578.98
238.76	1703.91
238.97	1691.62
239.19	1689.57
239.41	1671.14
239.63	1697.77
239.85	1671.14
240.06	1691.62
240.28	1656.81
240.50	1748.97
240.72	1660.90
240.93	1665.00
241.15	1746.92
241.37	1710.05
241.59	1722.34
241.81	1714.15
242.02	1630.18
242.24	1748.97
242.46	1691.62
242.68	1560.55
242.89	1685.48
243.11	1652.71
243.33	1681.38
243.55	1759.21
243.76	1718.25
243.98	1595.37
244.20	1699.81
244.42	1746.92
244.64	1712.10
244.85	1615.85
245.07	1626.09
245.29	1761.25
245.51	1712.10
245.72	1687.53
245.94	1775.59
246.16	1720.29
246.38	1767.40
246.59	1730.53
246.81	1607.66
247.03	1677.29
247.24	1525.74
247.46	1705.96
247.68	1662.95
247.90	1705.96
248.11	1652.71
248.33	1787.88
248.55	1771.49
248.77	1648.61
248.98	1759.21
249.20	1822.69
249.42	1681.38
249.64	1710.05
249.85	1611.75
250.07	1691.62
250.29	1728.49
250.50	1783.78
250.72	1621.99
250.94	1773.54
251.16	1845.22
251.37	1763.30
251.59	1669.09
251.81	1714.15
252.02	1806.31
252.24	1691.62
252.46	1769.44
252.68	1585.13
252.89	1656.81
253.11	1599.46
253.33	1767.40
253.54	1798.12
253.76	1693.67
253.98	1677.29
254.20	1798.12
254.41	1640.42
254.63	1669.09
254.85	1593.32
255.06	1673.19
255.28	1718.25
255.50	1644.52
255.71	1607.66
255.93	1601.51
256.15	1669.09
256.36	1691.62
256.58	1642.47
256.80	1716.20
257.02	1650.66
257.23	1665.00
257.45	1650.66
257.67	1777.64
257.88	1654.76
258.10	1648.61
258.32	1626.09
258.53	1738.73
258.75	1748.97
258.97	1646.57
259.18	1648.61
259.40	1714.15
259.62	1794.02
259.83	1697.77
260.05	1718.25
260.27	1957.86
260.48	1757.16
260.70	1609.70
260.92	1738.73
261.13	1699.81
261.35	1679.33
261.57	1722.34
261.78	1525.74
262.00	1712.10
262.22	1679.33
262.43	1601.51
262.65	1597.42
262.86	1685.48
263.08	1800.16
263.30	1732.58
263.51	1611.75
263.73	1656.81
263.95	1726.44
264.16	1609.70
264.38	1744.87
264.60	1755.11
264.81	1720.29
265.03	1722.34
265.25	1701.86
265.46	1710.05
265.68	1769.44
265.89	1697.77
266.11	1599.46
266.33	1753.06
266.54	1804.26
266.76	1740.77
266.98	1728.49
267.19	1781.73
267.41	1755.11
267.62	1611.75
267.84	1669.09
268.06	1626.09
268.27	1681.38
268.49	1763.30
268.70	1822.69
268.92	1703.91
269.14	1630.18
269.35	1581.03
269.57	1755.11
269.79	1687.53
270.00	1669.09
270.22	1734.63
270.43	1656.81
270.65	1581.03
270.87	1665.00
271.08	1705.96
271.30	1742.82
271.51	1640.42
271.73	1757.16
271.95	1726.44
272.16	1675.24
272.38	1699.81
272.59	1574.89
272.81	1777.64
273.02	1703.91
273.24	1683.43
273.46	1800.16
273.67	1621.99
273.89	1642.47
274.10	1665.00
274.32	1744.87
274.54	1742.82
274.75	1724.39
274.97	1683.43
275.18	1744.87
275.40	1697.77
275.61	1687.53
275.83	1765.35
276.05	1667.05
276.26	1681.38
276.48	1714.15
276.69	1693.67
276.91	1679.33
277.12	1763.30
277.34	1716.20
277.55	1751.01
277.77	1669.09
277.99	1669.09
278.20	1605.61
278.42	1632.23
278.63	1570.79
278.85	1601.51
279.06	1615.85
279.28	1724.39
279.49	1681.38
279.71	1726.44
279.93	1710.05
280.14	1669.09
280.36	1599.46
280.57	1734.63
280.79	1650.66
281.00	1673.19
281.22	1589.22
281.43	1773.54
281.65	1605.61
281.86	1634.28
282.08	1673.19
282.29	1865.70
282.51	1615.85
282.73	1611.75
282.94	1646.57
283.16	1757.16
283.37	1726.44
283.59	1705.96
283.80	1718.25
284.02	1691.62
284.23	1705.96
284.45	1648.61
284.66	1640.42
284.88	1683.43
285.09	1703.91
285.31	1736.68
285.52	1718.25
285.74	1626.09
285.95	1691.62
286.17	1740.77
286.38	1685.48
286.60	1691.62
286.81	1597.42
287.03	1697.77
287.24	1699.81
287.46	1748.97
287.67	1646.57
287.89	1826.79
288.10	1669.09
288.32	1767.40
288.53	1701.86
288.75	1689.57
288.96	1714.15
289.18	1607.66
289.39	1761.25
289.61	1763.30
289.82	1845.22
290.04	1785.83
290.25	1558.50
290.47	1673.19
290.68	1628.14
290.90	1656.81
291.11	1626.09
291.33	1730.53
291.54	1566.70
291.76	1636.33
291.97	1656.81
292.18	1746.92
292.40	1671.14
292.61	1648.61
292.83	1800.16
293.04	1730.53
293.26	1654.76
293.47	1703.91
293.69	1632.23
293.90	1648.61
294.12	1787.88
294.33	1652.71
294.55	1703.91
294.76	1695.72
294.97	1806.31
295.19	1804.26
295.40	1603.56
295.62	1757.16
295.83	1777.64
296.05	1705.96
296.26	1767.40
296.48	1630.18
296.69	1714.15
296.90	1742.82
297.12	1693.67
297.33	1779.68
297.55	1705.96
297.76	1734.63
297.98	1751.01
298.19	1751.01
298.41	1705.96
298.62	1636.33
298.83	1726.44
299.05	1665.00
299.26	1652.71
299.48	1689.57
299.69	1716.20
299.90	1685.48
300.12	1665.00
300.33	1673.19
300.55	1644.52
300.76	1693.67
300.98	1648.61
301.19	1779.68
301.40	1599.46
301.62	1644.52
301.83	1687.53
302.05	1681.38
302.26	1675.24
302.47	1701.86
302.69	1585.13
302.90	1728.49
303.12	1626.09
303.33	1685.48
303.54	1742.82
303.76	1640.42
303.97	1712.10
304.19	1781.73
304.40	1619.94
304.61	1624.04
304.83	1824.74
305.04	1740.77
305.26	1720.29
305.47	1642.47
305.68	1701.86
305.90	1652.71
306.11	1693.67
306.33	1681.38
306.54	1607.66
306.75	1689.57
306.97	1609.70
307.18	1675.24
307.39	1619.94
307.61	1757.16
307.82	1652.71
308.04	1681.38
308.25	1669.09
308.46	1755.11
308.68	1708.01
308.89	1630.18
309.10	1726.44
309.32	1757.16
309.53	1624.04
309.74	1697.77
309.96	1734.63
310.17	1787.88
310.39	1632.23
310.60	1755.11
310.81	1644.52
311.03	1634.28
311.24	1685.48
311.45	1699.81
311.67	1861.60
311.88	1701.86
312.09	1740.77
312.31	1621.99
312.52	1677.29
312.73	1652.71
312.95	1595.37
313.16	1675.24
313.37	1783.78
313.59	1652.71
313.80	1693.67
314.01	1738.73
314.23	1720.29
314.44	1652.71
314.65	1654.76
314.87	1677.29
315.08	1628.14
315.29	1683.43
315.51	1703.91
315.72	1638.38
315.93	1777.64
316.15	1751.01
316.36	1693.67
316.57	1687.53
316.79	1728.49
317.00	1669.09
317.21	1732.58
317.43	1656.81
317.64	1710.05
317.85	1665.00
318.07	1570.79
318.28	1732.58
318.49	1816.55
318.70	1933.28
318.92	1800.16
319.13	1740.77
319.34	1789.92
319.56	1757.16
319.77	1712.10
319.98	1738.73
320.20	1810.40
320.41	1751.01
320.62	1742.82
320.83	1660.90
321.05	1814.50
321.26	1662.95
321.47	1621.99
321.69	1738.73
321.90	1650.66
322.11	1628.14
322.32	1697.77
322.54	1765.35
322.75	1609.70
322.96	1843.17
323.18	1624.04
323.39	1570.79
323.60	1607.66
323.81	1722.34
324.03	1693.67
324.24	1755.11
324.45	1693.67
324.66	1710.05
324.88	1722.34
325.09	1808.36
325.30	1683.43
325.52	1738.73
325.73	1701.86
325.94	1591.27
326.15	1669.09
326.37	1624.04
326.58	1763.30
326.79	1724.39
327.00	1626.09
327.22	1652.71
327.43	1675.24
327.64	1554.41
327.85	1748.97
328.07	1640.42
328.28	1806.31
328.49	1673.19
328.70	1677.29
328.92	1699.81
329.13	1673.19
329.34	1755.11
329.55	1777.64
329.76	1783.78
329.98	1730.53
330.19	1767.40
330.40	1675.24
330.61	1699.81
330.83	1728.49
331.04	1656.81
331.25	1621.99
331.46	1640.42
331.68	1634.28
331.89	1771.49
332.10	1689.57
332.31	1601.51
332.52	1714.15
332.74	1744.87
332.95	1646.57
333.16	1660.90
333.37	1716.20
333.58	1677.29
333.80	1714.15
334.01	1617.90
334.22	1679.33
334.43	1624.04
334.64	1691.62
334.86	1574.89
335.07	1619.94
335.28	1789.92
335.49	1714.15
335.70	1714.15
335.92	1824.74
336.13	1851.36
336.34	1716.20
336.55	1714.15
336.76	1605.61
336.98	1642.47
337.19	1681.38
337.40	1734.63
337.61	1851.36
337.82	1601.51
338.04	1755.11
338.25	1628.14
338.46	1656.81
338.67	1712.10
338.88	1656.81
339.09	1624.04
339.31	1581.03
339.52	1605.61
339.73	1630.18
339.94	1699.81
340.15	1751.01
340.36	1624.04
340.58	1677.29
340.79	1615.85
341.00	1697.77
341.21	1648.61
341.42	1777.64
341.63	1642.47
341.85	1671.14
342.06	1705.96
342.27	1624.04
342.48	1667.05
342.69	1603.56
342.90	1681.38
343.12	1763.30
343.33	1658.85
343.54	1771.49
343.75	1738.73
343.96	1671.14
344.17	1640.42
344.38	1736.68
344.60	1675.24
344.81	1669.09
345.02	1697.77
345.23	1697.77
345.44	1800.16
345.65	1697.77
345.86	1630.18
346.07	1660.90
346.29	1621.99
346.50	1722.34
346.71	1714.15
346.92	1796.07
347.13	1818.60
347.34	1685.48
347.55	1658.85
347.76	1775.59
347.98	1574.89
348.19	1671.14
348.40	1761.25
348.61	1640.42
348.82	1771.49
349.03	1705.96
349.24	1671.14
349.45	1785.83
349.66	1576.94
349.88	1703.91
350.09	1671.14
350.30	1714.15
350.51	1789.92
350.72	1710.05
350.93	1673.19
351.14	1640.42
351.35	1757.16
351.56	1652.71
351.77	1712.10
351.99	1720.29
352.20	1732.58
352.41	1736.68
352.62	1626.09
352.83	1699.81
353.04	1712.10
353.25	1679.33
353.46	1808.36
353.67	1744.87
353.88	1617.90
354.09	1748.97
354.30	1701.86
354.52	1689.57
354.73	1675.24
354.94	1705.96
355.15	1687.53
355.36	1775.59
355.57	1548.26
355.78	1675.24
355.99	1646.57
356.20	1605.61
356.41	1830.88
356.62	1660.90
356.83	1730.53
357.04	1742.82
357.25	1617.90
357.46	1732.58
357.68	1642.47
357.89	1632.23
358.10	1699.81
358.31	1671.14
358.52	1691.62
358.73	1724.39
358.94	1621.99
359.15	1683.43
359.36	1708.01
359.57	1640.42
359.78	1705.96
359.99	1724.39
360.20	1632.23
360.41	1634.28
360.62	1724.39
360.83	1710.05
361.04	1654.76
361.25	1665.00
361.46	1828.84
361.67	1665.00
361.88	1742.82
362.09	1671.14
362.30	1665.00
362.51	1701.86
362.72	1693.67
362.93	1736.68
363.14	1710.05
363.35	1771.49
363.56	1630.18
363.78	1746.92
363.99	1765.35
364.20	1695.72
364.41	1730.53
364.62	1859.56
364.83	1722.34
365.04	1728.49
365.25	1683.43
365.46	1808.36
365.67	1632.23
365.88	1656.81
366.09	1583.08
366.30	1669.09
366.51	1701.86
366.72	1562.60
366.93	1695.72
367.14	1691.62
367.35	1841.12
367.56	1736.68
367.77	1734.63
367.98	1617.90
368.18	1771.49
368.39	1755.11
368.60	1601.51
368.81	1794.02
369.02	1722.34
369.23	1730.53
369.44	1632.23
369.65	1679.33
369.86	1689.57
370.07	1767.40
370.28	1683.43
370.49	1665.00
370.70	1759.21
370.91	1662.95
371.12	1724.39
371.33	1732.58
371.54	1681.38
371.75	1796.07
371.96	1601.51
372.17	1695.72
372.38	1621.99
372.59	1775.59
372.80	1724.39
373.01	1683.43
373.22	1716.20
373.43	1662.95
373.64	1568.74
373.85	1722.34
374.06	1699.81
374.26	1681.38
374.47	1691.62
374.68	1775.59
374.89	1650.66
375.10	1669.09
375.31	1753.06
375.52	1638.38
375.73	1630.18
375.94	1595.37
376.15	1775.59
376.36	1665.00
376.57	1671.14
376.78	1595.37
376.99	1740.77
377.20	1689.57
377.40	1705.96
377.61	1767.40
377.82	1599.46
378.03	1742.82
378.24	1693.67
378.45	1626.09
378.66	1687.53
378.87	1624.04
379.08	1566.70
379.29	1808.36
379.50	1779.68
379.71	1656.81
379.91	1744.87
380.12	1730.53
380.33	1644.52
380.54	1677.29
380.75	1667.05
380.96	1748.97
381.17	1732.58
381.38	1726.44
381.59	1716.20
381.80	1734.63
382.00	1869.80
382.21	1734.63
382.42	1789.92
382.63	1769.44
382.84	1703.91
383.05	1775.59
383.26	1775.59
383.47	1677.29
383.68	1724.39
383.88	1728.49
384.09	1656.81
384.30	1814.50
384.51	1667.05
384.72	1654.76
384.93	1644.52
385.14	1710.05
385.35	1710.05
385.55	1714.15
385.76	1746.92
385.97	1677.29
386.18	1646.57
386.39	1650.66
386.60	1720.29
386.81	1701.86
387.02	1660.90
387.22	1681.38
387.43	1755.11
387.64	1710.05
387.85	1837.03
388.06	2187.23
388.27	4370.37
388.48	7018.39
388.68	8566.65
388.89	10258.28
389.10	10227.56
389.31	9115.51
389.52	7899.02
389.73	6887.32
389.93	6453.15
390.14	6000.55
390.35	5365.68
390.56	4689.85
390.77	3848.13
390.98	3157.97
391.18	2553.82
391.39	2115.55
391.60	1886.18
391.81	1843.17
392.02	1705.96
392.23	1726.44
392.43	1787.88
392.64	1777.64
392.85	1691.62
393.06	1765.35
393.27	1697.77
393.47	1693.67
393.68	1697.77
393.89	1685.48
394.10	1810.40
394.31	1619.94
394.52	1718.25
394.72	1642.47
394.93	1828.84
395.14	1636.33
395.35	1765.35
395.56	1689.57
395.76	1730.53
395.97	1746.92
396.18	1837.03
396.39	1808.36
396.60	2009.06
396.80	1894.37
397.01	1877.99
397.22	1865.70
397.43	1810.40
397.64	1656.81
397.84	1718.25
398.05	1814.50
398.26	1689.57
398.47	1865.70
398.67	1761.25
398.88	1734.63
399.09	1759.21
399.30	1665.00
399.51	1716.20
399.71	1630.18
399.92	1689.57
400.13	1679.33
400.34	1632.23
400.54	1605.61
400.75	1853.41
400.96	1701.86
401.17	1869.80
401.37	1781.73
401.58	1677.29
401.79	1755.11
402.00	1828.84
402.21	1984.48
402.41	1947.62
402.62	2013.15
402.83	1978.34
403.04	1996.77
403.24	2029.54
403.45	1865.70
403.66	1820.64
403.87	1900.52
404.07	1916.90
404.28	1857.51
404.49	1826.79
404.70	1740.77
404.90	1687.53
405.11	1751.01
405.32	1771.49
405.52	1671.14
405.73	1669.09
405.94	1681.38
406.15	1642.47
406.35	1744.87
406.56	1773.54
406.77	1746.92
406.98	1736.68
407.18	1640.42
407.39	1781.73
407.60	1718.25
407.80	1705.96
408.01	1691.62
408.22	1710.05
408.43	1634.28
408.63	1724.39
408.84	1648.61
409.05	1765.35
409.25	1611.75
409.46	1621.99
409.67	1667.05
409.88	1626.09
410.08	1697.77
410.29	1716.20
410.50	1714.15
410.70	1742.82
410.91	1677.29
411.12	1744.87
411.32	1699.81
411.53	1716.20
411.74	1763.30
411.95	1742.82
412.15	1728.49
412.36	1779.68
412.57	1701.86
412.77	1757.16
412.98	1652.71
413.19	1695.72
413.39	1759.21
413.60	1720.29
413.81	1746.92
414.01	1671.14
414.22	1716.20
414.43	1777.64
414.63	1681.38
414.84	1708.01
415.05	1773.54
415.25	1634.28
415.46	1716.20
415.67	1642.47
415.87	1685.48
416.08	1701.86
416.29	1691.62
416.49	1728.49
416.70	1728.49
416.91	1652.71
417.11	1662.95
417.32	1722.34
417.53	1763.30
417.73	1746.92
417.94	1656.81
418.15	1679.33
418.35	1689.57
418.56	1794.02
418.77	1822.69
418.97	1685.48
419.18	1648.61
419.38	1607.66
419.59	1632.23
419.80	1832.93
420.00	1708.01
420.21	1673.19
420.42	1785.83
420.62	1761.25
420.83	1605.61
421.04	1705.96
421.24	1634.28
421.45	1773.54
421.65	1708.01
421.86	1624.04
422.07	1675.24
422.27	1724.39
422.48	1759.21
422.69	1632.23
422.89	1675.24
423.10	1677.29
423.30	1656.81
423.51	1732.58
423.72	1714.15
423.92	1701.86
424.13	1650.66
424.33	1724.39
424.54	1718.25
424.75	1757.16
424.95	1818.60
425.16	1759.21
425.36	1697.77
425.57	1691.62
425.78	1775.59
425.98	1759.21
426.19	1533.93
426.39	1607.66
426.60	1757.16
426.81	1828.84
427.01	1677.29
427.22	1681.38
427.42	1628.14
427.63	1685.48
427.83	1687.53
428.04	1767.40
428.25	1742.82
428.45	1718.25
428.66	1708.01
428.86	1693.67
429.07	1656.81
429.28	1665.00
429.48	1615.85
429.69	1671.14
429.89	1695.72
430.10	1560.55
430.30	1787.88
430.51	1714.15
430.71	1626.09
430.92	1724.39
431.13	1673.19
431.33	1746.92
431.54	1771.49
431.74	1720.29
431.95	1791.97
432.15	1636.33
432.36	1628.14
432.56	1804.26
432.77	1779.68
432.98	1853.41
433.18	1699.81
433.39	1705.96
433.59	1726.44
433.80	1759.21
434.00	1865.70
434.21	1701.86
434.41	1691.62
434.62	1753.06
434.82	1621.99
435.03	1621.99
435.23	1763.30
435.44	1658.85
435.64	1673.19
435.85	1701.86
436.06	1732.58
436.26	1847.27
436.47	1673.19
436.67	1693.67
436.88	1705.96
437.08	1767.40
437.29	1783.78
437.49	1742.82
437.70	1753.06
437.90	1695.72
438.11	1808.36
438.31	1757.16
438.52	1902.56
438.72	1859.56
438.93	1884.13
439.13	1818.60
439.34	1781.73
439.54	1703.91
439.75	1746.92
439.95	1771.49
440.16	1710.05
440.36	1708.01
440.57	1777.64
440.77	1746.92
440.98	1689.57
441.18	1681.38
441.39	1693.67
441.59	1722.34
441.80	1785.83
442.00	1720.29
442.21	1826.79
442.41	1673.19
442.62	1697.77
442.82	1679.33
443.02	1673.19
443.23	1689.57
443.43	1679.33
443.64	1769.44
443.84	1701.86
444.05	1849.32
444.25	1738.73
444.46	1687.53
444.66	1738.73
444.87	1830.88
445.07	1693.67
445.28	1708.01
445.48	1759.21
445.69	1724.39
445.89	1916.90
446.09	1683.43
446.30	2041.82
446.50	2572.25
446.71	3780.55
446.91	4616.12
447.12	5031.86
447.32	4949.94
447.53	4474.81
447.73	3882.95
447.93	3557.32
448.14	3422.16
448.34	3190.74
448.55	2985.94
448.75	2899.92
448.96	2746.33
449.16	2469.85
449.36	2240.48
449.57	2017.25
449.77	1892.32
449.98	1806.31
450.18	1845.22
450.39	1843.17
450.59	1716.20
450.79	1742.82
451.00	1689.57
451.20	1759.21
451.41	1697.77
451.61	1755.11
451.81	1746.92
452.02	1726.44
452.22	1665.00
452.43	1681.38
452.63	1681.38
452.84	1705.96
453.04	1683.43
453.24	1724.39
453.45	1699.81
453.65	1775.59
453.86	1789.92
454.06	1751.01
454.26	1665.00
454.47	1724.39
454.67	1773.54
454.87	1806.31
455.08	1697.77
455.28	1775.59
455.49	1763.30
455.69	1701.86
455.89	1837.03
456.10	1755.11
456.30	1720.29
456.51	1736.68
456.71	1765.35
456.91	1718.25
457.12	1767.40
457.32	1728.49
457.52	1662.95
457.73	1810.40
457.93	1802.21
458.14	1615.85
458.34	1681.38
458.54	1757.16
458.75	1662.95
458.95	1849.32
459.15	1722.34
459.36	1734.63
459.56	1753.06
459.76	1814.50
459.97	1763.30
460.17	1621.99
460.37	1828.84
460.58	1660.90
460.78	1773.54
460.99	1714.15
461.19	1787.88
461.39	1728.49
461.60	1654.76
461.80	1767.40
462.00	1691.62
462.21	1746.92
462.41	1779.68
462.61	1693.67
462.82	1617.90
463.02	1734.63
463.22	1703.91
463.43	1798.12
463.63	1744.87
463.83	1810.40
464.04	1759.21
464.24	1771.49
464.44	1693.67
464.64	1660.90
464.85	1818.60
465.05	1746.92
465.25	1701.86
465.46	1734.63
465.66	1714.15
465.86	1730.53
466.07	1683.43
466.27	1781.73
466.47	1617.90
466.68	1710.05
466.88	1855.46
467.08	1728.49
467.29	1689.57
467.49	1697.77
467.69	1771.49
467.89	1785.83
468.10	1667.05
468.30	1705.96
468.50	1791.97
468.71	1753.06
468.91	1626.09
469.11	1751.01
469.31	1736.68
469.52	1689.57
469.72	1841.12
469.92	1890.28
470.13	1742.82
470.33	1736.68
470.53	1812.45
470.73	2029.54
470.94	2402.27
471.14	2439.13
471.34	2486.23
471.54	2410.46
471.75	2185.18
471.95	2189.28
472.15	2101.22
472.36	2090.98
472.56	2095.07
472.76	2082.78
472.96	2078.69
473.17	1943.52
473.37	1912.80
473.57	1759.21
473.77	1826.79
473.98	1685.48
474.18	1574.89
474.38	1892.32
474.58	1640.42
474.79	1691.62
474.99	1783.78
475.19	1808.36
475.39	1665.00
475.60	1730.53
475.80	1705.96
476.00	1730.53
476.20	1738.73
476.41	1791.97
476.61	1830.88
476.81	1744.87
477.01	1630.18
477.21	1861.60
477.42	1837.03
477.62	1673.19
477.82	1734.63
478.02	1724.39
478.23	1755.11
478.43	1624.04
478.63	1687.53
478.83	1669.09
479.03	1746.92
479.24	1753.06
479.44	1841.12
479.64	1650.66
479.84	1540.07
480.04	1605.61
480.25	1816.55
480.45	1697.77
480.65	1730.53
480.85	1853.41
481.06	1607.66
481.26	1697.77
481.46	1738.73
481.66	1724.39
481.86	1640.42
482.06	1726.44
482.27	1660.90
482.47	1677.29
482.67	1738.73
482.87	1607.66
483.07	1771.49
483.28	1615.85
483.48	1658.85
483.68	1738.73
483.88	1665.00
484.08	1673.19
484.29	1595.37
484.49	1656.81
484.69	1650.66
484.89	1748.97
485.09	1777.64
485.29	1779.68
485.50	1732.58
485.70	1718.25
485.90	1785.83
486.10	1691.62
486.30	1730.53
486.50	1791.97
486.71	1742.82
486.91	1765.35
487.11	1783.78
487.31	1628.14
487.51	1765.35
487.71	1669.09
487.91	1634.28
488.12	1673.19
488.32	1527.78
488.52	1693.67
488.72	1636.33
488.92	1746.92
489.12	1806.31
489.32	1693.67
489.53	1726.44
489.73	1681.38
489.93	1693.67
490.13	1705.96
490.33	1595.37
490.53	1753.06
490.73	1812.45
490.94	1667.05
491.14	1755.11
491.34	1863.65
491.54	2140.13
491.74	2592.73
491.94	2934.74
492.14	3045.33
492.34	3057.62
492.54	2840.53
492.75	2537.43
492.95	2469.85
493.15	2410.46
493.35	2308.06
493.55	2289.63
493.75	2119.65
493.95	2123.74
494.15	1933.28
494.35	1892.32
494.56	1832.93
494.76	1816.55
494.96	1742.82
495.16	1712.10
495.36	1710.05
495.56	1796.07
495.76	1705.96
495.96	1679.33
496.16	1693.67
496.36	1808.36
496.56	1683.43
496.77	1716.20
496.97	1671.14
497.17	1755.11
497.37	1605.61
497.57	1755.11
497.77	1644.52
497.97	1705.96
498.17	1691.62
498.37	1718.25
498.57	1734.63
498.77	1748.97
498.97	1814.50
499.17	1740.77
499.38	1701.86
499.58	1742.82
499.78	1689.57
499.98	1691.62
500.18	1724.39
500.38	1609.70
500.58	1986.53
500.78	2500.57
500.98	4628.41
501.18	6055.84
501.38	6991.77
501.58	7360.40
501.78	6920.09
501.98	5699.50
502.18	4976.56
502.38	4364.22
502.58	4218.82
502.78	3893.19
502.98	3749.83
503.18	3518.41
503.38	3217.36
503.59	2865.11
503.79	2660.31
503.99	2545.63
504.19	2306.01
504.39	2197.47
504.59	2140.13
504.79	2004.96
504.99	2097.12
505.19	1927.14
505.39	1849.32
505.59	1947.62
505.79	1857.51
505.99	1849.32
506.19	1738.73
506.39	1947.62
506.59	1665.00
506.79	1775.59
506.99	1869.80
507.19	1701.86
507.39	1687.53
507.59	1615.85
507.79	1736.68
507.99	1646.57
508.19	1714.15
508.39	1648.61
508.59	1689.57
508.79	1787.88
508.99	1853.41
509.19	1691.62
509.39	1816.55
509.59	1640.42
509.79	1736.68
509.99	1705.96
510.19	1796.07
510.39	1798.12
510.59	1798.12
510.79	1691.62
510.99	1673.19
511.19	1701.86
511.39	1828.84
511.59	1738.73
511.79	1783.78
511.99	1656.81
512.19	1794.02
512.38	1736.68
512.58	1759.21
512.78	1732.58
512.98	1796.07
513.18	1763.30
513.38	1691.62
513.58	1740.77
513.78	1710.05
513.98	1689.57
514.18	1617.90
514.38	1644.52
514.58	1816.55
514.78	1720.29
514.98	1693.67
515.18	1673.19
515.38	1611.75
515.58	1806.31
515.78	1662.95
515.98	1722.34
516.18	1642.47
516.38	1751.01
516.57	1712.10
516.77	1679.33
516.97	1705.96
517.17	1697.77
517.37	1662.95
517.57	1773.54
517.77	1703.91
517.97	1656.81
518.17	1748.97
518.37	1638.38
518.57	1697.77
518.77	1673.19
518.97	1689.57
519.16	1730.53
519.36	1816.55
519.56	1648.61
519.76	1708.01
519.96	1656.81
520.16	1847.27
520.36	1671.14
520.56	1849.32
520.76	1744.87
520.96	1701.86
521.16	1871.84
521.35	1734.63
521.55	1828.84
521.75	1761.25
521.95	1652.71
522.15	1710.05
522.35	1605.61
522.55	1626.09
522.75	1757.16
522.95	1753.06
523.14	1652.71
523.34	1636.33
523.54	1679.33
523.74	1759.21
523.94	1640.42
524.14	1632.23
524.34	1742.82
524.54	1796.07
524.73	1689.57
524.93	1775.59
525.13	1744.87
525.33	1570.79
525.53	1978.34
525.73	1865.70
525.93	1765.35
526.13	1740.77
526.32	1773.54
526.52	1783.78
526.72	1837.03
526.92	1656.81
527.12	1578.98
527.32	1615.85
527.52	1726.44
527.71	1683.43
527.91	1685.48
528.11	1689.57
528.31	1667.05
528.51	1632.23
528.71	1800.16
528.90	1777.64
529.10	1763.30
529.30	1763.30
529.50	1665.00
529.70	1703.91
529.90	1640.42
530.09	1730.53
530.29	1613.80
530.49	1646.57
530.69	1884.13
530.89	1736.68
531.09	1671.14
531.28	1673.19
531.48	1722.34
531.68	1675.24
531.88	1814.50
532.08	1773.54
532.28	1669.09
532.47	1785.83
532.67	1865.70
532.87	1724.39
533.07	1665.00
533.27	1783.78
533.46	1820.64
533.66	1781.73
533.86	1751.01
534.06	1765.35
534.26	1716.20
534.45	1724.39
534.65	1724.39
534.85	1722.34
535.05	1763.30
535.25	1755.11
535.44	1585.13
535.64	1730.53
535.84	1734.63
536.04	1720.29
536.24	1722.34
536.43	1597.42
536.63	1755.11
536.83	1734.63
537.03	1681.38
537.22	1619.94
537.42	1556.46
537.62	1765.35
537.82	1689.57
538.02	1822.69
538.21	1722.34
538.41	1851.36
538.61	1621.99
538.81	1722.34
539.00	1759.21
539.20	1689.57
539.40	1736.68
539.60	1759.21
539.79	1720.29
539.99	1675.24
540.19	1751.01
540.39	1720.29
540.58	1736.68
540.78	1767.40
540.98	1751.01
541.18	1775.59
541.37	1791.97
541.57	1701.86
541.77	1767.40
541.97	1726.44
542.16	1681.38
542.36	1716.20
542.56	1775.59
542.76	1929.19
542.95	1757.16
543.15	1744.87
543.35	1802.21
543.54	1650.66
543.74	1652.71
543.94	1716.20
544.14	1665.00
544.33	1820.64
544.53	1691.62
544.73	1693.67
544.93	1814.50
545.12	1716.20
545.32	1714.15
545.52	1689.57
545.71	1650.66
545.91	1681.38
546.11	1732.58
546.30	1669.09
546.50	1677.29
546.70	1730.53
546.90	1755.11
547.09	1648.61
547.29	1730.53
547.49	1794.02
547.68	1624.04
547.88	1650.66
548.08	1683.43
548.27	2176.99
548.47	1638.38
548.67	1710.05
548.87	1699.81
549.06	1740.77
549.26	1728.49
549.46	1740.77
549.65	1726.44
549.85	1759.21
550.05	1779.68
550.24	1701.86
550.44	1658.85
550.64	1732.58
550.83	1755.11
551.03	1822.69
551.23	1736.68
551.42	1804.26
551.62	1726.44
551.82	1730.53
552.01	1755.11
552.21	1763.30
552.41	1767.40
552.60	1783.78
552.80	1730.53
553.00	1777.64
553.19	1683.43
553.39	1787.88
553.59	1650.66
553.78	1753.06
553.98	1779.68
554.17	1677.29
554.37	1687.53
554.57	1777.64
554.76	1576.94
554.96	1697.77
555.16	1712.10
555.35	1767.40
555.55	1734.63
555.75	1828.84
555.94	1832.93
556.14	1652.71
556.33	1781.73
556.53	1832.93
556.73	1728.49
556.92	1820.64
557.12	1775.59
557.32	1787.88
557.51	1744.87
557.71	1746.92
557.90	1800.16
558.10	1765.35
558.30	1714.15
558.49	1757.16
558.69	1740.77
558.88	1710.05
559.08	1728.49
559.28	1689.57
559.47	1742.82
559.67	1769.44
559.86	1828.84
560.06	1699.81
560.26	1722.34
560.45	1736.68
560.65	1722.34
560.84	1748.97
561.04	1697.77
561.24	1767.40
561.43	1638.38
561.63	1787.88
561.82	1673.19
562.02	1701.86
562.22	1714.15
562.41	1675.24
562.61	1710.05
562.80	1656.81
563.00	1841.12
563.19	1742.82
563.39	1742.82
563.59	1789.92
563.78	1665.00
563.98	1669.09
564.17	1671.14
564.37	1650.66
564.56	1703.91
564.76	1679.33
564.96	1763.30
565.15	1673.19
565.35	1791.97
565.54	1705.96
565.74	1755.11
565.93	1728.49
566.13	1734.63
566.32	1724.39
566.52	1802.21
566.71	1703.91
566.91	1820.64
567.11	1755.11
567.30	1673.19
567.50	1849.32
567.69	1775.59
567.89	1703.91
568.08	1687.53
568.28	1738.73
568.47	1675.24
568.67	1679.33
568.86	1753.06
569.06	1767.40
569.25	1736.68
569.45	1656.81
569.64	1714.15
569.84	1789.92
570.04	1818.60
570.23	1730.53
570.43	1761.25
570.62	1767.40
570.82	1802.21
571.01	1656.81
571.21	1736.68
571.40	1605.61
571.60	1820.64
571.79	1785.83
571.99	1658.85
572.18	1650.66
572.38	1804.26
572.57	1720.29
572.77	1804.26
572.96	1931.23
573.16	1773.54
573.35	1636.33
573.55	1814.50
573.74	1740.77
573.94	1671.14
574.13	1693.67
574.33	1722.34
574.52	1830.88
574.71	1783.78
574.91	1794.02
575.10	1585.13
575.30	1718.25
575.49	1652.71
575.69	1691.62
575.88	1710.05
576.08	1736.68
576.27	1798.12
576.47	1730.53
576.66	1689.57
576.86	1880.04
577.05	1757.16
577.25	1771.49
577.44	1882.08
577.64	1677.29
577.83	1804.26
578.02	1703.91
578.22	1767.40
578.41	1820.64
578.61	1701.86
578.80	1691.62
579.00	1767.40
579.19	1660.90
579.39	1769.44
579.58	1787.88
579.77	1757.16
579.97	1845.22
580.16	1888.23
580.36	1732.58
580.55	1761.25
580.75	1755.11
580.94	1787.88
581.13	1839.08
581.33	1839.08
581.52	1730.53
581.72	1869.80
581.91	1828.84
582.11	1732.58
582.30	1777.64
582.49	1751.01
582.69	1818.60
582.88	1730.53
583.08	1761.25
583.27	1812.45
583.47	1722.34
583.66	1726.44
583.85	1650.66
584.05	1718.25
584.24	1769.44
584.44	1816.55
584.63	1830.88
584.82	1791.97
585.02	1837.03
585.21	1814.50
585.41	1853.41
585.60	1863.65
585.79	1906.66
585.99	1886.18
586.18	1920.99
586.37	2172.89
586.57	3346.38
586.76	10241.89
586.96	25622.14
587.15	36414.93
587.34	42683.76
587.54	44391.77
587.73	38641.07
587.93	27735.64
588.12	22718.12
588.31	19226.33
588.51	17450.74
588.70	15728.40
588.89	14718.75
589.09	13233.97
589.28	11579.22
589.47	9928.55
589.67	8363.90
589.86	6735.77
590.06	5164.98
590.25	3934.15
590.44	3184.59
590.64	2592.73
590.83	2258.91
591.02	2101.22
591.22	1957.86
591.41	1898.47
591.60	1740.77
591.80	1867.75
591.99	1728.49
592.18	1744.87
592.38	1785.83
592.57	1769.44
592.76	1785.83
592.96	1828.84
593.15	1820.64
593.34	1804.26
593.54	1738.73
593.73	1718.25
593.92	1775.59
594.12	1757.16
594.31	1773.54
594.50	1822.69
594.70	1773.54
594.89	1880.04
595.08	1652.71
595.28	1748.97
595.47	1855.46
595.66	1816.55
595.86	1710.05
596.05	1742.82
596.24	1667.05
596.43	1826.79
596.63	1732.58
596.82	1677.29
597.01	1777.64
597.21	1863.65
597.40	1755.11
597.59	1732.58
597.79	1693.67
597.98	1726.44
598.17	1710.05
598.36	1730.53
598.56	1753.06
598.75	1617.90
598.94	1767.40
599.14	1740.77
599.33	1722.34
599.52	1773.54
599.71	1708.01
599.91	1748.97
600.10	1791.97
600.29	1738.73
600.48	1791.97
600.68	1671.14
600.87	1781.73
601.06	1681.38
601.26	1703.91
601.45	1734.63
601.64	1708.01
601.83	1834.98
602.03	1697.77
602.22	1591.27
602.41	1773.54
602.60	1812.45
602.80	1830.88
602.99	1714.15
603.18	1656.81
603.37	1689.57
603.57	1763.30
603.76	1857.51
603.95	1755.11
604.14	1671.14
604.34	1714.15
604.53	1755.11
604.72	1722.34
604.91	1781.73
605.10	1722.34
605.30	1621.99
605.49	1789.92
605.68	1763.30
605.87	1781.73
606.07	1716.20
606.26	1654.76
606.45	1689.57
606.64	1691.62
606.84	1705.96
607.03	1691.62
607.22	1683.43
607.41	1671.14
607.60	1683.43
607.80	1794.02
607.99	1740.77
608.18	1736.68
608.37	1744.87
608.56	1716.20
608.76	1810.40
608.95	1822.69
609.14	1728.49
609.33	1753.06
609.52	1732.58
609.72	1691.62
609.91	1769.44
610.10	1705.96
610.29	1761.25
610.48	1724.39
610.68	1677.29
610.87	1728.49
611.06	1730.53
611.25	1673.19
611.44	1794.02
611.63	1673.19
611.83	1855.46
612.02	1660.90
612.21	1828.84
612.40	1628.14
612.59	1656.81
612.79	1654.76
612.98	1730.53
613.17	1806.31
613.36	1689.57
613.55	1853.41
613.74	1665.00
613.93	1699.81
614.13	1710.05
614.32	1734.63
614.51	1740.77
614.70	1761.25
614.89	1650.66
615.08	1710.05
615.28	1970.15
615.47	1677.29
615.66	1771.49
615.85	1681.38
616.04	1751.01
616.23	1673.19
616.42	1697.77
616.62	1712.10
616.81	1806.31
617.00	1771.49
617.19	1759.21
617.38	1693.67
617.57	1695.72
617.76	1693.67
617.95	1771.49
618.15	1681.38
618.34	1759.21
618.53	1628.14
618.72	1779.68
618.91	1806.31
619.10	1800.16
619.29	1712.10
619.48	1710.05
619.68	1609.70
619.87	1660.90
620.06	1656.81
620.25	1761.25
620.44	1753.06
620.63	1765.35
620.82	1691.62
621.01	1662.95
621.20	1757.16
621.39	1714.15
621.59	1703.91
621.78	1652.71
621.97	1763.30
622.16	1800.16
622.35	1695.72
622.54	1660.90
622.73	1734.63
622.92	1718.25
623.11	1730.53
623.30	1683.43
623.49	1757.16
623.68	1701.86
623.88	1714.15
624.07	1697.77
624.26	1759.21
624.45	1648.61
624.64	1701.86
624.83	1753.06
625.02	1681.38
625.21	1675.24
625.40	1708.01
625.59	1753.06
625.78	1697.77
625.97	1699.81
626.16	1755.11
626.35	1730.53
626.54	1789.92
626.74	1800.16
626.93	1615.85
627.12	1681.38
627.31	1767.40
627.50	1669.09
627.69	1652.71
627.88	1667.05
628.07	1650.66
628.26	1617.90
628.45	1681.38
628.64	1669.09
628.83	1744.87
629.02	1697.77
629.21	1742.82
629.40	1746.92
629.59	1683.43
629.78	1714.15
629.97	1720.29
630.16	1689.57
630.35	1699.81
630.54	1726.44
630.73	1703.91
630.92	1746.92
631.11	1652.71
631.30	1734.63
631.49	1753.06
631.68	1757.16
631.87	1808.36
632.06	1611.75
632.25	1851.36
632.44	1705.96
632.63	1775.59
632.82	1677.29
633.01	1611.75
633.20	1642.47
633.39	1703.91
633.58	1632.23
633.77	1703.91
633.96	1714.15
634.15	1714.15
634.34	1650.66
634.53	1710.05
634.72	1744.87
634.91	1669.09
635.10	1726.44
635.29	1761.25
635.48	1730.53
635.67	1621.99
635.86	1665.00
636.05	1773.54
636.24	1767.40
636.43	1718.25
636.62	1718.25
636.81	1566.70
637.00	1757.16
637.19	1716.20
637.38	1628.14
637.57	1695.72
637.76	1673.19
637.95	1738.73
638.14	1722.34
638.33	1675.24
638.52	1656.81
638.71	1665.00
638.89	1667.05
639.08	1781.73
639.27	1716.20
639.46	1722.34
639.65	1757.16
639.84	1714.15
640.03	1714.15
640.22	1705.96
640.41	1845.22
640.60	1683.43
640.79	1730.53
640.98	1662.95
641.17	1746.92
641.36	1757.16
641.55	1767.40
641.74	1656.81
641.92	1583.08
642.11	1722.34
642.30	1701.86
642.49	1626.09
642.68	1669.09
642.87	1789.92
643.06	1787.88
643.25	1634.28
643.44	1699.81
643.63	1730.53
643.82	1728.49
644.00	1683.43
644.19	1718.25
644.38	1595.37
644.57	1697.77
644.76	1722.34
644.95	1673.19
645.14	1708.01
645.33	1646.57
645.52	1751.01
645.71	1630.18
645.89	1708.01
646.08	1730.53
646.27	1701.86
646.46	1816.55
646.65	1628.14
646.84	1673.19
647.03	1677.29
647.22	1734.63
647.40	1671.14
647.59	1728.49
647.78	1624.04
647.97	1593.32
648.16	1716.20
648.35	1796.07
648.54	1714.15
648.73	1681.38
648.91	1751.01
649.10	1667.05
649.29	1693.67
649.48	1636.33
649.67	1685.48
649.86	1685.48
650.05	1638.38
650.23	1771.49
650.42	1621.99
650.61	1759.21
650.80	1685.48
650.99	1867.75
651.18	1693.67
651.36	1714.15
651.55	1607.66
651.74	1755.11
651.93	1617.90
652.12	1687.53
652.31	1728.49
652.49	1697.77
652.68	1652.71
652.87	1816.55
653.06	1779.68
653.25	1781.73
653.44	1691.62
653.62	1685.48
653.81	1732.58
654.00	1738.73
654.19	1794.02
654.38	1861.60
654.56	1685.48
654.75	1732.58
654.94	1683.43
655.13	1757.16
655.32	1699.81
655.51	1652.71
655.69	1656.81
655.88	1710.05
656.07	1656.81
656.26	1742.82
656.45	1630.18
656.63	1740.77
656.82	1703.91
657.01	1740.77
657.20	1671.14
657.38	1794.02
657.57	1693.67
657.76	1607.66
657.95	1744.87
658.14	1718.25
658.32	1765.35
658.51	1636.33
658.70	1705.96
658.89	1695.72
659.08	1728.49
659.26	1761.25
659.45	1630.18
659.64	1697.77
659.83	1673.19
660.01	1841.12
660.20	1710.05
660.39	1806.31
660.58	1554.41
660.76	1665.00
660.95	1691.62
661.14	1703.91
661.33	1634.28
661.51	1722.34
661.70	1744.87
661.89	1689.57
662.08	1751.01
662.26	1673.19
662.45	1615.85
662.64	1742.82
662.83	1781.73
663.01	1636.33
663.20	1681.38
663.39	1791.97
663.58	1701.86
663.76	1669.09
663.95	1677.29
664.14	1671.14
664.32	1724.39
664.51	1691.62
664.70	1630.18
664.89	1669.09
665.07	1644.52
665.26	1812.45
665.45	1689.57
665.64	1697.77
665.82	1654.76
666.01	1701.86
666.20	1667.05
666.38	1828.84
666.57	1804.26
666.76	2222.05
666.95	4577.21
667.13	10708.83
667.32	15970.06
667.51	18765.54
667.69	20160.20
667.88	18726.63
668.07	12953.40
668.25	9918.31
668.44	8466.30
668.63	7427.98
668.81	7045.01
669.00	6528.92
669.19	5820.33
669.38	5101.49
669.56	4726.71
669.75	3966.92
669.94	3532.75
670.12	3006.42
670.31	2521.05
670.50	2215.90
670.68	2031.58
670.87	1964.00
671.06	1884.13
671.24	1804.26
671.43	1775.59
671.62	1683.43
671.80	1693.67
671.99	1810.40
672.18	1726.44
672.36	1783.78
672.55	1759.21
672.74	1673.19
672.92	1677.29
673.11	1751.01
673.29	1677.29
673.48	1740.77
673.67	1632.23
673.85	1677.29
674.04	1679.33
674.23	1693.67
674.41	1720.29
674.60	1609.70
674.79	1632.23
674.97	1675.24
675.16	1767.40
675.34	1787.88
675.53	1708.01
675.72	1695.72
675.90	1779.68
676.09	1669.09
676.28	1714.15
676.46	1628.14
676.65	1759.21
676.83	1738.73
677.02	1669.09
677.21	1701.86
677.39	1603.56
677.58	1611.75
677.77	1673.19
677.95	1726.44
678.14	1654.76
678.32	1724.39
678.51	1558.50
678.70	1814.50
678.88	1660.90
679.07	1703.91
679.25	1732.58
679.44	1761.25
679.63	1658.85
679.81	1720.29
680.00	1773.54
680.18	1742.82
680.37	1724.39
680.55	1699.81
680.74	1669.09
680.93	1570.79
681.11	1665.00
681.30	1677.29
681.48	1685.48
681.67	1761.25
681.85	1730.53
682.04	1630.18
682.23	1677.29
682.41	1716.20
682.60	1740.77
682.78	1669.09
682.97	1636.33
683.15	1718.25
683.34	1753.06
683.53	1755.11
683.71	1611.75
683.90	1773.54
684.08	1779.68
684.27	1656.81
684.45	1705.96
684.64	1695.72
684.82	1714.15
685.01	1751.01
685.19	1722.34
685.38	1804.26
685.57	1667.05
685.75	1607.66
685.94	1613.80
686.12	1617.90
686.31	1652.71
686.49	1800.16
686.68	1550.31
686.86	1755.11
687.05	1714.15
687.23	1763.30
687.42	1667.05
687.60	1572.84
687.79	1736.68
687.97	1730.53
688.16	1767.40
688.34	1812.45
688.53	1583.08
688.71	1685.48
688.90	1806.31
689.08	1615.85
689.27	1632.23
689.45	1687.53
689.64	1724.39
689.82	1810.40
690.01	1699.81
690.19	1755.11
690.38	1656.81
690.56	1783.78
690.75	1589.22
690.93	1626.09
691.12	1636.33
691.30	1736.68
691.49	1630.18
691.67	1681.38
691.86	1718.25
692.04	1685.48
692.23	1699.81
692.41	1757.16
692.60	1914.85
692.78	1771.49
692.97	1699.81
693.15	1699.81
693.34	1794.02
693.52	1783.78
693.71	1613.80
693.89	1599.46
694.08	1650.66
694.26	1673.19
694.44	1757.16
694.63	1777.64
694.81	1611.75
695.00	1599.46
695.18	1781.73
695.37	1742.82
695.55	1703.91
695.74	1746.92
695.92	1671.14
696.10	1710.05
696.29	1626.09
696.47	1708.01
696.66	1665.00
696.84	1665.00
697.03	1675.24
697.21	1744.87
697.40	2303.96
697.58	1751.01
697.76	1726.44
697.95	1669.09
698.13	1648.61
698.32	1599.46
698.50	1767.40
698.68	1806.31
698.87	1693.67
699.05	1748.97
699.24	1722.34
699.42	1638.38
699.61	1689.57
699.79	1636.33
699.97	1679.33
700.16	1650.66
700.34	1615.85
700.53	1787.88
700.71	1669.09
700.89	1701.86
701.08	1677.29
701.26	1677.29
701.45	2109.41
701.63	1621.99
701.81	1761.25
702.00	1695.72
702.18	1730.53
702.37	1673.19
702.55	1691.62
702.73	1648.61
702.92	1572.84
703.10	1779.68
703.28	1724.39
703.47	1679.33
703.65	1697.77
703.84	1730.53
704.02	1638.38
704.20	1748.97
704.39	1634.28
704.57	1683.43
704.75	1755.11
704.94	1789.92
705.12	1671.14
705.30	1820.64
705.49	2232.29
705.67	4564.92
705.86	9805.67
706.04	13424.44
706.22	15316.76
706.41	16486.15
706.59	14556.96
706.77	10157.92
706.96	7716.75
707.14	6852.50
707.32	6242.21
707.51	5834.66
707.69	5136.31
707.87	4466.62
708.06	3626.95
708.24	3033.04
708.42	2437.08
708.61	2213.85
708.79	1970.15
708.97	1888.23
709.16	1775.59
709.34	1783.78
709.52	1767.40
709.71	1738.73
709.89	1767.40
710.07	1755.11
710.26	1587.18
710.44	1681.38
710.62	1685.48
710.80	1773.54
710.99	1777.64
711.17	1822.69
711.35	1632.23
711.54	1656.81
711.72	1845.22
711.90	1722.34
712.09	1726.44
712.27	1703.91
712.45	1755.11
712.63	1665.00
712.82	1714.15
713.00	1722.34
713.18	1658.85
713.37	1720.29
713.55	1683.43
713.73	1734.63
713.91	1738.73
714.10	1662.95
714.28	1728.49
714.46	1789.92
714.65	1724.39
714.83	1710.05
715.01	1626.09
715.19	1648.61
715.38	1689.57
715.56	1716.20
715.74	1660.90
715.92	1581.03
716.11	1695.72
716.29	1576.94
716.47	1718.25
716.65	1722.34
716.84	1542.12
717.02	1740.77
717.20	1621.99
717.38	1619.94
717.57	1693.67
717.75	1708.01
717.93	1652.71
718.11	1697.77
718.30	1642.47
718.48	1779.68
718.66	1765.35
718.84	1728.49
719.03	1697.77
719.21	1601.51
719.39	1652.71
719.57	1738.73
719.75	1822.69
719.94	1658.85
720.12	1714.15
720.30	1701.86
720.48	1722.34
720.67	1626.09
720.85	1683.43
721.03	1638.38
721.21	1626.09
721.39	1789.92
721.58	1650.66
721.76	1716.20
721.94	1734.63
722.12	1685.48
722.30	1734.63
722.49	1665.00
722.67	1740.77
722.85	1777.64
723.03	1642.47
723.21	1689.57
723.40	1724.39
723.58	1697.77
723.76	1714.15
723.94	1767.40
724.12	1718.25
724.30	1712.10
724.49	1658.85
724.67	1685.48
724.85	1783.78
725.03	1591.27
725.21	1699.81
725.40	1746.92
725.58	1599.46
725.76	1765.35
725.94	1691.62
726.12	1601.51
726.30	1621.99
726.49	1681.38
726.67	1591.27
726.85	1652.71
727.03	1767.40
727.21	2070.50
727.39	2936.79
727.57	3997.64
727.76	4274.11
727.94	4587.45
728.12	4609.98
728.30	3805.13
728.48	3080.14
728.66	2828.24
728.84	2594.78
729.03	2357.21
729.21	2152.42
729.39	1918.95
729.57	1869.80
729.75	1769.44
729.93	1861.60
730.11	1658.85
730.30	1718.25
730.48	1699.81
730.66	1775.59
730.84	1742.82
731.02	1667.05
731.20	1652.71
731.38	1648.61
731.56	1671.14
731.74	1673.19
731.93	1722.34
732.11	1662.95
732.29	1648.61
732.47	1703.91
732.65	1667.05
732.83	1816.55
733.01	1691.62
733.19	1628.14
733.37	1724.39
733.56	1662.95
733.74	1677.29
733.92	1728.49
734.10	1685.48
734.28	1703.91
734.46	1601.51
734.64	1685.48
734.82	1720.29
735.00	1609.70
735.18	1681.38
735.36	1689.57
735.54	1648.61
735.73	1693.67
735.91	1742.82
736.09	1748.97
736.27	1677.29
736.45	1701.86
736.63	1599.46
736.81	1734.63
736.99	1755.11
737.17	1644.52
737.35	1712.10
737.53	1740.77
737.71	1634.28
737.89	1742.82
738.07	1607.66
738.25	1658.85
738.43	1642.47
738.61	1619.94
738.80	1658.85
738.98	1628.14
739.16	1697.77
739.34	1665.00
739.52	1681.38
739.70	1634.28
739.88	1718.25
740.06	1751.01
740.24	1509.35
740.42	1724.39
740.60	1578.98
740.78	1642.47
740.96	1556.46
741.14	1710.05
741.32	1609.70
741.50	1562.60
741.68	1804.26
741.86	1853.41
742.04	1646.57
742.22	1638.38
742.40	1724.39
742.58	1722.34
742.76	1552.36
742.94	1779.68
743.12	1628.14
743.30	1701.86
743.48	1679.33
743.66	1562.60
743.84	1783.78
744.02	1619.94
744.20	1648.61
744.38	1587.18
744.56	1642.47
744.74	1744.87
744.92	1732.58
745.10	1693.67
745.28	1705.96
745.46	1779.68
745.64	1701.86
745.82	1722.34
746.00	1757.16
746.18	1718.25
746.36	1619.94
746.54	1757.16
746.72	1695.72
746.90	1607.66
747.08	1705.96
747.26	1740.77
747.44	1695.72
747.62	1748.97
747.80	1708.01
747.98	1728.49
748.15	1685.48
748.33	1804.26
748.51	1646.57
748.69	1669.09
748.87	1640.42
749.05	1708.01
749.23	1597.42
749.41	1742.82
749.59	1689.57
749.77	1693.67
749.95	1656.81
750.13	1615.85
750.31	1705.96
750.49	1691.62
750.67	1697.77
750.85	1718.25
751.03	1742.82
751.20	1708.01
751.38	1662.95
751.56	1705.96
751.74	1675.24
751.92	1677.29
752.10	1650.66
752.28	1724.39
752.46	1685.48
752.64	1746.92
752.82	1751.01
753.00	1673.19
753.18	1673.19
753.35	1617.90
753.53	1718.25
753.71	1615.85
753.89	1652.71
754.07	1716.20
754.25	1740.77
754.43	1701.86
754.61	1550.31
754.79	1748.97
754.97	1759.21
755.14	1710.05
755.32	1578.98
755.50	1697.77
755.68	1699.81
755.86	1693.67
756.04	1654.76
756.22	1660.90
756.40	1804.26
756.57	1763.30
756.75	1628.14
756.93	1716.20
757.11	1656.81
757.29	1576.94
757.47	1619.94
757.65	1640.42
757.82	1519.59
758.00	1679.33
758.18	1638.38
758.36	1624.04
758.54	1748.97
758.72	1679.33
758.90	1769.44
759.07	1767.40
759.25	1662.95
759.43	1740.77
759.61	1574.89
759.79	2101.22
759.97	1738.73
760.15	1660.90
760.32	1636.33
760.50	1693.67
760.68	1738.73
760.86	1628.14
761.04	1781.73
761.22	1726.44
761.39	1667.05
761.57	1742.82
761.75	1685.48
761.93	1677.29
762.11	1685.48
762.28	1677.29
762.46	1585.13
762.64	1720.29
762.82	1665.00
763.00	1640.42
763.18	1751.01
763.35	1716.20
763.53	1716.20
763.71	1671.14
763.89	1685.48
764.07	1714.15
764.24	1720.29
764.42	1679.33
764.60	1683.43
764.78	1652.71
764.96	1734.63
765.13	1771.49
765.31	1667.05
765.49	1777.64
765.67	1695.72
765.84	1691.62
766.02	1669.09
766.20	1593.32
766.38	1755.11
766.56	1660.90
766.73	1699.81
766.91	1699.81
767.09	1665.00
767.27	1626.09
767.44	1546.22
767.62	1718.25
767.80	1708.01
767.98	1583.08
768.15	1679.33
768.33	1724.39
768.51	1714.15
768.69	1718.25
768.87	1751.01
769.04	1726.44
769.22	1802.21
769.40	1781.73
769.58	1859.56
769.75	1642.47
769.93	1679.33
770.11	1697.77
770.28	1689.57
770.46	1675.24
770.64	1667.05
770.82	1744.87
770.99	1710.05
771.17	1695.72
771.35	1632.23
771.53	1693.67
771.70	1605.61
771.88	1675.24
772.06	1640.42
772.23	1687.53
772.41	1724.39
772.59	1742.82
772.77	1630.18
772.94	1777.64
773.12	1677.29
773.30	1646.57
773.47	1658.85
773.65	1693.67
773.83	1726.44
774.01	1642.47
774.18	1564.65
774.36	1611.75
774.54	1689.57
774.71	1687.53
774.89	1738.73
775.07	1603.56
775.24	1630.18
775.42	1685.48
775.60	1787.88
775.78	1675.24
775.95	1578.98
776.13	1550.31
776.31	1540.07
776.48	1679.33
776.66	1773.54
776.84	1710.05
777.01	1669.09
777.19	1624.04
777.37	1595.37
777.54	1677.29
777.72	1812.45
777.90	1796.07
778.07	1626.09
778.25	1834.98
778.43	1732.58
778.60	1677.29
778.78	1746.92
778.96	1744.87
779.13	1572.84
779.31	1798.12
779.49	1693.67
779.66	1703.91
779.84	1671.14
780.01	1722.34
780.19	1619.94
780.37	1714.15
780.54	1732.58
780.72	1703.91
780.90	1722.34
781.07	1658.85
781.25	1689.57
781.43	1736.68
781.60	1626.09
781.78	1716.20
781.95	1724.39
782.13	1669.09
782.31	1695.72
782.48	1560.55
782.66	1660.90
782.83	1779.68
783.01	1636.33
783.19	1708.01
783.36	1615.85
783.54	1642.47
783.72	1718.25
783.89	1671.14
784.07	1714.15
784.24	1712.10
784.42	1714.15
784.60	1726.44
784.77	1697.77
784.95	1564.65
785.12	1654.76
785.30	1763.30
785.47	1626.09
785.65	1642.47
785.83	1662.95
786.00	1710.05
786.18	1720.29
786.35	1634.28
786.53	1607.66
786.71	1703.91
786.88	1710.05
787.06	1685.48
787.23	1671.14
787.41	1626.09
787.58	1662.95
787.76	1589.22
787.94	1718.25
788.11	1656.81
788.29	1667.05
788.46	1632.23
788.64	1669.09
788.81	1568.74
788.99	1603.56
789.16	1675.24
789.34	1669.09
789.52	1673.19
789.69	1634.28
789.87	1597.42
790.04	1693.67
790.22	1703.91
790.39	1845.22
790.57	1599.46
790.74	1626.09
790.92	1732.58
791.09	1671.14
791.27	1716.20
791.44	1779.68
791.62	1665.00
791.79	1761.25
791.97	1703.91
792.15	1859.56
792.32	1779.68
792.50	1695.72
792.67	1751.01
792.85	1781.73
793.02	1689.57
793.20	1685.48
793.37	1630.18
793.55	1689.57
793.72	1605.61
793.90	1767.40
794.07	1671.14
794.25	1681.38
794.42	1767.40
794.60	1695.72
794.77	1726.44
794.95	1734.63
795.12	1681.38
795.30	1689.57
795.47	1697.77
795.65	1830.88
795.82	1710.05
796.00	1624.04
796.17	1708.01
796.34	1691.62
796.52	1685.48
796.69	1759.21
796.87	1820.64
797.04	1669.09
797.22	1687.53
797.39	1630.18
797.57	1691.62
797.74	1679.33
797.92	1728.49
798.09	1652.71
798.27	1644.52
798.44	1730.53
798.62	1574.89
798.79	1800.16
798.96	1701.86
799.14	1665.00
799.31	1853.41
799.49	1650.66
799.66	1683.43
799.84	1660.90
800.01	1570.79
800.19	1683.43
800.36	1550.31
800.53	1701.86
800.71	1703.91
800.88	1767.40
801.06	1570.79
801.23	1699.81
801.41	1654.76
801.58	1708.01
801.75	1591.27
801.93	1720.29
802.10	1763.30
802.28	1652.71
802.45	1656.81
802.63	1714.15
802.80	1822.69
802.97	1697.77
803.15	1677.29
803.32	1615.85
803.50	1658.85
803.67	1628.14
803.84	1556.46
804.02	1671.14
804.19	1685.48
804.37	1513.45
804.54	1646.57
804.71	1611.75
804.89	1708.01
805.06	1599.46
805.24	1630.18
805.41	1667.05
805.58	1583.08
805.76	1787.88
805.93	1681.38
806.10	1697.77
806.28	1779.68
806.45	1640.42
806.63	1710.05
806.80	1738.73
806.97	1738.73
807.15	1701.86
807.32	1626.09
807.49	1730.53
807.67	1624.04
807.84	1679.33
808.01	1562.60
808.19	1798.12
808.36	1796.07
808.54	1658.85
808.71	1683.43
808.88	1708.01
809.06	1716.20
809.23	1796.07
809.40	1665.00
809.58	1816.55
809.75	1716.20
809.92	1673.19
810.10	1816.55
810.27	1671.14
810.44	1703.91
810.62	1652.71
810.79	1705.96
810.96	1642.47
811.14	1662.95
811.31	1742.82
811.48	1722.34
811.66	1697.77
811.83	1730.53
812.00	1736.68
812.18	1761.25
812.35	1824.74
812.52	1685.48
812.69	1693.67
812.87	1705.96
813.04	1724.39
813.21	1621.99
813.39	1642.47
813.56	1630.18
813.73	1755.11
813.91	1675.24
814.08	1689.57
814.25	1736.68
814.42	1632.23
814.60	1693.67
814.77	1701.86
814.94	1677.29
815.12	1640.42
815.29	1781.73
815.46	1615.85
815.63	1712.10
815.81	1691.62
815.98	1671.14
816.15	1609.70
816.33	1642.47
816.50	1624.04
816.67	1699.81
816.84	1585.13
817.02	1681.38
817.19	1632.23
817.36	1757.16
817.53	1699.81
817.71	1589.22
817.88	1771.49
818.05	1671.14
818.22	1660.90
818.40	1800.16
818.57	1634.28
818.74	1740.77
818.91	1714.15
819.09	1662.95
819.26	1681.38
819.43	1693.67
819.60	1621.99
819.78	1746.92
819.95	1763.30
820.12	1615.85
820.29	1738.73
820.47	1726.44
820.64	1673.19
820.81	1581.03
820.98	1714.15
821.15	1640.42
821.33	1736.68
821.50	1628.14
821.67	1759.21
821.84	1656.81
822.02	1763.30
822.19	1730.53
822.36	1636.33
822.53	1695.72
822.70	1636.33
822.88	1650.66
823.05	1710.05
823.22	1673.19
823.39	1763.30
823.56	1607.66
823.74	1796.07
823.91	1697.77
824.08	1617.90
824.25	1632.23
824.42	1755.11
824.60	1671.14
824.77	1679.33
824.94	1587.18
825.11	1722.34
825.28	1646.57
825.45	1654.76
825.63	1710.05
825.80	1736.68
825.97	1716.20
826.14	1624.04
826.31	1615.85
826.48	1738.73
826.66	1714.15
826.83	1677.29
827.00	1734.63
827.17	1677.29
827.34	1730.53
827.51	1656.81
827.69	1679.33
827.86	1611.75
828.03	1630.18
828.20	1689.57
828.37	1658.85
828.54	1757.16
828.71	1652.71
828.89	1708.01
829.06	1687.53
829.23	1691.62
829.40	1724.39
829.57	1677.29
829.74	1621.99
829.91	1724.39
830.09	1619.94
830.26	1665.00
830.43	1763.30
830.60	1646.57
830.77	1763.30
830.94	1804.26
831.11	1740.77
831.28	1693.67
831.46	1794.02
831.63	1630.18
831.80	1771.49
831.97	1609.70
832.14	1613.80
832.31	1722.34
832.48	1691.62
832.65	1740.77
832.82	1673.19
832.99	1777.64
833.17	1619.94
833.34	1734.63
833.51	1624.04
833.68	1570.79
833.85	1705.96
834.02	1634.28
834.19	1673.19
834.36	1605.61
834.53	1722.34
834.70	1708.01
834.87	1726.44
835.04	1656.81
835.22	1630.18
835.39	1710.05
835.56	1615.85
835.73	1734.63
835.90	1812.45
836.07	1617.90
836.24	1738.73
836.41	1638.38
836.58	1574.89
836.75	1697.77
836.92	1728.49
837.09	1566.70
837.26	1714.15
837.43	1728.49
837.60	1710.05
837.77	1677.29
837.94	1753.06
838.12	1738.73
838.29	1693.67
838.46	1607.66
838.63	1630.18
838.80	1828.84
838.97	1732.58
839.14	1621.99
839.31	1710.05
839.48	1740.77
839.65	1718.25
839.82	1730.53
839.99	1658.85
840.16	1624.04
840.33	1636.33
840.50	1685.48
840.67	1667.05
840.84	1560.55
841.01	1714.15
841.18	1675.24
841.35	1677.29
841.52	1765.35
841.69	1783.78
841.86	1660.90
842.03	1724.39
842.20	1675.24
842.37	1701.86
842.54	1665.00
842.71	1722.34
842.88	1593.32
843.05	1708.01
843.22	1671.14
843.39	1697.77
843.56	1681.38
843.73	1728.49
843.90	1710.05
844.07	1738.73
844.24	1699.81
844.41	1708.01
844.58	1640.42
844.75	1642.47
844.92	1740.77
845.09	1658.85
845.26	1619.94
845.43	1683.43
845.60	1730.53
845.77	1703.91
845.94	1675.24
846.10	1712.10
846.27	1605.61
846.44	1601.51
846.61	1601.51
846.78	1703.91
846.95	1714.15
847.12	1681.38
847.29	1652.71
847.46	1640.42
847.63	1837.03
847.80	1693.67
847.97	1654.76
848.14	1789.92
848.31	1675.24
848.48	1615.85
848.65	1746.92
848.82	1570.79
848.98	1808.36
849.15	1759.21
849.32	1794.02
849.49	1746.92
849.66	1667.05
849.83	1714.15
850.00	1636.33
850.17	1662.95
850.34	1626.09
850.51	1662.95
850.68	1634.28
850.85	1759.21
851.01	1697.77
851.18	1751.01
851.35	1595.37
851.52	1697.77
851.69	1705.96
851.86	1583.08
852.03	1736.68
852.20	1701.86
852.37	1630.18
852.53	1615.85
852.70	1734.63
852.87	1648.61
853.04	1755.11
853.21	1683.43
853.38	1648.61
853.55	1816.55
853.72	1718.25
853.89	1683.43
854.05	1640.42
854.22	1640.42
854.39	1662.95
854.56	1656.81
854.73	1703.91
854.90	1697.77
855.07	1669.09
855.23	1710.05
855.40	1683.43
855.57	1716.20
855.74	1621.99
855.91	1826.79
856.08	1660.90
856.25	1593.32
856.41	1624.04
856.58	1662.95
856.75	1656.81
856.92	1626.09
857.09	1685.48
857.26	1546.22
857.42	1712.10
857.59	1669.09
857.76	1701.86
857.93	1765.35
858.10	1736.68
858.27	1619.94
858.43	1685.48
858.60	1726.44
858.77	1626.09
858.94	1689.57
859.11	1724.39
859.27	1611.75
859.44	1767.40
859.61	1834.98
859.78	1738.73
859.95	1566.70
860.12	1595.37
860.28	1740.77
860.45	1763.30
860.62	1564.65
860.79	1759.21
860.95	1703.91
861.12	1662.95
861.29	1712.10
861.46	1634.28
861.63	1652.71
861.79	1691.62
861.96	1665.00
862.13	1705.96
862.30	1775.59
862.47	1562.60
862.63	1597.42
862.80	1722.34
862.97	1740.77
863.14	1789.92
863.30	1673.19
863.47	1658.85
863.64	1714.15
863.81	1673.19
863.97	1611.75
864.14	1742.82
864.31	1632.23
864.48	1699.81
864.65	1660.90
864.81	1716.20
864.98	1601.51
865.15	1660.90
865.32	1734.63
865.48	1697.77
865.65	1767.40
865.82	1640.42
865.98	1785.83
866.15	1767.40
866.32	1683.43
866.49	1689.57
866.65	1708.01
866.82	1601.51
866.99	1679.33
867.16	1689.57
867.32	1624.04
867.49	1740.77
867.66	1652.71
867.83	1677.29
867.99	1523.69
868.16	1685.48
868.33	1697.77
868.49	1658.85
868.66	1669.09
868.83	1734.63
868.99	1691.62
869.16	1675.24
869.33	1699.81
869.50	1722.34
869.66	1656.81
869.83	1591.27
870.00	1677.29
870.16	1681.38
870.33	1701.86
870.50	1646.57
870.66	1710.05
870.83	1796.07
871.00	1701.86
871.17	1630.18
871.33	1716.20
871.50	1662.95
871.67	1658.85
871.83	1585.13
872.00	1759.21
872.17	1771.49
872.33	1853.41
872.50	1728.49
872.67	1734.63
872.83	1675.24
873.00	1691.62
873.17	1708.01
873.33	1675.24
873.50	1714.15
873.67	1640.42
873.83	1681.38
874.00	1644.52
874.16	1675.24
874.33	1775.59
874.50	1615.85
874.66	1724.39
874.83	1722.34
875.00	1695.72
875.16	1734.63
875.33	1746.92
875.50	1570.79
875.66	1636.33
875.83	1697.77
875.99	1755.11
876.16	1652.71
876.33	1689.57
876.49	1683.43
876.66	1708.01
876.83	1595.37
876.99	1568.74
877.16	1685.48
877.32	1624.04
877.49	1626.09
877.66	1681.38
877.82	1767.40
877.99	1716.20
878.15	1785.83
878.32	1718.25
878.49	1771.49
878.65	1660.90
878.82	1765.35
878.98	1646.57
879.15	1697.77
879.32	1656.81
879.48	1708.01
879.65	1609.70
879.81	1703.91
879.98	1642.47
880.15	1656.81
880.31	1648.61
880.48	1638.38
880.64	1724.39
880.81	1693.67
880.97	1818.60
881.14	1701.86
881.31	1611.75
881.47	1806.31
881.64	1585.13
881.80	1619.94
881.97	1689.57
882.13	1814.50
882.30	1621.99
882.47	1652.71
882.63	1648.61
882.80	1636.33
882.96	1611.75
883.13	1757.16
883.29	1599.46
883.46	1673.19
883.62	1789.92
883.79	1724.39
883.95	1699.81
884.12	1675.24
884.29	1683.43
884.45	1658.85
884.62	1783.78
884.78	1665.00
884.95	1767.40
885.11	1630.18
885.28	1730.53
885.44	1654.76
885.61	1624.04
885.77	1701.86
885.94	1759.21
886.10	1658.85
886.27	1703.91
886.43	1755.11
886.60	1726.44
886.76	1673.19
886.93	1644.52
887.09	1724.39
887.26	1621.99
887.42	1716.20
887.59	1785.83
887.75	1798.12
887.92	1699.81
888.08	1703.91
888.25	1841.12
888.41	1652.71
888.58	1665.00
888.74	1595.37
888.91	1703.91
>>>>>End Processed Spectral Data<<<<<
