SpectraSuite Data File
++++++++++++++++++++++++++++++++++++
Date: Mon Jun 06 16:12:37 CEST 2016
User: root
Dark Spectrum Present: No
Reference Spectrum Present: No
Number of Sampled Component Spectra: 1
Spectrometers: USB4C02835
Integration Time (usec): 100000 (USB4C02835)
Spectra Averaged: 1 (USB4C02835)
Boxcar Smoothing: 0 (USB4C02835)
Correct for Electrical Dark: No (USB4C02835)
Strobe/Lamp Enabled: No (USB4C02835)
Correct for Detector Non-linearity: No (USB4C02835)
Correct for Stray Light: No (USB4C02835)
Number of Pixels in Processed Spectrum: 3648
>>>>>Begin Processed Spectral Data<<<<<
177.47	1509.35
177.69	1509.35
177.91	1509.35
178.13	1462.25
178.36	1462.25
178.58	1669.09
178.80	1685.48
179.02	1574.89
179.24	1632.23
179.46	1732.58
179.68	1742.82
179.90	1605.61
180.13	1726.44
180.35	1640.42
180.57	1697.77
180.79	1773.54
181.01	1757.16
181.23	1726.44
181.45	1839.08
181.67	1748.97
181.90	1769.44
182.12	1751.01
182.34	1669.09
182.56	1757.16
182.78	1785.83
183.00	1693.67
183.22	1708.01
183.44	1630.18
183.66	1970.15
183.89	1808.36
184.11	1660.90
184.33	1779.68
184.55	1742.82
184.77	1681.38
184.99	1759.21
185.21	1624.04
185.43	1882.08
185.65	1695.72
185.87	1683.43
186.10	1859.56
186.32	1877.99
186.54	1767.40
186.76	1732.58
186.98	1728.49
187.20	1699.81
187.42	1658.85
187.64	1689.57
187.86	1697.77
188.08	1689.57
188.30	1679.33
188.52	1738.73
188.75	1812.45
188.97	1812.45
189.19	1679.33
189.41	1744.87
189.63	1814.50
189.85	1650.66
190.07	1656.81
190.29	1640.42
190.51	1775.59
190.73	1650.66
190.95	1783.78
191.17	1722.34
191.39	1609.70
191.61	1669.09
191.84	1691.62
192.06	1714.15
192.28	1644.52
192.50	1820.64
192.72	1800.16
192.94	1689.57
193.16	1810.40
193.38	1751.01
193.60	1697.77
193.82	1714.15
194.04	1806.31
194.26	1783.78
194.48	1746.92
194.70	1648.61
194.92	1720.29
195.14	1722.34
195.36	1665.00
195.58	1667.05
195.80	1667.05
196.02	1638.38
196.24	1701.86
196.46	1769.44
196.69	1673.19
196.91	1896.42
197.13	1730.53
197.35	1689.57
197.57	1820.64
197.79	1771.49
198.01	1757.16
198.23	1781.73
198.45	1722.34
198.67	1601.51
198.89	1759.21
199.11	1748.97
199.33	1722.34
199.55	1679.33
199.77	1710.05
199.99	1875.94
200.21	1722.34
200.43	1783.78
200.65	1681.38
200.87	1615.85
201.09	1769.44
201.31	1710.05
201.53	1736.68
201.75	1796.07
201.97	1714.15
202.19	1703.91
202.41	1837.03
202.63	1779.68
202.85	1722.34
203.07	1722.34
203.29	1683.43
203.51	1626.09
203.73	1697.77
203.95	1845.22
204.17	1742.82
204.39	1705.96
204.61	1685.48
204.83	1679.33
205.05	1767.40
205.27	1804.26
205.49	1826.79
205.71	1759.21
205.93	1697.77
206.15	1746.92
206.37	1738.73
206.59	1673.19
206.81	1640.42
207.03	1648.61
207.25	1619.94
207.47	1746.92
207.69	1751.01
207.91	1779.68
208.13	1789.92
208.34	1683.43
208.56	1689.57
208.78	1753.06
209.00	1691.62
209.22	1621.99
209.44	1734.63
209.66	1757.16
209.88	1730.53
210.10	1742.82
210.32	1634.28
210.54	1843.17
210.76	1652.71
210.98	1783.78
211.20	1548.26
211.42	1734.63
211.64	1824.74
211.86	1773.54
212.08	1705.96
212.30	1767.40
212.52	1685.48
212.74	1736.68
212.96	1730.53
213.17	1763.30
213.39	1771.49
213.61	1806.31
213.83	1656.81
214.05	1617.90
214.27	1787.88
214.49	1665.00
214.71	1714.15
214.93	1798.12
215.15	1718.25
215.37	1830.88
215.59	1617.90
215.81	1789.92
216.03	1796.07
216.24	1708.01
216.46	1701.86
216.68	1720.29
216.90	1804.26
217.12	1820.64
217.34	1701.86
217.56	1771.49
217.78	1781.73
218.00	1726.44
218.22	1740.77
218.44	1691.62
218.66	1697.77
218.87	1843.17
219.09	1701.86
219.31	1759.21
219.53	1785.83
219.75	1732.58
219.97	1804.26
220.19	1667.05
220.41	1689.57
220.63	1724.39
220.85	1773.54
221.06	1726.44
221.28	1748.97
221.50	1650.66
221.72	1759.21
221.94	1718.25
222.16	1714.15
222.38	1744.87
222.60	1798.12
222.82	1718.25
223.03	1820.64
223.25	1720.29
223.47	1718.25
223.69	1867.75
223.91	1763.30
224.13	1714.15
224.35	1669.09
224.57	1779.68
224.78	1751.01
225.00	1693.67
225.22	1701.86
225.44	1714.15
225.66	1816.55
225.88	1716.20
226.10	1753.06
226.32	1728.49
226.53	1812.45
226.75	1708.01
226.97	1683.43
227.19	1779.68
227.41	1669.09
227.63	1677.29
227.85	1628.14
228.06	1718.25
228.28	1718.25
228.50	1732.58
228.72	1695.72
228.94	1677.29
229.16	1638.38
229.37	1607.66
229.59	1626.09
229.81	1753.06
230.03	1710.05
230.25	1669.09
230.47	1626.09
230.69	1714.15
230.90	1794.02
231.12	1632.23
231.34	1757.16
231.56	1867.75
231.78	1665.00
232.00	1718.25
232.21	1732.58
232.43	1669.09
232.65	1585.13
232.87	1697.77
233.09	1677.29
233.30	1738.73
233.52	1701.86
233.74	1611.75
233.96	1701.86
234.18	1732.58
234.40	1681.38
234.61	1822.69
234.83	1624.04
235.05	1605.61
235.27	1814.50
235.49	1814.50
235.70	1726.44
235.92	1789.92
236.14	1714.15
236.36	1830.88
236.58	1669.09
236.79	1759.21
237.01	1669.09
237.23	1652.71
237.45	1751.01
237.67	1650.66
237.88	1689.57
238.10	1742.82
238.32	1636.33
238.54	1644.52
238.76	1742.82
238.97	1699.81
239.19	1646.57
239.41	1689.57
239.63	1742.82
239.85	1685.48
240.06	1695.72
240.28	1718.25
240.50	1771.49
240.72	1695.72
240.93	1652.71
241.15	1849.32
241.37	1777.64
241.59	1796.07
241.81	1734.63
242.02	1667.05
242.24	1734.63
242.46	1751.01
242.68	1740.77
242.89	1681.38
243.11	1734.63
243.33	1742.82
243.55	1765.35
243.76	1822.69
243.98	1685.48
244.20	1693.67
244.42	1775.59
244.64	1748.97
244.85	1595.37
245.07	1671.14
245.29	1791.97
245.51	1718.25
245.72	1777.64
245.94	1791.97
246.16	1779.68
246.38	1779.68
246.59	1630.18
246.81	1640.42
247.03	1685.48
247.24	1652.71
247.46	1699.81
247.68	1619.94
247.90	1683.43
248.11	1679.33
248.33	1736.68
248.55	1699.81
248.77	1761.25
248.98	1802.21
249.20	1837.03
249.42	1751.01
249.64	1734.63
249.85	1751.01
250.07	1621.99
250.29	1714.15
250.50	1761.25
250.72	1716.20
250.94	1810.40
251.16	1828.84
251.37	1816.55
251.59	1748.97
251.81	1804.26
252.02	1679.33
252.24	1681.38
252.46	1843.17
252.68	1714.15
252.89	1609.70
253.11	1570.79
253.33	1814.50
253.54	1828.84
253.76	1656.81
253.98	1751.01
254.20	1712.10
254.41	1617.90
254.63	1748.97
254.85	1621.99
255.06	1703.91
255.28	1791.97
255.50	1746.92
255.71	1705.96
255.93	1703.91
256.15	1689.57
256.36	1736.68
256.58	1621.99
256.80	1675.24
257.02	1638.38
257.23	1738.73
257.45	1728.49
257.67	1824.74
257.88	1677.29
258.10	1718.25
258.32	1726.44
258.53	1665.00
258.75	1888.23
258.97	1714.15
259.18	1744.87
259.40	1755.11
259.62	1798.12
259.83	1806.31
260.05	1691.62
260.27	2029.54
260.48	1789.92
260.70	1681.38
260.92	1687.53
261.13	1693.67
261.35	1705.96
261.57	1779.68
261.78	1673.19
262.00	1699.81
262.22	1718.25
262.43	1669.09
262.65	1599.46
262.86	1724.39
263.08	1841.12
263.30	1712.10
263.51	1619.94
263.73	1667.05
263.95	1861.60
264.16	1732.58
264.38	1683.43
264.60	1714.15
264.81	1689.57
265.03	1789.92
265.25	1724.39
265.46	1816.55
265.68	1781.73
265.89	1794.02
266.11	1591.27
266.33	1685.48
266.54	1773.54
266.76	1779.68
266.98	1787.88
267.19	1806.31
267.41	1761.25
267.62	1701.86
267.84	1603.56
268.06	1699.81
268.27	1730.53
268.49	1722.34
268.70	1818.60
268.92	1660.90
269.14	1607.66
269.35	1685.48
269.57	1716.20
269.79	1744.87
270.00	1697.77
270.22	1810.40
270.43	1685.48
270.65	1587.18
270.87	1759.21
271.08	1646.57
271.30	1781.73
271.51	1701.86
271.73	1781.73
271.95	1705.96
272.16	1722.34
272.38	1675.24
272.59	1673.19
272.81	1755.11
273.02	1703.91
273.24	1693.67
273.46	1779.68
273.67	1693.67
273.89	1662.95
274.10	1683.43
274.32	1695.72
274.54	1697.77
274.75	1738.73
274.97	1726.44
275.18	1818.60
275.40	1816.55
275.61	1810.40
275.83	1720.29
276.05	1644.52
276.26	1779.68
276.48	1724.39
276.69	1697.77
276.91	1634.28
277.12	1718.25
277.34	1726.44
277.55	1769.44
277.77	1751.01
277.99	1673.19
278.20	1679.33
278.42	1697.77
278.63	1701.86
278.85	1697.77
279.06	1646.57
279.28	1701.86
279.49	1742.82
279.71	1705.96
279.93	1695.72
280.14	1789.92
280.36	1687.53
280.57	1781.73
280.79	1869.80
281.00	1611.75
281.22	1736.68
281.43	1781.73
281.65	1505.26
281.86	1662.95
282.08	1800.16
282.29	1873.89
282.51	1648.61
282.73	1652.71
282.94	1658.85
283.16	1808.36
283.37	1839.08
283.59	1673.19
283.80	1718.25
284.02	1705.96
284.23	1769.44
284.45	1714.15
284.66	1607.66
284.88	1724.39
285.09	1765.35
285.31	1730.53
285.52	1791.97
285.74	1646.57
285.95	1808.36
286.17	1771.49
286.38	1822.69
286.60	1640.42
286.81	1611.75
287.03	1689.57
287.24	1689.57
287.46	1820.64
287.67	1673.19
287.89	1890.28
288.10	1697.77
288.32	1742.82
288.53	1800.16
288.75	1736.68
288.96	1746.92
289.18	1705.96
289.39	1673.19
289.61	1740.77
289.82	1875.94
290.04	1816.55
290.25	1701.86
290.47	1693.67
290.68	1687.53
290.90	1740.77
291.11	1583.08
291.33	1798.12
291.54	1669.09
291.76	1652.71
291.97	1771.49
292.18	1785.83
292.40	1763.30
292.61	1714.15
292.83	1857.51
293.04	1763.30
293.26	1710.05
293.47	1685.48
293.69	1624.04
293.90	1699.81
294.12	1740.77
294.33	1677.29
294.55	1687.53
294.76	1697.77
294.97	1691.62
295.19	1806.31
295.40	1646.57
295.62	1734.63
295.83	1826.79
296.05	1767.40
296.26	1728.49
296.48	1634.28
296.69	1763.30
296.90	1665.00
297.12	1851.36
297.33	1763.30
297.55	1767.40
297.76	1683.43
297.98	1794.02
298.19	1720.29
298.41	1697.77
298.62	1699.81
298.83	1746.92
299.05	1738.73
299.26	1628.14
299.48	1787.88
299.69	1806.31
299.90	1748.97
300.12	1662.95
300.33	1703.91
300.55	1769.44
300.76	1769.44
300.98	1603.56
301.19	1697.77
301.40	1687.53
301.62	1691.62
301.83	1789.92
302.05	1695.72
302.26	1734.63
302.47	1718.25
302.69	1667.05
302.90	1763.30
303.12	1595.37
303.33	1769.44
303.54	1837.03
303.76	1615.85
303.97	1783.78
304.19	1839.08
304.40	1658.85
304.61	1699.81
304.83	1771.49
305.04	1773.54
305.26	1708.01
305.47	1718.25
305.68	1656.81
305.90	1632.23
306.11	1796.07
306.33	1691.62
306.54	1716.20
306.75	1685.48
306.97	1632.23
307.18	1587.18
307.39	1660.90
307.61	1814.50
307.82	1712.10
308.04	1720.29
308.25	1599.46
308.46	1742.82
308.68	1759.21
308.89	1769.44
309.10	1746.92
309.32	1728.49
309.53	1673.19
309.74	1751.01
309.96	1744.87
310.17	1787.88
310.39	1697.77
310.60	1742.82
310.81	1781.73
311.03	1728.49
311.24	1779.68
311.45	1740.77
311.67	1808.36
311.88	1708.01
312.09	1662.95
312.31	1681.38
312.52	1683.43
312.73	1712.10
312.95	1679.33
313.16	1665.00
313.37	1738.73
313.59	1697.77
313.80	1865.70
314.01	1855.46
314.23	1671.14
314.44	1665.00
314.65	1611.75
314.87	1681.38
315.08	1681.38
315.29	1693.67
315.51	1751.01
315.72	1619.94
315.93	1767.40
316.15	1812.45
316.36	1679.33
316.57	1718.25
316.79	1685.48
317.00	1673.19
317.21	1767.40
317.43	1665.00
317.64	1671.14
317.85	1697.77
318.07	1722.34
318.28	1755.11
318.49	1875.94
318.70	1898.47
318.92	1802.21
319.13	1771.49
319.34	1933.28
319.56	1837.03
319.77	1871.84
319.98	1837.03
320.20	1761.25
320.41	1796.07
320.62	1742.82
320.83	1675.24
321.05	1871.84
321.26	1632.23
321.47	1714.15
321.69	1775.59
321.90	1738.73
322.11	1693.67
322.32	1662.95
322.54	1826.79
322.75	1718.25
322.96	1871.84
323.18	1677.29
323.39	1626.09
323.60	1705.96
323.81	1757.16
324.03	1710.05
324.24	1665.00
324.45	1691.62
324.66	1705.96
324.88	1767.40
325.09	1845.22
325.30	1644.52
325.52	1671.14
325.73	1667.05
325.94	1705.96
326.15	1705.96
326.37	1691.62
326.58	1738.73
326.79	1865.70
327.00	1665.00
327.22	1720.29
327.43	1681.38
327.64	1660.90
327.85	1691.62
328.07	1744.87
328.28	1777.64
328.49	1720.29
328.70	1658.85
328.92	1685.48
329.13	1689.57
329.34	1734.63
329.55	1787.88
329.76	1757.16
329.98	1710.05
330.19	1818.60
330.40	1705.96
330.61	1769.44
330.83	1777.64
331.04	1685.48
331.25	1638.38
331.46	1615.85
331.68	1665.00
331.89	1746.92
332.10	1671.14
332.31	1611.75
332.52	1658.85
332.74	1812.45
332.95	1687.53
333.16	1687.53
333.37	1769.44
333.58	1751.01
333.80	1767.40
334.01	1624.04
334.22	1708.01
334.43	1613.80
334.64	1648.61
334.86	1605.61
335.07	1640.42
335.28	1816.55
335.49	1652.71
335.70	1779.68
335.92	1751.01
336.13	1812.45
336.34	1693.67
336.55	1759.21
336.76	1777.64
336.98	1587.18
337.19	1726.44
337.40	1818.60
337.61	1798.12
337.82	1771.49
338.04	1730.53
338.25	1662.95
338.46	1718.25
338.67	1718.25
338.88	1683.43
339.09	1621.99
339.31	1705.96
339.52	1675.24
339.73	1697.77
339.94	1650.66
340.15	1828.84
340.36	1677.29
340.58	1732.58
340.79	1671.14
341.00	1738.73
341.21	1675.24
341.42	1804.26
341.63	1669.09
341.85	1812.45
342.06	1740.77
342.27	1642.47
342.48	1761.25
342.69	1726.44
342.90	1779.68
343.12	1767.40
343.33	1718.25
343.54	1734.63
343.75	1816.55
343.96	1796.07
344.17	1714.15
344.38	1736.68
344.60	1726.44
344.81	1626.09
345.02	1687.53
345.23	1845.22
345.44	1810.40
345.65	1779.68
345.86	1732.58
346.07	1703.91
346.29	1689.57
346.50	1773.54
346.71	1683.43
346.92	1800.16
347.13	1800.16
347.34	1644.52
347.55	1736.68
347.76	1689.57
347.98	1714.15
348.19	1812.45
348.40	1783.78
348.61	1621.99
348.82	1802.21
349.03	1742.82
349.24	1644.52
349.45	1728.49
349.66	1665.00
349.88	1732.58
350.09	1697.77
350.30	1753.06
350.51	1804.26
350.72	1710.05
350.93	1763.30
351.14	1624.04
351.35	1683.43
351.56	1716.20
351.77	1763.30
351.99	1742.82
352.20	1908.71
352.41	1826.79
352.62	1640.42
352.83	1697.77
353.04	1732.58
353.25	1689.57
353.46	1777.64
353.67	1722.34
353.88	1599.46
354.09	1710.05
354.30	1701.86
354.52	1722.34
354.73	1759.21
354.94	1677.29
355.15	1757.16
355.36	1771.49
355.57	1640.42
355.78	1710.05
355.99	1701.86
356.20	1699.81
356.41	1812.45
356.62	1701.86
356.83	1730.53
357.04	1808.36
357.25	1583.08
357.46	1777.64
357.68	1658.85
357.89	1644.52
358.10	1755.11
358.31	1714.15
358.52	1705.96
358.73	1679.33
358.94	1583.08
359.15	1669.09
359.36	1808.36
359.57	1742.82
359.78	1681.38
359.99	1730.53
360.20	1624.04
360.41	1599.46
360.62	1740.77
360.83	1720.29
361.04	1736.68
361.25	1742.82
361.46	1757.16
361.67	1691.62
361.88	1755.11
362.09	1818.60
362.30	1708.01
362.51	1609.70
362.72	1759.21
362.93	1761.25
363.14	1779.68
363.35	1695.72
363.56	1632.23
363.78	1761.25
363.99	1810.40
364.20	1640.42
364.41	1667.05
364.62	1796.07
364.83	1673.19
365.04	1701.86
365.25	1738.73
365.46	1759.21
365.67	1691.62
365.88	1665.00
366.09	1689.57
366.30	1722.34
366.51	1726.44
366.72	1595.37
366.93	1763.30
367.14	1691.62
367.35	1869.80
367.56	1669.09
367.77	1828.84
367.98	1703.91
368.18	1777.64
368.39	1720.29
368.60	1638.38
368.81	1761.25
369.02	1693.67
369.23	1732.58
369.44	1585.13
369.65	1671.14
369.86	1656.81
370.07	1753.06
370.28	1648.61
370.49	1759.21
370.70	1763.30
370.91	1699.81
371.12	1640.42
371.33	1843.17
371.54	1730.53
371.75	1822.69
371.96	1617.90
372.17	1712.10
372.38	1634.28
372.59	1720.29
372.80	1689.57
373.01	1683.43
373.22	1703.91
373.43	1673.19
373.64	1615.85
373.85	1832.93
374.06	1837.03
374.26	1740.77
374.47	1834.98
374.68	1824.74
374.89	1716.20
375.10	1712.10
375.31	1865.70
375.52	1800.16
375.73	1714.15
375.94	1613.80
376.15	1794.02
376.36	1693.67
376.57	1708.01
376.78	1691.62
376.99	1740.77
377.20	1816.55
377.40	1681.38
377.61	1873.89
377.82	1796.07
378.03	1773.54
378.24	1730.53
378.45	1757.16
378.66	1720.29
378.87	1621.99
379.08	1654.76
379.29	1744.87
379.50	1738.73
379.71	1689.57
379.91	1716.20
380.12	1683.43
380.33	1757.16
380.54	1665.00
380.75	1736.68
380.96	1701.86
381.17	1722.34
381.38	1753.06
381.59	1714.15
381.80	1783.78
382.00	1886.18
382.21	1734.63
382.42	1812.45
382.63	1861.60
382.84	1789.92
383.05	1757.16
383.26	1877.99
383.47	1767.40
383.68	1771.49
383.88	1791.97
384.09	1718.25
384.30	1796.07
384.51	1744.87
384.72	1691.62
384.93	1642.47
385.14	1695.72
385.35	1765.35
385.55	1644.52
385.76	1724.39
385.97	1640.42
386.18	1609.70
386.39	1703.91
386.60	1665.00
386.81	1708.01
387.02	1652.71
387.22	1753.06
387.43	1742.82
387.64	1736.68
387.85	1925.09
388.06	2146.27
388.27	4302.78
388.48	6621.08
388.68	8138.63
388.89	9504.62
389.10	9455.47
389.31	8458.11
389.52	7427.98
389.73	6680.47
389.93	6023.08
390.14	5664.68
390.35	5142.45
390.56	4544.44
390.77	3774.41
390.98	3059.67
391.18	2525.15
391.39	2107.36
391.60	1814.50
391.81	1826.79
392.02	1787.88
392.23	1837.03
392.43	1783.78
392.64	1873.89
392.85	1744.87
393.06	1806.31
393.27	1767.40
393.47	1646.57
393.68	1720.29
393.89	1605.61
394.10	1787.88
394.31	1671.14
394.52	1687.53
394.72	1689.57
394.93	1812.45
395.14	1681.38
395.35	1728.49
395.56	1687.53
395.76	1726.44
395.97	1834.98
396.18	1763.30
396.39	1777.64
396.60	2054.11
396.80	1888.23
397.01	1828.84
397.22	1855.46
397.43	1894.37
397.64	1785.83
397.84	1826.79
398.05	1925.09
398.26	1816.55
398.47	1808.36
398.67	1763.30
398.88	1695.72
399.09	1814.50
399.30	1701.86
399.51	1753.06
399.71	1763.30
399.92	1693.67
400.13	1761.25
400.34	1708.01
400.54	1699.81
400.75	1812.45
400.96	1753.06
401.17	1865.70
401.37	1804.26
401.58	1683.43
401.79	1705.96
402.00	1845.22
402.21	2029.54
402.41	1886.18
402.62	1986.53
402.83	2054.11
403.04	1964.00
403.24	2144.22
403.45	1880.04
403.66	1914.85
403.87	1884.13
404.07	1931.23
404.28	1947.62
404.49	1931.23
404.70	1826.79
404.90	1816.55
405.11	1732.58
405.32	1787.88
405.52	1767.40
405.73	1632.23
405.94	1665.00
406.15	1751.01
406.35	1742.82
406.56	1654.76
406.77	1748.97
406.98	1771.49
407.18	1697.77
407.39	1816.55
407.60	1701.86
407.80	1781.73
408.01	1730.53
408.22	1824.74
408.43	1701.86
408.63	1763.30
408.84	1779.68
409.05	1710.05
409.25	1681.38
409.46	1693.67
409.67	1691.62
409.88	1753.06
410.08	1730.53
410.29	1705.96
410.50	1716.20
410.70	1736.68
410.91	1683.43
411.12	1726.44
411.32	1685.48
411.53	1660.90
411.74	1779.68
411.95	1843.17
412.15	1726.44
412.36	1798.12
412.57	1734.63
412.77	1843.17
412.98	1705.96
413.19	1697.77
413.39	1734.63
413.60	1744.87
413.81	1763.30
414.01	1607.66
414.22	1777.64
414.43	1734.63
414.63	1632.23
414.84	1796.07
415.05	1687.53
415.25	1652.71
415.46	1746.92
415.67	1685.48
415.87	1650.66
416.08	1753.06
416.29	1699.81
416.49	1804.26
416.70	1626.09
416.91	1658.85
417.11	1724.39
417.32	1767.40
417.53	1779.68
417.73	1732.58
417.94	1652.71
418.15	1699.81
418.35	1693.67
418.56	1718.25
418.77	1890.28
418.97	1712.10
419.18	1757.16
419.38	1556.46
419.59	1738.73
419.80	1837.03
420.00	1751.01
420.21	1742.82
420.42	1744.87
420.62	1800.16
420.83	1644.52
421.04	1667.05
421.24	1671.14
421.45	1869.80
421.65	1771.49
421.86	1636.33
422.07	1734.63
422.27	1822.69
422.48	1773.54
422.69	1738.73
422.89	1722.34
423.10	1691.62
423.30	1669.09
423.51	1736.68
423.72	1771.49
423.92	1759.21
424.13	1646.57
424.33	1757.16
424.54	1814.50
424.75	1681.38
424.95	1818.60
425.16	1714.15
425.36	1755.11
425.57	1658.85
425.78	1787.88
425.98	1820.64
426.19	1642.47
426.39	1671.14
426.60	1712.10
426.81	1773.54
427.01	1734.63
427.22	1722.34
427.42	1587.18
427.63	1673.19
427.83	1816.55
428.04	1888.23
428.25	1787.88
428.45	1773.54
428.66	1816.55
428.86	1787.88
429.07	1714.15
429.28	1691.62
429.48	1716.20
429.69	1615.85
429.89	1734.63
430.10	1615.85
430.30	1779.68
430.51	1800.16
430.71	1683.43
430.92	1767.40
431.13	1714.15
431.33	1732.58
431.54	1824.74
431.74	1851.36
431.95	1785.83
432.15	1624.04
432.36	1712.10
432.56	1789.92
432.77	1794.02
432.98	1816.55
433.18	1746.92
433.39	1689.57
433.59	1804.26
433.80	1914.85
434.00	1837.03
434.21	1763.30
434.41	1712.10
434.62	1882.08
434.82	1679.33
435.03	1683.43
435.23	1648.61
435.44	1652.71
435.64	1677.29
435.85	1767.40
436.06	1781.73
436.26	1822.69
436.47	1669.09
436.67	1718.25
436.88	1804.26
437.08	1787.88
437.29	1820.64
437.49	1740.77
437.70	1802.21
437.90	1828.84
438.11	1894.37
438.31	1849.32
438.52	1849.32
438.72	1824.74
438.93	1873.89
439.13	1785.83
439.34	1816.55
439.54	1667.05
439.75	1791.97
439.95	1753.06
440.16	1759.21
440.36	1828.84
440.57	1759.21
440.77	1882.08
440.98	1730.53
441.18	1767.40
441.39	1779.68
441.59	1632.23
441.80	1824.74
442.00	1726.44
442.21	1800.16
442.41	1730.53
442.62	1771.49
442.82	1744.87
443.02	1748.97
443.23	1736.68
443.43	1665.00
443.64	1779.68
443.84	1634.28
444.05	1775.59
444.25	1751.01
444.46	1734.63
444.66	1775.59
444.87	1927.14
445.07	1658.85
445.28	1732.58
445.48	1775.59
445.69	1789.92
445.89	1820.64
446.09	1755.11
446.30	2058.21
446.50	2637.78
446.71	3708.87
446.91	4310.97
447.12	4741.05
447.32	4810.68
447.53	4243.39
447.73	3860.42
447.93	3606.47
448.14	3246.03
448.34	3264.46
448.55	2895.83
448.75	2863.06
448.96	2748.37
449.16	2451.42
449.36	2269.15
449.57	2078.69
449.77	1877.99
449.98	1789.92
450.18	1847.27
450.39	1865.70
450.59	1773.54
450.79	1708.01
451.00	1787.88
451.20	1834.98
451.41	1775.59
451.61	1796.07
451.81	1736.68
452.02	1736.68
452.22	1689.57
452.43	1665.00
452.63	1693.67
452.84	1791.97
453.04	1744.87
453.24	1757.16
453.45	1675.24
453.65	1710.05
453.86	1767.40
454.06	1775.59
454.26	1722.34
454.47	1757.16
454.67	1777.64
454.87	1771.49
455.08	1847.27
455.28	1906.66
455.49	1691.62
455.69	1716.20
455.89	1904.61
456.10	1859.56
456.30	1759.21
456.51	1744.87
456.71	1755.11
456.91	1738.73
457.12	1748.97
457.32	1779.68
457.52	1767.40
457.73	1769.44
457.93	1730.53
458.14	1759.21
458.34	1708.01
458.54	1724.39
458.75	1761.25
458.95	1814.50
459.15	1716.20
459.36	1794.02
459.56	1738.73
459.76	1826.79
459.97	1771.49
460.17	1736.68
460.37	1800.16
460.58	1755.11
460.78	1769.44
460.99	1732.58
461.19	1744.87
461.39	1722.34
461.60	1763.30
461.80	1802.21
462.00	1615.85
462.21	1734.63
462.41	1685.48
462.61	1613.80
462.82	1652.71
463.02	1755.11
463.22	1798.12
463.43	1822.69
463.63	1726.44
463.83	1808.36
464.04	1730.53
464.24	1708.01
464.44	1730.53
464.64	1777.64
464.85	1824.74
465.05	1843.17
465.25	1796.07
465.46	1757.16
465.66	1837.03
465.86	1798.12
466.07	1746.92
466.27	1673.19
466.47	1630.18
466.68	1607.66
466.88	1853.41
467.08	1757.16
467.29	1761.25
467.49	1703.91
467.69	1716.20
467.89	1859.56
468.10	1755.11
468.30	1740.77
468.50	1851.36
468.71	1853.41
468.91	1656.81
469.11	1783.78
469.31	1730.53
469.52	1685.48
469.72	1873.89
469.92	1898.47
470.13	1695.72
470.33	1783.78
470.53	1759.21
470.73	2189.28
470.94	2336.73
471.14	2314.20
471.34	2574.30
471.54	2502.62
471.75	2228.19
471.95	2226.14
472.15	2140.13
472.36	2150.37
472.56	2127.84
472.76	2117.60
472.96	2090.98
473.17	1933.28
473.37	1900.52
473.57	1765.35
473.77	1814.50
473.98	1681.38
474.18	1751.01
474.38	1859.56
474.58	1683.43
474.79	1691.62
474.99	1742.82
475.19	1771.49
475.39	1695.72
475.60	1777.64
475.80	1718.25
476.00	1742.82
476.20	1650.66
476.41	1755.11
476.61	1826.79
476.81	1796.07
477.01	1665.00
477.21	1906.66
477.42	1853.41
477.62	1740.77
477.82	1751.01
478.02	1695.72
478.23	1710.05
478.43	1708.01
478.63	1771.49
478.83	1710.05
479.03	1783.78
479.24	1802.21
479.44	1863.65
479.64	1734.63
479.84	1640.42
480.04	1644.52
480.25	1785.83
480.45	1734.63
480.65	1720.29
480.85	1748.97
481.06	1718.25
481.26	1763.30
481.46	1748.97
481.66	1746.92
481.86	1681.38
482.06	1746.92
482.27	1699.81
482.47	1656.81
482.67	1697.77
482.87	1621.99
483.07	1755.11
483.28	1738.73
483.48	1619.94
483.68	1761.25
483.88	1734.63
484.08	1585.13
484.29	1751.01
484.49	1699.81
484.69	1665.00
484.89	1814.50
485.09	1763.30
485.29	1771.49
485.50	1761.25
485.70	1712.10
485.90	1781.73
486.10	1695.72
486.30	1775.59
486.50	1779.68
486.71	1781.73
486.91	1769.44
487.11	1851.36
487.31	1652.71
487.51	1748.97
487.71	1646.57
487.91	1736.68
488.12	1687.53
488.32	1626.09
488.52	1769.44
488.72	1660.90
488.92	1732.58
489.12	1818.60
489.32	1804.26
489.53	1824.74
489.73	1695.72
489.93	1935.33
490.13	1705.96
490.33	1742.82
490.53	1720.29
490.73	1808.36
490.94	1699.81
491.14	1857.51
491.34	1910.75
491.54	2107.36
491.74	2678.74
491.94	2910.16
492.14	2904.02
492.34	3039.19
492.54	2758.61
492.75	2475.99
492.95	2457.56
493.15	2330.59
493.35	2252.77
493.55	2189.28
493.75	2172.89
493.95	2158.56
494.15	2050.02
494.35	1943.52
494.56	1900.52
494.76	1845.22
494.96	1738.73
495.16	1861.60
495.36	1753.06
495.56	1683.43
495.76	1714.15
495.96	1724.39
496.16	1716.20
496.36	1773.54
496.56	1681.38
496.77	1787.88
496.97	1761.25
497.17	1832.93
497.37	1693.67
497.57	1810.40
497.77	1759.21
497.97	1691.62
498.17	1708.01
498.37	1722.34
498.57	1789.92
498.77	1724.39
498.97	1832.93
499.17	1861.60
499.38	1814.50
499.58	1783.78
499.78	1812.45
499.98	1869.80
500.18	1765.35
500.38	1720.29
500.58	1990.63
500.78	2504.67
500.98	4394.94
501.18	5832.62
501.38	6805.40
501.58	7165.84
501.78	6547.36
501.98	5408.69
502.18	5015.48
502.38	4407.23
502.58	4136.90
502.78	3786.69
502.98	3545.03
503.18	3325.90
503.38	3092.43
503.59	2727.89
503.79	2701.27
503.99	2469.85
504.19	2297.82
504.39	2166.75
504.59	2181.09
504.79	2021.35
504.99	2027.49
505.19	1906.66
505.39	1851.36
505.59	1927.14
505.79	1931.23
505.99	1834.98
506.19	1785.83
506.39	1902.56
506.59	1738.73
506.79	1816.55
506.99	1804.26
507.19	1767.40
507.39	1734.63
507.59	1642.47
507.79	1738.73
507.99	1695.72
508.19	1728.49
508.39	1658.85
508.59	1810.40
508.79	1785.83
508.99	1816.55
509.19	1722.34
509.39	1812.45
509.59	1683.43
509.79	1718.25
509.99	1765.35
510.19	1914.85
510.39	1789.92
510.59	1705.96
510.79	1755.11
510.99	1734.63
511.19	1720.29
511.39	1761.25
511.59	1775.59
511.79	1781.73
511.99	1814.50
512.19	1865.70
512.38	1751.01
512.58	1728.49
512.78	1701.86
512.98	1822.69
513.18	1837.03
513.38	1687.53
513.58	1695.72
513.78	1736.68
513.98	1763.30
514.18	1714.15
514.38	1621.99
514.58	1757.16
514.78	1755.11
514.98	1681.38
515.18	1769.44
515.38	1710.05
515.58	1906.66
515.78	1777.64
515.98	1796.07
516.18	1826.79
516.38	1773.54
516.57	1734.63
516.77	1736.68
516.97	1800.16
517.17	1705.96
517.37	1646.57
517.57	1765.35
517.77	1712.10
517.97	1673.19
518.17	1736.68
518.37	1648.61
518.57	1806.31
518.77	1728.49
518.97	1751.01
519.16	1734.63
519.36	1841.12
519.56	1798.12
519.76	1701.86
519.96	1779.68
520.16	1843.17
520.36	1681.38
520.56	1855.46
520.76	1765.35
520.96	1753.06
521.16	1779.68
521.35	1822.69
521.55	1845.22
521.75	1771.49
521.95	1640.42
522.15	1714.15
522.35	1581.03
522.55	1744.87
522.75	1855.46
522.95	1724.39
523.14	1712.10
523.34	1751.01
523.54	1679.33
523.74	1843.17
523.94	1791.97
524.14	1667.05
524.34	1822.69
524.54	1837.03
524.73	1732.58
524.93	1759.21
525.13	1740.77
525.33	1636.33
525.53	1873.89
525.73	1800.16
525.93	1753.06
526.13	1732.58
526.32	1703.91
526.52	1802.21
526.72	1755.11
526.92	1697.77
527.12	1763.30
527.32	1703.91
527.52	1671.14
527.71	1812.45
527.91	1779.68
528.11	1787.88
528.31	1771.49
528.51	1781.73
528.71	1779.68
528.90	1832.93
529.10	1841.12
529.30	1847.27
529.50	1665.00
529.70	1794.02
529.90	1716.20
530.09	1812.45
530.29	1689.57
530.49	1695.72
530.69	1880.04
530.89	1742.82
531.09	1744.87
531.28	1722.34
531.48	1751.01
531.68	1814.50
531.88	1812.45
532.08	1779.68
532.28	1693.67
532.47	1804.26
532.67	1859.56
532.87	1740.77
533.07	1712.10
533.27	1877.99
533.46	1730.53
533.66	1783.78
533.86	1738.73
534.06	1714.15
534.26	1785.83
534.45	1748.97
534.65	1804.26
534.85	1726.44
535.05	1787.88
535.25	1714.15
535.44	1677.29
535.64	1708.01
535.84	1738.73
536.04	1716.20
536.24	1679.33
536.43	1685.48
536.63	1806.31
536.83	1771.49
537.03	1710.05
537.22	1748.97
537.42	1667.05
537.62	1820.64
537.82	1675.24
538.02	1845.22
538.21	1800.16
538.41	1888.23
538.61	1783.78
538.81	1757.16
539.00	1841.12
539.20	1685.48
539.40	1767.40
539.60	1800.16
539.79	1877.99
539.99	1765.35
540.19	1751.01
540.39	1738.73
540.58	1767.40
540.78	1783.78
540.98	1812.45
541.18	1826.79
541.37	1771.49
541.57	1685.48
541.77	1789.92
541.97	1705.96
542.16	1701.86
542.36	1714.15
542.56	1828.84
542.76	1798.12
542.95	1857.51
543.15	1708.01
543.35	1806.31
543.54	1724.39
543.74	1787.88
543.94	1871.84
544.14	1724.39
544.33	1787.88
544.53	1673.19
544.73	1757.16
544.93	1734.63
545.12	1730.53
545.32	1779.68
545.52	1703.91
545.71	1634.28
545.91	1691.62
546.11	1714.15
546.30	1667.05
546.50	1681.38
546.70	1888.23
546.90	1849.32
547.09	1665.00
547.29	1742.82
547.49	1693.67
547.68	1830.88
547.88	1710.05
548.08	1746.92
548.27	2150.37
548.47	1761.25
548.67	1669.09
548.87	1847.27
549.06	1746.92
549.26	1769.44
549.46	1763.30
549.65	1658.85
549.85	1781.73
550.05	1796.07
550.24	1626.09
550.44	1863.65
550.64	1755.11
550.83	1712.10
551.03	1824.74
551.23	1886.18
551.42	1742.82
551.62	1693.67
551.82	1712.10
552.01	1695.72
552.21	1800.16
552.41	1785.83
552.60	1781.73
552.80	1755.11
553.00	1685.48
553.19	1740.77
553.39	1875.94
553.59	1673.19
553.78	1808.36
553.98	1746.92
554.17	1617.90
554.37	1800.16
554.57	1837.03
554.76	1679.33
554.96	1681.38
555.16	1779.68
555.35	1759.21
555.55	1804.26
555.75	1787.88
555.94	1742.82
556.14	1642.47
556.33	1839.08
556.53	1712.10
556.73	1771.49
556.92	1830.88
557.12	1791.97
557.32	1841.12
557.51	1814.50
557.71	1781.73
557.90	1832.93
558.10	1884.13
558.30	1708.01
558.49	1746.92
558.69	1703.91
558.88	1871.84
559.08	1755.11
559.28	1779.68
559.47	1771.49
559.67	1824.74
559.86	1951.71
560.06	1845.22
560.26	1716.20
560.45	1834.98
560.65	1732.58
560.84	1837.03
561.04	1730.53
561.24	1841.12
561.43	1765.35
561.63	1832.93
561.82	1767.40
562.02	1824.74
562.22	1679.33
562.41	1667.05
562.61	1716.20
562.80	1703.91
563.00	1906.66
563.19	1798.12
563.39	1773.54
563.59	1820.64
563.78	1683.43
563.98	1683.43
564.17	1777.64
564.37	1677.29
564.56	1742.82
564.76	1593.32
564.96	1787.88
565.15	1617.90
565.35	1812.45
565.54	1734.63
565.74	1751.01
565.93	1724.39
566.13	1832.93
566.32	1746.92
566.52	1853.41
566.71	1736.68
566.91	1808.36
567.11	1781.73
567.30	1660.90
567.50	1880.04
567.69	1765.35
567.89	1765.35
568.08	1730.53
568.28	1730.53
568.47	1660.90
568.67	1843.17
568.86	1787.88
569.06	1816.55
569.25	1767.40
569.45	1638.38
569.64	1683.43
569.84	1710.05
570.04	1740.77
570.23	1697.77
570.43	1757.16
570.62	1744.87
570.82	1964.00
571.01	1736.68
571.21	1701.86
571.40	1665.00
571.60	1771.49
571.79	1681.38
571.99	1818.60
572.18	1648.61
572.38	1779.68
572.57	1755.11
572.77	1761.25
572.96	1884.13
573.16	1669.09
573.35	1779.68
573.55	1869.80
573.74	1783.78
573.94	1779.68
574.13	1728.49
574.33	1765.35
574.52	1882.08
574.71	1814.50
574.91	1765.35
575.10	1648.61
575.30	1695.72
575.49	1630.18
575.69	1787.88
575.88	1763.30
576.08	1738.73
576.27	1849.32
576.47	1736.68
576.66	1839.08
576.86	1775.59
577.05	1781.73
577.25	1738.73
577.44	1761.25
577.64	1701.86
577.83	1804.26
578.02	1814.50
578.22	1808.36
578.41	1859.56
578.61	1775.59
578.80	1687.53
579.00	1767.40
579.19	1714.15
579.39	1873.89
579.58	1837.03
579.77	1724.39
579.97	1763.30
580.16	1794.02
580.36	1886.18
580.55	1824.74
580.75	1742.82
580.94	1796.07
581.13	1877.99
581.33	1863.65
581.52	1726.44
581.72	1830.88
581.91	1845.22
582.11	1810.40
582.30	1894.37
582.49	1775.59
582.69	1873.89
582.88	1818.60
583.08	1740.77
583.27	1779.68
583.47	1726.44
583.66	1808.36
583.85	1691.62
584.05	1798.12
584.24	1822.69
584.44	1757.16
584.63	1789.92
584.82	1824.74
585.02	1859.56
585.21	1873.89
585.41	1906.66
585.60	1824.74
585.79	1906.66
585.99	1902.56
586.18	1834.98
586.37	2174.94
586.57	3420.11
586.76	9815.91
586.96	24331.92
587.15	33682.94
587.34	40146.33
587.54	41328.01
587.73	36277.72
587.93	25880.18
588.12	21157.57
588.31	17848.05
588.51	16115.47
588.70	14784.29
588.89	13920.04
589.09	12216.13
589.28	10727.26
589.47	9043.83
589.67	7690.12
589.86	6410.14
590.06	4782.01
590.25	3860.42
590.44	3155.92
590.64	2559.96
590.83	2234.33
591.02	2168.80
591.22	2058.21
591.41	1914.85
591.60	1875.94
591.80	1984.48
591.99	1759.21
592.18	1789.92
592.38	1847.27
592.57	1796.07
592.76	1738.73
592.96	1849.32
593.15	1759.21
593.34	1824.74
593.54	1781.73
593.73	1787.88
593.92	1812.45
594.12	1699.81
594.31	1763.30
594.50	1787.88
594.70	1771.49
594.89	1865.70
595.08	1669.09
595.28	1681.38
595.47	1996.77
595.66	1806.31
595.86	1640.42
596.05	1742.82
596.24	1746.92
596.43	1798.12
596.63	1773.54
596.82	1724.39
597.01	1767.40
597.21	1787.88
597.40	1828.84
597.59	1744.87
597.79	1767.40
597.98	1798.12
598.17	1769.44
598.36	1705.96
598.56	1746.92
598.75	1716.20
598.94	1785.83
599.14	1740.77
599.33	1791.97
599.52	1812.45
599.71	1744.87
599.91	1777.64
600.10	1812.45
600.29	1771.49
600.48	1781.73
600.68	1841.12
600.87	1812.45
601.06	1726.44
601.26	1753.06
601.45	1728.49
601.64	1746.92
601.83	1789.92
602.03	1716.20
602.22	1736.68
602.41	1777.64
602.60	1859.56
602.80	1857.51
602.99	1816.55
603.18	1765.35
603.37	1728.49
603.57	1742.82
603.76	1820.64
603.95	1853.41
604.14	1716.20
604.34	1681.38
604.53	1763.30
604.72	1810.40
604.91	1816.55
605.10	1812.45
605.30	1748.97
605.49	1896.42
605.68	1828.84
605.87	1791.97
606.07	1669.09
606.26	1763.30
606.45	1828.84
606.64	1763.30
606.84	1654.76
607.03	1804.26
607.22	1769.44
607.41	1632.23
607.60	1703.91
607.80	1867.75
607.99	1810.40
608.18	1740.77
608.37	1755.11
608.56	1775.59
608.76	1773.54
608.95	1820.64
609.14	1777.64
609.33	1830.88
609.52	1869.80
609.72	1757.16
609.91	1718.25
610.10	1734.63
610.29	1888.23
610.48	1796.07
610.68	1783.78
610.87	1755.11
611.06	1787.88
611.25	1703.91
611.44	1796.07
611.63	1638.38
611.83	1751.01
612.02	1724.39
612.21	1865.70
612.40	1621.99
612.59	1712.10
612.79	1660.90
612.98	1732.58
613.17	1751.01
613.36	1722.34
613.55	1824.74
613.74	1718.25
613.93	1806.31
614.13	1732.58
614.32	1697.77
614.51	1755.11
614.70	1734.63
614.89	1705.96
615.08	1779.68
615.28	1986.53
615.47	1689.57
615.66	1783.78
615.85	1681.38
616.04	1816.55
616.23	1691.62
616.42	1730.53
616.62	1796.07
616.81	1783.78
617.00	1738.73
617.19	1697.77
617.38	1708.01
617.57	1767.40
617.76	1744.87
617.95	1828.84
618.15	1736.68
618.34	1769.44
618.53	1644.52
618.72	1816.55
618.91	1826.79
619.10	1828.84
619.29	1708.01
619.48	1734.63
619.68	1572.84
619.87	1767.40
620.06	1695.72
620.25	1845.22
620.44	1695.72
620.63	1650.66
620.82	1720.29
621.01	1701.86
621.20	1804.26
621.39	1722.34
621.59	1763.30
621.78	1701.86
621.97	1753.06
622.16	1736.68
622.35	1777.64
622.54	1800.16
622.73	1841.12
622.92	1652.71
623.11	1845.22
623.30	1710.05
623.49	1781.73
623.68	1726.44
623.88	1789.92
624.07	1806.31
624.26	1683.43
624.45	1695.72
624.64	1769.44
624.83	1636.33
625.02	1761.25
625.21	1703.91
625.40	1855.46
625.59	1806.31
625.78	1736.68
625.97	1763.30
626.16	1783.78
626.35	1824.74
626.54	1730.53
626.74	1810.40
626.93	1714.15
627.12	1724.39
627.31	1810.40
627.50	1722.34
627.69	1730.53
627.88	1730.53
628.07	1724.39
628.26	1765.35
628.45	1748.97
628.64	1669.09
628.83	1816.55
629.02	1601.51
629.21	1824.74
629.40	1798.12
629.59	1671.14
629.78	1775.59
629.97	1734.63
630.16	1726.44
630.35	1714.15
630.54	1748.97
630.73	1742.82
630.92	1763.30
631.11	1681.38
631.30	1722.34
631.49	1767.40
631.68	1689.57
631.87	1767.40
632.06	1703.91
632.25	1896.42
632.44	1746.92
632.63	1697.77
632.82	1699.81
633.01	1648.61
633.20	1699.81
633.39	1675.24
633.58	1689.57
633.77	1742.82
633.96	1789.92
634.15	1748.97
634.34	1734.63
634.53	1748.97
634.72	1695.72
634.91	1660.90
635.10	1718.25
635.29	1820.64
635.48	1759.21
635.67	1705.96
635.86	1726.44
636.05	1714.15
636.24	1708.01
636.43	1697.77
636.62	1751.01
636.81	1605.61
637.00	1681.38
637.19	1787.88
637.38	1681.38
637.57	1746.92
637.76	1658.85
637.95	1765.35
638.14	1701.86
638.33	1736.68
638.52	1781.73
638.71	1728.49
638.89	1632.23
639.08	1849.32
639.27	1705.96
639.46	1718.25
639.65	1773.54
639.84	1738.73
640.03	1738.73
640.22	1765.35
640.41	1810.40
640.60	1656.81
640.79	1773.54
640.98	1636.33
641.17	1748.97
641.36	1744.87
641.55	1830.88
641.74	1648.61
641.92	1683.43
642.11	1714.15
642.30	1720.29
642.49	1744.87
642.68	1675.24
642.87	1751.01
643.06	1773.54
643.25	1738.73
643.44	1689.57
643.63	1658.85
643.82	1812.45
644.00	1648.61
644.19	1705.96
644.38	1787.88
644.57	1773.54
644.76	1798.12
644.95	1751.01
645.14	1751.01
645.33	1761.25
645.52	1710.05
645.71	1630.18
645.89	1671.14
646.08	1775.59
646.27	1748.97
646.46	1904.61
646.65	1693.67
646.84	1767.40
647.03	1677.29
647.22	1865.70
647.40	1708.01
647.59	1755.11
647.78	1634.28
647.97	1746.92
648.16	1671.14
648.35	1837.03
648.54	1783.78
648.73	1693.67
648.91	1814.50
649.10	1746.92
649.29	1689.57
649.48	1677.29
649.67	1753.06
649.86	1763.30
650.05	1732.58
650.23	1720.29
650.42	1652.71
650.61	1785.83
650.80	1751.01
650.99	1855.46
651.18	1798.12
651.36	1820.64
651.55	1718.25
651.74	1730.53
651.93	1730.53
652.12	1708.01
652.31	1783.78
652.49	1701.86
652.68	1701.86
652.87	1785.83
653.06	1724.39
653.25	1843.17
653.44	1746.92
653.62	1843.17
653.81	1705.96
654.00	1771.49
654.19	1785.83
654.38	1865.70
654.56	1802.21
654.75	1642.47
654.94	1693.67
655.13	1763.30
655.32	1726.44
655.51	1804.26
655.69	1681.38
655.88	1800.16
656.07	1691.62
656.26	1816.55
656.45	1660.90
656.63	1787.88
656.82	1791.97
657.01	1736.68
657.20	1660.90
657.38	1822.69
657.57	1708.01
657.76	1683.43
657.95	1763.30
658.14	1722.34
658.32	1665.00
658.51	1726.44
658.70	1738.73
658.89	1734.63
659.08	1685.48
659.26	1841.12
659.45	1755.11
659.64	1720.29
659.83	1712.10
660.01	1871.84
660.20	1685.48
660.39	1861.60
660.58	1669.09
660.76	1787.88
660.95	1673.19
661.14	1695.72
661.33	1650.66
661.51	1634.28
661.70	1742.82
661.89	1777.64
662.08	1763.30
662.26	1746.92
662.45	1650.66
662.64	1804.26
662.83	1728.49
663.01	1656.81
663.20	1679.33
663.39	1773.54
663.58	1732.58
663.76	1769.44
663.95	1742.82
664.14	1763.30
664.32	1746.92
664.51	1765.35
664.70	1603.56
664.89	1705.96
665.07	1736.68
665.26	1771.49
665.45	1634.28
665.64	1718.25
665.82	1669.09
666.01	1785.83
666.20	1687.53
666.38	1808.36
666.57	1789.92
666.76	2289.63
666.95	4536.25
667.13	10327.91
667.32	15089.43
667.51	17553.14
667.69	18816.74
667.88	17403.64
668.07	12150.60
668.25	9500.53
668.44	8093.57
668.63	7417.74
668.81	6793.11
669.00	6141.86
669.19	5627.82
669.38	4974.52
669.56	4515.77
669.75	3893.19
669.94	3454.92
670.12	2844.63
670.31	2463.71
670.50	2267.10
670.68	1992.67
670.87	1865.70
671.06	1871.84
671.24	1814.50
671.43	1800.16
671.62	1789.92
671.80	1714.15
671.99	1816.55
672.18	1808.36
672.36	1714.15
672.55	1783.78
672.74	1703.91
672.92	1789.92
673.11	1761.25
673.29	1656.81
673.48	1826.79
673.67	1759.21
673.85	1771.49
674.04	1714.15
674.23	1728.49
674.41	1800.16
674.60	1609.70
674.79	1642.47
674.97	1689.57
675.16	1798.12
675.34	1714.15
675.53	1675.24
675.72	1761.25
675.90	1875.94
676.09	1724.39
676.28	1714.15
676.46	1628.14
676.65	1775.59
676.83	1568.74
677.02	1693.67
677.21	1644.52
677.39	1724.39
677.58	1740.77
677.77	1730.53
677.95	1712.10
678.14	1814.50
678.32	1736.68
678.51	1665.00
678.70	1871.84
678.88	1699.81
679.07	1759.21
679.25	1748.97
679.44	1796.07
679.63	1697.77
679.81	1785.83
680.00	1740.77
680.18	1841.12
680.37	1880.04
680.55	1771.49
680.74	1650.66
680.93	1697.77
681.11	1744.87
681.30	1654.76
681.48	1820.64
681.67	1767.40
681.85	1718.25
682.04	1687.53
682.23	1794.02
682.41	1697.77
682.60	1689.57
682.78	1771.49
682.97	1611.75
683.15	1714.15
683.34	1781.73
683.53	1804.26
683.71	1669.09
683.90	1822.69
684.08	1804.26
684.27	1732.58
684.45	1828.84
684.64	1804.26
684.82	1714.15
685.01	1687.53
685.19	1761.25
685.38	1804.26
685.57	1683.43
685.75	1677.29
685.94	1689.57
686.12	1665.00
686.31	1644.52
686.49	1804.26
686.68	1636.33
686.86	1855.46
687.05	1650.66
687.23	1765.35
687.42	1677.29
687.60	1609.70
687.79	1804.26
687.97	1779.68
688.16	1841.12
688.34	1794.02
688.53	1675.24
688.71	1705.96
688.90	1775.59
689.08	1687.53
689.27	1687.53
689.45	1699.81
689.64	1734.63
689.82	1787.88
690.01	1656.81
690.19	1794.02
690.38	1753.06
690.56	1767.40
690.75	1654.76
690.93	1654.76
691.12	1759.21
691.30	1726.44
691.49	1636.33
691.67	1755.11
691.86	1861.60
692.04	1619.94
692.23	1671.14
692.41	1681.38
692.60	1820.64
692.78	1822.69
692.97	1724.39
693.15	1753.06
693.34	1787.88
693.52	1724.39
693.71	1669.09
693.89	1673.19
694.08	1609.70
694.26	1744.87
694.44	1796.07
694.63	1771.49
694.81	1656.81
695.00	1703.91
695.18	1761.25
695.37	1871.84
695.55	1779.68
695.74	1632.23
695.92	1656.81
696.10	1765.35
696.29	1646.57
696.47	1640.42
696.66	1699.81
696.84	1689.57
697.03	1667.05
697.21	1910.75
697.40	2349.02
697.58	1787.88
697.76	1718.25
697.95	1701.86
698.13	1562.60
698.32	1656.81
698.50	1779.68
698.68	1820.64
698.87	1724.39
699.05	1814.50
699.24	1744.87
699.42	1621.99
699.61	1773.54
699.79	1808.36
699.97	1687.53
700.16	1673.19
700.34	1718.25
700.53	1728.49
700.71	1814.50
700.89	1863.65
701.08	1583.08
701.26	1755.11
701.45	2256.86
701.63	1710.05
701.81	1771.49
702.00	1640.42
702.18	1761.25
702.37	1658.85
702.55	1703.91
702.73	1697.77
702.92	1662.95
703.10	1742.82
703.28	1656.81
703.47	1662.95
703.65	1824.74
703.84	1826.79
704.02	1646.57
704.20	1783.78
704.39	1677.29
704.57	1703.91
704.75	1785.83
704.94	1777.64
705.12	1761.25
705.30	1751.01
705.49	2303.96
705.67	4491.20
705.86	9383.79
706.04	12136.26
706.22	14257.96
706.41	15177.50
706.59	13598.51
706.77	9250.67
706.96	7188.37
707.14	6447.01
707.32	5814.18
707.51	5474.22
707.69	4825.01
707.87	4063.17
708.06	3499.98
708.24	3000.27
708.42	2451.42
708.61	2299.87
708.79	1984.48
708.97	1849.32
709.16	1886.18
709.34	1755.11
709.52	1767.40
709.71	1677.29
709.89	1789.92
710.07	1718.25
710.26	1767.40
710.44	1755.11
710.62	1724.39
710.80	1677.29
710.99	1738.73
711.17	1769.44
711.35	1769.44
711.54	1714.15
711.72	1775.59
711.90	1714.15
712.09	1720.29
712.27	1753.06
712.45	1767.40
712.63	1693.67
712.82	1783.78
713.00	1722.34
713.18	1705.96
713.37	1812.45
713.55	1755.11
713.73	1720.29
713.91	1726.44
714.10	1720.29
714.28	1705.96
714.46	1736.68
714.65	1730.53
714.83	1695.72
715.01	1732.58
715.19	1720.29
715.38	1619.94
715.56	1701.86
715.74	1695.72
715.92	1656.81
716.11	1781.73
716.29	1646.57
716.47	1691.62
716.65	1716.20
716.84	1697.77
717.02	1789.92
717.20	1669.09
717.38	1708.01
717.57	1744.87
717.75	1679.33
717.93	1742.82
718.11	1730.53
718.30	1714.15
718.48	1722.34
718.66	1806.31
718.84	1726.44
719.03	1667.05
719.21	1744.87
719.39	1812.45
719.57	1716.20
719.75	1767.40
719.94	1732.58
720.12	1662.95
720.30	1779.68
720.48	1783.78
720.67	1687.53
720.85	1628.14
721.03	1726.44
721.21	1648.61
721.39	1855.46
721.58	1662.95
721.76	1718.25
721.94	1816.55
722.12	1619.94
722.30	1779.68
722.49	1751.01
722.67	1665.00
722.85	1845.22
723.03	1660.90
723.21	1640.42
723.40	1714.15
723.58	1742.82
723.76	1712.10
723.94	1789.92
724.12	1673.19
724.30	1769.44
724.49	1781.73
724.67	1658.85
724.85	1863.65
725.03	1652.71
725.21	1638.38
725.40	1857.51
725.58	1701.86
725.76	1796.07
725.94	1734.63
726.12	1685.48
726.30	1763.30
726.49	1673.19
726.67	1646.57
726.85	1679.33
727.03	1871.84
727.21	2254.81
727.39	2942.93
727.57	3917.76
727.76	4329.41
727.94	4413.37
728.12	4358.08
728.30	3708.87
728.48	3004.37
728.66	2705.37
728.84	2557.91
729.03	2279.39
729.21	2181.09
729.39	1998.82
729.57	1843.17
729.75	1824.74
729.93	1935.33
730.11	1759.21
730.30	1751.01
730.48	1779.68
730.66	1849.32
730.84	1800.16
731.02	1759.21
731.20	1724.39
731.38	1787.88
731.56	1730.53
731.74	1619.94
731.93	1720.29
732.11	1697.77
732.29	1722.34
732.47	1726.44
732.65	1726.44
732.83	1773.54
733.01	1759.21
733.19	1624.04
733.37	1763.30
733.56	1689.57
733.74	1667.05
733.92	1777.64
734.10	1705.96
734.28	1855.46
734.46	1648.61
734.64	1660.90
734.82	1697.77
735.00	1701.86
735.18	1724.39
735.36	1703.91
735.54	1714.15
735.73	1673.19
735.91	1751.01
736.09	1755.11
736.27	1730.53
736.45	1787.88
736.63	1642.47
736.81	1607.66
736.99	1746.92
737.17	1914.85
737.35	1708.01
737.53	1669.09
737.71	1644.52
737.89	1824.74
738.07	1720.29
738.25	1595.37
738.43	1701.86
738.61	1658.85
738.80	1705.96
738.98	1644.52
739.16	1648.61
739.34	1630.18
739.52	1771.49
739.70	1712.10
739.88	1699.81
740.06	1679.33
740.24	1677.29
740.42	1742.82
740.60	1665.00
740.78	1648.61
740.96	1634.28
741.14	1665.00
741.32	1683.43
741.50	1679.33
741.68	1931.23
741.86	1861.60
742.04	1652.71
742.22	1632.23
742.40	1632.23
742.58	1808.36
742.76	1646.57
742.94	1753.06
743.12	1669.09
743.30	1761.25
743.48	1685.48
743.66	1703.91
743.84	1757.16
744.02	1720.29
744.20	1710.05
744.38	1648.61
744.56	1695.72
744.74	1779.68
744.92	1699.81
745.10	1861.60
745.28	1689.57
745.46	1802.21
745.64	1636.33
745.82	1746.92
746.00	1751.01
746.18	1742.82
746.36	1638.38
746.54	1730.53
746.72	1726.44
746.90	1587.18
747.08	1802.21
747.26	1722.34
747.44	1716.20
747.62	1761.25
747.80	1703.91
747.98	1804.26
748.15	1640.42
748.33	1816.55
748.51	1765.35
748.69	1732.58
748.87	1728.49
749.05	1734.63
749.23	1708.01
749.41	1693.67
749.59	1701.86
749.77	1783.78
749.95	1710.05
750.13	1687.53
750.31	1802.21
750.49	1652.71
750.67	1767.40
750.85	1783.78
751.03	1722.34
751.20	1816.55
751.38	1718.25
751.56	1656.81
751.74	1738.73
751.92	1714.15
752.10	1619.94
752.28	1824.74
752.46	1658.85
752.64	1775.59
752.82	1697.77
753.00	1640.42
753.18	1724.39
753.35	1710.05
753.53	1771.49
753.71	1710.05
753.89	1724.39
754.07	1691.62
754.25	1796.07
754.43	1710.05
754.61	1673.19
754.79	1734.63
754.97	1726.44
755.14	1779.68
755.32	1730.53
755.50	1726.44
755.68	1775.59
755.86	1628.14
756.04	1650.66
756.22	1585.13
756.40	1796.07
756.57	1812.45
756.75	1746.92
756.93	1757.16
757.11	1796.07
757.29	1689.57
757.47	1656.81
757.65	1636.33
757.82	1583.08
758.00	1628.14
758.18	1720.29
758.36	1714.15
758.54	1826.79
758.72	1648.61
758.90	1806.31
759.07	1718.25
759.25	1675.24
759.43	1710.05
759.61	1693.67
759.79	2115.55
759.97	1755.11
760.15	1720.29
760.32	1722.34
760.50	1697.77
760.68	1845.22
760.86	1644.52
761.04	1765.35
761.22	1796.07
761.39	1662.95
761.57	1763.30
761.75	1740.77
761.93	1720.29
762.11	1755.11
762.28	1710.05
762.46	1662.95
762.64	1832.93
762.82	1736.68
763.00	1730.53
763.18	1820.64
763.35	1603.56
763.53	1738.73
763.71	1730.53
763.89	1720.29
764.07	1699.81
764.24	1685.48
764.42	1699.81
764.60	1718.25
764.78	1703.91
764.96	1755.11
765.13	1812.45
765.31	1705.96
765.49	1753.06
765.67	1658.85
765.84	1609.70
766.02	1738.73
766.20	1621.99
766.38	1789.92
766.56	1710.05
766.73	1767.40
766.91	1740.77
767.09	1748.97
767.27	1773.54
767.44	1613.80
767.62	1781.73
767.80	1728.49
767.98	1689.57
768.15	1779.68
768.33	1798.12
768.51	1826.79
768.69	1748.97
768.87	1701.86
769.04	1701.86
769.22	1814.50
769.40	1765.35
769.58	1826.79
769.75	1757.16
769.93	1789.92
770.11	1724.39
770.28	1679.33
770.46	1746.92
770.64	1787.88
770.82	1675.24
770.99	1669.09
771.17	1681.38
771.35	1679.33
771.53	1665.00
771.70	1742.82
771.88	1736.68
772.06	1681.38
772.23	1673.19
772.41	1716.20
772.59	1613.80
772.77	1705.96
772.94	1710.05
773.12	1767.40
773.30	1597.42
773.47	1753.06
773.65	1650.66
773.83	1810.40
774.01	1720.29
774.18	1591.27
774.36	1673.19
774.54	1636.33
774.71	1812.45
774.89	1595.37
775.07	1677.29
775.24	1669.09
775.42	1660.90
775.60	1830.88
775.78	1748.97
775.95	1689.57
776.13	1607.66
776.31	1624.04
776.48	1708.01
776.66	1730.53
776.84	1675.24
777.01	1660.90
777.19	1740.77
777.37	1667.05
777.54	1724.39
777.72	1736.68
777.90	1705.96
778.07	1716.20
778.25	1910.75
778.43	1806.31
778.60	1671.14
778.78	1804.26
778.96	1837.03
779.13	1650.66
779.31	1695.72
779.49	1771.49
779.66	1724.39
779.84	1591.27
780.01	1732.58
780.19	1679.33
780.37	1802.21
780.54	1746.92
780.72	1708.01
780.90	1679.33
781.07	1675.24
781.25	1738.73
781.43	1726.44
781.60	1644.52
781.78	1755.11
781.95	1738.73
782.13	1736.68
782.31	1757.16
782.48	1644.52
782.66	1763.30
782.83	1826.79
783.01	1757.16
783.19	1734.63
783.36	1746.92
783.54	1691.62
783.72	1798.12
783.89	1619.94
784.07	1712.10
784.24	1705.96
784.42	1855.46
784.60	1751.01
784.77	1751.01
784.95	1628.14
785.12	1656.81
785.30	1763.30
785.47	1693.67
785.65	1603.56
785.83	1687.53
786.00	1656.81
786.18	1712.10
786.35	1624.04
786.53	1634.28
786.71	1746.92
786.88	1751.01
787.06	1691.62
787.23	1697.77
787.41	1681.38
787.58	1669.09
787.76	1673.19
787.94	1595.37
788.11	1761.25
788.29	1642.47
788.46	1640.42
788.64	1669.09
788.81	1730.53
788.99	1703.91
789.16	1656.81
789.34	1732.58
789.52	1619.94
789.69	1658.85
789.87	1603.56
790.04	1720.29
790.22	1734.63
790.39	1877.99
790.57	1689.57
790.74	1710.05
790.92	1718.25
791.09	1640.42
791.27	1761.25
791.44	1763.30
791.62	1697.77
791.79	1751.01
791.97	1667.05
792.15	1849.32
792.32	1757.16
792.50	1812.45
792.67	1812.45
792.85	1775.59
793.02	1751.01
793.20	1714.15
793.37	1658.85
793.55	1705.96
793.72	1554.41
793.90	1777.64
794.07	1710.05
794.25	1705.96
794.42	1781.73
794.60	1738.73
794.77	1701.86
794.95	1761.25
795.12	1781.73
795.30	1621.99
795.47	1638.38
795.65	1853.41
795.82	1714.15
796.00	1708.01
796.17	1673.19
796.34	1695.72
796.52	1759.21
796.69	1746.92
796.87	1816.55
797.04	1742.82
797.22	1845.22
797.39	1710.05
797.57	1765.35
797.74	1665.00
797.92	1710.05
798.09	1630.18
798.27	1773.54
798.44	1705.96
798.62	1613.80
798.79	1720.29
798.96	1701.86
799.14	1632.23
799.31	1869.80
799.49	1732.58
799.66	1671.14
799.84	1656.81
800.01	1630.18
800.19	1681.38
800.36	1634.28
800.53	1703.91
800.71	1726.44
800.88	1736.68
801.06	1667.05
801.23	1665.00
801.41	1681.38
801.58	1646.57
801.75	1621.99
801.93	1726.44
802.10	1681.38
802.28	1724.39
802.45	1656.81
802.63	1757.16
802.80	1742.82
802.97	1656.81
803.15	1744.87
803.32	1800.16
803.50	1652.71
803.67	1701.86
803.84	1662.95
804.02	1736.68
804.19	1701.86
804.37	1656.81
804.54	1726.44
804.71	1740.77
804.89	1746.92
805.06	1685.48
805.24	1730.53
805.41	1695.72
805.58	1705.96
805.76	1779.68
805.93	1685.48
806.10	1744.87
806.28	1701.86
806.45	1736.68
806.63	1757.16
806.80	1757.16
806.97	1730.53
807.15	1701.86
807.32	1722.34
807.49	1728.49
807.67	1617.90
807.84	1695.72
808.01	1599.46
808.19	1843.17
808.36	1918.95
808.54	1755.11
808.71	1697.77
808.88	1757.16
809.06	1730.53
809.23	1748.97
809.40	1648.61
809.58	1722.34
809.75	1724.39
809.92	1650.66
810.10	1853.41
810.27	1699.81
810.44	1740.77
810.62	1744.87
810.79	1728.49
810.96	1648.61
811.14	1615.85
811.31	1728.49
811.48	1769.44
811.66	1654.76
811.83	1806.31
812.00	1701.86
812.18	1783.78
812.35	1820.64
812.52	1759.21
812.69	1708.01
812.87	1701.86
813.04	1685.48
813.21	1716.20
813.39	1716.20
813.56	1718.25
813.73	1843.17
813.91	1601.51
814.08	1777.64
814.25	1701.86
814.42	1624.04
814.60	1722.34
814.77	1732.58
814.94	1744.87
815.12	1755.11
815.29	1794.02
815.46	1621.99
815.63	1701.86
815.81	1740.77
815.98	1673.19
816.15	1642.47
816.33	1783.78
816.50	1705.96
816.67	1767.40
816.84	1705.96
817.02	1658.85
817.19	1732.58
817.36	1763.30
817.53	1755.11
817.71	1677.29
817.88	1755.11
818.05	1658.85
818.22	1669.09
818.40	1812.45
818.57	1632.23
818.74	1693.67
818.91	1714.15
819.09	1748.97
819.26	1783.78
819.43	1701.86
819.60	1646.57
819.78	1720.29
819.95	1824.74
820.12	1662.95
820.29	1818.60
820.47	1714.15
820.64	1656.81
820.81	1667.05
820.98	1636.33
821.15	1759.21
821.33	1740.77
821.50	1699.81
821.67	1744.87
821.84	1687.53
822.02	1677.29
822.19	1808.36
822.36	1691.62
822.53	1720.29
822.70	1662.95
822.88	1677.29
823.05	1804.26
823.22	1742.82
823.39	1759.21
823.56	1660.90
823.74	1771.49
823.91	1679.33
824.08	1652.71
824.25	1646.57
824.42	1810.40
824.60	1619.94
824.77	1677.29
824.94	1767.40
825.11	1703.91
825.28	1624.04
825.45	1746.92
825.63	1722.34
825.80	1652.71
825.97	1781.73
826.14	1671.14
826.31	1667.05
826.48	1718.25
826.66	1669.09
826.83	1708.01
827.00	1759.21
827.17	1728.49
827.34	1695.72
827.51	1691.62
827.69	1744.87
827.86	1607.66
828.03	1746.92
828.20	1697.77
828.37	1703.91
828.54	1738.73
828.71	1703.91
828.89	1869.80
829.06	1660.90
829.23	1742.82
829.40	1697.77
829.57	1665.00
829.74	1689.57
829.91	1605.61
830.09	1677.29
830.26	1787.88
830.43	1837.03
830.60	1708.01
830.77	1777.64
830.94	1787.88
831.11	1751.01
831.28	1687.53
831.46	1765.35
831.63	1701.86
831.80	1701.86
831.97	1599.46
832.14	1695.72
832.31	1767.40
832.48	1763.30
832.65	1771.49
832.82	1761.25
832.99	1751.01
833.17	1669.09
833.34	1816.55
833.51	1798.12
833.68	1613.80
833.85	1769.44
834.02	1669.09
834.19	1654.76
834.36	1705.96
834.53	1789.92
834.70	1767.40
834.87	1814.50
835.04	1716.20
835.22	1644.52
835.39	1650.66
835.56	1669.09
835.73	1708.01
835.90	1722.34
836.07	1658.85
836.24	1763.30
836.41	1662.95
836.58	1732.58
836.75	1734.63
836.92	1781.73
837.09	1595.37
837.26	1748.97
837.43	1714.15
837.60	1736.68
837.77	1603.56
837.94	1759.21
838.12	1732.58
838.29	1748.97
838.46	1630.18
838.63	1628.14
838.80	1773.54
838.97	1748.97
839.14	1728.49
839.31	1667.05
839.48	1806.31
839.65	1671.14
839.82	1728.49
839.99	1755.11
840.16	1726.44
840.33	1703.91
840.50	1685.48
840.67	1574.89
840.84	1648.61
841.01	1728.49
841.18	1640.42
841.35	1789.92
841.52	1771.49
841.69	1853.41
841.86	1748.97
842.03	1701.86
842.20	1755.11
842.37	1726.44
842.54	1740.77
842.71	1689.57
842.88	1710.05
843.05	1759.21
843.22	1718.25
843.39	1761.25
843.56	1693.67
843.73	1675.24
843.90	1687.53
844.07	1718.25
844.24	1818.60
844.41	1781.73
844.58	1703.91
844.75	1710.05
844.92	1634.28
845.09	1681.38
845.26	1722.34
845.43	1718.25
845.60	1660.90
845.77	1708.01
845.94	1808.36
846.10	1759.21
846.27	1597.42
846.44	1718.25
846.61	1734.63
846.78	1769.44
846.95	1755.11
847.12	1619.94
847.29	1669.09
847.46	1671.14
847.63	1771.49
847.80	1777.64
847.97	1714.15
848.14	1882.08
848.31	1681.38
848.48	1615.85
848.65	1734.63
848.82	1710.05
848.98	1910.75
849.15	1685.48
849.32	1888.23
849.49	1767.40
849.66	1742.82
849.83	1732.58
850.00	1673.19
850.17	1781.73
850.34	1785.83
850.51	1703.91
850.68	1669.09
850.85	1855.46
851.01	1708.01
851.18	1687.53
851.35	1714.15
851.52	1693.67
851.69	1806.31
851.86	1619.94
852.03	1769.44
852.20	1771.49
852.37	1761.25
852.53	1654.76
852.70	1757.16
852.87	1744.87
853.04	1767.40
853.21	1699.81
853.38	1791.97
853.55	1798.12
853.72	1771.49
853.89	1607.66
854.05	1734.63
854.22	1726.44
854.39	1619.94
854.56	1748.97
854.73	1791.97
854.90	1660.90
855.07	1683.43
855.23	1654.76
855.40	1654.76
855.57	1673.19
855.74	1634.28
855.91	1927.14
856.08	1619.94
856.25	1621.99
856.41	1605.61
856.58	1748.97
856.75	1681.38
856.92	1667.05
857.09	1763.30
857.26	1593.32
857.42	1771.49
857.59	1701.86
857.76	1722.34
857.93	1673.19
858.10	1769.44
858.27	1726.44
858.43	1714.15
858.60	1689.57
858.77	1665.00
858.94	1728.49
859.11	1822.69
859.27	1740.77
859.44	1697.77
859.61	1826.79
859.78	1734.63
859.95	1718.25
860.12	1638.38
860.28	1900.52
860.45	1837.03
860.62	1742.82
860.79	1726.44
860.95	1662.95
861.12	1710.05
861.29	1665.00
861.46	1710.05
861.63	1689.57
861.79	1732.58
861.96	1679.33
862.13	1689.57
862.30	1800.16
862.47	1755.11
862.63	1638.38
862.80	1734.63
862.97	1751.01
863.14	1828.84
863.30	1773.54
863.47	1621.99
863.64	1855.46
863.81	1658.85
863.97	1630.18
864.14	1742.82
864.31	1705.96
864.48	1771.49
864.65	1689.57
864.81	1755.11
864.98	1718.25
865.15	1808.36
865.32	1751.01
865.48	1775.59
865.65	1742.82
865.82	1624.04
865.98	1720.29
866.15	1810.40
866.32	1656.81
866.49	1691.62
866.65	1705.96
866.82	1669.09
866.99	1732.58
867.16	1703.91
867.32	1689.57
867.49	1779.68
867.66	1724.39
867.83	1626.09
867.99	1644.52
868.16	1679.33
868.33	1699.81
868.49	1736.68
868.66	1679.33
868.83	1738.73
868.99	1658.85
869.16	1642.47
869.33	1720.29
869.50	1771.49
869.66	1695.72
869.83	1687.53
870.00	1667.05
870.16	1783.78
870.33	1617.90
870.50	1773.54
870.66	1673.19
870.83	1814.50
871.00	1738.73
871.17	1734.63
871.33	1753.06
871.50	1677.29
871.67	1695.72
871.83	1652.71
872.00	1787.88
872.17	1687.53
872.33	1798.12
872.50	1677.29
872.67	1648.61
872.83	1697.77
873.00	1742.82
873.17	1730.53
873.33	1738.73
873.50	1755.11
873.67	1716.20
873.83	1652.71
874.00	1763.30
874.16	1791.97
874.33	1705.96
874.50	1634.28
874.66	1742.82
874.83	1693.67
875.00	1800.16
875.16	1703.91
875.33	1705.96
875.50	1583.08
875.66	1683.43
875.83	1703.91
875.99	1757.16
876.16	1732.58
876.33	1597.42
876.49	1716.20
876.66	1646.57
876.83	1648.61
876.99	1556.46
877.16	1673.19
877.32	1757.16
877.49	1701.86
877.66	1787.88
877.82	1830.88
877.99	1716.20
878.15	1773.54
878.32	1755.11
878.49	1630.18
878.65	1722.34
878.82	1714.15
878.98	1697.77
879.15	1728.49
879.32	1701.86
879.48	1716.20
879.65	1640.42
879.81	1613.80
879.98	1636.33
880.15	1740.77
880.31	1726.44
880.48	1619.94
880.64	1804.26
880.81	1738.73
880.97	1794.02
881.14	1738.73
881.31	1683.43
881.47	1871.84
881.64	1636.33
881.80	1632.23
881.97	1759.21
882.13	1759.21
882.30	1681.38
882.47	1656.81
882.63	1607.66
882.80	1675.24
882.96	1689.57
883.13	1708.01
883.29	1683.43
883.46	1732.58
883.62	1816.55
883.79	1603.56
883.95	1746.92
884.12	1650.66
884.29	1789.92
884.45	1693.67
884.62	1771.49
884.78	1677.29
884.95	1818.60
885.11	1728.49
885.28	1738.73
885.44	1681.38
885.61	1806.31
885.77	1716.20
885.94	1775.59
886.10	1759.21
886.27	1755.11
886.43	1822.69
886.60	1767.40
886.76	1697.77
886.93	1701.86
887.09	1785.83
887.26	1691.62
887.42	1742.82
887.59	1818.60
887.75	1826.79
887.92	1736.68
888.08	1763.30
888.25	1794.02
888.41	1806.31
888.58	1726.44
888.74	1673.19
888.91	1615.85
>>>>>End Processed Spectral Data<<<<<
