SpectraSuite Data File
++++++++++++++++++++++++++++++++++++
Date: Mon Jun 06 15:05:17 CEST 2016
User: root
Dark Spectrum Present: No
Reference Spectrum Present: No
Number of Sampled Component Spectra: 1
Spectrometers: USB4C02835
Integration Time (usec): 100000 (USB4C02835)
Spectra Averaged: 1 (USB4C02835)
Boxcar Smoothing: 0 (USB4C02835)
Correct for Electrical Dark: No (USB4C02835)
Strobe/Lamp Enabled: No (USB4C02835)
Correct for Detector Non-linearity: No (USB4C02835)
Correct for Stray Light: No (USB4C02835)
Number of Pixels in Processed Spectrum: 3648
>>>>>Begin Processed Spectral Data<<<<<
177.47	1478.63
177.69	1478.63
177.91	1478.63
178.13	1445.87
178.36	1443.82
178.58	1710.05
178.80	1695.72
179.02	1634.28
179.24	1599.46
179.46	1695.72
179.68	1804.26
179.90	1751.01
180.13	1644.52
180.35	1634.28
180.57	1697.77
180.79	1669.09
181.01	1660.90
181.23	1800.16
181.45	1765.35
181.67	1710.05
181.90	1722.34
182.12	1587.18
182.34	1683.43
182.56	1718.25
182.78	1679.33
183.00	1759.21
183.22	1722.34
183.44	1634.28
183.66	1828.84
183.89	1785.83
184.11	1730.53
184.33	1716.20
184.55	1732.58
184.77	1759.21
184.99	1720.29
185.21	1710.05
185.43	1871.84
185.65	1656.81
185.87	1703.91
186.10	1796.07
186.32	1832.93
186.54	1742.82
186.76	1781.73
186.98	1738.73
187.20	1681.38
187.42	1628.14
187.64	1726.44
187.86	1832.93
188.08	1736.68
188.30	1617.90
188.52	1665.00
188.75	1812.45
188.97	1714.15
189.19	1615.85
189.41	1699.81
189.63	1658.85
189.85	1671.14
190.07	1632.23
190.29	1669.09
190.51	1730.53
190.73	1699.81
190.95	1791.97
191.17	1691.62
191.39	1621.99
191.61	1730.53
191.84	1671.14
192.06	1748.97
192.28	1626.09
192.50	1886.18
192.72	1746.92
192.94	1624.04
193.16	1714.15
193.38	1703.91
193.60	1621.99
193.82	1730.53
194.04	1828.84
194.26	1695.72
194.48	1634.28
194.70	1708.01
194.92	1660.90
195.14	1798.12
195.36	1656.81
195.58	1722.34
195.80	1640.42
196.02	1652.71
196.24	1634.28
196.46	1744.87
196.69	1675.24
196.91	1900.52
197.13	1714.15
197.35	1734.63
197.57	1763.30
197.79	1689.57
198.01	1697.77
198.23	1777.64
198.45	1712.10
198.67	1675.24
198.89	1724.39
199.11	1787.88
199.33	1724.39
199.55	1628.14
199.77	1763.30
199.99	1718.25
200.21	1660.90
200.43	1687.53
200.65	1611.75
200.87	1578.98
201.09	1718.25
201.31	1681.38
201.53	1732.58
201.75	1705.96
201.97	1769.44
202.19	1742.82
202.41	1738.73
202.63	1769.44
202.85	1730.53
203.07	1728.49
203.29	1716.20
203.51	1603.56
203.73	1644.52
203.95	1890.28
204.17	1691.62
204.39	1763.30
204.61	1738.73
204.83	1685.48
205.05	1763.30
205.27	1761.25
205.49	1773.54
205.71	1722.34
205.93	1615.85
206.15	1628.14
206.37	1724.39
206.59	1699.81
206.81	1773.54
207.03	1624.04
207.25	1609.70
207.47	1693.67
207.69	1726.44
207.91	1738.73
208.13	1791.97
208.34	1732.58
208.56	1642.47
208.78	1695.72
209.00	1658.85
209.22	1667.05
209.44	1683.43
209.66	1697.77
209.88	1679.33
210.10	1642.47
210.32	1705.96
210.54	1779.68
210.76	1748.97
210.98	1771.49
211.20	1603.56
211.42	1708.01
211.64	1681.38
211.86	1769.44
212.08	1697.77
212.30	1687.53
212.52	1660.90
212.74	1705.96
212.96	1744.87
213.17	1708.01
213.39	1759.21
213.61	1814.50
213.83	1615.85
214.05	1591.27
214.27	1708.01
214.49	1613.80
214.71	1681.38
214.93	1794.02
215.15	1716.20
215.37	1632.23
215.59	1640.42
215.81	1697.77
216.03	1818.60
216.24	1759.21
216.46	1703.91
216.68	1693.67
216.90	1775.59
217.12	1785.83
217.34	1718.25
217.56	1798.12
217.78	1724.39
218.00	1720.29
218.22	1751.01
218.44	1722.34
218.66	1759.21
218.87	1798.12
219.09	1642.47
219.31	1712.10
219.53	1701.86
219.75	1695.72
219.97	1683.43
220.19	1738.73
220.41	1699.81
220.63	1751.01
220.85	1759.21
221.06	1697.77
221.28	1800.16
221.50	1767.40
221.72	1736.68
221.94	1683.43
222.16	1726.44
222.38	1798.12
222.60	1738.73
222.82	1691.62
223.03	1691.62
223.25	1650.66
223.47	1771.49
223.69	1845.22
223.91	1652.71
224.13	1718.25
224.35	1687.53
224.57	1806.31
224.78	1730.53
225.00	1656.81
225.22	1755.11
225.44	1683.43
225.66	1771.49
225.88	1656.81
226.10	1798.12
226.32	1769.44
226.53	1826.79
226.75	1683.43
226.97	1695.72
227.19	1777.64
227.41	1585.13
227.63	1607.66
227.85	1585.13
228.06	1615.85
228.28	1658.85
228.50	1804.26
228.72	1624.04
228.94	1746.92
229.16	1603.56
229.37	1654.76
229.59	1658.85
229.81	1765.35
230.03	1701.86
230.25	1630.18
230.47	1681.38
230.69	1599.46
230.90	1769.44
231.12	1665.00
231.34	1693.67
231.56	1746.92
231.78	1658.85
232.00	1669.09
232.21	1714.15
232.43	1611.75
232.65	1603.56
232.87	1708.01
233.09	1683.43
233.30	1708.01
233.52	1748.97
233.74	1654.76
233.96	1628.14
234.18	1722.34
234.40	1730.53
234.61	1785.83
234.83	1626.09
235.05	1685.48
235.27	1849.32
235.49	1775.59
235.70	1791.97
235.92	1808.36
236.14	1724.39
236.36	1935.33
236.58	1626.09
236.79	1783.78
237.01	1710.05
237.23	1673.19
237.45	1779.68
237.67	1605.61
237.88	1722.34
238.10	1798.12
238.32	1673.19
238.54	1632.23
238.76	1705.96
238.97	1714.15
239.19	1658.85
239.41	1724.39
239.63	1804.26
239.85	1671.14
240.06	1679.33
240.28	1716.20
240.50	1716.20
240.72	1728.49
240.93	1716.20
241.15	1773.54
241.37	1695.72
241.59	1789.92
241.81	1679.33
242.02	1677.29
242.24	1722.34
242.46	1720.29
242.68	1660.90
242.89	1703.91
243.11	1728.49
243.33	1734.63
243.55	1738.73
243.76	1783.78
243.98	1665.00
244.20	1722.34
244.42	1681.38
244.64	1765.35
244.85	1597.42
245.07	1662.95
245.29	1710.05
245.51	1769.44
245.72	1753.06
245.94	1787.88
246.16	1693.67
246.38	1736.68
246.59	1681.38
246.81	1648.61
247.03	1705.96
247.24	1630.18
247.46	1734.63
247.68	1671.14
247.90	1660.90
248.11	1705.96
248.33	1775.59
248.55	1757.16
248.77	1800.16
248.98	1798.12
249.20	1828.84
249.42	1687.53
249.64	1685.48
249.85	1660.90
250.07	1652.71
250.29	1761.25
250.50	1826.79
250.72	1613.80
250.94	1714.15
251.16	1753.06
251.37	1738.73
251.59	1751.01
251.81	1822.69
252.02	1732.58
252.24	1628.14
252.46	1798.12
252.68	1599.46
252.89	1671.14
253.11	1585.13
253.33	1816.55
253.54	1787.88
253.76	1535.98
253.98	1755.11
254.20	1648.61
254.41	1742.82
254.63	1683.43
254.85	1624.04
255.06	1679.33
255.28	1763.30
255.50	1724.39
255.71	1648.61
255.93	1701.86
256.15	1662.95
256.36	1742.82
256.58	1701.86
256.80	1779.68
257.02	1636.33
257.23	1636.33
257.45	1775.59
257.67	1730.53
257.88	1652.71
258.10	1705.96
258.32	1662.95
258.53	1642.47
258.75	1804.26
258.97	1722.34
259.18	1732.58
259.40	1734.63
259.62	1785.83
259.83	1763.30
260.05	1748.97
260.27	1998.82
260.48	1769.44
260.70	1656.81
260.92	1695.72
261.13	1683.43
261.35	1732.58
261.57	1714.15
261.78	1617.90
262.00	1650.66
262.22	1703.91
262.43	1638.38
262.65	1724.39
262.86	1736.68
263.08	1853.41
263.30	1697.77
263.51	1632.23
263.73	1640.42
263.95	1783.78
264.16	1601.51
264.38	1685.48
264.60	1703.91
264.81	1656.81
265.03	1681.38
265.25	1685.48
265.46	1710.05
265.68	1767.40
265.89	1611.75
266.11	1644.52
266.33	1798.12
266.54	1734.63
266.76	1789.92
266.98	1769.44
267.19	1742.82
267.41	1720.29
267.62	1773.54
267.84	1595.37
268.06	1679.33
268.27	1710.05
268.49	1746.92
268.70	1755.11
268.92	1679.33
269.14	1726.44
269.35	1593.32
269.57	1791.97
269.79	1781.73
270.00	1675.24
270.22	1828.84
270.43	1691.62
270.65	1554.41
270.87	1779.68
271.08	1722.34
271.30	1701.86
271.51	1697.77
271.73	1726.44
271.95	1705.96
272.16	1775.59
272.38	1642.47
272.59	1685.48
272.81	1761.25
273.02	1744.87
273.24	1740.77
273.46	1751.01
273.67	1697.77
273.89	1607.66
274.10	1642.47
274.32	1687.53
274.54	1687.53
274.75	1730.53
274.97	1681.38
275.18	1779.68
275.40	1767.40
275.61	1736.68
275.83	1675.24
276.05	1574.89
276.26	1708.01
276.48	1705.96
276.69	1701.86
276.91	1665.00
277.12	1845.22
277.34	1755.11
277.55	1783.78
277.77	1767.40
277.99	1677.29
278.20	1652.71
278.42	1634.28
278.63	1720.29
278.85	1779.68
279.06	1578.98
279.28	1732.58
279.49	1730.53
279.71	1675.24
279.93	1722.34
280.14	1718.25
280.36	1734.63
280.57	1767.40
280.79	1804.26
281.00	1685.48
281.22	1621.99
281.43	1783.78
281.65	1646.57
281.86	1665.00
282.08	1734.63
282.29	1738.73
282.51	1683.43
282.73	1566.70
282.94	1703.91
283.16	1722.34
283.37	1837.03
283.59	1703.91
283.80	1755.11
284.02	1720.29
284.23	1751.01
284.45	1732.58
284.66	1662.95
284.88	1642.47
285.09	1691.62
285.31	1720.29
285.52	1779.68
285.74	1650.66
285.95	1669.09
286.17	1738.73
286.38	1771.49
286.60	1705.96
286.81	1648.61
287.03	1673.19
287.24	1697.77
287.46	1669.09
287.67	1769.44
287.89	1781.73
288.10	1701.86
288.32	1640.42
288.53	1791.97
288.75	1736.68
288.96	1716.20
289.18	1603.56
289.39	1734.63
289.61	1802.21
289.82	1773.54
290.04	1755.11
290.25	1640.42
290.47	1708.01
290.68	1683.43
290.90	1816.55
291.11	1656.81
291.33	1783.78
291.54	1644.52
291.76	1705.96
291.97	1722.34
292.18	1701.86
292.40	1617.90
292.61	1595.37
292.83	1794.02
293.04	1617.90
293.26	1767.40
293.47	1699.81
293.69	1714.15
293.90	1646.57
294.12	1761.25
294.33	1650.66
294.55	1644.52
294.76	1763.30
294.97	1781.73
295.19	1779.68
295.40	1691.62
295.62	1638.38
295.83	1718.25
296.05	1632.23
296.26	1789.92
296.48	1677.29
296.69	1720.29
296.90	1673.19
297.12	1783.78
297.33	1740.77
297.55	1603.56
297.76	1689.57
297.98	1775.59
298.19	1705.96
298.41	1722.34
298.62	1632.23
298.83	1810.40
299.05	1656.81
299.26	1705.96
299.48	1660.90
299.69	1683.43
299.90	1675.24
300.12	1665.00
300.33	1751.01
300.55	1697.77
300.76	1724.39
300.98	1615.85
301.19	1779.68
301.40	1705.96
301.62	1673.19
301.83	1695.72
302.05	1634.28
302.26	1714.15
302.47	1722.34
302.69	1535.98
302.90	1742.82
303.12	1648.61
303.33	1736.68
303.54	1789.92
303.76	1701.86
303.97	1736.68
304.19	1751.01
304.40	1630.18
304.61	1787.88
304.83	1861.60
305.04	1703.91
305.26	1730.53
305.47	1689.57
305.68	1755.11
305.90	1583.08
306.11	1742.82
306.33	1751.01
306.54	1701.86
306.75	1660.90
306.97	1660.90
307.18	1662.95
307.39	1593.32
307.61	1730.53
307.82	1759.21
308.04	1728.49
308.25	1722.34
308.46	1714.15
308.68	1617.90
308.89	1648.61
309.10	1781.73
309.32	1740.77
309.53	1699.81
309.74	1716.20
309.96	1703.91
310.17	1796.07
310.39	1730.53
310.60	1728.49
310.81	1720.29
311.03	1699.81
311.24	1771.49
311.45	1740.77
311.67	1800.16
311.88	1742.82
312.09	1675.24
312.31	1767.40
312.52	1701.86
312.73	1708.01
312.95	1615.85
313.16	1720.29
313.37	1798.12
313.59	1677.29
313.80	1740.77
314.01	1787.88
314.23	1652.71
314.44	1671.14
314.65	1660.90
314.87	1732.58
315.08	1708.01
315.29	1714.15
315.51	1716.20
315.72	1617.90
315.93	1746.92
316.15	1779.68
316.36	1669.09
316.57	1748.97
316.79	1716.20
317.00	1718.25
317.21	1783.78
317.43	1679.33
317.64	1722.34
317.85	1677.29
318.07	1687.53
318.28	1730.53
318.49	1794.02
318.70	1824.74
318.92	1771.49
319.13	1783.78
319.34	1839.08
319.56	1708.01
319.77	1751.01
319.98	1796.07
320.20	1765.35
320.41	1724.39
320.62	1773.54
320.83	1689.57
321.05	1820.64
321.26	1744.87
321.47	1644.52
321.69	1794.02
321.90	1656.81
322.11	1652.71
322.32	1746.92
322.54	1810.40
322.75	1624.04
322.96	1771.49
323.18	1613.80
323.39	1585.13
323.60	1646.57
323.81	1718.25
324.03	1677.29
324.24	1662.95
324.45	1746.92
324.66	1701.86
324.88	1746.92
325.09	1796.07
325.30	1701.86
325.52	1751.01
325.73	1693.67
325.94	1714.15
326.15	1570.79
326.37	1689.57
326.58	1785.83
326.79	1828.84
327.00	1656.81
327.22	1679.33
327.43	1654.76
327.64	1640.42
327.85	1697.77
328.07	1712.10
328.28	1865.70
328.49	1681.38
328.70	1742.82
328.92	1665.00
329.13	1685.48
329.34	1718.25
329.55	1812.45
329.76	1791.97
329.98	1697.77
330.19	1740.77
330.40	1722.34
330.61	1726.44
330.83	1767.40
331.04	1675.24
331.25	1765.35
331.46	1765.35
331.68	1593.32
331.89	1814.50
332.10	1638.38
332.31	1560.55
332.52	1714.15
332.74	1847.27
332.95	1624.04
333.16	1699.81
333.37	1660.90
333.58	1675.24
333.80	1679.33
334.01	1601.51
334.22	1662.95
334.43	1658.85
334.64	1648.61
334.86	1646.57
335.07	1640.42
335.28	1769.44
335.49	1538.02
335.70	1742.82
335.92	1716.20
336.13	1837.03
336.34	1728.49
336.55	1730.53
336.76	1699.81
336.98	1535.98
337.19	1693.67
337.40	1656.81
337.61	1857.51
337.82	1640.42
338.04	1751.01
338.25	1636.33
338.46	1710.05
338.67	1712.10
338.88	1673.19
339.09	1654.76
339.31	1777.64
339.52	1601.51
339.73	1671.14
339.94	1673.19
340.15	1781.73
340.36	1656.81
340.58	1710.05
340.79	1634.28
341.00	1740.77
341.21	1652.71
341.42	1802.21
341.63	1714.15
341.85	1738.73
342.06	1732.58
342.27	1636.33
342.48	1734.63
342.69	1585.13
342.90	1681.38
343.12	1757.16
343.33	1691.62
343.54	1822.69
343.75	1771.49
343.96	1660.90
344.17	1699.81
344.38	1671.14
344.60	1669.09
344.81	1652.71
345.02	1660.90
345.23	1767.40
345.44	1796.07
345.65	1697.77
345.86	1714.15
346.07	1652.71
346.29	1720.29
346.50	1716.20
346.71	1671.14
346.92	1730.53
347.13	1837.03
347.34	1677.29
347.55	1689.57
347.76	1779.68
347.98	1624.04
348.19	1710.05
348.40	1837.03
348.61	1673.19
348.82	1859.56
349.03	1726.44
349.24	1597.42
349.45	1751.01
349.66	1634.28
349.88	1697.77
350.09	1638.38
350.30	1687.53
350.51	1763.30
350.72	1611.75
350.93	1695.72
351.14	1708.01
351.35	1732.58
351.56	1734.63
351.77	1681.38
351.99	1748.97
352.20	1808.36
352.41	1761.25
352.62	1589.22
352.83	1812.45
353.04	1714.15
353.25	1695.72
353.46	1722.34
353.67	1748.97
353.88	1603.56
354.09	1646.57
354.30	1701.86
354.52	1695.72
354.73	1691.62
354.94	1650.66
355.15	1697.77
355.36	1763.30
355.57	1701.86
355.78	1646.57
355.99	1673.19
356.20	1677.29
356.41	1728.49
356.62	1701.86
356.83	1769.44
357.04	1769.44
357.25	1599.46
357.46	1712.10
357.68	1681.38
357.89	1708.01
358.10	1705.96
358.31	1714.15
358.52	1755.11
358.73	1697.77
358.94	1658.85
359.15	1634.28
359.36	1761.25
359.57	1685.48
359.78	1720.29
359.99	1783.78
360.20	1722.34
360.41	1742.82
360.62	1767.40
360.83	1771.49
361.04	1738.73
361.25	1720.29
361.46	1796.07
361.67	1701.86
361.88	1802.21
362.09	1738.73
362.30	1767.40
362.51	1669.09
362.72	1705.96
362.93	1710.05
363.14	1791.97
363.35	1673.19
363.56	1556.46
363.78	1675.24
363.99	1736.68
364.20	1761.25
364.41	1662.95
364.62	1796.07
364.83	1796.07
365.04	1734.63
365.25	1742.82
365.46	1796.07
365.67	1724.39
365.88	1601.51
366.09	1671.14
366.30	1765.35
366.51	1824.74
366.72	1576.94
366.93	1712.10
367.14	1697.77
367.35	1710.05
367.56	1771.49
367.77	1818.60
367.98	1648.61
368.18	1765.35
368.39	1785.83
368.60	1626.09
368.81	1755.11
369.02	1687.53
369.23	1720.29
369.44	1624.04
369.65	1689.57
369.86	1736.68
370.07	1716.20
370.28	1640.42
370.49	1648.61
370.70	1677.29
370.91	1677.29
371.12	1671.14
371.33	1722.34
371.54	1576.94
371.75	1896.42
371.96	1601.51
372.17	1681.38
372.38	1703.91
372.59	1740.77
372.80	1619.94
373.01	1726.44
373.22	1781.73
373.43	1744.87
373.64	1691.62
373.85	1796.07
374.06	1886.18
374.26	1804.26
374.47	1796.07
374.68	1812.45
374.89	1665.00
375.10	1726.44
375.31	1654.76
375.52	1691.62
375.73	1767.40
375.94	1681.38
376.15	1753.06
376.36	1673.19
376.57	1624.04
376.78	1734.63
376.99	1726.44
377.20	1712.10
377.40	1640.42
377.61	1826.79
377.82	1632.23
378.03	1869.80
378.24	1708.01
378.45	1697.77
378.66	1640.42
378.87	1593.32
379.08	1603.56
379.29	1669.09
379.50	1806.31
379.71	1581.03
379.91	1818.60
380.12	1687.53
380.33	1703.91
380.54	1679.33
380.75	1710.05
380.96	1697.77
381.17	1724.39
381.38	1685.48
381.59	1724.39
381.80	1671.14
382.00	1830.88
382.21	1744.87
382.42	1779.68
382.63	1839.08
382.84	1785.83
383.05	1777.64
383.26	1798.12
383.47	1804.26
383.68	1783.78
383.88	1779.68
384.09	1751.01
384.30	1791.97
384.51	1820.64
384.72	1677.29
384.93	1624.04
385.14	1726.44
385.35	1726.44
385.55	1673.19
385.76	1853.41
385.97	1683.43
386.18	1646.57
386.39	1640.42
386.60	1691.62
386.81	1660.90
387.02	1611.75
387.22	1630.18
387.43	1742.82
387.64	1791.97
387.85	1837.03
388.06	2230.24
388.27	4210.62
388.48	6635.42
388.68	8019.85
388.89	9224.05
389.10	9627.50
389.31	8290.18
389.52	7362.45
389.73	6520.73
389.93	6055.84
390.14	5730.22
390.35	5029.81
390.56	4396.99
390.77	3686.34
390.98	2934.74
391.18	2559.96
391.39	2076.64
391.60	1808.36
391.81	1873.89
392.02	1734.63
392.23	1800.16
392.43	1779.68
392.64	1744.87
392.85	1703.91
393.06	1806.31
393.27	1783.78
393.47	1607.66
393.68	1710.05
393.89	1669.09
394.10	1800.16
394.31	1677.29
394.52	1634.28
394.72	1669.09
394.93	1773.54
395.14	1691.62
395.35	1728.49
395.56	1662.95
395.76	1720.29
395.97	1779.68
396.18	1789.92
396.39	1802.21
396.60	1980.39
396.80	1894.37
397.01	1814.50
397.22	1910.75
397.43	1828.84
397.64	1689.57
397.84	1767.40
398.05	1890.28
398.26	1746.92
398.47	1767.40
398.67	1839.08
398.88	1701.86
399.09	1701.86
399.30	1660.90
399.51	1740.77
399.71	1648.61
399.92	1736.68
400.13	1751.01
400.34	1697.77
400.54	1648.61
400.75	1857.51
400.96	1744.87
401.17	1806.31
401.37	1716.20
401.58	1671.14
401.79	1710.05
402.00	1857.51
402.21	1968.10
402.41	1959.91
402.62	1951.71
402.83	2015.20
403.04	1894.37
403.24	2103.26
403.45	1800.16
403.66	2000.87
403.87	1918.95
404.07	1875.94
404.28	1902.56
404.49	1822.69
404.70	1740.77
404.90	1839.08
405.11	1753.06
405.32	1789.92
405.52	1667.05
405.73	1746.92
405.94	1714.15
406.15	1736.68
406.35	1740.77
406.56	1710.05
406.77	1730.53
406.98	1755.11
407.18	1603.56
407.39	1796.07
407.60	1671.14
407.80	1701.86
408.01	1738.73
408.22	1701.86
408.43	1656.81
408.63	1742.82
408.84	1613.80
409.05	1746.92
409.25	1736.68
409.46	1693.67
409.67	1687.53
409.88	1591.27
410.08	1705.96
410.29	1710.05
410.50	1757.16
410.70	1689.57
410.91	1572.84
411.12	1744.87
411.32	1626.09
411.53	1673.19
411.74	1820.64
411.95	1787.88
412.15	1738.73
412.36	1794.02
412.57	1748.97
412.77	1816.55
412.98	1724.39
413.19	1642.47
413.39	1789.92
413.60	1708.01
413.81	1767.40
414.01	1638.38
414.22	1693.67
414.43	1734.63
414.63	1714.15
414.84	1818.60
415.05	1673.19
415.25	1607.66
415.46	1810.40
415.67	1652.71
415.87	1646.57
416.08	1718.25
416.29	1640.42
416.49	1734.63
416.70	1714.15
416.91	1665.00
417.11	1652.71
417.32	1710.05
417.53	1742.82
417.73	1755.11
417.94	1742.82
418.15	1796.07
418.35	1738.73
418.56	1667.05
418.77	1832.93
418.97	1681.38
419.18	1712.10
419.38	1669.09
419.59	1675.24
419.80	1789.92
420.00	1697.77
420.21	1652.71
420.42	1744.87
420.62	1685.48
420.83	1746.92
421.04	1714.15
421.24	1746.92
421.45	1716.20
421.65	1718.25
421.86	1615.85
422.07	1693.67
422.27	1703.91
422.48	1734.63
422.69	1685.48
422.89	1705.96
423.10	1703.91
423.30	1642.47
423.51	1701.86
423.72	1708.01
423.92	1734.63
424.13	1630.18
424.33	1681.38
424.54	1679.33
424.75	1736.68
424.95	1814.50
425.16	1705.96
425.36	1632.23
425.57	1748.97
425.78	1789.92
425.98	1781.73
426.19	1728.49
426.39	1705.96
426.60	1734.63
426.81	1849.32
427.01	1738.73
427.22	1679.33
427.42	1662.95
427.63	1660.90
427.83	1865.70
428.04	1761.25
428.25	1837.03
428.45	1755.11
428.66	1757.16
428.86	1695.72
429.07	1652.71
429.28	1728.49
429.48	1736.68
429.69	1662.95
429.89	1669.09
430.10	1658.85
430.30	1701.86
430.51	1751.01
430.71	1669.09
430.92	1648.61
431.13	1685.48
431.33	1789.92
431.54	1701.86
431.74	1771.49
431.95	1859.56
432.15	1603.56
432.36	1816.55
432.56	1783.78
432.77	1769.44
432.98	1773.54
433.18	1730.53
433.39	1671.14
433.59	1726.44
433.80	1810.40
434.00	1783.78
434.21	1699.81
434.41	1630.18
434.62	1865.70
434.82	1613.80
435.03	1685.48
435.23	1705.96
435.44	1589.22
435.64	1683.43
435.85	1687.53
436.06	1753.06
436.26	1781.73
436.47	1755.11
436.67	1736.68
436.88	1730.53
437.08	1726.44
437.29	1859.56
437.49	1771.49
437.70	1759.21
437.90	1730.53
438.11	1832.93
438.31	1779.68
438.52	1908.71
438.72	1869.80
438.93	1873.89
439.13	1853.41
439.34	1839.08
439.54	1714.15
439.75	1771.49
439.95	1789.92
440.16	1726.44
440.36	1691.62
440.57	1789.92
440.77	1759.21
440.98	1712.10
441.18	1783.78
441.39	1740.77
441.59	1691.62
441.80	1843.17
442.00	1679.33
442.21	1877.99
442.41	1656.81
442.62	1738.73
442.82	1648.61
443.02	1763.30
443.23	1796.07
443.43	1681.38
443.64	1755.11
443.84	1679.33
444.05	1830.88
444.25	1761.25
444.46	1724.39
444.66	1867.75
444.87	1796.07
445.07	1695.72
445.28	1753.06
445.48	1837.03
445.69	1724.39
445.89	1894.37
446.09	1781.73
446.30	2009.06
446.50	2619.35
446.71	3665.86
446.91	4231.10
447.12	4689.85
447.32	4624.31
447.53	4251.58
447.73	3803.08
447.93	3405.77
448.14	3176.40
448.34	3022.80
448.55	2856.92
448.75	2811.86
448.96	2592.73
449.16	2295.77
449.36	2287.58
449.57	2086.88
449.77	1890.28
449.98	1742.82
450.18	1841.12
450.39	1796.07
450.59	1761.25
450.79	1710.05
451.00	1701.86
451.20	1843.17
451.41	1751.01
451.61	1644.52
451.81	1810.40
452.02	1714.15
452.22	1708.01
452.43	1740.77
452.63	1769.44
452.84	1751.01
453.04	1718.25
453.24	1763.30
453.45	1732.58
453.65	1738.73
453.86	1771.49
454.06	1826.79
454.26	1669.09
454.47	1689.57
454.67	1806.31
454.87	1732.58
455.08	1771.49
455.28	1892.32
455.49	1742.82
455.69	1671.14
455.89	1814.50
456.10	1884.13
456.30	1701.86
456.51	1800.16
456.71	1775.59
456.91	1757.16
457.12	1773.54
457.32	1718.25
457.52	1701.86
457.73	1837.03
457.93	1798.12
458.14	1710.05
458.34	1665.00
458.54	1701.86
458.75	1767.40
458.95	1812.45
459.15	1697.77
459.36	1708.01
459.56	1779.68
459.76	1808.36
459.97	1673.19
460.17	1753.06
460.37	1828.84
460.58	1705.96
460.78	1775.59
460.99	1736.68
461.19	1708.01
461.39	1730.53
461.60	1687.53
461.80	1708.01
462.00	1665.00
462.21	1640.42
462.41	1683.43
462.61	1736.68
462.82	1607.66
463.02	1740.77
463.22	1730.53
463.43	1748.97
463.63	1681.38
463.83	1759.21
464.04	1806.31
464.24	1812.45
464.44	1667.05
464.64	1794.02
464.85	1791.97
465.05	1755.11
465.25	1701.86
465.46	1673.19
465.66	1738.73
465.86	1886.18
466.07	1675.24
466.27	1726.44
466.47	1572.84
466.68	1656.81
466.88	1882.08
467.08	1730.53
467.29	1777.64
467.49	1705.96
467.69	1699.81
467.89	1687.53
468.10	1744.87
468.30	1796.07
468.50	1812.45
468.71	1773.54
468.91	1671.14
469.11	1757.16
469.31	1705.96
469.52	1693.67
469.72	1837.03
469.92	1834.98
470.13	1726.44
470.33	1783.78
470.53	1761.25
470.73	2013.15
470.94	2215.90
471.14	2269.15
471.34	2461.66
471.54	2369.50
471.75	2234.33
471.95	2068.45
472.15	2086.88
472.36	2088.93
472.56	2013.15
472.76	2002.91
472.96	2009.06
473.17	1939.43
473.37	1925.09
473.57	1765.35
473.77	1806.31
473.98	1777.64
474.18	1714.15
474.38	1892.32
474.58	1761.25
474.79	1701.86
474.99	1718.25
475.19	1773.54
475.39	1652.71
475.60	1736.68
475.80	1710.05
476.00	1693.67
476.20	1806.31
476.41	1734.63
476.61	1843.17
476.81	1804.26
477.01	1656.81
477.21	1886.18
477.42	1763.30
477.62	1654.76
477.82	1767.40
478.02	1716.20
478.23	1748.97
478.43	1630.18
478.63	1697.77
478.83	1744.87
479.03	1757.16
479.24	1777.64
479.44	1814.50
479.64	1642.47
479.84	1640.42
480.04	1744.87
480.25	1757.16
480.45	1677.29
480.65	1757.16
480.85	1796.07
481.06	1724.39
481.26	1708.01
481.46	1722.34
481.66	1738.73
481.86	1667.05
482.06	1687.53
482.27	1691.62
482.47	1679.33
482.67	1677.29
482.87	1724.39
483.07	1802.21
483.28	1607.66
483.48	1665.00
483.68	1699.81
483.88	1705.96
484.08	1671.14
484.29	1677.29
484.49	1746.92
484.69	1642.47
484.89	1849.32
485.09	1830.88
485.29	1740.77
485.50	1746.92
485.70	1642.47
485.90	1751.01
486.10	1794.02
486.30	1783.78
486.50	1832.93
486.71	1714.15
486.91	1779.68
487.11	1822.69
487.31	1673.19
487.51	1748.97
487.71	1617.90
487.91	1595.37
488.12	1677.29
488.32	1593.32
488.52	1662.95
488.72	1677.29
488.92	1681.38
489.12	1773.54
489.32	1748.97
489.53	1738.73
489.73	1759.21
489.93	1851.36
490.13	1665.00
490.33	1730.53
490.53	1671.14
490.73	1859.56
490.94	1642.47
491.14	1771.49
491.34	1808.36
491.54	2082.78
491.74	2598.87
491.94	2803.67
492.14	3016.66
492.34	2940.88
492.54	2736.09
492.75	2488.28
492.95	2361.31
493.15	2234.33
493.35	2254.81
493.55	2136.03
493.75	2127.84
493.95	2084.83
494.15	1957.86
494.35	1841.12
494.56	1824.74
494.76	1777.64
494.96	1783.78
495.16	1796.07
495.36	1714.15
495.56	1802.21
495.76	1753.06
495.96	1689.57
496.16	1683.43
496.36	1816.55
496.56	1667.05
496.77	1701.86
496.97	1765.35
497.17	1865.70
497.37	1728.49
497.57	1759.21
497.77	1763.30
497.97	1677.29
498.17	1769.44
498.37	1730.53
498.57	1808.36
498.77	1722.34
498.97	1816.55
499.17	1845.22
499.38	1667.05
499.58	1732.58
499.78	1806.31
499.98	1822.69
500.18	1722.34
500.38	1677.29
500.58	1906.66
500.78	2525.15
500.98	4392.89
501.18	5588.91
501.38	6522.78
501.58	6973.33
501.78	6553.50
501.98	5298.10
502.18	4796.34
502.38	4253.63
502.58	4046.79
502.78	3764.17
502.98	3622.86
503.18	3403.72
503.38	3155.92
503.59	2787.29
503.79	2588.63
503.99	2453.47
504.19	2287.58
504.39	2271.20
504.59	2090.98
504.79	2168.80
504.99	2095.07
505.19	1949.67
505.39	1894.37
505.59	1951.71
505.79	1867.75
505.99	1894.37
506.19	1779.68
506.39	1898.47
506.59	1693.67
506.79	1736.68
506.99	1773.54
507.19	1779.68
507.39	1753.06
507.59	1724.39
507.79	1722.34
507.99	1693.67
508.19	1654.76
508.39	1667.05
508.59	1763.30
508.79	1857.51
508.99	1773.54
509.19	1763.30
509.39	1746.92
509.59	1691.62
509.79	1740.77
509.99	1732.58
510.19	1712.10
510.39	1781.73
510.59	1730.53
510.79	1734.63
510.99	1712.10
511.19	1665.00
511.39	1798.12
511.59	1751.01
511.79	1865.70
511.99	1640.42
512.19	1804.26
512.38	1755.11
512.58	1753.06
512.78	1773.54
512.98	1761.25
513.18	1763.30
513.38	1640.42
513.58	1808.36
513.78	1724.39
513.98	1740.77
514.18	1669.09
514.38	1636.33
514.58	1791.97
514.78	1689.57
514.98	1646.57
515.18	1656.81
515.38	1742.82
515.58	1812.45
515.78	1681.38
515.98	1710.05
516.18	1843.17
516.38	1675.24
516.57	1728.49
516.77	1658.85
516.97	1804.26
517.17	1673.19
517.37	1632.23
517.57	1781.73
517.77	1693.67
517.97	1697.77
518.17	1759.21
518.37	1675.24
518.57	1720.29
518.77	1683.43
518.97	1681.38
519.16	1847.27
519.36	1783.78
519.56	1769.44
519.76	1740.77
519.96	1877.99
520.16	1847.27
520.36	1619.94
520.56	1746.92
520.76	1615.85
520.96	1742.82
521.16	1828.84
521.35	1777.64
521.55	1857.51
521.75	1738.73
521.95	1767.40
522.15	1724.39
522.35	1621.99
522.55	1687.53
522.75	1708.01
522.95	1751.01
523.14	1701.86
523.34	1691.62
523.54	1667.05
523.74	1804.26
523.94	1734.63
524.14	1689.57
524.34	1748.97
524.54	1742.82
524.73	1724.39
524.93	1728.49
525.13	1753.06
525.33	1683.43
525.53	1904.61
525.73	1757.16
525.93	1773.54
526.13	1703.91
526.32	1742.82
526.52	1736.68
526.72	1691.62
526.92	1705.96
527.12	1724.39
527.32	1644.52
527.52	1820.64
527.71	1789.92
527.91	1771.49
528.11	1665.00
528.31	1679.33
528.51	1710.05
528.71	1765.35
528.90	1759.21
529.10	1775.59
529.30	1718.25
529.50	1675.24
529.70	1777.64
529.90	1755.11
530.09	1701.86
530.29	1742.82
530.49	1701.86
530.69	1796.07
530.89	1740.77
531.09	1773.54
531.28	1763.30
531.48	1767.40
531.68	1734.63
531.88	1806.31
532.08	1806.31
532.28	1761.25
532.47	1808.36
532.67	1814.50
532.87	1714.15
533.07	1689.57
533.27	1742.82
533.46	1720.29
533.66	1779.68
533.86	1746.92
534.06	1734.63
534.26	1732.58
534.45	1634.28
534.65	1785.83
534.85	1785.83
535.05	1732.58
535.25	1849.32
535.44	1558.50
535.64	1781.73
535.84	1765.35
536.04	1738.73
536.24	1787.88
536.43	1687.53
536.63	1740.77
536.83	1658.85
537.03	1794.02
537.22	1658.85
537.42	1615.85
537.62	1742.82
537.82	1632.23
538.02	1794.02
538.21	1839.08
538.41	1871.84
538.61	1775.59
538.81	1714.15
539.00	1808.36
539.20	1650.66
539.40	1765.35
539.60	1751.01
539.79	1828.84
539.99	1693.67
540.19	1720.29
540.39	1681.38
540.58	1736.68
540.78	1785.83
540.98	1781.73
541.18	1748.97
541.37	1755.11
541.57	1695.72
541.77	1720.29
541.97	1638.38
542.16	1665.00
542.36	1695.72
542.56	1802.21
542.76	1927.14
542.95	1708.01
543.15	1738.73
543.35	1800.16
543.54	1669.09
543.74	1703.91
543.94	1834.98
544.14	1687.53
544.33	1808.36
544.53	1775.59
544.73	1611.75
544.93	1681.38
545.12	1746.92
545.32	1708.01
545.52	1712.10
545.71	1691.62
545.91	1648.61
546.11	1726.44
546.30	1681.38
546.50	1703.91
546.70	1759.21
546.90	1759.21
547.09	1718.25
547.29	1705.96
547.49	1826.79
547.68	1640.42
547.88	1693.67
548.08	1755.11
548.27	2183.13
548.47	1767.40
548.67	1679.33
548.87	1820.64
549.06	1652.71
549.26	1816.55
549.46	1767.40
549.65	1685.48
549.85	1796.07
550.05	1789.92
550.24	1671.14
550.44	1693.67
550.64	1767.40
550.83	1812.45
551.03	1796.07
551.23	1859.56
551.42	1787.88
551.62	1730.53
551.82	1775.59
552.01	1732.58
552.21	1824.74
552.41	1785.83
552.60	1728.49
552.80	1781.73
553.00	1693.67
553.19	1734.63
553.39	1818.60
553.59	1646.57
553.78	1734.63
553.98	1685.48
554.17	1728.49
554.37	1761.25
554.57	1816.55
554.76	1669.09
554.96	1691.62
555.16	1767.40
555.35	1708.01
555.55	1716.20
555.75	1781.73
555.94	1828.84
556.14	1689.57
556.33	1701.86
556.53	1748.97
556.73	1691.62
556.92	1796.07
557.12	1851.36
557.32	1867.75
557.51	1902.56
557.71	1765.35
557.90	1839.08
558.10	1775.59
558.30	1691.62
558.49	1779.68
558.69	1773.54
558.88	1761.25
559.08	1722.34
559.28	1683.43
559.47	1767.40
559.67	1767.40
559.86	1789.92
560.06	1746.92
560.26	1691.62
560.45	1796.07
560.65	1738.73
560.84	1890.28
561.04	1701.86
561.24	1783.78
561.43	1740.77
561.63	1785.83
561.82	1771.49
562.02	1839.08
562.22	1746.92
562.41	1658.85
562.61	1718.25
562.80	1724.39
563.00	1925.09
563.19	1763.30
563.39	1689.57
563.59	1759.21
563.78	1681.38
563.98	1630.18
564.17	1726.44
564.37	1689.57
564.56	1722.34
564.76	1636.33
564.96	1777.64
565.15	1732.58
565.35	1845.22
565.54	1636.33
565.74	1775.59
565.93	1771.49
566.13	1775.59
566.32	1841.12
566.52	1693.67
566.71	1693.67
566.91	1716.20
567.11	1708.01
567.30	1656.81
567.50	1697.77
567.69	1691.62
567.89	1730.53
568.08	1742.82
568.28	1748.97
568.47	1689.57
568.67	1826.79
568.86	1691.62
569.06	1746.92
569.25	1712.10
569.45	1660.90
569.64	1732.58
569.84	1714.15
570.04	1740.77
570.23	1687.53
570.43	1703.91
570.62	1748.97
570.82	1859.56
571.01	1703.91
571.21	1718.25
571.40	1708.01
571.60	1716.20
571.79	1787.88
571.99	1806.31
572.18	1609.70
572.38	1812.45
572.57	1746.92
572.77	1820.64
572.96	1845.22
573.16	1757.16
573.35	1632.23
573.55	1877.99
573.74	1769.44
573.94	1665.00
574.13	1671.14
574.33	1808.36
574.52	1781.73
574.71	1763.30
574.91	1785.83
575.10	1658.85
575.30	1689.57
575.49	1667.05
575.69	1734.63
575.88	1789.92
576.08	1798.12
576.27	1812.45
576.47	1669.09
576.66	1783.78
576.86	1820.64
577.05	1685.48
577.25	1820.64
577.44	1816.55
577.64	1697.77
577.83	1804.26
578.02	1671.14
578.22	1818.60
578.41	1875.94
578.61	1728.49
578.80	1679.33
579.00	1761.25
579.19	1708.01
579.39	1847.27
579.58	1736.68
579.77	1757.16
579.97	1832.93
580.16	1839.08
580.36	1820.64
580.55	1861.60
580.75	1779.68
580.94	1740.77
581.13	1877.99
581.33	1806.31
581.52	1775.59
581.72	1796.07
581.91	1828.84
582.11	1722.34
582.30	1789.92
582.49	1787.88
582.69	1775.59
582.88	1802.21
583.08	1748.97
583.27	1804.26
583.47	1722.34
583.66	1763.30
583.85	1697.77
584.05	1724.39
584.24	1820.64
584.44	1759.21
584.63	1751.01
584.82	1794.02
585.02	1828.84
585.21	1763.30
585.41	1843.17
585.60	1810.40
585.79	1890.28
585.99	1945.57
586.18	1828.84
586.37	2158.56
586.57	3323.85
586.76	9650.03
586.96	23654.04
587.15	33459.71
587.34	38739.38
587.54	40529.30
587.73	35714.53
587.93	25370.24
588.12	21180.09
588.31	17544.95
588.51	15763.22
588.70	14821.15
588.89	13553.46
589.09	12169.03
589.28	10807.13
589.47	9004.92
589.67	7704.46
589.86	6295.46
590.06	4835.25
590.25	3860.42
590.44	3008.47
590.64	2549.72
590.83	2236.38
591.02	2066.40
591.22	1951.71
591.41	1912.80
591.60	1783.78
591.80	1900.52
591.99	1716.20
592.18	1728.49
592.38	1806.31
592.57	1779.68
592.76	1738.73
592.96	1791.97
593.15	1718.25
593.34	1837.03
593.54	1769.44
593.73	1816.55
593.92	1802.21
594.12	1755.11
594.31	1810.40
594.50	1861.60
594.70	1796.07
594.89	1869.80
595.08	1691.62
595.28	1808.36
595.47	1847.27
595.66	1804.26
595.86	1742.82
596.05	1765.35
596.24	1669.09
596.43	1845.22
596.63	1853.41
596.82	1757.16
597.01	1744.87
597.21	1794.02
597.40	1757.16
597.59	1757.16
597.79	1773.54
597.98	1710.05
598.17	1697.77
598.36	1738.73
598.56	1718.25
598.75	1773.54
598.94	1726.44
599.14	1779.68
599.33	1740.77
599.52	1806.31
599.71	1742.82
599.91	1849.32
600.10	1708.01
600.29	1751.01
600.48	1806.31
600.68	1834.98
600.87	1683.43
601.06	1669.09
601.26	1767.40
601.45	1804.26
601.64	1730.53
601.83	1816.55
602.03	1710.05
602.22	1738.73
602.41	1742.82
602.60	1894.37
602.80	1804.26
602.99	1738.73
603.18	1685.48
603.37	1744.87
603.57	1773.54
603.76	1748.97
603.95	1787.88
604.14	1751.01
604.34	1603.56
604.53	1720.29
604.72	1763.30
604.91	1771.49
605.10	1736.68
605.30	1636.33
605.49	1908.71
605.68	1773.54
605.87	1789.92
606.07	1726.44
606.26	1724.39
606.45	1830.88
606.64	1726.44
606.84	1759.21
607.03	1751.01
607.22	1740.77
607.41	1708.01
607.60	1730.53
607.80	1800.16
607.99	1703.91
608.18	1738.73
608.37	1748.97
608.56	1699.81
608.76	1845.22
608.95	1886.18
609.14	1724.39
609.33	1828.84
609.52	1777.64
609.72	1777.64
609.91	1822.69
610.10	1712.10
610.29	1877.99
610.48	1787.88
610.68	1708.01
610.87	1652.71
611.06	1810.40
611.25	1732.58
611.44	1763.30
611.63	1734.63
611.83	1789.92
612.02	1705.96
612.21	1806.31
612.40	1578.98
612.59	1662.95
612.79	1681.38
612.98	1771.49
613.17	1851.36
613.36	1734.63
613.55	1834.98
613.74	1677.29
613.93	1718.25
614.13	1791.97
614.32	1687.53
614.51	1689.57
614.70	1708.01
614.89	1656.81
615.08	1769.44
615.28	2074.59
615.47	1540.07
615.66	1738.73
615.85	1787.88
616.04	1857.51
616.23	1724.39
616.42	1718.25
616.62	1712.10
616.81	1738.73
617.00	1722.34
617.19	1773.54
617.38	1722.34
617.57	1767.40
617.76	1755.11
617.95	1796.07
618.15	1779.68
618.34	1894.37
618.53	1681.38
618.72	1812.45
618.91	1759.21
619.10	1757.16
619.29	1753.06
619.48	1744.87
619.68	1679.33
619.87	1746.92
620.06	1535.98
620.25	1722.34
620.44	1671.14
620.63	1671.14
620.82	1658.85
621.01	1781.73
621.20	1716.20
621.39	1765.35
621.59	1732.58
621.78	1691.62
621.97	1744.87
622.16	1781.73
622.35	1761.25
622.54	1751.01
622.73	1851.36
622.92	1624.04
623.11	1744.87
623.30	1685.48
623.49	1740.77
623.68	1677.29
623.88	1748.97
624.07	1695.72
624.26	1724.39
624.45	1775.59
624.64	1644.52
624.83	1728.49
625.02	1773.54
625.21	1726.44
625.40	1781.73
625.59	1787.88
625.78	1765.35
625.97	1742.82
626.16	1798.12
626.35	1675.24
626.54	1677.29
626.74	1820.64
626.93	1740.77
627.12	1640.42
627.31	1783.78
627.50	1695.72
627.69	1804.26
627.88	1705.96
628.07	1720.29
628.26	1638.38
628.45	1681.38
628.64	1662.95
628.83	1751.01
629.02	1669.09
629.21	1730.53
629.40	1724.39
629.59	1615.85
629.78	1744.87
629.97	1724.39
630.16	1720.29
630.35	1656.81
630.54	1683.43
630.73	1703.91
630.92	1628.14
631.11	1695.72
631.30	1718.25
631.49	1740.77
631.68	1685.48
631.87	1785.83
632.06	1636.33
632.25	1810.40
632.44	1800.16
632.63	1769.44
632.82	1691.62
633.01	1765.35
633.20	1703.91
633.39	1755.11
633.58	1628.14
633.77	1763.30
633.96	1748.97
634.15	1775.59
634.34	1703.91
634.53	1710.05
634.72	1660.90
634.91	1673.19
635.10	1708.01
635.29	1759.21
635.48	1658.85
635.67	1755.11
635.86	1685.48
636.05	1757.16
636.24	1724.39
636.43	1781.73
636.62	1736.68
636.81	1621.99
637.00	1832.93
637.19	1791.97
637.38	1691.62
637.57	1693.67
637.76	1714.15
637.95	1718.25
638.14	1720.29
638.33	1681.38
638.52	1679.33
638.71	1634.28
638.89	1626.09
639.08	1802.21
639.27	1675.24
639.46	1703.91
639.65	1783.78
639.84	1730.53
640.03	1845.22
640.22	1673.19
640.41	1798.12
640.60	1671.14
640.79	1732.58
640.98	1697.77
641.17	1691.62
641.36	1757.16
641.55	1767.40
641.74	1574.89
641.92	1738.73
642.11	1687.53
642.30	1675.24
642.49	1677.29
642.68	1730.53
642.87	1693.67
643.06	1728.49
643.25	1759.21
643.44	1695.72
643.63	1687.53
643.82	1689.57
644.00	1652.71
644.19	1738.73
644.38	1626.09
644.57	1806.31
644.76	1691.62
644.95	1712.10
645.14	1671.14
645.33	1681.38
645.52	1681.38
645.71	1699.81
645.89	1593.32
646.08	1751.01
646.27	1681.38
646.46	1843.17
646.65	1605.61
646.84	1722.34
647.03	1613.80
647.22	1808.36
647.40	1736.68
647.59	1736.68
647.78	1581.03
647.97	1697.77
648.16	1644.52
648.35	1814.50
648.54	1802.21
648.73	1724.39
648.91	1810.40
649.10	1630.18
649.29	1759.21
649.48	1773.54
649.67	1730.53
649.86	1660.90
650.05	1646.57
650.23	1757.16
650.42	1601.51
650.61	1783.78
650.80	1814.50
650.99	1837.03
651.18	1771.49
651.36	1773.54
651.55	1671.14
651.74	1738.73
651.93	1646.57
652.12	1722.34
652.31	1708.01
652.49	1687.53
652.68	1675.24
652.87	1806.31
653.06	1697.77
653.25	1767.40
653.44	1714.15
653.62	1767.40
653.81	1732.58
654.00	1726.44
654.19	1730.53
654.38	1943.52
654.56	1703.91
654.75	1746.92
654.94	1812.45
655.13	1757.16
655.32	1687.53
655.51	1810.40
655.69	1701.86
655.88	1677.29
656.07	1673.19
656.26	1751.01
656.45	1648.61
656.63	1710.05
656.82	1705.96
657.01	1722.34
657.20	1705.96
657.38	1808.36
657.57	1742.82
657.76	1560.55
657.95	1818.60
658.14	1705.96
658.32	1681.38
658.51	1644.52
658.70	1687.53
658.89	1619.94
659.08	1808.36
659.26	1763.30
659.45	1656.81
659.64	1703.91
659.83	1675.24
660.01	1955.81
660.20	1802.21
660.39	1802.21
660.58	1591.27
660.76	1820.64
660.95	1671.14
661.14	1728.49
661.33	1636.33
661.51	1703.91
661.70	1685.48
661.89	1791.97
662.08	1724.39
662.26	1632.23
662.45	1667.05
662.64	1736.68
662.83	1744.87
663.01	1650.66
663.20	1656.81
663.39	1785.83
663.58	1742.82
663.76	1689.57
663.95	1769.44
664.14	1669.09
664.32	1669.09
664.51	1673.19
664.70	1644.52
664.89	1687.53
665.07	1613.80
665.26	1722.34
665.45	1724.39
665.64	1710.05
665.82	1652.71
666.01	1787.88
666.20	1695.72
666.38	1804.26
666.57	1853.41
666.76	2113.50
666.95	4417.47
667.13	10024.81
667.32	14532.39
667.51	17313.53
667.69	18415.34
667.88	17094.40
668.07	12015.43
668.25	9246.58
668.44	7806.86
668.63	7053.20
668.81	6786.97
669.00	6229.92
669.19	5588.91
669.38	4884.41
669.56	4493.24
669.75	3866.56
669.94	3323.85
670.12	2844.63
670.31	2605.02
670.50	2230.24
670.68	2011.11
670.87	1964.00
671.06	1726.44
671.24	1775.59
671.43	1751.01
671.62	1738.73
671.80	1689.57
671.99	1658.85
672.18	1701.86
672.36	1779.68
672.55	1705.96
672.74	1708.01
672.92	1755.11
673.11	1822.69
673.29	1705.96
673.48	1660.90
673.67	1679.33
673.85	1798.12
674.04	1677.29
674.23	1767.40
674.41	1849.32
674.60	1691.62
674.79	1718.25
674.97	1683.43
675.16	1705.96
675.34	1744.87
675.53	1681.38
675.72	1724.39
675.90	1794.02
676.09	1613.80
676.28	1757.16
676.46	1660.90
676.65	1804.26
676.83	1628.14
677.02	1699.81
677.21	1697.77
677.39	1773.54
677.58	1646.57
677.77	1621.99
677.95	1757.16
678.14	1746.92
678.32	1671.14
678.51	1693.67
678.70	1877.99
678.88	1689.57
679.07	1775.59
679.25	1730.53
679.44	1714.15
679.63	1652.71
679.81	1667.05
680.00	1662.95
680.18	1779.68
680.37	1787.88
680.55	1689.57
680.74	1667.05
680.93	1540.07
681.11	1671.14
681.30	1677.29
681.48	1775.59
681.67	1742.82
681.85	1724.39
682.04	1675.24
682.23	1783.78
682.41	1730.53
682.60	1703.91
682.78	1675.24
682.97	1736.68
683.15	1730.53
683.34	1742.82
683.53	1779.68
683.71	1652.71
683.90	1755.11
684.08	1796.07
684.27	1660.90
684.45	1740.77
684.64	1789.92
684.82	1738.73
685.01	1763.30
685.19	1767.40
685.38	1814.50
685.57	1701.86
685.75	1675.24
685.94	1730.53
686.12	1691.62
686.31	1621.99
686.49	1783.78
686.68	1689.57
686.86	1736.68
687.05	1730.53
687.23	1748.97
687.42	1748.97
687.60	1644.52
687.79	1779.68
687.97	1814.50
688.16	1765.35
688.34	1798.12
688.53	1681.38
688.71	1783.78
688.90	1802.21
689.08	1693.67
689.27	1617.90
689.45	1755.11
689.64	1740.77
689.82	1714.15
690.01	1734.63
690.19	1794.02
690.38	1728.49
690.56	1734.63
690.75	1644.52
690.93	1619.94
691.12	1648.61
691.30	1708.01
691.49	1669.09
691.67	1722.34
691.86	1804.26
692.04	1646.57
692.23	1705.96
692.41	1605.61
692.60	1796.07
692.78	1716.20
692.97	1755.11
693.15	1832.93
693.34	1816.55
693.52	1810.40
693.71	1691.62
693.89	1681.38
694.08	1583.08
694.26	1779.68
694.44	1718.25
694.63	1687.53
694.81	1693.67
695.00	1628.14
695.18	1779.68
695.37	1849.32
695.55	1732.58
695.74	1689.57
695.92	1718.25
696.10	1744.87
696.29	1673.19
696.47	1685.48
696.66	1607.66
696.84	1617.90
697.03	1744.87
697.21	1851.36
697.40	2213.85
697.58	1787.88
697.76	1564.65
697.95	1636.33
698.13	1615.85
698.32	1679.33
698.50	1710.05
698.68	1660.90
698.87	1736.68
699.05	1773.54
699.24	1669.09
699.42	1705.96
699.61	1708.01
699.79	1724.39
699.97	1771.49
700.16	1609.70
700.34	1634.28
700.53	1609.70
700.71	1824.74
700.89	1804.26
701.08	1744.87
701.26	1681.38
701.45	2142.18
701.63	1740.77
701.81	1683.43
702.00	1781.73
702.18	1714.15
702.37	1695.72
702.55	1791.97
702.73	1650.66
702.92	1681.38
703.10	1732.58
703.28	1697.77
703.47	1611.75
703.65	1769.44
703.84	1806.31
704.02	1736.68
704.20	1732.58
704.39	1650.66
704.57	1740.77
704.75	1748.97
704.94	1855.46
705.12	1665.00
705.30	1773.54
705.49	2258.91
705.67	4339.65
705.86	9095.03
706.04	11974.47
706.22	14001.96
706.41	14763.81
706.59	13227.83
706.77	9265.01
706.96	7167.89
707.14	6313.89
707.32	5783.46
707.51	5550.00
707.69	4806.58
707.87	4210.62
708.06	3286.99
708.24	2944.98
708.42	2324.44
708.61	2271.20
708.79	1820.64
708.97	1855.46
709.16	1808.36
709.34	1734.63
709.52	1732.58
709.71	1730.53
709.89	1714.15
710.07	1628.14
710.26	1740.77
710.44	1753.06
710.62	1806.31
710.80	1730.53
710.99	1767.40
711.17	1787.88
711.35	1722.34
711.54	1722.34
711.72	1740.77
711.90	1755.11
712.09	1718.25
712.27	1689.57
712.45	1617.90
712.63	1677.29
712.82	1677.29
713.00	1726.44
713.18	1746.92
713.37	1753.06
713.55	1748.97
713.73	1724.39
713.91	1730.53
714.10	1726.44
714.28	1644.52
714.46	1722.34
714.65	1755.11
714.83	1656.81
715.01	1701.86
715.19	1722.34
715.38	1736.68
715.56	1697.77
715.74	1640.42
715.92	1656.81
716.11	1888.23
716.29	1564.65
716.47	1652.71
716.65	1660.90
716.84	1691.62
717.02	1767.40
717.20	1599.46
717.38	1722.34
717.57	1757.16
717.75	1662.95
717.93	1693.67
718.11	1685.48
718.30	1724.39
718.48	1720.29
718.66	1685.48
718.84	1791.97
719.03	1691.62
719.21	1626.09
719.39	1828.84
719.57	1746.92
719.75	1710.05
719.94	1751.01
720.12	1724.39
720.30	1771.49
720.48	1826.79
720.67	1697.77
720.85	1615.85
721.03	1738.73
721.21	1660.90
721.39	1828.84
721.58	1794.02
721.76	1722.34
721.94	1806.31
722.12	1677.29
722.30	1837.03
722.49	1658.85
722.67	1705.96
722.85	1638.38
723.03	1632.23
723.21	1687.53
723.40	1718.25
723.58	1812.45
723.76	1673.19
723.94	1777.64
724.12	1761.25
724.30	1712.10
724.49	1814.50
724.67	1701.86
724.85	1773.54
725.03	1589.22
725.21	1791.97
725.40	1734.63
725.58	1638.38
725.76	1714.15
725.94	1726.44
726.12	1712.10
726.30	1720.29
726.49	1660.90
726.67	1714.15
726.85	1681.38
727.03	1767.40
727.21	2109.41
727.39	2904.02
727.57	3719.11
727.76	4173.76
727.94	4390.84
728.12	4190.14
728.30	3467.21
728.48	2947.03
728.66	2699.22
728.84	2525.15
729.03	2275.29
729.21	2189.28
729.39	2027.49
729.57	1798.12
729.75	1785.83
729.93	1863.65
730.11	1630.18
730.30	1699.81
730.48	1705.96
730.66	1841.12
730.84	1859.56
731.02	1697.77
731.20	1691.62
731.38	1720.29
731.56	1605.61
731.74	1574.89
731.93	1724.39
732.11	1769.44
732.29	1757.16
732.47	1767.40
732.65	1714.15
732.83	1705.96
733.01	1722.34
733.19	1630.18
733.37	1718.25
733.56	1660.90
733.74	1683.43
733.92	1834.98
734.10	1652.71
734.28	1783.78
734.46	1699.81
734.64	1705.96
734.82	1714.15
735.00	1650.66
735.18	1693.67
735.36	1705.96
735.54	1615.85
735.73	1740.77
735.91	1624.04
736.09	1800.16
736.27	1677.29
736.45	1732.58
736.63	1564.65
736.81	1683.43
736.99	1806.31
737.17	1779.68
737.35	1718.25
737.53	1665.00
737.71	1753.06
737.89	1744.87
738.07	1705.96
738.25	1720.29
738.43	1634.28
738.61	1738.73
738.80	1593.32
738.98	1644.52
739.16	1738.73
739.34	1685.48
739.52	1746.92
739.70	1630.18
739.88	1834.98
740.06	1765.35
740.24	1626.09
740.42	1800.16
740.60	1560.55
740.78	1681.38
740.96	1546.22
741.14	1650.66
741.32	1658.85
741.50	1626.09
741.68	1830.88
741.86	1757.16
742.04	1665.00
742.22	1720.29
742.40	1714.15
742.58	1726.44
742.76	1617.90
742.94	1746.92
743.12	1585.13
743.30	1681.38
743.48	1718.25
743.66	1628.14
743.84	1695.72
744.02	1679.33
744.20	1716.20
744.38	1634.28
744.56	1656.81
744.74	1769.44
744.92	1728.49
745.10	1781.73
745.28	1742.82
745.46	1834.98
745.64	1738.73
745.82	1665.00
746.00	1751.01
746.18	1705.96
746.36	1687.53
746.54	1722.34
746.72	1738.73
746.90	1638.38
747.08	1804.26
747.26	1716.20
747.44	1720.29
747.62	1791.97
747.80	1673.19
747.98	1802.21
748.15	1667.05
748.33	1834.98
748.51	1728.49
748.69	1787.88
748.87	1656.81
749.05	1693.67
749.23	1626.09
749.41	1720.29
749.59	1646.57
749.77	1818.60
749.95	1728.49
750.13	1703.91
750.31	1675.24
750.49	1736.68
750.67	1767.40
750.85	1773.54
751.03	1714.15
751.20	1771.49
751.38	1732.58
751.56	1691.62
751.74	1695.72
751.92	1689.57
752.10	1748.97
752.28	1769.44
752.46	1640.42
752.64	1710.05
752.82	1746.92
753.00	1781.73
753.18	1679.33
753.35	1689.57
753.53	1759.21
753.71	1611.75
753.89	1708.01
754.07	1759.21
754.25	1798.12
754.43	1640.42
754.61	1738.73
754.79	1671.14
754.97	1798.12
755.14	1677.29
755.32	1632.23
755.50	1687.53
755.68	1681.38
755.86	1675.24
756.04	1746.92
756.22	1626.09
756.40	1730.53
756.57	1800.16
756.75	1634.28
756.93	1832.93
757.11	1732.58
757.29	1658.85
757.47	1662.95
757.65	1613.80
757.82	1572.84
758.00	1669.09
758.18	1667.05
758.36	1669.09
758.54	1787.88
758.72	1660.90
758.90	1716.20
759.07	1806.31
759.25	1662.95
759.43	1712.10
759.61	1615.85
759.79	2224.09
759.97	1761.25
760.15	1701.86
760.32	1703.91
760.50	1673.19
760.68	1849.32
760.86	1636.33
761.04	1701.86
761.22	1699.81
761.39	1710.05
761.57	1759.21
761.75	1673.19
761.93	1742.82
762.11	1656.81
762.28	1703.91
762.46	1718.25
762.64	1773.54
762.82	1701.86
763.00	1679.33
763.18	1748.97
763.35	1599.46
763.53	1775.59
763.71	1716.20
763.89	1708.01
764.07	1642.47
764.24	1583.08
764.42	1824.74
764.60	1705.96
764.78	1744.87
764.96	1695.72
765.13	1734.63
765.31	1722.34
765.49	1726.44
765.67	1650.66
765.84	1710.05
766.02	1718.25
766.20	1615.85
766.38	1652.71
766.56	1701.86
766.73	1689.57
766.91	1687.53
767.09	1638.38
767.27	1787.88
767.44	1617.90
767.62	1751.01
767.80	1722.34
767.98	1656.81
768.15	1660.90
768.33	1675.24
768.51	1726.44
768.69	1646.57
768.87	1796.07
769.04	1722.34
769.22	1849.32
769.40	1847.27
769.58	1855.46
769.75	1665.00
769.93	1734.63
770.11	1716.20
770.28	1671.14
770.46	1812.45
770.64	1728.49
770.82	1689.57
770.99	1685.48
771.17	1683.43
771.35	1718.25
771.53	1708.01
771.70	1728.49
771.88	1757.16
772.06	1757.16
772.23	1748.97
772.41	1632.23
772.59	1679.33
772.77	1599.46
772.94	1818.60
773.12	1710.05
773.30	1697.77
773.47	1644.52
773.65	1638.38
773.83	1777.64
774.01	1679.33
774.18	1701.86
774.36	1660.90
774.54	1677.29
774.71	1681.38
774.89	1632.23
775.07	1632.23
775.24	1662.95
775.42	1683.43
775.60	1906.66
775.78	1665.00
775.95	1689.57
776.13	1626.09
776.31	1634.28
776.48	1736.68
776.66	1712.10
776.84	1732.58
777.01	1665.00
777.19	1695.72
777.37	1748.97
777.54	1724.39
777.72	1802.21
777.90	1710.05
778.07	1617.90
778.25	1873.89
778.43	1740.77
778.60	1691.62
778.78	1757.16
778.96	1728.49
779.13	1544.17
779.31	1724.39
779.49	1746.92
779.66	1738.73
779.84	1753.06
780.01	1611.75
780.19	1742.82
780.37	1712.10
780.54	1826.79
780.72	1671.14
780.90	1695.72
781.07	1748.97
781.25	1708.01
781.43	1787.88
781.60	1708.01
781.78	1722.34
781.95	1722.34
782.13	1640.42
782.31	1740.77
782.48	1652.71
782.66	1710.05
782.83	1824.74
783.01	1724.39
783.19	1671.14
783.36	1681.38
783.54	1630.18
783.72	1828.84
783.89	1572.84
784.07	1675.24
784.24	1748.97
784.42	1861.60
784.60	1708.01
784.77	1695.72
784.95	1669.09
785.12	1722.34
785.30	1757.16
785.47	1607.66
785.65	1632.23
785.83	1714.15
786.00	1734.63
786.18	1783.78
786.35	1576.94
786.53	1650.66
786.71	1763.30
786.88	1769.44
787.06	1728.49
787.23	1697.77
787.41	1607.66
787.58	1726.44
787.76	1650.66
787.94	1677.29
788.11	1640.42
788.29	1679.33
788.46	1724.39
788.64	1626.09
788.81	1638.38
788.99	1679.33
789.16	1667.05
789.34	1646.57
789.52	1619.94
789.69	1667.05
789.87	1509.35
790.04	1689.57
790.22	1708.01
790.39	1796.07
790.57	1675.24
790.74	1624.04
790.92	1761.25
791.09	1636.33
791.27	1734.63
791.44	1720.29
791.62	1693.67
791.79	1673.19
791.97	1695.72
792.15	1863.65
792.32	1757.16
792.50	1683.43
792.67	1767.40
792.85	1718.25
793.02	1681.38
793.20	1640.42
793.37	1587.18
793.55	1806.31
793.72	1615.85
793.90	1710.05
794.07	1675.24
794.25	1607.66
794.42	1761.25
794.60	1675.24
794.77	1783.78
794.95	1753.06
795.12	1751.01
795.30	1665.00
795.47	1632.23
795.65	1804.26
795.82	1722.34
796.00	1669.09
796.17	1652.71
796.34	1642.47
796.52	1677.29
796.69	1810.40
796.87	1746.92
797.04	1691.62
797.22	1693.67
797.39	1742.82
797.57	1691.62
797.74	1730.53
797.92	1689.57
798.09	1617.90
798.27	1679.33
798.44	1722.34
798.62	1615.85
798.79	1632.23
798.96	1714.15
799.14	1701.86
799.31	1783.78
799.49	1712.10
799.66	1675.24
799.84	1751.01
800.01	1708.01
800.19	1722.34
800.36	1617.90
800.53	1681.38
800.71	1681.38
800.88	1763.30
801.06	1665.00
801.23	1662.95
801.41	1712.10
801.58	1710.05
801.75	1724.39
801.93	1720.29
802.10	1806.31
802.28	1697.77
802.45	1697.77
802.63	1693.67
802.80	1730.53
802.97	1619.94
803.15	1826.79
803.32	1714.15
803.50	1714.15
803.67	1685.48
803.84	1609.70
804.02	1705.96
804.19	1718.25
804.37	1632.23
804.54	1615.85
804.71	1716.20
804.89	1769.44
805.06	1644.52
805.24	1626.09
805.41	1648.61
805.58	1630.18
805.76	1853.41
805.93	1624.04
806.10	1767.40
806.28	1640.42
806.45	1689.57
806.63	1716.20
806.80	1777.64
806.97	1800.16
807.15	1746.92
807.32	1724.39
807.49	1703.91
807.67	1583.08
807.84	1720.29
808.01	1632.23
808.19	1847.27
808.36	1822.69
808.54	1660.90
808.71	1613.80
808.88	1732.58
809.06	1753.06
809.23	1761.25
809.40	1640.42
809.58	1857.51
809.75	1677.29
809.92	1687.53
810.10	1839.08
810.27	1677.29
810.44	1759.21
810.62	1703.91
810.79	1753.06
810.96	1607.66
811.14	1599.46
811.31	1734.63
811.48	1757.16
811.66	1724.39
811.83	1718.25
812.00	1789.92
812.18	1748.97
812.35	1884.13
812.52	1687.53
812.69	1646.57
812.87	1708.01
813.04	1609.70
813.21	1732.58
813.39	1644.52
813.56	1665.00
813.73	1738.73
813.91	1607.66
814.08	1685.48
814.25	1751.01
814.42	1609.70
814.60	1656.81
814.77	1718.25
814.94	1744.87
815.12	1677.29
815.29	1767.40
815.46	1634.28
815.63	1718.25
815.81	1667.05
815.98	1724.39
816.15	1697.77
816.33	1669.09
816.50	1687.53
816.67	1732.58
816.84	1660.90
817.02	1609.70
817.19	1714.15
817.36	1712.10
817.53	1775.59
817.71	1689.57
817.88	1722.34
818.05	1615.85
818.22	1658.85
818.40	1783.78
818.57	1677.29
818.74	1648.61
818.91	1714.15
819.09	1703.91
819.26	1710.05
819.43	1640.42
819.60	1650.66
819.78	1763.30
819.95	1734.63
820.12	1636.33
820.29	1822.69
820.47	1761.25
820.64	1673.19
820.81	1697.77
820.98	1634.28
821.15	1703.91
821.33	1724.39
821.50	1646.57
821.67	1738.73
821.84	1710.05
822.02	1734.63
822.19	1804.26
822.36	1658.85
822.53	1619.94
822.70	1677.29
822.88	1728.49
823.05	1767.40
823.22	1669.09
823.39	1738.73
823.56	1648.61
823.74	1804.26
823.91	1607.66
824.08	1675.24
824.25	1683.43
824.42	1779.68
824.60	1628.14
824.77	1683.43
824.94	1640.42
825.11	1773.54
825.28	1574.89
825.45	1726.44
825.63	1708.01
825.80	1693.67
825.97	1726.44
826.14	1650.66
826.31	1603.56
826.48	1781.73
826.66	1648.61
826.83	1642.47
827.00	1658.85
827.17	1603.56
827.34	1617.90
827.51	1705.96
827.69	1648.61
827.86	1640.42
828.03	1703.91
828.20	1757.16
828.37	1744.87
828.54	1787.88
828.71	1632.23
828.89	1804.26
829.06	1671.14
829.23	1746.92
829.40	1679.33
829.57	1660.90
829.74	1785.83
829.91	1701.86
830.09	1740.77
830.26	1777.64
830.43	1695.72
830.60	1656.81
830.77	1761.25
830.94	1736.68
831.11	1789.92
831.28	1621.99
831.46	1771.49
831.63	1675.24
831.80	1783.78
831.97	1699.81
832.14	1681.38
832.31	1691.62
832.48	1722.34
832.65	1767.40
832.82	1689.57
832.99	1753.06
833.17	1693.67
833.34	1751.01
833.51	1671.14
833.68	1599.46
833.85	1671.14
834.02	1632.23
834.19	1699.81
834.36	1650.66
834.53	1673.19
834.70	1826.79
834.87	1716.20
835.04	1744.87
835.22	1648.61
835.39	1726.44
835.56	1556.46
835.73	1662.95
835.90	1800.16
836.07	1624.04
836.24	1728.49
836.41	1683.43
836.58	1679.33
836.75	1812.45
836.92	1744.87
837.09	1691.62
837.26	1722.34
837.43	1748.97
837.60	1689.57
837.77	1703.91
837.94	1681.38
838.12	1824.74
838.29	1699.81
838.46	1568.74
838.63	1593.32
838.80	1646.57
838.97	1787.88
839.14	1759.21
839.31	1662.95
839.48	1802.21
839.65	1722.34
839.82	1775.59
839.99	1726.44
840.16	1652.71
840.33	1599.46
840.50	1689.57
840.67	1695.72
840.84	1624.04
841.01	1662.95
841.18	1673.19
841.35	1652.71
841.52	1738.73
841.69	1814.50
841.86	1632.23
842.03	1683.43
842.20	1724.39
842.37	1644.52
842.54	1779.68
842.71	1699.81
842.88	1650.66
843.05	1732.58
843.22	1652.71
843.39	1755.11
843.56	1701.86
843.73	1720.29
843.90	1701.86
844.07	1628.14
844.24	1798.12
844.41	1701.86
844.58	1755.11
844.75	1667.05
844.92	1716.20
845.09	1738.73
845.26	1632.23
845.43	1718.25
845.60	1683.43
845.77	1746.92
845.94	1679.33
846.10	1728.49
846.27	1673.19
846.44	1632.23
846.61	1710.05
846.78	1722.34
846.95	1748.97
847.12	1667.05
847.29	1744.87
847.46	1619.94
847.63	1701.86
847.80	1640.42
847.97	1660.90
848.14	1832.93
848.31	1681.38
848.48	1628.14
848.65	1703.91
848.82	1716.20
848.98	1810.40
849.15	1732.58
849.32	1791.97
849.49	1722.34
849.66	1681.38
849.83	1761.25
850.00	1673.19
850.17	1708.01
850.34	1724.39
850.51	1587.18
850.68	1714.15
850.85	1800.16
851.01	1650.66
851.18	1665.00
851.35	1685.48
851.52	1748.97
851.69	1779.68
851.86	1685.48
852.03	1642.47
852.20	1728.49
852.37	1603.56
852.53	1583.08
852.70	1648.61
852.87	1781.73
853.04	1726.44
853.21	1658.85
853.38	1740.77
853.55	1775.59
853.72	1722.34
853.89	1656.81
854.05	1681.38
854.22	1630.18
854.39	1642.47
854.56	1695.72
854.73	1710.05
854.90	1652.71
855.07	1742.82
855.23	1669.09
855.40	1681.38
855.57	1660.90
855.74	1587.18
855.91	1857.51
856.08	1665.00
856.25	1648.61
856.41	1638.38
856.58	1691.62
856.75	1728.49
856.92	1660.90
857.09	1800.16
857.26	1613.80
857.42	1595.37
857.59	1755.11
857.76	1673.19
857.93	1720.29
858.10	1796.07
858.27	1679.33
858.43	1669.09
858.60	1691.62
858.77	1597.42
858.94	1638.38
859.11	1724.39
859.27	1644.52
859.44	1626.09
859.61	1759.21
859.78	1767.40
859.95	1677.29
860.12	1695.72
860.28	1794.02
860.45	1804.26
860.62	1697.77
860.79	1722.34
860.95	1648.61
861.12	1628.14
861.29	1683.43
861.46	1603.56
861.63	1720.29
861.79	1667.05
861.96	1665.00
862.13	1658.85
862.30	1757.16
862.47	1683.43
862.63	1718.25
862.80	1730.53
862.97	1722.34
863.14	1712.10
863.30	1697.77
863.47	1607.66
863.64	1716.20
863.81	1691.62
863.97	1753.06
864.14	1722.34
864.31	1718.25
864.48	1722.34
864.65	1722.34
864.81	1726.44
864.98	1734.63
865.15	1771.49
865.32	1730.53
865.48	1777.64
865.65	1718.25
865.82	1656.81
865.98	1730.53
866.15	1757.16
866.32	1705.96
866.49	1593.32
866.65	1767.40
866.82	1632.23
866.99	1714.15
867.16	1669.09
867.32	1697.77
867.49	1720.29
867.66	1669.09
867.83	1728.49
867.99	1640.42
868.16	1632.23
868.33	1677.29
868.49	1611.75
868.66	1654.76
868.83	1763.30
868.99	1744.87
869.16	1689.57
869.33	1705.96
869.50	1683.43
869.66	1636.33
869.83	1714.15
870.00	1550.31
870.16	1728.49
870.33	1724.39
870.50	1658.85
870.66	1783.78
870.83	1746.92
871.00	1701.86
871.17	1675.24
871.33	1746.92
871.50	1689.57
871.67	1650.66
871.83	1617.90
872.00	1738.73
872.17	1673.19
872.33	1775.59
872.50	1697.77
872.67	1658.85
872.83	1650.66
873.00	1730.53
873.17	1677.29
873.33	1767.40
873.50	1755.11
873.67	1656.81
873.83	1699.81
874.00	1720.29
874.16	1773.54
874.33	1697.77
874.50	1656.81
874.66	1722.34
874.83	1718.25
875.00	1816.55
875.16	1798.12
875.33	1740.77
875.50	1550.31
875.66	1701.86
875.83	1705.96
875.99	1708.01
876.16	1634.28
876.33	1683.43
876.49	1662.95
876.66	1740.77
876.83	1683.43
876.99	1654.76
877.16	1685.48
877.32	1722.34
877.49	1585.13
877.66	1683.43
877.82	1759.21
877.99	1710.05
878.15	1771.49
878.32	1781.73
878.49	1738.73
878.65	1695.72
878.82	1759.21
878.98	1656.81
879.15	1787.88
879.32	1712.10
879.48	1708.01
879.65	1734.63
879.81	1640.42
879.98	1628.14
880.15	1638.38
880.31	1712.10
880.48	1656.81
880.64	1677.29
880.81	1669.09
880.97	1785.83
881.14	1724.39
881.31	1650.66
881.47	1857.51
881.64	1738.73
881.80	1546.22
881.97	1822.69
882.13	1806.31
882.30	1628.14
882.47	1654.76
882.63	1624.04
882.80	1660.90
882.96	1652.71
883.13	1748.97
883.29	1669.09
883.46	1763.30
883.62	1783.78
883.79	1681.38
883.95	1724.39
884.12	1640.42
884.29	1826.79
884.45	1716.20
884.62	1820.64
884.78	1634.28
884.95	1812.45
885.11	1667.05
885.28	1763.30
885.44	1703.91
885.61	1734.63
885.77	1787.88
885.94	1697.77
886.10	1681.38
886.27	1714.15
886.43	1839.08
886.60	1742.82
886.76	1744.87
886.93	1689.57
887.09	1724.39
887.26	1642.47
887.42	1708.01
887.59	1779.68
887.75	1785.83
887.92	1724.39
888.08	1656.81
888.25	1830.88
888.41	1665.00
888.58	1660.90
888.74	1665.00
888.91	1619.94
>>>>>End Processed Spectral Data<<<<<
