SpectraSuite Data File
++++++++++++++++++++++++++++++++++++
Date: Mon Jun 06 15:00:57 CEST 2016
User: root
Dark Spectrum Present: No
Reference Spectrum Present: No
Number of Sampled Component Spectra: 1
Spectrometers: USB4C02835
Integration Time (usec): 100000 (USB4C02835)
Spectra Averaged: 1 (USB4C02835)
Boxcar Smoothing: 0 (USB4C02835)
Correct for Electrical Dark: No (USB4C02835)
Strobe/Lamp Enabled: No (USB4C02835)
Correct for Detector Non-linearity: No (USB4C02835)
Correct for Stray Light: No (USB4C02835)
Number of Pixels in Processed Spectrum: 3648
>>>>>Begin Processed Spectral Data<<<<<
177.47	1437.67
177.69	1437.67
177.91	1437.67
178.13	1466.35
178.36	1460.20
178.58	1572.84
178.80	1755.11
179.02	1621.99
179.24	1650.66
179.46	1658.85
179.68	1787.88
179.90	1677.29
180.13	1703.91
180.35	1734.63
180.57	1679.33
180.79	1691.62
181.01	1697.77
181.23	1767.40
181.45	1685.48
181.67	1714.15
181.90	1753.06
182.12	1646.57
182.34	1628.14
182.56	1740.77
182.78	1744.87
183.00	1705.96
183.22	1685.48
183.44	1628.14
183.66	1843.17
183.89	1769.44
184.11	1658.85
184.33	1710.05
184.55	1783.78
184.77	1720.29
184.99	1636.33
185.21	1693.67
185.43	1812.45
185.65	1648.61
185.87	1710.05
186.10	1748.97
186.32	1837.03
186.54	1701.86
186.76	1691.62
186.98	1738.73
187.20	1624.04
187.42	1699.81
187.64	1726.44
187.86	1718.25
188.08	1736.68
188.30	1728.49
188.52	1677.29
188.75	1783.78
188.97	1740.77
189.19	1699.81
189.41	1697.77
189.63	1710.05
189.85	1660.90
190.07	1640.42
190.29	1585.13
190.51	1722.34
190.73	1636.33
190.95	1722.34
191.17	1669.09
191.39	1597.42
191.61	1699.81
191.84	1658.85
192.06	1763.30
192.28	1656.81
192.50	1906.66
192.72	1736.68
192.94	1681.38
193.16	1785.83
193.38	1726.44
193.60	1636.33
193.82	1687.53
194.04	1746.92
194.26	1746.92
194.48	1751.01
194.70	1658.85
194.92	1699.81
195.14	1816.55
195.36	1728.49
195.58	1671.14
195.80	1656.81
196.02	1718.25
196.24	1736.68
196.46	1726.44
196.69	1728.49
196.91	1771.49
197.13	1712.10
197.35	1673.19
197.57	1796.07
197.79	1730.53
198.01	1658.85
198.23	1710.05
198.45	1685.48
198.67	1554.41
198.89	1732.58
199.11	1685.48
199.33	1689.57
199.55	1574.89
199.77	1775.59
199.99	1773.54
200.21	1765.35
200.43	1687.53
200.65	1640.42
200.87	1589.22
201.09	1712.10
201.31	1648.61
201.53	1726.44
201.75	1699.81
201.97	1751.01
202.19	1599.46
202.41	1742.82
202.63	1837.03
202.85	1763.30
203.07	1734.63
203.29	1654.76
203.51	1656.81
203.73	1695.72
203.95	1763.30
204.17	1738.73
204.39	1722.34
204.61	1771.49
204.83	1726.44
205.05	1791.97
205.27	1691.62
205.49	1767.40
205.71	1734.63
205.93	1619.94
206.15	1675.24
206.37	1648.61
206.59	1648.61
206.81	1617.90
207.03	1591.27
207.25	1601.51
207.47	1837.03
207.69	1742.82
207.91	1771.49
208.13	1824.74
208.34	1640.42
208.56	1701.86
208.78	1748.97
209.00	1626.09
209.22	1624.04
209.44	1677.29
209.66	1650.66
209.88	1632.23
210.10	1617.90
210.32	1665.00
210.54	1724.39
210.76	1660.90
210.98	1730.53
211.20	1615.85
211.42	1679.33
211.64	1804.26
211.86	1705.96
212.08	1697.77
212.30	1755.11
212.52	1634.28
212.74	1757.16
212.96	1708.01
213.17	1738.73
213.39	1724.39
213.61	1798.12
213.83	1677.29
214.05	1609.70
214.27	1714.15
214.49	1656.81
214.71	1695.72
214.93	1794.02
215.15	1791.97
215.37	1742.82
215.59	1558.50
215.81	1751.01
216.03	1816.55
216.24	1748.97
216.46	1605.61
216.68	1667.05
216.90	1779.68
217.12	1775.59
217.34	1671.14
217.56	1697.77
217.78	1787.88
218.00	1728.49
218.22	1691.62
218.44	1726.44
218.66	1697.77
218.87	1857.51
219.09	1630.18
219.31	1677.29
219.53	1732.58
219.75	1693.67
219.97	1673.19
220.19	1714.15
220.41	1673.19
220.63	1789.92
220.85	1746.92
221.06	1726.44
221.28	1705.96
221.50	1759.21
221.72	1675.24
221.94	1679.33
222.16	1740.77
222.38	1718.25
222.60	1726.44
222.82	1667.05
223.03	1681.38
223.25	1693.67
223.47	1738.73
223.69	1828.84
223.91	1806.31
224.13	1679.33
224.35	1742.82
224.57	1753.06
224.78	1746.92
225.00	1701.86
225.22	1738.73
225.44	1732.58
225.66	1757.16
225.88	1650.66
226.10	1783.78
226.32	1746.92
226.53	1785.83
226.75	1736.68
226.97	1742.82
227.19	1689.57
227.41	1669.09
227.63	1669.09
227.85	1576.94
228.06	1730.53
228.28	1613.80
228.50	1732.58
228.72	1705.96
228.94	1708.01
229.16	1570.79
229.37	1636.33
229.59	1681.38
229.81	1710.05
230.03	1677.29
230.25	1550.31
230.47	1636.33
230.69	1646.57
230.90	1708.01
231.12	1744.87
231.34	1685.48
231.56	1748.97
231.78	1626.09
232.00	1718.25
232.21	1646.57
232.43	1730.53
232.65	1619.94
232.87	1695.72
233.09	1640.42
233.30	1634.28
233.52	1708.01
233.74	1822.69
233.96	1701.86
234.18	1697.77
234.40	1652.71
234.61	1781.73
234.83	1683.43
235.05	1705.96
235.27	1767.40
235.49	1839.08
235.70	1724.39
235.92	1753.06
236.14	1767.40
236.36	1777.64
236.58	1693.67
236.79	1751.01
237.01	1640.42
237.23	1630.18
237.45	1794.02
237.67	1628.14
237.88	1669.09
238.10	1773.54
238.32	1734.63
238.54	1796.07
238.76	1656.81
238.97	1693.67
239.19	1697.77
239.41	1834.98
239.63	1761.25
239.85	1724.39
240.06	1736.68
240.28	1671.14
240.50	1748.97
240.72	1689.57
240.93	1699.81
241.15	1726.44
241.37	1603.56
241.59	1755.11
241.81	1714.15
242.02	1652.71
242.24	1705.96
242.46	1689.57
242.68	1621.99
242.89	1716.20
243.11	1818.60
243.33	1673.19
243.55	1740.77
243.76	1734.63
243.98	1671.14
244.20	1665.00
244.42	1736.68
244.64	1671.14
244.85	1648.61
245.07	1667.05
245.29	1697.77
245.51	1665.00
245.72	1755.11
245.94	1765.35
246.16	1734.63
246.38	1710.05
246.59	1652.71
246.81	1685.48
247.03	1656.81
247.24	1685.48
247.46	1638.38
247.68	1634.28
247.90	1679.33
248.11	1636.33
248.33	1771.49
248.55	1632.23
248.77	1697.77
248.98	1751.01
249.20	1769.44
249.42	1687.53
249.64	1777.64
249.85	1669.09
250.07	1714.15
250.29	1722.34
250.50	1703.91
250.72	1589.22
250.94	1720.29
251.16	1777.64
251.37	1732.58
251.59	1755.11
251.81	1601.51
252.02	1771.49
252.24	1656.81
252.46	1789.92
252.68	1718.25
252.89	1615.85
253.11	1683.43
253.33	1789.92
253.54	1791.97
253.76	1617.90
253.98	1671.14
254.20	1665.00
254.41	1677.29
254.63	1732.58
254.85	1660.90
255.06	1693.67
255.28	1767.40
255.50	1708.01
255.71	1646.57
255.93	1597.42
256.15	1769.44
256.36	1726.44
256.58	1673.19
256.80	1681.38
257.02	1705.96
257.23	1751.01
257.45	1759.21
257.67	1763.30
257.88	1662.95
258.10	1712.10
258.32	1777.64
258.53	1724.39
258.75	1839.08
258.97	1689.57
259.18	1738.73
259.40	1740.77
259.62	1808.36
259.83	1798.12
260.05	1751.01
260.27	1970.15
260.48	1773.54
260.70	1621.99
260.92	1728.49
261.13	1703.91
261.35	1730.53
261.57	1665.00
261.78	1634.28
262.00	1681.38
262.22	1757.16
262.43	1626.09
262.65	1763.30
262.86	1648.61
263.08	1818.60
263.30	1701.86
263.51	1613.80
263.73	1673.19
263.95	1849.32
264.16	1611.75
264.38	1634.28
264.60	1683.43
264.81	1642.47
265.03	1662.95
265.25	1742.82
265.46	1697.77
265.68	1775.59
265.89	1689.57
266.11	1628.14
266.33	1691.62
266.54	1681.38
266.76	1701.86
266.98	1640.42
267.19	1734.63
267.41	1730.53
267.62	1640.42
267.84	1583.08
268.06	1681.38
268.27	1685.48
268.49	1710.05
268.70	1732.58
268.92	1732.58
269.14	1679.33
269.35	1656.81
269.57	1724.39
269.79	1806.31
270.00	1708.01
270.22	1796.07
270.43	1695.72
270.65	1581.03
270.87	1740.77
271.08	1765.35
271.30	1748.97
271.51	1683.43
271.73	1746.92
271.95	1722.34
272.16	1759.21
272.38	1757.16
272.59	1644.52
272.81	1697.77
273.02	1759.21
273.24	1712.10
273.46	1691.62
273.67	1599.46
273.89	1662.95
274.10	1695.72
274.32	1773.54
274.54	1724.39
274.75	1767.40
274.97	1656.81
275.18	1695.72
275.40	1740.77
275.61	1724.39
275.83	1685.48
276.05	1601.51
276.26	1613.80
276.48	1705.96
276.69	1662.95
276.91	1626.09
277.12	1742.82
277.34	1742.82
277.55	1689.57
277.77	1685.48
277.99	1697.77
278.20	1683.43
278.42	1621.99
278.63	1677.29
278.85	1638.38
279.06	1705.96
279.28	1851.36
279.49	1814.50
279.71	1755.11
279.93	1708.01
280.14	1763.30
280.36	1662.95
280.57	1791.97
280.79	1738.73
281.00	1730.53
281.22	1665.00
281.43	1751.01
281.65	1589.22
281.86	1660.90
282.08	1667.05
282.29	1736.68
282.51	1708.01
282.73	1624.04
282.94	1585.13
283.16	1683.43
283.37	1802.21
283.59	1685.48
283.80	1716.20
284.02	1746.92
284.23	1712.10
284.45	1669.09
284.66	1673.19
284.88	1671.14
285.09	1732.58
285.31	1759.21
285.52	1773.54
285.74	1601.51
285.95	1720.29
286.17	1728.49
286.38	1734.63
286.60	1665.00
286.81	1654.76
287.03	1691.62
287.24	1671.14
287.46	1695.72
287.67	1677.29
287.89	1769.44
288.10	1705.96
288.32	1656.81
288.53	1783.78
288.75	1697.77
288.96	1779.68
289.18	1652.71
289.39	1673.19
289.61	1767.40
289.82	1828.84
290.04	1775.59
290.25	1628.14
290.47	1738.73
290.68	1656.81
290.90	1738.73
291.11	1611.75
291.33	1681.38
291.54	1609.70
291.76	1648.61
291.97	1697.77
292.18	1654.76
292.40	1714.15
292.61	1652.71
292.83	1804.26
293.04	1728.49
293.26	1697.77
293.47	1714.15
293.69	1624.04
293.90	1652.71
294.12	1714.15
294.33	1705.96
294.55	1687.53
294.76	1800.16
294.97	1744.87
295.19	1806.31
295.40	1652.71
295.62	1656.81
295.83	1781.73
296.05	1683.43
296.26	1771.49
296.48	1607.66
296.69	1761.25
296.90	1654.76
297.12	1740.77
297.33	1726.44
297.55	1675.24
297.76	1675.24
297.98	1697.77
298.19	1722.34
298.41	1705.96
298.62	1689.57
298.83	1775.59
299.05	1755.11
299.26	1599.46
299.48	1675.24
299.69	1654.76
299.90	1767.40
300.12	1642.47
300.33	1652.71
300.55	1759.21
300.76	1732.58
300.98	1671.14
301.19	1677.29
301.40	1669.09
301.62	1738.73
301.83	1738.73
302.05	1708.01
302.26	1738.73
302.47	1673.19
302.69	1656.81
302.90	1705.96
303.12	1492.97
303.33	1796.07
303.54	1759.21
303.76	1714.15
303.97	1789.92
304.19	1781.73
304.40	1636.33
304.61	1767.40
304.83	1763.30
305.04	1769.44
305.26	1726.44
305.47	1646.57
305.68	1712.10
305.90	1662.95
306.11	1787.88
306.33	1703.91
306.54	1693.67
306.75	1619.94
306.97	1658.85
307.18	1654.76
307.39	1669.09
307.61	1785.83
307.82	1568.74
308.04	1695.72
308.25	1701.86
308.46	1751.01
308.68	1726.44
308.89	1683.43
309.10	1769.44
309.32	1746.92
309.53	1720.29
309.74	1765.35
309.96	1714.15
310.17	1787.88
310.39	1636.33
310.60	1796.07
310.81	1669.09
311.03	1546.22
311.24	1708.01
311.45	1701.86
311.67	1691.62
311.88	1728.49
312.09	1654.76
312.31	1722.34
312.52	1660.90
312.73	1650.66
312.95	1591.27
313.16	1652.71
313.37	1779.68
313.59	1681.38
313.80	1757.16
314.01	1773.54
314.23	1675.24
314.44	1626.09
314.65	1634.28
314.87	1673.19
315.08	1701.86
315.29	1681.38
315.51	1630.18
315.72	1667.05
315.93	1814.50
316.15	1722.34
316.36	1669.09
316.57	1681.38
316.79	1722.34
317.00	1693.67
317.21	1671.14
317.43	1665.00
317.64	1701.86
317.85	1619.94
318.07	1662.95
318.28	1781.73
318.49	1804.26
318.70	1845.22
318.92	1830.88
319.13	1763.30
319.34	1875.94
319.56	1722.34
319.77	1789.92
319.98	1734.63
320.20	1718.25
320.41	1791.97
320.62	1781.73
320.83	1593.32
321.05	1791.97
321.26	1640.42
321.47	1738.73
321.69	1800.16
321.90	1615.85
322.11	1679.33
322.32	1697.77
322.54	1771.49
322.75	1591.27
322.96	1837.03
323.18	1624.04
323.39	1640.42
323.60	1638.38
323.81	1751.01
324.03	1634.28
324.24	1636.33
324.45	1601.51
324.66	1701.86
324.88	1748.97
325.09	1761.25
325.30	1722.34
325.52	1718.25
325.73	1718.25
325.94	1634.28
326.15	1570.79
326.37	1681.38
326.58	1712.10
326.79	1736.68
327.00	1648.61
327.22	1734.63
327.43	1634.28
327.64	1628.14
327.85	1693.67
328.07	1744.87
328.28	1779.68
328.49	1669.09
328.70	1701.86
328.92	1665.00
329.13	1671.14
329.34	1701.86
329.55	1738.73
329.76	1730.53
329.98	1708.01
330.19	1732.58
330.40	1730.53
330.61	1748.97
330.83	1660.90
331.04	1628.14
331.25	1701.86
331.46	1722.34
331.68	1595.37
331.89	1679.33
332.10	1681.38
332.31	1648.61
332.52	1718.25
332.74	1757.16
332.95	1662.95
333.16	1665.00
333.37	1771.49
333.58	1724.39
333.80	1697.77
334.01	1568.74
334.22	1650.66
334.43	1591.27
334.64	1769.44
334.86	1593.32
335.07	1570.79
335.28	1710.05
335.49	1675.24
335.70	1740.77
335.92	1791.97
336.13	1824.74
336.34	1675.24
336.55	1675.24
336.76	1677.29
336.98	1566.70
337.19	1642.47
337.40	1755.11
337.61	1877.99
337.82	1697.77
338.04	1738.73
338.25	1597.42
338.46	1679.33
338.67	1699.81
338.88	1499.11
339.09	1685.48
339.31	1728.49
339.52	1603.56
339.73	1636.33
339.94	1712.10
340.15	1689.57
340.36	1697.77
340.58	1738.73
340.79	1789.92
341.00	1738.73
341.21	1628.14
341.42	1830.88
341.63	1763.30
341.85	1679.33
342.06	1740.77
342.27	1632.23
342.48	1761.25
342.69	1640.42
342.90	1675.24
343.12	1746.92
343.33	1648.61
343.54	1769.44
343.75	1738.73
343.96	1705.96
344.17	1617.90
344.38	1765.35
344.60	1671.14
344.81	1615.85
345.02	1708.01
345.23	1761.25
345.44	1771.49
345.65	1746.92
345.86	1656.81
346.07	1669.09
346.29	1732.58
346.50	1660.90
346.71	1673.19
346.92	1834.98
347.13	1863.65
347.34	1644.52
347.55	1669.09
347.76	1722.34
347.98	1609.70
348.19	1662.95
348.40	1738.73
348.61	1679.33
348.82	1828.84
349.03	1687.53
349.24	1759.21
349.45	1775.59
349.66	1558.50
349.88	1685.48
350.09	1611.75
350.30	1779.68
350.51	1818.60
350.72	1730.53
350.93	1730.53
351.14	1626.09
351.35	1800.16
351.56	1697.77
351.77	1652.71
351.99	1710.05
352.20	1775.59
352.41	1759.21
352.62	1605.61
352.83	1720.29
353.04	1650.66
353.25	1681.38
353.46	1800.16
353.67	1753.06
353.88	1658.85
354.09	1771.49
354.30	1621.99
354.52	1734.63
354.73	1718.25
354.94	1691.62
355.15	1724.39
355.36	1736.68
355.57	1667.05
355.78	1701.86
355.99	1701.86
356.20	1644.52
356.41	1763.30
356.62	1679.33
356.83	1642.47
357.04	1824.74
357.25	1599.46
357.46	1679.33
357.68	1693.67
357.89	1636.33
358.10	1665.00
358.31	1683.43
358.52	1669.09
358.73	1638.38
358.94	1640.42
359.15	1683.43
359.36	1751.01
359.57	1693.67
359.78	1757.16
359.99	1640.42
360.20	1671.14
360.41	1632.23
360.62	1773.54
360.83	1716.20
361.04	1644.52
361.25	1722.34
361.46	1791.97
361.67	1656.81
361.88	1718.25
362.09	1697.77
362.30	1763.30
362.51	1675.24
362.72	1746.92
362.93	1855.46
363.14	1794.02
363.35	1712.10
363.56	1677.29
363.78	1671.14
363.99	1714.15
364.20	1624.04
364.41	1658.85
364.62	1837.03
364.83	1732.58
365.04	1771.49
365.25	1742.82
365.46	1871.84
365.67	1558.50
365.88	1587.18
366.09	1703.91
366.30	1695.72
366.51	1748.97
366.72	1626.09
366.93	1701.86
367.14	1642.47
367.35	1759.21
367.56	1734.63
367.77	1791.97
367.98	1703.91
368.18	1748.97
368.39	1726.44
368.60	1673.19
368.81	1716.20
369.02	1728.49
369.23	1632.23
369.44	1656.81
369.65	1705.96
369.86	1724.39
370.07	1789.92
370.28	1695.72
370.49	1687.53
370.70	1759.21
370.91	1640.42
371.12	1568.74
371.33	1773.54
371.54	1742.82
371.75	1863.65
371.96	1564.65
372.17	1689.57
372.38	1724.39
372.59	1726.44
372.80	1681.38
373.01	1634.28
373.22	1728.49
373.43	1665.00
373.64	1619.94
373.85	1849.32
374.06	1802.21
374.26	1814.50
374.47	1712.10
374.68	1779.68
374.89	1763.30
375.10	1681.38
375.31	1746.92
375.52	1781.73
375.73	1736.68
375.94	1599.46
376.15	1771.49
376.36	1660.90
376.57	1642.47
376.78	1691.62
376.99	1685.48
377.20	1839.08
377.40	1628.14
377.61	1808.36
377.82	1665.00
378.03	1779.68
378.24	1626.09
378.45	1703.91
378.66	1779.68
378.87	1583.08
379.08	1615.85
379.29	1701.86
379.50	1794.02
379.71	1683.43
379.91	1703.91
380.12	1708.01
380.33	1794.02
380.54	1718.25
380.75	1679.33
380.96	1769.44
381.17	1769.44
381.38	1689.57
381.59	1718.25
381.80	1677.29
382.00	1869.80
382.21	1734.63
382.42	1863.65
382.63	1877.99
382.84	1789.92
383.05	1763.30
383.26	1820.64
383.47	1699.81
383.68	1730.53
383.88	1722.34
384.09	1642.47
384.30	1851.36
384.51	1691.62
384.72	1662.95
384.93	1611.75
385.14	1703.91
385.35	1765.35
385.55	1617.90
385.76	1753.06
385.97	1652.71
386.18	1599.46
386.39	1658.85
386.60	1730.53
386.81	1712.10
387.02	1593.32
387.22	1652.71
387.43	1734.63
387.64	1789.92
387.85	1851.36
388.06	2162.66
388.27	4220.86
388.48	6635.42
388.68	8023.94
388.89	9578.35
389.10	9516.91
389.31	8511.36
389.52	7415.69
389.73	6657.95
389.93	6057.89
390.14	5765.03
390.35	5203.89
390.56	4497.34
390.77	3796.93
390.98	2957.27
391.18	2500.57
391.39	2115.55
391.60	1845.22
391.81	1767.40
392.02	1626.09
392.23	1927.14
392.43	1751.01
392.64	1789.92
392.85	1705.96
393.06	1787.88
393.27	1648.61
393.47	1722.34
393.68	1755.11
393.89	1656.81
394.10	1789.92
394.31	1818.60
394.52	1593.32
394.72	1681.38
394.93	1767.40
395.14	1609.70
395.35	1781.73
395.56	1652.71
395.76	1753.06
395.97	1826.79
396.18	1775.59
396.39	1822.69
396.60	2060.26
396.80	1818.60
397.01	1818.60
397.22	1898.47
397.43	1877.99
397.64	1708.01
397.84	1738.73
398.05	1908.71
398.26	1738.73
398.47	1746.92
398.67	1808.36
398.88	1789.92
399.09	1783.78
399.30	1724.39
399.51	1720.29
399.71	1689.57
399.92	1728.49
400.13	1806.31
400.34	1783.78
400.54	1669.09
400.75	1810.40
400.96	1767.40
401.17	1818.60
401.37	1742.82
401.58	1597.42
401.79	1759.21
402.00	1812.45
402.21	1935.33
402.41	1996.77
402.62	1976.29
402.83	1990.63
403.04	2052.06
403.24	1994.72
403.45	1877.99
403.66	1882.08
403.87	1912.80
404.07	1867.75
404.28	1927.14
404.49	1902.56
404.70	1769.44
404.90	1738.73
405.11	1730.53
405.32	1755.11
405.52	1726.44
405.73	1699.81
405.94	1648.61
406.15	1687.53
406.35	1755.11
406.56	1728.49
406.77	1732.58
406.98	1810.40
407.18	1574.89
407.39	1765.35
407.60	1599.46
407.80	1742.82
408.01	1656.81
408.22	1675.24
408.43	1665.00
408.63	1722.34
408.84	1767.40
409.05	1755.11
409.25	1634.28
409.46	1712.10
409.67	1683.43
409.88	1652.71
410.08	1656.81
410.29	1679.33
410.50	1656.81
410.70	1759.21
410.91	1605.61
411.12	1708.01
411.32	1701.86
411.53	1632.23
411.74	1751.01
411.95	1757.16
412.15	1759.21
412.36	1787.88
412.57	1781.73
412.77	1734.63
412.98	1726.44
413.19	1724.39
413.39	1718.25
413.60	1787.88
413.81	1820.64
414.01	1658.85
414.22	1763.30
414.43	1708.01
414.63	1621.99
414.84	1732.58
415.05	1732.58
415.25	1660.90
415.46	1720.29
415.67	1665.00
415.87	1712.10
416.08	1722.34
416.29	1626.09
416.49	1705.96
416.70	1662.95
416.91	1671.14
417.11	1638.38
417.32	1644.52
417.53	1755.11
417.73	1742.82
417.94	1720.29
418.15	1689.57
418.35	1671.14
418.56	1708.01
418.77	1763.30
418.97	1685.48
419.18	1689.57
419.38	1550.31
419.59	1673.19
419.80	1853.41
420.00	1611.75
420.21	1724.39
420.42	1773.54
420.62	1714.15
420.83	1693.67
421.04	1656.81
421.24	1687.53
421.45	1714.15
421.65	1714.15
421.86	1679.33
422.07	1845.22
422.27	1783.78
422.48	1685.48
422.69	1679.33
422.89	1632.23
423.10	1646.57
423.30	1650.66
423.51	1740.77
423.72	1742.82
423.92	1722.34
424.13	1648.61
424.33	1691.62
424.54	1832.93
424.75	1738.73
424.95	1806.31
425.16	1705.96
425.36	1642.47
425.57	1804.26
425.78	1716.20
425.98	1779.68
426.19	1660.90
426.39	1646.57
426.60	1679.33
426.81	1787.88
427.01	1658.85
427.22	1685.48
427.42	1646.57
427.63	1665.00
427.83	1767.40
428.04	1699.81
428.25	1779.68
428.45	1796.07
428.66	1705.96
428.86	1656.81
429.07	1738.73
429.28	1777.64
429.48	1632.23
429.69	1689.57
429.89	1710.05
430.10	1564.65
430.30	1718.25
430.51	1783.78
430.71	1769.44
430.92	1705.96
431.13	1656.81
431.33	1728.49
431.54	1665.00
431.74	1839.08
431.95	1845.22
432.15	1652.71
432.36	1734.63
432.56	1755.11
432.77	1851.36
432.98	1882.08
433.18	1779.68
433.39	1681.38
433.59	1705.96
433.80	1851.36
434.00	1867.75
434.21	1675.24
434.41	1669.09
434.62	1853.41
434.82	1650.66
435.03	1714.15
435.23	1689.57
435.44	1621.99
435.64	1734.63
435.85	1654.76
436.06	1748.97
436.26	1744.87
436.47	1695.72
436.67	1640.42
436.88	1683.43
437.08	1748.97
437.29	1814.50
437.49	1681.38
437.70	1818.60
437.90	1746.92
438.11	1832.93
438.31	1734.63
438.52	1847.27
438.72	1826.79
438.93	1882.08
439.13	1834.98
439.34	1820.64
439.54	1771.49
439.75	1841.12
439.95	1646.57
440.16	1652.71
440.36	1687.53
440.57	1779.68
440.77	1787.88
440.98	1753.06
441.18	1781.73
441.39	1708.01
441.59	1736.68
441.80	1785.83
442.00	1771.49
442.21	1818.60
442.41	1658.85
442.62	1822.69
442.82	1722.34
443.02	1716.20
443.23	1728.49
443.43	1703.91
443.64	1869.80
443.84	1671.14
444.05	1800.16
444.25	1783.78
444.46	1660.90
444.66	1703.91
444.87	1861.60
445.07	1632.23
445.28	1714.15
445.48	1832.93
445.69	1781.73
445.89	1808.36
446.09	1783.78
446.30	1935.33
446.50	2525.15
446.71	3571.66
446.91	4245.44
447.12	4515.77
447.32	4745.14
447.53	4282.30
447.73	3825.61
447.93	3463.12
448.14	3223.50
448.34	3155.92
448.55	2854.87
448.75	2795.48
448.96	2697.17
449.16	2418.65
449.36	2265.05
449.57	2090.98
449.77	1916.90
449.98	1796.07
450.18	1830.88
450.39	1886.18
450.59	1765.35
450.79	1685.48
451.00	1751.01
451.20	1720.29
451.41	1675.24
451.61	1734.63
451.81	1814.50
452.02	1699.81
452.22	1783.78
452.43	1740.77
452.63	1732.58
452.84	1710.05
453.04	1638.38
453.24	1716.20
453.45	1681.38
453.65	1808.36
453.86	1714.15
454.06	1736.68
454.26	1716.20
454.47	1662.95
454.67	1820.64
454.87	1734.63
455.08	1695.72
455.28	1787.88
455.49	1855.46
455.69	1695.72
455.89	1810.40
456.10	1914.85
456.30	1748.97
456.51	1656.81
456.71	1705.96
456.91	1714.15
457.12	1736.68
457.32	1740.77
457.52	1615.85
457.73	1662.95
457.93	1777.64
458.14	1650.66
458.34	1691.62
458.54	1755.11
458.75	1656.81
458.95	1738.73
459.15	1767.40
459.36	1818.60
459.56	1738.73
459.76	1834.98
459.97	1734.63
460.17	1740.77
460.37	1820.64
460.58	1722.34
460.78	1800.16
460.99	1755.11
461.19	1658.85
461.39	1765.35
461.60	1685.48
461.80	1716.20
462.00	1650.66
462.21	1781.73
462.41	1597.42
462.61	1785.83
462.82	1640.42
463.02	1765.35
463.22	1695.72
463.43	1802.21
463.63	1669.09
463.83	1744.87
464.04	1783.78
464.24	1769.44
464.44	1720.29
464.64	1759.21
464.85	1771.49
465.05	1824.74
465.25	1830.88
465.46	1576.94
465.66	1705.96
465.86	1761.25
466.07	1638.38
466.27	1738.73
466.47	1591.27
466.68	1662.95
466.88	1832.93
467.08	1726.44
467.29	1798.12
467.49	1802.21
467.69	1671.14
467.89	1722.34
468.10	1701.86
468.30	1783.78
468.50	1738.73
468.71	1710.05
468.91	1665.00
469.11	1880.04
469.31	1730.53
469.52	1705.96
469.72	1837.03
469.92	1871.84
470.13	1720.29
470.33	1724.39
470.53	1875.94
470.73	2095.07
470.94	2224.09
471.14	2271.20
471.34	2418.65
471.54	2367.45
471.75	2265.05
471.95	2101.22
472.15	2090.98
472.36	2019.30
472.56	2070.50
472.76	2015.20
472.96	2009.06
473.17	1898.47
473.37	1857.51
473.57	1828.84
473.77	1769.44
473.98	1730.53
474.18	1751.01
474.38	1824.74
474.58	1662.95
474.79	1697.77
474.99	1783.78
475.19	1832.93
475.39	1703.91
475.60	1726.44
475.80	1771.49
476.00	1742.82
476.20	1701.86
476.41	1800.16
476.61	1705.96
476.81	1834.98
477.01	1746.92
477.21	1888.23
477.42	1830.88
477.62	1673.19
477.82	1785.83
478.02	1677.29
478.23	1734.63
478.43	1628.14
478.63	1757.16
478.83	1714.15
479.03	1751.01
479.24	1769.44
479.44	1820.64
479.64	1640.42
479.84	1611.75
480.04	1630.18
480.25	1693.67
480.45	1646.57
480.65	1644.52
480.85	1841.12
481.06	1763.30
481.26	1742.82
481.46	1812.45
481.66	1746.92
481.86	1601.51
482.06	1814.50
482.27	1648.61
482.47	1624.04
482.67	1742.82
482.87	1726.44
483.07	1779.68
483.28	1755.11
483.48	1669.09
483.68	1712.10
483.88	1646.57
484.08	1583.08
484.29	1607.66
484.49	1669.09
484.69	1675.24
484.89	1794.02
485.09	1781.73
485.29	1775.59
485.50	1724.39
485.70	1685.48
485.90	1779.68
486.10	1779.68
486.30	1845.22
486.50	1779.68
486.71	1800.16
486.91	1837.03
487.11	1724.39
487.31	1619.94
487.51	1763.30
487.71	1656.81
487.91	1572.84
488.12	1673.19
488.32	1587.18
488.52	1648.61
488.72	1667.05
488.92	1667.05
489.12	1765.35
489.32	1763.30
489.53	1822.69
489.73	1665.00
489.93	1845.22
490.13	1730.53
490.33	1656.81
490.53	1724.39
490.73	1837.03
490.94	1654.76
491.14	1785.83
491.34	1845.22
491.54	2176.99
491.74	2553.82
491.94	2865.11
492.14	2967.51
492.34	2957.27
492.54	2760.66
492.75	2459.61
492.95	2459.61
493.15	2383.84
493.35	2220.00
493.55	2217.95
493.75	2236.38
493.95	2131.94
494.15	2047.97
494.35	1896.42
494.56	1865.70
494.76	1781.73
494.96	1773.54
495.16	1787.88
495.36	1710.05
495.56	1667.05
495.76	1714.15
495.96	1677.29
496.16	1722.34
496.36	1765.35
496.56	1701.86
496.77	1724.39
496.97	1646.57
497.17	1755.11
497.37	1728.49
497.57	1771.49
497.77	1810.40
497.97	1626.09
498.17	1712.10
498.37	1744.87
498.57	1763.30
498.77	1798.12
498.97	1783.78
499.17	1763.30
499.38	1712.10
499.58	1665.00
499.78	1800.16
499.98	1834.98
500.18	1705.96
500.38	1630.18
500.58	1916.90
500.78	2551.77
500.98	4454.33
501.18	5676.97
501.38	6848.41
501.58	7006.10
501.78	6490.01
501.98	5515.18
502.18	4890.55
502.38	4372.41
502.58	4075.46
502.78	3659.72
502.98	3647.43
503.18	3461.07
503.38	3203.02
503.59	2834.39
503.79	2717.65
503.99	2406.36
504.19	2283.49
504.39	2199.52
504.59	2224.09
504.79	2131.94
504.99	2013.15
505.19	1918.95
505.39	1890.28
505.59	1992.67
505.79	1906.66
505.99	1892.32
506.19	1785.83
506.39	1830.88
506.59	1718.25
506.79	1724.39
506.99	1804.26
507.19	1757.16
507.39	1800.16
507.59	1740.77
507.79	1744.87
507.99	1675.24
508.19	1654.76
508.39	1724.39
508.59	1722.34
508.79	1767.40
508.99	1867.75
509.19	1705.96
509.39	1775.59
509.59	1738.73
509.79	1665.00
509.99	1722.34
510.19	1738.73
510.39	1710.05
510.59	1718.25
510.79	1695.72
510.99	1693.67
511.19	1820.64
511.39	1857.51
511.59	1812.45
511.79	1775.59
511.99	1708.01
512.19	1791.97
512.38	1785.83
512.58	1673.19
512.78	1736.68
512.98	1783.78
513.18	1789.92
513.38	1650.66
513.58	1771.49
513.78	1728.49
513.98	1699.81
514.18	1675.24
514.38	1755.11
514.58	1724.39
514.78	1699.81
514.98	1748.97
515.18	1824.74
515.38	1667.05
515.58	1785.83
515.78	1685.48
515.98	1652.71
516.18	1785.83
516.38	1837.03
516.57	1710.05
516.77	1693.67
516.97	1775.59
517.17	1759.21
517.37	1671.14
517.57	1769.44
517.77	1710.05
517.97	1665.00
518.17	1742.82
518.37	1652.71
518.57	1708.01
518.77	1753.06
518.97	1740.77
519.16	1738.73
519.36	1759.21
519.56	1693.67
519.76	1720.29
519.96	1742.82
520.16	1781.73
520.36	1738.73
520.56	1845.22
520.76	1765.35
520.96	1753.06
521.16	1791.97
521.35	1830.88
521.55	1820.64
521.75	1736.68
521.95	1683.43
522.15	1728.49
522.35	1699.81
522.55	1677.29
522.75	1808.36
522.95	1751.01
523.14	1708.01
523.34	1703.91
523.54	1746.92
523.74	1767.40
523.94	1757.16
524.14	1648.61
524.34	1759.21
524.54	1873.89
524.73	1722.34
524.93	1712.10
525.13	1724.39
525.33	1734.63
525.53	1929.19
525.73	1738.73
525.93	1705.96
526.13	1705.96
526.32	1765.35
526.52	1800.16
526.72	1810.40
526.92	1658.85
527.12	1665.00
527.32	1681.38
527.52	1658.85
527.71	1728.49
527.91	1687.53
528.11	1736.68
528.31	1691.62
528.51	1683.43
528.71	1806.31
528.90	1783.78
529.10	1837.03
529.30	1824.74
529.50	1658.85
529.70	1693.67
529.90	1755.11
530.09	1726.44
530.29	1673.19
530.49	1650.66
530.69	1791.97
530.89	1740.77
531.09	1847.27
531.28	1710.05
531.48	1775.59
531.68	1751.01
531.88	1753.06
532.08	1753.06
532.28	1757.16
532.47	1775.59
532.67	1751.01
532.87	1755.11
533.07	1710.05
533.27	1802.21
533.46	1730.53
533.66	1724.39
533.86	1783.78
534.06	1736.68
534.26	1722.34
534.45	1697.77
534.65	1724.39
534.85	1779.68
535.05	1728.49
535.25	1767.40
535.44	1769.44
535.64	1765.35
535.84	1751.01
536.04	1701.86
536.24	1671.14
536.43	1687.53
536.63	1755.11
536.83	1630.18
537.03	1673.19
537.22	1693.67
537.42	1628.14
537.62	1800.16
537.82	1710.05
538.02	1839.08
538.21	1814.50
538.41	1894.37
538.61	1701.86
538.81	1734.63
539.00	1816.55
539.20	1595.37
539.40	1662.95
539.60	1769.44
539.79	1746.92
539.99	1730.53
540.19	1681.38
540.39	1705.96
540.58	1738.73
540.78	1787.88
540.98	1658.85
541.18	1767.40
541.37	1714.15
541.57	1681.38
541.77	1775.59
541.97	1693.67
542.16	1642.47
542.36	1742.82
542.56	1689.57
542.76	1861.60
542.95	1757.16
543.15	1775.59
543.35	1775.59
543.54	1679.33
543.74	1671.14
543.94	1728.49
544.14	1689.57
544.33	1740.77
544.53	1755.11
544.73	1763.30
544.93	1685.48
545.12	1691.62
545.32	1734.63
545.52	1609.70
545.71	1669.09
545.91	1718.25
546.11	1736.68
546.30	1652.71
546.50	1665.00
546.70	1765.35
546.90	1738.73
547.09	1652.71
547.29	1720.29
547.49	1816.55
547.68	1712.10
547.88	1656.81
548.08	1775.59
548.27	2238.43
548.47	1683.43
548.67	1675.24
548.87	1724.39
549.06	1658.85
549.26	1730.53
549.46	1730.53
549.65	1753.06
549.85	1769.44
550.05	1789.92
550.24	1587.18
550.44	1736.68
550.64	1701.86
550.83	1736.68
551.03	1789.92
551.23	1775.59
551.42	1775.59
551.62	1837.03
551.82	1650.66
552.01	1683.43
552.21	1800.16
552.41	1675.24
552.60	1738.73
552.80	1689.57
553.00	1689.57
553.19	1728.49
553.39	1855.46
553.59	1687.53
553.78	1712.10
553.98	1722.34
554.17	1662.95
554.37	1769.44
554.57	1779.68
554.76	1681.38
554.96	1693.67
555.16	1712.10
555.35	1740.77
555.55	1720.29
555.75	1800.16
555.94	1742.82
556.14	1681.38
556.33	1738.73
556.53	1769.44
556.73	1722.34
556.92	1738.73
557.12	1771.49
557.32	1845.22
557.51	1798.12
557.71	1751.01
557.90	1851.36
558.10	1771.49
558.30	1673.19
558.49	1753.06
558.69	1722.34
558.88	1777.64
559.08	1763.30
559.28	1751.01
559.47	1722.34
559.67	1746.92
559.86	1882.08
560.06	1691.62
560.26	1687.53
560.45	1767.40
560.65	1656.81
560.84	1769.44
561.04	1634.28
561.24	1802.21
561.43	1689.57
561.63	1736.68
561.82	1716.20
562.02	1779.68
562.22	1720.29
562.41	1701.86
562.61	1695.72
562.80	1695.72
563.00	1894.37
563.19	1822.69
563.39	1814.50
563.59	1734.63
563.78	1703.91
563.98	1652.71
564.17	1689.57
564.37	1665.00
564.56	1757.16
564.76	1722.34
564.96	1828.84
565.15	1839.08
565.35	1886.18
565.54	1765.35
565.74	1765.35
565.93	1767.40
566.13	1710.05
566.32	1804.26
566.52	1757.16
566.71	1775.59
566.91	1767.40
567.11	1714.15
567.30	1734.63
567.50	1802.21
567.69	1849.32
567.89	1720.29
568.08	1730.53
568.28	1755.11
568.47	1654.76
568.67	1818.60
568.86	1705.96
569.06	1810.40
569.25	1712.10
569.45	1697.77
569.64	1724.39
569.84	1775.59
570.04	1759.21
570.23	1689.57
570.43	1724.39
570.62	1744.87
570.82	1849.32
571.01	1685.48
571.21	1708.01
571.40	1671.14
571.60	1820.64
571.79	1769.44
571.99	1738.73
572.18	1732.58
572.38	1732.58
572.57	1753.06
572.77	1761.25
572.96	1941.47
573.16	1746.92
573.35	1697.77
573.55	1775.59
573.74	1785.83
573.94	1689.57
574.13	1773.54
574.33	1777.64
574.52	1830.88
574.71	1789.92
574.91	1748.97
575.10	1732.58
575.30	1640.42
575.49	1691.62
575.69	1660.90
575.88	1783.78
576.08	1689.57
576.27	1771.49
576.47	1703.91
576.66	1853.41
576.86	1732.58
577.05	1812.45
577.25	1828.84
577.44	1853.41
577.64	1759.21
577.83	1738.73
578.02	1759.21
578.22	1810.40
578.41	1880.04
578.61	1783.78
578.80	1726.44
579.00	1726.44
579.19	1675.24
579.39	1751.01
579.58	1787.88
579.77	1804.26
579.97	1865.70
580.16	1806.31
580.36	1812.45
580.55	1779.68
580.75	1798.12
580.94	1806.31
581.13	1822.69
581.33	1886.18
581.52	1724.39
581.72	1845.22
581.91	1888.23
582.11	1697.77
582.30	1781.73
582.49	1777.64
582.69	1779.68
582.88	1728.49
583.08	1765.35
583.27	1779.68
583.47	1748.97
583.66	1654.76
583.85	1701.86
584.05	1718.25
584.24	1753.06
584.44	1794.02
584.63	1796.07
584.82	1785.83
585.02	1812.45
585.21	1808.36
585.41	1791.97
585.60	1820.64
585.79	1916.90
585.99	1970.15
586.18	1880.04
586.37	2168.80
586.57	3344.33
586.76	9713.52
586.96	24223.37
587.15	33904.12
587.34	39458.21
587.54	41526.66
587.73	35771.87
587.93	25562.75
588.12	21012.16
588.31	18212.59
588.51	15925.00
588.70	14819.10
588.89	13907.76
589.09	12302.15
589.28	10850.14
589.47	9269.11
589.67	7874.44
589.86	6258.59
590.06	4925.36
590.25	3981.25
590.44	3127.25
590.64	2484.19
590.83	2205.66
591.02	2176.99
591.22	1937.38
591.41	1906.66
591.60	1851.36
591.80	1978.34
591.99	1697.77
592.18	1796.07
592.38	1839.08
592.57	1722.34
592.76	1843.17
592.96	1695.72
593.15	1783.78
593.34	1765.35
593.54	1677.29
593.73	1812.45
593.92	1814.50
594.12	1855.46
594.31	1757.16
594.50	1808.36
594.70	1820.64
594.89	1898.47
595.08	1648.61
595.28	1763.30
595.47	1869.80
595.66	1820.64
595.86	1718.25
596.05	1816.55
596.24	1746.92
596.43	1865.70
596.63	1787.88
596.82	1738.73
597.01	1740.77
597.21	1785.83
597.40	1691.62
597.59	1755.11
597.79	1695.72
597.98	1777.64
598.17	1804.26
598.36	1730.53
598.56	1730.53
598.75	1763.30
598.94	1742.82
599.14	1837.03
599.33	1730.53
599.52	1802.21
599.71	1705.96
599.91	1753.06
600.10	1783.78
600.29	1736.68
600.48	1796.07
600.68	1722.34
600.87	1724.39
601.06	1763.30
601.26	1814.50
601.45	1718.25
601.64	1699.81
601.83	1804.26
602.03	1681.38
602.22	1640.42
602.41	1816.55
602.60	1839.08
602.80	1712.10
602.99	1812.45
603.18	1669.09
603.37	1730.53
603.57	1673.19
603.76	1769.44
603.95	1798.12
604.14	1796.07
604.34	1669.09
604.53	1693.67
604.72	1826.79
604.91	1683.43
605.10	1736.68
605.30	1683.43
605.49	1789.92
605.68	1771.49
605.87	1730.53
606.07	1673.19
606.26	1695.72
606.45	1781.73
606.64	1720.29
606.84	1720.29
607.03	1665.00
607.22	1746.92
607.41	1765.35
607.60	1671.14
607.80	1791.97
607.99	1681.38
608.18	1740.77
608.37	1779.68
608.56	1757.16
608.76	1726.44
608.95	1783.78
609.14	1667.05
609.33	1857.51
609.52	1798.12
609.72	1794.02
609.91	1796.07
610.10	1767.40
610.29	1771.49
610.48	1779.68
610.68	1781.73
610.87	1703.91
611.06	1740.77
611.25	1773.54
611.44	1863.65
611.63	1724.39
611.83	1718.25
612.02	1716.20
612.21	1837.03
612.40	1644.52
612.59	1667.05
612.79	1681.38
612.98	1751.01
613.17	1820.64
613.36	1710.05
613.55	1865.70
613.74	1615.85
613.93	1677.29
614.13	1744.87
614.32	1775.59
614.51	1693.67
614.70	1701.86
614.89	1652.71
615.08	1755.11
615.28	2115.55
615.47	1603.56
615.66	1687.53
615.85	1763.30
616.04	1847.27
616.23	1703.91
616.42	1720.29
616.62	1759.21
616.81	1771.49
617.00	1738.73
617.19	1759.21
617.38	1654.76
617.57	1689.57
617.76	1777.64
617.95	1755.11
618.15	1783.78
618.34	1814.50
618.53	1665.00
618.72	1779.68
618.91	1794.02
619.10	1853.41
619.29	1742.82
619.48	1705.96
619.68	1710.05
619.87	1810.40
620.06	1689.57
620.25	1689.57
620.44	1779.68
620.63	1677.29
620.82	1687.53
621.01	1808.36
621.20	1675.24
621.39	1751.01
621.59	1755.11
621.78	1689.57
621.97	1708.01
622.16	1767.40
622.35	1734.63
622.54	1697.77
622.73	1751.01
622.92	1646.57
623.11	1798.12
623.30	1660.90
623.49	1798.12
623.68	1681.38
623.88	1822.69
624.07	1634.28
624.26	1759.21
624.45	1710.05
624.64	1724.39
624.83	1703.91
625.02	1710.05
625.21	1771.49
625.40	1720.29
625.59	1724.39
625.78	1744.87
625.97	1753.06
626.16	1712.10
626.35	1748.97
626.54	1738.73
626.74	1771.49
626.93	1611.75
627.12	1796.07
627.31	1751.01
627.50	1722.34
627.69	1781.73
627.88	1597.42
628.07	1695.72
628.26	1683.43
628.45	1685.48
628.64	1695.72
628.83	1691.62
629.02	1697.77
629.21	1716.20
629.40	1722.34
629.59	1632.23
629.78	1685.48
629.97	1691.62
630.16	1740.77
630.35	1703.91
630.54	1701.86
630.73	1644.52
630.92	1714.15
631.11	1685.48
631.30	1775.59
631.49	1710.05
631.68	1744.87
631.87	1746.92
632.06	1583.08
632.25	1832.93
632.44	1716.20
632.63	1767.40
632.82	1722.34
633.01	1640.42
633.20	1775.59
633.39	1718.25
633.58	1599.46
633.77	1712.10
633.96	1689.57
634.15	1718.25
634.34	1724.39
634.53	1667.05
634.72	1714.15
634.91	1585.13
635.10	1746.92
635.29	1744.87
635.48	1748.97
635.67	1734.63
635.86	1705.96
636.05	1789.92
636.24	1746.92
636.43	1798.12
636.62	1716.20
636.81	1615.85
637.00	1738.73
637.19	1806.31
637.38	1665.00
637.57	1667.05
637.76	1708.01
637.95	1763.30
638.14	1656.81
638.33	1689.57
638.52	1732.58
638.71	1671.14
638.89	1650.66
639.08	1871.84
639.27	1779.68
639.46	1691.62
639.65	1787.88
639.84	1744.87
640.03	1820.64
640.22	1710.05
640.41	1787.88
640.60	1738.73
640.79	1732.58
640.98	1675.24
641.17	1773.54
641.36	1775.59
641.55	1703.91
641.74	1636.33
641.92	1650.66
642.11	1675.24
642.30	1748.97
642.49	1697.77
642.68	1681.38
642.87	1665.00
643.06	1777.64
643.25	1722.34
643.44	1574.89
643.63	1669.09
643.82	1710.05
644.00	1669.09
644.19	1767.40
644.38	1701.86
644.57	1705.96
644.76	1755.11
644.95	1724.39
645.14	1742.82
645.33	1699.81
645.52	1751.01
645.71	1640.42
645.89	1681.38
646.08	1730.53
646.27	1644.52
646.46	1853.41
646.65	1650.66
646.84	1697.77
647.03	1630.18
647.22	1755.11
647.40	1716.20
647.59	1781.73
647.78	1640.42
647.97	1669.09
648.16	1732.58
648.35	1736.68
648.54	1724.39
648.73	1746.92
648.91	1720.29
649.10	1728.49
649.29	1658.85
649.48	1734.63
649.67	1755.11
649.86	1697.77
650.05	1644.52
650.23	1779.68
650.42	1626.09
650.61	1718.25
650.80	1742.82
650.99	1869.80
651.18	1820.64
651.36	1744.87
651.55	1671.14
651.74	1804.26
651.93	1669.09
652.12	1697.77
652.31	1679.33
652.49	1714.15
652.68	1656.81
652.87	1789.92
653.06	1683.43
653.25	1798.12
653.44	1681.38
653.62	1720.29
653.81	1705.96
654.00	1681.38
654.19	1761.25
654.38	1892.32
654.56	1710.05
654.75	1697.77
654.94	1718.25
655.13	1798.12
655.32	1746.92
655.51	1710.05
655.69	1830.88
655.88	1705.96
656.07	1662.95
656.26	1726.44
656.45	1652.71
656.63	1740.77
656.82	1757.16
657.01	1818.60
657.20	1740.77
657.38	1802.21
657.57	1636.33
657.76	1697.77
657.95	1763.30
658.14	1626.09
658.32	1746.92
658.51	1708.01
658.70	1783.78
658.89	1763.30
659.08	1742.82
659.26	1755.11
659.45	1742.82
659.64	1720.29
659.83	1642.47
660.01	1855.46
660.20	1654.76
660.39	1746.92
660.58	1634.28
660.76	1845.22
660.95	1720.29
661.14	1697.77
661.33	1601.51
661.51	1699.81
661.70	1683.43
661.89	1681.38
662.08	1722.34
662.26	1703.91
662.45	1732.58
662.64	1927.14
662.83	1771.49
663.01	1675.24
663.20	1693.67
663.39	1777.64
663.58	1699.81
663.76	1689.57
663.95	1755.11
664.14	1603.56
664.32	1669.09
664.51	1595.37
664.70	1611.75
664.89	1759.21
665.07	1609.70
665.26	1828.84
665.45	1632.23
665.64	1740.77
665.82	1701.86
666.01	1806.31
666.20	1648.61
666.38	1806.31
666.57	1714.15
666.76	2176.99
666.95	4495.29
667.13	10166.12
667.32	14712.61
667.51	17600.24
667.69	18661.09
667.88	17202.94
668.07	12259.14
668.25	9650.03
668.44	7917.45
668.63	7237.52
668.81	6686.62
669.00	6188.96
669.19	5736.36
669.38	4988.85
669.56	4546.49
669.75	3923.91
669.94	3319.76
670.12	2811.86
670.31	2529.24
670.50	2267.10
670.68	2056.16
670.87	1949.67
671.06	1867.75
671.24	1851.36
671.43	1861.60
671.62	1683.43
671.80	1681.38
671.99	1773.54
672.18	1744.87
672.36	1810.40
672.55	1759.21
672.74	1751.01
672.92	1724.39
673.11	1708.01
673.29	1607.66
673.48	1716.20
673.67	1687.53
673.85	1728.49
674.04	1673.19
674.23	1703.91
674.41	1810.40
674.60	1621.99
674.79	1658.85
674.97	1644.52
675.16	1728.49
675.34	1767.40
675.53	1710.05
675.72	1730.53
675.90	1808.36
676.09	1730.53
676.28	1734.63
676.46	1570.79
676.65	1705.96
676.83	1687.53
677.02	1712.10
677.21	1763.30
677.39	1771.49
677.58	1701.86
677.77	1607.66
677.95	1658.85
678.14	1677.29
678.32	1724.39
678.51	1703.91
678.70	1806.31
678.88	1771.49
679.07	1755.11
679.25	1701.86
679.44	1726.44
679.63	1710.05
679.81	1703.91
680.00	1798.12
680.18	1734.63
680.37	1834.98
680.55	1730.53
680.74	1615.85
680.93	1675.24
681.11	1708.01
681.30	1656.81
681.48	1673.19
681.67	1718.25
681.85	1685.48
682.04	1705.96
682.23	1740.77
682.41	1748.97
682.60	1685.48
682.78	1652.71
682.97	1617.90
683.15	1665.00
683.34	1800.16
683.53	1787.88
683.71	1748.97
683.90	1816.55
684.08	1777.64
684.27	1640.42
684.45	1763.30
684.64	1757.16
684.82	1703.91
685.01	1755.11
685.19	1710.05
685.38	1806.31
685.57	1687.53
685.75	1662.95
685.94	1726.44
686.12	1679.33
686.31	1607.66
686.49	1837.03
686.68	1665.00
686.86	1689.57
687.05	1710.05
687.23	1783.78
687.42	1667.05
687.60	1662.95
687.79	1746.92
687.97	1751.01
688.16	1783.78
688.34	1808.36
688.53	1648.61
688.71	1693.67
688.90	1755.11
689.08	1689.57
689.27	1638.38
689.45	1771.49
689.64	1734.63
689.82	1767.40
690.01	1695.72
690.19	1763.30
690.38	1736.68
690.56	1816.55
690.75	1724.39
690.93	1662.95
691.12	1611.75
691.30	1839.08
691.49	1650.66
691.67	1728.49
691.86	1765.35
692.04	1632.23
692.23	1662.95
692.41	1681.38
692.60	1802.21
692.78	1808.36
692.97	1724.39
693.15	1734.63
693.34	1804.26
693.52	1761.25
693.71	1687.53
693.89	1662.95
694.08	1634.28
694.26	1724.39
694.44	1785.83
694.63	1773.54
694.81	1734.63
695.00	1673.19
695.18	1738.73
695.37	1898.47
695.55	1826.79
695.74	1615.85
695.92	1669.09
696.10	1724.39
696.29	1652.71
696.47	1632.23
696.66	1609.70
696.84	1615.85
697.03	1748.97
697.21	1802.21
697.40	2228.19
697.58	1824.74
697.76	1576.94
697.95	1646.57
698.13	1605.61
698.32	1650.66
698.50	1763.30
698.68	1712.10
698.87	1695.72
699.05	1800.16
699.24	1738.73
699.42	1624.04
699.61	1746.92
699.79	1716.20
699.97	1779.68
700.16	1652.71
700.34	1603.56
700.53	1714.15
700.71	1816.55
700.89	1728.49
701.08	1679.33
701.26	1652.71
701.45	2101.22
701.63	1677.29
701.81	1660.90
702.00	1693.67
702.18	1714.15
702.37	1681.38
702.55	1708.01
702.73	1662.95
702.92	1632.23
703.10	1765.35
703.28	1730.53
703.47	1644.52
703.65	1806.31
703.84	1667.05
704.02	1695.72
704.20	1773.54
704.39	1642.47
704.57	1644.52
704.75	1822.69
704.94	1787.88
705.12	1703.91
705.30	1722.34
705.49	2164.70
705.67	4308.93
705.86	9179.00
706.04	12298.05
706.22	13991.72
706.41	15013.66
706.59	13473.59
706.77	9383.79
706.96	7292.82
707.14	6539.16
707.32	5885.86
707.51	5672.87
707.69	4845.49
707.87	4124.61
708.06	3532.75
708.24	2920.40
708.42	2432.99
708.61	2285.53
708.79	1894.37
708.97	1867.75
709.16	1853.41
709.34	1785.83
709.52	1726.44
709.71	1748.97
709.89	1712.10
710.07	1693.67
710.26	1669.09
710.44	1785.83
710.62	1796.07
710.80	1689.57
710.99	1755.11
711.17	1800.16
711.35	1650.66
711.54	1703.91
711.72	1796.07
711.90	1771.49
712.09	1714.15
712.27	1740.77
712.45	1744.87
712.63	1699.81
712.82	1708.01
713.00	1677.29
713.18	1757.16
713.37	1765.35
713.55	1716.20
713.73	1708.01
713.91	1714.15
714.10	1699.81
714.28	1619.94
714.46	1755.11
714.65	1683.43
714.83	1679.33
715.01	1708.01
715.19	1718.25
715.38	1714.15
715.56	1746.92
715.74	1677.29
715.92	1726.44
716.11	1791.97
716.29	1599.46
716.47	1728.49
716.65	1675.24
716.84	1603.56
717.02	1728.49
717.20	1581.03
717.38	1681.38
717.57	1687.53
717.75	1677.29
717.93	1734.63
718.11	1679.33
718.30	1593.32
718.48	1732.58
718.66	1767.40
718.84	1769.44
719.03	1773.54
719.21	1679.33
719.39	1806.31
719.57	1687.53
719.75	1734.63
719.94	1632.23
720.12	1732.58
720.30	1701.86
720.48	1828.84
720.67	1681.38
720.85	1652.71
721.03	1705.96
721.21	1632.23
721.39	1658.85
721.58	1689.57
721.76	1621.99
721.94	1734.63
722.12	1669.09
722.30	1861.60
722.49	1751.01
722.67	1748.97
722.85	1779.68
723.03	1683.43
723.21	1714.15
723.40	1728.49
723.58	1785.83
723.76	1703.91
723.94	1765.35
724.12	1748.97
724.30	1724.39
724.49	1720.29
724.67	1650.66
724.85	1730.53
725.03	1693.67
725.21	1683.43
725.40	1787.88
725.58	1716.20
725.76	1800.16
725.94	1701.86
726.12	1675.24
726.30	1728.49
726.49	1716.20
726.67	1677.29
726.85	1697.77
727.03	1865.70
727.21	2090.98
727.39	2834.39
727.57	3803.08
727.76	4200.38
727.94	4380.61
728.12	4382.65
728.30	3633.10
728.48	2869.20
728.66	2639.83
728.84	2494.43
729.03	2287.58
729.21	2179.04
729.39	1992.67
729.57	1908.71
729.75	1853.41
729.93	1839.08
730.11	1673.19
730.30	1681.38
730.48	1658.85
730.66	1755.11
730.84	1734.63
731.02	1710.05
731.20	1734.63
731.38	1630.18
731.56	1626.09
731.74	1638.38
731.93	1673.19
732.11	1714.15
732.29	1648.61
732.47	1742.82
732.65	1783.78
732.83	1804.26
733.01	1703.91
733.19	1681.38
733.37	1685.48
733.56	1732.58
733.74	1634.28
733.92	1808.36
734.10	1665.00
734.28	1722.34
734.46	1574.89
734.64	1621.99
734.82	1726.44
735.00	1679.33
735.18	1699.81
735.36	1722.34
735.54	1722.34
735.73	1791.97
735.91	1724.39
736.09	1785.83
736.27	1705.96
736.45	1726.44
736.63	1617.90
736.81	1644.52
736.99	1710.05
737.17	1791.97
737.35	1683.43
737.53	1636.33
737.71	1712.10
737.89	1724.39
738.07	1615.85
738.25	1630.18
738.43	1675.24
738.61	1613.80
738.80	1624.04
738.98	1675.24
739.16	1685.48
739.34	1689.57
739.52	1740.77
739.70	1730.53
739.88	1748.97
740.06	1746.92
740.24	1546.22
740.42	1720.29
740.60	1607.66
740.78	1624.04
740.96	1626.09
741.14	1718.25
741.32	1730.53
741.50	1665.00
741.68	1845.22
741.86	1757.16
742.04	1640.42
742.22	1656.81
742.40	1730.53
742.58	1779.68
742.76	1697.77
742.94	1722.34
743.12	1648.61
743.30	1734.63
743.48	1708.01
743.66	1677.29
743.84	1685.48
744.02	1640.42
744.20	1720.29
744.38	1705.96
744.56	1665.00
744.74	1861.60
744.92	1632.23
745.10	1791.97
745.28	1722.34
745.46	1804.26
745.64	1642.47
745.82	1845.22
746.00	1761.25
746.18	1800.16
746.36	1703.91
746.54	1738.73
746.72	1613.80
746.90	1603.56
747.08	1773.54
747.26	1656.81
747.44	1683.43
747.62	1636.33
747.80	1773.54
747.98	1765.35
748.15	1654.76
748.33	1738.73
748.51	1693.67
748.69	1767.40
748.87	1611.75
749.05	1654.76
749.23	1648.61
749.41	1724.39
749.59	1722.34
749.77	1751.01
749.95	1679.33
750.13	1716.20
750.31	1636.33
750.49	1738.73
750.67	1705.96
750.85	1789.92
751.03	1722.34
751.20	1851.36
751.38	1658.85
751.56	1746.92
751.74	1718.25
751.92	1665.00
752.10	1640.42
752.28	1708.01
752.46	1691.62
752.64	1619.94
752.82	1755.11
753.00	1755.11
753.18	1732.58
753.35	1630.18
753.53	1798.12
753.71	1712.10
753.89	1712.10
754.07	1730.53
754.25	1828.84
754.43	1718.25
754.61	1693.67
754.79	1724.39
754.97	1679.33
755.14	1708.01
755.32	1636.33
755.50	1728.49
755.68	1740.77
755.86	1687.53
756.04	1607.66
756.22	1615.85
756.40	1718.25
756.57	1783.78
756.75	1761.25
756.93	1691.62
757.11	1675.24
757.29	1656.81
757.47	1683.43
757.65	1617.90
757.82	1603.56
758.00	1601.51
758.18	1695.72
758.36	1703.91
758.54	1802.21
758.72	1632.23
758.90	1775.59
759.07	1720.29
759.25	1624.04
759.43	1740.77
759.61	1675.24
759.79	2172.89
759.97	1705.96
760.15	1673.19
760.32	1677.29
760.50	1699.81
760.68	1800.16
760.86	1685.48
761.04	1685.48
761.22	1761.25
761.39	1734.63
761.57	1771.49
761.75	1746.92
761.93	1726.44
762.11	1652.71
762.28	1667.05
762.46	1632.23
762.64	1703.91
762.82	1544.17
763.00	1667.05
763.18	1755.11
763.35	1595.37
763.53	1689.57
763.71	1769.44
763.89	1714.15
764.07	1652.71
764.24	1703.91
764.42	1748.97
764.60	1626.09
764.78	1693.67
764.96	1765.35
765.13	1767.40
765.31	1714.15
765.49	1757.16
765.67	1642.47
765.84	1658.85
766.02	1710.05
766.20	1665.00
766.38	1779.68
766.56	1806.31
766.73	1671.14
766.91	1773.54
767.09	1609.70
767.27	1677.29
767.44	1591.27
767.62	1783.78
767.80	1703.91
767.98	1671.14
768.15	1714.15
768.33	1716.20
768.51	1767.40
768.69	1746.92
768.87	1771.49
769.04	1675.24
769.22	1783.78
769.40	1775.59
769.58	1867.75
769.75	1730.53
769.93	1718.25
770.11	1693.67
770.28	1714.15
770.46	1824.74
770.64	1753.06
770.82	1662.95
770.99	1710.05
771.17	1734.63
771.35	1673.19
771.53	1708.01
771.70	1634.28
771.88	1763.30
772.06	1773.54
772.23	1722.34
772.41	1755.11
772.59	1726.44
772.77	1589.22
772.94	1699.81
773.12	1736.68
773.30	1632.23
773.47	1632.23
773.65	1718.25
773.83	1775.59
774.01	1693.67
774.18	1705.96
774.36	1732.58
774.54	1697.77
774.71	1720.29
774.89	1648.61
775.07	1695.72
775.24	1650.66
775.42	1677.29
775.60	1734.63
775.78	1636.33
775.95	1599.46
776.13	1605.61
776.31	1658.85
776.48	1767.40
776.66	1697.77
776.84	1689.57
777.01	1718.25
777.19	1683.43
777.37	1642.47
777.54	1667.05
777.72	1849.32
777.90	1738.73
778.07	1675.24
778.25	1779.68
778.43	1781.73
778.60	1595.37
778.78	1703.91
778.96	1722.34
779.13	1585.13
779.31	1742.82
779.49	1794.02
779.66	1777.64
779.84	1726.44
780.01	1648.61
780.19	1621.99
780.37	1744.87
780.54	1753.06
780.72	1681.38
780.90	1712.10
781.07	1699.81
781.25	1665.00
781.43	1705.96
781.60	1640.42
781.78	1708.01
781.95	1665.00
782.13	1646.57
782.31	1722.34
782.48	1525.74
782.66	1732.58
782.83	1869.80
783.01	1689.57
783.19	1783.78
783.36	1677.29
783.54	1656.81
783.72	1759.21
783.89	1673.19
784.07	1730.53
784.24	1697.77
784.42	1763.30
784.60	1718.25
784.77	1718.25
784.95	1603.56
785.12	1675.24
785.30	1689.57
785.47	1595.37
785.65	1628.14
785.83	1675.24
786.00	1671.14
786.18	1705.96
786.35	1619.94
786.53	1591.27
786.71	1808.36
786.88	1689.57
787.06	1705.96
787.23	1613.80
787.41	1716.20
787.58	1624.04
787.76	1609.70
787.94	1683.43
788.11	1730.53
788.29	1609.70
788.46	1665.00
788.64	1609.70
788.81	1685.48
788.99	1636.33
789.16	1658.85
789.34	1685.48
789.52	1689.57
789.69	1640.42
789.87	1611.75
790.04	1665.00
790.22	1667.05
790.39	1800.16
790.57	1673.19
790.74	1581.03
790.92	1708.01
791.09	1613.80
791.27	1775.59
791.44	1763.30
791.62	1665.00
791.79	1718.25
791.97	1650.66
792.15	1837.03
792.32	1755.11
792.50	1763.30
792.67	1822.69
792.85	1728.49
793.02	1734.63
793.20	1693.67
793.37	1691.62
793.55	1720.29
793.72	1605.61
793.90	1732.58
794.07	1624.04
794.25	1662.95
794.42	1697.77
794.60	1712.10
794.77	1736.68
794.95	1753.06
795.12	1775.59
795.30	1697.77
795.47	1613.80
795.65	1869.80
795.82	1705.96
796.00	1701.86
796.17	1656.81
796.34	1662.95
796.52	1751.01
796.69	1730.53
796.87	1714.15
797.04	1767.40
797.22	1708.01
797.39	1697.77
797.57	1777.64
797.74	1771.49
797.92	1738.73
798.09	1658.85
798.27	1746.92
798.44	1769.44
798.62	1669.09
798.79	1771.49
798.96	1648.61
799.14	1685.48
799.31	1845.22
799.49	1652.71
799.66	1673.19
799.84	1710.05
800.01	1603.56
800.19	1736.68
800.36	1607.66
800.53	1654.76
800.71	1691.62
800.88	1789.92
801.06	1689.57
801.23	1658.85
801.41	1652.71
801.58	1693.67
801.75	1646.57
801.93	1705.96
802.10	1687.53
802.28	1679.33
802.45	1677.29
802.63	1753.06
802.80	1798.12
802.97	1652.71
803.15	1738.73
803.32	1585.13
803.50	1675.24
803.67	1675.24
803.84	1687.53
804.02	1763.30
804.19	1751.01
804.37	1570.79
804.54	1611.75
804.71	1636.33
804.89	1665.00
805.06	1667.05
805.24	1685.48
805.41	1699.81
805.58	1619.94
805.76	1877.99
805.93	1738.73
806.10	1759.21
806.28	1820.64
806.45	1681.38
806.63	1734.63
806.80	1740.77
806.97	1693.67
807.15	1755.11
807.32	1751.01
807.49	1638.38
807.67	1683.43
807.84	1773.54
808.01	1675.24
808.19	1787.88
808.36	1783.78
808.54	1646.57
808.71	1652.71
808.88	1673.19
809.06	1691.62
809.23	1724.39
809.40	1691.62
809.58	1861.60
809.75	1724.39
809.92	1675.24
810.10	1837.03
810.27	1699.81
810.44	1810.40
810.62	1734.63
810.79	1642.47
810.96	1642.47
811.14	1603.56
811.31	1708.01
811.48	1753.06
811.66	1679.33
811.83	1763.30
812.00	1667.05
812.18	1710.05
812.35	1886.18
812.52	1669.09
812.69	1626.09
812.87	1632.23
813.04	1652.71
813.21	1736.68
813.39	1681.38
813.56	1578.98
813.73	1765.35
813.91	1617.90
814.08	1775.59
814.25	1736.68
814.42	1607.66
814.60	1714.15
814.77	1744.87
814.94	1681.38
815.12	1703.91
815.29	1759.21
815.46	1683.43
815.63	1652.71
815.81	1677.29
815.98	1660.90
816.15	1703.91
816.33	1767.40
816.50	1665.00
816.67	1701.86
816.84	1677.29
817.02	1648.61
817.19	1699.81
817.36	1744.87
817.53	1763.30
817.71	1624.04
817.88	1748.97
818.05	1712.10
818.22	1665.00
818.40	1755.11
818.57	1730.53
818.74	1746.92
818.91	1652.71
819.09	1744.87
819.26	1683.43
819.43	1642.47
819.60	1693.67
819.78	1714.15
819.95	1716.20
820.12	1597.42
820.29	1832.93
820.47	1789.92
820.64	1638.38
820.81	1685.48
820.98	1683.43
821.15	1652.71
821.33	1691.62
821.50	1685.48
821.67	1701.86
821.84	1665.00
822.02	1714.15
822.19	1734.63
822.36	1665.00
822.53	1568.74
822.70	1665.00
822.88	1662.95
823.05	1724.39
823.22	1662.95
823.39	1673.19
823.56	1734.63
823.74	1755.11
823.91	1683.43
824.08	1646.57
824.25	1626.09
824.42	1746.92
824.60	1615.85
824.77	1695.72
824.94	1648.61
825.11	1732.58
825.28	1624.04
825.45	1681.38
825.63	1638.38
825.80	1665.00
825.97	1679.33
826.14	1710.05
826.31	1638.38
826.48	1710.05
826.66	1697.77
826.83	1671.14
827.00	1738.73
827.17	1669.09
827.34	1636.33
827.51	1705.96
827.69	1710.05
827.86	1689.57
828.03	1640.42
828.20	1718.25
828.37	1632.23
828.54	1730.53
828.71	1642.47
828.89	1806.31
829.06	1736.68
829.23	1726.44
829.40	1638.38
829.57	1626.09
829.74	1712.10
829.91	1648.61
830.09	1710.05
830.26	1701.86
830.43	1779.68
830.60	1671.14
830.77	1787.88
830.94	1796.07
831.11	1724.39
831.28	1708.01
831.46	1757.16
831.63	1685.48
831.80	1712.10
831.97	1660.90
832.14	1665.00
832.31	1763.30
832.48	1724.39
832.65	1753.06
832.82	1763.30
832.99	1734.63
833.17	1609.70
833.34	1822.69
833.51	1714.15
833.68	1630.18
833.85	1771.49
834.02	1665.00
834.19	1636.33
834.36	1619.94
834.53	1777.64
834.70	1755.11
834.87	1787.88
835.04	1683.43
835.22	1673.19
835.39	1693.67
835.56	1636.33
835.73	1699.81
835.90	1734.63
836.07	1691.62
836.24	1740.77
836.41	1685.48
836.58	1591.27
836.75	1759.21
836.92	1720.29
837.09	1673.19
837.26	1718.25
837.43	1712.10
837.60	1730.53
837.77	1689.57
837.94	1681.38
838.12	1693.67
838.29	1695.72
838.46	1585.13
838.63	1535.98
838.80	1830.88
838.97	1708.01
839.14	1716.20
839.31	1705.96
839.48	1781.73
839.65	1730.53
839.82	1716.20
839.99	1759.21
840.16	1730.53
840.33	1667.05
840.50	1673.19
840.67	1710.05
840.84	1546.22
841.01	1714.15
841.18	1665.00
841.35	1621.99
841.52	1763.30
841.69	1769.44
841.86	1722.34
842.03	1693.67
842.20	1681.38
842.37	1630.18
842.54	1726.44
842.71	1744.87
842.88	1609.70
843.05	1767.40
843.22	1849.32
843.39	1720.29
843.56	1652.71
843.73	1693.67
843.90	1687.53
844.07	1642.47
844.24	1812.45
844.41	1794.02
844.58	1648.61
844.75	1703.91
844.92	1728.49
845.09	1601.51
845.26	1675.24
845.43	1642.47
845.60	1685.48
845.77	1658.85
845.94	1796.07
846.10	1724.39
846.27	1665.00
846.44	1650.66
846.61	1691.62
846.78	1744.87
846.95	1742.82
847.12	1699.81
847.29	1681.38
847.46	1662.95
847.63	1724.39
847.80	1638.38
847.97	1626.09
848.14	1798.12
848.31	1669.09
848.48	1705.96
848.65	1708.01
848.82	1642.47
848.98	1736.68
849.15	1732.58
849.32	1789.92
849.49	1736.68
849.66	1675.24
849.83	1722.34
850.00	1621.99
850.17	1736.68
850.34	1634.28
850.51	1621.99
850.68	1769.44
850.85	1828.84
851.01	1681.38
851.18	1703.91
851.35	1677.29
851.52	1777.64
851.69	1796.07
851.86	1609.70
852.03	1677.29
852.20	1724.39
852.37	1652.71
852.53	1564.65
852.70	1685.48
852.87	1736.68
853.04	1695.72
853.21	1673.19
853.38	1677.29
853.55	1757.16
853.72	1708.01
853.89	1644.52
854.05	1628.14
854.22	1695.72
854.39	1652.71
854.56	1703.91
854.73	1787.88
854.90	1650.66
855.07	1726.44
855.23	1669.09
855.40	1673.19
855.57	1685.48
855.74	1587.18
855.91	1890.28
856.08	1652.71
856.25	1597.42
856.41	1617.90
856.58	1642.47
856.75	1718.25
856.92	1644.52
857.09	1714.15
857.26	1662.95
857.42	1720.29
857.59	1656.81
857.76	1675.24
857.93	1740.77
858.10	1630.18
858.27	1665.00
858.43	1724.39
858.60	1638.38
858.77	1632.23
858.94	1677.29
859.11	1730.53
859.27	1691.62
859.44	1699.81
859.61	1800.16
859.78	1705.96
859.95	1732.58
860.12	1728.49
860.28	1837.03
860.45	1773.54
860.62	1753.06
860.79	1660.90
860.95	1687.53
861.12	1624.04
861.29	1636.33
861.46	1669.09
861.63	1617.90
861.79	1701.86
861.96	1570.79
862.13	1730.53
862.30	1775.59
862.47	1753.06
862.63	1734.63
862.80	1740.77
862.97	1718.25
863.14	1712.10
863.30	1761.25
863.47	1574.89
863.64	1802.21
863.81	1722.34
863.97	1648.61
864.14	1646.57
864.31	1652.71
864.48	1710.05
864.65	1654.76
864.81	1787.88
864.98	1738.73
865.15	1726.44
865.32	1820.64
865.48	1740.77
865.65	1771.49
865.82	1624.04
865.98	1667.05
866.15	1771.49
866.32	1658.85
866.49	1716.20
866.65	1748.97
866.82	1689.57
866.99	1712.10
867.16	1757.16
867.32	1677.29
867.49	1724.39
867.66	1638.38
867.83	1667.05
867.99	1736.68
868.16	1632.23
868.33	1675.24
868.49	1716.20
868.66	1669.09
868.83	1816.55
868.99	1681.38
869.16	1708.01
869.33	1794.02
869.50	1796.07
869.66	1714.15
869.83	1650.66
870.00	1695.72
870.16	1720.29
870.33	1722.34
870.50	1714.15
870.66	1693.67
870.83	1724.39
871.00	1689.57
871.17	1714.15
871.33	1699.81
871.50	1632.23
871.67	1722.34
871.83	1675.24
872.00	1804.26
872.17	1675.24
872.33	1755.11
872.50	1714.15
872.67	1681.38
872.83	1628.14
873.00	1695.72
873.17	1695.72
873.33	1757.16
873.50	1744.87
873.67	1687.53
873.83	1691.62
874.00	1665.00
874.16	1826.79
874.33	1744.87
874.50	1603.56
874.66	1744.87
874.83	1755.11
875.00	1718.25
875.16	1710.05
875.33	1740.77
875.50	1624.04
875.66	1667.05
875.83	1681.38
875.99	1617.90
876.16	1693.67
876.33	1552.36
876.49	1681.38
876.66	1685.48
876.83	1695.72
876.99	1650.66
877.16	1708.01
877.32	1722.34
877.49	1730.53
877.66	1697.77
877.82	1748.97
877.99	1720.29
878.15	1740.77
878.32	1765.35
878.49	1636.33
878.65	1691.62
878.82	1751.01
878.98	1722.34
879.15	1763.30
879.32	1669.09
879.48	1705.96
879.65	1665.00
879.81	1683.43
879.98	1724.39
880.15	1695.72
880.31	1759.21
880.48	1687.53
880.64	1751.01
880.81	1748.97
880.97	1828.84
881.14	1744.87
881.31	1658.85
881.47	1810.40
881.64	1697.77
881.80	1603.56
881.97	1660.90
882.13	1775.59
882.30	1630.18
882.47	1638.38
882.63	1642.47
882.80	1634.28
882.96	1701.86
883.13	1800.16
883.29	1708.01
883.46	1691.62
883.62	1880.04
883.79	1724.39
883.95	1689.57
884.12	1705.96
884.29	1746.92
884.45	1730.53
884.62	1716.20
884.78	1679.33
884.95	1767.40
885.11	1681.38
885.28	1703.91
885.44	1669.09
885.61	1734.63
885.77	1773.54
885.94	1720.29
886.10	1712.10
886.27	1699.81
886.43	1767.40
886.60	1728.49
886.76	1673.19
886.93	1609.70
887.09	1742.82
887.26	1621.99
887.42	1665.00
887.59	1828.84
887.75	1818.60
887.92	1767.40
888.08	1675.24
888.25	1701.86
888.41	1697.77
888.58	1658.85
888.74	1640.42
888.91	1646.57
>>>>>End Processed Spectral Data<<<<<
