SpectraSuite Data File
++++++++++++++++++++++++++++++++++++
Date: Mon Jun 06 14:33:37 CEST 2016
User: root
Dark Spectrum Present: No
Reference Spectrum Present: No
Number of Sampled Component Spectra: 1
Spectrometers: USB4C02835
Integration Time (usec): 100000 (USB4C02835)
Spectra Averaged: 1 (USB4C02835)
Boxcar Smoothing: 0 (USB4C02835)
Correct for Electrical Dark: No (USB4C02835)
Strobe/Lamp Enabled: No (USB4C02835)
Correct for Detector Non-linearity: No (USB4C02835)
Correct for Stray Light: No (USB4C02835)
Number of Pixels in Processed Spectrum: 3648
>>>>>Begin Processed Spectral Data<<<<<
177.47	1427.43
177.69	1427.43
177.91	1427.43
178.13	1560.55
178.36	1423.34
178.58	1644.52
178.80	1716.20
179.02	1589.22
179.24	1628.14
179.46	1681.38
179.68	1738.73
179.90	1681.38
180.13	1740.77
180.35	1611.75
180.57	1669.09
180.79	1708.01
181.01	1665.00
181.23	1710.05
181.45	1669.09
181.67	1720.29
181.90	1734.63
182.12	1802.21
182.34	1572.84
182.56	1699.81
182.78	1720.29
183.00	1689.57
183.22	1744.87
183.44	1656.81
183.66	1902.56
183.89	1724.39
184.11	1660.90
184.33	1740.77
184.55	1777.64
184.77	1669.09
184.99	1703.91
185.21	1656.81
185.43	1775.59
185.65	1628.14
185.87	1636.33
186.10	1853.41
186.32	1779.68
186.54	1798.12
186.76	1691.62
186.98	1746.92
187.20	1681.38
187.42	1677.29
187.64	1734.63
187.86	1669.09
188.08	1771.49
188.30	1646.57
188.52	1656.81
188.75	1791.97
188.97	1783.78
189.19	1578.98
189.41	1626.09
189.63	1726.44
189.85	1656.81
190.07	1697.77
190.29	1619.94
190.51	1677.29
190.73	1628.14
190.95	1785.83
191.17	1658.85
191.39	1662.95
191.61	1736.68
191.84	1693.67
192.06	1691.62
192.28	1615.85
192.50	1847.27
192.72	1667.05
192.94	1675.24
193.16	1765.35
193.38	1689.57
193.60	1681.38
193.82	1757.16
194.04	1796.07
194.26	1748.97
194.48	1744.87
194.70	1718.25
194.92	1671.14
195.14	1744.87
195.36	1699.81
195.58	1650.66
195.80	1683.43
196.02	1697.77
196.24	1699.81
196.46	1753.06
196.69	1689.57
196.91	1810.40
197.13	1691.62
197.35	1632.23
197.57	1800.16
197.79	1695.72
198.01	1783.78
198.23	1681.38
198.45	1681.38
198.67	1699.81
198.89	1699.81
199.11	1667.05
199.33	1652.71
199.55	1546.22
199.77	1701.86
199.99	1753.06
200.21	1705.96
200.43	1765.35
200.65	1591.27
200.87	1599.46
201.09	1744.87
201.31	1677.29
201.53	1740.77
201.75	1714.15
201.97	1669.09
202.19	1687.53
202.41	1714.15
202.63	1828.84
202.85	1748.97
203.07	1720.29
203.29	1665.00
203.51	1722.34
203.73	1621.99
203.95	1804.26
204.17	1834.98
204.39	1783.78
204.61	1642.47
204.83	1681.38
205.05	1777.64
205.27	1775.59
205.49	1736.68
205.71	1724.39
205.93	1662.95
206.15	1679.33
206.37	1705.96
206.59	1677.29
206.81	1703.91
207.03	1634.28
207.25	1621.99
207.47	1708.01
207.69	1753.06
207.91	1791.97
208.13	1736.68
208.34	1675.24
208.56	1621.99
208.78	1777.64
209.00	1683.43
209.22	1634.28
209.44	1662.95
209.66	1726.44
209.88	1775.59
210.10	1714.15
210.32	1677.29
210.54	1777.64
210.76	1667.05
210.98	1759.21
211.20	1591.27
211.42	1656.81
211.64	1755.11
211.86	1763.30
212.08	1755.11
212.30	1777.64
212.52	1724.39
212.74	1744.87
212.96	1791.97
213.17	1708.01
213.39	1757.16
213.61	1728.49
213.83	1785.83
214.05	1636.33
214.27	1671.14
214.49	1626.09
214.71	1742.82
214.93	1714.15
215.15	1632.23
215.37	1757.16
215.59	1593.32
215.81	1769.44
216.03	1781.73
216.24	1685.48
216.46	1681.38
216.68	1689.57
216.90	1769.44
217.12	1773.54
217.34	1726.44
217.56	1697.77
217.78	1675.24
218.00	1738.73
218.22	1701.86
218.44	1748.97
218.66	1697.77
218.87	1822.69
219.09	1718.25
219.31	1736.68
219.53	1720.29
219.75	1671.14
219.97	1701.86
220.19	1697.77
220.41	1669.09
220.63	1714.15
220.85	1701.86
221.06	1669.09
221.28	1761.25
221.50	1763.30
221.72	1705.96
221.94	1687.53
222.16	1785.83
222.38	1699.81
222.60	1773.54
222.82	1652.71
223.03	1708.01
223.25	1603.56
223.47	1748.97
223.69	1814.50
223.91	1789.92
224.13	1724.39
224.35	1660.90
224.57	1755.11
224.78	1697.77
225.00	1607.66
225.22	1716.20
225.44	1673.19
225.66	1781.73
225.88	1699.81
226.10	1763.30
226.32	1708.01
226.53	1783.78
226.75	1656.81
226.97	1728.49
227.19	1638.38
227.41	1656.81
227.63	1697.77
227.85	1603.56
228.06	1755.11
228.28	1695.72
228.50	1746.92
228.72	1621.99
228.94	1632.23
229.16	1591.27
229.37	1624.04
229.59	1691.62
229.81	1732.58
230.03	1720.29
230.25	1626.09
230.47	1611.75
230.69	1640.42
230.90	1751.01
231.12	1609.70
231.34	1763.30
231.56	1697.77
231.78	1613.80
232.00	1763.30
232.21	1701.86
232.43	1705.96
232.65	1599.46
232.87	1779.68
233.09	1697.77
233.30	1699.81
233.52	1742.82
233.74	1746.92
233.96	1650.66
234.18	1753.06
234.40	1773.54
234.61	1761.25
234.83	1669.09
235.05	1599.46
235.27	1843.17
235.49	1726.44
235.70	1753.06
235.92	1765.35
236.14	1769.44
236.36	1834.98
236.58	1632.23
236.79	1708.01
237.01	1677.29
237.23	1667.05
237.45	1853.41
237.67	1648.61
237.88	1689.57
238.10	1880.04
238.32	1632.23
238.54	1693.67
238.76	1662.95
238.97	1677.29
239.19	1681.38
239.41	1851.36
239.63	1771.49
239.85	1660.90
240.06	1705.96
240.28	1675.24
240.50	1808.36
240.72	1683.43
240.93	1695.72
241.15	1724.39
241.37	1732.58
241.59	1802.21
241.81	1603.56
242.02	1724.39
242.24	1599.46
242.46	1763.30
242.68	1665.00
242.89	1757.16
243.11	1798.12
243.33	1722.34
243.55	1732.58
243.76	1757.16
243.98	1665.00
244.20	1697.77
244.42	1730.53
244.64	1732.58
244.85	1599.46
245.07	1613.80
245.29	1773.54
245.51	1722.34
245.72	1673.19
245.94	1759.21
246.16	1771.49
246.38	1767.40
246.59	1724.39
246.81	1609.70
247.03	1652.71
247.24	1617.90
247.46	1691.62
247.68	1685.48
247.90	1669.09
248.11	1705.96
248.33	1761.25
248.55	1697.77
248.77	1730.53
248.98	1726.44
249.20	1765.35
249.42	1675.24
249.64	1742.82
249.85	1740.77
250.07	1617.90
250.29	1767.40
250.50	1771.49
250.72	1597.42
250.94	1656.81
251.16	1855.46
251.37	1802.21
251.59	1681.38
251.81	1738.73
252.02	1849.32
252.24	1687.53
252.46	1783.78
252.68	1667.05
252.89	1712.10
253.11	1632.23
253.33	1726.44
253.54	1781.73
253.76	1693.67
253.98	1679.33
254.20	1789.92
254.41	1587.18
254.63	1638.38
254.85	1638.38
255.06	1742.82
255.28	1718.25
255.50	1720.29
255.71	1693.67
255.93	1656.81
256.15	1695.72
256.36	1738.73
256.58	1699.81
256.80	1714.15
257.02	1642.47
257.23	1679.33
257.45	1628.14
257.67	1798.12
257.88	1609.70
258.10	1761.25
258.32	1675.24
258.53	1728.49
258.75	1822.69
258.97	1656.81
259.18	1708.01
259.40	1734.63
259.62	1710.05
259.83	1732.58
260.05	1697.77
260.27	2000.87
260.48	1759.21
260.70	1619.94
260.92	1736.68
261.13	1667.05
261.35	1589.22
261.57	1783.78
261.78	1607.66
262.00	1669.09
262.22	1697.77
262.43	1689.57
262.65	1730.53
262.86	1812.45
263.08	1832.93
263.30	1716.20
263.51	1593.32
263.73	1677.29
263.95	1771.49
264.16	1683.43
264.38	1689.57
264.60	1757.16
264.81	1644.52
265.03	1816.55
265.25	1710.05
265.46	1689.57
265.68	1753.06
265.89	1783.78
266.11	1581.03
266.33	1699.81
266.54	1767.40
266.76	1689.57
266.98	1724.39
267.19	1759.21
267.41	1724.39
267.62	1710.05
267.84	1560.55
268.06	1710.05
268.27	1732.58
268.49	1728.49
268.70	1767.40
268.92	1656.81
269.14	1636.33
269.35	1662.95
269.57	1697.77
269.79	1742.82
270.00	1683.43
270.22	1822.69
270.43	1708.01
270.65	1574.89
270.87	1712.10
271.08	1712.10
271.30	1771.49
271.51	1738.73
271.73	1710.05
271.95	1773.54
272.16	1697.77
272.38	1759.21
272.59	1728.49
272.81	1742.82
273.02	1757.16
273.24	1755.11
273.46	1785.83
273.67	1607.66
273.89	1638.38
274.10	1654.76
274.32	1742.82
274.54	1697.77
274.75	1710.05
274.97	1720.29
275.18	1724.39
275.40	1798.12
275.61	1744.87
275.83	1683.43
276.05	1638.38
276.26	1683.43
276.48	1730.53
276.69	1658.85
276.91	1705.96
277.12	1806.31
277.34	1736.68
277.55	1800.16
277.77	1722.34
277.99	1644.52
278.20	1656.81
278.42	1619.94
278.63	1617.90
278.85	1613.80
279.06	1640.42
279.28	1699.81
279.49	1716.20
279.71	1742.82
279.93	1673.19
280.14	1699.81
280.36	1601.51
280.57	1785.83
280.79	1701.86
281.00	1636.33
281.22	1724.39
281.43	1687.53
281.65	1587.18
281.86	1687.53
282.08	1708.01
282.29	1837.03
282.51	1630.18
282.73	1640.42
282.94	1626.09
283.16	1794.02
283.37	1834.98
283.59	1759.21
283.80	1638.38
284.02	1695.72
284.23	1767.40
284.45	1671.14
284.66	1638.38
284.88	1656.81
285.09	1695.72
285.31	1759.21
285.52	1779.68
285.74	1632.23
285.95	1800.16
286.17	1708.01
286.38	1751.01
286.60	1685.48
286.81	1658.85
287.03	1660.90
287.24	1671.14
287.46	1681.38
287.67	1755.11
287.89	1738.73
288.10	1718.25
288.32	1714.15
288.53	1828.84
288.75	1720.29
288.96	1804.26
289.18	1654.76
289.39	1710.05
289.61	1740.77
289.82	1861.60
290.04	1794.02
290.25	1726.44
290.47	1708.01
290.68	1634.28
290.90	1771.49
291.11	1589.22
291.33	1777.64
291.54	1667.05
291.76	1679.33
291.97	1740.77
292.18	1736.68
292.40	1675.24
292.61	1697.77
292.83	1794.02
293.04	1759.21
293.26	1669.09
293.47	1683.43
293.69	1681.38
293.90	1716.20
294.12	1759.21
294.33	1712.10
294.55	1701.86
294.76	1781.73
294.97	1845.22
295.19	1845.22
295.40	1671.14
295.62	1689.57
295.83	1826.79
296.05	1722.34
296.26	1755.11
296.48	1642.47
296.69	1640.42
296.90	1695.72
297.12	1746.92
297.33	1767.40
297.55	1665.00
297.76	1740.77
297.98	1791.97
298.19	1677.29
298.41	1728.49
298.62	1638.38
298.83	1812.45
299.05	1765.35
299.26	1675.24
299.48	1685.48
299.69	1691.62
299.90	1732.58
300.12	1679.33
300.33	1683.43
300.55	1619.94
300.76	1787.88
300.98	1615.85
301.19	1742.82
301.40	1687.53
301.62	1681.38
301.83	1814.50
302.05	1703.91
302.26	1673.19
302.47	1695.72
302.69	1644.52
302.90	1632.23
303.12	1626.09
303.33	1697.77
303.54	1828.84
303.76	1689.57
303.97	1712.10
304.19	1763.30
304.40	1652.71
304.61	1703.91
304.83	1820.64
305.04	1671.14
305.26	1771.49
305.47	1701.86
305.68	1687.53
305.90	1691.62
306.11	1755.11
306.33	1753.06
306.54	1656.81
306.75	1734.63
306.97	1495.02
307.18	1697.77
307.39	1695.72
307.61	1781.73
307.82	1720.29
308.04	1804.26
308.25	1689.57
308.46	1734.63
308.68	1677.29
308.89	1675.24
309.10	1767.40
309.32	1732.58
309.53	1642.47
309.74	1791.97
309.96	1638.38
310.17	1773.54
310.39	1734.63
310.60	1677.29
310.81	1619.94
311.03	1581.03
311.24	1765.35
311.45	1744.87
311.67	1769.44
311.88	1714.15
312.09	1726.44
312.31	1703.91
312.52	1789.92
312.73	1834.98
312.95	1574.89
313.16	1642.47
313.37	1710.05
313.59	1691.62
313.80	1671.14
314.01	1794.02
314.23	1662.95
314.44	1675.24
314.65	1640.42
314.87	1611.75
315.08	1701.86
315.29	1742.82
315.51	1691.62
315.72	1611.75
315.93	1818.60
316.15	1740.77
316.36	1734.63
316.57	1738.73
316.79	1691.62
317.00	1646.57
317.21	1714.15
317.43	1730.53
317.64	1789.92
317.85	1630.18
318.07	1697.77
318.28	1695.72
318.49	1824.74
318.70	1873.89
318.92	1849.32
319.13	1822.69
319.34	1873.89
319.56	1880.04
319.77	1751.01
319.98	1845.22
320.20	1675.24
320.41	1773.54
320.62	1650.66
320.83	1644.52
321.05	1865.70
321.26	1724.39
321.47	1683.43
321.69	1757.16
321.90	1669.09
322.11	1705.96
322.32	1701.86
322.54	1771.49
322.75	1705.96
322.96	1794.02
323.18	1630.18
323.39	1613.80
323.60	1644.52
323.81	1804.26
324.03	1658.85
324.24	1736.68
324.45	1687.53
324.66	1757.16
324.88	1714.15
325.09	1755.11
325.30	1726.44
325.52	1705.96
325.73	1802.21
325.94	1681.38
326.15	1585.13
326.37	1695.72
326.58	1744.87
326.79	1800.16
327.00	1679.33
327.22	1755.11
327.43	1662.95
327.64	1634.28
327.85	1687.53
328.07	1724.39
328.28	1812.45
328.49	1632.23
328.70	1755.11
328.92	1665.00
329.13	1710.05
329.34	1617.90
329.55	1794.02
329.76	1703.91
329.98	1669.09
330.19	1767.40
330.40	1748.97
330.61	1740.77
330.83	1716.20
331.04	1699.81
331.25	1683.43
331.46	1683.43
331.68	1601.51
331.89	1732.58
332.10	1636.33
332.31	1644.52
332.52	1705.96
332.74	1798.12
332.95	1636.33
333.16	1613.80
333.37	1771.49
333.58	1673.19
333.80	1773.54
334.01	1558.50
334.22	1701.86
334.43	1656.81
334.64	1650.66
334.86	1662.95
335.07	1652.71
335.28	1751.01
335.49	1644.52
335.70	1699.81
335.92	1769.44
336.13	1804.26
336.34	1689.57
336.55	1767.40
336.76	1681.38
336.98	1574.89
337.19	1703.91
337.40	1828.84
337.61	1871.84
337.82	1714.15
338.04	1716.20
338.25	1585.13
338.46	1669.09
338.67	1697.77
338.88	1597.42
339.09	1662.95
339.31	1718.25
339.52	1640.42
339.73	1617.90
339.94	1699.81
340.15	1693.67
340.36	1654.76
340.58	1699.81
340.79	1632.23
341.00	1705.96
341.21	1703.91
341.42	1781.73
341.63	1714.15
341.85	1724.39
342.06	1765.35
342.27	1648.61
342.48	1710.05
342.69	1597.42
342.90	1738.73
343.12	1738.73
343.33	1572.84
343.54	1720.29
343.75	1816.55
343.96	1654.76
344.17	1650.66
344.38	1660.90
344.60	1632.23
344.81	1650.66
345.02	1716.20
345.23	1716.20
345.44	1824.74
345.65	1746.92
345.86	1724.39
346.07	1703.91
346.29	1681.38
346.50	1714.15
346.71	1689.57
346.92	1705.96
347.13	1882.08
347.34	1714.15
347.55	1693.67
347.76	1744.87
347.98	1605.61
348.19	1669.09
348.40	1812.45
348.61	1644.52
348.82	1705.96
349.03	1722.34
349.24	1695.72
349.45	1753.06
349.66	1595.37
349.88	1755.11
350.09	1644.52
350.30	1755.11
350.51	1771.49
350.72	1677.29
350.93	1761.25
351.14	1644.52
351.35	1705.96
351.56	1687.53
351.77	1722.34
351.99	1679.33
352.20	1771.49
352.41	1777.64
352.62	1597.42
352.83	1710.05
353.04	1675.24
353.25	1742.82
353.46	1767.40
353.67	1757.16
353.88	1621.99
354.09	1759.21
354.30	1755.11
354.52	1726.44
354.73	1615.85
354.94	1703.91
355.15	1693.67
355.36	1785.83
355.57	1667.05
355.78	1710.05
355.99	1642.47
356.20	1675.24
356.41	1798.12
356.62	1763.30
356.83	1654.76
357.04	1806.31
357.25	1535.98
357.46	1646.57
357.68	1630.18
357.89	1613.80
358.10	1726.44
358.31	1660.90
358.52	1656.81
358.73	1691.62
358.94	1658.85
359.15	1658.85
359.36	1714.15
359.57	1714.15
359.78	1701.86
359.99	1695.72
360.20	1669.09
360.41	1665.00
360.62	1806.31
360.83	1701.86
361.04	1808.36
361.25	1779.68
361.46	1787.88
361.67	1697.77
361.88	1665.00
362.09	1726.44
362.30	1748.97
362.51	1669.09
362.72	1718.25
362.93	1785.83
363.14	1720.29
363.35	1712.10
363.56	1724.39
363.78	1787.88
363.99	1689.57
364.20	1619.94
364.41	1730.53
364.62	1841.12
364.83	1701.86
365.04	1683.43
365.25	1730.53
365.46	1738.73
365.67	1624.04
365.88	1671.14
366.09	1720.29
366.30	1683.43
366.51	1714.15
366.72	1658.85
366.93	1705.96
367.14	1787.88
367.35	1753.06
367.56	1728.49
367.77	1744.87
367.98	1650.66
368.18	1662.95
368.39	1732.58
368.60	1607.66
368.81	1728.49
369.02	1656.81
369.23	1718.25
369.44	1619.94
369.65	1693.67
369.86	1701.86
370.07	1757.16
370.28	1615.85
370.49	1798.12
370.70	1802.21
370.91	1640.42
371.12	1669.09
371.33	1779.68
371.54	1636.33
371.75	1773.54
371.96	1628.14
372.17	1716.20
372.38	1755.11
372.59	1705.96
372.80	1638.38
373.01	1716.20
373.22	1699.81
373.43	1697.77
373.64	1638.38
373.85	1730.53
374.06	1740.77
374.26	1703.91
374.47	1732.58
374.68	1769.44
374.89	1757.16
375.10	1677.29
375.31	1822.69
375.52	1773.54
375.73	1701.86
375.94	1589.22
376.15	1837.03
376.36	1693.67
376.57	1689.57
376.78	1683.43
376.99	1714.15
377.20	1791.97
377.40	1685.48
377.61	1746.92
377.82	1644.52
378.03	1804.26
378.24	1748.97
378.45	1656.81
378.66	1828.84
378.87	1619.94
379.08	1564.65
379.29	1691.62
379.50	1761.25
379.71	1630.18
379.91	1755.11
380.12	1677.29
380.33	1675.24
380.54	1648.61
380.75	1691.62
380.96	1658.85
381.17	1765.35
381.38	1650.66
381.59	1820.64
381.80	1708.01
382.00	1880.04
382.21	1759.21
382.42	1785.83
382.63	1818.60
382.84	1730.53
383.05	1748.97
383.26	1763.30
383.47	1740.77
383.68	1800.16
383.88	1755.11
384.09	1771.49
384.30	1724.39
384.51	1697.77
384.72	1640.42
384.93	1628.14
385.14	1705.96
385.35	1714.15
385.55	1673.19
385.76	1818.60
385.97	1691.62
386.18	1648.61
386.39	1669.09
386.60	1624.04
386.81	1748.97
387.02	1638.38
387.22	1722.34
387.43	1751.01
387.64	1751.01
387.85	1822.69
388.06	2220.00
388.27	4227.01
388.48	6688.67
388.68	8247.17
388.89	9643.88
389.10	9731.95
389.31	8529.79
389.52	7487.37
389.73	6528.92
389.93	6422.43
390.14	5953.45
390.35	5132.21
390.56	4540.35
390.77	3751.88
390.98	3088.34
391.18	2619.35
391.39	2156.51
391.60	1845.22
391.81	1912.80
392.02	1736.68
392.23	1820.64
392.43	1734.63
392.64	1802.21
392.85	1724.39
393.06	1767.40
393.27	1685.48
393.47	1724.39
393.68	1730.53
393.89	1660.90
394.10	1789.92
394.31	1705.96
394.52	1667.05
394.72	1720.29
394.93	1748.97
395.14	1669.09
395.35	1755.11
395.56	1607.66
395.76	1705.96
395.97	1759.21
396.18	1802.21
396.39	1847.27
396.60	1994.72
396.80	1920.99
397.01	1806.31
397.22	1812.45
397.43	1912.80
397.64	1773.54
397.84	1771.49
398.05	1937.38
398.26	1687.53
398.47	1794.02
398.67	1732.58
398.88	1773.54
399.09	1730.53
399.30	1642.47
399.51	1824.74
399.71	1687.53
399.92	1685.48
400.13	1730.53
400.34	1712.10
400.54	1746.92
400.75	1818.60
400.96	1740.77
401.17	1783.78
401.37	1732.58
401.58	1783.78
401.79	1701.86
402.00	1871.84
402.21	1980.39
402.41	1918.95
402.62	1980.39
402.83	1996.77
403.04	1974.24
403.24	2035.68
403.45	1886.18
403.66	1968.10
403.87	1910.75
404.07	1929.19
404.28	1884.13
404.49	1789.92
404.70	1800.16
404.90	1763.30
405.11	1699.81
405.32	1783.78
405.52	1679.33
405.73	1632.23
405.94	1671.14
406.15	1634.28
406.35	1736.68
406.56	1742.82
406.77	1730.53
406.98	1691.62
407.18	1654.76
407.39	1738.73
407.60	1662.95
407.80	1779.68
408.01	1636.33
408.22	1730.53
408.43	1689.57
408.63	1636.33
408.84	1738.73
409.05	1751.01
409.25	1677.29
409.46	1628.14
409.67	1654.76
409.88	1687.53
410.08	1804.26
410.29	1624.04
410.50	1675.24
410.70	1736.68
410.91	1642.47
411.12	1705.96
411.32	1638.38
411.53	1730.53
411.74	1759.21
411.95	1779.68
412.15	1771.49
412.36	1701.86
412.57	1732.58
412.77	1738.73
412.98	1712.10
413.19	1650.66
413.39	1734.63
413.60	1796.07
413.81	1748.97
414.01	1578.98
414.22	1736.68
414.43	1751.01
414.63	1689.57
414.84	1783.78
415.05	1644.52
415.25	1617.90
415.46	1808.36
415.67	1693.67
415.87	1753.06
416.08	1662.95
416.29	1722.34
416.49	1751.01
416.70	1644.52
416.91	1609.70
417.11	1718.25
417.32	1734.63
417.53	1763.30
417.73	1644.52
417.94	1728.49
418.15	1689.57
418.35	1656.81
418.56	1714.15
418.77	1863.65
418.97	1660.90
419.18	1679.33
419.38	1613.80
419.59	1693.67
419.80	1710.05
420.00	1736.68
420.21	1720.29
420.42	1726.44
420.62	1767.40
420.83	1679.33
421.04	1701.86
421.24	1654.76
421.45	1722.34
421.65	1734.63
421.86	1697.77
422.07	1718.25
422.27	1775.59
422.48	1841.12
422.69	1724.39
422.89	1703.91
423.10	1685.48
423.30	1621.99
423.51	1695.72
423.72	1679.33
423.92	1665.00
424.13	1603.56
424.33	1679.33
424.54	1695.72
424.75	1683.43
424.95	1837.03
425.16	1736.68
425.36	1710.05
425.57	1746.92
425.78	1669.09
425.98	1800.16
426.19	1652.71
426.39	1703.91
426.60	1699.81
426.81	1771.49
427.01	1660.90
427.22	1685.48
427.42	1613.80
427.63	1673.19
427.83	1730.53
428.04	1884.13
428.25	1781.73
428.45	1726.44
428.66	1755.11
428.86	1679.33
429.07	1667.05
429.28	1746.92
429.48	1671.14
429.69	1681.38
429.89	1671.14
430.10	1615.85
430.30	1716.20
430.51	1738.73
430.71	1679.33
430.92	1742.82
431.13	1638.38
431.33	1693.67
431.54	1787.88
431.74	1820.64
431.95	1824.74
432.15	1611.75
432.36	1753.06
432.56	1746.92
432.77	1808.36
432.98	1763.30
433.18	1763.30
433.39	1687.53
433.59	1638.38
433.80	1757.16
434.00	1832.93
434.21	1701.86
434.41	1642.47
434.62	1898.47
434.82	1665.00
435.03	1669.09
435.23	1673.19
435.44	1705.96
435.64	1697.77
435.85	1722.34
436.06	1841.12
436.26	1785.83
436.47	1726.44
436.67	1689.57
436.88	1646.57
437.08	1757.16
437.29	1744.87
437.49	1720.29
437.70	1724.39
437.90	1632.23
438.11	1918.95
438.31	1769.44
438.52	1806.31
438.72	1871.84
438.93	1964.00
439.13	1753.06
439.34	1800.16
439.54	1728.49
439.75	1775.59
439.95	1832.93
440.16	1697.77
440.36	1769.44
440.57	1775.59
440.77	1789.92
440.98	1771.49
441.18	1763.30
441.39	1708.01
441.59	1607.66
441.80	1767.40
442.00	1726.44
442.21	1751.01
442.41	1630.18
442.62	1769.44
442.82	1658.85
443.02	1730.53
443.23	1736.68
443.43	1773.54
443.64	1812.45
443.84	1691.62
444.05	1810.40
444.25	1683.43
444.46	1685.48
444.66	1781.73
444.87	1841.12
445.07	1665.00
445.28	1665.00
445.48	1834.98
445.69	1755.11
445.89	1861.60
446.09	1746.92
446.30	1986.53
446.50	2635.74
446.71	3794.89
446.91	4351.93
447.12	4808.63
447.32	4843.45
447.53	4353.98
447.73	3878.85
447.93	3407.82
448.14	3174.35
448.34	3172.30
448.55	2957.27
448.75	2930.64
448.96	2670.55
449.16	2410.46
449.36	2209.76
449.57	2088.93
449.77	1880.04
449.98	1814.50
450.18	1822.69
450.39	1804.26
450.59	1787.88
450.79	1708.01
451.00	1722.34
451.20	1783.78
451.41	1730.53
451.61	1798.12
451.81	1751.01
452.02	1701.86
452.22	1691.62
452.43	1724.39
452.63	1677.29
452.84	1652.71
453.04	1720.29
453.24	1755.11
453.45	1683.43
453.65	1615.85
453.86	1767.40
454.06	1800.16
454.26	1751.01
454.47	1683.43
454.67	1894.37
454.87	1761.25
455.08	1789.92
455.28	1814.50
455.49	1734.63
455.69	1703.91
455.89	1869.80
456.10	1832.93
456.30	1687.53
456.51	1806.31
456.71	1800.16
456.91	1722.34
457.12	1677.29
457.32	1753.06
457.52	1701.86
457.73	1783.78
457.93	1742.82
458.14	1730.53
458.34	1662.95
458.54	1771.49
458.75	1681.38
458.95	1705.96
459.15	1712.10
459.36	1665.00
459.56	1742.82
459.76	1900.52
459.97	1814.50
460.17	1724.39
460.37	1787.88
460.58	1710.05
460.78	1728.49
460.99	1621.99
461.19	1716.20
461.39	1759.21
461.60	1689.57
461.80	1767.40
462.00	1718.25
462.21	1757.16
462.41	1640.42
462.61	1695.72
462.82	1679.33
463.02	1714.15
463.22	1746.92
463.43	1781.73
463.63	1699.81
463.83	1822.69
464.04	1662.95
464.24	1755.11
464.44	1681.38
464.64	1802.21
464.85	1742.82
465.05	1791.97
465.25	1712.10
465.46	1697.77
465.66	1832.93
465.86	1787.88
466.07	1757.16
466.27	1703.91
466.47	1658.85
466.68	1615.85
466.88	1834.98
467.08	1730.53
467.29	1720.29
467.49	1775.59
467.69	1703.91
467.89	1806.31
468.10	1701.86
468.30	1775.59
468.50	1796.07
468.71	1720.29
468.91	1587.18
469.11	1798.12
469.31	1683.43
469.52	1581.03
469.72	1736.68
469.92	1804.26
470.13	1701.86
470.33	1751.01
470.53	1804.26
470.73	2150.37
470.94	2324.44
471.14	2389.98
471.34	2490.33
471.54	2455.51
471.75	2316.25
471.95	2148.32
472.15	2088.93
472.36	2099.17
472.56	2039.78
472.76	2117.60
472.96	2039.78
473.17	1892.32
473.37	1920.99
473.57	1761.25
473.77	1777.64
473.98	1714.15
474.18	1779.68
474.38	1837.03
474.58	1732.58
474.79	1765.35
474.99	1771.49
475.19	1808.36
475.39	1677.29
475.60	1732.58
475.80	1734.63
476.00	1619.94
476.20	1658.85
476.41	1724.39
476.61	1912.80
476.81	1820.64
477.01	1705.96
477.21	1857.51
477.42	1771.49
477.62	1720.29
477.82	1769.44
478.02	1732.58
478.23	1804.26
478.43	1621.99
478.63	1742.82
478.83	1685.48
479.03	1730.53
479.24	1773.54
479.44	1812.45
479.64	1744.87
479.84	1617.90
480.04	1662.95
480.25	1728.49
480.45	1646.57
480.65	1705.96
480.85	1800.16
481.06	1648.61
481.26	1726.44
481.46	1699.81
481.66	1705.96
481.86	1654.76
482.06	1812.45
482.27	1751.01
482.47	1660.90
482.67	1722.34
482.87	1640.42
483.07	1767.40
483.28	1669.09
483.48	1656.81
483.68	1753.06
483.88	1683.43
484.08	1640.42
484.29	1681.38
484.49	1789.92
484.69	1617.90
484.89	1800.16
485.09	1798.12
485.29	1746.92
485.50	1785.83
485.70	1656.81
485.90	1796.07
486.10	1748.97
486.30	1767.40
486.50	1767.40
486.71	1828.84
486.91	1759.21
487.11	1806.31
487.31	1597.42
487.51	1736.68
487.71	1656.81
487.91	1624.04
488.12	1714.15
488.32	1615.85
488.52	1703.91
488.72	1621.99
488.92	1734.63
489.12	1732.58
489.32	1748.97
489.53	1841.12
489.73	1624.04
489.93	1785.83
490.13	1640.42
490.33	1599.46
490.53	1808.36
490.73	1841.12
490.94	1695.72
491.14	1763.30
491.34	1853.41
491.54	2090.98
491.74	2435.03
491.94	2924.50
492.14	3014.61
492.34	3008.47
492.54	2770.90
492.75	2541.53
492.95	2445.27
493.15	2379.74
493.35	2279.39
493.55	2299.87
493.75	2164.70
493.95	2090.98
494.15	1998.82
494.35	1857.51
494.56	1982.43
494.76	1728.49
494.96	1744.87
495.16	1730.53
495.36	1748.97
495.56	1755.11
495.76	1701.86
495.96	1660.90
496.16	1701.86
496.36	1806.31
496.56	1732.58
496.77	1685.48
496.97	1673.19
497.17	1818.60
497.37	1703.91
497.57	1748.97
497.77	1679.33
497.97	1665.00
498.17	1761.25
498.37	1705.96
498.57	1734.63
498.77	1591.27
498.97	1859.56
499.17	1834.98
499.38	1710.05
499.58	1734.63
499.78	1742.82
499.98	1853.41
500.18	1701.86
500.38	1734.63
500.58	1847.27
500.78	2523.10
500.98	4593.59
501.18	5849.00
501.38	6834.07
501.58	7114.64
501.78	6604.70
501.98	5474.22
502.18	4886.45
502.38	4390.84
502.58	4267.97
502.78	3788.74
502.98	3719.11
503.18	3430.35
503.38	3233.74
503.59	2766.81
503.79	2598.87
503.99	2523.10
504.19	2256.86
504.39	2213.85
504.59	2138.08
504.79	2056.16
504.99	2060.26
505.19	1961.95
505.39	1902.56
505.59	2000.87
505.79	1859.56
505.99	1886.18
506.19	1769.44
506.39	1966.05
506.59	1757.16
506.79	1796.07
506.99	1812.45
507.19	1791.97
507.39	1816.55
507.59	1710.05
507.79	1665.00
507.99	1708.01
508.19	1687.53
508.39	1736.68
508.59	1757.16
508.79	1877.99
508.99	1853.41
509.19	1720.29
509.39	1820.64
509.59	1726.44
509.79	1648.61
509.99	1763.30
510.19	1802.21
510.39	1789.92
510.59	1730.53
510.79	1699.81
510.99	1722.34
511.19	1714.15
511.39	1822.69
511.59	1816.55
511.79	1791.97
511.99	1771.49
512.19	1800.16
512.38	1714.15
512.58	1703.91
512.78	1748.97
512.98	1767.40
513.18	1751.01
513.38	1656.81
513.58	1765.35
513.78	1785.83
513.98	1712.10
514.18	1683.43
514.38	1697.77
514.58	1783.78
514.78	1751.01
514.98	1742.82
515.18	1730.53
515.38	1624.04
515.58	1744.87
515.78	1673.19
515.98	1673.19
516.18	1736.68
516.38	1767.40
516.57	1701.86
516.77	1675.24
516.97	1734.63
517.17	1753.06
517.37	1562.60
517.57	1822.69
517.77	1708.01
517.97	1753.06
518.17	1705.96
518.37	1683.43
518.57	1697.77
518.77	1708.01
518.97	1703.91
519.16	1693.67
519.36	1818.60
519.56	1720.29
519.76	1751.01
519.96	1699.81
520.16	1890.28
520.36	1626.09
520.56	1763.30
520.76	1736.68
520.96	1685.48
521.16	1779.68
521.35	1785.83
521.55	1828.84
521.75	1689.57
521.95	1703.91
522.15	1640.42
522.35	1607.66
522.55	1605.61
522.75	1759.21
522.95	1705.96
523.14	1705.96
523.34	1794.02
523.54	1703.91
523.74	1730.53
523.94	1763.30
524.14	1599.46
524.34	1816.55
524.54	1810.40
524.73	1693.67
524.93	1740.77
525.13	1757.16
525.33	1660.90
525.53	1937.38
525.73	1818.60
525.93	1757.16
526.13	1685.48
526.32	1759.21
526.52	1699.81
526.72	1804.26
526.92	1746.92
527.12	1746.92
527.32	1662.95
527.52	1714.15
527.71	1781.73
527.91	1746.92
528.11	1703.91
528.31	1728.49
528.51	1753.06
528.71	1779.68
528.90	1775.59
529.10	1722.34
529.30	1830.88
529.50	1632.23
529.70	1765.35
529.90	1673.19
530.09	1742.82
530.29	1605.61
530.49	1630.18
530.69	1808.36
530.89	1796.07
531.09	1800.16
531.28	1697.77
531.48	1884.13
531.68	1697.77
531.88	1755.11
532.08	1816.55
532.28	1691.62
532.47	1781.73
532.67	1787.88
532.87	1746.92
533.07	1703.91
533.27	1738.73
533.46	1716.20
533.66	1779.68
533.86	1710.05
534.06	1695.72
534.26	1791.97
534.45	1665.00
534.65	1783.78
534.85	1734.63
535.05	1761.25
535.25	1777.64
535.44	1701.86
535.64	1714.15
535.84	1734.63
536.04	1734.63
536.24	1757.16
536.43	1722.34
536.63	1779.68
536.83	1767.40
537.03	1767.40
537.22	1607.66
537.42	1599.46
537.62	1796.07
537.82	1689.57
538.02	1798.12
538.21	1738.73
538.41	1810.40
538.61	1701.86
538.81	1665.00
539.00	1783.78
539.20	1675.24
539.40	1714.15
539.60	1740.77
539.79	1775.59
539.99	1638.38
540.19	1691.62
540.39	1720.29
540.58	1796.07
540.78	1857.51
540.98	1697.77
541.18	1812.45
541.37	1714.15
541.57	1755.11
541.77	1804.26
541.97	1708.01
542.16	1734.63
542.36	1703.91
542.56	1726.44
542.76	1781.73
542.95	1804.26
543.15	1818.60
543.35	1726.44
543.54	1677.29
543.74	1722.34
543.94	1845.22
544.14	1677.29
544.33	1810.40
544.53	1730.53
544.73	1716.20
544.93	1710.05
545.12	1796.07
545.32	1703.91
545.52	1605.61
545.71	1644.52
545.91	1638.38
546.11	1705.96
546.30	1665.00
546.50	1642.47
546.70	1691.62
546.90	1800.16
547.09	1636.33
547.29	1718.25
547.49	1691.62
547.68	1746.92
547.88	1613.80
548.08	1769.44
548.27	2197.47
548.47	1761.25
548.67	1722.34
548.87	1734.63
549.06	1720.29
549.26	1789.92
549.46	1789.92
549.65	1665.00
549.85	1744.87
550.05	1732.58
550.24	1658.85
550.44	1722.34
550.64	1652.71
550.83	1646.57
551.03	1810.40
551.23	1757.16
551.42	1732.58
551.62	1744.87
551.82	1683.43
552.01	1644.52
552.21	1718.25
552.41	1755.11
552.60	1814.50
552.80	1841.12
553.00	1718.25
553.19	1691.62
553.39	1861.60
553.59	1681.38
553.78	1720.29
553.98	1771.49
554.17	1705.96
554.37	1763.30
554.57	1796.07
554.76	1638.38
554.96	1685.48
555.16	1708.01
555.35	1800.16
555.55	1710.05
555.75	1740.77
555.94	1843.17
556.14	1626.09
556.33	1746.92
556.53	1714.15
556.73	1732.58
556.92	1777.64
557.12	1816.55
557.32	1849.32
557.51	1843.17
557.71	1832.93
557.90	1845.22
558.10	1857.51
558.30	1757.16
558.49	1841.12
558.69	1681.38
558.88	1820.64
559.08	1800.16
559.28	1720.29
559.47	1722.34
559.67	1834.98
559.86	1800.16
560.06	1695.72
560.26	1769.44
560.45	1738.73
560.65	1665.00
560.84	1720.29
561.04	1730.53
561.24	1775.59
561.43	1669.09
561.63	1787.88
561.82	1775.59
562.02	1779.68
562.22	1757.16
562.41	1697.77
562.61	1705.96
562.80	1671.14
563.00	1779.68
563.19	1742.82
563.39	1697.77
563.59	1837.03
563.78	1552.36
563.98	1710.05
564.17	1718.25
564.37	1677.29
564.56	1746.92
564.76	1658.85
564.96	1783.78
565.15	1734.63
565.35	1853.41
565.54	1675.24
565.74	1773.54
565.93	1710.05
566.13	1820.64
566.32	1769.44
566.52	1738.73
566.71	1773.54
566.91	1783.78
567.11	1658.85
567.30	1812.45
567.50	1806.31
567.69	1816.55
567.89	1701.86
568.08	1701.86
568.28	1761.25
568.47	1667.05
568.67	1796.07
568.86	1644.52
569.06	1695.72
569.25	1697.77
569.45	1691.62
569.64	1691.62
569.84	1695.72
570.04	1744.87
570.23	1724.39
570.43	1681.38
570.62	1703.91
570.82	1918.95
571.01	1658.85
571.21	1669.09
571.40	1628.14
571.60	1791.97
571.79	1777.64
571.99	1746.92
572.18	1730.53
572.38	1808.36
572.57	1777.64
572.77	1765.35
572.96	1818.60
573.16	1806.31
573.35	1789.92
573.55	1861.60
573.74	1757.16
573.94	1812.45
574.13	1843.17
574.33	1798.12
574.52	1789.92
574.71	1708.01
574.91	1716.20
575.10	1671.14
575.30	1789.92
575.49	1720.29
575.69	1714.15
575.88	1751.01
576.08	1732.58
576.27	1787.88
576.47	1732.58
576.66	1880.04
576.86	1837.03
577.05	1718.25
577.25	1875.94
577.44	1869.80
577.64	1742.82
577.83	1767.40
578.02	1730.53
578.22	1816.55
578.41	1853.41
578.61	1708.01
578.80	1675.24
579.00	1732.58
579.19	1683.43
579.39	1705.96
579.58	1738.73
579.77	1781.73
579.97	1837.03
580.16	1777.64
580.36	1812.45
580.55	1884.13
580.75	1845.22
580.94	1796.07
581.13	1834.98
581.33	1855.46
581.52	1718.25
581.72	1865.70
581.91	1800.16
582.11	1722.34
582.30	1855.46
582.49	1720.29
582.69	1914.85
582.88	1853.41
583.08	1804.26
583.27	1812.45
583.47	1798.12
583.66	1759.21
583.85	1669.09
584.05	1777.64
584.24	1761.25
584.44	1791.97
584.63	1826.79
584.82	1773.54
585.02	1822.69
585.21	1839.08
585.41	1851.36
585.60	1851.36
585.79	1886.18
585.99	1925.09
586.18	1902.56
586.37	2125.79
586.57	3413.96
586.76	9971.56
586.96	24497.80
587.15	34473.46
587.34	40744.34
587.54	42583.41
587.73	36853.20
587.93	26281.58
588.12	21747.38
588.31	18452.20
588.51	16373.51
588.70	15206.17
588.89	14059.31
589.09	12609.34
589.28	10925.91
589.47	9529.20
589.67	7978.89
589.86	6463.39
590.06	5025.72
590.25	4048.83
590.44	3135.44
590.64	2545.63
590.83	2271.20
591.02	2107.36
591.22	1978.34
591.41	1920.99
591.60	1841.12
591.80	1947.62
591.99	1757.16
592.18	1714.15
592.38	1824.74
592.57	1677.29
592.76	1742.82
592.96	1830.88
593.15	1744.87
593.34	1791.97
593.54	1779.68
593.73	1830.88
593.92	1744.87
594.12	1781.73
594.31	1785.83
594.50	1834.98
594.70	1855.46
594.89	1826.79
595.08	1697.77
595.28	1718.25
595.47	1916.90
595.66	1708.01
595.86	1724.39
596.05	1697.77
596.24	1738.73
596.43	1814.50
596.63	1763.30
596.82	1712.10
597.01	1687.53
597.21	1832.93
597.40	1751.01
597.59	1730.53
597.79	1710.05
597.98	1796.07
598.17	1724.39
598.36	1777.64
598.56	1714.15
598.75	1730.53
598.94	1775.59
599.14	1724.39
599.33	1738.73
599.52	1767.40
599.71	1742.82
599.91	1753.06
600.10	1808.36
600.29	1703.91
600.48	1777.64
600.68	1755.11
600.87	1798.12
601.06	1705.96
601.26	1802.21
601.45	1708.01
601.64	1767.40
601.83	1730.53
602.03	1648.61
602.22	1734.63
602.41	1746.92
602.60	1877.99
602.80	1730.53
602.99	1746.92
603.18	1689.57
603.37	1787.88
603.57	1738.73
603.76	1783.78
603.95	1779.68
604.14	1789.92
604.34	1665.00
604.53	1730.53
604.72	1708.01
604.91	1828.84
605.10	1837.03
605.30	1689.57
605.49	1857.51
605.68	1863.65
605.87	1744.87
606.07	1808.36
606.26	1755.11
606.45	1783.78
606.64	1757.16
606.84	1742.82
607.03	1724.39
607.22	1755.11
607.41	1742.82
607.60	1679.33
607.80	1765.35
607.99	1693.67
608.18	1742.82
608.37	1710.05
608.56	1722.34
608.76	1771.49
608.95	1837.03
609.14	1787.88
609.33	1781.73
609.52	1783.78
609.72	1697.77
609.91	1798.12
610.10	1720.29
610.29	1830.88
610.48	1794.02
610.68	1724.39
610.87	1712.10
611.06	1863.65
611.25	1728.49
611.44	1800.16
611.63	1740.77
611.83	1816.55
612.02	1617.90
612.21	1873.89
612.40	1607.66
612.59	1687.53
612.79	1628.14
612.98	1714.15
613.17	1822.69
613.36	1732.58
613.55	1777.64
613.74	1718.25
613.93	1644.52
614.13	1714.15
614.32	1712.10
614.51	1804.26
614.70	1759.21
614.89	1673.19
615.08	1732.58
615.28	2009.06
615.47	1656.81
615.66	1730.53
615.85	1714.15
616.04	1798.12
616.23	1724.39
616.42	1710.05
616.62	1765.35
616.81	1804.26
617.00	1736.68
617.19	1763.30
617.38	1669.09
617.57	1765.35
617.76	1791.97
617.95	1755.11
618.15	1687.53
618.34	1781.73
618.53	1665.00
618.72	1767.40
618.91	1824.74
619.10	1783.78
619.29	1677.29
619.48	1691.62
619.68	1679.33
619.87	1691.62
620.06	1681.38
620.25	1755.11
620.44	1755.11
620.63	1720.29
620.82	1718.25
621.01	1759.21
621.20	1728.49
621.39	1767.40
621.59	1728.49
621.78	1742.82
621.97	1644.52
622.16	1779.68
622.35	1724.39
622.54	1755.11
622.73	1755.11
622.92	1628.14
623.11	1708.01
623.30	1740.77
623.49	1718.25
623.68	1648.61
623.88	1839.08
624.07	1736.68
624.26	1642.47
624.45	1691.62
624.64	1703.91
624.83	1681.38
625.02	1646.57
625.21	1697.77
625.40	1769.44
625.59	1779.68
625.78	1705.96
625.97	1718.25
626.16	1746.92
626.35	1718.25
626.54	1714.15
626.74	1834.98
626.93	1634.28
627.12	1744.87
627.31	1757.16
627.50	1720.29
627.69	1800.16
627.88	1759.21
628.07	1675.24
628.26	1609.70
628.45	1705.96
628.64	1681.38
628.83	1759.21
629.02	1701.86
629.21	1732.58
629.40	1777.64
629.59	1613.80
629.78	1744.87
629.97	1734.63
630.16	1742.82
630.35	1701.86
630.54	1730.53
630.73	1691.62
630.92	1783.78
631.11	1683.43
631.30	1728.49
631.49	1785.83
631.68	1705.96
631.87	1777.64
632.06	1615.85
632.25	1830.88
632.44	1691.62
632.63	1734.63
632.82	1673.19
633.01	1660.90
633.20	1697.77
633.39	1630.18
633.58	1607.66
633.77	1732.58
633.96	1773.54
634.15	1808.36
634.34	1787.88
634.53	1773.54
634.72	1640.42
634.91	1605.61
635.10	1773.54
635.29	1718.25
635.48	1755.11
635.67	1632.23
635.86	1626.09
636.05	1736.68
636.24	1746.92
636.43	1738.73
636.62	1722.34
636.81	1505.26
637.00	1699.81
637.19	1767.40
637.38	1695.72
637.57	1769.44
637.76	1701.86
637.95	1710.05
638.14	1626.09
638.33	1683.43
638.52	1724.39
638.71	1652.71
638.89	1722.34
639.08	1884.13
639.27	1712.10
639.46	1638.38
639.65	1773.54
639.84	1693.67
640.03	1781.73
640.22	1730.53
640.41	1798.12
640.60	1677.29
640.79	1714.15
640.98	1652.71
641.17	1822.69
641.36	1689.57
641.55	1753.06
641.74	1652.71
641.92	1656.81
642.11	1640.42
642.30	1755.11
642.49	1593.32
642.68	1615.85
642.87	1626.09
643.06	1751.01
643.25	1755.11
643.44	1751.01
643.63	1701.86
643.82	1699.81
644.00	1681.38
644.19	1781.73
644.38	1615.85
644.57	1681.38
644.76	1759.21
644.95	1669.09
645.14	1703.91
645.33	1726.44
645.52	1685.48
645.71	1662.95
645.89	1613.80
646.08	1656.81
646.27	1658.85
646.46	1882.08
646.65	1628.14
646.84	1724.39
647.03	1654.76
647.22	1804.26
647.40	1681.38
647.59	1675.24
647.78	1624.04
647.97	1669.09
648.16	1716.20
648.35	1779.68
648.54	1728.49
648.73	1705.96
648.91	1687.53
649.10	1759.21
649.29	1671.14
649.48	1716.20
649.67	1671.14
649.86	1642.47
650.05	1660.90
650.23	1732.58
650.42	1687.53
650.61	1728.49
650.80	1781.73
650.99	1804.26
651.18	1771.49
651.36	1671.14
651.55	1640.42
651.74	1765.35
651.93	1677.29
652.12	1689.57
652.31	1679.33
652.49	1669.09
652.68	1681.38
652.87	1779.68
653.06	1724.39
653.25	1855.46
653.44	1652.71
653.62	1824.74
653.81	1740.77
654.00	1783.78
654.19	1791.97
654.38	1837.03
654.56	1812.45
654.75	1689.57
654.94	1759.21
655.13	1771.49
655.32	1744.87
655.51	1751.01
655.69	1658.85
655.88	1748.97
656.07	1589.22
656.26	1730.53
656.45	1640.42
656.63	1720.29
656.82	1751.01
657.01	1779.68
657.20	1648.61
657.38	1755.11
657.57	1650.66
657.76	1669.09
657.95	1662.95
658.14	1671.14
658.32	1669.09
658.51	1755.11
658.70	1716.20
658.89	1724.39
659.08	1748.97
659.26	1796.07
659.45	1697.77
659.64	1822.69
659.83	1630.18
660.01	1869.80
660.20	1710.05
660.39	1794.02
660.58	1656.81
660.76	1763.30
660.95	1632.23
661.14	1697.77
661.33	1636.33
661.51	1630.18
661.70	1652.71
661.89	1718.25
662.08	1656.81
662.26	1681.38
662.45	1640.42
662.64	1837.03
662.83	1765.35
663.01	1634.28
663.20	1712.10
663.39	1826.79
663.58	1736.68
663.76	1757.16
663.95	1806.31
664.14	1699.81
664.32	1693.67
664.51	1619.94
664.70	1613.80
664.89	1689.57
665.07	1712.10
665.26	1773.54
665.45	1703.91
665.64	1775.59
665.82	1751.01
666.01	1808.36
666.20	1708.01
666.38	1837.03
666.57	1837.03
666.76	2174.94
666.95	4425.66
667.13	10364.77
667.32	15189.78
667.51	17964.78
667.69	18896.61
667.88	17768.18
668.07	12498.75
668.25	9588.59
668.44	8069.00
668.63	7296.91
668.81	6772.63
669.00	6207.39
669.19	5765.03
669.38	5138.35
669.56	4603.83
669.75	3885.00
669.94	3508.17
670.12	2861.01
670.31	2496.47
670.50	2322.40
670.68	2066.40
670.87	1990.63
671.06	1839.08
671.24	1775.59
671.43	1820.64
671.62	1791.97
671.80	1693.67
671.99	1705.96
672.18	1728.49
672.36	1771.49
672.55	1765.35
672.74	1621.99
672.92	1748.97
673.11	1708.01
673.29	1671.14
673.48	1712.10
673.67	1800.16
673.85	1812.45
674.04	1724.39
674.23	1781.73
674.41	1794.02
674.60	1646.57
674.79	1617.90
674.97	1681.38
675.16	1685.48
675.34	1800.16
675.53	1646.57
675.72	1791.97
675.90	1767.40
676.09	1673.19
676.28	1720.29
676.46	1640.42
676.65	1759.21
676.83	1634.28
677.02	1726.44
677.21	1746.92
677.39	1763.30
677.58	1656.81
677.77	1689.57
677.95	1669.09
678.14	1642.47
678.32	1695.72
678.51	1681.38
678.70	1882.08
678.88	1701.86
679.07	1777.64
679.25	1769.44
679.44	1740.77
679.63	1708.01
679.81	1689.57
680.00	1785.83
680.18	1738.73
680.37	1728.49
680.55	1728.49
680.74	1599.46
680.93	1632.23
681.11	1705.96
681.30	1763.30
681.48	1669.09
681.67	1665.00
681.85	1732.58
682.04	1656.81
682.23	1697.77
682.41	1683.43
682.60	1650.66
682.78	1734.63
682.97	1646.57
683.15	1695.72
683.34	1718.25
683.53	1730.53
683.71	1693.67
683.90	1808.36
684.08	1804.26
684.27	1691.62
684.45	1697.77
684.64	1789.92
684.82	1660.90
685.01	1753.06
685.19	1689.57
685.38	1773.54
685.57	1685.48
685.75	1675.24
685.94	1697.77
686.12	1677.29
686.31	1736.68
686.49	1841.12
686.68	1683.43
686.86	1734.63
687.05	1675.24
687.23	1789.92
687.42	1660.90
687.60	1546.22
687.79	1781.73
687.97	1849.32
688.16	1734.63
688.34	1763.30
688.53	1665.00
688.71	1669.09
688.90	1861.60
689.08	1660.90
689.27	1701.86
689.45	1783.78
689.64	1689.57
689.82	1798.12
690.01	1769.44
690.19	1732.58
690.38	1681.38
690.56	1806.31
690.75	1599.46
690.93	1728.49
691.12	1685.48
691.30	1708.01
691.49	1667.05
691.67	1710.05
691.86	1830.88
692.04	1648.61
692.23	1681.38
692.41	1652.71
692.60	1812.45
692.78	1783.78
692.97	1701.86
693.15	1734.63
693.34	1767.40
693.52	1798.12
693.71	1648.61
693.89	1660.90
694.08	1589.22
694.26	1658.85
694.44	1697.77
694.63	1796.07
694.81	1693.67
695.00	1665.00
695.18	1814.50
695.37	1820.64
695.55	1751.01
695.74	1673.19
695.92	1656.81
696.10	1746.92
696.29	1597.42
696.47	1710.05
696.66	1634.28
696.84	1693.67
697.03	1710.05
697.21	1800.16
697.40	2322.40
697.58	1759.21
697.76	1650.66
697.95	1755.11
698.13	1667.05
698.32	1714.15
698.50	1742.82
698.68	1796.07
698.87	1714.15
699.05	1830.88
699.24	1636.33
699.42	1667.05
699.61	1656.81
699.79	1714.15
699.97	1708.01
700.16	1693.67
700.34	1691.62
700.53	1695.72
700.71	1806.31
700.89	1689.57
701.08	1695.72
701.26	1740.77
701.45	2187.23
701.63	1662.95
701.81	1650.66
702.00	1591.27
702.18	1671.14
702.37	1685.48
702.55	1802.21
702.73	1734.63
702.92	1714.15
703.10	1753.06
703.28	1699.81
703.47	1609.70
703.65	1726.44
703.84	1769.44
704.02	1742.82
704.20	1800.16
704.39	1691.62
704.57	1650.66
704.75	1812.45
704.94	1734.63
705.12	1769.44
705.30	1740.77
705.49	2209.76
705.67	4384.70
705.86	9385.84
706.04	12547.90
706.22	14485.28
706.41	15449.88
706.59	13823.79
706.77	9547.63
706.96	7468.94
707.14	6496.16
707.32	5953.45
707.51	5658.54
707.69	4947.89
707.87	4308.93
708.06	3598.28
708.24	2996.18
708.42	2400.22
708.61	2299.87
708.79	1863.65
708.97	1910.75
709.16	1837.03
709.34	1785.83
709.52	1767.40
709.71	1773.54
709.89	1785.83
710.07	1681.38
710.26	1665.00
710.44	1712.10
710.62	1736.68
710.80	1697.77
710.99	1748.97
711.17	1855.46
711.35	1697.77
711.54	1667.05
711.72	1757.16
711.90	1748.97
712.09	1755.11
712.27	1763.30
712.45	1660.90
712.63	1687.53
712.82	1755.11
713.00	1691.62
713.18	1695.72
713.37	1789.92
713.55	1751.01
713.73	1730.53
713.91	1773.54
714.10	1732.58
714.28	1652.71
714.46	1820.64
714.65	1693.67
714.83	1738.73
715.01	1681.38
715.19	1669.09
715.38	1769.44
715.56	1753.06
715.74	1621.99
715.92	1734.63
716.11	1761.25
716.29	1564.65
716.47	1718.25
716.65	1642.47
716.84	1593.32
717.02	1826.79
717.20	1646.57
717.38	1667.05
717.57	1763.30
717.75	1613.80
717.93	1695.72
718.11	1650.66
718.30	1628.14
718.48	1718.25
718.66	1705.96
718.84	1681.38
719.03	1656.81
719.21	1591.27
719.39	1775.59
719.57	1722.34
719.75	1767.40
719.94	1675.24
720.12	1730.53
720.30	1693.67
720.48	1748.97
720.67	1683.43
720.85	1669.09
721.03	1662.95
721.21	1605.61
721.39	1824.74
721.58	1751.01
721.76	1617.90
721.94	1689.57
722.12	1757.16
722.30	1824.74
722.49	1726.44
722.67	1726.44
722.85	1708.01
723.03	1578.98
723.21	1646.57
723.40	1734.63
723.58	1824.74
723.76	1781.73
723.94	1732.58
724.12	1771.49
724.30	1748.97
724.49	1802.21
724.67	1673.19
724.85	1798.12
725.03	1624.04
725.21	1730.53
725.40	1796.07
725.58	1644.52
725.76	1761.25
725.94	1755.11
726.12	1636.33
726.30	1693.67
726.49	1693.67
726.67	1714.15
726.85	1675.24
727.03	1761.25
727.21	2150.37
727.39	2797.53
727.57	3659.72
727.76	4353.98
727.94	4386.75
728.12	4499.39
728.30	3561.42
728.48	3059.67
728.66	2813.91
728.84	2570.20
729.03	2316.25
729.21	2185.18
729.39	2068.45
729.57	1802.21
729.75	1767.40
729.93	1884.13
730.11	1652.71
730.30	1744.87
730.48	1671.14
730.66	1832.93
730.84	1748.97
731.02	1669.09
731.20	1640.42
731.38	1718.25
731.56	1646.57
731.74	1705.96
731.93	1712.10
732.11	1705.96
732.29	1695.72
732.47	1794.02
732.65	1691.62
732.83	1783.78
733.01	1746.92
733.19	1665.00
733.37	1730.53
733.56	1722.34
733.74	1644.52
733.92	1773.54
734.10	1642.47
734.28	1730.53
734.46	1595.37
734.64	1669.09
734.82	1642.47
735.00	1673.19
735.18	1660.90
735.36	1673.19
735.54	1722.34
735.73	1673.19
735.91	1714.15
736.09	1820.64
736.27	1714.15
736.45	1751.01
736.63	1587.18
736.81	1716.20
736.99	1748.97
737.17	1726.44
737.35	1728.49
737.53	1787.88
737.71	1714.15
737.89	1767.40
738.07	1648.61
738.25	1576.94
738.43	1601.51
738.61	1699.81
738.80	1691.62
738.98	1654.76
739.16	1679.33
739.34	1705.96
739.52	1769.44
739.70	1708.01
739.88	1712.10
740.06	1712.10
740.24	1583.08
740.42	1794.02
740.60	1626.09
740.78	1712.10
740.96	1656.81
741.14	1730.53
741.32	1746.92
741.50	1667.05
741.68	1871.84
741.86	1759.21
742.04	1562.60
742.22	1683.43
742.40	1615.85
742.58	1665.00
742.76	1648.61
742.94	1744.87
743.12	1619.94
743.30	1716.20
743.48	1728.49
743.66	1548.26
743.84	1697.77
744.02	1681.38
744.20	1675.24
744.38	1621.99
744.56	1665.00
744.74	1787.88
744.92	1730.53
745.10	1755.11
745.28	1777.64
745.46	1771.49
745.64	1716.20
745.82	1759.21
746.00	1683.43
746.18	1714.15
746.36	1638.38
746.54	1693.67
746.72	1697.77
746.90	1626.09
747.08	1771.49
747.26	1685.48
747.44	1787.88
747.62	1751.01
747.80	1650.66
747.98	1673.19
748.15	1697.77
748.33	1783.78
748.51	1724.39
748.69	1630.18
748.87	1642.47
749.05	1693.67
749.23	1683.43
749.41	1714.15
749.59	1740.77
749.77	1640.42
749.95	1677.29
750.13	1677.29
750.31	1693.67
750.49	1675.24
750.67	1751.01
750.85	1867.75
751.03	1712.10
751.20	1867.75
751.38	1714.15
751.56	1671.14
751.74	1773.54
751.92	1744.87
752.10	1617.90
752.28	1814.50
752.46	1656.81
752.64	1667.05
752.82	1673.19
753.00	1732.58
753.18	1705.96
753.35	1652.71
753.53	1626.09
753.71	1636.33
753.89	1697.77
754.07	1730.53
754.25	1757.16
754.43	1761.25
754.61	1652.71
754.79	1736.68
754.97	1722.34
755.14	1775.59
755.32	1609.70
755.50	1644.52
755.68	1763.30
755.86	1726.44
756.04	1642.47
756.22	1550.31
756.40	1724.39
756.57	1826.79
756.75	1658.85
756.93	1740.77
757.11	1718.25
757.29	1701.86
757.47	1673.19
757.65	1630.18
757.82	1540.07
758.00	1714.15
758.18	1656.81
758.36	1712.10
758.54	1769.44
758.72	1570.79
758.90	1767.40
759.07	1769.44
759.25	1697.77
759.43	1748.97
759.61	1644.52
759.79	2226.14
759.97	1730.53
760.15	1658.85
760.32	1720.29
760.50	1757.16
760.68	1765.35
760.86	1611.75
761.04	1751.01
761.22	1730.53
761.39	1728.49
761.57	1726.44
761.75	1693.67
761.93	1636.33
762.11	1710.05
762.28	1800.16
762.46	1642.47
762.64	1744.87
762.82	1632.23
763.00	1615.85
763.18	1810.40
763.35	1621.99
763.53	1751.01
763.71	1685.48
763.89	1783.78
764.07	1740.77
764.24	1632.23
764.42	1740.77
764.60	1675.24
764.78	1753.06
764.96	1775.59
765.13	1714.15
765.31	1697.77
765.49	1785.83
765.67	1640.42
765.84	1624.04
766.02	1738.73
766.20	1609.70
766.38	1708.01
766.56	1765.35
766.73	1718.25
766.91	1644.52
767.09	1697.77
767.27	1705.96
767.44	1638.38
767.62	1722.34
767.80	1765.35
767.98	1736.68
768.15	1716.20
768.33	1744.87
768.51	1722.34
768.69	1710.05
768.87	1710.05
769.04	1787.88
769.22	1877.99
769.40	1824.74
769.58	1851.36
769.75	1732.58
769.93	1697.77
770.11	1753.06
770.28	1607.66
770.46	1746.92
770.64	1726.44
770.82	1720.29
770.99	1714.15
771.17	1703.91
771.35	1746.92
771.53	1736.68
771.70	1681.38
771.88	1761.25
772.06	1658.85
772.23	1718.25
772.41	1718.25
772.59	1714.15
772.77	1605.61
772.94	1691.62
773.12	1775.59
773.30	1654.76
773.47	1699.81
773.65	1681.38
773.83	1824.74
774.01	1726.44
774.18	1615.85
774.36	1654.76
774.54	1710.05
774.71	1728.49
774.89	1619.94
775.07	1636.33
775.24	1703.91
775.42	1699.81
775.60	1855.46
775.78	1644.52
775.95	1636.33
776.13	1642.47
776.31	1621.99
776.48	1736.68
776.66	1722.34
776.84	1654.76
777.01	1632.23
777.19	1683.43
777.37	1644.52
777.54	1759.21
777.72	1787.88
777.90	1689.57
778.07	1656.81
778.25	1886.18
778.43	1732.58
778.60	1724.39
778.78	1763.30
778.96	1783.78
779.13	1673.19
779.31	1685.48
779.49	1701.86
779.66	1705.96
779.84	1626.09
780.01	1716.20
780.19	1673.19
780.37	1800.16
780.54	1742.82
780.72	1673.19
780.90	1652.71
781.07	1710.05
781.25	1783.78
781.43	1808.36
781.60	1691.62
781.78	1730.53
781.95	1619.94
782.13	1695.72
782.31	1691.62
782.48	1609.70
782.66	1638.38
782.83	1769.44
783.01	1751.01
783.19	1730.53
783.36	1763.30
783.54	1693.67
783.72	1732.58
783.89	1538.02
784.07	1703.91
784.24	1660.90
784.42	1841.12
784.60	1689.57
784.77	1746.92
784.95	1626.09
785.12	1677.29
785.30	1703.91
785.47	1652.71
785.65	1728.49
785.83	1722.34
786.00	1724.39
786.18	1738.73
786.35	1673.19
786.53	1611.75
786.71	1726.44
786.88	1734.63
787.06	1761.25
787.23	1650.66
787.41	1660.90
787.58	1679.33
787.76	1611.75
787.94	1644.52
788.11	1669.09
788.29	1605.61
788.46	1589.22
788.64	1624.04
788.81	1722.34
788.99	1724.39
789.16	1671.14
789.34	1675.24
789.52	1626.09
789.69	1697.77
789.87	1621.99
790.04	1714.15
790.22	1710.05
790.39	1910.75
790.57	1617.90
790.74	1656.81
790.92	1742.82
791.09	1619.94
791.27	1673.19
791.44	1820.64
791.62	1755.11
791.79	1740.77
791.97	1695.72
792.15	1927.14
792.32	1681.38
792.50	1742.82
792.67	1812.45
792.85	1796.07
793.02	1798.12
793.20	1708.01
793.37	1595.37
793.55	1632.23
793.72	1652.71
793.90	1705.96
794.07	1695.72
794.25	1640.42
794.42	1716.20
794.60	1705.96
794.77	1699.81
794.95	1773.54
795.12	1753.06
795.30	1691.62
795.47	1585.13
795.65	1853.41
795.82	1699.81
796.00	1665.00
796.17	1703.91
796.34	1667.05
796.52	1693.67
796.69	1794.02
796.87	1753.06
797.04	1685.48
797.22	1767.40
797.39	1662.95
797.57	1738.73
797.74	1732.58
797.92	1654.76
798.09	1705.96
798.27	1759.21
798.44	1724.39
798.62	1705.96
798.79	1732.58
798.96	1703.91
799.14	1644.52
799.31	1791.97
799.49	1697.77
799.66	1656.81
799.84	1683.43
800.01	1636.33
800.19	1689.57
800.36	1566.70
800.53	1744.87
800.71	1720.29
800.88	1837.03
801.06	1681.38
801.23	1691.62
801.41	1697.77
801.58	1673.19
801.75	1626.09
801.93	1701.86
802.10	1753.06
802.28	1632.23
802.45	1693.67
802.63	1767.40
802.80	1746.92
802.97	1628.14
803.15	1671.14
803.32	1689.57
803.50	1669.09
803.67	1685.48
803.84	1689.57
804.02	1705.96
804.19	1687.53
804.37	1624.04
804.54	1679.33
804.71	1656.81
804.89	1630.18
805.06	1679.33
805.24	1636.33
805.41	1658.85
805.58	1646.57
805.76	1769.44
805.93	1740.77
806.10	1779.68
806.28	1734.63
806.45	1710.05
806.63	1757.16
806.80	1691.62
806.97	1697.77
807.15	1638.38
807.32	1697.77
807.49	1773.54
807.67	1607.66
807.84	1746.92
808.01	1617.90
808.19	1841.12
808.36	1796.07
808.54	1681.38
808.71	1656.81
808.88	1695.72
809.06	1748.97
809.23	1798.12
809.40	1646.57
809.58	1748.97
809.75	1685.48
809.92	1693.67
810.10	1853.41
810.27	1718.25
810.44	1746.92
810.62	1765.35
810.79	1687.53
810.96	1656.81
811.14	1621.99
811.31	1753.06
811.48	1744.87
811.66	1611.75
811.83	1746.92
812.00	1630.18
812.18	1716.20
812.35	1822.69
812.52	1628.14
812.69	1699.81
812.87	1699.81
813.04	1642.47
813.21	1675.24
813.39	1697.77
813.56	1658.85
813.73	1708.01
813.91	1605.61
814.08	1722.34
814.25	1699.81
814.42	1570.79
814.60	1726.44
814.77	1697.77
814.94	1699.81
815.12	1615.85
815.29	1783.78
815.46	1654.76
815.63	1691.62
815.81	1644.52
815.98	1652.71
816.15	1757.16
816.33	1755.11
816.50	1675.24
816.67	1695.72
816.84	1585.13
817.02	1642.47
817.19	1695.72
817.36	1638.38
817.53	1761.25
817.71	1648.61
817.88	1761.25
818.05	1716.20
818.22	1689.57
818.40	1802.21
818.57	1689.57
818.74	1751.01
818.91	1730.53
819.09	1712.10
819.26	1753.06
819.43	1675.24
819.60	1660.90
819.78	1718.25
819.95	1794.02
820.12	1619.94
820.29	1812.45
820.47	1779.68
820.64	1574.89
820.81	1578.98
820.98	1695.72
821.15	1714.15
821.33	1771.49
821.50	1607.66
821.67	1732.58
821.84	1660.90
822.02	1734.63
822.19	1810.40
822.36	1628.14
822.53	1687.53
822.70	1720.29
822.88	1607.66
823.05	1753.06
823.22	1724.39
823.39	1757.16
823.56	1656.81
823.74	1873.89
823.91	1638.38
824.08	1617.90
824.25	1619.94
824.42	1779.68
824.60	1621.99
824.77	1724.39
824.94	1675.24
825.11	1785.83
825.28	1595.37
825.45	1724.39
825.63	1718.25
825.80	1665.00
825.97	1701.86
826.14	1763.30
826.31	1607.66
826.48	1683.43
826.66	1650.66
826.83	1697.77
827.00	1683.43
827.17	1626.09
827.34	1648.61
827.51	1675.24
827.69	1705.96
827.86	1624.04
828.03	1665.00
828.20	1665.00
828.37	1716.20
828.54	1732.58
828.71	1748.97
828.89	1847.27
829.06	1746.92
829.23	1720.29
829.40	1689.57
829.57	1665.00
829.74	1726.44
829.91	1683.43
830.09	1648.61
830.26	1796.07
830.43	1763.30
830.60	1658.85
830.77	1775.59
830.94	1779.68
831.11	1771.49
831.28	1675.24
831.46	1757.16
831.63	1720.29
831.80	1763.30
831.97	1726.44
832.14	1716.20
832.31	1740.77
832.48	1703.91
832.65	1728.49
832.82	1730.53
832.99	1658.85
833.17	1673.19
833.34	1808.36
833.51	1734.63
833.68	1675.24
833.85	1742.82
834.02	1691.62
834.19	1642.47
834.36	1714.15
834.53	1656.81
834.70	1814.50
834.87	1751.01
835.04	1675.24
835.22	1693.67
835.39	1697.77
835.56	1675.24
835.73	1681.38
835.90	1728.49
836.07	1652.71
836.24	1671.14
836.41	1658.85
836.58	1638.38
836.75	1759.21
836.92	1685.48
837.09	1656.81
837.26	1710.05
837.43	1708.01
837.60	1714.15
837.77	1714.15
837.94	1740.77
838.12	1697.77
838.29	1781.73
838.46	1589.22
838.63	1583.08
838.80	1832.93
838.97	1791.97
839.14	1701.86
839.31	1701.86
839.48	1777.64
839.65	1714.15
839.82	1722.34
839.99	1656.81
840.16	1755.11
840.33	1724.39
840.50	1734.63
840.67	1693.67
840.84	1603.56
841.01	1677.29
841.18	1628.14
841.35	1691.62
841.52	1800.16
841.69	1810.40
841.86	1691.62
842.03	1734.63
842.20	1828.84
842.37	1671.14
842.54	1767.40
842.71	1687.53
842.88	1642.47
843.05	1681.38
843.22	1617.90
843.39	1720.29
843.56	1714.15
843.73	1609.70
843.90	1755.11
844.07	1705.96
844.24	1828.84
844.41	1685.48
844.58	1734.63
844.75	1671.14
844.92	1736.68
845.09	1673.19
845.26	1667.05
845.43	1748.97
845.60	1667.05
845.77	1791.97
845.94	1708.01
846.10	1746.92
846.27	1638.38
846.44	1669.09
846.61	1585.13
846.78	1630.18
846.95	1783.78
847.12	1763.30
847.29	1736.68
847.46	1624.04
847.63	1794.02
847.80	1681.38
847.97	1730.53
848.14	1851.36
848.31	1632.23
848.48	1548.26
848.65	1683.43
848.82	1660.90
848.98	1789.92
849.15	1724.39
849.32	1748.97
849.49	1712.10
849.66	1667.05
849.83	1703.91
850.00	1593.32
850.17	1720.29
850.34	1697.77
850.51	1693.67
850.68	1710.05
850.85	1849.32
851.01	1746.92
851.18	1726.44
851.35	1628.14
851.52	1673.19
851.69	1802.21
851.86	1593.32
852.03	1656.81
852.20	1744.87
852.37	1699.81
852.53	1560.55
852.70	1712.10
852.87	1718.25
853.04	1757.16
853.21	1708.01
853.38	1742.82
853.55	1751.01
853.72	1830.88
853.89	1636.33
854.05	1660.90
854.22	1705.96
854.39	1675.24
854.56	1681.38
854.73	1726.44
854.90	1665.00
855.07	1746.92
855.23	1656.81
855.40	1619.94
855.57	1701.86
855.74	1636.33
855.91	1902.56
856.08	1624.04
856.25	1640.42
856.41	1673.19
856.58	1646.57
856.75	1691.62
856.92	1671.14
857.09	1708.01
857.26	1669.09
857.42	1710.05
857.59	1660.90
857.76	1640.42
857.93	1736.68
858.10	1705.96
858.27	1646.57
858.43	1759.21
858.60	1710.05
858.77	1615.85
858.94	1656.81
859.11	1796.07
859.27	1630.18
859.44	1695.72
859.61	1789.92
859.78	1710.05
859.95	1714.15
860.12	1656.81
860.28	1814.50
860.45	1849.32
860.62	1675.24
860.79	1726.44
860.95	1611.75
861.12	1683.43
861.29	1705.96
861.46	1681.38
861.63	1732.58
861.79	1757.16
861.96	1615.85
862.13	1714.15
862.30	1683.43
862.47	1718.25
862.63	1705.96
862.80	1763.30
862.97	1816.55
863.14	1712.10
863.30	1628.14
863.47	1675.24
863.64	1796.07
863.81	1775.59
863.97	1679.33
864.14	1689.57
864.31	1734.63
864.48	1691.62
864.65	1685.48
864.81	1697.77
864.98	1705.96
865.15	1800.16
865.32	1775.59
865.48	1755.11
865.65	1798.12
865.82	1642.47
865.98	1683.43
866.15	1724.39
866.32	1677.29
866.49	1765.35
866.65	1746.92
866.82	1638.38
866.99	1685.48
867.16	1656.81
867.32	1624.04
867.49	1646.57
867.66	1669.09
867.83	1730.53
867.99	1619.94
868.16	1740.77
868.33	1638.38
868.49	1705.96
868.66	1611.75
868.83	1748.97
868.99	1740.77
869.16	1646.57
869.33	1738.73
869.50	1769.44
869.66	1718.25
869.83	1660.90
870.00	1669.09
870.16	1716.20
870.33	1734.63
870.50	1798.12
870.66	1806.31
870.83	1755.11
871.00	1687.53
871.17	1751.01
871.33	1751.01
871.50	1734.63
871.67	1683.43
871.83	1685.48
872.00	1757.16
872.17	1740.77
872.33	1703.91
872.50	1779.68
872.67	1730.53
872.83	1714.15
873.00	1660.90
873.17	1679.33
873.33	1818.60
873.50	1744.87
873.67	1675.24
873.83	1656.81
874.00	1697.77
874.16	1761.25
874.33	1638.38
874.50	1642.47
874.66	1695.72
874.83	1759.21
875.00	1720.29
875.16	1724.39
875.33	1816.55
875.50	1581.03
875.66	1683.43
875.83	1718.25
875.99	1701.86
876.16	1705.96
876.33	1656.81
876.49	1697.77
876.66	1765.35
876.83	1691.62
876.99	1589.22
877.16	1660.90
877.32	1693.67
877.49	1685.48
877.66	1746.92
877.82	1808.36
877.99	1675.24
878.15	1677.29
878.32	1765.35
878.49	1695.72
878.65	1677.29
878.82	1834.98
878.98	1603.56
879.15	1744.87
879.32	1708.01
879.48	1701.86
879.65	1710.05
879.81	1695.72
879.98	1636.33
880.15	1673.19
880.31	1775.59
880.48	1646.57
880.64	1789.92
880.81	1771.49
880.97	1751.01
881.14	1798.12
881.31	1611.75
881.47	1814.50
881.64	1642.47
881.80	1599.46
881.97	1710.05
882.13	1769.44
882.30	1681.38
882.47	1656.81
882.63	1669.09
882.80	1615.85
882.96	1621.99
883.13	1701.86
883.29	1708.01
883.46	1732.58
883.62	1824.74
883.79	1660.90
883.95	1779.68
884.12	1679.33
884.29	1716.20
884.45	1681.38
884.62	1767.40
884.78	1654.76
884.95	1800.16
885.11	1693.67
885.28	1773.54
885.44	1687.53
885.61	1710.05
885.77	1753.06
885.94	1732.58
886.10	1720.29
886.27	1757.16
886.43	1791.97
886.60	1753.06
886.76	1642.47
886.93	1710.05
887.09	1693.67
887.26	1615.85
887.42	1642.47
887.59	1779.68
887.75	1865.70
887.92	1716.20
888.08	1732.58
888.25	1777.64
888.41	1691.62
888.58	1695.72
888.74	1591.27
888.91	1613.80
>>>>>End Processed Spectral Data<<<<<
