SpectraSuite Data File
++++++++++++++++++++++++++++++++++++
Date: Mon Jun 06 13:01:37 CEST 2016
User: root
Dark Spectrum Present: No
Reference Spectrum Present: No
Number of Sampled Component Spectra: 1
Spectrometers: USB4C02835
Integration Time (usec): 100000 (USB4C02835)
Spectra Averaged: 1 (USB4C02835)
Boxcar Smoothing: 0 (USB4C02835)
Correct for Electrical Dark: No (USB4C02835)
Strobe/Lamp Enabled: No (USB4C02835)
Correct for Detector Non-linearity: No (USB4C02835)
Correct for Stray Light: No (USB4C02835)
Number of Pixels in Processed Spectrum: 3648
>>>>>Begin Processed Spectral Data<<<<<
177.47	1519.59
177.69	1519.59
177.91	1519.59
178.13	1398.76
178.36	1458.15
178.58	1636.33
178.80	1703.91
179.02	1597.42
179.24	1640.42
179.46	1734.63
179.68	1718.25
179.90	1593.32
180.13	1667.05
180.35	1679.33
180.57	1636.33
180.79	1775.59
181.01	1705.96
181.23	1730.53
181.45	1773.54
181.67	1689.57
181.90	1738.73
182.12	1710.05
182.34	1673.19
182.56	1751.01
182.78	1767.40
183.00	1697.77
183.22	1746.92
183.44	1615.85
183.66	1882.08
183.89	1800.16
184.11	1716.20
184.33	1734.63
184.55	1748.97
184.77	1681.38
184.99	1710.05
185.21	1660.90
185.43	1828.84
185.65	1728.49
185.87	1732.58
186.10	1783.78
186.32	1787.88
186.54	1736.68
186.76	1724.39
186.98	1755.11
187.20	1728.49
187.42	1699.81
187.64	1646.57
187.86	1677.29
188.08	1796.07
188.30	1759.21
188.52	1716.20
188.75	1826.79
188.97	1847.27
189.19	1701.86
189.41	1675.24
189.63	1777.64
189.85	1667.05
190.07	1685.48
190.29	1617.90
190.51	1734.63
190.73	1630.18
190.95	1796.07
191.17	1697.77
191.39	1611.75
191.61	1630.18
191.84	1744.87
192.06	1667.05
192.28	1558.50
192.50	1914.85
192.72	1779.68
192.94	1683.43
193.16	1775.59
193.38	1716.20
193.60	1654.76
193.82	1646.57
194.04	1730.53
194.26	1761.25
194.48	1699.81
194.70	1642.47
194.92	1648.61
195.14	1712.10
195.36	1703.91
195.58	1691.62
195.80	1705.96
196.02	1667.05
196.24	1609.70
196.46	1683.43
196.69	1708.01
196.91	1841.12
197.13	1597.42
197.35	1632.23
197.57	1802.21
197.79	1746.92
198.01	1685.48
198.23	1785.83
198.45	1730.53
198.67	1613.80
198.89	1660.90
199.11	1839.08
199.33	1554.41
199.55	1574.89
199.77	1718.25
199.99	1701.86
200.21	1642.47
200.43	1726.44
200.65	1658.85
200.87	1648.61
201.09	1681.38
201.31	1714.15
201.53	1677.29
201.75	1734.63
201.97	1699.81
202.19	1724.39
202.41	1722.34
202.63	1775.59
202.85	1753.06
203.07	1667.05
203.29	1722.34
203.51	1611.75
203.73	1621.99
203.95	1843.17
204.17	1712.10
204.39	1693.67
204.61	1609.70
204.83	1658.85
205.05	1746.92
205.27	1808.36
205.49	1773.54
205.71	1701.86
205.93	1595.37
206.15	1691.62
206.37	1673.19
206.59	1699.81
206.81	1650.66
207.03	1607.66
207.25	1718.25
207.47	1703.91
207.69	1714.15
207.91	1820.64
208.13	1757.16
208.34	1708.01
208.56	1617.90
208.78	1779.68
209.00	1609.70
209.22	1697.77
209.44	1646.57
209.66	1722.34
209.88	1710.05
210.10	1722.34
210.32	1642.47
210.54	1732.58
210.76	1695.72
210.98	1787.88
211.20	1630.18
211.42	1671.14
211.64	1800.16
211.86	1712.10
212.08	1775.59
212.30	1718.25
212.52	1691.62
212.74	1646.57
212.96	1699.81
213.17	1773.54
213.39	1660.90
213.61	1748.97
213.83	1830.88
214.05	1650.66
214.27	1722.34
214.49	1619.94
214.71	1587.18
214.93	1763.30
215.15	1662.95
215.37	1769.44
215.59	1546.22
215.81	1748.97
216.03	1777.64
216.24	1634.28
216.46	1681.38
216.68	1650.66
216.90	1789.92
217.12	1841.12
217.34	1693.67
217.56	1738.73
217.78	1769.44
218.00	1748.97
218.22	1722.34
218.44	1689.57
218.66	1785.83
218.87	1787.88
219.09	1685.48
219.31	1730.53
219.53	1748.97
219.75	1621.99
219.97	1757.16
220.19	1679.33
220.41	1642.47
220.63	1802.21
220.85	1757.16
221.06	1710.05
221.28	1841.12
221.50	1783.78
221.72	1757.16
221.94	1730.53
222.16	1691.62
222.38	1734.63
222.60	1744.87
222.82	1648.61
223.03	1665.00
223.25	1630.18
223.47	1783.78
223.69	1822.69
223.91	1746.92
224.13	1675.24
224.35	1705.96
224.57	1734.63
224.78	1767.40
225.00	1613.80
225.22	1714.15
225.44	1708.01
225.66	1720.29
225.88	1644.52
226.10	1781.73
226.32	1724.39
226.53	1761.25
226.75	1640.42
226.97	1697.77
227.19	1689.57
227.41	1650.66
227.63	1642.47
227.85	1636.33
228.06	1687.53
228.28	1662.95
228.50	1765.35
228.72	1665.00
228.94	1626.09
229.16	1560.55
229.37	1683.43
229.59	1642.47
229.81	1839.08
230.03	1650.66
230.25	1636.33
230.47	1554.41
230.69	1591.27
230.90	1718.25
231.12	1693.67
231.34	1789.92
231.56	1818.60
231.78	1632.23
232.00	1671.14
232.21	1665.00
232.43	1718.25
232.65	1562.60
232.87	1697.77
233.09	1624.04
233.30	1599.46
233.52	1714.15
233.74	1701.86
233.96	1656.81
234.18	1648.61
234.40	1681.38
234.61	1787.88
234.83	1644.52
235.05	1603.56
235.27	1884.13
235.49	1802.21
235.70	1660.90
235.92	1765.35
236.14	1761.25
236.36	1882.08
236.58	1650.66
236.79	1771.49
237.01	1744.87
237.23	1755.11
237.45	1822.69
237.67	1675.24
237.88	1724.39
238.10	1744.87
238.32	1581.03
238.54	1744.87
238.76	1724.39
238.97	1613.80
239.19	1757.16
239.41	1781.73
239.63	1775.59
239.85	1757.16
240.06	1726.44
240.28	1697.77
240.50	1714.15
240.72	1757.16
240.93	1599.46
241.15	1755.11
241.37	1710.05
241.59	1755.11
241.81	1679.33
242.02	1656.81
242.24	1744.87
242.46	1697.77
242.68	1669.09
242.89	1701.86
243.11	1828.84
243.33	1701.86
243.55	1843.17
243.76	1714.15
243.98	1708.01
244.20	1744.87
244.42	1632.23
244.64	1748.97
244.85	1617.90
245.07	1665.00
245.29	1734.63
245.51	1755.11
245.72	1708.01
245.94	1777.64
246.16	1767.40
246.38	1740.77
246.59	1689.57
246.81	1667.05
247.03	1617.90
247.24	1667.05
247.46	1617.90
247.68	1732.58
247.90	1669.09
248.11	1712.10
248.33	1714.15
248.55	1667.05
248.77	1714.15
248.98	1775.59
249.20	1841.12
249.42	1730.53
249.64	1779.68
249.85	1681.38
250.07	1636.33
250.29	1705.96
250.50	1777.64
250.72	1628.14
250.94	1732.58
251.16	1902.56
251.37	1732.58
251.59	1697.77
251.81	1736.68
252.02	1912.80
252.24	1673.19
252.46	1767.40
252.68	1662.95
252.89	1687.53
253.11	1693.67
253.33	1839.08
253.54	1779.68
253.76	1650.66
253.98	1662.95
254.20	1736.68
254.41	1640.42
254.63	1755.11
254.85	1667.05
255.06	1705.96
255.28	1705.96
255.50	1763.30
255.71	1705.96
255.93	1626.09
256.15	1617.90
256.36	1763.30
256.58	1708.01
256.80	1697.77
257.02	1656.81
257.23	1685.48
257.45	1701.86
257.67	1710.05
257.88	1689.57
258.10	1751.01
258.32	1677.29
258.53	1695.72
258.75	1777.64
258.97	1624.04
259.18	1685.48
259.40	1703.91
259.62	1769.44
259.83	1816.55
260.05	1609.70
260.27	1984.48
260.48	1744.87
260.70	1658.85
260.92	1689.57
261.13	1722.34
261.35	1628.14
261.57	1742.82
261.78	1640.42
262.00	1669.09
262.22	1667.05
262.43	1587.18
262.65	1699.81
262.86	1628.14
263.08	1751.01
263.30	1714.15
263.51	1712.10
263.73	1736.68
263.95	1812.45
264.16	1628.14
264.38	1605.61
264.60	1724.39
264.81	1650.66
265.03	1734.63
265.25	1769.44
265.46	1705.96
265.68	1757.16
265.89	1669.09
266.11	1626.09
266.33	1761.25
266.54	1779.68
266.76	1705.96
266.98	1753.06
267.19	1740.77
267.41	1751.01
267.62	1640.42
267.84	1630.18
268.06	1679.33
268.27	1665.00
268.49	1781.73
268.70	1798.12
268.92	1677.29
269.14	1687.53
269.35	1568.74
269.57	1656.81
269.79	1740.77
270.00	1679.33
270.22	1773.54
270.43	1654.76
270.65	1587.18
270.87	1701.86
271.08	1759.21
271.30	1716.20
271.51	1683.43
271.73	1765.35
271.95	1763.30
272.16	1626.09
272.38	1708.01
272.59	1628.14
272.81	1675.24
273.02	1708.01
273.24	1701.86
273.46	1689.57
273.67	1646.57
273.89	1642.47
274.10	1654.76
274.32	1722.34
274.54	1720.29
274.75	1683.43
274.97	1634.28
275.18	1667.05
275.40	1726.44
275.61	1714.15
275.83	1673.19
276.05	1730.53
276.26	1705.96
276.48	1708.01
276.69	1667.05
276.91	1646.57
277.12	1812.45
277.34	1705.96
277.55	1820.64
277.77	1734.63
277.99	1775.59
278.20	1626.09
278.42	1636.33
278.63	1673.19
278.85	1660.90
279.06	1624.04
279.28	1656.81
279.49	1718.25
279.71	1816.55
279.93	1722.34
280.14	1714.15
280.36	1693.67
280.57	1718.25
280.79	1689.57
281.00	1710.05
281.22	1685.48
281.43	1767.40
281.65	1609.70
281.86	1699.81
282.08	1746.92
282.29	1767.40
282.51	1650.66
282.73	1640.42
282.94	1624.04
283.16	1757.16
283.37	1787.88
283.59	1742.82
283.80	1652.71
284.02	1712.10
284.23	1681.38
284.45	1685.48
284.66	1685.48
284.88	1615.85
285.09	1691.62
285.31	1722.34
285.52	1718.25
285.74	1632.23
285.95	1665.00
286.17	1732.58
286.38	1771.49
286.60	1660.90
286.81	1685.48
287.03	1705.96
287.24	1630.18
287.46	1722.34
287.67	1628.14
287.89	1763.30
288.10	1736.68
288.32	1738.73
288.53	1761.25
288.75	1638.38
288.96	1740.77
289.18	1773.54
289.39	1744.87
289.61	1832.93
289.82	1783.78
290.04	1832.93
290.25	1652.71
290.47	1650.66
290.68	1736.68
290.90	1675.24
291.11	1630.18
291.33	1712.10
291.54	1613.80
291.76	1632.23
291.97	1751.01
292.18	1673.19
292.40	1662.95
292.61	1720.29
292.83	1914.85
293.04	1769.44
293.26	1697.77
293.47	1718.25
293.69	1626.09
293.90	1746.92
294.12	1714.15
294.33	1730.53
294.55	1748.97
294.76	1714.15
294.97	1783.78
295.19	1832.93
295.40	1642.47
295.62	1689.57
295.83	1699.81
296.05	1603.56
296.26	1830.88
296.48	1699.81
296.69	1691.62
296.90	1662.95
297.12	1775.59
297.33	1757.16
297.55	1695.72
297.76	1746.92
297.98	1740.77
298.19	1683.43
298.41	1687.53
298.62	1699.81
298.83	1798.12
299.05	1730.53
299.26	1613.80
299.48	1634.28
299.69	1726.44
299.90	1687.53
300.12	1662.95
300.33	1667.05
300.55	1753.06
300.76	1779.68
300.98	1576.94
301.19	1726.44
301.40	1695.72
301.62	1630.18
301.83	1767.40
302.05	1705.96
302.26	1693.67
302.47	1761.25
302.69	1591.27
302.90	1724.39
303.12	1558.50
303.33	1773.54
303.54	1808.36
303.76	1640.42
303.97	1636.33
304.19	1806.31
304.40	1644.52
304.61	1789.92
304.83	1808.36
305.04	1808.36
305.26	1789.92
305.47	1736.68
305.68	1705.96
305.90	1675.24
306.11	1695.72
306.33	1712.10
306.54	1632.23
306.75	1718.25
306.97	1634.28
307.18	1634.28
307.39	1671.14
307.61	1787.88
307.82	1605.61
308.04	1695.72
308.25	1687.53
308.46	1683.43
308.68	1722.34
308.89	1671.14
309.10	1753.06
309.32	1738.73
309.53	1695.72
309.74	1701.86
309.96	1755.11
310.17	1832.93
310.39	1681.38
310.60	1761.25
310.81	1677.29
311.03	1609.70
311.24	1742.82
311.45	1648.61
311.67	1781.73
311.88	1689.57
312.09	1638.38
312.31	1716.20
312.52	1669.09
312.73	1587.18
312.95	1722.34
313.16	1652.71
313.37	1796.07
313.59	1665.00
313.80	1740.77
314.01	1818.60
314.23	1677.29
314.44	1648.61
314.65	1697.77
314.87	1640.42
315.08	1583.08
315.29	1665.00
315.51	1570.79
315.72	1626.09
315.93	1806.31
316.15	1730.53
316.36	1710.05
316.57	1673.19
316.79	1732.58
317.00	1656.81
317.21	1728.49
317.43	1673.19
317.64	1662.95
317.85	1648.61
318.07	1607.66
318.28	1779.68
318.49	1818.60
318.70	1843.17
318.92	1791.97
319.13	1837.03
319.34	1933.28
319.56	1718.25
319.77	1783.78
319.98	1781.73
320.20	1746.92
320.41	1714.15
320.62	1746.92
320.83	1599.46
321.05	1845.22
321.26	1763.30
321.47	1785.83
321.69	1861.60
321.90	1634.28
322.11	1667.05
322.32	1748.97
322.54	1722.34
322.75	1658.85
322.96	1822.69
323.18	1619.94
323.39	1710.05
323.60	1665.00
323.81	1759.21
324.03	1640.42
324.24	1628.14
324.45	1759.21
324.66	1648.61
324.88	1687.53
325.09	1798.12
325.30	1705.96
325.52	1665.00
325.73	1748.97
325.94	1689.57
326.15	1642.47
326.37	1667.05
326.58	1791.97
326.79	1804.26
327.00	1658.85
327.22	1630.18
327.43	1705.96
327.64	1589.22
327.85	1673.19
328.07	1722.34
328.28	1779.68
328.49	1621.99
328.70	1744.87
328.92	1667.05
329.13	1701.86
329.34	1718.25
329.55	1753.06
329.76	1736.68
329.98	1648.61
330.19	1777.64
330.40	1787.88
330.61	1755.11
330.83	1781.73
331.04	1669.09
331.25	1662.95
331.46	1689.57
331.68	1712.10
331.89	1730.53
332.10	1673.19
332.31	1624.04
332.52	1699.81
332.74	1816.55
332.95	1662.95
333.16	1691.62
333.37	1710.05
333.58	1675.24
333.80	1751.01
334.01	1683.43
334.22	1712.10
334.43	1654.76
334.64	1656.81
334.86	1644.52
335.07	1675.24
335.28	1777.64
335.49	1685.48
335.70	1789.92
335.92	1683.43
336.13	1820.64
336.34	1675.24
336.55	1746.92
336.76	1673.19
336.98	1632.23
337.19	1642.47
337.40	1777.64
337.61	1808.36
337.82	1710.05
338.04	1761.25
338.25	1574.89
338.46	1646.57
338.67	1640.42
338.88	1683.43
339.09	1646.57
339.31	1656.81
339.52	1583.08
339.73	1667.05
339.94	1667.05
340.15	1693.67
340.36	1718.25
340.58	1689.57
340.79	1652.71
341.00	1689.57
341.21	1652.71
341.42	1785.83
341.63	1683.43
341.85	1796.07
342.06	1718.25
342.27	1603.56
342.48	1724.39
342.69	1587.18
342.90	1740.77
343.12	1714.15
343.33	1624.04
343.54	1724.39
343.75	1769.44
343.96	1701.86
344.17	1730.53
344.38	1642.47
344.60	1701.86
344.81	1636.33
345.02	1687.53
345.23	1718.25
345.44	1808.36
345.65	1759.21
345.86	1751.01
346.07	1638.38
346.29	1697.77
346.50	1662.95
346.71	1767.40
346.92	1779.68
347.13	1806.31
347.34	1726.44
347.55	1658.85
347.76	1722.34
347.98	1642.47
348.19	1638.38
348.40	1787.88
348.61	1658.85
348.82	1779.68
349.03	1724.39
349.24	1703.91
349.45	1855.46
349.66	1585.13
349.88	1714.15
350.09	1736.68
350.30	1806.31
350.51	1806.31
350.72	1671.14
350.93	1748.97
351.14	1658.85
351.35	1687.53
351.56	1638.38
351.77	1791.97
351.99	1732.58
352.20	1865.70
352.41	1746.92
352.62	1589.22
352.83	1701.86
353.04	1734.63
353.25	1667.05
353.46	1785.83
353.67	1726.44
353.88	1533.93
354.09	1722.34
354.30	1673.19
354.52	1785.83
354.73	1714.15
354.94	1667.05
355.15	1652.71
355.36	1781.73
355.57	1660.90
355.78	1697.77
355.99	1628.14
356.20	1652.71
356.41	1769.44
356.62	1667.05
356.83	1671.14
357.04	1843.17
357.25	1628.14
357.46	1705.96
357.68	1591.27
357.89	1634.28
358.10	1785.83
358.31	1744.87
358.52	1703.91
358.73	1656.81
358.94	1644.52
359.15	1658.85
359.36	1748.97
359.57	1695.72
359.78	1708.01
359.99	1763.30
360.20	1601.51
360.41	1675.24
360.62	1767.40
360.83	1787.88
361.04	1667.05
361.25	1705.96
361.46	1824.74
361.67	1740.77
361.88	1722.34
362.09	1720.29
362.30	1671.14
362.51	1771.49
362.72	1744.87
362.93	1800.16
363.14	1710.05
363.35	1718.25
363.56	1621.99
363.78	1701.86
363.99	1814.50
364.20	1636.33
364.41	1769.44
364.62	1783.78
364.83	1626.09
365.04	1730.53
365.25	1677.29
365.46	1908.71
365.67	1615.85
365.88	1587.18
366.09	1624.04
366.30	1781.73
366.51	1755.11
366.72	1581.03
366.93	1689.57
367.14	1759.21
367.35	1800.16
367.56	1718.25
367.77	1812.45
367.98	1667.05
368.18	1708.01
368.39	1759.21
368.60	1654.76
368.81	1761.25
369.02	1662.95
369.23	1740.77
369.44	1642.47
369.65	1640.42
369.86	1732.58
370.07	1742.82
370.28	1705.96
370.49	1703.91
370.70	1757.16
370.91	1599.46
371.12	1705.96
371.33	1820.64
371.54	1724.39
371.75	1767.40
371.96	1595.37
372.17	1744.87
372.38	1703.91
372.59	1687.53
372.80	1720.29
373.01	1656.81
373.22	1734.63
373.43	1730.53
373.64	1669.09
373.85	1818.60
374.06	1787.88
374.26	1728.49
374.47	1652.71
374.68	1806.31
374.89	1681.38
375.10	1708.01
375.31	1773.54
375.52	1714.15
375.73	1695.72
375.94	1671.14
376.15	1869.80
376.36	1587.18
376.57	1689.57
376.78	1722.34
376.99	1769.44
377.20	1808.36
377.40	1695.72
377.61	1708.01
377.82	1699.81
378.03	1728.49
378.24	1724.39
378.45	1701.86
378.66	1710.05
378.87	1626.09
379.08	1585.13
379.29	1626.09
379.50	1779.68
379.71	1732.58
379.91	1742.82
380.12	1687.53
380.33	1744.87
380.54	1660.90
380.75	1652.71
380.96	1652.71
381.17	1773.54
381.38	1701.86
381.59	1675.24
381.80	1671.14
382.00	1826.79
382.21	1804.26
382.42	1789.92
382.63	1828.84
382.84	1753.06
383.05	1822.69
383.26	1771.49
383.47	1689.57
383.68	1789.92
383.88	1722.34
384.09	1714.15
384.30	1822.69
384.51	1738.73
384.72	1650.66
384.93	1617.90
385.14	1730.53
385.35	1757.16
385.55	1583.08
385.76	1736.68
385.97	1714.15
386.18	1652.71
386.39	1687.53
386.60	1697.77
386.81	1675.24
387.02	1632.23
387.22	1669.09
387.43	1759.21
387.64	1687.53
387.85	1961.95
388.06	2293.72
388.27	4181.95
388.48	6932.37
388.68	8458.11
388.89	9772.91
389.10	9785.19
389.31	8681.34
389.52	7579.53
389.73	6850.46
389.93	6227.87
390.14	5906.34
390.35	5064.63
390.56	4589.50
390.77	3940.29
390.98	3080.14
391.18	2488.28
391.39	2123.74
391.60	1847.27
391.81	1871.84
392.02	1685.48
392.23	1855.46
392.43	1730.53
392.64	1789.92
392.85	1689.57
393.06	1820.64
393.27	1779.68
393.47	1642.47
393.68	1703.91
393.89	1652.71
394.10	1826.79
394.31	1619.94
394.52	1574.89
394.72	1642.47
394.93	1742.82
395.14	1708.01
395.35	1720.29
395.56	1650.66
395.76	1718.25
395.97	1767.40
396.18	1849.32
396.39	1822.69
396.60	1968.10
396.80	1898.47
397.01	1931.23
397.22	1791.97
397.43	1834.98
397.64	1814.50
397.84	1843.17
398.05	1851.36
398.26	1763.30
398.47	1771.49
398.67	1791.97
398.88	1736.68
399.09	1746.92
399.30	1695.72
399.51	1775.59
399.71	1681.38
399.92	1669.09
400.13	1716.20
400.34	1714.15
400.54	1701.86
400.75	1800.16
400.96	1697.77
401.17	1806.31
401.37	1771.49
401.58	1742.82
401.79	1712.10
402.00	1818.60
402.21	1992.67
402.41	1890.28
402.62	1980.39
402.83	2015.20
403.04	2013.15
403.24	2037.73
403.45	1900.52
403.66	1927.14
403.87	1810.40
404.07	1841.12
404.28	1869.80
404.49	1886.18
404.70	1804.26
404.90	1783.78
405.11	1705.96
405.32	1732.58
405.52	1675.24
405.73	1691.62
405.94	1714.15
406.15	1685.48
406.35	1687.53
406.56	1763.30
406.77	1701.86
406.98	1691.62
407.18	1640.42
407.39	1740.77
407.60	1667.05
407.80	1699.81
408.01	1667.05
408.22	1714.15
408.43	1742.82
408.63	1841.12
408.84	1720.29
409.05	1753.06
409.25	1638.38
409.46	1671.14
409.67	1636.33
409.88	1650.66
410.08	1732.58
410.29	1742.82
410.50	1740.77
410.70	1658.85
410.91	1658.85
411.12	1738.73
411.32	1646.57
411.53	1628.14
411.74	1826.79
411.95	1777.64
412.15	1781.73
412.36	1796.07
412.57	1771.49
412.77	1820.64
412.98	1773.54
413.19	1740.77
413.39	1677.29
413.60	1748.97
413.81	1775.59
414.01	1652.71
414.22	1761.25
414.43	1761.25
414.63	1660.90
414.84	1877.99
415.05	1804.26
415.25	1656.81
415.46	1720.29
415.67	1685.48
415.87	1753.06
416.08	1732.58
416.29	1675.24
416.49	1734.63
416.70	1712.10
416.91	1658.85
417.11	1716.20
417.32	1705.96
417.53	1734.63
417.73	1763.30
417.94	1755.11
418.15	1726.44
418.35	1699.81
418.56	1673.19
418.77	1787.88
418.97	1695.72
419.18	1738.73
419.38	1626.09
419.59	1665.00
419.80	1847.27
420.00	1691.62
420.21	1734.63
420.42	1693.67
420.62	1748.97
420.83	1617.90
421.04	1660.90
421.24	1648.61
421.45	1771.49
421.65	1689.57
421.86	1679.33
422.07	1755.11
422.27	1746.92
422.48	1701.86
422.69	1714.15
422.89	1652.71
423.10	1740.77
423.30	1638.38
423.51	1665.00
423.72	1714.15
423.92	1708.01
424.13	1619.94
424.33	1665.00
424.54	1794.02
424.75	1714.15
424.95	1742.82
425.16	1689.57
425.36	1708.01
425.57	1814.50
425.78	1734.63
425.98	1759.21
426.19	1675.24
426.39	1644.52
426.60	1714.15
426.81	1791.97
427.01	1671.14
427.22	1609.70
427.42	1757.16
427.63	1734.63
427.83	1669.09
428.04	1832.93
428.25	1755.11
428.45	1714.15
428.66	1761.25
428.86	1718.25
429.07	1617.90
429.28	1685.48
429.48	1679.33
429.69	1683.43
429.89	1710.05
430.10	1587.18
430.30	1683.43
430.51	1681.38
430.71	1689.57
430.92	1767.40
431.13	1681.38
431.33	1753.06
431.54	1728.49
431.74	1783.78
431.95	1808.36
432.15	1660.90
432.36	1673.19
432.56	1685.48
432.77	1849.32
432.98	1894.37
433.18	1693.67
433.39	1718.25
433.59	1738.73
433.80	1873.89
434.00	1800.16
434.21	1705.96
434.41	1703.91
434.62	1841.12
434.82	1658.85
435.03	1599.46
435.23	1763.30
435.44	1626.09
435.64	1693.67
435.85	1718.25
436.06	1767.40
436.26	1753.06
436.47	1716.20
436.67	1763.30
436.88	1644.52
437.08	1718.25
437.29	1796.07
437.49	1765.35
437.70	1753.06
437.90	1669.09
438.11	1818.60
438.31	1757.16
438.52	1845.22
438.72	1806.31
438.93	1964.00
439.13	1751.01
439.34	1830.88
439.54	1763.30
439.75	1804.26
439.95	1816.55
440.16	1685.48
440.36	1751.01
440.57	1798.12
440.77	1781.73
440.98	1751.01
441.18	1740.77
441.39	1640.42
441.59	1642.47
441.80	1832.93
442.00	1726.44
442.21	1777.64
442.41	1624.04
442.62	1748.97
442.82	1689.57
443.02	1705.96
443.23	1673.19
443.43	1722.34
443.64	1771.49
443.84	1669.09
444.05	1802.21
444.25	1787.88
444.46	1736.68
444.66	1783.78
444.87	1798.12
445.07	1628.14
445.28	1697.77
445.48	1779.68
445.69	1730.53
445.89	1826.79
446.09	1773.54
446.30	2056.16
446.50	2598.87
446.71	3729.35
446.91	4360.13
447.12	4691.90
447.32	4761.53
447.53	4278.21
447.73	3946.44
447.93	3637.19
448.14	3360.72
448.34	3170.26
448.55	2877.40
448.75	2901.97
448.96	2781.14
449.16	2385.88
449.36	2287.58
449.57	2095.07
449.77	1988.58
449.98	1791.97
450.18	1873.89
450.39	1767.40
450.59	1775.59
450.79	1710.05
451.00	1732.58
451.20	1755.11
451.41	1734.63
451.61	1710.05
451.81	1695.72
452.02	1669.09
452.22	1726.44
452.43	1738.73
452.63	1730.53
452.84	1714.15
453.04	1716.20
453.24	1753.06
453.45	1697.77
453.65	1699.81
453.86	1771.49
454.06	1796.07
454.26	1730.53
454.47	1701.86
454.67	1757.16
454.87	1751.01
455.08	1716.20
455.28	1765.35
455.49	1703.91
455.69	1705.96
455.89	1855.46
456.10	1826.79
456.30	1730.53
456.51	1771.49
456.71	1751.01
456.91	1689.57
457.12	1759.21
457.32	1687.53
457.52	1656.81
457.73	1734.63
457.93	1740.77
458.14	1677.29
458.34	1632.23
458.54	1759.21
458.75	1695.72
458.95	1755.11
459.15	1716.20
459.36	1716.20
459.56	1726.44
459.76	1877.99
459.97	1712.10
460.17	1730.53
460.37	1804.26
460.58	1701.86
460.78	1783.78
460.99	1708.01
461.19	1689.57
461.39	1689.57
461.60	1728.49
461.80	1744.87
462.00	1658.85
462.21	1748.97
462.41	1677.29
462.61	1658.85
462.82	1624.04
463.02	1781.73
463.22	1710.05
463.43	1796.07
463.63	1722.34
463.83	1851.36
464.04	1705.96
464.24	1699.81
464.44	1660.90
464.64	1689.57
464.85	1714.15
465.05	1781.73
465.25	1796.07
465.46	1673.19
465.66	1755.11
465.86	1665.00
466.07	1783.78
466.27	1638.38
466.47	1626.09
466.68	1564.65
466.88	1873.89
467.08	1662.95
467.29	1722.34
467.49	1738.73
467.69	1665.00
467.89	1751.01
468.10	1705.96
468.30	1732.58
468.50	1796.07
468.71	1767.40
468.91	1636.33
469.11	1920.99
469.31	1775.59
469.52	1683.43
469.72	1824.74
469.92	1818.60
470.13	1720.29
470.33	1755.11
470.53	1853.41
470.73	2086.88
470.94	2322.40
471.14	2283.49
471.34	2559.96
471.54	2379.74
471.75	2209.76
471.95	2160.61
472.15	2109.41
472.36	2183.13
472.56	2090.98
472.76	2041.82
472.96	1998.82
473.17	1986.53
473.37	1910.75
473.57	1804.26
473.77	1726.44
473.98	1794.02
474.18	1726.44
474.38	1937.38
474.58	1632.23
474.79	1708.01
474.99	1742.82
475.19	1783.78
475.39	1726.44
475.60	1736.68
475.80	1736.68
476.00	1730.53
476.20	1714.15
476.41	1697.77
476.61	1869.80
476.81	1794.02
477.01	1669.09
477.21	1798.12
477.42	1812.45
477.62	1683.43
477.82	1804.26
478.02	1708.01
478.23	1726.44
478.43	1640.42
478.63	1714.15
478.83	1757.16
479.03	1712.10
479.24	1771.49
479.44	1873.89
479.64	1677.29
479.84	1632.23
480.04	1617.90
480.25	1769.44
480.45	1705.96
480.65	1691.62
480.85	1757.16
481.06	1607.66
481.26	1771.49
481.46	1787.88
481.66	1789.92
481.86	1621.99
482.06	1867.75
482.27	1685.48
482.47	1673.19
482.67	1679.33
482.87	1683.43
483.07	1746.92
483.28	1718.25
483.48	1562.60
483.68	1751.01
483.88	1656.81
484.08	1644.52
484.29	1628.14
484.49	1722.34
484.69	1683.43
484.89	1757.16
485.09	1765.35
485.29	1759.21
485.50	1695.72
485.70	1677.29
485.90	1863.65
486.10	1712.10
486.30	1765.35
486.50	1767.40
486.71	1742.82
486.91	1691.62
487.11	1740.77
487.31	1679.33
487.51	1718.25
487.71	1722.34
487.91	1775.59
488.12	1687.53
488.32	1665.00
488.52	1693.67
488.72	1564.65
488.92	1763.30
489.12	1798.12
489.32	1734.63
489.53	1769.44
489.73	1632.23
489.93	1755.11
490.13	1603.56
490.33	1656.81
490.53	1796.07
490.73	1818.60
490.94	1656.81
491.14	1726.44
491.34	1818.60
491.54	2119.65
491.74	2568.15
491.94	2963.41
492.14	3106.77
492.34	2965.46
492.54	2842.58
492.75	2533.34
492.95	2500.57
493.15	2353.12
493.35	2273.25
493.55	2217.95
493.75	2162.66
493.95	2215.90
494.15	2037.73
494.35	1886.18
494.56	1828.84
494.76	1746.92
494.96	1748.97
495.16	1814.50
495.36	1673.19
495.56	1746.92
495.76	1736.68
495.96	1763.30
496.16	1755.11
496.36	1869.80
496.56	1701.86
496.77	1748.97
496.97	1679.33
497.17	1759.21
497.37	1669.09
497.57	1742.82
497.77	1693.67
497.97	1710.05
498.17	1728.49
498.37	1693.67
498.57	1710.05
498.77	1773.54
498.97	1765.35
499.17	1753.06
499.38	1708.01
499.58	1773.54
499.78	1763.30
499.98	1802.21
500.18	1689.57
500.38	1658.85
500.58	1910.75
500.78	2566.10
500.98	4521.92
501.18	5949.35
501.38	6856.60
501.58	7268.24
501.78	6680.47
501.98	5558.19
502.18	5027.76
502.38	4460.48
502.58	4100.03
502.78	3786.69
502.98	3555.27
503.18	3469.26
503.38	3231.69
503.59	2852.82
503.79	2609.11
503.99	2467.80
504.19	2332.64
504.39	2222.05
504.59	2183.13
504.79	2035.68
504.99	2000.87
505.19	1880.04
505.39	1937.38
505.59	2017.25
505.79	1914.85
505.99	1843.17
506.19	1726.44
506.39	1867.75
506.59	1748.97
506.79	1726.44
506.99	1867.75
507.19	1738.73
507.39	1765.35
507.59	1685.48
507.79	1660.90
507.99	1632.23
508.19	1775.59
508.39	1718.25
508.59	1665.00
508.79	1802.21
508.99	1826.79
509.19	1693.67
509.39	1761.25
509.59	1669.09
509.79	1660.90
509.99	1806.31
510.19	1847.27
510.39	1832.93
510.59	1697.77
510.79	1636.33
510.99	1683.43
511.19	1724.39
511.39	1839.08
511.59	1816.55
511.79	1845.22
511.99	1730.53
512.19	1804.26
512.38	1771.49
512.58	1761.25
512.78	1755.11
512.98	1724.39
513.18	1802.21
513.38	1671.14
513.58	1736.68
513.78	1703.91
513.98	1724.39
514.18	1728.49
514.38	1730.53
514.58	1718.25
514.78	1691.62
514.98	1652.71
515.18	1722.34
515.38	1662.95
515.58	1806.31
515.78	1660.90
515.98	1705.96
516.18	1757.16
516.38	1724.39
516.57	1697.77
516.77	1654.76
516.97	1837.03
517.17	1652.71
517.37	1615.85
517.57	1814.50
517.77	1722.34
517.97	1673.19
518.17	1681.38
518.37	1650.66
518.57	1701.86
518.77	1763.30
518.97	1824.74
519.16	1738.73
519.36	1736.68
519.56	1703.91
519.76	1691.62
519.96	1671.14
520.16	1841.12
520.36	1638.38
520.56	1806.31
520.76	1648.61
520.96	1683.43
521.16	1771.49
521.35	1787.88
521.55	1853.41
521.75	1695.72
521.95	1677.29
522.15	1736.68
522.35	1640.42
522.55	1646.57
522.75	1810.40
522.95	1691.62
523.14	1542.12
523.34	1740.77
523.54	1699.81
523.74	1787.88
523.94	1710.05
524.14	1628.14
524.34	1734.63
524.54	1812.45
524.73	1714.15
524.93	1744.87
525.13	1771.49
525.33	1759.21
525.53	1873.89
525.73	1708.01
525.93	1755.11
526.13	1632.23
526.32	1697.77
526.52	1763.30
526.72	1753.06
526.92	1720.29
527.12	1683.43
527.32	1665.00
527.52	1773.54
527.71	1765.35
527.91	1724.39
528.11	1662.95
528.31	1755.11
528.51	1632.23
528.71	1693.67
528.90	1753.06
529.10	1724.39
529.30	1816.55
529.50	1656.81
529.70	1789.92
529.90	1691.62
530.09	1728.49
530.29	1714.15
530.49	1693.67
530.69	1832.93
530.89	1710.05
531.09	1832.93
531.28	1767.40
531.48	1810.40
531.68	1759.21
531.88	1697.77
532.08	1808.36
532.28	1796.07
532.47	1751.01
532.67	1746.92
532.87	1761.25
533.07	1671.14
533.27	1853.41
533.46	1742.82
533.66	1689.57
533.86	1732.58
534.06	1699.81
534.26	1763.30
534.45	1609.70
534.65	1855.46
534.85	1683.43
535.05	1751.01
535.25	1761.25
535.44	1681.38
535.64	1763.30
535.84	1710.05
536.04	1705.96
536.24	1705.96
536.43	1722.34
536.63	1718.25
536.83	1714.15
537.03	1759.21
537.22	1644.52
537.42	1734.63
537.62	1757.16
537.82	1720.29
538.02	1757.16
538.21	1693.67
538.41	1900.52
538.61	1802.21
538.81	1726.44
539.00	1865.70
539.20	1593.32
539.40	1796.07
539.60	1689.57
539.79	1755.11
539.99	1712.10
540.19	1703.91
540.39	1685.48
540.58	1722.34
540.78	1802.21
540.98	1728.49
541.18	1820.64
541.37	1724.39
541.57	1665.00
541.77	1740.77
541.97	1681.38
542.16	1673.19
542.36	1708.01
542.56	1689.57
542.76	1834.98
542.95	1800.16
543.15	1716.20
543.35	1732.58
543.54	1708.01
543.74	1679.33
543.94	1818.60
544.14	1673.19
544.33	1785.83
544.53	1714.15
544.73	1648.61
544.93	1673.19
545.12	1726.44
545.32	1695.72
545.52	1714.15
545.71	1689.57
545.91	1695.72
546.11	1746.92
546.30	1638.38
546.50	1705.96
546.70	1734.63
546.90	1720.29
547.09	1650.66
547.29	1744.87
547.49	1800.16
547.68	1722.34
547.88	1687.53
548.08	1746.92
548.27	2148.32
548.47	1757.16
548.67	1644.52
548.87	1791.97
549.06	1751.01
549.26	1753.06
549.46	1738.73
549.65	1769.44
549.85	1822.69
550.05	1841.12
550.24	1665.00
550.44	1730.53
550.64	1765.35
550.83	1665.00
551.03	1806.31
551.23	1794.02
551.42	1718.25
551.62	1783.78
551.82	1693.67
552.01	1695.72
552.21	1834.98
552.41	1699.81
552.60	1818.60
552.80	1816.55
553.00	1685.48
553.19	1742.82
553.39	1857.51
553.59	1701.86
553.78	1767.40
553.98	1720.29
554.17	1718.25
554.37	1791.97
554.57	1765.35
554.76	1701.86
554.96	1726.44
555.16	1705.96
555.35	1708.01
555.55	1746.92
555.75	1736.68
555.94	1753.06
556.14	1589.22
556.33	1855.46
556.53	1687.53
556.73	1771.49
556.92	1718.25
557.12	1857.51
557.32	1851.36
557.51	1748.97
557.71	1761.25
557.90	1853.41
558.10	1804.26
558.30	1667.05
558.49	1683.43
558.69	1724.39
558.88	1783.78
559.08	1746.92
559.28	1687.53
559.47	1708.01
559.67	1800.16
559.86	1888.23
560.06	1701.86
560.26	1755.11
560.45	1796.07
560.65	1773.54
560.84	1808.36
561.04	1714.15
561.24	1736.68
561.43	1675.24
561.63	1849.32
561.82	1736.68
562.02	1714.15
562.22	1691.62
562.41	1736.68
562.61	1753.06
562.80	1617.90
563.00	1927.14
563.19	1708.01
563.39	1751.01
563.59	1753.06
563.78	1644.52
563.98	1685.48
564.17	1673.19
564.37	1683.43
564.56	1681.38
564.76	1687.53
564.96	1859.56
565.15	1712.10
565.35	1902.56
565.54	1800.16
565.74	1773.54
565.93	1798.12
566.13	1753.06
566.32	1714.15
566.52	1828.84
566.71	1763.30
566.91	1751.01
567.11	1679.33
567.30	1669.09
567.50	1779.68
567.69	1718.25
567.89	1730.53
568.08	1681.38
568.28	1763.30
568.47	1624.04
568.67	1773.54
568.86	1712.10
569.06	1773.54
569.25	1787.88
569.45	1714.15
569.64	1722.34
569.84	1675.24
570.04	1728.49
570.23	1671.14
570.43	1755.11
570.62	1757.16
570.82	1779.68
571.01	1728.49
571.21	1646.57
571.40	1673.19
571.60	1837.03
571.79	1849.32
571.99	1814.50
572.18	1716.20
572.38	1726.44
572.57	1681.38
572.77	1734.63
572.96	1845.22
573.16	1748.97
573.35	1685.48
573.55	1861.60
573.74	1779.68
573.94	1685.48
574.13	1712.10
574.33	1767.40
574.52	1802.21
574.71	1794.02
574.91	1869.80
575.10	1677.29
575.30	1742.82
575.49	1732.58
575.69	1726.44
575.88	1753.06
576.08	1701.86
576.27	1800.16
576.47	1710.05
576.66	1818.60
576.86	1847.27
577.05	1810.40
577.25	1683.43
577.44	1832.93
577.64	1687.53
577.83	1832.93
578.02	1734.63
578.22	1904.61
578.41	1794.02
578.61	1697.77
578.80	1685.48
579.00	1798.12
579.19	1732.58
579.39	1849.32
579.58	1710.05
579.77	1757.16
579.97	1820.64
580.16	1736.68
580.36	1841.12
580.55	1810.40
580.75	1834.98
580.94	1746.92
581.13	1814.50
581.33	1812.45
581.52	1748.97
581.72	1843.17
581.91	1865.70
582.11	1751.01
582.30	1800.16
582.49	1765.35
582.69	1847.27
582.88	1791.97
583.08	1798.12
583.27	1871.84
583.47	1716.20
583.66	1726.44
583.85	1724.39
584.05	1699.81
584.24	1751.01
584.44	1861.60
584.63	1804.26
584.82	1796.07
585.02	1748.97
585.21	1783.78
585.41	1871.84
585.60	1773.54
585.79	1812.45
585.99	1857.51
586.18	1853.41
586.37	2179.04
586.57	3368.91
586.76	9838.44
586.96	25015.94
587.15	35268.07
587.34	41282.95
587.54	42831.22
587.73	37457.35
587.93	26820.20
588.12	22011.57
588.31	18638.56
588.51	16606.98
588.70	15413.01
588.89	14325.54
589.09	12592.96
589.28	11001.69
589.47	9578.35
589.67	8052.61
589.86	6580.12
590.06	5019.57
590.25	3966.92
590.44	3157.97
590.64	2652.12
590.83	2232.29
591.02	2068.45
591.22	2007.01
591.41	1898.47
591.60	1880.04
591.80	1888.23
591.99	1769.44
592.18	1736.68
592.38	1757.16
592.57	1738.73
592.76	1773.54
592.96	1742.82
593.15	1791.97
593.34	1783.78
593.54	1775.59
593.73	1806.31
593.92	1773.54
594.12	1691.62
594.31	1812.45
594.50	1798.12
594.70	1783.78
594.89	1845.22
595.08	1705.96
595.28	1791.97
595.47	1884.13
595.66	1818.60
595.86	1701.86
596.05	1685.48
596.24	1697.77
596.43	1789.92
596.63	1789.92
596.82	1783.78
597.01	1771.49
597.21	1820.64
597.40	1763.30
597.59	1683.43
597.79	1654.76
597.98	1759.21
598.17	1763.30
598.36	1730.53
598.56	1779.68
598.75	1662.95
598.94	1730.53
599.14	1722.34
599.33	1732.58
599.52	1777.64
599.71	1810.40
599.91	1800.16
600.10	1726.44
600.29	1724.39
600.48	1759.21
600.68	1857.51
600.87	1742.82
601.06	1677.29
601.26	1806.31
601.45	1740.77
601.64	1775.59
601.83	1828.84
602.03	1732.58
602.22	1691.62
602.41	1802.21
602.60	1806.31
602.80	1863.65
602.99	1871.84
603.18	1675.24
603.37	1775.59
603.57	1757.16
603.76	1751.01
603.95	1853.41
604.14	1667.05
604.34	1687.53
604.53	1763.30
604.72	1789.92
604.91	1763.30
605.10	1800.16
605.30	1667.05
605.49	1841.12
605.68	1763.30
605.87	1824.74
606.07	1632.23
606.26	1769.44
606.45	1779.68
606.64	1767.40
606.84	1714.15
607.03	1755.11
607.22	1769.44
607.41	1726.44
607.60	1634.28
607.80	1761.25
607.99	1691.62
608.18	1804.26
608.37	1767.40
608.56	1800.16
608.76	1822.69
608.95	1808.36
609.14	1763.30
609.33	1789.92
609.52	1763.30
609.72	1742.82
609.91	1806.31
610.10	1787.88
610.29	1818.60
610.48	1804.26
610.68	1744.87
610.87	1755.11
611.06	1769.44
611.25	1681.38
611.44	1708.01
611.63	1693.67
611.83	1812.45
612.02	1619.94
612.21	1800.16
612.40	1638.38
612.59	1734.63
612.79	1679.33
612.98	1742.82
613.17	1767.40
613.36	1771.49
613.55	1898.47
613.74	1642.47
613.93	1693.67
614.13	1710.05
614.32	1751.01
614.51	1738.73
614.70	1683.43
614.89	1667.05
615.08	1769.44
615.28	2080.74
615.47	1624.04
615.66	1757.16
615.85	1740.77
616.04	1734.63
616.23	1636.33
616.42	1701.86
616.62	1748.97
616.81	1740.77
617.00	1679.33
617.19	1785.83
617.38	1683.43
617.57	1804.26
617.76	1742.82
617.95	1794.02
618.15	1683.43
618.34	1787.88
618.53	1675.24
618.72	1751.01
618.91	1816.55
619.10	1806.31
619.29	1677.29
619.48	1757.16
619.68	1708.01
619.87	1695.72
620.06	1675.24
620.25	1820.64
620.44	1728.49
620.63	1730.53
620.82	1701.86
621.01	1761.25
621.20	1701.86
621.39	1767.40
621.59	1777.64
621.78	1685.48
621.97	1757.16
622.16	1761.25
622.35	1806.31
622.54	1800.16
622.73	1785.83
622.92	1634.28
623.11	1718.25
623.30	1746.92
623.49	1746.92
623.68	1656.81
623.88	1755.11
624.07	1648.61
624.26	1734.63
624.45	1785.83
624.64	1646.57
624.83	1751.01
625.02	1650.66
625.21	1689.57
625.40	1800.16
625.59	1843.17
625.78	1691.62
625.97	1693.67
626.16	1851.36
626.35	1746.92
626.54	1728.49
626.74	1732.58
626.93	1660.90
627.12	1781.73
627.31	1744.87
627.50	1728.49
627.69	1800.16
627.88	1669.09
628.07	1703.91
628.26	1642.47
628.45	1693.67
628.64	1626.09
628.83	1771.49
629.02	1636.33
629.21	1730.53
629.40	1757.16
629.59	1691.62
629.78	1720.29
629.97	1773.54
630.16	1726.44
630.35	1681.38
630.54	1716.20
630.73	1677.29
630.92	1644.52
631.11	1728.49
631.30	1824.74
631.49	1695.72
631.68	1667.05
631.87	1705.96
632.06	1720.29
632.25	1871.84
632.44	1728.49
632.63	1736.68
632.82	1751.01
633.01	1699.81
633.20	1734.63
633.39	1591.27
633.58	1615.85
633.77	1734.63
633.96	1685.48
634.15	1708.01
634.34	1732.58
634.53	1695.72
634.72	1599.46
634.91	1642.47
635.10	1671.14
635.29	1765.35
635.48	1755.11
635.67	1640.42
635.86	1662.95
636.05	1791.97
636.24	1708.01
636.43	1771.49
636.62	1708.01
636.81	1578.98
637.00	1636.33
637.19	1685.48
637.38	1785.83
637.57	1724.39
637.76	1751.01
637.95	1718.25
638.14	1710.05
638.33	1710.05
638.52	1751.01
638.71	1595.37
638.89	1644.52
639.08	1806.31
639.27	1697.77
639.46	1660.90
639.65	1759.21
639.84	1746.92
640.03	1812.45
640.22	1654.76
640.41	1812.45
640.60	1632.23
640.79	1742.82
640.98	1646.57
641.17	1828.84
641.36	1824.74
641.55	1718.25
641.74	1624.04
641.92	1724.39
642.11	1671.14
642.30	1714.15
642.49	1751.01
642.68	1703.91
642.87	1812.45
643.06	1740.77
643.25	1632.23
643.44	1708.01
643.63	1671.14
643.82	1773.54
644.00	1638.38
644.19	1724.39
644.38	1646.57
644.57	1742.82
644.76	1720.29
644.95	1720.29
645.14	1748.97
645.33	1738.73
645.52	1681.38
645.71	1644.52
645.89	1671.14
646.08	1775.59
646.27	1714.15
646.46	1834.98
646.65	1628.14
646.84	1759.21
647.03	1714.15
647.22	1785.83
647.40	1724.39
647.59	1619.94
647.78	1718.25
647.97	1705.96
648.16	1593.32
648.35	1767.40
648.54	1773.54
648.73	1734.63
648.91	1773.54
649.10	1644.52
649.29	1671.14
649.48	1712.10
649.67	1738.73
649.86	1716.20
650.05	1765.35
650.23	1687.53
650.42	1677.29
650.61	1740.77
650.80	1746.92
650.99	1740.77
651.18	1820.64
651.36	1763.30
651.55	1640.42
651.74	1738.73
651.93	1759.21
652.12	1675.24
652.31	1718.25
652.49	1699.81
652.68	1667.05
652.87	1783.78
653.06	1681.38
653.25	1748.97
653.44	1693.67
653.62	1820.64
653.81	1722.34
654.00	1740.77
654.19	1761.25
654.38	1771.49
654.56	1822.69
654.75	1679.33
654.94	1714.15
655.13	1665.00
655.32	1732.58
655.51	1742.82
655.69	1712.10
655.88	1796.07
656.07	1701.86
656.26	1736.68
656.45	1642.47
656.63	1744.87
656.82	1628.14
657.01	1757.16
657.20	1703.91
657.38	1826.79
657.57	1624.04
657.76	1632.23
657.95	1781.73
658.14	1757.16
658.32	1748.97
658.51	1621.99
658.70	1685.48
658.89	1748.97
659.08	1626.09
659.26	1779.68
659.45	1724.39
659.64	1703.91
659.83	1619.94
660.01	1927.14
660.20	1705.96
660.39	1812.45
660.58	1540.07
660.76	1779.68
660.95	1603.56
661.14	1736.68
661.33	1638.38
661.51	1681.38
661.70	1734.63
661.89	1785.83
662.08	1640.42
662.26	1624.04
662.45	1669.09
662.64	1822.69
662.83	1802.21
663.01	1679.33
663.20	1695.72
663.39	1832.93
663.58	1660.90
663.76	1736.68
663.95	1705.96
664.14	1681.38
664.32	1734.63
664.51	1673.19
664.70	1634.28
664.89	1744.87
665.07	1607.66
665.26	1730.53
665.45	1691.62
665.64	1767.40
665.82	1753.06
666.01	1773.54
666.20	1681.38
666.38	1716.20
666.57	1857.51
666.76	2103.26
666.95	4540.35
667.13	10481.50
667.32	15673.10
667.51	18114.28
667.69	19418.84
667.88	17856.24
668.07	12336.96
668.25	9561.97
668.44	8251.27
668.63	7489.42
668.81	6977.43
669.00	6412.19
669.19	5670.83
669.38	5220.27
669.56	4650.94
669.75	3958.72
669.94	3547.08
670.12	2951.12
670.31	2531.29
670.50	2242.53
670.68	2088.93
670.87	1959.91
671.06	1839.08
671.24	1828.84
671.43	1781.73
671.62	1736.68
671.80	1650.66
671.99	1732.58
672.18	1730.53
672.36	1804.26
672.55	1781.73
672.74	1800.16
672.92	1730.53
673.11	1800.16
673.29	1605.61
673.48	1701.86
673.67	1656.81
673.85	1712.10
674.04	1759.21
674.23	1765.35
674.41	1843.17
674.60	1652.71
674.79	1621.99
674.97	1648.61
675.16	1689.57
675.34	1730.53
675.53	1654.76
675.72	1761.25
675.90	1826.79
676.09	1697.77
676.28	1669.09
676.46	1636.33
676.65	1701.86
676.83	1667.05
677.02	1671.14
677.21	1748.97
677.39	1748.97
677.58	1732.58
677.77	1640.42
677.95	1720.29
678.14	1681.38
678.32	1634.28
678.51	1722.34
678.70	1794.02
678.88	1679.33
679.07	1693.67
679.25	1708.01
679.44	1621.99
679.63	1667.05
679.81	1695.72
680.00	1753.06
680.18	1779.68
680.37	1726.44
680.55	1695.72
680.74	1662.95
680.93	1652.71
681.11	1638.38
681.30	1650.66
681.48	1734.63
681.67	1734.63
681.85	1691.62
682.04	1656.81
682.23	1775.59
682.41	1705.96
682.60	1724.39
682.78	1638.38
682.97	1587.18
683.15	1644.52
683.34	1667.05
683.53	1808.36
683.71	1714.15
683.90	1841.12
684.08	1771.49
684.27	1734.63
684.45	1832.93
684.64	1730.53
684.82	1710.05
685.01	1685.48
685.19	1701.86
685.38	1859.56
685.57	1722.34
685.75	1687.53
685.94	1714.15
686.12	1656.81
686.31	1714.15
686.49	1787.88
686.68	1646.57
686.86	1681.38
687.05	1673.19
687.23	1841.12
687.42	1675.24
687.60	1656.81
687.79	1763.30
687.97	1740.77
688.16	1724.39
688.34	1791.97
688.53	1708.01
688.71	1730.53
688.90	1744.87
689.08	1624.04
689.27	1611.75
689.45	1832.93
689.64	1736.68
689.82	1697.77
690.01	1791.97
690.19	1677.29
690.38	1753.06
690.56	1769.44
690.75	1662.95
690.93	1728.49
691.12	1640.42
691.30	1757.16
691.49	1587.18
691.67	1697.77
691.86	1822.69
692.04	1634.28
692.23	1660.90
692.41	1677.29
692.60	1810.40
692.78	1677.29
692.97	1689.57
693.15	1701.86
693.34	1773.54
693.52	1853.41
693.71	1665.00
693.89	1714.15
694.08	1609.70
694.26	1761.25
694.44	1714.15
694.63	1748.97
694.81	1783.78
695.00	1658.85
695.18	1736.68
695.37	1853.41
695.55	1705.96
695.74	1660.90
695.92	1558.50
696.10	1779.68
696.29	1687.53
696.47	1691.62
696.66	1628.14
696.84	1611.75
697.03	1712.10
697.21	1761.25
697.40	2281.44
697.58	1654.76
697.76	1660.90
697.95	1660.90
698.13	1767.40
698.32	1650.66
698.50	1658.85
698.68	1769.44
698.87	1800.16
699.05	1705.96
699.24	1740.77
699.42	1648.61
699.61	1753.06
699.79	1734.63
699.97	1728.49
700.16	1642.47
700.34	1726.44
700.53	1751.01
700.71	1759.21
700.89	1730.53
701.08	1689.57
701.26	1730.53
701.45	2050.02
701.63	1665.00
701.81	1751.01
702.00	1679.33
702.18	1658.85
702.37	1675.24
702.55	1804.26
702.73	1689.57
702.92	1583.08
703.10	1791.97
703.28	1759.21
703.47	1646.57
703.65	1830.88
703.84	1759.21
704.02	1697.77
704.20	1849.32
704.39	1626.09
704.57	1728.49
704.75	1738.73
704.94	1763.30
705.12	1740.77
705.30	1656.81
705.49	2301.92
705.67	4401.08
705.86	9615.21
706.04	12738.37
706.22	14841.63
706.41	15623.95
706.59	13954.86
706.77	9768.81
706.96	7481.23
707.14	6832.02
707.32	6094.76
707.51	5525.42
707.69	4935.60
707.87	4302.78
708.06	3514.31
708.24	3051.47
708.42	2412.51
708.61	2238.43
708.79	1886.18
708.97	1824.74
709.16	1746.92
709.34	1787.88
709.52	1845.22
709.71	1765.35
709.89	1724.39
710.07	1734.63
710.26	1681.38
710.44	1789.92
710.62	1738.73
710.80	1671.14
710.99	1779.68
711.17	1794.02
711.35	1759.21
711.54	1708.01
711.72	1755.11
711.90	1742.82
712.09	1687.53
712.27	1675.24
712.45	1775.59
712.63	1667.05
712.82	1683.43
713.00	1726.44
713.18	1755.11
713.37	1791.97
713.55	1720.29
713.73	1732.58
713.91	1757.16
714.10	1671.14
714.28	1703.91
714.46	1722.34
714.65	1685.48
714.83	1748.97
715.01	1722.34
715.19	1687.53
715.38	1615.85
715.56	1718.25
715.74	1671.14
715.92	1628.14
716.11	1773.54
716.29	1619.94
716.47	1714.15
716.65	1714.15
716.84	1630.18
717.02	1742.82
717.20	1669.09
717.38	1718.25
717.57	1728.49
717.75	1628.14
717.93	1648.61
718.11	1726.44
718.30	1607.66
718.48	1677.29
718.66	1759.21
718.84	1763.30
719.03	1665.00
719.21	1667.05
719.39	1789.92
719.57	1732.58
719.75	1746.92
719.94	1705.96
720.12	1601.51
720.30	1705.96
720.48	1738.73
720.67	1675.24
720.85	1697.77
721.03	1665.00
721.21	1570.79
721.39	1695.72
721.58	1716.20
721.76	1732.58
721.94	1761.25
722.12	1724.39
722.30	1751.01
722.49	1691.62
722.67	1714.15
722.85	1736.68
723.03	1701.86
723.21	1660.90
723.40	1656.81
723.58	1796.07
723.76	1720.29
723.94	1779.68
724.12	1677.29
724.30	1779.68
724.49	1710.05
724.67	1718.25
724.85	1759.21
725.03	1632.23
725.21	1742.82
725.40	1732.58
725.58	1677.29
725.76	1751.01
725.94	1763.30
726.12	1660.90
726.30	1619.94
726.49	1720.29
726.67	1609.70
726.85	1701.86
727.03	1816.55
727.21	2144.22
727.39	2893.78
727.57	3823.56
727.76	4249.54
727.94	4695.99
728.12	4356.03
728.30	3702.73
728.48	2963.41
728.66	2820.05
728.84	2576.34
729.03	2291.68
729.21	2150.37
729.39	1976.29
729.57	1886.18
729.75	1822.69
729.93	1818.60
730.11	1708.01
730.30	1716.20
730.48	1679.33
730.66	1777.64
730.84	1787.88
731.02	1644.52
731.20	1566.70
731.38	1757.16
731.56	1574.89
731.74	1636.33
731.93	1675.24
732.11	1650.66
732.29	1746.92
732.47	1748.97
732.65	1693.67
732.83	1757.16
733.01	1730.53
733.19	1660.90
733.37	1714.15
733.56	1695.72
733.74	1689.57
733.92	1734.63
734.10	1634.28
734.28	1746.92
734.46	1689.57
734.64	1673.19
734.82	1679.33
735.00	1660.90
735.18	1673.19
735.36	1759.21
735.54	1673.19
735.73	1648.61
735.91	1769.44
736.09	1781.73
736.27	1701.86
736.45	1765.35
736.63	1574.89
736.81	1679.33
736.99	1802.21
737.17	1783.78
737.35	1656.81
737.53	1800.16
737.71	1679.33
737.89	1751.01
738.07	1689.57
738.25	1611.75
738.43	1617.90
738.61	1624.04
738.80	1632.23
738.98	1642.47
739.16	1679.33
739.34	1656.81
739.52	1732.58
739.70	1697.77
739.88	1687.53
740.06	1826.79
740.24	1544.17
740.42	1820.64
740.60	1611.75
740.78	1689.57
740.96	1583.08
741.14	1689.57
741.32	1716.20
741.50	1636.33
741.68	1714.15
741.86	1816.55
742.04	1583.08
742.22	1636.33
742.40	1609.70
742.58	1710.05
742.76	1732.58
742.94	1794.02
743.12	1574.89
743.30	1736.68
743.48	1794.02
743.66	1660.90
743.84	1771.49
744.02	1712.10
744.20	1642.47
744.38	1644.52
744.56	1683.43
744.74	1812.45
744.92	1730.53
745.10	1798.12
745.28	1730.53
745.46	1742.82
745.64	1695.72
745.82	1710.05
746.00	1734.63
746.18	1656.81
746.36	1613.80
746.54	1656.81
746.72	1675.24
746.90	1697.77
747.08	1798.12
747.26	1740.77
747.44	1761.25
747.62	1740.77
747.80	1656.81
747.98	1777.64
748.15	1656.81
748.33	1781.73
748.51	1650.66
748.69	1724.39
748.87	1632.23
749.05	1705.96
749.23	1650.66
749.41	1759.21
749.59	1669.09
749.77	1753.06
749.95	1681.38
750.13	1683.43
750.31	1765.35
750.49	1681.38
750.67	1755.11
750.85	1765.35
751.03	1744.87
751.20	1753.06
751.38	1751.01
751.56	1652.71
751.74	1773.54
751.92	1677.29
752.10	1683.43
752.28	1777.64
752.46	1677.29
752.64	1660.90
752.82	1689.57
753.00	1785.83
753.18	1738.73
753.35	1724.39
753.53	1654.76
753.71	1621.99
753.89	1722.34
754.07	1724.39
754.25	1794.02
754.43	1722.34
754.61	1617.90
754.79	1697.77
754.97	1722.34
755.14	1767.40
755.32	1710.05
755.50	1671.14
755.68	1701.86
755.86	1716.20
756.04	1687.53
756.22	1587.18
756.40	1751.01
756.57	1796.07
756.75	1705.96
756.93	1748.97
757.11	1744.87
757.29	1662.95
757.47	1726.44
757.65	1642.47
757.82	1546.22
758.00	1654.76
758.18	1703.91
758.36	1650.66
758.54	1935.33
758.72	1669.09
758.90	1796.07
759.07	1712.10
759.25	1632.23
759.43	1724.39
759.61	1591.27
759.79	2242.53
759.97	1740.77
760.15	1665.00
760.32	1796.07
760.50	1736.68
760.68	1671.14
760.86	1599.46
761.04	1742.82
761.22	1720.29
761.39	1683.43
761.57	1771.49
761.75	1728.49
761.93	1710.05
762.11	1726.44
762.28	1669.09
762.46	1673.19
762.64	1738.73
762.82	1642.47
763.00	1712.10
763.18	1771.49
763.35	1701.86
763.53	1718.25
763.71	1724.39
763.89	1675.24
764.07	1716.20
764.24	1679.33
764.42	1767.40
764.60	1724.39
764.78	1640.42
764.96	1738.73
765.13	1775.59
765.31	1708.01
765.49	1665.00
765.67	1667.05
765.84	1652.71
766.02	1669.09
766.20	1615.85
766.38	1722.34
766.56	1751.01
766.73	1781.73
766.91	1736.68
767.09	1652.71
767.27	1705.96
767.44	1603.56
767.62	1703.91
767.80	1748.97
767.98	1689.57
768.15	1705.96
768.33	1683.43
768.51	1710.05
768.69	1716.20
768.87	1730.53
769.04	1640.42
769.22	1798.12
769.40	1703.91
769.58	1884.13
769.75	1660.90
769.93	1771.49
770.11	1703.91
770.28	1570.79
770.46	1769.44
770.64	1751.01
770.82	1660.90
770.99	1624.04
771.17	1740.77
771.35	1763.30
771.53	1708.01
771.70	1714.15
771.88	1714.15
772.06	1691.62
772.23	1701.86
772.41	1683.43
772.59	1615.85
772.77	1656.81
772.94	1781.73
773.12	1738.73
773.30	1708.01
773.47	1710.05
773.65	1662.95
773.83	1736.68
774.01	1703.91
774.18	1726.44
774.36	1662.95
774.54	1644.52
774.71	1765.35
774.89	1681.38
775.07	1611.75
775.24	1667.05
775.42	1652.71
775.60	1757.16
775.78	1628.14
775.95	1611.75
776.13	1619.94
776.31	1523.69
776.48	1654.76
776.66	1689.57
776.84	1644.52
777.01	1667.05
777.19	1617.90
777.37	1697.77
777.54	1759.21
777.72	1834.98
777.90	1748.97
778.07	1705.96
778.25	1826.79
778.43	1746.92
778.60	1667.05
778.78	1744.87
778.96	1771.49
779.13	1603.56
779.31	1689.57
779.49	1755.11
779.66	1656.81
779.84	1671.14
780.01	1714.15
780.19	1665.00
780.37	1738.73
780.54	1757.16
780.72	1693.67
780.90	1697.77
781.07	1767.40
781.25	1665.00
781.43	1742.82
781.60	1681.38
781.78	1779.68
781.95	1738.73
782.13	1624.04
782.31	1697.77
782.48	1646.57
782.66	1689.57
782.83	1771.49
783.01	1742.82
783.19	1804.26
783.36	1662.95
783.54	1681.38
783.72	1703.91
783.89	1630.18
784.07	1734.63
784.24	1761.25
784.42	1697.77
784.60	1714.15
784.77	1802.21
784.95	1605.61
785.12	1595.37
785.30	1789.92
785.47	1740.77
785.65	1636.33
785.83	1630.18
786.00	1656.81
786.18	1738.73
786.35	1626.09
786.53	1652.71
786.71	1665.00
786.88	1722.34
787.06	1722.34
787.23	1648.61
787.41	1648.61
787.58	1689.57
787.76	1693.67
787.94	1742.82
788.11	1708.01
788.29	1628.14
788.46	1691.62
788.64	1609.70
788.81	1648.61
788.99	1730.53
789.16	1640.42
789.34	1708.01
789.52	1677.29
789.69	1630.18
789.87	1599.46
790.04	1628.14
790.22	1716.20
790.39	1812.45
790.57	1646.57
790.74	1626.09
790.92	1777.64
791.09	1607.66
791.27	1755.11
791.44	1794.02
791.62	1710.05
791.79	1791.97
791.97	1679.33
792.15	1834.98
792.32	1714.15
792.50	1660.90
792.67	1775.59
792.85	1730.53
793.02	1714.15
793.20	1740.77
793.37	1640.42
793.55	1746.92
793.72	1665.00
793.90	1759.21
794.07	1744.87
794.25	1656.81
794.42	1615.85
794.60	1677.29
794.77	1714.15
794.95	1757.16
795.12	1757.16
795.30	1671.14
795.47	1624.04
795.65	1804.26
795.82	1714.15
796.00	1652.71
796.17	1705.96
796.34	1697.77
796.52	1689.57
796.69	1726.44
796.87	1654.76
797.04	1785.83
797.22	1669.09
797.39	1765.35
797.57	1751.01
797.74	1730.53
797.92	1736.68
798.09	1628.14
798.27	1767.40
798.44	1712.10
798.62	1652.71
798.79	1757.16
798.96	1761.25
799.14	1722.34
799.31	1826.79
799.49	1656.81
799.66	1806.31
799.84	1697.77
800.01	1642.47
800.19	1708.01
800.36	1642.47
800.53	1724.39
800.71	1714.15
800.88	1714.15
801.06	1652.71
801.23	1740.77
801.41	1648.61
801.58	1710.05
801.75	1724.39
801.93	1695.72
802.10	1783.78
802.28	1638.38
802.45	1656.81
802.63	1748.97
802.80	1767.40
802.97	1689.57
803.15	1621.99
803.32	1660.90
803.50	1613.80
803.67	1636.33
803.84	1581.03
804.02	1660.90
804.19	1701.86
804.37	1615.85
804.54	1662.95
804.71	1652.71
804.89	1751.01
805.06	1626.09
805.24	1722.34
805.41	1595.37
805.58	1560.55
805.76	1787.88
805.93	1648.61
806.10	1789.92
806.28	1755.11
806.45	1675.24
806.63	1683.43
806.80	1724.39
806.97	1677.29
807.15	1779.68
807.32	1656.81
807.49	1722.34
807.67	1613.80
807.84	1791.97
808.01	1554.41
808.19	1771.49
808.36	1808.36
808.54	1667.05
808.71	1654.76
808.88	1662.95
809.06	1742.82
809.23	1763.30
809.40	1740.77
809.58	1681.38
809.75	1636.33
809.92	1695.72
810.10	1828.84
810.27	1665.00
810.44	1677.29
810.62	1691.62
810.79	1765.35
810.96	1665.00
811.14	1771.49
811.31	1773.54
811.48	1716.20
811.66	1726.44
811.83	1685.48
812.00	1656.81
812.18	1697.77
812.35	1828.84
812.52	1685.48
812.69	1660.90
812.87	1675.24
813.04	1595.37
813.21	1683.43
813.39	1658.85
813.56	1650.66
813.73	1683.43
813.91	1626.09
814.08	1638.38
814.25	1718.25
814.42	1523.69
814.60	1685.48
814.77	1658.85
814.94	1648.61
815.12	1683.43
815.29	1806.31
815.46	1753.06
815.63	1734.63
815.81	1730.53
815.98	1726.44
816.15	1681.38
816.33	1769.44
816.50	1701.86
816.67	1665.00
816.84	1710.05
817.02	1624.04
817.19	1642.47
817.36	1646.57
817.53	1726.44
817.71	1685.48
817.88	1771.49
818.05	1671.14
818.22	1662.95
818.40	1800.16
818.57	1712.10
818.74	1630.18
818.91	1624.04
819.09	1669.09
819.26	1771.49
819.43	1681.38
819.60	1652.71
819.78	1716.20
819.95	1822.69
820.12	1658.85
820.29	1710.05
820.47	1679.33
820.64	1611.75
820.81	1603.56
820.98	1628.14
821.15	1654.76
821.33	1765.35
821.50	1611.75
821.67	1712.10
821.84	1701.86
822.02	1834.98
822.19	1697.77
822.36	1722.34
822.53	1617.90
822.70	1720.29
822.88	1701.86
823.05	1828.84
823.22	1740.77
823.39	1734.63
823.56	1662.95
823.74	1783.78
823.91	1640.42
824.08	1671.14
824.25	1619.94
824.42	1751.01
824.60	1656.81
824.77	1763.30
824.94	1648.61
825.11	1802.21
825.28	1585.13
825.45	1693.67
825.63	1744.87
825.80	1646.57
825.97	1687.53
826.14	1693.67
826.31	1624.04
826.48	1652.71
826.66	1632.23
826.83	1667.05
827.00	1769.44
827.17	1669.09
827.34	1732.58
827.51	1691.62
827.69	1675.24
827.86	1619.94
828.03	1626.09
828.20	1697.77
828.37	1644.52
828.54	1685.48
828.71	1630.18
828.89	1720.29
829.06	1712.10
829.23	1783.78
829.40	1689.57
829.57	1656.81
829.74	1748.97
829.91	1724.39
830.09	1669.09
830.26	1753.06
830.43	1783.78
830.60	1693.67
830.77	1673.19
830.94	1796.07
831.11	1726.44
831.28	1759.21
831.46	1755.11
831.63	1675.24
831.80	1767.40
831.97	1650.66
832.14	1705.96
832.31	1712.10
832.48	1665.00
832.65	1783.78
832.82	1681.38
832.99	1718.25
833.17	1632.23
833.34	1804.26
833.51	1642.47
833.68	1607.66
833.85	1736.68
834.02	1675.24
834.19	1695.72
834.36	1675.24
834.53	1710.05
834.70	1708.01
834.87	1775.59
835.04	1689.57
835.22	1685.48
835.39	1697.77
835.56	1646.57
835.73	1601.51
835.90	1804.26
836.07	1548.26
836.24	1714.15
836.41	1656.81
836.58	1593.32
836.75	1755.11
836.92	1787.88
837.09	1636.33
837.26	1695.72
837.43	1701.86
837.60	1765.35
837.77	1638.38
837.94	1783.78
838.12	1691.62
838.29	1734.63
838.46	1675.24
838.63	1619.94
838.80	1798.12
838.97	1777.64
839.14	1703.91
839.31	1687.53
839.48	1732.58
839.65	1675.24
839.82	1771.49
839.99	1705.96
840.16	1730.53
840.33	1681.38
840.50	1769.44
840.67	1611.75
840.84	1542.12
841.01	1708.01
841.18	1583.08
841.35	1667.05
841.52	1691.62
841.69	1785.83
841.86	1732.58
842.03	1695.72
842.20	1705.96
842.37	1628.14
842.54	1648.61
842.71	1751.01
842.88	1621.99
843.05	1759.21
843.22	1701.86
843.39	1697.77
843.56	1624.04
843.73	1595.37
843.90	1630.18
844.07	1724.39
844.24	1722.34
844.41	1720.29
844.58	1771.49
844.75	1767.40
844.92	1673.19
845.09	1644.52
845.26	1675.24
845.43	1722.34
845.60	1681.38
845.77	1660.90
845.94	1732.58
846.10	1697.77
846.27	1595.37
846.44	1591.27
846.61	1712.10
846.78	1710.05
846.95	1656.81
847.12	1677.29
847.29	1703.91
847.46	1650.66
847.63	1697.77
847.80	1753.06
847.97	1636.33
848.14	1845.22
848.31	1746.92
848.48	1669.09
848.65	1701.86
848.82	1695.72
848.98	1796.07
849.15	1681.38
849.32	1751.01
849.49	1726.44
849.66	1705.96
849.83	1689.57
850.00	1677.29
850.17	1689.57
850.34	1691.62
850.51	1656.81
850.68	1640.42
850.85	1822.69
851.01	1654.76
851.18	1767.40
851.35	1640.42
851.52	1740.77
851.69	1753.06
851.86	1619.94
852.03	1683.43
852.20	1783.78
852.37	1685.48
852.53	1617.90
852.70	1697.77
852.87	1730.53
853.04	1759.21
853.21	1681.38
853.38	1773.54
853.55	1789.92
853.72	1738.73
853.89	1619.94
854.05	1609.70
854.22	1656.81
854.39	1714.15
854.56	1767.40
854.73	1738.73
854.90	1603.56
855.07	1695.72
855.23	1628.14
855.40	1624.04
855.57	1615.85
855.74	1593.32
855.91	1814.50
856.08	1624.04
856.25	1619.94
856.41	1699.81
856.58	1679.33
856.75	1693.67
856.92	1603.56
857.09	1732.58
857.26	1642.47
857.42	1714.15
857.59	1656.81
857.76	1662.95
857.93	1781.73
858.10	1726.44
858.27	1585.13
858.43	1646.57
858.60	1636.33
858.77	1583.08
858.94	1710.05
859.11	1714.15
859.27	1769.44
859.44	1636.33
859.61	1808.36
859.78	1812.45
859.95	1681.38
860.12	1677.29
860.28	1824.74
860.45	1832.93
860.62	1626.09
860.79	1736.68
860.95	1675.24
861.12	1646.57
861.29	1581.03
861.46	1646.57
861.63	1695.72
861.79	1648.61
861.96	1675.24
862.13	1626.09
862.30	1814.50
862.47	1665.00
862.63	1662.95
862.80	1705.96
862.97	1767.40
863.14	1695.72
863.30	1695.72
863.47	1679.33
863.64	1753.06
863.81	1675.24
863.97	1761.25
864.14	1626.09
864.31	1673.19
864.48	1746.92
864.65	1667.05
864.81	1724.39
864.98	1679.33
865.15	1699.81
865.32	1693.67
865.48	1820.64
865.65	1753.06
865.82	1662.95
865.98	1742.82
866.15	1738.73
866.32	1683.43
866.49	1650.66
866.65	1814.50
866.82	1607.66
866.99	1740.77
867.16	1652.71
867.32	1714.15
867.49	1720.29
867.66	1673.19
867.83	1667.05
867.99	1556.46
868.16	1662.95
868.33	1654.76
868.49	1665.00
868.66	1656.81
868.83	1757.16
868.99	1679.33
869.16	1712.10
869.33	1724.39
869.50	1710.05
869.66	1640.42
869.83	1585.13
870.00	1669.09
870.16	1740.77
870.33	1705.96
870.50	1705.96
870.66	1673.19
870.83	1791.97
871.00	1642.47
871.17	1746.92
871.33	1679.33
871.50	1683.43
871.67	1724.39
871.83	1669.09
872.00	1746.92
872.17	1673.19
872.33	1759.21
872.50	1808.36
872.67	1619.94
872.83	1697.77
873.00	1689.57
873.17	1714.15
873.33	1767.40
873.50	1738.73
873.67	1689.57
873.83	1585.13
874.00	1693.67
874.16	1732.58
874.33	1677.29
874.50	1634.28
874.66	1718.25
874.83	1699.81
875.00	1783.78
875.16	1796.07
875.33	1791.97
875.50	1634.28
875.66	1650.66
875.83	1691.62
875.99	1722.34
876.16	1699.81
876.33	1624.04
876.49	1712.10
876.66	1720.29
876.83	1646.57
876.99	1615.85
877.16	1738.73
877.32	1624.04
877.49	1652.71
877.66	1742.82
877.82	1695.72
877.99	1716.20
878.15	1710.05
878.32	1744.87
878.49	1642.47
878.65	1638.38
878.82	1814.50
878.98	1685.48
879.15	1798.12
879.32	1738.73
879.48	1726.44
879.65	1724.39
879.81	1695.72
879.98	1697.77
880.15	1636.33
880.31	1738.73
880.48	1675.24
880.64	1693.67
880.81	1681.38
880.97	1685.48
881.14	1697.77
881.31	1617.90
881.47	1787.88
881.64	1621.99
881.80	1640.42
881.97	1744.87
882.13	1755.11
882.30	1644.52
882.47	1712.10
882.63	1638.38
882.80	1658.85
882.96	1607.66
883.13	1744.87
883.29	1673.19
883.46	1773.54
883.62	1808.36
883.79	1763.30
883.95	1763.30
884.12	1718.25
884.29	1685.48
884.45	1701.86
884.62	1718.25
884.78	1677.29
884.95	1761.25
885.11	1658.85
885.28	1738.73
885.44	1671.14
885.61	1703.91
885.77	1746.92
885.94	1677.29
886.10	1644.52
886.27	1699.81
886.43	1732.58
886.60	1738.73
886.76	1673.19
886.93	1640.42
887.09	1636.33
887.26	1585.13
887.42	1660.90
887.59	1728.49
887.75	1742.82
887.92	1736.68
888.08	1769.44
888.25	1834.98
888.41	1769.44
888.58	1636.33
888.74	1591.27
888.91	1662.95
>>>>>End Processed Spectral Data<<<<<
