SpectraSuite Data File
++++++++++++++++++++++++++++++++++++
Date: Mon Jun 06 12:44:37 CEST 2016
User: root
Dark Spectrum Present: No
Reference Spectrum Present: No
Number of Sampled Component Spectra: 1
Spectrometers: USB4C02835
Integration Time (usec): 100000 (USB4C02835)
Spectra Averaged: 1 (USB4C02835)
Boxcar Smoothing: 0 (USB4C02835)
Correct for Electrical Dark: No (USB4C02835)
Strobe/Lamp Enabled: No (USB4C02835)
Correct for Detector Non-linearity: No (USB4C02835)
Correct for Stray Light: No (USB4C02835)
Number of Pixels in Processed Spectrum: 3648
>>>>>Begin Processed Spectral Data<<<<<
177.47	1402.86
177.69	1402.86
177.91	1402.86
178.13	1437.67
178.36	1447.91
178.58	1613.80
178.80	1744.87
179.02	1642.47
179.24	1642.47
179.46	1626.09
179.68	1746.92
179.90	1654.76
180.13	1710.05
180.35	1677.29
180.57	1626.09
180.79	1705.96
181.01	1738.73
181.23	1742.82
181.45	1679.33
181.67	1648.61
181.90	1755.11
182.12	1695.72
182.34	1671.14
182.56	1736.68
182.78	1722.34
183.00	1636.33
183.22	1732.58
183.44	1601.51
183.66	1789.92
183.89	1751.01
184.11	1718.25
184.33	1687.53
184.55	1744.87
184.77	1695.72
184.99	1656.81
185.21	1617.90
185.43	1845.22
185.65	1644.52
185.87	1751.01
186.10	1763.30
186.32	1771.49
186.54	1691.62
186.76	1650.66
186.98	1769.44
187.20	1671.14
187.42	1673.19
187.64	1738.73
187.86	1642.47
188.08	1705.96
188.30	1650.66
188.52	1730.53
188.75	1781.73
188.97	1710.05
189.19	1634.28
189.41	1681.38
189.63	1710.05
189.85	1708.01
190.07	1638.38
190.29	1667.05
190.51	1761.25
190.73	1628.14
190.95	1804.26
191.17	1714.15
191.39	1603.56
191.61	1607.66
191.84	1665.00
192.06	1759.21
192.28	1632.23
192.50	1880.04
192.72	1714.15
192.94	1636.33
193.16	1855.46
193.38	1744.87
193.60	1677.29
193.82	1787.88
194.04	1746.92
194.26	1757.16
194.48	1677.29
194.70	1603.56
194.92	1667.05
195.14	1787.88
195.36	1644.52
195.58	1746.92
195.80	1648.61
196.02	1675.24
196.24	1722.34
196.46	1697.77
196.69	1681.38
196.91	1873.89
197.13	1642.47
197.35	1751.01
197.57	1759.21
197.79	1755.11
198.01	1697.77
198.23	1687.53
198.45	1767.40
198.67	1591.27
198.89	1714.15
199.11	1679.33
199.33	1671.14
199.55	1607.66
199.77	1736.68
199.99	1847.27
200.21	1691.62
200.43	1748.97
200.65	1634.28
200.87	1542.12
201.09	1746.92
201.31	1763.30
201.53	1794.02
201.75	1763.30
201.97	1728.49
202.19	1722.34
202.41	1738.73
202.63	1828.84
202.85	1705.96
203.07	1726.44
203.29	1681.38
203.51	1695.72
203.73	1609.70
203.95	1877.99
204.17	1703.91
204.39	1691.62
204.61	1718.25
204.83	1755.11
205.05	1689.57
205.27	1712.10
205.49	1849.32
205.71	1728.49
205.93	1632.23
206.15	1689.57
206.37	1638.38
206.59	1630.18
206.81	1712.10
207.03	1632.23
207.25	1724.39
207.47	1761.25
207.69	1740.77
207.91	1699.81
208.13	1781.73
208.34	1566.70
208.56	1669.09
208.78	1605.61
209.00	1693.67
209.22	1722.34
209.44	1691.62
209.66	1705.96
209.88	1724.39
210.10	1718.25
210.32	1646.57
210.54	1814.50
210.76	1628.14
210.98	1755.11
211.20	1523.69
211.42	1722.34
211.64	1787.88
211.86	1748.97
212.08	1710.05
212.30	1634.28
212.52	1632.23
212.74	1697.77
212.96	1648.61
213.17	1728.49
213.39	1748.97
213.61	1800.16
213.83	1736.68
214.05	1638.38
214.27	1689.57
214.49	1658.85
214.71	1693.67
214.93	1748.97
215.15	1683.43
215.37	1742.82
215.59	1634.28
215.81	1763.30
216.03	1781.73
216.24	1726.44
216.46	1632.23
216.68	1671.14
216.90	1724.39
217.12	1787.88
217.34	1783.78
217.56	1681.38
217.78	1763.30
218.00	1753.06
218.22	1628.14
218.44	1665.00
218.66	1683.43
218.87	1785.83
219.09	1648.61
219.31	1775.59
219.53	1701.86
219.75	1662.95
219.97	1634.28
220.19	1687.53
220.41	1695.72
220.63	1806.31
220.85	1726.44
221.06	1644.52
221.28	1746.92
221.50	1683.43
221.72	1751.01
221.94	1728.49
222.16	1730.53
222.38	1810.40
222.60	1720.29
222.82	1613.80
223.03	1773.54
223.25	1630.18
223.47	1781.73
223.69	1728.49
223.91	1677.29
224.13	1714.15
224.35	1673.19
224.57	1763.30
224.78	1746.92
225.00	1632.23
225.22	1703.91
225.44	1673.19
225.66	1791.97
225.88	1701.86
226.10	1720.29
226.32	1671.14
226.53	1748.97
226.75	1705.96
226.97	1681.38
227.19	1714.15
227.41	1687.53
227.63	1613.80
227.85	1640.42
228.06	1689.57
228.28	1724.39
228.50	1708.01
228.72	1626.09
228.94	1689.57
229.16	1660.90
229.37	1642.47
229.59	1675.24
229.81	1708.01
230.03	1658.85
230.25	1697.77
230.47	1624.04
230.69	1628.14
230.90	1748.97
231.12	1673.19
231.34	1710.05
231.56	1740.77
231.78	1677.29
232.00	1740.77
232.21	1679.33
232.43	1615.85
232.65	1638.38
232.87	1705.96
233.09	1652.71
233.30	1693.67
233.52	1726.44
233.74	1687.53
233.96	1703.91
234.18	1726.44
234.40	1665.00
234.61	1718.25
234.83	1568.74
235.05	1665.00
235.27	1759.21
235.49	1783.78
235.70	1669.09
235.92	1767.40
236.14	1726.44
236.36	1916.90
236.58	1646.57
236.79	1746.92
237.01	1734.63
237.23	1767.40
237.45	1812.45
237.67	1650.66
237.88	1712.10
238.10	1806.31
238.32	1652.71
238.54	1693.67
238.76	1679.33
238.97	1708.01
239.19	1665.00
239.41	1708.01
239.63	1751.01
239.85	1648.61
240.06	1751.01
240.28	1746.92
240.50	1769.44
240.72	1740.77
240.93	1660.90
241.15	1804.26
241.37	1753.06
241.59	1738.73
241.81	1695.72
242.02	1626.09
242.24	1720.29
242.46	1685.48
242.68	1638.38
242.89	1759.21
243.11	1740.77
243.33	1677.29
243.55	1665.00
243.76	1761.25
243.98	1710.05
244.20	1697.77
244.42	1705.96
244.64	1634.28
244.85	1634.28
245.07	1626.09
245.29	1708.01
245.51	1714.15
245.72	1763.30
245.94	1673.19
246.16	1646.57
246.38	1624.04
246.59	1652.71
246.81	1656.81
247.03	1650.66
247.24	1578.98
247.46	1660.90
247.68	1646.57
247.90	1656.81
248.11	1679.33
248.33	1722.34
248.55	1761.25
248.77	1767.40
248.98	1705.96
249.20	1726.44
249.42	1673.19
249.64	1691.62
249.85	1763.30
250.07	1632.23
250.29	1763.30
250.50	1685.48
250.72	1634.28
250.94	1697.77
251.16	1816.55
251.37	1769.44
251.59	1703.91
251.81	1755.11
252.02	1798.12
252.24	1669.09
252.46	1804.26
252.68	1685.48
252.89	1685.48
253.11	1613.80
253.33	1824.74
253.54	1804.26
253.76	1644.52
253.98	1718.25
254.20	1673.19
254.41	1654.76
254.63	1691.62
254.85	1644.52
255.06	1658.85
255.28	1738.73
255.50	1675.24
255.71	1660.90
255.93	1621.99
256.15	1697.77
256.36	1726.44
256.58	1593.32
256.80	1755.11
257.02	1701.86
257.23	1660.90
257.45	1779.68
257.67	1640.42
257.88	1646.57
258.10	1789.92
258.32	1779.68
258.53	1724.39
258.75	1732.58
258.97	1685.48
259.18	1603.56
259.40	1681.38
259.62	1798.12
259.83	1751.01
260.05	1722.34
260.27	1943.52
260.48	1730.53
260.70	1677.29
260.92	1781.73
261.13	1662.95
261.35	1669.09
261.57	1734.63
261.78	1601.51
262.00	1564.65
262.22	1812.45
262.43	1624.04
262.65	1624.04
262.86	1710.05
263.08	1855.46
263.30	1757.16
263.51	1611.75
263.73	1677.29
263.95	1779.68
264.16	1652.71
264.38	1656.81
264.60	1683.43
264.81	1671.14
265.03	1783.78
265.25	1759.21
265.46	1685.48
265.68	1720.29
265.89	1732.58
266.11	1601.51
266.33	1699.81
266.54	1775.59
266.76	1708.01
266.98	1773.54
267.19	1812.45
267.41	1742.82
267.62	1738.73
267.84	1619.94
268.06	1771.49
268.27	1658.85
268.49	1689.57
268.70	1759.21
268.92	1722.34
269.14	1705.96
269.35	1595.37
269.57	1728.49
269.79	1757.16
270.00	1699.81
270.22	1767.40
270.43	1628.14
270.65	1570.79
270.87	1671.14
271.08	1658.85
271.30	1718.25
271.51	1722.34
271.73	1794.02
271.95	1763.30
272.16	1648.61
272.38	1744.87
272.59	1615.85
272.81	1716.20
273.02	1714.15
273.24	1759.21
273.46	1789.92
273.67	1593.32
273.89	1685.48
274.10	1697.77
274.32	1724.39
274.54	1665.00
274.75	1710.05
274.97	1714.15
275.18	1703.91
275.40	1806.31
275.61	1722.34
275.83	1740.77
276.05	1585.13
276.26	1685.48
276.48	1791.97
276.69	1697.77
276.91	1648.61
277.12	1808.36
277.34	1779.68
277.55	1738.73
277.77	1730.53
277.99	1628.14
278.20	1542.12
278.42	1560.55
278.63	1640.42
278.85	1679.33
279.06	1718.25
279.28	1765.35
279.49	1648.61
279.71	1814.50
279.93	1703.91
280.14	1693.67
280.36	1701.86
280.57	1736.68
280.79	1755.11
281.00	1628.14
281.22	1652.71
281.43	1828.84
281.65	1640.42
281.86	1593.32
282.08	1693.67
282.29	1779.68
282.51	1716.20
282.73	1691.62
282.94	1599.46
283.16	1724.39
283.37	1724.39
283.59	1648.61
283.80	1722.34
284.02	1746.92
284.23	1755.11
284.45	1656.81
284.66	1632.23
284.88	1697.77
285.09	1722.34
285.31	1783.78
285.52	1644.52
285.74	1685.48
285.95	1689.57
286.17	1640.42
286.38	1685.48
286.60	1660.90
286.81	1677.29
287.03	1689.57
287.24	1646.57
287.46	1736.68
287.67	1716.20
287.89	1925.09
288.10	1640.42
288.32	1714.15
288.53	1789.92
288.75	1624.04
288.96	1699.81
289.18	1646.57
289.39	1697.77
289.61	1699.81
289.82	1751.01
290.04	1798.12
290.25	1689.57
290.47	1638.38
290.68	1701.86
290.90	1757.16
291.11	1644.52
291.33	1773.54
291.54	1632.23
291.76	1697.77
291.97	1689.57
292.18	1689.57
292.40	1662.95
292.61	1701.86
292.83	1837.03
293.04	1757.16
293.26	1716.20
293.47	1718.25
293.69	1701.86
293.90	1708.01
294.12	1691.62
294.33	1646.57
294.55	1722.34
294.76	1679.33
294.97	1716.20
295.19	1789.92
295.40	1636.33
295.62	1746.92
295.83	1730.53
296.05	1673.19
296.26	1773.54
296.48	1636.33
296.69	1695.72
296.90	1593.32
297.12	1708.01
297.33	1783.78
297.55	1671.14
297.76	1683.43
297.98	1730.53
298.19	1601.51
298.41	1667.05
298.62	1574.89
298.83	1837.03
299.05	1654.76
299.26	1681.38
299.48	1689.57
299.69	1755.11
299.90	1669.09
300.12	1613.80
300.33	1693.67
300.55	1730.53
300.76	1665.00
300.98	1681.38
301.19	1654.76
301.40	1654.76
301.62	1644.52
301.83	1767.40
302.05	1720.29
302.26	1718.25
302.47	1722.34
302.69	1683.43
302.90	1701.86
303.12	1535.98
303.33	1660.90
303.54	1763.30
303.76	1703.91
303.97	1714.15
304.19	1738.73
304.40	1617.90
304.61	1738.73
304.83	1699.81
305.04	1746.92
305.26	1683.43
305.47	1726.44
305.68	1572.84
305.90	1646.57
306.11	1681.38
306.33	1685.48
306.54	1652.71
306.75	1740.77
306.97	1576.94
307.18	1554.41
307.39	1687.53
307.61	1751.01
307.82	1656.81
308.04	1726.44
308.25	1652.71
308.46	1718.25
308.68	1693.67
308.89	1689.57
309.10	1769.44
309.32	1687.53
309.53	1714.15
309.74	1751.01
309.96	1681.38
310.17	1783.78
310.39	1693.67
310.60	1669.09
310.81	1714.15
311.03	1652.71
311.24	1746.92
311.45	1740.77
311.67	1804.26
311.88	1685.48
312.09	1705.96
312.31	1748.97
312.52	1718.25
312.73	1667.05
312.95	1648.61
313.16	1634.28
313.37	1767.40
313.59	1746.92
313.80	1712.10
314.01	1744.87
314.23	1644.52
314.44	1652.71
314.65	1624.04
314.87	1677.29
315.08	1697.77
315.29	1677.29
315.51	1660.90
315.72	1634.28
315.93	1740.77
316.15	1726.44
316.36	1710.05
316.57	1697.77
316.79	1791.97
317.00	1693.67
317.21	1671.14
317.43	1660.90
317.64	1677.29
317.85	1660.90
318.07	1591.27
318.28	1779.68
318.49	1763.30
318.70	1871.84
318.92	1818.60
319.13	1818.60
319.34	1777.64
319.56	1767.40
319.77	1763.30
319.98	1806.31
320.20	1802.21
320.41	1773.54
320.62	1677.29
320.83	1716.20
321.05	1769.44
321.26	1728.49
321.47	1718.25
321.69	1748.97
321.90	1691.62
322.11	1742.82
322.32	1730.53
322.54	1875.94
322.75	1665.00
322.96	1720.29
323.18	1611.75
323.39	1519.59
323.60	1652.71
323.81	1769.44
324.03	1662.95
324.24	1761.25
324.45	1708.01
324.66	1746.92
324.88	1765.35
325.09	1755.11
325.30	1654.76
325.52	1720.29
325.73	1753.06
325.94	1665.00
326.15	1662.95
326.37	1705.96
326.58	1697.77
326.79	1816.55
327.00	1626.09
327.22	1626.09
327.43	1621.99
327.64	1667.05
327.85	1667.05
328.07	1689.57
328.28	1787.88
328.49	1638.38
328.70	1650.66
328.92	1673.19
329.13	1697.77
329.34	1734.63
329.55	1820.64
329.76	1722.34
329.98	1628.14
330.19	1837.03
330.40	1701.86
330.61	1746.92
330.83	1748.97
331.04	1619.94
331.25	1675.24
331.46	1636.33
331.68	1687.53
331.89	1738.73
332.10	1689.57
332.31	1615.85
332.52	1720.29
332.74	1841.12
332.95	1656.81
333.16	1701.86
333.37	1753.06
333.58	1685.48
333.80	1759.21
334.01	1628.14
334.22	1656.81
334.43	1660.90
334.64	1703.91
334.86	1593.32
335.07	1619.94
335.28	1759.21
335.49	1617.90
335.70	1740.77
335.92	1744.87
336.13	1863.65
336.34	1769.44
336.55	1726.44
336.76	1724.39
336.98	1595.37
337.19	1699.81
337.40	1783.78
337.61	1820.64
337.82	1710.05
338.04	1781.73
338.25	1640.42
338.46	1611.75
338.67	1736.68
338.88	1689.57
339.09	1671.14
339.31	1730.53
339.52	1609.70
339.73	1601.51
339.94	1785.83
340.15	1681.38
340.36	1701.86
340.58	1730.53
340.79	1644.52
341.00	1705.96
341.21	1574.89
341.42	1779.68
341.63	1613.80
341.85	1748.97
342.06	1652.71
342.27	1679.33
342.48	1693.67
342.69	1673.19
342.90	1777.64
343.12	1705.96
343.33	1673.19
343.54	1693.67
343.75	1832.93
343.96	1671.14
344.17	1634.28
344.38	1744.87
344.60	1665.00
344.81	1662.95
345.02	1734.63
345.23	1734.63
345.44	1789.92
345.65	1712.10
345.86	1820.64
346.07	1685.48
346.29	1665.00
346.50	1724.39
346.71	1722.34
346.92	1767.40
347.13	1787.88
347.34	1726.44
347.55	1718.25
347.76	1720.29
347.98	1648.61
348.19	1726.44
348.40	1720.29
348.61	1703.91
348.82	1796.07
349.03	1746.92
349.24	1662.95
349.45	1859.56
349.66	1628.14
349.88	1691.62
350.09	1720.29
350.30	1775.59
350.51	1740.77
350.72	1744.87
350.93	1746.92
351.14	1630.18
351.35	1710.05
351.56	1681.38
351.77	1724.39
351.99	1732.58
352.20	1746.92
352.41	1791.97
352.62	1689.57
352.83	1646.57
353.04	1656.81
353.25	1712.10
353.46	1767.40
353.67	1677.29
353.88	1538.02
354.09	1716.20
354.30	1697.77
354.52	1728.49
354.73	1751.01
354.94	1708.01
355.15	1701.86
355.36	1796.07
355.57	1720.29
355.78	1746.92
355.99	1687.53
356.20	1687.53
356.41	1814.50
356.62	1775.59
356.83	1712.10
357.04	1798.12
357.25	1642.47
357.46	1640.42
357.68	1652.71
357.89	1716.20
358.10	1718.25
358.31	1687.53
358.52	1660.90
358.73	1570.79
358.94	1648.61
359.15	1699.81
359.36	1732.58
359.57	1628.14
359.78	1718.25
359.99	1744.87
360.20	1665.00
360.41	1716.20
360.62	1714.15
360.83	1681.38
361.04	1728.49
361.25	1697.77
361.46	1806.31
361.67	1708.01
361.88	1716.20
362.09	1787.88
362.30	1708.01
362.51	1699.81
362.72	1662.95
362.93	1787.88
363.14	1724.39
363.35	1728.49
363.56	1671.14
363.78	1742.82
363.99	1798.12
364.20	1603.56
364.41	1675.24
364.62	1800.16
364.83	1658.85
365.04	1689.57
365.25	1697.77
365.46	1806.31
365.67	1722.34
365.88	1617.90
366.09	1708.01
366.30	1595.37
366.51	1738.73
366.72	1759.21
366.93	1665.00
367.14	1640.42
367.35	1773.54
367.56	1679.33
367.77	1724.39
367.98	1687.53
368.18	1716.20
368.39	1767.40
368.60	1716.20
368.81	1775.59
369.02	1675.24
369.23	1644.52
369.44	1640.42
369.65	1593.32
369.86	1761.25
370.07	1740.77
370.28	1654.76
370.49	1738.73
370.70	1755.11
370.91	1615.85
371.12	1615.85
371.33	1724.39
371.54	1652.71
371.75	1740.77
371.96	1546.22
372.17	1683.43
372.38	1673.19
372.59	1701.86
372.80	1648.61
373.01	1660.90
373.22	1691.62
373.43	1660.90
373.64	1640.42
373.85	1722.34
374.06	1826.79
374.26	1773.54
374.47	1695.72
374.68	1808.36
374.89	1710.05
375.10	1720.29
375.31	1767.40
375.52	1671.14
375.73	1652.71
375.94	1585.13
376.15	1839.08
376.36	1654.76
376.57	1681.38
376.78	1636.33
376.99	1669.09
377.20	1781.73
377.40	1746.92
377.61	1738.73
377.82	1673.19
378.03	1787.88
378.24	1722.34
378.45	1695.72
378.66	1710.05
378.87	1615.85
379.08	1675.24
379.29	1619.94
379.50	1804.26
379.71	1654.76
379.91	1740.77
380.12	1642.47
380.33	1759.21
380.54	1695.72
380.75	1673.19
380.96	1722.34
381.17	1718.25
381.38	1775.59
381.59	1761.25
381.80	1746.92
382.00	1886.18
382.21	1642.47
382.42	1818.60
382.63	1886.18
382.84	1685.48
383.05	1736.68
383.26	1849.32
383.47	1673.19
383.68	1775.59
383.88	1800.16
384.09	1738.73
384.30	1802.21
384.51	1734.63
384.72	1691.62
384.93	1650.66
385.14	1705.96
385.35	1744.87
385.55	1583.08
385.76	1816.55
385.97	1757.16
386.18	1634.28
386.39	1654.76
386.60	1736.68
386.81	1730.53
387.02	1619.94
387.22	1624.04
387.43	1824.74
387.64	1730.53
387.85	1769.44
388.06	2254.81
388.27	4370.37
388.48	6803.35
388.68	8329.09
388.89	9604.97
389.10	9873.26
389.31	8476.54
389.52	7538.57
389.73	6643.61
389.93	6270.88
390.14	5810.09
390.35	5216.18
390.56	4577.21
390.77	3772.36
390.98	3157.97
391.18	2467.80
391.39	2076.64
391.60	1837.03
391.81	1820.64
392.02	1794.02
392.23	1902.56
392.43	1742.82
392.64	1855.46
392.85	1697.77
393.06	1843.17
393.27	1679.33
393.47	1718.25
393.68	1669.09
393.89	1650.66
394.10	1759.21
394.31	1746.92
394.52	1691.62
394.72	1705.96
394.93	1808.36
395.14	1667.05
395.35	1779.68
395.56	1626.09
395.76	1656.81
395.97	1767.40
396.18	1751.01
396.39	1865.70
396.60	1970.15
396.80	1890.28
397.01	1867.75
397.22	1775.59
397.43	1834.98
397.64	1755.11
397.84	1761.25
398.05	1800.16
398.26	1759.21
398.47	1775.59
398.67	1791.97
398.88	1699.81
399.09	1697.77
399.30	1744.87
399.51	1779.68
399.71	1601.51
399.92	1697.77
400.13	1757.16
400.34	1675.24
400.54	1738.73
400.75	1816.55
400.96	1728.49
401.17	1791.97
401.37	1689.57
401.58	1703.91
401.79	1794.02
402.00	1820.64
402.21	1980.39
402.41	1970.15
402.62	1949.67
402.83	2045.92
403.04	1959.91
403.24	2119.65
403.45	1820.64
403.66	1904.61
403.87	1880.04
404.07	1839.08
404.28	1904.61
404.49	1837.03
404.70	1744.87
404.90	1781.73
405.11	1783.78
405.32	1789.92
405.52	1652.71
405.73	1730.53
405.94	1667.05
406.15	1673.19
406.35	1804.26
406.56	1773.54
406.77	1755.11
406.98	1732.58
407.18	1660.90
407.39	1779.68
407.60	1705.96
407.80	1726.44
408.01	1683.43
408.22	1787.88
408.43	1611.75
408.63	1669.09
408.84	1720.29
409.05	1718.25
409.25	1687.53
409.46	1669.09
409.67	1687.53
409.88	1701.86
410.08	1775.59
410.29	1650.66
410.50	1789.92
410.70	1738.73
410.91	1730.53
411.12	1751.01
411.32	1759.21
411.53	1730.53
411.74	1791.97
411.95	1738.73
412.15	1665.00
412.36	1726.44
412.57	1718.25
412.77	1853.41
412.98	1724.39
413.19	1644.52
413.39	1722.34
413.60	1730.53
413.81	1736.68
414.01	1673.19
414.22	1740.77
414.43	1761.25
414.63	1642.47
414.84	1738.73
415.05	1820.64
415.25	1669.09
415.46	1730.53
415.67	1728.49
415.87	1748.97
416.08	1701.86
416.29	1689.57
416.49	1705.96
416.70	1699.81
416.91	1732.58
417.11	1789.92
417.32	1787.88
417.53	1726.44
417.73	1710.05
417.94	1720.29
418.15	1757.16
418.35	1671.14
418.56	1697.77
418.77	1886.18
418.97	1712.10
419.18	1615.85
419.38	1591.27
419.59	1720.29
419.80	1767.40
420.00	1736.68
420.21	1746.92
420.42	1720.29
420.62	1699.81
420.83	1654.76
421.04	1642.47
421.24	1665.00
421.45	1675.24
421.65	1722.34
421.86	1621.99
422.07	1689.57
422.27	1648.61
422.48	1769.44
422.69	1626.09
422.89	1751.01
423.10	1624.04
423.30	1636.33
423.51	1720.29
423.72	1726.44
423.92	1757.16
424.13	1699.81
424.33	1753.06
424.54	1740.77
424.75	1693.67
424.95	1808.36
425.16	1748.97
425.36	1705.96
425.57	1728.49
425.78	1722.34
425.98	1800.16
426.19	1621.99
426.39	1615.85
426.60	1724.39
426.81	1763.30
427.01	1769.44
427.22	1589.22
427.42	1665.00
427.63	1705.96
427.83	1710.05
428.04	1814.50
428.25	1812.45
428.45	1703.91
428.66	1777.64
428.86	1648.61
429.07	1679.33
429.28	1722.34
429.48	1646.57
429.69	1718.25
429.89	1742.82
430.10	1609.70
430.30	1771.49
430.51	1753.06
430.71	1695.72
430.92	1720.29
431.13	1679.33
431.33	1771.49
431.54	1710.05
431.74	1785.83
431.95	1783.78
432.15	1722.34
432.36	1662.95
432.56	1689.57
432.77	1753.06
432.98	1783.78
433.18	1679.33
433.39	1642.47
433.59	1697.77
433.80	1781.73
434.00	1810.40
434.21	1628.14
434.41	1650.66
434.62	1894.37
434.82	1624.04
435.03	1771.49
435.23	1681.38
435.44	1628.14
435.64	1699.81
435.85	1691.62
436.06	1728.49
436.26	1763.30
436.47	1798.12
436.67	1603.56
436.88	1759.21
437.08	1816.55
437.29	1834.98
437.49	1701.86
437.70	1822.69
437.90	1767.40
438.11	1816.55
438.31	1791.97
438.52	1861.60
438.72	1828.84
438.93	1847.27
439.13	1771.49
439.34	1751.01
439.54	1738.73
439.75	1779.68
439.95	1826.79
440.16	1734.63
440.36	1800.16
440.57	1800.16
440.77	1746.92
440.98	1673.19
441.18	1738.73
441.39	1710.05
441.59	1693.67
441.80	1855.46
442.00	1773.54
442.21	1771.49
442.41	1613.80
442.62	1753.06
442.82	1591.27
443.02	1701.86
443.23	1736.68
443.43	1722.34
443.64	1796.07
443.84	1628.14
444.05	1839.08
444.25	1714.15
444.46	1697.77
444.66	1652.71
444.87	1769.44
445.07	1628.14
445.28	1667.05
445.48	1849.32
445.69	1826.79
445.89	1871.84
446.09	1773.54
446.30	2025.44
446.50	2621.40
446.71	3798.98
446.91	4452.28
447.12	4665.27
447.32	4839.35
447.53	4353.98
447.73	3932.10
447.93	3430.35
448.14	3325.90
448.34	3209.17
448.55	2805.72
448.75	2813.91
448.96	2658.26
449.16	2402.27
449.36	2277.34
449.57	2004.96
449.77	1873.89
449.98	1810.40
450.18	1794.02
450.39	1783.78
450.59	1724.39
450.79	1701.86
451.00	1761.25
451.20	1736.68
451.41	1671.14
451.61	1734.63
451.81	1718.25
452.02	1759.21
452.22	1693.67
452.43	1685.48
452.63	1734.63
452.84	1751.01
453.04	1689.57
453.24	1767.40
453.45	1738.73
453.65	1748.97
453.86	1763.30
454.06	1730.53
454.26	1683.43
454.47	1636.33
454.67	1810.40
454.87	1669.09
455.08	1703.91
455.28	1820.64
455.49	1787.88
455.69	1669.09
455.89	1847.27
456.10	1845.22
456.30	1705.96
456.51	1794.02
456.71	1701.86
456.91	1771.49
457.12	1722.34
457.32	1681.38
457.52	1771.49
457.73	1810.40
457.93	1808.36
458.14	1583.08
458.34	1677.29
458.54	1759.21
458.75	1728.49
458.95	1789.92
459.15	1648.61
459.36	1726.44
459.56	1710.05
459.76	1847.27
459.97	1734.63
460.17	1759.21
460.37	1708.01
460.58	1767.40
460.78	1705.96
460.99	1685.48
461.19	1755.11
461.39	1673.19
461.60	1724.39
461.80	1744.87
462.00	1665.00
462.21	1753.06
462.41	1691.62
462.61	1652.71
462.82	1681.38
463.02	1740.77
463.22	1771.49
463.43	1812.45
463.63	1789.92
463.83	1757.16
464.04	1769.44
464.24	1728.49
464.44	1675.24
464.64	1662.95
464.85	1736.68
465.05	1812.45
465.25	1703.91
465.46	1710.05
465.66	1800.16
465.86	1783.78
466.07	1714.15
466.27	1695.72
466.47	1751.01
466.68	1556.46
466.88	1794.02
467.08	1716.20
467.29	1714.15
467.49	1773.54
467.69	1734.63
467.89	1843.17
468.10	1669.09
468.30	1773.54
468.50	1779.68
468.71	1804.26
468.91	1652.71
469.11	1796.07
469.31	1701.86
469.52	1748.97
469.72	1814.50
469.92	1886.18
470.13	1732.58
470.33	1781.73
470.53	1794.02
470.73	2185.18
470.94	2252.77
471.14	2295.77
471.34	2443.23
471.54	2467.80
471.75	2287.58
471.95	2082.78
472.15	2095.07
472.36	2035.68
472.56	2054.11
472.76	2078.69
472.96	1959.91
473.17	1949.67
473.37	1877.99
473.57	1892.32
473.77	1804.26
473.98	1761.25
474.18	1712.10
474.38	1855.46
474.58	1714.15
474.79	1701.86
474.99	1712.10
475.19	1708.01
475.39	1714.15
475.60	1734.63
475.80	1722.34
476.00	1720.29
476.20	1732.58
476.41	1728.49
476.61	1798.12
476.81	1763.30
477.01	1701.86
477.21	1802.21
477.42	1763.30
477.62	1646.57
477.82	1765.35
478.02	1765.35
478.23	1654.76
478.43	1624.04
478.63	1675.24
478.83	1742.82
479.03	1640.42
479.24	1820.64
479.44	1800.16
479.64	1734.63
479.84	1652.71
480.04	1703.91
480.25	1740.77
480.45	1689.57
480.65	1695.72
480.85	1798.12
481.06	1730.53
481.26	1710.05
481.46	1746.92
481.66	1685.48
481.86	1691.62
482.06	1730.53
482.27	1705.96
482.47	1693.67
482.67	1718.25
482.87	1738.73
483.07	1742.82
483.28	1703.91
483.48	1742.82
483.68	1677.29
483.88	1708.01
484.08	1665.00
484.29	1656.81
484.49	1650.66
484.69	1665.00
484.89	1789.92
485.09	1863.65
485.29	1746.92
485.50	1771.49
485.70	1697.77
485.90	1732.58
486.10	1662.95
486.30	1769.44
486.50	1798.12
486.71	1724.39
486.91	1796.07
487.11	1804.26
487.31	1665.00
487.51	1669.09
487.71	1619.94
487.91	1650.66
488.12	1636.33
488.32	1605.61
488.52	1687.53
488.72	1624.04
488.92	1726.44
489.12	1816.55
489.32	1794.02
489.53	1685.48
489.73	1665.00
489.93	1826.79
490.13	1705.96
490.33	1628.14
490.53	1759.21
490.73	1695.72
490.94	1615.85
491.14	1769.44
491.34	1853.41
491.54	2082.78
491.74	2559.96
491.94	2940.88
492.14	2904.02
492.34	3033.04
492.54	2752.47
492.75	2576.34
492.95	2463.71
493.15	2344.92
493.35	2217.95
493.55	2232.29
493.75	2148.32
493.95	2103.26
494.15	2009.06
494.35	1939.43
494.56	1875.94
494.76	1730.53
494.96	1828.84
495.16	1742.82
495.36	1662.95
495.56	1679.33
495.76	1746.92
495.96	1746.92
496.16	1714.15
496.36	1828.84
496.56	1708.01
496.77	1767.40
496.97	1667.05
497.17	1746.92
497.37	1675.24
497.57	1775.59
497.77	1699.81
497.97	1693.67
498.17	1718.25
498.37	1615.85
498.57	1781.73
498.77	1722.34
498.97	1767.40
499.17	1810.40
499.38	1726.44
499.58	1724.39
499.78	1748.97
499.98	1730.53
500.18	1683.43
500.38	1742.82
500.58	1939.43
500.78	2584.54
500.98	4575.16
501.18	5896.10
501.38	6621.08
501.58	7266.19
501.78	6444.96
501.98	5660.59
502.18	4810.68
502.38	4433.85
502.58	4116.42
502.78	3803.08
502.98	3569.61
503.18	3352.52
503.38	3227.60
503.59	2820.05
503.79	2779.09
503.99	2504.67
504.19	2275.29
504.39	2295.77
504.59	2197.47
504.79	2133.98
504.99	1968.10
505.19	1898.47
505.39	1843.17
505.59	1984.48
505.79	1910.75
505.99	1923.04
506.19	1771.49
506.39	1894.37
506.59	1777.64
506.79	1794.02
506.99	1865.70
507.19	1771.49
507.39	1755.11
507.59	1705.96
507.79	1667.05
507.99	1722.34
508.19	1665.00
508.39	1675.24
508.59	1708.01
508.79	1791.97
508.99	1900.52
509.19	1724.39
509.39	1712.10
509.59	1714.15
509.79	1642.47
509.99	1697.77
510.19	1779.68
510.39	1806.31
510.59	1703.91
510.79	1665.00
510.99	1671.14
511.19	1763.30
511.39	1808.36
511.59	1798.12
511.79	1740.77
511.99	1773.54
512.19	1877.99
512.38	1705.96
512.58	1654.76
512.78	1669.09
512.98	1714.15
513.18	1796.07
513.38	1640.42
513.58	1781.73
513.78	1708.01
513.98	1691.62
514.18	1716.20
514.38	1746.92
514.58	1736.68
514.78	1736.68
514.98	1673.19
515.18	1763.30
515.38	1658.85
515.58	1759.21
515.78	1697.77
515.98	1708.01
516.18	1740.77
516.38	1804.26
516.57	1703.91
516.77	1693.67
516.97	1806.31
517.17	1748.97
517.37	1597.42
517.57	1789.92
517.77	1665.00
517.97	1673.19
518.17	1771.49
518.37	1697.77
518.57	1712.10
518.77	1734.63
518.97	1796.07
519.16	1777.64
519.36	1884.13
519.56	1714.15
519.76	1722.34
519.96	1683.43
520.16	1773.54
520.36	1574.89
520.56	1726.44
520.76	1757.16
520.96	1714.15
521.16	1798.12
521.35	1759.21
521.55	1771.49
521.75	1712.10
521.95	1673.19
522.15	1681.38
522.35	1624.04
522.55	1755.11
522.75	1736.68
522.95	1761.25
523.14	1759.21
523.34	1804.26
523.54	1775.59
523.74	1730.53
523.94	1697.77
524.14	1673.19
524.34	1732.58
524.54	1837.03
524.73	1769.44
524.93	1726.44
525.13	1708.01
525.33	1722.34
525.53	1818.60
525.73	1712.10
525.93	1767.40
526.13	1677.29
526.32	1689.57
526.52	1720.29
526.72	1843.17
526.92	1708.01
527.12	1683.43
527.32	1671.14
527.52	1767.40
527.71	1742.82
527.91	1767.40
528.11	1660.90
528.31	1718.25
528.51	1673.19
528.71	1771.49
528.90	1732.58
529.10	1703.91
529.30	1814.50
529.50	1660.90
529.70	1691.62
529.90	1677.29
530.09	1716.20
530.29	1634.28
530.49	1669.09
530.69	1812.45
530.89	1724.39
531.09	1742.82
531.28	1671.14
531.48	1773.54
531.68	1757.16
531.88	1710.05
532.08	1761.25
532.28	1746.92
532.47	1773.54
532.67	1832.93
532.87	1669.09
533.07	1591.27
533.27	1763.30
533.46	1687.53
533.66	1759.21
533.86	1705.96
534.06	1759.21
534.26	1703.91
534.45	1712.10
534.65	1822.69
534.85	1716.20
535.05	1628.14
535.25	1759.21
535.44	1574.89
535.64	1787.88
535.84	1722.34
536.04	1753.06
536.24	1660.90
536.43	1714.15
536.63	1763.30
536.83	1728.49
537.03	1677.29
537.22	1636.33
537.42	1652.71
537.62	1765.35
537.82	1691.62
538.02	1847.27
538.21	1755.11
538.41	1923.04
538.61	1763.30
538.81	1693.67
539.00	1771.49
539.20	1597.42
539.40	1695.72
539.60	1718.25
539.79	1675.24
539.99	1812.45
540.19	1751.01
540.39	1673.19
540.58	1779.68
540.78	1798.12
540.98	1736.68
541.18	1798.12
541.37	1777.64
541.57	1705.96
541.77	1810.40
541.97	1650.66
542.16	1683.43
542.36	1712.10
542.56	1791.97
542.76	1785.83
542.95	1814.50
543.15	1777.64
543.35	1779.68
543.54	1669.09
543.74	1630.18
543.94	1722.34
544.14	1734.63
544.33	1728.49
544.53	1759.21
544.73	1779.68
544.93	1746.92
545.12	1718.25
545.32	1773.54
545.52	1736.68
545.71	1640.42
545.91	1685.48
546.11	1656.81
546.30	1701.86
546.50	1746.92
546.70	1843.17
546.90	1660.90
547.09	1662.95
547.29	1710.05
547.49	1832.93
547.68	1724.39
547.88	1720.29
548.08	1751.01
548.27	2160.61
548.47	1703.91
548.67	1714.15
548.87	1753.06
549.06	1710.05
549.26	1716.20
549.46	1681.38
549.65	1718.25
549.85	1656.81
550.05	1767.40
550.24	1667.05
550.44	1656.81
550.64	1751.01
550.83	1679.33
551.03	1726.44
551.23	1785.83
551.42	1767.40
551.62	1712.10
551.82	1736.68
552.01	1708.01
552.21	1753.06
552.41	1767.40
552.60	1800.16
552.80	1755.11
553.00	1689.57
553.19	1710.05
553.39	1783.78
553.59	1701.86
553.78	1767.40
553.98	1714.15
554.17	1662.95
554.37	1740.77
554.57	1822.69
554.76	1738.73
554.96	1685.48
555.16	1708.01
555.35	1722.34
555.55	1726.44
555.75	1732.58
555.94	1832.93
556.14	1650.66
556.33	1828.84
556.53	1763.30
556.73	1689.57
556.92	1726.44
557.12	1779.68
557.32	1890.28
557.51	1763.30
557.71	1783.78
557.90	1746.92
558.10	1748.97
558.30	1669.09
558.49	1746.92
558.69	1718.25
558.88	1857.51
559.08	1732.58
559.28	1716.20
559.47	1740.77
559.67	1755.11
559.86	1822.69
560.06	1736.68
560.26	1789.92
560.45	1757.16
560.65	1781.73
560.84	1826.79
561.04	1665.00
561.24	1751.01
561.43	1677.29
561.63	1832.93
561.82	1705.96
562.02	1746.92
562.22	1720.29
562.41	1634.28
562.61	1705.96
562.80	1656.81
563.00	1882.08
563.19	1771.49
563.39	1736.68
563.59	1773.54
563.78	1654.76
563.98	1605.61
564.17	1695.72
564.37	1687.53
564.56	1736.68
564.76	1662.95
564.96	1798.12
565.15	1712.10
565.35	1820.64
565.54	1708.01
565.74	1716.20
565.93	1767.40
566.13	1677.29
566.32	1767.40
566.52	1740.77
566.71	1726.44
566.91	1810.40
567.11	1632.23
567.30	1697.77
567.50	1812.45
567.69	1703.91
567.89	1697.77
568.08	1734.63
568.28	1761.25
568.47	1732.58
568.67	1705.96
568.86	1710.05
569.06	1812.45
569.25	1781.73
569.45	1665.00
569.64	1732.58
569.84	1632.23
570.04	1740.77
570.23	1689.57
570.43	1734.63
570.62	1722.34
570.82	1814.50
571.01	1712.10
571.21	1699.81
571.40	1667.05
571.60	1814.50
571.79	1728.49
571.99	1658.85
572.18	1644.52
572.38	1728.49
572.57	1628.14
572.77	1705.96
572.96	1904.61
573.16	1812.45
573.35	1742.82
573.55	1910.75
573.74	1736.68
573.94	1738.73
574.13	1724.39
574.33	1810.40
574.52	1767.40
574.71	1691.62
574.91	1730.53
575.10	1624.04
575.30	1736.68
575.49	1662.95
575.69	1683.43
575.88	1791.97
576.08	1701.86
576.27	1839.08
576.47	1753.06
576.66	1906.66
576.86	1761.25
577.05	1759.21
577.25	1783.78
577.44	1865.70
577.64	1728.49
577.83	1828.84
578.02	1796.07
578.22	1738.73
578.41	1746.92
578.61	1738.73
578.80	1665.00
579.00	1791.97
579.19	1783.78
579.39	1789.92
579.58	1761.25
579.77	1734.63
579.97	1763.30
580.16	1908.71
580.36	1804.26
580.55	1867.75
580.75	1789.92
580.94	1802.21
581.13	1820.64
581.33	1865.70
581.52	1722.34
581.72	1906.66
581.91	1837.03
582.11	1779.68
582.30	1765.35
582.49	1763.30
582.69	1808.36
582.88	1748.97
583.08	1748.97
583.27	1773.54
583.47	1808.36
583.66	1697.77
583.85	1693.67
584.05	1726.44
584.24	1810.40
584.44	1753.06
584.63	1816.55
584.82	1789.92
585.02	1832.93
585.21	1818.60
585.41	1787.88
585.60	1822.69
585.79	1916.90
585.99	1918.95
586.18	1849.32
586.37	2250.72
586.57	3413.96
586.76	10030.95
586.96	24788.61
587.15	34620.91
587.34	40971.66
587.54	42642.81
587.73	36621.78
587.93	26506.86
588.12	21550.78
588.31	18411.24
588.51	16557.83
588.70	15271.70
588.89	14157.61
589.09	12699.45
589.28	11032.41
589.47	9627.50
589.67	8226.69
589.86	6397.85
590.06	4890.55
590.25	3958.72
590.44	3137.49
590.64	2602.97
590.83	2265.05
591.02	2105.31
591.22	1908.71
591.41	1945.57
591.60	1880.04
591.80	1853.41
591.99	1744.87
592.18	1845.22
592.38	1820.64
592.57	1673.19
592.76	1785.83
592.96	1744.87
593.15	1873.89
593.34	1849.32
593.54	1701.86
593.73	1812.45
593.92	1734.63
594.12	1736.68
594.31	1777.64
594.50	1798.12
594.70	1755.11
594.89	1902.56
595.08	1730.53
595.28	1791.97
595.47	1935.33
595.66	1669.09
595.86	1693.67
596.05	1783.78
596.24	1732.58
596.43	1857.51
596.63	1857.51
596.82	1804.26
597.01	1681.38
597.21	1820.64
597.40	1728.49
597.59	1767.40
597.79	1714.15
597.98	1746.92
598.17	1837.03
598.36	1689.57
598.56	1751.01
598.75	1738.73
598.94	1742.82
599.14	1708.01
599.33	1761.25
599.52	1738.73
599.71	1761.25
599.91	1812.45
600.10	1759.21
600.29	1779.68
600.48	1837.03
600.68	1759.21
600.87	1736.68
601.06	1687.53
601.26	1771.49
601.45	1697.77
601.64	1730.53
601.83	1810.40
602.03	1738.73
602.22	1712.10
602.41	1814.50
602.60	1873.89
602.80	1804.26
602.99	1775.59
603.18	1669.09
603.37	1748.97
603.57	1726.44
603.76	1738.73
603.95	1738.73
604.14	1734.63
604.34	1652.71
604.53	1763.30
604.72	1761.25
604.91	1714.15
605.10	1748.97
605.30	1640.42
605.49	1845.22
605.68	1746.92
605.87	1734.63
606.07	1693.67
606.26	1779.68
606.45	1820.64
606.64	1736.68
606.84	1632.23
607.03	1773.54
607.22	1722.34
607.41	1751.01
607.60	1718.25
607.80	1748.97
607.99	1740.77
608.18	1824.74
608.37	1697.77
608.56	1705.96
608.76	1769.44
608.95	1837.03
609.14	1763.30
609.33	1781.73
609.52	1740.77
609.72	1679.33
609.91	1693.67
610.10	1705.96
610.29	1908.71
610.48	1753.06
610.68	1746.92
610.87	1703.91
611.06	1726.44
611.25	1673.19
611.44	1839.08
611.63	1613.80
611.83	1773.54
612.02	1701.86
612.21	1853.41
612.40	1585.13
612.59	1634.28
612.79	1693.67
612.98	1724.39
613.17	1757.16
613.36	1660.90
613.55	1771.49
613.74	1671.14
613.93	1701.86
614.13	1693.67
614.32	1712.10
614.51	1761.25
614.70	1722.34
614.89	1734.63
615.08	1746.92
615.28	2033.63
615.47	1695.72
615.66	1744.87
615.85	1697.77
616.04	1822.69
616.23	1712.10
616.42	1783.78
616.62	1757.16
616.81	1765.35
617.00	1732.58
617.19	1742.82
617.38	1685.48
617.57	1673.19
617.76	1742.82
617.95	1804.26
618.15	1763.30
618.34	1853.41
618.53	1648.61
618.72	1697.77
618.91	1804.26
619.10	1859.56
619.29	1732.58
619.48	1695.72
619.68	1591.27
619.87	1761.25
620.06	1738.73
620.25	1726.44
620.44	1720.29
620.63	1734.63
620.82	1648.61
621.01	1732.58
621.20	1708.01
621.39	1716.20
621.59	1742.82
621.78	1755.11
621.97	1789.92
622.16	1722.34
622.35	1708.01
622.54	1849.32
622.73	1812.45
622.92	1589.22
623.11	1775.59
623.30	1673.19
623.49	1744.87
623.68	1681.38
623.88	1787.88
624.07	1736.68
624.26	1673.19
624.45	1712.10
624.64	1677.29
624.83	1746.92
625.02	1701.86
625.21	1763.30
625.40	1708.01
625.59	1685.48
625.78	1765.35
625.97	1751.01
626.16	1777.64
626.35	1779.68
626.54	1646.57
626.74	1822.69
626.93	1628.14
627.12	1689.57
627.31	1740.77
627.50	1761.25
627.69	1724.39
627.88	1728.49
628.07	1640.42
628.26	1628.14
628.45	1626.09
628.64	1689.57
628.83	1697.77
629.02	1671.14
629.21	1658.85
629.40	1800.16
629.59	1626.09
629.78	1714.15
629.97	1660.90
630.16	1759.21
630.35	1718.25
630.54	1775.59
630.73	1628.14
630.92	1695.72
631.11	1669.09
631.30	1703.91
631.49	1802.21
631.68	1759.21
631.87	1748.97
632.06	1605.61
632.25	1822.69
632.44	1763.30
632.63	1751.01
632.82	1722.34
633.01	1665.00
633.20	1560.55
633.39	1677.29
633.58	1634.28
633.77	1755.11
633.96	1644.52
634.15	1695.72
634.34	1816.55
634.53	1660.90
634.72	1652.71
634.91	1525.74
635.10	1800.16
635.29	1744.87
635.48	1705.96
635.67	1687.53
635.86	1599.46
636.05	1781.73
636.24	1658.85
636.43	1675.24
636.62	1771.49
636.81	1615.85
637.00	1718.25
637.19	1714.15
637.38	1697.77
637.57	1662.95
637.76	1650.66
637.95	1658.85
638.14	1730.53
638.33	1751.01
638.52	1775.59
638.71	1665.00
638.89	1597.42
639.08	1824.74
639.27	1732.58
639.46	1734.63
639.65	1771.49
639.84	1705.96
640.03	1806.31
640.22	1714.15
640.41	1800.16
640.60	1738.73
640.79	1644.52
640.98	1662.95
641.17	1730.53
641.36	1697.77
641.55	1769.44
641.74	1628.14
641.92	1615.85
642.11	1587.18
642.30	1708.01
642.49	1667.05
642.68	1718.25
642.87	1798.12
643.06	1765.35
643.25	1738.73
643.44	1636.33
643.63	1693.67
643.82	1753.06
644.00	1632.23
644.19	1730.53
644.38	1662.95
644.57	1685.48
644.76	1701.86
644.95	1708.01
645.14	1718.25
645.33	1695.72
645.52	1720.29
645.71	1718.25
645.89	1609.70
646.08	1773.54
646.27	1687.53
646.46	1845.22
646.65	1703.91
646.84	1681.38
647.03	1677.29
647.22	1716.20
647.40	1740.77
647.59	1685.48
647.78	1595.37
647.97	1632.23
648.16	1695.72
648.35	1779.68
648.54	1775.59
648.73	1652.71
648.91	1824.74
649.10	1742.82
649.29	1699.81
649.48	1687.53
649.67	1689.57
649.86	1665.00
650.05	1701.86
650.23	1773.54
650.42	1658.85
650.61	1732.58
650.80	1769.44
650.99	1863.65
651.18	1675.24
651.36	1736.68
651.55	1658.85
651.74	1734.63
651.93	1732.58
652.12	1642.47
652.31	1800.16
652.49	1673.19
652.68	1689.57
652.87	1755.11
653.06	1779.68
653.25	1804.26
653.44	1728.49
653.62	1882.08
653.81	1662.95
654.00	1736.68
654.19	1845.22
654.38	1820.64
654.56	1691.62
654.75	1636.33
654.94	1656.81
655.13	1757.16
655.32	1712.10
655.51	1710.05
655.69	1648.61
655.88	1718.25
656.07	1675.24
656.26	1669.09
656.45	1599.46
656.63	1685.48
656.82	1722.34
657.01	1724.39
657.20	1697.77
657.38	1759.21
657.57	1683.43
657.76	1642.47
657.95	1751.01
658.14	1634.28
658.32	1662.95
658.51	1652.71
658.70	1726.44
658.89	1679.33
659.08	1652.71
659.26	1837.03
659.45	1617.90
659.64	1730.53
659.83	1677.29
660.01	1931.23
660.20	1683.43
660.39	1763.30
660.58	1562.60
660.76	1736.68
660.95	1652.71
661.14	1689.57
661.33	1660.90
661.51	1732.58
661.70	1730.53
661.89	1773.54
662.08	1703.91
662.26	1566.70
662.45	1681.38
662.64	1769.44
662.83	1787.88
663.01	1626.09
663.20	1609.70
663.39	1726.44
663.58	1681.38
663.76	1785.83
663.95	1771.49
664.14	1744.87
664.32	1658.85
664.51	1697.77
664.70	1693.67
664.89	1816.55
665.07	1638.38
665.26	1738.73
665.45	1630.18
665.64	1730.53
665.82	1669.09
666.01	1757.16
666.20	1705.96
666.38	1845.22
666.57	1828.84
666.76	2176.99
666.95	4562.87
667.13	10413.92
667.32	15339.29
667.51	17964.78
667.69	19349.21
667.88	17628.92
668.07	12595.01
668.25	9701.23
668.44	8036.23
668.63	7413.65
668.81	6746.01
669.00	6350.75
669.19	5810.09
669.38	5099.44
669.56	4528.06
669.75	4100.03
669.94	3418.06
670.12	2836.44
670.31	2447.32
670.50	2275.29
670.68	2017.25
670.87	1896.42
671.06	1871.84
671.24	1722.34
671.43	1814.50
671.62	1710.05
671.80	1699.81
671.99	1697.77
672.18	1757.16
672.36	1687.53
672.55	1685.48
672.74	1679.33
672.92	1669.09
673.11	1740.77
673.29	1687.53
673.48	1812.45
673.67	1677.29
673.85	1738.73
674.04	1708.01
674.23	1699.81
674.41	1882.08
674.60	1593.32
674.79	1591.27
674.97	1736.68
675.16	1814.50
675.34	1718.25
675.53	1667.05
675.72	1763.30
675.90	1796.07
676.09	1687.53
676.28	1759.21
676.46	1648.61
676.65	1751.01
676.83	1718.25
677.02	1736.68
677.21	1705.96
677.39	1660.90
677.58	1667.05
677.77	1613.80
677.95	1697.77
678.14	1677.29
678.32	1722.34
678.51	1740.77
678.70	1769.44
678.88	1726.44
679.07	1740.77
679.25	1748.97
679.44	1665.00
679.63	1671.14
679.81	1722.34
680.00	1765.35
680.18	1787.88
680.37	1748.97
680.55	1687.53
680.74	1638.38
680.93	1566.70
681.11	1679.33
681.30	1730.53
681.48	1783.78
681.67	1611.75
681.85	1775.59
682.04	1689.57
682.23	1708.01
682.41	1800.16
682.60	1730.53
682.78	1742.82
682.97	1652.71
683.15	1738.73
683.34	1736.68
683.53	1777.64
683.71	1742.82
683.90	1830.88
684.08	1845.22
684.27	1665.00
684.45	1716.20
684.64	1755.11
684.82	1753.06
685.01	1716.20
685.19	1759.21
685.38	1806.31
685.57	1765.35
685.75	1660.90
685.94	1650.66
686.12	1605.61
686.31	1685.48
686.49	1830.88
686.68	1701.86
686.86	1763.30
687.05	1748.97
687.23	1783.78
687.42	1615.85
687.60	1634.28
687.79	1746.92
687.97	1785.83
688.16	1798.12
688.34	1673.19
688.53	1626.09
688.71	1746.92
688.90	1806.31
689.08	1691.62
689.27	1669.09
689.45	1744.87
689.64	1787.88
689.82	1710.05
690.01	1703.91
690.19	1804.26
690.38	1738.73
690.56	1744.87
690.75	1658.85
690.93	1714.15
691.12	1634.28
691.30	1742.82
691.49	1650.66
691.67	1646.57
691.86	1759.21
692.04	1673.19
692.23	1658.85
692.41	1617.90
692.60	1849.32
692.78	1773.54
692.97	1748.97
693.15	1671.14
693.34	1751.01
693.52	1820.64
693.71	1697.77
693.89	1662.95
694.08	1683.43
694.26	1722.34
694.44	1701.86
694.63	1712.10
694.81	1597.42
695.00	1642.47
695.18	1746.92
695.37	1828.84
695.55	1834.98
695.74	1654.76
695.92	1722.34
696.10	1763.30
696.29	1597.42
696.47	1710.05
696.66	1626.09
696.84	1708.01
697.03	1746.92
697.21	1740.77
697.40	2301.92
697.58	1738.73
697.76	1736.68
697.95	1689.57
698.13	1685.48
698.32	1689.57
698.50	1742.82
698.68	1730.53
698.87	1681.38
699.05	1734.63
699.24	1685.48
699.42	1660.90
699.61	1732.58
699.79	1732.58
699.97	1767.40
700.16	1699.81
700.34	1650.66
700.53	1705.96
700.71	1775.59
700.89	1738.73
701.08	1677.29
701.26	1746.92
701.45	2082.78
701.63	1597.42
701.81	1744.87
702.00	1570.79
702.18	1705.96
702.37	1705.96
702.55	1722.34
702.73	1781.73
702.92	1656.81
703.10	1755.11
703.28	1779.68
703.47	1728.49
703.65	1773.54
703.84	1847.27
704.02	1763.30
704.20	1718.25
704.39	1679.33
704.57	1656.81
704.75	1769.44
704.94	1730.53
705.12	1658.85
705.30	1699.81
705.49	2289.63
705.67	4435.90
705.86	9521.01
706.04	12595.01
706.22	14530.34
706.41	15626.00
706.59	13981.48
706.77	9690.99
706.96	7444.37
707.14	6498.20
707.32	5969.83
707.51	5593.00
707.69	5005.24
707.87	4212.67
708.06	3575.75
708.24	2922.45
708.42	2443.23
708.61	2263.01
708.79	1914.85
708.97	1867.75
709.16	1775.59
709.34	1808.36
709.52	1714.15
709.71	1673.19
709.89	1736.68
710.07	1718.25
710.26	1679.33
710.44	1757.16
710.62	1748.97
710.80	1714.15
710.99	1861.60
711.17	1751.01
711.35	1669.09
711.54	1726.44
711.72	1800.16
711.90	1765.35
712.09	1736.68
712.27	1617.90
712.45	1730.53
712.63	1683.43
712.82	1742.82
713.00	1748.97
713.18	1673.19
713.37	1660.90
713.55	1742.82
713.73	1708.01
713.91	1724.39
714.10	1710.05
714.28	1628.14
714.46	1746.92
714.65	1714.15
714.83	1730.53
715.01	1742.82
715.19	1787.88
715.38	1671.14
715.56	1701.86
715.74	1685.48
715.92	1605.61
716.11	1742.82
716.29	1560.55
716.47	1736.68
716.65	1691.62
716.84	1636.33
717.02	1724.39
717.20	1613.80
717.38	1558.50
717.57	1742.82
717.75	1718.25
717.93	1662.95
718.11	1783.78
718.30	1685.48
718.48	1724.39
718.66	1826.79
718.84	1765.35
719.03	1773.54
719.21	1685.48
719.39	1761.25
719.57	1736.68
719.75	1796.07
719.94	1607.66
720.12	1685.48
720.30	1660.90
720.48	1710.05
720.67	1636.33
720.85	1689.57
721.03	1689.57
721.21	1615.85
721.39	1742.82
721.58	1714.15
721.76	1769.44
721.94	1728.49
722.12	1755.11
722.30	1767.40
722.49	1691.62
722.67	1744.87
722.85	1705.96
723.03	1634.28
723.21	1615.85
723.40	1693.67
723.58	1712.10
723.76	1697.77
723.94	1783.78
724.12	1716.20
724.30	1726.44
724.49	1726.44
724.67	1624.04
724.85	1736.68
725.03	1568.74
725.21	1763.30
725.40	1763.30
725.58	1667.05
725.76	1814.50
725.94	1726.44
726.12	1693.67
726.30	1679.33
726.49	1763.30
726.67	1689.57
726.85	1699.81
727.03	1779.68
727.21	2168.80
727.39	2916.31
727.57	3790.79
727.76	4132.80
727.94	4358.08
728.12	4308.93
728.30	3710.92
728.48	2940.88
728.66	2793.43
728.84	2662.36
729.03	2281.44
729.21	2240.48
729.39	1949.67
729.57	1834.98
729.75	1779.68
729.93	1722.34
730.11	1693.67
730.30	1765.35
730.48	1673.19
730.66	1777.64
730.84	1724.39
731.02	1695.72
731.20	1722.34
731.38	1689.57
731.56	1697.77
731.74	1628.14
731.93	1751.01
732.11	1675.24
732.29	1673.19
732.47	1712.10
732.65	1722.34
732.83	1787.88
733.01	1773.54
733.19	1621.99
733.37	1796.07
733.56	1726.44
733.74	1708.01
733.92	1720.29
734.10	1736.68
734.28	1687.53
734.46	1607.66
734.64	1607.66
734.82	1685.48
735.00	1648.61
735.18	1673.19
735.36	1632.23
735.54	1771.49
735.73	1697.77
735.91	1740.77
736.09	1726.44
736.27	1763.30
736.45	1742.82
736.63	1634.28
736.81	1701.86
736.99	1787.88
737.17	1816.55
737.35	1654.76
737.53	1710.05
737.71	1708.01
737.89	1644.52
738.07	1693.67
738.25	1671.14
738.43	1546.22
738.61	1665.00
738.80	1626.09
738.98	1531.88
739.16	1667.05
739.34	1621.99
739.52	1751.01
739.70	1734.63
739.88	1693.67
740.06	1767.40
740.24	1595.37
740.42	1751.01
740.60	1650.66
740.78	1648.61
740.96	1607.66
741.14	1683.43
741.32	1730.53
741.50	1714.15
741.68	1845.22
741.86	1687.53
742.04	1667.05
742.22	1685.48
742.40	1703.91
742.58	1687.53
742.76	1669.09
742.94	1691.62
743.12	1652.71
743.30	1683.43
743.48	1628.14
743.66	1615.85
743.84	1708.01
744.02	1665.00
744.20	1628.14
744.38	1646.57
744.56	1562.60
744.74	1802.21
744.92	1718.25
745.10	1751.01
745.28	1728.49
745.46	1712.10
745.64	1687.53
745.82	1822.69
746.00	1701.86
746.18	1775.59
746.36	1714.15
746.54	1708.01
746.72	1714.15
746.90	1607.66
747.08	1837.03
747.26	1714.15
747.44	1773.54
747.62	1708.01
747.80	1667.05
747.98	1810.40
748.15	1667.05
748.33	1730.53
748.51	1673.19
748.69	1777.64
748.87	1681.38
749.05	1652.71
749.23	1654.76
749.41	1738.73
749.59	1695.72
749.77	1759.21
749.95	1740.77
750.13	1714.15
750.31	1746.92
750.49	1703.91
750.67	1771.49
750.85	1783.78
751.03	1759.21
751.20	1800.16
751.38	1724.39
751.56	1669.09
751.74	1697.77
751.92	1691.62
752.10	1740.77
752.28	1875.94
752.46	1665.00
752.64	1720.29
752.82	1712.10
753.00	1800.16
753.18	1636.33
753.35	1722.34
753.53	1710.05
753.71	1687.53
753.89	1734.63
754.07	1691.62
754.25	1779.68
754.43	1669.09
754.61	1677.29
754.79	1755.11
754.97	1642.47
755.14	1798.12
755.32	1626.09
755.50	1734.63
755.68	1751.01
755.86	1722.34
756.04	1693.67
756.22	1640.42
756.40	1658.85
756.57	1789.92
756.75	1687.53
756.93	1757.16
757.11	1693.67
757.29	1669.09
757.47	1652.71
757.65	1632.23
757.82	1556.46
758.00	1669.09
758.18	1703.91
758.36	1677.29
758.54	1787.88
758.72	1628.14
758.90	1753.06
759.07	1841.12
759.25	1615.85
759.43	1757.16
759.61	1636.33
759.79	2199.52
759.97	1773.54
760.15	1669.09
760.32	1654.76
760.50	1677.29
760.68	1808.36
760.86	1691.62
761.04	1722.34
761.22	1720.29
761.39	1740.77
761.57	1761.25
761.75	1626.09
761.93	1712.10
762.11	1685.48
762.28	1740.77
762.46	1630.18
762.64	1759.21
762.82	1640.42
763.00	1714.15
763.18	1724.39
763.35	1621.99
763.53	1730.53
763.71	1699.81
763.89	1701.86
764.07	1701.86
764.24	1667.05
764.42	1771.49
764.60	1652.71
764.78	1708.01
764.96	1755.11
765.13	1720.29
765.31	1705.96
765.49	1753.06
765.67	1601.51
765.84	1576.94
766.02	1574.89
766.20	1611.75
766.38	1701.86
766.56	1798.12
766.73	1726.44
766.91	1658.85
767.09	1673.19
767.27	1677.29
767.44	1648.61
767.62	1757.16
767.80	1689.57
767.98	1669.09
768.15	1703.91
768.33	1744.87
768.51	1697.77
768.69	1675.24
768.87	1705.96
769.04	1632.23
769.22	1841.12
769.40	1789.92
769.58	1865.70
769.75	1753.06
769.93	1824.74
770.11	1662.95
770.28	1636.33
770.46	1771.49
770.64	1722.34
770.82	1742.82
770.99	1652.71
771.17	1740.77
771.35	1673.19
771.53	1677.29
771.70	1722.34
771.88	1708.01
772.06	1662.95
772.23	1619.94
772.41	1714.15
772.59	1665.00
772.77	1640.42
772.94	1755.11
773.12	1689.57
773.30	1689.57
773.47	1732.58
773.65	1677.29
773.83	1808.36
774.01	1648.61
774.18	1587.18
774.36	1662.95
774.54	1583.08
774.71	1710.05
774.89	1538.02
775.07	1601.51
775.24	1654.76
775.42	1662.95
775.60	1789.92
775.78	1642.47
775.95	1644.52
776.13	1650.66
776.31	1589.22
776.48	1722.34
776.66	1724.39
776.84	1675.24
777.01	1615.85
777.19	1650.66
777.37	1695.72
777.54	1736.68
777.72	1826.79
777.90	1722.34
778.07	1691.62
778.25	1902.56
778.43	1710.05
778.60	1718.25
778.78	1697.77
778.96	1744.87
779.13	1599.46
779.31	1740.77
779.49	1675.24
779.66	1689.57
779.84	1693.67
780.01	1679.33
780.19	1662.95
780.37	1781.73
780.54	1751.01
780.72	1603.56
780.90	1685.48
781.07	1667.05
781.25	1675.24
781.43	1718.25
781.60	1642.47
781.78	1816.55
781.95	1763.30
782.13	1646.57
782.31	1626.09
782.48	1574.89
782.66	1642.47
782.83	1781.73
783.01	1712.10
783.19	1785.83
783.36	1712.10
783.54	1685.48
783.72	1722.34
783.89	1767.40
784.07	1677.29
784.24	1665.00
784.42	1773.54
784.60	1748.97
784.77	1761.25
784.95	1597.42
785.12	1626.09
785.30	1646.57
785.47	1712.10
785.65	1665.00
785.83	1665.00
786.00	1603.56
786.18	1759.21
786.35	1632.23
786.53	1665.00
786.71	1806.31
786.88	1685.48
787.06	1669.09
787.23	1662.95
787.41	1669.09
787.58	1685.48
787.76	1665.00
787.94	1757.16
788.11	1703.91
788.29	1630.18
788.46	1634.28
788.64	1726.44
788.81	1589.22
788.99	1667.05
789.16	1583.08
789.34	1730.53
789.52	1634.28
789.69	1701.86
789.87	1603.56
790.04	1798.12
790.22	1644.52
790.39	1804.26
790.57	1619.94
790.74	1634.28
790.92	1703.91
791.09	1685.48
791.27	1701.86
791.44	1720.29
791.62	1732.58
791.79	1761.25
791.97	1648.61
792.15	1837.03
792.32	1703.91
792.50	1751.01
792.67	1665.00
792.85	1744.87
793.02	1753.06
793.20	1703.91
793.37	1640.42
793.55	1728.49
793.72	1652.71
793.90	1746.92
794.07	1724.39
794.25	1654.76
794.42	1665.00
794.60	1722.34
794.77	1718.25
794.95	1748.97
795.12	1796.07
795.30	1687.53
795.47	1621.99
795.65	1900.52
795.82	1673.19
796.00	1609.70
796.17	1689.57
796.34	1708.01
796.52	1648.61
796.69	1722.34
796.87	1665.00
797.04	1738.73
797.22	1710.05
797.39	1667.05
797.57	1679.33
797.74	1761.25
797.92	1667.05
798.09	1695.72
798.27	1730.53
798.44	1726.44
798.62	1705.96
798.79	1773.54
798.96	1708.01
799.14	1714.15
799.31	1863.65
799.49	1685.48
799.66	1681.38
799.84	1636.33
800.01	1593.32
800.19	1730.53
800.36	1542.12
800.53	1654.76
800.71	1759.21
800.88	1738.73
801.06	1730.53
801.23	1624.04
801.41	1687.53
801.58	1667.05
801.75	1675.24
801.93	1679.33
802.10	1683.43
802.28	1687.53
802.45	1734.63
802.63	1697.77
802.80	1732.58
802.97	1607.66
803.15	1679.33
803.32	1687.53
803.50	1611.75
803.67	1599.46
803.84	1636.33
804.02	1687.53
804.19	1681.38
804.37	1632.23
804.54	1626.09
804.71	1644.52
804.89	1691.62
805.06	1648.61
805.24	1695.72
805.41	1607.66
805.58	1667.05
805.76	1863.65
805.93	1712.10
806.10	1796.07
806.28	1763.30
806.45	1671.14
806.63	1777.64
806.80	1720.29
806.97	1695.72
807.15	1724.39
807.32	1636.33
807.49	1759.21
807.67	1611.75
807.84	1695.72
808.01	1656.81
808.19	1773.54
808.36	1779.68
808.54	1675.24
808.71	1697.77
808.88	1720.29
809.06	1730.53
809.23	1779.68
809.40	1636.33
809.58	1740.77
809.75	1738.73
809.92	1583.08
810.10	1802.21
810.27	1654.76
810.44	1722.34
810.62	1691.62
810.79	1654.76
810.96	1681.38
811.14	1685.48
811.31	1697.77
811.48	1730.53
811.66	1716.20
811.83	1746.92
812.00	1722.34
812.18	1765.35
812.35	1830.88
812.52	1634.28
812.69	1712.10
812.87	1701.86
813.04	1652.71
813.21	1654.76
813.39	1603.56
813.56	1675.24
813.73	1771.49
813.91	1570.79
814.08	1736.68
814.25	1615.85
814.42	1656.81
814.60	1662.95
814.77	1701.86
814.94	1681.38
815.12	1724.39
815.29	1837.03
815.46	1660.90
815.63	1804.26
815.81	1691.62
815.98	1636.33
816.15	1748.97
816.33	1761.25
816.50	1767.40
816.67	1746.92
816.84	1656.81
817.02	1613.80
817.19	1695.72
817.36	1710.05
817.53	1769.44
817.71	1667.05
817.88	1732.58
818.05	1640.42
818.22	1685.48
818.40	1779.68
818.57	1669.09
818.74	1718.25
818.91	1593.32
819.09	1699.81
819.26	1771.49
819.43	1591.27
819.60	1689.57
819.78	1665.00
819.95	1877.99
820.12	1675.24
820.29	1746.92
820.47	1722.34
820.64	1642.47
820.81	1648.61
820.98	1658.85
821.15	1681.38
821.33	1667.05
821.50	1572.84
821.67	1738.73
821.84	1705.96
822.02	1632.23
822.19	1679.33
822.36	1667.05
822.53	1665.00
822.70	1648.61
822.88	1613.80
823.05	1763.30
823.22	1656.81
823.39	1787.88
823.56	1710.05
823.74	1769.44
823.91	1675.24
824.08	1642.47
824.25	1583.08
824.42	1714.15
824.60	1626.09
824.77	1708.01
824.94	1669.09
825.11	1732.58
825.28	1593.32
825.45	1628.14
825.63	1712.10
825.80	1636.33
825.97	1775.59
826.14	1708.01
826.31	1572.84
826.48	1697.77
826.66	1703.91
826.83	1583.08
827.00	1665.00
827.17	1673.19
827.34	1597.42
827.51	1667.05
827.69	1683.43
827.86	1699.81
828.03	1679.33
828.20	1693.67
828.37	1617.90
828.54	1767.40
828.71	1697.77
828.89	1751.01
829.06	1687.53
829.23	1804.26
829.40	1673.19
829.57	1636.33
829.74	1800.16
829.91	1724.39
830.09	1669.09
830.26	1755.11
830.43	1751.01
830.60	1601.51
830.77	1765.35
830.94	1722.34
831.11	1679.33
831.28	1693.67
831.46	1794.02
831.63	1656.81
831.80	1722.34
831.97	1619.94
832.14	1619.94
832.31	1738.73
832.48	1724.39
832.65	1665.00
832.82	1683.43
832.99	1787.88
833.17	1652.71
833.34	1808.36
833.51	1650.66
833.68	1689.57
833.85	1705.96
834.02	1720.29
834.19	1632.23
834.36	1699.81
834.53	1599.46
834.70	1759.21
834.87	1814.50
835.04	1681.38
835.22	1634.28
835.39	1658.85
835.56	1662.95
835.73	1658.85
835.90	1736.68
836.07	1658.85
836.24	1699.81
836.41	1716.20
836.58	1566.70
836.75	1671.14
836.92	1728.49
837.09	1621.99
837.26	1751.01
837.43	1693.67
837.60	1769.44
837.77	1710.05
837.94	1812.45
838.12	1683.43
838.29	1734.63
838.46	1671.14
838.63	1595.37
838.80	1812.45
838.97	1751.01
839.14	1638.38
839.31	1742.82
839.48	1791.97
839.65	1675.24
839.82	1765.35
839.99	1720.29
840.16	1636.33
840.33	1621.99
840.50	1738.73
840.67	1656.81
840.84	1619.94
841.01	1697.77
841.18	1652.71
841.35	1673.19
841.52	1759.21
841.69	1751.01
841.86	1705.96
842.03	1677.29
842.20	1722.34
842.37	1699.81
842.54	1687.53
842.71	1660.90
842.88	1554.41
843.05	1753.06
843.22	1685.48
843.39	1685.48
843.56	1665.00
843.73	1632.23
843.90	1701.86
844.07	1748.97
844.24	1714.15
844.41	1800.16
844.58	1724.39
844.75	1728.49
844.92	1748.97
845.09	1665.00
845.26	1683.43
845.43	1716.20
845.60	1636.33
845.77	1665.00
845.94	1697.77
846.10	1734.63
846.27	1626.09
846.44	1697.77
846.61	1671.14
846.78	1685.48
846.95	1748.97
847.12	1689.57
847.29	1746.92
847.46	1710.05
847.63	1732.58
847.80	1576.94
847.97	1644.52
848.14	1822.69
848.31	1687.53
848.48	1654.76
848.65	1728.49
848.82	1779.68
848.98	1804.26
849.15	1732.58
849.32	1714.15
849.49	1781.73
849.66	1712.10
849.83	1679.33
850.00	1705.96
850.17	1697.77
850.34	1667.05
850.51	1681.38
850.68	1662.95
850.85	1751.01
851.01	1662.95
851.18	1761.25
851.35	1671.14
851.52	1705.96
851.69	1820.64
851.86	1603.56
852.03	1703.91
852.20	1703.91
852.37	1681.38
852.53	1638.38
852.70	1730.53
852.87	1734.63
853.04	1771.49
853.21	1636.33
853.38	1820.64
853.55	1708.01
853.72	1732.58
853.89	1601.51
854.05	1734.63
854.22	1710.05
854.39	1730.53
854.56	1660.90
854.73	1724.39
854.90	1662.95
855.07	1689.57
855.23	1626.09
855.40	1677.29
855.57	1697.77
855.74	1587.18
855.91	1865.70
856.08	1613.80
856.25	1660.90
856.41	1665.00
856.58	1652.71
856.75	1763.30
856.92	1636.33
857.09	1771.49
857.26	1591.27
857.42	1693.67
857.59	1669.09
857.76	1644.52
857.93	1755.11
858.10	1773.54
858.27	1593.32
858.43	1679.33
858.60	1665.00
858.77	1607.66
858.94	1718.25
859.11	1796.07
859.27	1689.57
859.44	1681.38
859.61	1781.73
859.78	1697.77
859.95	1724.39
860.12	1726.44
860.28	1791.97
860.45	1740.77
860.62	1693.67
860.79	1726.44
860.95	1656.81
861.12	1689.57
861.29	1648.61
861.46	1611.75
861.63	1699.81
861.79	1646.57
861.96	1626.09
862.13	1669.09
862.30	1705.96
862.47	1658.85
862.63	1675.24
862.80	1746.92
862.97	1748.97
863.14	1722.34
863.30	1751.01
863.47	1607.66
863.64	1701.86
863.81	1697.77
863.97	1650.66
864.14	1703.91
864.31	1773.54
864.48	1800.16
864.65	1624.04
864.81	1728.49
864.98	1769.44
865.15	1646.57
865.32	1761.25
865.48	1722.34
865.65	1710.05
865.82	1601.51
865.98	1751.01
866.15	1748.97
866.32	1703.91
866.49	1722.34
866.65	1746.92
866.82	1669.09
866.99	1677.29
867.16	1628.14
867.32	1710.05
867.49	1615.85
867.66	1697.77
867.83	1689.57
867.99	1581.03
868.16	1648.61
868.33	1673.19
868.49	1708.01
868.66	1660.90
868.83	1771.49
868.99	1697.77
869.16	1716.20
869.33	1740.77
869.50	1701.86
869.66	1787.88
869.83	1681.38
870.00	1691.62
870.16	1808.36
870.33	1779.68
870.50	1755.11
870.66	1716.20
870.83	1787.88
871.00	1691.62
871.17	1708.01
871.33	1767.40
871.50	1718.25
871.67	1746.92
871.83	1617.90
872.00	1787.88
872.17	1716.20
872.33	1798.12
872.50	1693.67
872.67	1669.09
872.83	1689.57
873.00	1759.21
873.17	1765.35
873.33	1810.40
873.50	1716.20
873.67	1665.00
873.83	1656.81
874.00	1798.12
874.16	1738.73
874.33	1648.61
874.50	1675.24
874.66	1728.49
874.83	1654.76
875.00	1656.81
875.16	1685.48
875.33	1765.35
875.50	1585.13
875.66	1589.22
875.83	1695.72
875.99	1757.16
876.16	1656.81
876.33	1605.61
876.49	1685.48
876.66	1714.15
876.83	1615.85
876.99	1570.79
877.16	1662.95
877.32	1681.38
877.49	1607.66
877.66	1681.38
877.82	1765.35
877.99	1734.63
878.15	1677.29
878.32	1691.62
878.49	1763.30
878.65	1751.01
878.82	1665.00
878.98	1648.61
879.15	1710.05
879.32	1736.68
879.48	1681.38
879.65	1644.52
879.81	1693.67
879.98	1640.42
880.15	1673.19
880.31	1726.44
880.48	1648.61
880.64	1765.35
880.81	1763.30
880.97	1804.26
881.14	1779.68
881.31	1615.85
881.47	1794.02
881.64	1636.33
881.80	1576.94
881.97	1734.63
882.13	1771.49
882.30	1640.42
882.47	1597.42
882.63	1658.85
882.80	1667.05
882.96	1673.19
883.13	1787.88
883.29	1769.44
883.46	1710.05
883.62	1781.73
883.79	1712.10
883.95	1767.40
884.12	1646.57
884.29	1781.73
884.45	1746.92
884.62	1736.68
884.78	1617.90
884.95	1804.26
885.11	1677.29
885.28	1718.25
885.44	1632.23
885.61	1714.15
885.77	1771.49
885.94	1701.86
886.10	1673.19
886.27	1689.57
886.43	1783.78
886.60	1748.97
886.76	1658.85
886.93	1601.51
887.09	1710.05
887.26	1566.70
887.42	1671.14
887.59	1748.97
887.75	1814.50
887.92	1732.58
888.08	1703.91
888.25	1746.92
888.41	1767.40
888.58	1648.61
888.74	1677.29
888.91	1638.38
>>>>>End Processed Spectral Data<<<<<
