SpectraSuite Data File
++++++++++++++++++++++++++++++++++++
Date: Mon Jun 06 16:48:17 CEST 2016
User: root
Dark Spectrum Present: No
Reference Spectrum Present: No
Number of Sampled Component Spectra: 1
Spectrometers: USB4C02835
Integration Time (usec): 100000 (USB4C02835)
Spectra Averaged: 1 (USB4C02835)
Boxcar Smoothing: 0 (USB4C02835)
Correct for Electrical Dark: No (USB4C02835)
Strobe/Lamp Enabled: No (USB4C02835)
Correct for Detector Non-linearity: No (USB4C02835)
Correct for Stray Light: No (USB4C02835)
Number of Pixels in Processed Spectrum: 3648
>>>>>Begin Processed Spectral Data<<<<<
177.47	1503.21
177.69	1503.21
177.91	1503.21
178.13	1546.22
178.36	1513.45
178.58	1591.27
178.80	1681.38
179.02	1650.66
179.24	1660.90
179.46	1757.16
179.68	1777.64
179.90	1671.14
180.13	1689.57
180.35	1705.96
180.57	1746.92
180.79	1767.40
181.01	1732.58
181.23	1787.88
181.45	1738.73
181.67	1679.33
181.90	1687.53
182.12	1677.29
182.34	1601.51
182.56	1781.73
182.78	1742.82
183.00	1701.86
183.22	1677.29
183.44	1656.81
183.66	1820.64
183.89	1814.50
184.11	1765.35
184.33	1724.39
184.55	1765.35
184.77	1746.92
184.99	1654.76
185.21	1699.81
185.43	1816.55
185.65	1656.81
185.87	1708.01
186.10	1787.88
186.32	1843.17
186.54	1794.02
186.76	1751.01
186.98	1783.78
187.20	1603.56
187.42	1626.09
187.64	1769.44
187.86	1824.74
188.08	1681.38
188.30	1656.81
188.52	1646.57
188.75	1820.64
188.97	1822.69
189.19	1689.57
189.41	1742.82
189.63	1716.20
189.85	1716.20
190.07	1613.80
190.29	1599.46
190.51	1716.20
190.73	1697.77
190.95	1828.84
191.17	1716.20
191.39	1636.33
191.61	1759.21
191.84	1730.53
192.06	1734.63
192.28	1626.09
192.50	1841.12
192.72	1744.87
192.94	1714.15
193.16	1771.49
193.38	1720.29
193.60	1662.95
193.82	1693.67
194.04	1789.92
194.26	1689.57
194.48	1738.73
194.70	1648.61
194.92	1640.42
195.14	1802.21
195.36	1671.14
195.58	1757.16
195.80	1646.57
196.02	1767.40
196.24	1646.57
196.46	1769.44
196.69	1603.56
196.91	1796.07
197.13	1720.29
197.35	1642.47
197.57	1757.16
197.79	1771.49
198.01	1656.81
198.23	1734.63
198.45	1705.96
198.67	1658.85
198.89	1665.00
199.11	1742.82
199.33	1693.67
199.55	1681.38
199.77	1740.77
199.99	1732.58
200.21	1761.25
200.43	1697.77
200.65	1632.23
200.87	1628.14
201.09	1652.71
201.31	1708.01
201.53	1775.59
201.75	1730.53
201.97	1728.49
202.19	1712.10
202.41	1773.54
202.63	1853.41
202.85	1773.54
203.07	1748.97
203.29	1632.23
203.51	1665.00
203.73	1710.05
203.95	1808.36
204.17	1665.00
204.39	1730.53
204.61	1689.57
204.83	1675.24
205.05	1804.26
205.27	1738.73
205.49	1830.88
205.71	1714.15
205.93	1638.38
206.15	1693.67
206.37	1742.82
206.59	1726.44
206.81	1654.76
207.03	1652.71
207.25	1638.38
207.47	1808.36
207.69	1701.86
207.91	1785.83
208.13	1755.11
208.34	1660.90
208.56	1613.80
208.78	1691.62
209.00	1660.90
209.22	1726.44
209.44	1742.82
209.66	1621.99
209.88	1714.15
210.10	1644.52
210.32	1646.57
210.54	1738.73
210.76	1720.29
210.98	1755.11
211.20	1558.50
211.42	1748.97
211.64	1699.81
211.86	1746.92
212.08	1769.44
212.30	1730.53
212.52	1675.24
212.74	1757.16
212.96	1708.01
213.17	1744.87
213.39	1738.73
213.61	1791.97
213.83	1677.29
214.05	1710.05
214.27	1742.82
214.49	1640.42
214.71	1624.04
214.93	1763.30
215.15	1712.10
215.37	1681.38
215.59	1630.18
215.81	1728.49
216.03	1765.35
216.24	1722.34
216.46	1708.01
216.68	1748.97
216.90	1759.21
217.12	1785.83
217.34	1636.33
217.56	1794.02
217.78	1779.68
218.00	1673.19
218.22	1675.24
218.44	1730.53
218.66	1730.53
218.87	1783.78
219.09	1593.32
219.31	1675.24
219.53	1755.11
219.75	1734.63
219.97	1656.81
220.19	1744.87
220.41	1736.68
220.63	1851.36
220.85	1667.05
221.06	1619.94
221.28	1705.96
221.50	1712.10
221.72	1683.43
221.94	1697.77
222.16	1736.68
222.38	1767.40
222.60	1808.36
222.82	1675.24
223.03	1662.95
223.25	1640.42
223.47	1693.67
223.69	1798.12
223.91	1810.40
224.13	1656.81
224.35	1648.61
224.57	1812.45
224.78	1748.97
225.00	1675.24
225.22	1667.05
225.44	1722.34
225.66	1720.29
225.88	1732.58
226.10	1718.25
226.32	1679.33
226.53	1787.88
226.75	1640.42
226.97	1681.38
227.19	1648.61
227.41	1765.35
227.63	1638.38
227.85	1562.60
228.06	1718.25
228.28	1714.15
228.50	1767.40
228.72	1677.29
228.94	1665.00
229.16	1615.85
229.37	1632.23
229.59	1687.53
229.81	1734.63
230.03	1744.87
230.25	1695.72
230.47	1652.71
230.69	1701.86
230.90	1814.50
231.12	1722.34
231.34	1701.86
231.56	1746.92
231.78	1634.28
232.00	1753.06
232.21	1712.10
232.43	1757.16
232.65	1628.14
232.87	1693.67
233.09	1710.05
233.30	1736.68
233.52	1757.16
233.74	1673.19
233.96	1642.47
234.18	1669.09
234.40	1689.57
234.61	1832.93
234.83	1628.14
235.05	1540.07
235.27	1804.26
235.49	1875.94
235.70	1708.01
235.92	1775.59
236.14	1667.05
236.36	1884.13
236.58	1644.52
236.79	1732.58
237.01	1740.77
237.23	1718.25
237.45	1814.50
237.67	1591.27
237.88	1685.48
238.10	1849.32
238.32	1759.21
238.54	1722.34
238.76	1652.71
238.97	1660.90
239.19	1607.66
239.41	1757.16
239.63	1845.22
239.85	1648.61
240.06	1689.57
240.28	1665.00
240.50	1734.63
240.72	1736.68
240.93	1630.18
241.15	1726.44
241.37	1669.09
241.59	1757.16
241.81	1705.96
242.02	1662.95
242.24	1726.44
242.46	1769.44
242.68	1646.57
242.89	1722.34
243.11	1701.86
243.33	1705.96
243.55	1761.25
243.76	1640.42
243.98	1697.77
244.20	1701.86
244.42	1740.77
244.64	1693.67
244.85	1667.05
245.07	1650.66
245.29	1724.39
245.51	1691.62
245.72	1722.34
245.94	1798.12
246.16	1687.53
246.38	1722.34
246.59	1601.51
246.81	1617.90
247.03	1714.15
247.24	1583.08
247.46	1603.56
247.68	1755.11
247.90	1710.05
248.11	1765.35
248.33	1763.30
248.55	1693.67
248.77	1660.90
248.98	1808.36
249.20	1867.75
249.42	1650.66
249.64	1804.26
249.85	1714.15
250.07	1628.14
250.29	1783.78
250.50	1714.15
250.72	1576.94
250.94	1720.29
251.16	1814.50
251.37	1798.12
251.59	1769.44
251.81	1746.92
252.02	1816.55
252.24	1642.47
252.46	1806.31
252.68	1621.99
252.89	1634.28
253.11	1685.48
253.33	1853.41
253.54	1812.45
253.76	1716.20
253.98	1746.92
254.20	1742.82
254.41	1652.71
254.63	1632.23
254.85	1634.28
255.06	1734.63
255.28	1703.91
255.50	1718.25
255.71	1728.49
255.93	1665.00
256.15	1662.95
256.36	1693.67
256.58	1660.90
256.80	1718.25
257.02	1767.40
257.23	1681.38
257.45	1714.15
257.67	1767.40
257.88	1689.57
258.10	1660.90
258.32	1716.20
258.53	1630.18
258.75	1763.30
258.97	1638.38
259.18	1757.16
259.40	1648.61
259.62	1875.94
259.83	1753.06
260.05	1681.38
260.27	1939.43
260.48	1779.68
260.70	1652.71
260.92	1705.96
261.13	1716.20
261.35	1769.44
261.57	1771.49
261.78	1662.95
262.00	1673.19
262.22	1658.85
262.43	1619.94
262.65	1708.01
262.86	1617.90
263.08	1834.98
263.30	1681.38
263.51	1644.52
263.73	1685.48
263.95	1804.26
264.16	1652.71
264.38	1679.33
264.60	1693.67
264.81	1701.86
265.03	1771.49
265.25	1732.58
265.46	1685.48
265.68	1689.57
265.89	1787.88
266.11	1611.75
266.33	1787.88
266.54	1759.21
266.76	1740.77
266.98	1755.11
267.19	1722.34
267.41	1841.12
267.62	1740.77
267.84	1675.24
268.06	1705.96
268.27	1724.39
268.49	1818.60
268.70	1736.68
268.92	1681.38
269.14	1593.32
269.35	1605.61
269.57	1671.14
269.79	1751.01
270.00	1689.57
270.22	1847.27
270.43	1634.28
270.65	1607.66
270.87	1736.68
271.08	1732.58
271.30	1769.44
271.51	1755.11
271.73	1740.77
271.95	1736.68
272.16	1738.73
272.38	1681.38
272.59	1697.77
272.81	1818.60
273.02	1636.33
273.24	1748.97
273.46	1753.06
273.67	1640.42
273.89	1656.81
274.10	1714.15
274.32	1726.44
274.54	1734.63
274.75	1624.04
274.97	1712.10
275.18	1691.62
275.40	1734.63
275.61	1728.49
275.83	1728.49
276.05	1724.39
276.26	1699.81
276.48	1804.26
276.69	1718.25
276.91	1726.44
277.12	1769.44
277.34	1763.30
277.55	1662.95
277.77	1716.20
277.99	1691.62
278.20	1630.18
278.42	1644.52
278.63	1656.81
278.85	1671.14
279.06	1658.85
279.28	1771.49
279.49	1765.35
279.71	1738.73
279.93	1689.57
280.14	1722.34
280.36	1646.57
280.57	1753.06
280.79	1738.73
281.00	1681.38
281.22	1669.09
281.43	1775.59
281.65	1617.90
281.86	1718.25
282.08	1736.68
282.29	1759.21
282.51	1646.57
282.73	1599.46
282.94	1644.52
283.16	1800.16
283.37	1822.69
283.59	1789.92
283.80	1675.24
284.02	1701.86
284.23	1726.44
284.45	1601.51
284.66	1605.61
284.88	1681.38
285.09	1708.01
285.31	1665.00
285.52	1728.49
285.74	1546.22
285.95	1767.40
286.17	1673.19
286.38	1767.40
286.60	1724.39
286.81	1677.29
287.03	1753.06
287.24	1677.29
287.46	1751.01
287.67	1765.35
287.89	1839.08
288.10	1734.63
288.32	1699.81
288.53	1826.79
288.75	1705.96
288.96	1677.29
289.18	1728.49
289.39	1710.05
289.61	1742.82
289.82	1867.75
290.04	1822.69
290.25	1691.62
290.47	1748.97
290.68	1650.66
290.90	1732.58
291.11	1669.09
291.33	1769.44
291.54	1685.48
291.76	1718.25
291.97	1763.30
292.18	1703.91
292.40	1681.38
292.61	1662.95
292.83	1880.04
293.04	1781.73
293.26	1738.73
293.47	1689.57
293.69	1628.14
293.90	1791.97
294.12	1800.16
294.33	1746.92
294.55	1677.29
294.76	1726.44
294.97	1755.11
295.19	1834.98
295.40	1650.66
295.62	1703.91
295.83	1703.91
296.05	1726.44
296.26	1773.54
296.48	1687.53
296.69	1708.01
296.90	1683.43
297.12	1757.16
297.33	1718.25
297.55	1662.95
297.76	1748.97
297.98	1771.49
298.19	1763.30
298.41	1730.53
298.62	1701.86
298.83	1773.54
299.05	1671.14
299.26	1681.38
299.48	1574.89
299.69	1767.40
299.90	1722.34
300.12	1642.47
300.33	1699.81
300.55	1703.91
300.76	1730.53
300.98	1687.53
301.19	1732.58
301.40	1665.00
301.62	1662.95
301.83	1763.30
302.05	1673.19
302.26	1718.25
302.47	1710.05
302.69	1658.85
302.90	1689.57
303.12	1621.99
303.33	1853.41
303.54	1875.94
303.76	1640.42
303.97	1705.96
304.19	1810.40
304.40	1632.23
304.61	1693.67
304.83	1841.12
305.04	1771.49
305.26	1775.59
305.47	1634.28
305.68	1718.25
305.90	1658.85
306.11	1800.16
306.33	1644.52
306.54	1769.44
306.75	1671.14
306.97	1689.57
307.18	1699.81
307.39	1683.43
307.61	1800.16
307.82	1716.20
308.04	1767.40
308.25	1716.20
308.46	1722.34
308.68	1689.57
308.89	1679.33
309.10	1832.93
309.32	1699.81
309.53	1685.48
309.74	1746.92
309.96	1673.19
310.17	1794.02
310.39	1689.57
310.60	1826.79
310.81	1648.61
311.03	1685.48
311.24	1746.92
311.45	1742.82
311.67	1744.87
311.88	1699.81
312.09	1560.55
312.31	1724.39
312.52	1697.77
312.73	1665.00
312.95	1652.71
313.16	1730.53
313.37	1705.96
313.59	1732.58
313.80	1755.11
314.01	1769.44
314.23	1611.75
314.44	1624.04
314.65	1677.29
314.87	1697.77
315.08	1683.43
315.29	1771.49
315.51	1628.14
315.72	1607.66
315.93	1806.31
316.15	1785.83
316.36	1675.24
316.57	1705.96
316.79	1726.44
317.00	1714.15
317.21	1685.48
317.43	1689.57
317.64	1718.25
317.85	1617.90
318.07	1730.53
318.28	1689.57
318.49	1857.51
318.70	1939.43
318.92	1859.56
319.13	1808.36
319.34	1873.89
319.56	1796.07
319.77	1863.65
319.98	1738.73
320.20	1767.40
320.41	1701.86
320.62	1798.12
320.83	1624.04
321.05	1796.07
321.26	1751.01
321.47	1667.05
321.69	1775.59
321.90	1634.28
322.11	1712.10
322.32	1695.72
322.54	1763.30
322.75	1703.91
322.96	1818.60
323.18	1632.23
323.39	1656.81
323.60	1671.14
323.81	1746.92
324.03	1710.05
324.24	1667.05
324.45	1777.64
324.66	1693.67
324.88	1759.21
325.09	1779.68
325.30	1748.97
325.52	1681.38
325.73	1734.63
325.94	1697.77
326.15	1624.04
326.37	1652.71
326.58	1812.45
326.79	1755.11
327.00	1671.14
327.22	1716.20
327.43	1716.20
327.64	1619.94
327.85	1767.40
328.07	1751.01
328.28	1755.11
328.49	1628.14
328.70	1736.68
328.92	1765.35
329.13	1701.86
329.34	1794.02
329.55	1822.69
329.76	1773.54
329.98	1787.88
330.19	1757.16
330.40	1744.87
330.61	1656.81
330.83	1800.16
331.04	1658.85
331.25	1656.81
331.46	1673.19
331.68	1621.99
331.89	1789.92
332.10	1691.62
332.31	1607.66
332.52	1697.77
332.74	1882.08
332.95	1640.42
333.16	1755.11
333.37	1734.63
333.58	1624.04
333.80	1789.92
334.01	1615.85
334.22	1689.57
334.43	1617.90
334.64	1691.62
334.86	1667.05
335.07	1703.91
335.28	1830.88
335.49	1642.47
335.70	1789.92
335.92	1777.64
336.13	1910.75
336.34	1697.77
336.55	1738.73
336.76	1712.10
336.98	1558.50
337.19	1673.19
337.40	1767.40
337.61	1867.75
337.82	1701.86
338.04	1796.07
338.25	1564.65
338.46	1695.72
338.67	1677.29
338.88	1693.67
339.09	1728.49
339.31	1714.15
339.52	1720.29
339.73	1724.39
339.94	1738.73
340.15	1748.97
340.36	1671.14
340.58	1675.24
340.79	1656.81
341.00	1734.63
341.21	1615.85
341.42	1818.60
341.63	1738.73
341.85	1734.63
342.06	1683.43
342.27	1679.33
342.48	1765.35
342.69	1621.99
342.90	1865.70
343.12	1705.96
343.33	1671.14
343.54	1746.92
343.75	1763.30
343.96	1699.81
344.17	1685.48
344.38	1763.30
344.60	1695.72
344.81	1677.29
345.02	1734.63
345.23	1740.77
345.44	1718.25
345.65	1746.92
345.86	1708.01
346.07	1642.47
346.29	1677.29
346.50	1708.01
346.71	1708.01
346.92	1800.16
347.13	1755.11
347.34	1751.01
347.55	1724.39
347.76	1728.49
347.98	1585.13
348.19	1716.20
348.40	1783.78
348.61	1628.14
348.82	1767.40
349.03	1705.96
349.24	1722.34
349.45	1806.31
349.66	1568.74
349.88	1722.34
350.09	1675.24
350.30	1830.88
350.51	1804.26
350.72	1740.77
350.93	1742.82
351.14	1673.19
351.35	1734.63
351.56	1681.38
351.77	1669.09
351.99	1703.91
352.20	1859.56
352.41	1812.45
352.62	1591.27
352.83	1656.81
353.04	1732.58
353.25	1699.81
353.46	1744.87
353.67	1708.01
353.88	1650.66
354.09	1751.01
354.30	1718.25
354.52	1742.82
354.73	1732.58
354.94	1632.23
355.15	1636.33
355.36	1796.07
355.57	1648.61
355.78	1748.97
355.99	1718.25
356.20	1673.19
356.41	1775.59
356.62	1720.29
356.83	1710.05
357.04	1722.34
357.25	1673.19
357.46	1691.62
357.68	1642.47
357.89	1716.20
358.10	1687.53
358.31	1609.70
358.52	1720.29
358.73	1613.80
358.94	1658.85
359.15	1683.43
359.36	1732.58
359.57	1751.01
359.78	1701.86
359.99	1753.06
360.20	1640.42
360.41	1685.48
360.62	1757.16
360.83	1710.05
361.04	1769.44
361.25	1826.79
361.46	1820.64
361.67	1667.05
361.88	1759.21
362.09	1728.49
362.30	1687.53
362.51	1634.28
362.72	1650.66
362.93	1767.40
363.14	1740.77
363.35	1640.42
363.56	1605.61
363.78	1824.74
363.99	1728.49
364.20	1650.66
364.41	1683.43
364.62	1781.73
364.83	1730.53
365.04	1681.38
365.25	1703.91
365.46	1781.73
365.67	1607.66
365.88	1660.90
366.09	1708.01
366.30	1656.81
366.51	1699.81
366.72	1712.10
366.93	1751.01
367.14	1695.72
367.35	1763.30
367.56	1714.15
367.77	1759.21
367.98	1751.01
368.18	1746.92
368.39	1679.33
368.60	1644.52
368.81	1732.58
369.02	1718.25
369.23	1665.00
369.44	1650.66
369.65	1689.57
369.86	1732.58
370.07	1818.60
370.28	1650.66
370.49	1800.16
370.70	1746.92
370.91	1638.38
371.12	1636.33
371.33	1705.96
371.54	1701.86
371.75	1814.50
371.96	1568.74
372.17	1746.92
372.38	1662.95
372.59	1771.49
372.80	1619.94
373.01	1705.96
373.22	1660.90
373.43	1744.87
373.64	1689.57
373.85	1771.49
374.06	1798.12
374.26	1796.07
374.47	1746.92
374.68	1804.26
374.89	1665.00
375.10	1767.40
375.31	1843.17
375.52	1759.21
375.73	1738.73
375.94	1728.49
376.15	1775.59
376.36	1718.25
376.57	1648.61
376.78	1710.05
376.99	1722.34
377.20	1767.40
377.40	1730.53
377.61	1845.22
377.82	1701.86
378.03	1800.16
378.24	1769.44
378.45	1660.90
378.66	1765.35
378.87	1677.29
379.08	1597.42
379.29	1636.33
379.50	1751.01
379.71	1755.11
379.91	1746.92
380.12	1619.94
380.33	1740.77
380.54	1714.15
380.75	1718.25
380.96	1687.53
381.17	1787.88
381.38	1662.95
381.59	1800.16
381.80	1669.09
382.00	1925.09
382.21	1693.67
382.42	1806.31
382.63	1845.22
382.84	1763.30
383.05	1742.82
383.26	1814.50
383.47	1679.33
383.68	1769.44
383.88	1730.53
384.09	1728.49
384.30	1804.26
384.51	1783.78
384.72	1673.19
384.93	1675.24
385.14	1660.90
385.35	1765.35
385.55	1589.22
385.76	1849.32
385.97	1708.01
386.18	1695.72
386.39	1679.33
386.60	1640.42
386.81	1769.44
387.02	1648.61
387.22	1677.29
387.43	1787.88
387.64	1775.59
387.85	1853.41
388.06	2168.80
388.27	4296.64
388.48	6684.57
388.68	8060.80
388.89	9537.39
389.10	9555.82
389.31	8484.73
389.52	7413.65
389.73	6739.87
389.93	6162.34
390.14	5871.53
390.35	5140.40
390.56	4489.15
390.77	3887.04
390.98	2971.60
391.18	2557.91
391.39	2080.74
391.60	1896.42
391.81	1771.49
392.02	1734.63
392.23	1843.17
392.43	1673.19
392.64	1796.07
392.85	1740.77
393.06	1834.98
393.27	1675.24
393.47	1654.76
393.68	1767.40
393.89	1759.21
394.10	1849.32
394.31	1621.99
394.52	1656.81
394.72	1662.95
394.93	1849.32
395.14	1708.01
395.35	1736.68
395.56	1705.96
395.76	1742.82
395.97	1771.49
396.18	1828.84
396.39	1777.64
396.60	2013.15
396.80	1867.75
397.01	1945.57
397.22	1808.36
397.43	1912.80
397.64	1744.87
397.84	1759.21
398.05	1890.28
398.26	1796.07
398.47	1767.40
398.67	1759.21
398.88	1689.57
399.09	1710.05
399.30	1695.72
399.51	1738.73
399.71	1712.10
399.92	1767.40
400.13	1746.92
400.34	1757.16
400.54	1759.21
400.75	1814.50
400.96	1748.97
401.17	1828.84
401.37	1728.49
401.58	1658.85
401.79	1710.05
402.00	1880.04
402.21	1896.42
402.41	2013.15
402.62	1988.58
402.83	2009.06
403.04	2031.58
403.24	2047.97
403.45	1884.13
403.66	1943.52
403.87	1871.84
404.07	1882.08
404.28	1877.99
404.49	1925.09
404.70	1748.97
404.90	1779.68
405.11	1708.01
405.32	1769.44
405.52	1689.57
405.73	1607.66
405.94	1628.14
406.15	1724.39
406.35	1812.45
406.56	1691.62
406.77	1773.54
406.98	1648.61
407.18	1630.18
407.39	1703.91
407.60	1763.30
407.80	1712.10
408.01	1650.66
408.22	1767.40
408.43	1730.53
408.63	1796.07
408.84	1744.87
409.05	1728.49
409.25	1685.48
409.46	1599.46
409.67	1683.43
409.88	1732.58
410.08	1689.57
410.29	1701.86
410.50	1736.68
410.70	1669.09
410.91	1662.95
411.12	1748.97
411.32	1673.19
411.53	1716.20
411.74	1822.69
411.95	1769.44
412.15	1791.97
412.36	1808.36
412.57	1796.07
412.77	1873.89
412.98	1714.15
413.19	1693.67
413.39	1773.54
413.60	1726.44
413.81	1832.93
414.01	1697.77
414.22	1791.97
414.43	1708.01
414.63	1751.01
414.84	1757.16
415.05	1683.43
415.25	1624.04
415.46	1800.16
415.67	1628.14
415.87	1773.54
416.08	1695.72
416.29	1671.14
416.49	1783.78
416.70	1685.48
416.91	1644.52
417.11	1669.09
417.32	1787.88
417.53	1781.73
417.73	1769.44
417.94	1767.40
418.15	1701.86
418.35	1734.63
418.56	1660.90
418.77	1867.75
418.97	1759.21
419.18	1714.15
419.38	1603.56
419.59	1683.43
419.80	1777.64
420.00	1767.40
420.21	1724.39
420.42	1740.77
420.62	1755.11
420.83	1695.72
421.04	1757.16
421.24	1736.68
421.45	1855.46
421.65	1718.25
421.86	1648.61
422.07	1722.34
422.27	1691.62
422.48	1683.43
422.69	1652.71
422.89	1757.16
423.10	1703.91
423.30	1693.67
423.51	1695.72
423.72	1720.29
423.92	1759.21
424.13	1687.53
424.33	1708.01
424.54	1742.82
424.75	1742.82
424.95	1718.25
425.16	1751.01
425.36	1640.42
425.57	1722.34
425.78	1800.16
425.98	1771.49
426.19	1710.05
426.39	1650.66
426.60	1759.21
426.81	1701.86
427.01	1693.67
427.22	1687.53
427.42	1638.38
427.63	1642.47
427.83	1771.49
428.04	1775.59
428.25	1779.68
428.45	1810.40
428.66	1820.64
428.86	1755.11
429.07	1683.43
429.28	1800.16
429.48	1724.39
429.69	1642.47
429.89	1789.92
430.10	1617.90
430.30	1730.53
430.51	1738.73
430.71	1669.09
430.92	1794.02
431.13	1724.39
431.33	1734.63
431.54	1757.16
431.74	1751.01
431.95	1869.80
432.15	1609.70
432.36	1705.96
432.56	1734.63
432.77	1791.97
432.98	1869.80
433.18	1708.01
433.39	1710.05
433.59	1714.15
433.80	1812.45
434.00	1896.42
434.21	1722.34
434.41	1648.61
434.62	1800.16
434.82	1652.71
435.03	1583.08
435.23	1744.87
435.44	1609.70
435.64	1730.53
435.85	1708.01
436.06	1751.01
436.26	1742.82
436.47	1791.97
436.67	1728.49
436.88	1699.81
437.08	1804.26
437.29	1748.97
437.49	1691.62
437.70	1773.54
437.90	1714.15
438.11	1753.06
438.31	1875.94
438.52	1925.09
438.72	1873.89
438.93	1855.46
439.13	1708.01
439.34	1857.51
439.54	1783.78
439.75	1744.87
439.95	1742.82
440.16	1705.96
440.36	1773.54
440.57	1812.45
440.77	1777.64
440.98	1738.73
441.18	1789.92
441.39	1705.96
441.59	1683.43
441.80	1902.56
442.00	1800.16
442.21	1820.64
442.41	1673.19
442.62	1822.69
442.82	1734.63
443.02	1728.49
443.23	1748.97
443.43	1701.86
443.64	1818.60
443.84	1720.29
444.05	1806.31
444.25	1687.53
444.46	1755.11
444.66	1736.68
444.87	1918.95
445.07	1648.61
445.28	1716.20
445.48	1888.23
445.69	1783.78
445.89	1929.19
446.09	1849.32
446.30	2011.11
446.50	2586.58
446.71	3688.39
446.91	4198.34
447.12	4706.23
447.32	4845.49
447.53	4325.31
447.73	3928.00
447.93	3422.16
448.14	3256.27
448.34	3274.70
448.55	2877.40
448.75	2813.91
448.96	2693.08
449.16	2553.82
449.36	2258.91
449.57	2047.97
449.77	1886.18
449.98	1732.58
450.18	1769.44
450.39	1886.18
450.59	1734.63
450.79	1779.68
451.00	1728.49
451.20	1775.59
451.41	1765.35
451.61	1716.20
451.81	1720.29
452.02	1800.16
452.22	1751.01
452.43	1716.20
452.63	1736.68
452.84	1789.92
453.04	1628.14
453.24	1740.77
453.45	1710.05
453.65	1757.16
453.86	1814.50
454.06	1736.68
454.26	1716.20
454.47	1736.68
454.67	1796.07
454.87	1769.44
455.08	1689.57
455.28	1869.80
455.49	1740.77
455.69	1728.49
455.89	1873.89
456.10	1783.78
456.30	1767.40
456.51	1853.41
456.71	1722.34
456.91	1769.44
457.12	1740.77
457.32	1753.06
457.52	1685.48
457.73	1796.07
457.93	1812.45
458.14	1755.11
458.34	1710.05
458.54	1722.34
458.75	1732.58
458.95	1708.01
459.15	1656.81
459.36	1730.53
459.56	1763.30
459.76	1853.41
459.97	1755.11
460.17	1820.64
460.37	1728.49
460.58	1748.97
460.78	1777.64
460.99	1734.63
461.19	1751.01
461.39	1695.72
461.60	1691.62
461.80	1806.31
462.00	1667.05
462.21	1708.01
462.41	1683.43
462.61	1667.05
462.82	1712.10
463.02	1699.81
463.22	1824.74
463.43	1759.21
463.63	1701.86
463.83	1826.79
464.04	1708.01
464.24	1724.39
464.44	1751.01
464.64	1662.95
464.85	1759.21
465.05	1826.79
465.25	1736.68
465.46	1683.43
465.66	1779.68
465.86	1728.49
466.07	1736.68
466.27	1742.82
466.47	1599.46
466.68	1642.47
466.88	1742.82
467.08	1732.58
467.29	1744.87
467.49	1773.54
467.69	1687.53
467.89	1824.74
468.10	1701.86
468.30	1769.44
468.50	1781.73
468.71	1746.92
468.91	1697.77
469.11	1798.12
469.31	1695.72
469.52	1656.81
469.72	1789.92
469.92	1785.83
470.13	1726.44
470.33	1660.90
470.53	1853.41
470.73	2056.16
470.94	2344.92
471.14	2375.64
471.34	2553.82
471.54	2418.65
471.75	2242.53
471.95	2090.98
472.15	2052.06
472.36	2109.41
472.56	2136.03
472.76	2025.44
472.96	1996.77
473.17	1941.47
473.37	1822.69
473.57	1814.50
473.77	1759.21
473.98	1710.05
474.18	1683.43
474.38	1920.99
474.58	1748.97
474.79	1726.44
474.99	1837.03
475.19	1744.87
475.39	1611.75
475.60	1781.73
475.80	1751.01
476.00	1685.48
476.20	1728.49
476.41	1703.91
476.61	1798.12
476.81	1755.11
477.01	1720.29
477.21	1818.60
477.42	1787.88
477.62	1681.38
477.82	1789.92
478.02	1787.88
478.23	1843.17
478.43	1742.82
478.63	1685.48
478.83	1726.44
479.03	1705.96
479.24	1742.82
479.44	1832.93
479.64	1597.42
479.84	1640.42
480.04	1720.29
480.25	1734.63
480.45	1677.29
480.65	1755.11
480.85	1816.55
481.06	1654.76
481.26	1787.88
481.46	1724.39
481.66	1759.21
481.86	1685.48
482.06	1785.83
482.27	1712.10
482.47	1716.20
482.67	1748.97
482.87	1738.73
483.07	1832.93
483.28	1687.53
483.48	1624.04
483.68	1720.29
483.88	1654.76
484.08	1593.32
484.29	1695.72
484.49	1740.77
484.69	1724.39
484.89	1849.32
485.09	1763.30
485.29	1816.55
485.50	1693.67
485.70	1669.09
485.90	1800.16
486.10	1714.15
486.30	1765.35
486.50	1773.54
486.71	1783.78
486.91	1832.93
487.11	1814.50
487.31	1562.60
487.51	1791.97
487.71	1652.71
487.91	1626.09
488.12	1646.57
488.32	1654.76
488.52	1613.80
488.72	1626.09
488.92	1730.53
489.12	1785.83
489.32	1834.98
489.53	1673.19
489.73	1617.90
489.93	1824.74
490.13	1687.53
490.33	1675.24
490.53	1775.59
490.73	1802.21
490.94	1636.33
491.14	1787.88
491.34	1796.07
491.54	2125.79
491.74	2619.35
491.94	2959.31
492.14	3030.99
492.34	2971.60
492.54	2801.62
492.75	2441.18
492.95	2422.75
493.15	2271.20
493.35	2291.68
493.55	2181.09
493.75	2117.60
493.95	2211.81
494.15	2002.91
494.35	1918.95
494.56	1886.18
494.76	1798.12
494.96	1796.07
495.16	1742.82
495.36	1734.63
495.56	1779.68
495.76	1748.97
495.96	1626.09
496.16	1601.51
496.36	1791.97
496.56	1732.58
496.77	1746.92
496.97	1767.40
497.17	1822.69
497.37	1675.24
497.57	1753.06
497.77	1769.44
497.97	1642.47
498.17	1685.48
498.37	1660.90
498.57	1789.92
498.77	1640.42
498.97	1779.68
499.17	1806.31
499.38	1677.29
499.58	1734.63
499.78	1755.11
499.98	1841.12
500.18	1794.02
500.38	1648.61
500.58	1877.99
500.78	2592.73
500.98	4605.88
501.18	5777.32
501.38	6780.82
501.58	7219.09
501.78	6670.23
501.98	5533.61
502.18	4941.75
502.38	4394.94
502.58	4175.81
502.78	3682.25
502.98	3657.67
503.18	3438.54
503.38	3170.26
503.59	2854.87
503.79	2785.24
503.99	2510.81
504.19	2287.58
504.39	2183.13
504.59	2258.91
504.79	2152.42
504.99	2060.26
505.19	1877.99
505.39	1873.89
505.59	1968.10
505.79	1894.37
505.99	1863.65
506.19	1751.01
506.39	1863.65
506.59	1765.35
506.79	1726.44
506.99	1794.02
507.19	1796.07
507.39	1759.21
507.59	1654.76
507.79	1738.73
507.99	1732.58
508.19	1769.44
508.39	1634.28
508.59	1718.25
508.79	1769.44
508.99	1824.74
509.19	1701.86
509.39	1769.44
509.59	1718.25
509.79	1675.24
509.99	1656.81
510.19	1806.31
510.39	1828.84
510.59	1646.57
510.79	1705.96
510.99	1722.34
511.19	1726.44
511.39	1783.78
511.59	1783.78
511.79	1851.36
511.99	1677.29
512.19	1818.60
512.38	1705.96
512.58	1751.01
512.78	1705.96
512.98	1808.36
513.18	1806.31
513.38	1597.42
513.58	1812.45
513.78	1761.25
513.98	1701.86
514.18	1669.09
514.38	1730.53
514.58	1767.40
514.78	1677.29
514.98	1701.86
515.18	1677.29
515.38	1603.56
515.58	1806.31
515.78	1699.81
515.98	1728.49
516.18	1859.56
516.38	1755.11
516.57	1728.49
516.77	1662.95
516.97	1777.64
517.17	1693.67
517.37	1607.66
517.57	1781.73
517.77	1718.25
517.97	1740.77
518.17	1734.63
518.37	1697.77
518.57	1675.24
518.77	1748.97
518.97	1693.67
519.16	1804.26
519.36	1755.11
519.56	1732.58
519.76	1755.11
519.96	1800.16
520.16	1812.45
520.36	1669.09
520.56	1787.88
520.76	1726.44
520.96	1621.99
521.16	1746.92
521.35	1798.12
521.55	1832.93
521.75	1742.82
521.95	1728.49
522.15	1712.10
522.35	1648.61
522.55	1740.77
522.75	1779.68
522.95	1785.83
523.14	1726.44
523.34	1755.11
523.54	1753.06
523.74	1822.69
523.94	1802.21
524.14	1683.43
524.34	1796.07
524.54	1789.92
524.73	1693.67
524.93	1695.72
525.13	1701.86
525.33	1687.53
525.53	1875.94
525.73	1804.26
525.93	1708.01
526.13	1714.15
526.32	1757.16
526.52	1763.30
526.72	1785.83
526.92	1751.01
527.12	1650.66
527.32	1681.38
527.52	1675.24
527.71	1767.40
527.91	1734.63
528.11	1703.91
528.31	1705.96
528.51	1634.28
528.71	1806.31
528.90	1822.69
529.10	1791.97
529.30	1886.18
529.50	1638.38
529.70	1738.73
529.90	1777.64
530.09	1796.07
530.29	1753.06
530.49	1718.25
530.69	1822.69
530.89	1773.54
531.09	1732.58
531.28	1681.38
531.48	1802.21
531.68	1744.87
531.88	1755.11
532.08	1777.64
532.28	1697.77
532.47	1806.31
532.67	1796.07
532.87	1855.46
533.07	1681.38
533.27	1802.21
533.46	1757.16
533.66	1746.92
533.86	1718.25
534.06	1767.40
534.26	1726.44
534.45	1714.15
534.65	1808.36
534.85	1677.29
535.05	1675.24
535.25	1785.83
535.44	1665.00
535.64	1814.50
535.84	1759.21
536.04	1689.57
536.24	1689.57
536.43	1695.72
536.63	1746.92
536.83	1730.53
537.03	1683.43
537.22	1755.11
537.42	1621.99
537.62	1703.91
537.82	1730.53
538.02	1851.36
538.21	1812.45
538.41	1886.18
538.61	1742.82
538.81	1740.77
539.00	1886.18
539.20	1658.85
539.40	1681.38
539.60	1746.92
539.79	1800.16
539.99	1710.05
540.19	1757.16
540.39	1736.68
540.58	1755.11
540.78	1724.39
540.98	1716.20
541.18	1777.64
541.37	1787.88
541.57	1742.82
541.77	1820.64
541.97	1708.01
542.16	1685.48
542.36	1681.38
542.56	1728.49
542.76	1847.27
542.95	1773.54
543.15	1791.97
543.35	1732.58
543.54	1689.57
543.74	1675.24
543.94	1834.98
544.14	1701.86
544.33	1826.79
544.53	1736.68
544.73	1685.48
544.93	1662.95
545.12	1722.34
545.32	1773.54
545.52	1755.11
545.71	1636.33
545.91	1769.44
546.11	1740.77
546.30	1759.21
546.50	1783.78
546.70	1738.73
546.90	1746.92
547.09	1689.57
547.29	1701.86
547.49	1800.16
547.68	1767.40
547.88	1624.04
548.08	1724.39
548.27	2095.07
548.47	1673.19
548.67	1675.24
548.87	1781.73
549.06	1785.83
549.26	1742.82
549.46	1714.15
549.65	1654.76
549.85	1718.25
550.05	1714.15
550.24	1722.34
550.44	1732.58
550.64	1724.39
550.83	1812.45
551.03	1787.88
551.23	1757.16
551.42	1742.82
551.62	1732.58
551.82	1748.97
552.01	1742.82
552.21	1865.70
552.41	1683.43
552.60	1849.32
552.80	1705.96
553.00	1720.29
553.19	1724.39
553.39	1818.60
553.59	1658.85
553.78	1796.07
553.98	1748.97
554.17	1658.85
554.37	1683.43
554.57	1708.01
554.76	1646.57
554.96	1681.38
555.16	1732.58
555.35	1736.68
555.55	1759.21
555.75	1759.21
555.94	1755.11
556.14	1728.49
556.33	1808.36
556.53	1738.73
556.73	1771.49
556.92	1742.82
557.12	1843.17
557.32	1882.08
557.51	1816.55
557.71	1742.82
557.90	1806.31
558.10	1814.50
558.30	1734.63
558.49	1654.76
558.69	1720.29
558.88	1847.27
559.08	1755.11
559.28	1701.86
559.47	1740.77
559.67	1789.92
559.86	1839.08
560.06	1759.21
560.26	1720.29
560.45	1847.27
560.65	1724.39
560.84	1716.20
561.04	1697.77
561.24	1763.30
561.43	1705.96
561.63	1804.26
561.82	1708.01
562.02	1783.78
562.22	1697.77
562.41	1699.81
562.61	1826.79
562.80	1656.81
563.00	1882.08
563.19	1710.05
563.39	1791.97
563.59	1828.84
563.78	1671.14
563.98	1599.46
564.17	1759.21
564.37	1619.94
564.56	1773.54
564.76	1693.67
564.96	1828.84
565.15	1734.63
565.35	1869.80
565.54	1751.01
565.74	1828.84
565.93	1800.16
566.13	1771.49
566.32	1648.61
566.52	1824.74
566.71	1724.39
566.91	1812.45
567.11	1734.63
567.30	1796.07
567.50	1755.11
567.69	1830.88
567.89	1724.39
568.08	1695.72
568.28	1724.39
568.47	1775.59
568.67	1785.83
568.86	1724.39
569.06	1781.73
569.25	1773.54
569.45	1669.09
569.64	1767.40
569.84	1699.81
570.04	1708.01
570.23	1763.30
570.43	1759.21
570.62	1740.77
570.82	1847.27
571.01	1650.66
571.21	1738.73
571.40	1712.10
571.60	1804.26
571.79	1763.30
571.99	1714.15
572.18	1681.38
572.38	1732.58
572.57	1748.97
572.77	1753.06
572.96	1869.80
573.16	1800.16
573.35	1777.64
573.55	1818.60
573.74	1740.77
573.94	1734.63
574.13	1677.29
574.33	1843.17
574.52	1810.40
574.71	1724.39
574.91	1775.59
575.10	1626.09
575.30	1794.02
575.49	1677.29
575.69	1673.19
575.88	1746.92
576.08	1644.52
576.27	1748.97
576.47	1734.63
576.66	1873.89
576.86	1816.55
577.05	1787.88
577.25	1830.88
577.44	1771.49
577.64	1734.63
577.83	1775.59
578.02	1767.40
578.22	1855.46
578.41	1875.94
578.61	1667.05
578.80	1669.09
579.00	1837.03
579.19	1736.68
579.39	1843.17
579.58	1853.41
579.77	1697.77
579.97	1791.97
580.16	1796.07
580.36	1798.12
580.55	1779.68
580.75	1763.30
580.94	1773.54
581.13	1857.51
581.33	1861.60
581.52	1642.47
581.72	1877.99
581.91	1896.42
582.11	1699.81
582.30	1814.50
582.49	1763.30
582.69	1869.80
582.88	1888.23
583.08	1804.26
583.27	1783.78
583.47	1771.49
583.66	1722.34
583.85	1728.49
584.05	1798.12
584.24	1777.64
584.44	1730.53
584.63	1808.36
584.82	1800.16
585.02	1837.03
585.21	1861.60
585.41	1826.79
585.60	1839.08
585.79	1920.99
585.99	1943.52
586.18	1847.27
586.37	2162.66
586.57	3395.53
586.76	9774.95
586.96	24233.61
587.15	34440.69
587.34	40344.98
587.54	41952.64
587.73	36533.71
587.93	26316.40
588.12	21464.76
588.31	18247.40
588.51	16365.32
588.70	15228.70
588.89	13934.38
589.09	12728.13
589.28	11147.09
589.47	9555.82
589.67	7917.45
589.86	6379.42
590.06	5040.05
590.25	3975.11
590.44	3131.34
590.64	2615.26
590.83	2254.81
591.02	2111.46
591.22	2031.58
591.41	1892.32
591.60	1820.64
591.80	1875.94
591.99	1814.50
592.18	1824.74
592.38	1808.36
592.57	1810.40
592.76	1736.68
592.96	1779.68
593.15	1763.30
593.34	1767.40
593.54	1751.01
593.73	1812.45
593.92	1810.40
594.12	1767.40
594.31	1724.39
594.50	1820.64
594.70	1796.07
594.89	1875.94
595.08	1636.33
595.28	1796.07
595.47	1918.95
595.66	1828.84
595.86	1697.77
596.05	1759.21
596.24	1738.73
596.43	1877.99
596.63	1841.12
596.82	1802.21
597.01	1742.82
597.21	1798.12
597.40	1828.84
597.59	1738.73
597.79	1726.44
597.98	1822.69
598.17	1771.49
598.36	1748.97
598.56	1738.73
598.75	1742.82
598.94	1800.16
599.14	1779.68
599.33	1732.58
599.52	1740.77
599.71	1800.16
599.91	1753.06
600.10	1712.10
600.29	1759.21
600.48	1787.88
600.68	1765.35
600.87	1746.92
601.06	1710.05
601.26	1820.64
601.45	1759.21
601.64	1728.49
601.83	1873.89
602.03	1728.49
602.22	1685.48
602.41	1773.54
602.60	1877.99
602.80	1849.32
602.99	1802.21
603.18	1695.72
603.37	1734.63
603.57	1757.16
603.76	1783.78
603.95	1808.36
604.14	1824.74
604.34	1705.96
604.53	1738.73
604.72	1798.12
604.91	1806.31
605.10	1751.01
605.30	1699.81
605.49	1851.36
605.68	1873.89
605.87	1724.39
606.07	1576.94
606.26	1677.29
606.45	1763.30
606.64	1759.21
606.84	1687.53
607.03	1791.97
607.22	1794.02
607.41	1732.58
607.60	1726.44
607.80	1775.59
607.99	1763.30
608.18	1710.05
608.37	1771.49
608.56	1673.19
608.76	1781.73
608.95	1875.94
609.14	1677.29
609.33	1853.41
609.52	1767.40
609.72	1736.68
609.91	1810.40
610.10	1753.06
610.29	1834.98
610.48	1732.58
610.68	1718.25
610.87	1722.34
611.06	1806.31
611.25	1683.43
611.44	1853.41
611.63	1763.30
611.83	1761.25
612.02	1605.61
612.21	1765.35
612.40	1652.71
612.59	1626.09
612.79	1667.05
612.98	1726.44
613.17	1806.31
613.36	1748.97
613.55	1773.54
613.74	1718.25
613.93	1734.63
614.13	1734.63
614.32	1675.24
614.51	1738.73
614.70	1699.81
614.89	1671.14
615.08	1773.54
615.28	2119.65
615.47	1687.53
615.66	1767.40
615.85	1806.31
616.04	1826.79
616.23	1724.39
616.42	1740.77
616.62	1714.15
616.81	1730.53
617.00	1738.73
617.19	1781.73
617.38	1705.96
617.57	1720.29
617.76	1718.25
617.95	1691.62
618.15	1720.29
618.34	1794.02
618.53	1665.00
618.72	1810.40
618.91	1830.88
619.10	1816.55
619.29	1736.68
619.48	1714.15
619.68	1722.34
619.87	1751.01
620.06	1652.71
620.25	1769.44
620.44	1699.81
620.63	1794.02
620.82	1771.49
621.01	1824.74
621.20	1736.68
621.39	1812.45
621.59	1728.49
621.78	1763.30
621.97	1728.49
622.16	1705.96
622.35	1753.06
622.54	1685.48
622.73	1773.54
622.92	1669.09
623.11	1859.56
623.30	1697.77
623.49	1763.30
623.68	1753.06
623.88	1767.40
624.07	1691.62
624.26	1757.16
624.45	1701.86
624.64	1740.77
624.83	1681.38
625.02	1794.02
625.21	1746.92
625.40	1695.72
625.59	1861.60
625.78	1757.16
625.97	1730.53
626.16	1824.74
626.35	1714.15
626.54	1759.21
626.74	1859.56
626.93	1740.77
627.12	1705.96
627.31	1808.36
627.50	1751.01
627.69	1726.44
627.88	1697.77
628.07	1724.39
628.26	1697.77
628.45	1632.23
628.64	1730.53
628.83	1740.77
629.02	1642.47
629.21	1658.85
629.40	1742.82
629.59	1720.29
629.78	1728.49
629.97	1703.91
630.16	1660.90
630.35	1693.67
630.54	1689.57
630.73	1714.15
630.92	1755.11
631.11	1673.19
631.30	1689.57
631.49	1837.03
631.68	1748.97
631.87	1734.63
632.06	1605.61
632.25	1953.76
632.44	1783.78
632.63	1710.05
632.82	1777.64
633.01	1685.48
633.20	1648.61
633.39	1701.86
633.58	1675.24
633.77	1718.25
633.96	1808.36
634.15	1798.12
634.34	1763.30
634.53	1697.77
634.72	1708.01
634.91	1665.00
635.10	1781.73
635.29	1789.92
635.48	1755.11
635.67	1624.04
635.86	1626.09
636.05	1816.55
636.24	1746.92
636.43	1693.67
636.62	1761.25
636.81	1626.09
637.00	1675.24
637.19	1798.12
637.38	1705.96
637.57	1697.77
637.76	1683.43
637.95	1800.16
638.14	1712.10
638.33	1710.05
638.52	1689.57
638.71	1650.66
638.89	1591.27
639.08	1798.12
639.27	1734.63
639.46	1697.77
639.65	1806.31
639.84	1718.25
640.03	1816.55
640.22	1742.82
640.41	1853.41
640.60	1751.01
640.79	1681.38
640.98	1699.81
641.17	1789.92
641.36	1624.04
641.55	1714.15
641.74	1566.70
641.92	1712.10
642.11	1675.24
642.30	1652.71
642.49	1685.48
642.68	1669.09
642.87	1777.64
643.06	1697.77
643.25	1687.53
643.44	1656.81
643.63	1609.70
643.82	1742.82
644.00	1662.95
644.19	1712.10
644.38	1615.85
644.57	1710.05
644.76	1740.77
644.95	1681.38
645.14	1736.68
645.33	1699.81
645.52	1726.44
645.71	1585.13
645.89	1695.72
646.08	1681.38
646.27	1724.39
646.46	1843.17
646.65	1675.24
646.84	1746.92
647.03	1630.18
647.22	1802.21
647.40	1740.77
647.59	1742.82
647.78	1624.04
647.97	1699.81
648.16	1755.11
648.35	1763.30
648.54	1789.92
648.73	1679.33
648.91	1716.20
649.10	1730.53
649.29	1730.53
649.48	1699.81
649.67	1783.78
649.86	1720.29
650.05	1677.29
650.23	1783.78
650.42	1634.28
650.61	1728.49
650.80	1787.88
650.99	1863.65
651.18	1791.97
651.36	1759.21
651.55	1761.25
651.74	1781.73
651.93	1691.62
652.12	1677.29
652.31	1718.25
652.49	1734.63
652.68	1722.34
652.87	1820.64
653.06	1730.53
653.25	1839.08
653.44	1732.58
653.62	1728.49
653.81	1716.20
654.00	1726.44
654.19	1755.11
654.38	1853.41
654.56	1708.01
654.75	1798.12
654.94	1777.64
655.13	1705.96
655.32	1742.82
655.51	1755.11
655.69	1673.19
655.88	1714.15
656.07	1640.42
656.26	1787.88
656.45	1669.09
656.63	1705.96
656.82	1724.39
657.01	1724.39
657.20	1738.73
657.38	1806.31
657.57	1669.09
657.76	1675.24
657.95	1812.45
658.14	1626.09
658.32	1740.77
658.51	1673.19
658.70	1759.21
658.89	1779.68
659.08	1775.59
659.26	1806.31
659.45	1656.81
659.64	1699.81
659.83	1642.47
660.01	1947.62
660.20	1736.68
660.39	1828.84
660.58	1646.57
660.76	1767.40
660.95	1605.61
661.14	1714.15
661.33	1687.53
661.51	1705.96
661.70	1730.53
661.89	1794.02
662.08	1669.09
662.26	1714.15
662.45	1601.51
662.64	1804.26
662.83	1728.49
663.01	1701.86
663.20	1734.63
663.39	1824.74
663.58	1673.19
663.76	1800.16
663.95	1732.58
664.14	1665.00
664.32	1617.90
664.51	1673.19
664.70	1699.81
664.89	1783.78
665.07	1722.34
665.26	1822.69
665.45	1576.94
665.64	1769.44
665.82	1722.34
666.01	1771.49
666.20	1689.57
666.38	1791.97
666.57	1861.60
666.76	2197.47
666.95	4558.78
667.13	10323.81
667.32	15406.87
667.51	17723.12
667.69	19181.28
667.88	17585.91
668.07	12552.00
668.25	9516.91
668.44	8001.41
668.63	7561.10
668.81	6811.54
669.00	6320.03
669.19	5707.69
669.38	5072.82
669.56	4605.88
669.75	3983.30
669.94	3610.57
670.12	2936.79
670.31	2523.10
670.50	2271.20
670.68	2093.02
670.87	1920.99
671.06	1740.77
671.24	1767.40
671.43	1877.99
671.62	1703.91
671.80	1660.90
671.99	1757.16
672.18	1761.25
672.36	1822.69
672.55	1769.44
672.74	1607.66
672.92	1703.91
673.11	1742.82
673.29	1656.81
673.48	1816.55
673.67	1794.02
673.85	1746.92
674.04	1689.57
674.23	1718.25
674.41	1851.36
674.60	1673.19
674.79	1615.85
674.97	1722.34
675.16	1812.45
675.34	1791.97
675.53	1714.15
675.72	1683.43
675.90	1812.45
676.09	1665.00
676.28	1753.06
676.46	1617.90
676.65	1769.44
676.83	1708.01
677.02	1742.82
677.21	1732.58
677.39	1703.91
677.58	1640.42
677.77	1669.09
677.95	1662.95
678.14	1669.09
678.32	1722.34
678.51	1699.81
678.70	1839.08
678.88	1742.82
679.07	1703.91
679.25	1755.11
679.44	1724.39
679.63	1585.13
679.81	1691.62
680.00	1728.49
680.18	1732.58
680.37	1767.40
680.55	1732.58
680.74	1591.27
680.93	1638.38
681.11	1708.01
681.30	1693.67
681.48	1791.97
681.67	1714.15
681.85	1703.91
682.04	1640.42
682.23	1777.64
682.41	1697.77
682.60	1632.23
682.78	1652.71
682.97	1626.09
683.15	1701.86
683.34	1759.21
683.53	1726.44
683.71	1644.52
683.90	1734.63
684.08	1791.97
684.27	1673.19
684.45	1804.26
684.64	1785.83
684.82	1722.34
685.01	1724.39
685.19	1746.92
685.38	1779.68
685.57	1791.97
685.75	1656.81
685.94	1740.77
686.12	1654.76
686.31	1687.53
686.49	1789.92
686.68	1679.33
686.86	1746.92
687.05	1699.81
687.23	1769.44
687.42	1710.05
687.60	1609.70
687.79	1779.68
687.97	1742.82
688.16	1810.40
688.34	1748.97
688.53	1701.86
688.71	1730.53
688.90	1751.01
689.08	1683.43
689.27	1650.66
689.45	1796.07
689.64	1773.54
689.82	1753.06
690.01	1734.63
690.19	1730.53
690.38	1714.15
690.56	1877.99
690.75	1660.90
690.93	1685.48
691.12	1681.38
691.30	1679.33
691.49	1644.52
691.67	1726.44
691.86	1751.01
692.04	1730.53
692.23	1660.90
692.41	1658.85
692.60	1830.88
692.78	1691.62
692.97	1656.81
693.15	1726.44
693.34	1892.32
693.52	1726.44
693.71	1697.77
693.89	1650.66
694.08	1601.51
694.26	1783.78
694.44	1781.73
694.63	1734.63
694.81	1640.42
695.00	1648.61
695.18	1738.73
695.37	1849.32
695.55	1718.25
695.74	1753.06
695.92	1636.33
696.10	1763.30
696.29	1624.04
696.47	1652.71
696.66	1640.42
696.84	1665.00
697.03	1621.99
697.21	1894.37
697.40	2295.77
697.58	1765.35
697.76	1710.05
697.95	1699.81
698.13	1628.14
698.32	1646.57
698.50	1783.78
698.68	1726.44
698.87	1748.97
699.05	1763.30
699.24	1681.38
699.42	1724.39
699.61	1730.53
699.79	1703.91
699.97	1722.34
700.16	1681.38
700.34	1701.86
700.53	1720.29
700.71	1755.11
700.89	1771.49
701.08	1726.44
701.26	1810.40
701.45	2101.22
701.63	1646.57
701.81	1654.76
702.00	1718.25
702.18	1689.57
702.37	1695.72
702.55	1718.25
702.73	1712.10
702.92	1683.43
703.10	1720.29
703.28	1796.07
703.47	1624.04
703.65	1753.06
703.84	1796.07
704.02	1728.49
704.20	1789.92
704.39	1724.39
704.57	1689.57
704.75	1808.36
704.94	1714.15
705.12	1773.54
705.30	1853.41
705.49	2168.80
705.67	4401.08
705.86	9254.77
706.04	12437.31
706.22	14317.35
706.41	15226.65
706.59	13690.67
706.77	9604.97
706.96	7468.94
707.14	6707.10
707.32	6025.12
707.51	5705.64
707.69	4743.10
707.87	4196.29
708.06	3522.51
708.24	2973.65
708.42	2396.12
708.61	2222.05
708.79	1912.80
708.97	1884.13
709.16	1820.64
709.34	1724.39
709.52	1748.97
709.71	1712.10
709.89	1736.68
710.07	1738.73
710.26	1665.00
710.44	1714.15
710.62	1789.92
710.80	1703.91
710.99	1767.40
711.17	1796.07
711.35	1730.53
711.54	1667.05
711.72	1824.74
711.90	1800.16
712.09	1759.21
712.27	1671.14
712.45	1738.73
712.63	1679.33
712.82	1734.63
713.00	1701.86
713.18	1744.87
713.37	1824.74
713.55	1744.87
713.73	1724.39
713.91	1703.91
714.10	1652.71
714.28	1693.67
714.46	1671.14
714.65	1665.00
714.83	1802.21
715.01	1701.86
715.19	1736.68
715.38	1669.09
715.56	1734.63
715.74	1734.63
715.92	1763.30
716.11	1851.36
716.29	1615.85
716.47	1677.29
716.65	1685.48
716.84	1648.61
717.02	1755.11
717.20	1708.01
717.38	1669.09
717.57	1730.53
717.75	1656.81
717.93	1687.53
718.11	1734.63
718.30	1640.42
718.48	1732.58
718.66	1763.30
718.84	1779.68
719.03	1708.01
719.21	1658.85
719.39	1734.63
719.57	1714.15
719.75	1726.44
719.94	1644.52
720.12	1712.10
720.30	1775.59
720.48	1701.86
720.67	1687.53
720.85	1724.39
721.03	1642.47
721.21	1701.86
721.39	1755.11
721.58	1689.57
721.76	1716.20
721.94	1705.96
722.12	1732.58
722.30	1734.63
722.49	1718.25
722.67	1701.86
722.85	1767.40
723.03	1638.38
723.21	1693.67
723.40	1712.10
723.58	1710.05
723.76	1738.73
723.94	1808.36
724.12	1738.73
724.30	1802.21
724.49	1826.79
724.67	1687.53
724.85	1787.88
725.03	1648.61
725.21	1779.68
725.40	1763.30
725.58	1662.95
725.76	1746.92
725.94	1677.29
726.12	1634.28
726.30	1697.77
726.49	1712.10
726.67	1634.28
726.85	1765.35
727.03	1796.07
727.21	2158.56
727.39	2906.07
727.57	3805.13
727.76	4302.78
727.94	4552.63
728.12	4437.95
728.30	3706.82
728.48	2990.03
728.66	2846.68
728.84	2475.99
729.03	2291.68
729.21	2230.24
729.39	2017.25
729.57	1816.55
729.75	1847.27
729.93	1802.21
730.11	1759.21
730.30	1681.38
730.48	1708.01
730.66	1824.74
730.84	1837.03
731.02	1705.96
731.20	1640.42
731.38	1769.44
731.56	1640.42
731.74	1617.90
731.93	1730.53
732.11	1722.34
732.29	1703.91
732.47	1742.82
732.65	1697.77
732.83	1812.45
733.01	1693.67
733.19	1669.09
733.37	1751.01
733.56	1705.96
733.74	1628.14
733.92	1822.69
734.10	1691.62
734.28	1691.62
734.46	1646.57
734.64	1619.94
734.82	1691.62
735.00	1605.61
735.18	1669.09
735.36	1675.24
735.54	1734.63
735.73	1673.19
735.91	1693.67
736.09	1773.54
736.27	1656.81
736.45	1697.77
736.63	1619.94
736.81	1697.77
736.99	1746.92
737.17	1724.39
737.35	1718.25
737.53	1734.63
737.71	1732.58
737.89	1861.60
738.07	1642.47
738.25	1716.20
738.43	1652.71
738.61	1771.49
738.80	1667.05
738.98	1671.14
739.16	1619.94
739.34	1697.77
739.52	1777.64
739.70	1703.91
739.88	1722.34
740.06	1771.49
740.24	1691.62
740.42	1814.50
740.60	1595.37
740.78	1673.19
740.96	1593.32
741.14	1675.24
741.32	1714.15
741.50	1658.85
741.68	1826.79
741.86	1763.30
742.04	1644.52
742.22	1675.24
742.40	1738.73
742.58	1810.40
742.76	1638.38
742.94	1726.44
743.12	1667.05
743.30	1681.38
743.48	1769.44
743.66	1734.63
743.84	1724.39
744.02	1671.14
744.20	1695.72
744.38	1617.90
744.56	1720.29
744.74	1759.21
744.92	1746.92
745.10	1767.40
745.28	1701.86
745.46	1787.88
745.64	1681.38
745.82	1746.92
746.00	1716.20
746.18	1771.49
746.36	1636.33
746.54	1757.16
746.72	1703.91
746.90	1736.68
747.08	1775.59
747.26	1714.15
747.44	1679.33
747.62	1777.64
747.80	1740.77
747.98	1769.44
748.15	1617.90
748.33	1869.80
748.51	1720.29
748.69	1796.07
748.87	1667.05
749.05	1740.77
749.23	1646.57
749.41	1759.21
749.59	1675.24
749.77	1769.44
749.95	1761.25
750.13	1640.42
750.31	1767.40
750.49	1691.62
750.67	1765.35
750.85	1777.64
751.03	1701.86
751.20	1804.26
751.38	1751.01
751.56	1683.43
751.74	1695.72
751.92	1697.77
752.10	1675.24
752.28	1732.58
752.46	1710.05
752.64	1763.30
752.82	1648.61
753.00	1767.40
753.18	1650.66
753.35	1720.29
753.53	1742.82
753.71	1703.91
753.89	1726.44
754.07	1660.90
754.25	1701.86
754.43	1763.30
754.61	1642.47
754.79	1773.54
754.97	1656.81
755.14	1763.30
755.32	1603.56
755.50	1675.24
755.68	1730.53
755.86	1603.56
756.04	1658.85
756.22	1603.56
756.40	1699.81
756.57	1779.68
756.75	1720.29
756.93	1767.40
757.11	1773.54
757.29	1656.81
757.47	1656.81
757.65	1642.47
757.82	1603.56
758.00	1710.05
758.18	1648.61
758.36	1574.89
758.54	1771.49
758.72	1585.13
758.90	1783.78
759.07	1802.21
759.25	1656.81
759.43	1789.92
759.61	1617.90
759.79	2197.47
759.97	1722.34
760.15	1689.57
760.32	1716.20
760.50	1701.86
760.68	1740.77
760.86	1662.95
761.04	1738.73
761.22	1787.88
761.39	1734.63
761.57	1763.30
761.75	1712.10
761.93	1714.15
762.11	1685.48
762.28	1744.87
762.46	1673.19
762.64	1691.62
762.82	1703.91
763.00	1689.57
763.18	1812.45
763.35	1656.81
763.53	1755.11
763.71	1800.16
763.89	1650.66
764.07	1712.10
764.24	1785.83
764.42	1722.34
764.60	1650.66
764.78	1746.92
764.96	1757.16
765.13	1810.40
765.31	1697.77
765.49	1773.54
765.67	1697.77
765.84	1736.68
766.02	1677.29
766.20	1628.14
766.38	1691.62
766.56	1689.57
766.73	1767.40
766.91	1716.20
767.09	1705.96
767.27	1646.57
767.44	1689.57
767.62	1697.77
767.80	1679.33
767.98	1677.29
768.15	1615.85
768.33	1761.25
768.51	1726.44
768.69	1710.05
768.87	1671.14
769.04	1800.16
769.22	1777.64
769.40	1773.54
769.58	1849.32
769.75	1796.07
769.93	1710.05
770.11	1726.44
770.28	1728.49
770.46	1726.44
770.64	1738.73
770.82	1724.39
770.99	1626.09
771.17	1667.05
771.35	1732.58
771.53	1744.87
771.70	1636.33
771.88	1720.29
772.06	1687.53
772.23	1751.01
772.41	1787.88
772.59	1753.06
772.77	1587.18
772.94	1701.86
773.12	1736.68
773.30	1695.72
773.47	1683.43
773.65	1695.72
773.83	1738.73
774.01	1720.29
774.18	1632.23
774.36	1728.49
774.54	1671.14
774.71	1742.82
774.89	1601.51
775.07	1662.95
775.24	1683.43
775.42	1677.29
775.60	1779.68
775.78	1632.23
775.95	1667.05
776.13	1591.27
776.31	1632.23
776.48	1796.07
776.66	1775.59
776.84	1716.20
777.01	1746.92
777.19	1712.10
777.37	1665.00
777.54	1785.83
777.72	1783.78
777.90	1781.73
778.07	1673.19
778.25	1839.08
778.43	1806.31
778.60	1677.29
778.78	1785.83
778.96	1746.92
779.13	1677.29
779.31	1656.81
779.49	1675.24
779.66	1695.72
779.84	1736.68
780.01	1683.43
780.19	1665.00
780.37	1757.16
780.54	1765.35
780.72	1708.01
780.90	1669.09
781.07	1720.29
781.25	1597.42
781.43	1834.98
781.60	1669.09
781.78	1794.02
781.95	1673.19
782.13	1658.85
782.31	1726.44
782.48	1626.09
782.66	1687.53
782.83	1779.68
783.01	1730.53
783.19	1755.11
783.36	1714.15
783.54	1638.38
783.72	1783.78
783.89	1681.38
784.07	1779.68
784.24	1746.92
784.42	1822.69
784.60	1714.15
784.77	1730.53
784.95	1562.60
785.12	1683.43
785.30	1703.91
785.47	1615.85
785.65	1660.90
785.83	1755.11
786.00	1671.14
786.18	1738.73
786.35	1634.28
786.53	1669.09
786.71	1753.06
786.88	1771.49
787.06	1740.77
787.23	1712.10
787.41	1636.33
787.58	1691.62
787.76	1730.53
787.94	1738.73
788.11	1763.30
788.29	1632.23
788.46	1722.34
788.64	1691.62
788.81	1667.05
788.99	1650.66
789.16	1656.81
789.34	1748.97
789.52	1665.00
789.69	1728.49
789.87	1619.94
790.04	1699.81
790.22	1640.42
790.39	1834.98
790.57	1675.24
790.74	1669.09
790.92	1714.15
791.09	1642.47
791.27	1712.10
791.44	1757.16
791.62	1693.67
791.79	1738.73
791.97	1648.61
792.15	1859.56
792.32	1759.21
792.50	1796.07
792.67	1757.16
792.85	1834.98
793.02	1734.63
793.20	1697.77
793.37	1665.00
793.55	1722.34
793.72	1591.27
793.90	1714.15
794.07	1628.14
794.25	1632.23
794.42	1716.20
794.60	1617.90
794.77	1699.81
794.95	1714.15
795.12	1787.88
795.30	1728.49
795.47	1675.24
795.65	1923.04
795.82	1714.15
796.00	1691.62
796.17	1695.72
796.34	1689.57
796.52	1744.87
796.69	1763.30
796.87	1834.98
797.04	1791.97
797.22	1830.88
797.39	1746.92
797.57	1738.73
797.74	1738.73
797.92	1679.33
798.09	1656.81
798.27	1736.68
798.44	1732.58
798.62	1716.20
798.79	1724.39
798.96	1615.85
799.14	1726.44
799.31	1759.21
799.49	1742.82
799.66	1671.14
799.84	1738.73
800.01	1574.89
800.19	1691.62
800.36	1652.71
800.53	1681.38
800.71	1685.48
800.88	1830.88
801.06	1656.81
801.23	1642.47
801.41	1714.15
801.58	1675.24
801.75	1658.85
801.93	1722.34
802.10	1724.39
802.28	1718.25
802.45	1730.53
802.63	1703.91
802.80	1818.60
802.97	1699.81
803.15	1730.53
803.32	1638.38
803.50	1677.29
803.67	1607.66
803.84	1615.85
804.02	1744.87
804.19	1677.29
804.37	1634.28
804.54	1642.47
804.71	1695.72
804.89	1751.01
805.06	1658.85
805.24	1695.72
805.41	1640.42
805.58	1636.33
805.76	1789.92
805.93	1716.20
806.10	1761.25
806.28	1716.20
806.45	1720.29
806.63	1746.92
806.80	1714.15
806.97	1665.00
807.15	1693.67
807.32	1675.24
807.49	1718.25
807.67	1632.23
807.84	1693.67
808.01	1560.55
808.19	1777.64
808.36	1843.17
808.54	1718.25
808.71	1615.85
808.88	1796.07
809.06	1773.54
809.23	1734.63
809.40	1689.57
809.58	1812.45
809.75	1683.43
809.92	1736.68
810.10	1902.56
810.27	1742.82
810.44	1740.77
810.62	1757.16
810.79	1787.88
810.96	1689.57
811.14	1671.14
811.31	1701.86
811.48	1751.01
811.66	1716.20
811.83	1769.44
812.00	1722.34
812.18	1796.07
812.35	1783.78
812.52	1607.66
812.69	1689.57
812.87	1669.09
813.04	1679.33
813.21	1742.82
813.39	1712.10
813.56	1601.51
813.73	1773.54
813.91	1587.18
814.08	1693.67
814.25	1755.11
814.42	1652.71
814.60	1800.16
814.77	1830.88
814.94	1722.34
815.12	1646.57
815.29	1849.32
815.46	1695.72
815.63	1777.64
815.81	1734.63
815.98	1675.24
816.15	1689.57
816.33	1701.86
816.50	1732.58
816.67	1769.44
816.84	1660.90
817.02	1640.42
817.19	1634.28
817.36	1693.67
817.53	1806.31
817.71	1685.48
817.88	1718.25
818.05	1656.81
818.22	1667.05
818.40	1751.01
818.57	1740.77
818.74	1732.58
818.91	1687.53
819.09	1751.01
819.26	1761.25
819.43	1640.42
819.60	1675.24
819.78	1748.97
819.95	1712.10
820.12	1601.51
820.29	1722.34
820.47	1712.10
820.64	1605.61
820.81	1601.51
820.98	1642.47
821.15	1675.24
821.33	1753.06
821.50	1552.36
821.67	1748.97
821.84	1654.76
822.02	1689.57
822.19	1765.35
822.36	1748.97
822.53	1687.53
822.70	1681.38
822.88	1730.53
823.05	1755.11
823.22	1679.33
823.39	1746.92
823.56	1673.19
823.74	1765.35
823.91	1679.33
824.08	1652.71
824.25	1689.57
824.42	1826.79
824.60	1665.00
824.77	1818.60
824.94	1638.38
825.11	1695.72
825.28	1595.37
825.45	1697.77
825.63	1730.53
825.80	1624.04
825.97	1753.06
826.14	1681.38
826.31	1593.32
826.48	1689.57
826.66	1675.24
826.83	1705.96
827.00	1724.39
827.17	1658.85
827.34	1689.57
827.51	1677.29
827.69	1730.53
827.86	1695.72
828.03	1705.96
828.20	1728.49
828.37	1595.37
828.54	1714.15
828.71	1650.66
828.89	1830.88
829.06	1636.33
829.23	1773.54
829.40	1630.18
829.57	1665.00
829.74	1738.73
829.91	1705.96
830.09	1650.66
830.26	1732.58
830.43	1751.01
830.60	1640.42
830.77	1763.30
830.94	1791.97
831.11	1748.97
831.28	1662.95
831.46	1775.59
831.63	1746.92
831.80	1744.87
831.97	1669.09
832.14	1646.57
832.31	1710.05
832.48	1658.85
832.65	1767.40
832.82	1691.62
832.99	1732.58
833.17	1583.08
833.34	1755.11
833.51	1722.34
833.68	1685.48
833.85	1748.97
834.02	1636.33
834.19	1644.52
834.36	1599.46
834.53	1744.87
834.70	1828.84
834.87	1646.57
835.04	1677.29
835.22	1708.01
835.39	1695.72
835.56	1609.70
835.73	1720.29
835.90	1789.92
836.07	1746.92
836.24	1726.44
836.41	1708.01
836.58	1667.05
836.75	1736.68
836.92	1716.20
837.09	1679.33
837.26	1755.11
837.43	1746.92
837.60	1689.57
837.77	1712.10
837.94	1712.10
838.12	1816.55
838.29	1697.77
838.46	1634.28
838.63	1597.42
838.80	1824.74
838.97	1734.63
839.14	1751.01
839.31	1742.82
839.48	1710.05
839.65	1646.57
839.82	1810.40
839.99	1736.68
840.16	1712.10
840.33	1683.43
840.50	1699.81
840.67	1710.05
840.84	1648.61
841.01	1726.44
841.18	1728.49
841.35	1673.19
841.52	1853.41
841.69	1865.70
841.86	1755.11
842.03	1720.29
842.20	1796.07
842.37	1724.39
842.54	1693.67
842.71	1705.96
842.88	1658.85
843.05	1841.12
843.22	1644.52
843.39	1695.72
843.56	1683.43
843.73	1728.49
843.90	1681.38
844.07	1726.44
844.24	1755.11
844.41	1763.30
844.58	1720.29
844.75	1716.20
844.92	1726.44
845.09	1681.38
845.26	1689.57
845.43	1701.86
845.60	1683.43
845.77	1767.40
845.94	1705.96
846.10	1779.68
846.27	1683.43
846.44	1632.23
846.61	1638.38
846.78	1775.59
846.95	1746.92
847.12	1677.29
847.29	1679.33
847.46	1720.29
847.63	1773.54
847.80	1648.61
847.97	1681.38
848.14	1771.49
848.31	1757.16
848.48	1570.79
848.65	1693.67
848.82	1609.70
848.98	1820.64
849.15	1742.82
849.32	1736.68
849.49	1755.11
849.66	1681.38
849.83	1724.39
850.00	1648.61
850.17	1753.06
850.34	1667.05
850.51	1712.10
850.68	1736.68
850.85	1755.11
851.01	1681.38
851.18	1755.11
851.35	1689.57
851.52	1763.30
851.69	1783.78
851.86	1646.57
852.03	1720.29
852.20	1673.19
852.37	1753.06
852.53	1630.18
852.70	1699.81
852.87	1734.63
853.04	1765.35
853.21	1716.20
853.38	1728.49
853.55	1748.97
853.72	1806.31
853.89	1681.38
854.05	1740.77
854.22	1718.25
854.39	1712.10
854.56	1691.62
854.73	1767.40
854.90	1695.72
855.07	1710.05
855.23	1644.52
855.40	1726.44
855.57	1789.92
855.74	1634.28
855.91	1898.47
856.08	1689.57
856.25	1646.57
856.41	1654.76
856.58	1560.55
856.75	1658.85
856.92	1640.42
857.09	1779.68
857.26	1603.56
857.42	1740.77
857.59	1748.97
857.76	1658.85
857.93	1710.05
858.10	1708.01
858.27	1607.66
858.43	1658.85
858.60	1755.11
858.77	1621.99
858.94	1691.62
859.11	1755.11
859.27	1701.86
859.44	1656.81
859.61	1771.49
859.78	1671.14
859.95	1740.77
860.12	1634.28
860.28	1783.78
860.45	1839.08
860.62	1677.29
860.79	1673.19
860.95	1656.81
861.12	1603.56
861.29	1691.62
861.46	1619.94
861.63	1683.43
861.79	1718.25
861.96	1675.24
862.13	1619.94
862.30	1820.64
862.47	1656.81
862.63	1617.90
862.80	1746.92
862.97	1761.25
863.14	1722.34
863.30	1742.82
863.47	1708.01
863.64	1771.49
863.81	1798.12
863.97	1634.28
864.14	1734.63
864.31	1695.72
864.48	1771.49
864.65	1738.73
864.81	1695.72
864.98	1708.01
865.15	1773.54
865.32	1755.11
865.48	1808.36
865.65	1787.88
865.82	1693.67
865.98	1802.21
866.15	1796.07
866.32	1742.82
866.49	1693.67
866.65	1755.11
866.82	1656.81
866.99	1751.01
867.16	1634.28
867.32	1699.81
867.49	1681.38
867.66	1648.61
867.83	1714.15
867.99	1566.70
868.16	1687.53
868.33	1601.51
868.49	1769.44
868.66	1710.05
868.83	1755.11
868.99	1621.99
869.16	1734.63
869.33	1712.10
869.50	1810.40
869.66	1675.24
869.83	1783.78
870.00	1560.55
870.16	1757.16
870.33	1751.01
870.50	1736.68
870.66	1665.00
870.83	1845.22
871.00	1746.92
871.17	1667.05
871.33	1826.79
871.50	1744.87
871.67	1798.12
871.83	1654.76
872.00	1734.63
872.17	1640.42
872.33	1802.21
872.50	1802.21
872.67	1679.33
872.83	1689.57
873.00	1789.92
873.17	1691.62
873.33	1736.68
873.50	1753.06
873.67	1630.18
873.83	1730.53
874.00	1712.10
874.16	1789.92
874.33	1683.43
874.50	1626.09
874.66	1814.50
874.83	1681.38
875.00	1791.97
875.16	1757.16
875.33	1730.53
875.50	1591.27
875.66	1675.24
875.83	1654.76
875.99	1751.01
876.16	1691.62
876.33	1617.90
876.49	1712.10
876.66	1783.78
876.83	1724.39
876.99	1671.14
877.16	1759.21
877.32	1697.77
877.49	1673.19
877.66	1769.44
877.82	1787.88
877.99	1626.09
878.15	1771.49
878.32	1673.19
878.49	1673.19
878.65	1693.67
878.82	1800.16
878.98	1652.71
879.15	1783.78
879.32	1724.39
879.48	1820.64
879.65	1718.25
879.81	1662.95
879.98	1697.77
880.15	1697.77
880.31	1648.61
880.48	1644.52
880.64	1845.22
880.81	1714.15
880.97	1800.16
881.14	1753.06
881.31	1722.34
881.47	1816.55
881.64	1765.35
881.80	1656.81
881.97	1771.49
882.13	1763.30
882.30	1560.55
882.47	1699.81
882.63	1634.28
882.80	1701.86
882.96	1638.38
883.13	1714.15
883.29	1660.90
883.46	1732.58
883.62	1769.44
883.79	1701.86
883.95	1716.20
884.12	1691.62
884.29	1804.26
884.45	1740.77
884.62	1806.31
884.78	1648.61
884.95	1785.83
885.11	1665.00
885.28	1849.32
885.44	1683.43
885.61	1742.82
885.77	1755.11
885.94	1708.01
886.10	1681.38
886.27	1736.68
886.43	1816.55
886.60	1775.59
886.76	1738.73
886.93	1691.62
887.09	1701.86
887.26	1609.70
887.42	1744.87
887.59	1740.77
887.75	1820.64
887.92	1798.12
888.08	1742.82
888.25	1845.22
888.41	1640.42
888.58	1652.71
888.74	1701.86
888.91	1652.71
>>>>>End Processed Spectral Data<<<<<
