SpectraSuite Data File
++++++++++++++++++++++++++++++++++++
Date: Mon Jun 06 13:18:17 CEST 2016
User: root
Dark Spectrum Present: No
Reference Spectrum Present: No
Number of Sampled Component Spectra: 1
Spectrometers: USB4C02835
Integration Time (usec): 100000 (USB4C02835)
Spectra Averaged: 1 (USB4C02835)
Boxcar Smoothing: 0 (USB4C02835)
Correct for Electrical Dark: No (USB4C02835)
Strobe/Lamp Enabled: No (USB4C02835)
Correct for Detector Non-linearity: No (USB4C02835)
Correct for Stray Light: No (USB4C02835)
Number of Pixels in Processed Spectrum: 3648
>>>>>Begin Processed Spectral Data<<<<<
177.47	1437.67
177.69	1437.67
177.91	1437.67
178.13	1425.39
178.36	1550.31
178.58	1632.23
178.80	1708.01
179.02	1642.47
179.24	1658.85
179.46	1693.67
179.68	1757.16
179.90	1689.57
180.13	1640.42
180.35	1689.57
180.57	1675.24
180.79	1771.49
181.01	1673.19
181.23	1771.49
181.45	1753.06
181.67	1650.66
181.90	1712.10
182.12	1626.09
182.34	1583.08
182.56	1751.01
182.78	1740.77
183.00	1691.62
183.22	1642.47
183.44	1621.99
183.66	1914.85
183.89	1796.07
184.11	1695.72
184.33	1730.53
184.55	1796.07
184.77	1748.97
184.99	1703.91
185.21	1642.47
185.43	1935.33
185.65	1611.75
185.87	1691.62
186.10	1798.12
186.32	1847.27
186.54	1742.82
186.76	1730.53
186.98	1665.00
187.20	1699.81
187.42	1615.85
187.64	1660.90
187.86	1710.05
188.08	1777.64
188.30	1656.81
188.52	1646.57
188.75	1738.73
188.97	1759.21
189.19	1632.23
189.41	1697.77
189.63	1710.05
189.85	1800.16
190.07	1716.20
190.29	1599.46
190.51	1794.02
190.73	1640.42
190.95	1740.77
191.17	1656.81
191.39	1705.96
191.61	1681.38
191.84	1683.43
192.06	1748.97
192.28	1675.24
192.50	1972.19
192.72	1644.52
192.94	1603.56
193.16	1734.63
193.38	1736.68
193.60	1654.76
193.82	1650.66
194.04	1738.73
194.26	1683.43
194.48	1681.38
194.70	1710.05
194.92	1675.24
195.14	1732.58
195.36	1652.71
195.58	1763.30
195.80	1773.54
196.02	1665.00
196.24	1699.81
196.46	1658.85
196.69	1624.04
196.91	1771.49
197.13	1714.15
197.35	1597.42
197.57	1822.69
197.79	1691.62
198.01	1732.58
198.23	1740.77
198.45	1763.30
198.67	1617.90
198.89	1689.57
199.11	1738.73
199.33	1597.42
199.55	1591.27
199.77	1683.43
199.99	1804.26
200.21	1703.91
200.43	1691.62
200.65	1656.81
200.87	1515.50
201.09	1761.25
201.31	1683.43
201.53	1761.25
201.75	1728.49
201.97	1677.29
202.19	1746.92
202.41	1736.68
202.63	1812.45
202.85	1701.86
203.07	1740.77
203.29	1638.38
203.51	1533.93
203.73	1675.24
203.95	1892.32
204.17	1755.11
204.39	1755.11
204.61	1646.57
204.83	1691.62
205.05	1730.53
205.27	1703.91
205.49	1822.69
205.71	1757.16
205.93	1632.23
206.15	1669.09
206.37	1701.86
206.59	1697.77
206.81	1677.29
207.03	1613.80
207.25	1679.33
207.47	1806.31
207.69	1648.61
207.91	1751.01
208.13	1742.82
208.34	1681.38
208.56	1634.28
208.78	1693.67
209.00	1697.77
209.22	1708.01
209.44	1671.14
209.66	1689.57
209.88	1662.95
210.10	1751.01
210.32	1667.05
210.54	1806.31
210.76	1697.77
210.98	1771.49
211.20	1619.94
211.42	1675.24
211.64	1800.16
211.86	1619.94
212.08	1710.05
212.30	1685.48
212.52	1642.47
212.74	1744.87
212.96	1681.38
213.17	1654.76
213.39	1675.24
213.61	1796.07
213.83	1730.53
214.05	1621.99
214.27	1722.34
214.49	1628.14
214.71	1650.66
214.93	1724.39
215.15	1708.01
215.37	1693.67
215.59	1572.84
215.81	1681.38
216.03	1720.29
216.24	1742.82
216.46	1685.48
216.68	1679.33
216.90	1708.01
217.12	1650.66
217.34	1710.05
217.56	1675.24
217.78	1783.78
218.00	1730.53
218.22	1699.81
218.44	1751.01
218.66	1673.19
218.87	1810.40
219.09	1671.14
219.31	1724.39
219.53	1710.05
219.75	1689.57
219.97	1650.66
220.19	1695.72
220.41	1755.11
220.63	1722.34
220.85	1662.95
221.06	1605.61
221.28	1671.14
221.50	1771.49
221.72	1691.62
221.94	1724.39
222.16	1716.20
222.38	1708.01
222.60	1703.91
222.82	1718.25
223.03	1769.44
223.25	1705.96
223.47	1765.35
223.69	1822.69
223.91	1708.01
224.13	1675.24
224.35	1658.85
224.57	1677.29
224.78	1814.50
225.00	1621.99
225.22	1689.57
225.44	1621.99
225.66	1775.59
225.88	1646.57
226.10	1671.14
226.32	1689.57
226.53	1734.63
226.75	1652.71
226.97	1636.33
227.19	1734.63
227.41	1607.66
227.63	1740.77
227.85	1652.71
228.06	1644.52
228.28	1714.15
228.50	1697.77
228.72	1689.57
228.94	1695.72
229.16	1621.99
229.37	1662.95
229.59	1681.38
229.81	1746.92
230.03	1673.19
230.25	1638.38
230.47	1665.00
230.69	1619.94
230.90	1734.63
231.12	1656.81
231.34	1726.44
231.56	1746.92
231.78	1652.71
232.00	1677.29
232.21	1693.67
232.43	1667.05
232.65	1669.09
232.87	1730.53
233.09	1650.66
233.30	1734.63
233.52	1798.12
233.74	1665.00
233.96	1630.18
234.18	1726.44
234.40	1769.44
234.61	1837.03
234.83	1638.38
235.05	1673.19
235.27	1789.92
235.49	1826.79
235.70	1656.81
235.92	1804.26
236.14	1753.06
236.36	1851.36
236.58	1654.76
236.79	1798.12
237.01	1763.30
237.23	1648.61
237.45	1757.16
237.67	1691.62
237.88	1804.26
238.10	1740.77
238.32	1619.94
238.54	1628.14
238.76	1687.53
238.97	1691.62
239.19	1638.38
239.41	1705.96
239.63	1812.45
239.85	1669.09
240.06	1710.05
240.28	1648.61
240.50	1724.39
240.72	1716.20
240.93	1673.19
241.15	1763.30
241.37	1726.44
241.59	1828.84
241.81	1730.53
242.02	1658.85
242.24	1748.97
242.46	1759.21
242.68	1681.38
242.89	1636.33
243.11	1726.44
243.33	1656.81
243.55	1736.68
243.76	1708.01
243.98	1669.09
244.20	1751.01
244.42	1701.86
244.64	1722.34
244.85	1681.38
245.07	1673.19
245.29	1677.29
245.51	1669.09
245.72	1638.38
245.94	1841.12
246.16	1791.97
246.38	1701.86
246.59	1654.76
246.81	1615.85
247.03	1708.01
247.24	1603.56
247.46	1691.62
247.68	1751.01
247.90	1615.85
248.11	1699.81
248.33	1734.63
248.55	1728.49
248.77	1763.30
248.98	1724.39
249.20	1787.88
249.42	1673.19
249.64	1746.92
249.85	1748.97
250.07	1675.24
250.29	1710.05
250.50	1769.44
250.72	1646.57
250.94	1722.34
251.16	1855.46
251.37	1771.49
251.59	1787.88
251.81	1746.92
252.02	1826.79
252.24	1712.10
252.46	1794.02
252.68	1710.05
252.89	1732.58
253.11	1642.47
253.33	1851.36
253.54	1783.78
253.76	1654.76
253.98	1646.57
254.20	1757.16
254.41	1527.78
254.63	1650.66
254.85	1689.57
255.06	1660.90
255.28	1763.30
255.50	1640.42
255.71	1665.00
255.93	1595.37
256.15	1642.47
256.36	1746.92
256.58	1648.61
256.80	1683.43
257.02	1687.53
257.23	1673.19
257.45	1644.52
257.67	1767.40
257.88	1673.19
258.10	1798.12
258.32	1669.09
258.53	1679.33
258.75	1765.35
258.97	1611.75
259.18	1632.23
259.40	1761.25
259.62	1783.78
259.83	1798.12
260.05	1796.07
260.27	1914.85
260.48	1791.97
260.70	1615.85
260.92	1722.34
261.13	1693.67
261.35	1736.68
261.57	1761.25
261.78	1583.08
262.00	1654.76
262.22	1767.40
262.43	1624.04
262.65	1652.71
262.86	1644.52
263.08	1781.73
263.30	1738.73
263.51	1615.85
263.73	1626.09
263.95	1781.73
264.16	1654.76
264.38	1654.76
264.60	1740.77
264.81	1669.09
265.03	1742.82
265.25	1748.97
265.46	1691.62
265.68	1669.09
265.89	1705.96
266.11	1667.05
266.33	1753.06
266.54	1769.44
266.76	1763.30
266.98	1740.77
267.19	1773.54
267.41	1814.50
267.62	1726.44
267.84	1603.56
268.06	1648.61
268.27	1677.29
268.49	1710.05
268.70	1742.82
268.92	1646.57
269.14	1599.46
269.35	1632.23
269.57	1728.49
269.79	1742.82
270.00	1658.85
270.22	1828.84
270.43	1705.96
270.65	1654.76
270.87	1724.39
271.08	1656.81
271.30	1773.54
271.51	1660.90
271.73	1695.72
271.95	1785.83
272.16	1761.25
272.38	1736.68
272.59	1681.38
272.81	1746.92
273.02	1695.72
273.24	1697.77
273.46	1644.52
273.67	1714.15
273.89	1574.89
274.10	1660.90
274.32	1730.53
274.54	1708.01
274.75	1658.85
274.97	1748.97
275.18	1775.59
275.40	1718.25
275.61	1695.72
275.83	1708.01
276.05	1671.14
276.26	1736.68
276.48	1642.47
276.69	1689.57
276.91	1714.15
277.12	1755.11
277.34	1714.15
277.55	1816.55
277.77	1738.73
277.99	1642.47
278.20	1615.85
278.42	1611.75
278.63	1658.85
278.85	1652.71
279.06	1685.48
279.28	1675.24
279.49	1806.31
279.71	1751.01
279.93	1662.95
280.14	1667.05
280.36	1669.09
280.57	1812.45
280.79	1714.15
281.00	1673.19
281.22	1695.72
281.43	1800.16
281.65	1607.66
281.86	1640.42
282.08	1658.85
282.29	1847.27
282.51	1636.33
282.73	1652.71
282.94	1603.56
283.16	1656.81
283.37	1787.88
283.59	1699.81
283.80	1683.43
284.02	1673.19
284.23	1701.86
284.45	1652.71
284.66	1671.14
284.88	1722.34
285.09	1710.05
285.31	1730.53
285.52	1746.92
285.74	1636.33
285.95	1783.78
286.17	1710.05
286.38	1742.82
286.60	1562.60
286.81	1687.53
287.03	1691.62
287.24	1671.14
287.46	1759.21
287.67	1740.77
287.89	1794.02
288.10	1650.66
288.32	1687.53
288.53	1808.36
288.75	1712.10
288.96	1734.63
289.18	1685.48
289.39	1654.76
289.61	1753.06
289.82	1812.45
290.04	1867.75
290.25	1648.61
290.47	1695.72
290.68	1667.05
290.90	1757.16
291.11	1597.42
291.33	1767.40
291.54	1642.47
291.76	1650.66
291.97	1714.15
292.18	1703.91
292.40	1654.76
292.61	1675.24
292.83	1806.31
293.04	1800.16
293.26	1669.09
293.47	1701.86
293.69	1652.71
293.90	1724.39
294.12	1761.25
294.33	1708.01
294.55	1640.42
294.76	1685.48
294.97	1814.50
295.19	1828.84
295.40	1669.09
295.62	1742.82
295.83	1755.11
296.05	1708.01
296.26	1806.31
296.48	1652.71
296.69	1671.14
296.90	1662.95
297.12	1722.34
297.33	1794.02
297.55	1714.15
297.76	1777.64
297.98	1779.68
298.19	1710.05
298.41	1705.96
298.62	1697.77
298.83	1830.88
299.05	1681.38
299.26	1667.05
299.48	1689.57
299.69	1814.50
299.90	1697.77
300.12	1677.29
300.33	1728.49
300.55	1761.25
300.76	1726.44
300.98	1605.61
301.19	1662.95
301.40	1751.01
301.62	1656.81
301.83	1755.11
302.05	1636.33
302.26	1740.77
302.47	1669.09
302.69	1677.29
302.90	1691.62
303.12	1603.56
303.33	1738.73
303.54	1861.60
303.76	1667.05
303.97	1777.64
304.19	1800.16
304.40	1613.80
304.61	1701.86
304.83	1781.73
305.04	1660.90
305.26	1800.16
305.47	1673.19
305.68	1652.71
305.90	1644.52
306.11	1751.01
306.33	1607.66
306.54	1740.77
306.75	1724.39
306.97	1630.18
307.18	1630.18
307.39	1714.15
307.61	1748.97
307.82	1638.38
308.04	1794.02
308.25	1613.80
308.46	1736.68
308.68	1691.62
308.89	1654.76
309.10	1734.63
309.32	1714.15
309.53	1617.90
309.74	1763.30
309.96	1693.67
310.17	1761.25
310.39	1570.79
310.60	1662.95
310.81	1705.96
311.03	1693.67
311.24	1732.58
311.45	1724.39
311.67	1841.12
311.88	1673.19
312.09	1701.86
312.31	1595.37
312.52	1703.91
312.73	1718.25
312.95	1671.14
313.16	1714.15
313.37	1779.68
313.59	1765.35
313.80	1765.35
314.01	1771.49
314.23	1722.34
314.44	1658.85
314.65	1619.94
314.87	1615.85
315.08	1730.53
315.29	1697.77
315.51	1619.94
315.72	1693.67
315.93	1828.84
316.15	1730.53
316.36	1601.51
316.57	1748.97
316.79	1665.00
317.00	1710.05
317.21	1681.38
317.43	1667.05
317.64	1654.76
317.85	1640.42
318.07	1738.73
318.28	1740.77
318.49	1816.55
318.70	1925.09
318.92	1869.80
319.13	1812.45
319.34	1898.47
319.56	1763.30
319.77	1775.59
319.98	1779.68
320.20	1791.97
320.41	1665.00
320.62	1783.78
320.83	1708.01
321.05	1906.66
321.26	1759.21
321.47	1619.94
321.69	1730.53
321.90	1591.27
322.11	1716.20
322.32	1714.15
322.54	1810.40
322.75	1669.09
322.96	1796.07
323.18	1644.52
323.39	1587.18
323.60	1630.18
323.81	1746.92
324.03	1726.44
324.24	1712.10
324.45	1691.62
324.66	1675.24
324.88	1785.83
325.09	1779.68
325.30	1660.90
325.52	1789.92
325.73	1669.09
325.94	1619.94
326.15	1538.02
326.37	1644.52
326.58	1839.08
326.79	1787.88
327.00	1703.91
327.22	1691.62
327.43	1673.19
327.64	1683.43
327.85	1701.86
328.07	1708.01
328.28	1843.17
328.49	1634.28
328.70	1677.29
328.92	1624.04
329.13	1697.77
329.34	1730.53
329.55	1818.60
329.76	1814.50
329.98	1728.49
330.19	1796.07
330.40	1755.11
330.61	1691.62
330.83	1665.00
331.04	1656.81
331.25	1667.05
331.46	1701.86
331.68	1656.81
331.89	1828.84
332.10	1636.33
332.31	1585.13
332.52	1638.38
332.74	1701.86
332.95	1617.90
333.16	1656.81
333.37	1728.49
333.58	1693.67
333.80	1763.30
334.01	1611.75
334.22	1669.09
334.43	1636.33
334.64	1677.29
334.86	1626.09
335.07	1646.57
335.28	1765.35
335.49	1644.52
335.70	1708.01
335.92	1785.83
336.13	1802.21
336.34	1665.00
336.55	1763.30
336.76	1722.34
336.98	1605.61
337.19	1683.43
337.40	1800.16
337.61	1847.27
337.82	1673.19
338.04	1701.86
338.25	1667.05
338.46	1650.66
338.67	1675.24
338.88	1650.66
339.09	1646.57
339.31	1673.19
339.52	1609.70
339.73	1644.52
339.94	1621.99
340.15	1726.44
340.36	1699.81
340.58	1701.86
340.79	1681.38
341.00	1746.92
341.21	1628.14
341.42	1832.93
341.63	1626.09
341.85	1753.06
342.06	1732.58
342.27	1630.18
342.48	1746.92
342.69	1683.43
342.90	1714.15
343.12	1738.73
343.33	1658.85
343.54	1720.29
343.75	1804.26
343.96	1677.29
344.17	1624.04
344.38	1673.19
344.60	1701.86
344.81	1611.75
345.02	1705.96
345.23	1812.45
345.44	1877.99
345.65	1767.40
345.86	1701.86
346.07	1658.85
346.29	1652.71
346.50	1685.48
346.71	1699.81
346.92	1753.06
347.13	1888.23
347.34	1640.42
347.55	1714.15
347.76	1724.39
347.98	1550.31
348.19	1691.62
348.40	1804.26
348.61	1626.09
348.82	1804.26
349.03	1777.64
349.24	1632.23
349.45	1851.36
349.66	1570.79
349.88	1679.33
350.09	1710.05
350.30	1748.97
350.51	1761.25
350.72	1744.87
350.93	1673.19
351.14	1710.05
351.35	1718.25
351.56	1753.06
351.77	1662.95
351.99	1722.34
352.20	1763.30
352.41	1734.63
352.62	1542.12
352.83	1730.53
353.04	1722.34
353.25	1603.56
353.46	1697.77
353.67	1820.64
353.88	1542.12
354.09	1697.77
354.30	1722.34
354.52	1767.40
354.73	1624.04
354.94	1689.57
355.15	1638.38
355.36	1716.20
355.57	1751.01
355.78	1724.39
355.99	1695.72
356.20	1662.95
356.41	1738.73
356.62	1746.92
356.83	1740.77
357.04	1761.25
357.25	1652.71
357.46	1638.38
357.68	1638.38
357.89	1619.94
358.10	1640.42
358.31	1746.92
358.52	1703.91
358.73	1611.75
358.94	1720.29
359.15	1681.38
359.36	1687.53
359.57	1652.71
359.78	1730.53
359.99	1781.73
360.20	1689.57
360.41	1648.61
360.62	1785.83
360.83	1703.91
361.04	1703.91
361.25	1695.72
361.46	1843.17
361.67	1775.59
361.88	1800.16
362.09	1783.78
362.30	1673.19
362.51	1695.72
362.72	1671.14
362.93	1673.19
363.14	1755.11
363.35	1810.40
363.56	1642.47
363.78	1738.73
363.99	1708.01
364.20	1703.91
364.41	1732.58
364.62	1834.98
364.83	1710.05
365.04	1687.53
365.25	1716.20
365.46	1814.50
365.67	1665.00
365.88	1679.33
366.09	1714.15
366.30	1699.81
366.51	1720.29
366.72	1613.80
366.93	1667.05
367.14	1720.29
367.35	1783.78
367.56	1632.23
367.77	1757.16
367.98	1665.00
368.18	1617.90
368.39	1740.77
368.60	1597.42
368.81	1734.63
369.02	1714.15
369.23	1755.11
369.44	1644.52
369.65	1654.76
369.86	1748.97
370.07	1740.77
370.28	1644.52
370.49	1742.82
370.70	1673.19
370.91	1624.04
371.12	1642.47
371.33	1757.16
371.54	1648.61
371.75	1806.31
371.96	1562.60
372.17	1689.57
372.38	1665.00
372.59	1757.16
372.80	1697.77
373.01	1716.20
373.22	1658.85
373.43	1644.52
373.64	1652.71
373.85	1726.44
374.06	1875.94
374.26	1665.00
374.47	1722.34
374.68	1742.82
374.89	1734.63
375.10	1675.24
375.31	1808.36
375.52	1689.57
375.73	1685.48
375.94	1624.04
376.15	1796.07
376.36	1611.75
376.57	1687.53
376.78	1634.28
376.99	1671.14
377.20	1761.25
377.40	1640.42
377.61	1796.07
377.82	1636.33
378.03	1900.52
378.24	1742.82
378.45	1665.00
378.66	1624.04
378.87	1669.09
379.08	1658.85
379.29	1738.73
379.50	1732.58
379.71	1607.66
379.91	1652.71
380.12	1665.00
380.33	1703.91
380.54	1689.57
380.75	1728.49
380.96	1665.00
381.17	1720.29
381.38	1757.16
381.59	1656.81
381.80	1767.40
382.00	1820.64
382.21	1689.57
382.42	1812.45
382.63	1789.92
382.84	1710.05
383.05	1826.79
383.26	1775.59
383.47	1652.71
383.68	1853.41
383.88	1812.45
384.09	1763.30
384.30	1814.50
384.51	1757.16
384.72	1681.38
384.93	1599.46
385.14	1640.42
385.35	1748.97
385.55	1665.00
385.76	1738.73
385.97	1734.63
386.18	1673.19
386.39	1679.33
386.60	1630.18
386.81	1681.38
387.02	1624.04
387.22	1603.56
387.43	1808.36
387.64	1781.73
387.85	1875.94
388.06	2193.37
388.27	4298.69
388.48	6834.07
388.68	8396.67
388.89	9709.42
389.10	10049.38
389.31	8720.25
389.52	7681.93
389.73	6739.87
389.93	6328.22
390.14	5767.08
390.35	5308.34
390.56	4681.66
390.77	3762.12
390.98	2990.03
391.18	2510.81
391.39	2095.07
391.60	1888.23
391.81	1814.50
392.02	1705.96
392.23	1783.78
392.43	1718.25
392.64	1740.77
392.85	1755.11
393.06	1800.16
393.27	1642.47
393.47	1710.05
393.68	1734.63
393.89	1761.25
394.10	1765.35
394.31	1665.00
394.52	1677.29
394.72	1693.67
394.93	1708.01
395.14	1699.81
395.35	1804.26
395.56	1691.62
395.76	1705.96
395.97	1783.78
396.18	1755.11
396.39	1851.36
396.60	2050.02
396.80	1873.89
397.01	1929.19
397.22	1808.36
397.43	1851.36
397.64	1771.49
397.84	1761.25
398.05	1869.80
398.26	1687.53
398.47	1812.45
398.67	1767.40
398.88	1769.44
399.09	1667.05
399.30	1755.11
399.51	1697.77
399.71	1675.24
399.92	1748.97
400.13	1689.57
400.34	1699.81
400.54	1736.68
400.75	1839.08
400.96	1769.44
401.17	1812.45
401.37	1767.40
401.58	1765.35
401.79	1759.21
402.00	1816.55
402.21	2021.35
402.41	1894.37
402.62	1968.10
402.83	2033.63
403.04	1964.00
403.24	2072.54
403.45	1789.92
403.66	1882.08
403.87	1912.80
404.07	1855.46
404.28	1927.14
404.49	1869.80
404.70	1837.03
404.90	1755.11
405.11	1732.58
405.32	1671.14
405.52	1634.28
405.73	1611.75
405.94	1687.53
406.15	1648.61
406.35	1757.16
406.56	1681.38
406.77	1734.63
406.98	1697.77
407.18	1693.67
407.39	1673.19
407.60	1652.71
407.80	1736.68
408.01	1628.14
408.22	1802.21
408.43	1597.42
408.63	1650.66
408.84	1796.07
409.05	1740.77
409.25	1644.52
409.46	1675.24
409.67	1705.96
409.88	1662.95
410.08	1740.77
410.29	1744.87
410.50	1736.68
410.70	1736.68
410.91	1695.72
411.12	1683.43
411.32	1636.33
411.53	1689.57
411.74	1830.88
411.95	1779.68
412.15	1693.67
412.36	1699.81
412.57	1744.87
412.77	1773.54
412.98	1759.21
413.19	1732.58
413.39	1697.77
413.60	1834.98
413.81	1712.10
414.01	1656.81
414.22	1769.44
414.43	1804.26
414.63	1662.95
414.84	1794.02
415.05	1710.05
415.25	1642.47
415.46	1787.88
415.67	1617.90
415.87	1691.62
416.08	1701.86
416.29	1712.10
416.49	1746.92
416.70	1695.72
416.91	1665.00
417.11	1744.87
417.32	1796.07
417.53	1722.34
417.73	1718.25
417.94	1701.86
418.15	1722.34
418.35	1675.24
418.56	1683.43
418.77	1820.64
418.97	1789.92
419.18	1697.77
419.38	1533.93
419.59	1730.53
419.80	1765.35
420.00	1675.24
420.21	1734.63
420.42	1785.83
420.62	1802.21
420.83	1628.14
421.04	1714.15
421.24	1681.38
421.45	1751.01
421.65	1699.81
421.86	1679.33
422.07	1705.96
422.27	1748.97
422.48	1665.00
422.69	1691.62
422.89	1697.77
423.10	1677.29
423.30	1595.37
423.51	1710.05
423.72	1746.92
423.92	1744.87
424.13	1603.56
424.33	1673.19
424.54	1765.35
424.75	1714.15
424.95	1847.27
425.16	1695.72
425.36	1722.34
425.57	1763.30
425.78	1796.07
425.98	1767.40
426.19	1687.53
426.39	1642.47
426.60	1660.90
426.81	1732.58
427.01	1742.82
427.22	1695.72
427.42	1632.23
427.63	1656.81
427.83	1730.53
428.04	1744.87
428.25	1738.73
428.45	1759.21
428.66	1726.44
428.86	1718.25
429.07	1701.86
429.28	1767.40
429.48	1753.06
429.69	1599.46
429.89	1714.15
430.10	1624.04
430.30	1783.78
430.51	1703.91
430.71	1730.53
430.92	1726.44
431.13	1617.90
431.33	1763.30
431.54	1826.79
431.74	1806.31
431.95	1894.37
432.15	1626.09
432.36	1675.24
432.56	1722.34
432.77	1818.60
432.98	1769.44
433.18	1695.72
433.39	1687.53
433.59	1650.66
433.80	1761.25
434.00	1804.26
434.21	1691.62
434.41	1705.96
434.62	1837.03
434.82	1673.19
435.03	1716.20
435.23	1753.06
435.44	1632.23
435.64	1710.05
435.85	1710.05
436.06	1738.73
436.26	1736.68
436.47	1699.81
436.67	1648.61
436.88	1640.42
437.08	1708.01
437.29	1822.69
437.49	1755.11
437.70	1791.97
437.90	1673.19
438.11	1849.32
438.31	1699.81
438.52	1746.92
438.72	1863.65
438.93	1918.95
439.13	1812.45
439.34	1800.16
439.54	1697.77
439.75	1775.59
439.95	1837.03
440.16	1742.82
440.36	1763.30
440.57	1783.78
440.77	1728.49
440.98	1724.39
441.18	1757.16
441.39	1685.48
441.59	1615.85
441.80	1837.03
442.00	1775.59
442.21	1763.30
442.41	1703.91
442.62	1767.40
442.82	1675.24
443.02	1689.57
443.23	1730.53
443.43	1677.29
443.64	1814.50
443.84	1695.72
444.05	1759.21
444.25	1740.77
444.46	1714.15
444.66	1734.63
444.87	1785.83
445.07	1673.19
445.28	1683.43
445.48	1855.46
445.69	1712.10
445.89	1820.64
446.09	1730.53
446.30	2031.58
446.50	2693.08
446.71	3764.17
446.91	4294.59
447.12	4767.67
447.32	4911.03
447.53	4384.70
447.73	4032.45
447.93	3545.03
448.14	3399.63
448.34	3188.69
448.55	2938.84
448.75	2863.06
448.96	2668.50
449.16	2389.98
449.36	2244.57
449.57	2129.89
449.77	1865.70
449.98	1804.26
450.18	1816.55
450.39	1837.03
450.59	1767.40
450.79	1748.97
451.00	1701.86
451.20	1794.02
451.41	1697.77
451.61	1855.46
451.81	1712.10
452.02	1736.68
452.22	1703.91
452.43	1669.09
452.63	1699.81
452.84	1710.05
453.04	1791.97
453.24	1769.44
453.45	1740.77
453.65	1687.53
453.86	1781.73
454.06	1771.49
454.26	1824.74
454.47	1724.39
454.67	1834.98
454.87	1689.57
455.08	1773.54
455.28	1877.99
455.49	1767.40
455.69	1667.05
455.89	1900.52
456.10	1773.54
456.30	1732.58
456.51	1742.82
456.71	1785.83
456.91	1808.36
457.12	1695.72
457.32	1820.64
457.52	1710.05
457.73	1798.12
457.93	1714.15
458.14	1728.49
458.34	1648.61
458.54	1701.86
458.75	1644.52
458.95	1771.49
459.15	1742.82
459.36	1755.11
459.56	1781.73
459.76	1773.54
459.97	1720.29
460.17	1746.92
460.37	1783.78
460.58	1757.16
460.78	1763.30
460.99	1677.29
461.19	1738.73
461.39	1693.67
461.60	1697.77
461.80	1718.25
462.00	1634.28
462.21	1718.25
462.41	1665.00
462.61	1626.09
462.82	1607.66
463.02	1755.11
463.22	1722.34
463.43	1781.73
463.63	1742.82
463.83	1765.35
464.04	1718.25
464.24	1701.86
464.44	1632.23
464.64	1796.07
464.85	1734.63
465.05	1857.51
465.25	1703.91
465.46	1658.85
465.66	1734.63
465.86	1775.59
466.07	1773.54
466.27	1720.29
466.47	1673.19
466.68	1630.18
466.88	1845.22
467.08	1773.54
467.29	1791.97
467.49	1826.79
467.69	1632.23
467.89	1746.92
468.10	1806.31
468.30	1748.97
468.50	1828.84
468.71	1751.01
468.91	1697.77
469.11	1802.21
469.31	1724.39
469.52	1636.33
469.72	1763.30
469.92	1853.41
470.13	1722.34
470.33	1640.42
470.53	1830.88
470.73	2154.46
470.94	2295.77
471.14	2271.20
471.34	2566.10
471.54	2381.79
471.75	2256.86
471.95	2187.23
472.15	2170.85
472.36	2115.55
472.56	2070.50
472.76	2107.36
472.96	2033.63
473.17	1947.62
473.37	1947.62
473.57	1820.64
473.77	1789.92
473.98	1916.90
474.18	1691.62
474.38	1884.13
474.58	1720.29
474.79	1710.05
474.99	1662.95
475.19	1804.26
475.39	1695.72
475.60	1789.92
475.80	1691.62
476.00	1646.57
476.20	1691.62
476.41	1748.97
476.61	1834.98
476.81	1705.96
477.01	1640.42
477.21	1865.70
477.42	1761.25
477.62	1613.80
477.82	1748.97
478.02	1712.10
478.23	1730.53
478.43	1669.09
478.63	1689.57
478.83	1677.29
479.03	1705.96
479.24	1783.78
479.44	1789.92
479.64	1640.42
479.84	1658.85
480.04	1679.33
480.25	1669.09
480.45	1607.66
480.65	1656.81
480.85	1765.35
481.06	1640.42
481.26	1748.97
481.46	1755.11
481.66	1728.49
481.86	1656.81
482.06	1816.55
482.27	1681.38
482.47	1681.38
482.67	1658.85
482.87	1787.88
483.07	1738.73
483.28	1650.66
483.48	1667.05
483.68	1685.48
483.88	1699.81
484.08	1640.42
484.29	1658.85
484.49	1710.05
484.69	1593.32
484.89	1849.32
485.09	1732.58
485.29	1742.82
485.50	1771.49
485.70	1642.47
485.90	1822.69
486.10	1767.40
486.30	1806.31
486.50	1722.34
486.71	1783.78
486.91	1837.03
487.11	1761.25
487.31	1650.66
487.51	1781.73
487.71	1617.90
487.91	1642.47
488.12	1714.15
488.32	1644.52
488.52	1728.49
488.72	1587.18
488.92	1746.92
489.12	1726.44
489.32	1806.31
489.53	1736.68
489.73	1662.95
489.93	1787.88
490.13	1652.71
490.33	1552.36
490.53	1753.06
490.73	1744.87
490.94	1662.95
491.14	1738.73
491.34	1865.70
491.54	2019.30
491.74	2570.20
491.94	2994.13
492.14	2910.16
492.34	3028.95
492.54	2871.25
492.75	2455.51
492.95	2449.37
493.15	2308.06
493.35	2248.67
493.55	2150.37
493.75	2148.32
493.95	2146.27
494.15	2043.87
494.35	1943.52
494.56	1884.13
494.76	1802.21
494.96	1859.56
495.16	1814.50
495.36	1751.01
495.56	1728.49
495.76	1646.57
495.96	1705.96
496.16	1691.62
496.36	1794.02
496.56	1648.61
496.77	1824.74
496.97	1703.91
497.17	1816.55
497.37	1617.90
497.57	1734.63
497.77	1644.52
497.97	1708.01
498.17	1710.05
498.37	1675.24
498.57	1746.92
498.77	1759.21
498.97	1791.97
499.17	1783.78
499.38	1695.72
499.58	1759.21
499.78	1673.19
499.98	1718.25
500.18	1722.34
500.38	1769.44
500.58	1961.95
500.78	2539.48
500.98	4622.27
501.18	5822.38
501.38	6864.79
501.58	7163.79
501.78	6780.82
501.98	5607.34
502.18	4976.56
502.38	4419.52
502.58	4130.75
502.78	3762.12
502.98	3571.66
503.18	3377.10
503.38	3139.54
503.59	2781.14
503.79	2666.46
503.99	2469.85
504.19	2297.82
504.39	2168.80
504.59	2111.46
504.79	2125.79
504.99	2041.82
505.19	1910.75
505.39	1865.70
505.59	2007.01
505.79	1904.61
505.99	1828.84
506.19	1787.88
506.39	1867.75
506.59	1699.81
506.79	1740.77
506.99	1783.78
507.19	1685.48
507.39	1791.97
507.59	1658.85
507.79	1609.70
507.99	1753.06
508.19	1675.24
508.39	1701.86
508.59	1677.29
508.79	1822.69
508.99	1814.50
509.19	1687.53
509.39	1740.77
509.59	1658.85
509.79	1697.77
509.99	1742.82
510.19	1785.83
510.39	1720.29
510.59	1673.19
510.79	1708.01
510.99	1671.14
511.19	1699.81
511.39	1759.21
511.59	1759.21
511.79	1791.97
511.99	1714.15
512.19	1845.22
512.38	1632.23
512.58	1730.53
512.78	1685.48
512.98	1789.92
513.18	1779.68
513.38	1632.23
513.58	1837.03
513.78	1611.75
513.98	1748.97
514.18	1644.52
514.38	1677.29
514.58	1712.10
514.78	1689.57
514.98	1636.33
515.18	1710.05
515.38	1593.32
515.58	1802.21
515.78	1798.12
515.98	1718.25
516.18	1714.15
516.38	1728.49
516.57	1718.25
516.77	1722.34
516.97	1753.06
517.17	1697.77
517.37	1648.61
517.57	1806.31
517.77	1718.25
517.97	1742.82
518.17	1837.03
518.37	1759.21
518.57	1675.24
518.77	1691.62
518.97	1619.94
519.16	1746.92
519.36	1816.55
519.56	1771.49
519.76	1724.39
519.96	1757.16
520.16	1755.11
520.36	1681.38
520.56	1779.68
520.76	1695.72
520.96	1732.58
521.16	1808.36
521.35	1748.97
521.55	1724.39
521.75	1660.90
521.95	1632.23
522.15	1720.29
522.35	1660.90
522.55	1683.43
522.75	1796.07
522.95	1683.43
523.14	1708.01
523.34	1695.72
523.54	1746.92
523.74	1744.87
523.94	1689.57
524.14	1630.18
524.34	1773.54
524.54	1830.88
524.73	1675.24
524.93	1730.53
525.13	1708.01
525.33	1671.14
525.53	1839.08
525.73	1767.40
525.93	1697.77
526.13	1705.96
526.32	1621.99
526.52	1794.02
526.72	1796.07
526.92	1693.67
527.12	1789.92
527.32	1628.14
527.52	1720.29
527.71	1738.73
527.91	1769.44
528.11	1681.38
528.31	1687.53
528.51	1671.14
528.71	1798.12
528.90	1791.97
529.10	1824.74
529.30	1804.26
529.50	1593.32
529.70	1654.76
529.90	1755.11
530.09	1730.53
530.29	1648.61
530.49	1714.15
530.69	1837.03
530.89	1740.77
531.09	1761.25
531.28	1726.44
531.48	1771.49
531.68	1794.02
531.88	1820.64
532.08	1839.08
532.28	1681.38
532.47	1746.92
532.67	1798.12
532.87	1746.92
533.07	1662.95
533.27	1779.68
533.46	1787.88
533.66	1697.77
533.86	1822.69
534.06	1685.48
534.26	1761.25
534.45	1796.07
534.65	1796.07
534.85	1757.16
535.05	1691.62
535.25	1742.82
535.44	1611.75
535.64	1677.29
535.84	1722.34
536.04	1722.34
536.24	1665.00
536.43	1720.29
536.63	1746.92
536.83	1718.25
537.03	1681.38
537.22	1644.52
537.42	1681.38
537.62	1757.16
537.82	1667.05
538.02	1816.55
538.21	1767.40
538.41	1859.56
538.61	1798.12
538.81	1763.30
539.00	1804.26
539.20	1673.19
539.40	1751.01
539.60	1761.25
539.79	1806.31
539.99	1613.80
540.19	1761.25
540.39	1761.25
540.58	1714.15
540.78	1720.29
540.98	1718.25
541.18	1804.26
541.37	1796.07
541.57	1736.68
541.77	1761.25
541.97	1648.61
542.16	1560.55
542.36	1724.39
542.56	1718.25
542.76	1839.08
542.95	1798.12
543.15	1730.53
543.35	1751.01
543.54	1619.94
543.74	1722.34
543.94	1789.92
544.14	1726.44
544.33	1773.54
544.53	1740.77
544.73	1650.66
544.93	1730.53
545.12	1722.34
545.32	1685.48
545.52	1720.29
545.71	1667.05
545.91	1689.57
546.11	1705.96
546.30	1628.14
546.50	1742.82
546.70	1724.39
546.90	1716.20
547.09	1615.85
547.29	1687.53
547.49	1806.31
547.68	1673.19
547.88	1671.14
548.08	1763.30
548.27	2119.65
548.47	1734.63
548.67	1697.77
548.87	1720.29
549.06	1724.39
549.26	1716.20
549.46	1773.54
549.65	1722.34
549.85	1740.77
550.05	1806.31
550.24	1783.78
550.44	1759.21
550.64	1785.83
550.83	1740.77
551.03	1834.98
551.23	1675.24
551.42	1716.20
551.62	1683.43
551.82	1740.77
552.01	1732.58
552.21	1863.65
552.41	1732.58
552.60	1843.17
552.80	1734.63
553.00	1736.68
553.19	1755.11
553.39	1769.44
553.59	1699.81
553.78	1710.05
553.98	1804.26
554.17	1654.76
554.37	1847.27
554.57	1697.77
554.76	1624.04
554.96	1716.20
555.16	1691.62
555.35	1777.64
555.55	1728.49
555.75	1736.68
555.94	1869.80
556.14	1683.43
556.33	1746.92
556.53	1755.11
556.73	1716.20
556.92	1794.02
557.12	1851.36
557.32	1877.99
557.51	1830.88
557.71	1834.98
557.90	1839.08
558.10	1806.31
558.30	1724.39
558.49	1697.77
558.69	1648.61
558.88	1744.87
559.08	1665.00
559.28	1718.25
559.47	1812.45
559.67	1779.68
559.86	1875.94
560.06	1767.40
560.26	1687.53
560.45	1785.83
560.65	1687.53
560.84	1880.04
561.04	1671.14
561.24	1812.45
561.43	1757.16
561.63	1832.93
561.82	1730.53
562.02	1794.02
562.22	1746.92
562.41	1603.56
562.61	1675.24
562.80	1617.90
563.00	1849.32
563.19	1697.77
563.39	1724.39
563.59	1759.21
563.78	1689.57
563.98	1568.74
564.17	1701.86
564.37	1697.77
564.56	1779.68
564.76	1705.96
564.96	1734.63
565.15	1730.53
565.35	1824.74
565.54	1746.92
565.74	1775.59
565.93	1748.97
566.13	1738.73
566.32	1726.44
566.52	1785.83
566.71	1718.25
566.91	1732.58
567.11	1761.25
567.30	1716.20
567.50	1695.72
567.69	1685.48
567.89	1755.11
568.08	1755.11
568.28	1787.88
568.47	1640.42
568.67	1804.26
568.86	1736.68
569.06	1777.64
569.25	1787.88
569.45	1675.24
569.64	1748.97
569.84	1730.53
570.04	1761.25
570.23	1697.77
570.43	1681.38
570.62	1746.92
570.82	1800.16
571.01	1665.00
571.21	1689.57
571.40	1656.81
571.60	1775.59
571.79	1783.78
571.99	1759.21
572.18	1703.91
572.38	1796.07
572.57	1646.57
572.77	1751.01
572.96	1845.22
573.16	1783.78
573.35	1759.21
573.55	1869.80
573.74	1769.44
573.94	1724.39
574.13	1644.52
574.33	1802.21
574.52	1822.69
574.71	1710.05
574.91	1724.39
575.10	1693.67
575.30	1712.10
575.49	1728.49
575.69	1693.67
575.88	1751.01
576.08	1693.67
576.27	1839.08
576.47	1638.38
576.66	1824.74
576.86	1751.01
577.05	1763.30
577.25	1738.73
577.44	1882.08
577.64	1746.92
577.83	1746.92
578.02	1701.86
578.22	1763.30
578.41	1861.60
578.61	1710.05
578.80	1718.25
579.00	1781.73
579.19	1738.73
579.39	1779.68
579.58	1863.65
579.77	1775.59
579.97	1867.75
580.16	1810.40
580.36	1802.21
580.55	1736.68
580.75	1693.67
580.94	1712.10
581.13	1853.41
581.33	1871.84
581.52	1742.82
581.72	1871.84
581.91	1849.32
582.11	1708.01
582.30	1775.59
582.49	1726.44
582.69	1845.22
582.88	1701.86
583.08	1740.77
583.27	1865.70
583.47	1771.49
583.66	1714.15
583.85	1720.29
584.05	1718.25
584.24	1779.68
584.44	1796.07
584.63	1800.16
584.82	1751.01
585.02	1824.74
585.21	1783.78
585.41	1789.92
585.60	1794.02
585.79	1910.75
585.99	1855.46
586.18	1855.46
586.37	2179.04
586.57	3418.06
586.76	9871.21
586.96	24901.25
587.15	35118.57
587.34	40906.13
587.54	42616.18
587.73	37473.73
587.93	27074.15
588.12	22134.45
588.31	18497.25
588.51	16776.96
588.70	15306.52
588.89	14257.96
589.09	13051.70
589.28	11501.39
589.47	9574.25
589.67	7942.02
589.86	6545.31
590.06	5136.31
590.25	4050.88
590.44	3162.06
590.64	2482.14
590.83	2306.01
591.02	2156.51
591.22	1947.62
591.41	1937.38
591.60	1820.64
591.80	1849.32
591.99	1722.34
592.18	1775.59
592.38	1843.17
592.57	1708.01
592.76	1748.97
592.96	1777.64
593.15	1714.15
593.34	1791.97
593.54	1724.39
593.73	1818.60
593.92	1785.83
594.12	1699.81
594.31	1718.25
594.50	1794.02
594.70	1791.97
594.89	1834.98
595.08	1572.84
595.28	1804.26
595.47	1890.28
595.66	1685.48
595.86	1779.68
596.05	1744.87
596.24	1740.77
596.43	1814.50
596.63	1791.97
596.82	1849.32
597.01	1779.68
597.21	1794.02
597.40	1759.21
597.59	1804.26
597.79	1726.44
597.98	1744.87
598.17	1763.30
598.36	1748.97
598.56	1728.49
598.75	1667.05
598.94	1730.53
599.14	1777.64
599.33	1748.97
599.52	1802.21
599.71	1732.58
599.91	1765.35
600.10	1859.56
600.29	1800.16
600.48	1757.16
600.68	1775.59
600.87	1613.80
601.06	1597.42
601.26	1708.01
601.45	1761.25
601.64	1765.35
601.83	1804.26
602.03	1724.39
602.22	1708.01
602.41	1738.73
602.60	1863.65
602.80	1787.88
602.99	1703.91
603.18	1687.53
603.37	1734.63
603.57	1667.05
603.76	1769.44
603.95	1820.64
604.14	1769.44
604.34	1650.66
604.53	1695.72
604.72	1628.14
604.91	1722.34
605.10	1775.59
605.30	1624.04
605.49	1873.89
605.68	1767.40
605.87	1779.68
606.07	1673.19
606.26	1736.68
606.45	1607.66
606.64	1744.87
606.84	1708.01
607.03	1701.86
607.22	1789.92
607.41	1671.14
607.60	1683.43
607.80	1744.87
607.99	1740.77
608.18	1705.96
608.37	1691.62
608.56	1740.77
608.76	1818.60
608.95	1857.51
609.14	1695.72
609.33	1722.34
609.52	1802.21
609.72	1761.25
609.91	1705.96
610.10	1796.07
610.29	1808.36
610.48	1800.16
610.68	1796.07
610.87	1771.49
611.06	1769.44
611.25	1710.05
611.44	1818.60
611.63	1705.96
611.83	1781.73
612.02	1708.01
612.21	1759.21
612.40	1673.19
612.59	1685.48
612.79	1605.61
612.98	1769.44
613.17	1814.50
613.36	1726.44
613.55	1863.65
613.74	1679.33
613.93	1701.86
614.13	1654.76
614.32	1769.44
614.51	1785.83
614.70	1636.33
614.89	1671.14
615.08	1714.15
615.28	2058.21
615.47	1669.09
615.66	1746.92
615.85	1656.81
616.04	1812.45
616.23	1679.33
616.42	1742.82
616.62	1689.57
616.81	1769.44
617.00	1654.76
617.19	1765.35
617.38	1640.42
617.57	1730.53
617.76	1744.87
617.95	1777.64
618.15	1798.12
618.34	1765.35
618.53	1621.99
618.72	1748.97
618.91	1744.87
619.10	1828.84
619.29	1703.91
619.48	1646.57
619.68	1646.57
619.87	1669.09
620.06	1636.33
620.25	1734.63
620.44	1646.57
620.63	1720.29
620.82	1703.91
621.01	1662.95
621.20	1771.49
621.39	1759.21
621.59	1683.43
621.78	1740.77
621.97	1642.47
622.16	1746.92
622.35	1746.92
622.54	1826.79
622.73	1830.88
622.92	1613.80
623.11	1837.03
623.30	1701.86
623.49	1791.97
623.68	1732.58
623.88	1712.10
624.07	1746.92
624.26	1673.19
624.45	1724.39
624.64	1751.01
624.83	1753.06
625.02	1665.00
625.21	1746.92
625.40	1669.09
625.59	1748.97
625.78	1720.29
625.97	1767.40
626.16	1720.29
626.35	1742.82
626.54	1677.29
626.74	1816.55
626.93	1675.24
627.12	1683.43
627.31	1800.16
627.50	1724.39
627.69	1687.53
627.88	1693.67
628.07	1673.19
628.26	1673.19
628.45	1650.66
628.64	1656.81
628.83	1734.63
629.02	1609.70
629.21	1718.25
629.40	1736.68
629.59	1611.75
629.78	1648.61
629.97	1683.43
630.16	1658.85
630.35	1705.96
630.54	1681.38
630.73	1712.10
630.92	1726.44
631.11	1710.05
631.30	1796.07
631.49	1724.39
631.68	1714.15
631.87	1748.97
632.06	1695.72
632.25	1845.22
632.44	1738.73
632.63	1683.43
632.82	1683.43
633.01	1638.38
633.20	1697.77
633.39	1677.29
633.58	1566.70
633.77	1683.43
633.96	1712.10
634.15	1802.21
634.34	1738.73
634.53	1744.87
634.72	1697.77
634.91	1609.70
635.10	1763.30
635.29	1734.63
635.48	1779.68
635.67	1654.76
635.86	1613.80
636.05	1773.54
636.24	1677.29
636.43	1716.20
636.62	1705.96
636.81	1656.81
637.00	1714.15
637.19	1714.15
637.38	1691.62
637.57	1628.14
637.76	1648.61
637.95	1701.86
638.14	1656.81
638.33	1703.91
638.52	1720.29
638.71	1660.90
638.89	1656.81
639.08	1800.16
639.27	1710.05
639.46	1650.66
639.65	1839.08
639.84	1726.44
640.03	1705.96
640.22	1671.14
640.41	1771.49
640.60	1683.43
640.79	1705.96
640.98	1714.15
641.17	1681.38
641.36	1736.68
641.55	1751.01
641.74	1642.47
641.92	1613.80
642.11	1679.33
642.30	1716.20
642.49	1685.48
642.68	1679.33
642.87	1617.90
643.06	1818.60
643.25	1669.09
643.44	1705.96
643.63	1665.00
643.82	1806.31
644.00	1630.18
644.19	1697.77
644.38	1708.01
644.57	1689.57
644.76	1785.83
644.95	1660.90
645.14	1769.44
645.33	1720.29
645.52	1671.14
645.71	1701.86
645.89	1650.66
646.08	1759.21
646.27	1689.57
646.46	1828.84
646.65	1708.01
646.84	1726.44
647.03	1679.33
647.22	1812.45
647.40	1763.30
647.59	1648.61
647.78	1632.23
647.97	1755.11
648.16	1656.81
648.35	1812.45
648.54	1837.03
648.73	1687.53
648.91	1753.06
649.10	1695.72
649.29	1656.81
649.48	1697.77
649.67	1689.57
649.86	1755.11
650.05	1658.85
650.23	1779.68
650.42	1679.33
650.61	1822.69
650.80	1705.96
650.99	1859.56
651.18	1742.82
651.36	1759.21
651.55	1753.06
651.74	1738.73
651.93	1667.05
652.12	1738.73
652.31	1626.09
652.49	1667.05
652.68	1691.62
652.87	1843.17
653.06	1714.15
653.25	1828.84
653.44	1667.05
653.62	1834.98
653.81	1667.05
654.00	1665.00
654.19	1789.92
654.38	1808.36
654.56	1755.11
654.75	1695.72
654.94	1748.97
655.13	1761.25
655.32	1638.38
655.51	1777.64
655.69	1687.53
655.88	1779.68
656.07	1597.42
656.26	1701.86
656.45	1695.72
656.63	1718.25
656.82	1716.20
657.01	1755.11
657.20	1748.97
657.38	1863.65
657.57	1646.57
657.76	1609.70
657.95	1718.25
658.14	1685.48
658.32	1660.90
658.51	1638.38
658.70	1753.06
658.89	1699.81
659.08	1660.90
659.26	1892.32
659.45	1697.77
659.64	1798.12
659.83	1718.25
660.01	1863.65
660.20	1669.09
660.39	1812.45
660.58	1683.43
660.76	1783.78
660.95	1626.09
661.14	1714.15
661.33	1640.42
661.51	1703.91
661.70	1679.33
661.89	1740.77
662.08	1728.49
662.26	1644.52
662.45	1654.76
662.64	1828.84
662.83	1716.20
663.01	1658.85
663.20	1673.19
663.39	1867.75
663.58	1638.38
663.76	1767.40
663.95	1804.26
664.14	1697.77
664.32	1673.19
664.51	1654.76
664.70	1667.05
664.89	1751.01
665.07	1687.53
665.26	1769.44
665.45	1714.15
665.64	1755.11
665.82	1683.43
666.01	1746.92
666.20	1683.43
666.38	1830.88
666.57	1794.02
666.76	2158.56
666.95	4474.81
667.13	10389.35
667.32	15298.33
667.51	18005.74
667.69	19416.79
667.88	17891.06
668.07	12451.65
668.25	9557.87
668.44	8300.42
668.63	7360.40
668.81	6891.41
669.00	6277.02
669.19	5738.41
669.38	5167.03
669.56	4589.50
669.75	4030.40
669.94	3397.58
670.12	2926.55
670.31	2535.39
670.50	2283.49
670.68	2037.73
670.87	1943.52
671.06	1859.56
671.24	1759.21
671.43	1753.06
671.62	1837.03
671.80	1691.62
671.99	1712.10
672.18	1769.44
672.36	1789.92
672.55	1800.16
672.74	1662.95
672.92	1648.61
673.11	1744.87
673.29	1691.62
673.48	1761.25
673.67	1714.15
673.85	1787.88
674.04	1716.20
674.23	1779.68
674.41	1718.25
674.60	1675.24
674.79	1679.33
674.97	1697.77
675.16	1730.53
675.34	1681.38
675.53	1603.56
675.72	1679.33
675.90	1703.91
676.09	1726.44
676.28	1701.86
676.46	1652.71
676.65	1742.82
676.83	1650.66
677.02	1693.67
677.21	1708.01
677.39	1730.53
677.58	1687.53
677.77	1642.47
677.95	1687.53
678.14	1701.86
678.32	1624.04
678.51	1714.15
678.70	1839.08
678.88	1671.14
679.07	1781.73
679.25	1771.49
679.44	1691.62
679.63	1671.14
679.81	1783.78
680.00	1822.69
680.18	1691.62
680.37	1767.40
680.55	1689.57
680.74	1595.37
680.93	1609.70
681.11	1726.44
681.30	1726.44
681.48	1722.34
681.67	1716.20
681.85	1677.29
682.04	1650.66
682.23	1761.25
682.41	1740.77
682.60	1642.47
682.78	1685.48
682.97	1642.47
683.15	1691.62
683.34	1730.53
683.53	1773.54
683.71	1665.00
683.90	1886.18
684.08	1869.80
684.27	1740.77
684.45	1701.86
684.64	1728.49
684.82	1701.86
685.01	1781.73
685.19	1658.85
685.38	1757.16
685.57	1630.18
685.75	1689.57
685.94	1712.10
686.12	1718.25
686.31	1738.73
686.49	1826.79
686.68	1689.57
686.86	1753.06
687.05	1789.92
687.23	1763.30
687.42	1660.90
687.60	1619.94
687.79	1693.67
687.97	1804.26
688.16	1759.21
688.34	1824.74
688.53	1585.13
688.71	1693.67
688.90	1738.73
689.08	1621.99
689.27	1644.52
689.45	1751.01
689.64	1812.45
689.82	1740.77
690.01	1748.97
690.19	1724.39
690.38	1589.22
690.56	1753.06
690.75	1646.57
690.93	1738.73
691.12	1785.83
691.30	1736.68
691.49	1636.33
691.67	1751.01
691.86	1804.26
692.04	1652.71
692.23	1667.05
692.41	1693.67
692.60	1824.74
692.78	1789.92
692.97	1697.77
693.15	1810.40
693.34	1812.45
693.52	1740.77
693.71	1677.29
693.89	1621.99
694.08	1677.29
694.26	1742.82
694.44	1742.82
694.63	1751.01
694.81	1624.04
695.00	1644.52
695.18	1734.63
695.37	1787.88
695.55	1730.53
695.74	1667.05
695.92	1691.62
696.10	1789.92
696.29	1603.56
696.47	1613.80
696.66	1585.13
696.84	1646.57
697.03	1716.20
697.21	1798.12
697.40	2232.29
697.58	1740.77
697.76	1636.33
697.95	1636.33
698.13	1679.33
698.32	1665.00
698.50	1728.49
698.68	1794.02
698.87	1665.00
699.05	1820.64
699.24	1677.29
699.42	1703.91
699.61	1695.72
699.79	1720.29
699.97	1636.33
700.16	1648.61
700.34	1574.89
700.53	1669.09
700.71	1738.73
700.89	1765.35
701.08	1720.29
701.26	1734.63
701.45	2119.65
701.63	1746.92
701.81	1617.90
702.00	1669.09
702.18	1730.53
702.37	1693.67
702.55	1716.20
702.73	1650.66
702.92	1703.91
703.10	1714.15
703.28	1693.67
703.47	1646.57
703.65	1683.43
703.84	1710.05
704.02	1687.53
704.20	1781.73
704.39	1689.57
704.57	1724.39
704.75	1755.11
704.94	1834.98
705.12	1710.05
705.30	1798.12
705.49	2185.18
705.67	4519.87
705.86	9564.01
706.04	12691.26
706.22	14585.63
706.41	15546.13
706.59	13860.65
706.77	9826.15
706.96	7460.75
707.14	6606.75
707.32	5889.96
707.51	5681.07
707.69	4900.79
707.87	4306.88
708.06	3620.81
708.24	2979.79
708.42	2371.55
708.61	2181.09
708.79	1957.86
708.97	1869.80
709.16	1783.78
709.34	1775.59
709.52	1689.57
709.71	1804.26
709.89	1691.62
710.07	1646.57
710.26	1636.33
710.44	1691.62
710.62	1775.59
710.80	1695.72
710.99	1697.77
711.17	1822.69
711.35	1712.10
711.54	1755.11
711.72	1779.68
711.90	1724.39
712.09	1660.90
712.27	1691.62
712.45	1755.11
712.63	1665.00
712.82	1710.05
713.00	1722.34
713.18	1806.31
713.37	1742.82
713.55	1693.67
713.73	1757.16
713.91	1724.39
714.10	1691.62
714.28	1724.39
714.46	1683.43
714.65	1691.62
714.83	1751.01
715.01	1734.63
715.19	1683.43
715.38	1638.38
715.56	1652.71
715.74	1677.29
715.92	1601.51
716.11	1830.88
716.29	1587.18
716.47	1630.18
716.65	1781.73
716.84	1585.13
717.02	1787.88
717.20	1617.90
717.38	1671.14
717.57	1669.09
717.75	1675.24
717.93	1650.66
718.11	1773.54
718.30	1740.77
718.48	1736.68
718.66	1800.16
718.84	1742.82
719.03	1683.43
719.21	1687.53
719.39	1736.68
719.57	1705.96
719.75	1734.63
719.94	1613.80
720.12	1675.24
720.30	1697.77
720.48	1820.64
720.67	1740.77
720.85	1683.43
721.03	1634.28
721.21	1628.14
721.39	1796.07
721.58	1751.01
721.76	1734.63
721.94	1777.64
722.12	1720.29
722.30	1798.12
722.49	1705.96
722.67	1703.91
722.85	1763.30
723.03	1578.98
723.21	1685.48
723.40	1708.01
723.58	1673.19
723.76	1689.57
723.94	1812.45
724.12	1777.64
724.30	1822.69
724.49	1730.53
724.67	1708.01
724.85	1718.25
725.03	1660.90
725.21	1689.57
725.40	1728.49
725.58	1705.96
725.76	1730.53
725.94	1689.57
726.12	1609.70
726.30	1638.38
726.49	1751.01
726.67	1677.29
726.85	1767.40
727.03	1814.50
727.21	2107.36
727.39	2899.92
727.57	3786.69
727.76	4149.18
727.94	4427.71
728.12	4421.56
728.30	3637.19
728.48	2963.41
728.66	2731.99
728.84	2510.81
729.03	2248.67
729.21	2140.13
729.39	2009.06
729.57	1810.40
729.75	1798.12
729.93	1804.26
730.11	1683.43
730.30	1712.10
730.48	1697.77
730.66	1712.10
730.84	1730.53
731.02	1705.96
731.20	1667.05
731.38	1720.29
731.56	1681.38
731.74	1652.71
731.93	1697.77
732.11	1716.20
732.29	1722.34
732.47	1730.53
732.65	1726.44
732.83	1806.31
733.01	1785.83
733.19	1619.94
733.37	1734.63
733.56	1767.40
733.74	1683.43
733.92	1796.07
734.10	1677.29
734.28	1751.01
734.46	1613.80
734.64	1654.76
734.82	1644.52
735.00	1665.00
735.18	1665.00
735.36	1730.53
735.54	1619.94
735.73	1683.43
735.91	1701.86
736.09	1755.11
736.27	1695.72
736.45	1681.38
736.63	1603.56
736.81	1701.86
736.99	1679.33
737.17	1834.98
737.35	1722.34
737.53	1619.94
737.71	1753.06
737.89	1748.97
738.07	1638.38
738.25	1671.14
738.43	1599.46
738.61	1648.61
738.80	1697.77
738.98	1632.23
739.16	1724.39
739.34	1652.71
739.52	1845.22
739.70	1677.29
739.88	1681.38
740.06	1820.64
740.24	1578.98
740.42	1832.93
740.60	1681.38
740.78	1660.90
740.96	1615.85
741.14	1689.57
741.32	1685.48
741.50	1636.33
741.68	1800.16
741.86	1812.45
742.04	1607.66
742.22	1660.90
742.40	1669.09
742.58	1746.92
742.76	1632.23
742.94	1771.49
743.12	1601.51
743.30	1699.81
743.48	1685.48
743.66	1589.22
743.84	1685.48
744.02	1689.57
744.20	1640.42
744.38	1685.48
744.56	1609.70
744.74	1771.49
744.92	1755.11
745.10	1744.87
745.28	1722.34
745.46	1722.34
745.64	1716.20
745.82	1791.97
746.00	1681.38
746.18	1740.77
746.36	1689.57
746.54	1658.85
746.72	1712.10
746.90	1656.81
747.08	1748.97
747.26	1669.09
747.44	1804.26
747.62	1716.20
747.80	1699.81
747.98	1730.53
748.15	1656.81
748.33	1826.79
748.51	1693.67
748.69	1720.29
748.87	1630.18
749.05	1652.71
749.23	1665.00
749.41	1738.73
749.59	1679.33
749.77	1808.36
749.95	1689.57
750.13	1689.57
750.31	1716.20
750.49	1658.85
750.67	1716.20
750.85	1841.12
751.03	1787.88
751.20	1814.50
751.38	1712.10
751.56	1726.44
751.74	1736.68
751.92	1667.05
752.10	1550.31
752.28	1755.11
752.46	1648.61
752.64	1683.43
752.82	1695.72
753.00	1748.97
753.18	1673.19
753.35	1732.58
753.53	1705.96
753.71	1683.43
753.89	1789.92
754.07	1755.11
754.25	1718.25
754.43	1638.38
754.61	1689.57
754.79	1765.35
754.97	1710.05
755.14	1796.07
755.32	1677.29
755.50	1665.00
755.68	1669.09
755.86	1734.63
756.04	1628.14
756.22	1576.94
756.40	1841.12
756.57	1853.41
756.75	1660.90
756.93	1794.02
757.11	1708.01
757.29	1691.62
757.47	1671.14
757.65	1574.89
757.82	1603.56
758.00	1640.42
758.18	1587.18
758.36	1703.91
758.54	1789.92
758.72	1599.46
758.90	1771.49
759.07	1761.25
759.25	1695.72
759.43	1720.29
759.61	1679.33
759.79	2168.80
759.97	1746.92
760.15	1753.06
760.32	1683.43
760.50	1685.48
760.68	1855.46
760.86	1615.85
761.04	1728.49
761.22	1738.73
761.39	1753.06
761.57	1753.06
761.75	1716.20
761.93	1656.81
762.11	1701.86
762.28	1742.82
762.46	1660.90
762.64	1773.54
762.82	1646.57
763.00	1656.81
763.18	1818.60
763.35	1607.66
763.53	1753.06
763.71	1732.58
763.89	1734.63
764.07	1685.48
764.24	1722.34
764.42	1703.91
764.60	1722.34
764.78	1769.44
764.96	1812.45
765.13	1738.73
765.31	1658.85
765.49	1681.38
765.67	1613.80
765.84	1650.66
766.02	1640.42
766.20	1542.12
766.38	1648.61
766.56	1742.82
766.73	1697.77
766.91	1691.62
767.09	1708.01
767.27	1757.16
767.44	1685.48
767.62	1730.53
767.80	1687.53
767.98	1679.33
768.15	1609.70
768.33	1732.58
768.51	1701.86
768.69	1730.53
768.87	1757.16
769.04	1628.14
769.22	1867.75
769.40	1773.54
769.58	1873.89
769.75	1720.29
769.93	1673.19
770.11	1685.48
770.28	1648.61
770.46	1705.96
770.64	1710.05
770.82	1691.62
770.99	1697.77
771.17	1787.88
771.35	1683.43
771.53	1701.86
771.70	1773.54
771.88	1757.16
772.06	1669.09
772.23	1677.29
772.41	1728.49
772.59	1656.81
772.77	1636.33
772.94	1753.06
773.12	1718.25
773.30	1669.09
773.47	1806.31
773.65	1591.27
773.83	1826.79
774.01	1701.86
774.18	1628.14
774.36	1658.85
774.54	1568.74
774.71	1736.68
774.89	1599.46
775.07	1611.75
775.24	1654.76
775.42	1665.00
775.60	1802.21
775.78	1708.01
775.95	1708.01
776.13	1589.22
776.31	1595.37
776.48	1738.73
776.66	1697.77
776.84	1665.00
777.01	1703.91
777.19	1679.33
777.37	1665.00
777.54	1701.86
777.72	1875.94
777.90	1720.29
778.07	1718.25
778.25	1910.75
778.43	1767.40
778.60	1687.53
778.78	1777.64
778.96	1691.62
779.13	1648.61
779.31	1779.68
779.49	1755.11
779.66	1662.95
779.84	1708.01
780.01	1701.86
780.19	1636.33
780.37	1726.44
780.54	1800.16
780.72	1644.52
780.90	1648.61
781.07	1640.42
781.25	1667.05
781.43	1759.21
781.60	1728.49
781.78	1724.39
781.95	1753.06
782.13	1675.24
782.31	1644.52
782.48	1619.94
782.66	1787.88
782.83	1789.92
783.01	1724.39
783.19	1728.49
783.36	1650.66
783.54	1636.33
783.72	1699.81
783.89	1736.68
784.07	1705.96
784.24	1789.92
784.42	1828.84
784.60	1769.44
784.77	1744.87
784.95	1638.38
785.12	1632.23
785.30	1689.57
785.47	1716.20
785.65	1628.14
785.83	1779.68
786.00	1646.57
786.18	1695.72
786.35	1558.50
786.53	1665.00
786.71	1755.11
786.88	1681.38
787.06	1701.86
787.23	1689.57
787.41	1601.51
787.58	1679.33
787.76	1632.23
787.94	1701.86
788.11	1640.42
788.29	1648.61
788.46	1662.95
788.64	1624.04
788.81	1683.43
788.99	1665.00
789.16	1665.00
789.34	1574.89
789.52	1658.85
789.69	1644.52
789.87	1585.13
790.04	1650.66
790.22	1714.15
790.39	1806.31
790.57	1691.62
790.74	1703.91
790.92	1769.44
791.09	1595.37
791.27	1718.25
791.44	1804.26
791.62	1671.14
791.79	1654.76
791.97	1687.53
792.15	1822.69
792.32	1693.67
792.50	1783.78
792.67	1748.97
792.85	1814.50
793.02	1705.96
793.20	1638.38
793.37	1648.61
793.55	1697.77
793.72	1619.94
793.90	1763.30
794.07	1728.49
794.25	1673.19
794.42	1697.77
794.60	1697.77
794.77	1763.30
794.95	1683.43
795.12	1736.68
795.30	1728.49
795.47	1609.70
795.65	1890.28
795.82	1710.05
796.00	1648.61
796.17	1695.72
796.34	1658.85
796.52	1701.86
796.69	1769.44
796.87	1703.91
797.04	1734.63
797.22	1736.68
797.39	1703.91
797.57	1708.01
797.74	1742.82
797.92	1742.82
798.09	1648.61
798.27	1791.97
798.44	1683.43
798.62	1722.34
798.79	1796.07
798.96	1691.62
799.14	1665.00
799.31	1865.70
799.49	1673.19
799.66	1740.77
799.84	1734.63
800.01	1662.95
800.19	1630.18
800.36	1595.37
800.53	1751.01
800.71	1673.19
800.88	1794.02
801.06	1617.90
801.23	1628.14
801.41	1736.68
801.58	1656.81
801.75	1654.76
801.93	1728.49
802.10	1712.10
802.28	1628.14
802.45	1632.23
802.63	1701.86
802.80	1796.07
802.97	1730.53
803.15	1746.92
803.32	1658.85
803.50	1738.73
803.67	1587.18
803.84	1660.90
804.02	1677.29
804.19	1679.33
804.37	1558.50
804.54	1662.95
804.71	1626.09
804.89	1687.53
805.06	1601.51
805.24	1759.21
805.41	1570.79
805.58	1697.77
805.76	1896.42
805.93	1757.16
806.10	1783.78
806.28	1781.73
806.45	1730.53
806.63	1740.77
806.80	1763.30
806.97	1662.95
807.15	1703.91
807.32	1751.01
807.49	1738.73
807.67	1574.89
807.84	1689.57
808.01	1679.33
808.19	1791.97
808.36	1832.93
808.54	1646.57
808.71	1689.57
808.88	1757.16
809.06	1701.86
809.23	1701.86
809.40	1697.77
809.58	1724.39
809.75	1662.95
809.92	1665.00
810.10	1851.36
810.27	1658.85
810.44	1701.86
810.62	1736.68
810.79	1728.49
810.96	1654.76
811.14	1693.67
811.31	1693.67
811.48	1732.58
811.66	1722.34
811.83	1665.00
812.00	1611.75
812.18	1681.38
812.35	1798.12
812.52	1644.52
812.69	1703.91
812.87	1658.85
813.04	1595.37
813.21	1701.86
813.39	1630.18
813.56	1632.23
813.73	1710.05
813.91	1697.77
814.08	1746.92
814.25	1722.34
814.42	1578.98
814.60	1652.71
814.77	1665.00
814.94	1710.05
815.12	1634.28
815.29	1777.64
815.46	1621.99
815.63	1757.16
815.81	1566.70
815.98	1578.98
816.15	1791.97
816.33	1712.10
816.50	1669.09
816.67	1703.91
816.84	1712.10
817.02	1636.33
817.19	1722.34
817.36	1736.68
817.53	1650.66
817.71	1679.33
817.88	1767.40
818.05	1695.72
818.22	1642.47
818.40	1777.64
818.57	1679.33
818.74	1683.43
818.91	1757.16
819.09	1695.72
819.26	1734.63
819.43	1626.09
819.60	1660.90
819.78	1673.19
819.95	1775.59
820.12	1621.99
820.29	1755.11
820.47	1798.12
820.64	1615.85
820.81	1621.99
820.98	1675.24
821.15	1646.57
821.33	1746.92
821.50	1560.55
821.67	1708.01
821.84	1722.34
822.02	1755.11
822.19	1710.05
822.36	1687.53
822.53	1589.22
822.70	1665.00
822.88	1724.39
823.05	1810.40
823.22	1734.63
823.39	1746.92
823.56	1710.05
823.74	1847.27
823.91	1613.80
824.08	1675.24
824.25	1632.23
824.42	1783.78
824.60	1624.04
824.77	1714.15
824.94	1720.29
825.11	1703.91
825.28	1642.47
825.45	1677.29
825.63	1689.57
825.80	1665.00
825.97	1728.49
826.14	1624.04
826.31	1630.18
826.48	1734.63
826.66	1669.09
826.83	1566.70
827.00	1763.30
827.17	1691.62
827.34	1726.44
827.51	1714.15
827.69	1628.14
827.86	1591.27
828.03	1671.14
828.20	1636.33
828.37	1669.09
828.54	1789.92
828.71	1662.95
828.89	1787.88
829.06	1628.14
829.23	1761.25
829.40	1640.42
829.57	1636.33
829.74	1705.96
829.91	1619.94
830.09	1644.52
830.26	1740.77
830.43	1824.74
830.60	1757.16
830.77	1734.63
830.94	1703.91
831.11	1691.62
831.28	1691.62
831.46	1728.49
831.63	1710.05
831.80	1804.26
831.97	1658.85
832.14	1652.71
832.31	1742.82
832.48	1724.39
832.65	1718.25
832.82	1667.05
832.99	1746.92
833.17	1628.14
833.34	1828.84
833.51	1787.88
833.68	1566.70
833.85	1746.92
834.02	1593.32
834.19	1615.85
834.36	1677.29
834.53	1665.00
834.70	1751.01
834.87	1779.68
835.04	1703.91
835.22	1656.81
835.39	1738.73
835.56	1593.32
835.73	1644.52
835.90	1734.63
836.07	1636.33
836.24	1665.00
836.41	1708.01
836.58	1675.24
836.75	1763.30
836.92	1669.09
837.09	1648.61
837.26	1730.53
837.43	1722.34
837.60	1779.68
837.77	1669.09
837.94	1728.49
838.12	1789.92
838.29	1679.33
838.46	1599.46
838.63	1683.43
838.80	1718.25
838.97	1722.34
839.14	1746.92
839.31	1679.33
839.48	1710.05
839.65	1636.33
839.82	1667.05
839.99	1777.64
840.16	1769.44
840.33	1667.05
840.50	1726.44
840.67	1591.27
840.84	1521.64
841.01	1751.01
841.18	1695.72
841.35	1624.04
841.52	1777.64
841.69	1794.02
841.86	1722.34
842.03	1720.29
842.20	1804.26
842.37	1701.86
842.54	1648.61
842.71	1685.48
842.88	1619.94
843.05	1712.10
843.22	1681.38
843.39	1748.97
843.56	1652.71
843.73	1679.33
843.90	1665.00
844.07	1765.35
844.24	1785.83
844.41	1728.49
844.58	1748.97
844.75	1720.29
844.92	1722.34
845.09	1695.72
845.26	1691.62
845.43	1705.96
845.60	1697.77
845.77	1773.54
845.94	1665.00
846.10	1697.77
846.27	1697.77
846.44	1652.71
846.61	1728.49
846.78	1730.53
846.95	1675.24
847.12	1689.57
847.29	1603.56
847.46	1718.25
847.63	1767.40
847.80	1671.14
847.97	1714.15
848.14	1830.88
848.31	1632.23
848.48	1585.13
848.65	1669.09
848.82	1695.72
848.98	1783.78
849.15	1730.53
849.32	1832.93
849.49	1744.87
849.66	1665.00
849.83	1714.15
850.00	1554.41
850.17	1685.48
850.34	1636.33
850.51	1699.81
850.68	1630.18
850.85	1804.26
851.01	1691.62
851.18	1763.30
851.35	1783.78
851.52	1742.82
851.69	1771.49
851.86	1634.28
852.03	1671.14
852.20	1761.25
852.37	1681.38
852.53	1699.81
852.70	1560.55
852.87	1681.38
853.04	1773.54
853.21	1714.15
853.38	1718.25
853.55	1781.73
853.72	1794.02
853.89	1662.95
854.05	1689.57
854.22	1722.34
854.39	1732.58
854.56	1705.96
854.73	1789.92
854.90	1644.52
855.07	1789.92
855.23	1744.87
855.40	1671.14
855.57	1703.91
855.74	1572.84
855.91	1908.71
856.08	1568.74
856.25	1572.84
856.41	1646.57
856.58	1636.33
856.75	1710.05
856.92	1703.91
857.09	1761.25
857.26	1636.33
857.42	1757.16
857.59	1746.92
857.76	1730.53
857.93	1642.47
858.10	1697.77
858.27	1611.75
858.43	1691.62
858.60	1662.95
858.77	1656.81
858.94	1705.96
859.11	1804.26
859.27	1695.72
859.44	1693.67
859.61	1873.89
859.78	1697.77
859.95	1656.81
860.12	1699.81
860.28	1785.83
860.45	1839.08
860.62	1673.19
860.79	1730.53
860.95	1685.48
861.12	1720.29
861.29	1665.00
861.46	1621.99
861.63	1685.48
861.79	1708.01
861.96	1630.18
862.13	1658.85
862.30	1783.78
862.47	1656.81
862.63	1628.14
862.80	1708.01
862.97	1740.77
863.14	1667.05
863.30	1732.58
863.47	1673.19
863.64	1779.68
863.81	1685.48
863.97	1681.38
864.14	1755.11
864.31	1591.27
864.48	1726.44
864.65	1689.57
864.81	1712.10
864.98	1751.01
865.15	1718.25
865.32	1767.40
865.48	1716.20
865.65	1812.45
865.82	1650.66
865.98	1724.39
866.15	1777.64
866.32	1632.23
866.49	1667.05
866.65	1806.31
866.82	1638.38
866.99	1744.87
867.16	1710.05
867.32	1624.04
867.49	1648.61
867.66	1660.90
867.83	1652.71
867.99	1613.80
868.16	1644.52
868.33	1601.51
868.49	1689.57
868.66	1685.48
868.83	1773.54
868.99	1656.81
869.16	1665.00
869.33	1810.40
869.50	1724.39
869.66	1724.39
869.83	1685.48
870.00	1538.02
870.16	1767.40
870.33	1708.01
870.50	1794.02
870.66	1755.11
870.83	1826.79
871.00	1630.18
871.17	1734.63
871.33	1681.38
871.50	1710.05
871.67	1732.58
871.83	1736.68
872.00	1740.77
872.17	1656.81
872.33	1714.15
872.50	1789.92
872.67	1654.76
872.83	1708.01
873.00	1673.19
873.17	1742.82
873.33	1726.44
873.50	1681.38
873.67	1642.47
873.83	1755.11
874.00	1714.15
874.16	1791.97
874.33	1738.73
874.50	1726.44
874.66	1785.83
874.83	1769.44
875.00	1771.49
875.16	1734.63
875.33	1783.78
875.50	1566.70
875.66	1634.28
875.83	1771.49
875.99	1722.34
876.16	1740.77
876.33	1708.01
876.49	1644.52
876.66	1757.16
876.83	1728.49
876.99	1632.23
877.16	1787.88
877.32	1624.04
877.49	1693.67
877.66	1773.54
877.82	1779.68
877.99	1759.21
878.15	1712.10
878.32	1771.49
878.49	1654.76
878.65	1658.85
878.82	1738.73
878.98	1644.52
879.15	1796.07
879.32	1753.06
879.48	1740.77
879.65	1654.76
879.81	1642.47
879.98	1669.09
880.15	1638.38
880.31	1730.53
880.48	1673.19
880.64	1738.73
880.81	1697.77
880.97	1767.40
881.14	1859.56
881.31	1665.00
881.47	1757.16
881.64	1593.32
881.80	1603.56
881.97	1693.67
882.13	1705.96
882.30	1615.85
882.47	1665.00
882.63	1656.81
882.80	1576.94
882.96	1624.04
883.13	1738.73
883.29	1667.05
883.46	1701.86
883.62	1736.68
883.79	1691.62
883.95	1701.86
884.12	1712.10
884.29	1736.68
884.45	1634.28
884.62	1769.44
884.78	1681.38
884.95	1716.20
885.11	1669.09
885.28	1648.61
885.44	1669.09
885.61	1728.49
885.77	1730.53
885.94	1695.72
886.10	1732.58
886.27	1742.82
886.43	1814.50
886.60	1718.25
886.76	1673.19
886.93	1665.00
887.09	1679.33
887.26	1652.71
887.42	1669.09
887.59	1759.21
887.75	1789.92
887.92	1732.58
888.08	1775.59
888.25	1775.59
888.41	1746.92
888.58	1693.67
888.74	1642.47
888.91	1669.09
>>>>>End Processed Spectral Data<<<<<
