SpectraSuite Data File
++++++++++++++++++++++++++++++++++++
Date: Mon Jun 06 16:35:57 CEST 2016
User: root
Dark Spectrum Present: No
Reference Spectrum Present: No
Number of Sampled Component Spectra: 1
Spectrometers: USB4C02835
Integration Time (usec): 100000 (USB4C02835)
Spectra Averaged: 1 (USB4C02835)
Boxcar Smoothing: 0 (USB4C02835)
Correct for Electrical Dark: No (USB4C02835)
Strobe/Lamp Enabled: No (USB4C02835)
Correct for Detector Non-linearity: No (USB4C02835)
Correct for Stray Light: No (USB4C02835)
Number of Pixels in Processed Spectrum: 3648
>>>>>Begin Processed Spectral Data<<<<<
177.47	1521.64
177.69	1521.64
177.91	1521.64
178.13	1445.87
178.36	1497.07
178.58	1708.01
178.80	1732.58
179.02	1656.81
179.24	1693.67
179.46	1667.05
179.68	1794.02
179.90	1685.48
180.13	1660.90
180.35	1665.00
180.57	1806.31
180.79	1730.53
181.01	1708.01
181.23	1804.26
181.45	1714.15
181.67	1697.77
181.90	1767.40
182.12	1687.53
182.34	1628.14
182.56	1722.34
182.78	1705.96
183.00	1742.82
183.22	1665.00
183.44	1595.37
183.66	1867.75
183.89	1740.77
184.11	1746.92
184.33	1728.49
184.55	1732.58
184.77	1705.96
184.99	1689.57
185.21	1662.95
185.43	1873.89
185.65	1677.29
185.87	1703.91
186.10	1822.69
186.32	1814.50
186.54	1708.01
186.76	1705.96
186.98	1708.01
187.20	1648.61
187.42	1646.57
187.64	1705.96
187.86	1677.29
188.08	1681.38
188.30	1730.53
188.52	1738.73
188.75	1753.06
188.97	1753.06
189.19	1626.09
189.41	1738.73
189.63	1732.58
189.85	1691.62
190.07	1628.14
190.29	1656.81
190.51	1777.64
190.73	1693.67
190.95	1796.07
191.17	1695.72
191.39	1626.09
191.61	1732.58
191.84	1640.42
192.06	1751.01
192.28	1656.81
192.50	1820.64
192.72	1781.73
192.94	1722.34
193.16	1710.05
193.38	1681.38
193.60	1642.47
193.82	1667.05
194.04	1777.64
194.26	1689.57
194.48	1736.68
194.70	1767.40
194.92	1683.43
195.14	1724.39
195.36	1638.38
195.58	1648.61
195.80	1718.25
196.02	1710.05
196.24	1775.59
196.46	1675.24
196.69	1665.00
196.91	1929.19
197.13	1662.95
197.35	1705.96
197.57	1820.64
197.79	1734.63
198.01	1736.68
198.23	1705.96
198.45	1746.92
198.67	1642.47
198.89	1740.77
199.11	1736.68
199.33	1693.67
199.55	1570.79
199.77	1675.24
199.99	1734.63
200.21	1632.23
200.43	1718.25
200.65	1611.75
200.87	1574.89
201.09	1697.77
201.31	1693.67
201.53	1779.68
201.75	1738.73
201.97	1714.15
202.19	1691.62
202.41	1689.57
202.63	1869.80
202.85	1781.73
203.07	1763.30
203.29	1654.76
203.51	1611.75
203.73	1708.01
203.95	1920.99
204.17	1730.53
204.39	1708.01
204.61	1701.86
204.83	1650.66
205.05	1763.30
205.27	1757.16
205.49	1851.36
205.71	1701.86
205.93	1656.81
206.15	1634.28
206.37	1699.81
206.59	1697.77
206.81	1617.90
207.03	1667.05
207.25	1587.18
207.47	1748.97
207.69	1693.67
207.91	1853.41
208.13	1796.07
208.34	1646.57
208.56	1718.25
208.78	1744.87
209.00	1693.67
209.22	1746.92
209.44	1673.19
209.66	1681.38
209.88	1714.15
210.10	1730.53
210.32	1681.38
210.54	1787.88
210.76	1665.00
210.98	1761.25
211.20	1474.54
211.42	1732.58
211.64	1705.96
211.86	1759.21
212.08	1705.96
212.30	1681.38
212.52	1607.66
212.74	1755.11
212.96	1763.30
213.17	1724.39
213.39	1699.81
213.61	1818.60
213.83	1744.87
214.05	1652.71
214.27	1710.05
214.49	1693.67
214.71	1669.09
214.93	1886.18
215.15	1671.14
215.37	1779.68
215.59	1658.85
215.81	1628.14
216.03	1751.01
216.24	1732.58
216.46	1712.10
216.68	1734.63
216.90	1732.58
217.12	1761.25
217.34	1736.68
217.56	1697.77
217.78	1777.64
218.00	1746.92
218.22	1734.63
218.44	1726.44
218.66	1681.38
218.87	1779.68
219.09	1656.81
219.31	1705.96
219.53	1791.97
219.75	1744.87
219.97	1748.97
220.19	1701.86
220.41	1691.62
220.63	1847.27
220.85	1720.29
221.06	1669.09
221.28	1839.08
221.50	1660.90
221.72	1726.44
221.94	1730.53
222.16	1718.25
222.38	1751.01
222.60	1794.02
222.82	1673.19
223.03	1748.97
223.25	1697.77
223.47	1720.29
223.69	1679.33
223.91	1744.87
224.13	1794.02
224.35	1619.94
224.57	1798.12
224.78	1714.15
225.00	1712.10
225.22	1714.15
225.44	1685.48
225.66	1746.92
225.88	1759.21
226.10	1689.57
226.32	1689.57
226.53	1705.96
226.75	1722.34
226.97	1740.77
227.19	1722.34
227.41	1665.00
227.63	1669.09
227.85	1621.99
228.06	1757.16
228.28	1679.33
228.50	1677.29
228.72	1720.29
228.94	1685.48
229.16	1665.00
229.37	1595.37
229.59	1703.91
229.81	1816.55
230.03	1673.19
230.25	1611.75
230.47	1640.42
230.69	1665.00
230.90	1710.05
231.12	1613.80
231.34	1728.49
231.56	1779.68
231.78	1628.14
232.00	1740.77
232.21	1710.05
232.43	1714.15
232.65	1562.60
232.87	1712.10
233.09	1656.81
233.30	1605.61
233.52	1720.29
233.74	1662.95
233.96	1658.85
234.18	1654.76
234.40	1695.72
234.61	1822.69
234.83	1744.87
235.05	1583.08
235.27	1882.08
235.49	1738.73
235.70	1689.57
235.92	1812.45
236.14	1652.71
236.36	1877.99
236.58	1669.09
236.79	1746.92
237.01	1740.77
237.23	1626.09
237.45	1779.68
237.67	1669.09
237.88	1732.58
238.10	1728.49
238.32	1671.14
238.54	1701.86
238.76	1703.91
238.97	1667.05
239.19	1665.00
239.41	1746.92
239.63	1720.29
239.85	1665.00
240.06	1783.78
240.28	1656.81
240.50	1701.86
240.72	1603.56
240.93	1669.09
241.15	1767.40
241.37	1703.91
241.59	1748.97
241.81	1644.52
242.02	1781.73
242.24	1669.09
242.46	1767.40
242.68	1662.95
242.89	1763.30
243.11	1798.12
243.33	1763.30
243.55	1763.30
243.76	1722.34
243.98	1660.90
244.20	1763.30
244.42	1718.25
244.64	1718.25
244.85	1738.73
245.07	1714.15
245.29	1751.01
245.51	1714.15
245.72	1742.82
245.94	1697.77
246.16	1644.52
246.38	1765.35
246.59	1677.29
246.81	1693.67
247.03	1708.01
247.24	1632.23
247.46	1685.48
247.68	1791.97
247.90	1693.67
248.11	1644.52
248.33	1699.81
248.55	1720.29
248.77	1710.05
248.98	1716.20
249.20	1765.35
249.42	1708.01
249.64	1812.45
249.85	1695.72
250.07	1689.57
250.29	1687.53
250.50	1779.68
250.72	1656.81
250.94	1808.36
251.16	1822.69
251.37	1796.07
251.59	1689.57
251.81	1810.40
252.02	1759.21
252.24	1742.82
252.46	1746.92
252.68	1656.81
252.89	1681.38
253.11	1648.61
253.33	1798.12
253.54	1787.88
253.76	1656.81
253.98	1660.90
254.20	1658.85
254.41	1595.37
254.63	1648.61
254.85	1636.33
255.06	1767.40
255.28	1703.91
255.50	1665.00
255.71	1656.81
255.93	1681.38
256.15	1665.00
256.36	1789.92
256.58	1734.63
256.80	1791.97
257.02	1716.20
257.23	1671.14
257.45	1675.24
257.67	1748.97
257.88	1656.81
258.10	1748.97
258.32	1724.39
258.53	1689.57
258.75	1882.08
258.97	1626.09
259.18	1720.29
259.40	1761.25
259.62	1812.45
259.83	1753.06
260.05	1781.73
260.27	2002.91
260.48	1824.74
260.70	1583.08
260.92	1738.73
261.13	1730.53
261.35	1705.96
261.57	1722.34
261.78	1644.52
262.00	1695.72
262.22	1693.67
262.43	1630.18
262.65	1697.77
262.86	1724.39
263.08	1808.36
263.30	1740.77
263.51	1589.22
263.73	1699.81
263.95	1822.69
264.16	1679.33
264.38	1679.33
264.60	1746.92
264.81	1660.90
265.03	1732.58
265.25	1759.21
265.46	1734.63
265.68	1720.29
265.89	1724.39
266.11	1662.95
266.33	1734.63
266.54	1703.91
266.76	1759.21
266.98	1787.88
267.19	1765.35
267.41	1810.40
267.62	1665.00
267.84	1624.04
268.06	1697.77
268.27	1742.82
268.49	1783.78
268.70	1703.91
268.92	1677.29
269.14	1578.98
269.35	1607.66
269.57	1728.49
269.79	1804.26
270.00	1669.09
270.22	1730.53
270.43	1675.24
270.65	1665.00
270.87	1669.09
271.08	1738.73
271.30	1775.59
271.51	1714.15
271.73	1808.36
271.95	1820.64
272.16	1708.01
272.38	1755.11
272.59	1728.49
272.81	1724.39
273.02	1722.34
273.24	1703.91
273.46	1794.02
273.67	1587.18
273.89	1710.05
274.10	1687.53
274.32	1841.12
274.54	1755.11
274.75	1785.83
274.97	1660.90
275.18	1701.86
275.40	1691.62
275.61	1759.21
275.83	1769.44
276.05	1712.10
276.26	1705.96
276.48	1773.54
276.69	1624.04
276.91	1667.05
277.12	1769.44
277.34	1771.49
277.55	1804.26
277.77	1718.25
277.99	1755.11
278.20	1656.81
278.42	1658.85
278.63	1699.81
278.85	1677.29
279.06	1617.90
279.28	1736.68
279.49	1720.29
279.71	1726.44
279.93	1718.25
280.14	1730.53
280.36	1718.25
280.57	1705.96
280.79	1755.11
281.00	1697.77
281.22	1638.38
281.43	1769.44
281.65	1626.09
281.86	1665.00
282.08	1771.49
282.29	1722.34
282.51	1599.46
282.73	1667.05
282.94	1619.94
283.16	1771.49
283.37	1841.12
283.59	1683.43
283.80	1740.77
284.02	1730.53
284.23	1751.01
284.45	1697.77
284.66	1667.05
284.88	1628.14
285.09	1669.09
285.31	1714.15
285.52	1746.92
285.74	1617.90
285.95	1761.25
286.17	1759.21
286.38	1740.77
286.60	1687.53
286.81	1679.33
287.03	1687.53
287.24	1656.81
287.46	1714.15
287.67	1605.61
287.89	1832.93
288.10	1677.29
288.32	1636.33
288.53	1785.83
288.75	1687.53
288.96	1779.68
289.18	1742.82
289.39	1738.73
289.61	1783.78
289.82	1779.68
290.04	1757.16
290.25	1710.05
290.47	1660.90
290.68	1640.42
290.90	1820.64
291.11	1714.15
291.33	1671.14
291.54	1630.18
291.76	1656.81
291.97	1742.82
292.18	1771.49
292.40	1689.57
292.61	1652.71
292.83	1808.36
293.04	1738.73
293.26	1751.01
293.47	1748.97
293.69	1691.62
293.90	1701.86
294.12	1732.58
294.33	1638.38
294.55	1624.04
294.76	1724.39
294.97	1738.73
295.19	1812.45
295.40	1669.09
295.62	1767.40
295.83	1779.68
296.05	1726.44
296.26	1791.97
296.48	1675.24
296.69	1701.86
296.90	1679.33
297.12	1775.59
297.33	1763.30
297.55	1718.25
297.76	1681.38
297.98	1802.21
298.19	1775.59
298.41	1720.29
298.62	1699.81
298.83	1785.83
299.05	1746.92
299.26	1630.18
299.48	1693.67
299.69	1716.20
299.90	1765.35
300.12	1607.66
300.33	1712.10
300.55	1759.21
300.76	1685.48
300.98	1613.80
301.19	1724.39
301.40	1722.34
301.62	1705.96
301.83	1753.06
302.05	1730.53
302.26	1802.21
302.47	1720.29
302.69	1644.52
302.90	1800.16
303.12	1556.46
303.33	1718.25
303.54	1783.78
303.76	1628.14
303.97	1705.96
304.19	1816.55
304.40	1656.81
304.61	1732.58
304.83	1789.92
305.04	1798.12
305.26	1730.53
305.47	1648.61
305.68	1734.63
305.90	1681.38
306.11	1751.01
306.33	1779.68
306.54	1568.74
306.75	1685.48
306.97	1652.71
307.18	1708.01
307.39	1734.63
307.61	1755.11
307.82	1693.67
308.04	1705.96
308.25	1638.38
308.46	1748.97
308.68	1673.19
308.89	1726.44
309.10	1828.84
309.32	1748.97
309.53	1619.94
309.74	1712.10
309.96	1699.81
310.17	1779.68
310.39	1677.29
310.60	1693.67
310.81	1722.34
311.03	1660.90
311.24	1753.06
311.45	1751.01
311.67	1822.69
311.88	1705.96
312.09	1697.77
312.31	1665.00
312.52	1585.13
312.73	1701.86
312.95	1665.00
313.16	1650.66
313.37	1791.97
313.59	1757.16
313.80	1708.01
314.01	1839.08
314.23	1699.81
314.44	1691.62
314.65	1677.29
314.87	1669.09
315.08	1759.21
315.29	1665.00
315.51	1591.27
315.72	1601.51
315.93	1822.69
316.15	1683.43
316.36	1738.73
316.57	1667.05
316.79	1607.66
317.00	1683.43
317.21	1748.97
317.43	1640.42
317.64	1718.25
317.85	1724.39
318.07	1710.05
318.28	1738.73
318.49	1855.46
318.70	1861.60
318.92	1757.16
319.13	1722.34
319.34	1847.27
319.56	1861.60
319.77	1695.72
319.98	1902.56
320.20	1724.39
320.41	1714.15
320.62	1748.97
320.83	1720.29
321.05	1841.12
321.26	1716.20
321.47	1591.27
321.69	1734.63
321.90	1724.39
322.11	1697.77
322.32	1720.29
322.54	1748.97
322.75	1716.20
322.96	1837.03
323.18	1689.57
323.39	1560.55
323.60	1720.29
323.81	1759.21
324.03	1734.63
324.24	1720.29
324.45	1669.09
324.66	1734.63
324.88	1787.88
325.09	1759.21
325.30	1765.35
325.52	1742.82
325.73	1705.96
325.94	1603.56
326.15	1599.46
326.37	1656.81
326.58	1810.40
326.79	1810.40
327.00	1646.57
327.22	1705.96
327.43	1660.90
327.64	1638.38
327.85	1767.40
328.07	1708.01
328.28	1804.26
328.49	1714.15
328.70	1734.63
328.92	1681.38
329.13	1757.16
329.34	1738.73
329.55	1769.44
329.76	1746.92
329.98	1660.90
330.19	1808.36
330.40	1681.38
330.61	1769.44
330.83	1734.63
331.04	1638.38
331.25	1759.21
331.46	1689.57
331.68	1642.47
331.89	1730.53
332.10	1742.82
332.31	1611.75
332.52	1724.39
332.74	1777.64
332.95	1626.09
333.16	1689.57
333.37	1738.73
333.58	1640.42
333.80	1742.82
334.01	1632.23
334.22	1628.14
334.43	1636.33
334.64	1673.19
334.86	1658.85
335.07	1646.57
335.28	1716.20
335.49	1626.09
335.70	1748.97
335.92	1775.59
336.13	1837.03
336.34	1755.11
336.55	1720.29
336.76	1730.53
336.98	1558.50
337.19	1730.53
337.40	1751.01
337.61	1845.22
337.82	1705.96
338.04	1798.12
338.25	1617.90
338.46	1746.92
338.67	1697.77
338.88	1621.99
339.09	1654.76
339.31	1675.24
339.52	1605.61
339.73	1634.28
339.94	1722.34
340.15	1714.15
340.36	1646.57
340.58	1716.20
340.79	1650.66
341.00	1710.05
341.21	1636.33
341.42	1812.45
341.63	1691.62
341.85	1751.01
342.06	1701.86
342.27	1648.61
342.48	1812.45
342.69	1673.19
342.90	1699.81
343.12	1732.58
343.33	1732.58
343.54	1796.07
343.75	1746.92
343.96	1710.05
344.17	1667.05
344.38	1705.96
344.60	1656.81
344.81	1708.01
345.02	1701.86
345.23	1730.53
345.44	1775.59
345.65	1738.73
345.86	1761.25
346.07	1648.61
346.29	1759.21
346.50	1759.21
346.71	1824.74
346.92	1802.21
347.13	1849.32
347.34	1742.82
347.55	1679.33
347.76	1720.29
347.98	1617.90
348.19	1687.53
348.40	1783.78
348.61	1648.61
348.82	1847.27
349.03	1748.97
349.24	1654.76
349.45	1779.68
349.66	1675.24
349.88	1689.57
350.09	1685.48
350.30	1771.49
350.51	1687.53
350.72	1658.85
350.93	1763.30
351.14	1640.42
351.35	1777.64
351.56	1712.10
351.77	1779.68
351.99	1763.30
352.20	1787.88
352.41	1814.50
352.62	1650.66
352.83	1679.33
353.04	1693.67
353.25	1673.19
353.46	1765.35
353.67	1757.16
353.88	1597.42
354.09	1699.81
354.30	1697.77
354.52	1738.73
354.73	1695.72
354.94	1628.14
355.15	1773.54
355.36	1783.78
355.57	1687.53
355.78	1798.12
355.99	1648.61
356.20	1681.38
356.41	1824.74
356.62	1763.30
356.83	1619.94
357.04	1804.26
357.25	1658.85
357.46	1705.96
357.68	1677.29
357.89	1689.57
358.10	1740.77
358.31	1714.15
358.52	1669.09
358.73	1736.68
358.94	1673.19
359.15	1734.63
359.36	1714.15
359.57	1716.20
359.78	1671.14
359.99	1677.29
360.20	1644.52
360.41	1708.01
360.62	1738.73
360.83	1701.86
361.04	1648.61
361.25	1716.20
361.46	1845.22
361.67	1730.53
361.88	1755.11
362.09	1769.44
362.30	1677.29
362.51	1722.34
362.72	1714.15
362.93	1734.63
363.14	1755.11
363.35	1662.95
363.56	1640.42
363.78	1800.16
363.99	1697.77
364.20	1689.57
364.41	1697.77
364.62	1845.22
364.83	1687.53
365.04	1701.86
365.25	1738.73
365.46	1871.84
365.67	1675.24
365.88	1679.33
366.09	1685.48
366.30	1677.29
366.51	1662.95
366.72	1687.53
366.93	1714.15
367.14	1804.26
367.35	1777.64
367.56	1677.29
367.77	1728.49
367.98	1748.97
368.18	1761.25
368.39	1726.44
368.60	1689.57
368.81	1710.05
369.02	1775.59
369.23	1720.29
369.44	1587.18
369.65	1710.05
369.86	1736.68
370.07	1763.30
370.28	1673.19
370.49	1769.44
370.70	1787.88
370.91	1734.63
371.12	1632.23
371.33	1705.96
371.54	1689.57
371.75	1845.22
371.96	1640.42
372.17	1671.14
372.38	1662.95
372.59	1730.53
372.80	1609.70
373.01	1748.97
373.22	1640.42
373.43	1636.33
373.64	1722.34
373.85	1777.64
374.06	1804.26
374.26	1791.97
374.47	1689.57
374.68	1816.55
374.89	1716.20
375.10	1685.48
375.31	1845.22
375.52	1644.52
375.73	1681.38
375.94	1675.24
376.15	1763.30
376.36	1609.70
376.57	1701.86
376.78	1701.86
376.99	1691.62
377.20	1726.44
377.40	1642.47
377.61	1796.07
377.82	1728.49
378.03	1820.64
378.24	1710.05
378.45	1767.40
378.66	1634.28
378.87	1603.56
379.08	1607.66
379.29	1703.91
379.50	1845.22
379.71	1634.28
379.91	1828.84
380.12	1703.91
380.33	1695.72
380.54	1677.29
380.75	1734.63
380.96	1681.38
381.17	1834.98
381.38	1726.44
381.59	1683.43
381.80	1804.26
382.00	1839.08
382.21	1753.06
382.42	1796.07
382.63	1855.46
382.84	1828.84
383.05	1761.25
383.26	1810.40
383.47	1791.97
383.68	1759.21
383.88	1740.77
384.09	1773.54
384.30	1736.68
384.51	1791.97
384.72	1662.95
384.93	1542.12
385.14	1695.72
385.35	1734.63
385.55	1654.76
385.76	1777.64
385.97	1701.86
386.18	1619.94
386.39	1667.05
386.60	1630.18
386.81	1734.63
387.02	1693.67
387.22	1697.77
387.43	1826.79
387.64	1771.49
387.85	1896.42
388.06	2183.13
388.27	4313.02
388.48	6631.32
388.68	8155.01
388.89	9555.82
389.10	9561.97
389.31	8517.50
389.52	7475.09
389.73	6784.92
389.93	6195.11
390.14	5799.85
390.35	5173.17
390.56	4536.25
390.77	3737.54
390.98	3049.43
391.18	2541.53
391.39	2127.84
391.60	1843.17
391.81	1855.46
392.02	1710.05
392.23	1923.04
392.43	1687.53
392.64	1730.53
392.85	1689.57
393.06	1820.64
393.27	1791.97
393.47	1689.57
393.68	1724.39
393.89	1716.20
394.10	1830.88
394.31	1617.90
394.52	1658.85
394.72	1617.90
394.93	1767.40
395.14	1619.94
395.35	1734.63
395.56	1669.09
395.76	1716.20
395.97	1785.83
396.18	1855.46
396.39	1832.93
396.60	2082.78
396.80	1865.70
397.01	1841.12
397.22	1816.55
397.43	1849.32
397.64	1708.01
397.84	1761.25
398.05	1902.56
398.26	1785.83
398.47	1837.03
398.67	1863.65
398.88	1744.87
399.09	1673.19
399.30	1648.61
399.51	1775.59
399.71	1689.57
399.92	1673.19
400.13	1734.63
400.34	1701.86
400.54	1738.73
400.75	1859.56
400.96	1740.77
401.17	1734.63
401.37	1697.77
401.58	1693.67
401.79	1751.01
402.00	1871.84
402.21	1972.19
402.41	1957.86
402.62	1968.10
402.83	2002.91
403.04	1994.72
403.24	1968.10
403.45	1853.41
403.66	2000.87
403.87	1845.22
404.07	1914.85
404.28	1927.14
404.49	1843.17
404.70	1794.02
404.90	1738.73
405.11	1751.01
405.32	1691.62
405.52	1740.77
405.73	1681.38
405.94	1693.67
406.15	1726.44
406.35	1779.68
406.56	1675.24
406.77	1787.88
406.98	1708.01
407.18	1705.96
407.39	1853.41
407.60	1662.95
407.80	1751.01
408.01	1697.77
408.22	1736.68
408.43	1697.77
408.63	1660.90
408.84	1738.73
409.05	1732.58
409.25	1693.67
409.46	1705.96
409.67	1652.71
409.88	1738.73
410.08	1701.86
410.29	1724.39
410.50	1751.01
410.70	1818.60
410.91	1677.29
411.12	1703.91
411.32	1681.38
411.53	1591.27
411.74	1751.01
411.95	1802.21
412.15	1697.77
412.36	1804.26
412.57	1796.07
412.77	1855.46
412.98	1769.44
413.19	1605.61
413.39	1736.68
413.60	1767.40
413.81	1683.43
414.01	1634.28
414.22	1681.38
414.43	1789.92
414.63	1658.85
414.84	1828.84
415.05	1751.01
415.25	1615.85
415.46	1722.34
415.67	1578.98
415.87	1746.92
416.08	1714.15
416.29	1640.42
416.49	1767.40
416.70	1742.82
416.91	1697.77
417.11	1763.30
417.32	1751.01
417.53	1841.12
417.73	1765.35
417.94	1712.10
418.15	1693.67
418.35	1693.67
418.56	1673.19
418.77	1834.98
418.97	1771.49
419.18	1630.18
419.38	1570.79
419.59	1748.97
419.80	1857.51
420.00	1751.01
420.21	1773.54
420.42	1730.53
420.62	1675.24
420.83	1730.53
421.04	1701.86
421.24	1712.10
421.45	1736.68
421.65	1691.62
421.86	1740.77
422.07	1767.40
422.27	1818.60
422.48	1769.44
422.69	1636.33
422.89	1642.47
423.10	1736.68
423.30	1628.14
423.51	1703.91
423.72	1697.77
423.92	1703.91
424.13	1656.81
424.33	1665.00
424.54	1759.21
424.75	1742.82
424.95	1853.41
425.16	1705.96
425.36	1636.33
425.57	1689.57
425.78	1763.30
425.98	1779.68
426.19	1648.61
426.39	1660.90
426.60	1798.12
426.81	1794.02
427.01	1685.48
427.22	1667.05
427.42	1658.85
427.63	1675.24
427.83	1748.97
428.04	1710.05
428.25	1849.32
428.45	1736.68
428.66	1736.68
428.86	1687.53
429.07	1773.54
429.28	1789.92
429.48	1738.73
429.69	1679.33
429.89	1763.30
430.10	1632.23
430.30	1775.59
430.51	1765.35
430.71	1632.23
430.92	1687.53
431.13	1685.48
431.33	1783.78
431.54	1789.92
431.74	1804.26
431.95	1744.87
432.15	1712.10
432.36	1693.67
432.56	1742.82
432.77	1841.12
432.98	1894.37
433.18	1738.73
433.39	1673.19
433.59	1724.39
433.80	1812.45
434.00	1748.97
434.21	1691.62
434.41	1718.25
434.62	1855.46
434.82	1671.14
435.03	1689.57
435.23	1738.73
435.44	1648.61
435.64	1697.77
435.85	1699.81
436.06	1796.07
436.26	1773.54
436.47	1753.06
436.67	1667.05
436.88	1710.05
437.08	1820.64
437.29	1800.16
437.49	1781.73
437.70	1794.02
437.90	1701.86
438.11	1820.64
438.31	1796.07
438.52	1869.80
438.72	1851.36
438.93	1918.95
439.13	1708.01
439.34	1855.46
439.54	1771.49
439.75	1789.92
439.95	1812.45
440.16	1738.73
440.36	1742.82
440.57	1771.49
440.77	1808.36
440.98	1716.20
441.18	1828.84
441.39	1681.38
441.59	1693.67
441.80	1779.68
442.00	1796.07
442.21	1791.97
442.41	1597.42
442.62	1832.93
442.82	1708.01
443.02	1671.14
443.23	1699.81
443.43	1669.09
443.64	1763.30
443.84	1714.15
444.05	1822.69
444.25	1763.30
444.46	1716.20
444.66	1783.78
444.87	1798.12
445.07	1624.04
445.28	1683.43
445.48	1791.97
445.69	1753.06
445.89	1869.80
446.09	1755.11
446.30	1996.77
446.50	2627.54
446.71	3577.80
446.91	4167.62
447.12	4822.97
447.32	4876.21
447.53	4227.01
447.73	3813.32
447.93	3532.75
448.14	3289.04
448.34	3192.78
448.55	2994.13
448.75	2901.97
448.96	2734.04
449.16	2473.95
449.36	2240.48
449.57	2060.26
449.77	1943.52
449.98	1832.93
450.18	1828.84
450.39	1720.29
450.59	1783.78
450.79	1730.53
451.00	1705.96
451.20	1783.78
451.41	1730.53
451.61	1722.34
451.81	1787.88
452.02	1759.21
452.22	1751.01
452.43	1621.99
452.63	1675.24
452.84	1763.30
453.04	1738.73
453.24	1683.43
453.45	1693.67
453.65	1767.40
453.86	1691.62
454.06	1771.49
454.26	1748.97
454.47	1736.68
454.67	1771.49
454.87	1744.87
455.08	1755.11
455.28	1865.70
455.49	1779.68
455.69	1757.16
455.89	1877.99
456.10	1847.27
456.30	1665.00
456.51	1820.64
456.71	1779.68
456.91	1802.21
457.12	1796.07
457.32	1794.02
457.52	1705.96
457.73	1759.21
457.93	1722.34
458.14	1744.87
458.34	1718.25
458.54	1767.40
458.75	1697.77
458.95	1763.30
459.15	1767.40
459.36	1732.58
459.56	1830.88
459.76	1896.42
459.97	1738.73
460.17	1734.63
460.37	1806.31
460.58	1705.96
460.78	1697.77
460.99	1751.01
461.19	1812.45
461.39	1695.72
461.60	1734.63
461.80	1822.69
462.00	1691.62
462.21	1742.82
462.41	1699.81
462.61	1662.95
462.82	1673.19
463.02	1701.86
463.22	1722.34
463.43	1822.69
463.63	1808.36
463.83	1759.21
464.04	1748.97
464.24	1761.25
464.44	1755.11
464.64	1785.83
464.85	1818.60
465.05	1767.40
465.25	1730.53
465.46	1769.44
465.66	1834.98
465.86	1759.21
466.07	1779.68
466.27	1695.72
466.47	1599.46
466.68	1650.66
466.88	1834.98
467.08	1736.68
467.29	1775.59
467.49	1773.54
467.69	1697.77
467.89	1785.83
468.10	1791.97
468.30	1736.68
468.50	1789.92
468.71	1761.25
468.91	1632.23
469.11	1830.88
469.31	1705.96
469.52	1691.62
469.72	1863.65
469.92	1826.79
470.13	1697.77
470.33	1759.21
470.53	1855.46
470.73	2115.55
470.94	2308.06
471.14	2314.20
471.34	2590.68
471.54	2455.51
471.75	2183.13
471.95	2162.66
472.15	2074.59
472.36	2148.32
472.56	2109.41
472.76	2035.68
472.96	2025.44
473.17	2027.49
473.37	1935.33
473.57	1779.68
473.77	1820.64
473.98	1751.01
474.18	1714.15
474.38	1912.80
474.58	1708.01
474.79	1726.44
474.99	1847.27
475.19	1738.73
475.39	1689.57
475.60	1710.05
475.80	1806.31
476.00	1742.82
476.20	1681.38
476.41	1732.58
476.61	1771.49
476.81	1843.17
477.01	1693.67
477.21	1728.49
477.42	1810.40
477.62	1701.86
477.82	1732.58
478.02	1781.73
478.23	1699.81
478.43	1689.57
478.63	1705.96
478.83	1732.58
479.03	1691.62
479.24	1812.45
479.44	1839.08
479.64	1722.34
479.84	1640.42
480.04	1591.27
480.25	1820.64
480.45	1693.67
480.65	1730.53
480.85	1826.79
481.06	1714.15
481.26	1845.22
481.46	1689.57
481.66	1740.77
481.86	1738.73
482.06	1859.56
482.27	1765.35
482.47	1730.53
482.67	1787.88
482.87	1671.14
483.07	1738.73
483.28	1687.53
483.48	1693.67
483.68	1740.77
483.88	1685.48
484.08	1679.33
484.29	1728.49
484.49	1730.53
484.69	1673.19
484.89	1884.13
485.09	1732.58
485.29	1746.92
485.50	1689.57
485.70	1662.95
485.90	1783.78
486.10	1787.88
486.30	1822.69
486.50	1714.15
486.71	1714.15
486.91	1818.60
487.11	1787.88
487.31	1642.47
487.51	1701.86
487.71	1726.44
487.91	1708.01
488.12	1687.53
488.32	1574.89
488.52	1746.92
488.72	1669.09
488.92	1748.97
489.12	1773.54
489.32	1845.22
489.53	1808.36
489.73	1636.33
489.93	1857.51
490.13	1714.15
490.33	1675.24
490.53	1681.38
490.73	1847.27
490.94	1679.33
491.14	1810.40
491.34	1810.40
491.54	2115.55
491.74	2592.73
491.94	2963.41
492.14	2961.36
492.34	3002.32
492.54	2664.41
492.75	2482.14
492.95	2439.13
493.15	2338.78
493.35	2246.62
493.55	2269.15
493.75	2136.03
493.95	2166.75
494.15	2060.26
494.35	1884.13
494.56	1908.71
494.76	1843.17
494.96	1812.45
495.16	1818.60
495.36	1748.97
495.56	1804.26
495.76	1816.55
495.96	1726.44
496.16	1665.00
496.36	1816.55
496.56	1652.71
496.77	1728.49
496.97	1728.49
497.17	1751.01
497.37	1652.71
497.57	1728.49
497.77	1724.39
497.97	1648.61
498.17	1732.58
498.37	1695.72
498.57	1779.68
498.77	1734.63
498.97	1841.12
499.17	1755.11
499.38	1720.29
499.58	1767.40
499.78	1888.23
499.98	1837.03
500.18	1826.79
500.38	1640.42
500.58	1914.85
500.78	2586.58
500.98	4564.92
501.18	5754.79
501.38	6707.10
501.58	7032.72
501.78	6662.04
501.98	5517.23
502.18	4972.47
502.38	4388.80
502.58	4173.76
502.78	3766.21
502.98	3557.32
503.18	3518.41
503.38	3188.69
503.59	2895.83
503.79	2672.60
503.99	2545.63
504.19	2351.07
504.39	2238.43
504.59	2140.13
504.79	2152.42
504.99	2090.98
505.19	1920.99
505.39	1916.90
505.59	1902.56
505.79	1894.37
505.99	1898.47
506.19	1720.29
506.39	1888.23
506.59	1751.01
506.79	1714.15
506.99	1841.12
507.19	1738.73
507.39	1826.79
507.59	1642.47
507.79	1634.28
507.99	1705.96
508.19	1718.25
508.39	1740.77
508.59	1728.49
508.79	1826.79
508.99	1882.08
509.19	1705.96
509.39	1755.11
509.59	1740.77
509.79	1669.09
509.99	1665.00
510.19	1857.51
510.39	1812.45
510.59	1769.44
510.79	1800.16
510.99	1673.19
511.19	1816.55
511.39	1818.60
511.59	1777.64
511.79	1708.01
511.99	1796.07
512.19	1796.07
512.38	1667.05
512.58	1705.96
512.78	1761.25
512.98	1777.64
513.18	1871.84
513.38	1662.95
513.58	1796.07
513.78	1761.25
513.98	1683.43
514.18	1742.82
514.38	1691.62
514.58	1748.97
514.78	1765.35
514.98	1658.85
515.18	1769.44
515.38	1699.81
515.58	1871.84
515.78	1708.01
515.98	1636.33
516.18	1710.05
516.38	1710.05
516.57	1744.87
516.77	1767.40
516.97	1757.16
517.17	1798.12
517.37	1640.42
517.57	1785.83
517.77	1753.06
517.97	1695.72
518.17	1812.45
518.37	1673.19
518.57	1632.23
518.77	1738.73
518.97	1697.77
519.16	1742.82
519.36	1820.64
519.56	1730.53
519.76	1736.68
519.96	1710.05
520.16	1818.60
520.36	1734.63
520.56	1830.88
520.76	1673.19
520.96	1775.59
521.16	1783.78
521.35	1763.30
521.55	1839.08
521.75	1779.68
521.95	1712.10
522.15	1783.78
522.35	1626.09
522.55	1708.01
522.75	1787.88
522.95	1787.88
523.14	1595.37
523.34	1705.96
523.54	1714.15
523.74	1746.92
523.94	1677.29
524.14	1636.33
524.34	1753.06
524.54	1779.68
524.73	1759.21
524.93	1759.21
525.13	1757.16
525.33	1689.57
525.53	1886.18
525.73	1806.31
525.93	1767.40
526.13	1705.96
526.32	1667.05
526.52	1705.96
526.72	1720.29
526.92	1726.44
527.12	1732.58
527.32	1681.38
527.52	1761.25
527.71	1796.07
527.91	1732.58
528.11	1761.25
528.31	1744.87
528.51	1708.01
528.71	1765.35
528.90	1757.16
529.10	1789.92
529.30	1847.27
529.50	1605.61
529.70	1777.64
529.90	1787.88
530.09	1720.29
530.29	1695.72
530.49	1662.95
530.69	1888.23
530.89	1695.72
531.09	1757.16
531.28	1669.09
531.48	1785.83
531.68	1777.64
531.88	1730.53
532.08	1759.21
532.28	1730.53
532.47	1767.40
532.67	1863.65
532.87	1726.44
533.07	1751.01
533.27	1794.02
533.46	1771.49
533.66	1771.49
533.86	1722.34
534.06	1755.11
534.26	1863.65
534.45	1599.46
534.65	1837.03
534.85	1767.40
535.05	1757.16
535.25	1763.30
535.44	1634.28
535.64	1761.25
535.84	1763.30
536.04	1636.33
536.24	1738.73
536.43	1708.01
536.63	1804.26
536.83	1693.67
537.03	1716.20
537.22	1605.61
537.42	1734.63
537.62	1779.68
537.82	1718.25
538.02	1814.50
538.21	1812.45
538.41	1877.99
538.61	1773.54
538.81	1757.16
539.00	1863.65
539.20	1687.53
539.40	1705.96
539.60	1773.54
539.79	1705.96
539.99	1658.85
540.19	1697.77
540.39	1683.43
540.58	1783.78
540.78	1802.21
540.98	1718.25
541.18	1787.88
541.37	1767.40
541.57	1699.81
541.77	1791.97
541.97	1689.57
542.16	1665.00
542.36	1771.49
542.56	1804.26
542.76	1861.60
542.95	1832.93
543.15	1791.97
543.35	1820.64
543.54	1685.48
543.74	1658.85
543.94	1812.45
544.14	1714.15
544.33	1837.03
544.53	1763.30
544.73	1779.68
544.93	1755.11
545.12	1785.83
545.32	1746.92
545.52	1761.25
545.71	1626.09
545.91	1652.71
546.11	1755.11
546.30	1679.33
546.50	1732.58
546.70	1843.17
546.90	1763.30
547.09	1644.52
547.29	1744.87
547.49	1767.40
547.68	1773.54
547.88	1701.86
548.08	1746.92
548.27	2228.19
548.47	1683.43
548.67	1779.68
548.87	1761.25
549.06	1691.62
549.26	1798.12
549.46	1699.81
549.65	1675.24
549.85	1849.32
550.05	1755.11
550.24	1644.52
550.44	1771.49
550.64	1773.54
550.83	1683.43
551.03	1814.50
551.23	1736.68
551.42	1757.16
551.62	1730.53
551.82	1701.86
552.01	1742.82
552.21	1796.07
552.41	1673.19
552.60	1851.36
552.80	1718.25
553.00	1681.38
553.19	1759.21
553.39	1837.03
553.59	1712.10
553.78	1828.84
553.98	1757.16
554.17	1648.61
554.37	1722.34
554.57	1759.21
554.76	1703.91
554.96	1708.01
555.16	1726.44
555.35	1748.97
555.55	1796.07
555.75	1744.87
555.94	1818.60
556.14	1693.67
556.33	1755.11
556.53	1726.44
556.73	1751.01
556.92	1751.01
557.12	1843.17
557.32	1886.18
557.51	1865.70
557.71	1716.20
557.90	1787.88
558.10	1769.44
558.30	1673.19
558.49	1728.49
558.69	1779.68
558.88	1748.97
559.08	1724.39
559.28	1730.53
559.47	1806.31
559.67	1787.88
559.86	1947.62
560.06	1851.36
560.26	1763.30
560.45	1718.25
560.65	1767.40
560.84	1773.54
561.04	1763.30
561.24	1892.32
561.43	1736.68
561.63	1820.64
561.82	1689.57
562.02	1837.03
562.22	1624.04
562.41	1697.77
562.61	1710.05
562.80	1685.48
563.00	1880.04
563.19	1740.77
563.39	1791.97
563.59	1785.83
563.78	1648.61
563.98	1574.89
564.17	1693.67
564.37	1609.70
564.56	1753.06
564.76	1671.14
564.96	1785.83
565.15	1796.07
565.35	1902.56
565.54	1759.21
565.74	1812.45
565.93	1718.25
566.13	1712.10
566.32	1718.25
566.52	1822.69
566.71	1783.78
566.91	1791.97
567.11	1773.54
567.30	1701.86
567.50	1851.36
567.69	1796.07
567.89	1685.48
568.08	1665.00
568.28	1679.33
568.47	1714.15
568.67	1775.59
568.86	1763.30
569.06	1798.12
569.25	1710.05
569.45	1691.62
569.64	1650.66
569.84	1769.44
570.04	1730.53
570.23	1708.01
570.43	1695.72
570.62	1748.97
570.82	1894.37
571.01	1665.00
571.21	1677.29
571.40	1648.61
571.60	1789.92
571.79	1822.69
571.99	1751.01
572.18	1755.11
572.38	1740.77
572.57	1783.78
572.77	1765.35
572.96	1902.56
573.16	1767.40
573.35	1751.01
573.55	1828.84
573.74	1759.21
573.94	1757.16
574.13	1669.09
574.33	1734.63
574.52	1767.40
574.71	1675.24
574.91	1757.16
575.10	1738.73
575.30	1681.38
575.49	1722.34
575.69	1738.73
575.88	1800.16
576.08	1730.53
576.27	1808.36
576.47	1757.16
576.66	1802.21
576.86	1812.45
577.05	1667.05
577.25	1877.99
577.44	1837.03
577.64	1650.66
577.83	1828.84
578.02	1728.49
578.22	1816.55
578.41	1785.83
578.61	1787.88
578.80	1720.29
579.00	1796.07
579.19	1824.74
579.39	1828.84
579.58	1828.84
579.77	1718.25
579.97	1722.34
580.16	1724.39
580.36	1753.06
580.55	1785.83
580.75	1785.83
580.94	1740.77
581.13	1927.14
581.33	1855.46
581.52	1720.29
581.72	1896.42
581.91	1873.89
582.11	1785.83
582.30	1769.44
582.49	1828.84
582.69	1841.12
582.88	1818.60
583.08	1742.82
583.27	1804.26
583.47	1734.63
583.66	1705.96
583.85	1699.81
584.05	1777.64
584.24	1863.65
584.44	1781.73
584.63	1742.82
584.82	1845.22
585.02	1841.12
585.21	1816.55
585.41	1849.32
585.60	1783.78
585.79	1931.23
585.99	1931.23
586.18	1902.56
586.37	2166.75
586.57	3358.67
586.76	9666.41
586.96	24088.21
587.15	34033.14
587.34	39783.84
587.54	41547.14
587.73	36111.83
587.93	25935.48
588.12	21302.97
588.31	18233.07
588.51	15820.56
588.70	14753.57
588.89	14364.45
589.09	12400.45
589.28	10968.92
589.47	9342.83
589.67	7849.86
589.86	6360.99
590.06	4892.60
590.25	3944.39
590.44	3035.09
590.64	2562.01
590.83	2250.72
591.02	2029.54
591.22	1970.15
591.41	1900.52
591.60	1785.83
591.80	2004.96
591.99	1716.20
592.18	1763.30
592.38	1832.93
592.57	1781.73
592.76	1824.74
592.96	1820.64
593.15	1830.88
593.34	1785.83
593.54	1751.01
593.73	1839.08
593.92	1720.29
594.12	1763.30
594.31	1738.73
594.50	1808.36
594.70	1818.60
594.89	1849.32
595.08	1814.50
595.28	1777.64
595.47	1959.91
595.66	1781.73
595.86	1759.21
596.05	1863.65
596.24	1738.73
596.43	1773.54
596.63	1730.53
596.82	1779.68
597.01	1785.83
597.21	1923.04
597.40	1818.60
597.59	1755.11
597.79	1695.72
597.98	1798.12
598.17	1783.78
598.36	1761.25
598.56	1703.91
598.75	1759.21
598.94	1755.11
599.14	1732.58
599.33	1761.25
599.52	1808.36
599.71	1785.83
599.91	1847.27
600.10	1810.40
600.29	1712.10
600.48	1751.01
600.68	1796.07
600.87	1816.55
601.06	1751.01
601.26	1783.78
601.45	1765.35
601.64	1724.39
601.83	1740.77
602.03	1734.63
602.22	1681.38
602.41	1791.97
602.60	1832.93
602.80	1802.21
602.99	1779.68
603.18	1671.14
603.37	1794.02
603.57	1796.07
603.76	1757.16
603.95	1757.16
604.14	1712.10
604.34	1679.33
604.53	1753.06
604.72	1769.44
604.91	1871.84
605.10	1691.62
605.30	1634.28
605.49	1898.47
605.68	1837.03
605.87	1751.01
606.07	1714.15
606.26	1753.06
606.45	1761.25
606.64	1730.53
606.84	1716.20
607.03	1658.85
607.22	1820.64
607.41	1724.39
607.60	1705.96
607.80	1779.68
607.99	1771.49
608.18	1667.05
608.37	1824.74
608.56	1628.14
608.76	1746.92
608.95	1849.32
609.14	1755.11
609.33	1845.22
609.52	1800.16
609.72	1710.05
609.91	1769.44
610.10	1802.21
610.29	1853.41
610.48	1798.12
610.68	1800.16
610.87	1732.58
611.06	1791.97
611.25	1697.77
611.44	1808.36
611.63	1773.54
611.83	1845.22
612.02	1650.66
612.21	1837.03
612.40	1628.14
612.59	1720.29
612.79	1658.85
612.98	1806.31
613.17	1834.98
613.36	1732.58
613.55	1789.92
613.74	1677.29
613.93	1703.91
614.13	1779.68
614.32	1744.87
614.51	1738.73
614.70	1740.77
614.89	1628.14
615.08	1818.60
615.28	2058.21
615.47	1630.18
615.66	1699.81
615.85	1796.07
616.04	1882.08
616.23	1671.14
616.42	1767.40
616.62	1798.12
616.81	1753.06
617.00	1693.67
617.19	1730.53
617.38	1691.62
617.57	1763.30
617.76	1757.16
617.95	1771.49
618.15	1724.39
618.34	1816.55
618.53	1628.14
618.72	1775.59
618.91	1824.74
619.10	1775.59
619.29	1744.87
619.48	1665.00
619.68	1714.15
619.87	1751.01
620.06	1681.38
620.25	1828.84
620.44	1746.92
620.63	1699.81
620.82	1806.31
621.01	1748.97
621.20	1685.48
621.39	1648.61
621.59	1705.96
621.78	1718.25
621.97	1701.86
622.16	1771.49
622.35	1730.53
622.54	1802.21
622.73	1689.57
622.92	1681.38
623.11	1832.93
623.30	1728.49
623.49	1779.68
623.68	1677.29
623.88	1714.15
624.07	1767.40
624.26	1695.72
624.45	1720.29
624.64	1742.82
624.83	1671.14
625.02	1751.01
625.21	1781.73
625.40	1746.92
625.59	1757.16
625.78	1734.63
625.97	1824.74
626.16	1800.16
626.35	1740.77
626.54	1753.06
626.74	1796.07
626.93	1669.09
627.12	1755.11
627.31	1763.30
627.50	1771.49
627.69	1751.01
627.88	1642.47
628.07	1701.86
628.26	1630.18
628.45	1603.56
628.64	1763.30
628.83	1685.48
629.02	1742.82
629.21	1765.35
629.40	1703.91
629.59	1642.47
629.78	1718.25
629.97	1697.77
630.16	1789.92
630.35	1681.38
630.54	1716.20
630.73	1613.80
630.92	1697.77
631.11	1677.29
631.30	1763.30
631.49	1814.50
631.68	1697.77
631.87	1740.77
632.06	1710.05
632.25	1834.98
632.44	1736.68
632.63	1761.25
632.82	1740.77
633.01	1697.77
633.20	1691.62
633.39	1673.19
633.58	1675.24
633.77	1701.86
633.96	1742.82
634.15	1714.15
634.34	1738.73
634.53	1691.62
634.72	1693.67
634.91	1728.49
635.10	1734.63
635.29	1765.35
635.48	1675.24
635.67	1705.96
635.86	1595.37
636.05	1779.68
636.24	1703.91
636.43	1730.53
636.62	1693.67
636.81	1624.04
637.00	1808.36
637.19	1730.53
637.38	1699.81
637.57	1687.53
637.76	1695.72
637.95	1748.97
638.14	1648.61
638.33	1808.36
638.52	1785.83
638.71	1652.71
638.89	1693.67
639.08	1857.51
639.27	1822.69
639.46	1689.57
639.65	1787.88
639.84	1859.56
640.03	1779.68
640.22	1785.83
640.41	1806.31
640.60	1638.38
640.79	1650.66
640.98	1769.44
641.17	1724.39
641.36	1695.72
641.55	1800.16
641.74	1621.99
641.92	1695.72
642.11	1675.24
642.30	1720.29
642.49	1720.29
642.68	1640.42
642.87	1736.68
643.06	1789.92
643.25	1703.91
643.44	1656.81
643.63	1720.29
643.82	1800.16
644.00	1689.57
644.19	1685.48
644.38	1652.71
644.57	1748.97
644.76	1755.11
644.95	1652.71
645.14	1742.82
645.33	1755.11
645.52	1726.44
645.71	1728.49
645.89	1701.86
646.08	1726.44
646.27	1767.40
646.46	1769.44
646.65	1644.52
646.84	1656.81
647.03	1648.61
647.22	1751.01
647.40	1753.06
647.59	1699.81
647.78	1630.18
647.97	1705.96
648.16	1660.90
648.35	1757.16
648.54	1789.92
648.73	1679.33
648.91	1834.98
649.10	1800.16
649.29	1720.29
649.48	1689.57
649.67	1648.61
649.86	1748.97
650.05	1677.29
650.23	1746.92
650.42	1626.09
650.61	1726.44
650.80	1777.64
650.99	1857.51
651.18	1695.72
651.36	1734.63
651.55	1712.10
651.74	1728.49
651.93	1675.24
652.12	1777.64
652.31	1763.30
652.49	1675.24
652.68	1712.10
652.87	1818.60
653.06	1796.07
653.25	1814.50
653.44	1699.81
653.62	1859.56
653.81	1671.14
654.00	1738.73
654.19	1714.15
654.38	1738.73
654.56	1710.05
654.75	1730.53
654.94	1718.25
655.13	1720.29
655.32	1695.72
655.51	1773.54
655.69	1691.62
655.88	1859.56
656.07	1681.38
656.26	1738.73
656.45	1691.62
656.63	1693.67
656.82	1746.92
657.01	1818.60
657.20	1691.62
657.38	1763.30
657.57	1613.80
657.76	1581.03
657.95	1818.60
658.14	1687.53
658.32	1697.77
658.51	1662.95
658.70	1744.87
658.89	1748.97
659.08	1736.68
659.26	1814.50
659.45	1650.66
659.64	1658.85
659.83	1681.38
660.01	1910.75
660.20	1665.00
660.39	1701.86
660.58	1652.71
660.76	1794.02
660.95	1687.53
661.14	1624.04
661.33	1667.05
661.51	1787.88
661.70	1630.18
661.89	1697.77
662.08	1681.38
662.26	1691.62
662.45	1648.61
662.64	1783.78
662.83	1724.39
663.01	1632.23
663.20	1681.38
663.39	1800.16
663.58	1802.21
663.76	1691.62
663.95	1744.87
664.14	1716.20
664.32	1689.57
664.51	1654.76
664.70	1677.29
664.89	1771.49
665.07	1630.18
665.26	1796.07
665.45	1665.00
665.64	1738.73
665.82	1775.59
666.01	1771.49
666.20	1677.29
666.38	1861.60
666.57	1791.97
666.76	2164.70
666.95	4523.96
667.13	10372.96
667.32	15083.29
667.51	17532.66
667.69	18755.30
667.88	17514.23
668.07	12261.19
668.25	9609.07
668.44	8071.04
668.63	7303.06
668.81	6682.52
669.00	6137.76
669.19	5808.04
669.38	5109.68
669.56	4526.01
669.75	3874.76
669.94	3381.20
670.12	2899.92
670.31	2502.62
670.50	2273.25
670.68	1998.82
670.87	1927.14
671.06	1800.16
671.24	1765.35
671.43	1796.07
671.62	1759.21
671.80	1646.57
671.99	1734.63
672.18	1697.77
672.36	1771.49
672.55	1724.39
672.74	1730.53
672.92	1640.42
673.11	1769.44
673.29	1669.09
673.48	1773.54
673.67	1740.77
673.85	1777.64
674.04	1611.75
674.23	1730.53
674.41	1882.08
674.60	1693.67
674.79	1634.28
674.97	1695.72
675.16	1751.01
675.34	1767.40
675.53	1681.38
675.72	1761.25
675.90	1773.54
676.09	1691.62
676.28	1716.20
676.46	1632.23
676.65	1773.54
676.83	1687.53
677.02	1648.61
677.21	1763.30
677.39	1730.53
677.58	1699.81
677.77	1685.48
677.95	1624.04
678.14	1669.09
678.32	1791.97
678.51	1705.96
678.70	1783.78
678.88	1699.81
679.07	1816.55
679.25	1796.07
679.44	1710.05
679.63	1646.57
679.81	1804.26
680.00	1820.64
680.18	1734.63
680.37	1781.73
680.55	1685.48
680.74	1624.04
680.93	1636.33
681.11	1720.29
681.30	1685.48
681.48	1759.21
681.67	1689.57
681.85	1648.61
682.04	1771.49
682.23	1789.92
682.41	1681.38
682.60	1708.01
682.78	1765.35
682.97	1644.52
683.15	1767.40
683.34	1763.30
683.53	1798.12
683.71	1720.29
683.90	1751.01
684.08	1755.11
684.27	1708.01
684.45	1738.73
684.64	1839.08
684.82	1712.10
685.01	1681.38
685.19	1628.14
685.38	1818.60
685.57	1693.67
685.75	1630.18
685.94	1701.86
686.12	1703.91
686.31	1685.48
686.49	1791.97
686.68	1628.14
686.86	1640.42
687.05	1628.14
687.23	1779.68
687.42	1669.09
687.60	1632.23
687.79	1724.39
687.97	1736.68
688.16	1751.01
688.34	1837.03
688.53	1626.09
688.71	1722.34
688.90	1802.21
689.08	1738.73
689.27	1617.90
689.45	1716.20
689.64	1665.00
689.82	1691.62
690.01	1837.03
690.19	1714.15
690.38	1697.77
690.56	1816.55
690.75	1648.61
690.93	1628.14
691.12	1701.86
691.30	1796.07
691.49	1740.77
691.67	1701.86
691.86	1773.54
692.04	1681.38
692.23	1667.05
692.41	1742.82
692.60	1886.18
692.78	1763.30
692.97	1665.00
693.15	1757.16
693.34	1820.64
693.52	1724.39
693.71	1699.81
693.89	1703.91
694.08	1632.23
694.26	1720.29
694.44	1732.58
694.63	1759.21
694.81	1624.04
695.00	1669.09
695.18	1796.07
695.37	1826.79
695.55	1742.82
695.74	1724.39
695.92	1691.62
696.10	1773.54
696.29	1585.13
696.47	1675.24
696.66	1593.32
696.84	1611.75
697.03	1687.53
697.21	1789.92
697.40	2357.21
697.58	1755.11
697.76	1656.81
697.95	1681.38
698.13	1652.71
698.32	1689.57
698.50	1716.20
698.68	1691.62
698.87	1767.40
699.05	1828.84
699.24	1734.63
699.42	1636.33
699.61	1693.67
699.79	1705.96
699.97	1693.67
700.16	1699.81
700.34	1634.28
700.53	1724.39
700.71	1789.92
700.89	1851.36
701.08	1617.90
701.26	1683.43
701.45	2152.42
701.63	1705.96
701.81	1781.73
702.00	1681.38
702.18	1771.49
702.37	1634.28
702.55	1730.53
702.73	1689.57
702.92	1695.72
703.10	1773.54
703.28	1773.54
703.47	1648.61
703.65	1742.82
703.84	1730.53
704.02	1669.09
704.20	1816.55
704.39	1669.09
704.57	1638.38
704.75	1818.60
704.94	1683.43
705.12	1738.73
705.30	1906.66
705.49	2297.82
705.67	4378.56
705.86	9389.94
706.04	12459.84
706.22	14122.79
706.41	15128.35
706.59	13776.69
706.77	9557.87
706.96	7229.33
707.14	6518.68
707.32	5816.23
707.51	5472.17
707.69	4739.00
707.87	4171.71
708.06	3438.54
708.24	2926.55
708.42	2379.74
708.61	2267.10
708.79	1908.71
708.97	1841.12
709.16	1800.16
709.34	1806.31
709.52	1720.29
709.71	1728.49
709.89	1744.87
710.07	1669.09
710.26	1699.81
710.44	1806.31
710.62	1740.77
710.80	1679.33
710.99	1634.28
711.17	1744.87
711.35	1632.23
711.54	1669.09
711.72	1841.12
711.90	1705.96
712.09	1771.49
712.27	1646.57
712.45	1695.72
712.63	1691.62
712.82	1742.82
713.00	1732.58
713.18	1642.47
713.37	1779.68
713.55	1765.35
713.73	1705.96
713.91	1751.01
714.10	1595.37
714.28	1673.19
714.46	1751.01
714.65	1763.30
714.83	1757.16
715.01	1689.57
715.19	1697.77
715.38	1634.28
715.56	1681.38
715.74	1681.38
715.92	1701.86
716.11	1859.56
716.29	1601.51
716.47	1695.72
716.65	1714.15
716.84	1636.33
717.02	1828.84
717.20	1603.56
717.38	1658.85
717.57	1798.12
717.75	1728.49
717.93	1679.33
718.11	1769.44
718.30	1681.38
718.48	1699.81
718.66	1773.54
718.84	1722.34
719.03	1685.48
719.21	1624.04
719.39	1755.11
719.57	1730.53
719.75	1746.92
719.94	1726.44
720.12	1650.66
720.30	1683.43
720.48	1689.57
720.67	1728.49
720.85	1654.76
721.03	1726.44
721.21	1740.77
721.39	1726.44
721.58	1736.68
721.76	1691.62
721.94	1746.92
722.12	1722.34
722.30	1863.65
722.49	1683.43
722.67	1720.29
722.85	1730.53
723.03	1648.61
723.21	1667.05
723.40	1662.95
723.58	1757.16
723.76	1708.01
723.94	1761.25
724.12	1726.44
724.30	1808.36
724.49	1796.07
724.67	1675.24
724.85	1794.02
725.03	1609.70
725.21	1789.92
725.40	1744.87
725.58	1718.25
725.76	1818.60
725.94	1705.96
726.12	1687.53
726.30	1697.77
726.49	1730.53
726.67	1683.43
726.85	1681.38
727.03	1718.25
727.21	2160.61
727.39	2873.30
727.57	3801.03
727.76	4038.59
727.94	4388.80
728.12	4366.27
728.30	3639.24
728.48	2961.36
728.66	2672.60
728.84	2514.91
729.03	2330.59
729.21	2148.32
729.39	2017.25
729.57	1875.94
729.75	1851.36
729.93	1839.08
730.11	1722.34
730.30	1665.00
730.48	1716.20
730.66	1841.12
730.84	1812.45
731.02	1724.39
731.20	1761.25
731.38	1787.88
731.56	1687.53
731.74	1654.76
731.93	1705.96
732.11	1732.58
732.29	1796.07
732.47	1703.91
732.65	1730.53
732.83	1742.82
733.01	1781.73
733.19	1656.81
733.37	1718.25
733.56	1753.06
733.74	1714.15
733.92	1736.68
734.10	1722.34
734.28	1779.68
734.46	1656.81
734.64	1673.19
734.82	1656.81
735.00	1703.91
735.18	1755.11
735.36	1744.87
735.54	1730.53
735.73	1685.48
735.91	1732.58
736.09	1646.57
736.27	1722.34
736.45	1765.35
736.63	1626.09
736.81	1636.33
736.99	1718.25
737.17	1777.64
737.35	1648.61
737.53	1722.34
737.71	1724.39
737.89	1751.01
738.07	1679.33
738.25	1628.14
738.43	1621.99
738.61	1591.27
738.80	1624.04
738.98	1673.19
739.16	1751.01
739.34	1613.80
739.52	1755.11
739.70	1751.01
739.88	1734.63
740.06	1671.14
740.24	1652.71
740.42	1775.59
740.60	1638.38
740.78	1648.61
740.96	1593.32
741.14	1761.25
741.32	1738.73
741.50	1669.09
741.68	1828.84
741.86	1728.49
742.04	1703.91
742.22	1658.85
742.40	1673.19
742.58	1800.16
742.76	1667.05
742.94	1785.83
743.12	1624.04
743.30	1656.81
743.48	1791.97
743.66	1662.95
743.84	1806.31
744.02	1705.96
744.20	1718.25
744.38	1638.38
744.56	1619.94
744.74	1775.59
744.92	1726.44
745.10	1808.36
745.28	1732.58
745.46	1730.53
745.64	1669.09
745.82	1751.01
746.00	1738.73
746.18	1732.58
746.36	1701.86
746.54	1775.59
746.72	1703.91
746.90	1626.09
747.08	1742.82
747.26	1675.24
747.44	1806.31
747.62	1769.44
747.80	1724.39
747.98	1789.92
748.15	1791.97
748.33	1839.08
748.51	1718.25
748.69	1769.44
748.87	1658.85
749.05	1634.28
749.23	1771.49
749.41	1730.53
749.59	1730.53
749.77	1773.54
749.95	1658.85
750.13	1681.38
750.31	1767.40
750.49	1710.05
750.67	1820.64
750.85	1757.16
751.03	1712.10
751.20	1826.79
751.38	1730.53
751.56	1640.42
751.74	1675.24
751.92	1687.53
752.10	1595.37
752.28	1859.56
752.46	1648.61
752.64	1714.15
752.82	1724.39
753.00	1728.49
753.18	1658.85
753.35	1751.01
753.53	1667.05
753.71	1724.39
753.89	1800.16
754.07	1687.53
754.25	1791.97
754.43	1753.06
754.61	1632.23
754.79	1699.81
754.97	1703.91
755.14	1896.42
755.32	1605.61
755.50	1724.39
755.68	1726.44
755.86	1705.96
756.04	1720.29
756.22	1599.46
756.40	1773.54
756.57	1828.84
756.75	1740.77
756.93	1742.82
757.11	1771.49
757.29	1660.90
757.47	1708.01
757.65	1632.23
757.82	1607.66
758.00	1619.94
758.18	1693.67
758.36	1660.90
758.54	1748.97
758.72	1644.52
758.90	1714.15
759.07	1699.81
759.25	1665.00
759.43	1787.88
759.61	1691.62
759.79	2193.37
759.97	1742.82
760.15	1624.04
760.32	1755.11
760.50	1665.00
760.68	1787.88
760.86	1699.81
761.04	1724.39
761.22	1769.44
761.39	1714.15
761.57	1695.72
761.75	1681.38
761.93	1779.68
762.11	1720.29
762.28	1691.62
762.46	1658.85
762.64	1732.58
762.82	1652.71
763.00	1644.52
763.18	1730.53
763.35	1755.11
763.53	1730.53
763.71	1753.06
763.89	1732.58
764.07	1828.84
764.24	1712.10
764.42	1734.63
764.60	1771.49
764.78	1640.42
764.96	1791.97
765.13	1783.78
765.31	1714.15
765.49	1734.63
765.67	1626.09
765.84	1673.19
766.02	1710.05
766.20	1691.62
766.38	1697.77
766.56	1751.01
766.73	1691.62
766.91	1687.53
767.09	1705.96
767.27	1699.81
767.44	1632.23
767.62	1699.81
767.80	1718.25
767.98	1697.77
768.15	1675.24
768.33	1744.87
768.51	1759.21
768.69	1697.77
768.87	1742.82
769.04	1691.62
769.22	1859.56
769.40	1753.06
769.58	1918.95
769.75	1683.43
769.93	1736.68
770.11	1732.58
770.28	1691.62
770.46	1701.86
770.64	1726.44
770.82	1687.53
770.99	1697.77
771.17	1730.53
771.35	1744.87
771.53	1724.39
771.70	1660.90
771.88	1720.29
772.06	1710.05
772.23	1710.05
772.41	1751.01
772.59	1703.91
772.77	1613.80
772.94	1669.09
773.12	1724.39
773.30	1701.86
773.47	1675.24
773.65	1710.05
773.83	1855.46
774.01	1755.11
774.18	1628.14
774.36	1710.05
774.54	1714.15
774.71	1769.44
774.89	1642.47
775.07	1693.67
775.24	1689.57
775.42	1687.53
775.60	1787.88
775.78	1710.05
775.95	1677.29
776.13	1644.52
776.31	1581.03
776.48	1730.53
776.66	1728.49
776.84	1775.59
777.01	1677.29
777.19	1642.47
777.37	1613.80
777.54	1791.97
777.72	1886.18
777.90	1828.84
778.07	1617.90
778.25	1865.70
778.43	1806.31
778.60	1716.20
778.78	1783.78
778.96	1806.31
779.13	1607.66
779.31	1759.21
779.49	1732.58
779.66	1759.21
779.84	1742.82
780.01	1773.54
780.19	1667.05
780.37	1712.10
780.54	1765.35
780.72	1601.51
780.90	1662.95
781.07	1728.49
781.25	1699.81
781.43	1677.29
781.60	1705.96
781.78	1753.06
781.95	1730.53
782.13	1673.19
782.31	1681.38
782.48	1636.33
782.66	1730.53
782.83	1794.02
783.01	1718.25
783.19	1769.44
783.36	1658.85
783.54	1636.33
783.72	1742.82
783.89	1665.00
784.07	1718.25
784.24	1699.81
784.42	1824.74
784.60	1734.63
784.77	1751.01
784.95	1589.22
785.12	1708.01
785.30	1742.82
785.47	1632.23
785.65	1628.14
785.83	1675.24
786.00	1673.19
786.18	1699.81
786.35	1607.66
786.53	1638.38
786.71	1695.72
786.88	1738.73
787.06	1726.44
787.23	1638.38
787.41	1615.85
787.58	1671.14
787.76	1574.89
787.94	1624.04
788.11	1665.00
788.29	1624.04
788.46	1705.96
788.64	1589.22
788.81	1740.77
788.99	1656.81
789.16	1665.00
789.34	1746.92
789.52	1759.21
789.69	1646.57
789.87	1648.61
790.04	1705.96
790.22	1712.10
790.39	1818.60
790.57	1736.68
790.74	1671.14
790.92	1708.01
791.09	1597.42
791.27	1736.68
791.44	1814.50
791.62	1736.68
791.79	1779.68
791.97	1740.77
792.15	1826.79
792.32	1763.30
792.50	1779.68
792.67	1806.31
792.85	1820.64
793.02	1626.09
793.20	1683.43
793.37	1591.27
793.55	1697.77
793.72	1634.28
793.90	1822.69
794.07	1685.48
794.25	1705.96
794.42	1710.05
794.60	1705.96
794.77	1683.43
794.95	1751.01
795.12	1847.27
795.30	1656.81
795.47	1525.74
795.65	1888.23
795.82	1695.72
796.00	1658.85
796.17	1652.71
796.34	1621.99
796.52	1662.95
796.69	1769.44
796.87	1718.25
797.04	1748.97
797.22	1779.68
797.39	1736.68
797.57	1728.49
797.74	1648.61
797.92	1746.92
798.09	1683.43
798.27	1683.43
798.44	1779.68
798.62	1681.38
798.79	1691.62
798.96	1769.44
799.14	1726.44
799.31	1810.40
799.49	1697.77
799.66	1718.25
799.84	1730.53
800.01	1703.91
800.19	1738.73
800.36	1656.81
800.53	1796.07
800.71	1751.01
800.88	1851.36
801.06	1621.99
801.23	1665.00
801.41	1710.05
801.58	1687.53
801.75	1644.52
801.93	1738.73
802.10	1695.72
802.28	1714.15
802.45	1689.57
802.63	1722.34
802.80	1775.59
802.97	1728.49
803.15	1740.77
803.32	1671.14
803.50	1701.86
803.67	1599.46
803.84	1683.43
804.02	1736.68
804.19	1638.38
804.37	1548.26
804.54	1595.37
804.71	1662.95
804.89	1716.20
805.06	1611.75
805.24	1601.51
805.41	1654.76
805.58	1552.36
805.76	1849.32
805.93	1742.82
806.10	1830.88
806.28	1769.44
806.45	1744.87
806.63	1742.82
806.80	1742.82
806.97	1742.82
807.15	1695.72
807.32	1781.73
807.49	1755.11
807.67	1617.90
807.84	1744.87
808.01	1638.38
808.19	1847.27
808.36	1841.12
808.54	1697.77
808.71	1677.29
808.88	1656.81
809.06	1683.43
809.23	1824.74
809.40	1621.99
809.58	1710.05
809.75	1656.81
809.92	1667.05
810.10	1804.26
810.27	1746.92
810.44	1724.39
810.62	1779.68
810.79	1701.86
810.96	1652.71
811.14	1652.71
811.31	1701.86
811.48	1697.77
811.66	1767.40
811.83	1777.64
812.00	1650.66
812.18	1787.88
812.35	1796.07
812.52	1703.91
812.69	1755.11
812.87	1628.14
813.04	1753.06
813.21	1714.15
813.39	1732.58
813.56	1689.57
813.73	1732.58
813.91	1673.19
814.08	1730.53
814.25	1667.05
814.42	1687.53
814.60	1617.90
814.77	1701.86
814.94	1665.00
815.12	1671.14
815.29	1718.25
815.46	1697.77
815.63	1699.81
815.81	1740.77
815.98	1734.63
816.15	1665.00
816.33	1687.53
816.50	1650.66
816.67	1753.06
816.84	1687.53
817.02	1703.91
817.19	1730.53
817.36	1701.86
817.53	1673.19
817.71	1693.67
817.88	1812.45
818.05	1621.99
818.22	1716.20
818.40	1789.92
818.57	1693.67
818.74	1765.35
818.91	1699.81
819.09	1724.39
819.26	1685.48
819.43	1722.34
819.60	1642.47
819.78	1720.29
819.95	1775.59
820.12	1642.47
820.29	1734.63
820.47	1775.59
820.64	1677.29
820.81	1599.46
820.98	1681.38
821.15	1685.48
821.33	1837.03
821.50	1636.33
821.67	1621.99
821.84	1626.09
822.02	1804.26
822.19	1773.54
822.36	1767.40
822.53	1667.05
822.70	1671.14
822.88	1691.62
823.05	1871.84
823.22	1726.44
823.39	1757.16
823.56	1726.44
823.74	1779.68
823.91	1654.76
824.08	1554.41
824.25	1621.99
824.42	1753.06
824.60	1613.80
824.77	1724.39
824.94	1691.62
825.11	1648.61
825.28	1671.14
825.45	1804.26
825.63	1771.49
825.80	1673.19
825.97	1669.09
826.14	1662.95
826.31	1660.90
826.48	1718.25
826.66	1695.72
826.83	1701.86
827.00	1722.34
827.17	1632.23
827.34	1671.14
827.51	1662.95
827.69	1710.05
827.86	1656.81
828.03	1703.91
828.20	1703.91
828.37	1744.87
828.54	1720.29
828.71	1693.67
828.89	1859.56
829.06	1712.10
829.23	1800.16
829.40	1722.34
829.57	1697.77
829.74	1671.14
829.91	1636.33
830.09	1720.29
830.26	1726.44
830.43	1763.30
830.60	1714.15
830.77	1697.77
830.94	1826.79
831.11	1759.21
831.28	1714.15
831.46	1757.16
831.63	1683.43
831.80	1671.14
831.97	1667.05
832.14	1767.40
832.31	1744.87
832.48	1673.19
832.65	1791.97
832.82	1611.75
832.99	1783.78
833.17	1667.05
833.34	1789.92
833.51	1761.25
833.68	1624.04
833.85	1744.87
834.02	1650.66
834.19	1628.14
834.36	1648.61
834.53	1759.21
834.70	1822.69
834.87	1726.44
835.04	1699.81
835.22	1716.20
835.39	1720.29
835.56	1576.94
835.73	1708.01
835.90	1689.57
836.07	1609.70
836.24	1724.39
836.41	1662.95
836.58	1677.29
836.75	1757.16
836.92	1751.01
837.09	1710.05
837.26	1710.05
837.43	1652.71
837.60	1791.97
837.77	1605.61
837.94	1783.78
838.12	1763.30
838.29	1714.15
838.46	1621.99
838.63	1656.81
838.80	1837.03
838.97	1818.60
839.14	1730.53
839.31	1785.83
839.48	1714.15
839.65	1685.48
839.82	1660.90
839.99	1697.77
840.16	1789.92
840.33	1677.29
840.50	1775.59
840.67	1703.91
840.84	1677.29
841.01	1761.25
841.18	1697.77
841.35	1722.34
841.52	1732.58
841.69	1755.11
841.86	1738.73
842.03	1675.24
842.20	1839.08
842.37	1685.48
842.54	1724.39
842.71	1710.05
842.88	1611.75
843.05	1746.92
843.22	1716.20
843.39	1775.59
843.56	1675.24
843.73	1712.10
843.90	1714.15
844.07	1677.29
844.24	1777.64
844.41	1800.16
844.58	1703.91
844.75	1742.82
844.92	1677.29
845.09	1654.76
845.26	1609.70
845.43	1810.40
845.60	1642.47
845.77	1769.44
845.94	1775.59
846.10	1808.36
846.27	1681.38
846.44	1662.95
846.61	1607.66
846.78	1708.01
846.95	1732.58
847.12	1695.72
847.29	1626.09
847.46	1597.42
847.63	1734.63
847.80	1638.38
847.97	1742.82
848.14	1785.83
848.31	1767.40
848.48	1658.85
848.65	1669.09
848.82	1679.33
848.98	1849.32
849.15	1812.45
849.32	1765.35
849.49	1683.43
849.66	1695.72
849.83	1656.81
850.00	1662.95
850.17	1621.99
850.34	1705.96
850.51	1705.96
850.68	1712.10
850.85	1808.36
851.01	1757.16
851.18	1718.25
851.35	1665.00
851.52	1773.54
851.69	1812.45
851.86	1660.90
852.03	1728.49
852.20	1679.33
852.37	1730.53
852.53	1578.98
852.70	1734.63
852.87	1673.19
853.04	1767.40
853.21	1755.11
853.38	1740.77
853.55	1773.54
853.72	1789.92
853.89	1720.29
854.05	1675.24
854.22	1693.67
854.39	1734.63
854.56	1697.77
854.73	1849.32
854.90	1648.61
855.07	1769.44
855.23	1652.71
855.40	1681.38
855.57	1566.70
855.74	1603.56
855.91	1863.65
856.08	1740.77
856.25	1630.18
856.41	1699.81
856.58	1665.00
856.75	1691.62
856.92	1609.70
857.09	1728.49
857.26	1679.33
857.42	1693.67
857.59	1767.40
857.76	1724.39
857.93	1683.43
858.10	1693.67
858.27	1603.56
858.43	1691.62
858.60	1669.09
858.77	1673.19
858.94	1638.38
859.11	1773.54
859.27	1767.40
859.44	1732.58
859.61	1826.79
859.78	1708.01
859.95	1671.14
860.12	1656.81
860.28	1832.93
860.45	1771.49
860.62	1617.90
860.79	1691.62
860.95	1718.25
861.12	1615.85
861.29	1671.14
861.46	1638.38
861.63	1658.85
861.79	1697.77
861.96	1644.52
862.13	1730.53
862.30	1728.49
862.47	1638.38
862.63	1728.49
862.80	1781.73
862.97	1720.29
863.14	1712.10
863.30	1787.88
863.47	1673.19
863.64	1728.49
863.81	1703.91
863.97	1656.81
864.14	1693.67
864.31	1726.44
864.48	1779.68
864.65	1773.54
864.81	1759.21
864.98	1767.40
865.15	1746.92
865.32	1736.68
865.48	1818.60
865.65	1834.98
865.82	1656.81
865.98	1673.19
866.15	1771.49
866.32	1714.15
866.49	1665.00
866.65	1767.40
866.82	1673.19
866.99	1781.73
867.16	1624.04
867.32	1636.33
867.49	1640.42
867.66	1763.30
867.83	1697.77
867.99	1607.66
868.16	1669.09
868.33	1732.58
868.49	1689.57
868.66	1667.05
868.83	1699.81
868.99	1656.81
869.16	1722.34
869.33	1746.92
869.50	1722.34
869.66	1671.14
869.83	1705.96
870.00	1638.38
870.16	1720.29
870.33	1669.09
870.50	1703.91
870.66	1767.40
870.83	1763.30
871.00	1689.57
871.17	1615.85
871.33	1759.21
871.50	1658.85
871.67	1697.77
871.83	1624.04
872.00	1777.64
872.17	1660.90
872.33	1923.04
872.50	1761.25
872.67	1679.33
872.83	1691.62
873.00	1703.91
873.17	1738.73
873.33	1691.62
873.50	1787.88
873.67	1650.66
873.83	1728.49
874.00	1632.23
874.16	1748.97
874.33	1732.58
874.50	1638.38
874.66	1714.15
874.83	1734.63
875.00	1759.21
875.16	1771.49
875.33	1791.97
875.50	1542.12
875.66	1665.00
875.83	1767.40
875.99	1705.96
876.16	1624.04
876.33	1667.05
876.49	1740.77
876.66	1701.86
876.83	1673.19
876.99	1673.19
877.16	1773.54
877.32	1677.29
877.49	1673.19
877.66	1695.72
877.82	1808.36
877.99	1708.01
878.15	1738.73
878.32	1718.25
878.49	1785.83
878.65	1646.57
878.82	1722.34
878.98	1671.14
879.15	1818.60
879.32	1683.43
879.48	1683.43
879.65	1716.20
879.81	1656.81
879.98	1740.77
880.15	1593.32
880.31	1665.00
880.48	1652.71
880.64	1751.01
880.81	1703.91
880.97	1787.88
881.14	1783.78
881.31	1621.99
881.47	1820.64
881.64	1734.63
881.80	1624.04
881.97	1732.58
882.13	1816.55
882.30	1742.82
882.47	1716.20
882.63	1683.43
882.80	1628.14
882.96	1675.24
883.13	1796.07
883.29	1748.97
883.46	1734.63
883.62	1798.12
883.79	1636.33
883.95	1738.73
884.12	1740.77
884.29	1722.34
884.45	1705.96
884.62	1814.50
884.78	1646.57
884.95	1781.73
885.11	1642.47
885.28	1734.63
885.44	1638.38
885.61	1705.96
885.77	1697.77
885.94	1746.92
886.10	1652.71
886.27	1693.67
886.43	1804.26
886.60	1736.68
886.76	1689.57
886.93	1689.57
887.09	1785.83
887.26	1658.85
887.42	1681.38
887.59	1781.73
887.75	1796.07
887.92	1693.67
888.08	1718.25
888.25	1755.11
888.41	1789.92
888.58	1658.85
888.74	1662.95
888.91	1648.61
>>>>>End Processed Spectral Data<<<<<
