SpectraSuite Data File
++++++++++++++++++++++++++++++++++++
Date: Mon Jun 06 17:11:37 CEST 2016
User: root
Dark Spectrum Present: No
Reference Spectrum Present: No
Number of Sampled Component Spectra: 1
Spectrometers: USB4C02835
Integration Time (usec): 100000 (USB4C02835)
Spectra Averaged: 1 (USB4C02835)
Boxcar Smoothing: 0 (USB4C02835)
Correct for Electrical Dark: No (USB4C02835)
Strobe/Lamp Enabled: No (USB4C02835)
Correct for Detector Non-linearity: No (USB4C02835)
Correct for Stray Light: No (USB4C02835)
Number of Pixels in Processed Spectrum: 3648
>>>>>Begin Processed Spectral Data<<<<<
177.47	1480.68
177.69	1480.68
177.91	1480.68
178.13	1441.77
178.36	1484.78
178.58	1648.61
178.80	1728.49
179.02	1634.28
179.24	1677.29
179.46	1722.34
179.68	1710.05
179.90	1685.48
180.13	1757.16
180.35	1691.62
180.57	1644.52
180.79	1761.25
181.01	1675.24
181.23	1779.68
181.45	1824.74
181.67	1744.87
181.90	1732.58
182.12	1730.53
182.34	1644.52
182.56	1759.21
182.78	1718.25
183.00	1683.43
183.22	1722.34
183.44	1638.38
183.66	1857.51
183.89	1691.62
184.11	1697.77
184.33	1757.16
184.55	1812.45
184.77	1763.30
184.99	1697.77
185.21	1658.85
185.43	1810.40
185.65	1673.19
185.87	1665.00
186.10	1869.80
186.32	1892.32
186.54	1687.53
186.76	1724.39
186.98	1716.20
187.20	1800.16
187.42	1636.33
187.64	1771.49
187.86	1716.20
188.08	1771.49
188.30	1726.44
188.52	1697.77
188.75	1771.49
188.97	1781.73
189.19	1658.85
189.41	1734.63
189.63	1722.34
189.85	1714.15
190.07	1656.81
190.29	1603.56
190.51	1691.62
190.73	1587.18
190.95	1822.69
191.17	1673.19
191.39	1593.32
191.61	1687.53
191.84	1640.42
192.06	1648.61
192.28	1599.46
192.50	1834.98
192.72	1751.01
192.94	1712.10
193.16	1734.63
193.38	1705.96
193.60	1581.03
193.82	1699.81
194.04	1751.01
194.26	1759.21
194.48	1767.40
194.70	1648.61
194.92	1679.33
195.14	1759.21
195.36	1744.87
195.58	1716.20
195.80	1714.15
196.02	1687.53
196.24	1693.67
196.46	1757.16
196.69	1648.61
196.91	1847.27
197.13	1722.34
197.35	1611.75
197.57	1820.64
197.79	1781.73
198.01	1726.44
198.23	1710.05
198.45	1753.06
198.67	1642.47
198.89	1617.90
199.11	1794.02
199.33	1626.09
199.55	1624.04
199.77	1730.53
199.99	1746.92
200.21	1644.52
200.43	1644.52
200.65	1628.14
200.87	1583.08
201.09	1650.66
201.31	1640.42
201.53	1746.92
201.75	1728.49
201.97	1697.77
202.19	1712.10
202.41	1755.11
202.63	1734.63
202.85	1845.22
203.07	1765.35
203.29	1710.05
203.51	1683.43
203.73	1675.24
203.95	1906.66
204.17	1650.66
204.39	1718.25
204.61	1736.68
204.83	1658.85
205.05	1718.25
205.27	1738.73
205.49	1855.46
205.71	1748.97
205.93	1642.47
206.15	1621.99
206.37	1787.88
206.59	1714.15
206.81	1615.85
207.03	1718.25
207.25	1740.77
207.47	1791.97
207.69	1679.33
207.91	1847.27
208.13	1818.60
208.34	1710.05
208.56	1642.47
208.78	1783.78
209.00	1617.90
209.22	1685.48
209.44	1736.68
209.66	1722.34
209.88	1787.88
210.10	1708.01
210.32	1638.38
210.54	1757.16
210.76	1753.06
210.98	1728.49
211.20	1626.09
211.42	1665.00
211.64	1781.73
211.86	1689.57
212.08	1701.86
212.30	1722.34
212.52	1708.01
212.74	1722.34
212.96	1789.92
213.17	1773.54
213.39	1732.58
213.61	1765.35
213.83	1673.19
214.05	1677.29
214.27	1757.16
214.49	1599.46
214.71	1648.61
214.93	1804.26
215.15	1769.44
215.37	1730.53
215.59	1601.51
215.81	1753.06
216.03	1765.35
216.24	1726.44
216.46	1650.66
216.68	1794.02
216.90	1791.97
217.12	1736.68
217.34	1718.25
217.56	1732.58
217.78	1775.59
218.00	1730.53
218.22	1767.40
218.44	1714.15
218.66	1720.29
218.87	1773.54
219.09	1726.44
219.31	1746.92
219.53	1691.62
219.75	1656.81
219.97	1699.81
220.19	1832.93
220.41	1771.49
220.63	1783.78
220.85	1650.66
221.06	1732.58
221.28	1804.26
221.50	1767.40
221.72	1693.67
221.94	1771.49
222.16	1708.01
222.38	1703.91
222.60	1789.92
222.82	1662.95
223.03	1775.59
223.25	1632.23
223.47	1734.63
223.69	1787.88
223.91	1769.44
224.13	1703.91
224.35	1632.23
224.57	1732.58
224.78	1738.73
225.00	1650.66
225.22	1710.05
225.44	1693.67
225.66	1714.15
225.88	1689.57
226.10	1722.34
226.32	1796.07
226.53	1834.98
226.75	1642.47
226.97	1771.49
227.19	1724.39
227.41	1695.72
227.63	1658.85
227.85	1597.42
228.06	1730.53
228.28	1834.98
228.50	1716.20
228.72	1742.82
228.94	1671.14
229.16	1589.22
229.37	1624.04
229.59	1630.18
229.81	1730.53
230.03	1615.85
230.25	1615.85
230.47	1640.42
230.69	1613.80
230.90	1773.54
231.12	1593.32
231.34	1695.72
231.56	1728.49
231.78	1589.22
232.00	1687.53
232.21	1708.01
232.43	1738.73
232.65	1589.22
232.87	1675.24
233.09	1667.05
233.30	1722.34
233.52	1783.78
233.74	1742.82
233.96	1630.18
234.18	1667.05
234.40	1675.24
234.61	1890.28
234.83	1669.09
235.05	1673.19
235.27	1845.22
235.49	1789.92
235.70	1697.77
235.92	1791.97
236.14	1669.09
236.36	1869.80
236.58	1638.38
236.79	1787.88
237.01	1648.61
237.23	1742.82
237.45	1798.12
237.67	1638.38
237.88	1767.40
238.10	1751.01
238.32	1681.38
238.54	1708.01
238.76	1781.73
238.97	1681.38
239.19	1667.05
239.41	1828.84
239.63	1806.31
239.85	1779.68
240.06	1699.81
240.28	1705.96
240.50	1697.77
240.72	1757.16
240.93	1665.00
241.15	1796.07
241.37	1665.00
241.59	1834.98
241.81	1716.20
242.02	1658.85
242.24	1746.92
242.46	1781.73
242.68	1730.53
242.89	1724.39
243.11	1765.35
243.33	1708.01
243.55	1726.44
243.76	1665.00
243.98	1773.54
244.20	1677.29
244.42	1687.53
244.64	1660.90
244.85	1597.42
245.07	1603.56
245.29	1732.58
245.51	1757.16
245.72	1722.34
245.94	1769.44
246.16	1734.63
246.38	1794.02
246.59	1718.25
246.81	1667.05
247.03	1708.01
247.24	1605.61
247.46	1656.81
247.68	1710.05
247.90	1736.68
248.11	1710.05
248.33	1746.92
248.55	1789.92
248.77	1767.40
248.98	1761.25
249.20	1667.05
249.42	1742.82
249.64	1740.77
249.85	1673.19
250.07	1683.43
250.29	1722.34
250.50	1765.35
250.72	1646.57
250.94	1695.72
251.16	1796.07
251.37	1748.97
251.59	1875.94
251.81	1703.91
252.02	1791.97
252.24	1667.05
252.46	1828.84
252.68	1642.47
252.89	1658.85
253.11	1632.23
253.33	1816.55
253.54	1757.16
253.76	1636.33
253.98	1738.73
254.20	1736.68
254.41	1669.09
254.63	1697.77
254.85	1683.43
255.06	1679.33
255.28	1667.05
255.50	1697.77
255.71	1689.57
255.93	1607.66
256.15	1701.86
256.36	1759.21
256.58	1642.47
256.80	1759.21
257.02	1628.14
257.23	1771.49
257.45	1665.00
257.67	1777.64
257.88	1658.85
258.10	1687.53
258.32	1701.86
258.53	1710.05
258.75	1832.93
258.97	1689.57
259.18	1734.63
259.40	1796.07
259.62	1845.22
259.83	1802.21
260.05	1804.26
260.27	1964.00
260.48	1683.43
260.70	1634.28
260.92	1669.09
261.13	1730.53
261.35	1679.33
261.57	1697.77
261.78	1630.18
262.00	1675.24
262.22	1728.49
262.43	1624.04
262.65	1714.15
262.86	1685.48
263.08	1775.59
263.30	1722.34
263.51	1609.70
263.73	1679.33
263.95	1785.83
264.16	1587.18
264.38	1689.57
264.60	1683.43
264.81	1695.72
265.03	1757.16
265.25	1748.97
265.46	1697.77
265.68	1767.40
265.89	1785.83
266.11	1587.18
266.33	1732.58
266.54	1847.27
266.76	1656.81
266.98	1759.21
267.19	1791.97
267.41	1712.10
267.62	1697.77
267.84	1675.24
268.06	1730.53
268.27	1800.16
268.49	1855.46
268.70	1763.30
268.92	1773.54
269.14	1615.85
269.35	1691.62
269.57	1693.67
269.79	1763.30
270.00	1665.00
270.22	1738.73
270.43	1619.94
270.65	1585.13
270.87	1722.34
271.08	1771.49
271.30	1771.49
271.51	1685.48
271.73	1787.88
271.95	1738.73
272.16	1705.96
272.38	1660.90
272.59	1697.77
272.81	1636.33
273.02	1773.54
273.24	1718.25
273.46	1783.78
273.67	1662.95
273.89	1632.23
274.10	1652.71
274.32	1701.86
274.54	1681.38
274.75	1714.15
274.97	1656.81
275.18	1775.59
275.40	1734.63
275.61	1683.43
275.83	1687.53
276.05	1712.10
276.26	1773.54
276.48	1742.82
276.69	1691.62
276.91	1665.00
277.12	1785.83
277.34	1730.53
277.55	1771.49
277.77	1716.20
277.99	1726.44
278.20	1640.42
278.42	1689.57
278.63	1593.32
278.85	1654.76
279.06	1730.53
279.28	1705.96
279.49	1781.73
279.71	1763.30
279.93	1736.68
280.14	1642.47
280.36	1648.61
280.57	1765.35
280.79	1714.15
281.00	1675.24
281.22	1712.10
281.43	1755.11
281.65	1562.60
281.86	1681.38
282.08	1716.20
282.29	1757.16
282.51	1634.28
282.73	1654.76
282.94	1646.57
283.16	1763.30
283.37	1785.83
283.59	1736.68
283.80	1746.92
284.02	1701.86
284.23	1691.62
284.45	1681.38
284.66	1640.42
284.88	1775.59
285.09	1720.29
285.31	1726.44
285.52	1751.01
285.74	1570.79
285.95	1787.88
286.17	1730.53
286.38	1732.58
286.60	1761.25
286.81	1669.09
287.03	1669.09
287.24	1691.62
287.46	1718.25
287.67	1736.68
287.89	1828.84
288.10	1726.44
288.32	1771.49
288.53	1779.68
288.75	1746.92
288.96	1781.73
289.18	1654.76
289.39	1646.57
289.61	1767.40
289.82	1863.65
290.04	1798.12
290.25	1626.09
290.47	1757.16
290.68	1720.29
290.90	1718.25
291.11	1673.19
291.33	1705.96
291.54	1583.08
291.76	1693.67
291.97	1708.01
292.18	1748.97
292.40	1638.38
292.61	1695.72
292.83	1796.07
293.04	1669.09
293.26	1718.25
293.47	1726.44
293.69	1693.67
293.90	1615.85
294.12	1806.31
294.33	1699.81
294.55	1736.68
294.76	1667.05
294.97	1767.40
295.19	1751.01
295.40	1644.52
295.62	1757.16
295.83	1828.84
296.05	1701.86
296.26	1783.78
296.48	1642.47
296.69	1726.44
296.90	1703.91
297.12	1726.44
297.33	1767.40
297.55	1759.21
297.76	1714.15
297.98	1765.35
298.19	1724.39
298.41	1718.25
298.62	1576.94
298.83	1732.58
299.05	1726.44
299.26	1738.73
299.48	1718.25
299.69	1812.45
299.90	1689.57
300.12	1703.91
300.33	1769.44
300.55	1701.86
300.76	1775.59
300.98	1667.05
301.19	1806.31
301.40	1716.20
301.62	1677.29
301.83	1763.30
302.05	1619.94
302.26	1705.96
302.47	1714.15
302.69	1675.24
302.90	1662.95
303.12	1609.70
303.33	1830.88
303.54	1748.97
303.76	1726.44
303.97	1736.68
304.19	1759.21
304.40	1593.32
304.61	1691.62
304.83	1824.74
305.04	1839.08
305.26	1785.83
305.47	1578.98
305.68	1730.53
305.90	1630.18
306.11	1744.87
306.33	1677.29
306.54	1732.58
306.75	1705.96
306.97	1611.75
307.18	1675.24
307.39	1640.42
307.61	1779.68
307.82	1636.33
308.04	1796.07
308.25	1615.85
308.46	1730.53
308.68	1808.36
308.89	1689.57
309.10	1765.35
309.32	1748.97
309.53	1693.67
309.74	1699.81
309.96	1689.57
310.17	1820.64
310.39	1718.25
310.60	1722.34
310.81	1724.39
311.03	1660.90
311.24	1730.53
311.45	1695.72
311.67	1810.40
311.88	1699.81
312.09	1667.05
312.31	1685.48
312.52	1724.39
312.73	1630.18
312.95	1619.94
313.16	1714.15
313.37	1789.92
313.59	1701.86
313.80	1726.44
314.01	1845.22
314.23	1710.05
314.44	1746.92
314.65	1648.61
314.87	1693.67
315.08	1689.57
315.29	1650.66
315.51	1642.47
315.72	1640.42
315.93	1839.08
316.15	1757.16
316.36	1681.38
316.57	1701.86
316.79	1767.40
317.00	1736.68
317.21	1761.25
317.43	1728.49
317.64	1712.10
317.85	1632.23
318.07	1634.28
318.28	1742.82
318.49	1783.78
318.70	1939.43
318.92	1755.11
319.13	1816.55
319.34	1810.40
319.56	1765.35
319.77	1753.06
319.98	1773.54
320.20	1841.12
320.41	1724.39
320.62	1777.64
320.83	1677.29
321.05	1820.64
321.26	1722.34
321.47	1748.97
321.69	1757.16
321.90	1595.37
322.11	1634.28
322.32	1699.81
322.54	1763.30
322.75	1722.34
322.96	1828.84
323.18	1609.70
323.39	1611.75
323.60	1724.39
323.81	1777.64
324.03	1654.76
324.24	1687.53
324.45	1730.53
324.66	1726.44
324.88	1755.11
325.09	1787.88
325.30	1701.86
325.52	1763.30
325.73	1669.09
325.94	1697.77
326.15	1599.46
326.37	1642.47
326.58	1751.01
326.79	1810.40
327.00	1718.25
327.22	1738.73
327.43	1726.44
327.64	1583.08
327.85	1726.44
328.07	1697.77
328.28	1800.16
328.49	1689.57
328.70	1765.35
328.92	1755.11
329.13	1726.44
329.34	1804.26
329.55	1857.51
329.76	1794.02
329.98	1691.62
330.19	1753.06
330.40	1767.40
330.61	1658.85
330.83	1759.21
331.04	1630.18
331.25	1744.87
331.46	1701.86
331.68	1617.90
331.89	1771.49
332.10	1693.67
332.31	1693.67
332.52	1720.29
332.74	1789.92
332.95	1685.48
333.16	1673.19
333.37	1794.02
333.58	1638.38
333.80	1814.50
334.01	1611.75
334.22	1720.29
334.43	1646.57
334.64	1677.29
334.86	1617.90
335.07	1630.18
335.28	1673.19
335.49	1685.48
335.70	1796.07
335.92	1681.38
336.13	1830.88
336.34	1720.29
336.55	1710.05
336.76	1767.40
336.98	1560.55
337.19	1769.44
337.40	1771.49
337.61	1849.32
337.82	1724.39
338.04	1759.21
338.25	1654.76
338.46	1732.58
338.67	1648.61
338.88	1687.53
339.09	1624.04
339.31	1683.43
339.52	1546.22
339.73	1621.99
339.94	1730.53
340.15	1812.45
340.36	1726.44
340.58	1681.38
340.79	1658.85
341.00	1732.58
341.21	1744.87
341.42	1837.03
341.63	1740.77
341.85	1783.78
342.06	1681.38
342.27	1683.43
342.48	1734.63
342.69	1607.66
342.90	1695.72
343.12	1773.54
343.33	1761.25
343.54	1726.44
343.75	1742.82
343.96	1736.68
344.17	1675.24
344.38	1730.53
344.60	1746.92
344.81	1617.90
345.02	1714.15
345.23	1689.57
345.44	1787.88
345.65	1767.40
345.86	1648.61
346.07	1755.11
346.29	1638.38
346.50	1732.58
346.71	1718.25
346.92	1730.53
347.13	1861.60
347.34	1677.29
347.55	1640.42
347.76	1718.25
347.98	1597.42
348.19	1705.96
348.40	1748.97
348.61	1765.35
348.82	1880.04
349.03	1726.44
349.24	1689.57
349.45	1843.17
349.66	1603.56
349.88	1734.63
350.09	1665.00
350.30	1695.72
350.51	1773.54
350.72	1710.05
350.93	1755.11
351.14	1679.33
351.35	1722.34
351.56	1759.21
351.77	1734.63
351.99	1720.29
352.20	1841.12
352.41	1834.98
352.62	1587.18
352.83	1683.43
353.04	1714.15
353.25	1675.24
353.46	1798.12
353.67	1755.11
353.88	1619.94
354.09	1701.86
354.30	1693.67
354.52	1708.01
354.73	1740.77
354.94	1699.81
355.15	1636.33
355.36	1791.97
355.57	1683.43
355.78	1757.16
355.99	1640.42
356.20	1671.14
356.41	1732.58
356.62	1716.20
356.83	1652.71
357.04	1796.07
357.25	1634.28
357.46	1710.05
357.68	1630.18
357.89	1626.09
358.10	1757.16
358.31	1636.33
358.52	1722.34
358.73	1607.66
358.94	1693.67
359.15	1658.85
359.36	1802.21
359.57	1732.58
359.78	1718.25
359.99	1761.25
360.20	1554.41
360.41	1734.63
360.62	1785.83
360.83	1714.15
361.04	1656.81
361.25	1751.01
361.46	1757.16
361.67	1726.44
361.88	1763.30
362.09	1810.40
362.30	1703.91
362.51	1687.53
362.72	1703.91
362.93	1769.44
363.14	1724.39
363.35	1759.21
363.56	1728.49
363.78	1865.70
363.99	1746.92
364.20	1640.42
364.41	1660.90
364.62	1834.98
364.83	1757.16
365.04	1708.01
365.25	1746.92
365.46	1785.83
365.67	1583.08
365.88	1570.79
366.09	1673.19
366.30	1644.52
366.51	1675.24
366.72	1644.52
366.93	1705.96
367.14	1748.97
367.35	1783.78
367.56	1742.82
367.77	1785.83
367.98	1677.29
368.18	1800.16
368.39	1814.50
368.60	1656.81
368.81	1804.26
369.02	1787.88
369.23	1671.14
369.44	1642.47
369.65	1578.98
369.86	1687.53
370.07	1796.07
370.28	1665.00
370.49	1701.86
370.70	1699.81
370.91	1677.29
371.12	1646.57
371.33	1773.54
371.54	1691.62
371.75	1828.84
371.96	1550.31
372.17	1736.68
372.38	1701.86
372.59	1751.01
372.80	1714.15
373.01	1636.33
373.22	1714.15
373.43	1624.04
373.64	1624.04
373.85	1806.31
374.06	1808.36
374.26	1855.46
374.47	1708.01
374.68	1814.50
374.89	1665.00
375.10	1656.81
375.31	1826.79
375.52	1746.92
375.73	1667.05
375.94	1673.19
376.15	1812.45
376.36	1660.90
376.57	1705.96
376.78	1687.53
376.99	1669.09
377.20	1730.53
377.40	1708.01
377.61	1740.77
377.82	1693.67
378.03	1738.73
378.24	1767.40
378.45	1716.20
378.66	1748.97
378.87	1624.04
379.08	1648.61
379.29	1658.85
379.50	1826.79
379.71	1685.48
379.91	1732.58
380.12	1720.29
380.33	1757.16
380.54	1675.24
380.75	1654.76
380.96	1714.15
381.17	1798.12
381.38	1714.15
381.59	1765.35
381.80	1794.02
382.00	1908.71
382.21	1796.07
382.42	1884.13
382.63	1933.28
382.84	1689.57
383.05	1771.49
383.26	1851.36
383.47	1736.68
383.68	1746.92
383.88	1802.21
384.09	1710.05
384.30	1900.52
384.51	1759.21
384.72	1662.95
384.93	1642.47
385.14	1734.63
385.35	1763.30
385.55	1738.73
385.76	1806.31
385.97	1705.96
386.18	1634.28
386.39	1740.77
386.60	1716.20
386.81	1667.05
387.02	1671.14
387.22	1751.01
387.43	1804.26
387.64	1806.31
387.85	1955.81
388.06	2211.81
388.27	4304.83
388.48	6809.50
388.68	8183.68
388.89	9803.63
389.10	9875.31
389.31	8677.24
389.52	7573.39
389.73	6723.48
389.93	6326.18
390.14	5955.49
390.35	5212.08
390.56	4442.04
390.77	3868.61
390.98	3110.86
391.18	2482.14
391.39	2172.89
391.60	1837.03
391.81	1828.84
392.02	1695.72
392.23	1902.56
392.43	1736.68
392.64	1869.80
392.85	1673.19
393.06	1841.12
393.27	1718.25
393.47	1732.58
393.68	1753.06
393.89	1726.44
394.10	1734.63
394.31	1677.29
394.52	1691.62
394.72	1685.48
394.93	1837.03
395.14	1716.20
395.35	1789.92
395.56	1691.62
395.76	1789.92
395.97	1796.07
396.18	1882.08
396.39	1806.31
396.60	2050.02
396.80	1865.70
397.01	1880.04
397.22	1751.01
397.43	1890.28
397.64	1738.73
397.84	1873.89
398.05	1906.66
398.26	1742.82
398.47	1736.68
398.67	1820.64
398.88	1775.59
399.09	1789.92
399.30	1716.20
399.51	1701.86
399.71	1724.39
399.92	1724.39
400.13	1767.40
400.34	1660.90
400.54	1671.14
400.75	1738.73
400.96	1748.97
401.17	1773.54
401.37	1681.38
401.58	1701.86
401.79	1695.72
402.00	1841.12
402.21	2064.35
402.41	1882.08
402.62	2043.87
402.83	2017.25
403.04	1982.43
403.24	2058.21
403.45	1820.64
403.66	1941.47
403.87	1800.16
404.07	1888.23
404.28	1894.37
404.49	1882.08
404.70	1787.88
404.90	1771.49
405.11	1738.73
405.32	1724.39
405.52	1646.57
405.73	1701.86
405.94	1687.53
406.15	1705.96
406.35	1808.36
406.56	1783.78
406.77	1767.40
406.98	1751.01
407.18	1665.00
407.39	1757.16
407.60	1759.21
407.80	1738.73
408.01	1611.75
408.22	1773.54
408.43	1683.43
408.63	1718.25
408.84	1742.82
409.05	1744.87
409.25	1644.52
409.46	1681.38
409.67	1675.24
409.88	1710.05
410.08	1746.92
410.29	1662.95
410.50	1804.26
410.70	1742.82
410.91	1675.24
411.12	1724.39
411.32	1716.20
411.53	1677.29
411.74	1816.55
411.95	1802.21
412.15	1783.78
412.36	1794.02
412.57	1783.78
412.77	1773.54
412.98	1718.25
413.19	1693.67
413.39	1761.25
413.60	1748.97
413.81	1834.98
414.01	1669.09
414.22	1751.01
414.43	1794.02
414.63	1689.57
414.84	1800.16
415.05	1642.47
415.25	1593.32
415.46	1716.20
415.67	1701.86
415.87	1728.49
416.08	1742.82
416.29	1726.44
416.49	1769.44
416.70	1769.44
416.91	1691.62
417.11	1697.77
417.32	1787.88
417.53	1783.78
417.73	1701.86
417.94	1742.82
418.15	1765.35
418.35	1804.26
418.56	1705.96
418.77	1841.12
418.97	1738.73
419.18	1646.57
419.38	1673.19
419.59	1689.57
419.80	1767.40
420.00	1611.75
420.21	1703.91
420.42	1751.01
420.62	1789.92
420.83	1703.91
421.04	1679.33
421.24	1757.16
421.45	1753.06
421.65	1779.68
421.86	1613.80
422.07	1697.77
422.27	1746.92
422.48	1746.92
422.69	1667.05
422.89	1665.00
423.10	1681.38
423.30	1697.77
423.51	1714.15
423.72	1728.49
423.92	1773.54
424.13	1619.94
424.33	1757.16
424.54	1746.92
424.75	1761.25
424.95	1834.98
425.16	1830.88
425.36	1662.95
425.57	1751.01
425.78	1773.54
425.98	1716.20
426.19	1755.11
426.39	1652.71
426.60	1789.92
426.81	1783.78
427.01	1673.19
427.22	1591.27
427.42	1644.52
427.63	1726.44
427.83	1751.01
428.04	1894.37
428.25	1839.08
428.45	1751.01
428.66	1730.53
428.86	1693.67
429.07	1691.62
429.28	1798.12
429.48	1656.81
429.69	1691.62
429.89	1738.73
430.10	1634.28
430.30	1740.77
430.51	1796.07
430.71	1712.10
430.92	1650.66
431.13	1722.34
431.33	1767.40
431.54	1732.58
431.74	1804.26
431.95	1785.83
432.15	1617.90
432.36	1777.64
432.56	1753.06
432.77	1828.84
432.98	1779.68
433.18	1732.58
433.39	1699.81
433.59	1738.73
433.80	1902.56
434.00	1843.17
434.21	1665.00
434.41	1689.57
434.62	1873.89
434.82	1665.00
435.03	1642.47
435.23	1791.97
435.44	1560.55
435.64	1708.01
435.85	1632.23
436.06	1763.30
436.26	1718.25
436.47	1720.29
436.67	1714.15
436.88	1757.16
437.08	1759.21
437.29	1791.97
437.49	1734.63
437.70	1755.11
437.90	1753.06
438.11	1910.75
438.31	1810.40
438.52	1845.22
438.72	1855.46
438.93	1910.75
439.13	1847.27
439.34	1810.40
439.54	1751.01
439.75	1832.93
439.95	1837.03
440.16	1708.01
440.36	1695.72
440.57	1830.88
440.77	1787.88
440.98	1638.38
441.18	1781.73
441.39	1732.58
441.59	1703.91
441.80	1923.04
442.00	1699.81
442.21	1861.60
442.41	1714.15
442.62	1771.49
442.82	1826.79
443.02	1771.49
443.23	1755.11
443.43	1619.94
443.64	1832.93
443.84	1550.31
444.05	1789.92
444.25	1732.58
444.46	1607.66
444.66	1665.00
444.87	1843.17
445.07	1677.29
445.28	1681.38
445.48	1802.21
445.69	1744.87
445.89	1923.04
446.09	1796.07
446.30	2041.82
446.50	2725.85
446.71	3649.48
446.91	4335.55
447.12	4765.62
447.32	4759.48
447.53	4259.78
447.73	3962.82
447.93	3653.58
448.14	3317.71
448.34	3176.40
448.55	2951.12
448.75	2877.40
448.96	2752.47
449.16	2410.46
449.36	2183.13
449.57	1994.72
449.77	1990.63
449.98	1855.46
450.18	1837.03
450.39	1781.73
450.59	1718.25
450.79	1779.68
451.00	1640.42
451.20	1826.79
451.41	1724.39
451.61	1683.43
451.81	1669.09
452.02	1742.82
452.22	1679.33
452.43	1734.63
452.63	1712.10
452.84	1755.11
453.04	1642.47
453.24	1828.84
453.45	1675.24
453.65	1773.54
453.86	1746.92
454.06	1722.34
454.26	1746.92
454.47	1646.57
454.67	1859.56
454.87	1724.39
455.08	1740.77
455.28	1814.50
455.49	1775.59
455.69	1755.11
455.89	1853.41
456.10	1871.84
456.30	1660.90
456.51	1826.79
456.71	1767.40
456.91	1781.73
457.12	1761.25
457.32	1724.39
457.52	1630.18
457.73	1830.88
457.93	1722.34
458.14	1771.49
458.34	1646.57
458.54	1685.48
458.75	1714.15
458.95	1804.26
459.15	1820.64
459.36	1783.78
459.56	1796.07
459.76	1918.95
459.97	1697.77
460.17	1738.73
460.37	1822.69
460.58	1777.64
460.78	1771.49
460.99	1716.20
461.19	1779.68
461.39	1771.49
461.60	1703.91
461.80	1832.93
462.00	1718.25
462.21	1775.59
462.41	1621.99
462.61	1652.71
462.82	1687.53
463.02	1705.96
463.22	1714.15
463.43	1806.31
463.63	1796.07
463.83	1800.16
464.04	1730.53
464.24	1730.53
464.44	1642.47
464.64	1781.73
464.85	1767.40
465.05	1773.54
465.25	1701.86
465.46	1746.92
465.66	1728.49
465.86	1763.30
466.07	1779.68
466.27	1681.38
466.47	1634.28
466.68	1712.10
466.88	1855.46
467.08	1767.40
467.29	1796.07
467.49	1787.88
467.69	1736.68
467.89	1691.62
468.10	1728.49
468.30	1697.77
468.50	1732.58
468.71	1843.17
468.91	1589.22
469.11	1859.56
469.31	1724.39
469.52	1650.66
469.72	1753.06
469.92	1800.16
470.13	1708.01
470.33	1746.92
470.53	1834.98
470.73	2086.88
470.94	2199.52
471.14	2392.03
471.34	2533.34
471.54	2486.23
471.75	2174.94
471.95	2146.27
472.15	2074.59
472.36	2105.31
472.56	2070.50
472.76	2136.03
472.96	1947.62
473.17	1941.47
473.37	1927.14
473.57	1841.12
473.77	1851.36
473.98	1779.68
474.18	1693.67
474.38	1914.85
474.58	1732.58
474.79	1710.05
474.99	1751.01
475.19	1781.73
475.39	1628.14
475.60	1736.68
475.80	1730.53
476.00	1826.79
476.20	1755.11
476.41	1769.44
476.61	1828.84
476.81	1800.16
477.01	1652.71
477.21	1912.80
477.42	1828.84
477.62	1687.53
477.82	1755.11
478.02	1730.53
478.23	1685.48
478.43	1693.67
478.63	1732.58
478.83	1742.82
479.03	1732.58
479.24	1798.12
479.44	1783.78
479.64	1638.38
479.84	1617.90
480.04	1683.43
480.25	1837.03
480.45	1730.53
480.65	1724.39
480.85	1748.97
481.06	1746.92
481.26	1693.67
481.46	1763.30
481.66	1759.21
481.86	1732.58
482.06	1796.07
482.27	1736.68
482.47	1759.21
482.67	1767.40
482.87	1746.92
483.07	1818.60
483.28	1665.00
483.48	1642.47
483.68	1726.44
483.88	1638.38
484.08	1685.48
484.29	1632.23
484.49	1726.44
484.69	1732.58
484.89	1824.74
485.09	1843.17
485.29	1828.84
485.50	1726.44
485.70	1679.33
485.90	1783.78
486.10	1755.11
486.30	1730.53
486.50	1726.44
486.71	1701.86
486.91	1783.78
487.11	1724.39
487.31	1632.23
487.51	1763.30
487.71	1636.33
487.91	1640.42
488.12	1697.77
488.32	1599.46
488.52	1712.10
488.72	1667.05
488.92	1687.53
489.12	1769.44
489.32	1853.41
489.53	1755.11
489.73	1669.09
489.93	1837.03
490.13	1705.96
490.33	1632.23
490.53	1718.25
490.73	1830.88
490.94	1642.47
491.14	1767.40
491.34	1873.89
491.54	2158.56
491.74	2582.49
491.94	2957.27
492.14	3057.62
492.34	2979.79
492.54	2756.57
492.75	2578.39
492.95	2459.61
493.15	2377.69
493.35	2230.24
493.55	2201.57
493.75	2129.89
493.95	2060.26
494.15	2099.17
494.35	1920.99
494.56	1820.64
494.76	1808.36
494.96	1738.73
495.16	1746.92
495.36	1656.81
495.56	1791.97
495.76	1740.77
495.96	1751.01
496.16	1640.42
496.36	1961.95
496.56	1689.57
496.77	1699.81
496.97	1695.72
497.17	1761.25
497.37	1685.48
497.57	1720.29
497.77	1683.43
497.97	1665.00
498.17	1748.97
498.37	1673.19
498.57	1804.26
498.77	1705.96
498.97	1826.79
499.17	1837.03
499.38	1687.53
499.58	1773.54
499.78	1861.60
499.98	1746.92
500.18	1679.33
500.38	1769.44
500.58	1929.19
500.78	2562.01
500.98	4566.97
501.18	5943.21
501.38	6975.38
501.58	7128.98
501.78	6786.97
501.98	5558.19
502.18	4962.23
502.38	4487.10
502.58	4118.47
502.78	3747.78
502.98	3600.33
503.18	3409.87
503.38	3286.99
503.59	2836.44
503.79	2717.65
503.99	2478.04
504.19	2328.54
504.39	2242.53
504.59	2199.52
504.79	2170.85
504.99	2021.35
505.19	1886.18
505.39	1896.42
505.59	1966.05
505.79	1923.04
505.99	1882.08
506.19	1751.01
506.39	1851.36
506.59	1761.25
506.79	1787.88
506.99	1806.31
507.19	1828.84
507.39	1771.49
507.59	1689.57
507.79	1642.47
507.99	1646.57
508.19	1744.87
508.39	1722.34
508.59	1693.67
508.79	1732.58
508.99	1841.12
509.19	1646.57
509.39	1773.54
509.59	1755.11
509.79	1710.05
509.99	1746.92
510.19	1736.68
510.39	1794.02
510.59	1773.54
510.79	1669.09
510.99	1710.05
511.19	1730.53
511.39	1871.84
511.59	1753.06
511.79	1802.21
511.99	1748.97
512.19	1837.03
512.38	1736.68
512.58	1746.92
512.78	1783.78
512.98	1787.88
513.18	1796.07
513.38	1654.76
513.58	1798.12
513.78	1744.87
513.98	1726.44
514.18	1730.53
514.38	1765.35
514.58	1796.07
514.78	1693.67
514.98	1761.25
515.18	1791.97
515.38	1697.77
515.58	1908.71
515.78	1683.43
515.98	1767.40
516.18	1796.07
516.38	1785.83
516.57	1722.34
516.77	1652.71
516.97	1769.44
517.17	1691.62
517.37	1642.47
517.57	1802.21
517.77	1728.49
517.97	1697.77
518.17	1779.68
518.37	1695.72
518.57	1814.50
518.77	1736.68
518.97	1710.05
519.16	1691.62
519.36	1806.31
519.56	1728.49
519.76	1746.92
519.96	1712.10
520.16	1781.73
520.36	1695.72
520.56	1857.51
520.76	1722.34
520.96	1703.91
521.16	1710.05
521.35	1861.60
521.55	1920.99
521.75	1714.15
521.95	1632.23
522.15	1685.48
522.35	1644.52
522.55	1734.63
522.75	1820.64
522.95	1773.54
523.14	1669.09
523.34	1761.25
523.54	1736.68
523.74	1845.22
523.94	1763.30
524.14	1624.04
524.34	1808.36
524.54	1828.84
524.73	1695.72
524.93	1773.54
525.13	1763.30
525.33	1640.42
525.53	1869.80
525.73	1830.88
525.93	1734.63
526.13	1714.15
526.32	1732.58
526.52	1828.84
526.72	1814.50
526.92	1726.44
527.12	1673.19
527.32	1662.95
527.52	1863.65
527.71	1798.12
527.91	1740.77
528.11	1695.72
528.31	1730.53
528.51	1714.15
528.71	1732.58
528.90	1734.63
529.10	1746.92
529.30	1800.16
529.50	1630.18
529.70	1722.34
529.90	1744.87
530.09	1779.68
530.29	1732.58
530.49	1708.01
530.69	1927.14
530.89	1759.21
531.09	1804.26
531.28	1708.01
531.48	1808.36
531.68	1716.20
531.88	1751.01
532.08	1832.93
532.28	1675.24
532.47	1810.40
532.67	1765.35
532.87	1753.06
533.07	1712.10
533.27	1757.16
533.46	1757.16
533.66	1734.63
533.86	1671.14
534.06	1742.82
534.26	1712.10
534.45	1755.11
534.65	1880.04
534.85	1718.25
535.05	1701.86
535.25	1742.82
535.44	1652.71
535.64	1794.02
535.84	1699.81
536.04	1718.25
536.24	1714.15
536.43	1724.39
536.63	1742.82
536.83	1710.05
537.03	1761.25
537.22	1640.42
537.42	1667.05
537.62	1744.87
537.82	1732.58
538.02	1769.44
538.21	1791.97
538.41	1937.38
538.61	1779.68
538.81	1710.05
539.00	1822.69
539.20	1648.61
539.40	1634.28
539.60	1841.12
539.79	1810.40
539.99	1726.44
540.19	1761.25
540.39	1695.72
540.58	1785.83
540.78	1783.78
540.98	1800.16
541.18	1771.49
541.37	1804.26
541.57	1691.62
541.77	1751.01
541.97	1693.67
542.16	1712.10
542.36	1697.77
542.56	1783.78
542.76	1820.64
542.95	1736.68
543.15	1765.35
543.35	1748.97
543.54	1712.10
543.74	1714.15
543.94	1771.49
544.14	1722.34
544.33	1744.87
544.53	1746.92
544.73	1785.83
544.93	1783.78
545.12	1695.72
545.32	1755.11
545.52	1751.01
545.71	1669.09
545.91	1681.38
546.11	1730.53
546.30	1669.09
546.50	1732.58
546.70	1794.02
546.90	1708.01
547.09	1673.19
547.29	1722.34
547.49	1800.16
547.68	1759.21
547.88	1701.86
548.08	1787.88
548.27	2183.13
548.47	1771.49
548.67	1691.62
548.87	1798.12
549.06	1767.40
549.26	1656.81
549.46	1775.59
549.65	1730.53
549.85	1777.64
550.05	1785.83
550.24	1712.10
550.44	1742.82
550.64	1810.40
550.83	1732.58
551.03	1791.97
551.23	1798.12
551.42	1695.72
551.62	1798.12
551.82	1757.16
552.01	1738.73
552.21	1783.78
552.41	1746.92
552.60	1812.45
552.80	1773.54
553.00	1718.25
553.19	1732.58
553.39	1869.80
553.59	1708.01
553.78	1773.54
553.98	1839.08
554.17	1732.58
554.37	1652.71
554.57	1779.68
554.76	1720.29
554.96	1652.71
555.16	1789.92
555.35	1714.15
555.55	1796.07
555.75	1757.16
555.94	1767.40
556.14	1699.81
556.33	1798.12
556.53	1769.44
556.73	1703.91
556.92	1841.12
557.12	1845.22
557.32	1834.98
557.51	1877.99
557.71	1763.30
557.90	1828.84
558.10	1832.93
558.30	1720.29
558.49	1740.77
558.69	1642.47
558.88	1716.20
559.08	1808.36
559.28	1699.81
559.47	1677.29
559.67	1683.43
559.86	1898.47
560.06	1804.26
560.26	1775.59
560.45	1775.59
560.65	1771.49
560.84	1812.45
561.04	1781.73
561.24	1789.92
561.43	1728.49
561.63	1863.65
561.82	1802.21
562.02	1748.97
562.22	1716.20
562.41	1746.92
562.61	1705.96
562.80	1769.44
563.00	1886.18
563.19	1769.44
563.39	1783.78
563.59	1769.44
563.78	1662.95
563.98	1697.77
564.17	1660.90
564.37	1617.90
564.56	1732.58
564.76	1705.96
564.96	1830.88
565.15	1773.54
565.35	1783.78
565.54	1832.93
565.74	1847.27
565.93	1783.78
566.13	1742.82
566.32	1787.88
566.52	1785.83
566.71	1748.97
566.91	1771.49
567.11	1748.97
567.30	1730.53
567.50	1769.44
567.69	1722.34
567.89	1814.50
568.08	1624.04
568.28	1703.91
568.47	1753.06
568.67	1763.30
568.86	1689.57
569.06	1820.64
569.25	1740.77
569.45	1662.95
569.64	1748.97
569.84	1695.72
570.04	1751.01
570.23	1722.34
570.43	1712.10
570.62	1736.68
570.82	1861.60
571.01	1705.96
571.21	1800.16
571.40	1755.11
571.60	1730.53
571.79	1773.54
571.99	1730.53
572.18	1718.25
572.38	1712.10
572.57	1751.01
572.77	1794.02
572.96	1816.55
573.16	1769.44
573.35	1722.34
573.55	1880.04
573.74	1757.16
573.94	1800.16
574.13	1748.97
574.33	1785.83
574.52	1781.73
574.71	1718.25
574.91	1734.63
575.10	1660.90
575.30	1755.11
575.49	1710.05
575.69	1734.63
575.88	1759.21
576.08	1697.77
576.27	1771.49
576.47	1728.49
576.66	1828.84
576.86	1851.36
577.05	1800.16
577.25	1748.97
577.44	1902.56
577.64	1767.40
577.83	1775.59
578.02	1777.64
578.22	1779.68
578.41	1871.84
578.61	1714.15
578.80	1751.01
579.00	1804.26
579.19	1755.11
579.39	1724.39
579.58	1945.57
579.77	1794.02
579.97	1882.08
580.16	1828.84
580.36	1832.93
580.55	1796.07
580.75	1818.60
580.94	1763.30
581.13	1908.71
581.33	1882.08
581.52	1734.63
581.72	1877.99
581.91	1826.79
582.11	1689.57
582.30	1824.74
582.49	1814.50
582.69	1890.28
582.88	1773.54
583.08	1861.60
583.27	1800.16
583.47	1816.55
583.66	1734.63
583.85	1742.82
584.05	1755.11
584.24	1712.10
584.44	1738.73
584.63	1759.21
584.82	1929.19
585.02	1841.12
585.21	1783.78
585.41	1834.98
585.60	1787.88
585.79	1935.33
585.99	1925.09
586.18	1859.56
586.37	2129.89
586.57	3418.06
586.76	9865.07
586.96	24264.33
587.15	34430.45
587.34	40752.53
587.54	41991.55
587.73	36541.91
587.93	26447.47
588.12	21647.03
588.31	18157.29
588.51	16482.05
588.70	15071.00
588.89	14208.81
589.09	12877.63
589.28	11032.41
589.47	9434.99
589.67	7989.13
589.86	6360.99
590.06	4970.42
590.25	3874.76
590.44	3125.20
590.64	2529.24
590.83	2269.15
591.02	2168.80
591.22	2070.50
591.41	1927.14
591.60	1920.99
591.80	1918.95
591.99	1769.44
592.18	1787.88
592.38	1886.18
592.57	1763.30
592.76	1683.43
592.96	1839.08
593.15	1783.78
593.34	1830.88
593.54	1701.86
593.73	1783.78
593.92	1771.49
594.12	1804.26
594.31	1808.36
594.50	1822.69
594.70	1763.30
594.89	1912.80
595.08	1683.43
595.28	1808.36
595.47	1918.95
595.66	1826.79
595.86	1714.15
596.05	1699.81
596.24	1687.53
596.43	1824.74
596.63	1693.67
596.82	1708.01
597.01	1773.54
597.21	1849.32
597.40	1796.07
597.59	1785.83
597.79	1708.01
597.98	1812.45
598.17	1738.73
598.36	1775.59
598.56	1781.73
598.75	1667.05
598.94	1814.50
599.14	1757.16
599.33	1720.29
599.52	1826.79
599.71	1689.57
599.91	1779.68
600.10	1865.70
600.29	1740.77
600.48	1757.16
600.68	1796.07
600.87	1751.01
601.06	1697.77
601.26	1744.87
601.45	1775.59
601.64	1812.45
601.83	1765.35
602.03	1693.67
602.22	1656.81
602.41	1814.50
602.60	1861.60
602.80	1804.26
602.99	1787.88
603.18	1712.10
603.37	1806.31
603.57	1767.40
603.76	1791.97
603.95	1814.50
604.14	1761.25
604.34	1697.77
604.53	1742.82
604.72	1734.63
604.91	1863.65
605.10	1804.26
605.30	1654.76
605.49	1824.74
605.68	1804.26
605.87	1779.68
606.07	1732.58
606.26	1822.69
606.45	1873.89
606.64	1652.71
606.84	1738.73
607.03	1703.91
607.22	1748.97
607.41	1775.59
607.60	1759.21
607.80	1693.67
607.99	1683.43
608.18	1718.25
608.37	1804.26
608.56	1644.52
608.76	1865.70
608.95	1900.52
609.14	1705.96
609.33	1837.03
609.52	1742.82
609.72	1685.48
609.91	1806.31
610.10	1742.82
610.29	1796.07
610.48	1736.68
610.68	1736.68
610.87	1724.39
611.06	1744.87
611.25	1796.07
611.44	1820.64
611.63	1687.53
611.83	1765.35
612.02	1712.10
612.21	1796.07
612.40	1703.91
612.59	1681.38
612.79	1634.28
612.98	1757.16
613.17	1802.21
613.36	1744.87
613.55	1783.78
613.74	1654.76
613.93	1740.77
614.13	1738.73
614.32	1794.02
614.51	1744.87
614.70	1710.05
614.89	1619.94
615.08	1794.02
615.28	2060.26
615.47	1632.23
615.66	1771.49
615.85	1728.49
616.04	1886.18
616.23	1726.44
616.42	1712.10
616.62	1759.21
616.81	1791.97
617.00	1681.38
617.19	1767.40
617.38	1611.75
617.57	1693.67
617.76	1744.87
617.95	1796.07
618.15	1806.31
618.34	1824.74
618.53	1578.98
618.72	1830.88
618.91	1820.64
619.10	1777.64
619.29	1662.95
619.48	1730.53
619.68	1687.53
619.87	1699.81
620.06	1667.05
620.25	1751.01
620.44	1744.87
620.63	1771.49
620.82	1800.16
621.01	1767.40
621.20	1669.09
621.39	1767.40
621.59	1716.20
621.78	1689.57
621.97	1712.10
622.16	1765.35
622.35	1697.77
622.54	1718.25
622.73	1851.36
622.92	1574.89
623.11	1783.78
623.30	1693.67
623.49	1773.54
623.68	1738.73
623.88	1843.17
624.07	1701.86
624.26	1710.05
624.45	1660.90
624.64	1699.81
624.83	1763.30
625.02	1740.77
625.21	1683.43
625.40	1751.01
625.59	1851.36
625.78	1673.19
625.97	1855.46
626.16	1720.29
626.35	1800.16
626.54	1779.68
626.74	1877.99
626.93	1671.14
627.12	1701.86
627.31	1804.26
627.50	1757.16
627.69	1818.60
627.88	1691.62
628.07	1775.59
628.26	1681.38
628.45	1734.63
628.64	1640.42
628.83	1687.53
629.02	1626.09
629.21	1701.86
629.40	1763.30
629.59	1693.67
629.78	1677.29
629.97	1724.39
630.16	1755.11
630.35	1673.19
630.54	1675.24
630.73	1632.23
630.92	1716.20
631.11	1611.75
631.30	1781.73
631.49	1740.77
631.68	1697.77
631.87	1632.23
632.06	1693.67
632.25	1775.59
632.44	1689.57
632.63	1757.16
632.82	1820.64
633.01	1660.90
633.20	1722.34
633.39	1742.82
633.58	1601.51
633.77	1658.85
633.96	1691.62
634.15	1791.97
634.34	1796.07
634.53	1759.21
634.72	1703.91
634.91	1693.67
635.10	1781.73
635.29	1759.21
635.48	1748.97
635.67	1671.14
635.86	1701.86
636.05	1787.88
636.24	1751.01
636.43	1777.64
636.62	1759.21
636.81	1562.60
637.00	1677.29
637.19	1779.68
637.38	1767.40
637.57	1716.20
637.76	1746.92
637.95	1728.49
638.14	1757.16
638.33	1697.77
638.52	1781.73
638.71	1656.81
638.89	1681.38
639.08	1863.65
639.27	1755.11
639.46	1742.82
639.65	1753.06
639.84	1755.11
640.03	1767.40
640.22	1712.10
640.41	1822.69
640.60	1705.96
640.79	1712.10
640.98	1671.14
641.17	1761.25
641.36	1716.20
641.55	1785.83
641.74	1648.61
641.92	1744.87
642.11	1712.10
642.30	1742.82
642.49	1683.43
642.68	1701.86
642.87	1767.40
643.06	1804.26
643.25	1667.05
643.44	1751.01
643.63	1720.29
643.82	1785.83
644.00	1673.19
644.19	1734.63
644.38	1607.66
644.57	1730.53
644.76	1765.35
644.95	1722.34
645.14	1773.54
645.33	1689.57
645.52	1759.21
645.71	1763.30
645.89	1671.14
646.08	1720.29
646.27	1697.77
646.46	1853.41
646.65	1654.76
646.84	1714.15
647.03	1697.77
647.22	1777.64
647.40	1726.44
647.59	1744.87
647.78	1642.47
647.97	1624.04
648.16	1669.09
648.35	1771.49
648.54	1763.30
648.73	1730.53
648.91	1724.39
649.10	1724.39
649.29	1701.86
649.48	1656.81
649.67	1740.77
649.86	1628.14
650.05	1597.42
650.23	1705.96
650.42	1615.85
650.61	1730.53
650.80	1767.40
650.99	1839.08
651.18	1726.44
651.36	1816.55
651.55	1675.24
651.74	1800.16
651.93	1681.38
652.12	1697.77
652.31	1650.66
652.49	1691.62
652.68	1734.63
652.87	1771.49
653.06	1812.45
653.25	1804.26
653.44	1701.86
653.62	1828.84
653.81	1853.41
654.00	1798.12
654.19	1699.81
654.38	1845.22
654.56	1804.26
654.75	1656.81
654.94	1763.30
655.13	1779.68
655.32	1728.49
655.51	1771.49
655.69	1699.81
655.88	1779.68
656.07	1615.85
656.26	1771.49
656.45	1718.25
656.63	1804.26
656.82	1718.25
657.01	1724.39
657.20	1738.73
657.38	1794.02
657.57	1742.82
657.76	1652.71
657.95	1738.73
658.14	1667.05
658.32	1669.09
658.51	1710.05
658.70	1759.21
658.89	1697.77
659.08	1638.38
659.26	1783.78
659.45	1699.81
659.64	1779.68
659.83	1656.81
660.01	1968.10
660.20	1806.31
660.39	1808.36
660.58	1681.38
660.76	1714.15
660.95	1693.67
661.14	1759.21
661.33	1673.19
661.51	1779.68
661.70	1660.90
661.89	1771.49
662.08	1710.05
662.26	1665.00
662.45	1687.53
662.64	1791.97
662.83	1787.88
663.01	1665.00
663.20	1763.30
663.39	1896.42
663.58	1691.62
663.76	1742.82
663.95	1861.60
664.14	1695.72
664.32	1665.00
664.51	1638.38
664.70	1683.43
664.89	1775.59
665.07	1689.57
665.26	1775.59
665.45	1658.85
665.64	1726.44
665.82	1681.38
666.01	1775.59
666.20	1683.43
666.38	1814.50
666.57	1755.11
666.76	2267.10
666.95	4587.45
667.13	10528.61
667.32	15599.38
667.51	18142.96
667.69	19035.87
667.88	17819.38
668.07	12416.83
668.25	9715.56
668.44	8099.72
668.63	7337.87
668.81	7055.25
669.00	6383.52
669.19	5799.85
669.38	4999.09
669.56	4681.66
669.75	3997.64
669.94	3436.49
670.12	2901.97
670.31	2539.48
670.50	2193.37
670.68	2099.17
670.87	1925.09
671.06	1722.34
671.24	1761.25
671.43	1783.78
671.62	1732.58
671.80	1732.58
671.99	1714.15
672.18	1796.07
672.36	1767.40
672.55	1746.92
672.74	1722.34
672.92	1757.16
673.11	1798.12
673.29	1646.57
673.48	1765.35
673.67	1652.71
673.85	1849.32
674.04	1777.64
674.23	1730.53
674.41	1830.88
674.60	1695.72
674.79	1603.56
674.97	1636.33
675.16	1804.26
675.34	1839.08
675.53	1642.47
675.72	1705.96
675.90	1802.21
676.09	1806.31
676.28	1740.77
676.46	1683.43
676.65	1759.21
676.83	1705.96
677.02	1667.05
677.21	1705.96
677.39	1726.44
677.58	1658.85
677.77	1718.25
677.95	1724.39
678.14	1746.92
678.32	1794.02
678.51	1660.90
678.70	1918.95
678.88	1714.15
679.07	1681.38
679.25	1759.21
679.44	1722.34
679.63	1646.57
679.81	1714.15
680.00	1708.01
680.18	1714.15
680.37	1812.45
680.55	1765.35
680.74	1640.42
680.93	1650.66
681.11	1773.54
681.30	1744.87
681.48	1712.10
681.67	1665.00
681.85	1722.34
682.04	1609.70
682.23	1771.49
682.41	1736.68
682.60	1683.43
682.78	1708.01
682.97	1679.33
683.15	1685.48
683.34	1724.39
683.53	1777.64
683.71	1646.57
683.90	1748.97
684.08	1785.83
684.27	1699.81
684.45	1734.63
684.64	1796.07
684.82	1695.72
685.01	1787.88
685.19	1771.49
685.38	1800.16
685.57	1718.25
685.75	1628.14
685.94	1718.25
686.12	1691.62
686.31	1714.15
686.49	1751.01
686.68	1654.76
686.86	1708.01
687.05	1791.97
687.23	1824.74
687.42	1722.34
687.60	1667.05
687.79	1798.12
687.97	1804.26
688.16	1765.35
688.34	1787.88
688.53	1652.71
688.71	1791.97
688.90	1826.79
689.08	1656.81
689.27	1671.14
689.45	1718.25
689.64	1755.11
689.82	1667.05
690.01	1783.78
690.19	1759.21
690.38	1728.49
690.56	1816.55
690.75	1720.29
690.93	1736.68
691.12	1675.24
691.30	1763.30
691.49	1628.14
691.67	1755.11
691.86	1808.36
692.04	1650.66
692.23	1720.29
692.41	1673.19
692.60	1867.75
692.78	1705.96
692.97	1665.00
693.15	1871.84
693.34	1720.29
693.52	1804.26
693.71	1724.39
693.89	1697.77
694.08	1609.70
694.26	1695.72
694.44	1736.68
694.63	1775.59
694.81	1701.86
695.00	1673.19
695.18	1742.82
695.37	1873.89
695.55	1691.62
695.74	1662.95
695.92	1722.34
696.10	1734.63
696.29	1615.85
696.47	1611.75
696.66	1660.90
696.84	1701.86
697.03	1658.85
697.21	1839.08
697.40	2314.20
697.58	1740.77
697.76	1738.73
697.95	1716.20
698.13	1677.29
698.32	1673.19
698.50	1669.09
698.68	1720.29
698.87	1755.11
699.05	1841.12
699.24	1781.73
699.42	1699.81
699.61	1695.72
699.79	1751.01
699.97	1736.68
700.16	1562.60
700.34	1615.85
700.53	1697.77
700.71	1775.59
700.89	1734.63
701.08	1699.81
701.26	1703.91
701.45	2084.83
701.63	1683.43
701.81	1742.82
702.00	1726.44
702.18	1701.86
702.37	1665.00
702.55	1718.25
702.73	1771.49
702.92	1667.05
703.10	1699.81
703.28	1724.39
703.47	1730.53
703.65	1738.73
703.84	1730.53
704.02	1648.61
704.20	1789.92
704.39	1705.96
704.57	1665.00
704.75	1820.64
704.94	1802.21
705.12	1726.44
705.30	1847.27
705.49	2299.87
705.67	4501.44
705.86	9484.14
706.04	12783.42
706.22	14548.77
706.41	15357.72
706.59	13643.57
706.77	9660.27
706.96	7319.44
707.14	6541.21
707.32	6018.98
707.51	5672.87
707.69	4937.65
707.87	4353.98
708.06	3504.07
708.24	2967.51
708.42	2469.85
708.61	2226.14
708.79	1890.28
708.97	1894.37
709.16	1912.80
709.34	1771.49
709.52	1736.68
709.71	1671.14
709.89	1824.74
710.07	1712.10
710.26	1626.09
710.44	1708.01
710.62	1767.40
710.80	1753.06
710.99	1814.50
711.17	1787.88
711.35	1726.44
711.54	1669.09
711.72	1744.87
711.90	1738.73
712.09	1701.86
712.27	1642.47
712.45	1712.10
712.63	1736.68
712.82	1718.25
713.00	1714.15
713.18	1720.29
713.37	1712.10
713.55	1892.32
713.73	1730.53
713.91	1751.01
714.10	1687.53
714.28	1714.15
714.46	1660.90
714.65	1773.54
714.83	1759.21
715.01	1695.72
715.19	1791.97
715.38	1695.72
715.56	1728.49
715.74	1552.36
715.92	1703.91
716.11	1769.44
716.29	1636.33
716.47	1701.86
716.65	1679.33
716.84	1669.09
717.02	1742.82
717.20	1656.81
717.38	1632.23
717.57	1738.73
717.75	1654.76
717.93	1658.85
718.11	1724.39
718.30	1607.66
718.48	1701.86
718.66	1783.78
718.84	1789.92
719.03	1650.66
719.21	1630.18
719.39	1820.64
719.57	1710.05
719.75	1740.77
719.94	1705.96
720.12	1673.19
720.30	1665.00
720.48	1732.58
720.67	1695.72
720.85	1611.75
721.03	1718.25
721.21	1619.94
721.39	1759.21
721.58	1742.82
721.76	1662.95
721.94	1810.40
722.12	1744.87
722.30	1839.08
722.49	1728.49
722.67	1732.58
722.85	1640.42
723.03	1587.18
723.21	1675.24
723.40	1755.11
723.58	1757.16
723.76	1771.49
723.94	1767.40
724.12	1730.53
724.30	1759.21
724.49	1757.16
724.67	1644.52
724.85	1746.92
725.03	1658.85
725.21	1705.96
725.40	1787.88
725.58	1732.58
725.76	1703.91
725.94	1726.44
726.12	1617.90
726.30	1667.05
726.49	1763.30
726.67	1638.38
726.85	1742.82
727.03	1796.07
727.21	2254.81
727.39	2877.40
727.57	3858.37
727.76	4171.71
727.94	4403.13
728.12	4421.56
728.30	3827.65
728.48	3002.32
728.66	2770.90
728.84	2605.02
729.03	2324.44
729.21	2193.37
729.39	2080.74
729.57	1804.26
729.75	1810.40
729.93	1843.17
730.11	1669.09
730.30	1642.47
730.48	1783.78
730.66	1857.51
730.84	1712.10
731.02	1671.14
731.20	1621.99
731.38	1710.05
731.56	1689.57
731.74	1615.85
731.93	1738.73
732.11	1765.35
732.29	1742.82
732.47	1759.21
732.65	1714.15
732.83	1714.15
733.01	1722.34
733.19	1705.96
733.37	1730.53
733.56	1665.00
733.74	1662.95
733.92	1738.73
734.10	1693.67
734.28	1773.54
734.46	1720.29
734.64	1681.38
734.82	1660.90
735.00	1693.67
735.18	1681.38
735.36	1699.81
735.54	1732.58
735.73	1710.05
735.91	1771.49
736.09	1732.58
736.27	1697.77
736.45	1791.97
736.63	1583.08
736.81	1751.01
736.99	1787.88
737.17	1789.92
737.35	1740.77
737.53	1689.57
737.71	1738.73
737.89	1763.30
738.07	1646.57
738.25	1642.47
738.43	1662.95
738.61	1699.81
738.80	1736.68
738.98	1660.90
739.16	1748.97
739.34	1687.53
739.52	1785.83
739.70	1648.61
739.88	1789.92
740.06	1695.72
740.24	1607.66
740.42	1761.25
740.60	1671.14
740.78	1701.86
740.96	1636.33
741.14	1746.92
741.32	1712.10
741.50	1652.71
741.68	1873.89
741.86	1822.69
742.04	1621.99
742.22	1722.34
742.40	1658.85
742.58	1722.34
742.76	1701.86
742.94	1751.01
743.12	1597.42
743.30	1681.38
743.48	1775.59
743.66	1632.23
743.84	1720.29
744.02	1718.25
744.20	1703.91
744.38	1705.96
744.56	1687.53
744.74	1871.84
744.92	1742.82
745.10	1720.29
745.28	1794.02
745.46	1794.02
745.64	1738.73
745.82	1773.54
746.00	1718.25
746.18	1720.29
746.36	1689.57
746.54	1673.19
746.72	1712.10
746.90	1722.34
747.08	1808.36
747.26	1603.56
747.44	1759.21
747.62	1789.92
747.80	1787.88
747.98	1759.21
748.15	1734.63
748.33	1771.49
748.51	1716.20
748.69	1736.68
748.87	1650.66
749.05	1660.90
749.23	1710.05
749.41	1777.64
749.59	1724.39
749.77	1689.57
749.95	1667.05
750.13	1648.61
750.31	1767.40
750.49	1724.39
750.67	1761.25
750.85	1787.88
751.03	1726.44
751.20	1818.60
751.38	1726.44
751.56	1642.47
751.74	1740.77
751.92	1740.77
752.10	1677.29
752.28	1767.40
752.46	1630.18
752.64	1638.38
752.82	1658.85
753.00	1724.39
753.18	1644.52
753.35	1683.43
753.53	1755.11
753.71	1705.96
753.89	1765.35
754.07	1832.93
754.25	1783.78
754.43	1716.20
754.61	1728.49
754.79	1691.62
754.97	1617.90
755.14	1796.07
755.32	1648.61
755.50	1710.05
755.68	1720.29
755.86	1642.47
756.04	1693.67
756.22	1603.56
756.40	1730.53
756.57	1839.08
756.75	1671.14
756.93	1775.59
757.11	1783.78
757.29	1681.38
757.47	1628.14
757.65	1630.18
757.82	1566.70
758.00	1564.65
758.18	1599.46
758.36	1699.81
758.54	1865.70
758.72	1568.74
758.90	1679.33
759.07	1736.68
759.25	1671.14
759.43	1761.25
759.61	1673.19
759.79	2207.71
759.97	1771.49
760.15	1738.73
760.32	1732.58
760.50	1738.73
760.68	1810.40
760.86	1611.75
761.04	1781.73
761.22	1722.34
761.39	1800.16
761.57	1785.83
761.75	1636.33
761.93	1802.21
762.11	1728.49
762.28	1736.68
762.46	1689.57
762.64	1742.82
762.82	1667.05
763.00	1642.47
763.18	1738.73
763.35	1630.18
763.53	1691.62
763.71	1652.71
763.89	1669.09
764.07	1699.81
764.24	1685.48
764.42	1767.40
764.60	1763.30
764.78	1783.78
764.96	1761.25
765.13	1810.40
765.31	1667.05
765.49	1753.06
765.67	1660.90
765.84	1703.91
766.02	1650.66
766.20	1566.70
766.38	1642.47
766.56	1693.67
766.73	1748.97
766.91	1718.25
767.09	1697.77
767.27	1695.72
767.44	1697.77
767.62	1710.05
767.80	1730.53
767.98	1650.66
768.15	1718.25
768.33	1744.87
768.51	1714.15
768.69	1734.63
768.87	1777.64
769.04	1703.91
769.22	1837.03
769.40	1837.03
769.58	1920.99
769.75	1720.29
769.93	1767.40
770.11	1718.25
770.28	1705.96
770.46	1769.44
770.64	1722.34
770.82	1650.66
770.99	1779.68
771.17	1798.12
771.35	1683.43
771.53	1656.81
771.70	1695.72
771.88	1705.96
772.06	1820.64
772.23	1644.52
772.41	1703.91
772.59	1712.10
772.77	1626.09
772.94	1687.53
773.12	1705.96
773.30	1681.38
773.47	1693.67
773.65	1648.61
773.83	1804.26
774.01	1691.62
774.18	1638.38
774.36	1728.49
774.54	1648.61
774.71	1822.69
774.89	1587.18
775.07	1673.19
775.24	1724.39
775.42	1677.29
775.60	1824.74
775.78	1722.34
775.95	1675.24
776.13	1599.46
776.31	1560.55
776.48	1675.24
776.66	1701.86
776.84	1695.72
777.01	1693.67
777.19	1634.28
777.37	1652.71
777.54	1734.63
777.72	1828.84
777.90	1753.06
778.07	1609.70
778.25	1853.41
778.43	1734.63
778.60	1660.90
778.78	1789.92
778.96	1804.26
779.13	1646.57
779.31	1708.01
779.49	1628.14
779.66	1734.63
779.84	1771.49
780.01	1685.48
780.19	1578.98
780.37	1812.45
780.54	1748.97
780.72	1679.33
780.90	1679.33
781.07	1732.58
781.25	1652.71
781.43	1662.95
781.60	1757.16
781.78	1767.40
781.95	1738.73
782.13	1677.29
782.31	1703.91
782.48	1583.08
782.66	1705.96
782.83	1869.80
783.01	1679.33
783.19	1794.02
783.36	1603.56
783.54	1621.99
783.72	1681.38
783.89	1683.43
784.07	1734.63
784.24	1742.82
784.42	1828.84
784.60	1679.33
784.77	1751.01
784.95	1617.90
785.12	1726.44
785.30	1736.68
785.47	1650.66
785.65	1746.92
785.83	1675.24
786.00	1673.19
786.18	1675.24
786.35	1619.94
786.53	1648.61
786.71	1785.83
786.88	1755.11
787.06	1708.01
787.23	1738.73
787.41	1611.75
787.58	1681.38
787.76	1626.09
787.94	1777.64
788.11	1724.39
788.29	1689.57
788.46	1593.32
788.64	1650.66
788.81	1673.19
788.99	1634.28
789.16	1617.90
789.34	1744.87
789.52	1683.43
789.69	1656.81
789.87	1658.85
790.04	1736.68
790.22	1767.40
790.39	1746.92
790.57	1644.52
790.74	1675.24
790.92	1781.73
791.09	1648.61
791.27	1716.20
791.44	1734.63
791.62	1722.34
791.79	1804.26
791.97	1734.63
792.15	1845.22
792.32	1701.86
792.50	1779.68
792.67	1779.68
792.85	1742.82
793.02	1744.87
793.20	1673.19
793.37	1669.09
793.55	1728.49
793.72	1601.51
793.90	1685.48
794.07	1650.66
794.25	1656.81
794.42	1714.15
794.60	1703.91
794.77	1681.38
794.95	1777.64
795.12	1730.53
795.30	1665.00
795.47	1628.14
795.65	1861.60
795.82	1730.53
796.00	1628.14
796.17	1638.38
796.34	1714.15
796.52	1759.21
796.69	1693.67
796.87	1763.30
797.04	1732.58
797.22	1738.73
797.39	1630.18
797.57	1742.82
797.74	1789.92
797.92	1665.00
798.09	1652.71
798.27	1763.30
798.44	1794.02
798.62	1681.38
798.79	1722.34
798.96	1806.31
799.14	1738.73
799.31	1888.23
799.49	1738.73
799.66	1724.39
799.84	1765.35
800.01	1607.66
800.19	1763.30
800.36	1638.38
800.53	1638.38
800.71	1693.67
800.88	1718.25
801.06	1626.09
801.23	1683.43
801.41	1658.85
801.58	1703.91
801.75	1699.81
801.93	1705.96
802.10	1742.82
802.28	1703.91
802.45	1716.20
802.63	1701.86
802.80	1791.97
802.97	1665.00
803.15	1808.36
803.32	1652.71
803.50	1689.57
803.67	1691.62
803.84	1673.19
804.02	1695.72
804.19	1710.05
804.37	1554.41
804.54	1595.37
804.71	1642.47
804.89	1705.96
805.06	1765.35
805.24	1621.99
805.41	1652.71
805.58	1593.32
805.76	1855.46
805.93	1693.67
806.10	1767.40
806.28	1710.05
806.45	1683.43
806.63	1673.19
806.80	1732.58
806.97	1687.53
807.15	1689.57
807.32	1710.05
807.49	1714.15
807.67	1646.57
807.84	1679.33
808.01	1624.04
808.19	1798.12
808.36	1849.32
808.54	1671.14
808.71	1648.61
808.88	1736.68
809.06	1722.34
809.23	1761.25
809.40	1671.14
809.58	1767.40
809.75	1726.44
809.92	1593.32
810.10	1914.85
810.27	1746.92
810.44	1765.35
810.62	1783.78
810.79	1794.02
810.96	1669.09
811.14	1671.14
811.31	1677.29
811.48	1757.16
811.66	1693.67
811.83	1767.40
812.00	1787.88
812.18	1744.87
812.35	1785.83
812.52	1679.33
812.69	1634.28
812.87	1734.63
813.04	1652.71
813.21	1675.24
813.39	1691.62
813.56	1667.05
813.73	1726.44
813.91	1642.47
814.08	1742.82
814.25	1720.29
814.42	1568.74
814.60	1681.38
814.77	1640.42
814.94	1816.55
815.12	1773.54
815.29	1736.68
815.46	1591.27
815.63	1669.09
815.81	1609.70
815.98	1644.52
816.15	1787.88
816.33	1742.82
816.50	1732.58
816.67	1748.97
816.84	1675.24
817.02	1757.16
817.19	1697.77
817.36	1751.01
817.53	1814.50
817.71	1667.05
817.88	1765.35
818.05	1691.62
818.22	1646.57
818.40	1845.22
818.57	1665.00
818.74	1710.05
818.91	1736.68
819.09	1771.49
819.26	1796.07
819.43	1638.38
819.60	1746.92
819.78	1689.57
819.95	1800.16
820.12	1650.66
820.29	1738.73
820.47	1802.21
820.64	1640.42
820.81	1673.19
820.98	1681.38
821.15	1671.14
821.33	1783.78
821.50	1570.79
821.67	1826.79
821.84	1705.96
822.02	1753.06
822.19	1763.30
822.36	1648.61
822.53	1775.59
822.70	1619.94
822.88	1722.34
823.05	1759.21
823.22	1689.57
823.39	1763.30
823.56	1681.38
823.74	1869.80
823.91	1671.14
824.08	1677.29
824.25	1687.53
824.42	1748.97
824.60	1675.24
824.77	1775.59
824.94	1738.73
825.11	1791.97
825.28	1615.85
825.45	1730.53
825.63	1769.44
825.80	1667.05
825.97	1800.16
826.14	1687.53
826.31	1640.42
826.48	1720.29
826.66	1638.38
826.83	1710.05
827.00	1677.29
827.17	1636.33
827.34	1624.04
827.51	1705.96
827.69	1769.44
827.86	1626.09
828.03	1689.57
828.20	1800.16
828.37	1599.46
828.54	1740.77
828.71	1646.57
828.89	1808.36
829.06	1712.10
829.23	1816.55
829.40	1730.53
829.57	1634.28
829.74	1757.16
829.91	1708.01
830.09	1703.91
830.26	1658.85
830.43	1746.92
830.60	1697.77
830.77	1742.82
830.94	1802.21
831.11	1703.91
831.28	1712.10
831.46	1806.31
831.63	1705.96
831.80	1769.44
831.97	1712.10
832.14	1640.42
832.31	1775.59
832.48	1746.92
832.65	1763.30
832.82	1679.33
832.99	1775.59
833.17	1660.90
833.34	1775.59
833.51	1679.33
833.68	1601.51
833.85	1734.63
834.02	1636.33
834.19	1746.92
834.36	1605.61
834.53	1695.72
834.70	1775.59
834.87	1712.10
835.04	1765.35
835.22	1640.42
835.39	1669.09
835.56	1644.52
835.73	1718.25
835.90	1718.25
836.07	1656.81
836.24	1771.49
836.41	1765.35
836.58	1691.62
836.75	1781.73
836.92	1718.25
837.09	1722.34
837.26	1779.68
837.43	1722.34
837.60	1693.67
837.77	1644.52
837.94	1701.86
838.12	1746.92
838.29	1804.26
838.46	1628.14
838.63	1693.67
838.80	1734.63
838.97	1716.20
839.14	1755.11
839.31	1720.29
839.48	1710.05
839.65	1732.58
839.82	1791.97
839.99	1800.16
840.16	1703.91
840.33	1609.70
840.50	1738.73
840.67	1693.67
840.84	1605.61
841.01	1697.77
841.18	1697.77
841.35	1644.52
841.52	1636.33
841.69	1746.92
841.86	1681.38
842.03	1652.71
842.20	1675.24
842.37	1734.63
842.54	1703.91
842.71	1703.91
842.88	1621.99
843.05	1728.49
843.22	1669.09
843.39	1812.45
843.56	1675.24
843.73	1744.87
843.90	1705.96
844.07	1705.96
844.24	1771.49
844.41	1650.66
844.58	1705.96
844.75	1761.25
844.92	1712.10
845.09	1751.01
845.26	1660.90
845.43	1742.82
845.60	1691.62
845.77	1730.53
845.94	1742.82
846.10	1794.02
846.27	1652.71
846.44	1705.96
846.61	1675.24
846.78	1783.78
846.95	1742.82
847.12	1716.20
847.29	1699.81
847.46	1718.25
847.63	1728.49
847.80	1646.57
847.97	1669.09
848.14	1845.22
848.31	1689.57
848.48	1621.99
848.65	1771.49
848.82	1626.09
848.98	1837.03
849.15	1812.45
849.32	1765.35
849.49	1804.26
849.66	1705.96
849.83	1687.53
850.00	1636.33
850.17	1701.86
850.34	1779.68
850.51	1712.10
850.68	1624.04
850.85	1808.36
851.01	1710.05
851.18	1675.24
851.35	1701.86
851.52	1724.39
851.69	1669.09
851.86	1617.90
852.03	1681.38
852.20	1730.53
852.37	1736.68
852.53	1628.14
852.70	1638.38
852.87	1753.06
853.04	1691.62
853.21	1724.39
853.38	1806.31
853.55	1740.77
853.72	1767.40
853.89	1720.29
854.05	1650.66
854.22	1710.05
854.39	1718.25
854.56	1716.20
854.73	1804.26
854.90	1683.43
855.07	1697.77
855.23	1701.86
855.40	1734.63
855.57	1689.57
855.74	1574.89
855.91	1839.08
856.08	1697.77
856.25	1601.51
856.41	1656.81
856.58	1714.15
856.75	1681.38
856.92	1667.05
857.09	1779.68
857.26	1687.53
857.42	1652.71
857.59	1771.49
857.76	1683.43
857.93	1667.05
858.10	1648.61
858.27	1677.29
858.43	1654.76
858.60	1603.56
858.77	1677.29
858.94	1617.90
859.11	1855.46
859.27	1681.38
859.44	1705.96
859.61	1857.51
859.78	1732.58
859.95	1669.09
860.12	1611.75
860.28	1839.08
860.45	1808.36
860.62	1630.18
860.79	1701.86
860.95	1703.91
861.12	1632.23
861.29	1763.30
861.46	1681.38
861.63	1685.48
861.79	1763.30
861.96	1642.47
862.13	1665.00
862.30	1775.59
862.47	1712.10
862.63	1638.38
862.80	1800.16
862.97	1744.87
863.14	1755.11
863.30	1693.67
863.47	1648.61
863.64	1847.27
863.81	1722.34
863.97	1673.19
864.14	1697.77
864.31	1720.29
864.48	1769.44
864.65	1740.77
864.81	1701.86
864.98	1697.77
865.15	1732.58
865.32	1777.64
865.48	1794.02
865.65	1845.22
865.82	1687.53
865.98	1708.01
866.15	1679.33
866.32	1730.53
866.49	1714.15
866.65	1798.12
866.82	1644.52
866.99	1703.91
867.16	1640.42
867.32	1662.95
867.49	1685.48
867.66	1722.34
867.83	1642.47
867.99	1646.57
868.16	1722.34
868.33	1681.38
868.49	1615.85
868.66	1738.73
868.83	1718.25
868.99	1744.87
869.16	1728.49
869.33	1775.59
869.50	1785.83
869.66	1726.44
869.83	1712.10
870.00	1642.47
870.16	1746.92
870.33	1687.53
870.50	1785.83
870.66	1679.33
870.83	1748.97
871.00	1712.10
871.17	1738.73
871.33	1761.25
871.50	1679.33
871.67	1742.82
871.83	1689.57
872.00	1847.27
872.17	1665.00
872.33	1802.21
872.50	1691.62
872.67	1683.43
872.83	1658.85
873.00	1791.97
873.17	1671.14
873.33	1765.35
873.50	1722.34
873.67	1667.05
873.83	1597.42
874.00	1656.81
874.16	1732.58
874.33	1761.25
874.50	1611.75
874.66	1716.20
874.83	1687.53
875.00	1673.19
875.16	1783.78
875.33	1791.97
875.50	1583.08
875.66	1605.61
875.83	1718.25
875.99	1822.69
876.16	1699.81
876.33	1574.89
876.49	1695.72
876.66	1755.11
876.83	1677.29
876.99	1654.76
877.16	1685.48
877.32	1646.57
877.49	1624.04
877.66	1691.62
877.82	1812.45
877.99	1673.19
878.15	1779.68
878.32	1703.91
878.49	1685.48
878.65	1699.81
878.82	1810.40
878.98	1656.81
879.15	1777.64
879.32	1761.25
879.48	1753.06
879.65	1730.53
879.81	1687.53
879.98	1732.58
880.15	1726.44
880.31	1726.44
880.48	1685.48
880.64	1728.49
880.81	1746.92
880.97	1748.97
881.14	1796.07
881.31	1658.85
881.47	1861.60
881.64	1705.96
881.80	1562.60
881.97	1734.63
882.13	1753.06
882.30	1613.80
882.47	1693.67
882.63	1640.42
882.80	1632.23
882.96	1656.81
883.13	1806.31
883.29	1681.38
883.46	1648.61
883.62	1800.16
883.79	1742.82
883.95	1794.02
884.12	1683.43
884.29	1755.11
884.45	1693.67
884.62	1712.10
884.78	1650.66
884.95	1765.35
885.11	1685.48
885.28	1826.79
885.44	1667.05
885.61	1730.53
885.77	1851.36
885.94	1665.00
886.10	1705.96
886.27	1730.53
886.43	1806.31
886.60	1777.64
886.76	1638.38
886.93	1671.14
887.09	1705.96
887.26	1701.86
887.42	1703.91
887.59	1699.81
887.75	1834.98
887.92	1779.68
888.08	1759.21
888.25	1791.97
888.41	1753.06
888.58	1701.86
888.74	1599.46
888.91	1712.10
>>>>>End Processed Spectral Data<<<<<
