SpectraSuite Data File
++++++++++++++++++++++++++++++++++++
Date: Mon Jun 06 16:11:37 CEST 2016
User: root
Dark Spectrum Present: No
Reference Spectrum Present: No
Number of Sampled Component Spectra: 1
Spectrometers: USB4C02835
Integration Time (usec): 100000 (USB4C02835)
Spectra Averaged: 1 (USB4C02835)
Boxcar Smoothing: 0 (USB4C02835)
Correct for Electrical Dark: No (USB4C02835)
Strobe/Lamp Enabled: No (USB4C02835)
Correct for Detector Non-linearity: No (USB4C02835)
Correct for Stray Light: No (USB4C02835)
Number of Pixels in Processed Spectrum: 3648
>>>>>Begin Processed Spectral Data<<<<<
177.47	1509.35
177.69	1509.35
177.91	1509.35
178.13	1423.34
178.36	1452.01
178.58	1589.22
178.80	1763.30
179.02	1609.70
179.24	1693.67
179.46	1701.86
179.68	1798.12
179.90	1687.53
180.13	1705.96
180.35	1718.25
180.57	1806.31
180.79	1783.78
181.01	1771.49
181.23	1787.88
181.45	1755.11
181.67	1753.06
181.90	1742.82
182.12	1652.71
182.34	1667.05
182.56	1783.78
182.78	1722.34
183.00	1744.87
183.22	1710.05
183.44	1658.85
183.66	1783.78
183.89	1828.84
184.11	1726.44
184.33	1695.72
184.55	1812.45
184.77	1697.77
184.99	1732.58
185.21	1650.66
185.43	1816.55
185.65	1753.06
185.87	1699.81
186.10	1880.04
186.32	1810.40
186.54	1738.73
186.76	1755.11
186.98	1808.36
187.20	1665.00
187.42	1679.33
187.64	1648.61
187.86	1718.25
188.08	1814.50
188.30	1726.44
188.52	1779.68
188.75	1726.44
188.97	1775.59
189.19	1662.95
189.41	1673.19
189.63	1722.34
189.85	1748.97
190.07	1619.94
190.29	1605.61
190.51	1738.73
190.73	1644.52
190.95	1726.44
191.17	1779.68
191.39	1673.19
191.61	1632.23
191.84	1699.81
192.06	1755.11
192.28	1619.94
192.50	1902.56
192.72	1665.00
192.94	1683.43
193.16	1759.21
193.38	1761.25
193.60	1662.95
193.82	1714.15
194.04	1773.54
194.26	1779.68
194.48	1746.92
194.70	1714.15
194.92	1687.53
195.14	1703.91
195.36	1734.63
195.58	1757.16
195.80	1716.20
196.02	1652.71
196.24	1748.97
196.46	1691.62
196.69	1669.09
196.91	1845.22
197.13	1675.24
197.35	1652.71
197.57	1857.51
197.79	1808.36
198.01	1685.48
198.23	1755.11
198.45	1834.98
198.67	1640.42
198.89	1740.77
199.11	1781.73
199.33	1705.96
199.55	1626.09
199.77	1771.49
199.99	1818.60
200.21	1699.81
200.43	1767.40
200.65	1691.62
200.87	1611.75
201.09	1708.01
201.31	1740.77
201.53	1787.88
201.75	1818.60
201.97	1751.01
202.19	1710.05
202.41	1736.68
202.63	1867.75
202.85	1753.06
203.07	1748.97
203.29	1701.86
203.51	1673.19
203.73	1722.34
203.95	1906.66
204.17	1757.16
204.39	1798.12
204.61	1730.53
204.83	1708.01
205.05	1724.39
205.27	1699.81
205.49	1867.75
205.71	1689.57
205.93	1699.81
206.15	1677.29
206.37	1660.90
206.59	1675.24
206.81	1728.49
207.03	1644.52
207.25	1667.05
207.47	1771.49
207.69	1671.14
207.91	1738.73
208.13	1802.21
208.34	1648.61
208.56	1677.29
208.78	1701.86
209.00	1761.25
209.22	1624.04
209.44	1695.72
209.66	1642.47
209.88	1705.96
210.10	1544.17
210.32	1748.97
210.54	1798.12
210.76	1689.57
210.98	1757.16
211.20	1640.42
211.42	1691.62
211.64	1789.92
211.86	1746.92
212.08	1685.48
212.30	1789.92
212.52	1703.91
212.74	1759.21
212.96	1654.76
213.17	1742.82
213.39	1695.72
213.61	1697.77
213.83	1800.16
214.05	1685.48
214.27	1775.59
214.49	1705.96
214.71	1576.94
214.93	1728.49
215.15	1716.20
215.37	1744.87
215.59	1714.15
215.81	1785.83
216.03	1765.35
216.24	1746.92
216.46	1726.44
216.68	1699.81
216.90	1798.12
217.12	1681.38
217.34	1714.15
217.56	1779.68
217.78	1802.21
218.00	1734.63
218.22	1763.30
218.44	1767.40
218.66	1742.82
218.87	1787.88
219.09	1761.25
219.31	1779.68
219.53	1748.97
219.75	1679.33
219.97	1781.73
220.19	1703.91
220.41	1816.55
220.63	1751.01
220.85	1773.54
221.06	1677.29
221.28	1767.40
221.50	1787.88
221.72	1796.07
221.94	1751.01
222.16	1744.87
222.38	1775.59
222.60	1734.63
222.82	1691.62
223.03	1753.06
223.25	1591.27
223.47	1695.72
223.69	1888.23
223.91	1699.81
224.13	1695.72
224.35	1705.96
224.57	1824.74
224.78	1753.06
225.00	1675.24
225.22	1660.90
225.44	1742.82
225.66	1691.62
225.88	1767.40
226.10	1730.53
226.32	1753.06
226.53	1738.73
226.75	1665.00
226.97	1746.92
227.19	1710.05
227.41	1689.57
227.63	1673.19
227.85	1624.04
228.06	1665.00
228.28	1800.16
228.50	1841.12
228.72	1662.95
228.94	1636.33
229.16	1593.32
229.37	1638.38
229.59	1685.48
229.81	1800.16
230.03	1716.20
230.25	1724.39
230.47	1669.09
230.69	1650.66
230.90	1738.73
231.12	1656.81
231.34	1724.39
231.56	1794.02
231.78	1648.61
232.00	1722.34
232.21	1685.48
232.43	1689.57
232.65	1593.32
232.87	1685.48
233.09	1722.34
233.30	1603.56
233.52	1777.64
233.74	1730.53
233.96	1673.19
234.18	1771.49
234.40	1724.39
234.61	1826.79
234.83	1691.62
235.05	1611.75
235.27	1851.36
235.49	1773.54
235.70	1621.99
235.92	1814.50
236.14	1710.05
236.36	1896.42
236.58	1609.70
236.79	1718.25
237.01	1689.57
237.23	1712.10
237.45	1816.55
237.67	1697.77
237.88	1736.68
238.10	1875.94
238.32	1650.66
238.54	1677.29
238.76	1710.05
238.97	1619.94
239.19	1683.43
239.41	1724.39
239.63	1746.92
239.85	1714.15
240.06	1746.92
240.28	1617.90
240.50	1728.49
240.72	1724.39
240.93	1751.01
241.15	1882.08
241.37	1734.63
241.59	1812.45
241.81	1736.68
242.02	1671.14
242.24	1728.49
242.46	1781.73
242.68	1662.95
242.89	1734.63
243.11	1734.63
243.33	1783.78
243.55	1755.11
243.76	1892.32
243.98	1601.51
244.20	1716.20
244.42	1730.53
244.64	1767.40
244.85	1644.52
245.07	1642.47
245.29	1824.74
245.51	1681.38
245.72	1662.95
245.94	1808.36
246.16	1744.87
246.38	1742.82
246.59	1705.96
246.81	1642.47
247.03	1693.67
247.24	1583.08
247.46	1693.67
247.68	1708.01
247.90	1615.85
248.11	1689.57
248.33	1804.26
248.55	1648.61
248.77	1720.29
248.98	1765.35
249.20	1834.98
249.42	1755.11
249.64	1767.40
249.85	1687.53
250.07	1675.24
250.29	1769.44
250.50	1757.16
250.72	1667.05
250.94	1751.01
251.16	1888.23
251.37	1822.69
251.59	1697.77
251.81	1740.77
252.02	1779.68
252.24	1671.14
252.46	1894.37
252.68	1669.09
252.89	1648.61
253.11	1591.27
253.33	1880.04
253.54	1720.29
253.76	1677.29
253.98	1689.57
254.20	1615.85
254.41	1650.66
254.63	1705.96
254.85	1675.24
255.06	1665.00
255.28	1751.01
255.50	1718.25
255.71	1632.23
255.93	1695.72
256.15	1761.25
256.36	1732.58
256.58	1669.09
256.80	1787.88
257.02	1679.33
257.23	1683.43
257.45	1724.39
257.67	1798.12
257.88	1671.14
258.10	1767.40
258.32	1744.87
258.53	1839.08
258.75	1771.49
258.97	1738.73
259.18	1660.90
259.40	1732.58
259.62	1718.25
259.83	1777.64
260.05	1783.78
260.27	1976.29
260.48	1863.65
260.70	1650.66
260.92	1722.34
261.13	1738.73
261.35	1732.58
261.57	1730.53
261.78	1697.77
262.00	1615.85
262.22	1765.35
262.43	1677.29
262.65	1628.14
262.86	1734.63
263.08	1808.36
263.30	1732.58
263.51	1624.04
263.73	1757.16
263.95	1789.92
264.16	1654.76
264.38	1656.81
264.60	1722.34
264.81	1730.53
265.03	1832.93
265.25	1767.40
265.46	1789.92
265.68	1775.59
265.89	1732.58
266.11	1652.71
266.33	1720.29
266.54	1779.68
266.76	1789.92
266.98	1753.06
267.19	1814.50
267.41	1761.25
267.62	1683.43
267.84	1695.72
268.06	1767.40
268.27	1769.44
268.49	1689.57
268.70	1796.07
268.92	1705.96
269.14	1665.00
269.35	1617.90
269.57	1742.82
269.79	1675.24
270.00	1685.48
270.22	1861.60
270.43	1652.71
270.65	1607.66
270.87	1779.68
271.08	1808.36
271.30	1773.54
271.51	1738.73
271.73	1794.02
271.95	1722.34
272.16	1736.68
272.38	1718.25
272.59	1703.91
272.81	1677.29
273.02	1710.05
273.24	1710.05
273.46	1791.97
273.67	1726.44
273.89	1617.90
274.10	1681.38
274.32	1789.92
274.54	1738.73
274.75	1671.14
274.97	1669.09
275.18	1849.32
275.40	1693.67
275.61	1736.68
275.83	1681.38
276.05	1665.00
276.26	1693.67
276.48	1775.59
276.69	1726.44
276.91	1726.44
277.12	1781.73
277.34	1740.77
277.55	1802.21
277.77	1712.10
277.99	1753.06
278.20	1632.23
278.42	1708.01
278.63	1658.85
278.85	1675.24
279.06	1665.00
279.28	1804.26
279.49	1787.88
279.71	1746.92
279.93	1718.25
280.14	1689.57
280.36	1609.70
280.57	1751.01
280.79	1834.98
281.00	1724.39
281.22	1665.00
281.43	1757.16
281.65	1546.22
281.86	1665.00
282.08	1687.53
282.29	1849.32
282.51	1634.28
282.73	1687.53
282.94	1665.00
283.16	1728.49
283.37	1849.32
283.59	1648.61
283.80	1667.05
284.02	1724.39
284.23	1753.06
284.45	1726.44
284.66	1632.23
284.88	1632.23
285.09	1742.82
285.31	1791.97
285.52	1691.62
285.74	1677.29
285.95	1724.39
286.17	1802.21
286.38	1728.49
286.60	1669.09
286.81	1671.14
287.03	1669.09
287.24	1642.47
287.46	1716.20
287.67	1742.82
287.89	1740.77
288.10	1656.81
288.32	1726.44
288.53	1773.54
288.75	1683.43
288.96	1773.54
289.18	1699.81
289.39	1677.29
289.61	1804.26
289.82	1837.03
290.04	1806.31
290.25	1574.89
290.47	1689.57
290.68	1716.20
290.90	1751.01
291.11	1572.84
291.33	1746.92
291.54	1662.95
291.76	1648.61
291.97	1658.85
292.18	1714.15
292.40	1648.61
292.61	1689.57
292.83	1785.83
293.04	1767.40
293.26	1703.91
293.47	1730.53
293.69	1720.29
293.90	1652.71
294.12	1814.50
294.33	1638.38
294.55	1712.10
294.76	1746.92
294.97	1837.03
295.19	1800.16
295.40	1710.05
295.62	1693.67
295.83	1720.29
296.05	1757.16
296.26	1724.39
296.48	1656.81
296.69	1677.29
296.90	1718.25
297.12	1736.68
297.33	1773.54
297.55	1734.63
297.76	1742.82
297.98	1740.77
298.19	1701.86
298.41	1728.49
298.62	1761.25
298.83	1882.08
299.05	1787.88
299.26	1693.67
299.48	1677.29
299.69	1773.54
299.90	1769.44
300.12	1669.09
300.33	1677.29
300.55	1693.67
300.76	1708.01
300.98	1656.81
301.19	1714.15
301.40	1665.00
301.62	1742.82
301.83	1800.16
302.05	1695.72
302.26	1802.21
302.47	1669.09
302.69	1601.51
302.90	1734.63
303.12	1554.41
303.33	1740.77
303.54	1812.45
303.76	1734.63
303.97	1683.43
304.19	1740.77
304.40	1660.90
304.61	1751.01
304.83	1863.65
305.04	1734.63
305.26	1771.49
305.47	1662.95
305.68	1691.62
305.90	1685.48
306.11	1781.73
306.33	1689.57
306.54	1701.86
306.75	1703.91
306.97	1658.85
307.18	1671.14
307.39	1626.09
307.61	1781.73
307.82	1689.57
308.04	1812.45
308.25	1703.91
308.46	1738.73
308.68	1761.25
308.89	1734.63
309.10	1800.16
309.32	1685.48
309.53	1705.96
309.74	1656.81
309.96	1691.62
310.17	1789.92
310.39	1728.49
310.60	1746.92
310.81	1724.39
311.03	1636.33
311.24	1677.29
311.45	1712.10
311.67	1908.71
311.88	1769.44
312.09	1746.92
312.31	1708.01
312.52	1687.53
312.73	1738.73
312.95	1636.33
313.16	1644.52
313.37	1775.59
313.59	1830.88
313.80	1794.02
314.01	1816.55
314.23	1634.28
314.44	1703.91
314.65	1679.33
314.87	1634.28
315.08	1660.90
315.29	1685.48
315.51	1681.38
315.72	1609.70
315.93	1916.90
316.15	1755.11
316.36	1724.39
316.57	1718.25
316.79	1705.96
317.00	1753.06
317.21	1671.14
317.43	1667.05
317.64	1708.01
317.85	1669.09
318.07	1718.25
318.28	1794.02
318.49	1845.22
318.70	1923.04
318.92	1804.26
319.13	1855.46
319.34	1855.46
319.56	1779.68
319.77	1826.79
319.98	1888.23
320.20	1781.73
320.41	1789.92
320.62	1767.40
320.83	1671.14
321.05	1906.66
321.26	1759.21
321.47	1771.49
321.69	1789.92
321.90	1595.37
322.11	1779.68
322.32	1773.54
322.54	1759.21
322.75	1695.72
322.96	1894.37
323.18	1656.81
323.39	1697.77
323.60	1611.75
323.81	1761.25
324.03	1617.90
324.24	1720.29
324.45	1665.00
324.66	1705.96
324.88	1798.12
325.09	1820.64
325.30	1755.11
325.52	1701.86
325.73	1746.92
325.94	1597.42
326.15	1648.61
326.37	1769.44
326.58	1794.02
326.79	1773.54
327.00	1665.00
327.22	1667.05
327.43	1734.63
327.64	1624.04
327.85	1753.06
328.07	1701.86
328.28	1904.61
328.49	1773.54
328.70	1740.77
328.92	1681.38
329.13	1742.82
329.34	1689.57
329.55	1853.41
329.76	1724.39
329.98	1718.25
330.19	1732.58
330.40	1755.11
330.61	1669.09
330.83	1759.21
331.04	1703.91
331.25	1617.90
331.46	1757.16
331.68	1652.71
331.89	1708.01
332.10	1763.30
332.31	1669.09
332.52	1712.10
332.74	1810.40
332.95	1646.57
333.16	1718.25
333.37	1742.82
333.58	1638.38
333.80	1685.48
334.01	1675.24
334.22	1656.81
334.43	1673.19
334.64	1699.81
334.86	1640.42
335.07	1603.56
335.28	1802.21
335.49	1677.29
335.70	1757.16
335.92	1800.16
336.13	1941.47
336.34	1763.30
336.55	1716.20
336.76	1779.68
336.98	1607.66
337.19	1796.07
337.40	1869.80
337.61	1816.55
337.82	1738.73
338.04	1765.35
338.25	1626.09
338.46	1697.77
338.67	1736.68
338.88	1728.49
339.09	1695.72
339.31	1734.63
339.52	1648.61
339.73	1665.00
339.94	1673.19
340.15	1697.77
340.36	1648.61
340.58	1724.39
340.79	1628.14
341.00	1710.05
341.21	1617.90
341.42	1787.88
341.63	1650.66
341.85	1761.25
342.06	1714.15
342.27	1660.90
342.48	1734.63
342.69	1634.28
342.90	1718.25
343.12	1716.20
343.33	1718.25
343.54	1775.59
343.75	1816.55
343.96	1789.92
344.17	1746.92
344.38	1703.91
344.60	1652.71
344.81	1656.81
345.02	1755.11
345.23	1755.11
345.44	1787.88
345.65	1804.26
345.86	1685.48
346.07	1757.16
346.29	1658.85
346.50	1705.96
346.71	1820.64
346.92	1771.49
347.13	1839.08
347.34	1656.81
347.55	1775.59
347.76	1755.11
347.98	1638.38
348.19	1642.47
348.40	1789.92
348.61	1695.72
348.82	1826.79
349.03	1689.57
349.24	1595.37
349.45	1845.22
349.66	1544.17
349.88	1794.02
350.09	1638.38
350.30	1728.49
350.51	1796.07
350.72	1757.16
350.93	1691.62
351.14	1658.85
351.35	1763.30
351.56	1681.38
351.77	1693.67
351.99	1732.58
352.20	1773.54
352.41	1828.84
352.62	1615.85
352.83	1650.66
353.04	1677.29
353.25	1644.52
353.46	1767.40
353.67	1775.59
353.88	1593.32
354.09	1828.84
354.30	1714.15
354.52	1728.49
354.73	1720.29
354.94	1689.57
355.15	1751.01
355.36	1824.74
355.57	1681.38
355.78	1697.77
355.99	1685.48
356.20	1671.14
356.41	1783.78
356.62	1718.25
356.83	1665.00
357.04	1824.74
357.25	1628.14
357.46	1685.48
357.68	1607.66
357.89	1685.48
358.10	1714.15
358.31	1695.72
358.52	1689.57
358.73	1710.05
358.94	1644.52
359.15	1697.77
359.36	1800.16
359.57	1699.81
359.78	1714.15
359.99	1755.11
360.20	1679.33
360.41	1775.59
360.62	1740.77
360.83	1708.01
361.04	1695.72
361.25	1669.09
361.46	1828.84
361.67	1671.14
361.88	1701.86
362.09	1765.35
362.30	1740.77
362.51	1673.19
362.72	1769.44
362.93	1812.45
363.14	1726.44
363.35	1642.47
363.56	1665.00
363.78	1693.67
363.99	1732.58
364.20	1714.15
364.41	1761.25
364.62	1791.97
364.83	1734.63
365.04	1753.06
365.25	1753.06
365.46	1839.08
365.67	1689.57
365.88	1638.38
366.09	1757.16
366.30	1728.49
366.51	1656.81
366.72	1675.24
366.93	1665.00
367.14	1728.49
367.35	1820.64
367.56	1652.71
367.77	1808.36
367.98	1734.63
368.18	1794.02
368.39	1787.88
368.60	1597.42
368.81	1800.16
369.02	1703.91
369.23	1724.39
369.44	1654.76
369.65	1689.57
369.86	1796.07
370.07	1794.02
370.28	1654.76
370.49	1775.59
370.70	1783.78
370.91	1695.72
371.12	1671.14
371.33	1724.39
371.54	1601.51
371.75	1779.68
371.96	1667.05
372.17	1703.91
372.38	1755.11
372.59	1798.12
372.80	1714.15
373.01	1685.48
373.22	1734.63
373.43	1699.81
373.64	1632.23
373.85	1839.08
374.06	1775.59
374.26	1755.11
374.47	1697.77
374.68	1820.64
374.89	1730.53
375.10	1677.29
375.31	1718.25
375.52	1708.01
375.73	1642.47
375.94	1656.81
376.15	1798.12
376.36	1650.66
376.57	1669.09
376.78	1701.86
376.99	1746.92
377.20	1789.92
377.40	1652.71
377.61	1814.50
377.82	1665.00
378.03	1771.49
378.24	1738.73
378.45	1708.01
378.66	1710.05
378.87	1630.18
379.08	1599.46
379.29	1751.01
379.50	1785.83
379.71	1763.30
379.91	1769.44
380.12	1744.87
380.33	1689.57
380.54	1746.92
380.75	1732.58
380.96	1734.63
381.17	1779.68
381.38	1705.96
381.59	1738.73
381.80	1738.73
382.00	1867.75
382.21	1730.53
382.42	1863.65
382.63	1906.66
382.84	1763.30
383.05	1746.92
383.26	1814.50
383.47	1753.06
383.68	1685.48
383.88	1726.44
384.09	1742.82
384.30	1847.27
384.51	1746.92
384.72	1689.57
384.93	1691.62
385.14	1730.53
385.35	1748.97
385.55	1652.71
385.76	1828.84
385.97	1722.34
386.18	1669.09
386.39	1667.05
386.60	1689.57
386.81	1728.49
387.02	1679.33
387.22	1671.14
387.43	1761.25
387.64	1814.50
387.85	1910.75
388.06	2203.61
388.27	4184.00
388.48	6653.85
388.68	8159.11
388.89	9490.29
389.10	9539.44
389.31	8591.23
389.52	7495.57
389.73	6733.72
389.93	6170.53
390.14	5742.50
390.35	5146.55
390.56	4556.73
390.77	3880.90
390.98	3080.14
391.18	2404.32
391.39	2138.08
391.60	1845.22
391.81	1916.90
392.02	1796.07
392.23	1814.50
392.43	1873.89
392.64	1791.97
392.85	1728.49
393.06	1773.54
393.27	1761.25
393.47	1740.77
393.68	1763.30
393.89	1751.01
394.10	1804.26
394.31	1642.47
394.52	1634.28
394.72	1628.14
394.93	1771.49
395.14	1601.51
395.35	1736.68
395.56	1730.53
395.76	1734.63
395.97	1869.80
396.18	1875.94
396.39	1867.75
396.60	2084.83
396.80	1959.91
397.01	1798.12
397.22	1837.03
397.43	1894.37
397.64	1763.30
397.84	1812.45
398.05	1902.56
398.26	1732.58
398.47	1804.26
398.67	1839.08
398.88	1705.96
399.09	1777.64
399.30	1734.63
399.51	1742.82
399.71	1753.06
399.92	1742.82
400.13	1732.58
400.34	1757.16
400.54	1685.48
400.75	1814.50
400.96	1742.82
401.17	1789.92
401.37	1822.69
401.58	1759.21
401.79	1722.34
402.00	1865.70
402.21	2056.16
402.41	1931.23
402.62	1959.91
402.83	2146.27
403.04	1972.19
403.24	2062.30
403.45	1882.08
403.66	1812.45
403.87	1939.43
404.07	1910.75
404.28	1949.67
404.49	1920.99
404.70	1841.12
404.90	1765.35
405.11	1759.21
405.32	1773.54
405.52	1681.38
405.73	1738.73
405.94	1699.81
406.15	1732.58
406.35	1714.15
406.56	1779.68
406.77	1744.87
406.98	1716.20
407.18	1693.67
407.39	1736.68
407.60	1703.91
407.80	1679.33
408.01	1652.71
408.22	1751.01
408.43	1605.61
408.63	1742.82
408.84	1787.88
409.05	1808.36
409.25	1728.49
409.46	1675.24
409.67	1744.87
409.88	1675.24
410.08	1710.05
410.29	1740.77
410.50	1720.29
410.70	1755.11
410.91	1691.62
411.12	1722.34
411.32	1701.86
411.53	1714.15
411.74	1847.27
411.95	1773.54
412.15	1736.68
412.36	1767.40
412.57	1804.26
412.77	1730.53
412.98	1699.81
413.19	1751.01
413.39	1746.92
413.60	1802.21
413.81	1798.12
414.01	1775.59
414.22	1746.92
414.43	1744.87
414.63	1683.43
414.84	1826.79
415.05	1757.16
415.25	1644.52
415.46	1697.77
415.67	1730.53
415.87	1765.35
416.08	1767.40
416.29	1658.85
416.49	1847.27
416.70	1681.38
416.91	1662.95
417.11	1703.91
417.32	1822.69
417.53	1820.64
417.73	1587.18
417.94	1681.38
418.15	1716.20
418.35	1726.44
418.56	1701.86
418.77	1851.36
418.97	1740.77
419.18	1703.91
419.38	1558.50
419.59	1726.44
419.80	1767.40
420.00	1652.71
420.21	1699.81
420.42	1763.30
420.62	1759.21
420.83	1603.56
421.04	1671.14
421.24	1669.09
421.45	1691.62
421.65	1851.36
421.86	1748.97
422.07	1751.01
422.27	1716.20
422.48	1767.40
422.69	1695.72
422.89	1744.87
423.10	1699.81
423.30	1673.19
423.51	1710.05
423.72	1712.10
423.92	1722.34
424.13	1654.76
424.33	1691.62
424.54	1738.73
424.75	1834.98
424.95	1810.40
425.16	1712.10
425.36	1742.82
425.57	1765.35
425.78	1730.53
425.98	1744.87
426.19	1708.01
426.39	1683.43
426.60	1794.02
426.81	1851.36
427.01	1681.38
427.22	1708.01
427.42	1617.90
427.63	1654.76
427.83	1748.97
428.04	1802.21
428.25	1832.93
428.45	1740.77
428.66	1708.01
428.86	1687.53
429.07	1705.96
429.28	1818.60
429.48	1714.15
429.69	1650.66
429.89	1724.39
430.10	1617.90
430.30	1863.65
430.51	1802.21
430.71	1665.00
430.92	1673.19
431.13	1724.39
431.33	1699.81
431.54	1710.05
431.74	1837.03
431.95	1839.08
432.15	1683.43
432.36	1761.25
432.56	1722.34
432.77	1775.59
432.98	1845.22
433.18	1740.77
433.39	1681.38
433.59	1748.97
433.80	1875.94
434.00	1923.04
434.21	1779.68
434.41	1791.97
434.62	1884.13
434.82	1638.38
435.03	1640.42
435.23	1830.88
435.44	1638.38
435.64	1705.96
435.85	1751.01
436.06	1730.53
436.26	1755.11
436.47	1673.19
436.67	1656.81
436.88	1771.49
437.08	1763.30
437.29	1816.55
437.49	1740.77
437.70	1832.93
437.90	1732.58
438.11	1826.79
438.31	1816.55
438.52	1869.80
438.72	1839.08
438.93	1925.09
439.13	1847.27
439.34	1861.60
439.54	1710.05
439.75	1816.55
439.95	1857.51
440.16	1695.72
440.36	1773.54
440.57	1767.40
440.77	1761.25
440.98	1695.72
441.18	1816.55
441.39	1679.33
441.59	1732.58
441.80	1851.36
442.00	1783.78
442.21	1812.45
442.41	1681.38
442.62	1818.60
442.82	1724.39
443.02	1806.31
443.23	1757.16
443.43	1763.30
443.64	1826.79
443.84	1658.85
444.05	1859.56
444.25	1777.64
444.46	1777.64
444.66	1814.50
444.87	1873.89
445.07	1708.01
445.28	1779.68
445.48	1828.84
445.69	1814.50
445.89	1857.51
446.09	1869.80
446.30	1996.77
446.50	2576.34
446.71	3751.88
446.91	4431.80
447.12	4714.42
447.32	4845.49
447.53	4163.52
447.73	3846.09
447.93	3540.94
448.14	3223.50
448.34	3239.89
448.55	2947.03
448.75	2787.29
448.96	2709.46
449.16	2488.28
449.36	2265.05
449.57	2107.36
449.77	1875.94
449.98	1820.64
450.18	1787.88
450.39	1812.45
450.59	1724.39
450.79	1783.78
451.00	1667.05
451.20	1834.98
451.41	1718.25
451.61	1716.20
451.81	1761.25
452.02	1775.59
452.22	1748.97
452.43	1804.26
452.63	1691.62
452.84	1767.40
453.04	1708.01
453.24	1734.63
453.45	1710.05
453.65	1775.59
453.86	1769.44
454.06	1779.68
454.26	1800.16
454.47	1648.61
454.67	1873.89
454.87	1771.49
455.08	1732.58
455.28	1816.55
455.49	1820.64
455.69	1689.57
455.89	1865.70
456.10	1857.51
456.30	1761.25
456.51	1818.60
456.71	1708.01
456.91	1748.97
457.12	1705.96
457.32	1800.16
457.52	1652.71
457.73	1775.59
457.93	1763.30
458.14	1708.01
458.34	1714.15
458.54	1722.34
458.75	1689.57
458.95	1914.85
459.15	1757.16
459.36	1769.44
459.56	1804.26
459.76	1857.51
459.97	1824.74
460.17	1710.05
460.37	1847.27
460.58	1748.97
460.78	1791.97
460.99	1703.91
461.19	1757.16
461.39	1757.16
461.60	1742.82
461.80	1695.72
462.00	1679.33
462.21	1755.11
462.41	1722.34
462.61	1677.29
462.82	1636.33
463.02	1753.06
463.22	1660.90
463.43	1822.69
463.63	1701.86
463.83	1755.11
464.04	1726.44
464.24	1740.77
464.44	1646.57
464.64	1796.07
464.85	1767.40
465.05	1759.21
465.25	1771.49
465.46	1746.92
465.66	1880.04
465.86	1759.21
466.07	1785.83
466.27	1683.43
466.47	1669.09
466.68	1644.52
466.88	1843.17
467.08	1759.21
467.29	1775.59
467.49	1685.48
467.69	1751.01
467.89	1751.01
468.10	1701.86
468.30	1722.34
468.50	1855.46
468.71	1802.21
468.91	1642.47
469.11	1832.93
469.31	1748.97
469.52	1757.16
469.72	1853.41
469.92	1910.75
470.13	1748.97
470.33	1751.01
470.53	1828.84
470.73	2099.17
470.94	2320.35
471.14	2365.40
471.34	2562.01
471.54	2428.89
471.75	2179.04
471.95	2230.24
472.15	2131.94
472.36	2023.39
472.56	2066.40
472.76	2084.83
472.96	2000.87
473.17	1968.10
473.37	1853.41
473.57	1865.70
473.77	1828.84
473.98	1777.64
474.18	1689.57
474.38	1908.71
474.58	1679.33
474.79	1689.57
474.99	1796.07
475.19	1791.97
475.39	1611.75
475.60	1789.92
475.80	1716.20
476.00	1728.49
476.20	1689.57
476.41	1759.21
476.61	1859.56
476.81	1806.31
477.01	1648.61
477.21	1920.99
477.42	1804.26
477.62	1609.70
477.82	1824.74
478.02	1673.19
478.23	1800.16
478.43	1722.34
478.63	1730.53
478.83	1740.77
479.03	1751.01
479.24	1796.07
479.44	1927.14
479.64	1685.48
479.84	1636.33
480.04	1636.33
480.25	1826.79
480.45	1646.57
480.65	1773.54
480.85	1826.79
481.06	1691.62
481.26	1775.59
481.46	1777.64
481.66	1791.97
481.86	1683.43
482.06	1791.97
482.27	1705.96
482.47	1722.34
482.67	1849.32
482.87	1783.78
483.07	1812.45
483.28	1710.05
483.48	1652.71
483.68	1732.58
483.88	1691.62
484.08	1705.96
484.29	1673.19
484.49	1796.07
484.69	1656.81
484.89	1830.88
485.09	1773.54
485.29	1701.86
485.50	1757.16
485.70	1699.81
485.90	1759.21
486.10	1755.11
486.30	1814.50
486.50	1826.79
486.71	1722.34
486.91	1800.16
487.11	1818.60
487.31	1665.00
487.51	1695.72
487.71	1669.09
487.91	1685.48
488.12	1656.81
488.32	1615.85
488.52	1761.25
488.72	1683.43
488.92	1728.49
489.12	1769.44
489.32	1806.31
489.53	1732.58
489.73	1613.80
489.93	1771.49
490.13	1640.42
490.33	1667.05
490.53	1697.77
490.73	1798.12
490.94	1681.38
491.14	1816.55
491.34	1832.93
491.54	2119.65
491.74	2592.73
491.94	2932.69
492.14	3012.56
492.34	2953.17
492.54	2738.13
492.75	2486.23
492.95	2496.47
493.15	2359.26
493.35	2242.53
493.55	2260.96
493.75	2070.50
493.95	2123.74
494.15	2064.35
494.35	1861.60
494.56	1863.65
494.76	1824.74
494.96	1753.06
495.16	1783.78
495.36	1667.05
495.56	1705.96
495.76	1648.61
495.96	1691.62
496.16	1734.63
496.36	1820.64
496.56	1771.49
496.77	1736.68
496.97	1665.00
497.17	1855.46
497.37	1669.09
497.57	1820.64
497.77	1785.83
497.97	1728.49
498.17	1746.92
498.37	1712.10
498.57	1730.53
498.77	1705.96
498.97	1820.64
499.17	1853.41
499.38	1714.15
499.58	1816.55
499.78	1767.40
499.98	1787.88
500.18	1744.87
500.38	1662.95
500.58	1949.67
500.78	2496.47
500.98	4454.33
501.18	5779.37
501.38	6854.55
501.58	6848.41
501.78	6778.78
501.98	5435.31
502.18	4956.08
502.38	4343.74
502.58	4220.86
502.78	3690.44
502.98	3608.52
503.18	3504.07
503.38	3157.97
503.59	2848.72
503.79	2645.98
503.99	2547.67
504.19	2357.21
504.39	2090.98
504.59	2140.13
504.79	2121.70
504.99	2011.11
505.19	1927.14
505.39	1984.48
505.59	1894.37
505.79	1986.53
505.99	1857.51
506.19	1816.55
506.39	1888.23
506.59	1736.68
506.79	1695.72
506.99	1769.44
507.19	1675.24
507.39	1712.10
507.59	1646.57
507.79	1669.09
507.99	1708.01
508.19	1691.62
508.39	1753.06
508.59	1746.92
508.79	1841.12
508.99	1841.12
509.19	1738.73
509.39	1755.11
509.59	1660.90
509.79	1753.06
509.99	1804.26
510.19	1843.17
510.39	1814.50
510.59	1753.06
510.79	1738.73
510.99	1695.72
511.19	1763.30
511.39	1890.28
511.59	1767.40
511.79	1830.88
511.99	1703.91
512.19	1796.07
512.38	1755.11
512.58	1673.19
512.78	1701.86
512.98	1822.69
513.18	1884.13
513.38	1646.57
513.58	1761.25
513.78	1736.68
513.98	1865.70
514.18	1712.10
514.38	1740.77
514.58	1730.53
514.78	1619.94
514.98	1669.09
515.18	1658.85
515.38	1718.25
515.58	1904.61
515.78	1677.29
515.98	1728.49
516.18	1857.51
516.38	1732.58
516.57	1730.53
516.77	1738.73
516.97	1761.25
517.17	1785.83
517.37	1607.66
517.57	1779.68
517.77	1691.62
517.97	1662.95
518.17	1767.40
518.37	1628.14
518.57	1705.96
518.77	1681.38
518.97	1724.39
519.16	1746.92
519.36	1794.02
519.56	1701.86
519.76	1732.58
519.96	1773.54
520.16	1869.80
520.36	1665.00
520.56	1806.31
520.76	1755.11
520.96	1730.53
521.16	1771.49
521.35	1798.12
521.55	1738.73
521.75	1753.06
521.95	1730.53
522.15	1740.77
522.35	1691.62
522.55	1855.46
522.75	1783.78
522.95	1753.06
523.14	1634.28
523.34	1785.83
523.54	1681.38
523.74	1781.73
523.94	1732.58
524.14	1679.33
524.34	1783.78
524.54	1800.16
524.73	1738.73
524.93	1767.40
525.13	1769.44
525.33	1644.52
525.53	1906.66
525.73	1761.25
525.93	1751.01
526.13	1771.49
526.32	1669.09
526.52	1843.17
526.72	1744.87
526.92	1718.25
527.12	1714.15
527.32	1644.52
527.52	1796.07
527.71	1791.97
527.91	1683.43
528.11	1726.44
528.31	1748.97
528.51	1699.81
528.71	1720.29
528.90	1781.73
529.10	1779.68
529.30	1855.46
529.50	1658.85
529.70	1783.78
529.90	1703.91
530.09	1732.58
530.29	1710.05
530.49	1718.25
530.69	1953.76
530.89	1773.54
531.09	1820.64
531.28	1705.96
531.48	1843.17
531.68	1822.69
531.88	1755.11
532.08	1742.82
532.28	1734.63
532.47	1808.36
532.67	1775.59
532.87	1785.83
533.07	1712.10
533.27	1806.31
533.46	1748.97
533.66	1755.11
533.86	1726.44
534.06	1710.05
534.26	1794.02
534.45	1662.95
534.65	1822.69
534.85	1693.67
535.05	1699.81
535.25	1771.49
535.44	1669.09
535.64	1683.43
535.84	1699.81
536.04	1759.21
536.24	1712.10
536.43	1806.31
536.63	1779.68
536.83	1718.25
537.03	1763.30
537.22	1640.42
537.42	1753.06
537.62	1820.64
537.82	1773.54
538.02	1859.56
538.21	1748.97
538.41	1894.37
538.61	1781.73
538.81	1755.11
539.00	1777.64
539.20	1701.86
539.40	1689.57
539.60	1783.78
539.79	1806.31
539.99	1716.20
540.19	1732.58
540.39	1644.52
540.58	1683.43
540.78	1804.26
540.98	1763.30
541.18	1873.89
541.37	1791.97
541.57	1740.77
541.77	1800.16
541.97	1763.30
542.16	1691.62
542.36	1671.14
542.56	1724.39
542.76	1822.69
542.95	1755.11
543.15	1783.78
543.35	1798.12
543.54	1828.84
543.74	1638.38
543.94	1834.98
544.14	1742.82
544.33	1767.40
544.53	1687.53
544.73	1742.82
544.93	1791.97
545.12	1705.96
545.32	1708.01
545.52	1783.78
545.71	1691.62
545.91	1816.55
546.11	1734.63
546.30	1675.24
546.50	1746.92
546.70	1775.59
546.90	1734.63
547.09	1669.09
547.29	1771.49
547.49	1742.82
547.68	1798.12
547.88	1728.49
548.08	1849.32
548.27	2127.84
548.47	1775.59
548.67	1681.38
548.87	1802.21
549.06	1765.35
549.26	1773.54
549.46	1736.68
549.65	1746.92
549.85	1734.63
550.05	1773.54
550.24	1748.97
550.44	1699.81
550.64	1767.40
550.83	1693.67
551.03	1748.97
551.23	1802.21
551.42	1767.40
551.62	1734.63
551.82	1769.44
552.01	1753.06
552.21	1871.84
552.41	1773.54
552.60	1912.80
552.80	1820.64
553.00	1720.29
553.19	1785.83
553.39	1810.40
553.59	1697.77
553.78	1834.98
553.98	1748.97
554.17	1730.53
554.37	1695.72
554.57	1775.59
554.76	1726.44
554.96	1767.40
555.16	1716.20
555.35	1757.16
555.55	1726.44
555.75	1814.50
555.94	1830.88
556.14	1656.81
556.33	1779.68
556.53	1681.38
556.73	1785.83
556.92	1810.40
557.12	1777.64
557.32	1839.08
557.51	1763.30
557.71	1777.64
557.90	1839.08
558.10	1828.84
558.30	1742.82
558.49	1767.40
558.69	1757.16
558.88	1771.49
559.08	1738.73
559.28	1734.63
559.47	1716.20
559.67	1789.92
559.86	1861.60
560.06	1812.45
560.26	1726.44
560.45	1783.78
560.65	1763.30
560.84	1783.78
561.04	1730.53
561.24	1820.64
561.43	1701.86
561.63	1849.32
561.82	1769.44
562.02	1779.68
562.22	1744.87
562.41	1708.01
562.61	1746.92
562.80	1742.82
563.00	1927.14
563.19	1746.92
563.39	1650.66
563.59	1777.64
563.78	1658.85
563.98	1667.05
564.17	1738.73
564.37	1693.67
564.56	1718.25
564.76	1681.38
564.96	1863.65
565.15	1734.63
565.35	1869.80
565.54	1785.83
565.74	1816.55
565.93	1794.02
566.13	1685.48
566.32	1744.87
566.52	1751.01
566.71	1662.95
566.91	1800.16
567.11	1656.81
567.30	1708.01
567.50	1779.68
567.69	1769.44
567.89	1769.44
568.08	1732.58
568.28	1791.97
568.47	1660.90
568.67	1847.27
568.86	1728.49
569.06	1867.75
569.25	1726.44
569.45	1751.01
569.64	1736.68
569.84	1748.97
570.04	1751.01
570.23	1712.10
570.43	1724.39
570.62	1853.41
570.82	1800.16
571.01	1765.35
571.21	1716.20
571.40	1800.16
571.60	1800.16
571.79	1816.55
571.99	1773.54
572.18	1654.76
572.38	1816.55
572.57	1693.67
572.77	1822.69
572.96	1937.38
573.16	1800.16
573.35	1718.25
573.55	1789.92
573.74	1808.36
573.94	1824.74
574.13	1753.06
574.33	1802.21
574.52	1785.83
574.71	1759.21
574.91	1798.12
575.10	1669.09
575.30	1759.21
575.49	1818.60
575.69	1777.64
575.88	1738.73
576.08	1714.15
576.27	1810.40
576.47	1796.07
576.66	1855.46
576.86	1820.64
577.05	1798.12
577.25	1767.40
577.44	1839.08
577.64	1669.09
577.83	1771.49
578.02	1716.20
578.22	1898.47
578.41	1800.16
578.61	1755.11
578.80	1710.05
579.00	1789.92
579.19	1814.50
579.39	1703.91
579.58	1777.64
579.77	1789.92
579.97	1884.13
580.16	1810.40
580.36	1796.07
580.55	1849.32
580.75	1859.56
580.94	1826.79
581.13	1810.40
581.33	1873.89
581.52	1736.68
581.72	1906.66
581.91	1808.36
582.11	1798.12
582.30	1800.16
582.49	1859.56
582.69	1849.32
582.88	1839.08
583.08	1775.59
583.27	1796.07
583.47	1785.83
583.66	1736.68
583.85	1753.06
584.05	1759.21
584.24	1826.79
584.44	1804.26
584.63	1779.68
584.82	1884.13
585.02	1855.46
585.21	1828.84
585.41	1818.60
585.60	1816.55
585.79	1964.00
585.99	1904.61
586.18	1900.52
586.37	2203.61
586.57	3276.75
586.76	9811.82
586.96	24049.30
587.15	33955.32
587.34	39912.86
587.54	41989.50
587.73	36142.55
587.93	26097.27
588.12	21126.85
588.31	18013.93
588.51	16117.51
588.70	14667.55
588.89	13975.34
589.09	12582.72
589.28	10803.04
589.47	9279.35
589.67	7886.73
589.86	6336.42
590.06	4865.97
590.25	3893.19
590.44	3110.86
590.64	2400.22
590.83	2230.24
591.02	2140.13
591.22	1902.56
591.41	1847.27
591.60	1865.70
591.80	1882.08
591.99	1763.30
592.18	1730.53
592.38	1857.51
592.57	1728.49
592.76	1826.79
592.96	1726.44
593.15	1753.06
593.34	1849.32
593.54	1734.63
593.73	1806.31
593.92	1773.54
594.12	1763.30
594.31	1734.63
594.50	1886.18
594.70	1761.25
594.89	1853.41
595.08	1632.23
595.28	1767.40
595.47	1964.00
595.66	1740.77
595.86	1748.97
596.05	1783.78
596.24	1718.25
596.43	1818.60
596.63	1849.32
596.82	1771.49
597.01	1775.59
597.21	1773.54
597.40	1710.05
597.59	1744.87
597.79	1722.34
597.98	1765.35
598.17	1787.88
598.36	1794.02
598.56	1779.68
598.75	1828.84
598.94	1650.66
599.14	1759.21
599.33	1705.96
599.52	1820.64
599.71	1751.01
599.91	1863.65
600.10	1759.21
600.29	1777.64
600.48	1740.77
600.68	1810.40
600.87	1802.21
601.06	1738.73
601.26	1804.26
601.45	1761.25
601.64	1732.58
601.83	1812.45
602.03	1734.63
602.22	1710.05
602.41	1751.01
602.60	1820.64
602.80	1828.84
602.99	1744.87
603.18	1753.06
603.37	1726.44
603.57	1773.54
603.76	1816.55
603.95	1830.88
604.14	1681.38
604.34	1736.68
604.53	1771.49
604.72	1705.96
604.91	1753.06
605.10	1779.68
605.30	1673.19
605.49	1900.52
605.68	1783.78
605.87	1791.97
606.07	1736.68
606.26	1812.45
606.45	1925.09
606.64	1763.30
606.84	1699.81
607.03	1775.59
607.22	1763.30
607.41	1718.25
607.60	1703.91
607.80	1855.46
607.99	1689.57
608.18	1648.61
608.37	1806.31
608.56	1673.19
608.76	1781.73
608.95	1888.23
609.14	1777.64
609.33	1796.07
609.52	1871.84
609.72	1701.86
609.91	1822.69
610.10	1683.43
610.29	1812.45
610.48	1703.91
610.68	1791.97
610.87	1738.73
611.06	1798.12
611.25	1787.88
611.44	1816.55
611.63	1660.90
611.83	1824.74
612.02	1685.48
612.21	1845.22
612.40	1683.43
612.59	1615.85
612.79	1669.09
612.98	1751.01
613.17	1767.40
613.36	1724.39
613.55	1877.99
613.74	1628.14
613.93	1693.67
614.13	1689.57
614.32	1763.30
614.51	1796.07
614.70	1634.28
614.89	1714.15
615.08	1777.64
615.28	2111.46
615.47	1632.23
615.66	1738.73
615.85	1646.57
616.04	1689.57
616.23	1779.68
616.42	1705.96
616.62	1753.06
616.81	1804.26
617.00	1744.87
617.19	1781.73
617.38	1785.83
617.57	1738.73
617.76	1804.26
617.95	1785.83
618.15	1789.92
618.34	1865.70
618.53	1638.38
618.72	1845.22
618.91	1869.80
619.10	1820.64
619.29	1699.81
619.48	1769.44
619.68	1693.67
619.87	1767.40
620.06	1675.24
620.25	1779.68
620.44	1677.29
620.63	1759.21
620.82	1777.64
621.01	1771.49
621.20	1757.16
621.39	1771.49
621.59	1689.57
621.78	1685.48
621.97	1773.54
622.16	1746.92
622.35	1720.29
622.54	1826.79
622.73	1849.32
622.92	1624.04
623.11	1767.40
623.30	1658.85
623.49	1787.88
623.68	1734.63
623.88	1779.68
624.07	1669.09
624.26	1746.92
624.45	1701.86
624.64	1648.61
624.83	1755.11
625.02	1736.68
625.21	1787.88
625.40	1742.82
625.59	1865.70
625.78	1716.20
625.97	1818.60
626.16	1826.79
626.35	1775.59
626.54	1794.02
626.74	1834.98
626.93	1742.82
627.12	1697.77
627.31	1783.78
627.50	1689.57
627.69	1808.36
627.88	1734.63
628.07	1777.64
628.26	1693.67
628.45	1767.40
628.64	1720.29
628.83	1775.59
629.02	1658.85
629.21	1771.49
629.40	1742.82
629.59	1705.96
629.78	1734.63
629.97	1675.24
630.16	1748.97
630.35	1755.11
630.54	1757.16
630.73	1722.34
630.92	1746.92
631.11	1681.38
631.30	1826.79
631.49	1796.07
631.68	1708.01
631.87	1753.06
632.06	1630.18
632.25	1843.17
632.44	1767.40
632.63	1693.67
632.82	1693.67
633.01	1705.96
633.20	1703.91
633.39	1689.57
633.58	1640.42
633.77	1722.34
633.96	1630.18
634.15	1734.63
634.34	1796.07
634.53	1771.49
634.72	1624.04
634.91	1626.09
635.10	1705.96
635.29	1742.82
635.48	1724.39
635.67	1683.43
635.86	1679.33
636.05	1730.53
636.24	1740.77
636.43	1812.45
636.62	1757.16
636.81	1597.42
637.00	1716.20
637.19	1714.15
637.38	1726.44
637.57	1718.25
637.76	1673.19
637.95	1757.16
638.14	1724.39
638.33	1783.78
638.52	1705.96
638.71	1648.61
638.89	1718.25
639.08	1826.79
639.27	1736.68
639.46	1685.48
639.65	1755.11
639.84	1761.25
640.03	1755.11
640.22	1755.11
640.41	1861.60
640.60	1671.14
640.79	1771.49
640.98	1742.82
641.17	1730.53
641.36	1720.29
641.55	1755.11
641.74	1724.39
641.92	1673.19
642.11	1636.33
642.30	1759.21
642.49	1693.67
642.68	1671.14
642.87	1757.16
643.06	1783.78
643.25	1595.37
643.44	1763.30
643.63	1687.53
643.82	1746.92
644.00	1652.71
644.19	1738.73
644.38	1730.53
644.57	1830.88
644.76	1738.73
644.95	1654.76
645.14	1740.77
645.33	1736.68
645.52	1734.63
645.71	1658.85
645.89	1679.33
646.08	1759.21
646.27	1732.58
646.46	1798.12
646.65	1621.99
646.84	1714.15
647.03	1708.01
647.22	1773.54
647.40	1765.35
647.59	1644.52
647.78	1652.71
647.97	1705.96
648.16	1671.14
648.35	1812.45
648.54	1759.21
648.73	1683.43
648.91	1738.73
649.10	1724.39
649.29	1660.90
649.48	1705.96
649.67	1662.95
649.86	1665.00
650.05	1738.73
650.23	1810.40
650.42	1624.04
650.61	1712.10
650.80	1763.30
650.99	1882.08
651.18	1763.30
651.36	1814.50
651.55	1712.10
651.74	1804.26
651.93	1744.87
652.12	1734.63
652.31	1695.72
652.49	1642.47
652.68	1714.15
652.87	1802.21
653.06	1716.20
653.25	1826.79
653.44	1693.67
653.62	1820.64
653.81	1757.16
654.00	1736.68
654.19	1773.54
654.38	1845.22
654.56	1712.10
654.75	1742.82
654.94	1818.60
655.13	1730.53
655.32	1665.00
655.51	1732.58
655.69	1714.15
655.88	1761.25
656.07	1738.73
656.26	1755.11
656.45	1599.46
656.63	1673.19
656.82	1832.93
657.01	1703.91
657.20	1720.29
657.38	1763.30
657.57	1708.01
657.76	1589.22
657.95	1779.68
658.14	1736.68
658.32	1742.82
658.51	1730.53
658.70	1767.40
658.89	1699.81
659.08	1779.68
659.26	1873.89
659.45	1619.94
659.64	1744.87
659.83	1656.81
660.01	1902.56
660.20	1771.49
660.39	1779.68
660.58	1603.56
660.76	1781.73
660.95	1656.81
661.14	1740.77
661.33	1667.05
661.51	1675.24
661.70	1740.77
661.89	1785.83
662.08	1712.10
662.26	1675.24
662.45	1714.15
662.64	1839.08
662.83	1701.86
663.01	1671.14
663.20	1722.34
663.39	1775.59
663.58	1632.23
663.76	1742.82
663.95	1789.92
664.14	1697.77
664.32	1740.77
664.51	1703.91
664.70	1636.33
664.89	1722.34
665.07	1746.92
665.26	1685.48
665.45	1701.86
665.64	1695.72
665.82	1732.58
666.01	1767.40
666.20	1683.43
666.38	1859.56
666.57	1841.12
666.76	2127.84
666.95	4544.44
667.13	10362.72
667.32	15120.15
667.51	17780.46
667.69	18999.01
667.88	17495.80
668.07	12009.29
668.25	9201.52
668.44	8048.52
668.63	7235.47
668.81	6682.52
669.00	6297.50
669.19	5769.13
669.38	5093.30
669.56	4577.21
669.75	4032.45
669.94	3506.12
670.12	2881.49
670.31	2586.58
670.50	2316.25
670.68	2142.18
670.87	2009.06
671.06	1802.21
671.24	1816.55
671.43	1796.07
671.62	1892.32
671.80	1808.36
671.99	1794.02
672.18	1744.87
672.36	1812.45
672.55	1748.97
672.74	1738.73
672.92	1748.97
673.11	1773.54
673.29	1662.95
673.48	1759.21
673.67	1714.15
673.85	1798.12
674.04	1675.24
674.23	1761.25
674.41	1775.59
674.60	1697.77
674.79	1624.04
674.97	1658.85
675.16	1773.54
675.34	1845.22
675.53	1746.92
675.72	1751.01
675.90	1794.02
676.09	1699.81
676.28	1720.29
676.46	1621.99
676.65	1757.16
676.83	1634.28
677.02	1742.82
677.21	1783.78
677.39	1714.15
677.58	1695.72
677.77	1732.58
677.95	1732.58
678.14	1732.58
678.32	1697.77
678.51	1716.20
678.70	1826.79
678.88	1718.25
679.07	1759.21
679.25	1710.05
679.44	1720.29
679.63	1673.19
679.81	1763.30
680.00	1824.74
680.18	1800.16
680.37	1681.38
680.55	1775.59
680.74	1611.75
680.93	1583.08
681.11	1779.68
681.30	1693.67
681.48	1681.38
681.67	1693.67
681.85	1685.48
682.04	1654.76
682.23	1730.53
682.41	1697.77
682.60	1742.82
682.78	1802.21
682.97	1751.01
683.15	1755.11
683.34	1720.29
683.53	1814.50
683.71	1693.67
683.90	1796.07
684.08	1818.60
684.27	1636.33
684.45	1658.85
684.64	1740.77
684.82	1714.15
685.01	1757.16
685.19	1744.87
685.38	1789.92
685.57	1730.53
685.75	1675.24
685.94	1740.77
686.12	1611.75
686.31	1689.57
686.49	1822.69
686.68	1611.75
686.86	1675.24
687.05	1746.92
687.23	1814.50
687.42	1652.71
687.60	1583.08
687.79	1822.69
687.97	1812.45
688.16	1841.12
688.34	1757.16
688.53	1634.28
688.71	1675.24
688.90	1794.02
689.08	1677.29
689.27	1720.29
689.45	1798.12
689.64	1701.86
689.82	1742.82
690.01	1818.60
690.19	1812.45
690.38	1681.38
690.56	1832.93
690.75	1628.14
690.93	1640.42
691.12	1701.86
691.30	1734.63
691.49	1679.33
691.67	1652.71
691.86	1890.28
692.04	1769.44
692.23	1658.85
692.41	1761.25
692.60	1796.07
692.78	1732.58
692.97	1675.24
693.15	1720.29
693.34	1734.63
693.52	1763.30
693.71	1642.47
693.89	1769.44
694.08	1642.47
694.26	1708.01
694.44	1761.25
694.63	1763.30
694.81	1710.05
695.00	1748.97
695.18	1781.73
695.37	1824.74
695.55	1728.49
695.74	1722.34
695.92	1693.67
696.10	1720.29
696.29	1644.52
696.47	1691.62
696.66	1679.33
696.84	1644.52
697.03	1720.29
697.21	1798.12
697.40	2306.01
697.58	1787.88
697.76	1746.92
697.95	1677.29
698.13	1746.92
698.32	1677.29
698.50	1691.62
698.68	1769.44
698.87	1708.01
699.05	1812.45
699.24	1794.02
699.42	1681.38
699.61	1726.44
699.79	1791.97
699.97	1691.62
700.16	1683.43
700.34	1624.04
700.53	1742.82
700.71	1800.16
700.89	1812.45
701.08	1687.53
701.26	1767.40
701.45	2131.94
701.63	1722.34
701.81	1714.15
702.00	1708.01
702.18	1677.29
702.37	1665.00
702.55	1734.63
702.73	1759.21
702.92	1650.66
703.10	1808.36
703.28	1617.90
703.47	1669.09
703.65	1789.92
703.84	1781.73
704.02	1685.48
704.20	1808.36
704.39	1720.29
704.57	1714.15
704.75	1779.68
704.94	1748.97
705.12	1716.20
705.30	1753.06
705.49	2334.68
705.67	4560.83
705.86	9353.07
706.04	12099.40
706.22	14223.14
706.41	15009.56
706.59	13592.37
706.77	9496.43
706.96	7292.82
707.14	6526.88
707.32	5859.24
707.51	5443.50
707.69	4857.78
707.87	4161.47
708.06	3461.07
708.24	2990.03
708.42	2426.84
708.61	2281.44
708.79	1855.46
708.97	1914.85
709.16	1843.17
709.34	1765.35
709.52	1755.11
709.71	1724.39
709.89	1841.12
710.07	1716.20
710.26	1689.57
710.44	1757.16
710.62	1693.67
710.80	1712.10
710.99	1771.49
711.17	1781.73
711.35	1695.72
711.54	1787.88
711.72	1804.26
711.90	1767.40
712.09	1660.90
712.27	1683.43
712.45	1779.68
712.63	1730.53
712.82	1767.40
713.00	1724.39
713.18	1734.63
713.37	1816.55
713.55	1755.11
713.73	1689.57
713.91	1732.58
714.10	1724.39
714.28	1763.30
714.46	1759.21
714.65	1685.48
714.83	1708.01
715.01	1691.62
715.19	1671.14
715.38	1673.19
715.56	1775.59
715.74	1697.77
715.92	1710.05
716.11	1796.07
716.29	1660.90
716.47	1724.39
716.65	1722.34
716.84	1662.95
717.02	1769.44
717.20	1617.90
717.38	1751.01
717.57	1804.26
717.75	1755.11
717.93	1738.73
718.11	1740.77
718.30	1671.14
718.48	1759.21
718.66	1755.11
718.84	1775.59
719.03	1742.82
719.21	1714.15
719.39	1753.06
719.57	1736.68
719.75	1777.64
719.94	1673.19
720.12	1710.05
720.30	1751.01
720.48	1818.60
720.67	1638.38
720.85	1654.76
721.03	1718.25
721.21	1660.90
721.39	1732.58
721.58	1722.34
721.76	1783.78
721.94	1771.49
722.12	1738.73
722.30	1822.69
722.49	1691.62
722.67	1781.73
722.85	1740.77
723.03	1644.52
723.21	1660.90
723.40	1779.68
723.58	1730.53
723.76	1757.16
723.94	1796.07
724.12	1773.54
724.30	1730.53
724.49	1789.92
724.67	1615.85
724.85	1814.50
725.03	1609.70
725.21	1744.87
725.40	1744.87
725.58	1683.43
725.76	1728.49
725.94	1738.73
726.12	1695.72
726.30	1699.81
726.49	1763.30
726.67	1636.33
726.85	1751.01
727.03	1824.74
727.21	2121.70
727.39	2975.70
727.57	3815.37
727.76	4169.66
727.94	4388.80
728.12	4255.68
728.30	3577.80
728.48	2992.08
728.66	2797.53
728.84	2502.62
729.03	2283.49
729.21	2150.37
729.39	1980.39
729.57	1802.21
729.75	1865.70
729.93	1828.84
730.11	1650.66
730.30	1679.33
730.48	1705.96
730.66	1808.36
730.84	1837.03
731.02	1689.57
731.20	1683.43
731.38	1742.82
731.56	1671.14
731.74	1705.96
731.93	1742.82
732.11	1722.34
732.29	1724.39
732.47	1808.36
732.65	1751.01
732.83	1804.26
733.01	1751.01
733.19	1642.47
733.37	1740.77
733.56	1738.73
733.74	1761.25
733.92	1767.40
734.10	1773.54
734.28	1779.68
734.46	1695.72
734.64	1714.15
734.82	1785.83
735.00	1613.80
735.18	1722.34
735.36	1748.97
735.54	1656.81
735.73	1759.21
735.91	1677.29
736.09	1697.77
736.27	1705.96
736.45	1761.25
736.63	1671.14
736.81	1773.54
736.99	1722.34
737.17	1791.97
737.35	1722.34
737.53	1734.63
737.71	1619.94
737.89	1714.15
738.07	1685.48
738.25	1716.20
738.43	1624.04
738.61	1701.86
738.80	1738.73
738.98	1652.71
739.16	1708.01
739.34	1691.62
739.52	1804.26
739.70	1730.53
739.88	1751.01
740.06	1796.07
740.24	1626.09
740.42	1701.86
740.60	1656.81
740.78	1665.00
740.96	1570.79
741.14	1654.76
741.32	1798.12
741.50	1644.52
741.68	1800.16
741.86	1783.78
742.04	1689.57
742.22	1687.53
742.40	1736.68
742.58	1775.59
742.76	1662.95
742.94	1681.38
743.12	1607.66
743.30	1662.95
743.48	1730.53
743.66	1728.49
743.84	1744.87
744.02	1691.62
744.20	1730.53
744.38	1677.29
744.56	1652.71
744.74	1800.16
744.92	1781.73
745.10	1722.34
745.28	1755.11
745.46	1796.07
745.64	1648.61
745.82	1748.97
746.00	1816.55
746.18	1785.83
746.36	1687.53
746.54	1740.77
746.72	1710.05
746.90	1669.09
747.08	1755.11
747.26	1619.94
747.44	1718.25
747.62	1738.73
747.80	1779.68
747.98	1665.00
748.15	1695.72
748.33	1839.08
748.51	1693.67
748.69	1771.49
748.87	1691.62
749.05	1718.25
749.23	1697.77
749.41	1710.05
749.59	1681.38
749.77	1779.68
749.95	1667.05
750.13	1716.20
750.31	1730.53
750.49	1658.85
750.67	1757.16
750.85	1810.40
751.03	1775.59
751.20	1789.92
751.38	1718.25
751.56	1742.82
751.74	1736.68
751.92	1730.53
752.10	1615.85
752.28	1736.68
752.46	1632.23
752.64	1695.72
752.82	1681.38
753.00	1828.84
753.18	1667.05
753.35	1679.33
753.53	1730.53
753.71	1722.34
753.89	1720.29
754.07	1804.26
754.25	1722.34
754.43	1767.40
754.61	1695.72
754.79	1761.25
754.97	1671.14
755.14	1800.16
755.32	1632.23
755.50	1736.68
755.68	1744.87
755.86	1665.00
756.04	1742.82
756.22	1585.13
756.40	1755.11
756.57	1834.98
756.75	1685.48
756.93	1775.59
757.11	1669.09
757.29	1636.33
757.47	1634.28
757.65	1665.00
757.82	1603.56
758.00	1679.33
758.18	1652.71
758.36	1587.18
758.54	1740.77
758.72	1648.61
758.90	1710.05
759.07	1759.21
759.25	1638.38
759.43	1775.59
759.61	1605.61
759.79	2279.39
759.97	1699.81
760.15	1671.14
760.32	1624.04
760.50	1763.30
760.68	1849.32
760.86	1646.57
761.04	1763.30
761.22	1765.35
761.39	1687.53
761.57	1746.92
761.75	1701.86
761.93	1771.49
762.11	1677.29
762.28	1746.92
762.46	1675.24
762.64	1791.97
762.82	1667.05
763.00	1710.05
763.18	1771.49
763.35	1687.53
763.53	1802.21
763.71	1671.14
763.89	1767.40
764.07	1753.06
764.24	1669.09
764.42	1656.81
764.60	1648.61
764.78	1740.77
764.96	1759.21
765.13	1726.44
765.31	1789.92
765.49	1736.68
765.67	1681.38
765.84	1642.47
766.02	1738.73
766.20	1669.09
766.38	1732.58
766.56	1701.86
766.73	1716.20
766.91	1736.68
767.09	1734.63
767.27	1783.78
767.44	1642.47
767.62	1714.15
767.80	1724.39
767.98	1734.63
768.15	1724.39
768.33	1781.73
768.51	1779.68
768.69	1865.70
768.87	1726.44
769.04	1748.97
769.22	1857.51
769.40	1816.55
769.58	1884.13
769.75	1726.44
769.93	1730.53
770.11	1703.91
770.28	1642.47
770.46	1751.01
770.64	1746.92
770.82	1669.09
770.99	1691.62
771.17	1712.10
771.35	1718.25
771.53	1738.73
771.70	1630.18
771.88	1740.77
772.06	1705.96
772.23	1669.09
772.41	1789.92
772.59	1687.53
772.77	1703.91
772.94	1658.85
773.12	1689.57
773.30	1701.86
773.47	1718.25
773.65	1742.82
773.83	1816.55
774.01	1683.43
774.18	1603.56
774.36	1683.43
774.54	1697.77
774.71	1673.19
774.89	1636.33
775.07	1619.94
775.24	1677.29
775.42	1689.57
775.60	1765.35
775.78	1705.96
775.95	1587.18
776.13	1658.85
776.31	1570.79
776.48	1791.97
776.66	1740.77
776.84	1771.49
777.01	1665.00
777.19	1720.29
777.37	1738.73
777.54	1767.40
777.72	1722.34
777.90	1681.38
778.07	1619.94
778.25	1892.32
778.43	1734.63
778.60	1722.34
778.78	1759.21
778.96	1757.16
779.13	1669.09
779.31	1730.53
779.49	1753.06
779.66	1742.82
779.84	1724.39
780.01	1699.81
780.19	1699.81
780.37	1777.64
780.54	1679.33
780.72	1669.09
780.90	1742.82
781.07	1714.15
781.25	1728.49
781.43	1771.49
781.60	1710.05
781.78	1722.34
781.95	1605.61
782.13	1689.57
782.31	1683.43
782.48	1652.71
782.66	1669.09
782.83	1832.93
783.01	1703.91
783.19	1787.88
783.36	1675.24
783.54	1695.72
783.72	1759.21
783.89	1642.47
784.07	1746.92
784.24	1753.06
784.42	1742.82
784.60	1693.67
784.77	1759.21
784.95	1644.52
785.12	1658.85
785.30	1646.57
785.47	1632.23
785.65	1624.04
785.83	1681.38
786.00	1708.01
786.18	1701.86
786.35	1521.64
786.53	1724.39
786.71	1847.27
786.88	1716.20
787.06	1683.43
787.23	1658.85
787.41	1607.66
787.58	1732.58
787.76	1644.52
787.94	1724.39
788.11	1699.81
788.29	1638.38
788.46	1581.03
788.64	1652.71
788.81	1726.44
788.99	1691.62
789.16	1671.14
789.34	1693.67
789.52	1626.09
789.69	1665.00
789.87	1691.62
790.04	1712.10
790.22	1773.54
790.39	1800.16
790.57	1701.86
790.74	1679.33
790.92	1785.83
791.09	1634.28
791.27	1648.61
791.44	1888.23
791.62	1779.68
791.79	1732.58
791.97	1701.86
792.15	1916.90
792.32	1757.16
792.50	1742.82
792.67	1818.60
792.85	1847.27
793.02	1703.91
793.20	1718.25
793.37	1646.57
793.55	1728.49
793.72	1656.81
793.90	1757.16
794.07	1669.09
794.25	1619.94
794.42	1744.87
794.60	1765.35
794.77	1759.21
794.95	1699.81
795.12	1734.63
795.30	1695.72
795.47	1646.57
795.65	1873.89
795.82	1763.30
796.00	1718.25
796.17	1701.86
796.34	1701.86
796.52	1738.73
796.69	1689.57
796.87	1810.40
797.04	1699.81
797.22	1738.73
797.39	1746.92
797.57	1732.58
797.74	1689.57
797.92	1720.29
798.09	1714.15
798.27	1755.11
798.44	1804.26
798.62	1669.09
798.79	1771.49
798.96	1742.82
799.14	1642.47
799.31	1847.27
799.49	1722.34
799.66	1648.61
799.84	1708.01
800.01	1630.18
800.19	1742.82
800.36	1624.04
800.53	1660.90
800.71	1685.48
800.88	1744.87
801.06	1619.94
801.23	1740.77
801.41	1650.66
801.58	1597.42
801.75	1720.29
801.93	1710.05
802.10	1689.57
802.28	1736.68
802.45	1638.38
802.63	1783.78
802.80	1761.25
802.97	1646.57
803.15	1681.38
803.32	1656.81
803.50	1699.81
803.67	1689.57
803.84	1605.61
804.02	1781.73
804.19	1638.38
804.37	1585.13
804.54	1673.19
804.71	1726.44
804.89	1665.00
805.06	1587.18
805.24	1716.20
805.41	1675.24
805.58	1634.28
805.76	1824.74
805.93	1681.38
806.10	1765.35
806.28	1751.01
806.45	1728.49
806.63	1773.54
806.80	1718.25
806.97	1630.18
807.15	1681.38
807.32	1736.68
807.49	1710.05
807.67	1667.05
807.84	1806.31
808.01	1656.81
808.19	1845.22
808.36	1816.55
808.54	1662.95
808.71	1662.95
808.88	1753.06
809.06	1740.77
809.23	1882.08
809.40	1665.00
809.58	1748.97
809.75	1712.10
809.92	1703.91
810.10	1834.98
810.27	1667.05
810.44	1710.05
810.62	1751.01
810.79	1714.15
810.96	1710.05
811.14	1714.15
811.31	1732.58
811.48	1785.83
811.66	1621.99
811.83	1767.40
812.00	1773.54
812.18	1812.45
812.35	1781.73
812.52	1628.14
812.69	1673.19
812.87	1751.01
813.04	1652.71
813.21	1644.52
813.39	1699.81
813.56	1595.37
813.73	1705.96
813.91	1609.70
814.08	1710.05
814.25	1748.97
814.42	1658.85
814.60	1644.52
814.77	1697.77
814.94	1751.01
815.12	1642.47
815.29	1839.08
815.46	1689.57
815.63	1628.14
815.81	1755.11
815.98	1724.39
816.15	1699.81
816.33	1736.68
816.50	1677.29
816.67	1740.77
816.84	1744.87
817.02	1611.75
817.19	1767.40
817.36	1763.30
817.53	1652.71
817.71	1705.96
817.88	1822.69
818.05	1712.10
818.22	1671.14
818.40	1865.70
818.57	1679.33
818.74	1785.83
818.91	1691.62
819.09	1710.05
819.26	1734.63
819.43	1658.85
819.60	1691.62
819.78	1787.88
819.95	1775.59
820.12	1748.97
820.29	1761.25
820.47	1683.43
820.64	1740.77
820.81	1621.99
820.98	1595.37
821.15	1699.81
821.33	1755.11
821.50	1652.71
821.67	1708.01
821.84	1703.91
822.02	1759.21
822.19	1701.86
822.36	1662.95
822.53	1744.87
822.70	1636.33
822.88	1630.18
823.05	1871.84
823.22	1660.90
823.39	1656.81
823.56	1759.21
823.74	1779.68
823.91	1630.18
824.08	1685.48
824.25	1708.01
824.42	1890.28
824.60	1691.62
824.77	1730.53
824.94	1632.23
825.11	1726.44
825.28	1624.04
825.45	1724.39
825.63	1744.87
825.80	1648.61
825.97	1705.96
826.14	1740.77
826.31	1646.57
826.48	1712.10
826.66	1697.77
826.83	1701.86
827.00	1714.15
827.17	1656.81
827.34	1714.15
827.51	1675.24
827.69	1710.05
827.86	1640.42
828.03	1808.36
828.20	1740.77
828.37	1744.87
828.54	1703.91
828.71	1697.77
828.89	1806.31
829.06	1650.66
829.23	1863.65
829.40	1687.53
829.57	1695.72
829.74	1736.68
829.91	1648.61
830.09	1632.23
830.26	1714.15
830.43	1816.55
830.60	1675.24
830.77	1714.15
830.94	1808.36
831.11	1779.68
831.28	1642.47
831.46	1703.91
831.63	1660.90
831.80	1718.25
831.97	1697.77
832.14	1708.01
832.31	1683.43
832.48	1701.86
832.65	1871.84
832.82	1669.09
832.99	1724.39
833.17	1712.10
833.34	1798.12
833.51	1689.57
833.68	1609.70
833.85	1736.68
834.02	1626.09
834.19	1648.61
834.36	1613.80
834.53	1734.63
834.70	1787.88
834.87	1757.16
835.04	1746.92
835.22	1718.25
835.39	1681.38
835.56	1660.90
835.73	1689.57
835.90	1730.53
836.07	1673.19
836.24	1708.01
836.41	1689.57
836.58	1662.95
836.75	1787.88
836.92	1716.20
837.09	1714.15
837.26	1705.96
837.43	1613.80
837.60	1730.53
837.77	1679.33
837.94	1705.96
838.12	1767.40
838.29	1732.58
838.46	1540.07
838.63	1695.72
838.80	1765.35
838.97	1812.45
839.14	1742.82
839.31	1740.77
839.48	1738.73
839.65	1691.62
839.82	1708.01
839.99	1755.11
840.16	1783.78
840.33	1683.43
840.50	1734.63
840.67	1693.67
840.84	1640.42
841.01	1636.33
841.18	1669.09
841.35	1716.20
841.52	1777.64
841.69	1818.60
841.86	1746.92
842.03	1681.38
842.20	1767.40
842.37	1669.09
842.54	1736.68
842.71	1738.73
842.88	1673.19
843.05	1783.78
843.22	1701.86
843.39	1722.34
843.56	1636.33
843.73	1763.30
843.90	1730.53
844.07	1677.29
844.24	1751.01
844.41	1757.16
844.58	1687.53
844.75	1759.21
844.92	1665.00
845.09	1683.43
845.26	1656.81
845.43	1730.53
845.60	1599.46
845.77	1718.25
845.94	1673.19
846.10	1728.49
846.27	1662.95
846.44	1705.96
846.61	1679.33
846.78	1685.48
846.95	1687.53
847.12	1691.62
847.29	1746.92
847.46	1660.90
847.63	1742.82
847.80	1601.51
847.97	1658.85
848.14	1798.12
848.31	1761.25
848.48	1722.34
848.65	1722.34
848.82	1669.09
848.98	1820.64
849.15	1652.71
849.32	1794.02
849.49	1828.84
849.66	1634.28
849.83	1636.33
850.00	1650.66
850.17	1785.83
850.34	1712.10
850.51	1683.43
850.68	1687.53
850.85	1834.98
851.01	1751.01
851.18	1681.38
851.35	1675.24
851.52	1765.35
851.69	1851.36
851.86	1710.05
852.03	1716.20
852.20	1748.97
852.37	1681.38
852.53	1701.86
852.70	1708.01
852.87	1716.20
853.04	1728.49
853.21	1705.96
853.38	1783.78
853.55	1769.44
853.72	1814.50
853.89	1652.71
854.05	1630.18
854.22	1695.72
854.39	1728.49
854.56	1771.49
854.73	1734.63
854.90	1628.14
855.07	1681.38
855.23	1669.09
855.40	1742.82
855.57	1726.44
855.74	1591.27
855.91	1898.47
856.08	1603.56
856.25	1652.71
856.41	1724.39
856.58	1671.14
856.75	1732.58
856.92	1626.09
857.09	1765.35
857.26	1626.09
857.42	1665.00
857.59	1771.49
857.76	1726.44
857.93	1720.29
858.10	1779.68
858.27	1695.72
858.43	1675.24
858.60	1675.24
858.77	1671.14
858.94	1667.05
859.11	1730.53
859.27	1728.49
859.44	1691.62
859.61	1820.64
859.78	1683.43
859.95	1675.24
860.12	1656.81
860.28	1800.16
860.45	1869.80
860.62	1742.82
860.79	1755.11
860.95	1662.95
861.12	1714.15
861.29	1669.09
861.46	1667.05
861.63	1753.06
861.79	1759.21
861.96	1650.66
862.13	1697.77
862.30	1714.15
862.47	1697.77
862.63	1624.04
862.80	1914.85
862.97	1710.05
863.14	1732.58
863.30	1660.90
863.47	1742.82
863.64	1832.93
863.81	1662.95
863.97	1689.57
864.14	1744.87
864.31	1652.71
864.48	1697.77
864.65	1695.72
864.81	1708.01
864.98	1691.62
865.15	1800.16
865.32	1667.05
865.48	1685.48
865.65	1763.30
865.82	1597.42
865.98	1748.97
866.15	1759.21
866.32	1681.38
866.49	1720.29
866.65	1755.11
866.82	1626.09
866.99	1689.57
867.16	1718.25
867.32	1748.97
867.49	1646.57
867.66	1697.77
867.83	1685.48
867.99	1673.19
868.16	1695.72
868.33	1662.95
868.49	1697.77
868.66	1695.72
868.83	1765.35
868.99	1710.05
869.16	1605.61
869.33	1789.92
869.50	1816.55
869.66	1683.43
869.83	1779.68
870.00	1583.08
870.16	1763.30
870.33	1642.47
870.50	1671.14
870.66	1744.87
870.83	1779.68
871.00	1687.53
871.17	1724.39
871.33	1667.05
871.50	1738.73
871.67	1701.86
871.83	1626.09
872.00	1816.55
872.17	1699.81
872.33	1783.78
872.50	1812.45
872.67	1769.44
872.83	1730.53
873.00	1710.05
873.17	1669.09
873.33	1765.35
873.50	1736.68
873.67	1689.57
873.83	1665.00
874.00	1679.33
874.16	1714.15
874.33	1763.30
874.50	1626.09
874.66	1726.44
874.83	1777.64
875.00	1814.50
875.16	1804.26
875.33	1759.21
875.50	1611.75
875.66	1726.44
875.83	1697.77
875.99	1736.68
876.16	1660.90
876.33	1722.34
876.49	1671.14
876.66	1738.73
876.83	1681.38
876.99	1642.47
877.16	1730.53
877.32	1681.38
877.49	1759.21
877.66	1751.01
877.82	1730.53
877.99	1689.57
878.15	1748.97
878.32	1689.57
878.49	1730.53
878.65	1716.20
878.82	1798.12
878.98	1603.56
879.15	1767.40
879.32	1691.62
879.48	1701.86
879.65	1630.18
879.81	1671.14
879.98	1654.76
880.15	1658.85
880.31	1789.92
880.48	1667.05
880.64	1703.91
880.81	1767.40
880.97	1757.16
881.14	1742.82
881.31	1695.72
881.47	1775.59
881.64	1654.76
881.80	1624.04
881.97	1761.25
882.13	1791.97
882.30	1671.14
882.47	1658.85
882.63	1708.01
882.80	1755.11
882.96	1740.77
883.13	1765.35
883.29	1665.00
883.46	1708.01
883.62	1777.64
883.79	1675.24
883.95	1779.68
884.12	1703.91
884.29	1695.72
884.45	1722.34
884.62	1714.15
884.78	1683.43
884.95	1834.98
885.11	1648.61
885.28	1716.20
885.44	1671.14
885.61	1742.82
885.77	1740.77
885.94	1767.40
886.10	1724.39
886.27	1712.10
886.43	1761.25
886.60	1652.71
886.76	1714.15
886.93	1658.85
887.09	1736.68
887.26	1619.94
887.42	1740.77
887.59	1767.40
887.75	1812.45
887.92	1738.73
888.08	1804.26
888.25	1832.93
888.41	1746.92
888.58	1683.43
888.74	1611.75
888.91	1607.66
>>>>>End Processed Spectral Data<<<<<
